instructions_2afc.started,instructions_2afc.stopped,instructions_2afc_loop.thisRepN,instructions_2afc_loop.thisTrialN,instructions_2afc_loop.thisN,instructions_2afc_loop.thisIndex,instructions_2afc_loop.ran,instructions_text,continue_text,participant_id,"What variety of Spanish are you most familiar with? (e.g., Peruvian, Spanish, Mexican)",At what age did you begin learning Spanish?,Are you proficient in any languages other than English/Spanish?,"Are you familiar with Caribbean (e.g., Caribbean, Puerto Rican) or Galician Spanish?",date,expName,psychopyVersion,OS,frameRate,id,study_id,session,practice_2afc.started,practice_2afc.stopped,key_resp_2afc_practice.keys,key_resp_2afc_practice.corr,key_resp_2afc_practice.rt,key_resp_2afc_practice.duration,trials_2afc_practice_loop.thisRepN,trials_2afc_practice_loop.thisTrialN,trials_2afc_practice_loop.thisN,trials_2afc_practice_loop.thisIndex,trials_2afc_practice_loop.ran,path,correct_response,check_2afc.started,check_2afc.stopped,trial_2afc.started,trial_2afc.stopped,key_resp_2afc_trial.keys,key_resp_2afc_trial.corr,key_resp_2afc_trial.rt,key_resp_2afc_trial.duration,trials_2afc_loop.thisRepN,trials_2afc_loop.thisTrialN,trials_2afc_loop.thisN,trials_2afc_loop.thisIndex,trials_2afc_loop.ran,item_num,target,variety,instructions_lextale.started,instructions_lextale.stopped,instructions_lextale_loop.thisRepN,instructions_lextale_loop.thisTrialN,instructions_lextale_loop.thisN,instructions_lextale_loop.thisIndex,instructions_lextale_loop.ran,practice_lextale.started,practice_lextale.stopped,key_resp_lextale_practice.keys,key_resp_lextale_practice.corr,key_resp_lextale_practice.rt,key_resp_lextale_practice.duration,practice_feedback_lextale.started,practice_feedback_lextale.stopped,trials_lextale_practice_loop.thisRepN,trials_lextale_practice_loop.thisTrialN,trials_lextale_practice_loop.thisN,trials_lextale_practice_loop.thisIndex,trials_lextale_practice_loop.ran,stim,word,prac_button_real,prac_button_false,check_lextale.started,check_lextale.stopped,trial_lextale.started,trial_lextale.stopped,key_resp_lextale_trial.keys,key_resp_lextale_trial.corr,key_resp_lextale_trial.rt,key_resp_lextale_trial.duration,trials_lextale_loop.thisRepN,trials_lextale_loop.thisTrialN,trials_lextale_loop.thisN,trials_lextale_loop.thisIndex,trials_lextale_loop.ran,button_real,button_false,instructions_eq.started,instructions_eq.stopped,trial_eq.started,trial_eq.stopped,slider_eq_trial.response,trials_eq_loop.thisRepN,trials_eq_loop.thisTrialN,trials_eq_loop.thisN,trials_eq_loop.thisIndex,trials_eq_loop.ran,item,is_test_item,is_distractor,is_agree_score,is_disagree_score,end_exp.started,end_exp.stopped
0.0709,2.8237,0,0,0,0,1,"In the following task you are going to hear a series of utterances. 

  You will decide if the utterances sound like questions or not using your keyboard.", (press the spacebar to continue),5589be79fdf99b18be320155,Spanish,13 or older,"no, only English or Spanish",no,2025-07-24_10h48.53.583,empathy_intonation_perc_control,2024.2.4,Win32,60.24096386,5589be79fdf99b18be320155,68817205a84113384fffdfe3,688247b1ef3a9eaddaecc038,,,,,,,,,,,,,,,,,,,,,,,,,,,,,,,,,,,,,,,,,,,,,,,,,,,,,,,,,,,,,,,,,,,,,,,,,,,,,,,,,,,,,
2.8258,6.5615,0,1,1,1,1,"If you believe the utterance is a question, type '1' (for 'yes') and if you do not 
  believe it is a question type '0' (for 'no').

  Let's practice a bit...", (press the spacebar to continue),5589be79fdf99b18be320155,Spanish,13 or older,"no, only English or Spanish",no,2025-07-24_10h48.53.583,empathy_intonation_perc_control,2024.2.4,Win32,60.24096386,5589be79fdf99b18be320155,68817205a84113384fffdfe3,688247b1ef3a9eaddaecc038,,,,,,,,,,,,,,,,,,,,,,,,,,,,,,,,,,,,,,,,,,,,,,,,,,,,,,,,,,,,,,,,,,,,,,,,,,,,,,,,,,,,,
,,,,,,,,,5589be79fdf99b18be320155,Spanish,13 or older,"no, only English or Spanish",no,2025-07-24_10h48.53.583,empathy_intonation_perc_control,2024.2.4,Win32,60.24096386,5589be79fdf99b18be320155,68817205a84113384fffdfe3,688247b1ef3a9eaddaecc038,6.6084,9.5311,0,0,2.3741,,0,0,0,2,1,./stim/wavs/chilean_question_filler_Mi-padre-cantaba-bien.wav,1,,,,,,,,,,,,,,,,,,,,,,,,,,,,,,,,,,,,,,,,,,,,,,,,,,,,,,,,,,,,,,,,,,,,,,,,
,,,,,,,,,5589be79fdf99b18be320155,Spanish,13 or older,"no, only English or Spanish",no,2025-07-24_10h48.53.583,empathy_intonation_perc_control,2024.2.4,Win32,60.24096386,5589be79fdf99b18be320155,68817205a84113384fffdfe3,688247b1ef3a9eaddaecc038,9.5335,11.6593,1,1,1.5186,,0,1,1,1,1,./stim/wavs/argentine_question_filler_Mi-vecino-habla-mucho.wav,1,,,,,,,,,,,,,,,,,,,,,,,,,,,,,,,,,,,,,,,,,,,,,,,,,,,,,,,,,,,,,,,,,,,,,,,,
,,,,,,,,,5589be79fdf99b18be320155,Spanish,13 or older,"no, only English or Spanish",no,2025-07-24_10h48.53.583,empathy_intonation_perc_control,2024.2.4,Win32,60.24096386,5589be79fdf99b18be320155,68817205a84113384fffdfe3,688247b1ef3a9eaddaecc038,11.6613,13.8999,0,1,1.6985,,0,2,2,4,1,./stim/wavs/cuban_statement_filler_Cocinabas-por-la-noche.wav,0,,,,,,,,,,,,,,,,,,,,,,,,,,,,,,,,,,,,,,,,,,,,,,,,,,,,,,,,,,,,,,,,,,,,,,,,
,,,,,,,,,5589be79fdf99b18be320155,Spanish,13 or older,"no, only English or Spanish",no,2025-07-24_10h48.53.583,empathy_intonation_perc_control,2024.2.4,Win32,60.24096386,5589be79fdf99b18be320155,68817205a84113384fffdfe3,688247b1ef3a9eaddaecc038,13.9016,16.136,0,1,1.6787,,0,3,3,5,1,./stim/wavs/andalusian_statement_filler_Alberto-nunca-se-afeita.wav,0,,,,,,,,,,,,,,,,,,,,,,,,,,,,,,,,,,,,,,,,,,,,,,,,,,,,,,,,,,,,,,,,,,,,,,,,
,,,,,,,,,5589be79fdf99b18be320155,Spanish,13 or older,"no, only English or Spanish",no,2025-07-24_10h48.53.583,empathy_intonation_perc_control,2024.2.4,Win32,60.24096386,5589be79fdf99b18be320155,68817205a84113384fffdfe3,688247b1ef3a9eaddaecc038,16.1377,18.4905,0,1,1.7888,,0,4,4,7,1,./stim/wavs/puertorican_statement_filler_La-nina-pinta-con-su-amiga.wav,0,,,,,,,,,,,,,,,,,,,,,,,,,,,,,,,,,,,,,,,,,,,,,,,,,,,,,,,,,,,,,,,,,,,,,,,,
,,,,,,,,,5589be79fdf99b18be320155,Spanish,13 or older,"no, only English or Spanish",no,2025-07-24_10h48.53.583,empathy_intonation_perc_control,2024.2.4,Win32,60.24096386,5589be79fdf99b18be320155,68817205a84113384fffdfe3,688247b1ef3a9eaddaecc038,18.4925,21.0739,1,1,2.0222,,0,5,5,0,1,./stim/wavs/castilian_question_filler_Mi-esposo-conoce-al-chico.wav,1,,,,,,,,,,,,,,,,,,,,,,,,,,,,,,,,,,,,,,,,,,,,,,,,,,,,,,,,,,,,,,,,,,,,,,,,
,,,,,,,,,5589be79fdf99b18be320155,Spanish,13 or older,"no, only English or Spanish",no,2025-07-24_10h48.53.583,empathy_intonation_perc_control,2024.2.4,Win32,60.24096386,5589be79fdf99b18be320155,68817205a84113384fffdfe3,688247b1ef3a9eaddaecc038,21.0753,23.9451,0,1,2.3505,,0,6,6,6,1,./stim/wavs/peruvian_statement_filler_El-nino-habla-con-su-madre.wav,0,,,,,,,,,,,,,,,,,,,,,,,,,,,,,,,,,,,,,,,,,,,,,,,,,,,,,,,,,,,,,,,,,,,,,,,,
,,,,,,,,,5589be79fdf99b18be320155,Spanish,13 or older,"no, only English or Spanish",no,2025-07-24_10h48.53.583,empathy_intonation_perc_control,2024.2.4,Win32,60.24096386,5589be79fdf99b18be320155,68817205a84113384fffdfe3,688247b1ef3a9eaddaecc038,23.9465,26.5069,1,1,2.0315,,0,7,7,3,1,./stim/wavs/mexican_question_filler_Felipe-no-tiene-contrasena.wav,1,,,,,,,,,,,,,,,,,,,,,,,,,,,,,,,,,,,,,,,,,,,,,,,,,,,,,,,,,,,,,,,,,,,,,,,,
,,,,,,,,,5589be79fdf99b18be320155,Spanish,13 or older,"no, only English or Spanish",no,2025-07-24_10h48.53.583,empathy_intonation_perc_control,2024.2.4,Win32,60.24096386,5589be79fdf99b18be320155,68817205a84113384fffdfe3,688247b1ef3a9eaddaecc038,,,,,,,,,,,,,,26.5075,28.1019,,,,,,,,,,,,,,,,,,,,,,,,,,,,,,,,,,,,,,,,,,,,,,,,,,,,,,,,,,,,,,,,,,,,,,
,,,,,,,,,5589be79fdf99b18be320155,Spanish,13 or older,"no, only English or Spanish",no,2025-07-24_10h48.53.583,empathy_intonation_perc_control,2024.2.4,Win32,60.24096386,5589be79fdf99b18be320155,68817205a84113384fffdfe3,688247b1ef3a9eaddaecc038,,,,,,,,,,,,./stim/wavs/puertorican_mismatch_declarative-broad-focus_La-maestra-vive-en-Paris.wav,0,,,28.1399,30.3252,0,1,1.6544,,0,0,0,86,1,87,0,puertorican,,,,,,,,,,,,,,,,,,,,,,,,,,,,,,,,,,,,,,,,,,,,,,,,,,,,,,,,
,,,,,,,,,5589be79fdf99b18be320155,Spanish,13 or older,"no, only English or Spanish",no,2025-07-24_10h48.53.583,empathy_intonation_perc_control,2024.2.4,Win32,60.24096386,5589be79fdf99b18be320155,68817205a84113384fffdfe3,688247b1ef3a9eaddaecc038,,,,,,,,,,,,./stim/wavs/cuban_match_declarative-broad-focus_Mariano-habla-del-tiempo.wav,0,,,30.327,32.8003,0,1,1.9167,,0,1,1,54,1,55,0,cuban,,,,,,,,,,,,,,,,,,,,,,,,,,,,,,,,,,,,,,,,,,,,,,,,,,,,,,,,
,,,,,,,,,5589be79fdf99b18be320155,Spanish,13 or older,"no, only English or Spanish",no,2025-07-24_10h48.53.583,empathy_intonation_perc_control,2024.2.4,Win32,60.24096386,5589be79fdf99b18be320155,68817205a84113384fffdfe3,688247b1ef3a9eaddaecc038,,,,,,,,,,,,./stim/wavs/puertorican_mismatch_interrogative-total-yn_La-maestra-vive-en-Paris.wav,1,,,32.8016,35,0,0,1.6668,,0,2,2,41,1,42,1,puertorican,,,,,,,,,,,,,,,,,,,,,,,,,,,,,,,,,,,,,,,,,,,,,,,,,,,,,,,,
,,,,,,,,,5589be79fdf99b18be320155,Spanish,13 or older,"no, only English or Spanish",no,2025-07-24_10h48.53.583,empathy_intonation_perc_control,2024.2.4,Win32,60.24096386,5589be79fdf99b18be320155,68817205a84113384fffdfe3,688247b1ef3a9eaddaecc038,,,,,,,,,,,,./stim/wavs/mexican_match_interrogative-total-yn_Marta-abre-el-regalo.wav,1,,,35.0012,37.0311,1,1,1.4757,,0,3,3,17,1,18,0,mexican,,,,,,,,,,,,,,,,,,,,,,,,,,,,,,,,,,,,,,,,,,,,,,,,,,,,,,,,
,,,,,,,,,5589be79fdf99b18be320155,Spanish,13 or older,"no, only English or Spanish",no,2025-07-24_10h48.53.583,empathy_intonation_perc_control,2024.2.4,Win32,60.24096386,5589be79fdf99b18be320155,68817205a84113384fffdfe3,688247b1ef3a9eaddaecc038,,,,,,,,,,,,./stim/wavs/castilian_mismatch_interrogative-total-yn_Mi-novio-viene-del-lago.wav,1,,,37.0341,39.4253,1,1,1.8415,,0,4,4,27,1,28,0,castilian,,,,,,,,,,,,,,,,,,,,,,,,,,,,,,,,,,,,,,,,,,,,,,,,,,,,,,,,
,,,,,,,,,5589be79fdf99b18be320155,Spanish,13 or older,"no, only English or Spanish",no,2025-07-24_10h48.53.583,empathy_intonation_perc_control,2024.2.4,Win32,60.24096386,5589be79fdf99b18be320155,68817205a84113384fffdfe3,688247b1ef3a9eaddaecc038,,,,,,,,,,,,./stim/wavs/castilian_match_interrogative-total-yn_David-leia-el-libro.wav,1,,,39.4264,41.6833,1,1,1.7343,,0,5,5,0,1,1,0,castilian,,,,,,,,,,,,,,,,,,,,,,,,,,,,,,,,,,,,,,,,,,,,,,,,,,,,,,,,
,,,,,,,,,5589be79fdf99b18be320155,Spanish,13 or older,"no, only English or Spanish",no,2025-07-24_10h48.53.583,empathy_intonation_perc_control,2024.2.4,Win32,60.24096386,5589be79fdf99b18be320155,68817205a84113384fffdfe3,688247b1ef3a9eaddaecc038,,,,,,,,,,,,./stim/wavs/castilian_mismatch_declarative-broad-focus_Mi-tia-odia-la-lluvia.wav,0,,,41.6848,43.9725,0,1,1.7334,,0,6,6,72,1,73,0,castilian,,,,,,,,,,,,,,,,,,,,,,,,,,,,,,,,,,,,,,,,,,,,,,,,,,,,,,,,
,,,,,,,,,5589be79fdf99b18be320155,Spanish,13 or older,"no, only English or Spanish",no,2025-07-24_10h48.53.583,empathy_intonation_perc_control,2024.2.4,Win32,60.24096386,5589be79fdf99b18be320155,68817205a84113384fffdfe3,688247b1ef3a9eaddaecc038,,,,,,,,,,,,./stim/wavs/castilian_match_interrogative-total-yn_Mariano-habla-del-tiempo.wav,1,,,43.974,46.4299,1,1,1.8965,,0,7,7,4,1,5,0,castilian,,,,,,,,,,,,,,,,,,,,,,,,,,,,,,,,,,,,,,,,,,,,,,,,,,,,,,,,
,,,,,,,,,5589be79fdf99b18be320155,Spanish,13 or older,"no, only English or Spanish",no,2025-07-24_10h48.53.583,empathy_intonation_perc_control,2024.2.4,Win32,60.24096386,5589be79fdf99b18be320155,68817205a84113384fffdfe3,688247b1ef3a9eaddaecc038,,,,,,,,,,,,./stim/wavs/puertorican_mismatch_declarative-broad-focus_La-nina-lava-el-plato.wav,0,,,46.4315,48.5056,0,1,1.5084,,0,8,8,87,1,88,0,puertorican,,,,,,,,,,,,,,,,,,,,,,,,,,,,,,,,,,,,,,,,,,,,,,,,,,,,,,,,
,,,,,,,,,5589be79fdf99b18be320155,Spanish,13 or older,"no, only English or Spanish",no,2025-07-24_10h48.53.583,empathy_intonation_perc_control,2024.2.4,Win32,60.24096386,5589be79fdf99b18be320155,68817205a84113384fffdfe3,688247b1ef3a9eaddaecc038,,,,,,,,,,,,./stim/wavs/mexican_mismatch_interrogative-total-yn_El-nino-oye-el-rio.wav,1,,,48.5076,50.5647,1,1,1.534,,0,9,9,35,1,36,0,mexican,,,,,,,,,,,,,,,,,,,,,,,,,,,,,,,,,,,,,,,,,,,,,,,,,,,,,,,,
,,,,,,,,,5589be79fdf99b18be320155,Spanish,13 or older,"no, only English or Spanish",no,2025-07-24_10h48.53.583,empathy_intonation_perc_control,2024.2.4,Win32,60.24096386,5589be79fdf99b18be320155,68817205a84113384fffdfe3,688247b1ef3a9eaddaecc038,,,,,,,,,,,,./stim/wavs/castilian_match_declarative-broad-focus_David-leia-el-libro.wav,0,,,50.5666,52.799,0,1,1.708,,0,10,10,44,1,45,0,castilian,,,,,,,,,,,,,,,,,,,,,,,,,,,,,,,,,,,,,,,,,,,,,,,,,,,,,,,,
,,,,,,,,,5589be79fdf99b18be320155,Spanish,13 or older,"no, only English or Spanish",no,2025-07-24_10h48.53.583,empathy_intonation_perc_control,2024.2.4,Win32,60.24096386,5589be79fdf99b18be320155,68817205a84113384fffdfe3,688247b1ef3a9eaddaecc038,,,,,,,,,,,,./stim/wavs/cuban_mismatch_interrogative-total-yn_El-nino-oye-el-rio.wav,1,,,52.8003,54.9559,0,0,1.5678,,0,11,11,30,1,31,1,cuban,,,,,,,,,,,,,,,,,,,,,,,,,,,,,,,,,,,,,,,,,,,,,,,,,,,,,,,,
,,,,,,,,,5589be79fdf99b18be320155,Spanish,13 or older,"no, only English or Spanish",no,2025-07-24_10h48.53.583,empathy_intonation_perc_control,2024.2.4,Win32,60.24096386,5589be79fdf99b18be320155,68817205a84113384fffdfe3,688247b1ef3a9eaddaecc038,,,,,,,,,,,,./stim/wavs/castilian_mismatch_interrogative-total-yn_Mi-madre-come-la-fruta.wav,1,,,54.9573,57.2722,1,1,1.7579,,0,12,12,26,1,27,0,castilian,,,,,,,,,,,,,,,,,,,,,,,,,,,,,,,,,,,,,,,,,,,,,,,,,,,,,,,,
,,,,,,,,,5589be79fdf99b18be320155,Spanish,13 or older,"no, only English or Spanish",no,2025-07-24_10h48.53.583,empathy_intonation_perc_control,2024.2.4,Win32,60.24096386,5589be79fdf99b18be320155,68817205a84113384fffdfe3,688247b1ef3a9eaddaecc038,,,,,,,,,,,,./stim/wavs/castilian_mismatch_interrogative-total-yn_La-nina-lava-el-plato.wav,1,,,57.2737,59.48,1,1,1.6935,,0,13,13,25,1,26,0,castilian,,,,,,,,,,,,,,,,,,,,,,,,,,,,,,,,,,,,,,,,,,,,,,,,,,,,,,,,
,,,,,,,,,5589be79fdf99b18be320155,Spanish,13 or older,"no, only English or Spanish",no,2025-07-24_10h48.53.583,empathy_intonation_perc_control,2024.2.4,Win32,60.24096386,5589be79fdf99b18be320155,68817205a84113384fffdfe3,688247b1ef3a9eaddaecc038,,,,,,,,,,,,./stim/wavs/castilian_mismatch_declarative-broad-focus_El-nino-oye-el-rio.wav,0,,,59.4812,61.7607,0,1,1.737,,0,14,14,68,1,69,0,castilian,,,,,,,,,,,,,,,,,,,,,,,,,,,,,,,,,,,,,,,,,,,,,,,,,,,,,,,,
,,,,,,,,,5589be79fdf99b18be320155,Spanish,13 or older,"no, only English or Spanish",no,2025-07-24_10h48.53.583,empathy_intonation_perc_control,2024.2.4,Win32,60.24096386,5589be79fdf99b18be320155,68817205a84113384fffdfe3,688247b1ef3a9eaddaecc038,,,,,,,,,,,,./stim/wavs/cuban_match_declarative-broad-focus_Manuela-vende-el-carro.wav,0,,,61.7618,64.1383,0,1,1.8576,,0,15,15,52,1,53,0,cuban,,,,,,,,,,,,,,,,,,,,,,,,,,,,,,,,,,,,,,,,,,,,,,,,,,,,,,,,
,,,,,,,,,5589be79fdf99b18be320155,Spanish,13 or older,"no, only English or Spanish",no,2025-07-24_10h48.53.583,empathy_intonation_perc_control,2024.2.4,Win32,60.24096386,5589be79fdf99b18be320155,68817205a84113384fffdfe3,688247b1ef3a9eaddaecc038,,,,,,,,,,,,./stim/wavs/cuban_match_interrogative-total-yn_Mariano-habla-del-tiempo.wav,1,,,64.1392,66.5146,0,0,1.8503,,0,16,16,10,1,11,1,cuban,,,,,,,,,,,,,,,,,,,,,,,,,,,,,,,,,,,,,,,,,,,,,,,,,,,,,,,,
,,,,,,,,,5589be79fdf99b18be320155,Spanish,13 or older,"no, only English or Spanish",no,2025-07-24_10h48.53.583,empathy_intonation_perc_control,2024.2.4,Win32,60.24096386,5589be79fdf99b18be320155,68817205a84113384fffdfe3,688247b1ef3a9eaddaecc038,,,,,,,,,,,,./stim/wavs/cuban_match_interrogative-total-yn_Daniel-iba-a-Bolivia.wav,1,,,66.5154,68.7047,0,0,1.6576,,0,17,17,7,1,8,1,cuban,,,,,,,,,,,,,,,,,,,,,,,,,,,,,,,,,,,,,,,,,,,,,,,,,,,,,,,,
,,,,,,,,,5589be79fdf99b18be320155,Spanish,13 or older,"no, only English or Spanish",no,2025-07-24_10h48.53.583,empathy_intonation_perc_control,2024.2.4,Win32,60.24096386,5589be79fdf99b18be320155,68817205a84113384fffdfe3,688247b1ef3a9eaddaecc038,,,,,,,,,,,,./stim/wavs/cuban_mismatch_declarative-broad-focus_El-hombre-mira-la-luna.wav,0,,,68.7057,70.6921,0,1,1.4524,,0,18,18,74,1,75,0,cuban,,,,,,,,,,,,,,,,,,,,,,,,,,,,,,,,,,,,,,,,,,,,,,,,,,,,,,,,
,,,,,,,,,5589be79fdf99b18be320155,Spanish,13 or older,"no, only English or Spanish",no,2025-07-24_10h48.53.583,empathy_intonation_perc_control,2024.2.4,Win32,60.24096386,5589be79fdf99b18be320155,68817205a84113384fffdfe3,688247b1ef3a9eaddaecc038,,,,,,,,,,,,./stim/wavs/mexican_match_declarative-broad-focus_Emilio-ama-la-marcha.wav,0,,,70.6942,72.9085,0,1,1.6515,,0,19,19,59,1,60,0,mexican,,,,,,,,,,,,,,,,,,,,,,,,,,,,,,,,,,,,,,,,,,,,,,,,,,,,,,,,
,,,,,,,,,5589be79fdf99b18be320155,Spanish,13 or older,"no, only English or Spanish",no,2025-07-24_10h48.53.583,empathy_intonation_perc_control,2024.2.4,Win32,60.24096386,5589be79fdf99b18be320155,68817205a84113384fffdfe3,688247b1ef3a9eaddaecc038,,,,,,,,,,,,./stim/wavs/mexican_match_declarative-broad-focus_Daniel-iba-a-Bolivia.wav,0,,,72.9099,74.9997,0,1,1.5638,,0,20,20,57,1,58,0,mexican,,,,,,,,,,,,,,,,,,,,,,,,,,,,,,,,,,,,,,,,,,,,,,,,,,,,,,,,
,,,,,,,,,5589be79fdf99b18be320155,Spanish,13 or older,"no, only English or Spanish",no,2025-07-24_10h48.53.583,empathy_intonation_perc_control,2024.2.4,Win32,60.24096386,5589be79fdf99b18be320155,68817205a84113384fffdfe3,688247b1ef3a9eaddaecc038,,,,,,,,,,,,./stim/wavs/puertorican_match_declarative-broad-focus_Manuela-vende-el-carro.wav,0,,,75.0007,77.2143,0,1,1.6821,,0,21,21,66,1,67,0,puertorican,,,,,,,,,,,,,,,,,,,,,,,,,,,,,,,,,,,,,,,,,,,,,,,,,,,,,,,,
,,,,,,,,,5589be79fdf99b18be320155,Spanish,13 or older,"no, only English or Spanish",no,2025-07-24_10h48.53.583,empathy_intonation_perc_control,2024.2.4,Win32,60.24096386,5589be79fdf99b18be320155,68817205a84113384fffdfe3,688247b1ef3a9eaddaecc038,,,,,,,,,,,,./stim/wavs/puertorican_match_declarative-broad-focus_David-leia-el-libro.wav,0,,,77.2155,79.3107,0,1,1.5528,,0,22,22,64,1,65,0,puertorican,,,,,,,,,,,,,,,,,,,,,,,,,,,,,,,,,,,,,,,,,,,,,,,,,,,,,,,,
,,,,,,,,,5589be79fdf99b18be320155,Spanish,13 or older,"no, only English or Spanish",no,2025-07-24_10h48.53.583,empathy_intonation_perc_control,2024.2.4,Win32,60.24096386,5589be79fdf99b18be320155,68817205a84113384fffdfe3,688247b1ef3a9eaddaecc038,,,,,,,,,,,,./stim/wavs/mexican_match_interrogative-total-yn_Daniel-iba-a-Bolivia.wav,1,,,79.3121,81.5571,1,1,1.7173,,0,23,23,13,1,14,0,mexican,,,,,,,,,,,,,,,,,,,,,,,,,,,,,,,,,,,,,,,,,,,,,,,,,,,,,,,,
,,,,,,,,,5589be79fdf99b18be320155,Spanish,13 or older,"no, only English or Spanish",no,2025-07-24_10h48.53.583,empathy_intonation_perc_control,2024.2.4,Win32,60.24096386,5589be79fdf99b18be320155,68817205a84113384fffdfe3,688247b1ef3a9eaddaecc038,,,,,,,,,,,,./stim/wavs/castilian_mismatch_declarative-broad-focus_La-nina-lava-el-plato.wav,0,,,81.5584,83.8728,0,1,1.7838,,0,24,24,70,1,71,0,castilian,,,,,,,,,,,,,,,,,,,,,,,,,,,,,,,,,,,,,,,,,,,,,,,,,,,,,,,,
,,,,,,,,,5589be79fdf99b18be320155,Spanish,13 or older,"no, only English or Spanish",no,2025-07-24_10h48.53.583,empathy_intonation_perc_control,2024.2.4,Win32,60.24096386,5589be79fdf99b18be320155,68817205a84113384fffdfe3,688247b1ef3a9eaddaecc038,,,,,,,,,,,,./stim/wavs/castilian_mismatch_declarative-broad-focus_Mi-novio-viene-del-lago.wav,0,,,83.8739,86.1908,0,1,1.8044,,0,25,25,71,1,72,0,castilian,,,,,,,,,,,,,,,,,,,,,,,,,,,,,,,,,,,,,,,,,,,,,,,,,,,,,,,,
,,,,,,,,,5589be79fdf99b18be320155,Spanish,13 or older,"no, only English or Spanish",no,2025-07-24_10h48.53.583,empathy_intonation_perc_control,2024.2.4,Win32,60.24096386,5589be79fdf99b18be320155,68817205a84113384fffdfe3,688247b1ef3a9eaddaecc038,,,,,,,,,,,,./stim/wavs/castilian_match_interrogative-total-yn_Emilio-ama-la-marcha.wav,1,,,86.1923,88.491,1,1,1.7449,,0,26,26,1,1,2,0,castilian,,,,,,,,,,,,,,,,,,,,,,,,,,,,,,,,,,,,,,,,,,,,,,,,,,,,,,,,
,,,,,,,,,5589be79fdf99b18be320155,Spanish,13 or older,"no, only English or Spanish",no,2025-07-24_10h48.53.583,empathy_intonation_perc_control,2024.2.4,Win32,60.24096386,5589be79fdf99b18be320155,68817205a84113384fffdfe3,688247b1ef3a9eaddaecc038,,,,,,,,,,,,./stim/wavs/castilian_match_interrogative-total-yn_Maria-bebe-el-vino.wav,1,,,88.4922,90.7238,1,1,1.6834,,0,27,27,3,1,4,0,castilian,,,,,,,,,,,,,,,,,,,,,,,,,,,,,,,,,,,,,,,,,,,,,,,,,,,,,,,,
,,,,,,,,,5589be79fdf99b18be320155,Spanish,13 or older,"no, only English or Spanish",no,2025-07-24_10h48.53.583,empathy_intonation_perc_control,2024.2.4,Win32,60.24096386,5589be79fdf99b18be320155,68817205a84113384fffdfe3,688247b1ef3a9eaddaecc038,,,,,,,,,,,,./stim/wavs/mexican_mismatch_interrogative-total-yn_El-hombre-mira-la-luna.wav,1,,,90.7249,92.7372,1,1,1.4908,,0,28,28,34,1,35,0,mexican,,,,,,,,,,,,,,,,,,,,,,,,,,,,,,,,,,,,,,,,,,,,,,,,,,,,,,,,
,,,,,,,,,5589be79fdf99b18be320155,Spanish,13 or older,"no, only English or Spanish",no,2025-07-24_10h48.53.583,empathy_intonation_perc_control,2024.2.4,Win32,60.24096386,5589be79fdf99b18be320155,68817205a84113384fffdfe3,688247b1ef3a9eaddaecc038,,,,,,,,,,,,./stim/wavs/cuban_mismatch_interrogative-total-yn_Mi-tia-odia-la-lluvia.wav,1,,,92.7383,95.0737,0,0,1.7837,,0,29,29,33,1,34,1,cuban,,,,,,,,,,,,,,,,,,,,,,,,,,,,,,,,,,,,,,,,,,,,,,,,,,,,,,,,
,,,,,,,,,5589be79fdf99b18be320155,Spanish,13 or older,"no, only English or Spanish",no,2025-07-24_10h48.53.583,empathy_intonation_perc_control,2024.2.4,Win32,60.24096386,5589be79fdf99b18be320155,68817205a84113384fffdfe3,688247b1ef3a9eaddaecc038,,,,,,,,,,,,./stim/wavs/mexican_match_declarative-broad-focus_Ana-lleva-el-abrigo.wav,0,,,95.075,96.9635,0,1,1.3566,,0,30,30,56,1,57,0,mexican,,,,,,,,,,,,,,,,,,,,,,,,,,,,,,,,,,,,,,,,,,,,,,,,,,,,,,,,
,,,,,,,,,5589be79fdf99b18be320155,Spanish,13 or older,"no, only English or Spanish",no,2025-07-24_10h48.53.583,empathy_intonation_perc_control,2024.2.4,Win32,60.24096386,5589be79fdf99b18be320155,68817205a84113384fffdfe3,688247b1ef3a9eaddaecc038,,,,,,,,,,,,./stim/wavs/mexican_mismatch_interrogative-total-yn_La-maestra-vive-en-Paris.wav,1,,,96.9648,99.2698,1,1,1.7629,,0,31,31,36,1,37,0,mexican,,,,,,,,,,,,,,,,,,,,,,,,,,,,,,,,,,,,,,,,,,,,,,,,,,,,,,,,
,,,,,,,,,5589be79fdf99b18be320155,Spanish,13 or older,"no, only English or Spanish",no,2025-07-24_10h48.53.583,empathy_intonation_perc_control,2024.2.4,Win32,60.24096386,5589be79fdf99b18be320155,68817205a84113384fffdfe3,688247b1ef3a9eaddaecc038,,,,,,,,,,,,./stim/wavs/castilian_match_declarative-broad-focus_Marta-abre-el-regalo.wav,0,,,99.271,101.4728,0,1,1.6602,,0,32,32,49,1,50,0,castilian,,,,,,,,,,,,,,,,,,,,,,,,,,,,,,,,,,,,,,,,,,,,,,,,,,,,,,,,
,,,,,,,,,5589be79fdf99b18be320155,Spanish,13 or older,"no, only English or Spanish",no,2025-07-24_10h48.53.583,empathy_intonation_perc_control,2024.2.4,Win32,60.24096386,5589be79fdf99b18be320155,68817205a84113384fffdfe3,688247b1ef3a9eaddaecc038,,,,,,,,,,,,./stim/wavs/puertorican_mismatch_interrogative-total-yn_El-hombre-mira-la-luna.wav,1,,,101.4737,103.5666,0,0,1.5771,,0,33,33,39,1,40,1,puertorican,,,,,,,,,,,,,,,,,,,,,,,,,,,,,,,,,,,,,,,,,,,,,,,,,,,,,,,,
,,,,,,,,,5589be79fdf99b18be320155,Spanish,13 or older,"no, only English or Spanish",no,2025-07-24_10h48.53.583,empathy_intonation_perc_control,2024.2.4,Win32,60.24096386,5589be79fdf99b18be320155,68817205a84113384fffdfe3,688247b1ef3a9eaddaecc038,,,,,,,,,,,,./stim/wavs/mexican_match_interrogative-total-yn_Mariano-habla-del-tiempo.wav,1,,,103.5677,105.7359,1,1,1.6318,,0,34,34,16,1,17,0,mexican,,,,,,,,,,,,,,,,,,,,,,,,,,,,,,,,,,,,,,,,,,,,,,,,,,,,,,,,
,,,,,,,,,5589be79fdf99b18be320155,Spanish,13 or older,"no, only English or Spanish",no,2025-07-24_10h48.53.583,empathy_intonation_perc_control,2024.2.4,Win32,60.24096386,5589be79fdf99b18be320155,68817205a84113384fffdfe3,688247b1ef3a9eaddaecc038,,,,,,,,,,,,./stim/wavs/mexican_mismatch_interrogative-total-yn_Mi-novio-viene-del-lago.wav,1,,,105.7375,107.8369,1,1,1.5726,,0,35,35,37,1,38,0,mexican,,,,,,,,,,,,,,,,,,,,,,,,,,,,,,,,,,,,,,,,,,,,,,,,,,,,,,,,
,,,,,,,,,5589be79fdf99b18be320155,Spanish,13 or older,"no, only English or Spanish",no,2025-07-24_10h48.53.583,empathy_intonation_perc_control,2024.2.4,Win32,60.24096386,5589be79fdf99b18be320155,68817205a84113384fffdfe3,688247b1ef3a9eaddaecc038,,,,,,,,,,,,./stim/wavs/puertorican_match_interrogative-total-yn_David-leia-el-libro.wav,1,,,107.8381,109.7144,0,0,1.3286,,0,36,36,20,1,21,1,puertorican,,,,,,,,,,,,,,,,,,,,,,,,,,,,,,,,,,,,,,,,,,,,,,,,,,,,,,,,
,,,,,,,,,5589be79fdf99b18be320155,Spanish,13 or older,"no, only English or Spanish",no,2025-07-24_10h48.53.583,empathy_intonation_perc_control,2024.2.4,Win32,60.24096386,5589be79fdf99b18be320155,68817205a84113384fffdfe3,688247b1ef3a9eaddaecc038,,,,,,,,,,,,./stim/wavs/mexican_mismatch_declarative-broad-focus_Mi-tia-odia-la-lluvia.wav,0,,,109.7154,111.704,0,1,1.4643,,0,37,37,82,1,83,0,mexican,,,,,,,,,,,,,,,,,,,,,,,,,,,,,,,,,,,,,,,,,,,,,,,,,,,,,,,,
,,,,,,,,,5589be79fdf99b18be320155,Spanish,13 or older,"no, only English or Spanish",no,2025-07-24_10h48.53.583,empathy_intonation_perc_control,2024.2.4,Win32,60.24096386,5589be79fdf99b18be320155,68817205a84113384fffdfe3,688247b1ef3a9eaddaecc038,,,,,,,,,,,,./stim/wavs/puertorican_mismatch_interrogative-total-yn_El-nino-oye-el-rio.wav,1,,,111.7052,113.6691,0,0,1.4139,,0,38,38,40,1,41,1,puertorican,,,,,,,,,,,,,,,,,,,,,,,,,,,,,,,,,,,,,,,,,,,,,,,,,,,,,,,,
,,,,,,,,,5589be79fdf99b18be320155,Spanish,13 or older,"no, only English or Spanish",no,2025-07-24_10h48.53.583,empathy_intonation_perc_control,2024.2.4,Win32,60.24096386,5589be79fdf99b18be320155,68817205a84113384fffdfe3,688247b1ef3a9eaddaecc038,,,,,,,,,,,,./stim/wavs/cuban_mismatch_interrogative-total-yn_Mi-novio-viene-del-lago.wav,1,,,113.6701,115.7358,0,0,1.536,,0,39,39,32,1,33,1,cuban,,,,,,,,,,,,,,,,,,,,,,,,,,,,,,,,,,,,,,,,,,,,,,,,,,,,,,,,
,,,,,,,,,5589be79fdf99b18be320155,Spanish,13 or older,"no, only English or Spanish",no,2025-07-24_10h48.53.583,empathy_intonation_perc_control,2024.2.4,Win32,60.24096386,5589be79fdf99b18be320155,68817205a84113384fffdfe3,688247b1ef3a9eaddaecc038,,,,,,,,,,,,./stim/wavs/cuban_mismatch_declarative-broad-focus_Mi-novio-viene-del-lago.wav,0,,,115.737,118.0491,0,1,1.7602,,0,40,40,76,1,77,0,cuban,,,,,,,,,,,,,,,,,,,,,,,,,,,,,,,,,,,,,,,,,,,,,,,,,,,,,,,,
,,,,,,,,,5589be79fdf99b18be320155,Spanish,13 or older,"no, only English or Spanish",no,2025-07-24_10h48.53.583,empathy_intonation_perc_control,2024.2.4,Win32,60.24096386,5589be79fdf99b18be320155,68817205a84113384fffdfe3,688247b1ef3a9eaddaecc038,,,,,,,,,,,,./stim/wavs/cuban_match_declarative-broad-focus_Marta-abre-el-regalo.wav,0,,,118.0501,120.1158,0,1,1.534,,0,41,41,55,1,56,0,cuban,,,,,,,,,,,,,,,,,,,,,,,,,,,,,,,,,,,,,,,,,,,,,,,,,,,,,,,,
,,,,,,,,,5589be79fdf99b18be320155,Spanish,13 or older,"no, only English or Spanish",no,2025-07-24_10h48.53.583,empathy_intonation_perc_control,2024.2.4,Win32,60.24096386,5589be79fdf99b18be320155,68817205a84113384fffdfe3,688247b1ef3a9eaddaecc038,,,,,,,,,,,,./stim/wavs/puertorican_match_interrogative-total-yn_Ana-lleva-el-abrigo.wav,1,,,120.1169,122.026,1,1,1.3963,,0,42,42,18,1,19,1,puertorican,,,,,,,,,,,,,,,,,,,,,,,,,,,,,,,,,,,,,,,,,,,,,,,,,,,,,,,,
,,,,,,,,,5589be79fdf99b18be320155,Spanish,13 or older,"no, only English or Spanish",no,2025-07-24_10h48.53.583,empathy_intonation_perc_control,2024.2.4,Win32,60.24096386,5589be79fdf99b18be320155,68817205a84113384fffdfe3,688247b1ef3a9eaddaecc038,,,,,,,,,,,,./stim/wavs/puertorican_match_declarative-broad-focus_Maria-bebe-el-vino.wav,0,,,122.0269,123.9496,0,1,1.3981,,0,43,43,67,1,68,0,puertorican,,,,,,,,,,,,,,,,,,,,,,,,,,,,,,,,,,,,,,,,,,,,,,,,,,,,,,,,
,,,,,,,,,5589be79fdf99b18be320155,Spanish,13 or older,"no, only English or Spanish",no,2025-07-24_10h48.53.583,empathy_intonation_perc_control,2024.2.4,Win32,60.24096386,5589be79fdf99b18be320155,68817205a84113384fffdfe3,688247b1ef3a9eaddaecc038,,,,,,,,,,,,./stim/wavs/puertorican_match_interrogative-total-yn_Maria-bebe-el-vino.wav,1,,,123.9508,125.752,1,1,1.2799,,0,44,44,23,1,24,1,puertorican,,,,,,,,,,,,,,,,,,,,,,,,,,,,,,,,,,,,,,,,,,,,,,,,,,,,,,,,
,,,,,,,,,5589be79fdf99b18be320155,Spanish,13 or older,"no, only English or Spanish",no,2025-07-24_10h48.53.583,empathy_intonation_perc_control,2024.2.4,Win32,60.24096386,5589be79fdf99b18be320155,68817205a84113384fffdfe3,688247b1ef3a9eaddaecc038,,,,,,,,,,,,./stim/wavs/puertorican_match_interrogative-total-yn_Daniel-iba-a-Bolivia.wav,1,,,125.7529,127.7157,0,0,1.4312,,0,45,45,19,1,20,1,puertorican,,,,,,,,,,,,,,,,,,,,,,,,,,,,,,,,,,,,,,,,,,,,,,,,,,,,,,,,
,,,,,,,,,5589be79fdf99b18be320155,Spanish,13 or older,"no, only English or Spanish",no,2025-07-24_10h48.53.583,empathy_intonation_perc_control,2024.2.4,Win32,60.24096386,5589be79fdf99b18be320155,68817205a84113384fffdfe3,688247b1ef3a9eaddaecc038,,,,,,,,,,,,./stim/wavs/mexican_mismatch_interrogative-total-yn_Mi-tia-odia-la-lluvia.wav,1,,,127.7167,129.6446,1,1,1.4046,,0,46,46,38,1,39,0,mexican,,,,,,,,,,,,,,,,,,,,,,,,,,,,,,,,,,,,,,,,,,,,,,,,,,,,,,,,
,,,,,,,,,5589be79fdf99b18be320155,Spanish,13 or older,"no, only English or Spanish",no,2025-07-24_10h48.53.583,empathy_intonation_perc_control,2024.2.4,Win32,60.24096386,5589be79fdf99b18be320155,68817205a84113384fffdfe3,688247b1ef3a9eaddaecc038,,,,,,,,,,,,./stim/wavs/cuban_match_declarative-broad-focus_Ana-lleva-el-abrigo.wav,0,,,129.6458,131.6678,0,1,1.4997,,0,47,47,50,1,51,0,cuban,,,,,,,,,,,,,,,,,,,,,,,,,,,,,,,,,,,,,,,,,,,,,,,,,,,,,,,,
,,,,,,,,,5589be79fdf99b18be320155,Spanish,13 or older,"no, only English or Spanish",no,2025-07-24_10h48.53.583,empathy_intonation_perc_control,2024.2.4,Win32,60.24096386,5589be79fdf99b18be320155,68817205a84113384fffdfe3,688247b1ef3a9eaddaecc038,,,,,,,,,,,,./stim/wavs/mexican_match_interrogative-total-yn_Ana-lleva-el-abrigo.wav,1,,,131.6688,133.6157,1,1,1.4144,,0,48,48,12,1,13,0,mexican,,,,,,,,,,,,,,,,,,,,,,,,,,,,,,,,,,,,,,,,,,,,,,,,,,,,,,,,
,,,,,,,,,5589be79fdf99b18be320155,Spanish,13 or older,"no, only English or Spanish",no,2025-07-24_10h48.53.583,empathy_intonation_perc_control,2024.2.4,Win32,60.24096386,5589be79fdf99b18be320155,68817205a84113384fffdfe3,688247b1ef3a9eaddaecc038,,,,,,,,,,,,./stim/wavs/puertorican_match_interrogative-total-yn_Emilio-ama-la-marcha.wav,1,,,133.6172,135.7681,0,0,1.6415,,0,49,49,21,1,22,1,puertorican,,,,,,,,,,,,,,,,,,,,,,,,,,,,,,,,,,,,,,,,,,,,,,,,,,,,,,,,
,,,,,,,,,5589be79fdf99b18be320155,Spanish,13 or older,"no, only English or Spanish",no,2025-07-24_10h48.53.583,empathy_intonation_perc_control,2024.2.4,Win32,60.24096386,5589be79fdf99b18be320155,68817205a84113384fffdfe3,688247b1ef3a9eaddaecc038,,,,,,,,,,,,./stim/wavs/cuban_mismatch_declarative-broad-focus_Mi-tia-odia-la-lluvia.wav,0,,,135.769,137.9841,0,1,1.6664,,0,50,50,77,1,78,0,cuban,,,,,,,,,,,,,,,,,,,,,,,,,,,,,,,,,,,,,,,,,,,,,,,,,,,,,,,,
,,,,,,,,,5589be79fdf99b18be320155,Spanish,13 or older,"no, only English or Spanish",no,2025-07-24_10h48.53.583,empathy_intonation_perc_control,2024.2.4,Win32,60.24096386,5589be79fdf99b18be320155,68817205a84113384fffdfe3,688247b1ef3a9eaddaecc038,,,,,,,,,,,,./stim/wavs/cuban_mismatch_interrogative-total-yn_Mi-madre-come-la-fruta.wav,1,,,137.9849,140.1382,1,1,1.6234,,0,51,51,31,1,32,1,cuban,,,,,,,,,,,,,,,,,,,,,,,,,,,,,,,,,,,,,,,,,,,,,,,,,,,,,,,,
,,,,,,,,,5589be79fdf99b18be320155,Spanish,13 or older,"no, only English or Spanish",no,2025-07-24_10h48.53.583,empathy_intonation_perc_control,2024.2.4,Win32,60.24096386,5589be79fdf99b18be320155,68817205a84113384fffdfe3,688247b1ef3a9eaddaecc038,,,,,,,,,,,,./stim/wavs/cuban_mismatch_declarative-broad-focus_El-bebe-comia-muy-bien.wav,0,,,140.1392,142.1737,0,1,1.4924,,0,52,52,73,1,74,0,cuban,,,,,,,,,,,,,,,,,,,,,,,,,,,,,,,,,,,,,,,,,,,,,,,,,,,,,,,,
,,,,,,,,,5589be79fdf99b18be320155,Spanish,13 or older,"no, only English or Spanish",no,2025-07-24_10h48.53.583,empathy_intonation_perc_control,2024.2.4,Win32,60.24096386,5589be79fdf99b18be320155,68817205a84113384fffdfe3,688247b1ef3a9eaddaecc038,,,,,,,,,,,,./stim/wavs/mexican_match_declarative-broad-focus_Marta-abre-el-regalo.wav,0,,,142.1749,144.1407,0,1,1.436,,0,53,53,61,1,62,0,mexican,,,,,,,,,,,,,,,,,,,,,,,,,,,,,,,,,,,,,,,,,,,,,,,,,,,,,,,,
,,,,,,,,,5589be79fdf99b18be320155,Spanish,13 or older,"no, only English or Spanish",no,2025-07-24_10h48.53.583,empathy_intonation_perc_control,2024.2.4,Win32,60.24096386,5589be79fdf99b18be320155,68817205a84113384fffdfe3,688247b1ef3a9eaddaecc038,,,,,,,,,,,,./stim/wavs/puertorican_match_declarative-broad-focus_Emilio-ama-la-marcha.wav,0,,,144.142,146.2354,0,1,1.5293,,0,54,54,65,1,66,0,puertorican,,,,,,,,,,,,,,,,,,,,,,,,,,,,,,,,,,,,,,,,,,,,,,,,,,,,,,,,
,,,,,,,,,5589be79fdf99b18be320155,Spanish,13 or older,"no, only English or Spanish",no,2025-07-24_10h48.53.583,empathy_intonation_perc_control,2024.2.4,Win32,60.24096386,5589be79fdf99b18be320155,68817205a84113384fffdfe3,688247b1ef3a9eaddaecc038,,,,,,,,,,,,./stim/wavs/mexican_mismatch_declarative-broad-focus_Mi-novio-viene-del-lago.wav,0,,,146.2369,148.1548,0,1,1.3991,,0,55,55,81,1,82,0,mexican,,,,,,,,,,,,,,,,,,,,,,,,,,,,,,,,,,,,,,,,,,,,,,,,,,,,,,,,
,,,,,,,,,5589be79fdf99b18be320155,Spanish,13 or older,"no, only English or Spanish",no,2025-07-24_10h48.53.583,empathy_intonation_perc_control,2024.2.4,Win32,60.24096386,5589be79fdf99b18be320155,68817205a84113384fffdfe3,688247b1ef3a9eaddaecc038,,,,,,,,,,,,./stim/wavs/mexican_mismatch_declarative-broad-focus_El-bebe-comia-muy-bien.wav,0,,,148.1556,150.2004,0,1,1.5274,,0,56,56,78,1,79,0,mexican,,,,,,,,,,,,,,,,,,,,,,,,,,,,,,,,,,,,,,,,,,,,,,,,,,,,,,,,
,,,,,,,,,5589be79fdf99b18be320155,Spanish,13 or older,"no, only English or Spanish",no,2025-07-24_10h48.53.583,empathy_intonation_perc_control,2024.2.4,Win32,60.24096386,5589be79fdf99b18be320155,68817205a84113384fffdfe3,688247b1ef3a9eaddaecc038,,,,,,,,,,,,./stim/wavs/castilian_match_declarative-broad-focus_Emilio-ama-la-marcha.wav,0,,,150.2017,152.4311,0,1,1.7087,,0,57,57,45,1,46,0,castilian,,,,,,,,,,,,,,,,,,,,,,,,,,,,,,,,,,,,,,,,,,,,,,,,,,,,,,,,
,,,,,,,,,5589be79fdf99b18be320155,Spanish,13 or older,"no, only English or Spanish",no,2025-07-24_10h48.53.583,empathy_intonation_perc_control,2024.2.4,Win32,60.24096386,5589be79fdf99b18be320155,68817205a84113384fffdfe3,688247b1ef3a9eaddaecc038,,,,,,,,,,,,./stim/wavs/puertorican_mismatch_declarative-broad-focus_El-nino-oye-el-rio.wav,0,,,152.4318,154.3862,0,1,1.4308,,0,58,58,85,1,86,0,puertorican,,,,,,,,,,,,,,,,,,,,,,,,,,,,,,,,,,,,,,,,,,,,,,,,,,,,,,,,
,,,,,,,,,5589be79fdf99b18be320155,Spanish,13 or older,"no, only English or Spanish",no,2025-07-24_10h48.53.583,empathy_intonation_perc_control,2024.2.4,Win32,60.24096386,5589be79fdf99b18be320155,68817205a84113384fffdfe3,688247b1ef3a9eaddaecc038,,,,,,,,,,,,./stim/wavs/cuban_match_declarative-broad-focus_Maria-bebe-el-vino.wav,0,,,154.3874,156.3843,0,1,1.4207,,0,59,59,53,1,54,0,cuban,,,,,,,,,,,,,,,,,,,,,,,,,,,,,,,,,,,,,,,,,,,,,,,,,,,,,,,,
,,,,,,,,,5589be79fdf99b18be320155,Spanish,13 or older,"no, only English or Spanish",no,2025-07-24_10h48.53.583,empathy_intonation_perc_control,2024.2.4,Win32,60.24096386,5589be79fdf99b18be320155,68817205a84113384fffdfe3,688247b1ef3a9eaddaecc038,,,,,,,,,,,,./stim/wavs/cuban_match_interrogative-total-yn_Manuela-vende-el-carro.wav,1,,,156.3851,158.5064,0,0,1.5843,,0,60,60,8,1,9,1,cuban,,,,,,,,,,,,,,,,,,,,,,,,,,,,,,,,,,,,,,,,,,,,,,,,,,,,,,,,
,,,,,,,,,5589be79fdf99b18be320155,Spanish,13 or older,"no, only English or Spanish",no,2025-07-24_10h48.53.583,empathy_intonation_perc_control,2024.2.4,Win32,60.24096386,5589be79fdf99b18be320155,68817205a84113384fffdfe3,688247b1ef3a9eaddaecc038,,,,,,,,,,,,./stim/wavs/castilian_match_interrogative-total-yn_Marta-abre-el-regalo.wav,1,,,158.5073,160.8004,1,1,1.7682,,0,61,61,5,1,6,0,castilian,,,,,,,,,,,,,,,,,,,,,,,,,,,,,,,,,,,,,,,,,,,,,,,,,,,,,,,,
,,,,,,,,,5589be79fdf99b18be320155,Spanish,13 or older,"no, only English or Spanish",no,2025-07-24_10h48.53.583,empathy_intonation_perc_control,2024.2.4,Win32,60.24096386,5589be79fdf99b18be320155,68817205a84113384fffdfe3,688247b1ef3a9eaddaecc038,,,,,,,,,,,,./stim/wavs/cuban_match_declarative-broad-focus_Daniel-iba-a-Bolivia.wav,0,,,160.8012,163.0988,0,1,1.7717,,0,62,62,51,1,52,0,cuban,,,,,,,,,,,,,,,,,,,,,,,,,,,,,,,,,,,,,,,,,,,,,,,,,,,,,,,,
,,,,,,,,,5589be79fdf99b18be320155,Spanish,13 or older,"no, only English or Spanish",no,2025-07-24_10h48.53.583,empathy_intonation_perc_control,2024.2.4,Win32,60.24096386,5589be79fdf99b18be320155,68817205a84113384fffdfe3,688247b1ef3a9eaddaecc038,,,,,,,,,,,,./stim/wavs/puertorican_mismatch_interrogative-total-yn_La-nina-lava-el-plato.wav,1,,,163.0998,165.1801,1,1,1.556,,0,63,63,42,1,43,1,puertorican,,,,,,,,,,,,,,,,,,,,,,,,,,,,,,,,,,,,,,,,,,,,,,,,,,,,,,,,
,,,,,,,,,5589be79fdf99b18be320155,Spanish,13 or older,"no, only English or Spanish",no,2025-07-24_10h48.53.583,empathy_intonation_perc_control,2024.2.4,Win32,60.24096386,5589be79fdf99b18be320155,68817205a84113384fffdfe3,688247b1ef3a9eaddaecc038,,,,,,,,,,,,./stim/wavs/puertorican_match_declarative-broad-focus_Daniel-iba-a-Bolivia.wav,0,,,165.181,167.1469,0,1,1.4403,,0,64,64,63,1,64,0,puertorican,,,,,,,,,,,,,,,,,,,,,,,,,,,,,,,,,,,,,,,,,,,,,,,,,,,,,,,,
,,,,,,,,,5589be79fdf99b18be320155,Spanish,13 or older,"no, only English or Spanish",no,2025-07-24_10h48.53.583,empathy_intonation_perc_control,2024.2.4,Win32,60.24096386,5589be79fdf99b18be320155,68817205a84113384fffdfe3,688247b1ef3a9eaddaecc038,,,,,,,,,,,,./stim/wavs/mexican_mismatch_declarative-broad-focus_El-hombre-mira-la-luna.wav,0,,,167.1479,169.1182,0,1,1.4481,,0,65,65,79,1,80,0,mexican,,,,,,,,,,,,,,,,,,,,,,,,,,,,,,,,,,,,,,,,,,,,,,,,,,,,,,,,
,,,,,,,,,5589be79fdf99b18be320155,Spanish,13 or older,"no, only English or Spanish",no,2025-07-24_10h48.53.583,empathy_intonation_perc_control,2024.2.4,Win32,60.24096386,5589be79fdf99b18be320155,68817205a84113384fffdfe3,688247b1ef3a9eaddaecc038,,,,,,,,,,,,./stim/wavs/puertorican_mismatch_declarative-broad-focus_El-hombre-mira-la-luna.wav,0,,,169.1193,171.1125,0,1,1.4659,,0,66,66,84,1,85,0,puertorican,,,,,,,,,,,,,,,,,,,,,,,,,,,,,,,,,,,,,,,,,,,,,,,,,,,,,,,,
,,,,,,,,,5589be79fdf99b18be320155,Spanish,13 or older,"no, only English or Spanish",no,2025-07-24_10h48.53.583,empathy_intonation_perc_control,2024.2.4,Win32,60.24096386,5589be79fdf99b18be320155,68817205a84113384fffdfe3,688247b1ef3a9eaddaecc038,,,,,,,,,,,,./stim/wavs/cuban_match_interrogative-total-yn_Marta-abre-el-regalo.wav,1,,,171.1134,173.1153,0,0,1.4698,,0,67,67,11,1,12,1,cuban,,,,,,,,,,,,,,,,,,,,,,,,,,,,,,,,,,,,,,,,,,,,,,,,,,,,,,,,
,,,,,,,,,5589be79fdf99b18be320155,Spanish,13 or older,"no, only English or Spanish",no,2025-07-24_10h48.53.583,empathy_intonation_perc_control,2024.2.4,Win32,60.24096386,5589be79fdf99b18be320155,68817205a84113384fffdfe3,688247b1ef3a9eaddaecc038,,,,,,,,,,,,./stim/wavs/mexican_match_declarative-broad-focus_David-leia-el-libro.wav,0,,,173.1165,174.9751,0,1,1.3375,,0,68,68,58,1,59,0,mexican,,,,,,,,,,,,,,,,,,,,,,,,,,,,,,,,,,,,,,,,,,,,,,,,,,,,,,,,
,,,,,,,,,5589be79fdf99b18be320155,Spanish,13 or older,"no, only English or Spanish",no,2025-07-24_10h48.53.583,empathy_intonation_perc_control,2024.2.4,Win32,60.24096386,5589be79fdf99b18be320155,68817205a84113384fffdfe3,688247b1ef3a9eaddaecc038,,,,,,,,,,,,./stim/wavs/mexican_match_interrogative-total-yn_Emilio-ama-la-marcha.wav,1,,,174.976,177.0415,1,1,1.536,,0,69,69,15,1,16,0,mexican,,,,,,,,,,,,,,,,,,,,,,,,,,,,,,,,,,,,,,,,,,,,,,,,,,,,,,,,
,,,,,,,,,5589be79fdf99b18be320155,Spanish,13 or older,"no, only English or Spanish",no,2025-07-24_10h48.53.583,empathy_intonation_perc_control,2024.2.4,Win32,60.24096386,5589be79fdf99b18be320155,68817205a84113384fffdfe3,688247b1ef3a9eaddaecc038,,,,,,,,,,,,./stim/wavs/cuban_match_interrogative-total-yn_Ana-lleva-el-abrigo.wav,1,,,177.0425,178.9985,0,0,1.4277,,0,70,70,6,1,7,1,cuban,,,,,,,,,,,,,,,,,,,,,,,,,,,,,,,,,,,,,,,,,,,,,,,,,,,,,,,,
,,,,,,,,,5589be79fdf99b18be320155,Spanish,13 or older,"no, only English or Spanish",no,2025-07-24_10h48.53.583,empathy_intonation_perc_control,2024.2.4,Win32,60.24096386,5589be79fdf99b18be320155,68817205a84113384fffdfe3,688247b1ef3a9eaddaecc038,,,,,,,,,,,,./stim/wavs/mexican_match_declarative-broad-focus_Mariano-habla-del-tiempo.wav,0,,,178.9995,180.9885,0,1,1.4596,,0,71,71,60,1,61,0,mexican,,,,,,,,,,,,,,,,,,,,,,,,,,,,,,,,,,,,,,,,,,,,,,,,,,,,,,,,
,,,,,,,,,5589be79fdf99b18be320155,Spanish,13 or older,"no, only English or Spanish",no,2025-07-24_10h48.53.583,empathy_intonation_perc_control,2024.2.4,Win32,60.24096386,5589be79fdf99b18be320155,68817205a84113384fffdfe3,688247b1ef3a9eaddaecc038,,,,,,,,,,,,./stim/wavs/castilian_match_interrogative-total-yn_Manuela-vende-el-carro.wav,1,,,180.9896,183.3055,1,1,1.8008,,0,72,72,2,1,3,0,castilian,,,,,,,,,,,,,,,,,,,,,,,,,,,,,,,,,,,,,,,,,,,,,,,,,,,,,,,,
,,,,,,,,,5589be79fdf99b18be320155,Spanish,13 or older,"no, only English or Spanish",no,2025-07-24_10h48.53.583,empathy_intonation_perc_control,2024.2.4,Win32,60.24096386,5589be79fdf99b18be320155,68817205a84113384fffdfe3,688247b1ef3a9eaddaecc038,,,,,,,,,,,,./stim/wavs/castilian_mismatch_interrogative-total-yn_Mi-tia-odia-la-lluvia.wav,1,,,183.3071,185.5162,1,1,1.6337,,0,73,73,28,1,29,0,castilian,,,,,,,,,,,,,,,,,,,,,,,,,,,,,,,,,,,,,,,,,,,,,,,,,,,,,,,,
,,,,,,,,,5589be79fdf99b18be320155,Spanish,13 or older,"no, only English or Spanish",no,2025-07-24_10h48.53.583,empathy_intonation_perc_control,2024.2.4,Win32,60.24096386,5589be79fdf99b18be320155,68817205a84113384fffdfe3,688247b1ef3a9eaddaecc038,,,,,,,,,,,,./stim/wavs/castilian_mismatch_declarative-broad-focus_La-maestra-vive-en-Paris.wav,0,,,185.518,187.9092,0,1,1.8296,,0,74,74,69,1,70,0,castilian,,,,,,,,,,,,,,,,,,,,,,,,,,,,,,,,,,,,,,,,,,,,,,,,,,,,,,,,
,,,,,,,,,5589be79fdf99b18be320155,Spanish,13 or older,"no, only English or Spanish",no,2025-07-24_10h48.53.583,empathy_intonation_perc_control,2024.2.4,Win32,60.24096386,5589be79fdf99b18be320155,68817205a84113384fffdfe3,688247b1ef3a9eaddaecc038,,,,,,,,,,,,./stim/wavs/puertorican_mismatch_interrogative-total-yn_Mi-madre-come-la-fruta.wav,1,,,187.9105,190.2052,0,0,1.7167,,0,75,75,43,1,44,1,puertorican,,,,,,,,,,,,,,,,,,,,,,,,,,,,,,,,,,,,,,,,,,,,,,,,,,,,,,,,
,,,,,,,,,5589be79fdf99b18be320155,Spanish,13 or older,"no, only English or Spanish",no,2025-07-24_10h48.53.583,empathy_intonation_perc_control,2024.2.4,Win32,60.24096386,5589be79fdf99b18be320155,68817205a84113384fffdfe3,688247b1ef3a9eaddaecc038,,,,,,,,,,,,./stim/wavs/puertorican_mismatch_declarative-broad-focus_El-bebe-comia-muy-bien.wav,0,,,190.2065,192.2369,0,1,1.5006,,0,76,76,83,1,84,0,puertorican,,,,,,,,,,,,,,,,,,,,,,,,,,,,,,,,,,,,,,,,,,,,,,,,,,,,,,,,
,,,,,,,,,5589be79fdf99b18be320155,Spanish,13 or older,"no, only English or Spanish",no,2025-07-24_10h48.53.583,empathy_intonation_perc_control,2024.2.4,Win32,60.24096386,5589be79fdf99b18be320155,68817205a84113384fffdfe3,688247b1ef3a9eaddaecc038,,,,,,,,,,,,./stim/wavs/castilian_match_declarative-broad-focus_Maria-bebe-el-vino.wav,0,,,192.2381,194.389,0,1,1.5917,,0,77,77,47,1,48,0,castilian,,,,,,,,,,,,,,,,,,,,,,,,,,,,,,,,,,,,,,,,,,,,,,,,,,,,,,,,
,,,,,,,,,5589be79fdf99b18be320155,Spanish,13 or older,"no, only English or Spanish",no,2025-07-24_10h48.53.583,empathy_intonation_perc_control,2024.2.4,Win32,60.24096386,5589be79fdf99b18be320155,68817205a84113384fffdfe3,688247b1ef3a9eaddaecc038,,,,,,,,,,,,./stim/wavs/castilian_mismatch_interrogative-total-yn_La-maestra-vive-en-Paris.wav,1,,,194.3904,196.8102,1,1,1.8762,,0,78,78,24,1,25,0,castilian,,,,,,,,,,,,,,,,,,,,,,,,,,,,,,,,,,,,,,,,,,,,,,,,,,,,,,,,
,,,,,,,,,5589be79fdf99b18be320155,Spanish,13 or older,"no, only English or Spanish",no,2025-07-24_10h48.53.583,empathy_intonation_perc_control,2024.2.4,Win32,60.24096386,5589be79fdf99b18be320155,68817205a84113384fffdfe3,688247b1ef3a9eaddaecc038,,,,,,,,,,,,./stim/wavs/cuban_mismatch_declarative-broad-focus_La-nina-lava-el-plato.wav,0,,,196.8116,198.7845,0,1,1.4207,,0,79,79,75,1,76,0,cuban,,,,,,,,,,,,,,,,,,,,,,,,,,,,,,,,,,,,,,,,,,,,,,,,,,,,,,,,
,,,,,,,,,5589be79fdf99b18be320155,Spanish,13 or older,"no, only English or Spanish",no,2025-07-24_10h48.53.583,empathy_intonation_perc_control,2024.2.4,Win32,60.24096386,5589be79fdf99b18be320155,68817205a84113384fffdfe3,688247b1ef3a9eaddaecc038,,,,,,,,,,,,./stim/wavs/mexican_match_interrogative-total-yn_David-leia-el-libro.wav,1,,,198.7863,200.8967,1,1,1.5255,,0,80,80,14,1,15,0,mexican,,,,,,,,,,,,,,,,,,,,,,,,,,,,,,,,,,,,,,,,,,,,,,,,,,,,,,,,
,,,,,,,,,5589be79fdf99b18be320155,Spanish,13 or older,"no, only English or Spanish",no,2025-07-24_10h48.53.583,empathy_intonation_perc_control,2024.2.4,Win32,60.24096386,5589be79fdf99b18be320155,68817205a84113384fffdfe3,688247b1ef3a9eaddaecc038,,,,,,,,,,,,./stim/wavs/cuban_mismatch_interrogative-total-yn_El-hombre-mira-la-luna.wav,1,,,200.8977,202.83,0,0,1.4014,,0,81,81,29,1,30,1,cuban,,,,,,,,,,,,,,,,,,,,,,,,,,,,,,,,,,,,,,,,,,,,,,,,,,,,,,,,
,,,,,,,,,5589be79fdf99b18be320155,Spanish,13 or older,"no, only English or Spanish",no,2025-07-24_10h48.53.583,empathy_intonation_perc_control,2024.2.4,Win32,60.24096386,5589be79fdf99b18be320155,68817205a84113384fffdfe3,688247b1ef3a9eaddaecc038,,,,,,,,,,,,./stim/wavs/cuban_match_interrogative-total-yn_Maria-bebe-el-vino.wav,1,,,202.8312,204.8661,0,0,1.5153,,0,82,82,9,1,10,1,cuban,,,,,,,,,,,,,,,,,,,,,,,,,,,,,,,,,,,,,,,,,,,,,,,,,,,,,,,,
,,,,,,,,,5589be79fdf99b18be320155,Spanish,13 or older,"no, only English or Spanish",no,2025-07-24_10h48.53.583,empathy_intonation_perc_control,2024.2.4,Win32,60.24096386,5589be79fdf99b18be320155,68817205a84113384fffdfe3,688247b1ef3a9eaddaecc038,,,,,,,,,,,,./stim/wavs/mexican_mismatch_declarative-broad-focus_La-maestra-vive-en-Paris.wav,0,,,204.8685,206.9714,0,1,1.5352,,0,83,83,80,1,81,0,mexican,,,,,,,,,,,,,,,,,,,,,,,,,,,,,,,,,,,,,,,,,,,,,,,,,,,,,,,,
,,,,,,,,,5589be79fdf99b18be320155,Spanish,13 or older,"no, only English or Spanish",no,2025-07-24_10h48.53.583,empathy_intonation_perc_control,2024.2.4,Win32,60.24096386,5589be79fdf99b18be320155,68817205a84113384fffdfe3,688247b1ef3a9eaddaecc038,,,,,,,,,,,,./stim/wavs/castilian_match_declarative-broad-focus_Mariano-habla-del-tiempo.wav,0,,,206.973,209.2554,0,1,1.7623,,0,84,84,48,1,49,0,castilian,,,,,,,,,,,,,,,,,,,,,,,,,,,,,,,,,,,,,,,,,,,,,,,,,,,,,,,,
,,,,,,,,,5589be79fdf99b18be320155,Spanish,13 or older,"no, only English or Spanish",no,2025-07-24_10h48.53.583,empathy_intonation_perc_control,2024.2.4,Win32,60.24096386,5589be79fdf99b18be320155,68817205a84113384fffdfe3,688247b1ef3a9eaddaecc038,,,,,,,,,,,,./stim/wavs/castilian_match_declarative-broad-focus_Manuela-vende-el-carro.wav,0,,,209.2566,211.4961,0,1,1.6791,,0,85,85,46,1,47,0,castilian,,,,,,,,,,,,,,,,,,,,,,,,,,,,,,,,,,,,,,,,,,,,,,,,,,,,,,,,
,,,,,,,,,5589be79fdf99b18be320155,Spanish,13 or older,"no, only English or Spanish",no,2025-07-24_10h48.53.583,empathy_intonation_perc_control,2024.2.4,Win32,60.24096386,5589be79fdf99b18be320155,68817205a84113384fffdfe3,688247b1ef3a9eaddaecc038,,,,,,,,,,,,./stim/wavs/puertorican_match_declarative-broad-focus_Ana-lleva-el-abrigo.wav,0,,,211.4973,213.4801,0,1,1.461,,0,86,86,62,1,63,0,puertorican,,,,,,,,,,,,,,,,,,,,,,,,,,,,,,,,,,,,,,,,,,,,,,,,,,,,,,,,
,,,,,,,,,5589be79fdf99b18be320155,Spanish,13 or older,"no, only English or Spanish",no,2025-07-24_10h48.53.583,empathy_intonation_perc_control,2024.2.4,Win32,60.24096386,5589be79fdf99b18be320155,68817205a84113384fffdfe3,688247b1ef3a9eaddaecc038,,,,,,,,,,,,./stim/wavs/puertorican_match_interrogative-total-yn_Manuela-vende-el-carro.wav,1,,,213.4813,215.4467,1,1,1.44,,0,87,87,22,1,23,1,puertorican,,,,,,,,,,,,,,,,,,,,,,,,,,,,,,,,,,,,,,,,,,,,,,,,,,,,,,,,
,,,,,,,"Great! Now we will move on. The next task consists of about 60 trials, in each of which you will see a string of letters. 
  
  Your task is to decide whether this is a real Spanish word or not.", (press the spacebar to continue),5589be79fdf99b18be320155,Spanish,13 or older,"no, only English or Spanish",no,2025-07-24_10h48.53.583,empathy_intonation_perc_control,2024.2.4,Win32,60.24096386,5589be79fdf99b18be320155,68817205a84113384fffdfe3,688247b1ef3a9eaddaecc038,,,,,,,,,,,,,,,,,,,,,,,,,,,,,,215.4609,219.3479,0,0,0,0,1,,,,,,,,,,,,,,,,,,,,,,,,,,,,,,,,,,,,,,,,,,,,,,,,,
,,,,,,,"If you think it is an existing Spanish word, you type '1' (for 'REAL'), and if you think it is not an existing Spanish word, you type '0' (for 'FAKE').", (press the spacebar to continue),5589be79fdf99b18be320155,Spanish,13 or older,"no, only English or Spanish",no,2025-07-24_10h48.53.583,empathy_intonation_perc_control,2024.2.4,Win32,60.24096386,5589be79fdf99b18be320155,68817205a84113384fffdfe3,688247b1ef3a9eaddaecc038,,,,,,,,,,,,,,,,,,,,,,,,,,,,,,219.3542,220.7959,0,1,1,1,1,,,,,,,,,,,,,,,,,,,,,,,,,,,,,,,,,,,,,,,,,,,,,,,,,
,,,,,,,"If you are sure that the word exists, even though you don’t know its exact meaning, you may still respond '1' (REAL). 
  
  But if you are not sure if it is an existing word, you should respond '0' (FAKE).
  
  Let's do a practice round...", (press the spacebar to continue),5589be79fdf99b18be320155,Spanish,13 or older,"no, only English or Spanish",no,2025-07-24_10h48.53.583,empathy_intonation_perc_control,2024.2.4,Win32,60.24096386,5589be79fdf99b18be320155,68817205a84113384fffdfe3,688247b1ef3a9eaddaecc038,,,,,,,,,,,,,,,,,,,,,,,,,,,,,,220.8015,225.2747,0,2,2,2,1,,,,,,,,,,,,,,,,,,,,,,,,,,,,,,,,,,,,,,,,,,,,,,,,,
,,,,,,,,,5589be79fdf99b18be320155,Spanish,13 or older,"no, only English or Spanish",no,2025-07-24_10h48.53.583,empathy_intonation_perc_control,2024.2.4,Win32,60.24096386,5589be79fdf99b18be320155,68817205a84113384fffdfe3,688247b1ef3a9eaddaecc038,,,,,,,,,,,,,0,,,,,,,,,,,,,,,,,,,,,,,,225.2916,227.8241,0,1,1.9633,,227.8246,228.8322,0,0,0,0,1,0,depiste,REAL,FAKE,,,,,,,,,,,,,,,,,,,,,,,,,,,,,,,,
,,,,,,,,,5589be79fdf99b18be320155,Spanish,13 or older,"no, only English or Spanish",no,2025-07-24_10h48.53.583,empathy_intonation_perc_control,2024.2.4,Win32,60.24096386,5589be79fdf99b18be320155,68817205a84113384fffdfe3,688247b1ef3a9eaddaecc038,,,,,,,,,,,,,1,,,,,,,,,,,,,,,,,,,,,,,,228.8357,230.0688,1,1,0.6905,,230.0689,231.0439,0,1,1,1,1,0,sí,REAL,FAKE,,,,,,,,,,,,,,,,,,,,,,,,,,,,,,,,
,,,,,,,,,5589be79fdf99b18be320155,Spanish,13 or older,"no, only English or Spanish",no,2025-07-24_10h48.53.583,empathy_intonation_perc_control,2024.2.4,Win32,60.24096386,5589be79fdf99b18be320155,68817205a84113384fffdfe3,688247b1ef3a9eaddaecc038,,,,,,,,,,,,,0,,,,,,,,,,,,,,,,,,,,,,,,231.0477,232.4893,0,1,0.9034,,232.4894,233.4884,0,2,2,2,1,0,coné,REAL,FAKE,,,,,,,,,,,,,,,,,,,,,,,,,,,,,,,,
,,,,,,,,,5589be79fdf99b18be320155,Spanish,13 or older,"no, only English or Spanish",no,2025-07-24_10h48.53.583,empathy_intonation_perc_control,2024.2.4,Win32,60.24096386,5589be79fdf99b18be320155,68817205a84113384fffdfe3,688247b1ef3a9eaddaecc038,,,,,,,,,,,,,0,,,,,,,,,,,,,,,,,,,,,,,,233.4913,234.7281,0,1,0.6593,,234.7283,235.7386,0,3,3,3,1,0,calpar,REAL,FAKE,,,,,,,,,,,,,,,,,,,,,,,,,,,,,,,,
,,,,,,,,,5589be79fdf99b18be320155,Spanish,13 or older,"no, only English or Spanish",no,2025-07-24_10h48.53.583,empathy_intonation_perc_control,2024.2.4,Win32,60.24096386,5589be79fdf99b18be320155,68817205a84113384fffdfe3,688247b1ef3a9eaddaecc038,,,,,,,,,,,,,0,,,,,,,,,,,,,,,,,,,,,,,,235.7411,236.9102,0,1,0.6201,,236.9104,237.8931,0,4,4,4,1,0,joten,REAL,FAKE,,,,,,,,,,,,,,,,,,,,,,,,,,,,,,,,
,,,,,,,,,5589be79fdf99b18be320155,Spanish,13 or older,"no, only English or Spanish",no,2025-07-24_10h48.53.583,empathy_intonation_perc_control,2024.2.4,Win32,60.24096386,5589be79fdf99b18be320155,68817205a84113384fffdfe3,688247b1ef3a9eaddaecc038,,,,,,,,,,,,,1,,,,,,,,,,,,,,,,,,,,,,,,237.8959,239.2488,0,0,0.7697,,239.2522,240.245,0,5,5,5,1,0,sacapuntas,REAL,FAKE,,,,,,,,,,,,,,,,,,,,,,,,,,,,,,,,
,,,,,,,,,5589be79fdf99b18be320155,Spanish,13 or older,"no, only English or Spanish",no,2025-07-24_10h48.53.583,empathy_intonation_perc_control,2024.2.4,Win32,60.24096386,5589be79fdf99b18be320155,68817205a84113384fffdfe3,688247b1ef3a9eaddaecc038,,,,,,,,,,,,,0,,,,,,,,,,,,,,,,,,,,,,,,240.2476,241.4256,0,1,0.6196,,241.4268,242.4248,0,6,6,6,1,0,priba,REAL,FAKE,,,,,,,,,,,,,,,,,,,,,,,,,,,,,,,,
,,,,,,,,,5589be79fdf99b18be320155,Spanish,13 or older,"no, only English or Spanish",no,2025-07-24_10h48.53.583,empathy_intonation_perc_control,2024.2.4,Win32,60.24096386,5589be79fdf99b18be320155,68817205a84113384fffdfe3,688247b1ef3a9eaddaecc038,,,,,,,,,,,,,0,,,,,,,,,,,,,,,,,,,,,,,,242.4267,244.0009,1,0,1.0449,,244.0043,245.0088,0,7,7,7,1,0,pelasula,REAL,FAKE,,,,,,,,,,,,,,,,,,,,,,,,,,,,,,,,
,,,,,,,,,5589be79fdf99b18be320155,Spanish,13 or older,"no, only English or Spanish",no,2025-07-24_10h48.53.583,empathy_intonation_perc_control,2024.2.4,Win32,60.24096386,5589be79fdf99b18be320155,68817205a84113384fffdfe3,688247b1ef3a9eaddaecc038,,,,,,,,,,,,,1,,,,,,,,,,,,,,,,,,,,,,,,245.0112,246.1624,1,1,0.5764,,246.164,247.1387,0,8,8,8,1,0,bien,REAL,FAKE,,,,,,,,,,,,,,,,,,,,,,,,,,,,,,,,
,,,,,,,,,5589be79fdf99b18be320155,Spanish,13 or older,"no, only English or Spanish",no,2025-07-24_10h48.53.583,empathy_intonation_perc_control,2024.2.4,Win32,60.24096386,5589be79fdf99b18be320155,68817205a84113384fffdfe3,688247b1ef3a9eaddaecc038,,,,,,,,,,,,,1,,,,,,,,,,,,,,,,,,,,,,,,247.1407,248.2703,1,1,0.5776,,248.2705,249.263,0,9,9,9,1,0,casa,REAL,FAKE,,,,,,,,,,,,,,,,,,,,,,,,,,,,,,,,
,,,,,,,,,5589be79fdf99b18be320155,Spanish,13 or older,"no, only English or Spanish",no,2025-07-24_10h48.53.583,empathy_intonation_perc_control,2024.2.4,Win32,60.24096386,5589be79fdf99b18be320155,68817205a84113384fffdfe3,688247b1ef3a9eaddaecc038,,,,,,,,,,,,,0,,,,,,,,,,,,,,,,,,,,,,,,249.2652,250.7791,0,1,0.962,,250.7791,251.7772,0,10,10,10,1,0,lejo,REAL,FAKE,,,,,,,,,,,,,,,,,,,,,,,,,,,,,,,,
,,,,,,,,,5589be79fdf99b18be320155,Spanish,13 or older,"no, only English or Spanish",no,2025-07-24_10h48.53.583,empathy_intonation_perc_control,2024.2.4,Win32,60.24096386,5589be79fdf99b18be320155,68817205a84113384fffdfe3,688247b1ef3a9eaddaecc038,,,,,,,,,,,,,0,,,,,,,,,,,,,,,,,,,,,,,,251.7789,253.3113,0,1,1.0084,,253.3113,254.2997,0,11,11,11,1,0,pretantas,REAL,FAKE,,,,,,,,,,,,,,,,,,,,,,,,,,,,,,,,
,,,,,,,,,5589be79fdf99b18be320155,Spanish,13 or older,"no, only English or Spanish",no,2025-07-24_10h48.53.583,empathy_intonation_perc_control,2024.2.4,Win32,60.24096386,5589be79fdf99b18be320155,68817205a84113384fffdfe3,688247b1ef3a9eaddaecc038,,,,,,,,,,,,,,,,,,,,,,,,,,,,,,,,,,,,,,,,,,,,,,,,,,,,,,254.3005,255.3594,,,,,,,,,,,,,,,,,,,,,,,,,,,,,,
,,,,,,,,,5589be79fdf99b18be320155,Spanish,13 or older,"no, only English or Spanish",no,2025-07-24_10h48.53.583,empathy_intonation_perc_control,2024.2.4,Win32,60.24096386,5589be79fdf99b18be320155,68817205a84113384fffdfe3,688247b1ef3a9eaddaecc038,,,,,,,,,,,,,1,,,,,,,,,,,,,,,,,,,,,,,,,,,,,,,,,,,,,89,prisa,,,,,255.3852,256.6152,0,0,0.6713,,0,0,0,88,1,REAL,FAKE,,,,,,,,,,,,,,,,,
,,,,,,,,,5589be79fdf99b18be320155,Spanish,13 or older,"no, only English or Spanish",no,2025-07-24_10h48.53.583,empathy_intonation_perc_control,2024.2.4,Win32,60.24096386,5589be79fdf99b18be320155,68817205a84113384fffdfe3,688247b1ef3a9eaddaecc038,,,,,,,,,,,,,1,,,,,,,,,,,,,,,,,,,,,,,,,,,,,,,,,,,,,64,orgulloso,,,,,256.6182,258.6944,1,1,1.5317,,0,1,1,63,1,REAL,FAKE,,,,,,,,,,,,,,,,,
,,,,,,,,,5589be79fdf99b18be320155,Spanish,13 or older,"no, only English or Spanish",no,2025-07-24_10h48.53.583,empathy_intonation_perc_control,2024.2.4,Win32,60.24096386,5589be79fdf99b18be320155,68817205a84113384fffdfe3,688247b1ef3a9eaddaecc038,,,,,,,,,,,,,1,,,,,,,,,,,,,,,,,,,,,,,,,,,,,,,,,,,,,76,atar,,,,,258.6961,260.2149,0,0,0.9757,,0,2,2,75,1,REAL,FAKE,,,,,,,,,,,,,,,,,
,,,,,,,,,5589be79fdf99b18be320155,Spanish,13 or older,"no, only English or Spanish",no,2025-07-24_10h48.53.583,empathy_intonation_perc_control,2024.2.4,Win32,60.24096386,5589be79fdf99b18be320155,68817205a84113384fffdfe3,688247b1ef3a9eaddaecc038,,,,,,,,,,,,,0,,,,,,,,,,,,,,,,,,,,,,,,,,,,,,,,,,,,,16,abracer,,,,,260.2166,261.5362,1,0,0.7704,,0,3,3,15,1,REAL,FAKE,,,,,,,,,,,,,,,,,
,,,,,,,,,5589be79fdf99b18be320155,Spanish,13 or older,"no, only English or Spanish",no,2025-07-24_10h48.53.583,empathy_intonation_perc_control,2024.2.4,Win32,60.24096386,5589be79fdf99b18be320155,68817205a84113384fffdfe3,688247b1ef3a9eaddaecc038,,,,,,,,,,,,,1,,,,,,,,,,,,,,,,,,,,,,,,,,,,,,,,,,,,,55,nevar,,,,,261.5389,262.8208,0,0,0.7181,,0,4,4,54,1,REAL,FAKE,,,,,,,,,,,,,,,,,
,,,,,,,,,5589be79fdf99b18be320155,Spanish,13 or older,"no, only English or Spanish",no,2025-07-24_10h48.53.583,empathy_intonation_perc_control,2024.2.4,Win32,60.24096386,5589be79fdf99b18be320155,68817205a84113384fffdfe3,688247b1ef3a9eaddaecc038,,,,,,,,,,,,,1,,,,,,,,,,,,,,,,,,,,,,,,,,,,,,,,,,,,,38,estornudar,,,,,262.8229,264.3766,0,0,1.0147,,0,5,5,37,1,REAL,FAKE,,,,,,,,,,,,,,,,,
,,,,,,,,,5589be79fdf99b18be320155,Spanish,13 or older,"no, only English or Spanish",no,2025-07-24_10h48.53.583,empathy_intonation_perc_control,2024.2.4,Win32,60.24096386,5589be79fdf99b18be320155,68817205a84113384fffdfe3,688247b1ef3a9eaddaecc038,,,,,,,,,,,,,0,,,,,,,,,,,,,,,,,,,,,,,,,,,,,,,,,,,,,53,vegada,,,,,264.3784,265.8388,1,0,0.9181,,0,6,6,52,1,REAL,FAKE,,,,,,,,,,,,,,,,,
,,,,,,,,,5589be79fdf99b18be320155,Spanish,13 or older,"no, only English or Spanish",no,2025-07-24_10h48.53.583,empathy_intonation_perc_control,2024.2.4,Win32,60.24096386,5589be79fdf99b18be320155,68817205a84113384fffdfe3,688247b1ef3a9eaddaecc038,,,,,,,,,,,,,1,,,,,,,,,,,,,,,,,,,,,,,,,,,,,,,,,,,,,46,martillo,,,,,265.842,267.1036,1,1,0.7334,,0,7,7,45,1,REAL,FAKE,,,,,,,,,,,,,,,,,
,,,,,,,,,5589be79fdf99b18be320155,Spanish,13 or older,"no, only English or Spanish",no,2025-07-24_10h48.53.583,empathy_intonation_perc_control,2024.2.4,Win32,60.24096386,5589be79fdf99b18be320155,68817205a84113384fffdfe3,688247b1ef3a9eaddaecc038,,,,,,,,,,,,,0,,,,,,,,,,,,,,,,,,,,,,,,,,,,,,,,,,,,,33,pauca,,,,,267.1047,268.2266,0,1,0.5847,,0,8,8,32,1,REAL,FAKE,,,,,,,,,,,,,,,,,
,,,,,,,,,5589be79fdf99b18be320155,Spanish,13 or older,"no, only English or Spanish",no,2025-07-24_10h48.53.583,empathy_intonation_perc_control,2024.2.4,Win32,60.24096386,5589be79fdf99b18be320155,68817205a84113384fffdfe3,688247b1ef3a9eaddaecc038,,,,,,,,,,,,,1,,,,,,,,,,,,,,,,,,,,,,,,,,,,,,,,,,,,,14,yunque,,,,,268.2303,269.4267,0,0,0.6547,,0,9,9,13,1,REAL,FAKE,,,,,,,,,,,,,,,,,
,,,,,,,,,5589be79fdf99b18be320155,Spanish,13 or older,"no, only English or Spanish",no,2025-07-24_10h48.53.583,empathy_intonation_perc_control,2024.2.4,Win32,60.24096386,5589be79fdf99b18be320155,68817205a84113384fffdfe3,688247b1ef3a9eaddaecc038,,,,,,,,,,,,,1,,,,,,,,,,,,,,,,,,,,,,,,,,,,,,,,,,,,,3,pulmones,,,,,269.4295,270.9267,1,1,0.9505,,0,10,10,2,1,REAL,FAKE,,,,,,,,,,,,,,,,,
,,,,,,,,,5589be79fdf99b18be320155,Spanish,13 or older,"no, only English or Spanish",no,2025-07-24_10h48.53.583,empathy_intonation_perc_control,2024.2.4,Win32,60.24096386,5589be79fdf99b18be320155,68817205a84113384fffdfe3,688247b1ef3a9eaddaecc038,,,,,,,,,,,,,1,,,,,,,,,,,,,,,,,,,,,,,,,,,,,,,,,,,,,24,látigo,,,,,270.9286,272.3597,1,1,0.8854,,0,11,11,23,1,REAL,FAKE,,,,,,,,,,,,,,,,,
,,,,,,,,,5589be79fdf99b18be320155,Spanish,13 or older,"no, only English or Spanish",no,2025-07-24_10h48.53.583,empathy_intonation_perc_control,2024.2.4,Win32,60.24096386,5589be79fdf99b18be320155,68817205a84113384fffdfe3,688247b1ef3a9eaddaecc038,,,,,,,,,,,,,1,,,,,,,,,,,,,,,,,,,,,,,,,,,,,,,,,,,,,40,alfombra,,,,,272.3631,274.0267,0,0,1.1181,,0,12,12,39,1,REAL,FAKE,,,,,,,,,,,,,,,,,
,,,,,,,,,5589be79fdf99b18be320155,Spanish,13 or older,"no, only English or Spanish",no,2025-07-24_10h48.53.583,empathy_intonation_perc_control,2024.2.4,Win32,60.24096386,5589be79fdf99b18be320155,68817205a84113384fffdfe3,688247b1ef3a9eaddaecc038,,,,,,,,,,,,,0,,,,,,,,,,,,,,,,,,,,,,,,,,,,,,,,,,,,,8,cadeña,,,,,274.03,275.8103,1,0,1.2346,,0,13,13,7,1,REAL,FAKE,,,,,,,,,,,,,,,,,
,,,,,,,,,5589be79fdf99b18be320155,Spanish,13 or older,"no, only English or Spanish",no,2025-07-24_10h48.53.583,empathy_intonation_perc_control,2024.2.4,Win32,60.24096386,5589be79fdf99b18be320155,68817205a84113384fffdfe3,688247b1ef3a9eaddaecc038,,,,,,,,,,,,,1,,,,,,,,,,,,,,,,,,,,,,,,,,,,,,,,,,,,,65,bizcocho,,,,,275.8132,277.0773,0,0,0.7231,,0,14,14,64,1,REAL,FAKE,,,,,,,,,,,,,,,,,
,,,,,,,,,5589be79fdf99b18be320155,Spanish,13 or older,"no, only English or Spanish",no,2025-07-24_10h48.53.583,empathy_intonation_perc_control,2024.2.4,Win32,60.24096386,5589be79fdf99b18be320155,68817205a84113384fffdfe3,688247b1ef3a9eaddaecc038,,,,,,,,,,,,,0,,,,,,,,,,,,,,,,,,,,,,,,,,,,,,,,,,,,,10,antar,,,,,277.0806,278.5091,0,1,0.8889,,0,15,15,9,1,REAL,FAKE,,,,,,,,,,,,,,,,,
,,,,,,,,,5589be79fdf99b18be320155,Spanish,13 or older,"no, only English or Spanish",no,2025-07-24_10h48.53.583,empathy_intonation_perc_control,2024.2.4,Win32,60.24096386,5589be79fdf99b18be320155,68817205a84113384fffdfe3,688247b1ef3a9eaddaecc038,,,,,,,,,,,,,1,,,,,,,,,,,,,,,,,,,,,,,,,,,,,,,,,,,,,26,secuestro,,,,,278.5105,279.8093,1,1,0.7539,,0,16,16,25,1,REAL,FAKE,,,,,,,,,,,,,,,,,
,,,,,,,,,5589be79fdf99b18be320155,Spanish,13 or older,"no, only English or Spanish",no,2025-07-24_10h48.53.583,empathy_intonation_perc_control,2024.2.4,Win32,60.24096386,5589be79fdf99b18be320155,68817205a84113384fffdfe3,688247b1ef3a9eaddaecc038,,,,,,,,,,,,,0,,,,,,,,,,,,,,,,,,,,,,,,,,,,,,,,,,,,,74,cintro,,,,,279.8121,281.4925,0,1,1.1504,,0,17,17,73,1,REAL,FAKE,,,,,,,,,,,,,,,,,
,,,,,,,,,5589be79fdf99b18be320155,Spanish,13 or older,"no, only English or Spanish",no,2025-07-24_10h48.53.583,empathy_intonation_perc_control,2024.2.4,Win32,60.24096386,5589be79fdf99b18be320155,68817205a84113384fffdfe3,688247b1ef3a9eaddaecc038,,,,,,,,,,,,,0,,,,,,,,,,,,,,,,,,,,,,,,,,,,,,,,,,,,,19,brecedad,,,,,281.4939,282.9091,0,1,0.8652,,0,18,18,18,1,REAL,FAKE,,,,,,,,,,,,,,,,,
,,,,,,,,,5589be79fdf99b18be320155,Spanish,13 or older,"no, only English or Spanish",no,2025-07-24_10h48.53.583,empathy_intonation_perc_control,2024.2.4,Win32,60.24096386,5589be79fdf99b18be320155,68817205a84113384fffdfe3,688247b1ef3a9eaddaecc038,,,,,,,,,,,,,1,,,,,,,,,,,,,,,,,,,,,,,,,,,,,,,,,,,,,54,fomentar,,,,,282.9119,284.469,1,1,1.0161,,0,19,19,53,1,REAL,FAKE,,,,,,,,,,,,,,,,,
,,,,,,,,,5589be79fdf99b18be320155,Spanish,13 or older,"no, only English or Spanish",no,2025-07-24_10h48.53.583,empathy_intonation_perc_control,2024.2.4,Win32,60.24096386,5589be79fdf99b18be320155,68817205a84113384fffdfe3,688247b1ef3a9eaddaecc038,,,,,,,,,,,,,1,,,,,,,,,,,,,,,,,,,,,,,,,,,,,,,,,,,,,62,flaco,,,,,284.4701,286.0256,1,1,1.0185,,0,20,20,61,1,REAL,FAKE,,,,,,,,,,,,,,,,,
,,,,,,,,,5589be79fdf99b18be320155,Spanish,13 or older,"no, only English or Spanish",no,2025-07-24_10h48.53.583,empathy_intonation_perc_control,2024.2.4,Win32,60.24096386,5589be79fdf99b18be320155,68817205a84113384fffdfe3,688247b1ef3a9eaddaecc038,,,,,,,,,,,,,0,,,,,,,,,,,,,,,,,,,,,,,,,,,,,,,,,,,,,27,acutación,,,,,286.0294,287.5755,0,1,1.0029,,0,21,21,26,1,REAL,FAKE,,,,,,,,,,,,,,,,,
,,,,,,,,,5589be79fdf99b18be320155,Spanish,13 or older,"no, only English or Spanish",no,2025-07-24_10h48.53.583,empathy_intonation_perc_control,2024.2.4,Win32,60.24096386,5589be79fdf99b18be320155,68817205a84113384fffdfe3,688247b1ef3a9eaddaecc038,,,,,,,,,,,,,1,,,,,,,,,,,,,,,,,,,,,,,,,,,,,,,,,,,,,37,granuja,,,,,287.5781,288.9086,0,0,0.7838,,0,22,22,36,1,REAL,FAKE,,,,,,,,,,,,,,,,,
,,,,,,,,,5589be79fdf99b18be320155,Spanish,13 or older,"no, only English or Spanish",no,2025-07-24_10h48.53.583,empathy_intonation_perc_control,2024.2.4,Win32,60.24096386,5589be79fdf99b18be320155,68817205a84113384fffdfe3,688247b1ef3a9eaddaecc038,,,,,,,,,,,,,0,,,,,,,,,,,,,,,,,,,,,,,,,,,,,,,,,,,,,35,rompido,,,,,288.9105,290.0933,1,0,0.6566,,0,23,23,34,1,REAL,FAKE,,,,,,,,,,,,,,,,,
,,,,,,,,,5589be79fdf99b18be320155,Spanish,13 or older,"no, only English or Spanish",no,2025-07-24_10h48.53.583,empathy_intonation_perc_control,2024.2.4,Win32,60.24096386,5589be79fdf99b18be320155,68817205a84113384fffdfe3,688247b1ef3a9eaddaecc038,,,,,,,,,,,,,1,,,,,,,,,,,,,,,,,,,,,,,,,,,,,,,,,,,,,86,barato,,,,,290.0958,291.3589,0,0,0.7231,,0,24,24,85,1,REAL,FAKE,,,,,,,,,,,,,,,,,
,,,,,,,,,5589be79fdf99b18be320155,Spanish,13 or older,"no, only English or Spanish",no,2025-07-24_10h48.53.583,empathy_intonation_perc_control,2024.2.4,Win32,60.24096386,5589be79fdf99b18be320155,68817205a84113384fffdfe3,688247b1ef3a9eaddaecc038,,,,,,,,,,,,,1,,,,,,,,,,,,,,,,,,,,,,,,,,,,,,,,,,,,,90,clavel,,,,,291.3616,292.6415,0,0,0.7394,,0,25,25,89,1,REAL,FAKE,,,,,,,,,,,,,,,,,
,,,,,,,,,5589be79fdf99b18be320155,Spanish,13 or older,"no, only English or Spanish",no,2025-07-24_10h48.53.583,empathy_intonation_perc_control,2024.2.4,Win32,60.24096386,5589be79fdf99b18be320155,68817205a84113384fffdfe3,688247b1ef3a9eaddaecc038,,,,,,,,,,,,,1,,,,,,,,,,,,,,,,,,,,,,,,,,,,,,,,,,,,,57,tacaño,,,,,292.643,293.9704,0,0,0.8012,,0,26,26,56,1,REAL,FAKE,,,,,,,,,,,,,,,,,
,,,,,,,,,5589be79fdf99b18be320155,Spanish,13 or older,"no, only English or Spanish",no,2025-07-24_10h48.53.583,empathy_intonation_perc_control,2024.2.4,Win32,60.24096386,5589be79fdf99b18be320155,68817205a84113384fffdfe3,688247b1ef3a9eaddaecc038,,,,,,,,,,,,,1,,,,,,,,,,,,,,,,,,,,,,,,,,,,,,,,,,,,,80,hormiga,,,,,293.9727,295.5417,0,0,1.0346,,0,27,27,79,1,REAL,FAKE,,,,,,,,,,,,,,,,,
,,,,,,,,,5589be79fdf99b18be320155,Spanish,13 or older,"no, only English or Spanish",no,2025-07-24_10h48.53.583,empathy_intonation_perc_control,2024.2.4,Win32,60.24096386,5589be79fdf99b18be320155,68817205a84113384fffdfe3,688247b1ef3a9eaddaecc038,,,,,,,,,,,,,1,,,,,,,,,,,,,,,,,,,,,,,,,,,,,,,,,,,,,78,frondoso,,,,,295.5452,297.0871,0,0,1.002,,0,28,28,77,1,REAL,FAKE,,,,,,,,,,,,,,,,,
,,,,,,,,,5589be79fdf99b18be320155,Spanish,13 or older,"no, only English or Spanish",no,2025-07-24_10h48.53.583,empathy_intonation_perc_control,2024.2.4,Win32,60.24096386,5589be79fdf99b18be320155,68817205a84113384fffdfe3,688247b1ef3a9eaddaecc038,,,,,,,,,,,,,1,,,,,,,,,,,,,,,,,,,,,,,,,,,,,,,,,,,,,5,zapato,,,,,297.0894,298.2082,1,1,0.585,,0,29,29,4,1,REAL,FAKE,,,,,,,,,,,,,,,,,
,,,,,,,,,5589be79fdf99b18be320155,Spanish,13 or older,"no, only English or Spanish",no,2025-07-24_10h48.53.583,empathy_intonation_perc_control,2024.2.4,Win32,60.24096386,5589be79fdf99b18be320155,68817205a84113384fffdfe3,688247b1ef3a9eaddaecc038,,,,,,,,,,,,,1,,,,,,,,,,,,,,,,,,,,,,,,,,,,,,,,,,,,,61,seda,,,,,298.2106,299.9254,0,0,1.1674,,0,30,30,60,1,REAL,FAKE,,,,,,,,,,,,,,,,,
,,,,,,,,,5589be79fdf99b18be320155,Spanish,13 or older,"no, only English or Spanish",no,2025-07-24_10h48.53.583,empathy_intonation_perc_control,2024.2.4,Win32,60.24096386,5589be79fdf99b18be320155,68817205a84113384fffdfe3,688247b1ef3a9eaddaecc038,,,,,,,,,,,,,1,,,,,,,,,,,,,,,,,,,,,,,,,,,,,,,,,,,,,83,guante,,,,,299.9268,301.391,0,0,0.9204,,0,31,31,82,1,REAL,FAKE,,,,,,,,,,,,,,,,,
,,,,,,,,,5589be79fdf99b18be320155,Spanish,13 or older,"no, only English or Spanish",no,2025-07-24_10h48.53.583,empathy_intonation_perc_control,2024.2.4,Win32,60.24096386,5589be79fdf99b18be320155,68817205a84113384fffdfe3,688247b1ef3a9eaddaecc038,,,,,,,,,,,,,0,,,,,,,,,,,,,,,,,,,,,,,,,,,,,,,,,,,,,79,tropaje,,,,,301.3922,302.7519,0,1,0.8172,,0,32,32,78,1,REAL,FAKE,,,,,,,,,,,,,,,,,
,,,,,,,,,5589be79fdf99b18be320155,Spanish,13 or older,"no, only English or Spanish",no,2025-07-24_10h48.53.583,empathy_intonation_perc_control,2024.2.4,Win32,60.24096386,5589be79fdf99b18be320155,68817205a84113384fffdfe3,688247b1ef3a9eaddaecc038,,,,,,,,,,,,,1,,,,,,,,,,,,,,,,,,,,,,,,,,,,,,,,,,,,,28,merodear,,,,,302.7531,304.1249,0,0,0.8354,,0,33,33,27,1,REAL,FAKE,,,,,,,,,,,,,,,,,
,,,,,,,,,5589be79fdf99b18be320155,Spanish,13 or older,"no, only English or Spanish",no,2025-07-24_10h48.53.583,empathy_intonation_perc_control,2024.2.4,Win32,60.24096386,5589be79fdf99b18be320155,68817205a84113384fffdfe3,688247b1ef3a9eaddaecc038,,,,,,,,,,,,,0,,,,,,,,,,,,,,,,,,,,,,,,,,,,,,,,,,,,,47,cartinar,,,,,304.1263,305.4078,0,1,0.7482,,0,34,34,46,1,REAL,FAKE,,,,,,,,,,,,,,,,,
,,,,,,,,,5589be79fdf99b18be320155,Spanish,13 or older,"no, only English or Spanish",no,2025-07-24_10h48.53.583,empathy_intonation_perc_control,2024.2.4,Win32,60.24096386,5589be79fdf99b18be320155,68817205a84113384fffdfe3,688247b1ef3a9eaddaecc038,,,,,,,,,,,,,0,,,,,,,,,,,,,,,,,,,,,,,,,,,,,,,,,,,,,30,alardio,,,,,305.4108,306.5864,0,1,0.63,,0,35,35,29,1,REAL,FAKE,,,,,,,,,,,,,,,,,
,,,,,,,,,5589be79fdf99b18be320155,Spanish,13 or older,"no, only English or Spanish",no,2025-07-24_10h48.53.583,empathy_intonation_perc_control,2024.2.4,Win32,60.24096386,5589be79fdf99b18be320155,68817205a84113384fffdfe3,688247b1ef3a9eaddaecc038,,,,,,,,,,,,,1,,,,,,,,,,,,,,,,,,,,,,,,,,,,,,,,,,,,,75,yacer,,,,,306.5882,307.7681,0,0,0.6444,,0,36,36,74,1,REAL,FAKE,,,,,,,,,,,,,,,,,
,,,,,,,,,5589be79fdf99b18be320155,Spanish,13 or older,"no, only English or Spanish",no,2025-07-24_10h48.53.583,empathy_intonation_perc_control,2024.2.4,Win32,60.24096386,5589be79fdf99b18be320155,68817205a84113384fffdfe3,688247b1ef3a9eaddaecc038,,,,,,,,,,,,,1,,,,,,,,,,,,,,,,,,,,,,,,,,,,,,,,,,,,,15,regar,,,,,307.7693,309.041,1,1,0.7354,,0,37,37,14,1,REAL,FAKE,,,,,,,,,,,,,,,,,
,,,,,,,,,5589be79fdf99b18be320155,Spanish,13 or older,"no, only English or Spanish",no,2025-07-24_10h48.53.583,empathy_intonation_perc_control,2024.2.4,Win32,60.24096386,5589be79fdf99b18be320155,68817205a84113384fffdfe3,688247b1ef3a9eaddaecc038,,,,,,,,,,,,,1,,,,,,,,,,,,,,,,,,,,,,,,,,,,,,,,,,,,,60,matar,,,,,309.0437,310.6243,1,1,1.0371,,0,38,38,59,1,REAL,FAKE,,,,,,,,,,,,,,,,,
,,,,,,,,,5589be79fdf99b18be320155,Spanish,13 or older,"no, only English or Spanish",no,2025-07-24_10h48.53.583,empathy_intonation_perc_control,2024.2.4,Win32,60.24096386,5589be79fdf99b18be320155,68817205a84113384fffdfe3,688247b1ef3a9eaddaecc038,,,,,,,,,,,,,1,,,,,,,,,,,,,,,,,,,,,,,,,,,,,,,,,,,,,77,tiburón,,,,,310.627,312.2575,1,1,1.085,,0,39,39,76,1,REAL,FAKE,,,,,,,,,,,,,,,,,
,,,,,,,,,5589be79fdf99b18be320155,Spanish,13 or older,"no, only English or Spanish",no,2025-07-24_10h48.53.583,empathy_intonation_perc_control,2024.2.4,Win32,60.24096386,5589be79fdf99b18be320155,68817205a84113384fffdfe3,688247b1ef3a9eaddaecc038,,,,,,,,,,,,,0,,,,,,,,,,,,,,,,,,,,,,,,,,,,,,,,,,,,,29,decar,,,,,312.26,313.574,0,1,0.7856,,0,40,40,28,1,REAL,FAKE,,,,,,,,,,,,,,,,,
,,,,,,,,,5589be79fdf99b18be320155,Spanish,13 or older,"no, only English or Spanish",no,2025-07-24_10h48.53.583,empathy_intonation_perc_control,2024.2.4,Win32,60.24096386,5589be79fdf99b18be320155,68817205a84113384fffdfe3,688247b1ef3a9eaddaecc038,,,,,,,,,,,,,1,,,,,,,,,,,,,,,,,,,,,,,,,,,,,,,,,,,,,52,camisa,,,,,313.577,315.0859,1,1,0.968,,0,41,41,51,1,REAL,FAKE,,,,,,,,,,,,,,,,,
,,,,,,,,,5589be79fdf99b18be320155,Spanish,13 or older,"no, only English or Spanish",no,2025-07-24_10h48.53.583,empathy_intonation_perc_control,2024.2.4,Win32,60.24096386,5589be79fdf99b18be320155,68817205a84113384fffdfe3,688247b1ef3a9eaddaecc038,,,,,,,,,,,,,1,,,,,,,,,,,,,,,,,,,,,,,,,,,,,,,,,,,,,85,laúd,,,,,315.0891,316.2404,0,0,0.6181,,0,42,42,84,1,REAL,FAKE,,,,,,,,,,,,,,,,,
,,,,,,,,,5589be79fdf99b18be320155,Spanish,13 or older,"no, only English or Spanish",no,2025-07-24_10h48.53.583,empathy_intonation_perc_control,2024.2.4,Win32,60.24096386,5589be79fdf99b18be320155,68817205a84113384fffdfe3,688247b1ef3a9eaddaecc038,,,,,,,,,,,,,0,,,,,,,,,,,,,,,,,,,,,,,,,,,,,,,,,,,,,4,batillón,,,,,316.2424,317.6573,0,1,0.8856,,0,43,43,3,1,REAL,FAKE,,,,,,,,,,,,,,,,,
,,,,,,,,,5589be79fdf99b18be320155,Spanish,13 or older,"no, only English or Spanish",no,2025-07-24_10h48.53.583,empathy_intonation_perc_control,2024.2.4,Win32,60.24096386,5589be79fdf99b18be320155,68817205a84113384fffdfe3,688247b1ef3a9eaddaecc038,,,,,,,,,,,,,1,,,,,,,,,,,,,,,,,,,,,,,,,,,,,,,,,,,,,69,engatusar,,,,,317.6604,319.0575,0,0,0.8506,,0,44,44,68,1,REAL,FAKE,,,,,,,,,,,,,,,,,
,,,,,,,,,5589be79fdf99b18be320155,Spanish,13 or older,"no, only English or Spanish",no,2025-07-24_10h48.53.583,empathy_intonation_perc_control,2024.2.4,Win32,60.24096386,5589be79fdf99b18be320155,68817205a84113384fffdfe3,688247b1ef3a9eaddaecc038,,,,,,,,,,,,,0,,,,,,,,,,,,,,,,,,,,,,,,,,,,,,,,,,,,,92,click the 0 key.,,,,,319.0596,320.3066,0,1,0.6997,,0,45,45,91,1,REAL,FAKE,,,,,,,,,,,,,,,,,
,,,,,,,,,5589be79fdf99b18be320155,Spanish,13 or older,"no, only English or Spanish",no,2025-07-24_10h48.53.583,empathy_intonation_perc_control,2024.2.4,Win32,60.24096386,5589be79fdf99b18be320155,68817205a84113384fffdfe3,688247b1ef3a9eaddaecc038,,,,,,,,,,,,,1,,,,,,,,,,,,,,,,,,,,,,,,,,,,,,,,,,,,,7,pésimo,,,,,320.308,322.6896,1,1,1.8383,,0,46,46,6,1,REAL,FAKE,,,,,,,,,,,,,,,,,
,,,,,,,,,5589be79fdf99b18be320155,Spanish,13 or older,"no, only English or Spanish",no,2025-07-24_10h48.53.583,empathy_intonation_perc_control,2024.2.4,Win32,60.24096386,5589be79fdf99b18be320155,68817205a84113384fffdfe3,688247b1ef3a9eaddaecc038,,,,,,,,,,,,,0,,,,,,,,,,,,,,,,,,,,,,,,,,,,,,,,,,,,,1,terzo,,,,,322.6919,324.2353,1,0,0.9973,,0,47,47,0,1,REAL,FAKE,,,,,,,,,,,,,,,,,
,,,,,,,,,5589be79fdf99b18be320155,Spanish,13 or older,"no, only English or Spanish",no,2025-07-24_10h48.53.583,empathy_intonation_perc_control,2024.2.4,Win32,60.24096386,5589be79fdf99b18be320155,68817205a84113384fffdfe3,688247b1ef3a9eaddaecc038,,,,,,,,,,,,,1,,,,,,,,,,,,,,,,,,,,,,,,,,,,,,,,,,,,,51,candado,,,,,324.2373,325.6686,0,0,0.9016,,0,48,48,50,1,REAL,FAKE,,,,,,,,,,,,,,,,,
,,,,,,,,,5589be79fdf99b18be320155,Spanish,13 or older,"no, only English or Spanish",no,2025-07-24_10h48.53.583,empathy_intonation_perc_control,2024.2.4,Win32,60.24096386,5589be79fdf99b18be320155,68817205a84113384fffdfe3,688247b1ef3a9eaddaecc038,,,,,,,,,,,,,0,,,,,,,,,,,,,,,,,,,,,,,,,,,,,,,,,,,,,42,cadallo,,,,,325.6707,327.0351,0,1,0.8348,,0,49,49,41,1,REAL,FAKE,,,,,,,,,,,,,,,,,
,,,,,,,,,5589be79fdf99b18be320155,Spanish,13 or older,"no, only English or Spanish",no,2025-07-24_10h48.53.583,empathy_intonation_perc_control,2024.2.4,Win32,60.24096386,5589be79fdf99b18be320155,68817205a84113384fffdfe3,688247b1ef3a9eaddaecc038,,,,,,,,,,,,,1,,,,,,,,,,,,,,,,,,,,,,,,,,,,,,,,,,,,,91,click the 1 key.,,,,,327.0394,328.1486,1,1,0.581,,0,50,50,90,1,REAL,FAKE,,,,,,,,,,,,,,,,,
,,,,,,,,,5589be79fdf99b18be320155,Spanish,13 or older,"no, only English or Spanish",no,2025-07-24_10h48.53.583,empathy_intonation_perc_control,2024.2.4,Win32,60.24096386,5589be79fdf99b18be320155,68817205a84113384fffdfe3,688247b1ef3a9eaddaecc038,,,,,,,,,,,,,1,,,,,,,,,,,,,,,,,,,,,,,,,,,,,,,,,,,,,25,bisagra,,,,,328.1508,330.0901,0,0,1.4047,,0,51,51,24,1,REAL,FAKE,,,,,,,,,,,,,,,,,
,,,,,,,,,5589be79fdf99b18be320155,Spanish,13 or older,"no, only English or Spanish",no,2025-07-24_10h48.53.583,empathy_intonation_perc_control,2024.2.4,Win32,60.24096386,5589be79fdf99b18be320155,68817205a84113384fffdfe3,688247b1ef3a9eaddaecc038,,,,,,,,,,,,,1,,,,,,,,,,,,,,,,,,,,,,,,,,,,,,,,,,,,,9,hacha,,,,,330.0924,331.8729,0,0,1.2342,,0,52,52,8,1,REAL,FAKE,,,,,,,,,,,,,,,,,
,,,,,,,,,5589be79fdf99b18be320155,Spanish,13 or older,"no, only English or Spanish",no,2025-07-24_10h48.53.583,empathy_intonation_perc_control,2024.2.4,Win32,60.24096386,5589be79fdf99b18be320155,68817205a84113384fffdfe3,688247b1ef3a9eaddaecc038,,,,,,,,,,,,,1,,,,,,,,,,,,,,,,,,,,,,,,,,,,,,,,,,,,,34,aviso,,,,,331.875,333.023,1,1,0.6041,,0,53,53,33,1,REAL,FAKE,,,,,,,,,,,,,,,,,
,,,,,,,,,5589be79fdf99b18be320155,Spanish,13 or older,"no, only English or Spanish",no,2025-07-24_10h48.53.583,empathy_intonation_perc_control,2024.2.4,Win32,60.24096386,5589be79fdf99b18be320155,68817205a84113384fffdfe3,688247b1ef3a9eaddaecc038,,,,,,,,,,,,,1,,,,,,,,,,,,,,,,,,,,,,,,,,,,,,,,,,,,,6,tergiversar,,,,,333.0259,334.4228,0,0,0.8514,,0,54,54,5,1,REAL,FAKE,,,,,,,,,,,,,,,,,
,,,,,,,,,5589be79fdf99b18be320155,Spanish,13 or older,"no, only English or Spanish",no,2025-07-24_10h48.53.583,empathy_intonation_perc_control,2024.2.4,Win32,60.24096386,5589be79fdf99b18be320155,68817205a84113384fffdfe3,688247b1ef3a9eaddaecc038,,,,,,,,,,,,,1,,,,,,,,,,,,,,,,,,,,,,,,,,,,,,,,,,,,,41,rebuscar,,,,,334.4252,335.8228,1,1,0.8546,,0,55,55,40,1,REAL,FAKE,,,,,,,,,,,,,,,,,
,,,,,,,,,5589be79fdf99b18be320155,Spanish,13 or older,"no, only English or Spanish",no,2025-07-24_10h48.53.583,empathy_intonation_perc_control,2024.2.4,Win32,60.24096386,5589be79fdf99b18be320155,68817205a84113384fffdfe3,688247b1ef3a9eaddaecc038,,,,,,,,,,,,,1,,,,,,,,,,,,,,,,,,,,,,,,,,,,,,,,,,,,,73,hervidor,,,,,335.8256,337.5227,0,0,1.1508,,0,56,56,72,1,REAL,FAKE,,,,,,,,,,,,,,,,,
,,,,,,,,,5589be79fdf99b18be320155,Spanish,13 or older,"no, only English or Spanish",no,2025-07-24_10h48.53.583,empathy_intonation_perc_control,2024.2.4,Win32,60.24096386,5589be79fdf99b18be320155,68817205a84113384fffdfe3,688247b1ef3a9eaddaecc038,,,,,,,,,,,,,1,,,,,,,,,,,,,,,,,,,,,,,,,,,,,,,,,,,,,81,pozo,,,,,337.5253,338.7569,0,0,0.6841,,0,57,57,80,1,REAL,FAKE,,,,,,,,,,,,,,,,,
,,,,,,,,,5589be79fdf99b18be320155,Spanish,13 or older,"no, only English or Spanish",no,2025-07-24_10h48.53.583,empathy_intonation_perc_control,2024.2.4,Win32,60.24096386,5589be79fdf99b18be320155,68817205a84113384fffdfe3,688247b1ef3a9eaddaecc038,,,,,,,,,,,,,1,,,,,,,,,,,,,,,,,,,,,,,,,,,,,,,,,,,,,31,pandilla,,,,,338.7598,340.1906,0,0,0.8841,,0,58,58,30,1,REAL,FAKE,,,,,,,,,,,,,,,,,
,,,,,,,,,5589be79fdf99b18be320155,Spanish,13 or older,"no, only English or Spanish",no,2025-07-24_10h48.53.583,empathy_intonation_perc_control,2024.2.4,Win32,60.24096386,5589be79fdf99b18be320155,68817205a84113384fffdfe3,688247b1ef3a9eaddaecc038,,,,,,,,,,,,,1,,,,,,,,,,,,,,,,,,,,,,,,,,,,,,,,,,,,,49,ganar,,,,,340.1933,341.9272,1,1,1.1942,,0,59,59,48,1,REAL,FAKE,,,,,,,,,,,,,,,,,
,,,,,,,,,5589be79fdf99b18be320155,Spanish,13 or older,"no, only English or Spanish",no,2025-07-24_10h48.53.583,empathy_intonation_perc_control,2024.2.4,Win32,60.24096386,5589be79fdf99b18be320155,68817205a84113384fffdfe3,688247b1ef3a9eaddaecc038,,,,,,,,,,,,,0,,,,,,,,,,,,,,,,,,,,,,,,,,,,,,,,,,,,,70,temblo,,,,,341.9283,343.6401,0,1,1.1685,,0,60,60,69,1,REAL,FAKE,,,,,,,,,,,,,,,,,
,,,,,,,,,5589be79fdf99b18be320155,Spanish,13 or older,"no, only English or Spanish",no,2025-07-24_10h48.53.583,empathy_intonation_perc_control,2024.2.4,Win32,60.24096386,5589be79fdf99b18be320155,68817205a84113384fffdfe3,688247b1ef3a9eaddaecc038,,,,,,,,,,,,,1,,,,,,,,,,,,,,,,,,,,,,,,,,,,,,,,,,,,,22,lacayo,,,,,343.6425,344.8515,0,0,0.6679,,0,61,61,21,1,REAL,FAKE,,,,,,,,,,,,,,,,,
,,,,,,,,,5589be79fdf99b18be320155,Spanish,13 or older,"no, only English or Spanish",no,2025-07-24_10h48.53.583,empathy_intonation_perc_control,2024.2.4,Win32,60.24096386,5589be79fdf99b18be320155,68817205a84113384fffdfe3,688247b1ef3a9eaddaecc038,,,,,,,,,,,,,1,,,,,,,,,,,,,,,,,,,,,,,,,,,,,,,,,,,,,67,cabello,,,,,344.8537,345.9386,1,1,0.5534,,0,62,62,66,1,REAL,FAKE,,,,,,,,,,,,,,,,,
,,,,,,,,,5589be79fdf99b18be320155,Spanish,13 or older,"no, only English or Spanish",no,2025-07-24_10h48.53.583,empathy_intonation_perc_control,2024.2.4,Win32,60.24096386,5589be79fdf99b18be320155,68817205a84113384fffdfe3,688247b1ef3a9eaddaecc038,,,,,,,,,,,,,1,,,,,,,,,,,,,,,,,,,,,,,,,,,,,,,,,,,,,48,ladrón,,,,,345.9399,347.1723,0,0,0.6842,,0,63,63,47,1,REAL,FAKE,,,,,,,,,,,,,,,,,
,,,,,,,,,5589be79fdf99b18be320155,Spanish,13 or older,"no, only English or Spanish",no,2025-07-24_10h48.53.583,empathy_intonation_perc_control,2024.2.4,Win32,60.24096386,5589be79fdf99b18be320155,68817205a84113384fffdfe3,688247b1ef3a9eaddaecc038,,,,,,,,,,,,,0,,,,,,,,,,,,,,,,,,,,,,,,,,,,,,,,,,,,,21,capillo,,,,,347.1736,348.406,1,0,0.6842,,0,64,64,20,1,REAL,FAKE,,,,,,,,,,,,,,,,,
,,,,,,,,,5589be79fdf99b18be320155,Spanish,13 or older,"no, only English or Spanish",no,2025-07-24_10h48.53.583,empathy_intonation_perc_control,2024.2.4,Win32,60.24096386,5589be79fdf99b18be320155,68817205a84113384fffdfe3,688247b1ef3a9eaddaecc038,,,,,,,,,,,,,0,,,,,,,,,,,,,,,,,,,,,,,,,,,,,,,,,,,,,18,arsa,,,,,348.4081,349.5507,0,1,0.6012,,0,65,65,17,1,REAL,FAKE,,,,,,,,,,,,,,,,,
,,,,,,,,,5589be79fdf99b18be320155,Spanish,13 or older,"no, only English or Spanish",no,2025-07-24_10h48.53.583,empathy_intonation_perc_control,2024.2.4,Win32,60.24096386,5589be79fdf99b18be320155,68817205a84113384fffdfe3,688247b1ef3a9eaddaecc038,,,,,,,,,,,,,0,,,,,,,,,,,,,,,,,,,,,,,,,,,,,,,,,,,,,17,floroso,,,,,349.553,351.0889,1,0,1.0044,,0,66,66,16,1,REAL,FAKE,,,,,,,,,,,,,,,,,
,,,,,,,,,5589be79fdf99b18be320155,Spanish,13 or older,"no, only English or Spanish",no,2025-07-24_10h48.53.583,empathy_intonation_perc_control,2024.2.4,Win32,60.24096386,5589be79fdf99b18be320155,68817205a84113384fffdfe3,688247b1ef3a9eaddaecc038,,,,,,,,,,,,,0,,,,,,,,,,,,,,,,,,,,,,,,,,,,,,,,,,,,,66,hacido,,,,,351.0916,352.4719,1,0,0.8384,,0,67,67,65,1,REAL,FAKE,,,,,,,,,,,,,,,,,
,,,,,,,,,5589be79fdf99b18be320155,Spanish,13 or older,"no, only English or Spanish",no,2025-07-24_10h48.53.583,empathy_intonation_perc_control,2024.2.4,Win32,60.24096386,5589be79fdf99b18be320155,68817205a84113384fffdfe3,688247b1ef3a9eaddaecc038,,,,,,,,,,,,,1,,,,,,,,,,,,,,,,,,,,,,,,,,,,,,,,,,,,,56,musgo,,,,,352.4745,353.6052,0,0,0.5845,,0,68,68,55,1,REAL,FAKE,,,,,,,,,,,,,,,,,
,,,,,,,,,5589be79fdf99b18be320155,Spanish,13 or older,"no, only English or Spanish",no,2025-07-24_10h48.53.583,empathy_intonation_perc_control,2024.2.4,Win32,60.24096386,5589be79fdf99b18be320155,68817205a84113384fffdfe3,688247b1ef3a9eaddaecc038,,,,,,,,,,,,,0,,,,,,,,,,,,,,,,,,,,,,,,,,,,,,,,,,,,,84,escuto,,,,,353.6077,354.7066,0,1,0.5577,,0,69,69,83,1,REAL,FAKE,,,,,,,,,,,,,,,,,
,,,,,,,,,5589be79fdf99b18be320155,Spanish,13 or older,"no, only English or Spanish",no,2025-07-24_10h48.53.583,empathy_intonation_perc_control,2024.2.4,Win32,60.24096386,5589be79fdf99b18be320155,68817205a84113384fffdfe3,688247b1ef3a9eaddaecc038,,,,,,,,,,,,,1,,,,,,,,,,,,,,,,,,,,,,,,,,,,,,,,,,,,,71,polvoriento,,,,,354.7091,355.9406,0,0,0.6914,,0,70,70,70,1,REAL,FAKE,,,,,,,,,,,,,,,,,
,,,,,,,,,5589be79fdf99b18be320155,Spanish,13 or older,"no, only English or Spanish",no,2025-07-24_10h48.53.583,empathy_intonation_perc_control,2024.2.4,Win32,60.24096386,5589be79fdf99b18be320155,68817205a84113384fffdfe3,688247b1ef3a9eaddaecc038,,,,,,,,,,,,,1,,,,,,,,,,,,,,,,,,,,,,,,,,,,,,,,,,,,,88,acantilado,,,,,355.9429,357.4382,0,0,0.9522,,0,71,71,87,1,REAL,FAKE,,,,,,,,,,,,,,,,,
,,,,,,,,,5589be79fdf99b18be320155,Spanish,13 or older,"no, only English or Spanish",no,2025-07-24_10h48.53.583,empathy_intonation_perc_control,2024.2.4,Win32,60.24096386,5589be79fdf99b18be320155,68817205a84113384fffdfe3,688247b1ef3a9eaddaecc038,,,,,,,,,,,,,1,,,,,,,,,,,,,,,,,,,,,,,,,,,,,,,,,,,,,13,helar,,,,,357.4409,358.7752,0,0,0.7926,,0,72,72,12,1,REAL,FAKE,,,,,,,,,,,,,,,,,
,,,,,,,,,5589be79fdf99b18be320155,Spanish,13 or older,"no, only English or Spanish",no,2025-07-24_10h48.53.583,empathy_intonation_perc_control,2024.2.4,Win32,60.24096386,5589be79fdf99b18be320155,68817205a84113384fffdfe3,688247b1ef3a9eaddaecc038,,,,,,,,,,,,,0,,,,,,,,,,,,,,,,,,,,,,,,,,,,,,,,,,,,,63,esposante,,,,,358.7773,360.5882,1,0,1.2685,,0,73,73,62,1,REAL,FAKE,,,,,,,,,,,,,,,,,
,,,,,,,,,5589be79fdf99b18be320155,Spanish,13 or older,"no, only English or Spanish",no,2025-07-24_10h48.53.583,empathy_intonation_perc_control,2024.2.4,Win32,60.24096386,5589be79fdf99b18be320155,68817205a84113384fffdfe3,688247b1ef3a9eaddaecc038,,,,,,,,,,,,,1,,,,,,,,,,,,,,,,,,,,,,,,,,,,,,,,,,,,,36,loro,,,,,360.5904,361.9383,1,1,0.818,,0,74,74,35,1,REAL,FAKE,,,,,,,,,,,,,,,,,
,,,,,,,,,5589be79fdf99b18be320155,Spanish,13 or older,"no, only English or Spanish",no,2025-07-24_10h48.53.583,empathy_intonation_perc_control,2024.2.4,Win32,60.24096386,5589be79fdf99b18be320155,68817205a84113384fffdfe3,688247b1ef3a9eaddaecc038,,,,,,,,,,,,,1,,,,,,,,,,,,,,,,,,,,,,,,,,,,,,,,,,,,,68,alegre,,,,,361.9407,363.2718,1,1,0.7835,,0,75,75,67,1,REAL,FAKE,,,,,,,,,,,,,,,,,
,,,,,,,,,5589be79fdf99b18be320155,Spanish,13 or older,"no, only English or Spanish",no,2025-07-24_10h48.53.583,empathy_intonation_perc_control,2024.2.4,Win32,60.24096386,5589be79fdf99b18be320155,68817205a84113384fffdfe3,688247b1ef3a9eaddaecc038,,,,,,,,,,,,,1,,,,,,,,,,,,,,,,,,,,,,,,,,,,,,,,,,,,,59,besar,,,,,363.273,364.578,1,1,0.7634,,0,76,76,58,1,REAL,FAKE,,,,,,,,,,,,,,,,,
,,,,,,,,,5589be79fdf99b18be320155,Spanish,13 or older,"no, only English or Spanish",no,2025-07-24_10h48.53.583,empathy_intonation_perc_control,2024.2.4,Win32,60.24096386,5589be79fdf99b18be320155,68817205a84113384fffdfe3,688247b1ef3a9eaddaecc038,,,,,,,,,,,,,0,,,,,,,,,,,,,,,,,,,,,,,,,,,,,,,,,,,,,50,flamida,,,,,364.5794,365.9546,0,1,0.84,,0,77,77,49,1,REAL,FAKE,,,,,,,,,,,,,,,,,
,,,,,,,,,5589be79fdf99b18be320155,Spanish,13 or older,"no, only English or Spanish",no,2025-07-24_10h48.53.583,empathy_intonation_perc_control,2024.2.4,Win32,60.24096386,5589be79fdf99b18be320155,68817205a84113384fffdfe3,688247b1ef3a9eaddaecc038,,,,,,,,,,,,,1,,,,,,,,,,,,,,,,,,,,,,,,,,,,,,,,,,,,,12,asesinato,,,,,365.9559,367.8543,0,0,1.3533,,0,78,78,11,1,REAL,FAKE,,,,,,,,,,,,,,,,,
,,,,,,,,,5589be79fdf99b18be320155,Spanish,13 or older,"no, only English or Spanish",no,2025-07-24_10h48.53.583,empathy_intonation_perc_control,2024.2.4,Win32,60.24096386,5589be79fdf99b18be320155,68817205a84113384fffdfe3,688247b1ef3a9eaddaecc038,,,,,,,,,,,,,1,,,,,,,,,,,,,,,,,,,,,,,,,,,,,,,,,,,,,11,cenefa,,,,,367.8571,369.0542,0,0,0.6518,,0,79,79,10,1,REAL,FAKE,,,,,,,,,,,,,,,,,
,,,,,,,,,5589be79fdf99b18be320155,Spanish,13 or older,"no, only English or Spanish",no,2025-07-24_10h48.53.583,empathy_intonation_perc_control,2024.2.4,Win32,60.24096386,5589be79fdf99b18be320155,68817205a84113384fffdfe3,688247b1ef3a9eaddaecc038,,,,,,,,,,,,,1,,,,,,,,,,,,,,,,,,,,,,,,,,,,,,,,,,,,,2,pellizcar,,,,,369.0568,370.2876,0,0,0.6856,,0,80,80,1,1,REAL,FAKE,,,,,,,,,,,,,,,,,
,,,,,,,,,5589be79fdf99b18be320155,Spanish,13 or older,"no, only English or Spanish",no,2025-07-24_10h48.53.583,empathy_intonation_perc_control,2024.2.4,Win32,60.24096386,5589be79fdf99b18be320155,68817205a84113384fffdfe3,688247b1ef3a9eaddaecc038,,,,,,,,,,,,,1,,,,,,,,,,,,,,,,,,,,,,,,,,,,,,,,,,,,,44,cuchara,,,,,370.2904,371.5543,1,1,0.7177,,0,81,81,43,1,REAL,FAKE,,,,,,,,,,,,,,,,,
,,,,,,,,,5589be79fdf99b18be320155,Spanish,13 or older,"no, only English or Spanish",no,2025-07-24_10h48.53.583,empathy_intonation_perc_control,2024.2.4,Win32,60.24096386,5589be79fdf99b18be320155,68817205a84113384fffdfe3,688247b1ef3a9eaddaecc038,,,,,,,,,,,,,0,,,,,,,,,,,,,,,,,,,,,,,,,,,,,,,,,,,,,23,lampera,,,,,371.557,373.104,1,0,1.0041,,0,82,82,22,1,REAL,FAKE,,,,,,,,,,,,,,,,,
,,,,,,,,,5589be79fdf99b18be320155,Spanish,13 or older,"no, only English or Spanish",no,2025-07-24_10h48.53.583,empathy_intonation_perc_control,2024.2.4,Win32,60.24096386,5589be79fdf99b18be320155,68817205a84113384fffdfe3,688247b1ef3a9eaddaecc038,,,,,,,,,,,,,0,,,,,,,,,,,,,,,,,,,,,,,,,,,,,,,,,,,,,72,pemición,,,,,373.1066,374.2873,0,1,0.6347,,0,83,83,71,1,REAL,FAKE,,,,,,,,,,,,,,,,,
,,,,,,,,,5589be79fdf99b18be320155,Spanish,13 or older,"no, only English or Spanish",no,2025-07-24_10h48.53.583,empathy_intonation_perc_control,2024.2.4,Win32,60.24096386,5589be79fdf99b18be320155,68817205a84113384fffdfe3,688247b1ef3a9eaddaecc038,,,,,,,,,,,,,0,,,,,,,,,,,,,,,,,,,,,,,,,,,,,,,,,,,,,58,plaudir,,,,,374.2898,375.5706,0,1,0.7349,,0,84,84,57,1,REAL,FAKE,,,,,,,,,,,,,,,,,
,,,,,,,,,5589be79fdf99b18be320155,Spanish,13 or older,"no, only English or Spanish",no,2025-07-24_10h48.53.583,empathy_intonation_perc_control,2024.2.4,Win32,60.24096386,5589be79fdf99b18be320155,68817205a84113384fffdfe3,688247b1ef3a9eaddaecc038,,,,,,,,,,,,,1,,,,,,,,,,,,,,,,,,,,,,,,,,,,,,,,,,,,,45,jilguero,,,,,375.5733,376.8543,0,0,0.7352,,0,85,85,44,1,REAL,FAKE,,,,,,,,,,,,,,,,,
,,,,,,,,,5589be79fdf99b18be320155,Spanish,13 or older,"no, only English or Spanish",no,2025-07-24_10h48.53.583,empathy_intonation_perc_control,2024.2.4,Win32,60.24096386,5589be79fdf99b18be320155,68817205a84113384fffdfe3,688247b1ef3a9eaddaecc038,,,,,,,,,,,,,0,,,,,,,,,,,,,,,,,,,,,,,,,,,,,,,,,,,,,82,empirador,,,,,376.8575,378.7208,1,0,1.3172,,0,86,86,81,1,REAL,FAKE,,,,,,,,,,,,,,,,,
,,,,,,,,,5589be79fdf99b18be320155,Spanish,13 or older,"no, only English or Spanish",no,2025-07-24_10h48.53.583,empathy_intonation_perc_control,2024.2.4,Win32,60.24096386,5589be79fdf99b18be320155,68817205a84113384fffdfe3,688247b1ef3a9eaddaecc038,,,,,,,,,,,,,1,,,,,,,,,,,,,,,,,,,,,,,,,,,,,,,,,,,,,39,torpe,,,,,378.722,380.0123,1,1,0.7478,,0,87,87,38,1,REAL,FAKE,,,,,,,,,,,,,,,,,
,,,,,,,,,5589be79fdf99b18be320155,Spanish,13 or older,"no, only English or Spanish",no,2025-07-24_10h48.53.583,empathy_intonation_perc_control,2024.2.4,Win32,60.24096386,5589be79fdf99b18be320155,68817205a84113384fffdfe3,688247b1ef3a9eaddaecc038,,,,,,,,,,,,,0,,,,,,,,,,,,,,,,,,,,,,,,,,,,,,,,,,,,,32,fatacidad,,,,,380.0147,381.2453,0,1,0.6977,,0,88,88,31,1,REAL,FAKE,,,,,,,,,,,,,,,,,
,,,,,,,,,5589be79fdf99b18be320155,Spanish,13 or older,"no, only English or Spanish",no,2025-07-24_10h48.53.583,empathy_intonation_perc_control,2024.2.4,Win32,60.24096386,5589be79fdf99b18be320155,68817205a84113384fffdfe3,688247b1ef3a9eaddaecc038,,,,,,,,,,,,,1,,,,,,,,,,,,,,,,,,,,,,,,,,,,,,,,,,,,,43,canela,,,,,381.2479,382.5535,0,0,0.7679,,0,89,89,42,1,REAL,FAKE,,,,,,,,,,,,,,,,,
,,,,,,,,,5589be79fdf99b18be320155,Spanish,13 or older,"no, only English or Spanish",no,2025-07-24_10h48.53.583,empathy_intonation_perc_control,2024.2.4,Win32,60.24096386,5589be79fdf99b18be320155,68817205a84113384fffdfe3,688247b1ef3a9eaddaecc038,,,,,,,,,,,,,0,,,,,,,,,,,,,,,,,,,,,,,,,,,,,,,,,,,,,87,grodo,,,,,382.5563,383.7709,0,1,0.6683,,0,90,90,86,1,REAL,FAKE,,,,,,,,,,,,,,,,,
,,,,,,,,,5589be79fdf99b18be320155,Spanish,13 or older,"no, only English or Spanish",no,2025-07-24_10h48.53.583,empathy_intonation_perc_control,2024.2.4,Win32,60.24096386,5589be79fdf99b18be320155,68817205a84113384fffdfe3,688247b1ef3a9eaddaecc038,,,,,,,,,,,,,1,,,,,,,,,,,,,,,,,,,,,,,,,,,,,,,,,,,,,20,ávido,,,,,383.7733,385.0871,1,1,0.7672,,0,91,91,19,1,REAL,FAKE,,,,,,,,,,,,,,,,,
,,,,,,,,,5589be79fdf99b18be320155,Spanish,13 or older,"no, only English or Spanish",no,2025-07-24_10h48.53.583,empathy_intonation_perc_control,2024.2.4,Win32,60.24096386,5589be79fdf99b18be320155,68817205a84113384fffdfe3,688247b1ef3a9eaddaecc038,,,,,,,,,,,,,,,,,,,,,,,,,,,,,,,,,,,,,,,,,,,,,,,,,,,,,,,,,,,,,,,,,,,,,385.0877,389.2541,,,,,,,,,,,,,,,
,,,,,,,,,5589be79fdf99b18be320155,Spanish,13 or older,"no, only English or Spanish",no,2025-07-24_10h48.53.583,empathy_intonation_perc_control,2024.2.4,Win32,60.24096386,5589be79fdf99b18be320155,68817205a84113384fffdfe3,688247b1ef3a9eaddaecc038,,,,,,,,,,,,,,,,,,,,,,,,,,,1,,,,,,,,,,,,,,,,,,,,,,,,,,,,,,,,,,,,,,,,,,,,389.2798,393.6201,strongly agree,0,0,0,0,1,I can easily tell if someone else wants to enter a conversation.,1,0,1,0,,
,,,,,,,,,5589be79fdf99b18be320155,Spanish,13 or older,"no, only English or Spanish",no,2025-07-24_10h48.53.583,empathy_intonation_perc_control,2024.2.4,Win32,60.24096386,5589be79fdf99b18be320155,68817205a84113384fffdfe3,688247b1ef3a9eaddaecc038,,,,,,,,,,,,,,,,,,,,,,,,,,,2,,,,,,,,,,,,,,,,,,,,,,,,,,,,,,,,,,,,,,,,,,,,393.6227,395.4638,slightly agree,0,1,1,1,1,I prefer animals to humans.,0,1,0,0,,
,,,,,,,,,5589be79fdf99b18be320155,Spanish,13 or older,"no, only English or Spanish",no,2025-07-24_10h48.53.583,empathy_intonation_perc_control,2024.2.4,Win32,60.24096386,5589be79fdf99b18be320155,68817205a84113384fffdfe3,688247b1ef3a9eaddaecc038,,,,,,,,,,,,,,,,,,,,,,,,,,,3,,,,,,,,,,,,,,,,,,,,,,,,,,,,,,,,,,,,,,,,,,,,395.4677,397.0879,slightly disagree,0,2,2,2,1,I try to keep up with the current trends and fashions.,0,1,0,0,,
,,,,,,,,,5589be79fdf99b18be320155,Spanish,13 or older,"no, only English or Spanish",no,2025-07-24_10h48.53.583,empathy_intonation_perc_control,2024.2.4,Win32,60.24096386,5589be79fdf99b18be320155,68817205a84113384fffdfe3,688247b1ef3a9eaddaecc038,,,,,,,,,,,,,,,,,,,,,,,,,,,4,,,,,,,,,,,,,,,,,,,,,,,,,,,,,,,,,,,,,,,,,,,,397.0914,401.7691,strongly disagree,0,3,3,3,1,"I find it difficult to explain to others things that I understand easily,   when they don't understand it first time.",1,0,0,1,,
,,,,,,,,,5589be79fdf99b18be320155,Spanish,13 or older,"no, only English or Spanish",no,2025-07-24_10h48.53.583,empathy_intonation_perc_control,2024.2.4,Win32,60.24096386,5589be79fdf99b18be320155,68817205a84113384fffdfe3,688247b1ef3a9eaddaecc038,,,,,,,,,,,,,,,,,,,,,,,,,,,5,,,,,,,,,,,,,,,,,,,,,,,,,,,,,,,,,,,,,,,,,,,,401.7724,403.5269,slightly agree,0,4,4,4,1,I dream most nights.,0,1,0,0,,
,,,,,,,,,5589be79fdf99b18be320155,Spanish,13 or older,"no, only English or Spanish",no,2025-07-24_10h48.53.583,empathy_intonation_perc_control,2024.2.4,Win32,60.24096386,5589be79fdf99b18be320155,68817205a84113384fffdfe3,688247b1ef3a9eaddaecc038,,,,,,,,,,,,,,,,,,,,,,,,,,,6,,,,,,,,,,,,,,,,,,,,,,,,,,,,,,,,,,,,,,,,,,,,403.53,405.9599,slightly agree,0,5,5,5,1,I really enjoy caring for other people.,1,0,1,0,,
,,,,,,,,,5589be79fdf99b18be320155,Spanish,13 or older,"no, only English or Spanish",no,2025-07-24_10h48.53.583,empathy_intonation_perc_control,2024.2.4,Win32,60.24096386,5589be79fdf99b18be320155,68817205a84113384fffdfe3,688247b1ef3a9eaddaecc038,,,,,,,,,,,,,,,,,,,,,,,,,,,7,,,,,,,,,,,,,,,,,,,,,,,,,,,,,,,,,,,,,,,,,,,,405.9628,408.6311,slightly disagree,0,6,6,6,1,I try to solve my own problems rather than discussing them with others.,0,1,0,0,,
,,,,,,,,,5589be79fdf99b18be320155,Spanish,13 or older,"no, only English or Spanish",no,2025-07-24_10h48.53.583,empathy_intonation_perc_control,2024.2.4,Win32,60.24096386,5589be79fdf99b18be320155,68817205a84113384fffdfe3,688247b1ef3a9eaddaecc038,,,,,,,,,,,,,,,,,,,,,,,,,,,8,,,,,,,,,,,,,,,,,,,,,,,,,,,,,,,,,,,,,,,,,,,,408.634,410.5313,slightly agree,0,7,7,7,1,I find it hard to know what to do in a social situation.,1,0,0,1,,
,,,,,,,,,5589be79fdf99b18be320155,Spanish,13 or older,"no, only English or Spanish",no,2025-07-24_10h48.53.583,empathy_intonation_perc_control,2024.2.4,Win32,60.24096386,5589be79fdf99b18be320155,68817205a84113384fffdfe3,688247b1ef3a9eaddaecc038,,,,,,,,,,,,,,,,,,,,,,,,,,,9,,,,,,,,,,,,,,,,,,,,,,,,,,,,,,,,,,,,,,,,,,,,410.5339,410.7524,slightly agree,0,8,8,8,1,I am at my best first thing in the morning.,0,1,0,0,,
,,,,,,,,,5589be79fdf99b18be320155,Spanish,13 or older,"no, only English or Spanish",no,2025-07-24_10h48.53.583,empathy_intonation_perc_control,2024.2.4,Win32,60.24096386,5589be79fdf99b18be320155,68817205a84113384fffdfe3,688247b1ef3a9eaddaecc038,,,,,,,,,,,,,,,,,,,,,,,,,,,10,,,,,,,,,,,,,,,,,,,,,,,,,,,,,,,,,,,,,,,,,,,,410.7567,413.2642,strongly disagree,0,9,9,9,1,People often tell me that I went too far in driving my point home in a discussion.,1,0,0,1,,
,,,,,,,,,5589be79fdf99b18be320155,Spanish,13 or older,"no, only English or Spanish",no,2025-07-24_10h48.53.583,empathy_intonation_perc_control,2024.2.4,Win32,60.24096386,5589be79fdf99b18be320155,68817205a84113384fffdfe3,688247b1ef3a9eaddaecc038,,,,,,,,,,,,,,,,,,,,,,,,,,,11,,,,,,,,,,,,,,,,,,,,,,,,,,,,,,,,,,,,,,,,,,,,413.267,414.9805,strongly disagree,0,10,10,10,1,It doesn't bother me too much if I am late meeting a friend.,1,0,0,1,,
,,,,,,,,,5589be79fdf99b18be320155,Spanish,13 or older,"no, only English or Spanish",no,2025-07-24_10h48.53.583,empathy_intonation_perc_control,2024.2.4,Win32,60.24096386,5589be79fdf99b18be320155,68817205a84113384fffdfe3,688247b1ef3a9eaddaecc038,,,,,,,,,,,,,,,,,,,,,,,,,,,12,,,,,,,,,,,,,,,,,,,,,,,,,,,,,,,,,,,,,,,,,,,,414.9844,416.7022,strongly disagree,0,11,11,11,1,"Friendships and relationships are just too difficult, so I tend not to 
  bother with them.",1,0,0,1,,
,,,,,,,,,5589be79fdf99b18be320155,Spanish,13 or older,"no, only English or Spanish",no,2025-07-24_10h48.53.583,empathy_intonation_perc_control,2024.2.4,Win32,60.24096386,5589be79fdf99b18be320155,68817205a84113384fffdfe3,688247b1ef3a9eaddaecc038,,,,,,,,,,,,,,,,,,,,,,,,,,,13,,,,,,,,,,,,,,,,,,,,,,,,,,,,,,,,,,,,,,,,,,,,416.7056,418.8514,slightly agree,0,12,12,12,1,"I would never break a law, no matter how minor.",0,1,0,0,,
,,,,,,,,,5589be79fdf99b18be320155,Spanish,13 or older,"no, only English or Spanish",no,2025-07-24_10h48.53.583,empathy_intonation_perc_control,2024.2.4,Win32,60.24096386,5589be79fdf99b18be320155,68817205a84113384fffdfe3,688247b1ef3a9eaddaecc038,,,,,,,,,,,,,,,,,,,,,,,,,,,14,,,,,,,,,,,,,,,,,,,,,,,,,,,,,,,,,,,,,,,,,,,,418.855,422.8434,slightly disagree,0,13,13,13,1,I often find it difficult to judge if something is rude or polite.,1,0,0,1,,
,,,,,,,,,5589be79fdf99b18be320155,Spanish,13 or older,"no, only English or Spanish",no,2025-07-24_10h48.53.583,empathy_intonation_perc_control,2024.2.4,Win32,60.24096386,5589be79fdf99b18be320155,68817205a84113384fffdfe3,688247b1ef3a9eaddaecc038,,,,,,,,,,,,,,,,,,,,,,,,,,,15,,,,,,,,,,,,,,,,,,,,,,,,,,,,,,,,,,,,,,,,,,,,422.8459,425.6405,strongly disagree,0,14,14,14,1,"In a conversation, I tend to focus on my own thoughts rather than on what 
  my listener might be thinking.",1,0,0,1,,
,,,,,,,,,5589be79fdf99b18be320155,Spanish,13 or older,"no, only English or Spanish",no,2025-07-24_10h48.53.583,empathy_intonation_perc_control,2024.2.4,Win32,60.24096386,5589be79fdf99b18be320155,68817205a84113384fffdfe3,688247b1ef3a9eaddaecc038,,,,,,,,,,,,,,,,,,,,,,,,,,,16,,,,,,,,,,,,,,,,,,,,,,,,,,,,,,,,,,,,,,,,,,,,425.6438,428.5296,strongly disagree,0,15,15,15,1,I prefer practical jokes to verbal humor.,0,1,0,0,,
,,,,,,,,,5589be79fdf99b18be320155,Spanish,13 or older,"no, only English or Spanish",no,2025-07-24_10h48.53.583,empathy_intonation_perc_control,2024.2.4,Win32,60.24096386,5589be79fdf99b18be320155,68817205a84113384fffdfe3,688247b1ef3a9eaddaecc038,,,,,,,,,,,,,,,,,,,,,,,,,,,17,,,,,,,,,,,,,,,,,,,,,,,,,,,,,,,,,,,,,,,,,,,,428.5322,430.5512,slightly disagree,0,16,16,16,1,I live life for today rather than the future.,0,1,0,0,,
,,,,,,,,,5589be79fdf99b18be320155,Spanish,13 or older,"no, only English or Spanish",no,2025-07-24_10h48.53.583,empathy_intonation_perc_control,2024.2.4,Win32,60.24096386,5589be79fdf99b18be320155,68817205a84113384fffdfe3,688247b1ef3a9eaddaecc038,,,,,,,,,,,,,,,,,,,,,,,,,,,18,,,,,,,,,,,,,,,,,,,,,,,,,,,,,,,,,,,,,,,,,,,,430.5557,433.1849,strongly disagree,0,17,17,17,1,"When I was a child, I enjoyed cutting up worms to see what would happen.",1,0,0,1,,
,,,,,,,,,5589be79fdf99b18be320155,Spanish,13 or older,"no, only English or Spanish",no,2025-07-24_10h48.53.583,empathy_intonation_perc_control,2024.2.4,Win32,60.24096386,5589be79fdf99b18be320155,68817205a84113384fffdfe3,688247b1ef3a9eaddaecc038,,,,,,,,,,,,,,,,,,,,,,,,,,,19,,,,,,,,,,,,,,,,,,,,,,,,,,,,,,,,,,,,,,,,,,,,433.1881,435.263,slightly agree,0,18,18,18,1,I can pick up quickly if someone says one thing but means another.,1,0,1,0,,
,,,,,,,,,5589be79fdf99b18be320155,Spanish,13 or older,"no, only English or Spanish",no,2025-07-24_10h48.53.583,empathy_intonation_perc_control,2024.2.4,Win32,60.24096386,5589be79fdf99b18be320155,68817205a84113384fffdfe3,688247b1ef3a9eaddaecc038,,,,,,,,,,,,,,,,,,,,,,,,,,,20,,,,,,,,,,,,,,,,,,,,,,,,,,,,,,,,,,,,,,,,,,,,435.2673,436.8505,slightly agree,0,19,19,19,1,I tend to have very strong opinions about morality.,0,1,0,0,,
,,,,,,,,,5589be79fdf99b18be320155,Spanish,13 or older,"no, only English or Spanish",no,2025-07-24_10h48.53.583,empathy_intonation_perc_control,2024.2.4,Win32,60.24096386,5589be79fdf99b18be320155,68817205a84113384fffdfe3,688247b1ef3a9eaddaecc038,,,,,,,,,,,,,,,,,,,,,,,,,,,21,,,,,,,,,,,,,,,,,,,,,,,,,,,,,,,,,,,,,,,,,,,,436.8543,439.1125,strongly disagree,0,20,20,20,1,It is hard for me to see why some things upset people so much.,1,0,0,1,,
,,,,,,,,,5589be79fdf99b18be320155,Spanish,13 or older,"no, only English or Spanish",no,2025-07-24_10h48.53.583,empathy_intonation_perc_control,2024.2.4,Win32,60.24096386,5589be79fdf99b18be320155,68817205a84113384fffdfe3,688247b1ef3a9eaddaecc038,,,,,,,,,,,,,,,,,,,,,,,,,,,22,,,,,,,,,,,,,,,,,,,,,,,,,,,,,,,,,,,,,,,,,,,,439.1153,441.255,slightly agree,0,21,21,21,1,I find it easy to put myself in somebody else's shoes.,1,0,1,0,,
,,,,,,,,,5589be79fdf99b18be320155,Spanish,13 or older,"no, only English or Spanish",no,2025-07-24_10h48.53.583,empathy_intonation_perc_control,2024.2.4,Win32,60.24096386,5589be79fdf99b18be320155,68817205a84113384fffdfe3,688247b1ef3a9eaddaecc038,,,,,,,,,,,,,,,,,,,,,,,,,,,23,,,,,,,,,,,,,,,,,,,,,,,,,,,,,,,,,,,,,,,,,,,,441.2582,443.0508,slightly agree,0,22,22,22,1,I think that good manners are the most important thing a parent can teach their child.,0,1,0,0,,
,,,,,,,,,5589be79fdf99b18be320155,Spanish,13 or older,"no, only English or Spanish",no,2025-07-24_10h48.53.583,empathy_intonation_perc_control,2024.2.4,Win32,60.24096386,5589be79fdf99b18be320155,68817205a84113384fffdfe3,688247b1ef3a9eaddaecc038,,,,,,,,,,,,,,,,,,,,,,,,,,,24,,,,,,,,,,,,,,,,,,,,,,,,,,,,,,,,,,,,,,,,,,,,443.0541,445.2667,slightly disagree,0,23,23,23,1,I like to do things on the spur of the moment.,0,1,0,0,,
,,,,,,,,,5589be79fdf99b18be320155,Spanish,13 or older,"no, only English or Spanish",no,2025-07-24_10h48.53.583,empathy_intonation_perc_control,2024.2.4,Win32,60.24096386,5589be79fdf99b18be320155,68817205a84113384fffdfe3,688247b1ef3a9eaddaecc038,,,,,,,,,,,,,,,,,,,,,,,,,,,25,,,,,,,,,,,,,,,,,,,,,,,,,,,,,,,,,,,,,,,,,,,,445.2685,447.1004,slightly agree,0,24,24,24,1,I am good at predicting how someone will feel.,1,0,1,0,,
