instructions_2afc.started,instructions_2afc.stopped,instructions_2afc_loop.thisRepN,instructions_2afc_loop.thisTrialN,instructions_2afc_loop.thisN,instructions_2afc_loop.thisIndex,instructions_2afc_loop.ran,instructions_text,continue_text,participant_id,"What variety of Spanish are you most familiar with? (e.g., Peruvian, Spanish, Mexican)",At what age did you begin learning Spanish?,Are you proficient in any languages other than English/Spanish?,"Are you familiar with Caribbean (e.g., Caribbean, Puerto Rican) or Galician Spanish?",date,expName,psychopyVersion,OS,frameRate,id,study_id,session,practice_2afc.started,practice_2afc.stopped,key_resp_2afc_practice.keys,key_resp_2afc_practice.corr,key_resp_2afc_practice.rt,key_resp_2afc_practice.duration,trials_2afc_practice_loop.thisRepN,trials_2afc_practice_loop.thisTrialN,trials_2afc_practice_loop.thisN,trials_2afc_practice_loop.thisIndex,trials_2afc_practice_loop.ran,path,correct_response,check_2afc.started,check_2afc.stopped,trial_2afc.started,trial_2afc.stopped,key_resp_2afc_trial.keys,key_resp_2afc_trial.corr,key_resp_2afc_trial.rt,key_resp_2afc_trial.duration,trials_2afc_loop.thisRepN,trials_2afc_loop.thisTrialN,trials_2afc_loop.thisN,trials_2afc_loop.thisIndex,trials_2afc_loop.ran,item_num,target,variety,instructions_lextale.started,instructions_lextale.stopped,instructions_lextale_loop.thisRepN,instructions_lextale_loop.thisTrialN,instructions_lextale_loop.thisN,instructions_lextale_loop.thisIndex,instructions_lextale_loop.ran,practice_lextale.started,practice_lextale.stopped,key_resp_lextale_practice.keys,key_resp_lextale_practice.corr,key_resp_lextale_practice.rt,key_resp_lextale_practice.duration,practice_feedback_lextale.started,practice_feedback_lextale.stopped,trials_lextale_practice_loop.thisRepN,trials_lextale_practice_loop.thisTrialN,trials_lextale_practice_loop.thisN,trials_lextale_practice_loop.thisIndex,trials_lextale_practice_loop.ran,stim,word,prac_button_real,prac_button_false,check_lextale.started,check_lextale.stopped,trial_lextale.started,trial_lextale.stopped,key_resp_lextale_trial.keys,key_resp_lextale_trial.corr,key_resp_lextale_trial.rt,key_resp_lextale_trial.duration,trials_lextale_loop.thisRepN,trials_lextale_loop.thisTrialN,trials_lextale_loop.thisN,trials_lextale_loop.thisIndex,trials_lextale_loop.ran,button_real,button_false,instructions_eq.started,instructions_eq.stopped,trial_eq.started,trial_eq.stopped,slider_eq_trial.response,trials_eq_loop.thisRepN,trials_eq_loop.thisTrialN,trials_eq_loop.thisN,trials_eq_loop.thisIndex,trials_eq_loop.ran,item,is_test_item,is_distractor,is_agree_score,is_disagree_score,end_exp.started,end_exp.stopped
0.014,10.5251,0,0,0,0,1,"In the following task you are going to hear a series of utterances. 

  You will decide if the utterances sound like questions or not using your keyboard.", (press the spacebar to continue),57d940a5995a0b00016350be,U.S school taught Spanish.,13 or older,"no, only English or Spanish",no,2025-07-24_09h58.47.220,empathy_intonation_perc_control,2024.2.4,Win32,59.88023952,57d940a5995a0b00016350be,68817205a84113384fffdfe3,68823b28309112e965833c0f,,,,,,,,,,,,,,,,,,,,,,,,,,,,,,,,,,,,,,,,,,,,,,,,,,,,,,,,,,,,,,,,,,,,,,,,,,,,,,,,,,,,,
10.5254,18.842,0,1,1,1,1,"If you believe the utterance is a question, type '1' (for 'yes') and if you do not 
  believe it is a question type '0' (for 'no').

  Let's practice a bit...", (press the spacebar to continue),57d940a5995a0b00016350be,U.S school taught Spanish.,13 or older,"no, only English or Spanish",no,2025-07-24_09h58.47.220,empathy_intonation_perc_control,2024.2.4,Win32,59.88023952,57d940a5995a0b00016350be,68817205a84113384fffdfe3,68823b28309112e965833c0f,,,,,,,,,,,,,,,,,,,,,,,,,,,,,,,,,,,,,,,,,,,,,,,,,,,,,,,,,,,,,,,,,,,,,,,,,,,,,,,,,,,,,
,,,,,,,,,57d940a5995a0b00016350be,U.S school taught Spanish.,13 or older,"no, only English or Spanish",no,2025-07-24_09h58.47.220,empathy_intonation_perc_control,2024.2.4,Win32,59.88023952,57d940a5995a0b00016350be,68817205a84113384fffdfe3,68823b28309112e965833c0f,18.8482,21.5596,0,1,2.1901,,0,0,0,4,1,./stim/wavs/cuban_statement_filler_Cocinabas-por-la-noche.wav,0,,,,,,,,,,,,,,,,,,,,,,,,,,,,,,,,,,,,,,,,,,,,,,,,,,,,,,,,,,,,,,,,,,,,,,,,
,,,,,,,,,57d940a5995a0b00016350be,U.S school taught Spanish.,13 or older,"no, only English or Spanish",no,2025-07-24_09h58.47.220,empathy_intonation_perc_control,2024.2.4,Win32,59.88023952,57d940a5995a0b00016350be,68817205a84113384fffdfe3,68823b28309112e965833c0f,21.5605,23.8584,1,1,1.771,,0,1,1,3,1,./stim/wavs/mexican_question_filler_Felipe-no-tiene-contrasena.wav,1,,,,,,,,,,,,,,,,,,,,,,,,,,,,,,,,,,,,,,,,,,,,,,,,,,,,,,,,,,,,,,,,,,,,,,,,
,,,,,,,,,57d940a5995a0b00016350be,U.S school taught Spanish.,13 or older,"no, only English or Spanish",no,2025-07-24_09h58.47.220,empathy_intonation_perc_control,2024.2.4,Win32,59.88023952,57d940a5995a0b00016350be,68817205a84113384fffdfe3,68823b28309112e965833c0f,23.8589,26.6092,0,1,2.2227,,0,2,2,6,1,./stim/wavs/peruvian_statement_filler_El-nino-habla-con-su-madre.wav,0,,,,,,,,,,,,,,,,,,,,,,,,,,,,,,,,,,,,,,,,,,,,,,,,,,,,,,,,,,,,,,,,,,,,,,,,
,,,,,,,,,57d940a5995a0b00016350be,U.S school taught Spanish.,13 or older,"no, only English or Spanish",no,2025-07-24_09h58.47.220,empathy_intonation_perc_control,2024.2.4,Win32,59.88023952,57d940a5995a0b00016350be,68817205a84113384fffdfe3,68823b28309112e965833c0f,26.6098,28.7749,1,1,1.6401,,0,3,3,2,1,./stim/wavs/chilean_question_filler_Mi-padre-cantaba-bien.wav,1,,,,,,,,,,,,,,,,,,,,,,,,,,,,,,,,,,,,,,,,,,,,,,,,,,,,,,,,,,,,,,,,,,,,,,,,
,,,,,,,,,57d940a5995a0b00016350be,U.S school taught Spanish.,13 or older,"no, only English or Spanish",no,2025-07-24_09h58.47.220,empathy_intonation_perc_control,2024.2.4,Win32,59.88023952,57d940a5995a0b00016350be,68817205a84113384fffdfe3,68823b28309112e965833c0f,28.7753,32.775,0,1,3.4675,,0,4,4,5,1,./stim/wavs/andalusian_statement_filler_Alberto-nunca-se-afeita.wav,0,,,,,,,,,,,,,,,,,,,,,,,,,,,,,,,,,,,,,,,,,,,,,,,,,,,,,,,,,,,,,,,,,,,,,,,,
,,,,,,,,,57d940a5995a0b00016350be,U.S school taught Spanish.,13 or older,"no, only English or Spanish",no,2025-07-24_09h58.47.220,empathy_intonation_perc_control,2024.2.4,Win32,59.88023952,57d940a5995a0b00016350be,68817205a84113384fffdfe3,68823b28309112e965833c0f,32.7753,34.9916,1,1,1.6843,,0,5,5,1,1,./stim/wavs/argentine_question_filler_Mi-vecino-habla-mucho.wav,1,,,,,,,,,,,,,,,,,,,,,,,,,,,,,,,,,,,,,,,,,,,,,,,,,,,,,,,,,,,,,,,,,,,,,,,,
,,,,,,,,,57d940a5995a0b00016350be,U.S school taught Spanish.,13 or older,"no, only English or Spanish",no,2025-07-24_09h58.47.220,empathy_intonation_perc_control,2024.2.4,Win32,59.88023952,57d940a5995a0b00016350be,68817205a84113384fffdfe3,68823b28309112e965833c0f,34.992,37.525,1,1,2.0014,,0,6,6,0,1,./stim/wavs/castilian_question_filler_Mi-esposo-conoce-al-chico.wav,1,,,,,,,,,,,,,,,,,,,,,,,,,,,,,,,,,,,,,,,,,,,,,,,,,,,,,,,,,,,,,,,,,,,,,,,,
,,,,,,,,,57d940a5995a0b00016350be,U.S school taught Spanish.,13 or older,"no, only English or Spanish",no,2025-07-24_09h58.47.220,empathy_intonation_perc_control,2024.2.4,Win32,59.88023952,57d940a5995a0b00016350be,68817205a84113384fffdfe3,68823b28309112e965833c0f,37.5252,40.0082,0,1,1.9558,,0,7,7,7,1,./stim/wavs/puertorican_statement_filler_La-nina-pinta-con-su-amiga.wav,0,,,,,,,,,,,,,,,,,,,,,,,,,,,,,,,,,,,,,,,,,,,,,,,,,,,,,,,,,,,,,,,,,,,,,,,,
,,,,,,,,,57d940a5995a0b00016350be,U.S school taught Spanish.,13 or older,"no, only English or Spanish",no,2025-07-24_09h58.47.220,empathy_intonation_perc_control,2024.2.4,Win32,59.88023952,57d940a5995a0b00016350be,68817205a84113384fffdfe3,68823b28309112e965833c0f,,,,,,,,,,,,,,40.0084,44.175,,,,,,,,,,,,,,,,,,,,,,,,,,,,,,,,,,,,,,,,,,,,,,,,,,,,,,,,,,,,,,,,,,,,,,
,,,,,,,,,57d940a5995a0b00016350be,U.S school taught Spanish.,13 or older,"no, only English or Spanish",no,2025-07-24_09h58.47.220,empathy_intonation_perc_control,2024.2.4,Win32,59.88023952,57d940a5995a0b00016350be,68817205a84113384fffdfe3,68823b28309112e965833c0f,,,,,,,,,,,,./stim/wavs/cuban_mismatch_interrogative-total-yn_El-hombre-mira-la-luna.wav,1,,,44.1816,46.6583,0,0,1.9494,,0,0,0,29,1,30,1,cuban,,,,,,,,,,,,,,,,,,,,,,,,,,,,,,,,,,,,,,,,,,,,,,,,,,,,,,,,
,,,,,,,,,57d940a5995a0b00016350be,U.S school taught Spanish.,13 or older,"no, only English or Spanish",no,2025-07-24_09h58.47.220,empathy_intonation_perc_control,2024.2.4,Win32,59.88023952,57d940a5995a0b00016350be,68817205a84113384fffdfe3,68823b28309112e965833c0f,,,,,,,,,,,,./stim/wavs/puertorican_mismatch_declarative-broad-focus_La-nina-lava-el-plato.wav,0,,,46.6586,49.1749,0,1,1.9995,,0,1,1,87,1,88,0,puertorican,,,,,,,,,,,,,,,,,,,,,,,,,,,,,,,,,,,,,,,,,,,,,,,,,,,,,,,,
,,,,,,,,,57d940a5995a0b00016350be,U.S school taught Spanish.,13 or older,"no, only English or Spanish",no,2025-07-24_09h58.47.220,empathy_intonation_perc_control,2024.2.4,Win32,59.88023952,57d940a5995a0b00016350be,68817205a84113384fffdfe3,68823b28309112e965833c0f,,,,,,,,,,,,./stim/wavs/castilian_mismatch_declarative-broad-focus_El-nino-oye-el-rio.wav,0,,,49.1752,52.2415,0,1,2.5386,,0,2,2,68,1,69,0,castilian,,,,,,,,,,,,,,,,,,,,,,,,,,,,,,,,,,,,,,,,,,,,,,,,,,,,,,,,
,,,,,,,,,57d940a5995a0b00016350be,U.S school taught Spanish.,13 or older,"no, only English or Spanish",no,2025-07-24_09h58.47.220,empathy_intonation_perc_control,2024.2.4,Win32,59.88023952,57d940a5995a0b00016350be,68817205a84113384fffdfe3,68823b28309112e965833c0f,,,,,,,,,,,,./stim/wavs/puertorican_match_interrogative-total-yn_David-leia-el-libro.wav,1,,,52.2417,55.2592,0,0,2.4854,,0,3,3,20,1,21,1,puertorican,,,,,,,,,,,,,,,,,,,,,,,,,,,,,,,,,,,,,,,,,,,,,,,,,,,,,,,,
,,,,,,,,,57d940a5995a0b00016350be,U.S school taught Spanish.,13 or older,"no, only English or Spanish",no,2025-07-24_09h58.47.220,empathy_intonation_perc_control,2024.2.4,Win32,59.88023952,57d940a5995a0b00016350be,68817205a84113384fffdfe3,68823b28309112e965833c0f,,,,,,,,,,,,./stim/wavs/mexican_mismatch_interrogative-total-yn_Mi-novio-viene-del-lago.wav,1,,,55.2599,60.109,1,1,4.3273,,0,4,4,37,1,38,0,mexican,,,,,,,,,,,,,,,,,,,,,,,,,,,,,,,,,,,,,,,,,,,,,,,,,,,,,,,,
,,,,,,,,,57d940a5995a0b00016350be,U.S school taught Spanish.,13 or older,"no, only English or Spanish",no,2025-07-24_09h58.47.220,empathy_intonation_perc_control,2024.2.4,Win32,59.88023952,57d940a5995a0b00016350be,68817205a84113384fffdfe3,68823b28309112e965833c0f,,,,,,,,,,,,./stim/wavs/cuban_mismatch_declarative-broad-focus_El-hombre-mira-la-luna.wav,0,,,60.1098,62.3087,0,1,1.6773,,0,5,5,74,1,75,0,cuban,,,,,,,,,,,,,,,,,,,,,,,,,,,,,,,,,,,,,,,,,,,,,,,,,,,,,,,,
,,,,,,,,,57d940a5995a0b00016350be,U.S school taught Spanish.,13 or older,"no, only English or Spanish",no,2025-07-24_09h58.47.220,empathy_intonation_perc_control,2024.2.4,Win32,59.88023952,57d940a5995a0b00016350be,68817205a84113384fffdfe3,68823b28309112e965833c0f,,,,,,,,,,,,./stim/wavs/castilian_mismatch_declarative-broad-focus_Mi-novio-viene-del-lago.wav,0,,,62.3096,65.0916,0,1,2.2503,,0,6,6,71,1,72,0,castilian,,,,,,,,,,,,,,,,,,,,,,,,,,,,,,,,,,,,,,,,,,,,,,,,,,,,,,,,
,,,,,,,,,57d940a5995a0b00016350be,U.S school taught Spanish.,13 or older,"no, only English or Spanish",no,2025-07-24_09h58.47.220,empathy_intonation_perc_control,2024.2.4,Win32,59.88023952,57d940a5995a0b00016350be,68817205a84113384fffdfe3,68823b28309112e965833c0f,,,,,,,,,,,,./stim/wavs/castilian_match_interrogative-total-yn_Emilio-ama-la-marcha.wav,1,,,65.0918,67.3583,1,1,1.7418,,0,7,7,1,1,2,0,castilian,,,,,,,,,,,,,,,,,,,,,,,,,,,,,,,,,,,,,,,,,,,,,,,,,,,,,,,,
,,,,,,,,,57d940a5995a0b00016350be,U.S school taught Spanish.,13 or older,"no, only English or Spanish",no,2025-07-24_09h58.47.220,empathy_intonation_perc_control,2024.2.4,Win32,59.88023952,57d940a5995a0b00016350be,68817205a84113384fffdfe3,68823b28309112e965833c0f,,,,,,,,,,,,./stim/wavs/cuban_match_interrogative-total-yn_Ana-lleva-el-abrigo.wav,1,,,67.3585,69.7249,0,0,1.859,,0,8,8,6,1,7,1,cuban,,,,,,,,,,,,,,,,,,,,,,,,,,,,,,,,,,,,,,,,,,,,,,,,,,,,,,,,
,,,,,,,,,57d940a5995a0b00016350be,U.S school taught Spanish.,13 or older,"no, only English or Spanish",no,2025-07-24_09h58.47.220,empathy_intonation_perc_control,2024.2.4,Win32,59.88023952,57d940a5995a0b00016350be,68817205a84113384fffdfe3,68823b28309112e965833c0f,,,,,,,,,,,,./stim/wavs/mexican_mismatch_interrogative-total-yn_El-nino-oye-el-rio.wav,1,,,69.7252,72.1416,1,1,1.8938,,0,9,9,35,1,36,0,mexican,,,,,,,,,,,,,,,,,,,,,,,,,,,,,,,,,,,,,,,,,,,,,,,,,,,,,,,,
,,,,,,,,,57d940a5995a0b00016350be,U.S school taught Spanish.,13 or older,"no, only English or Spanish",no,2025-07-24_09h58.47.220,empathy_intonation_perc_control,2024.2.4,Win32,59.88023952,57d940a5995a0b00016350be,68817205a84113384fffdfe3,68823b28309112e965833c0f,,,,,,,,,,,,./stim/wavs/puertorican_match_interrogative-total-yn_Maria-bebe-el-vino.wav,1,,,72.1419,74.1589,1,1,1.4908,,0,10,10,23,1,24,1,puertorican,,,,,,,,,,,,,,,,,,,,,,,,,,,,,,,,,,,,,,,,,,,,,,,,,,,,,,,,
,,,,,,,,,57d940a5995a0b00016350be,U.S school taught Spanish.,13 or older,"no, only English or Spanish",no,2025-07-24_09h58.47.220,empathy_intonation_perc_control,2024.2.4,Win32,59.88023952,57d940a5995a0b00016350be,68817205a84113384fffdfe3,68823b28309112e965833c0f,,,,,,,,,,,,./stim/wavs/puertorican_match_interrogative-total-yn_Emilio-ama-la-marcha.wav,1,,,74.1598,76.2915,0,0,1.6094,,0,11,11,21,1,22,1,puertorican,,,,,,,,,,,,,,,,,,,,,,,,,,,,,,,,,,,,,,,,,,,,,,,,,,,,,,,,
,,,,,,,,,57d940a5995a0b00016350be,U.S school taught Spanish.,13 or older,"no, only English or Spanish",no,2025-07-24_09h58.47.220,empathy_intonation_perc_control,2024.2.4,Win32,59.88023952,57d940a5995a0b00016350be,68817205a84113384fffdfe3,68823b28309112e965833c0f,,,,,,,,,,,,./stim/wavs/puertorican_match_interrogative-total-yn_Ana-lleva-el-abrigo.wav,1,,,76.2918,78.4582,0,0,1.6406,,0,12,12,18,1,19,1,puertorican,,,,,,,,,,,,,,,,,,,,,,,,,,,,,,,,,,,,,,,,,,,,,,,,,,,,,,,,
,,,,,,,,,57d940a5995a0b00016350be,U.S school taught Spanish.,13 or older,"no, only English or Spanish",no,2025-07-24_09h58.47.220,empathy_intonation_perc_control,2024.2.4,Win32,59.88023952,57d940a5995a0b00016350be,68817205a84113384fffdfe3,68823b28309112e965833c0f,,,,,,,,,,,,./stim/wavs/castilian_mismatch_declarative-broad-focus_La-nina-lava-el-plato.wav,0,,,78.4584,81.0417,0,1,2.0662,,0,13,13,70,1,71,0,castilian,,,,,,,,,,,,,,,,,,,,,,,,,,,,,,,,,,,,,,,,,,,,,,,,,,,,,,,,
,,,,,,,,,57d940a5995a0b00016350be,U.S school taught Spanish.,13 or older,"no, only English or Spanish",no,2025-07-24_09h58.47.220,empathy_intonation_perc_control,2024.2.4,Win32,59.88023952,57d940a5995a0b00016350be,68817205a84113384fffdfe3,68823b28309112e965833c0f,,,,,,,,,,,,./stim/wavs/puertorican_mismatch_declarative-broad-focus_El-nino-oye-el-rio.wav,0,,,81.0419,83.3749,0,1,1.8016,,0,14,14,85,1,86,0,puertorican,,,,,,,,,,,,,,,,,,,,,,,,,,,,,,,,,,,,,,,,,,,,,,,,,,,,,,,,
,,,,,,,,,57d940a5995a0b00016350be,U.S school taught Spanish.,13 or older,"no, only English or Spanish",no,2025-07-24_09h58.47.220,empathy_intonation_perc_control,2024.2.4,Win32,59.88023952,57d940a5995a0b00016350be,68817205a84113384fffdfe3,68823b28309112e965833c0f,,,,,,,,,,,,./stim/wavs/cuban_mismatch_declarative-broad-focus_El-bebe-comia-muy-bien.wav,0,,,83.375,85.625,0,1,1.7185,,0,15,15,73,1,74,0,cuban,,,,,,,,,,,,,,,,,,,,,,,,,,,,,,,,,,,,,,,,,,,,,,,,,,,,,,,,
,,,,,,,,,57d940a5995a0b00016350be,U.S school taught Spanish.,13 or older,"no, only English or Spanish",no,2025-07-24_09h58.47.220,empathy_intonation_perc_control,2024.2.4,Win32,59.88023952,57d940a5995a0b00016350be,68817205a84113384fffdfe3,68823b28309112e965833c0f,,,,,,,,,,,,./stim/wavs/cuban_match_declarative-broad-focus_Maria-bebe-el-vino.wav,0,,,85.6256,87.859,0,1,1.7001,,0,16,16,53,1,54,0,cuban,,,,,,,,,,,,,,,,,,,,,,,,,,,,,,,,,,,,,,,,,,,,,,,,,,,,,,,,
,,,,,,,,,57d940a5995a0b00016350be,U.S school taught Spanish.,13 or older,"no, only English or Spanish",no,2025-07-24_09h58.47.220,empathy_intonation_perc_control,2024.2.4,Win32,59.88023952,57d940a5995a0b00016350be,68817205a84113384fffdfe3,68823b28309112e965833c0f,,,,,,,,,,,,./stim/wavs/cuban_mismatch_interrogative-total-yn_Mi-madre-come-la-fruta.wav,1,,,87.8602,90.4916,0,0,2.1113,,0,17,17,31,1,32,1,cuban,,,,,,,,,,,,,,,,,,,,,,,,,,,,,,,,,,,,,,,,,,,,,,,,,,,,,,,,
,,,,,,,,,57d940a5995a0b00016350be,U.S school taught Spanish.,13 or older,"no, only English or Spanish",no,2025-07-24_09h58.47.220,empathy_intonation_perc_control,2024.2.4,Win32,59.88023952,57d940a5995a0b00016350be,68817205a84113384fffdfe3,68823b28309112e965833c0f,,,,,,,,,,,,./stim/wavs/mexican_match_declarative-broad-focus_Marta-abre-el-regalo.wav,0,,,90.4919,92.6587,1,0,1.6326,,0,18,18,61,1,62,0,mexican,,,,,,,,,,,,,,,,,,,,,,,,,,,,,,,,,,,,,,,,,,,,,,,,,,,,,,,,
,,,,,,,,,57d940a5995a0b00016350be,U.S school taught Spanish.,13 or older,"no, only English or Spanish",no,2025-07-24_09h58.47.220,empathy_intonation_perc_control,2024.2.4,Win32,59.88023952,57d940a5995a0b00016350be,68817205a84113384fffdfe3,68823b28309112e965833c0f,,,,,,,,,,,,./stim/wavs/castilian_match_declarative-broad-focus_Mariano-habla-del-tiempo.wav,0,,,92.6594,95.8249,0,1,2.6341,,0,19,19,48,1,49,0,castilian,,,,,,,,,,,,,,,,,,,,,,,,,,,,,,,,,,,,,,,,,,,,,,,,,,,,,,,,
,,,,,,,,,57d940a5995a0b00016350be,U.S school taught Spanish.,13 or older,"no, only English or Spanish",no,2025-07-24_09h58.47.220,empathy_intonation_perc_control,2024.2.4,Win32,59.88023952,57d940a5995a0b00016350be,68817205a84113384fffdfe3,68823b28309112e965833c0f,,,,,,,,,,,,./stim/wavs/cuban_mismatch_declarative-broad-focus_Mi-novio-viene-del-lago.wav,0,,,95.8252,98.3915,0,1,2.0344,,0,20,20,76,1,77,0,cuban,,,,,,,,,,,,,,,,,,,,,,,,,,,,,,,,,,,,,,,,,,,,,,,,,,,,,,,,
,,,,,,,,,57d940a5995a0b00016350be,U.S school taught Spanish.,13 or older,"no, only English or Spanish",no,2025-07-24_09h58.47.220,empathy_intonation_perc_control,2024.2.4,Win32,59.88023952,57d940a5995a0b00016350be,68817205a84113384fffdfe3,68823b28309112e965833c0f,,,,,,,,,,,,./stim/wavs/cuban_mismatch_declarative-broad-focus_Mi-tia-odia-la-lluvia.wav,0,,,98.3918,101.1749,0,1,2.257,,0,21,21,77,1,78,0,cuban,,,,,,,,,,,,,,,,,,,,,,,,,,,,,,,,,,,,,,,,,,,,,,,,,,,,,,,,
,,,,,,,,,57d940a5995a0b00016350be,U.S school taught Spanish.,13 or older,"no, only English or Spanish",no,2025-07-24_09h58.47.220,empathy_intonation_perc_control,2024.2.4,Win32,59.88023952,57d940a5995a0b00016350be,68817205a84113384fffdfe3,68823b28309112e965833c0f,,,,,,,,,,,,./stim/wavs/castilian_match_interrogative-total-yn_Maria-bebe-el-vino.wav,1,,,101.1752,103.2083,1,1,1.4998,,0,22,22,3,1,4,0,castilian,,,,,,,,,,,,,,,,,,,,,,,,,,,,,,,,,,,,,,,,,,,,,,,,,,,,,,,,
,,,,,,,,,57d940a5995a0b00016350be,U.S school taught Spanish.,13 or older,"no, only English or Spanish",no,2025-07-24_09h58.47.220,empathy_intonation_perc_control,2024.2.4,Win32,59.88023952,57d940a5995a0b00016350be,68817205a84113384fffdfe3,68823b28309112e965833c0f,,,,,,,,,,,,./stim/wavs/cuban_mismatch_interrogative-total-yn_Mi-tia-odia-la-lluvia.wav,1,,,103.2086,105.4749,0,0,1.7536,,0,23,23,33,1,34,1,cuban,,,,,,,,,,,,,,,,,,,,,,,,,,,,,,,,,,,,,,,,,,,,,,,,,,,,,,,,
,,,,,,,,,57d940a5995a0b00016350be,U.S school taught Spanish.,13 or older,"no, only English or Spanish",no,2025-07-24_09h58.47.220,empathy_intonation_perc_control,2024.2.4,Win32,59.88023952,57d940a5995a0b00016350be,68817205a84113384fffdfe3,68823b28309112e965833c0f,,,,,,,,,,,,./stim/wavs/mexican_match_declarative-broad-focus_Daniel-iba-a-Bolivia.wav,0,,,105.4751,107.6589,0,1,1.6664,,0,24,24,57,1,58,0,mexican,,,,,,,,,,,,,,,,,,,,,,,,,,,,,,,,,,,,,,,,,,,,,,,,,,,,,,,,
,,,,,,,,,57d940a5995a0b00016350be,U.S school taught Spanish.,13 or older,"no, only English or Spanish",no,2025-07-24_09h58.47.220,empathy_intonation_perc_control,2024.2.4,Win32,59.88023952,57d940a5995a0b00016350be,68817205a84113384fffdfe3,68823b28309112e965833c0f,,,,,,,,,,,,./stim/wavs/castilian_match_declarative-broad-focus_Manuela-vende-el-carro.wav,0,,,107.6597,110.2914,0,1,2.1108,,0,25,25,46,1,47,0,castilian,,,,,,,,,,,,,,,,,,,,,,,,,,,,,,,,,,,,,,,,,,,,,,,,,,,,,,,,
,,,,,,,,,57d940a5995a0b00016350be,U.S school taught Spanish.,13 or older,"no, only English or Spanish",no,2025-07-24_09h58.47.220,empathy_intonation_perc_control,2024.2.4,Win32,59.88023952,57d940a5995a0b00016350be,68817205a84113384fffdfe3,68823b28309112e965833c0f,,,,,,,,,,,,./stim/wavs/castilian_mismatch_interrogative-total-yn_Mi-novio-viene-del-lago.wav,1,,,110.2917,112.5583,1,1,1.7589,,0,26,26,27,1,28,0,castilian,,,,,,,,,,,,,,,,,,,,,,,,,,,,,,,,,,,,,,,,,,,,,,,,,,,,,,,,
,,,,,,,,,57d940a5995a0b00016350be,U.S school taught Spanish.,13 or older,"no, only English or Spanish",no,2025-07-24_09h58.47.220,empathy_intonation_perc_control,2024.2.4,Win32,59.88023952,57d940a5995a0b00016350be,68817205a84113384fffdfe3,68823b28309112e965833c0f,,,,,,,,,,,,./stim/wavs/puertorican_mismatch_interrogative-total-yn_El-nino-oye-el-rio.wav,1,,,112.5585,114.525,1,1,1.4594,,0,27,27,40,1,41,1,puertorican,,,,,,,,,,,,,,,,,,,,,,,,,,,,,,,,,,,,,,,,,,,,,,,,,,,,,,,,
,,,,,,,,,57d940a5995a0b00016350be,U.S school taught Spanish.,13 or older,"no, only English or Spanish",no,2025-07-24_09h58.47.220,empathy_intonation_perc_control,2024.2.4,Win32,59.88023952,57d940a5995a0b00016350be,68817205a84113384fffdfe3,68823b28309112e965833c0f,,,,,,,,,,,,./stim/wavs/cuban_mismatch_interrogative-total-yn_Mi-novio-viene-del-lago.wav,1,,,114.5253,117.1748,0,0,2.1248,,0,28,28,32,1,33,1,cuban,,,,,,,,,,,,,,,,,,,,,,,,,,,,,,,,,,,,,,,,,,,,,,,,,,,,,,,,
,,,,,,,,,57d940a5995a0b00016350be,U.S school taught Spanish.,13 or older,"no, only English or Spanish",no,2025-07-24_09h58.47.220,empathy_intonation_perc_control,2024.2.4,Win32,59.88023952,57d940a5995a0b00016350be,68817205a84113384fffdfe3,68823b28309112e965833c0f,,,,,,,,,,,,./stim/wavs/castilian_mismatch_interrogative-total-yn_La-maestra-vive-en-Paris.wav,1,,,117.1751,119.6748,1,1,1.968,,0,29,29,24,1,25,0,castilian,,,,,,,,,,,,,,,,,,,,,,,,,,,,,,,,,,,,,,,,,,,,,,,,,,,,,,,,
,,,,,,,,,57d940a5995a0b00016350be,U.S school taught Spanish.,13 or older,"no, only English or Spanish",no,2025-07-24_09h58.47.220,empathy_intonation_perc_control,2024.2.4,Win32,59.88023952,57d940a5995a0b00016350be,68817205a84113384fffdfe3,68823b28309112e965833c0f,,,,,,,,,,,,./stim/wavs/mexican_mismatch_declarative-broad-focus_El-hombre-mira-la-luna.wav,0,,,119.6752,121.7589,0,1,1.5585,,0,30,30,79,1,80,0,mexican,,,,,,,,,,,,,,,,,,,,,,,,,,,,,,,,,,,,,,,,,,,,,,,,,,,,,,,,
,,,,,,,,,57d940a5995a0b00016350be,U.S school taught Spanish.,13 or older,"no, only English or Spanish",no,2025-07-24_09h58.47.220,empathy_intonation_perc_control,2024.2.4,Win32,59.88023952,57d940a5995a0b00016350be,68817205a84113384fffdfe3,68823b28309112e965833c0f,,,,,,,,,,,,./stim/wavs/puertorican_match_declarative-broad-focus_Emilio-ama-la-marcha.wav,0,,,121.7597,124.3914,0,1,2.1068,,0,31,31,65,1,66,0,puertorican,,,,,,,,,,,,,,,,,,,,,,,,,,,,,,,,,,,,,,,,,,,,,,,,,,,,,,,,
,,,,,,,,,57d940a5995a0b00016350be,U.S school taught Spanish.,13 or older,"no, only English or Spanish",no,2025-07-24_09h58.47.220,empathy_intonation_perc_control,2024.2.4,Win32,59.88023952,57d940a5995a0b00016350be,68817205a84113384fffdfe3,68823b28309112e965833c0f,,,,,,,,,,,,./stim/wavs/puertorican_mismatch_interrogative-total-yn_Mi-madre-come-la-fruta.wav,1,,,124.3917,126.6749,0,0,1.7502,,0,32,32,43,1,44,1,puertorican,,,,,,,,,,,,,,,,,,,,,,,,,,,,,,,,,,,,,,,,,,,,,,,,,,,,,,,,
,,,,,,,,,57d940a5995a0b00016350be,U.S school taught Spanish.,13 or older,"no, only English or Spanish",no,2025-07-24_09h58.47.220,empathy_intonation_perc_control,2024.2.4,Win32,59.88023952,57d940a5995a0b00016350be,68817205a84113384fffdfe3,68823b28309112e965833c0f,,,,,,,,,,,,./stim/wavs/castilian_mismatch_interrogative-total-yn_La-nina-lava-el-plato.wav,1,,,126.6752,128.7591,1,1,1.5692,,0,33,33,25,1,26,0,castilian,,,,,,,,,,,,,,,,,,,,,,,,,,,,,,,,,,,,,,,,,,,,,,,,,,,,,,,,
,,,,,,,,,57d940a5995a0b00016350be,U.S school taught Spanish.,13 or older,"no, only English or Spanish",no,2025-07-24_09h58.47.220,empathy_intonation_perc_control,2024.2.4,Win32,59.88023952,57d940a5995a0b00016350be,68817205a84113384fffdfe3,68823b28309112e965833c0f,,,,,,,,,,,,./stim/wavs/puertorican_match_interrogative-total-yn_Manuela-vende-el-carro.wav,1,,,128.7596,131.3588,0,0,2.0682,,0,34,34,22,1,23,1,puertorican,,,,,,,,,,,,,,,,,,,,,,,,,,,,,,,,,,,,,,,,,,,,,,,,,,,,,,,,
,,,,,,,,,57d940a5995a0b00016350be,U.S school taught Spanish.,13 or older,"no, only English or Spanish",no,2025-07-24_09h58.47.220,empathy_intonation_perc_control,2024.2.4,Win32,59.88023952,57d940a5995a0b00016350be,68817205a84113384fffdfe3,68823b28309112e965833c0f,,,,,,,,,,,,./stim/wavs/puertorican_match_interrogative-total-yn_Daniel-iba-a-Bolivia.wav,1,,,131.3595,133.8416,0,0,1.9547,,0,35,35,19,1,20,1,puertorican,,,,,,,,,,,,,,,,,,,,,,,,,,,,,,,,,,,,,,,,,,,,,,,,,,,,,,,,
,,,,,,,,,57d940a5995a0b00016350be,U.S school taught Spanish.,13 or older,"no, only English or Spanish",no,2025-07-24_09h58.47.220,empathy_intonation_perc_control,2024.2.4,Win32,59.88023952,57d940a5995a0b00016350be,68817205a84113384fffdfe3,68823b28309112e965833c0f,,,,,,,,,,,,./stim/wavs/puertorican_mismatch_declarative-broad-focus_La-maestra-vive-en-Paris.wav,0,,,133.8419,136.6581,0,1,2.2867,,0,36,36,86,1,87,0,puertorican,,,,,,,,,,,,,,,,,,,,,,,,,,,,,,,,,,,,,,,,,,,,,,,,,,,,,,,,
,,,,,,,,,57d940a5995a0b00016350be,U.S school taught Spanish.,13 or older,"no, only English or Spanish",no,2025-07-24_09h58.47.220,empathy_intonation_perc_control,2024.2.4,Win32,59.88023952,57d940a5995a0b00016350be,68817205a84113384fffdfe3,68823b28309112e965833c0f,,,,,,,,,,,,./stim/wavs/puertorican_match_declarative-broad-focus_Manuela-vende-el-carro.wav,0,,,136.6584,139.0915,0,1,1.9173,,0,37,37,66,1,67,0,puertorican,,,,,,,,,,,,,,,,,,,,,,,,,,,,,,,,,,,,,,,,,,,,,,,,,,,,,,,,
,,,,,,,,,57d940a5995a0b00016350be,U.S school taught Spanish.,13 or older,"no, only English or Spanish",no,2025-07-24_09h58.47.220,empathy_intonation_perc_control,2024.2.4,Win32,59.88023952,57d940a5995a0b00016350be,68817205a84113384fffdfe3,68823b28309112e965833c0f,,,,,,,,,,,,./stim/wavs/mexican_match_interrogative-total-yn_Mariano-habla-del-tiempo.wav,1,,,139.0918,141.1416,1,1,1.5258,,0,38,38,16,1,17,0,mexican,,,,,,,,,,,,,,,,,,,,,,,,,,,,,,,,,,,,,,,,,,,,,,,,,,,,,,,,
,,,,,,,,,57d940a5995a0b00016350be,U.S school taught Spanish.,13 or older,"no, only English or Spanish",no,2025-07-24_09h58.47.220,empathy_intonation_perc_control,2024.2.4,Win32,59.88023952,57d940a5995a0b00016350be,68817205a84113384fffdfe3,68823b28309112e965833c0f,,,,,,,,,,,,./stim/wavs/mexican_mismatch_interrogative-total-yn_El-hombre-mira-la-luna.wav,1,,,141.142,143.0916,1,1,1.4156,,0,39,39,34,1,35,0,mexican,,,,,,,,,,,,,,,,,,,,,,,,,,,,,,,,,,,,,,,,,,,,,,,,,,,,,,,,
,,,,,,,,,57d940a5995a0b00016350be,U.S school taught Spanish.,13 or older,"no, only English or Spanish",no,2025-07-24_09h58.47.220,empathy_intonation_perc_control,2024.2.4,Win32,59.88023952,57d940a5995a0b00016350be,68817205a84113384fffdfe3,68823b28309112e965833c0f,,,,,,,,,,,,./stim/wavs/cuban_match_declarative-broad-focus_Ana-lleva-el-abrigo.wav,0,,,143.0922,145.3748,0,1,1.7504,,0,40,40,50,1,51,0,cuban,,,,,,,,,,,,,,,,,,,,,,,,,,,,,,,,,,,,,,,,,,,,,,,,,,,,,,,,
,,,,,,,,,57d940a5995a0b00016350be,U.S school taught Spanish.,13 or older,"no, only English or Spanish",no,2025-07-24_09h58.47.220,empathy_intonation_perc_control,2024.2.4,Win32,59.88023952,57d940a5995a0b00016350be,68817205a84113384fffdfe3,68823b28309112e965833c0f,,,,,,,,,,,,./stim/wavs/cuban_mismatch_interrogative-total-yn_El-nino-oye-el-rio.wav,1,,,145.375,147.6915,0,0,1.7994,,0,41,41,30,1,31,1,cuban,,,,,,,,,,,,,,,,,,,,,,,,,,,,,,,,,,,,,,,,,,,,,,,,,,,,,,,,
,,,,,,,,,57d940a5995a0b00016350be,U.S school taught Spanish.,13 or older,"no, only English or Spanish",no,2025-07-24_09h58.47.220,empathy_intonation_perc_control,2024.2.4,Win32,59.88023952,57d940a5995a0b00016350be,68817205a84113384fffdfe3,68823b28309112e965833c0f,,,,,,,,,,,,./stim/wavs/mexican_mismatch_declarative-broad-focus_La-maestra-vive-en-Paris.wav,0,,,147.6918,150.4748,0,1,2.2532,,0,42,42,80,1,81,0,mexican,,,,,,,,,,,,,,,,,,,,,,,,,,,,,,,,,,,,,,,,,,,,,,,,,,,,,,,,
,,,,,,,,,57d940a5995a0b00016350be,U.S school taught Spanish.,13 or older,"no, only English or Spanish",no,2025-07-24_09h58.47.220,empathy_intonation_perc_control,2024.2.4,Win32,59.88023952,57d940a5995a0b00016350be,68817205a84113384fffdfe3,68823b28309112e965833c0f,,,,,,,,,,,,./stim/wavs/mexican_match_declarative-broad-focus_Ana-lleva-el-abrigo.wav,0,,,150.4751,152.7414,0,1,1.7342,,0,43,43,56,1,57,0,mexican,,,,,,,,,,,,,,,,,,,,,,,,,,,,,,,,,,,,,,,,,,,,,,,,,,,,,,,,
,,,,,,,,,57d940a5995a0b00016350be,U.S school taught Spanish.,13 or older,"no, only English or Spanish",no,2025-07-24_09h58.47.220,empathy_intonation_perc_control,2024.2.4,Win32,59.88023952,57d940a5995a0b00016350be,68817205a84113384fffdfe3,68823b28309112e965833c0f,,,,,,,,,,,,./stim/wavs/cuban_match_interrogative-total-yn_Mariano-habla-del-tiempo.wav,1,,,152.7417,155.3089,0,0,2.0364,,0,44,44,10,1,11,1,cuban,,,,,,,,,,,,,,,,,,,,,,,,,,,,,,,,,,,,,,,,,,,,,,,,,,,,,,,,
,,,,,,,,,57d940a5995a0b00016350be,U.S school taught Spanish.,13 or older,"no, only English or Spanish",no,2025-07-24_09h58.47.220,empathy_intonation_perc_control,2024.2.4,Win32,59.88023952,57d940a5995a0b00016350be,68817205a84113384fffdfe3,68823b28309112e965833c0f,,,,,,,,,,,,./stim/wavs/puertorican_mismatch_declarative-broad-focus_El-hombre-mira-la-luna.wav,0,,,155.3095,157.8591,0,1,2.0169,,0,45,45,84,1,85,0,puertorican,,,,,,,,,,,,,,,,,,,,,,,,,,,,,,,,,,,,,,,,,,,,,,,,,,,,,,,,
,,,,,,,,,57d940a5995a0b00016350be,U.S school taught Spanish.,13 or older,"no, only English or Spanish",no,2025-07-24_09h58.47.220,empathy_intonation_perc_control,2024.2.4,Win32,59.88023952,57d940a5995a0b00016350be,68817205a84113384fffdfe3,68823b28309112e965833c0f,,,,,,,,,,,,./stim/wavs/cuban_match_interrogative-total-yn_Daniel-iba-a-Bolivia.wav,1,,,157.8595,160.4249,0,0,2.039,,0,46,46,7,1,8,1,cuban,,,,,,,,,,,,,,,,,,,,,,,,,,,,,,,,,,,,,,,,,,,,,,,,,,,,,,,,
,,,,,,,,,57d940a5995a0b00016350be,U.S school taught Spanish.,13 or older,"no, only English or Spanish",no,2025-07-24_09h58.47.220,empathy_intonation_perc_control,2024.2.4,Win32,59.88023952,57d940a5995a0b00016350be,68817205a84113384fffdfe3,68823b28309112e965833c0f,,,,,,,,,,,,./stim/wavs/castilian_mismatch_interrogative-total-yn_Mi-tia-odia-la-lluvia.wav,1,,,160.4253,162.6584,1,1,1.7003,,0,47,47,28,1,29,0,castilian,,,,,,,,,,,,,,,,,,,,,,,,,,,,,,,,,,,,,,,,,,,,,,,,,,,,,,,,
,,,,,,,,,57d940a5995a0b00016350be,U.S school taught Spanish.,13 or older,"no, only English or Spanish",no,2025-07-24_09h58.47.220,empathy_intonation_perc_control,2024.2.4,Win32,59.88023952,57d940a5995a0b00016350be,68817205a84113384fffdfe3,68823b28309112e965833c0f,,,,,,,,,,,,./stim/wavs/puertorican_mismatch_interrogative-total-yn_El-hombre-mira-la-luna.wav,1,,,162.659,164.759,1,1,1.5837,,0,48,48,39,1,40,1,puertorican,,,,,,,,,,,,,,,,,,,,,,,,,,,,,,,,,,,,,,,,,,,,,,,,,,,,,,,,
,,,,,,,,,57d940a5995a0b00016350be,U.S school taught Spanish.,13 or older,"no, only English or Spanish",no,2025-07-24_09h58.47.220,empathy_intonation_perc_control,2024.2.4,Win32,59.88023952,57d940a5995a0b00016350be,68817205a84113384fffdfe3,68823b28309112e965833c0f,,,,,,,,,,,,./stim/wavs/cuban_mismatch_declarative-broad-focus_La-nina-lava-el-plato.wav,0,,,164.7595,167.125,0,1,1.8357,,0,49,49,75,1,76,0,cuban,,,,,,,,,,,,,,,,,,,,,,,,,,,,,,,,,,,,,,,,,,,,,,,,,,,,,,,,
,,,,,,,,,57d940a5995a0b00016350be,U.S school taught Spanish.,13 or older,"no, only English or Spanish",no,2025-07-24_09h58.47.220,empathy_intonation_perc_control,2024.2.4,Win32,59.88023952,57d940a5995a0b00016350be,68817205a84113384fffdfe3,68823b28309112e965833c0f,,,,,,,,,,,,./stim/wavs/cuban_match_declarative-broad-focus_Daniel-iba-a-Bolivia.wav,0,,,167.1253,169.6583,0,1,2.0004,,0,50,50,51,1,52,0,cuban,,,,,,,,,,,,,,,,,,,,,,,,,,,,,,,,,,,,,,,,,,,,,,,,,,,,,,,,
,,,,,,,,,57d940a5995a0b00016350be,U.S school taught Spanish.,13 or older,"no, only English or Spanish",no,2025-07-24_09h58.47.220,empathy_intonation_perc_control,2024.2.4,Win32,59.88023952,57d940a5995a0b00016350be,68817205a84113384fffdfe3,68823b28309112e965833c0f,,,,,,,,,,,,./stim/wavs/puertorican_match_declarative-broad-focus_David-leia-el-libro.wav,0,,,169.6585,171.9251,0,1,1.7516,,0,51,51,64,1,65,0,puertorican,,,,,,,,,,,,,,,,,,,,,,,,,,,,,,,,,,,,,,,,,,,,,,,,,,,,,,,,
,,,,,,,,,57d940a5995a0b00016350be,U.S school taught Spanish.,13 or older,"no, only English or Spanish",no,2025-07-24_09h58.47.220,empathy_intonation_perc_control,2024.2.4,Win32,59.88023952,57d940a5995a0b00016350be,68817205a84113384fffdfe3,68823b28309112e965833c0f,,,,,,,,,,,,./stim/wavs/mexican_mismatch_declarative-broad-focus_Mi-novio-viene-del-lago.wav,0,,,171.9254,174.2416,0,1,1.7857,,0,52,52,81,1,82,0,mexican,,,,,,,,,,,,,,,,,,,,,,,,,,,,,,,,,,,,,,,,,,,,,,,,,,,,,,,,
,,,,,,,,,57d940a5995a0b00016350be,U.S school taught Spanish.,13 or older,"no, only English or Spanish",no,2025-07-24_09h58.47.220,empathy_intonation_perc_control,2024.2.4,Win32,59.88023952,57d940a5995a0b00016350be,68817205a84113384fffdfe3,68823b28309112e965833c0f,,,,,,,,,,,,./stim/wavs/puertorican_mismatch_interrogative-total-yn_La-nina-lava-el-plato.wav,1,,,174.2418,176.6084,0,0,1.84,,0,53,53,42,1,43,1,puertorican,,,,,,,,,,,,,,,,,,,,,,,,,,,,,,,,,,,,,,,,,,,,,,,,,,,,,,,,
,,,,,,,,,57d940a5995a0b00016350be,U.S school taught Spanish.,13 or older,"no, only English or Spanish",no,2025-07-24_09h58.47.220,empathy_intonation_perc_control,2024.2.4,Win32,59.88023952,57d940a5995a0b00016350be,68817205a84113384fffdfe3,68823b28309112e965833c0f,,,,,,,,,,,,./stim/wavs/mexican_mismatch_declarative-broad-focus_Mi-tia-odia-la-lluvia.wav,0,,,176.6087,178.8749,0,1,1.735,,0,54,54,82,1,83,0,mexican,,,,,,,,,,,,,,,,,,,,,,,,,,,,,,,,,,,,,,,,,,,,,,,,,,,,,,,,
,,,,,,,,,57d940a5995a0b00016350be,U.S school taught Spanish.,13 or older,"no, only English or Spanish",no,2025-07-24_09h58.47.220,empathy_intonation_perc_control,2024.2.4,Win32,59.88023952,57d940a5995a0b00016350be,68817205a84113384fffdfe3,68823b28309112e965833c0f,,,,,,,,,,,,./stim/wavs/mexican_mismatch_declarative-broad-focus_El-bebe-comia-muy-bien.wav,0,,,178.8753,181.0749,0,1,1.6666,,0,55,55,78,1,79,0,mexican,,,,,,,,,,,,,,,,,,,,,,,,,,,,,,,,,,,,,,,,,,,,,,,,,,,,,,,,
,,,,,,,,,57d940a5995a0b00016350be,U.S school taught Spanish.,13 or older,"no, only English or Spanish",no,2025-07-24_09h58.47.220,empathy_intonation_perc_control,2024.2.4,Win32,59.88023952,57d940a5995a0b00016350be,68817205a84113384fffdfe3,68823b28309112e965833c0f,,,,,,,,,,,,./stim/wavs/castilian_match_interrogative-total-yn_Manuela-vende-el-carro.wav,1,,,181.0751,183.2589,1,1,1.6503,,0,56,56,2,1,3,0,castilian,,,,,,,,,,,,,,,,,,,,,,,,,,,,,,,,,,,,,,,,,,,,,,,,,,,,,,,,
,,,,,,,,,57d940a5995a0b00016350be,U.S school taught Spanish.,13 or older,"no, only English or Spanish",no,2025-07-24_09h58.47.220,empathy_intonation_perc_control,2024.2.4,Win32,59.88023952,57d940a5995a0b00016350be,68817205a84113384fffdfe3,68823b28309112e965833c0f,,,,,,,,,,,,./stim/wavs/mexican_match_interrogative-total-yn_Daniel-iba-a-Bolivia.wav,1,,,183.2597,185.3415,1,1,1.5595,,0,57,57,13,1,14,0,mexican,,,,,,,,,,,,,,,,,,,,,,,,,,,,,,,,,,,,,,,,,,,,,,,,,,,,,,,,
,,,,,,,,,57d940a5995a0b00016350be,U.S school taught Spanish.,13 or older,"no, only English or Spanish",no,2025-07-24_09h58.47.220,empathy_intonation_perc_control,2024.2.4,Win32,59.88023952,57d940a5995a0b00016350be,68817205a84113384fffdfe3,68823b28309112e965833c0f,,,,,,,,,,,,./stim/wavs/cuban_match_declarative-broad-focus_Manuela-vende-el-carro.wav,0,,,185.3417,187.7415,0,1,1.8769,,0,58,58,52,1,53,0,cuban,,,,,,,,,,,,,,,,,,,,,,,,,,,,,,,,,,,,,,,,,,,,,,,,,,,,,,,,
,,,,,,,,,57d940a5995a0b00016350be,U.S school taught Spanish.,13 or older,"no, only English or Spanish",no,2025-07-24_09h58.47.220,empathy_intonation_perc_control,2024.2.4,Win32,59.88023952,57d940a5995a0b00016350be,68817205a84113384fffdfe3,68823b28309112e965833c0f,,,,,,,,,,,,./stim/wavs/castilian_match_declarative-broad-focus_Maria-bebe-el-vino.wav,0,,,187.7418,190.1749,0,1,1.8999,,0,59,59,47,1,48,0,castilian,,,,,,,,,,,,,,,,,,,,,,,,,,,,,,,,,,,,,,,,,,,,,,,,,,,,,,,,
,,,,,,,,,57d940a5995a0b00016350be,U.S school taught Spanish.,13 or older,"no, only English or Spanish",no,2025-07-24_09h58.47.220,empathy_intonation_perc_control,2024.2.4,Win32,59.88023952,57d940a5995a0b00016350be,68817205a84113384fffdfe3,68823b28309112e965833c0f,,,,,,,,,,,,./stim/wavs/castilian_match_interrogative-total-yn_Marta-abre-el-regalo.wav,1,,,190.1752,192.3417,1,1,1.6354,,0,60,60,5,1,6,0,castilian,,,,,,,,,,,,,,,,,,,,,,,,,,,,,,,,,,,,,,,,,,,,,,,,,,,,,,,,
,,,,,,,,,57d940a5995a0b00016350be,U.S school taught Spanish.,13 or older,"no, only English or Spanish",no,2025-07-24_09h58.47.220,empathy_intonation_perc_control,2024.2.4,Win32,59.88023952,57d940a5995a0b00016350be,68817205a84113384fffdfe3,68823b28309112e965833c0f,,,,,,,,,,,,./stim/wavs/puertorican_match_declarative-broad-focus_Maria-bebe-el-vino.wav,0,,,192.3421,194.7083,0,1,1.8361,,0,61,61,67,1,68,0,puertorican,,,,,,,,,,,,,,,,,,,,,,,,,,,,,,,,,,,,,,,,,,,,,,,,,,,,,,,,
,,,,,,,,,57d940a5995a0b00016350be,U.S school taught Spanish.,13 or older,"no, only English or Spanish",no,2025-07-24_09h58.47.220,empathy_intonation_perc_control,2024.2.4,Win32,59.88023952,57d940a5995a0b00016350be,68817205a84113384fffdfe3,68823b28309112e965833c0f,,,,,,,,,,,,./stim/wavs/mexican_match_interrogative-total-yn_Ana-lleva-el-abrigo.wav,1,,,194.7086,196.709,1,1,1.4704,,0,62,62,12,1,13,0,mexican,,,,,,,,,,,,,,,,,,,,,,,,,,,,,,,,,,,,,,,,,,,,,,,,,,,,,,,,
,,,,,,,,,57d940a5995a0b00016350be,U.S school taught Spanish.,13 or older,"no, only English or Spanish",no,2025-07-24_09h58.47.220,empathy_intonation_perc_control,2024.2.4,Win32,59.88023952,57d940a5995a0b00016350be,68817205a84113384fffdfe3,68823b28309112e965833c0f,,,,,,,,,,,,./stim/wavs/mexican_match_declarative-broad-focus_Mariano-habla-del-tiempo.wav,0,,,196.7096,199.1748,0,1,1.941,,0,63,63,60,1,61,0,mexican,,,,,,,,,,,,,,,,,,,,,,,,,,,,,,,,,,,,,,,,,,,,,,,,,,,,,,,,
,,,,,,,,,57d940a5995a0b00016350be,U.S school taught Spanish.,13 or older,"no, only English or Spanish",no,2025-07-24_09h58.47.220,empathy_intonation_perc_control,2024.2.4,Win32,59.88023952,57d940a5995a0b00016350be,68817205a84113384fffdfe3,68823b28309112e965833c0f,,,,,,,,,,,,./stim/wavs/castilian_match_interrogative-total-yn_Mariano-habla-del-tiempo.wav,1,,,199.1751,201.4087,1,1,1.7227,,0,64,64,4,1,5,0,castilian,,,,,,,,,,,,,,,,,,,,,,,,,,,,,,,,,,,,,,,,,,,,,,,,,,,,,,,,
,,,,,,,,,57d940a5995a0b00016350be,U.S school taught Spanish.,13 or older,"no, only English or Spanish",no,2025-07-24_09h58.47.220,empathy_intonation_perc_control,2024.2.4,Win32,59.88023952,57d940a5995a0b00016350be,68817205a84113384fffdfe3,68823b28309112e965833c0f,,,,,,,,,,,,./stim/wavs/cuban_match_interrogative-total-yn_Maria-bebe-el-vino.wav,1,,,201.4093,203.8248,0,0,1.8842,,0,65,65,9,1,10,1,cuban,,,,,,,,,,,,,,,,,,,,,,,,,,,,,,,,,,,,,,,,,,,,,,,,,,,,,,,,
,,,,,,,,,57d940a5995a0b00016350be,U.S school taught Spanish.,13 or older,"no, only English or Spanish",no,2025-07-24_09h58.47.220,empathy_intonation_perc_control,2024.2.4,Win32,59.88023952,57d940a5995a0b00016350be,68817205a84113384fffdfe3,68823b28309112e965833c0f,,,,,,,,,,,,./stim/wavs/castilian_match_declarative-broad-focus_David-leia-el-libro.wav,0,,,203.8251,206.3414,0,1,1.993,,0,66,66,44,1,45,0,castilian,,,,,,,,,,,,,,,,,,,,,,,,,,,,,,,,,,,,,,,,,,,,,,,,,,,,,,,,
,,,,,,,,,57d940a5995a0b00016350be,U.S school taught Spanish.,13 or older,"no, only English or Spanish",no,2025-07-24_09h58.47.220,empathy_intonation_perc_control,2024.2.4,Win32,59.88023952,57d940a5995a0b00016350be,68817205a84113384fffdfe3,68823b28309112e965833c0f,,,,,,,,,,,,./stim/wavs/mexican_mismatch_interrogative-total-yn_La-maestra-vive-en-Paris.wav,1,,,206.3417,208.525,1,1,1.6523,,0,67,67,36,1,37,0,mexican,,,,,,,,,,,,,,,,,,,,,,,,,,,,,,,,,,,,,,,,,,,,,,,,,,,,,,,,
,,,,,,,,,57d940a5995a0b00016350be,U.S school taught Spanish.,13 or older,"no, only English or Spanish",no,2025-07-24_09h58.47.220,empathy_intonation_perc_control,2024.2.4,Win32,59.88023952,57d940a5995a0b00016350be,68817205a84113384fffdfe3,68823b28309112e965833c0f,,,,,,,,,,,,./stim/wavs/puertorican_match_declarative-broad-focus_Ana-lleva-el-abrigo.wav,0,,,208.5254,210.4582,0,1,1.4013,,0,68,68,62,1,63,0,puertorican,,,,,,,,,,,,,,,,,,,,,,,,,,,,,,,,,,,,,,,,,,,,,,,,,,,,,,,,
,,,,,,,,,57d940a5995a0b00016350be,U.S school taught Spanish.,13 or older,"no, only English or Spanish",no,2025-07-24_09h58.47.220,empathy_intonation_perc_control,2024.2.4,Win32,59.88023952,57d940a5995a0b00016350be,68817205a84113384fffdfe3,68823b28309112e965833c0f,,,,,,,,,,,,./stim/wavs/castilian_match_interrogative-total-yn_David-leia-el-libro.wav,1,,,210.4585,212.5414,1,1,1.5767,,0,69,69,0,1,1,0,castilian,,,,,,,,,,,,,,,,,,,,,,,,,,,,,,,,,,,,,,,,,,,,,,,,,,,,,,,,
,,,,,,,,,57d940a5995a0b00016350be,U.S school taught Spanish.,13 or older,"no, only English or Spanish",no,2025-07-24_09h58.47.220,empathy_intonation_perc_control,2024.2.4,Win32,59.88023952,57d940a5995a0b00016350be,68817205a84113384fffdfe3,68823b28309112e965833c0f,,,,,,,,,,,,./stim/wavs/mexican_match_declarative-broad-focus_David-leia-el-libro.wav,0,,,212.5417,214.8249,0,1,1.7495,,0,70,70,58,1,59,0,mexican,,,,,,,,,,,,,,,,,,,,,,,,,,,,,,,,,,,,,,,,,,,,,,,,,,,,,,,,
,,,,,,,,,57d940a5995a0b00016350be,U.S school taught Spanish.,13 or older,"no, only English or Spanish",no,2025-07-24_09h58.47.220,empathy_intonation_perc_control,2024.2.4,Win32,59.88023952,57d940a5995a0b00016350be,68817205a84113384fffdfe3,68823b28309112e965833c0f,,,,,,,,,,,,./stim/wavs/castilian_mismatch_declarative-broad-focus_Mi-tia-odia-la-lluvia.wav,0,,,214.8251,217.7916,1,0,2.4337,,0,71,71,72,1,73,0,castilian,,,,,,,,,,,,,,,,,,,,,,,,,,,,,,,,,,,,,,,,,,,,,,,,,,,,,,,,
,,,,,,,,,57d940a5995a0b00016350be,U.S school taught Spanish.,13 or older,"no, only English or Spanish",no,2025-07-24_09h58.47.220,empathy_intonation_perc_control,2024.2.4,Win32,59.88023952,57d940a5995a0b00016350be,68817205a84113384fffdfe3,68823b28309112e965833c0f,,,,,,,,,,,,./stim/wavs/mexican_match_interrogative-total-yn_Marta-abre-el-regalo.wav,1,,,217.7919,220.2415,1,1,1.9165,,0,72,72,17,1,18,0,mexican,,,,,,,,,,,,,,,,,,,,,,,,,,,,,,,,,,,,,,,,,,,,,,,,,,,,,,,,
,,,,,,,,,57d940a5995a0b00016350be,U.S school taught Spanish.,13 or older,"no, only English or Spanish",no,2025-07-24_09h58.47.220,empathy_intonation_perc_control,2024.2.4,Win32,59.88023952,57d940a5995a0b00016350be,68817205a84113384fffdfe3,68823b28309112e965833c0f,,,,,,,,,,,,./stim/wavs/castilian_match_declarative-broad-focus_Emilio-ama-la-marcha.wav,0,,,220.2418,223.0751,0,1,2.3031,,0,73,73,45,1,46,0,castilian,,,,,,,,,,,,,,,,,,,,,,,,,,,,,,,,,,,,,,,,,,,,,,,,,,,,,,,,
,,,,,,,,,57d940a5995a0b00016350be,U.S school taught Spanish.,13 or older,"no, only English or Spanish",no,2025-07-24_09h58.47.220,empathy_intonation_perc_control,2024.2.4,Win32,59.88023952,57d940a5995a0b00016350be,68817205a84113384fffdfe3,68823b28309112e965833c0f,,,,,,,,,,,,./stim/wavs/mexican_match_declarative-broad-focus_Emilio-ama-la-marcha.wav,0,,,223.0755,225.5749,1,0,1.968,,0,74,74,59,1,60,0,mexican,,,,,,,,,,,,,,,,,,,,,,,,,,,,,,,,,,,,,,,,,,,,,,,,,,,,,,,,
,,,,,,,,,57d940a5995a0b00016350be,U.S school taught Spanish.,13 or older,"no, only English or Spanish",no,2025-07-24_09h58.47.220,empathy_intonation_perc_control,2024.2.4,Win32,59.88023952,57d940a5995a0b00016350be,68817205a84113384fffdfe3,68823b28309112e965833c0f,,,,,,,,,,,,./stim/wavs/cuban_match_declarative-broad-focus_Mariano-habla-del-tiempo.wav,0,,,225.5751,228.1581,0,1,2.0585,,0,75,75,54,1,55,0,cuban,,,,,,,,,,,,,,,,,,,,,,,,,,,,,,,,,,,,,,,,,,,,,,,,,,,,,,,,
,,,,,,,,,57d940a5995a0b00016350be,U.S school taught Spanish.,13 or older,"no, only English or Spanish",no,2025-07-24_09h58.47.220,empathy_intonation_perc_control,2024.2.4,Win32,59.88023952,57d940a5995a0b00016350be,68817205a84113384fffdfe3,68823b28309112e965833c0f,,,,,,,,,,,,./stim/wavs/cuban_match_interrogative-total-yn_Manuela-vende-el-carro.wav,1,,,228.1583,230.5087,0,0,1.8431,,0,76,76,8,1,9,1,cuban,,,,,,,,,,,,,,,,,,,,,,,,,,,,,,,,,,,,,,,,,,,,,,,,,,,,,,,,
,,,,,,,,,57d940a5995a0b00016350be,U.S school taught Spanish.,13 or older,"no, only English or Spanish",no,2025-07-24_09h58.47.220,empathy_intonation_perc_control,2024.2.4,Win32,59.88023952,57d940a5995a0b00016350be,68817205a84113384fffdfe3,68823b28309112e965833c0f,,,,,,,,,,,,./stim/wavs/mexican_mismatch_interrogative-total-yn_Mi-tia-odia-la-lluvia.wav,1,,,230.5098,232.5414,1,1,1.502,,0,77,77,38,1,39,0,mexican,,,,,,,,,,,,,,,,,,,,,,,,,,,,,,,,,,,,,,,,,,,,,,,,,,,,,,,,
,,,,,,,,,57d940a5995a0b00016350be,U.S school taught Spanish.,13 or older,"no, only English or Spanish",no,2025-07-24_09h58.47.220,empathy_intonation_perc_control,2024.2.4,Win32,59.88023952,57d940a5995a0b00016350be,68817205a84113384fffdfe3,68823b28309112e965833c0f,,,,,,,,,,,,./stim/wavs/cuban_match_interrogative-total-yn_Marta-abre-el-regalo.wav,1,,,232.5416,235.075,0,0,2.0206,,0,78,78,11,1,12,1,cuban,,,,,,,,,,,,,,,,,,,,,,,,,,,,,,,,,,,,,,,,,,,,,,,,,,,,,,,,
,,,,,,,,,57d940a5995a0b00016350be,U.S school taught Spanish.,13 or older,"no, only English or Spanish",no,2025-07-24_09h58.47.220,empathy_intonation_perc_control,2024.2.4,Win32,59.88023952,57d940a5995a0b00016350be,68817205a84113384fffdfe3,68823b28309112e965833c0f,,,,,,,,,,,,./stim/wavs/puertorican_mismatch_declarative-broad-focus_El-bebe-comia-muy-bien.wav,0,,,235.0753,237.5749,0,1,1.9747,,0,79,79,83,1,84,0,puertorican,,,,,,,,,,,,,,,,,,,,,,,,,,,,,,,,,,,,,,,,,,,,,,,,,,,,,,,,
,,,,,,,,,57d940a5995a0b00016350be,U.S school taught Spanish.,13 or older,"no, only English or Spanish",no,2025-07-24_09h58.47.220,empathy_intonation_perc_control,2024.2.4,Win32,59.88023952,57d940a5995a0b00016350be,68817205a84113384fffdfe3,68823b28309112e965833c0f,,,,,,,,,,,,./stim/wavs/castilian_mismatch_declarative-broad-focus_La-maestra-vive-en-Paris.wav,0,,,237.5752,240.0586,0,1,1.9551,,0,80,80,69,1,70,0,castilian,,,,,,,,,,,,,,,,,,,,,,,,,,,,,,,,,,,,,,,,,,,,,,,,,,,,,,,,
,,,,,,,,,57d940a5995a0b00016350be,U.S school taught Spanish.,13 or older,"no, only English or Spanish",no,2025-07-24_09h58.47.220,empathy_intonation_perc_control,2024.2.4,Win32,59.88023952,57d940a5995a0b00016350be,68817205a84113384fffdfe3,68823b28309112e965833c0f,,,,,,,,,,,,./stim/wavs/castilian_match_declarative-broad-focus_Marta-abre-el-regalo.wav,0,,,240.0596,242.3917,0,1,1.8074,,0,81,81,49,1,50,0,castilian,,,,,,,,,,,,,,,,,,,,,,,,,,,,,,,,,,,,,,,,,,,,,,,,,,,,,,,,
,,,,,,,,,57d940a5995a0b00016350be,U.S school taught Spanish.,13 or older,"no, only English or Spanish",no,2025-07-24_09h58.47.220,empathy_intonation_perc_control,2024.2.4,Win32,59.88023952,57d940a5995a0b00016350be,68817205a84113384fffdfe3,68823b28309112e965833c0f,,,,,,,,,,,,./stim/wavs/puertorican_match_declarative-broad-focus_Daniel-iba-a-Bolivia.wav,0,,,242.392,244.6916,0,1,1.7682,,0,82,82,63,1,64,0,puertorican,,,,,,,,,,,,,,,,,,,,,,,,,,,,,,,,,,,,,,,,,,,,,,,,,,,,,,,,
,,,,,,,,,57d940a5995a0b00016350be,U.S school taught Spanish.,13 or older,"no, only English or Spanish",no,2025-07-24_09h58.47.220,empathy_intonation_perc_control,2024.2.4,Win32,59.88023952,57d940a5995a0b00016350be,68817205a84113384fffdfe3,68823b28309112e965833c0f,,,,,,,,,,,,./stim/wavs/puertorican_mismatch_interrogative-total-yn_La-maestra-vive-en-Paris.wav,1,,,244.6918,247.4587,0,0,2.2331,,0,83,83,41,1,42,1,puertorican,,,,,,,,,,,,,,,,,,,,,,,,,,,,,,,,,,,,,,,,,,,,,,,,,,,,,,,,
,,,,,,,,,57d940a5995a0b00016350be,U.S school taught Spanish.,13 or older,"no, only English or Spanish",no,2025-07-24_09h58.47.220,empathy_intonation_perc_control,2024.2.4,Win32,59.88023952,57d940a5995a0b00016350be,68817205a84113384fffdfe3,68823b28309112e965833c0f,,,,,,,,,,,,./stim/wavs/cuban_match_declarative-broad-focus_Marta-abre-el-regalo.wav,0,,,247.4595,249.7089,0,1,1.7279,,0,84,84,55,1,56,0,cuban,,,,,,,,,,,,,,,,,,,,,,,,,,,,,,,,,,,,,,,,,,,,,,,,,,,,,,,,
,,,,,,,,,57d940a5995a0b00016350be,U.S school taught Spanish.,13 or older,"no, only English or Spanish",no,2025-07-24_09h58.47.220,empathy_intonation_perc_control,2024.2.4,Win32,59.88023952,57d940a5995a0b00016350be,68817205a84113384fffdfe3,68823b28309112e965833c0f,,,,,,,,,,,,./stim/wavs/castilian_mismatch_interrogative-total-yn_Mi-madre-come-la-fruta.wav,1,,,249.7096,251.9247,1,1,1.6927,,0,85,85,26,1,27,0,castilian,,,,,,,,,,,,,,,,,,,,,,,,,,,,,,,,,,,,,,,,,,,,,,,,,,,,,,,,
,,,,,,,,,57d940a5995a0b00016350be,U.S school taught Spanish.,13 or older,"no, only English or Spanish",no,2025-07-24_09h58.47.220,empathy_intonation_perc_control,2024.2.4,Win32,59.88023952,57d940a5995a0b00016350be,68817205a84113384fffdfe3,68823b28309112e965833c0f,,,,,,,,,,,,./stim/wavs/mexican_match_interrogative-total-yn_Emilio-ama-la-marcha.wav,1,,,251.925,253.8917,1,1,1.4339,,0,86,86,15,1,16,0,mexican,,,,,,,,,,,,,,,,,,,,,,,,,,,,,,,,,,,,,,,,,,,,,,,,,,,,,,,,
,,,,,,,,,57d940a5995a0b00016350be,U.S school taught Spanish.,13 or older,"no, only English or Spanish",no,2025-07-24_09h58.47.220,empathy_intonation_perc_control,2024.2.4,Win32,59.88023952,57d940a5995a0b00016350be,68817205a84113384fffdfe3,68823b28309112e965833c0f,,,,,,,,,,,,./stim/wavs/mexican_match_interrogative-total-yn_David-leia-el-libro.wav,1,,,253.8923,255.8915,1,1,1.4702,,0,87,87,14,1,15,0,mexican,,,,,,,,,,,,,,,,,,,,,,,,,,,,,,,,,,,,,,,,,,,,,,,,,,,,,,,,
,,,,,,,"Great! Now we will move on. The next task consists of about 60 trials, in each of which you will see a string of letters. 
  
  Your task is to decide whether this is a real Spanish word or not.", (press the spacebar to continue),57d940a5995a0b00016350be,U.S school taught Spanish.,13 or older,"no, only English or Spanish",no,2025-07-24_09h58.47.220,empathy_intonation_perc_control,2024.2.4,Win32,59.88023952,57d940a5995a0b00016350be,68817205a84113384fffdfe3,68823b28309112e965833c0f,,,,,,,,,,,,,,,,,,,,,,,,,,,,,,255.8946,282.1251,0,0,0,0,1,,,,,,,,,,,,,,,,,,,,,,,,,,,,,,,,,,,,,,,,,,,,,,,,,
,,,,,,,"If you think it is an existing Spanish word, you type '1' (for 'REAL'), and if you think it is not an existing Spanish word, you type '0' (for 'FAKE').", (press the spacebar to continue),57d940a5995a0b00016350be,U.S school taught Spanish.,13 or older,"no, only English or Spanish",no,2025-07-24_09h58.47.220,empathy_intonation_perc_control,2024.2.4,Win32,59.88023952,57d940a5995a0b00016350be,68817205a84113384fffdfe3,68823b28309112e965833c0f,,,,,,,,,,,,,,,,,,,,,,,,,,,,,,282.1269,291.5416,0,1,1,1,1,,,,,,,,,,,,,,,,,,,,,,,,,,,,,,,,,,,,,,,,,,,,,,,,,
,,,,,,,"If you are sure that the word exists, even though you don’t know its exact meaning, you may still respond '1' (REAL). 
  
  But if you are not sure if it is an existing word, you should respond '0' (FAKE).
  
  Let's do a practice round...", (press the spacebar to continue),57d940a5995a0b00016350be,U.S school taught Spanish.,13 or older,"no, only English or Spanish",no,2025-07-24_09h58.47.220,empathy_intonation_perc_control,2024.2.4,Win32,59.88023952,57d940a5995a0b00016350be,68817205a84113384fffdfe3,68823b28309112e965833c0f,,,,,,,,,,,,,,,,,,,,,,,,,,,,,,291.543,298.0084,0,2,2,2,1,,,,,,,,,,,,,,,,,,,,,,,,,,,,,,,,,,,,,,,,,,,,,,,,,
,,,,,,,,,57d940a5995a0b00016350be,U.S school taught Spanish.,13 or older,"no, only English or Spanish",no,2025-07-24_09h58.47.220,empathy_intonation_perc_control,2024.2.4,Win32,59.88023952,57d940a5995a0b00016350be,68817205a84113384fffdfe3,68823b28309112e965833c0f,,,,,,,,,,,,,0,,,,,,,,,,,,,,,,,,,,,,,,298.0127,300.2591,0,1,1.7176,,300.2594,301.2592,0,0,0,0,1,0,depiste,REAL,FAKE,,,,,,,,,,,,,,,,,,,,,,,,,,,,,,,,
,,,,,,,,,57d940a5995a0b00016350be,U.S school taught Spanish.,13 or older,"no, only English or Spanish",no,2025-07-24_09h58.47.220,empathy_intonation_perc_control,2024.2.4,Win32,59.88023952,57d940a5995a0b00016350be,68817205a84113384fffdfe3,68823b28309112e965833c0f,,,,,,,,,,,,,1,,,,,,,,,,,,,,,,,,,,,,,,301.2607,302.8749,1,1,1.082,,302.8749,303.8748,0,1,1,1,1,0,sí,REAL,FAKE,,,,,,,,,,,,,,,,,,,,,,,,,,,,,,,,
,,,,,,,,,57d940a5995a0b00016350be,U.S school taught Spanish.,13 or older,"no, only English or Spanish",no,2025-07-24_09h58.47.220,empathy_intonation_perc_control,2024.2.4,Win32,59.88023952,57d940a5995a0b00016350be,68817205a84113384fffdfe3,68823b28309112e965833c0f,,,,,,,,,,,,,0,,,,,,,,,,,,,,,,,,,,,,,,303.8761,306.175,0,1,1.7861,,306.175,307.175,0,2,2,2,1,0,coné,REAL,FAKE,,,,,,,,,,,,,,,,,,,,,,,,,,,,,,,,
,,,,,,,,,57d940a5995a0b00016350be,U.S school taught Spanish.,13 or older,"no, only English or Spanish",no,2025-07-24_09h58.47.220,empathy_intonation_perc_control,2024.2.4,Win32,59.88023952,57d940a5995a0b00016350be,68817205a84113384fffdfe3,68823b28309112e965833c0f,,,,,,,,,,,,,0,,,,,,,,,,,,,,,,,,,,,,,,307.1759,309.475,1,0,1.7691,,309.4767,310.475,0,3,3,3,1,0,calpar,REAL,FAKE,,,,,,,,,,,,,,,,,,,,,,,,,,,,,,,,
,,,,,,,,,57d940a5995a0b00016350be,U.S school taught Spanish.,13 or older,"no, only English or Spanish",no,2025-07-24_09h58.47.220,empathy_intonation_perc_control,2024.2.4,Win32,59.88023952,57d940a5995a0b00016350be,68817205a84113384fffdfe3,68823b28309112e965833c0f,,,,,,,,,,,,,0,,,,,,,,,,,,,,,,,,,,,,,,310.4759,312.1251,0,1,1.116,,312.1255,313.1251,0,4,4,4,1,0,joten,REAL,FAKE,,,,,,,,,,,,,,,,,,,,,,,,,,,,,,,,
,,,,,,,,,57d940a5995a0b00016350be,U.S school taught Spanish.,13 or older,"no, only English or Spanish",no,2025-07-24_09h58.47.220,empathy_intonation_perc_control,2024.2.4,Win32,59.88023952,57d940a5995a0b00016350be,68817205a84113384fffdfe3,68823b28309112e965833c0f,,,,,,,,,,,,,1,,,,,,,,,,,,,,,,,,,,,,,,313.1259,314.7082,0,0,1.0528,,314.7087,315.7087,0,5,5,5,1,0,sacapuntas,REAL,FAKE,,,,,,,,,,,,,,,,,,,,,,,,,,,,,,,,
,,,,,,,,,57d940a5995a0b00016350be,U.S school taught Spanish.,13 or older,"no, only English or Spanish",no,2025-07-24_09h58.47.220,empathy_intonation_perc_control,2024.2.4,Win32,59.88023952,57d940a5995a0b00016350be,68817205a84113384fffdfe3,68823b28309112e965833c0f,,,,,,,,,,,,,0,,,,,,,,,,,,,,,,,,,,,,,,315.71,317.2583,1,0,1.0157,,317.2583,318.2587,0,6,6,6,1,0,priba,REAL,FAKE,,,,,,,,,,,,,,,,,,,,,,,,,,,,,,,,
,,,,,,,,,57d940a5995a0b00016350be,U.S school taught Spanish.,13 or older,"no, only English or Spanish",no,2025-07-24_09h58.47.220,empathy_intonation_perc_control,2024.2.4,Win32,59.88023952,57d940a5995a0b00016350be,68817205a84113384fffdfe3,68823b28309112e965833c0f,,,,,,,,,,,,,0,,,,,,,,,,,,,,,,,,,,,,,,318.2598,320.3749,1,0,1.5892,,320.3749,321.375,0,7,7,7,1,0,pelasula,REAL,FAKE,,,,,,,,,,,,,,,,,,,,,,,,,,,,,,,,
,,,,,,,,,57d940a5995a0b00016350be,U.S school taught Spanish.,13 or older,"no, only English or Spanish",no,2025-07-24_09h58.47.220,empathy_intonation_perc_control,2024.2.4,Win32,59.88023952,57d940a5995a0b00016350be,68817205a84113384fffdfe3,68823b28309112e965833c0f,,,,,,,,,,,,,1,,,,,,,,,,,,,,,,,,,,,,,,321.3757,323.4083,1,1,1.5,,323.4087,324.409,0,8,8,8,1,0,bien,REAL,FAKE,,,,,,,,,,,,,,,,,,,,,,,,,,,,,,,,
,,,,,,,,,57d940a5995a0b00016350be,U.S school taught Spanish.,13 or older,"no, only English or Spanish",no,2025-07-24_09h58.47.220,empathy_intonation_perc_control,2024.2.4,Win32,59.88023952,57d940a5995a0b00016350be,68817205a84113384fffdfe3,68823b28309112e965833c0f,,,,,,,,,,,,,1,,,,,,,,,,,,,,,,,,,,,,,,324.41,326.0416,1,1,1.1011,,326.0416,327.0416,0,9,9,9,1,0,casa,REAL,FAKE,,,,,,,,,,,,,,,,,,,,,,,,,,,,,,,,
,,,,,,,,,57d940a5995a0b00016350be,U.S school taught Spanish.,13 or older,"no, only English or Spanish",no,2025-07-24_09h58.47.220,empathy_intonation_perc_control,2024.2.4,Win32,59.88023952,57d940a5995a0b00016350be,68817205a84113384fffdfe3,68823b28309112e965833c0f,,,,,,,,,,,,,0,,,,,,,,,,,,,,,,,,,,,,,,327.0425,328.4916,1,0,0.9186,,328.492,329.4915,0,10,10,10,1,0,lejo,REAL,FAKE,,,,,,,,,,,,,,,,,,,,,,,,,,,,,,,,
,,,,,,,,,57d940a5995a0b00016350be,U.S school taught Spanish.,13 or older,"no, only English or Spanish",no,2025-07-24_09h58.47.220,empathy_intonation_perc_control,2024.2.4,Win32,59.88023952,57d940a5995a0b00016350be,68817205a84113384fffdfe3,68823b28309112e965833c0f,,,,,,,,,,,,,0,,,,,,,,,,,,,,,,,,,,,,,,329.4925,332.0083,0,1,1.9869,,332.0096,333.0083,0,11,11,11,1,0,pretantas,REAL,FAKE,,,,,,,,,,,,,,,,,,,,,,,,,,,,,,,,
,,,,,,,,,57d940a5995a0b00016350be,U.S school taught Spanish.,13 or older,"no, only English or Spanish",no,2025-07-24_09h58.47.220,empathy_intonation_perc_control,2024.2.4,Win32,59.88023952,57d940a5995a0b00016350be,68817205a84113384fffdfe3,68823b28309112e965833c0f,,,,,,,,,,,,,,,,,,,,,,,,,,,,,,,,,,,,,,,,,,,,,,,,,,,,,,333.0084,336.6249,,,,,,,,,,,,,,,,,,,,,,,,,,,,,,
,,,,,,,,,57d940a5995a0b00016350be,U.S school taught Spanish.,13 or older,"no, only English or Spanish",no,2025-07-24_09h58.47.220,empathy_intonation_perc_control,2024.2.4,Win32,59.88023952,57d940a5995a0b00016350be,68817205a84113384fffdfe3,68823b28309112e965833c0f,,,,,,,,,,,,,0,,,,,,,,,,,,,,,,,,,,,,,,,,,,,,,,,,,,,1,terzo,,,,,336.6309,338.4254,1,0,1.272,,0,0,0,0,1,REAL,FAKE,,,,,,,,,,,,,,,,,
,,,,,,,,,57d940a5995a0b00016350be,U.S school taught Spanish.,13 or older,"no, only English or Spanish",no,2025-07-24_09h58.47.220,empathy_intonation_perc_control,2024.2.4,Win32,59.88023952,57d940a5995a0b00016350be,68817205a84113384fffdfe3,68823b28309112e965833c0f,,,,,,,,,,,,,0,,,,,,,,,,,,,,,,,,,,,,,,,,,,,,,,,,,,,29,decar,,,,,338.4263,340.309,1,0,1.3599,,0,1,1,28,1,REAL,FAKE,,,,,,,,,,,,,,,,,
,,,,,,,,,57d940a5995a0b00016350be,U.S school taught Spanish.,13 or older,"no, only English or Spanish",no,2025-07-24_09h58.47.220,empathy_intonation_perc_control,2024.2.4,Win32,59.88023952,57d940a5995a0b00016350be,68817205a84113384fffdfe3,68823b28309112e965833c0f,,,,,,,,,,,,,0,,,,,,,,,,,,,,,,,,,,,,,,,,,,,,,,,,,,,84,escuto,,,,,340.3104,342.4249,0,1,1.5807,,0,2,2,83,1,REAL,FAKE,,,,,,,,,,,,,,,,,
,,,,,,,,,57d940a5995a0b00016350be,U.S school taught Spanish.,13 or older,"no, only English or Spanish",no,2025-07-24_09h58.47.220,empathy_intonation_perc_control,2024.2.4,Win32,59.88023952,57d940a5995a0b00016350be,68817205a84113384fffdfe3,68823b28309112e965833c0f,,,,,,,,,,,,,0,,,,,,,,,,,,,,,,,,,,,,,,,,,,,,,,,,,,,87,grodo,,,,,342.4268,344.5248,0,1,1.5743,,0,3,3,86,1,REAL,FAKE,,,,,,,,,,,,,,,,,
,,,,,,,,,57d940a5995a0b00016350be,U.S school taught Spanish.,13 or older,"no, only English or Spanish",no,2025-07-24_09h58.47.220,empathy_intonation_perc_control,2024.2.4,Win32,59.88023952,57d940a5995a0b00016350be,68817205a84113384fffdfe3,68823b28309112e965833c0f,,,,,,,,,,,,,1,,,,,,,,,,,,,,,,,,,,,,,,,,,,,,,,,,,,,25,bisagra,,,,,344.5254,346.8589,0,0,1.7995,,0,4,4,24,1,REAL,FAKE,,,,,,,,,,,,,,,,,
,,,,,,,,,57d940a5995a0b00016350be,U.S school taught Spanish.,13 or older,"no, only English or Spanish",no,2025-07-24_09h58.47.220,empathy_intonation_perc_control,2024.2.4,Win32,59.88023952,57d940a5995a0b00016350be,68817205a84113384fffdfe3,68823b28309112e965833c0f,,,,,,,,,,,,,0,,,,,,,,,,,,,,,,,,,,,,,,,,,,,,,,,,,,,18,arsa,,,,,346.86,348.3083,0,1,0.9192,,0,5,5,17,1,REAL,FAKE,,,,,,,,,,,,,,,,,
,,,,,,,,,57d940a5995a0b00016350be,U.S school taught Spanish.,13 or older,"no, only English or Spanish",no,2025-07-24_09h58.47.220,empathy_intonation_perc_control,2024.2.4,Win32,59.88023952,57d940a5995a0b00016350be,68817205a84113384fffdfe3,68823b28309112e965833c0f,,,,,,,,,,,,,1,,,,,,,,,,,,,,,,,,,,,,,,,,,,,,,,,,,,,6,tergiversar,,,,,348.3093,350.4749,0,0,1.631,,0,6,6,5,1,REAL,FAKE,,,,,,,,,,,,,,,,,
,,,,,,,,,57d940a5995a0b00016350be,U.S school taught Spanish.,13 or older,"no, only English or Spanish",no,2025-07-24_09h58.47.220,empathy_intonation_perc_control,2024.2.4,Win32,59.88023952,57d940a5995a0b00016350be,68817205a84113384fffdfe3,68823b28309112e965833c0f,,,,,,,,,,,,,1,,,,,,,,,,,,,,,,,,,,,,,,,,,,,,,,,,,,,83,guante,,,,,350.4757,351.908,1,1,0.9085,,0,7,7,82,1,REAL,FAKE,,,,,,,,,,,,,,,,,
,,,,,,,,,57d940a5995a0b00016350be,U.S school taught Spanish.,13 or older,"no, only English or Spanish",no,2025-07-24_09h58.47.220,empathy_intonation_perc_control,2024.2.4,Win32,59.88023952,57d940a5995a0b00016350be,68817205a84113384fffdfe3,68823b28309112e965833c0f,,,,,,,,,,,,,0,,,,,,,,,,,,,,,,,,,,,,,,,,,,,,,,,,,,,72,pemición,,,,,351.909,356.3089,0,1,3.8919,,0,8,8,71,1,REAL,FAKE,,,,,,,,,,,,,,,,,
,,,,,,,,,57d940a5995a0b00016350be,U.S school taught Spanish.,13 or older,"no, only English or Spanish",no,2025-07-24_09h58.47.220,empathy_intonation_perc_control,2024.2.4,Win32,59.88023952,57d940a5995a0b00016350be,68817205a84113384fffdfe3,68823b28309112e965833c0f,,,,,,,,,,,,,1,,,,,,,,,,,,,,,,,,,,,,,,,,,,,,,,,,,,,38,estornudar,,,,,356.3102,358.175,0,0,1.3376,,0,9,9,37,1,REAL,FAKE,,,,,,,,,,,,,,,,,
,,,,,,,,,57d940a5995a0b00016350be,U.S school taught Spanish.,13 or older,"no, only English or Spanish",no,2025-07-24_09h58.47.220,empathy_intonation_perc_control,2024.2.4,Win32,59.88023952,57d940a5995a0b00016350be,68817205a84113384fffdfe3,68823b28309112e965833c0f,,,,,,,,,,,,,1,,,,,,,,,,,,,,,,,,,,,,,,,,,,,,,,,,,,,2,pellizcar,,,,,358.176,359.8581,1,1,1.1475,,0,10,10,1,1,REAL,FAKE,,,,,,,,,,,,,,,,,
,,,,,,,,,57d940a5995a0b00016350be,U.S school taught Spanish.,13 or older,"no, only English or Spanish",no,2025-07-24_09h58.47.220,empathy_intonation_perc_control,2024.2.4,Win32,59.88023952,57d940a5995a0b00016350be,68817205a84113384fffdfe3,68823b28309112e965833c0f,,,,,,,,,,,,,1,,,,,,,,,,,,,,,,,,,,,,,,,,,,,,,,,,,,,41,rebuscar,,,,,359.8584,362.4916,0,0,2.1245,,0,11,11,40,1,REAL,FAKE,,,,,,,,,,,,,,,,,
,,,,,,,,,57d940a5995a0b00016350be,U.S school taught Spanish.,13 or older,"no, only English or Spanish",no,2025-07-24_09h58.47.220,empathy_intonation_perc_control,2024.2.4,Win32,59.88023952,57d940a5995a0b00016350be,68817205a84113384fffdfe3,68823b28309112e965833c0f,,,,,,,,,,,,,1,,,,,,,,,,,,,,,,,,,,,,,,,,,,,,,,,,,,,43,canela,,,,,362.4921,364.5251,0,0,1.5013,,0,12,12,42,1,REAL,FAKE,,,,,,,,,,,,,,,,,
,,,,,,,,,57d940a5995a0b00016350be,U.S school taught Spanish.,13 or older,"no, only English or Spanish",no,2025-07-24_09h58.47.220,empathy_intonation_perc_control,2024.2.4,Win32,59.88023952,57d940a5995a0b00016350be,68817205a84113384fffdfe3,68823b28309112e965833c0f,,,,,,,,,,,,,0,,,,,,,,,,,,,,,,,,,,,,,,,,,,,,,,,,,,,92,click the 0 key.,,,,,364.5266,367.7416,0,1,2.6853,,0,13,13,91,1,REAL,FAKE,,,,,,,,,,,,,,,,,
,,,,,,,,,57d940a5995a0b00016350be,U.S school taught Spanish.,13 or older,"no, only English or Spanish",no,2025-07-24_09h58.47.220,empathy_intonation_perc_control,2024.2.4,Win32,59.88023952,57d940a5995a0b00016350be,68817205a84113384fffdfe3,68823b28309112e965833c0f,,,,,,,,,,,,,1,,,,,,,,,,,,,,,,,,,,,,,,,,,,,,,,,,,,,65,bizcocho,,,,,367.7421,370.9917,0,0,2.7227,,0,14,14,64,1,REAL,FAKE,,,,,,,,,,,,,,,,,
,,,,,,,,,57d940a5995a0b00016350be,U.S school taught Spanish.,13 or older,"no, only English or Spanish",no,2025-07-24_09h58.47.220,empathy_intonation_perc_control,2024.2.4,Win32,59.88023952,57d940a5995a0b00016350be,68817205a84113384fffdfe3,68823b28309112e965833c0f,,,,,,,,,,,,,1,,,,,,,,,,,,,,,,,,,,,,,,,,,,,,,,,,,,,9,hacha,,,,,370.9924,372.8586,0,0,1.3358,,0,15,15,8,1,REAL,FAKE,,,,,,,,,,,,,,,,,
,,,,,,,,,57d940a5995a0b00016350be,U.S school taught Spanish.,13 or older,"no, only English or Spanish",no,2025-07-24_09h58.47.220,empathy_intonation_perc_control,2024.2.4,Win32,59.88023952,57d940a5995a0b00016350be,68817205a84113384fffdfe3,68823b28309112e965833c0f,,,,,,,,,,,,,1,,,,,,,,,,,,,,,,,,,,,,,,,,,,,,,,,,,,,7,pésimo,,,,,372.8596,374.3587,1,1,0.9651,,0,16,16,6,1,REAL,FAKE,,,,,,,,,,,,,,,,,
,,,,,,,,,57d940a5995a0b00016350be,U.S school taught Spanish.,13 or older,"no, only English or Spanish",no,2025-07-24_09h58.47.220,empathy_intonation_perc_control,2024.2.4,Win32,59.88023952,57d940a5995a0b00016350be,68817205a84113384fffdfe3,68823b28309112e965833c0f,,,,,,,,,,,,,1,,,,,,,,,,,,,,,,,,,,,,,,,,,,,,,,,,,,,31,pandilla,,,,,374.36,379.0918,0,0,4.1987,,0,17,17,30,1,REAL,FAKE,,,,,,,,,,,,,,,,,
,,,,,,,,,57d940a5995a0b00016350be,U.S school taught Spanish.,13 or older,"no, only English or Spanish",no,2025-07-24_09h58.47.220,empathy_intonation_perc_control,2024.2.4,Win32,59.88023952,57d940a5995a0b00016350be,68817205a84113384fffdfe3,68823b28309112e965833c0f,,,,,,,,,,,,,1,,,,,,,,,,,,,,,,,,,,,,,,,,,,,,,,,,,,,88,acantilado,,,,,379.0927,380.7748,0,0,1.155,,0,18,18,87,1,REAL,FAKE,,,,,,,,,,,,,,,,,
,,,,,,,,,57d940a5995a0b00016350be,U.S school taught Spanish.,13 or older,"no, only English or Spanish",no,2025-07-24_09h58.47.220,empathy_intonation_perc_control,2024.2.4,Win32,59.88023952,57d940a5995a0b00016350be,68817205a84113384fffdfe3,68823b28309112e965833c0f,,,,,,,,,,,,,1,,,,,,,,,,,,,,,,,,,,,,,,,,,,,,,,,,,,,11,cenefa,,,,,380.7758,382.5081,0,0,1.2179,,0,19,19,10,1,REAL,FAKE,,,,,,,,,,,,,,,,,
,,,,,,,,,57d940a5995a0b00016350be,U.S school taught Spanish.,13 or older,"no, only English or Spanish",no,2025-07-24_09h58.47.220,empathy_intonation_perc_control,2024.2.4,Win32,59.88023952,57d940a5995a0b00016350be,68817205a84113384fffdfe3,68823b28309112e965833c0f,,,,,,,,,,,,,1,,,,,,,,,,,,,,,,,,,,,,,,,,,,,,,,,,,,,67,cabello,,,,,382.5084,383.8416,1,1,0.8148,,0,20,20,66,1,REAL,FAKE,,,,,,,,,,,,,,,,,
,,,,,,,,,57d940a5995a0b00016350be,U.S school taught Spanish.,13 or older,"no, only English or Spanish",no,2025-07-24_09h58.47.220,empathy_intonation_perc_control,2024.2.4,Win32,59.88023952,57d940a5995a0b00016350be,68817205a84113384fffdfe3,68823b28309112e965833c0f,,,,,,,,,,,,,0,,,,,,,,,,,,,,,,,,,,,,,,,,,,,,,,,,,,,16,abracer,,,,,383.8422,385.4086,1,0,1.0314,,0,21,21,15,1,REAL,FAKE,,,,,,,,,,,,,,,,,
,,,,,,,,,57d940a5995a0b00016350be,U.S school taught Spanish.,13 or older,"no, only English or Spanish",no,2025-07-24_09h58.47.220,empathy_intonation_perc_control,2024.2.4,Win32,59.88023952,57d940a5995a0b00016350be,68817205a84113384fffdfe3,68823b28309112e965833c0f,,,,,,,,,,,,,1,,,,,,,,,,,,,,,,,,,,,,,,,,,,,,,,,,,,,78,frondoso,,,,,385.4092,387.4248,0,0,1.488,,0,22,22,77,1,REAL,FAKE,,,,,,,,,,,,,,,,,
,,,,,,,,,57d940a5995a0b00016350be,U.S school taught Spanish.,13 or older,"no, only English or Spanish",no,2025-07-24_09h58.47.220,empathy_intonation_perc_control,2024.2.4,Win32,59.88023952,57d940a5995a0b00016350be,68817205a84113384fffdfe3,68823b28309112e965833c0f,,,,,,,,,,,,,1,,,,,,,,,,,,,,,,,,,,,,,,,,,,,,,,,,,,,77,tiburón,,,,,387.4253,389.1417,0,0,1.1905,,0,23,23,76,1,REAL,FAKE,,,,,,,,,,,,,,,,,
,,,,,,,,,57d940a5995a0b00016350be,U.S school taught Spanish.,13 or older,"no, only English or Spanish",no,2025-07-24_09h58.47.220,empathy_intonation_perc_control,2024.2.4,Win32,59.88023952,57d940a5995a0b00016350be,68817205a84113384fffdfe3,68823b28309112e965833c0f,,,,,,,,,,,,,1,,,,,,,,,,,,,,,,,,,,,,,,,,,,,,,,,,,,,56,musgo,,,,,389.1426,391.1917,0,0,1.5151,,0,24,24,55,1,REAL,FAKE,,,,,,,,,,,,,,,,,
,,,,,,,,,57d940a5995a0b00016350be,U.S school taught Spanish.,13 or older,"no, only English or Spanish",no,2025-07-24_09h58.47.220,empathy_intonation_perc_control,2024.2.4,Win32,59.88023952,57d940a5995a0b00016350be,68817205a84113384fffdfe3,68823b28309112e965833c0f,,,,,,,,,,,,,0,,,,,,,,,,,,,,,,,,,,,,,,,,,,,,,,,,,,,79,tropaje,,,,,391.1924,394.8251,1,0,3.1024,,0,25,25,78,1,REAL,FAKE,,,,,,,,,,,,,,,,,
,,,,,,,,,57d940a5995a0b00016350be,U.S school taught Spanish.,13 or older,"no, only English or Spanish",no,2025-07-24_09h58.47.220,empathy_intonation_perc_control,2024.2.4,Win32,59.88023952,57d940a5995a0b00016350be,68817205a84113384fffdfe3,68823b28309112e965833c0f,,,,,,,,,,,,,0,,,,,,,,,,,,,,,,,,,,,,,,,,,,,,,,,,,,,53,vegada,,,,,394.826,396.7416,1,0,1.3965,,0,26,26,52,1,REAL,FAKE,,,,,,,,,,,,,,,,,
,,,,,,,,,57d940a5995a0b00016350be,U.S school taught Spanish.,13 or older,"no, only English or Spanish",no,2025-07-24_09h58.47.220,empathy_intonation_perc_control,2024.2.4,Win32,59.88023952,57d940a5995a0b00016350be,68817205a84113384fffdfe3,68823b28309112e965833c0f,,,,,,,,,,,,,1,,,,,,,,,,,,,,,,,,,,,,,,,,,,,,,,,,,,,3,pulmones,,,,,396.7426,398.8583,1,1,1.5811,,0,27,27,2,1,REAL,FAKE,,,,,,,,,,,,,,,,,
,,,,,,,,,57d940a5995a0b00016350be,U.S school taught Spanish.,13 or older,"no, only English or Spanish",no,2025-07-24_09h58.47.220,empathy_intonation_perc_control,2024.2.4,Win32,59.88023952,57d940a5995a0b00016350be,68817205a84113384fffdfe3,68823b28309112e965833c0f,,,,,,,,,,,,,0,,,,,,,,,,,,,,,,,,,,,,,,,,,,,,,,,,,,,35,rompido,,,,,398.859,400.625,0,1,1.2471,,0,28,28,34,1,REAL,FAKE,,,,,,,,,,,,,,,,,
,,,,,,,,,57d940a5995a0b00016350be,U.S school taught Spanish.,13 or older,"no, only English or Spanish",no,2025-07-24_09h58.47.220,empathy_intonation_perc_control,2024.2.4,Win32,59.88023952,57d940a5995a0b00016350be,68817205a84113384fffdfe3,68823b28309112e965833c0f,,,,,,,,,,,,,0,,,,,,,,,,,,,,,,,,,,,,,,,,,,,,,,,,,,,74,cintro,,,,,400.6256,403.7414,0,1,2.5834,,0,29,29,73,1,REAL,FAKE,,,,,,,,,,,,,,,,,
,,,,,,,,,57d940a5995a0b00016350be,U.S school taught Spanish.,13 or older,"no, only English or Spanish",no,2025-07-24_09h58.47.220,empathy_intonation_perc_control,2024.2.4,Win32,59.88023952,57d940a5995a0b00016350be,68817205a84113384fffdfe3,68823b28309112e965833c0f,,,,,,,,,,,,,1,,,,,,,,,,,,,,,,,,,,,,,,,,,,,,,,,,,,,75,yacer,,,,,403.7419,405.1749,0,0,0.9066,,0,30,30,74,1,REAL,FAKE,,,,,,,,,,,,,,,,,
,,,,,,,,,57d940a5995a0b00016350be,U.S school taught Spanish.,13 or older,"no, only English or Spanish",no,2025-07-24_09h58.47.220,empathy_intonation_perc_control,2024.2.4,Win32,59.88023952,57d940a5995a0b00016350be,68817205a84113384fffdfe3,68823b28309112e965833c0f,,,,,,,,,,,,,0,,,,,,,,,,,,,,,,,,,,,,,,,,,,,,,,,,,,,82,empirador,,,,,405.1754,407.0089,1,0,1.2995,,0,31,31,81,1,REAL,FAKE,,,,,,,,,,,,,,,,,
,,,,,,,,,57d940a5995a0b00016350be,U.S school taught Spanish.,13 or older,"no, only English or Spanish",no,2025-07-24_09h58.47.220,empathy_intonation_perc_control,2024.2.4,Win32,59.88023952,57d940a5995a0b00016350be,68817205a84113384fffdfe3,68823b28309112e965833c0f,,,,,,,,,,,,,1,,,,,,,,,,,,,,,,,,,,,,,,,,,,,,,,,,,,,40,alfombra,,,,,407.0103,409.7251,1,1,2.1839,,0,32,32,39,1,REAL,FAKE,,,,,,,,,,,,,,,,,
,,,,,,,,,57d940a5995a0b00016350be,U.S school taught Spanish.,13 or older,"no, only English or Spanish",no,2025-07-24_09h58.47.220,empathy_intonation_perc_control,2024.2.4,Win32,59.88023952,57d940a5995a0b00016350be,68817205a84113384fffdfe3,68823b28309112e965833c0f,,,,,,,,,,,,,1,,,,,,,,,,,,,,,,,,,,,,,,,,,,,,,,,,,,,60,matar,,,,,409.7262,414.7582,0,0,4.5068,,0,33,33,59,1,REAL,FAKE,,,,,,,,,,,,,,,,,
,,,,,,,,,57d940a5995a0b00016350be,U.S school taught Spanish.,13 or older,"no, only English or Spanish",no,2025-07-24_09h58.47.220,empathy_intonation_perc_control,2024.2.4,Win32,59.88023952,57d940a5995a0b00016350be,68817205a84113384fffdfe3,68823b28309112e965833c0f,,,,,,,,,,,,,1,,,,,,,,,,,,,,,,,,,,,,,,,,,,,,,,,,,,,59,besar,,,,,414.7588,416.4084,0,0,1.1309,,0,34,34,58,1,REAL,FAKE,,,,,,,,,,,,,,,,,
,,,,,,,,,57d940a5995a0b00016350be,U.S school taught Spanish.,13 or older,"no, only English or Spanish",no,2025-07-24_09h58.47.220,empathy_intonation_perc_control,2024.2.4,Win32,59.88023952,57d940a5995a0b00016350be,68817205a84113384fffdfe3,68823b28309112e965833c0f,,,,,,,,,,,,,1,,,,,,,,,,,,,,,,,,,,,,,,,,,,,,,,,,,,,68,alegre,,,,,416.4093,418.1749,1,1,1.2562,,0,35,35,67,1,REAL,FAKE,,,,,,,,,,,,,,,,,
,,,,,,,,,57d940a5995a0b00016350be,U.S school taught Spanish.,13 or older,"no, only English or Spanish",no,2025-07-24_09h58.47.220,empathy_intonation_perc_control,2024.2.4,Win32,59.88023952,57d940a5995a0b00016350be,68817205a84113384fffdfe3,68823b28309112e965833c0f,,,,,,,,,,,,,1,,,,,,,,,,,,,,,,,,,,,,,,,,,,,,,,,,,,,49,ganar,,,,,418.1754,421.2916,1,1,2.6077,,0,36,36,48,1,REAL,FAKE,,,,,,,,,,,,,,,,,
,,,,,,,,,57d940a5995a0b00016350be,U.S school taught Spanish.,13 or older,"no, only English or Spanish",no,2025-07-24_09h58.47.220,empathy_intonation_perc_control,2024.2.4,Win32,59.88023952,57d940a5995a0b00016350be,68817205a84113384fffdfe3,68823b28309112e965833c0f,,,,,,,,,,,,,0,,,,,,,,,,,,,,,,,,,,,,,,,,,,,,,,,,,,,50,flamida,,,,,421.2922,424.2414,0,1,2.4202,,0,37,37,49,1,REAL,FAKE,,,,,,,,,,,,,,,,,
,,,,,,,,,57d940a5995a0b00016350be,U.S school taught Spanish.,13 or older,"no, only English or Spanish",no,2025-07-24_09h58.47.220,empathy_intonation_perc_control,2024.2.4,Win32,59.88023952,57d940a5995a0b00016350be,68817205a84113384fffdfe3,68823b28309112e965833c0f,,,,,,,,,,,,,1,,,,,,,,,,,,,,,,,,,,,,,,,,,,,,,,,,,,,24,látigo,,,,,424.2424,426.5085,0,0,1.7509,,0,38,38,23,1,REAL,FAKE,,,,,,,,,,,,,,,,,
,,,,,,,,,57d940a5995a0b00016350be,U.S school taught Spanish.,13 or older,"no, only English or Spanish",no,2025-07-24_09h58.47.220,empathy_intonation_perc_control,2024.2.4,Win32,59.88023952,57d940a5995a0b00016350be,68817205a84113384fffdfe3,68823b28309112e965833c0f,,,,,,,,,,,,,1,,,,,,,,,,,,,,,,,,,,,,,,,,,,,,,,,,,,,91,click the 1 key.,,,,,426.5096,429.2249,1,1,2.1978,,0,39,39,90,1,REAL,FAKE,,,,,,,,,,,,,,,,,
,,,,,,,,,57d940a5995a0b00016350be,U.S school taught Spanish.,13 or older,"no, only English or Spanish",no,2025-07-24_09h58.47.220,empathy_intonation_perc_control,2024.2.4,Win32,59.88023952,57d940a5995a0b00016350be,68817205a84113384fffdfe3,68823b28309112e965833c0f,,,,,,,,,,,,,0,,,,,,,,,,,,,,,,,,,,,,,,,,,,,,,,,,,,,47,cartinar,,,,,429.2257,431.4083,0,1,1.6483,,0,40,40,46,1,REAL,FAKE,,,,,,,,,,,,,,,,,
,,,,,,,,,57d940a5995a0b00016350be,U.S school taught Spanish.,13 or older,"no, only English or Spanish",no,2025-07-24_09h58.47.220,empathy_intonation_perc_control,2024.2.4,Win32,59.88023952,57d940a5995a0b00016350be,68817205a84113384fffdfe3,68823b28309112e965833c0f,,,,,,,,,,,,,1,,,,,,,,,,,,,,,,,,,,,,,,,,,,,,,,,,,,,85,laúd,,,,,431.4091,433.4918,1,1,1.5765,,0,41,41,84,1,REAL,FAKE,,,,,,,,,,,,,,,,,
,,,,,,,,,57d940a5995a0b00016350be,U.S school taught Spanish.,13 or older,"no, only English or Spanish",no,2025-07-24_09h58.47.220,empathy_intonation_perc_control,2024.2.4,Win32,59.88023952,57d940a5995a0b00016350be,68817205a84113384fffdfe3,68823b28309112e965833c0f,,,,,,,,,,,,,1,,,,,,,,,,,,,,,,,,,,,,,,,,,,,,,,,,,,,45,jilguero,,,,,433.4927,435.2922,0,0,1.2688,,0,42,42,44,1,REAL,FAKE,,,,,,,,,,,,,,,,,
,,,,,,,,,57d940a5995a0b00016350be,U.S school taught Spanish.,13 or older,"no, only English or Spanish",no,2025-07-24_09h58.47.220,empathy_intonation_perc_control,2024.2.4,Win32,59.88023952,57d940a5995a0b00016350be,68817205a84113384fffdfe3,68823b28309112e965833c0f,,,,,,,,,,,,,0,,,,,,,,,,,,,,,,,,,,,,,,,,,,,,,,,,,,,17,floroso,,,,,435.293,436.8915,1,0,1.0656,,0,43,43,16,1,REAL,FAKE,,,,,,,,,,,,,,,,,
,,,,,,,,,57d940a5995a0b00016350be,U.S school taught Spanish.,13 or older,"no, only English or Spanish",no,2025-07-24_09h58.47.220,empathy_intonation_perc_control,2024.2.4,Win32,59.88023952,57d940a5995a0b00016350be,68817205a84113384fffdfe3,68823b28309112e965833c0f,,,,,,,,,,,,,1,,,,,,,,,,,,,,,,,,,,,,,,,,,,,,,,,,,,,22,lacayo,,,,,436.8919,439.0089,0,0,1.5972,,0,44,44,21,1,REAL,FAKE,,,,,,,,,,,,,,,,,
,,,,,,,,,57d940a5995a0b00016350be,U.S school taught Spanish.,13 or older,"no, only English or Spanish",no,2025-07-24_09h58.47.220,empathy_intonation_perc_control,2024.2.4,Win32,59.88023952,57d940a5995a0b00016350be,68817205a84113384fffdfe3,68823b28309112e965833c0f,,,,,,,,,,,,,1,,,,,,,,,,,,,,,,,,,,,,,,,,,,,,,,,,,,,61,seda,,,,,439.0105,443.0087,0,0,3.47,,0,45,45,60,1,REAL,FAKE,,,,,,,,,,,,,,,,,
,,,,,,,,,57d940a5995a0b00016350be,U.S school taught Spanish.,13 or older,"no, only English or Spanish",no,2025-07-24_09h58.47.220,empathy_intonation_perc_control,2024.2.4,Win32,59.88023952,57d940a5995a0b00016350be,68817205a84113384fffdfe3,68823b28309112e965833c0f,,,,,,,,,,,,,1,,,,,,,,,,,,,,,,,,,,,,,,,,,,,,,,,,,,,39,torpe,,,,,443.0098,445.1415,0,0,1.6003,,0,46,46,38,1,REAL,FAKE,,,,,,,,,,,,,,,,,
,,,,,,,,,57d940a5995a0b00016350be,U.S school taught Spanish.,13 or older,"no, only English or Spanish",no,2025-07-24_09h58.47.220,empathy_intonation_perc_control,2024.2.4,Win32,59.88023952,57d940a5995a0b00016350be,68817205a84113384fffdfe3,68823b28309112e965833c0f,,,,,,,,,,,,,1,,,,,,,,,,,,,,,,,,,,,,,,,,,,,,,,,,,,,20,ávido,,,,,445.1421,446.8415,0,0,1.1706,,0,47,47,19,1,REAL,FAKE,,,,,,,,,,,,,,,,,
,,,,,,,,,57d940a5995a0b00016350be,U.S school taught Spanish.,13 or older,"no, only English or Spanish",no,2025-07-24_09h58.47.220,empathy_intonation_perc_control,2024.2.4,Win32,59.88023952,57d940a5995a0b00016350be,68817205a84113384fffdfe3,68823b28309112e965833c0f,,,,,,,,,,,,,1,,,,,,,,,,,,,,,,,,,,,,,,,,,,,,,,,,,,,14,yunque,,,,,446.842,448.5588,0,0,1.1821,,0,48,48,13,1,REAL,FAKE,,,,,,,,,,,,,,,,,
,,,,,,,,,57d940a5995a0b00016350be,U.S school taught Spanish.,13 or older,"no, only English or Spanish",no,2025-07-24_09h58.47.220,empathy_intonation_perc_control,2024.2.4,Win32,59.88023952,57d940a5995a0b00016350be,68817205a84113384fffdfe3,68823b28309112e965833c0f,,,,,,,,,,,,,1,,,,,,,,,,,,,,,,,,,,,,,,,,,,,,,,,,,,,89,prisa,,,,,448.56,450.7582,0,0,1.6666,,0,49,49,88,1,REAL,FAKE,,,,,,,,,,,,,,,,,
,,,,,,,,,57d940a5995a0b00016350be,U.S school taught Spanish.,13 or older,"no, only English or Spanish",no,2025-07-24_09h58.47.220,empathy_intonation_perc_control,2024.2.4,Win32,59.88023952,57d940a5995a0b00016350be,68817205a84113384fffdfe3,68823b28309112e965833c0f,,,,,,,,,,,,,0,,,,,,,,,,,,,,,,,,,,,,,,,,,,,,,,,,,,,8,cadeña,,,,,450.7595,452.2091,1,0,0.9296,,0,50,50,7,1,REAL,FAKE,,,,,,,,,,,,,,,,,
,,,,,,,,,57d940a5995a0b00016350be,U.S school taught Spanish.,13 or older,"no, only English or Spanish",no,2025-07-24_09h58.47.220,empathy_intonation_perc_control,2024.2.4,Win32,59.88023952,57d940a5995a0b00016350be,68817205a84113384fffdfe3,68823b28309112e965833c0f,,,,,,,,,,,,,1,,,,,,,,,,,,,,,,,,,,,,,,,,,,,,,,,,,,,36,loro,,,,,452.2106,453.6248,0,0,0.8859,,0,51,51,35,1,REAL,FAKE,,,,,,,,,,,,,,,,,
,,,,,,,,,57d940a5995a0b00016350be,U.S school taught Spanish.,13 or older,"no, only English or Spanish",no,2025-07-24_09h58.47.220,empathy_intonation_perc_control,2024.2.4,Win32,59.88023952,57d940a5995a0b00016350be,68817205a84113384fffdfe3,68823b28309112e965833c0f,,,,,,,,,,,,,1,,,,,,,,,,,,,,,,,,,,,,,,,,,,,,,,,,,,,51,candado,,,,,453.6252,457.2082,0,0,3.0686,,0,52,52,50,1,REAL,FAKE,,,,,,,,,,,,,,,,,
,,,,,,,,,57d940a5995a0b00016350be,U.S school taught Spanish.,13 or older,"no, only English or Spanish",no,2025-07-24_09h58.47.220,empathy_intonation_perc_control,2024.2.4,Win32,59.88023952,57d940a5995a0b00016350be,68817205a84113384fffdfe3,68823b28309112e965833c0f,,,,,,,,,,,,,0,,,,,,,,,,,,,,,,,,,,,,,,,,,,,,,,,,,,,4,batillón,,,,,457.2088,458.8249,1,0,1.1036,,0,53,53,3,1,REAL,FAKE,,,,,,,,,,,,,,,,,
,,,,,,,,,57d940a5995a0b00016350be,U.S school taught Spanish.,13 or older,"no, only English or Spanish",no,2025-07-24_09h58.47.220,empathy_intonation_perc_control,2024.2.4,Win32,59.88023952,57d940a5995a0b00016350be,68817205a84113384fffdfe3,68823b28309112e965833c0f,,,,,,,,,,,,,1,,,,,,,,,,,,,,,,,,,,,,,,,,,,,,,,,,,,,57,tacaño,,,,,458.8255,461.6249,1,1,2.2652,,0,54,54,56,1,REAL,FAKE,,,,,,,,,,,,,,,,,
,,,,,,,,,57d940a5995a0b00016350be,U.S school taught Spanish.,13 or older,"no, only English or Spanish",no,2025-07-24_09h58.47.220,empathy_intonation_perc_control,2024.2.4,Win32,59.88023952,57d940a5995a0b00016350be,68817205a84113384fffdfe3,68823b28309112e965833c0f,,,,,,,,,,,,,0,,,,,,,,,,,,,,,,,,,,,,,,,,,,,,,,,,,,,42,cadallo,,,,,461.6257,463.1084,1,0,0.959,,0,55,55,41,1,REAL,FAKE,,,,,,,,,,,,,,,,,
,,,,,,,,,57d940a5995a0b00016350be,U.S school taught Spanish.,13 or older,"no, only English or Spanish",no,2025-07-24_09h58.47.220,empathy_intonation_perc_control,2024.2.4,Win32,59.88023952,57d940a5995a0b00016350be,68817205a84113384fffdfe3,68823b28309112e965833c0f,,,,,,,,,,,,,1,,,,,,,,,,,,,,,,,,,,,,,,,,,,,,,,,,,,,90,clavel,,,,,463.1095,464.5417,0,0,0.925,,0,56,56,89,1,REAL,FAKE,,,,,,,,,,,,,,,,,
,,,,,,,,,57d940a5995a0b00016350be,U.S school taught Spanish.,13 or older,"no, only English or Spanish",no,2025-07-24_09h58.47.220,empathy_intonation_perc_control,2024.2.4,Win32,59.88023952,57d940a5995a0b00016350be,68817205a84113384fffdfe3,68823b28309112e965833c0f,,,,,,,,,,,,,1,,,,,,,,,,,,,,,,,,,,,,,,,,,,,,,,,,,,,54,fomentar,,,,,464.5425,468.1914,0,0,3.121,,0,57,57,53,1,REAL,FAKE,,,,,,,,,,,,,,,,,
,,,,,,,,,57d940a5995a0b00016350be,U.S school taught Spanish.,13 or older,"no, only English or Spanish",no,2025-07-24_09h58.47.220,empathy_intonation_perc_control,2024.2.4,Win32,59.88023952,57d940a5995a0b00016350be,68817205a84113384fffdfe3,68823b28309112e965833c0f,,,,,,,,,,,,,1,,,,,,,,,,,,,,,,,,,,,,,,,,,,,,,,,,,,,81,pozo,,,,,468.1919,470.5416,0,0,1.8159,,0,58,58,80,1,REAL,FAKE,,,,,,,,,,,,,,,,,
,,,,,,,,,57d940a5995a0b00016350be,U.S school taught Spanish.,13 or older,"no, only English or Spanish",no,2025-07-24_09h58.47.220,empathy_intonation_perc_control,2024.2.4,Win32,59.88023952,57d940a5995a0b00016350be,68817205a84113384fffdfe3,68823b28309112e965833c0f,,,,,,,,,,,,,0,,,,,,,,,,,,,,,,,,,,,,,,,,,,,,,,,,,,,10,antar,,,,,470.5422,472.0915,1,0,1.0156,,0,59,59,9,1,REAL,FAKE,,,,,,,,,,,,,,,,,
,,,,,,,,,57d940a5995a0b00016350be,U.S school taught Spanish.,13 or older,"no, only English or Spanish",no,2025-07-24_09h58.47.220,empathy_intonation_perc_control,2024.2.4,Win32,59.88023952,57d940a5995a0b00016350be,68817205a84113384fffdfe3,68823b28309112e965833c0f,,,,,,,,,,,,,1,,,,,,,,,,,,,,,,,,,,,,,,,,,,,,,,,,,,,13,helar,,,,,472.0922,473.5082,0,0,0.8837,,0,60,60,12,1,REAL,FAKE,,,,,,,,,,,,,,,,,
,,,,,,,,,57d940a5995a0b00016350be,U.S school taught Spanish.,13 or older,"no, only English or Spanish",no,2025-07-24_09h58.47.220,empathy_intonation_perc_control,2024.2.4,Win32,59.88023952,57d940a5995a0b00016350be,68817205a84113384fffdfe3,68823b28309112e965833c0f,,,,,,,,,,,,,0,,,,,,,,,,,,,,,,,,,,,,,,,,,,,,,,,,,,,21,capillo,,,,,473.5087,474.8916,1,0,0.8476,,0,61,61,20,1,REAL,FAKE,,,,,,,,,,,,,,,,,
,,,,,,,,,57d940a5995a0b00016350be,U.S school taught Spanish.,13 or older,"no, only English or Spanish",no,2025-07-24_09h58.47.220,empathy_intonation_perc_control,2024.2.4,Win32,59.88023952,57d940a5995a0b00016350be,68817205a84113384fffdfe3,68823b28309112e965833c0f,,,,,,,,,,,,,1,,,,,,,,,,,,,,,,,,,,,,,,,,,,,,,,,,,,,26,secuestro,,,,,474.8922,479.825,1,1,4.4042,,0,62,62,25,1,REAL,FAKE,,,,,,,,,,,,,,,,,
,,,,,,,,,57d940a5995a0b00016350be,U.S school taught Spanish.,13 or older,"no, only English or Spanish",no,2025-07-24_09h58.47.220,empathy_intonation_perc_control,2024.2.4,Win32,59.88023952,57d940a5995a0b00016350be,68817205a84113384fffdfe3,68823b28309112e965833c0f,,,,,,,,,,,,,1,,,,,,,,,,,,,,,,,,,,,,,,,,,,,,,,,,,,,15,regar,,,,,479.8259,487.7917,0,0,7.4395,,0,63,63,14,1,REAL,FAKE,,,,,,,,,,,,,,,,,
,,,,,,,,,57d940a5995a0b00016350be,U.S school taught Spanish.,13 or older,"no, only English or Spanish",no,2025-07-24_09h58.47.220,empathy_intonation_perc_control,2024.2.4,Win32,59.88023952,57d940a5995a0b00016350be,68817205a84113384fffdfe3,68823b28309112e965833c0f,,,,,,,,,,,,,1,,,,,,,,,,,,,,,,,,,,,,,,,,,,,,,,,,,,,5,zapato,,,,,487.7923,489.275,1,1,0.9482,,0,64,64,4,1,REAL,FAKE,,,,,,,,,,,,,,,,,
,,,,,,,,,57d940a5995a0b00016350be,U.S school taught Spanish.,13 or older,"no, only English or Spanish",no,2025-07-24_09h58.47.220,empathy_intonation_perc_control,2024.2.4,Win32,59.88023952,57d940a5995a0b00016350be,68817205a84113384fffdfe3,68823b28309112e965833c0f,,,,,,,,,,,,,0,,,,,,,,,,,,,,,,,,,,,,,,,,,,,,,,,,,,,23,lampera,,,,,489.2754,490.7588,1,0,0.9571,,0,65,65,22,1,REAL,FAKE,,,,,,,,,,,,,,,,,
,,,,,,,,,57d940a5995a0b00016350be,U.S school taught Spanish.,13 or older,"no, only English or Spanish",no,2025-07-24_09h58.47.220,empathy_intonation_perc_control,2024.2.4,Win32,59.88023952,57d940a5995a0b00016350be,68817205a84113384fffdfe3,68823b28309112e965833c0f,,,,,,,,,,,,,1,,,,,,,,,,,,,,,,,,,,,,,,,,,,,,,,,,,,,48,ladrón,,,,,490.76,492.709,0,0,1.4156,,0,66,66,47,1,REAL,FAKE,,,,,,,,,,,,,,,,,
,,,,,,,,,57d940a5995a0b00016350be,U.S school taught Spanish.,13 or older,"no, only English or Spanish",no,2025-07-24_09h58.47.220,empathy_intonation_perc_control,2024.2.4,Win32,59.88023952,57d940a5995a0b00016350be,68817205a84113384fffdfe3,68823b28309112e965833c0f,,,,,,,,,,,,,0,,,,,,,,,,,,,,,,,,,,,,,,,,,,,,,,,,,,,32,fatacidad,,,,,492.7103,494.5249,0,1,1.2886,,0,67,67,31,1,REAL,FAKE,,,,,,,,,,,,,,,,,
,,,,,,,,,57d940a5995a0b00016350be,U.S school taught Spanish.,13 or older,"no, only English or Spanish",no,2025-07-24_09h58.47.220,empathy_intonation_perc_control,2024.2.4,Win32,59.88023952,57d940a5995a0b00016350be,68817205a84113384fffdfe3,68823b28309112e965833c0f,,,,,,,,,,,,,1,,,,,,,,,,,,,,,,,,,,,,,,,,,,,,,,,,,,,34,aviso,,,,,494.5257,496.0748,0,0,1.0202,,0,68,68,33,1,REAL,FAKE,,,,,,,,,,,,,,,,,
,,,,,,,,,57d940a5995a0b00016350be,U.S school taught Spanish.,13 or older,"no, only English or Spanish",no,2025-07-24_09h58.47.220,empathy_intonation_perc_control,2024.2.4,Win32,59.88023952,57d940a5995a0b00016350be,68817205a84113384fffdfe3,68823b28309112e965833c0f,,,,,,,,,,,,,0,,,,,,,,,,,,,,,,,,,,,,,,,,,,,,,,,,,,,66,hacido,,,,,496.0753,498.0915,1,0,1.4978,,0,69,69,65,1,REAL,FAKE,,,,,,,,,,,,,,,,,
,,,,,,,,,57d940a5995a0b00016350be,U.S school taught Spanish.,13 or older,"no, only English or Spanish",no,2025-07-24_09h58.47.220,empathy_intonation_perc_control,2024.2.4,Win32,59.88023952,57d940a5995a0b00016350be,68817205a84113384fffdfe3,68823b28309112e965833c0f,,,,,,,,,,,,,1,,,,,,,,,,,,,,,,,,,,,,,,,,,,,,,,,,,,,80,hormiga,,,,,498.092,499.7917,0,0,1.173,,0,70,70,79,1,REAL,FAKE,,,,,,,,,,,,,,,,,
,,,,,,,,,57d940a5995a0b00016350be,U.S school taught Spanish.,13 or older,"no, only English or Spanish",no,2025-07-24_09h58.47.220,empathy_intonation_perc_control,2024.2.4,Win32,59.88023952,57d940a5995a0b00016350be,68817205a84113384fffdfe3,68823b28309112e965833c0f,,,,,,,,,,,,,1,,,,,,,,,,,,,,,,,,,,,,,,,,,,,,,,,,,,,64,orgulloso,,,,,499.7923,501.3248,0,0,1.0084,,0,71,71,63,1,REAL,FAKE,,,,,,,,,,,,,,,,,
,,,,,,,,,57d940a5995a0b00016350be,U.S school taught Spanish.,13 or older,"no, only English or Spanish",no,2025-07-24_09h58.47.220,empathy_intonation_perc_control,2024.2.4,Win32,59.88023952,57d940a5995a0b00016350be,68817205a84113384fffdfe3,68823b28309112e965833c0f,,,,,,,,,,,,,1,,,,,,,,,,,,,,,,,,,,,,,,,,,,,,,,,,,,,71,polvoriento,,,,,501.3254,502.8748,0,0,1.0159,,0,72,72,70,1,REAL,FAKE,,,,,,,,,,,,,,,,,
,,,,,,,,,57d940a5995a0b00016350be,U.S school taught Spanish.,13 or older,"no, only English or Spanish",no,2025-07-24_09h58.47.220,empathy_intonation_perc_control,2024.2.4,Win32,59.88023952,57d940a5995a0b00016350be,68817205a84113384fffdfe3,68823b28309112e965833c0f,,,,,,,,,,,,,1,,,,,,,,,,,,,,,,,,,,,,,,,,,,,,,,,,,,,28,merodear,,,,,502.8755,505.4915,0,0,2.0925,,0,73,73,27,1,REAL,FAKE,,,,,,,,,,,,,,,,,
,,,,,,,,,57d940a5995a0b00016350be,U.S school taught Spanish.,13 or older,"no, only English or Spanish",no,2025-07-24_09h58.47.220,empathy_intonation_perc_control,2024.2.4,Win32,59.88023952,57d940a5995a0b00016350be,68817205a84113384fffdfe3,68823b28309112e965833c0f,,,,,,,,,,,,,1,,,,,,,,,,,,,,,,,,,,,,,,,,,,,,,,,,,,,46,martillo,,,,,505.492,507.7092,0,0,1.6924,,0,74,74,45,1,REAL,FAKE,,,,,,,,,,,,,,,,,
,,,,,,,,,57d940a5995a0b00016350be,U.S school taught Spanish.,13 or older,"no, only English or Spanish",no,2025-07-24_09h58.47.220,empathy_intonation_perc_control,2024.2.4,Win32,59.88023952,57d940a5995a0b00016350be,68817205a84113384fffdfe3,68823b28309112e965833c0f,,,,,,,,,,,,,0,,,,,,,,,,,,,,,,,,,,,,,,,,,,,,,,,,,,,30,alardio,,,,,507.7107,510.2417,0,1,1.9971,,0,75,75,29,1,REAL,FAKE,,,,,,,,,,,,,,,,,
,,,,,,,,,57d940a5995a0b00016350be,U.S school taught Spanish.,13 or older,"no, only English or Spanish",no,2025-07-24_09h58.47.220,empathy_intonation_perc_control,2024.2.4,Win32,59.88023952,57d940a5995a0b00016350be,68817205a84113384fffdfe3,68823b28309112e965833c0f,,,,,,,,,,,,,1,,,,,,,,,,,,,,,,,,,,,,,,,,,,,,,,,,,,,55,nevar,,,,,510.2421,515.8916,0,0,5.1266,,0,76,76,54,1,REAL,FAKE,,,,,,,,,,,,,,,,,
,,,,,,,,,57d940a5995a0b00016350be,U.S school taught Spanish.,13 or older,"no, only English or Spanish",no,2025-07-24_09h58.47.220,empathy_intonation_perc_control,2024.2.4,Win32,59.88023952,57d940a5995a0b00016350be,68817205a84113384fffdfe3,68823b28309112e965833c0f,,,,,,,,,,,,,1,,,,,,,,,,,,,,,,,,,,,,,,,,,,,,,,,,,,,69,engatusar,,,,,515.8921,518.3585,0,0,1.9571,,0,77,77,68,1,REAL,FAKE,,,,,,,,,,,,,,,,,
,,,,,,,,,57d940a5995a0b00016350be,U.S school taught Spanish.,13 or older,"no, only English or Spanish",no,2025-07-24_09h58.47.220,empathy_intonation_perc_control,2024.2.4,Win32,59.88023952,57d940a5995a0b00016350be,68817205a84113384fffdfe3,68823b28309112e965833c0f,,,,,,,,,,,,,1,,,,,,,,,,,,,,,,,,,,,,,,,,,,,,,,,,,,,73,hervidor,,,,,518.3594,520.6915,1,1,1.799,,0,78,78,72,1,REAL,FAKE,,,,,,,,,,,,,,,,,
,,,,,,,,,57d940a5995a0b00016350be,U.S school taught Spanish.,13 or older,"no, only English or Spanish",no,2025-07-24_09h58.47.220,empathy_intonation_perc_control,2024.2.4,Win32,59.88023952,57d940a5995a0b00016350be,68817205a84113384fffdfe3,68823b28309112e965833c0f,,,,,,,,,,,,,1,,,,,,,,,,,,,,,,,,,,,,,,,,,,,,,,,,,,,52,camisa,,,,,520.6921,522.4084,1,1,1.1821,,0,79,79,51,1,REAL,FAKE,,,,,,,,,,,,,,,,,
,,,,,,,,,57d940a5995a0b00016350be,U.S school taught Spanish.,13 or older,"no, only English or Spanish",no,2025-07-24_09h58.47.220,empathy_intonation_perc_control,2024.2.4,Win32,59.88023952,57d940a5995a0b00016350be,68817205a84113384fffdfe3,68823b28309112e965833c0f,,,,,,,,,,,,,0,,,,,,,,,,,,,,,,,,,,,,,,,,,,,,,,,,,,,33,pauca,,,,,522.4095,524.9749,0,1,2.0391,,0,80,80,32,1,REAL,FAKE,,,,,,,,,,,,,,,,,
,,,,,,,,,57d940a5995a0b00016350be,U.S school taught Spanish.,13 or older,"no, only English or Spanish",no,2025-07-24_09h58.47.220,empathy_intonation_perc_control,2024.2.4,Win32,59.88023952,57d940a5995a0b00016350be,68817205a84113384fffdfe3,68823b28309112e965833c0f,,,,,,,,,,,,,0,,,,,,,,,,,,,,,,,,,,,,,,,,,,,,,,,,,,,19,brecedad,,,,,524.9753,526.5748,0,1,1.0651,,0,81,81,18,1,REAL,FAKE,,,,,,,,,,,,,,,,,
,,,,,,,,,57d940a5995a0b00016350be,U.S school taught Spanish.,13 or older,"no, only English or Spanish",no,2025-07-24_09h58.47.220,empathy_intonation_perc_control,2024.2.4,Win32,59.88023952,57d940a5995a0b00016350be,68817205a84113384fffdfe3,68823b28309112e965833c0f,,,,,,,,,,,,,1,,,,,,,,,,,,,,,,,,,,,,,,,,,,,,,,,,,,,76,atar,,,,,526.5754,528.5751,0,0,1.466,,0,82,82,75,1,REAL,FAKE,,,,,,,,,,,,,,,,,
,,,,,,,,,57d940a5995a0b00016350be,U.S school taught Spanish.,13 or older,"no, only English or Spanish",no,2025-07-24_09h58.47.220,empathy_intonation_perc_control,2024.2.4,Win32,59.88023952,57d940a5995a0b00016350be,68817205a84113384fffdfe3,68823b28309112e965833c0f,,,,,,,,,,,,,1,,,,,,,,,,,,,,,,,,,,,,,,,,,,,,,,,,,,,12,asesinato,,,,,528.5758,533.7252,0,0,4.6177,,0,83,83,11,1,REAL,FAKE,,,,,,,,,,,,,,,,,
,,,,,,,,,57d940a5995a0b00016350be,U.S school taught Spanish.,13 or older,"no, only English or Spanish",no,2025-07-24_09h58.47.220,empathy_intonation_perc_control,2024.2.4,Win32,59.88023952,57d940a5995a0b00016350be,68817205a84113384fffdfe3,68823b28309112e965833c0f,,,,,,,,,,,,,0,,,,,,,,,,,,,,,,,,,,,,,,,,,,,,,,,,,,,63,esposante,,,,,533.726,537.9414,1,0,3.6912,,0,84,84,62,1,REAL,FAKE,,,,,,,,,,,,,,,,,
,,,,,,,,,57d940a5995a0b00016350be,U.S school taught Spanish.,13 or older,"no, only English or Spanish",no,2025-07-24_09h58.47.220,empathy_intonation_perc_control,2024.2.4,Win32,59.88023952,57d940a5995a0b00016350be,68817205a84113384fffdfe3,68823b28309112e965833c0f,,,,,,,,,,,,,0,,,,,,,,,,,,,,,,,,,,,,,,,,,,,,,,,,,,,27,acutación,,,,,537.942,541.692,1,0,3.2431,,0,85,85,26,1,REAL,FAKE,,,,,,,,,,,,,,,,,
,,,,,,,,,57d940a5995a0b00016350be,U.S school taught Spanish.,13 or older,"no, only English or Spanish",no,2025-07-24_09h58.47.220,empathy_intonation_perc_control,2024.2.4,Win32,59.88023952,57d940a5995a0b00016350be,68817205a84113384fffdfe3,68823b28309112e965833c0f,,,,,,,,,,,,,1,,,,,,,,,,,,,,,,,,,,,,,,,,,,,,,,,,,,,37,granuja,,,,,541.6934,548.0084,0,0,5.7868,,0,86,86,36,1,REAL,FAKE,,,,,,,,,,,,,,,,,
,,,,,,,,,57d940a5995a0b00016350be,U.S school taught Spanish.,13 or older,"no, only English or Spanish",no,2025-07-24_09h58.47.220,empathy_intonation_perc_control,2024.2.4,Win32,59.88023952,57d940a5995a0b00016350be,68817205a84113384fffdfe3,68823b28309112e965833c0f,,,,,,,,,,,,,0,,,,,,,,,,,,,,,,,,,,,,,,,,,,,,,,,,,,,58,plaudir,,,,,548.0088,552.5415,0,1,4.0246,,0,87,87,57,1,REAL,FAKE,,,,,,,,,,,,,,,,,
,,,,,,,,,57d940a5995a0b00016350be,U.S school taught Spanish.,13 or older,"no, only English or Spanish",no,2025-07-24_09h58.47.220,empathy_intonation_perc_control,2024.2.4,Win32,59.88023952,57d940a5995a0b00016350be,68817205a84113384fffdfe3,68823b28309112e965833c0f,,,,,,,,,,,,,1,,,,,,,,,,,,,,,,,,,,,,,,,,,,,,,,,,,,,62,flaco,,,,,552.542,557.3584,1,1,4.2834,,0,88,88,61,1,REAL,FAKE,,,,,,,,,,,,,,,,,
,,,,,,,,,57d940a5995a0b00016350be,U.S school taught Spanish.,13 or older,"no, only English or Spanish",no,2025-07-24_09h58.47.220,empathy_intonation_perc_control,2024.2.4,Win32,59.88023952,57d940a5995a0b00016350be,68817205a84113384fffdfe3,68823b28309112e965833c0f,,,,,,,,,,,,,1,,,,,,,,,,,,,,,,,,,,,,,,,,,,,,,,,,,,,44,cuchara,,,,,557.359,559.1416,1,1,1.2491,,0,89,89,43,1,REAL,FAKE,,,,,,,,,,,,,,,,,
,,,,,,,,,57d940a5995a0b00016350be,U.S school taught Spanish.,13 or older,"no, only English or Spanish",no,2025-07-24_09h58.47.220,empathy_intonation_perc_control,2024.2.4,Win32,59.88023952,57d940a5995a0b00016350be,68817205a84113384fffdfe3,68823b28309112e965833c0f,,,,,,,,,,,,,1,,,,,,,,,,,,,,,,,,,,,,,,,,,,,,,,,,,,,86,barato,,,,,559.1423,560.4414,1,1,0.7676,,0,90,90,85,1,REAL,FAKE,,,,,,,,,,,,,,,,,
,,,,,,,,,57d940a5995a0b00016350be,U.S school taught Spanish.,13 or older,"no, only English or Spanish",no,2025-07-24_09h58.47.220,empathy_intonation_perc_control,2024.2.4,Win32,59.88023952,57d940a5995a0b00016350be,68817205a84113384fffdfe3,68823b28309112e965833c0f,,,,,,,,,,,,,0,,,,,,,,,,,,,,,,,,,,,,,,,,,,,,,,,,,,,70,temblo,,,,,560.442,562.4751,0,1,1.5016,,0,91,91,69,1,REAL,FAKE,,,,,,,,,,,,,,,,,
,,,,,,,,,57d940a5995a0b00016350be,U.S school taught Spanish.,13 or older,"no, only English or Spanish",no,2025-07-24_09h58.47.220,empathy_intonation_perc_control,2024.2.4,Win32,59.88023952,57d940a5995a0b00016350be,68817205a84113384fffdfe3,68823b28309112e965833c0f,,,,,,,,,,,,,,,,,,,,,,,,,,,,,,,,,,,,,,,,,,,,,,,,,,,,,,,,,,,,,,,,,,,,,562.4753,572.225,,,,,,,,,,,,,,,
,,,,,,,,,57d940a5995a0b00016350be,U.S school taught Spanish.,13 or older,"no, only English or Spanish",no,2025-07-24_09h58.47.220,empathy_intonation_perc_control,2024.2.4,Win32,59.88023952,57d940a5995a0b00016350be,68817205a84113384fffdfe3,68823b28309112e965833c0f,,,,,,,,,,,,,,,,,,,,,,,,,,,1,,,,,,,,,,,,,,,,,,,,,,,,,,,,,,,,,,,,,,,,,,,,572.2302,580.6414,strongly agree,0,0,0,0,1,I can easily tell if someone else wants to enter a conversation.,1,0,1,0,,
,,,,,,,,,57d940a5995a0b00016350be,U.S school taught Spanish.,13 or older,"no, only English or Spanish",no,2025-07-24_09h58.47.220,empathy_intonation_perc_control,2024.2.4,Win32,59.88023952,57d940a5995a0b00016350be,68817205a84113384fffdfe3,68823b28309112e965833c0f,,,,,,,,,,,,,,,,,,,,,,,,,,,2,,,,,,,,,,,,,,,,,,,,,,,,,,,,,,,,,,,,,,,,,,,,580.6426,585.3414,slightly agree,0,1,1,1,1,I prefer animals to humans.,0,1,0,0,,
,,,,,,,,,57d940a5995a0b00016350be,U.S school taught Spanish.,13 or older,"no, only English or Spanish",no,2025-07-24_09h58.47.220,empathy_intonation_perc_control,2024.2.4,Win32,59.88023952,57d940a5995a0b00016350be,68817205a84113384fffdfe3,68823b28309112e965833c0f,,,,,,,,,,,,,,,,,,,,,,,,,,,3,,,,,,,,,,,,,,,,,,,,,,,,,,,,,,,,,,,,,,,,,,,,585.3425,588.9748,strongly agree,0,2,2,2,1,I try to keep up with the current trends and fashions.,0,1,0,0,,
,,,,,,,,,57d940a5995a0b00016350be,U.S school taught Spanish.,13 or older,"no, only English or Spanish",no,2025-07-24_09h58.47.220,empathy_intonation_perc_control,2024.2.4,Win32,59.88023952,57d940a5995a0b00016350be,68817205a84113384fffdfe3,68823b28309112e965833c0f,,,,,,,,,,,,,,,,,,,,,,,,,,,4,,,,,,,,,,,,,,,,,,,,,,,,,,,,,,,,,,,,,,,,,,,,588.9761,595.708,strongly disagree,0,3,3,3,1,"I find it difficult to explain to others things that I understand easily,   when they don't understand it first time.",1,0,0,1,,
,,,,,,,,,57d940a5995a0b00016350be,U.S school taught Spanish.,13 or older,"no, only English or Spanish",no,2025-07-24_09h58.47.220,empathy_intonation_perc_control,2024.2.4,Win32,59.88023952,57d940a5995a0b00016350be,68817205a84113384fffdfe3,68823b28309112e965833c0f,,,,,,,,,,,,,,,,,,,,,,,,,,,5,,,,,,,,,,,,,,,,,,,,,,,,,,,,,,,,,,,,,,,,,,,,595.7087,599.8082,slightly agree,0,4,4,4,1,I dream most nights.,0,1,0,0,,
,,,,,,,,,57d940a5995a0b00016350be,U.S school taught Spanish.,13 or older,"no, only English or Spanish",no,2025-07-24_09h58.47.220,empathy_intonation_perc_control,2024.2.4,Win32,59.88023952,57d940a5995a0b00016350be,68817205a84113384fffdfe3,68823b28309112e965833c0f,,,,,,,,,,,,,,,,,,,,,,,,,,,6,,,,,,,,,,,,,,,,,,,,,,,,,,,,,,,,,,,,,,,,,,,,599.8091,602.3581,slightly agree,0,5,5,5,1,I really enjoy caring for other people.,1,0,1,0,,
,,,,,,,,,57d940a5995a0b00016350be,U.S school taught Spanish.,13 or older,"no, only English or Spanish",no,2025-07-24_09h58.47.220,empathy_intonation_perc_control,2024.2.4,Win32,59.88023952,57d940a5995a0b00016350be,68817205a84113384fffdfe3,68823b28309112e965833c0f,,,,,,,,,,,,,,,,,,,,,,,,,,,7,,,,,,,,,,,,,,,,,,,,,,,,,,,,,,,,,,,,,,,,,,,,602.359,605.9415,strongly agree,0,6,6,6,1,I try to solve my own problems rather than discussing them with others.,0,1,0,0,,
,,,,,,,,,57d940a5995a0b00016350be,U.S school taught Spanish.,13 or older,"no, only English or Spanish",no,2025-07-24_09h58.47.220,empathy_intonation_perc_control,2024.2.4,Win32,59.88023952,57d940a5995a0b00016350be,68817205a84113384fffdfe3,68823b28309112e965833c0f,,,,,,,,,,,,,,,,,,,,,,,,,,,8,,,,,,,,,,,,,,,,,,,,,,,,,,,,,,,,,,,,,,,,,,,,605.9422,610.0081,strongly disagree,0,7,7,7,1,I find it hard to know what to do in a social situation.,1,0,0,1,,
,,,,,,,,,57d940a5995a0b00016350be,U.S school taught Spanish.,13 or older,"no, only English or Spanish",no,2025-07-24_09h58.47.220,empathy_intonation_perc_control,2024.2.4,Win32,59.88023952,57d940a5995a0b00016350be,68817205a84113384fffdfe3,68823b28309112e965833c0f,,,,,,,,,,,,,,,,,,,,,,,,,,,9,,,,,,,,,,,,,,,,,,,,,,,,,,,,,,,,,,,,,,,,,,,,610.0088,613.6247,strongly disagree,0,8,8,8,1,I am at my best first thing in the morning.,0,1,0,0,,
,,,,,,,,,57d940a5995a0b00016350be,U.S school taught Spanish.,13 or older,"no, only English or Spanish",no,2025-07-24_09h58.47.220,empathy_intonation_perc_control,2024.2.4,Win32,59.88023952,57d940a5995a0b00016350be,68817205a84113384fffdfe3,68823b28309112e965833c0f,,,,,,,,,,,,,,,,,,,,,,,,,,,10,,,,,,,,,,,,,,,,,,,,,,,,,,,,,,,,,,,,,,,,,,,,613.6257,619.9914,slightly disagree,0,9,9,9,1,People often tell me that I went too far in driving my point home in a discussion.,1,0,0,1,,
,,,,,,,,,57d940a5995a0b00016350be,U.S school taught Spanish.,13 or older,"no, only English or Spanish",no,2025-07-24_09h58.47.220,empathy_intonation_perc_control,2024.2.4,Win32,59.88023952,57d940a5995a0b00016350be,68817205a84113384fffdfe3,68823b28309112e965833c0f,,,,,,,,,,,,,,,,,,,,,,,,,,,11,,,,,,,,,,,,,,,,,,,,,,,,,,,,,,,,,,,,,,,,,,,,619.9923,627.5083,slightly agree,0,10,10,10,1,It doesn't bother me too much if I am late meeting a friend.,1,0,0,1,,
,,,,,,,,,57d940a5995a0b00016350be,U.S school taught Spanish.,13 or older,"no, only English or Spanish",no,2025-07-24_09h58.47.220,empathy_intonation_perc_control,2024.2.4,Win32,59.88023952,57d940a5995a0b00016350be,68817205a84113384fffdfe3,68823b28309112e965833c0f,,,,,,,,,,,,,,,,,,,,,,,,,,,12,,,,,,,,,,,,,,,,,,,,,,,,,,,,,,,,,,,,,,,,,,,,627.5094,632.1915,strongly disagree,0,11,11,11,1,"Friendships and relationships are just too difficult, so I tend not to 
  bother with them.",1,0,0,1,,
,,,,,,,,,57d940a5995a0b00016350be,U.S school taught Spanish.,13 or older,"no, only English or Spanish",no,2025-07-24_09h58.47.220,empathy_intonation_perc_control,2024.2.4,Win32,59.88023952,57d940a5995a0b00016350be,68817205a84113384fffdfe3,68823b28309112e965833c0f,,,,,,,,,,,,,,,,,,,,,,,,,,,13,,,,,,,,,,,,,,,,,,,,,,,,,,,,,,,,,,,,,,,,,,,,632.1923,635.7582,slightly disagree,0,12,12,12,1,"I would never break a law, no matter how minor.",0,1,0,0,,
,,,,,,,,,57d940a5995a0b00016350be,U.S school taught Spanish.,13 or older,"no, only English or Spanish",no,2025-07-24_09h58.47.220,empathy_intonation_perc_control,2024.2.4,Win32,59.88023952,57d940a5995a0b00016350be,68817205a84113384fffdfe3,68823b28309112e965833c0f,,,,,,,,,,,,,,,,,,,,,,,,,,,14,,,,,,,,,,,,,,,,,,,,,,,,,,,,,,,,,,,,,,,,,,,,635.7591,641.0914,strongly disagree,0,13,13,13,1,I often find it difficult to judge if something is rude or polite.,1,0,0,1,,
,,,,,,,,,57d940a5995a0b00016350be,U.S school taught Spanish.,13 or older,"no, only English or Spanish",no,2025-07-24_09h58.47.220,empathy_intonation_perc_control,2024.2.4,Win32,59.88023952,57d940a5995a0b00016350be,68817205a84113384fffdfe3,68823b28309112e965833c0f,,,,,,,,,,,,,,,,,,,,,,,,,,,15,,,,,,,,,,,,,,,,,,,,,,,,,,,,,,,,,,,,,,,,,,,,641.0924,645.7081,strongly disagree,0,14,14,14,1,"In a conversation, I tend to focus on my own thoughts rather than on what 
  my listener might be thinking.",1,0,0,1,,
