instructions_2afc.started,instructions_2afc.stopped,instructions_2afc_loop.thisRepN,instructions_2afc_loop.thisTrialN,instructions_2afc_loop.thisN,instructions_2afc_loop.thisIndex,instructions_2afc_loop.ran,instructions_text,continue_text,participant_id,"What variety of Spanish are you most familiar with? (e.g., Peruvian, Spanish, Mexican)",At what age did you begin learning Spanish?,Are you proficient in any languages other than English/Spanish?,"Are you familiar with Caribbean (e.g., Caribbean, Puerto Rican) or Galician Spanish?",date,expName,psychopyVersion,OS,frameRate,id,study_id,session,practice_2afc.started,practice_2afc.stopped,key_resp_2afc_practice.keys,key_resp_2afc_practice.corr,key_resp_2afc_practice.rt,key_resp_2afc_practice.duration,trials_2afc_practice_loop.thisRepN,trials_2afc_practice_loop.thisTrialN,trials_2afc_practice_loop.thisN,trials_2afc_practice_loop.thisIndex,trials_2afc_practice_loop.ran,path,correct_response,check_2afc.started,check_2afc.stopped,trial_2afc.started,trial_2afc.stopped,key_resp_2afc_trial.keys,key_resp_2afc_trial.corr,key_resp_2afc_trial.rt,key_resp_2afc_trial.duration,trials_2afc_loop.thisRepN,trials_2afc_loop.thisTrialN,trials_2afc_loop.thisN,trials_2afc_loop.thisIndex,trials_2afc_loop.ran,item_num,target,variety,instructions_lextale.started,instructions_lextale.stopped,instructions_lextale_loop.thisRepN,instructions_lextale_loop.thisTrialN,instructions_lextale_loop.thisN,instructions_lextale_loop.thisIndex,instructions_lextale_loop.ran,practice_lextale.started,practice_lextale.stopped,key_resp_lextale_practice.keys,key_resp_lextale_practice.corr,key_resp_lextale_practice.rt,key_resp_lextale_practice.duration,practice_feedback_lextale.started,practice_feedback_lextale.stopped,trials_lextale_practice_loop.thisRepN,trials_lextale_practice_loop.thisTrialN,trials_lextale_practice_loop.thisN,trials_lextale_practice_loop.thisIndex,trials_lextale_practice_loop.ran,stim,word,prac_button_real,prac_button_false,check_lextale.started,check_lextale.stopped,trial_lextale.started,trial_lextale.stopped,key_resp_lextale_trial.keys,key_resp_lextale_trial.corr,key_resp_lextale_trial.rt,key_resp_lextale_trial.duration,trials_lextale_loop.thisRepN,trials_lextale_loop.thisTrialN,trials_lextale_loop.thisN,trials_lextale_loop.thisIndex,trials_lextale_loop.ran,button_real,button_false,instructions_eq.started,instructions_eq.stopped,trial_eq.started,trial_eq.stopped,slider_eq_trial.response,trials_eq_loop.thisRepN,trials_eq_loop.thisTrialN,trials_eq_loop.thisN,trials_eq_loop.thisIndex,trials_eq_loop.ran,item,is_test_item,is_distractor,is_agree_score,is_disagree_score,end_exp.started,end_exp.stopped
0.0067,6.2369,0,0,0,0,1,"In the following task you are going to hear a series of utterances. 

  You will decide if the utterances sound like questions or not using your keyboard.", (press the spacebar to continue),5a53e59af6c5170001949a39,Mexican,13 or older,"no, only English or Spanish",no,2025-07-23_23h49.12.212,empathy_intonation_perc_control,2024.2.4,MacIntel,59.88023952,5a53e59af6c5170001949a39,68817205a84113384fffdfe3,6881ad00c7681f81996ad528,,,,,,,,,,,,,,,,,,,,,,,,,,,,,,,,,,,,,,,,,,,,,,,,,,,,,,,,,,,,,,,,,,,,,,,,,,,,,,,,,,,,,
6.2384,11.6203,0,1,1,1,1,"If you believe the utterance is a question, type '1' (for 'yes') and if you do not 
  believe it is a question type '0' (for 'no').

  Let's practice a bit...", (press the spacebar to continue),5a53e59af6c5170001949a39,Mexican,13 or older,"no, only English or Spanish",no,2025-07-23_23h49.12.212,empathy_intonation_perc_control,2024.2.4,MacIntel,59.88023952,5a53e59af6c5170001949a39,68817205a84113384fffdfe3,6881ad00c7681f81996ad528,,,,,,,,,,,,,,,,,,,,,,,,,,,,,,,,,,,,,,,,,,,,,,,,,,,,,,,,,,,,,,,,,,,,,,,,,,,,,,,,,,,,,
,,,,,,,,,5a53e59af6c5170001949a39,Mexican,13 or older,"no, only English or Spanish",no,2025-07-23_23h49.12.212,empathy_intonation_perc_control,2024.2.4,MacIntel,59.88023952,5a53e59af6c5170001949a39,68817205a84113384fffdfe3,6881ad00c7681f81996ad528,11.636,19.32,0,0,7.1665,,0,0,0,3,1,./stim/wavs/mexican_question_filler_Felipe-no-tiene-contrasena.wav,1,,,,,,,,,,,,,,,,,,,,,,,,,,,,,,,,,,,,,,,,,,,,,,,,,,,,,,,,,,,,,,,,,,,,,,,,
,,,,,,,,,5a53e59af6c5170001949a39,Mexican,13 or older,"no, only English or Spanish",no,2025-07-23_23h49.12.212,empathy_intonation_perc_control,2024.2.4,MacIntel,59.88023952,5a53e59af6c5170001949a39,68817205a84113384fffdfe3,6881ad00c7681f81996ad528,19.327,23.9521,0,1,4.1009,,0,1,1,6,1,./stim/wavs/peruvian_statement_filler_El-nino-habla-con-su-madre.wav,0,,,,,,,,,,,,,,,,,,,,,,,,,,,,,,,,,,,,,,,,,,,,,,,,,,,,,,,,,,,,,,,,,,,,,,,,
,,,,,,,,,5a53e59af6c5170001949a39,Mexican,13 or older,"no, only English or Spanish",no,2025-07-23_23h49.12.212,empathy_intonation_perc_control,2024.2.4,MacIntel,59.88023952,5a53e59af6c5170001949a39,68817205a84113384fffdfe3,6881ad00c7681f81996ad528,23.9574,26.7695,1,1,2.2928,,0,2,2,2,1,./stim/wavs/chilean_question_filler_Mi-padre-cantaba-bien.wav,1,,,,,,,,,,,,,,,,,,,,,,,,,,,,,,,,,,,,,,,,,,,,,,,,,,,,,,,,,,,,,,,,,,,,,,,,
,,,,,,,,,5a53e59af6c5170001949a39,Mexican,13 or older,"no, only English or Spanish",no,2025-07-23_23h49.12.212,empathy_intonation_perc_control,2024.2.4,MacIntel,59.88023952,5a53e59af6c5170001949a39,68817205a84113384fffdfe3,6881ad00c7681f81996ad528,26.7788,28.8866,1,1,1.5839,,0,3,3,1,1,./stim/wavs/argentine_question_filler_Mi-vecino-habla-mucho.wav,1,,,,,,,,,,,,,,,,,,,,,,,,,,,,,,,,,,,,,,,,,,,,,,,,,,,,,,,,,,,,,,,,,,,,,,,,
,,,,,,,,,5a53e59af6c5170001949a39,Mexican,13 or older,"no, only English or Spanish",no,2025-07-23_23h49.12.212,empathy_intonation_perc_control,2024.2.4,MacIntel,59.88023952,5a53e59af6c5170001949a39,68817205a84113384fffdfe3,6881ad00c7681f81996ad528,28.8872,31.4355,1,1,2.0172,,0,4,4,0,1,./stim/wavs/castilian_question_filler_Mi-esposo-conoce-al-chico.wav,1,,,,,,,,,,,,,,,,,,,,,,,,,,,,,,,,,,,,,,,,,,,,,,,,,,,,,,,,,,,,,,,,,,,,,,,,
,,,,,,,,,5a53e59af6c5170001949a39,Mexican,13 or older,"no, only English or Spanish",no,2025-07-23_23h49.12.212,empathy_intonation_perc_control,2024.2.4,MacIntel,59.88023952,5a53e59af6c5170001949a39,68817205a84113384fffdfe3,6881ad00c7681f81996ad528,31.4365,34.2866,0,1,2.3379,,0,5,5,4,1,./stim/wavs/cuban_statement_filler_Cocinabas-por-la-noche.wav,0,,,,,,,,,,,,,,,,,,,,,,,,,,,,,,,,,,,,,,,,,,,,,,,,,,,,,,,,,,,,,,,,,,,,,,,,
,,,,,,,,,5a53e59af6c5170001949a39,Mexican,13 or older,"no, only English or Spanish",no,2025-07-23_23h49.12.212,empathy_intonation_perc_control,2024.2.4,MacIntel,59.88023952,5a53e59af6c5170001949a39,68817205a84113384fffdfe3,6881ad00c7681f81996ad528,34.2874,36.9366,0,1,2.1192,,0,6,6,5,1,./stim/wavs/andalusian_statement_filler_Alberto-nunca-se-afeita.wav,0,,,,,,,,,,,,,,,,,,,,,,,,,,,,,,,,,,,,,,,,,,,,,,,,,,,,,,,,,,,,,,,,,,,,,,,,
,,,,,,,,,5a53e59af6c5170001949a39,Mexican,13 or older,"no, only English or Spanish",no,2025-07-23_23h49.12.212,empathy_intonation_perc_control,2024.2.4,MacIntel,59.88023952,5a53e59af6c5170001949a39,68817205a84113384fffdfe3,6881ad00c7681f81996ad528,36.9491,39.27,0,1,1.8005,,0,7,7,7,1,./stim/wavs/puertorican_statement_filler_La-nina-pinta-con-su-amiga.wav,0,,,,,,,,,,,,,,,,,,,,,,,,,,,,,,,,,,,,,,,,,,,,,,,,,,,,,,,,,,,,,,,,,,,,,,,,
,,,,,,,,,5a53e59af6c5170001949a39,Mexican,13 or older,"no, only English or Spanish",no,2025-07-23_23h49.12.212,empathy_intonation_perc_control,2024.2.4,MacIntel,59.88023952,5a53e59af6c5170001949a39,68817205a84113384fffdfe3,6881ad00c7681f81996ad528,,,,,,,,,,,,,,39.2722,42.804,,,,,,,,,,,,,,,,,,,,,,,,,,,,,,,,,,,,,,,,,,,,,,,,,,,,,,,,,,,,,,,,,,,,,,
,,,,,,,,,5a53e59af6c5170001949a39,Mexican,13 or older,"no, only English or Spanish",no,2025-07-23_23h49.12.212,empathy_intonation_perc_control,2024.2.4,MacIntel,59.88023952,5a53e59af6c5170001949a39,68817205a84113384fffdfe3,6881ad00c7681f81996ad528,,,,,,,,,,,,./stim/wavs/castilian_mismatch_declarative-broad-focus_La-maestra-vive-en-Paris.wav,0,,,42.8262,47.1372,0,1,3.7943,,0,0,0,69,1,70,0,castilian,,,,,,,,,,,,,,,,,,,,,,,,,,,,,,,,,,,,,,,,,,,,,,,,,,,,,,,,
,,,,,,,,,5a53e59af6c5170001949a39,Mexican,13 or older,"no, only English or Spanish",no,2025-07-23_23h49.12.212,empathy_intonation_perc_control,2024.2.4,MacIntel,59.88023952,5a53e59af6c5170001949a39,68817205a84113384fffdfe3,6881ad00c7681f81996ad528,,,,,,,,,,,,./stim/wavs/castilian_match_interrogative-total-yn_Manuela-vende-el-carro.wav,1,,,47.1494,49.5031,1,1,1.8381,,0,1,1,2,1,3,0,castilian,,,,,,,,,,,,,,,,,,,,,,,,,,,,,,,,,,,,,,,,,,,,,,,,,,,,,,,,
,,,,,,,,,5a53e59af6c5170001949a39,Mexican,13 or older,"no, only English or Spanish",no,2025-07-23_23h49.12.212,empathy_intonation_perc_control,2024.2.4,MacIntel,59.88023952,5a53e59af6c5170001949a39,68817205a84113384fffdfe3,6881ad00c7681f81996ad528,,,,,,,,,,,,./stim/wavs/cuban_match_declarative-broad-focus_Mariano-habla-del-tiempo.wav,0,,,49.5042,52.0532,0,1,2.026,,0,2,2,54,1,55,0,cuban,,,,,,,,,,,,,,,,,,,,,,,,,,,,,,,,,,,,,,,,,,,,,,,,,,,,,,,,
,,,,,,,,,5a53e59af6c5170001949a39,Mexican,13 or older,"no, only English or Spanish",no,2025-07-23_23h49.12.212,empathy_intonation_perc_control,2024.2.4,MacIntel,59.88023952,5a53e59af6c5170001949a39,68817205a84113384fffdfe3,6881ad00c7681f81996ad528,,,,,,,,,,,,./stim/wavs/puertorican_mismatch_interrogative-total-yn_Mi-madre-come-la-fruta.wav,1,,,52.054,54.2531,0,0,1.6724,,0,3,3,43,1,44,1,puertorican,,,,,,,,,,,,,,,,,,,,,,,,,,,,,,,,,,,,,,,,,,,,,,,,,,,,,,,,
,,,,,,,,,5a53e59af6c5170001949a39,Mexican,13 or older,"no, only English or Spanish",no,2025-07-23_23h49.12.212,empathy_intonation_perc_control,2024.2.4,MacIntel,59.88023952,5a53e59af6c5170001949a39,68817205a84113384fffdfe3,6881ad00c7681f81996ad528,,,,,,,,,,,,./stim/wavs/puertorican_match_interrogative-total-yn_Emilio-ama-la-marcha.wav,1,,,54.2539,56.4529,0,0,1.6738,,0,4,4,21,1,22,1,puertorican,,,,,,,,,,,,,,,,,,,,,,,,,,,,,,,,,,,,,,,,,,,,,,,,,,,,,,,,
,,,,,,,,,5a53e59af6c5170001949a39,Mexican,13 or older,"no, only English or Spanish",no,2025-07-23_23h49.12.212,empathy_intonation_perc_control,2024.2.4,MacIntel,59.88023952,5a53e59af6c5170001949a39,68817205a84113384fffdfe3,6881ad00c7681f81996ad528,,,,,,,,,,,,./stim/wavs/cuban_mismatch_interrogative-total-yn_Mi-tia-odia-la-lluvia.wav,1,,,56.4535,58.8198,0,0,1.8341,,0,5,5,33,1,34,1,cuban,,,,,,,,,,,,,,,,,,,,,,,,,,,,,,,,,,,,,,,,,,,,,,,,,,,,,,,,
,,,,,,,,,5a53e59af6c5170001949a39,Mexican,13 or older,"no, only English or Spanish",no,2025-07-23_23h49.12.212,empathy_intonation_perc_control,2024.2.4,MacIntel,59.88023952,5a53e59af6c5170001949a39,68817205a84113384fffdfe3,6881ad00c7681f81996ad528,,,,,,,,,,,,./stim/wavs/puertorican_match_interrogative-total-yn_Maria-bebe-el-vino.wav,1,,,58.8316,60.9865,0,0,1.6354,,0,6,6,23,1,24,1,puertorican,,,,,,,,,,,,,,,,,,,,,,,,,,,,,,,,,,,,,,,,,,,,,,,,,,,,,,,,
,,,,,,,,,5a53e59af6c5170001949a39,Mexican,13 or older,"no, only English or Spanish",no,2025-07-23_23h49.12.212,empathy_intonation_perc_control,2024.2.4,MacIntel,59.88023952,5a53e59af6c5170001949a39,68817205a84113384fffdfe3,6881ad00c7681f81996ad528,,,,,,,,,,,,./stim/wavs/castilian_mismatch_interrogative-total-yn_Mi-madre-come-la-fruta.wav,1,,,60.9877,63.203,1,1,1.6839,,0,7,7,26,1,27,0,castilian,,,,,,,,,,,,,,,,,,,,,,,,,,,,,,,,,,,,,,,,,,,,,,,,,,,,,,,,
,,,,,,,,,5a53e59af6c5170001949a39,Mexican,13 or older,"no, only English or Spanish",no,2025-07-23_23h49.12.212,empathy_intonation_perc_control,2024.2.4,MacIntel,59.88023952,5a53e59af6c5170001949a39,68817205a84113384fffdfe3,6881ad00c7681f81996ad528,,,,,,,,,,,,./stim/wavs/mexican_match_interrogative-total-yn_Emilio-ama-la-marcha.wav,1,,,63.2039,65.1695,1,1,1.4452,,0,8,8,15,1,16,0,mexican,,,,,,,,,,,,,,,,,,,,,,,,,,,,,,,,,,,,,,,,,,,,,,,,,,,,,,,,
,,,,,,,,,5a53e59af6c5170001949a39,Mexican,13 or older,"no, only English or Spanish",no,2025-07-23_23h49.12.212,empathy_intonation_perc_control,2024.2.4,MacIntel,59.88023952,5a53e59af6c5170001949a39,68817205a84113384fffdfe3,6881ad00c7681f81996ad528,,,,,,,,,,,,./stim/wavs/mexican_match_declarative-broad-focus_Mariano-habla-del-tiempo.wav,0,,,65.17,67.3534,0,1,1.6626,,0,9,9,60,1,61,0,mexican,,,,,,,,,,,,,,,,,,,,,,,,,,,,,,,,,,,,,,,,,,,,,,,,,,,,,,,,
,,,,,,,,,5a53e59af6c5170001949a39,Mexican,13 or older,"no, only English or Spanish",no,2025-07-23_23h49.12.212,empathy_intonation_perc_control,2024.2.4,MacIntel,59.88023952,5a53e59af6c5170001949a39,68817205a84113384fffdfe3,6881ad00c7681f81996ad528,,,,,,,,,,,,./stim/wavs/castilian_mismatch_declarative-broad-focus_Mi-tia-odia-la-lluvia.wav,0,,,67.3546,69.7863,0,1,1.9014,,0,10,10,72,1,73,0,castilian,,,,,,,,,,,,,,,,,,,,,,,,,,,,,,,,,,,,,,,,,,,,,,,,,,,,,,,,
,,,,,,,,,5a53e59af6c5170001949a39,Mexican,13 or older,"no, only English or Spanish",no,2025-07-23_23h49.12.212,empathy_intonation_perc_control,2024.2.4,MacIntel,59.88023952,5a53e59af6c5170001949a39,68817205a84113384fffdfe3,6881ad00c7681f81996ad528,,,,,,,,,,,,./stim/wavs/cuban_match_interrogative-total-yn_Daniel-iba-a-Bolivia.wav,1,,,69.7873,71.8197,0,0,1.5023,,0,11,11,7,1,8,1,cuban,,,,,,,,,,,,,,,,,,,,,,,,,,,,,,,,,,,,,,,,,,,,,,,,,,,,,,,,
,,,,,,,,,5a53e59af6c5170001949a39,Mexican,13 or older,"no, only English or Spanish",no,2025-07-23_23h49.12.212,empathy_intonation_perc_control,2024.2.4,MacIntel,59.88023952,5a53e59af6c5170001949a39,68817205a84113384fffdfe3,6881ad00c7681f81996ad528,,,,,,,,,,,,./stim/wavs/castilian_mismatch_interrogative-total-yn_Mi-novio-viene-del-lago.wav,1,,,71.8206,74.2697,1,1,1.917,,0,12,12,27,1,28,0,castilian,,,,,,,,,,,,,,,,,,,,,,,,,,,,,,,,,,,,,,,,,,,,,,,,,,,,,,,,
,,,,,,,,,5a53e59af6c5170001949a39,Mexican,13 or older,"no, only English or Spanish",no,2025-07-23_23h49.12.212,empathy_intonation_perc_control,2024.2.4,MacIntel,59.88023952,5a53e59af6c5170001949a39,68817205a84113384fffdfe3,6881ad00c7681f81996ad528,,,,,,,,,,,,./stim/wavs/puertorican_match_interrogative-total-yn_Daniel-iba-a-Bolivia.wav,1,,,74.2705,76.4363,0,0,1.6396,,0,13,13,19,1,20,1,puertorican,,,,,,,,,,,,,,,,,,,,,,,,,,,,,,,,,,,,,,,,,,,,,,,,,,,,,,,,
,,,,,,,,,5a53e59af6c5170001949a39,Mexican,13 or older,"no, only English or Spanish",no,2025-07-23_23h49.12.212,empathy_intonation_perc_control,2024.2.4,MacIntel,59.88023952,5a53e59af6c5170001949a39,68817205a84113384fffdfe3,6881ad00c7681f81996ad528,,,,,,,,,,,,./stim/wavs/mexican_match_declarative-broad-focus_Ana-lleva-el-abrigo.wav,0,,,76.4371,78.3696,0,1,1.404,,0,14,14,56,1,57,0,mexican,,,,,,,,,,,,,,,,,,,,,,,,,,,,,,,,,,,,,,,,,,,,,,,,,,,,,,,,
,,,,,,,,,5a53e59af6c5170001949a39,Mexican,13 or older,"no, only English or Spanish",no,2025-07-23_23h49.12.212,empathy_intonation_perc_control,2024.2.4,MacIntel,59.88023952,5a53e59af6c5170001949a39,68817205a84113384fffdfe3,6881ad00c7681f81996ad528,,,,,,,,,,,,./stim/wavs/castilian_match_declarative-broad-focus_Marta-abre-el-regalo.wav,0,,,78.3705,80.5364,0,1,1.63,,0,15,15,49,1,50,0,castilian,,,,,,,,,,,,,,,,,,,,,,,,,,,,,,,,,,,,,,,,,,,,,,,,,,,,,,,,
,,,,,,,,,5a53e59af6c5170001949a39,Mexican,13 or older,"no, only English or Spanish",no,2025-07-23_23h49.12.212,empathy_intonation_perc_control,2024.2.4,MacIntel,59.88023952,5a53e59af6c5170001949a39,68817205a84113384fffdfe3,6881ad00c7681f81996ad528,,,,,,,,,,,,./stim/wavs/mexican_mismatch_interrogative-total-yn_El-nino-oye-el-rio.wav,1,,,80.5372,83.1863,1,1,2.1268,,0,16,16,35,1,36,0,mexican,,,,,,,,,,,,,,,,,,,,,,,,,,,,,,,,,,,,,,,,,,,,,,,,,,,,,,,,
,,,,,,,,,5a53e59af6c5170001949a39,Mexican,13 or older,"no, only English or Spanish",no,2025-07-23_23h49.12.212,empathy_intonation_perc_control,2024.2.4,MacIntel,59.88023952,5a53e59af6c5170001949a39,68817205a84113384fffdfe3,6881ad00c7681f81996ad528,,,,,,,,,,,,./stim/wavs/cuban_match_interrogative-total-yn_Ana-lleva-el-abrigo.wav,1,,,83.1984,85.3858,0,0,1.6699,,0,17,17,6,1,7,1,cuban,,,,,,,,,,,,,,,,,,,,,,,,,,,,,,,,,,,,,,,,,,,,,,,,,,,,,,,,
,,,,,,,,,5a53e59af6c5170001949a39,Mexican,13 or older,"no, only English or Spanish",no,2025-07-23_23h49.12.212,empathy_intonation_perc_control,2024.2.4,MacIntel,59.88023952,5a53e59af6c5170001949a39,68817205a84113384fffdfe3,6881ad00c7681f81996ad528,,,,,,,,,,,,./stim/wavs/puertorican_match_declarative-broad-focus_David-leia-el-libro.wav,0,,,85.3867,87.3529,0,1,1.4447,,0,18,18,64,1,65,0,puertorican,,,,,,,,,,,,,,,,,,,,,,,,,,,,,,,,,,,,,,,,,,,,,,,,,,,,,,,,
,,,,,,,,,5a53e59af6c5170001949a39,Mexican,13 or older,"no, only English or Spanish",no,2025-07-23_23h49.12.212,empathy_intonation_perc_control,2024.2.4,MacIntel,59.88023952,5a53e59af6c5170001949a39,68817205a84113384fffdfe3,6881ad00c7681f81996ad528,,,,,,,,,,,,./stim/wavs/mexican_mismatch_declarative-broad-focus_La-maestra-vive-en-Paris.wav,0,,,87.3538,89.7697,0,1,1.8854,,0,19,19,80,1,81,0,mexican,,,,,,,,,,,,,,,,,,,,,,,,,,,,,,,,,,,,,,,,,,,,,,,,,,,,,,,,
,,,,,,,,,5a53e59af6c5170001949a39,Mexican,13 or older,"no, only English or Spanish",no,2025-07-23_23h49.12.212,empathy_intonation_perc_control,2024.2.4,MacIntel,59.88023952,5a53e59af6c5170001949a39,68817205a84113384fffdfe3,6881ad00c7681f81996ad528,,,,,,,,,,,,./stim/wavs/puertorican_mismatch_declarative-broad-focus_El-bebe-comia-muy-bien.wav,0,,,89.7706,92.1195,0,1,1.8253,,0,20,20,83,1,84,0,puertorican,,,,,,,,,,,,,,,,,,,,,,,,,,,,,,,,,,,,,,,,,,,,,,,,,,,,,,,,
,,,,,,,,,5a53e59af6c5170001949a39,Mexican,13 or older,"no, only English or Spanish",no,2025-07-23_23h49.12.212,empathy_intonation_perc_control,2024.2.4,MacIntel,59.88023952,5a53e59af6c5170001949a39,68817205a84113384fffdfe3,6881ad00c7681f81996ad528,,,,,,,,,,,,./stim/wavs/cuban_mismatch_declarative-broad-focus_El-bebe-comia-muy-bien.wav,0,,,92.1204,94.2696,0,1,1.6166,,0,21,21,73,1,74,0,cuban,,,,,,,,,,,,,,,,,,,,,,,,,,,,,,,,,,,,,,,,,,,,,,,,,,,,,,,,
,,,,,,,,,5a53e59af6c5170001949a39,Mexican,13 or older,"no, only English or Spanish",no,2025-07-23_23h49.12.212,empathy_intonation_perc_control,2024.2.4,MacIntel,59.88023952,5a53e59af6c5170001949a39,68817205a84113384fffdfe3,6881ad00c7681f81996ad528,,,,,,,,,,,,./stim/wavs/puertorican_match_interrogative-total-yn_Manuela-vende-el-carro.wav,1,,,94.2704,96.5026,0,0,1.702,,0,22,22,22,1,23,1,puertorican,,,,,,,,,,,,,,,,,,,,,,,,,,,,,,,,,,,,,,,,,,,,,,,,,,,,,,,,
,,,,,,,,,5a53e59af6c5170001949a39,Mexican,13 or older,"no, only English or Spanish",no,2025-07-23_23h49.12.212,empathy_intonation_perc_control,2024.2.4,MacIntel,59.88023952,5a53e59af6c5170001949a39,68817205a84113384fffdfe3,6881ad00c7681f81996ad528,,,,,,,,,,,,./stim/wavs/cuban_match_interrogative-total-yn_Maria-bebe-el-vino.wav,1,,,96.5028,98.8192,0,0,1.79,,0,23,23,9,1,10,1,cuban,,,,,,,,,,,,,,,,,,,,,,,,,,,,,,,,,,,,,,,,,,,,,,,,,,,,,,,,
,,,,,,,,,5a53e59af6c5170001949a39,Mexican,13 or older,"no, only English or Spanish",no,2025-07-23_23h49.12.212,empathy_intonation_perc_control,2024.2.4,MacIntel,59.88023952,5a53e59af6c5170001949a39,68817205a84113384fffdfe3,6881ad00c7681f81996ad528,,,,,,,,,,,,./stim/wavs/castilian_mismatch_declarative-broad-focus_El-nino-oye-el-rio.wav,0,,,98.8232,101.1691,0,1,1.8233,,0,24,24,68,1,69,0,castilian,,,,,,,,,,,,,,,,,,,,,,,,,,,,,,,,,,,,,,,,,,,,,,,,,,,,,,,,
,,,,,,,,,5a53e59af6c5170001949a39,Mexican,13 or older,"no, only English or Spanish",no,2025-07-23_23h49.12.212,empathy_intonation_perc_control,2024.2.4,MacIntel,59.88023952,5a53e59af6c5170001949a39,68817205a84113384fffdfe3,6881ad00c7681f81996ad528,,,,,,,,,,,,./stim/wavs/puertorican_mismatch_declarative-broad-focus_El-nino-oye-el-rio.wav,0,,,101.1693,103.4029,0,1,1.7179,,0,25,25,85,1,86,0,puertorican,,,,,,,,,,,,,,,,,,,,,,,,,,,,,,,,,,,,,,,,,,,,,,,,,,,,,,,,
,,,,,,,,,5a53e59af6c5170001949a39,Mexican,13 or older,"no, only English or Spanish",no,2025-07-23_23h49.12.212,empathy_intonation_perc_control,2024.2.4,MacIntel,59.88023952,5a53e59af6c5170001949a39,68817205a84113384fffdfe3,6881ad00c7681f81996ad528,,,,,,,,,,,,./stim/wavs/cuban_mismatch_declarative-broad-focus_Mi-novio-viene-del-lago.wav,0,,,103.4038,105.6028,0,1,1.6784,,0,26,26,76,1,77,0,cuban,,,,,,,,,,,,,,,,,,,,,,,,,,,,,,,,,,,,,,,,,,,,,,,,,,,,,,,,
,,,,,,,,,5a53e59af6c5170001949a39,Mexican,13 or older,"no, only English or Spanish",no,2025-07-23_23h49.12.212,empathy_intonation_perc_control,2024.2.4,MacIntel,59.88023952,5a53e59af6c5170001949a39,68817205a84113384fffdfe3,6881ad00c7681f81996ad528,,,,,,,,,,,,./stim/wavs/mexican_mismatch_interrogative-total-yn_Mi-novio-viene-del-lago.wav,1,,,105.6032,107.5695,1,1,1.4444,,0,27,27,37,1,38,0,mexican,,,,,,,,,,,,,,,,,,,,,,,,,,,,,,,,,,,,,,,,,,,,,,,,,,,,,,,,
,,,,,,,,,5a53e59af6c5170001949a39,Mexican,13 or older,"no, only English or Spanish",no,2025-07-23_23h49.12.212,empathy_intonation_perc_control,2024.2.4,MacIntel,59.88023952,5a53e59af6c5170001949a39,68817205a84113384fffdfe3,6881ad00c7681f81996ad528,,,,,,,,,,,,./stim/wavs/mexican_mismatch_declarative-broad-focus_Mi-tia-odia-la-lluvia.wav,0,,,107.5704,109.7196,0,1,1.6181,,0,28,28,82,1,83,0,mexican,,,,,,,,,,,,,,,,,,,,,,,,,,,,,,,,,,,,,,,,,,,,,,,,,,,,,,,,
,,,,,,,,,5a53e59af6c5170001949a39,Mexican,13 or older,"no, only English or Spanish",no,2025-07-23_23h49.12.212,empathy_intonation_perc_control,2024.2.4,MacIntel,59.88023952,5a53e59af6c5170001949a39,68817205a84113384fffdfe3,6881ad00c7681f81996ad528,,,,,,,,,,,,./stim/wavs/castilian_match_interrogative-total-yn_David-leia-el-libro.wav,1,,,109.7205,111.8695,1,1,1.6273,,0,29,29,0,1,1,0,castilian,,,,,,,,,,,,,,,,,,,,,,,,,,,,,,,,,,,,,,,,,,,,,,,,,,,,,,,,
,,,,,,,,,5a53e59af6c5170001949a39,Mexican,13 or older,"no, only English or Spanish",no,2025-07-23_23h49.12.212,empathy_intonation_perc_control,2024.2.4,MacIntel,59.88023952,5a53e59af6c5170001949a39,68817205a84113384fffdfe3,6881ad00c7681f81996ad528,,,,,,,,,,,,./stim/wavs/mexican_mismatch_interrogative-total-yn_Mi-tia-odia-la-lluvia.wav,1,,,111.8703,114.1862,1,1,1.7931,,0,30,30,38,1,39,0,mexican,,,,,,,,,,,,,,,,,,,,,,,,,,,,,,,,,,,,,,,,,,,,,,,,,,,,,,,,
,,,,,,,,,5a53e59af6c5170001949a39,Mexican,13 or older,"no, only English or Spanish",no,2025-07-23_23h49.12.212,empathy_intonation_perc_control,2024.2.4,MacIntel,59.88023952,5a53e59af6c5170001949a39,68817205a84113384fffdfe3,6881ad00c7681f81996ad528,,,,,,,,,,,,./stim/wavs/puertorican_mismatch_interrogative-total-yn_El-hombre-mira-la-luna.wav,1,,,114.187,116.2196,0,0,1.5005,,0,31,31,39,1,40,1,puertorican,,,,,,,,,,,,,,,,,,,,,,,,,,,,,,,,,,,,,,,,,,,,,,,,,,,,,,,,
,,,,,,,,,5a53e59af6c5170001949a39,Mexican,13 or older,"no, only English or Spanish",no,2025-07-23_23h49.12.212,empathy_intonation_perc_control,2024.2.4,MacIntel,59.88023952,5a53e59af6c5170001949a39,68817205a84113384fffdfe3,6881ad00c7681f81996ad528,,,,,,,,,,,,./stim/wavs/mexican_mismatch_declarative-broad-focus_El-bebe-comia-muy-bien.wav,0,,,116.2205,118.2361,0,1,1.4857,,0,32,32,78,1,79,0,mexican,,,,,,,,,,,,,,,,,,,,,,,,,,,,,,,,,,,,,,,,,,,,,,,,,,,,,,,,
,,,,,,,,,5a53e59af6c5170001949a39,Mexican,13 or older,"no, only English or Spanish",no,2025-07-23_23h49.12.212,empathy_intonation_perc_control,2024.2.4,MacIntel,59.88023952,5a53e59af6c5170001949a39,68817205a84113384fffdfe3,6881ad00c7681f81996ad528,,,,,,,,,,,,./stim/wavs/castilian_match_declarative-broad-focus_Maria-bebe-el-vino.wav,0,,,118.237,120.5353,0,1,1.7677,,0,33,33,47,1,48,0,castilian,,,,,,,,,,,,,,,,,,,,,,,,,,,,,,,,,,,,,,,,,,,,,,,,,,,,,,,,
,,,,,,,,,5a53e59af6c5170001949a39,Mexican,13 or older,"no, only English or Spanish",no,2025-07-23_23h49.12.212,empathy_intonation_perc_control,2024.2.4,MacIntel,59.88023952,5a53e59af6c5170001949a39,68817205a84113384fffdfe3,6881ad00c7681f81996ad528,,,,,,,,,,,,./stim/wavs/mexican_match_declarative-broad-focus_Emilio-ama-la-marcha.wav,0,,,120.5365,122.8529,0,1,1.784,,0,34,34,59,1,60,0,mexican,,,,,,,,,,,,,,,,,,,,,,,,,,,,,,,,,,,,,,,,,,,,,,,,,,,,,,,,
,,,,,,,,,5a53e59af6c5170001949a39,Mexican,13 or older,"no, only English or Spanish",no,2025-07-23_23h49.12.212,empathy_intonation_perc_control,2024.2.4,MacIntel,59.88023952,5a53e59af6c5170001949a39,68817205a84113384fffdfe3,6881ad00c7681f81996ad528,,,,,,,,,,,,./stim/wavs/cuban_mismatch_declarative-broad-focus_Mi-tia-odia-la-lluvia.wav,0,,,122.8658,125.4194,0,1,2.0334,,0,35,35,77,1,78,0,cuban,,,,,,,,,,,,,,,,,,,,,,,,,,,,,,,,,,,,,,,,,,,,,,,,,,,,,,,,
,,,,,,,,,5a53e59af6c5170001949a39,Mexican,13 or older,"no, only English or Spanish",no,2025-07-23_23h49.12.212,empathy_intonation_perc_control,2024.2.4,MacIntel,59.88023952,5a53e59af6c5170001949a39,68817205a84113384fffdfe3,6881ad00c7681f81996ad528,,,,,,,,,,,,./stim/wavs/puertorican_match_declarative-broad-focus_Maria-bebe-el-vino.wav,0,,,125.4202,127.6029,0,1,1.6545,,0,36,36,67,1,68,0,puertorican,,,,,,,,,,,,,,,,,,,,,,,,,,,,,,,,,,,,,,,,,,,,,,,,,,,,,,,,
,,,,,,,,,5a53e59af6c5170001949a39,Mexican,13 or older,"no, only English or Spanish",no,2025-07-23_23h49.12.212,empathy_intonation_perc_control,2024.2.4,MacIntel,59.88023952,5a53e59af6c5170001949a39,68817205a84113384fffdfe3,6881ad00c7681f81996ad528,,,,,,,,,,,,./stim/wavs/cuban_match_interrogative-total-yn_Manuela-vende-el-carro.wav,1,,,127.6039,130.6527,0,0,2.5258,,0,37,37,8,1,9,1,cuban,,,,,,,,,,,,,,,,,,,,,,,,,,,,,,,,,,,,,,,,,,,,,,,,,,,,,,,,
,,,,,,,,,5a53e59af6c5170001949a39,Mexican,13 or older,"no, only English or Spanish",no,2025-07-23_23h49.12.212,empathy_intonation_perc_control,2024.2.4,MacIntel,59.88023952,5a53e59af6c5170001949a39,68817205a84113384fffdfe3,6881ad00c7681f81996ad528,,,,,,,,,,,,./stim/wavs/castilian_match_declarative-broad-focus_Manuela-vende-el-carro.wav,0,,,130.6621,133.1861,0,1,2.0031,,0,38,38,46,1,47,0,castilian,,,,,,,,,,,,,,,,,,,,,,,,,,,,,,,,,,,,,,,,,,,,,,,,,,,,,,,,
,,,,,,,,,5a53e59af6c5170001949a39,Mexican,13 or older,"no, only English or Spanish",no,2025-07-23_23h49.12.212,empathy_intonation_perc_control,2024.2.4,MacIntel,59.88023952,5a53e59af6c5170001949a39,68817205a84113384fffdfe3,6881ad00c7681f81996ad528,,,,,,,,,,,,./stim/wavs/castilian_mismatch_declarative-broad-focus_La-nina-lava-el-plato.wav,0,,,133.1868,135.8364,0,1,2.1283,,0,39,39,70,1,71,0,castilian,,,,,,,,,,,,,,,,,,,,,,,,,,,,,,,,,,,,,,,,,,,,,,,,,,,,,,,,
,,,,,,,,,5a53e59af6c5170001949a39,Mexican,13 or older,"no, only English or Spanish",no,2025-07-23_23h49.12.212,empathy_intonation_perc_control,2024.2.4,MacIntel,59.88023952,5a53e59af6c5170001949a39,68817205a84113384fffdfe3,6881ad00c7681f81996ad528,,,,,,,,,,,,./stim/wavs/cuban_match_declarative-broad-focus_Maria-bebe-el-vino.wav,0,,,135.8374,137.8694,0,1,1.5096,,0,40,40,53,1,54,0,cuban,,,,,,,,,,,,,,,,,,,,,,,,,,,,,,,,,,,,,,,,,,,,,,,,,,,,,,,,
,,,,,,,,,5a53e59af6c5170001949a39,Mexican,13 or older,"no, only English or Spanish",no,2025-07-23_23h49.12.212,empathy_intonation_perc_control,2024.2.4,MacIntel,59.88023952,5a53e59af6c5170001949a39,68817205a84113384fffdfe3,6881ad00c7681f81996ad528,,,,,,,,,,,,./stim/wavs/castilian_match_interrogative-total-yn_Maria-bebe-el-vino.wav,1,,,137.8702,139.9529,1,1,1.5492,,0,41,41,3,1,4,0,castilian,,,,,,,,,,,,,,,,,,,,,,,,,,,,,,,,,,,,,,,,,,,,,,,,,,,,,,,,
,,,,,,,,,5a53e59af6c5170001949a39,Mexican,13 or older,"no, only English or Spanish",no,2025-07-23_23h49.12.212,empathy_intonation_perc_control,2024.2.4,MacIntel,59.88023952,5a53e59af6c5170001949a39,68817205a84113384fffdfe3,6881ad00c7681f81996ad528,,,,,,,,,,,,./stim/wavs/cuban_mismatch_interrogative-total-yn_El-hombre-mira-la-luna.wav,1,,,139.9537,141.7693,0,0,1.2886,,0,42,42,29,1,30,1,cuban,,,,,,,,,,,,,,,,,,,,,,,,,,,,,,,,,,,,,,,,,,,,,,,,,,,,,,,,
,,,,,,,,,5a53e59af6c5170001949a39,Mexican,13 or older,"no, only English or Spanish",no,2025-07-23_23h49.12.212,empathy_intonation_perc_control,2024.2.4,MacIntel,59.88023952,5a53e59af6c5170001949a39,68817205a84113384fffdfe3,6881ad00c7681f81996ad528,,,,,,,,,,,,./stim/wavs/puertorican_match_interrogative-total-yn_David-leia-el-libro.wav,1,,,141.7701,143.6194,0,0,1.328,,0,43,43,20,1,21,1,puertorican,,,,,,,,,,,,,,,,,,,,,,,,,,,,,,,,,,,,,,,,,,,,,,,,,,,,,,,,
,,,,,,,,,5a53e59af6c5170001949a39,Mexican,13 or older,"no, only English or Spanish",no,2025-07-23_23h49.12.212,empathy_intonation_perc_control,2024.2.4,MacIntel,59.88023952,5a53e59af6c5170001949a39,68817205a84113384fffdfe3,6881ad00c7681f81996ad528,,,,,,,,,,,,./stim/wavs/mexican_match_interrogative-total-yn_Ana-lleva-el-abrigo.wav,1,,,143.6203,145.7028,1,1,1.5533,,0,44,44,12,1,13,0,mexican,,,,,,,,,,,,,,,,,,,,,,,,,,,,,,,,,,,,,,,,,,,,,,,,,,,,,,,,
,,,,,,,,,5a53e59af6c5170001949a39,Mexican,13 or older,"no, only English or Spanish",no,2025-07-23_23h49.12.212,empathy_intonation_perc_control,2024.2.4,MacIntel,59.88023952,5a53e59af6c5170001949a39,68817205a84113384fffdfe3,6881ad00c7681f81996ad528,,,,,,,,,,,,./stim/wavs/mexican_match_interrogative-total-yn_David-leia-el-libro.wav,1,,,145.7035,147.6524,1,1,1.426,,0,45,45,14,1,15,0,mexican,,,,,,,,,,,,,,,,,,,,,,,,,,,,,,,,,,,,,,,,,,,,,,,,,,,,,,,,
,,,,,,,,,5a53e59af6c5170001949a39,Mexican,13 or older,"no, only English or Spanish",no,2025-07-23_23h49.12.212,empathy_intonation_perc_control,2024.2.4,MacIntel,59.88023952,5a53e59af6c5170001949a39,68817205a84113384fffdfe3,6881ad00c7681f81996ad528,,,,,,,,,,,,./stim/wavs/mexican_match_declarative-broad-focus_Marta-abre-el-regalo.wav,0,,,147.6527,149.7861,0,1,1.6036,,0,46,46,61,1,62,0,mexican,,,,,,,,,,,,,,,,,,,,,,,,,,,,,,,,,,,,,,,,,,,,,,,,,,,,,,,,
,,,,,,,,,5a53e59af6c5170001949a39,Mexican,13 or older,"no, only English or Spanish",no,2025-07-23_23h49.12.212,empathy_intonation_perc_control,2024.2.4,MacIntel,59.88023952,5a53e59af6c5170001949a39,68817205a84113384fffdfe3,6881ad00c7681f81996ad528,,,,,,,,,,,,./stim/wavs/cuban_match_declarative-broad-focus_Daniel-iba-a-Bolivia.wav,0,,,149.7868,152.4853,0,1,2.1714,,0,47,47,51,1,52,0,cuban,,,,,,,,,,,,,,,,,,,,,,,,,,,,,,,,,,,,,,,,,,,,,,,,,,,,,,,,
,,,,,,,,,5a53e59af6c5170001949a39,Mexican,13 or older,"no, only English or Spanish",no,2025-07-23_23h49.12.212,empathy_intonation_perc_control,2024.2.4,MacIntel,59.88023952,5a53e59af6c5170001949a39,68817205a84113384fffdfe3,6881ad00c7681f81996ad528,,,,,,,,,,,,./stim/wavs/mexican_match_interrogative-total-yn_Daniel-iba-a-Bolivia.wav,1,,,152.4863,154.603,1,1,1.5957,,0,48,48,13,1,14,0,mexican,,,,,,,,,,,,,,,,,,,,,,,,,,,,,,,,,,,,,,,,,,,,,,,,,,,,,,,,
,,,,,,,,,5a53e59af6c5170001949a39,Mexican,13 or older,"no, only English or Spanish",no,2025-07-23_23h49.12.212,empathy_intonation_perc_control,2024.2.4,MacIntel,59.88023952,5a53e59af6c5170001949a39,68817205a84113384fffdfe3,6881ad00c7681f81996ad528,,,,,,,,,,,,./stim/wavs/cuban_match_interrogative-total-yn_Marta-abre-el-regalo.wav,1,,,154.6039,156.6525,0,0,1.528,,0,49,49,11,1,12,1,cuban,,,,,,,,,,,,,,,,,,,,,,,,,,,,,,,,,,,,,,,,,,,,,,,,,,,,,,,,
,,,,,,,,,5a53e59af6c5170001949a39,Mexican,13 or older,"no, only English or Spanish",no,2025-07-23_23h49.12.212,empathy_intonation_perc_control,2024.2.4,MacIntel,59.88023952,5a53e59af6c5170001949a39,68817205a84113384fffdfe3,6881ad00c7681f81996ad528,,,,,,,,,,,,./stim/wavs/mexican_mismatch_interrogative-total-yn_La-maestra-vive-en-Paris.wav,1,,,156.6531,158.9181,1,1,1.7321,,0,50,50,36,1,37,0,mexican,,,,,,,,,,,,,,,,,,,,,,,,,,,,,,,,,,,,,,,,,,,,,,,,,,,,,,,,
,,,,,,,,,5a53e59af6c5170001949a39,Mexican,13 or older,"no, only English or Spanish",no,2025-07-23_23h49.12.212,empathy_intonation_perc_control,2024.2.4,MacIntel,59.88023952,5a53e59af6c5170001949a39,68817205a84113384fffdfe3,6881ad00c7681f81996ad528,,,,,,,,,,,,./stim/wavs/puertorican_mismatch_declarative-broad-focus_La-nina-lava-el-plato.wav,0,,,158.9247,161.0027,0,1,1.5505,,0,51,51,87,1,88,0,puertorican,,,,,,,,,,,,,,,,,,,,,,,,,,,,,,,,,,,,,,,,,,,,,,,,,,,,,,,,
,,,,,,,,,5a53e59af6c5170001949a39,Mexican,13 or older,"no, only English or Spanish",no,2025-07-23_23h49.12.212,empathy_intonation_perc_control,2024.2.4,MacIntel,59.88023952,5a53e59af6c5170001949a39,68817205a84113384fffdfe3,6881ad00c7681f81996ad528,,,,,,,,,,,,./stim/wavs/cuban_mismatch_interrogative-total-yn_Mi-madre-come-la-fruta.wav,1,,,161.0034,163.2193,0,0,1.6919,,0,52,52,31,1,32,1,cuban,,,,,,,,,,,,,,,,,,,,,,,,,,,,,,,,,,,,,,,,,,,,,,,,,,,,,,,,
,,,,,,,,,5a53e59af6c5170001949a39,Mexican,13 or older,"no, only English or Spanish",no,2025-07-23_23h49.12.212,empathy_intonation_perc_control,2024.2.4,MacIntel,59.88023952,5a53e59af6c5170001949a39,68817205a84113384fffdfe3,6881ad00c7681f81996ad528,,,,,,,,,,,,./stim/wavs/cuban_match_declarative-broad-focus_Manuela-vende-el-carro.wav,0,,,163.2201,165.6859,0,1,1.9335,,0,53,53,52,1,53,0,cuban,,,,,,,,,,,,,,,,,,,,,,,,,,,,,,,,,,,,,,,,,,,,,,,,,,,,,,,,
,,,,,,,,,5a53e59af6c5170001949a39,Mexican,13 or older,"no, only English or Spanish",no,2025-07-23_23h49.12.212,empathy_intonation_perc_control,2024.2.4,MacIntel,59.88023952,5a53e59af6c5170001949a39,68817205a84113384fffdfe3,6881ad00c7681f81996ad528,,,,,,,,,,,,./stim/wavs/puertorican_mismatch_declarative-broad-focus_La-maestra-vive-en-Paris.wav,0,,,165.6868,167.9861,0,1,1.7684,,0,54,54,86,1,87,0,puertorican,,,,,,,,,,,,,,,,,,,,,,,,,,,,,,,,,,,,,,,,,,,,,,,,,,,,,,,,
,,,,,,,,,5a53e59af6c5170001949a39,Mexican,13 or older,"no, only English or Spanish",no,2025-07-23_23h49.12.212,empathy_intonation_perc_control,2024.2.4,MacIntel,59.88023952,5a53e59af6c5170001949a39,68817205a84113384fffdfe3,6881ad00c7681f81996ad528,,,,,,,,,,,,./stim/wavs/puertorican_match_declarative-broad-focus_Manuela-vende-el-carro.wav,0,,,167.9872,170.0527,0,1,1.5361,,0,55,55,66,1,67,0,puertorican,,,,,,,,,,,,,,,,,,,,,,,,,,,,,,,,,,,,,,,,,,,,,,,,,,,,,,,,
,,,,,,,,,5a53e59af6c5170001949a39,Mexican,13 or older,"no, only English or Spanish",no,2025-07-23_23h49.12.212,empathy_intonation_perc_control,2024.2.4,MacIntel,59.88023952,5a53e59af6c5170001949a39,68817205a84113384fffdfe3,6881ad00c7681f81996ad528,,,,,,,,,,,,./stim/wavs/puertorican_mismatch_interrogative-total-yn_La-nina-lava-el-plato.wav,1,,,170.0536,172.0849,0,0,1.5006,,0,56,56,42,1,43,1,puertorican,,,,,,,,,,,,,,,,,,,,,,,,,,,,,,,,,,,,,,,,,,,,,,,,,,,,,,,,
,,,,,,,,,5a53e59af6c5170001949a39,Mexican,13 or older,"no, only English or Spanish",no,2025-07-23_23h49.12.212,empathy_intonation_perc_control,2024.2.4,MacIntel,59.88023952,5a53e59af6c5170001949a39,68817205a84113384fffdfe3,6881ad00c7681f81996ad528,,,,,,,,,,,,./stim/wavs/mexican_mismatch_declarative-broad-focus_El-hombre-mira-la-luna.wav,0,,,172.0856,174.1359,0,1,1.5371,,0,57,57,79,1,80,0,mexican,,,,,,,,,,,,,,,,,,,,,,,,,,,,,,,,,,,,,,,,,,,,,,,,,,,,,,,,
,,,,,,,,,5a53e59af6c5170001949a39,Mexican,13 or older,"no, only English or Spanish",no,2025-07-23_23h49.12.212,empathy_intonation_perc_control,2024.2.4,MacIntel,59.88023952,5a53e59af6c5170001949a39,68817205a84113384fffdfe3,6881ad00c7681f81996ad528,,,,,,,,,,,,./stim/wavs/castilian_match_declarative-broad-focus_David-leia-el-libro.wav,0,,,174.1365,176.4193,0,1,1.7619,,0,58,58,44,1,45,0,castilian,,,,,,,,,,,,,,,,,,,,,,,,,,,,,,,,,,,,,,,,,,,,,,,,,,,,,,,,
,,,,,,,,,5a53e59af6c5170001949a39,Mexican,13 or older,"no, only English or Spanish",no,2025-07-23_23h49.12.212,empathy_intonation_perc_control,2024.2.4,MacIntel,59.88023952,5a53e59af6c5170001949a39,68817205a84113384fffdfe3,6881ad00c7681f81996ad528,,,,,,,,,,,,./stim/wavs/cuban_match_interrogative-total-yn_Mariano-habla-del-tiempo.wav,1,,,176.4202,178.6193,0,0,1.671,,0,59,59,10,1,11,1,cuban,,,,,,,,,,,,,,,,,,,,,,,,,,,,,,,,,,,,,,,,,,,,,,,,,,,,,,,,
,,,,,,,,,5a53e59af6c5170001949a39,Mexican,13 or older,"no, only English or Spanish",no,2025-07-23_23h49.12.212,empathy_intonation_perc_control,2024.2.4,MacIntel,59.88023952,5a53e59af6c5170001949a39,68817205a84113384fffdfe3,6881ad00c7681f81996ad528,,,,,,,,,,,,./stim/wavs/puertorican_match_declarative-broad-focus_Daniel-iba-a-Bolivia.wav,0,,,178.6202,180.752,0,1,1.5998,,0,60,60,63,1,64,0,puertorican,,,,,,,,,,,,,,,,,,,,,,,,,,,,,,,,,,,,,,,,,,,,,,,,,,,,,,,,
,,,,,,,,,5a53e59af6c5170001949a39,Mexican,13 or older,"no, only English or Spanish",no,2025-07-23_23h49.12.212,empathy_intonation_perc_control,2024.2.4,MacIntel,59.88023952,5a53e59af6c5170001949a39,68817205a84113384fffdfe3,6881ad00c7681f81996ad528,,,,,,,,,,,,./stim/wavs/puertorican_match_interrogative-total-yn_Ana-lleva-el-abrigo.wav,1,,,180.765,182.7182,0,0,1.4384,,0,61,61,18,1,19,1,puertorican,,,,,,,,,,,,,,,,,,,,,,,,,,,,,,,,,,,,,,,,,,,,,,,,,,,,,,,,
,,,,,,,,,5a53e59af6c5170001949a39,Mexican,13 or older,"no, only English or Spanish",no,2025-07-23_23h49.12.212,empathy_intonation_perc_control,2024.2.4,MacIntel,59.88023952,5a53e59af6c5170001949a39,68817205a84113384fffdfe3,6881ad00c7681f81996ad528,,,,,,,,,,,,./stim/wavs/castilian_match_interrogative-total-yn_Mariano-habla-del-tiempo.wav,1,,,182.719,184.9859,1,1,1.7361,,0,62,62,4,1,5,0,castilian,,,,,,,,,,,,,,,,,,,,,,,,,,,,,,,,,,,,,,,,,,,,,,,,,,,,,,,,
,,,,,,,,,5a53e59af6c5170001949a39,Mexican,13 or older,"no, only English or Spanish",no,2025-07-23_23h49.12.212,empathy_intonation_perc_control,2024.2.4,MacIntel,59.88023952,5a53e59af6c5170001949a39,68817205a84113384fffdfe3,6881ad00c7681f81996ad528,,,,,,,,,,,,./stim/wavs/castilian_match_declarative-broad-focus_Mariano-habla-del-tiempo.wav,0,,,184.987,187.435,0,1,1.9268,,0,63,63,48,1,49,0,castilian,,,,,,,,,,,,,,,,,,,,,,,,,,,,,,,,,,,,,,,,,,,,,,,,,,,,,,,,
,,,,,,,,,5a53e59af6c5170001949a39,Mexican,13 or older,"no, only English or Spanish",no,2025-07-23_23h49.12.212,empathy_intonation_perc_control,2024.2.4,MacIntel,59.88023952,5a53e59af6c5170001949a39,68817205a84113384fffdfe3,6881ad00c7681f81996ad528,,,,,,,,,,,,./stim/wavs/cuban_mismatch_interrogative-total-yn_El-nino-oye-el-rio.wav,1,,,187.4361,189.5857,0,0,1.6222,,0,64,64,30,1,31,1,cuban,,,,,,,,,,,,,,,,,,,,,,,,,,,,,,,,,,,,,,,,,,,,,,,,,,,,,,,,
,,,,,,,,,5a53e59af6c5170001949a39,Mexican,13 or older,"no, only English or Spanish",no,2025-07-23_23h49.12.212,empathy_intonation_perc_control,2024.2.4,MacIntel,59.88023952,5a53e59af6c5170001949a39,68817205a84113384fffdfe3,6881ad00c7681f81996ad528,,,,,,,,,,,,./stim/wavs/cuban_match_declarative-broad-focus_Marta-abre-el-regalo.wav,0,,,189.5865,191.8692,0,1,1.7616,,0,65,65,55,1,56,0,cuban,,,,,,,,,,,,,,,,,,,,,,,,,,,,,,,,,,,,,,,,,,,,,,,,,,,,,,,,
,,,,,,,,,5a53e59af6c5170001949a39,Mexican,13 or older,"no, only English or Spanish",no,2025-07-23_23h49.12.212,empathy_intonation_perc_control,2024.2.4,MacIntel,59.88023952,5a53e59af6c5170001949a39,68817205a84113384fffdfe3,6881ad00c7681f81996ad528,,,,,,,,,,,,./stim/wavs/cuban_match_declarative-broad-focus_Ana-lleva-el-abrigo.wav,0,,,191.8701,193.9525,0,1,1.56,,0,66,66,50,1,51,0,cuban,,,,,,,,,,,,,,,,,,,,,,,,,,,,,,,,,,,,,,,,,,,,,,,,,,,,,,,,
,,,,,,,,,5a53e59af6c5170001949a39,Mexican,13 or older,"no, only English or Spanish",no,2025-07-23_23h49.12.212,empathy_intonation_perc_control,2024.2.4,MacIntel,59.88023952,5a53e59af6c5170001949a39,68817205a84113384fffdfe3,6881ad00c7681f81996ad528,,,,,,,,,,,,./stim/wavs/puertorican_match_declarative-broad-focus_Emilio-ama-la-marcha.wav,0,,,193.9533,196.1691,0,1,1.685,,0,67,67,65,1,66,0,puertorican,,,,,,,,,,,,,,,,,,,,,,,,,,,,,,,,,,,,,,,,,,,,,,,,,,,,,,,,
,,,,,,,,,5a53e59af6c5170001949a39,Mexican,13 or older,"no, only English or Spanish",no,2025-07-23_23h49.12.212,empathy_intonation_perc_control,2024.2.4,MacIntel,59.88023952,5a53e59af6c5170001949a39,68817205a84113384fffdfe3,6881ad00c7681f81996ad528,,,,,,,,,,,,./stim/wavs/mexican_match_interrogative-total-yn_Marta-abre-el-regalo.wav,1,,,196.1698,198.0513,1,1,1.3583,,0,68,68,17,1,18,0,mexican,,,,,,,,,,,,,,,,,,,,,,,,,,,,,,,,,,,,,,,,,,,,,,,,,,,,,,,,
,,,,,,,,,5a53e59af6c5170001949a39,Mexican,13 or older,"no, only English or Spanish",no,2025-07-23_23h49.12.212,empathy_intonation_perc_control,2024.2.4,MacIntel,59.88023952,5a53e59af6c5170001949a39,68817205a84113384fffdfe3,6881ad00c7681f81996ad528,,,,,,,,,,,,./stim/wavs/cuban_mismatch_interrogative-total-yn_Mi-novio-viene-del-lago.wav,1,,,198.0515,200.1191,0,0,1.5509,,0,69,69,32,1,33,1,cuban,,,,,,,,,,,,,,,,,,,,,,,,,,,,,,,,,,,,,,,,,,,,,,,,,,,,,,,,
,,,,,,,,,5a53e59af6c5170001949a39,Mexican,13 or older,"no, only English or Spanish",no,2025-07-23_23h49.12.212,empathy_intonation_perc_control,2024.2.4,MacIntel,59.88023952,5a53e59af6c5170001949a39,68817205a84113384fffdfe3,6881ad00c7681f81996ad528,,,,,,,,,,,,./stim/wavs/puertorican_mismatch_interrogative-total-yn_El-nino-oye-el-rio.wav,1,,,200.1199,201.9858,0,0,1.339,,0,70,70,40,1,41,1,puertorican,,,,,,,,,,,,,,,,,,,,,,,,,,,,,,,,,,,,,,,,,,,,,,,,,,,,,,,,
,,,,,,,,,5a53e59af6c5170001949a39,Mexican,13 or older,"no, only English or Spanish",no,2025-07-23_23h49.12.212,empathy_intonation_perc_control,2024.2.4,MacIntel,59.88023952,5a53e59af6c5170001949a39,68817205a84113384fffdfe3,6881ad00c7681f81996ad528,,,,,,,,,,,,./stim/wavs/castilian_mismatch_declarative-broad-focus_Mi-novio-viene-del-lago.wav,0,,,201.9867,204.3515,0,1,1.8424,,0,71,71,71,1,72,0,castilian,,,,,,,,,,,,,,,,,,,,,,,,,,,,,,,,,,,,,,,,,,,,,,,,,,,,,,,,
,,,,,,,,,5a53e59af6c5170001949a39,Mexican,13 or older,"no, only English or Spanish",no,2025-07-23_23h49.12.212,empathy_intonation_perc_control,2024.2.4,MacIntel,59.88023952,5a53e59af6c5170001949a39,68817205a84113384fffdfe3,6881ad00c7681f81996ad528,,,,,,,,,,,,./stim/wavs/puertorican_mismatch_declarative-broad-focus_El-hombre-mira-la-luna.wav,0,,,204.3523,206.4359,0,1,1.5694,,0,72,72,84,1,85,0,puertorican,,,,,,,,,,,,,,,,,,,,,,,,,,,,,,,,,,,,,,,,,,,,,,,,,,,,,,,,
,,,,,,,,,5a53e59af6c5170001949a39,Mexican,13 or older,"no, only English or Spanish",no,2025-07-23_23h49.12.212,empathy_intonation_perc_control,2024.2.4,MacIntel,59.88023952,5a53e59af6c5170001949a39,68817205a84113384fffdfe3,6881ad00c7681f81996ad528,,,,,,,,,,,,./stim/wavs/puertorican_match_declarative-broad-focus_Ana-lleva-el-abrigo.wav,0,,,206.4368,208.3026,0,1,1.3375,,0,73,73,62,1,63,0,puertorican,,,,,,,,,,,,,,,,,,,,,,,,,,,,,,,,,,,,,,,,,,,,,,,,,,,,,,,,
,,,,,,,,,5a53e59af6c5170001949a39,Mexican,13 or older,"no, only English or Spanish",no,2025-07-23_23h49.12.212,empathy_intonation_perc_control,2024.2.4,MacIntel,59.88023952,5a53e59af6c5170001949a39,68817205a84113384fffdfe3,6881ad00c7681f81996ad528,,,,,,,,,,,,./stim/wavs/mexican_match_interrogative-total-yn_Mariano-habla-del-tiempo.wav,1,,,208.3035,210.5181,1,1,1.6857,,0,74,74,16,1,17,0,mexican,,,,,,,,,,,,,,,,,,,,,,,,,,,,,,,,,,,,,,,,,,,,,,,,,,,,,,,,
,,,,,,,,,5a53e59af6c5170001949a39,Mexican,13 or older,"no, only English or Spanish",no,2025-07-23_23h49.12.212,empathy_intonation_perc_control,2024.2.4,MacIntel,59.88023952,5a53e59af6c5170001949a39,68817205a84113384fffdfe3,6881ad00c7681f81996ad528,,,,,,,,,,,,./stim/wavs/mexican_match_declarative-broad-focus_Daniel-iba-a-Bolivia.wav,0,,,210.5189,212.4191,0,1,1.3764,,0,75,75,57,1,58,0,mexican,,,,,,,,,,,,,,,,,,,,,,,,,,,,,,,,,,,,,,,,,,,,,,,,,,,,,,,,
,,,,,,,,,5a53e59af6c5170001949a39,Mexican,13 or older,"no, only English or Spanish",no,2025-07-23_23h49.12.212,empathy_intonation_perc_control,2024.2.4,MacIntel,59.88023952,5a53e59af6c5170001949a39,68817205a84113384fffdfe3,6881ad00c7681f81996ad528,,,,,,,,,,,,./stim/wavs/castilian_mismatch_interrogative-total-yn_La-maestra-vive-en-Paris.wav,1,,,212.4199,214.8682,1,1,1.9189,,0,76,76,24,1,25,0,castilian,,,,,,,,,,,,,,,,,,,,,,,,,,,,,,,,,,,,,,,,,,,,,,,,,,,,,,,,
,,,,,,,,,5a53e59af6c5170001949a39,Mexican,13 or older,"no, only English or Spanish",no,2025-07-23_23h49.12.212,empathy_intonation_perc_control,2024.2.4,MacIntel,59.88023952,5a53e59af6c5170001949a39,68817205a84113384fffdfe3,6881ad00c7681f81996ad528,,,,,,,,,,,,./stim/wavs/puertorican_mismatch_interrogative-total-yn_La-maestra-vive-en-Paris.wav,1,,,214.8816,216.3691,0,0,0.9688,,0,77,77,41,1,42,1,puertorican,,,,,,,,,,,,,,,,,,,,,,,,,,,,,,,,,,,,,,,,,,,,,,,,,,,,,,,,
,,,,,,,,,5a53e59af6c5170001949a39,Mexican,13 or older,"no, only English or Spanish",no,2025-07-23_23h49.12.212,empathy_intonation_perc_control,2024.2.4,MacIntel,59.88023952,5a53e59af6c5170001949a39,68817205a84113384fffdfe3,6881ad00c7681f81996ad528,,,,,,,,,,,,./stim/wavs/castilian_mismatch_interrogative-total-yn_La-nina-lava-el-plato.wav,1,,,216.3703,218.4681,1,1,1.5694,,0,78,78,25,1,26,0,castilian,,,,,,,,,,,,,,,,,,,,,,,,,,,,,,,,,,,,,,,,,,,,,,,,,,,,,,,,
,,,,,,,,,5a53e59af6c5170001949a39,Mexican,13 or older,"no, only English or Spanish",no,2025-07-23_23h49.12.212,empathy_intonation_perc_control,2024.2.4,MacIntel,59.88023952,5a53e59af6c5170001949a39,68817205a84113384fffdfe3,6881ad00c7681f81996ad528,,,,,,,,,,,,./stim/wavs/mexican_mismatch_interrogative-total-yn_El-hombre-mira-la-luna.wav,1,,,218.469,220.4858,1,1,1.5036,,0,79,79,34,1,35,0,mexican,,,,,,,,,,,,,,,,,,,,,,,,,,,,,,,,,,,,,,,,,,,,,,,,,,,,,,,,
,,,,,,,,,5a53e59af6c5170001949a39,Mexican,13 or older,"no, only English or Spanish",no,2025-07-23_23h49.12.212,empathy_intonation_perc_control,2024.2.4,MacIntel,59.88023952,5a53e59af6c5170001949a39,68817205a84113384fffdfe3,6881ad00c7681f81996ad528,,,,,,,,,,,,./stim/wavs/mexican_mismatch_declarative-broad-focus_Mi-novio-viene-del-lago.wav,0,,,220.4866,222.5524,0,1,1.5316,,0,80,80,81,1,82,0,mexican,,,,,,,,,,,,,,,,,,,,,,,,,,,,,,,,,,,,,,,,,,,,,,,,,,,,,,,,
,,,,,,,,,5a53e59af6c5170001949a39,Mexican,13 or older,"no, only English or Spanish",no,2025-07-23_23h49.12.212,empathy_intonation_perc_control,2024.2.4,MacIntel,59.88023952,5a53e59af6c5170001949a39,68817205a84113384fffdfe3,6881ad00c7681f81996ad528,,,,,,,,,,,,./stim/wavs/cuban_mismatch_declarative-broad-focus_La-nina-lava-el-plato.wav,0,,,222.5532,224.5523,0,1,1.476,,0,81,81,75,1,76,0,cuban,,,,,,,,,,,,,,,,,,,,,,,,,,,,,,,,,,,,,,,,,,,,,,,,,,,,,,,,
,,,,,,,,,5a53e59af6c5170001949a39,Mexican,13 or older,"no, only English or Spanish",no,2025-07-23_23h49.12.212,empathy_intonation_perc_control,2024.2.4,MacIntel,59.88023952,5a53e59af6c5170001949a39,68817205a84113384fffdfe3,6881ad00c7681f81996ad528,,,,,,,,,,,,./stim/wavs/castilian_match_interrogative-total-yn_Emilio-ama-la-marcha.wav,1,,,224.5531,226.8348,1,1,1.7513,,0,82,82,1,1,2,0,castilian,,,,,,,,,,,,,,,,,,,,,,,,,,,,,,,,,,,,,,,,,,,,,,,,,,,,,,,,
,,,,,,,,,5a53e59af6c5170001949a39,Mexican,13 or older,"no, only English or Spanish",no,2025-07-23_23h49.12.212,empathy_intonation_perc_control,2024.2.4,MacIntel,59.88023952,5a53e59af6c5170001949a39,68817205a84113384fffdfe3,6881ad00c7681f81996ad528,,,,,,,,,,,,./stim/wavs/castilian_match_declarative-broad-focus_Emilio-ama-la-marcha.wav,0,,,226.8468,229.3357,0,1,1.966,,0,83,83,45,1,46,0,castilian,,,,,,,,,,,,,,,,,,,,,,,,,,,,,,,,,,,,,,,,,,,,,,,,,,,,,,,,
,,,,,,,,,5a53e59af6c5170001949a39,Mexican,13 or older,"no, only English or Spanish",no,2025-07-23_23h49.12.212,empathy_intonation_perc_control,2024.2.4,MacIntel,59.88023952,5a53e59af6c5170001949a39,68817205a84113384fffdfe3,6881ad00c7681f81996ad528,,,,,,,,,,,,./stim/wavs/cuban_mismatch_declarative-broad-focus_El-hombre-mira-la-luna.wav,0,,,229.3367,231.4691,0,1,1.6014,,0,84,84,74,1,75,0,cuban,,,,,,,,,,,,,,,,,,,,,,,,,,,,,,,,,,,,,,,,,,,,,,,,,,,,,,,,
,,,,,,,,,5a53e59af6c5170001949a39,Mexican,13 or older,"no, only English or Spanish",no,2025-07-23_23h49.12.212,empathy_intonation_perc_control,2024.2.4,MacIntel,59.88023952,5a53e59af6c5170001949a39,68817205a84113384fffdfe3,6881ad00c7681f81996ad528,,,,,,,,,,,,./stim/wavs/castilian_mismatch_interrogative-total-yn_Mi-tia-odia-la-lluvia.wav,1,,,231.4699,233.5681,1,1,1.5714,,0,85,85,28,1,29,0,castilian,,,,,,,,,,,,,,,,,,,,,,,,,,,,,,,,,,,,,,,,,,,,,,,,,,,,,,,,
,,,,,,,,,5a53e59af6c5170001949a39,Mexican,13 or older,"no, only English or Spanish",no,2025-07-23_23h49.12.212,empathy_intonation_perc_control,2024.2.4,MacIntel,59.88023952,5a53e59af6c5170001949a39,68817205a84113384fffdfe3,6881ad00c7681f81996ad528,,,,,,,,,,,,./stim/wavs/castilian_match_interrogative-total-yn_Marta-abre-el-regalo.wav,1,,,233.5688,235.7024,1,1,1.6273,,0,86,86,5,1,6,0,castilian,,,,,,,,,,,,,,,,,,,,,,,,,,,,,,,,,,,,,,,,,,,,,,,,,,,,,,,,
,,,,,,,,,5a53e59af6c5170001949a39,Mexican,13 or older,"no, only English or Spanish",no,2025-07-23_23h49.12.212,empathy_intonation_perc_control,2024.2.4,MacIntel,59.88023952,5a53e59af6c5170001949a39,68817205a84113384fffdfe3,6881ad00c7681f81996ad528,,,,,,,,,,,,./stim/wavs/mexican_match_declarative-broad-focus_David-leia-el-libro.wav,0,,,235.7033,237.5856,0,1,1.3614,,0,87,87,58,1,59,0,mexican,,,,,,,,,,,,,,,,,,,,,,,,,,,,,,,,,,,,,,,,,,,,,,,,,,,,,,,,
,,,,,,,"Great! Now we will move on. The next task consists of about 60 trials, in each of which you will see a string of letters. 
  
  Your task is to decide whether this is a real Spanish word or not.", (press the spacebar to continue),5a53e59af6c5170001949a39,Mexican,13 or older,"no, only English or Spanish",no,2025-07-23_23h49.12.212,empathy_intonation_perc_control,2024.2.4,MacIntel,59.88023952,5a53e59af6c5170001949a39,68817205a84113384fffdfe3,6881ad00c7681f81996ad528,,,,,,,,,,,,,,,,,,,,,,,,,,,,,,237.5965,244.9531,0,0,0,0,1,,,,,,,,,,,,,,,,,,,,,,,,,,,,,,,,,,,,,,,,,,,,,,,,,
,,,,,,,"If you think it is an existing Spanish word, you type '1' (for 'REAL'), and if you think it is not an existing Spanish word, you type '0' (for 'FAKE').", (press the spacebar to continue),5a53e59af6c5170001949a39,Mexican,13 or older,"no, only English or Spanish",no,2025-07-23_23h49.12.212,empathy_intonation_perc_control,2024.2.4,MacIntel,59.88023952,5a53e59af6c5170001949a39,68817205a84113384fffdfe3,6881ad00c7681f81996ad528,,,,,,,,,,,,,,,,,,,,,,,,,,,,,,244.9651,249.0528,0,1,1,1,1,,,,,,,,,,,,,,,,,,,,,,,,,,,,,,,,,,,,,,,,,,,,,,,,,
,,,,,,,"If you are sure that the word exists, even though you don’t know its exact meaning, you may still respond '1' (REAL). 
  
  But if you are not sure if it is an existing word, you should respond '0' (FAKE).
  
  Let's do a practice round...", (press the spacebar to continue),5a53e59af6c5170001949a39,Mexican,13 or older,"no, only English or Spanish",no,2025-07-23_23h49.12.212,empathy_intonation_perc_control,2024.2.4,MacIntel,59.88023952,5a53e59af6c5170001949a39,68817205a84113384fffdfe3,6881ad00c7681f81996ad528,,,,,,,,,,,,,,,,,,,,,,,,,,,,,,249.0684,255.5357,0,2,2,2,1,,,,,,,,,,,,,,,,,,,,,,,,,,,,,,,,,,,,,,,,,,,,,,,,,
,,,,,,,,,5a53e59af6c5170001949a39,Mexican,13 or older,"no, only English or Spanish",no,2025-07-23_23h49.12.212,empathy_intonation_perc_control,2024.2.4,MacIntel,59.88023952,5a53e59af6c5170001949a39,68817205a84113384fffdfe3,6881ad00c7681f81996ad528,,,,,,,,,,,,,0,,,,,,,,,,,,,,,,,,,,,,,,255.5509,257.686,1,0,1.6163,,257.6865,258.6858,0,0,0,0,1,0,depiste,REAL,FAKE,,,,,,,,,,,,,,,,,,,,,,,,,,,,,,,,
,,,,,,,,,5a53e59af6c5170001949a39,Mexican,13 or older,"no, only English or Spanish",no,2025-07-23_23h49.12.212,empathy_intonation_perc_control,2024.2.4,MacIntel,59.88023952,5a53e59af6c5170001949a39,68817205a84113384fffdfe3,6881ad00c7681f81996ad528,,,,,,,,,,,,,1,,,,,,,,,,,,,,,,,,,,,,,,258.6876,260.2018,1,1,0.9685,,260.202,261.2022,0,1,1,1,1,0,sí,REAL,FAKE,,,,,,,,,,,,,,,,,,,,,,,,,,,,,,,,
,,,,,,,,,5a53e59af6c5170001949a39,Mexican,13 or older,"no, only English or Spanish",no,2025-07-23_23h49.12.212,empathy_intonation_perc_control,2024.2.4,MacIntel,59.88023952,5a53e59af6c5170001949a39,68817205a84113384fffdfe3,6881ad00c7681f81996ad528,,,,,,,,,,,,,0,,,,,,,,,,,,,,,,,,,,,,,,261.2157,264.6353,0,1,2.8913,,264.6354,265.6356,0,2,2,2,1,0,coné,REAL,FAKE,,,,,,,,,,,,,,,,,,,,,,,,,,,,,,,,
,,,,,,,,,5a53e59af6c5170001949a39,Mexican,13 or older,"no, only English or Spanish",no,2025-07-23_23h49.12.212,empathy_intonation_perc_control,2024.2.4,MacIntel,59.88023952,5a53e59af6c5170001949a39,68817205a84113384fffdfe3,6881ad00c7681f81996ad528,,,,,,,,,,,,,0,,,,,,,,,,,,,,,,,,,,,,,,265.6493,267.6522,1,0,1.475,,267.6532,268.6522,0,3,3,3,1,0,calpar,REAL,FAKE,,,,,,,,,,,,,,,,,,,,,,,,,,,,,,,,
,,,,,,,,,5a53e59af6c5170001949a39,Mexican,13 or older,"no, only English or Spanish",no,2025-07-23_23h49.12.212,empathy_intonation_perc_control,2024.2.4,MacIntel,59.88023952,5a53e59af6c5170001949a39,68817205a84113384fffdfe3,6881ad00c7681f81996ad528,,,,,,,,,,,,,0,,,,,,,,,,,,,,,,,,,,,,,,268.6538,270.2189,0,1,1.0231,,270.2199,271.2189,0,4,4,4,1,0,joten,REAL,FAKE,,,,,,,,,,,,,,,,,,,,,,,,,,,,,,,,
,,,,,,,,,5a53e59af6c5170001949a39,Mexican,13 or older,"no, only English or Spanish",no,2025-07-23_23h49.12.212,empathy_intonation_perc_control,2024.2.4,MacIntel,59.88023952,5a53e59af6c5170001949a39,68817205a84113384fffdfe3,6881ad00c7681f81996ad528,,,,,,,,,,,,,1,,,,,,,,,,,,,,,,,,,,,,,,271.2326,272.9355,0,0,1.1718,,272.9366,273.9354,0,5,5,5,1,0,sacapuntas,REAL,FAKE,,,,,,,,,,,,,,,,,,,,,,,,,,,,,,,,
,,,,,,,,,5a53e59af6c5170001949a39,Mexican,13 or older,"no, only English or Spanish",no,2025-07-23_23h49.12.212,empathy_intonation_perc_control,2024.2.4,MacIntel,59.88023952,5a53e59af6c5170001949a39,68817205a84113384fffdfe3,6881ad00c7681f81996ad528,,,,,,,,,,,,,0,,,,,,,,,,,,,,,,,,,,,,,,273.9377,275.5189,1,0,1.0458,,275.519,276.5187,0,6,6,6,1,0,priba,REAL,FAKE,,,,,,,,,,,,,,,,,,,,,,,,,,,,,,,,
,,,,,,,,,5a53e59af6c5170001949a39,Mexican,13 or older,"no, only English or Spanish",no,2025-07-23_23h49.12.212,empathy_intonation_perc_control,2024.2.4,MacIntel,59.88023952,5a53e59af6c5170001949a39,68817205a84113384fffdfe3,6881ad00c7681f81996ad528,,,,,,,,,,,,,0,,,,,,,,,,,,,,,,,,,,,,,,276.5202,278.2512,1,0,1.1887,,278.2514,279.2521,0,7,7,7,1,0,pelasula,REAL,FAKE,,,,,,,,,,,,,,,,,,,,,,,,,,,,,,,,
,,,,,,,,,5a53e59af6c5170001949a39,Mexican,13 or older,"no, only English or Spanish",no,2025-07-23_23h49.12.212,empathy_intonation_perc_control,2024.2.4,MacIntel,59.88023952,5a53e59af6c5170001949a39,68817205a84113384fffdfe3,6881ad00c7681f81996ad528,,,,,,,,,,,,,1,,,,,,,,,,,,,,,,,,,,,,,,279.266,280.8355,1,1,1.0373,,280.8365,281.8344,0,8,8,8,1,0,bien,REAL,FAKE,,,,,,,,,,,,,,,,,,,,,,,,,,,,,,,,
,,,,,,,,,5a53e59af6c5170001949a39,Mexican,13 or older,"no, only English or Spanish",no,2025-07-23_23h49.12.212,empathy_intonation_perc_control,2024.2.4,MacIntel,59.88023952,5a53e59af6c5170001949a39,68817205a84113384fffdfe3,6881ad00c7681f81996ad528,,,,,,,,,,,,,1,,,,,,,,,,,,,,,,,,,,,,,,281.8359,283.1021,1,1,0.7403,,283.1022,284.102,0,9,9,9,1,0,casa,REAL,FAKE,,,,,,,,,,,,,,,,,,,,,,,,,,,,,,,,
,,,,,,,,,5a53e59af6c5170001949a39,Mexican,13 or older,"no, only English or Spanish",no,2025-07-23_23h49.12.212,empathy_intonation_perc_control,2024.2.4,MacIntel,59.88023952,5a53e59af6c5170001949a39,68817205a84113384fffdfe3,6881ad00c7681f81996ad528,,,,,,,,,,,,,0,,,,,,,,,,,,,,,,,,,,,,,,284.1035,285.4345,1,0,0.7886,,285.4356,286.4354,0,10,10,10,1,0,lejo,REAL,FAKE,,,,,,,,,,,,,,,,,,,,,,,,,,,,,,,,
,,,,,,,,,5a53e59af6c5170001949a39,Mexican,13 or older,"no, only English or Spanish",no,2025-07-23_23h49.12.212,empathy_intonation_perc_control,2024.2.4,MacIntel,59.88023952,5a53e59af6c5170001949a39,68817205a84113384fffdfe3,6881ad00c7681f81996ad528,,,,,,,,,,,,,0,,,,,,,,,,,,,,,,,,,,,,,,286.4367,288.0513,0,1,1.0752,,288.0522,289.0521,0,11,11,11,1,0,pretantas,REAL,FAKE,,,,,,,,,,,,,,,,,,,,,,,,,,,,,,,,
,,,,,,,,,5a53e59af6c5170001949a39,Mexican,13 or older,"no, only English or Spanish",no,2025-07-23_23h49.12.212,empathy_intonation_perc_control,2024.2.4,MacIntel,59.88023952,5a53e59af6c5170001949a39,68817205a84113384fffdfe3,6881ad00c7681f81996ad528,,,,,,,,,,,,,,,,,,,,,,,,,,,,,,,,,,,,,,,,,,,,,,,,,,,,,,289.0531,290.3358,,,,,,,,,,,,,,,,,,,,,,,,,,,,,,
,,,,,,,,,5a53e59af6c5170001949a39,Mexican,13 or older,"no, only English or Spanish",no,2025-07-23_23h49.12.212,empathy_intonation_perc_control,2024.2.4,MacIntel,59.88023952,5a53e59af6c5170001949a39,68817205a84113384fffdfe3,6881ad00c7681f81996ad528,,,,,,,,,,,,,0,,,,,,,,,,,,,,,,,,,,,,,,,,,,,,,,,,,,,17,floroso,,,,,290.3543,292.7025,0,1,1.8178,,0,0,0,16,1,REAL,FAKE,,,,,,,,,,,,,,,,,
,,,,,,,,,5a53e59af6c5170001949a39,Mexican,13 or older,"no, only English or Spanish",no,2025-07-23_23h49.12.212,empathy_intonation_perc_control,2024.2.4,MacIntel,59.88023952,5a53e59af6c5170001949a39,68817205a84113384fffdfe3,6881ad00c7681f81996ad528,,,,,,,,,,,,,1,,,,,,,,,,,,,,,,,,,,,,,,,,,,,,,,,,,,,91,click the 1 key.,,,,,292.7044,294.7187,1,1,1.4664,,0,1,1,90,1,REAL,FAKE,,,,,,,,,,,,,,,,,
,,,,,,,,,5a53e59af6c5170001949a39,Mexican,13 or older,"no, only English or Spanish",no,2025-07-23_23h49.12.212,empathy_intonation_perc_control,2024.2.4,MacIntel,59.88023952,5a53e59af6c5170001949a39,68817205a84113384fffdfe3,6881ad00c7681f81996ad528,,,,,,,,,,,,,1,,,,,,,,,,,,,,,,,,,,,,,,,,,,,,,,,,,,,37,granuja,,,,,294.7204,297.1021,1,1,1.8373,,0,2,2,36,1,REAL,FAKE,,,,,,,,,,,,,,,,,
,,,,,,,,,5a53e59af6c5170001949a39,Mexican,13 or older,"no, only English or Spanish",no,2025-07-23_23h49.12.212,empathy_intonation_perc_control,2024.2.4,MacIntel,59.88023952,5a53e59af6c5170001949a39,68817205a84113384fffdfe3,6881ad00c7681f81996ad528,,,,,,,,,,,,,1,,,,,,,,,,,,,,,,,,,,,,,,,,,,,,,,,,,,,41,rebuscar,,,,,297.1165,299.1684,1,1,1.5342,,0,3,3,40,1,REAL,FAKE,,,,,,,,,,,,,,,,,
,,,,,,,,,5a53e59af6c5170001949a39,Mexican,13 or older,"no, only English or Spanish",no,2025-07-23_23h49.12.212,empathy_intonation_perc_control,2024.2.4,MacIntel,59.88023952,5a53e59af6c5170001949a39,68817205a84113384fffdfe3,6881ad00c7681f81996ad528,,,,,,,,,,,,,0,,,,,,,,,,,,,,,,,,,,,,,,,,,,,,,,,,,,,66,hacido,,,,,299.1696,301.6845,0,1,1.9654,,0,4,4,65,1,REAL,FAKE,,,,,,,,,,,,,,,,,
,,,,,,,,,5a53e59af6c5170001949a39,Mexican,13 or older,"no, only English or Spanish",no,2025-07-23_23h49.12.212,empathy_intonation_perc_control,2024.2.4,MacIntel,59.88023952,5a53e59af6c5170001949a39,68817205a84113384fffdfe3,6881ad00c7681f81996ad528,,,,,,,,,,,,,1,,,,,,,,,,,,,,,,,,,,,,,,,,,,,,,,,,,,,51,candado,,,,,301.6859,304.3854,0,0,2.1811,,0,5,5,50,1,REAL,FAKE,,,,,,,,,,,,,,,,,
,,,,,,,,,5a53e59af6c5170001949a39,Mexican,13 or older,"no, only English or Spanish",no,2025-07-23_23h49.12.212,empathy_intonation_perc_control,2024.2.4,MacIntel,59.88023952,5a53e59af6c5170001949a39,68817205a84113384fffdfe3,6881ad00c7681f81996ad528,,,,,,,,,,,,,0,,,,,,,,,,,,,,,,,,,,,,,,,,,,,,,,,,,,,29,decar,,,,,304.3868,305.8868,1,0,0.9825,,0,6,6,28,1,REAL,FAKE,,,,,,,,,,,,,,,,,
,,,,,,,,,5a53e59af6c5170001949a39,Mexican,13 or older,"no, only English or Spanish",no,2025-07-23_23h49.12.212,empathy_intonation_perc_control,2024.2.4,MacIntel,59.88023952,5a53e59af6c5170001949a39,68817205a84113384fffdfe3,6881ad00c7681f81996ad528,,,,,,,,,,,,,0,,,,,,,,,,,,,,,,,,,,,,,,,,,,,,,,,,,,,72,pemición,,,,,305.8883,308.2187,0,1,1.7929,,0,7,7,71,1,REAL,FAKE,,,,,,,,,,,,,,,,,
,,,,,,,,,5a53e59af6c5170001949a39,Mexican,13 or older,"no, only English or Spanish",no,2025-07-23_23h49.12.212,empathy_intonation_perc_control,2024.2.4,MacIntel,59.88023952,5a53e59af6c5170001949a39,68817205a84113384fffdfe3,6881ad00c7681f81996ad528,,,,,,,,,,,,,1,,,,,,,,,,,,,,,,,,,,,,,,,,,,,,,,,,,,,7,pésimo,,,,,308.2205,310.2686,1,1,1.5053,,0,8,8,6,1,REAL,FAKE,,,,,,,,,,,,,,,,,
,,,,,,,,,5a53e59af6c5170001949a39,Mexican,13 or older,"no, only English or Spanish",no,2025-07-23_23h49.12.212,empathy_intonation_perc_control,2024.2.4,MacIntel,59.88023952,5a53e59af6c5170001949a39,68817205a84113384fffdfe3,6881ad00c7681f81996ad528,,,,,,,,,,,,,1,,,,,,,,,,,,,,,,,,,,,,,,,,,,,,,,,,,,,85,laúd,,,,,310.2702,311.6177,0,0,0.8141,,0,9,9,84,1,REAL,FAKE,,,,,,,,,,,,,,,,,
,,,,,,,,,5a53e59af6c5170001949a39,Mexican,13 or older,"no, only English or Spanish",no,2025-07-23_23h49.12.212,empathy_intonation_perc_control,2024.2.4,MacIntel,59.88023952,5a53e59af6c5170001949a39,68817205a84113384fffdfe3,6881ad00c7681f81996ad528,,,,,,,,,,,,,1,,,,,,,,,,,,,,,,,,,,,,,,,,,,,,,,,,,,,49,ganar,,,,,311.6192,313.0687,1,1,0.9063,,0,10,10,48,1,REAL,FAKE,,,,,,,,,,,,,,,,,
,,,,,,,,,5a53e59af6c5170001949a39,Mexican,13 or older,"no, only English or Spanish",no,2025-07-23_23h49.12.212,empathy_intonation_perc_control,2024.2.4,MacIntel,59.88023952,5a53e59af6c5170001949a39,68817205a84113384fffdfe3,6881ad00c7681f81996ad528,,,,,,,,,,,,,1,,,,,,,,,,,,,,,,,,,,,,,,,,,,,,,,,,,,,56,musgo,,,,,313.07,314.4686,0,0,0.8609,,0,11,11,55,1,REAL,FAKE,,,,,,,,,,,,,,,,,
,,,,,,,,,5a53e59af6c5170001949a39,Mexican,13 or older,"no, only English or Spanish",no,2025-07-23_23h49.12.212,empathy_intonation_perc_control,2024.2.4,MacIntel,59.88023952,5a53e59af6c5170001949a39,68817205a84113384fffdfe3,6881ad00c7681f81996ad528,,,,,,,,,,,,,0,,,,,,,,,,,,,,,,,,,,,,,,,,,,,,,,,,,,,47,cartinar,,,,,314.4701,316.3357,1,0,1.3258,,0,12,12,46,1,REAL,FAKE,,,,,,,,,,,,,,,,,
,,,,,,,,,5a53e59af6c5170001949a39,Mexican,13 or older,"no, only English or Spanish",no,2025-07-23_23h49.12.212,empathy_intonation_perc_control,2024.2.4,MacIntel,59.88023952,5a53e59af6c5170001949a39,68817205a84113384fffdfe3,6881ad00c7681f81996ad528,,,,,,,,,,,,,1,,,,,,,,,,,,,,,,,,,,,,,,,,,,,,,,,,,,,36,loro,,,,,316.3371,317.7353,1,1,0.8577,,0,13,13,35,1,REAL,FAKE,,,,,,,,,,,,,,,,,
,,,,,,,,,5a53e59af6c5170001949a39,Mexican,13 or older,"no, only English or Spanish",no,2025-07-23_23h49.12.212,empathy_intonation_perc_control,2024.2.4,MacIntel,59.88023952,5a53e59af6c5170001949a39,68817205a84113384fffdfe3,6881ad00c7681f81996ad528,,,,,,,,,,,,,1,,,,,,,,,,,,,,,,,,,,,,,,,,,,,,,,,,,,,11,cenefa,,,,,317.7369,318.9686,0,0,0.6996,,0,14,14,10,1,REAL,FAKE,,,,,,,,,,,,,,,,,
,,,,,,,,,5a53e59af6c5170001949a39,Mexican,13 or older,"no, only English or Spanish",no,2025-07-23_23h49.12.212,empathy_intonation_perc_control,2024.2.4,MacIntel,59.88023952,5a53e59af6c5170001949a39,68817205a84113384fffdfe3,6881ad00c7681f81996ad528,,,,,,,,,,,,,1,,,,,,,,,,,,,,,,,,,,,,,,,,,,,,,,,,,,,31,pandilla,,,,,318.9702,320.6686,1,1,1.1699,,0,15,15,30,1,REAL,FAKE,,,,,,,,,,,,,,,,,
,,,,,,,,,5a53e59af6c5170001949a39,Mexican,13 or older,"no, only English or Spanish",no,2025-07-23_23h49.12.212,empathy_intonation_perc_control,2024.2.4,MacIntel,59.88023952,5a53e59af6c5170001949a39,68817205a84113384fffdfe3,6881ad00c7681f81996ad528,,,,,,,,,,,,,0,,,,,,,,,,,,,,,,,,,,,,,,,,,,,,,,,,,,,74,cintro,,,,,320.67,322.502,1,0,1.2919,,0,16,16,73,1,REAL,FAKE,,,,,,,,,,,,,,,,,
,,,,,,,,,5a53e59af6c5170001949a39,Mexican,13 or older,"no, only English or Spanish",no,2025-07-23_23h49.12.212,empathy_intonation_perc_control,2024.2.4,MacIntel,59.88023952,5a53e59af6c5170001949a39,68817205a84113384fffdfe3,6881ad00c7681f81996ad528,,,,,,,,,,,,,0,,,,,,,,,,,,,,,,,,,,,,,,,,,,,,,,,,,,,27,acutación,,,,,322.5035,323.9181,0,1,0.8776,,0,17,17,26,1,REAL,FAKE,,,,,,,,,,,,,,,,,
,,,,,,,,,5a53e59af6c5170001949a39,Mexican,13 or older,"no, only English or Spanish",no,2025-07-23_23h49.12.212,empathy_intonation_perc_control,2024.2.4,MacIntel,59.88023952,5a53e59af6c5170001949a39,68817205a84113384fffdfe3,6881ad00c7681f81996ad528,,,,,,,,,,,,,1,,,,,,,,,,,,,,,,,,,,,,,,,,,,,,,,,,,,,88,acantilado,,,,,323.9187,325.8868,0,0,1.4288,,0,18,18,87,1,REAL,FAKE,,,,,,,,,,,,,,,,,
,,,,,,,,,5a53e59af6c5170001949a39,Mexican,13 or older,"no, only English or Spanish",no,2025-07-23_23h49.12.212,empathy_intonation_perc_control,2024.2.4,MacIntel,59.88023952,5a53e59af6c5170001949a39,68817205a84113384fffdfe3,6881ad00c7681f81996ad528,,,,,,,,,,,,,0,,,,,,,,,,,,,,,,,,,,,,,,,,,,,,,,,,,,,63,esposante,,,,,325.8876,327.4519,1,0,1.0217,,0,19,19,62,1,REAL,FAKE,,,,,,,,,,,,,,,,,
,,,,,,,,,5a53e59af6c5170001949a39,Mexican,13 or older,"no, only English or Spanish",no,2025-07-23_23h49.12.212,empathy_intonation_perc_control,2024.2.4,MacIntel,59.88023952,5a53e59af6c5170001949a39,68817205a84113384fffdfe3,6881ad00c7681f81996ad528,,,,,,,,,,,,,1,,,,,,,,,,,,,,,,,,,,,,,,,,,,,,,,,,,,,5,zapato,,,,,327.4536,329.1353,1,1,1.1475,,0,20,20,4,1,REAL,FAKE,,,,,,,,,,,,,,,,,
,,,,,,,,,5a53e59af6c5170001949a39,Mexican,13 or older,"no, only English or Spanish",no,2025-07-23_23h49.12.212,empathy_intonation_perc_control,2024.2.4,MacIntel,59.88023952,5a53e59af6c5170001949a39,68817205a84113384fffdfe3,6881ad00c7681f81996ad528,,,,,,,,,,,,,1,,,,,,,,,,,,,,,,,,,,,,,,,,,,,,,,,,,,,38,estornudar,,,,,329.1367,331.6685,0,0,1.9876,,0,21,21,37,1,REAL,FAKE,,,,,,,,,,,,,,,,,
,,,,,,,,,5a53e59af6c5170001949a39,Mexican,13 or older,"no, only English or Spanish",no,2025-07-23_23h49.12.212,empathy_intonation_perc_control,2024.2.4,MacIntel,59.88023952,5a53e59af6c5170001949a39,68817205a84113384fffdfe3,6881ad00c7681f81996ad528,,,,,,,,,,,,,1,,,,,,,,,,,,,,,,,,,,,,,,,,,,,,,,,,,,,55,nevar,,,,,331.6701,333.419,1,1,1.1882,,0,22,22,54,1,REAL,FAKE,,,,,,,,,,,,,,,,,
,,,,,,,,,5a53e59af6c5170001949a39,Mexican,13 or older,"no, only English or Spanish",no,2025-07-23_23h49.12.212,empathy_intonation_perc_control,2024.2.4,MacIntel,59.88023952,5a53e59af6c5170001949a39,68817205a84113384fffdfe3,6881ad00c7681f81996ad528,,,,,,,,,,,,,1,,,,,,,,,,,,,,,,,,,,,,,,,,,,,,,,,,,,,45,jilguero,,,,,333.4202,334.7688,0,0,0.8082,,0,23,23,44,1,REAL,FAKE,,,,,,,,,,,,,,,,,
,,,,,,,,,5a53e59af6c5170001949a39,Mexican,13 or older,"no, only English or Spanish",no,2025-07-23_23h49.12.212,empathy_intonation_perc_control,2024.2.4,MacIntel,59.88023952,5a53e59af6c5170001949a39,68817205a84113384fffdfe3,6881ad00c7681f81996ad528,,,,,,,,,,,,,1,,,,,,,,,,,,,,,,,,,,,,,,,,,,,,,,,,,,,48,ladrón,,,,,334.77,336.5352,1,1,1.2327,,0,24,24,47,1,REAL,FAKE,,,,,,,,,,,,,,,,,
,,,,,,,,,5a53e59af6c5170001949a39,Mexican,13 or older,"no, only English or Spanish",no,2025-07-23_23h49.12.212,empathy_intonation_perc_control,2024.2.4,MacIntel,59.88023952,5a53e59af6c5170001949a39,68817205a84113384fffdfe3,6881ad00c7681f81996ad528,,,,,,,,,,,,,1,,,,,,,,,,,,,,,,,,,,,,,,,,,,,,,,,,,,,22,lacayo,,,,,336.5366,337.8686,0,0,0.7899,,0,25,25,21,1,REAL,FAKE,,,,,,,,,,,,,,,,,
,,,,,,,,,5a53e59af6c5170001949a39,Mexican,13 or older,"no, only English or Spanish",no,2025-07-23_23h49.12.212,empathy_intonation_perc_control,2024.2.4,MacIntel,59.88023952,5a53e59af6c5170001949a39,68817205a84113384fffdfe3,6881ad00c7681f81996ad528,,,,,,,,,,,,,0,,,,,,,,,,,,,,,,,,,,,,,,,,,,,,,,,,,,,70,temblo,,,,,337.87,339.4686,0,1,1.0654,,0,26,26,69,1,REAL,FAKE,,,,,,,,,,,,,,,,,
,,,,,,,,,5a53e59af6c5170001949a39,Mexican,13 or older,"no, only English or Spanish",no,2025-07-23_23h49.12.212,empathy_intonation_perc_control,2024.2.4,MacIntel,59.88023952,5a53e59af6c5170001949a39,68817205a84113384fffdfe3,6881ad00c7681f81996ad528,,,,,,,,,,,,,1,,,,,,,,,,,,,,,,,,,,,,,,,,,,,,,,,,,,,20,ávido,,,,,339.4705,340.9534,1,1,0.9475,,0,27,27,19,1,REAL,FAKE,,,,,,,,,,,,,,,,,
,,,,,,,,,5a53e59af6c5170001949a39,Mexican,13 or older,"no, only English or Spanish",no,2025-07-23_23h49.12.212,empathy_intonation_perc_control,2024.2.4,MacIntel,59.88023952,5a53e59af6c5170001949a39,68817205a84113384fffdfe3,6881ad00c7681f81996ad528,,,,,,,,,,,,,1,,,,,,,,,,,,,,,,,,,,,,,,,,,,,,,,,,,,,67,cabello,,,,,340.9565,342.4019,1,1,0.8937,,0,28,28,66,1,REAL,FAKE,,,,,,,,,,,,,,,,,
,,,,,,,,,5a53e59af6c5170001949a39,Mexican,13 or older,"no, only English or Spanish",no,2025-07-23_23h49.12.212,empathy_intonation_perc_control,2024.2.4,MacIntel,59.88023952,5a53e59af6c5170001949a39,68817205a84113384fffdfe3,6881ad00c7681f81996ad528,,,,,,,,,,,,,1,,,,,,,,,,,,,,,,,,,,,,,,,,,,,,,,,,,,,9,hacha,,,,,342.4033,344.2519,0,0,1.3236,,0,29,29,8,1,REAL,FAKE,,,,,,,,,,,,,,,,,
,,,,,,,,,5a53e59af6c5170001949a39,Mexican,13 or older,"no, only English or Spanish",no,2025-07-23_23h49.12.212,empathy_intonation_perc_control,2024.2.4,MacIntel,59.88023952,5a53e59af6c5170001949a39,68817205a84113384fffdfe3,6881ad00c7681f81996ad528,,,,,,,,,,,,,1,,,,,,,,,,,,,,,,,,,,,,,,,,,,,,,,,,,,,78,frondoso,,,,,344.2534,345.7187,0,0,0.9152,,0,30,30,77,1,REAL,FAKE,,,,,,,,,,,,,,,,,
,,,,,,,,,5a53e59af6c5170001949a39,Mexican,13 or older,"no, only English or Spanish",no,2025-07-23_23h49.12.212,empathy_intonation_perc_control,2024.2.4,MacIntel,59.88023952,5a53e59af6c5170001949a39,68817205a84113384fffdfe3,6881ad00c7681f81996ad528,,,,,,,,,,,,,1,,,,,,,,,,,,,,,,,,,,,,,,,,,,,,,,,,,,,77,tiburón,,,,,345.7202,347.2686,0,0,0.9993,,0,31,31,76,1,REAL,FAKE,,,,,,,,,,,,,,,,,
,,,,,,,,,5a53e59af6c5170001949a39,Mexican,13 or older,"no, only English or Spanish",no,2025-07-23_23h49.12.212,empathy_intonation_perc_control,2024.2.4,MacIntel,59.88023952,5a53e59af6c5170001949a39,68817205a84113384fffdfe3,6881ad00c7681f81996ad528,,,,,,,,,,,,,1,,,,,,,,,,,,,,,,,,,,,,,,,,,,,,,,,,,,,76,atar,,,,,347.27,349.5686,1,1,1.7536,,0,32,32,75,1,REAL,FAKE,,,,,,,,,,,,,,,,,
,,,,,,,,,5a53e59af6c5170001949a39,Mexican,13 or older,"no, only English or Spanish",no,2025-07-23_23h49.12.212,empathy_intonation_perc_control,2024.2.4,MacIntel,59.88023952,5a53e59af6c5170001949a39,68817205a84113384fffdfe3,6881ad00c7681f81996ad528,,,,,,,,,,,,,0,,,,,,,,,,,,,,,,,,,,,,,,,,,,,,,,,,,,,82,empirador,,,,,349.5701,351.5019,1,0,1.3859,,0,33,33,81,1,REAL,FAKE,,,,,,,,,,,,,,,,,
,,,,,,,,,5a53e59af6c5170001949a39,Mexican,13 or older,"no, only English or Spanish",no,2025-07-23_23h49.12.212,empathy_intonation_perc_control,2024.2.4,MacIntel,59.88023952,5a53e59af6c5170001949a39,68817205a84113384fffdfe3,6881ad00c7681f81996ad528,,,,,,,,,,,,,1,,,,,,,,,,,,,,,,,,,,,,,,,,,,,,,,,,,,,61,seda,,,,,351.5032,353.1353,1,1,1.0978,,0,34,34,60,1,REAL,FAKE,,,,,,,,,,,,,,,,,
,,,,,,,,,5a53e59af6c5170001949a39,Mexican,13 or older,"no, only English or Spanish",no,2025-07-23_23h49.12.212,empathy_intonation_perc_control,2024.2.4,MacIntel,59.88023952,5a53e59af6c5170001949a39,68817205a84113384fffdfe3,6881ad00c7681f81996ad528,,,,,,,,,,,,,1,,,,,,,,,,,,,,,,,,,,,,,,,,,,,,,,,,,,,65,bizcocho,,,,,353.1369,354.5019,0,0,0.8332,,0,35,35,64,1,REAL,FAKE,,,,,,,,,,,,,,,,,
,,,,,,,,,5a53e59af6c5170001949a39,Mexican,13 or older,"no, only English or Spanish",no,2025-07-23_23h49.12.212,empathy_intonation_perc_control,2024.2.4,MacIntel,59.88023952,5a53e59af6c5170001949a39,68817205a84113384fffdfe3,6881ad00c7681f81996ad528,,,,,,,,,,,,,0,,,,,,,,,,,,,,,,,,,,,,,,,,,,,,,,,,,,,84,escuto,,,,,354.5035,355.8851,1,0,0.8422,,0,36,36,83,1,REAL,FAKE,,,,,,,,,,,,,,,,,
,,,,,,,,,5a53e59af6c5170001949a39,Mexican,13 or older,"no, only English or Spanish",no,2025-07-23_23h49.12.212,empathy_intonation_perc_control,2024.2.4,MacIntel,59.88023952,5a53e59af6c5170001949a39,68817205a84113384fffdfe3,6881ad00c7681f81996ad528,,,,,,,,,,,,,0,,,,,,,,,,,,,,,,,,,,,,,,,,,,,,,,,,,,,58,plaudir,,,,,355.8863,357.5518,1,0,1.1315,,0,37,37,57,1,REAL,FAKE,,,,,,,,,,,,,,,,,
,,,,,,,,,5a53e59af6c5170001949a39,Mexican,13 or older,"no, only English or Spanish",no,2025-07-23_23h49.12.212,empathy_intonation_perc_control,2024.2.4,MacIntel,59.88023952,5a53e59af6c5170001949a39,68817205a84113384fffdfe3,6881ad00c7681f81996ad528,,,,,,,,,,,,,0,,,,,,,,,,,,,,,,,,,,,,,,,,,,,,,,,,,,,23,lampera,,,,,357.5532,360.0528,0,1,1.9663,,0,38,38,22,1,REAL,FAKE,,,,,,,,,,,,,,,,,
,,,,,,,,,5a53e59af6c5170001949a39,Mexican,13 or older,"no, only English or Spanish",no,2025-07-23_23h49.12.212,empathy_intonation_perc_control,2024.2.4,MacIntel,59.88023952,5a53e59af6c5170001949a39,68817205a84113384fffdfe3,6881ad00c7681f81996ad528,,,,,,,,,,,,,0,,,,,,,,,,,,,,,,,,,,,,,,,,,,,,,,,,,,,32,fatacidad,,,,,360.0543,361.7351,0,1,1.1248,,0,39,39,31,1,REAL,FAKE,,,,,,,,,,,,,,,,,
,,,,,,,,,5a53e59af6c5170001949a39,Mexican,13 or older,"no, only English or Spanish",no,2025-07-23_23h49.12.212,empathy_intonation_perc_control,2024.2.4,MacIntel,59.88023952,5a53e59af6c5170001949a39,68817205a84113384fffdfe3,6881ad00c7681f81996ad528,,,,,,,,,,,,,1,,,,,,,,,,,,,,,,,,,,,,,,,,,,,,,,,,,,,40,alfombra,,,,,361.7367,363.3185,0,0,1.0389,,0,40,40,39,1,REAL,FAKE,,,,,,,,,,,,,,,,,
,,,,,,,,,5a53e59af6c5170001949a39,Mexican,13 or older,"no, only English or Spanish",no,2025-07-23_23h49.12.212,empathy_intonation_perc_control,2024.2.4,MacIntel,59.88023952,5a53e59af6c5170001949a39,68817205a84113384fffdfe3,6881ad00c7681f81996ad528,,,,,,,,,,,,,1,,,,,,,,,,,,,,,,,,,,,,,,,,,,,,,,,,,,,73,hervidor,,,,,363.3198,364.6685,0,0,0.8055,,0,41,41,72,1,REAL,FAKE,,,,,,,,,,,,,,,,,
,,,,,,,,,5a53e59af6c5170001949a39,Mexican,13 or older,"no, only English or Spanish",no,2025-07-23_23h49.12.212,empathy_intonation_perc_control,2024.2.4,MacIntel,59.88023952,5a53e59af6c5170001949a39,68817205a84113384fffdfe3,6881ad00c7681f81996ad528,,,,,,,,,,,,,1,,,,,,,,,,,,,,,,,,,,,,,,,,,,,,,,,,,,,69,engatusar,,,,,364.6701,366.6018,0,0,1.3926,,0,42,42,68,1,REAL,FAKE,,,,,,,,,,,,,,,,,
,,,,,,,,,5a53e59af6c5170001949a39,Mexican,13 or older,"no, only English or Spanish",no,2025-07-23_23h49.12.212,empathy_intonation_perc_control,2024.2.4,MacIntel,59.88023952,5a53e59af6c5170001949a39,68817205a84113384fffdfe3,6881ad00c7681f81996ad528,,,,,,,,,,,,,1,,,,,,,,,,,,,,,,,,,,,,,,,,,,,,,,,,,,,39,torpe,,,,,366.603,368.0517,1,1,0.9134,,0,43,43,38,1,REAL,FAKE,,,,,,,,,,,,,,,,,
,,,,,,,,,5a53e59af6c5170001949a39,Mexican,13 or older,"no, only English or Spanish",no,2025-07-23_23h49.12.212,empathy_intonation_perc_control,2024.2.4,MacIntel,59.88023952,5a53e59af6c5170001949a39,68817205a84113384fffdfe3,6881ad00c7681f81996ad528,,,,,,,,,,,,,1,,,,,,,,,,,,,,,,,,,,,,,,,,,,,,,,,,,,,89,prisa,,,,,368.0526,369.3019,1,1,0.7149,,0,44,44,88,1,REAL,FAKE,,,,,,,,,,,,,,,,,
,,,,,,,,,5a53e59af6c5170001949a39,Mexican,13 or older,"no, only English or Spanish",no,2025-07-23_23h49.12.212,empathy_intonation_perc_control,2024.2.4,MacIntel,59.88023952,5a53e59af6c5170001949a39,68817205a84113384fffdfe3,6881ad00c7681f81996ad528,,,,,,,,,,,,,1,,,,,,,,,,,,,,,,,,,,,,,,,,,,,,,,,,,,,14,yunque,,,,,369.3032,372.0519,1,1,2.203,,0,45,45,13,1,REAL,FAKE,,,,,,,,,,,,,,,,,
,,,,,,,,,5a53e59af6c5170001949a39,Mexican,13 or older,"no, only English or Spanish",no,2025-07-23_23h49.12.212,empathy_intonation_perc_control,2024.2.4,MacIntel,59.88023952,5a53e59af6c5170001949a39,68817205a84113384fffdfe3,6881ad00c7681f81996ad528,,,,,,,,,,,,,0,,,,,,,,,,,,,,,,,,,,,,,,,,,,,,,,,,,,,18,arsa,,,,,372.0532,374.3351,0,1,1.7249,,0,46,46,17,1,REAL,FAKE,,,,,,,,,,,,,,,,,
,,,,,,,,,5a53e59af6c5170001949a39,Mexican,13 or older,"no, only English or Spanish",no,2025-07-23_23h49.12.212,empathy_intonation_perc_control,2024.2.4,MacIntel,59.88023952,5a53e59af6c5170001949a39,68817205a84113384fffdfe3,6881ad00c7681f81996ad528,,,,,,,,,,,,,1,,,,,,,,,,,,,,,,,,,,,,,,,,,,,,,,,,,,,24,látigo,,,,,374.3366,376.4185,1,1,1.5374,,0,47,47,23,1,REAL,FAKE,,,,,,,,,,,,,,,,,
,,,,,,,,,5a53e59af6c5170001949a39,Mexican,13 or older,"no, only English or Spanish",no,2025-07-23_23h49.12.212,empathy_intonation_perc_control,2024.2.4,MacIntel,59.88023952,5a53e59af6c5170001949a39,68817205a84113384fffdfe3,6881ad00c7681f81996ad528,,,,,,,,,,,,,1,,,,,,,,,,,,,,,,,,,,,,,,,,,,,,,,,,,,,57,tacaño,,,,,376.42,377.8516,0,0,0.8961,,0,48,48,56,1,REAL,FAKE,,,,,,,,,,,,,,,,,
,,,,,,,,,5a53e59af6c5170001949a39,Mexican,13 or older,"no, only English or Spanish",no,2025-07-23_23h49.12.212,empathy_intonation_perc_control,2024.2.4,MacIntel,59.88023952,5a53e59af6c5170001949a39,68817205a84113384fffdfe3,6881ad00c7681f81996ad528,,,,,,,,,,,,,0,,,,,,,,,,,,,,,,,,,,,,,,,,,,,,,,,,,,,16,abracer,,,,,377.8529,379.8184,1,0,1.4242,,0,49,49,15,1,REAL,FAKE,,,,,,,,,,,,,,,,,
,,,,,,,,,5a53e59af6c5170001949a39,Mexican,13 or older,"no, only English or Spanish",no,2025-07-23_23h49.12.212,empathy_intonation_perc_control,2024.2.4,MacIntel,59.88023952,5a53e59af6c5170001949a39,68817205a84113384fffdfe3,6881ad00c7681f81996ad528,,,,,,,,,,,,,1,,,,,,,,,,,,,,,,,,,,,,,,,,,,,,,,,,,,,68,alegre,,,,,379.8202,381.2519,1,1,0.8976,,0,50,50,67,1,REAL,FAKE,,,,,,,,,,,,,,,,,
,,,,,,,,,5a53e59af6c5170001949a39,Mexican,13 or older,"no, only English or Spanish",no,2025-07-23_23h49.12.212,empathy_intonation_perc_control,2024.2.4,MacIntel,59.88023952,5a53e59af6c5170001949a39,68817205a84113384fffdfe3,6881ad00c7681f81996ad528,,,,,,,,,,,,,1,,,,,,,,,,,,,,,,,,,,,,,,,,,,,,,,,,,,,54,fomentar,,,,,381.2533,383.6009,1,1,1.8062,,0,51,51,53,1,REAL,FAKE,,,,,,,,,,,,,,,,,
,,,,,,,,,5a53e59af6c5170001949a39,Mexican,13 or older,"no, only English or Spanish",no,2025-07-23_23h49.12.212,empathy_intonation_perc_control,2024.2.4,MacIntel,59.88023952,5a53e59af6c5170001949a39,68817205a84113384fffdfe3,6881ad00c7681f81996ad528,,,,,,,,,,,,,0,,,,,,,,,,,,,,,,,,,,,,,,,,,,,,,,,,,,,10,antar,,,,,383.6023,386.6684,1,0,2.547,,0,52,52,9,1,REAL,FAKE,,,,,,,,,,,,,,,,,
,,,,,,,,,5a53e59af6c5170001949a39,Mexican,13 or older,"no, only English or Spanish",no,2025-07-23_23h49.12.212,empathy_intonation_perc_control,2024.2.4,MacIntel,59.88023952,5a53e59af6c5170001949a39,68817205a84113384fffdfe3,6881ad00c7681f81996ad528,,,,,,,,,,,,,1,,,,,,,,,,,,,,,,,,,,,,,,,,,,,,,,,,,,,2,pellizcar,,,,,386.67,389.9846,0,0,2.7719,,0,53,53,1,1,REAL,FAKE,,,,,,,,,,,,,,,,,
,,,,,,,,,5a53e59af6c5170001949a39,Mexican,13 or older,"no, only English or Spanish",no,2025-07-23_23h49.12.212,empathy_intonation_perc_control,2024.2.4,MacIntel,59.88023952,5a53e59af6c5170001949a39,68817205a84113384fffdfe3,6881ad00c7681f81996ad528,,,,,,,,,,,,,0,,,,,,,,,,,,,,,,,,,,,,,,,,,,,,,,,,,,,33,pauca,,,,,389.9904,391.3684,0,1,0.8284,,0,54,54,32,1,REAL,FAKE,,,,,,,,,,,,,,,,,
,,,,,,,,,5a53e59af6c5170001949a39,Mexican,13 or older,"no, only English or Spanish",no,2025-07-23_23h49.12.212,empathy_intonation_perc_control,2024.2.4,MacIntel,59.88023952,5a53e59af6c5170001949a39,68817205a84113384fffdfe3,6881ad00c7681f81996ad528,,,,,,,,,,,,,0,,,,,,,,,,,,,,,,,,,,,,,,,,,,,,,,,,,,,92,click the 0 key.,,,,,391.3704,392.7849,0,1,0.8796,,0,55,55,91,1,REAL,FAKE,,,,,,,,,,,,,,,,,
,,,,,,,,,5a53e59af6c5170001949a39,Mexican,13 or older,"no, only English or Spanish",no,2025-07-23_23h49.12.212,empathy_intonation_perc_control,2024.2.4,MacIntel,59.88023952,5a53e59af6c5170001949a39,68817205a84113384fffdfe3,6881ad00c7681f81996ad528,,,,,,,,,,,,,1,,,,,,,,,,,,,,,,,,,,,,,,,,,,,,,,,,,,,62,flaco,,,,,392.7863,394.4183,1,1,1.0906,,0,56,56,61,1,REAL,FAKE,,,,,,,,,,,,,,,,,
,,,,,,,,,5a53e59af6c5170001949a39,Mexican,13 or older,"no, only English or Spanish",no,2025-07-23_23h49.12.212,empathy_intonation_perc_control,2024.2.4,MacIntel,59.88023952,5a53e59af6c5170001949a39,68817205a84113384fffdfe3,6881ad00c7681f81996ad528,,,,,,,,,,,,,1,,,,,,,,,,,,,,,,,,,,,,,,,,,,,,,,,,,,,46,martillo,,,,,394.4197,396.1517,0,0,1.1778,,0,57,57,45,1,REAL,FAKE,,,,,,,,,,,,,,,,,
,,,,,,,,,5a53e59af6c5170001949a39,Mexican,13 or older,"no, only English or Spanish",no,2025-07-23_23h49.12.212,empathy_intonation_perc_control,2024.2.4,MacIntel,59.88023952,5a53e59af6c5170001949a39,68817205a84113384fffdfe3,6881ad00c7681f81996ad528,,,,,,,,,,,,,0,,,,,,,,,,,,,,,,,,,,,,,,,,,,,,,,,,,,,79,tropaje,,,,,396.1532,398.085,0,1,1.3902,,0,58,58,78,1,REAL,FAKE,,,,,,,,,,,,,,,,,
,,,,,,,,,5a53e59af6c5170001949a39,Mexican,13 or older,"no, only English or Spanish",no,2025-07-23_23h49.12.212,empathy_intonation_perc_control,2024.2.4,MacIntel,59.88023952,5a53e59af6c5170001949a39,68817205a84113384fffdfe3,6881ad00c7681f81996ad528,,,,,,,,,,,,,1,,,,,,,,,,,,,,,,,,,,,,,,,,,,,,,,,,,,,34,aviso,,,,,398.0864,399.385,0,0,0.7671,,0,59,59,33,1,REAL,FAKE,,,,,,,,,,,,,,,,,
,,,,,,,,,5a53e59af6c5170001949a39,Mexican,13 or older,"no, only English or Spanish",no,2025-07-23_23h49.12.212,empathy_intonation_perc_control,2024.2.4,MacIntel,59.88023952,5a53e59af6c5170001949a39,68817205a84113384fffdfe3,6881ad00c7681f81996ad528,,,,,,,,,,,,,0,,,,,,,,,,,,,,,,,,,,,,,,,,,,,,,,,,,,,19,brecedad,,,,,399.3865,400.6349,0,1,0.7168,,0,60,60,18,1,REAL,FAKE,,,,,,,,,,,,,,,,,
,,,,,,,,,5a53e59af6c5170001949a39,Mexican,13 or older,"no, only English or Spanish",no,2025-07-23_23h49.12.212,empathy_intonation_perc_control,2024.2.4,MacIntel,59.88023952,5a53e59af6c5170001949a39,68817205a84113384fffdfe3,6881ad00c7681f81996ad528,,,,,,,,,,,,,1,,,,,,,,,,,,,,,,,,,,,,,,,,,,,,,,,,,,,28,merodear,,,,,400.6364,402.035,0,0,0.8587,,0,61,61,27,1,REAL,FAKE,,,,,,,,,,,,,,,,,
,,,,,,,,,5a53e59af6c5170001949a39,Mexican,13 or older,"no, only English or Spanish",no,2025-07-23_23h49.12.212,empathy_intonation_perc_control,2024.2.4,MacIntel,59.88023952,5a53e59af6c5170001949a39,68817205a84113384fffdfe3,6881ad00c7681f81996ad528,,,,,,,,,,,,,0,,,,,,,,,,,,,,,,,,,,,,,,,,,,,,,,,,,,,4,batillón,,,,,402.0364,403.5686,1,0,0.9907,,0,62,62,3,1,REAL,FAKE,,,,,,,,,,,,,,,,,
,,,,,,,,,5a53e59af6c5170001949a39,Mexican,13 or older,"no, only English or Spanish",no,2025-07-23_23h49.12.212,empathy_intonation_perc_control,2024.2.4,MacIntel,59.88023952,5a53e59af6c5170001949a39,68817205a84113384fffdfe3,6881ad00c7681f81996ad528,,,,,,,,,,,,,1,,,,,,,,,,,,,,,,,,,,,,,,,,,,,,,,,,,,,81,pozo,,,,,403.5702,405.1684,1,1,1.0575,,0,63,63,80,1,REAL,FAKE,,,,,,,,,,,,,,,,,
,,,,,,,,,5a53e59af6c5170001949a39,Mexican,13 or older,"no, only English or Spanish",no,2025-07-23_23h49.12.212,empathy_intonation_perc_control,2024.2.4,MacIntel,59.88023952,5a53e59af6c5170001949a39,68817205a84113384fffdfe3,6881ad00c7681f81996ad528,,,,,,,,,,,,,0,,,,,,,,,,,,,,,,,,,,,,,,,,,,,,,,,,,,,1,terzo,,,,,405.1698,406.5008,1,0,0.7938,,0,64,64,0,1,REAL,FAKE,,,,,,,,,,,,,,,,,
,,,,,,,,,5a53e59af6c5170001949a39,Mexican,13 or older,"no, only English or Spanish",no,2025-07-23_23h49.12.212,empathy_intonation_perc_control,2024.2.4,MacIntel,59.88023952,5a53e59af6c5170001949a39,68817205a84113384fffdfe3,6881ad00c7681f81996ad528,,,,,,,,,,,,,0,,,,,,,,,,,,,,,,,,,,,,,,,,,,,,,,,,,,,35,rompido,,,,,406.5021,408.118,1,0,1.0919,,0,65,65,34,1,REAL,FAKE,,,,,,,,,,,,,,,,,
,,,,,,,,,5a53e59af6c5170001949a39,Mexican,13 or older,"no, only English or Spanish",no,2025-07-23_23h49.12.212,empathy_intonation_perc_control,2024.2.4,MacIntel,59.88023952,5a53e59af6c5170001949a39,68817205a84113384fffdfe3,6881ad00c7681f81996ad528,,,,,,,,,,,,,1,,,,,,,,,,,,,,,,,,,,,,,,,,,,,,,,,,,,,15,regar,,,,,408.1186,409.3349,1,1,0.6722,,0,66,66,14,1,REAL,FAKE,,,,,,,,,,,,,,,,,
,,,,,,,,,5a53e59af6c5170001949a39,Mexican,13 or older,"no, only English or Spanish",no,2025-07-23_23h49.12.212,empathy_intonation_perc_control,2024.2.4,MacIntel,59.88023952,5a53e59af6c5170001949a39,68817205a84113384fffdfe3,6881ad00c7681f81996ad528,,,,,,,,,,,,,1,,,,,,,,,,,,,,,,,,,,,,,,,,,,,,,,,,,,,90,clavel,,,,,409.3364,410.5849,0,0,0.708,,0,67,67,89,1,REAL,FAKE,,,,,,,,,,,,,,,,,
,,,,,,,,,5a53e59af6c5170001949a39,Mexican,13 or older,"no, only English or Spanish",no,2025-07-23_23h49.12.212,empathy_intonation_perc_control,2024.2.4,MacIntel,59.88023952,5a53e59af6c5170001949a39,68817205a84113384fffdfe3,6881ad00c7681f81996ad528,,,,,,,,,,,,,1,,,,,,,,,,,,,,,,,,,,,,,,,,,,,,,,,,,,,52,camisa,,,,,410.5862,412.9679,1,1,1.8485,,0,68,68,51,1,REAL,FAKE,,,,,,,,,,,,,,,,,
,,,,,,,,,5a53e59af6c5170001949a39,Mexican,13 or older,"no, only English or Spanish",no,2025-07-23_23h49.12.212,empathy_intonation_perc_control,2024.2.4,MacIntel,59.88023952,5a53e59af6c5170001949a39,68817205a84113384fffdfe3,6881ad00c7681f81996ad528,,,,,,,,,,,,,0,,,,,,,,,,,,,,,,,,,,,,,,,,,,,,,,,,,,,53,vegada,,,,,412.9743,414.9676,0,1,1.4619,,0,69,69,52,1,REAL,FAKE,,,,,,,,,,,,,,,,,
,,,,,,,,,5a53e59af6c5170001949a39,Mexican,13 or older,"no, only English or Spanish",no,2025-07-23_23h49.12.212,empathy_intonation_perc_control,2024.2.4,MacIntel,59.88023952,5a53e59af6c5170001949a39,68817205a84113384fffdfe3,6881ad00c7681f81996ad528,,,,,,,,,,,,,1,,,,,,,,,,,,,,,,,,,,,,,,,,,,,,,,,,,,,59,besar,,,,,414.9686,416.3516,1,1,0.8631,,0,70,70,58,1,REAL,FAKE,,,,,,,,,,,,,,,,,
,,,,,,,,,5a53e59af6c5170001949a39,Mexican,13 or older,"no, only English or Spanish",no,2025-07-23_23h49.12.212,empathy_intonation_perc_control,2024.2.4,MacIntel,59.88023952,5a53e59af6c5170001949a39,68817205a84113384fffdfe3,6881ad00c7681f81996ad528,,,,,,,,,,,,,1,,,,,,,,,,,,,,,,,,,,,,,,,,,,,,,,,,,,,86,barato,,,,,416.3531,418.0849,1,1,1.1883,,0,71,71,85,1,REAL,FAKE,,,,,,,,,,,,,,,,,
,,,,,,,,,5a53e59af6c5170001949a39,Mexican,13 or older,"no, only English or Spanish",no,2025-07-23_23h49.12.212,empathy_intonation_perc_control,2024.2.4,MacIntel,59.88023952,5a53e59af6c5170001949a39,68817205a84113384fffdfe3,6881ad00c7681f81996ad528,,,,,,,,,,,,,1,,,,,,,,,,,,,,,,,,,,,,,,,,,,,,,,,,,,,83,guante,,,,,418.0862,419.8349,0,0,1.2069,,0,72,72,82,1,REAL,FAKE,,,,,,,,,,,,,,,,,
,,,,,,,,,5a53e59af6c5170001949a39,Mexican,13 or older,"no, only English or Spanish",no,2025-07-23_23h49.12.212,empathy_intonation_perc_control,2024.2.4,MacIntel,59.88023952,5a53e59af6c5170001949a39,68817205a84113384fffdfe3,6881ad00c7681f81996ad528,,,,,,,,,,,,,0,,,,,,,,,,,,,,,,,,,,,,,,,,,,,,,,,,,,,87,grodo,,,,,419.837,421.7349,0,1,1.338,,0,73,73,86,1,REAL,FAKE,,,,,,,,,,,,,,,,,
,,,,,,,,,5a53e59af6c5170001949a39,Mexican,13 or older,"no, only English or Spanish",no,2025-07-23_23h49.12.212,empathy_intonation_perc_control,2024.2.4,MacIntel,59.88023952,5a53e59af6c5170001949a39,68817205a84113384fffdfe3,6881ad00c7681f81996ad528,,,,,,,,,,,,,0,,,,,,,,,,,,,,,,,,,,,,,,,,,,,,,,,,,,,30,alardio,,,,,421.7365,424.6682,0,1,2.3857,,0,74,74,29,1,REAL,FAKE,,,,,,,,,,,,,,,,,
,,,,,,,,,5a53e59af6c5170001949a39,Mexican,13 or older,"no, only English or Spanish",no,2025-07-23_23h49.12.212,empathy_intonation_perc_control,2024.2.4,MacIntel,59.88023952,5a53e59af6c5170001949a39,68817205a84113384fffdfe3,6881ad00c7681f81996ad528,,,,,,,,,,,,,1,,,,,,,,,,,,,,,,,,,,,,,,,,,,,,,,,,,,,44,cuchara,,,,,424.6702,426.6183,1,1,1.3985,,0,75,75,43,1,REAL,FAKE,,,,,,,,,,,,,,,,,
,,,,,,,,,5a53e59af6c5170001949a39,Mexican,13 or older,"no, only English or Spanish",no,2025-07-23_23h49.12.212,empathy_intonation_perc_control,2024.2.4,MacIntel,59.88023952,5a53e59af6c5170001949a39,68817205a84113384fffdfe3,6881ad00c7681f81996ad528,,,,,,,,,,,,,1,,,,,,,,,,,,,,,,,,,,,,,,,,,,,,,,,,,,,43,canela,,,,,426.62,428.3515,1,1,1.1929,,0,76,76,42,1,REAL,FAKE,,,,,,,,,,,,,,,,,
,,,,,,,,,5a53e59af6c5170001949a39,Mexican,13 or older,"no, only English or Spanish",no,2025-07-23_23h49.12.212,empathy_intonation_perc_control,2024.2.4,MacIntel,59.88023952,5a53e59af6c5170001949a39,68817205a84113384fffdfe3,6881ad00c7681f81996ad528,,,,,,,,,,,,,1,,,,,,,,,,,,,,,,,,,,,,,,,,,,,,,,,,,,,3,pulmones,,,,,428.3529,430.9516,0,0,2.0521,,0,77,77,2,1,REAL,FAKE,,,,,,,,,,,,,,,,,
,,,,,,,,,5a53e59af6c5170001949a39,Mexican,13 or older,"no, only English or Spanish",no,2025-07-23_23h49.12.212,empathy_intonation_perc_control,2024.2.4,MacIntel,59.88023952,5a53e59af6c5170001949a39,68817205a84113384fffdfe3,6881ad00c7681f81996ad528,,,,,,,,,,,,,1,,,,,,,,,,,,,,,,,,,,,,,,,,,,,,,,,,,,,75,yacer,,,,,430.9662,432.3016,0,0,0.8108,,0,78,78,74,1,REAL,FAKE,,,,,,,,,,,,,,,,,
,,,,,,,,,5a53e59af6c5170001949a39,Mexican,13 or older,"no, only English or Spanish",no,2025-07-23_23h49.12.212,empathy_intonation_perc_control,2024.2.4,MacIntel,59.88023952,5a53e59af6c5170001949a39,68817205a84113384fffdfe3,6881ad00c7681f81996ad528,,,,,,,,,,,,,1,,,,,,,,,,,,,,,,,,,,,,,,,,,,,,,,,,,,,13,helar,,,,,432.3029,433.5183,1,1,0.6827,,0,79,79,12,1,REAL,FAKE,,,,,,,,,,,,,,,,,
,,,,,,,,,5a53e59af6c5170001949a39,Mexican,13 or older,"no, only English or Spanish",no,2025-07-23_23h49.12.212,empathy_intonation_perc_control,2024.2.4,MacIntel,59.88023952,5a53e59af6c5170001949a39,68817205a84113384fffdfe3,6881ad00c7681f81996ad528,,,,,,,,,,,,,0,,,,,,,,,,,,,,,,,,,,,,,,,,,,,,,,,,,,,42,cadallo,,,,,433.5197,435.3848,0,1,1.3385,,0,80,80,41,1,REAL,FAKE,,,,,,,,,,,,,,,,,
,,,,,,,,,5a53e59af6c5170001949a39,Mexican,13 or older,"no, only English or Spanish",no,2025-07-23_23h49.12.212,empathy_intonation_perc_control,2024.2.4,MacIntel,59.88023952,5a53e59af6c5170001949a39,68817205a84113384fffdfe3,6881ad00c7681f81996ad528,,,,,,,,,,,,,1,,,,,,,,,,,,,,,,,,,,,,,,,,,,,,,,,,,,,6,tergiversar,,,,,435.3863,437.4684,0,0,1.5518,,0,81,81,5,1,REAL,FAKE,,,,,,,,,,,,,,,,,
,,,,,,,,,5a53e59af6c5170001949a39,Mexican,13 or older,"no, only English or Spanish",no,2025-07-23_23h49.12.212,empathy_intonation_perc_control,2024.2.4,MacIntel,59.88023952,5a53e59af6c5170001949a39,68817205a84113384fffdfe3,6881ad00c7681f81996ad528,,,,,,,,,,,,,1,,,,,,,,,,,,,,,,,,,,,,,,,,,,,,,,,,,,,71,polvoriento,,,,,437.4702,439.6517,0,0,1.6464,,0,82,82,70,1,REAL,FAKE,,,,,,,,,,,,,,,,,
,,,,,,,,,5a53e59af6c5170001949a39,Mexican,13 or older,"no, only English or Spanish",no,2025-07-23_23h49.12.212,empathy_intonation_perc_control,2024.2.4,MacIntel,59.88023952,5a53e59af6c5170001949a39,68817205a84113384fffdfe3,6881ad00c7681f81996ad528,,,,,,,,,,,,,1,,,,,,,,,,,,,,,,,,,,,,,,,,,,,,,,,,,,,25,bisagra,,,,,439.6531,441.4682,0,0,1.2822,,0,83,83,24,1,REAL,FAKE,,,,,,,,,,,,,,,,,
,,,,,,,,,5a53e59af6c5170001949a39,Mexican,13 or older,"no, only English or Spanish",no,2025-07-23_23h49.12.212,empathy_intonation_perc_control,2024.2.4,MacIntel,59.88023952,5a53e59af6c5170001949a39,68817205a84113384fffdfe3,6881ad00c7681f81996ad528,,,,,,,,,,,,,1,,,,,,,,,,,,,,,,,,,,,,,,,,,,,,,,,,,,,12,asesinato,,,,,441.4697,442.8871,0,0,0.871,,0,84,84,11,1,REAL,FAKE,,,,,,,,,,,,,,,,,
,,,,,,,,,5a53e59af6c5170001949a39,Mexican,13 or older,"no, only English or Spanish",no,2025-07-23_23h49.12.212,empathy_intonation_perc_control,2024.2.4,MacIntel,59.88023952,5a53e59af6c5170001949a39,68817205a84113384fffdfe3,6881ad00c7681f81996ad528,,,,,,,,,,,,,1,,,,,,,,,,,,,,,,,,,,,,,,,,,,,,,,,,,,,80,hormiga,,,,,442.888,444.5182,1,1,1.0979,,0,85,85,79,1,REAL,FAKE,,,,,,,,,,,,,,,,,
,,,,,,,,,5a53e59af6c5170001949a39,Mexican,13 or older,"no, only English or Spanish",no,2025-07-23_23h49.12.212,empathy_intonation_perc_control,2024.2.4,MacIntel,59.88023952,5a53e59af6c5170001949a39,68817205a84113384fffdfe3,6881ad00c7681f81996ad528,,,,,,,,,,,,,1,,,,,,,,,,,,,,,,,,,,,,,,,,,,,,,,,,,,,64,orgulloso,,,,,444.5199,446.3348,0,0,1.2744,,0,86,86,63,1,REAL,FAKE,,,,,,,,,,,,,,,,,
,,,,,,,,,5a53e59af6c5170001949a39,Mexican,13 or older,"no, only English or Spanish",no,2025-07-23_23h49.12.212,empathy_intonation_perc_control,2024.2.4,MacIntel,59.88023952,5a53e59af6c5170001949a39,68817205a84113384fffdfe3,6881ad00c7681f81996ad528,,,,,,,,,,,,,0,,,,,,,,,,,,,,,,,,,,,,,,,,,,,,,,,,,,,8,cadeña,,,,,446.3361,447.6182,1,0,0.735,,0,87,87,7,1,REAL,FAKE,,,,,,,,,,,,,,,,,
,,,,,,,,,5a53e59af6c5170001949a39,Mexican,13 or older,"no, only English or Spanish",no,2025-07-23_23h49.12.212,empathy_intonation_perc_control,2024.2.4,MacIntel,59.88023952,5a53e59af6c5170001949a39,68817205a84113384fffdfe3,6881ad00c7681f81996ad528,,,,,,,,,,,,,1,,,,,,,,,,,,,,,,,,,,,,,,,,,,,,,,,,,,,60,matar,,,,,447.6189,450.0015,1,1,1.8478,,0,88,88,59,1,REAL,FAKE,,,,,,,,,,,,,,,,,
,,,,,,,,,5a53e59af6c5170001949a39,Mexican,13 or older,"no, only English or Spanish",no,2025-07-23_23h49.12.212,empathy_intonation_perc_control,2024.2.4,MacIntel,59.88023952,5a53e59af6c5170001949a39,68817205a84113384fffdfe3,6881ad00c7681f81996ad528,,,,,,,,,,,,,1,,,,,,,,,,,,,,,,,,,,,,,,,,,,,,,,,,,,,26,secuestro,,,,,450.0029,452.4349,0,0,1.8977,,0,89,89,25,1,REAL,FAKE,,,,,,,,,,,,,,,,,
,,,,,,,,,5a53e59af6c5170001949a39,Mexican,13 or older,"no, only English or Spanish",no,2025-07-23_23h49.12.212,empathy_intonation_perc_control,2024.2.4,MacIntel,59.88023952,5a53e59af6c5170001949a39,68817205a84113384fffdfe3,6881ad00c7681f81996ad528,,,,,,,,,,,,,0,,,,,,,,,,,,,,,,,,,,,,,,,,,,,,,,,,,,,50,flamida,,,,,452.4363,454.2516,1,0,1.2818,,0,90,90,49,1,REAL,FAKE,,,,,,,,,,,,,,,,,
,,,,,,,,,5a53e59af6c5170001949a39,Mexican,13 or older,"no, only English or Spanish",no,2025-07-23_23h49.12.212,empathy_intonation_perc_control,2024.2.4,MacIntel,59.88023952,5a53e59af6c5170001949a39,68817205a84113384fffdfe3,6881ad00c7681f81996ad528,,,,,,,,,,,,,0,,,,,,,,,,,,,,,,,,,,,,,,,,,,,,,,,,,,,21,capillo,,,,,454.2532,455.8515,0,1,1.0577,,0,91,91,20,1,REAL,FAKE,,,,,,,,,,,,,,,,,
,,,,,,,,,5a53e59af6c5170001949a39,Mexican,13 or older,"no, only English or Spanish",no,2025-07-23_23h49.12.212,empathy_intonation_perc_control,2024.2.4,MacIntel,59.88023952,5a53e59af6c5170001949a39,68817205a84113384fffdfe3,6881ad00c7681f81996ad528,,,,,,,,,,,,,,,,,,,,,,,,,,,,,,,,,,,,,,,,,,,,,,,,,,,,,,,,,,,,,,,,,,,,,455.8527,462.5355,,,,,,,,,,,,,,,
,,,,,,,,,5a53e59af6c5170001949a39,Mexican,13 or older,"no, only English or Spanish",no,2025-07-23_23h49.12.212,empathy_intonation_perc_control,2024.2.4,MacIntel,59.88023952,5a53e59af6c5170001949a39,68817205a84113384fffdfe3,6881ad00c7681f81996ad528,,,,,,,,,,,,,,,,,,,,,,,,,,,1,,,,,,,,,,,,,,,,,,,,,,,,,,,,,,,,,,,,,,,,,,,,462.556,471.1519,strongly agree,0,0,0,0,1,I can easily tell if someone else wants to enter a conversation.,1,0,1,0,,
,,,,,,,,,5a53e59af6c5170001949a39,Mexican,13 or older,"no, only English or Spanish",no,2025-07-23_23h49.12.212,empathy_intonation_perc_control,2024.2.4,MacIntel,59.88023952,5a53e59af6c5170001949a39,68817205a84113384fffdfe3,6881ad00c7681f81996ad528,,,,,,,,,,,,,,,,,,,,,,,,,,,2,,,,,,,,,,,,,,,,,,,,,,,,,,,,,,,,,,,,,,,,,,,,471.154,476.1843,strongly disagree,0,1,1,1,1,I prefer animals to humans.,0,1,0,0,,
,,,,,,,,,5a53e59af6c5170001949a39,Mexican,13 or older,"no, only English or Spanish",no,2025-07-23_23h49.12.212,empathy_intonation_perc_control,2024.2.4,MacIntel,59.88023952,5a53e59af6c5170001949a39,68817205a84113384fffdfe3,6881ad00c7681f81996ad528,,,,,,,,,,,,,,,,,,,,,,,,,,,3,,,,,,,,,,,,,,,,,,,,,,,,,,,,,,,,,,,,,,,,,,,,476.1853,479.3508,slightly agree,0,2,2,2,1,I try to keep up with the current trends and fashions.,0,1,0,0,,
,,,,,,,,,5a53e59af6c5170001949a39,Mexican,13 or older,"no, only English or Spanish",no,2025-07-23_23h49.12.212,empathy_intonation_perc_control,2024.2.4,MacIntel,59.88023952,5a53e59af6c5170001949a39,68817205a84113384fffdfe3,6881ad00c7681f81996ad528,,,,,,,,,,,,,,,,,,,,,,,,,,,4,,,,,,,,,,,,,,,,,,,,,,,,,,,,,,,,,,,,,,,,,,,,479.3518,487.185,slightly agree,0,3,3,3,1,"I find it difficult to explain to others things that I understand easily,   when they don't understand it first time.",1,0,0,1,,
,,,,,,,,,5a53e59af6c5170001949a39,Mexican,13 or older,"no, only English or Spanish",no,2025-07-23_23h49.12.212,empathy_intonation_perc_control,2024.2.4,MacIntel,59.88023952,5a53e59af6c5170001949a39,68817205a84113384fffdfe3,6881ad00c7681f81996ad528,,,,,,,,,,,,,,,,,,,,,,,,,,,5,,,,,,,,,,,,,,,,,,,,,,,,,,,,,,,,,,,,,,,,,,,,487.1878,489.9344,strongly agree,0,4,4,4,1,I dream most nights.,0,1,0,0,,
,,,,,,,,,5a53e59af6c5170001949a39,Mexican,13 or older,"no, only English or Spanish",no,2025-07-23_23h49.12.212,empathy_intonation_perc_control,2024.2.4,MacIntel,59.88023952,5a53e59af6c5170001949a39,68817205a84113384fffdfe3,6881ad00c7681f81996ad528,,,,,,,,,,,,,,,,,,,,,,,,,,,6,,,,,,,,,,,,,,,,,,,,,,,,,,,,,,,,,,,,,,,,,,,,489.9363,492.4179,slightly agree,0,5,5,5,1,I really enjoy caring for other people.,1,0,1,0,,
,,,,,,,,,5a53e59af6c5170001949a39,Mexican,13 or older,"no, only English or Spanish",no,2025-07-23_23h49.12.212,empathy_intonation_perc_control,2024.2.4,MacIntel,59.88023952,5a53e59af6c5170001949a39,68817205a84113384fffdfe3,6881ad00c7681f81996ad528,,,,,,,,,,,,,,,,,,,,,,,,,,,7,,,,,,,,,,,,,,,,,,,,,,,,,,,,,,,,,,,,,,,,,,,,492.4207,494.7682,slightly agree,0,6,6,6,1,I try to solve my own problems rather than discussing them with others.,0,1,0,0,,
,,,,,,,,,5a53e59af6c5170001949a39,Mexican,13 or older,"no, only English or Spanish",no,2025-07-23_23h49.12.212,empathy_intonation_perc_control,2024.2.4,MacIntel,59.88023952,5a53e59af6c5170001949a39,68817205a84113384fffdfe3,6881ad00c7681f81996ad528,,,,,,,,,,,,,,,,,,,,,,,,,,,8,,,,,,,,,,,,,,,,,,,,,,,,,,,,,,,,,,,,,,,,,,,,494.7705,498.5344,slightly disagree,0,7,7,7,1,I find it hard to know what to do in a social situation.,1,0,0,1,,
,,,,,,,,,5a53e59af6c5170001949a39,Mexican,13 or older,"no, only English or Spanish",no,2025-07-23_23h49.12.212,empathy_intonation_perc_control,2024.2.4,MacIntel,59.88023952,5a53e59af6c5170001949a39,68817205a84113384fffdfe3,6881ad00c7681f81996ad528,,,,,,,,,,,,,,,,,,,,,,,,,,,9,,,,,,,,,,,,,,,,,,,,,,,,,,,,,,,,,,,,,,,,,,,,498.5364,502.4345,strongly disagree,0,8,8,8,1,I am at my best first thing in the morning.,0,1,0,0,,
,,,,,,,,,5a53e59af6c5170001949a39,Mexican,13 or older,"no, only English or Spanish",no,2025-07-23_23h49.12.212,empathy_intonation_perc_control,2024.2.4,MacIntel,59.88023952,5a53e59af6c5170001949a39,68817205a84113384fffdfe3,6881ad00c7681f81996ad528,,,,,,,,,,,,,,,,,,,,,,,,,,,10,,,,,,,,,,,,,,,,,,,,,,,,,,,,,,,,,,,,,,,,,,,,502.4373,509.4511,strongly disagree,0,9,9,9,1,People often tell me that I went too far in driving my point home in a discussion.,1,0,0,1,,
,,,,,,,,,5a53e59af6c5170001949a39,Mexican,13 or older,"no, only English or Spanish",no,2025-07-23_23h49.12.212,empathy_intonation_perc_control,2024.2.4,MacIntel,59.88023952,5a53e59af6c5170001949a39,68817205a84113384fffdfe3,6881ad00c7681f81996ad528,,,,,,,,,,,,,,,,,,,,,,,,,,,11,,,,,,,,,,,,,,,,,,,,,,,,,,,,,,,,,,,,,,,,,,,,509.4533,513.0502,slightly disagree,0,10,10,10,1,It doesn't bother me too much if I am late meeting a friend.,1,0,0,1,,
,,,,,,,,,5a53e59af6c5170001949a39,Mexican,13 or older,"no, only English or Spanish",no,2025-07-23_23h49.12.212,empathy_intonation_perc_control,2024.2.4,MacIntel,59.88023952,5a53e59af6c5170001949a39,68817205a84113384fffdfe3,6881ad00c7681f81996ad528,,,,,,,,,,,,,,,,,,,,,,,,,,,12,,,,,,,,,,,,,,,,,,,,,,,,,,,,,,,,,,,,,,,,,,,,513.0522,516.5666,strongly disagree,0,11,11,11,1,"Friendships and relationships are just too difficult, so I tend not to 
  bother with them.",1,0,0,1,,
,,,,,,,,,5a53e59af6c5170001949a39,Mexican,13 or older,"no, only English or Spanish",no,2025-07-23_23h49.12.212,empathy_intonation_perc_control,2024.2.4,MacIntel,59.88023952,5a53e59af6c5170001949a39,68817205a84113384fffdfe3,6881ad00c7681f81996ad528,,,,,,,,,,,,,,,,,,,,,,,,,,,13,,,,,,,,,,,,,,,,,,,,,,,,,,,,,,,,,,,,,,,,,,,,516.5677,520.9862,slightly disagree,0,12,12,12,1,"I would never break a law, no matter how minor.",0,1,0,0,,
,,,,,,,,,5a53e59af6c5170001949a39,Mexican,13 or older,"no, only English or Spanish",no,2025-07-23_23h49.12.212,empathy_intonation_perc_control,2024.2.4,MacIntel,59.88023952,5a53e59af6c5170001949a39,68817205a84113384fffdfe3,6881ad00c7681f81996ad528,,,,,,,,,,,,,,,,,,,,,,,,,,,14,,,,,,,,,,,,,,,,,,,,,,,,,,,,,,,,,,,,,,,,,,,,520.988,526.3344,strongly disagree,0,13,13,13,1,I often find it difficult to judge if something is rude or polite.,1,0,0,1,,
,,,,,,,,,5a53e59af6c5170001949a39,Mexican,13 or older,"no, only English or Spanish",no,2025-07-23_23h49.12.212,empathy_intonation_perc_control,2024.2.4,MacIntel,59.88023952,5a53e59af6c5170001949a39,68817205a84113384fffdfe3,6881ad00c7681f81996ad528,,,,,,,,,,,,,,,,,,,,,,,,,,,15,,,,,,,,,,,,,,,,,,,,,,,,,,,,,,,,,,,,,,,,,,,,526.3367,531.3357,slightly agree,0,14,14,14,1,"In a conversation, I tend to focus on my own thoughts rather than on what 
  my listener might be thinking.",1,0,0,1,,
,,,,,,,,,5a53e59af6c5170001949a39,Mexican,13 or older,"no, only English or Spanish",no,2025-07-23_23h49.12.212,empathy_intonation_perc_control,2024.2.4,MacIntel,59.88023952,5a53e59af6c5170001949a39,68817205a84113384fffdfe3,6881ad00c7681f81996ad528,,,,,,,,,,,,,,,,,,,,,,,,,,,16,,,,,,,,,,,,,,,,,,,,,,,,,,,,,,,,,,,,,,,,,,,,531.3379,534.55,slightly agree,0,15,15,15,1,I prefer practical jokes to verbal humor.,0,1,0,0,,
,,,,,,,,,5a53e59af6c5170001949a39,Mexican,13 or older,"no, only English or Spanish",no,2025-07-23_23h49.12.212,empathy_intonation_perc_control,2024.2.4,MacIntel,59.88023952,5a53e59af6c5170001949a39,68817205a84113384fffdfe3,6881ad00c7681f81996ad528,,,,,,,,,,,,,,,,,,,,,,,,,,,17,,,,,,,,,,,,,,,,,,,,,,,,,,,,,,,,,,,,,,,,,,,,534.5513,537.5004,slightly agree,0,16,16,16,1,I live life for today rather than the future.,0,1,0,0,,
,,,,,,,,,5a53e59af6c5170001949a39,Mexican,13 or older,"no, only English or Spanish",no,2025-07-23_23h49.12.212,empathy_intonation_perc_control,2024.2.4,MacIntel,59.88023952,5a53e59af6c5170001949a39,68817205a84113384fffdfe3,6881ad00c7681f81996ad528,,,,,,,,,,,,,,,,,,,,,,,,,,,18,,,,,,,,,,,,,,,,,,,,,,,,,,,,,,,,,,,,,,,,,,,,537.5029,542.7509,strongly disagree,0,17,17,17,1,"When I was a child, I enjoyed cutting up worms to see what would happen.",1,0,0,1,,
,,,,,,,,,5a53e59af6c5170001949a39,Mexican,13 or older,"no, only English or Spanish",no,2025-07-23_23h49.12.212,empathy_intonation_perc_control,2024.2.4,MacIntel,59.88023952,5a53e59af6c5170001949a39,68817205a84113384fffdfe3,6881ad00c7681f81996ad528,,,,,,,,,,,,,,,,,,,,,,,,,,,19,,,,,,,,,,,,,,,,,,,,,,,,,,,,,,,,,,,,,,,,,,,,542.7535,546.25,slightly agree,0,18,18,18,1,I can pick up quickly if someone says one thing but means another.,1,0,1,0,,
,,,,,,,,,5a53e59af6c5170001949a39,Mexican,13 or older,"no, only English or Spanish",no,2025-07-23_23h49.12.212,empathy_intonation_perc_control,2024.2.4,MacIntel,59.88023952,5a53e59af6c5170001949a39,68817205a84113384fffdfe3,6881ad00c7681f81996ad528,,,,,,,,,,,,,,,,,,,,,,,,,,,20,,,,,,,,,,,,,,,,,,,,,,,,,,,,,,,,,,,,,,,,,,,,546.2519,548.3842,slightly agree,0,19,19,19,1,I tend to have very strong opinions about morality.,0,1,0,0,,
,,,,,,,,,5a53e59af6c5170001949a39,Mexican,13 or older,"no, only English or Spanish",no,2025-07-23_23h49.12.212,empathy_intonation_perc_control,2024.2.4,MacIntel,59.88023952,5a53e59af6c5170001949a39,68817205a84113384fffdfe3,6881ad00c7681f81996ad528,,,,,,,,,,,,,,,,,,,,,,,,,,,21,,,,,,,,,,,,,,,,,,,,,,,,,,,,,,,,,,,,,,,,,,,,548.3865,551.2497,slightly disagree,0,20,20,20,1,It is hard for me to see why some things upset people so much.,1,0,0,1,,
,,,,,,,,,5a53e59af6c5170001949a39,Mexican,13 or older,"no, only English or Spanish",no,2025-07-23_23h49.12.212,empathy_intonation_perc_control,2024.2.4,MacIntel,59.88023952,5a53e59af6c5170001949a39,68817205a84113384fffdfe3,6881ad00c7681f81996ad528,,,,,,,,,,,,,,,,,,,,,,,,,,,22,,,,,,,,,,,,,,,,,,,,,,,,,,,,,,,,,,,,,,,,,,,,551.2509,555.6342,slightly disagree,0,21,21,21,1,I find it easy to put myself in somebody else's shoes.,1,0,1,0,,
,,,,,,,,,5a53e59af6c5170001949a39,Mexican,13 or older,"no, only English or Spanish",no,2025-07-23_23h49.12.212,empathy_intonation_perc_control,2024.2.4,MacIntel,59.88023952,5a53e59af6c5170001949a39,68817205a84113384fffdfe3,6881ad00c7681f81996ad528,,,,,,,,,,,,,,,,,,,,,,,,,,,23,,,,,,,,,,,,,,,,,,,,,,,,,,,,,,,,,,,,,,,,,,,,555.6366,560.3666,slightly agree,0,22,22,22,1,I think that good manners are the most important thing a parent can teach their child.,0,1,0,0,,
