instructions_2afc.started,instructions_2afc.stopped,instructions_2afc_loop.thisRepN,instructions_2afc_loop.thisTrialN,instructions_2afc_loop.thisN,instructions_2afc_loop.thisIndex,instructions_2afc_loop.ran,instructions_text,continue_text,participant_id,"What variety of Spanish are you most familiar with? (e.g., Peruvian, Spanish, Mexican)",At what age did you begin learning Spanish?,Are you proficient in any languages other than English/Spanish?,"Are you familiar with Caribbean (e.g., Caribbean, Puerto Rican) or Galician Spanish?",date,expName,psychopyVersion,OS,frameRate,id,study_id,session,practice_2afc.started,practice_2afc.stopped,key_resp_2afc_practice.keys,key_resp_2afc_practice.corr,key_resp_2afc_practice.rt,key_resp_2afc_practice.duration,trials_2afc_practice_loop.thisRepN,trials_2afc_practice_loop.thisTrialN,trials_2afc_practice_loop.thisN,trials_2afc_practice_loop.thisIndex,trials_2afc_practice_loop.ran,path,correct_response,check_2afc.started,check_2afc.stopped,trial_2afc.started,trial_2afc.stopped,key_resp_2afc_trial.keys,key_resp_2afc_trial.corr,key_resp_2afc_trial.rt,key_resp_2afc_trial.duration,trials_2afc_loop.thisRepN,trials_2afc_loop.thisTrialN,trials_2afc_loop.thisN,trials_2afc_loop.thisIndex,trials_2afc_loop.ran,item_num,target,variety,instructions_lextale.started,instructions_lextale.stopped,instructions_lextale_loop.thisRepN,instructions_lextale_loop.thisTrialN,instructions_lextale_loop.thisN,instructions_lextale_loop.thisIndex,instructions_lextale_loop.ran,practice_lextale.started,practice_lextale.stopped,key_resp_lextale_practice.keys,key_resp_lextale_practice.corr,key_resp_lextale_practice.rt,key_resp_lextale_practice.duration,practice_feedback_lextale.started,practice_feedback_lextale.stopped,trials_lextale_practice_loop.thisRepN,trials_lextale_practice_loop.thisTrialN,trials_lextale_practice_loop.thisN,trials_lextale_practice_loop.thisIndex,trials_lextale_practice_loop.ran,stim,word,prac_button_real,prac_button_false,check_lextale.started,check_lextale.stopped,trial_lextale.started,trial_lextale.stopped,key_resp_lextale_trial.keys,key_resp_lextale_trial.corr,key_resp_lextale_trial.rt,key_resp_lextale_trial.duration,trials_lextale_loop.thisRepN,trials_lextale_loop.thisTrialN,trials_lextale_loop.thisN,trials_lextale_loop.thisIndex,trials_lextale_loop.ran,button_real,button_false,instructions_eq.started,instructions_eq.stopped,trial_eq.started,trial_eq.stopped,slider_eq_trial.response,trials_eq_loop.thisRepN,trials_eq_loop.thisTrialN,trials_eq_loop.thisN,trials_eq_loop.thisIndex,trials_eq_loop.ran,item,is_test_item,is_distractor,is_agree_score,is_disagree_score,end_exp.started,end_exp.stopped
0.011,2.8883,0,0,0,0,1,"In the following task you are going to hear a series of utterances. 

  You will decide if the utterances sound like questions or not using your keyboard.", (press the spacebar to continue),5a6c9c583fb6420001c308d7,Mexican,13 or older,"no, only English or Spanish",no,2025-07-24_11h15.03.412,empathy_intonation_perc_control,2024.2.4,Win32,60.24096386,5a6c9c583fb6420001c308d7,68817205a84113384fffdfe3,68824dd7e8f362c814b9a9a5,,,,,,,,,,,,,,,,,,,,,,,,,,,,,,,,,,,,,,,,,,,,,,,,,,,,,,,,,,,,,,,,,,,,,,,,,,,,,,,,,,,,,
2.8901,6.0715,0,1,1,1,1,"If you believe the utterance is a question, type '1' (for 'yes') and if you do not 
  believe it is a question type '0' (for 'no').

  Let's practice a bit...", (press the spacebar to continue),5a6c9c583fb6420001c308d7,Mexican,13 or older,"no, only English or Spanish",no,2025-07-24_11h15.03.412,empathy_intonation_perc_control,2024.2.4,Win32,60.24096386,5a6c9c583fb6420001c308d7,68817205a84113384fffdfe3,68824dd7e8f362c814b9a9a5,,,,,,,,,,,,,,,,,,,,,,,,,,,,,,,,,,,,,,,,,,,,,,,,,,,,,,,,,,,,,,,,,,,,,,,,,,,,,,,,,,,,,
,,,,,,,,,5a6c9c583fb6420001c308d7,Mexican,13 or older,"no, only English or Spanish",no,2025-07-24_11h15.03.412,empathy_intonation_perc_control,2024.2.4,Win32,60.24096386,5a6c9c583fb6420001c308d7,68817205a84113384fffdfe3,68824dd7e8f362c814b9a9a5,6.0779,8.9923,1,0,2.3845,,0,0,0,5,1,./stim/wavs/andalusian_statement_filler_Alberto-nunca-se-afeita.wav,0,,,,,,,,,,,,,,,,,,,,,,,,,,,,,,,,,,,,,,,,,,,,,,,,,,,,,,,,,,,,,,,,,,,,,,,,
,,,,,,,,,5a6c9c583fb6420001c308d7,Mexican,13 or older,"no, only English or Spanish",no,2025-07-24_11h15.03.412,empathy_intonation_perc_control,2024.2.4,Win32,60.24096386,5a6c9c583fb6420001c308d7,68817205a84113384fffdfe3,68824dd7e8f362c814b9a9a5,8.9927,16.8719,0,0,7.3373,,0,1,1,0,1,./stim/wavs/castilian_question_filler_Mi-esposo-conoce-al-chico.wav,1,,,,,,,,,,,,,,,,,,,,,,,,,,,,,,,,,,,,,,,,,,,,,,,,,,,,,,,,,,,,,,,,,,,,,,,,
,,,,,,,,,5a6c9c583fb6420001c308d7,Mexican,13 or older,"no, only English or Spanish",no,2025-07-24_11h15.03.412,empathy_intonation_perc_control,2024.2.4,Win32,60.24096386,5a6c9c583fb6420001c308d7,68817205a84113384fffdfe3,68824dd7e8f362c814b9a9a5,16.8722,19.9553,1,1,2.5631,,0,2,2,3,1,./stim/wavs/mexican_question_filler_Felipe-no-tiene-contrasena.wav,1,,,,,,,,,,,,,,,,,,,,,,,,,,,,,,,,,,,,,,,,,,,,,,,,,,,,,,,,,,,,,,,,,,,,,,,,
,,,,,,,,,5a6c9c583fb6420001c308d7,Mexican,13 or older,"no, only English or Spanish",no,2025-07-24_11h15.03.412,empathy_intonation_perc_control,2024.2.4,Win32,60.24096386,5a6c9c583fb6420001c308d7,68817205a84113384fffdfe3,68824dd7e8f362c814b9a9a5,19.9556,22.572,0,1,2.0934,,0,3,3,6,1,./stim/wavs/peruvian_statement_filler_El-nino-habla-con-su-madre.wav,0,,,,,,,,,,,,,,,,,,,,,,,,,,,,,,,,,,,,,,,,,,,,,,,,,,,,,,,,,,,,,,,,,,,,,,,,
,,,,,,,,,5a6c9c583fb6420001c308d7,Mexican,13 or older,"no, only English or Spanish",no,2025-07-24_11h15.03.412,empathy_intonation_perc_control,2024.2.4,Win32,60.24096386,5a6c9c583fb6420001c308d7,68817205a84113384fffdfe3,68824dd7e8f362c814b9a9a5,22.5723,25.6721,0,0,2.5707,,0,4,4,2,1,./stim/wavs/chilean_question_filler_Mi-padre-cantaba-bien.wav,1,,,,,,,,,,,,,,,,,,,,,,,,,,,,,,,,,,,,,,,,,,,,,,,,,,,,,,,,,,,,,,,,,,,,,,,,
,,,,,,,,,5a6c9c583fb6420001c308d7,Mexican,13 or older,"no, only English or Spanish",no,2025-07-24_11h15.03.412,empathy_intonation_perc_control,2024.2.4,Win32,60.24096386,5a6c9c583fb6420001c308d7,68817205a84113384fffdfe3,68824dd7e8f362c814b9a9a5,25.6724,28.2389,0,1,2.0385,,0,5,5,7,1,./stim/wavs/puertorican_statement_filler_La-nina-pinta-con-su-amiga.wav,0,,,,,,,,,,,,,,,,,,,,,,,,,,,,,,,,,,,,,,,,,,,,,,,,,,,,,,,,,,,,,,,,,,,,,,,,
,,,,,,,,,5a6c9c583fb6420001c308d7,Mexican,13 or older,"no, only English or Spanish",no,2025-07-24_11h15.03.412,empathy_intonation_perc_control,2024.2.4,Win32,60.24096386,5a6c9c583fb6420001c308d7,68817205a84113384fffdfe3,68824dd7e8f362c814b9a9a5,28.2392,30.2559,1,1,1.497,,0,6,6,1,1,./stim/wavs/argentine_question_filler_Mi-vecino-habla-mucho.wav,1,,,,,,,,,,,,,,,,,,,,,,,,,,,,,,,,,,,,,,,,,,,,,,,,,,,,,,,,,,,,,,,,,,,,,,,,
,,,,,,,,,5a6c9c583fb6420001c308d7,Mexican,13 or older,"no, only English or Spanish",no,2025-07-24_11h15.03.412,empathy_intonation_perc_control,2024.2.4,Win32,60.24096386,5a6c9c583fb6420001c308d7,68817205a84113384fffdfe3,68824dd7e8f362c814b9a9a5,30.2562,32.4557,0,1,1.6529,,0,7,7,4,1,./stim/wavs/cuban_statement_filler_Cocinabas-por-la-noche.wav,0,,,,,,,,,,,,,,,,,,,,,,,,,,,,,,,,,,,,,,,,,,,,,,,,,,,,,,,,,,,,,,,,,,,,,,,,
,,,,,,,,,5a6c9c583fb6420001c308d7,Mexican,13 or older,"no, only English or Spanish",no,2025-07-24_11h15.03.412,empathy_intonation_perc_control,2024.2.4,Win32,60.24096386,5a6c9c583fb6420001c308d7,68817205a84113384fffdfe3,68824dd7e8f362c814b9a9a5,,,,,,,,,,,,,,32.4559,35.1059,,,,,,,,,,,,,,,,,,,,,,,,,,,,,,,,,,,,,,,,,,,,,,,,,,,,,,,,,,,,,,,,,,,,,,
,,,,,,,,,5a6c9c583fb6420001c308d7,Mexican,13 or older,"no, only English or Spanish",no,2025-07-24_11h15.03.412,empathy_intonation_perc_control,2024.2.4,Win32,60.24096386,5a6c9c583fb6420001c308d7,68817205a84113384fffdfe3,68824dd7e8f362c814b9a9a5,,,,,,,,,,,,./stim/wavs/puertorican_match_interrogative-total-yn_Manuela-vende-el-carro.wav,1,,,35.1116,37.1561,1,1,1.5193,,0,0,0,22,1,23,1,puertorican,,,,,,,,,,,,,,,,,,,,,,,,,,,,,,,,,,,,,,,,,,,,,,,,,,,,,,,,
,,,,,,,,,5a6c9c583fb6420001c308d7,Mexican,13 or older,"no, only English or Spanish",no,2025-07-24_11h15.03.412,empathy_intonation_perc_control,2024.2.4,Win32,60.24096386,5a6c9c583fb6420001c308d7,68817205a84113384fffdfe3,68824dd7e8f362c814b9a9a5,,,,,,,,,,,,./stim/wavs/mexican_mismatch_declarative-broad-focus_El-bebe-comia-muy-bien.wav,0,,,37.1564,40.2394,0,1,2.5556,,0,1,1,78,1,79,0,mexican,,,,,,,,,,,,,,,,,,,,,,,,,,,,,,,,,,,,,,,,,,,,,,,,,,,,,,,,
,,,,,,,,,5a6c9c583fb6420001c308d7,Mexican,13 or older,"no, only English or Spanish",no,2025-07-24_11h15.03.412,empathy_intonation_perc_control,2024.2.4,Win32,60.24096386,5a6c9c583fb6420001c308d7,68817205a84113384fffdfe3,68824dd7e8f362c814b9a9a5,,,,,,,,,,,,./stim/wavs/cuban_mismatch_declarative-broad-focus_La-nina-lava-el-plato.wav,0,,,40.2396,42.2562,0,1,1.4889,,0,2,2,75,1,76,0,cuban,,,,,,,,,,,,,,,,,,,,,,,,,,,,,,,,,,,,,,,,,,,,,,,,,,,,,,,,
,,,,,,,,,5a6c9c583fb6420001c308d7,Mexican,13 or older,"no, only English or Spanish",no,2025-07-24_11h15.03.412,empathy_intonation_perc_control,2024.2.4,Win32,60.24096386,5a6c9c583fb6420001c308d7,68817205a84113384fffdfe3,68824dd7e8f362c814b9a9a5,,,,,,,,,,,,./stim/wavs/cuban_match_interrogative-total-yn_Daniel-iba-a-Bolivia.wav,1,,,42.2566,45.2264,1,1,2.4505,,0,3,3,7,1,8,1,cuban,,,,,,,,,,,,,,,,,,,,,,,,,,,,,,,,,,,,,,,,,,,,,,,,,,,,,,,,
,,,,,,,,,5a6c9c583fb6420001c308d7,Mexican,13 or older,"no, only English or Spanish",no,2025-07-24_11h15.03.412,empathy_intonation_perc_control,2024.2.4,Win32,60.24096386,5a6c9c583fb6420001c308d7,68817205a84113384fffdfe3,68824dd7e8f362c814b9a9a5,,,,,,,,,,,,./stim/wavs/mexican_mismatch_interrogative-total-yn_El-nino-oye-el-rio.wav,1,,,45.2268,47.3731,1,1,1.6304,,0,4,4,35,1,36,0,mexican,,,,,,,,,,,,,,,,,,,,,,,,,,,,,,,,,,,,,,,,,,,,,,,,,,,,,,,,
,,,,,,,,,5a6c9c583fb6420001c308d7,Mexican,13 or older,"no, only English or Spanish",no,2025-07-24_11h15.03.412,empathy_intonation_perc_control,2024.2.4,Win32,60.24096386,5a6c9c583fb6420001c308d7,68817205a84113384fffdfe3,68824dd7e8f362c814b9a9a5,,,,,,,,,,,,./stim/wavs/puertorican_match_declarative-broad-focus_David-leia-el-libro.wav,0,,,47.3734,49.2396,0,1,1.3392,,0,5,5,64,1,65,0,puertorican,,,,,,,,,,,,,,,,,,,,,,,,,,,,,,,,,,,,,,,,,,,,,,,,,,,,,,,,
,,,,,,,,,5a6c9c583fb6420001c308d7,Mexican,13 or older,"no, only English or Spanish",no,2025-07-24_11h15.03.412,empathy_intonation_perc_control,2024.2.4,Win32,60.24096386,5a6c9c583fb6420001c308d7,68817205a84113384fffdfe3,68824dd7e8f362c814b9a9a5,,,,,,,,,,,,./stim/wavs/castilian_mismatch_interrogative-total-yn_La-nina-lava-el-plato.wav,1,,,49.2399,51.5066,1,1,1.747,,0,6,6,25,1,26,0,castilian,,,,,,,,,,,,,,,,,,,,,,,,,,,,,,,,,,,,,,,,,,,,,,,,,,,,,,,,
,,,,,,,,,5a6c9c583fb6420001c308d7,Mexican,13 or older,"no, only English or Spanish",no,2025-07-24_11h15.03.412,empathy_intonation_perc_control,2024.2.4,Win32,60.24096386,5a6c9c583fb6420001c308d7,68817205a84113384fffdfe3,68824dd7e8f362c814b9a9a5,,,,,,,,,,,,./stim/wavs/mexican_match_interrogative-total-yn_Marta-abre-el-regalo.wav,1,,,51.5068,53.5065,1,1,1.4792,,0,7,7,17,1,18,0,mexican,,,,,,,,,,,,,,,,,,,,,,,,,,,,,,,,,,,,,,,,,,,,,,,,,,,,,,,,
,,,,,,,,,5a6c9c583fb6420001c308d7,Mexican,13 or older,"no, only English or Spanish",no,2025-07-24_11h15.03.412,empathy_intonation_perc_control,2024.2.4,Win32,60.24096386,5a6c9c583fb6420001c308d7,68817205a84113384fffdfe3,68824dd7e8f362c814b9a9a5,,,,,,,,,,,,./stim/wavs/castilian_mismatch_declarative-broad-focus_El-nino-oye-el-rio.wav,0,,,53.507,55.9232,0,1,1.889,,0,8,8,68,1,69,0,castilian,,,,,,,,,,,,,,,,,,,,,,,,,,,,,,,,,,,,,,,,,,,,,,,,,,,,,,,,
,,,,,,,,,5a6c9c583fb6420001c308d7,Mexican,13 or older,"no, only English or Spanish",no,2025-07-24_11h15.03.412,empathy_intonation_perc_control,2024.2.4,Win32,60.24096386,5a6c9c583fb6420001c308d7,68817205a84113384fffdfe3,68824dd7e8f362c814b9a9a5,,,,,,,,,,,,./stim/wavs/castilian_mismatch_interrogative-total-yn_Mi-novio-viene-del-lago.wav,1,,,55.9236,58.24,1,1,1.788,,0,9,9,27,1,28,0,castilian,,,,,,,,,,,,,,,,,,,,,,,,,,,,,,,,,,,,,,,,,,,,,,,,,,,,,,,,
,,,,,,,,,5a6c9c583fb6420001c308d7,Mexican,13 or older,"no, only English or Spanish",no,2025-07-24_11h15.03.412,empathy_intonation_perc_control,2024.2.4,Win32,60.24096386,5a6c9c583fb6420001c308d7,68817205a84113384fffdfe3,68824dd7e8f362c814b9a9a5,,,,,,,,,,,,./stim/wavs/mexican_match_interrogative-total-yn_Mariano-habla-del-tiempo.wav,1,,,58.2403,60.3901,1,1,1.6207,,0,10,10,16,1,17,0,mexican,,,,,,,,,,,,,,,,,,,,,,,,,,,,,,,,,,,,,,,,,,,,,,,,,,,,,,,,
,,,,,,,,,5a6c9c583fb6420001c308d7,Mexican,13 or older,"no, only English or Spanish",no,2025-07-24_11h15.03.412,empathy_intonation_perc_control,2024.2.4,Win32,60.24096386,5a6c9c583fb6420001c308d7,68817205a84113384fffdfe3,68824dd7e8f362c814b9a9a5,,,,,,,,,,,,./stim/wavs/puertorican_mismatch_interrogative-total-yn_La-maestra-vive-en-Paris.wav,1,,,60.3903,62.8068,0,0,1.8941,,0,11,11,41,1,42,1,puertorican,,,,,,,,,,,,,,,,,,,,,,,,,,,,,,,,,,,,,,,,,,,,,,,,,,,,,,,,
,,,,,,,,,5a6c9c583fb6420001c308d7,Mexican,13 or older,"no, only English or Spanish",no,2025-07-24_11h15.03.412,empathy_intonation_perc_control,2024.2.4,Win32,60.24096386,5a6c9c583fb6420001c308d7,68817205a84113384fffdfe3,68824dd7e8f362c814b9a9a5,,,,,,,,,,,,./stim/wavs/puertorican_match_declarative-broad-focus_Daniel-iba-a-Bolivia.wav,0,,,62.8071,64.8736,0,1,1.5345,,0,12,12,63,1,64,0,puertorican,,,,,,,,,,,,,,,,,,,,,,,,,,,,,,,,,,,,,,,,,,,,,,,,,,,,,,,,
,,,,,,,,,5a6c9c583fb6420001c308d7,Mexican,13 or older,"no, only English or Spanish",no,2025-07-24_11h15.03.412,empathy_intonation_perc_control,2024.2.4,Win32,60.24096386,5a6c9c583fb6420001c308d7,68817205a84113384fffdfe3,68824dd7e8f362c814b9a9a5,,,,,,,,,,,,./stim/wavs/castilian_match_interrogative-total-yn_Marta-abre-el-regalo.wav,1,,,64.8739,67.0237,1,1,1.6247,,0,13,13,5,1,6,0,castilian,,,,,,,,,,,,,,,,,,,,,,,,,,,,,,,,,,,,,,,,,,,,,,,,,,,,,,,,
,,,,,,,,,5a6c9c583fb6420001c308d7,Mexican,13 or older,"no, only English or Spanish",no,2025-07-24_11h15.03.412,empathy_intonation_perc_control,2024.2.4,Win32,60.24096386,5a6c9c583fb6420001c308d7,68817205a84113384fffdfe3,68824dd7e8f362c814b9a9a5,,,,,,,,,,,,./stim/wavs/castilian_match_declarative-broad-focus_Emilio-ama-la-marcha.wav,0,,,67.024,69.4738,0,1,1.9248,,0,14,14,45,1,46,0,castilian,,,,,,,,,,,,,,,,,,,,,,,,,,,,,,,,,,,,,,,,,,,,,,,,,,,,,,,,
,,,,,,,,,5a6c9c583fb6420001c308d7,Mexican,13 or older,"no, only English or Spanish",no,2025-07-24_11h15.03.412,empathy_intonation_perc_control,2024.2.4,Win32,60.24096386,5a6c9c583fb6420001c308d7,68817205a84113384fffdfe3,68824dd7e8f362c814b9a9a5,,,,,,,,,,,,./stim/wavs/mexican_match_interrogative-total-yn_David-leia-el-libro.wav,1,,,69.4741,71.6072,1,1,1.6002,,0,15,15,14,1,15,0,mexican,,,,,,,,,,,,,,,,,,,,,,,,,,,,,,,,,,,,,,,,,,,,,,,,,,,,,,,,
,,,,,,,,,5a6c9c583fb6420001c308d7,Mexican,13 or older,"no, only English or Spanish",no,2025-07-24_11h15.03.412,empathy_intonation_perc_control,2024.2.4,Win32,60.24096386,5a6c9c583fb6420001c308d7,68817205a84113384fffdfe3,68824dd7e8f362c814b9a9a5,,,,,,,,,,,,./stim/wavs/castilian_match_interrogative-total-yn_Emilio-ama-la-marcha.wav,1,,,71.6075,73.7905,1,1,1.6383,,0,16,16,1,1,2,0,castilian,,,,,,,,,,,,,,,,,,,,,,,,,,,,,,,,,,,,,,,,,,,,,,,,,,,,,,,,
,,,,,,,,,5a6c9c583fb6420001c308d7,Mexican,13 or older,"no, only English or Spanish",no,2025-07-24_11h15.03.412,empathy_intonation_perc_control,2024.2.4,Win32,60.24096386,5a6c9c583fb6420001c308d7,68817205a84113384fffdfe3,68824dd7e8f362c814b9a9a5,,,,,,,,,,,,./stim/wavs/castilian_mismatch_declarative-broad-focus_Mi-tia-odia-la-lluvia.wav,0,,,73.7908,75.9907,0,1,1.6669,,0,17,17,72,1,73,0,castilian,,,,,,,,,,,,,,,,,,,,,,,,,,,,,,,,,,,,,,,,,,,,,,,,,,,,,,,,
,,,,,,,,,5a6c9c583fb6420001c308d7,Mexican,13 or older,"no, only English or Spanish",no,2025-07-24_11h15.03.412,empathy_intonation_perc_control,2024.2.4,Win32,60.24096386,5a6c9c583fb6420001c308d7,68817205a84113384fffdfe3,68824dd7e8f362c814b9a9a5,,,,,,,,,,,,./stim/wavs/mexican_match_declarative-broad-focus_Marta-abre-el-regalo.wav,0,,,75.991,78.1408,0,1,1.6204,,0,18,18,61,1,62,0,mexican,,,,,,,,,,,,,,,,,,,,,,,,,,,,,,,,,,,,,,,,,,,,,,,,,,,,,,,,
,,,,,,,,,5a6c9c583fb6420001c308d7,Mexican,13 or older,"no, only English or Spanish",no,2025-07-24_11h15.03.412,empathy_intonation_perc_control,2024.2.4,Win32,60.24096386,5a6c9c583fb6420001c308d7,68817205a84113384fffdfe3,68824dd7e8f362c814b9a9a5,,,,,,,,,,,,./stim/wavs/mexican_match_interrogative-total-yn_Ana-lleva-el-abrigo.wav,1,,,78.1411,80.3408,1,1,1.6609,,0,19,19,12,1,13,0,mexican,,,,,,,,,,,,,,,,,,,,,,,,,,,,,,,,,,,,,,,,,,,,,,,,,,,,,,,,
,,,,,,,,,5a6c9c583fb6420001c308d7,Mexican,13 or older,"no, only English or Spanish",no,2025-07-24_11h15.03.412,empathy_intonation_perc_control,2024.2.4,Win32,60.24096386,5a6c9c583fb6420001c308d7,68817205a84113384fffdfe3,68824dd7e8f362c814b9a9a5,,,,,,,,,,,,./stim/wavs/mexican_mismatch_interrogative-total-yn_Mi-novio-viene-del-lago.wav,1,,,80.3411,82.4409,1,1,1.5739,,0,20,20,37,1,38,0,mexican,,,,,,,,,,,,,,,,,,,,,,,,,,,,,,,,,,,,,,,,,,,,,,,,,,,,,,,,
,,,,,,,,,5a6c9c583fb6420001c308d7,Mexican,13 or older,"no, only English or Spanish",no,2025-07-24_11h15.03.412,empathy_intonation_perc_control,2024.2.4,Win32,60.24096386,5a6c9c583fb6420001c308d7,68817205a84113384fffdfe3,68824dd7e8f362c814b9a9a5,,,,,,,,,,,,./stim/wavs/castilian_mismatch_declarative-broad-focus_La-nina-lava-el-plato.wav,0,,,82.4411,84.8744,0,1,1.91,,0,21,21,70,1,71,0,castilian,,,,,,,,,,,,,,,,,,,,,,,,,,,,,,,,,,,,,,,,,,,,,,,,,,,,,,,,
,,,,,,,,,5a6c9c583fb6420001c308d7,Mexican,13 or older,"no, only English or Spanish",no,2025-07-24_11h15.03.412,empathy_intonation_perc_control,2024.2.4,Win32,60.24096386,5a6c9c583fb6420001c308d7,68817205a84113384fffdfe3,68824dd7e8f362c814b9a9a5,,,,,,,,,,,,./stim/wavs/cuban_mismatch_declarative-broad-focus_El-bebe-comia-muy-bien.wav,0,,,84.8745,87.4744,0,1,2.0771,,0,22,22,73,1,74,0,cuban,,,,,,,,,,,,,,,,,,,,,,,,,,,,,,,,,,,,,,,,,,,,,,,,,,,,,,,,
,,,,,,,,,5a6c9c583fb6420001c308d7,Mexican,13 or older,"no, only English or Spanish",no,2025-07-24_11h15.03.412,empathy_intonation_perc_control,2024.2.4,Win32,60.24096386,5a6c9c583fb6420001c308d7,68817205a84113384fffdfe3,68824dd7e8f362c814b9a9a5,,,,,,,,,,,,./stim/wavs/puertorican_mismatch_declarative-broad-focus_La-nina-lava-el-plato.wav,0,,,87.4747,89.3412,0,1,1.3423,,0,23,23,87,1,88,0,puertorican,,,,,,,,,,,,,,,,,,,,,,,,,,,,,,,,,,,,,,,,,,,,,,,,,,,,,,,,
,,,,,,,,,5a6c9c583fb6420001c308d7,Mexican,13 or older,"no, only English or Spanish",no,2025-07-24_11h15.03.412,empathy_intonation_perc_control,2024.2.4,Win32,60.24096386,5a6c9c583fb6420001c308d7,68817205a84113384fffdfe3,68824dd7e8f362c814b9a9a5,,,,,,,,,,,,./stim/wavs/castilian_mismatch_interrogative-total-yn_Mi-tia-odia-la-lluvia.wav,1,,,89.3415,91.4912,1,1,1.6175,,0,24,24,28,1,29,0,castilian,,,,,,,,,,,,,,,,,,,,,,,,,,,,,,,,,,,,,,,,,,,,,,,,,,,,,,,,
,,,,,,,,,5a6c9c583fb6420001c308d7,Mexican,13 or older,"no, only English or Spanish",no,2025-07-24_11h15.03.412,empathy_intonation_perc_control,2024.2.4,Win32,60.24096386,5a6c9c583fb6420001c308d7,68817205a84113384fffdfe3,68824dd7e8f362c814b9a9a5,,,,,,,,,,,,./stim/wavs/puertorican_match_interrogative-total-yn_Ana-lleva-el-abrigo.wav,1,,,91.4914,93.808,0,0,1.7926,,0,25,25,18,1,19,1,puertorican,,,,,,,,,,,,,,,,,,,,,,,,,,,,,,,,,,,,,,,,,,,,,,,,,,,,,,,,
,,,,,,,,,5a6c9c583fb6420001c308d7,Mexican,13 or older,"no, only English or Spanish",no,2025-07-24_11h15.03.412,empathy_intonation_perc_control,2024.2.4,Win32,60.24096386,5a6c9c583fb6420001c308d7,68817205a84113384fffdfe3,68824dd7e8f362c814b9a9a5,,,,,,,,,,,,./stim/wavs/castilian_match_declarative-broad-focus_Maria-bebe-el-vino.wav,0,,,93.8083,96.1081,0,1,1.7756,,0,26,26,47,1,48,0,castilian,,,,,,,,,,,,,,,,,,,,,,,,,,,,,,,,,,,,,,,,,,,,,,,,,,,,,,,,
,,,,,,,,,5a6c9c583fb6420001c308d7,Mexican,13 or older,"no, only English or Spanish",no,2025-07-24_11h15.03.412,empathy_intonation_perc_control,2024.2.4,Win32,60.24096386,5a6c9c583fb6420001c308d7,68817205a84113384fffdfe3,68824dd7e8f362c814b9a9a5,,,,,,,,,,,,./stim/wavs/puertorican_match_declarative-broad-focus_Emilio-ama-la-marcha.wav,0,,,96.1084,97.8748,0,1,1.2411,,0,27,27,65,1,66,0,puertorican,,,,,,,,,,,,,,,,,,,,,,,,,,,,,,,,,,,,,,,,,,,,,,,,,,,,,,,,
,,,,,,,,,5a6c9c583fb6420001c308d7,Mexican,13 or older,"no, only English or Spanish",no,2025-07-24_11h15.03.412,empathy_intonation_perc_control,2024.2.4,Win32,60.24096386,5a6c9c583fb6420001c308d7,68817205a84113384fffdfe3,68824dd7e8f362c814b9a9a5,,,,,,,,,,,,./stim/wavs/mexican_match_interrogative-total-yn_Emilio-ama-la-marcha.wav,1,,,97.8752,99.9084,1,1,1.5067,,0,28,28,15,1,16,0,mexican,,,,,,,,,,,,,,,,,,,,,,,,,,,,,,,,,,,,,,,,,,,,,,,,,,,,,,,,
,,,,,,,,,5a6c9c583fb6420001c308d7,Mexican,13 or older,"no, only English or Spanish",no,2025-07-24_11h15.03.412,empathy_intonation_perc_control,2024.2.4,Win32,60.24096386,5a6c9c583fb6420001c308d7,68817205a84113384fffdfe3,68824dd7e8f362c814b9a9a5,,,,,,,,,,,,./stim/wavs/mexican_mismatch_interrogative-total-yn_Mi-tia-odia-la-lluvia.wav,1,,,99.9087,101.8916,1,1,1.4565,,0,29,29,38,1,39,0,mexican,,,,,,,,,,,,,,,,,,,,,,,,,,,,,,,,,,,,,,,,,,,,,,,,,,,,,,,,
,,,,,,,,,5a6c9c583fb6420001c308d7,Mexican,13 or older,"no, only English or Spanish",no,2025-07-24_11h15.03.412,empathy_intonation_perc_control,2024.2.4,Win32,60.24096386,5a6c9c583fb6420001c308d7,68817205a84113384fffdfe3,68824dd7e8f362c814b9a9a5,,,,,,,,,,,,./stim/wavs/puertorican_match_interrogative-total-yn_Daniel-iba-a-Bolivia.wav,1,,,101.892,104.225,0,0,1.8067,,0,30,30,19,1,20,1,puertorican,,,,,,,,,,,,,,,,,,,,,,,,,,,,,,,,,,,,,,,,,,,,,,,,,,,,,,,,
,,,,,,,,,5a6c9c583fb6420001c308d7,Mexican,13 or older,"no, only English or Spanish",no,2025-07-24_11h15.03.412,empathy_intonation_perc_control,2024.2.4,Win32,60.24096386,5a6c9c583fb6420001c308d7,68817205a84113384fffdfe3,68824dd7e8f362c814b9a9a5,,,,,,,,,,,,./stim/wavs/cuban_mismatch_interrogative-total-yn_El-hombre-mira-la-luna.wav,1,,,104.2253,106.4085,0,0,1.6326,,0,31,31,29,1,30,1,cuban,,,,,,,,,,,,,,,,,,,,,,,,,,,,,,,,,,,,,,,,,,,,,,,,,,,,,,,,
,,,,,,,,,5a6c9c583fb6420001c308d7,Mexican,13 or older,"no, only English or Spanish",no,2025-07-24_11h15.03.412,empathy_intonation_perc_control,2024.2.4,Win32,60.24096386,5a6c9c583fb6420001c308d7,68817205a84113384fffdfe3,68824dd7e8f362c814b9a9a5,,,,,,,,,,,,./stim/wavs/castilian_mismatch_interrogative-total-yn_Mi-madre-come-la-fruta.wav,1,,,106.4088,108.6919,0,0,1.7501,,0,32,32,26,1,27,0,castilian,,,,,,,,,,,,,,,,,,,,,,,,,,,,,,,,,,,,,,,,,,,,,,,,,,,,,,,,
,,,,,,,,,5a6c9c583fb6420001c308d7,Mexican,13 or older,"no, only English or Spanish",no,2025-07-24_11h15.03.412,empathy_intonation_perc_control,2024.2.4,Win32,60.24096386,5a6c9c583fb6420001c308d7,68817205a84113384fffdfe3,68824dd7e8f362c814b9a9a5,,,,,,,,,,,,./stim/wavs/mexican_match_declarative-broad-focus_Daniel-iba-a-Bolivia.wav,0,,,108.6922,110.7586,0,1,1.5334,,0,33,33,57,1,58,0,mexican,,,,,,,,,,,,,,,,,,,,,,,,,,,,,,,,,,,,,,,,,,,,,,,,,,,,,,,,
,,,,,,,,,5a6c9c583fb6420001c308d7,Mexican,13 or older,"no, only English or Spanish",no,2025-07-24_11h15.03.412,empathy_intonation_perc_control,2024.2.4,Win32,60.24096386,5a6c9c583fb6420001c308d7,68817205a84113384fffdfe3,68824dd7e8f362c814b9a9a5,,,,,,,,,,,,./stim/wavs/cuban_mismatch_interrogative-total-yn_El-nino-oye-el-rio.wav,1,,,110.7588,112.6087,1,1,1.3227,,0,34,34,30,1,31,1,cuban,,,,,,,,,,,,,,,,,,,,,,,,,,,,,,,,,,,,,,,,,,,,,,,,,,,,,,,,
,,,,,,,,,5a6c9c583fb6420001c308d7,Mexican,13 or older,"no, only English or Spanish",no,2025-07-24_11h15.03.412,empathy_intonation_perc_control,2024.2.4,Win32,60.24096386,5a6c9c583fb6420001c308d7,68817205a84113384fffdfe3,68824dd7e8f362c814b9a9a5,,,,,,,,,,,,./stim/wavs/puertorican_match_declarative-broad-focus_Ana-lleva-el-abrigo.wav,0,,,112.609,114.4087,0,1,1.2718,,0,35,35,62,1,63,0,puertorican,,,,,,,,,,,,,,,,,,,,,,,,,,,,,,,,,,,,,,,,,,,,,,,,,,,,,,,,
,,,,,,,,,5a6c9c583fb6420001c308d7,Mexican,13 or older,"no, only English or Spanish",no,2025-07-24_11h15.03.412,empathy_intonation_perc_control,2024.2.4,Win32,60.24096386,5a6c9c583fb6420001c308d7,68817205a84113384fffdfe3,68824dd7e8f362c814b9a9a5,,,,,,,,,,,,./stim/wavs/mexican_mismatch_declarative-broad-focus_Mi-tia-odia-la-lluvia.wav,0,,,114.409,116.8922,0,1,1.9502,,0,36,36,82,1,83,0,mexican,,,,,,,,,,,,,,,,,,,,,,,,,,,,,,,,,,,,,,,,,,,,,,,,,,,,,,,,
,,,,,,,,,5a6c9c583fb6420001c308d7,Mexican,13 or older,"no, only English or Spanish",no,2025-07-24_11h15.03.412,empathy_intonation_perc_control,2024.2.4,Win32,60.24096386,5a6c9c583fb6420001c308d7,68817205a84113384fffdfe3,68824dd7e8f362c814b9a9a5,,,,,,,,,,,,./stim/wavs/cuban_mismatch_declarative-broad-focus_Mi-tia-odia-la-lluvia.wav,0,,,116.8925,119.159,0,1,1.7403,,0,37,37,77,1,78,0,cuban,,,,,,,,,,,,,,,,,,,,,,,,,,,,,,,,,,,,,,,,,,,,,,,,,,,,,,,,
,,,,,,,,,5a6c9c583fb6420001c308d7,Mexican,13 or older,"no, only English or Spanish",no,2025-07-24_11h15.03.412,empathy_intonation_perc_control,2024.2.4,Win32,60.24096386,5a6c9c583fb6420001c308d7,68817205a84113384fffdfe3,68824dd7e8f362c814b9a9a5,,,,,,,,,,,,./stim/wavs/puertorican_mismatch_interrogative-total-yn_La-nina-lava-el-plato.wav,1,,,119.1592,121.0261,1,1,1.3383,,0,38,38,42,1,43,1,puertorican,,,,,,,,,,,,,,,,,,,,,,,,,,,,,,,,,,,,,,,,,,,,,,,,,,,,,,,,
,,,,,,,,,5a6c9c583fb6420001c308d7,Mexican,13 or older,"no, only English or Spanish",no,2025-07-24_11h15.03.412,empathy_intonation_perc_control,2024.2.4,Win32,60.24096386,5a6c9c583fb6420001c308d7,68817205a84113384fffdfe3,68824dd7e8f362c814b9a9a5,,,,,,,,,,,,./stim/wavs/cuban_match_declarative-broad-focus_Manuela-vende-el-carro.wav,0,,,121.0264,123.1591,0,1,1.6044,,0,39,39,52,1,53,0,cuban,,,,,,,,,,,,,,,,,,,,,,,,,,,,,,,,,,,,,,,,,,,,,,,,,,,,,,,,
,,,,,,,,,5a6c9c583fb6420001c308d7,Mexican,13 or older,"no, only English or Spanish",no,2025-07-24_11h15.03.412,empathy_intonation_perc_control,2024.2.4,Win32,60.24096386,5a6c9c583fb6420001c308d7,68817205a84113384fffdfe3,68824dd7e8f362c814b9a9a5,,,,,,,,,,,,./stim/wavs/cuban_match_declarative-broad-focus_Mariano-habla-del-tiempo.wav,0,,,123.1593,125.6593,0,1,1.9451,,0,40,40,54,1,55,0,cuban,,,,,,,,,,,,,,,,,,,,,,,,,,,,,,,,,,,,,,,,,,,,,,,,,,,,,,,,
,,,,,,,,,5a6c9c583fb6420001c308d7,Mexican,13 or older,"no, only English or Spanish",no,2025-07-24_11h15.03.412,empathy_intonation_perc_control,2024.2.4,Win32,60.24096386,5a6c9c583fb6420001c308d7,68817205a84113384fffdfe3,68824dd7e8f362c814b9a9a5,,,,,,,,,,,,./stim/wavs/puertorican_match_declarative-broad-focus_Maria-bebe-el-vino.wav,0,,,125.6595,128.3926,1,0,2.2001,,0,41,41,67,1,68,0,puertorican,,,,,,,,,,,,,,,,,,,,,,,,,,,,,,,,,,,,,,,,,,,,,,,,,,,,,,,,
,,,,,,,,,5a6c9c583fb6420001c308d7,Mexican,13 or older,"no, only English or Spanish",no,2025-07-24_11h15.03.412,empathy_intonation_perc_control,2024.2.4,Win32,60.24096386,5a6c9c583fb6420001c308d7,68817205a84113384fffdfe3,68824dd7e8f362c814b9a9a5,,,,,,,,,,,,./stim/wavs/castilian_match_declarative-broad-focus_Manuela-vende-el-carro.wav,0,,,128.3929,130.8928,0,1,1.9702,,0,42,42,46,1,47,0,castilian,,,,,,,,,,,,,,,,,,,,,,,,,,,,,,,,,,,,,,,,,,,,,,,,,,,,,,,,
,,,,,,,,,5a6c9c583fb6420001c308d7,Mexican,13 or older,"no, only English or Spanish",no,2025-07-24_11h15.03.412,empathy_intonation_perc_control,2024.2.4,Win32,60.24096386,5a6c9c583fb6420001c308d7,68817205a84113384fffdfe3,68824dd7e8f362c814b9a9a5,,,,,,,,,,,,./stim/wavs/mexican_mismatch_interrogative-total-yn_El-hombre-mira-la-luna.wav,1,,,130.8931,132.7928,1,1,1.3757,,0,43,43,34,1,35,0,mexican,,,,,,,,,,,,,,,,,,,,,,,,,,,,,,,,,,,,,,,,,,,,,,,,,,,,,,,,
,,,,,,,,,5a6c9c583fb6420001c308d7,Mexican,13 or older,"no, only English or Spanish",no,2025-07-24_11h15.03.412,empathy_intonation_perc_control,2024.2.4,Win32,60.24096386,5a6c9c583fb6420001c308d7,68817205a84113384fffdfe3,68824dd7e8f362c814b9a9a5,,,,,,,,,,,,./stim/wavs/puertorican_mismatch_interrogative-total-yn_El-nino-oye-el-rio.wav,1,,,132.793,135.1929,0,0,1.8941,,0,44,44,40,1,41,1,puertorican,,,,,,,,,,,,,,,,,,,,,,,,,,,,,,,,,,,,,,,,,,,,,,,,,,,,,,,,
,,,,,,,,,5a6c9c583fb6420001c308d7,Mexican,13 or older,"no, only English or Spanish",no,2025-07-24_11h15.03.412,empathy_intonation_perc_control,2024.2.4,Win32,60.24096386,5a6c9c583fb6420001c308d7,68817205a84113384fffdfe3,68824dd7e8f362c814b9a9a5,,,,,,,,,,,,./stim/wavs/castilian_mismatch_declarative-broad-focus_La-maestra-vive-en-Paris.wav,0,,,135.1932,137.6263,0,1,1.8878,,0,45,45,69,1,70,0,castilian,,,,,,,,,,,,,,,,,,,,,,,,,,,,,,,,,,,,,,,,,,,,,,,,,,,,,,,,
,,,,,,,,,5a6c9c583fb6420001c308d7,Mexican,13 or older,"no, only English or Spanish",no,2025-07-24_11h15.03.412,empathy_intonation_perc_control,2024.2.4,Win32,60.24096386,5a6c9c583fb6420001c308d7,68817205a84113384fffdfe3,68824dd7e8f362c814b9a9a5,,,,,,,,,,,,./stim/wavs/cuban_mismatch_interrogative-total-yn_Mi-novio-viene-del-lago.wav,1,,,137.6266,140.143,0,0,1.989,,0,46,46,32,1,33,1,cuban,,,,,,,,,,,,,,,,,,,,,,,,,,,,,,,,,,,,,,,,,,,,,,,,,,,,,,,,
,,,,,,,,,5a6c9c583fb6420001c308d7,Mexican,13 or older,"no, only English or Spanish",no,2025-07-24_11h15.03.412,empathy_intonation_perc_control,2024.2.4,Win32,60.24096386,5a6c9c583fb6420001c308d7,68817205a84113384fffdfe3,68824dd7e8f362c814b9a9a5,,,,,,,,,,,,./stim/wavs/castilian_match_interrogative-total-yn_Maria-bebe-el-vino.wav,1,,,140.1433,142.3099,1,1,1.6381,,0,47,47,3,1,4,0,castilian,,,,,,,,,,,,,,,,,,,,,,,,,,,,,,,,,,,,,,,,,,,,,,,,,,,,,,,,
,,,,,,,,,5a6c9c583fb6420001c308d7,Mexican,13 or older,"no, only English or Spanish",no,2025-07-24_11h15.03.412,empathy_intonation_perc_control,2024.2.4,Win32,60.24096386,5a6c9c583fb6420001c308d7,68817205a84113384fffdfe3,68824dd7e8f362c814b9a9a5,,,,,,,,,,,,./stim/wavs/castilian_match_interrogative-total-yn_Mariano-habla-del-tiempo.wav,1,,,142.3102,144.7266,1,1,1.8727,,0,48,48,4,1,5,0,castilian,,,,,,,,,,,,,,,,,,,,,,,,,,,,,,,,,,,,,,,,,,,,,,,,,,,,,,,,
,,,,,,,,,5a6c9c583fb6420001c308d7,Mexican,13 or older,"no, only English or Spanish",no,2025-07-24_11h15.03.412,empathy_intonation_perc_control,2024.2.4,Win32,60.24096386,5a6c9c583fb6420001c308d7,68817205a84113384fffdfe3,68824dd7e8f362c814b9a9a5,,,,,,,,,,,,./stim/wavs/puertorican_mismatch_interrogative-total-yn_Mi-madre-come-la-fruta.wav,1,,,144.727,146.8434,0,0,1.5966,,0,49,49,43,1,44,1,puertorican,,,,,,,,,,,,,,,,,,,,,,,,,,,,,,,,,,,,,,,,,,,,,,,,,,,,,,,,
,,,,,,,,,5a6c9c583fb6420001c308d7,Mexican,13 or older,"no, only English or Spanish",no,2025-07-24_11h15.03.412,empathy_intonation_perc_control,2024.2.4,Win32,60.24096386,5a6c9c583fb6420001c308d7,68817205a84113384fffdfe3,68824dd7e8f362c814b9a9a5,,,,,,,,,,,,./stim/wavs/mexican_mismatch_interrogative-total-yn_La-maestra-vive-en-Paris.wav,1,,,146.8436,149.1934,1,1,1.8228,,0,50,50,36,1,37,0,mexican,,,,,,,,,,,,,,,,,,,,,,,,,,,,,,,,,,,,,,,,,,,,,,,,,,,,,,,,
,,,,,,,,,5a6c9c583fb6420001c308d7,Mexican,13 or older,"no, only English or Spanish",no,2025-07-24_11h15.03.412,empathy_intonation_perc_control,2024.2.4,Win32,60.24096386,5a6c9c583fb6420001c308d7,68817205a84113384fffdfe3,68824dd7e8f362c814b9a9a5,,,,,,,,,,,,./stim/wavs/puertorican_mismatch_declarative-broad-focus_El-nino-oye-el-rio.wav,0,,,149.1937,151.3935,0,1,1.6732,,0,51,51,85,1,86,0,puertorican,,,,,,,,,,,,,,,,,,,,,,,,,,,,,,,,,,,,,,,,,,,,,,,,,,,,,,,,
,,,,,,,,,5a6c9c583fb6420001c308d7,Mexican,13 or older,"no, only English or Spanish",no,2025-07-24_11h15.03.412,empathy_intonation_perc_control,2024.2.4,Win32,60.24096386,5a6c9c583fb6420001c308d7,68817205a84113384fffdfe3,68824dd7e8f362c814b9a9a5,,,,,,,,,,,,./stim/wavs/castilian_mismatch_interrogative-total-yn_La-maestra-vive-en-Paris.wav,1,,,151.3938,153.9769,1,1,2.0557,,0,52,52,24,1,25,0,castilian,,,,,,,,,,,,,,,,,,,,,,,,,,,,,,,,,,,,,,,,,,,,,,,,,,,,,,,,
,,,,,,,,,5a6c9c583fb6420001c308d7,Mexican,13 or older,"no, only English or Spanish",no,2025-07-24_11h15.03.412,empathy_intonation_perc_control,2024.2.4,Win32,60.24096386,5a6c9c583fb6420001c308d7,68817205a84113384fffdfe3,68824dd7e8f362c814b9a9a5,,,,,,,,,,,,./stim/wavs/mexican_match_interrogative-total-yn_Daniel-iba-a-Bolivia.wav,1,,,153.9772,156.1462,1,1,1.6494,,0,53,53,13,1,14,0,mexican,,,,,,,,,,,,,,,,,,,,,,,,,,,,,,,,,,,,,,,,,,,,,,,,,,,,,,,,
,,,,,,,,,5a6c9c583fb6420001c308d7,Mexican,13 or older,"no, only English or Spanish",no,2025-07-24_11h15.03.412,empathy_intonation_perc_control,2024.2.4,Win32,60.24096386,5a6c9c583fb6420001c308d7,68817205a84113384fffdfe3,68824dd7e8f362c814b9a9a5,,,,,,,,,,,,./stim/wavs/cuban_match_declarative-broad-focus_Marta-abre-el-regalo.wav,0,,,156.1464,158.1938,0,1,1.5209,,0,54,54,55,1,56,0,cuban,,,,,,,,,,,,,,,,,,,,,,,,,,,,,,,,,,,,,,,,,,,,,,,,,,,,,,,,
,,,,,,,,,5a6c9c583fb6420001c308d7,Mexican,13 or older,"no, only English or Spanish",no,2025-07-24_11h15.03.412,empathy_intonation_perc_control,2024.2.4,Win32,60.24096386,5a6c9c583fb6420001c308d7,68817205a84113384fffdfe3,68824dd7e8f362c814b9a9a5,,,,,,,,,,,,./stim/wavs/castilian_match_declarative-broad-focus_Marta-abre-el-regalo.wav,0,,,158.194,160.2438,0,1,1.5019,,0,55,55,49,1,50,0,castilian,,,,,,,,,,,,,,,,,,,,,,,,,,,,,,,,,,,,,,,,,,,,,,,,,,,,,,,,
,,,,,,,,,5a6c9c583fb6420001c308d7,Mexican,13 or older,"no, only English or Spanish",no,2025-07-24_11h15.03.412,empathy_intonation_perc_control,2024.2.4,Win32,60.24096386,5a6c9c583fb6420001c308d7,68817205a84113384fffdfe3,68824dd7e8f362c814b9a9a5,,,,,,,,,,,,./stim/wavs/mexican_mismatch_declarative-broad-focus_La-maestra-vive-en-Paris.wav,0,,,160.244,162.4105,0,1,1.6364,,0,56,56,80,1,81,0,mexican,,,,,,,,,,,,,,,,,,,,,,,,,,,,,,,,,,,,,,,,,,,,,,,,,,,,,,,,
,,,,,,,,,5a6c9c583fb6420001c308d7,Mexican,13 or older,"no, only English or Spanish",no,2025-07-24_11h15.03.412,empathy_intonation_perc_control,2024.2.4,Win32,60.24096386,5a6c9c583fb6420001c308d7,68817205a84113384fffdfe3,68824dd7e8f362c814b9a9a5,,,,,,,,,,,,./stim/wavs/puertorican_mismatch_interrogative-total-yn_El-hombre-mira-la-luna.wav,1,,,162.4108,164.3606,1,1,1.4186,,0,57,57,39,1,40,1,puertorican,,,,,,,,,,,,,,,,,,,,,,,,,,,,,,,,,,,,,,,,,,,,,,,,,,,,,,,,
,,,,,,,,,5a6c9c583fb6420001c308d7,Mexican,13 or older,"no, only English or Spanish",no,2025-07-24_11h15.03.412,empathy_intonation_perc_control,2024.2.4,Win32,60.24096386,5a6c9c583fb6420001c308d7,68817205a84113384fffdfe3,68824dd7e8f362c814b9a9a5,,,,,,,,,,,,./stim/wavs/puertorican_match_declarative-broad-focus_Manuela-vende-el-carro.wav,0,,,164.3609,166.4107,0,1,1.5171,,0,58,58,66,1,67,0,puertorican,,,,,,,,,,,,,,,,,,,,,,,,,,,,,,,,,,,,,,,,,,,,,,,,,,,,,,,,
,,,,,,,,,5a6c9c583fb6420001c308d7,Mexican,13 or older,"no, only English or Spanish",no,2025-07-24_11h15.03.412,empathy_intonation_perc_control,2024.2.4,Win32,60.24096386,5a6c9c583fb6420001c308d7,68817205a84113384fffdfe3,68824dd7e8f362c814b9a9a5,,,,,,,,,,,,./stim/wavs/puertorican_mismatch_declarative-broad-focus_La-maestra-vive-en-Paris.wav,0,,,166.4109,168.6609,0,1,1.7175,,0,59,59,86,1,87,0,puertorican,,,,,,,,,,,,,,,,,,,,,,,,,,,,,,,,,,,,,,,,,,,,,,,,,,,,,,,,
,,,,,,,,,5a6c9c583fb6420001c308d7,Mexican,13 or older,"no, only English or Spanish",no,2025-07-24_11h15.03.412,empathy_intonation_perc_control,2024.2.4,Win32,60.24096386,5a6c9c583fb6420001c308d7,68817205a84113384fffdfe3,68824dd7e8f362c814b9a9a5,,,,,,,,,,,,./stim/wavs/mexican_mismatch_declarative-broad-focus_Mi-novio-viene-del-lago.wav,0,,,168.6611,171.2443,0,1,2.0601,,0,60,60,81,1,82,0,mexican,,,,,,,,,,,,,,,,,,,,,,,,,,,,,,,,,,,,,,,,,,,,,,,,,,,,,,,,
,,,,,,,,,5a6c9c583fb6420001c308d7,Mexican,13 or older,"no, only English or Spanish",no,2025-07-24_11h15.03.412,empathy_intonation_perc_control,2024.2.4,Win32,60.24096386,5a6c9c583fb6420001c308d7,68817205a84113384fffdfe3,68824dd7e8f362c814b9a9a5,,,,,,,,,,,,./stim/wavs/cuban_match_interrogative-total-yn_Marta-abre-el-regalo.wav,1,,,171.2445,173.2444,0,0,1.4624,,0,61,61,11,1,12,1,cuban,,,,,,,,,,,,,,,,,,,,,,,,,,,,,,,,,,,,,,,,,,,,,,,,,,,,,,,,
,,,,,,,,,5a6c9c583fb6420001c308d7,Mexican,13 or older,"no, only English or Spanish",no,2025-07-24_11h15.03.412,empathy_intonation_perc_control,2024.2.4,Win32,60.24096386,5a6c9c583fb6420001c308d7,68817205a84113384fffdfe3,68824dd7e8f362c814b9a9a5,,,,,,,,,,,,./stim/wavs/puertorican_mismatch_declarative-broad-focus_El-bebe-comia-muy-bien.wav,0,,,173.2447,175.2943,0,1,1.527,,0,62,62,83,1,84,0,puertorican,,,,,,,,,,,,,,,,,,,,,,,,,,,,,,,,,,,,,,,,,,,,,,,,,,,,,,,,
,,,,,,,,,5a6c9c583fb6420001c308d7,Mexican,13 or older,"no, only English or Spanish",no,2025-07-24_11h15.03.412,empathy_intonation_perc_control,2024.2.4,Win32,60.24096386,5a6c9c583fb6420001c308d7,68817205a84113384fffdfe3,68824dd7e8f362c814b9a9a5,,,,,,,,,,,,./stim/wavs/castilian_match_declarative-broad-focus_David-leia-el-libro.wav,0,,,175.2946,177.7278,0,1,1.9112,,0,63,63,44,1,45,0,castilian,,,,,,,,,,,,,,,,,,,,,,,,,,,,,,,,,,,,,,,,,,,,,,,,,,,,,,,,
,,,,,,,,,5a6c9c583fb6420001c308d7,Mexican,13 or older,"no, only English or Spanish",no,2025-07-24_11h15.03.412,empathy_intonation_perc_control,2024.2.4,Win32,60.24096386,5a6c9c583fb6420001c308d7,68817205a84113384fffdfe3,68824dd7e8f362c814b9a9a5,,,,,,,,,,,,./stim/wavs/cuban_match_interrogative-total-yn_Maria-bebe-el-vino.wav,1,,,177.7281,180.0947,0,0,1.8468,,0,64,64,9,1,10,1,cuban,,,,,,,,,,,,,,,,,,,,,,,,,,,,,,,,,,,,,,,,,,,,,,,,,,,,,,,,
,,,,,,,,,5a6c9c583fb6420001c308d7,Mexican,13 or older,"no, only English or Spanish",no,2025-07-24_11h15.03.412,empathy_intonation_perc_control,2024.2.4,Win32,60.24096386,5a6c9c583fb6420001c308d7,68817205a84113384fffdfe3,68824dd7e8f362c814b9a9a5,,,,,,,,,,,,./stim/wavs/puertorican_match_interrogative-total-yn_David-leia-el-libro.wav,1,,,180.095,182.5779,1,1,1.9532,,0,65,65,20,1,21,1,puertorican,,,,,,,,,,,,,,,,,,,,,,,,,,,,,,,,,,,,,,,,,,,,,,,,,,,,,,,,
,,,,,,,,,5a6c9c583fb6420001c308d7,Mexican,13 or older,"no, only English or Spanish",no,2025-07-24_11h15.03.412,empathy_intonation_perc_control,2024.2.4,Win32,60.24096386,5a6c9c583fb6420001c308d7,68817205a84113384fffdfe3,68824dd7e8f362c814b9a9a5,,,,,,,,,,,,./stim/wavs/mexican_match_declarative-broad-focus_David-leia-el-libro.wav,0,,,182.5783,184.7615,0,1,1.6616,,0,66,66,58,1,59,0,mexican,,,,,,,,,,,,,,,,,,,,,,,,,,,,,,,,,,,,,,,,,,,,,,,,,,,,,,,,
,,,,,,,,,5a6c9c583fb6420001c308d7,Mexican,13 or older,"no, only English or Spanish",no,2025-07-24_11h15.03.412,empathy_intonation_perc_control,2024.2.4,Win32,60.24096386,5a6c9c583fb6420001c308d7,68817205a84113384fffdfe3,68824dd7e8f362c814b9a9a5,,,,,,,,,,,,./stim/wavs/castilian_mismatch_declarative-broad-focus_Mi-novio-viene-del-lago.wav,0,,,184.7617,187.295,0,1,2.0087,,0,67,67,71,1,72,0,castilian,,,,,,,,,,,,,,,,,,,,,,,,,,,,,,,,,,,,,,,,,,,,,,,,,,,,,,,,
,,,,,,,,,5a6c9c583fb6420001c308d7,Mexican,13 or older,"no, only English or Spanish",no,2025-07-24_11h15.03.412,empathy_intonation_perc_control,2024.2.4,Win32,60.24096386,5a6c9c583fb6420001c308d7,68817205a84113384fffdfe3,68824dd7e8f362c814b9a9a5,,,,,,,,,,,,./stim/wavs/cuban_match_declarative-broad-focus_Ana-lleva-el-abrigo.wav,0,,,187.2954,189.4987,0,1,1.6839,,0,68,68,50,1,51,0,cuban,,,,,,,,,,,,,,,,,,,,,,,,,,,,,,,,,,,,,,,,,,,,,,,,,,,,,,,,
,,,,,,,,,5a6c9c583fb6420001c308d7,Mexican,13 or older,"no, only English or Spanish",no,2025-07-24_11h15.03.412,empathy_intonation_perc_control,2024.2.4,Win32,60.24096386,5a6c9c583fb6420001c308d7,68817205a84113384fffdfe3,68824dd7e8f362c814b9a9a5,,,,,,,,,,,,./stim/wavs/puertorican_mismatch_declarative-broad-focus_El-hombre-mira-la-luna.wav,0,,,189.4989,191.6619,1,0,1.6387,,0,69,69,84,1,85,0,puertorican,,,,,,,,,,,,,,,,,,,,,,,,,,,,,,,,,,,,,,,,,,,,,,,,,,,,,,,,
,,,,,,,,,5a6c9c583fb6420001c308d7,Mexican,13 or older,"no, only English or Spanish",no,2025-07-24_11h15.03.412,empathy_intonation_perc_control,2024.2.4,Win32,60.24096386,5a6c9c583fb6420001c308d7,68817205a84113384fffdfe3,68824dd7e8f362c814b9a9a5,,,,,,,,,,,,./stim/wavs/cuban_match_declarative-broad-focus_Maria-bebe-el-vino.wav,0,,,191.6622,193.5117,0,1,1.3296,,0,70,70,53,1,54,0,cuban,,,,,,,,,,,,,,,,,,,,,,,,,,,,,,,,,,,,,,,,,,,,,,,,,,,,,,,,
,,,,,,,,,5a6c9c583fb6420001c308d7,Mexican,13 or older,"no, only English or Spanish",no,2025-07-24_11h15.03.412,empathy_intonation_perc_control,2024.2.4,Win32,60.24096386,5a6c9c583fb6420001c308d7,68817205a84113384fffdfe3,68824dd7e8f362c814b9a9a5,,,,,,,,,,,,./stim/wavs/puertorican_match_interrogative-total-yn_Maria-bebe-el-vino.wav,1,,,193.512,195.3786,1,1,1.3197,,0,71,71,23,1,24,1,puertorican,,,,,,,,,,,,,,,,,,,,,,,,,,,,,,,,,,,,,,,,,,,,,,,,,,,,,,,,
,,,,,,,,,5a6c9c583fb6420001c308d7,Mexican,13 or older,"no, only English or Spanish",no,2025-07-24_11h15.03.412,empathy_intonation_perc_control,2024.2.4,Win32,60.24096386,5a6c9c583fb6420001c308d7,68817205a84113384fffdfe3,68824dd7e8f362c814b9a9a5,,,,,,,,,,,,./stim/wavs/castilian_match_interrogative-total-yn_Manuela-vende-el-carro.wav,1,,,195.3788,197.5952,1,1,1.696,,0,72,72,2,1,3,0,castilian,,,,,,,,,,,,,,,,,,,,,,,,,,,,,,,,,,,,,,,,,,,,,,,,,,,,,,,,
,,,,,,,,,5a6c9c583fb6420001c308d7,Mexican,13 or older,"no, only English or Spanish",no,2025-07-24_11h15.03.412,empathy_intonation_perc_control,2024.2.4,Win32,60.24096386,5a6c9c583fb6420001c308d7,68817205a84113384fffdfe3,68824dd7e8f362c814b9a9a5,,,,,,,,,,,,./stim/wavs/cuban_mismatch_declarative-broad-focus_El-hombre-mira-la-luna.wav,0,,,197.5956,199.562,0,1,1.4286,,0,73,73,74,1,75,0,cuban,,,,,,,,,,,,,,,,,,,,,,,,,,,,,,,,,,,,,,,,,,,,,,,,,,,,,,,,
,,,,,,,,,5a6c9c583fb6420001c308d7,Mexican,13 or older,"no, only English or Spanish",no,2025-07-24_11h15.03.412,empathy_intonation_perc_control,2024.2.4,Win32,60.24096386,5a6c9c583fb6420001c308d7,68817205a84113384fffdfe3,68824dd7e8f362c814b9a9a5,,,,,,,,,,,,./stim/wavs/cuban_match_interrogative-total-yn_Mariano-habla-del-tiempo.wav,1,,,199.5623,201.8621,0,0,1.7624,,0,74,74,10,1,11,1,cuban,,,,,,,,,,,,,,,,,,,,,,,,,,,,,,,,,,,,,,,,,,,,,,,,,,,,,,,,
,,,,,,,,,5a6c9c583fb6420001c308d7,Mexican,13 or older,"no, only English or Spanish",no,2025-07-24_11h15.03.412,empathy_intonation_perc_control,2024.2.4,Win32,60.24096386,5a6c9c583fb6420001c308d7,68817205a84113384fffdfe3,68824dd7e8f362c814b9a9a5,,,,,,,,,,,,./stim/wavs/cuban_mismatch_interrogative-total-yn_Mi-tia-odia-la-lluvia.wav,1,,,201.8624,203.9954,0,0,1.6106,,0,75,75,33,1,34,1,cuban,,,,,,,,,,,,,,,,,,,,,,,,,,,,,,,,,,,,,,,,,,,,,,,,,,,,,,,,
,,,,,,,,,5a6c9c583fb6420001c308d7,Mexican,13 or older,"no, only English or Spanish",no,2025-07-24_11h15.03.412,empathy_intonation_perc_control,2024.2.4,Win32,60.24096386,5a6c9c583fb6420001c308d7,68817205a84113384fffdfe3,68824dd7e8f362c814b9a9a5,,,,,,,,,,,,./stim/wavs/mexican_mismatch_declarative-broad-focus_El-hombre-mira-la-luna.wav,0,,,203.9957,206.1622,0,1,1.643,,0,76,76,79,1,80,0,mexican,,,,,,,,,,,,,,,,,,,,,,,,,,,,,,,,,,,,,,,,,,,,,,,,,,,,,,,,
,,,,,,,,,5a6c9c583fb6420001c308d7,Mexican,13 or older,"no, only English or Spanish",no,2025-07-24_11h15.03.412,empathy_intonation_perc_control,2024.2.4,Win32,60.24096386,5a6c9c583fb6420001c308d7,68817205a84113384fffdfe3,68824dd7e8f362c814b9a9a5,,,,,,,,,,,,./stim/wavs/cuban_mismatch_declarative-broad-focus_Mi-novio-viene-del-lago.wav,0,,,206.1626,208.5458,0,1,1.8507,,0,77,77,76,1,77,0,cuban,,,,,,,,,,,,,,,,,,,,,,,,,,,,,,,,,,,,,,,,,,,,,,,,,,,,,,,,
,,,,,,,,,5a6c9c583fb6420001c308d7,Mexican,13 or older,"no, only English or Spanish",no,2025-07-24_11h15.03.412,empathy_intonation_perc_control,2024.2.4,Win32,60.24096386,5a6c9c583fb6420001c308d7,68817205a84113384fffdfe3,68824dd7e8f362c814b9a9a5,,,,,,,,,,,,./stim/wavs/cuban_match_interrogative-total-yn_Manuela-vende-el-carro.wav,1,,,208.5461,211.0124,1,1,1.9355,,0,78,78,8,1,9,1,cuban,,,,,,,,,,,,,,,,,,,,,,,,,,,,,,,,,,,,,,,,,,,,,,,,,,,,,,,,
,,,,,,,,,5a6c9c583fb6420001c308d7,Mexican,13 or older,"no, only English or Spanish",no,2025-07-24_11h15.03.412,empathy_intonation_perc_control,2024.2.4,Win32,60.24096386,5a6c9c583fb6420001c308d7,68817205a84113384fffdfe3,68824dd7e8f362c814b9a9a5,,,,,,,,,,,,./stim/wavs/cuban_match_declarative-broad-focus_Daniel-iba-a-Bolivia.wav,0,,,211.0126,213.5125,0,1,1.9793,,0,79,79,51,1,52,0,cuban,,,,,,,,,,,,,,,,,,,,,,,,,,,,,,,,,,,,,,,,,,,,,,,,,,,,,,,,
,,,,,,,,,5a6c9c583fb6420001c308d7,Mexican,13 or older,"no, only English or Spanish",no,2025-07-24_11h15.03.412,empathy_intonation_perc_control,2024.2.4,Win32,60.24096386,5a6c9c583fb6420001c308d7,68817205a84113384fffdfe3,68824dd7e8f362c814b9a9a5,,,,,,,,,,,,./stim/wavs/cuban_mismatch_interrogative-total-yn_Mi-madre-come-la-fruta.wav,1,,,213.5127,216.1626,0,0,2.1286,,0,80,80,31,1,32,1,cuban,,,,,,,,,,,,,,,,,,,,,,,,,,,,,,,,,,,,,,,,,,,,,,,,,,,,,,,,
,,,,,,,,,5a6c9c583fb6420001c308d7,Mexican,13 or older,"no, only English or Spanish",no,2025-07-24_11h15.03.412,empathy_intonation_perc_control,2024.2.4,Win32,60.24096386,5a6c9c583fb6420001c308d7,68817205a84113384fffdfe3,68824dd7e8f362c814b9a9a5,,,,,,,,,,,,./stim/wavs/mexican_match_declarative-broad-focus_Mariano-habla-del-tiempo.wav,0,,,216.1629,218.4961,0,1,1.8125,,0,81,81,60,1,61,0,mexican,,,,,,,,,,,,,,,,,,,,,,,,,,,,,,,,,,,,,,,,,,,,,,,,,,,,,,,,
,,,,,,,,,5a6c9c583fb6420001c308d7,Mexican,13 or older,"no, only English or Spanish",no,2025-07-24_11h15.03.412,empathy_intonation_perc_control,2024.2.4,Win32,60.24096386,5a6c9c583fb6420001c308d7,68817205a84113384fffdfe3,68824dd7e8f362c814b9a9a5,,,,,,,,,,,,./stim/wavs/cuban_match_interrogative-total-yn_Ana-lleva-el-abrigo.wav,1,,,218.4963,221.246,0,0,2.231,,0,82,82,6,1,7,1,cuban,,,,,,,,,,,,,,,,,,,,,,,,,,,,,,,,,,,,,,,,,,,,,,,,,,,,,,,,
,,,,,,,,,5a6c9c583fb6420001c308d7,Mexican,13 or older,"no, only English or Spanish",no,2025-07-24_11h15.03.412,empathy_intonation_perc_control,2024.2.4,Win32,60.24096386,5a6c9c583fb6420001c308d7,68817205a84113384fffdfe3,68824dd7e8f362c814b9a9a5,,,,,,,,,,,,./stim/wavs/mexican_match_declarative-broad-focus_Ana-lleva-el-abrigo.wav,0,,,221.2463,223.0962,0,1,1.3252,,0,83,83,56,1,57,0,mexican,,,,,,,,,,,,,,,,,,,,,,,,,,,,,,,,,,,,,,,,,,,,,,,,,,,,,,,,
,,,,,,,,,5a6c9c583fb6420001c308d7,Mexican,13 or older,"no, only English or Spanish",no,2025-07-24_11h15.03.412,empathy_intonation_perc_control,2024.2.4,Win32,60.24096386,5a6c9c583fb6420001c308d7,68817205a84113384fffdfe3,68824dd7e8f362c814b9a9a5,,,,,,,,,,,,./stim/wavs/castilian_match_interrogative-total-yn_David-leia-el-libro.wav,1,,,223.0963,225.1629,1,1,1.5441,,0,84,84,0,1,1,0,castilian,,,,,,,,,,,,,,,,,,,,,,,,,,,,,,,,,,,,,,,,,,,,,,,,,,,,,,,,
,,,,,,,,,5a6c9c583fb6420001c308d7,Mexican,13 or older,"no, only English or Spanish",no,2025-07-24_11h15.03.412,empathy_intonation_perc_control,2024.2.4,Win32,60.24096386,5a6c9c583fb6420001c308d7,68817205a84113384fffdfe3,68824dd7e8f362c814b9a9a5,,,,,,,,,,,,./stim/wavs/puertorican_match_interrogative-total-yn_Emilio-ama-la-marcha.wav,1,,,225.1632,227.4297,0,0,1.7419,,0,85,85,21,1,22,1,puertorican,,,,,,,,,,,,,,,,,,,,,,,,,,,,,,,,,,,,,,,,,,,,,,,,,,,,,,,,
,,,,,,,,,5a6c9c583fb6420001c308d7,Mexican,13 or older,"no, only English or Spanish",no,2025-07-24_11h15.03.412,empathy_intonation_perc_control,2024.2.4,Win32,60.24096386,5a6c9c583fb6420001c308d7,68817205a84113384fffdfe3,68824dd7e8f362c814b9a9a5,,,,,,,,,,,,./stim/wavs/mexican_match_declarative-broad-focus_Emilio-ama-la-marcha.wav,0,,,227.43,229.7631,0,1,1.8015,,0,86,86,59,1,60,0,mexican,,,,,,,,,,,,,,,,,,,,,,,,,,,,,,,,,,,,,,,,,,,,,,,,,,,,,,,,
,,,,,,,,,5a6c9c583fb6420001c308d7,Mexican,13 or older,"no, only English or Spanish",no,2025-07-24_11h15.03.412,empathy_intonation_perc_control,2024.2.4,Win32,60.24096386,5a6c9c583fb6420001c308d7,68817205a84113384fffdfe3,68824dd7e8f362c814b9a9a5,,,,,,,,,,,,./stim/wavs/castilian_match_declarative-broad-focus_Mariano-habla-del-tiempo.wav,0,,,229.7634,233.1632,0,1,2.8618,,0,87,87,48,1,49,0,castilian,,,,,,,,,,,,,,,,,,,,,,,,,,,,,,,,,,,,,,,,,,,,,,,,,,,,,,,,
,,,,,,,"Great! Now we will move on. The next task consists of about 60 trials, in each of which you will see a string of letters. 
  
  Your task is to decide whether this is a real Spanish word or not.", (press the spacebar to continue),5a6c9c583fb6420001c308d7,Mexican,13 or older,"no, only English or Spanish",no,2025-07-24_11h15.03.412,empathy_intonation_perc_control,2024.2.4,Win32,60.24096386,5a6c9c583fb6420001c308d7,68817205a84113384fffdfe3,68824dd7e8f362c814b9a9a5,,,,,,,,,,,,,,,,,,,,,,,,,,,,,,233.1664,241.4493,0,0,0,0,1,,,,,,,,,,,,,,,,,,,,,,,,,,,,,,,,,,,,,,,,,,,,,,,,,
,,,,,,,"If you think it is an existing Spanish word, you type '1' (for 'REAL'), and if you think it is not an existing Spanish word, you type '0' (for 'FAKE').", (press the spacebar to continue),5a6c9c583fb6420001c308d7,Mexican,13 or older,"no, only English or Spanish",no,2025-07-24_11h15.03.412,empathy_intonation_perc_control,2024.2.4,Win32,60.24096386,5a6c9c583fb6420001c308d7,68817205a84113384fffdfe3,68824dd7e8f362c814b9a9a5,,,,,,,,,,,,,,,,,,,,,,,,,,,,,,241.4509,244.8805,0,1,1,1,1,,,,,,,,,,,,,,,,,,,,,,,,,,,,,,,,,,,,,,,,,,,,,,,,,
,,,,,,,"If you are sure that the word exists, even though you don’t know its exact meaning, you may still respond '1' (REAL). 
  
  But if you are not sure if it is an existing word, you should respond '0' (FAKE).
  
  Let's do a practice round...", (press the spacebar to continue),5a6c9c583fb6420001c308d7,Mexican,13 or older,"no, only English or Spanish",no,2025-07-24_11h15.03.412,empathy_intonation_perc_control,2024.2.4,Win32,60.24096386,5a6c9c583fb6420001c308d7,68817205a84113384fffdfe3,68824dd7e8f362c814b9a9a5,,,,,,,,,,,,,,,,,,,,,,,,,,,,,,244.8818,252.3014,0,2,2,2,1,,,,,,,,,,,,,,,,,,,,,,,,,,,,,,,,,,,,,,,,,,,,,,,,,
,,,,,,,,,5a6c9c583fb6420001c308d7,Mexican,13 or older,"no, only English or Spanish",no,2025-07-24_11h15.03.412,empathy_intonation_perc_control,2024.2.4,Win32,60.24096386,5a6c9c583fb6420001c308d7,68817205a84113384fffdfe3,68824dd7e8f362c814b9a9a5,,,,,,,,,,,,,0,,,,,,,,,,,,,,,,,,,,,,,,252.3043,256.3144,1,0,3.4748,,256.3145,257.3142,0,0,0,0,1,0,depiste,REAL,FAKE,,,,,,,,,,,,,,,,,,,,,,,,,,,,,,,,
,,,,,,,,,5a6c9c583fb6420001c308d7,Mexican,13 or older,"no, only English or Spanish",no,2025-07-24_11h15.03.412,empathy_intonation_perc_control,2024.2.4,Win32,60.24096386,5a6c9c583fb6420001c308d7,68817205a84113384fffdfe3,68824dd7e8f362c814b9a9a5,,,,,,,,,,,,,1,,,,,,,,,,,,,,,,,,,,,,,,257.3151,258.8183,1,1,0.9669,,258.8189,259.8183,0,1,1,1,1,0,sí,REAL,FAKE,,,,,,,,,,,,,,,,,,,,,,,,,,,,,,,,
,,,,,,,,,5a6c9c583fb6420001c308d7,Mexican,13 or older,"no, only English or Spanish",no,2025-07-24_11h15.03.412,empathy_intonation_perc_control,2024.2.4,Win32,60.24096386,5a6c9c583fb6420001c308d7,68817205a84113384fffdfe3,68824dd7e8f362c814b9a9a5,,,,,,,,,,,,,0,,,,,,,,,,,,,,,,,,,,,,,,259.819,261.6144,1,0,1.251,,261.6147,262.6143,0,2,2,2,1,0,coné,REAL,FAKE,,,,,,,,,,,,,,,,,,,,,,,,,,,,,,,,
,,,,,,,,,5a6c9c583fb6420001c308d7,Mexican,13 or older,"no, only English or Spanish",no,2025-07-24_11h15.03.412,empathy_intonation_perc_control,2024.2.4,Win32,60.24096386,5a6c9c583fb6420001c308d7,68817205a84113384fffdfe3,68824dd7e8f362c814b9a9a5,,,,,,,,,,,,,0,,,,,,,,,,,,,,,,,,,,,,,,262.6149,264.3811,1,0,1.2275,,264.3811,265.3811,0,3,3,3,1,0,calpar,REAL,FAKE,,,,,,,,,,,,,,,,,,,,,,,,,,,,,,,,
,,,,,,,,,5a6c9c583fb6420001c308d7,Mexican,13 or older,"no, only English or Spanish",no,2025-07-24_11h15.03.412,empathy_intonation_perc_control,2024.2.4,Win32,60.24096386,5a6c9c583fb6420001c308d7,68817205a84113384fffdfe3,68824dd7e8f362c814b9a9a5,,,,,,,,,,,,,0,,,,,,,,,,,,,,,,,,,,,,,,265.3817,266.9645,0,1,1.046,,266.9649,267.9645,0,4,4,4,1,0,joten,REAL,FAKE,,,,,,,,,,,,,,,,,,,,,,,,,,,,,,,,
,,,,,,,,,5a6c9c583fb6420001c308d7,Mexican,13 or older,"no, only English or Spanish",no,2025-07-24_11h15.03.412,empathy_intonation_perc_control,2024.2.4,Win32,60.24096386,5a6c9c583fb6420001c308d7,68817205a84113384fffdfe3,68824dd7e8f362c814b9a9a5,,,,,,,,,,,,,1,,,,,,,,,,,,,,,,,,,,,,,,267.965,270.1479,0,0,1.6418,,270.1483,271.1482,0,5,5,5,1,0,sacapuntas,REAL,FAKE,,,,,,,,,,,,,,,,,,,,,,,,,,,,,,,,
,,,,,,,,,5a6c9c583fb6420001c308d7,Mexican,13 or older,"no, only English or Spanish",no,2025-07-24_11h15.03.412,empathy_intonation_perc_control,2024.2.4,Win32,60.24096386,5a6c9c583fb6420001c308d7,68817205a84113384fffdfe3,68824dd7e8f362c814b9a9a5,,,,,,,,,,,,,0,,,,,,,,,,,,,,,,,,,,,,,,271.149,272.6482,1,0,0.9576,,272.6483,273.6481,0,6,6,6,1,0,priba,REAL,FAKE,,,,,,,,,,,,,,,,,,,,,,,,,,,,,,,,
,,,,,,,,,5a6c9c583fb6420001c308d7,Mexican,13 or older,"no, only English or Spanish",no,2025-07-24_11h15.03.412,empathy_intonation_perc_control,2024.2.4,Win32,60.24096386,5a6c9c583fb6420001c308d7,68817205a84113384fffdfe3,68824dd7e8f362c814b9a9a5,,,,,,,,,,,,,0,,,,,,,,,,,,,,,,,,,,,,,,273.6485,276.5649,0,1,2.3834,,276.5652,277.5649,0,7,7,7,1,0,pelasula,REAL,FAKE,,,,,,,,,,,,,,,,,,,,,,,,,,,,,,,,
,,,,,,,,,5a6c9c583fb6420001c308d7,Mexican,13 or older,"no, only English or Spanish",no,2025-07-24_11h15.03.412,empathy_intonation_perc_control,2024.2.4,Win32,60.24096386,5a6c9c583fb6420001c308d7,68817205a84113384fffdfe3,68824dd7e8f362c814b9a9a5,,,,,,,,,,,,,1,,,,,,,,,,,,,,,,,,,,,,,,277.5653,278.8649,1,1,0.7585,,278.8649,279.8649,0,8,8,8,1,0,bien,REAL,FAKE,,,,,,,,,,,,,,,,,,,,,,,,,,,,,,,,
,,,,,,,,,5a6c9c583fb6420001c308d7,Mexican,13 or older,"no, only English or Spanish",no,2025-07-24_11h15.03.412,empathy_intonation_perc_control,2024.2.4,Win32,60.24096386,5a6c9c583fb6420001c308d7,68817205a84113384fffdfe3,68824dd7e8f362c814b9a9a5,,,,,,,,,,,,,1,,,,,,,,,,,,,,,,,,,,,,,,279.8655,281.0484,1,1,0.6331,,281.0484,282.0483,0,9,9,9,1,0,casa,REAL,FAKE,,,,,,,,,,,,,,,,,,,,,,,,,,,,,,,,
,,,,,,,,,5a6c9c583fb6420001c308d7,Mexican,13 or older,"no, only English or Spanish",no,2025-07-24_11h15.03.412,empathy_intonation_perc_control,2024.2.4,Win32,60.24096386,5a6c9c583fb6420001c308d7,68817205a84113384fffdfe3,68824dd7e8f362c814b9a9a5,,,,,,,,,,,,,0,,,,,,,,,,,,,,,,,,,,,,,,282.0489,283.4651,1,0,0.8683,,283.4655,284.4651,0,10,10,10,1,0,lejo,REAL,FAKE,,,,,,,,,,,,,,,,,,,,,,,,,,,,,,,,
,,,,,,,,,5a6c9c583fb6420001c308d7,Mexican,13 or older,"no, only English or Spanish",no,2025-07-24_11h15.03.412,empathy_intonation_perc_control,2024.2.4,Win32,60.24096386,5a6c9c583fb6420001c308d7,68817205a84113384fffdfe3,68824dd7e8f362c814b9a9a5,,,,,,,,,,,,,0,,,,,,,,,,,,,,,,,,,,,,,,284.4656,286.4651,0,1,1.4546,,286.4655,287.4652,0,11,11,11,1,0,pretantas,REAL,FAKE,,,,,,,,,,,,,,,,,,,,,,,,,,,,,,,,
,,,,,,,,,5a6c9c583fb6420001c308d7,Mexican,13 or older,"no, only English or Spanish",no,2025-07-24_11h15.03.412,empathy_intonation_perc_control,2024.2.4,Win32,60.24096386,5a6c9c583fb6420001c308d7,68817205a84113384fffdfe3,68824dd7e8f362c814b9a9a5,,,,,,,,,,,,,,,,,,,,,,,,,,,,,,,,,,,,,,,,,,,,,,,,,,,,,,287.4654,288.4487,,,,,,,,,,,,,,,,,,,,,,,,,,,,,,
,,,,,,,,,5a6c9c583fb6420001c308d7,Mexican,13 or older,"no, only English or Spanish",no,2025-07-24_11h15.03.412,empathy_intonation_perc_control,2024.2.4,Win32,60.24096386,5a6c9c583fb6420001c308d7,68817205a84113384fffdfe3,68824dd7e8f362c814b9a9a5,,,,,,,,,,,,,0,,,,,,,,,,,,,,,,,,,,,,,,,,,,,,,,,,,,,29,decar,,,,,288.4536,289.9655,1,0,0.9693,,0,0,0,28,1,REAL,FAKE,,,,,,,,,,,,,,,,,
,,,,,,,,,5a6c9c583fb6420001c308d7,Mexican,13 or older,"no, only English or Spanish",no,2025-07-24_11h15.03.412,empathy_intonation_perc_control,2024.2.4,Win32,60.24096386,5a6c9c583fb6420001c308d7,68817205a84113384fffdfe3,68824dd7e8f362c814b9a9a5,,,,,,,,,,,,,1,,,,,,,,,,,,,,,,,,,,,,,,,,,,,,,,,,,,,90,clavel,,,,,289.9663,291.7016,0,0,1.2157,,0,1,1,89,1,REAL,FAKE,,,,,,,,,,,,,,,,,
,,,,,,,,,5a6c9c583fb6420001c308d7,Mexican,13 or older,"no, only English or Spanish",no,2025-07-24_11h15.03.412,empathy_intonation_perc_control,2024.2.4,Win32,60.24096386,5a6c9c583fb6420001c308d7,68817205a84113384fffdfe3,68824dd7e8f362c814b9a9a5,,,,,,,,,,,,,0,,,,,,,,,,,,,,,,,,,,,,,,,,,,,,,,,,,,,79,tropaje,,,,,291.7021,293.3654,0,1,1.1168,,0,2,2,78,1,REAL,FAKE,,,,,,,,,,,,,,,,,
,,,,,,,,,5a6c9c583fb6420001c308d7,Mexican,13 or older,"no, only English or Spanish",no,2025-07-24_11h15.03.412,empathy_intonation_perc_control,2024.2.4,Win32,60.24096386,5a6c9c583fb6420001c308d7,68817205a84113384fffdfe3,68824dd7e8f362c814b9a9a5,,,,,,,,,,,,,1,,,,,,,,,,,,,,,,,,,,,,,,,,,,,,,,,,,,,59,besar,,,,,293.366,294.6989,1,1,0.7882,,0,3,3,58,1,REAL,FAKE,,,,,,,,,,,,,,,,,
,,,,,,,,,5a6c9c583fb6420001c308d7,Mexican,13 or older,"no, only English or Spanish",no,2025-07-24_11h15.03.412,empathy_intonation_perc_control,2024.2.4,Win32,60.24096386,5a6c9c583fb6420001c308d7,68817205a84113384fffdfe3,68824dd7e8f362c814b9a9a5,,,,,,,,,,,,,0,,,,,,,,,,,,,,,,,,,,,,,,,,,,,,,,,,,,,84,escuto,,,,,294.6995,296.6157,1,0,1.3712,,0,4,4,83,1,REAL,FAKE,,,,,,,,,,,,,,,,,
,,,,,,,,,5a6c9c583fb6420001c308d7,Mexican,13 or older,"no, only English or Spanish",no,2025-07-24_11h15.03.412,empathy_intonation_perc_control,2024.2.4,Win32,60.24096386,5a6c9c583fb6420001c308d7,68817205a84113384fffdfe3,68824dd7e8f362c814b9a9a5,,,,,,,,,,,,,0,,,,,,,,,,,,,,,,,,,,,,,,,,,,,,,,,,,,,18,arsa,,,,,296.6162,298.099,0,1,0.9432,,0,5,5,17,1,REAL,FAKE,,,,,,,,,,,,,,,,,
,,,,,,,,,5a6c9c583fb6420001c308d7,Mexican,13 or older,"no, only English or Spanish",no,2025-07-24_11h15.03.412,empathy_intonation_perc_control,2024.2.4,Win32,60.24096386,5a6c9c583fb6420001c308d7,68817205a84113384fffdfe3,68824dd7e8f362c814b9a9a5,,,,,,,,,,,,,1,,,,,,,,,,,,,,,,,,,,,,,,,,,,,,,,,,,,,78,frondoso,,,,,298.0997,299.6017,0,0,0.9654,,0,6,6,77,1,REAL,FAKE,,,,,,,,,,,,,,,,,
,,,,,,,,,5a6c9c583fb6420001c308d7,Mexican,13 or older,"no, only English or Spanish",no,2025-07-24_11h15.03.412,empathy_intonation_perc_control,2024.2.4,Win32,60.24096386,5a6c9c583fb6420001c308d7,68817205a84113384fffdfe3,68824dd7e8f362c814b9a9a5,,,,,,,,,,,,,1,,,,,,,,,,,,,,,,,,,,,,,,,,,,,,,,,,,,,55,nevar,,,,,299.6021,301.2824,0,0,1.1386,,0,7,7,54,1,REAL,FAKE,,,,,,,,,,,,,,,,,
,,,,,,,,,5a6c9c583fb6420001c308d7,Mexican,13 or older,"no, only English or Spanish",no,2025-07-24_11h15.03.412,empathy_intonation_perc_control,2024.2.4,Win32,60.24096386,5a6c9c583fb6420001c308d7,68817205a84113384fffdfe3,68824dd7e8f362c814b9a9a5,,,,,,,,,,,,,1,,,,,,,,,,,,,,,,,,,,,,,,,,,,,,,,,,,,,36,loro,,,,,301.283,302.8326,0,0,1.0098,,0,8,8,35,1,REAL,FAKE,,,,,,,,,,,,,,,,,
,,,,,,,,,5a6c9c583fb6420001c308d7,Mexican,13 or older,"no, only English or Spanish",no,2025-07-24_11h15.03.412,empathy_intonation_perc_control,2024.2.4,Win32,60.24096386,5a6c9c583fb6420001c308d7,68817205a84113384fffdfe3,68824dd7e8f362c814b9a9a5,,,,,,,,,,,,,1,,,,,,,,,,,,,,,,,,,,,,,,,,,,,,,,,,,,,11,cenefa,,,,,302.8331,304.2324,0,0,0.8497,,0,9,9,10,1,REAL,FAKE,,,,,,,,,,,,,,,,,
,,,,,,,,,5a6c9c583fb6420001c308d7,Mexican,13 or older,"no, only English or Spanish",no,2025-07-24_11h15.03.412,empathy_intonation_perc_control,2024.2.4,Win32,60.24096386,5a6c9c583fb6420001c308d7,68817205a84113384fffdfe3,68824dd7e8f362c814b9a9a5,,,,,,,,,,,,,1,,,,,,,,,,,,,,,,,,,,,,,,,,,,,,,,,,,,,38,estornudar,,,,,304.2329,305.8367,1,1,1.084,,0,10,10,37,1,REAL,FAKE,,,,,,,,,,,,,,,,,
,,,,,,,,,5a6c9c583fb6420001c308d7,Mexican,13 or older,"no, only English or Spanish",no,2025-07-24_11h15.03.412,empathy_intonation_perc_control,2024.2.4,Win32,60.24096386,5a6c9c583fb6420001c308d7,68817205a84113384fffdfe3,68824dd7e8f362c814b9a9a5,,,,,,,,,,,,,1,,,,,,,,,,,,,,,,,,,,,,,,,,,,,,,,,,,,,34,aviso,,,,,305.8371,307.1827,0,0,0.8017,,0,11,11,33,1,REAL,FAKE,,,,,,,,,,,,,,,,,
,,,,,,,,,5a6c9c583fb6420001c308d7,Mexican,13 or older,"no, only English or Spanish",no,2025-07-24_11h15.03.412,empathy_intonation_perc_control,2024.2.4,Win32,60.24096386,5a6c9c583fb6420001c308d7,68817205a84113384fffdfe3,68824dd7e8f362c814b9a9a5,,,,,,,,,,,,,1,,,,,,,,,,,,,,,,,,,,,,,,,,,,,,,,,,,,,51,candado,,,,,307.1832,308.5493,0,0,0.825,,0,12,12,50,1,REAL,FAKE,,,,,,,,,,,,,,,,,
,,,,,,,,,5a6c9c583fb6420001c308d7,Mexican,13 or older,"no, only English or Spanish",no,2025-07-24_11h15.03.412,empathy_intonation_perc_control,2024.2.4,Win32,60.24096386,5a6c9c583fb6420001c308d7,68817205a84113384fffdfe3,68824dd7e8f362c814b9a9a5,,,,,,,,,,,,,1,,,,,,,,,,,,,,,,,,,,,,,,,,,,,,,,,,,,,73,hervidor,,,,,308.5498,310.0661,0,0,0.9663,,0,13,13,72,1,REAL,FAKE,,,,,,,,,,,,,,,,,
,,,,,,,,,5a6c9c583fb6420001c308d7,Mexican,13 or older,"no, only English or Spanish",no,2025-07-24_11h15.03.412,empathy_intonation_perc_control,2024.2.4,Win32,60.24096386,5a6c9c583fb6420001c308d7,68817205a84113384fffdfe3,68824dd7e8f362c814b9a9a5,,,,,,,,,,,,,0,,,,,,,,,,,,,,,,,,,,,,,,,,,,,,,,,,,,,19,brecedad,,,,,310.0665,311.5161,0,1,0.9096,,0,14,14,18,1,REAL,FAKE,,,,,,,,,,,,,,,,,
,,,,,,,,,5a6c9c583fb6420001c308d7,Mexican,13 or older,"no, only English or Spanish",no,2025-07-24_11h15.03.412,empathy_intonation_perc_control,2024.2.4,Win32,60.24096386,5a6c9c583fb6420001c308d7,68817205a84113384fffdfe3,68824dd7e8f362c814b9a9a5,,,,,,,,,,,,,1,,,,,,,,,,,,,,,,,,,,,,,,,,,,,,,,,,,,,39,torpe,,,,,311.5167,312.8328,1,1,0.772,,0,15,15,38,1,REAL,FAKE,,,,,,,,,,,,,,,,,
,,,,,,,,,5a6c9c583fb6420001c308d7,Mexican,13 or older,"no, only English or Spanish",no,2025-07-24_11h15.03.412,empathy_intonation_perc_control,2024.2.4,Win32,60.24096386,5a6c9c583fb6420001c308d7,68817205a84113384fffdfe3,68824dd7e8f362c814b9a9a5,,,,,,,,,,,,,1,,,,,,,,,,,,,,,,,,,,,,,,,,,,,,,,,,,,,81,pozo,,,,,312.8335,314.2996,0,0,0.9195,,0,16,16,80,1,REAL,FAKE,,,,,,,,,,,,,,,,,
,,,,,,,,,5a6c9c583fb6420001c308d7,Mexican,13 or older,"no, only English or Spanish",no,2025-07-24_11h15.03.412,empathy_intonation_perc_control,2024.2.4,Win32,60.24096386,5a6c9c583fb6420001c308d7,68817205a84113384fffdfe3,68824dd7e8f362c814b9a9a5,,,,,,,,,,,,,0,,,,,,,,,,,,,,,,,,,,,,,,,,,,,,,,,,,,,87,grodo,,,,,314.3003,315.7663,0,1,0.9167,,0,17,17,86,1,REAL,FAKE,,,,,,,,,,,,,,,,,
,,,,,,,,,5a6c9c583fb6420001c308d7,Mexican,13 or older,"no, only English or Spanish",no,2025-07-24_11h15.03.412,empathy_intonation_perc_control,2024.2.4,Win32,60.24096386,5a6c9c583fb6420001c308d7,68817205a84113384fffdfe3,68824dd7e8f362c814b9a9a5,,,,,,,,,,,,,1,,,,,,,,,,,,,,,,,,,,,,,,,,,,,,,,,,,,,67,cabello,,,,,315.7668,316.9663,1,1,0.6787,,0,18,18,66,1,REAL,FAKE,,,,,,,,,,,,,,,,,
,,,,,,,,,5a6c9c583fb6420001c308d7,Mexican,13 or older,"no, only English or Spanish",no,2025-07-24_11h15.03.412,empathy_intonation_perc_control,2024.2.4,Win32,60.24096386,5a6c9c583fb6420001c308d7,68817205a84113384fffdfe3,68824dd7e8f362c814b9a9a5,,,,,,,,,,,,,0,,,,,,,,,,,,,,,,,,,,,,,,,,,,,,,,,,,,,50,flamida,,,,,316.967,318.6164,1,0,1.1259,,0,19,19,49,1,REAL,FAKE,,,,,,,,,,,,,,,,,
,,,,,,,,,5a6c9c583fb6420001c308d7,Mexican,13 or older,"no, only English or Spanish",no,2025-07-24_11h15.03.412,empathy_intonation_perc_control,2024.2.4,Win32,60.24096386,5a6c9c583fb6420001c308d7,68817205a84113384fffdfe3,68824dd7e8f362c814b9a9a5,,,,,,,,,,,,,0,,,,,,,,,,,,,,,,,,,,,,,,,,,,,,,,,,,,,82,empirador,,,,,318.6169,321.2834,1,0,2.1189,,0,20,20,81,1,REAL,FAKE,,,,,,,,,,,,,,,,,
,,,,,,,,,5a6c9c583fb6420001c308d7,Mexican,13 or older,"no, only English or Spanish",no,2025-07-24_11h15.03.412,empathy_intonation_perc_control,2024.2.4,Win32,60.24096386,5a6c9c583fb6420001c308d7,68817205a84113384fffdfe3,68824dd7e8f362c814b9a9a5,,,,,,,,,,,,,1,,,,,,,,,,,,,,,,,,,,,,,,,,,,,,,,,,,,,86,barato,,,,,321.2839,322.7665,0,0,0.9414,,0,21,21,85,1,REAL,FAKE,,,,,,,,,,,,,,,,,
,,,,,,,,,5a6c9c583fb6420001c308d7,Mexican,13 or older,"no, only English or Spanish",no,2025-07-24_11h15.03.412,empathy_intonation_perc_control,2024.2.4,Win32,60.24096386,5a6c9c583fb6420001c308d7,68817205a84113384fffdfe3,68824dd7e8f362c814b9a9a5,,,,,,,,,,,,,1,,,,,,,,,,,,,,,,,,,,,,,,,,,,,,,,,,,,,75,yacer,,,,,322.7673,324.1332,0,0,0.8209,,0,22,22,74,1,REAL,FAKE,,,,,,,,,,,,,,,,,
,,,,,,,,,5a6c9c583fb6420001c308d7,Mexican,13 or older,"no, only English or Spanish",no,2025-07-24_11h15.03.412,empathy_intonation_perc_control,2024.2.4,Win32,60.24096386,5a6c9c583fb6420001c308d7,68817205a84113384fffdfe3,68824dd7e8f362c814b9a9a5,,,,,,,,,,,,,1,,,,,,,,,,,,,,,,,,,,,,,,,,,,,,,,,,,,,46,martillo,,,,,324.1338,325.4667,0,0,0.7815,,0,23,23,45,1,REAL,FAKE,,,,,,,,,,,,,,,,,
,,,,,,,,,5a6c9c583fb6420001c308d7,Mexican,13 or older,"no, only English or Spanish",no,2025-07-24_11h15.03.412,empathy_intonation_perc_control,2024.2.4,Win32,60.24096386,5a6c9c583fb6420001c308d7,68817205a84113384fffdfe3,68824dd7e8f362c814b9a9a5,,,,,,,,,,,,,1,,,,,,,,,,,,,,,,,,,,,,,,,,,,,,,,,,,,,83,guante,,,,,325.4672,327.1334,1,1,1.1229,,0,24,24,82,1,REAL,FAKE,,,,,,,,,,,,,,,,,
,,,,,,,,,5a6c9c583fb6420001c308d7,Mexican,13 or older,"no, only English or Spanish",no,2025-07-24_11h15.03.412,empathy_intonation_perc_control,2024.2.4,Win32,60.24096386,5a6c9c583fb6420001c308d7,68817205a84113384fffdfe3,68824dd7e8f362c814b9a9a5,,,,,,,,,,,,,0,,,,,,,,,,,,,,,,,,,,,,,,,,,,,,,,,,,,,32,fatacidad,,,,,327.1338,328.7668,0,1,1.0853,,0,25,25,31,1,REAL,FAKE,,,,,,,,,,,,,,,,,
,,,,,,,,,5a6c9c583fb6420001c308d7,Mexican,13 or older,"no, only English or Spanish",no,2025-07-24_11h15.03.412,empathy_intonation_perc_control,2024.2.4,Win32,60.24096386,5a6c9c583fb6420001c308d7,68817205a84113384fffdfe3,68824dd7e8f362c814b9a9a5,,,,,,,,,,,,,0,,,,,,,,,,,,,,,,,,,,,,,,,,,,,,,,,,,,,72,pemición,,,,,328.7676,331.0836,0,1,1.7693,,0,26,26,71,1,REAL,FAKE,,,,,,,,,,,,,,,,,
,,,,,,,,,5a6c9c583fb6420001c308d7,Mexican,13 or older,"no, only English or Spanish",no,2025-07-24_11h15.03.412,empathy_intonation_perc_control,2024.2.4,Win32,60.24096386,5a6c9c583fb6420001c308d7,68817205a84113384fffdfe3,68824dd7e8f362c814b9a9a5,,,,,,,,,,,,,0,,,,,,,,,,,,,,,,,,,,,,,,,,,,,,,,,,,,,27,acutación,,,,,331.0842,335.0338,1,0,3.4118,,0,27,27,26,1,REAL,FAKE,,,,,,,,,,,,,,,,,
,,,,,,,,,5a6c9c583fb6420001c308d7,Mexican,13 or older,"no, only English or Spanish",no,2025-07-24_11h15.03.412,empathy_intonation_perc_control,2024.2.4,Win32,60.24096386,5a6c9c583fb6420001c308d7,68817205a84113384fffdfe3,68824dd7e8f362c814b9a9a5,,,,,,,,,,,,,1,,,,,,,,,,,,,,,,,,,,,,,,,,,,,,,,,,,,,28,merodear,,,,,335.0343,336.6907,0,0,1.1195,,0,28,28,27,1,REAL,FAKE,,,,,,,,,,,,,,,,,
,,,,,,,,,5a6c9c583fb6420001c308d7,Mexican,13 or older,"no, only English or Spanish",no,2025-07-24_11h15.03.412,empathy_intonation_perc_control,2024.2.4,Win32,60.24096386,5a6c9c583fb6420001c308d7,68817205a84113384fffdfe3,68824dd7e8f362c814b9a9a5,,,,,,,,,,,,,1,,,,,,,,,,,,,,,,,,,,,,,,,,,,,,,,,,,,,77,tiburón,,,,,336.6912,339.6338,0,0,2.4046,,0,29,29,76,1,REAL,FAKE,,,,,,,,,,,,,,,,,
,,,,,,,,,5a6c9c583fb6420001c308d7,Mexican,13 or older,"no, only English or Spanish",no,2025-07-24_11h15.03.412,empathy_intonation_perc_control,2024.2.4,Win32,60.24096386,5a6c9c583fb6420001c308d7,68817205a84113384fffdfe3,68824dd7e8f362c814b9a9a5,,,,,,,,,,,,,0,,,,,,,,,,,,,,,,,,,,,,,,,,,,,,,,,,,,,92,click the 0 key.,,,,,339.6345,341.2673,0,1,1.0832,,0,30,30,91,1,REAL,FAKE,,,,,,,,,,,,,,,,,
,,,,,,,,,5a6c9c583fb6420001c308d7,Mexican,13 or older,"no, only English or Spanish",no,2025-07-24_11h15.03.412,empathy_intonation_perc_control,2024.2.4,Win32,60.24096386,5a6c9c583fb6420001c308d7,68817205a84113384fffdfe3,68824dd7e8f362c814b9a9a5,,,,,,,,,,,,,1,,,,,,,,,,,,,,,,,,,,,,,,,,,,,,,,,,,,,64,orgulloso,,,,,341.2678,344.234,0,0,2.4174,,0,31,31,63,1,REAL,FAKE,,,,,,,,,,,,,,,,,
,,,,,,,,,5a6c9c583fb6420001c308d7,Mexican,13 or older,"no, only English or Spanish",no,2025-07-24_11h15.03.412,empathy_intonation_perc_control,2024.2.4,Win32,60.24096386,5a6c9c583fb6420001c308d7,68817205a84113384fffdfe3,68824dd7e8f362c814b9a9a5,,,,,,,,,,,,,0,,,,,,,,,,,,,,,,,,,,,,,,,,,,,,,,,,,,,30,alardio,,,,,344.2345,345.434,1,0,0.655,,0,32,32,29,1,REAL,FAKE,,,,,,,,,,,,,,,,,
,,,,,,,,,5a6c9c583fb6420001c308d7,Mexican,13 or older,"no, only English or Spanish",no,2025-07-24_11h15.03.412,empathy_intonation_perc_control,2024.2.4,Win32,60.24096386,5a6c9c583fb6420001c308d7,68817205a84113384fffdfe3,68824dd7e8f362c814b9a9a5,,,,,,,,,,,,,0,,,,,,,,,,,,,,,,,,,,,,,,,,,,,,,,,,,,,74,cintro,,,,,345.4345,346.9842,1,0,1.0028,,0,33,33,73,1,REAL,FAKE,,,,,,,,,,,,,,,,,
,,,,,,,,,5a6c9c583fb6420001c308d7,Mexican,13 or older,"no, only English or Spanish",no,2025-07-24_11h15.03.412,empathy_intonation_perc_control,2024.2.4,Win32,60.24096386,5a6c9c583fb6420001c308d7,68817205a84113384fffdfe3,68824dd7e8f362c814b9a9a5,,,,,,,,,,,,,1,,,,,,,,,,,,,,,,,,,,,,,,,,,,,,,,,,,,,20,ávido,,,,,346.9849,348.801,1,1,1.2726,,0,34,34,19,1,REAL,FAKE,,,,,,,,,,,,,,,,,
,,,,,,,,,5a6c9c583fb6420001c308d7,Mexican,13 or older,"no, only English or Spanish",no,2025-07-24_11h15.03.412,empathy_intonation_perc_control,2024.2.4,Win32,60.24096386,5a6c9c583fb6420001c308d7,68817205a84113384fffdfe3,68824dd7e8f362c814b9a9a5,,,,,,,,,,,,,1,,,,,,,,,,,,,,,,,,,,,,,,,,,,,,,,,,,,,48,ladrón,,,,,348.8015,350.0676,0,0,0.7197,,0,35,35,47,1,REAL,FAKE,,,,,,,,,,,,,,,,,
,,,,,,,,,5a6c9c583fb6420001c308d7,Mexican,13 or older,"no, only English or Spanish",no,2025-07-24_11h15.03.412,empathy_intonation_perc_control,2024.2.4,Win32,60.24096386,5a6c9c583fb6420001c308d7,68817205a84113384fffdfe3,68824dd7e8f362c814b9a9a5,,,,,,,,,,,,,0,,,,,,,,,,,,,,,,,,,,,,,,,,,,,,,,,,,,,63,esposante,,,,,350.0681,353.0843,0,1,2.4776,,0,36,36,62,1,REAL,FAKE,,,,,,,,,,,,,,,,,
,,,,,,,,,5a6c9c583fb6420001c308d7,Mexican,13 or older,"no, only English or Spanish",no,2025-07-24_11h15.03.412,empathy_intonation_perc_control,2024.2.4,Win32,60.24096386,5a6c9c583fb6420001c308d7,68817205a84113384fffdfe3,68824dd7e8f362c814b9a9a5,,,,,,,,,,,,,1,,,,,,,,,,,,,,,,,,,,,,,,,,,,,,,,,,,,,24,látigo,,,,,353.0848,355.0344,0,0,1.4049,,0,37,37,23,1,REAL,FAKE,,,,,,,,,,,,,,,,,
,,,,,,,,,5a6c9c583fb6420001c308d7,Mexican,13 or older,"no, only English or Spanish",no,2025-07-24_11h15.03.412,empathy_intonation_perc_control,2024.2.4,Win32,60.24096386,5a6c9c583fb6420001c308d7,68817205a84113384fffdfe3,68824dd7e8f362c814b9a9a5,,,,,,,,,,,,,0,,,,,,,,,,,,,,,,,,,,,,,,,,,,,,,,,,,,,33,pauca,,,,,355.0349,356.8678,0,1,1.2831,,0,38,38,32,1,REAL,FAKE,,,,,,,,,,,,,,,,,
,,,,,,,,,5a6c9c583fb6420001c308d7,Mexican,13 or older,"no, only English or Spanish",no,2025-07-24_11h15.03.412,empathy_intonation_perc_control,2024.2.4,Win32,60.24096386,5a6c9c583fb6420001c308d7,68817205a84113384fffdfe3,68824dd7e8f362c814b9a9a5,,,,,,,,,,,,,1,,,,,,,,,,,,,,,,,,,,,,,,,,,,,,,,,,,,,68,alegre,,,,,356.8682,358.4012,1,1,1.0022,,0,39,39,67,1,REAL,FAKE,,,,,,,,,,,,,,,,,
,,,,,,,,,5a6c9c583fb6420001c308d7,Mexican,13 or older,"no, only English or Spanish",no,2025-07-24_11h15.03.412,empathy_intonation_perc_control,2024.2.4,Win32,60.24096386,5a6c9c583fb6420001c308d7,68817205a84113384fffdfe3,68824dd7e8f362c814b9a9a5,,,,,,,,,,,,,1,,,,,,,,,,,,,,,,,,,,,,,,,,,,,,,,,,,,,12,asesinato,,,,,358.4017,360.3679,0,0,1.4169,,0,40,40,11,1,REAL,FAKE,,,,,,,,,,,,,,,,,
,,,,,,,,,5a6c9c583fb6420001c308d7,Mexican,13 or older,"no, only English or Spanish",no,2025-07-24_11h15.03.412,empathy_intonation_perc_control,2024.2.4,Win32,60.24096386,5a6c9c583fb6420001c308d7,68817205a84113384fffdfe3,68824dd7e8f362c814b9a9a5,,,,,,,,,,,,,1,,,,,,,,,,,,,,,,,,,,,,,,,,,,,,,,,,,,,26,secuestro,,,,,360.3684,361.9681,1,1,1.0591,,0,41,41,25,1,REAL,FAKE,,,,,,,,,,,,,,,,,
,,,,,,,,,5a6c9c583fb6420001c308d7,Mexican,13 or older,"no, only English or Spanish",no,2025-07-24_11h15.03.412,empathy_intonation_perc_control,2024.2.4,Win32,60.24096386,5a6c9c583fb6420001c308d7,68817205a84113384fffdfe3,68824dd7e8f362c814b9a9a5,,,,,,,,,,,,,1,,,,,,,,,,,,,,,,,,,,,,,,,,,,,,,,,,,,,9,hacha,,,,,361.9686,363.7016,1,1,1.1848,,0,42,42,8,1,REAL,FAKE,,,,,,,,,,,,,,,,,
,,,,,,,,,5a6c9c583fb6420001c308d7,Mexican,13 or older,"no, only English or Spanish",no,2025-07-24_11h15.03.412,empathy_intonation_perc_control,2024.2.4,Win32,60.24096386,5a6c9c583fb6420001c308d7,68817205a84113384fffdfe3,68824dd7e8f362c814b9a9a5,,,,,,,,,,,,,1,,,,,,,,,,,,,,,,,,,,,,,,,,,,,,,,,,,,,2,pellizcar,,,,,363.7021,365.1015,0,0,0.8553,,0,43,43,1,1,REAL,FAKE,,,,,,,,,,,,,,,,,
,,,,,,,,,5a6c9c583fb6420001c308d7,Mexican,13 or older,"no, only English or Spanish",no,2025-07-24_11h15.03.412,empathy_intonation_perc_control,2024.2.4,Win32,60.24096386,5a6c9c583fb6420001c308d7,68817205a84113384fffdfe3,68824dd7e8f362c814b9a9a5,,,,,,,,,,,,,1,,,,,,,,,,,,,,,,,,,,,,,,,,,,,,,,,,,,,44,cuchara,,,,,365.1021,366.539,0,0,0.9001,,0,44,44,43,1,REAL,FAKE,,,,,,,,,,,,,,,,,
,,,,,,,,,5a6c9c583fb6420001c308d7,Mexican,13 or older,"no, only English or Spanish",no,2025-07-24_11h15.03.412,empathy_intonation_perc_control,2024.2.4,Win32,60.24096386,5a6c9c583fb6420001c308d7,68817205a84113384fffdfe3,68824dd7e8f362c814b9a9a5,,,,,,,,,,,,,1,,,,,,,,,,,,,,,,,,,,,,,,,,,,,,,,,,,,,56,musgo,,,,,366.5395,367.9349,0,0,0.873,,0,45,45,55,1,REAL,FAKE,,,,,,,,,,,,,,,,,
,,,,,,,,,5a6c9c583fb6420001c308d7,Mexican,13 or older,"no, only English or Spanish",no,2025-07-24_11h15.03.412,empathy_intonation_perc_control,2024.2.4,Win32,60.24096386,5a6c9c583fb6420001c308d7,68817205a84113384fffdfe3,68824dd7e8f362c814b9a9a5,,,,,,,,,,,,,1,,,,,,,,,,,,,,,,,,,,,,,,,,,,,,,,,,,,,3,pulmones,,,,,367.9354,370.9017,0,0,2.4165,,0,46,46,2,1,REAL,FAKE,,,,,,,,,,,,,,,,,
,,,,,,,,,5a6c9c583fb6420001c308d7,Mexican,13 or older,"no, only English or Spanish",no,2025-07-24_11h15.03.412,empathy_intonation_perc_control,2024.2.4,Win32,60.24096386,5a6c9c583fb6420001c308d7,68817205a84113384fffdfe3,68824dd7e8f362c814b9a9a5,,,,,,,,,,,,,1,,,,,,,,,,,,,,,,,,,,,,,,,,,,,,,,,,,,,91,click the 1 key.,,,,,370.9026,372.1351,1,1,0.696,,0,47,47,90,1,REAL,FAKE,,,,,,,,,,,,,,,,,
,,,,,,,,,5a6c9c583fb6420001c308d7,Mexican,13 or older,"no, only English or Spanish",no,2025-07-24_11h15.03.412,empathy_intonation_perc_control,2024.2.4,Win32,60.24096386,5a6c9c583fb6420001c308d7,68817205a84113384fffdfe3,68824dd7e8f362c814b9a9a5,,,,,,,,,,,,,0,,,,,,,,,,,,,,,,,,,,,,,,,,,,,,,,,,,,,23,lampera,,,,,372.1356,374.2185,1,0,1.5437,,0,48,48,22,1,REAL,FAKE,,,,,,,,,,,,,,,,,
,,,,,,,,,5a6c9c583fb6420001c308d7,Mexican,13 or older,"no, only English or Spanish",no,2025-07-24_11h15.03.412,empathy_intonation_perc_control,2024.2.4,Win32,60.24096386,5a6c9c583fb6420001c308d7,68817205a84113384fffdfe3,68824dd7e8f362c814b9a9a5,,,,,,,,,,,,,0,,,,,,,,,,,,,,,,,,,,,,,,,,,,,,,,,,,,,58,plaudir,,,,,374.2189,375.6186,0,1,0.858,,0,49,49,57,1,REAL,FAKE,,,,,,,,,,,,,,,,,
,,,,,,,,,5a6c9c583fb6420001c308d7,Mexican,13 or older,"no, only English or Spanish",no,2025-07-24_11h15.03.412,empathy_intonation_perc_control,2024.2.4,Win32,60.24096386,5a6c9c583fb6420001c308d7,68817205a84113384fffdfe3,68824dd7e8f362c814b9a9a5,,,,,,,,,,,,,0,,,,,,,,,,,,,,,,,,,,,,,,,,,,,,,,,,,,,53,vegada,,,,,375.6191,377.4185,0,1,1.2596,,0,50,50,52,1,REAL,FAKE,,,,,,,,,,,,,,,,,
,,,,,,,,,5a6c9c583fb6420001c308d7,Mexican,13 or older,"no, only English or Spanish",no,2025-07-24_11h15.03.412,empathy_intonation_perc_control,2024.2.4,Win32,60.24096386,5a6c9c583fb6420001c308d7,68817205a84113384fffdfe3,68824dd7e8f362c814b9a9a5,,,,,,,,,,,,,1,,,,,,,,,,,,,,,,,,,,,,,,,,,,,,,,,,,,,71,polvoriento,,,,,377.4191,379.4854,0,0,1.5165,,0,51,51,70,1,REAL,FAKE,,,,,,,,,,,,,,,,,
,,,,,,,,,5a6c9c583fb6420001c308d7,Mexican,13 or older,"no, only English or Spanish",no,2025-07-24_11h15.03.412,empathy_intonation_perc_control,2024.2.4,Win32,60.24096386,5a6c9c583fb6420001c308d7,68817205a84113384fffdfe3,68824dd7e8f362c814b9a9a5,,,,,,,,,,,,,1,,,,,,,,,,,,,,,,,,,,,,,,,,,,,,,,,,,,,25,bisagra,,,,,379.4859,381.5021,0,0,1.4781,,0,52,52,24,1,REAL,FAKE,,,,,,,,,,,,,,,,,
,,,,,,,,,5a6c9c583fb6420001c308d7,Mexican,13 or older,"no, only English or Spanish",no,2025-07-24_11h15.03.412,empathy_intonation_perc_control,2024.2.4,Win32,60.24096386,5a6c9c583fb6420001c308d7,68817205a84113384fffdfe3,68824dd7e8f362c814b9a9a5,,,,,,,,,,,,,0,,,,,,,,,,,,,,,,,,,,,,,,,,,,,,,,,,,,,66,hacido,,,,,381.5027,382.9354,1,0,0.8837,,0,53,53,65,1,REAL,FAKE,,,,,,,,,,,,,,,,,
,,,,,,,,,5a6c9c583fb6420001c308d7,Mexican,13 or older,"no, only English or Spanish",no,2025-07-24_11h15.03.412,empathy_intonation_perc_control,2024.2.4,Win32,60.24096386,5a6c9c583fb6420001c308d7,68817205a84113384fffdfe3,68824dd7e8f362c814b9a9a5,,,,,,,,,,,,,1,,,,,,,,,,,,,,,,,,,,,,,,,,,,,,,,,,,,,65,bizcocho,,,,,382.9359,385.3022,0,0,1.8165,,0,54,54,64,1,REAL,FAKE,,,,,,,,,,,,,,,,,
,,,,,,,,,5a6c9c583fb6420001c308d7,Mexican,13 or older,"no, only English or Spanish",no,2025-07-24_11h15.03.412,empathy_intonation_perc_control,2024.2.4,Win32,60.24096386,5a6c9c583fb6420001c308d7,68817205a84113384fffdfe3,68824dd7e8f362c814b9a9a5,,,,,,,,,,,,,1,,,,,,,,,,,,,,,,,,,,,,,,,,,,,,,,,,,,,37,granuja,,,,,385.3027,387.1358,1,1,1.2962,,0,55,55,36,1,REAL,FAKE,,,,,,,,,,,,,,,,,
,,,,,,,,,5a6c9c583fb6420001c308d7,Mexican,13 or older,"no, only English or Spanish",no,2025-07-24_11h15.03.412,empathy_intonation_perc_control,2024.2.4,Win32,60.24096386,5a6c9c583fb6420001c308d7,68817205a84113384fffdfe3,68824dd7e8f362c814b9a9a5,,,,,,,,,,,,,0,,,,,,,,,,,,,,,,,,,,,,,,,,,,,,,,,,,,,16,abracer,,,,,387.1363,388.5024,1,0,0.8232,,0,56,56,15,1,REAL,FAKE,,,,,,,,,,,,,,,,,
,,,,,,,,,5a6c9c583fb6420001c308d7,Mexican,13 or older,"no, only English or Spanish",no,2025-07-24_11h15.03.412,empathy_intonation_perc_control,2024.2.4,Win32,60.24096386,5a6c9c583fb6420001c308d7,68817205a84113384fffdfe3,68824dd7e8f362c814b9a9a5,,,,,,,,,,,,,1,,,,,,,,,,,,,,,,,,,,,,,,,,,,,,,,,,,,,85,laúd,,,,,388.5031,389.7025,0,0,0.6555,,0,57,57,84,1,REAL,FAKE,,,,,,,,,,,,,,,,,
,,,,,,,,,5a6c9c583fb6420001c308d7,Mexican,13 or older,"no, only English or Spanish",no,2025-07-24_11h15.03.412,empathy_intonation_perc_control,2024.2.4,Win32,60.24096386,5a6c9c583fb6420001c308d7,68817205a84113384fffdfe3,68824dd7e8f362c814b9a9a5,,,,,,,,,,,,,1,,,,,,,,,,,,,,,,,,,,,,,,,,,,,,,,,,,,,76,atar,,,,,389.703,391.1692,0,0,0.9351,,0,58,58,75,1,REAL,FAKE,,,,,,,,,,,,,,,,,
,,,,,,,,,5a6c9c583fb6420001c308d7,Mexican,13 or older,"no, only English or Spanish",no,2025-07-24_11h15.03.412,empathy_intonation_perc_control,2024.2.4,Win32,60.24096386,5a6c9c583fb6420001c308d7,68817205a84113384fffdfe3,68824dd7e8f362c814b9a9a5,,,,,,,,,,,,,0,,,,,,,,,,,,,,,,,,,,,,,,,,,,,,,,,,,,,17,floroso,,,,,391.17,393.3525,0,1,1.6407,,0,59,59,16,1,REAL,FAKE,,,,,,,,,,,,,,,,,
,,,,,,,,,5a6c9c583fb6420001c308d7,Mexican,13 or older,"no, only English or Spanish",no,2025-07-24_11h15.03.412,empathy_intonation_perc_control,2024.2.4,Win32,60.24096386,5a6c9c583fb6420001c308d7,68817205a84113384fffdfe3,68824dd7e8f362c814b9a9a5,,,,,,,,,,,,,0,,,,,,,,,,,,,,,,,,,,,,,,,,,,,,,,,,,,,35,rompido,,,,,393.353,395.2527,0,1,1.3575,,0,60,60,34,1,REAL,FAKE,,,,,,,,,,,,,,,,,
,,,,,,,,,5a6c9c583fb6420001c308d7,Mexican,13 or older,"no, only English or Spanish",no,2025-07-24_11h15.03.412,empathy_intonation_perc_control,2024.2.4,Win32,60.24096386,5a6c9c583fb6420001c308d7,68817205a84113384fffdfe3,68824dd7e8f362c814b9a9a5,,,,,,,,,,,,,1,,,,,,,,,,,,,,,,,,,,,,,,,,,,,,,,,,,,,13,helar,,,,,395.2532,396.5693,1,1,0.7791,,0,61,61,12,1,REAL,FAKE,,,,,,,,,,,,,,,,,
,,,,,,,,,5a6c9c583fb6420001c308d7,Mexican,13 or older,"no, only English or Spanish",no,2025-07-24_11h15.03.412,empathy_intonation_perc_control,2024.2.4,Win32,60.24096386,5a6c9c583fb6420001c308d7,68817205a84113384fffdfe3,68824dd7e8f362c814b9a9a5,,,,,,,,,,,,,1,,,,,,,,,,,,,,,,,,,,,,,,,,,,,,,,,,,,,31,pandilla,,,,,396.5698,398.0527,0,0,0.9422,,0,62,62,30,1,REAL,FAKE,,,,,,,,,,,,,,,,,
,,,,,,,,,5a6c9c583fb6420001c308d7,Mexican,13 or older,"no, only English or Spanish",no,2025-07-24_11h15.03.412,empathy_intonation_perc_control,2024.2.4,Win32,60.24096386,5a6c9c583fb6420001c308d7,68817205a84113384fffdfe3,68824dd7e8f362c814b9a9a5,,,,,,,,,,,,,1,,,,,,,,,,,,,,,,,,,,,,,,,,,,,,,,,,,,,54,fomentar,,,,,398.0531,400.9028,1,1,2.3117,,0,63,63,53,1,REAL,FAKE,,,,,,,,,,,,,,,,,
,,,,,,,,,5a6c9c583fb6420001c308d7,Mexican,13 or older,"no, only English or Spanish",no,2025-07-24_11h15.03.412,empathy_intonation_perc_control,2024.2.4,Win32,60.24096386,5a6c9c583fb6420001c308d7,68817205a84113384fffdfe3,68824dd7e8f362c814b9a9a5,,,,,,,,,,,,,1,,,,,,,,,,,,,,,,,,,,,,,,,,,,,,,,,,,,,60,matar,,,,,400.9032,402.2532,0,0,0.8066,,0,64,64,59,1,REAL,FAKE,,,,,,,,,,,,,,,,,
,,,,,,,,,5a6c9c583fb6420001c308d7,Mexican,13 or older,"no, only English or Spanish",no,2025-07-24_11h15.03.412,empathy_intonation_perc_control,2024.2.4,Win32,60.24096386,5a6c9c583fb6420001c308d7,68817205a84113384fffdfe3,68824dd7e8f362c814b9a9a5,,,,,,,,,,,,,1,,,,,,,,,,,,,,,,,,,,,,,,,,,,,,,,,,,,,62,flaco,,,,,402.2536,403.5195,0,0,0.7283,,0,65,65,61,1,REAL,FAKE,,,,,,,,,,,,,,,,,
,,,,,,,,,5a6c9c583fb6420001c308d7,Mexican,13 or older,"no, only English or Spanish",no,2025-07-24_11h15.03.412,empathy_intonation_perc_control,2024.2.4,Win32,60.24096386,5a6c9c583fb6420001c308d7,68817205a84113384fffdfe3,68824dd7e8f362c814b9a9a5,,,,,,,,,,,,,1,,,,,,,,,,,,,,,,,,,,,,,,,,,,,,,,,,,,,6,tergiversar,,,,,403.52,405.9864,0,0,1.9193,,0,66,66,5,1,REAL,FAKE,,,,,,,,,,,,,,,,,
,,,,,,,,,5a6c9c583fb6420001c308d7,Mexican,13 or older,"no, only English or Spanish",no,2025-07-24_11h15.03.412,empathy_intonation_perc_control,2024.2.4,Win32,60.24096386,5a6c9c583fb6420001c308d7,68817205a84113384fffdfe3,68824dd7e8f362c814b9a9a5,,,,,,,,,,,,,1,,,,,,,,,,,,,,,,,,,,,,,,,,,,,,,,,,,,,41,rebuscar,,,,,405.9868,409.4698,0,0,2.9332,,0,67,67,40,1,REAL,FAKE,,,,,,,,,,,,,,,,,
,,,,,,,,,5a6c9c583fb6420001c308d7,Mexican,13 or older,"no, only English or Spanish",no,2025-07-24_11h15.03.412,empathy_intonation_perc_control,2024.2.4,Win32,60.24096386,5a6c9c583fb6420001c308d7,68817205a84113384fffdfe3,68824dd7e8f362c814b9a9a5,,,,,,,,,,,,,1,,,,,,,,,,,,,,,,,,,,,,,,,,,,,,,,,,,,,69,engatusar,,,,,409.4703,411.5032,0,0,1.4875,,0,68,68,68,1,REAL,FAKE,,,,,,,,,,,,,,,,,
,,,,,,,,,5a6c9c583fb6420001c308d7,Mexican,13 or older,"no, only English or Spanish",no,2025-07-24_11h15.03.412,empathy_intonation_perc_control,2024.2.4,Win32,60.24096386,5a6c9c583fb6420001c308d7,68817205a84113384fffdfe3,68824dd7e8f362c814b9a9a5,,,,,,,,,,,,,1,,,,,,,,,,,,,,,,,,,,,,,,,,,,,,,,,,,,,15,regar,,,,,411.5037,412.8199,1,1,0.7664,,0,69,69,14,1,REAL,FAKE,,,,,,,,,,,,,,,,,
,,,,,,,,,5a6c9c583fb6420001c308d7,Mexican,13 or older,"no, only English or Spanish",no,2025-07-24_11h15.03.412,empathy_intonation_perc_control,2024.2.4,Win32,60.24096386,5a6c9c583fb6420001c308d7,68817205a84113384fffdfe3,68824dd7e8f362c814b9a9a5,,,,,,,,,,,,,1,,,,,,,,,,,,,,,,,,,,,,,,,,,,,,,,,,,,,89,prisa,,,,,412.8204,414.17,0,0,0.8039,,0,70,70,88,1,REAL,FAKE,,,,,,,,,,,,,,,,,
,,,,,,,,,5a6c9c583fb6420001c308d7,Mexican,13 or older,"no, only English or Spanish",no,2025-07-24_11h15.03.412,empathy_intonation_perc_control,2024.2.4,Win32,60.24096386,5a6c9c583fb6420001c308d7,68817205a84113384fffdfe3,68824dd7e8f362c814b9a9a5,,,,,,,,,,,,,1,,,,,,,,,,,,,,,,,,,,,,,,,,,,,,,,,,,,,88,acantilado,,,,,414.1705,415.4867,0,0,0.7751,,0,71,71,87,1,REAL,FAKE,,,,,,,,,,,,,,,,,
,,,,,,,,,5a6c9c583fb6420001c308d7,Mexican,13 or older,"no, only English or Spanish",no,2025-07-24_11h15.03.412,empathy_intonation_perc_control,2024.2.4,Win32,60.24096386,5a6c9c583fb6420001c308d7,68817205a84113384fffdfe3,68824dd7e8f362c814b9a9a5,,,,,,,,,,,,,1,,,,,,,,,,,,,,,,,,,,,,,,,,,,,,,,,,,,,45,jilguero,,,,,415.4872,416.7202,0,0,0.6954,,0,72,72,44,1,REAL,FAKE,,,,,,,,,,,,,,,,,
,,,,,,,,,5a6c9c583fb6420001c308d7,Mexican,13 or older,"no, only English or Spanish",no,2025-07-24_11h15.03.412,empathy_intonation_perc_control,2024.2.4,Win32,60.24096386,5a6c9c583fb6420001c308d7,68817205a84113384fffdfe3,68824dd7e8f362c814b9a9a5,,,,,,,,,,,,,1,,,,,,,,,,,,,,,,,,,,,,,,,,,,,,,,,,,,,80,hormiga,,,,,416.7207,418.3201,0,0,1.0497,,0,73,73,79,1,REAL,FAKE,,,,,,,,,,,,,,,,,
,,,,,,,,,5a6c9c583fb6420001c308d7,Mexican,13 or older,"no, only English or Spanish",no,2025-07-24_11h15.03.412,empathy_intonation_perc_control,2024.2.4,Win32,60.24096386,5a6c9c583fb6420001c308d7,68817205a84113384fffdfe3,68824dd7e8f362c814b9a9a5,,,,,,,,,,,,,1,,,,,,,,,,,,,,,,,,,,,,,,,,,,,,,,,,,,,7,pésimo,,,,,418.3206,420.9099,0,0,2.0529,,0,74,74,6,1,REAL,FAKE,,,,,,,,,,,,,,,,,
,,,,,,,,,5a6c9c583fb6420001c308d7,Mexican,13 or older,"no, only English or Spanish",no,2025-07-24_11h15.03.412,empathy_intonation_perc_control,2024.2.4,Win32,60.24096386,5a6c9c583fb6420001c308d7,68817205a84113384fffdfe3,68824dd7e8f362c814b9a9a5,,,,,,,,,,,,,1,,,,,,,,,,,,,,,,,,,,,,,,,,,,,,,,,,,,,43,canela,,,,,420.9103,422.4712,1,1,1.0303,,0,75,75,42,1,REAL,FAKE,,,,,,,,,,,,,,,,,
,,,,,,,,,5a6c9c583fb6420001c308d7,Mexican,13 or older,"no, only English or Spanish",no,2025-07-24_11h15.03.412,empathy_intonation_perc_control,2024.2.4,Win32,60.24096386,5a6c9c583fb6420001c308d7,68817205a84113384fffdfe3,68824dd7e8f362c814b9a9a5,,,,,,,,,,,,,0,,,,,,,,,,,,,,,,,,,,,,,,,,,,,,,,,,,,,8,cadeña,,,,,422.4719,424.5538,1,0,1.5412,,0,76,76,7,1,REAL,FAKE,,,,,,,,,,,,,,,,,
,,,,,,,,,5a6c9c583fb6420001c308d7,Mexican,13 or older,"no, only English or Spanish",no,2025-07-24_11h15.03.412,empathy_intonation_perc_control,2024.2.4,Win32,60.24096386,5a6c9c583fb6420001c308d7,68817205a84113384fffdfe3,68824dd7e8f362c814b9a9a5,,,,,,,,,,,,,1,,,,,,,,,,,,,,,,,,,,,,,,,,,,,,,,,,,,,14,yunque,,,,,424.5543,425.8871,0,0,0.7957,,0,77,77,13,1,REAL,FAKE,,,,,,,,,,,,,,,,,
,,,,,,,,,5a6c9c583fb6420001c308d7,Mexican,13 or older,"no, only English or Spanish",no,2025-07-24_11h15.03.412,empathy_intonation_perc_control,2024.2.4,Win32,60.24096386,5a6c9c583fb6420001c308d7,68817205a84113384fffdfe3,68824dd7e8f362c814b9a9a5,,,,,,,,,,,,,1,,,,,,,,,,,,,,,,,,,,,,,,,,,,,,,,,,,,,5,zapato,,,,,425.8876,427.654,1,1,1.2229,,0,78,78,4,1,REAL,FAKE,,,,,,,,,,,,,,,,,
,,,,,,,,,5a6c9c583fb6420001c308d7,Mexican,13 or older,"no, only English or Spanish",no,2025-07-24_11h15.03.412,empathy_intonation_perc_control,2024.2.4,Win32,60.24096386,5a6c9c583fb6420001c308d7,68817205a84113384fffdfe3,68824dd7e8f362c814b9a9a5,,,,,,,,,,,,,0,,,,,,,,,,,,,,,,,,,,,,,,,,,,,,,,,,,,,4,batillón,,,,,427.6545,428.9206,0,1,0.7245,,0,79,79,3,1,REAL,FAKE,,,,,,,,,,,,,,,,,
,,,,,,,,,5a6c9c583fb6420001c308d7,Mexican,13 or older,"no, only English or Spanish",no,2025-07-24_11h15.03.412,empathy_intonation_perc_control,2024.2.4,Win32,60.24096386,5a6c9c583fb6420001c308d7,68817205a84113384fffdfe3,68824dd7e8f362c814b9a9a5,,,,,,,,,,,,,1,,,,,,,,,,,,,,,,,,,,,,,,,,,,,,,,,,,,,22,lacayo,,,,,428.9211,430.4872,0,0,1.0164,,0,80,80,21,1,REAL,FAKE,,,,,,,,,,,,,,,,,
,,,,,,,,,5a6c9c583fb6420001c308d7,Mexican,13 or older,"no, only English or Spanish",no,2025-07-24_11h15.03.412,empathy_intonation_perc_control,2024.2.4,Win32,60.24096386,5a6c9c583fb6420001c308d7,68817205a84113384fffdfe3,68824dd7e8f362c814b9a9a5,,,,,,,,,,,,,0,,,,,,,,,,,,,,,,,,,,,,,,,,,,,,,,,,,,,47,cartinar,,,,,430.4877,432.6541,1,0,1.6238,,0,81,81,46,1,REAL,FAKE,,,,,,,,,,,,,,,,,
,,,,,,,,,5a6c9c583fb6420001c308d7,Mexican,13 or older,"no, only English or Spanish",no,2025-07-24_11h15.03.412,empathy_intonation_perc_control,2024.2.4,Win32,60.24096386,5a6c9c583fb6420001c308d7,68817205a84113384fffdfe3,68824dd7e8f362c814b9a9a5,,,,,,,,,,,,,0,,,,,,,,,,,,,,,,,,,,,,,,,,,,,,,,,,,,,21,capillo,,,,,432.6545,433.9041,0,1,0.7036,,0,82,82,20,1,REAL,FAKE,,,,,,,,,,,,,,,,,
,,,,,,,,,5a6c9c583fb6420001c308d7,Mexican,13 or older,"no, only English or Spanish",no,2025-07-24_11h15.03.412,empathy_intonation_perc_control,2024.2.4,Win32,60.24096386,5a6c9c583fb6420001c308d7,68817205a84113384fffdfe3,68824dd7e8f362c814b9a9a5,,,,,,,,,,,,,1,,,,,,,,,,,,,,,,,,,,,,,,,,,,,,,,,,,,,61,seda,,,,,433.9045,435.3541,0,0,0.8998,,0,83,83,60,1,REAL,FAKE,,,,,,,,,,,,,,,,,
,,,,,,,,,5a6c9c583fb6420001c308d7,Mexican,13 or older,"no, only English or Spanish",no,2025-07-24_11h15.03.412,empathy_intonation_perc_control,2024.2.4,Win32,60.24096386,5a6c9c583fb6420001c308d7,68817205a84113384fffdfe3,68824dd7e8f362c814b9a9a5,,,,,,,,,,,,,1,,,,,,,,,,,,,,,,,,,,,,,,,,,,,,,,,,,,,49,ganar,,,,,435.3546,436.7374,1,1,0.8624,,0,84,84,48,1,REAL,FAKE,,,,,,,,,,,,,,,,,
,,,,,,,,,5a6c9c583fb6420001c308d7,Mexican,13 or older,"no, only English or Spanish",no,2025-07-24_11h15.03.412,empathy_intonation_perc_control,2024.2.4,Win32,60.24096386,5a6c9c583fb6420001c308d7,68817205a84113384fffdfe3,68824dd7e8f362c814b9a9a5,,,,,,,,,,,,,0,,,,,,,,,,,,,,,,,,,,,,,,,,,,,,,,,,,,,10,antar,,,,,436.738,438.1542,1,0,0.8753,,0,85,85,9,1,REAL,FAKE,,,,,,,,,,,,,,,,,
,,,,,,,,,5a6c9c583fb6420001c308d7,Mexican,13 or older,"no, only English or Spanish",no,2025-07-24_11h15.03.412,empathy_intonation_perc_control,2024.2.4,Win32,60.24096386,5a6c9c583fb6420001c308d7,68817205a84113384fffdfe3,68824dd7e8f362c814b9a9a5,,,,,,,,,,,,,1,,,,,,,,,,,,,,,,,,,,,,,,,,,,,,,,,,,,,57,tacaño,,,,,438.1548,439.3376,0,0,0.6388,,0,86,86,56,1,REAL,FAKE,,,,,,,,,,,,,,,,,
,,,,,,,,,5a6c9c583fb6420001c308d7,Mexican,13 or older,"no, only English or Spanish",no,2025-07-24_11h15.03.412,empathy_intonation_perc_control,2024.2.4,Win32,60.24096386,5a6c9c583fb6420001c308d7,68817205a84113384fffdfe3,68824dd7e8f362c814b9a9a5,,,,,,,,,,,,,1,,,,,,,,,,,,,,,,,,,,,,,,,,,,,,,,,,,,,52,camisa,,,,,439.3381,441.1877,0,0,1.2999,,0,87,87,51,1,REAL,FAKE,,,,,,,,,,,,,,,,,
,,,,,,,,,5a6c9c583fb6420001c308d7,Mexican,13 or older,"no, only English or Spanish",no,2025-07-24_11h15.03.412,empathy_intonation_perc_control,2024.2.4,Win32,60.24096386,5a6c9c583fb6420001c308d7,68817205a84113384fffdfe3,68824dd7e8f362c814b9a9a5,,,,,,,,,,,,,0,,,,,,,,,,,,,,,,,,,,,,,,,,,,,,,,,,,,,1,terzo,,,,,441.1883,442.371,0,1,0.6372,,0,88,88,0,1,REAL,FAKE,,,,,,,,,,,,,,,,,
,,,,,,,,,5a6c9c583fb6420001c308d7,Mexican,13 or older,"no, only English or Spanish",no,2025-07-24_11h15.03.412,empathy_intonation_perc_control,2024.2.4,Win32,60.24096386,5a6c9c583fb6420001c308d7,68817205a84113384fffdfe3,68824dd7e8f362c814b9a9a5,,,,,,,,,,,,,0,,,,,,,,,,,,,,,,,,,,,,,,,,,,,,,,,,,,,70,temblo,,,,,442.3715,444.7544,1,0,1.8346,,0,89,89,69,1,REAL,FAKE,,,,,,,,,,,,,,,,,
,,,,,,,,,5a6c9c583fb6420001c308d7,Mexican,13 or older,"no, only English or Spanish",no,2025-07-24_11h15.03.412,empathy_intonation_perc_control,2024.2.4,Win32,60.24096386,5a6c9c583fb6420001c308d7,68817205a84113384fffdfe3,68824dd7e8f362c814b9a9a5,,,,,,,,,,,,,1,,,,,,,,,,,,,,,,,,,,,,,,,,,,,,,,,,,,,40,alfombra,,,,,444.755,446.1879,0,0,0.9032,,0,90,90,39,1,REAL,FAKE,,,,,,,,,,,,,,,,,
,,,,,,,,,5a6c9c583fb6420001c308d7,Mexican,13 or older,"no, only English or Spanish",no,2025-07-24_11h15.03.412,empathy_intonation_perc_control,2024.2.4,Win32,60.24096386,5a6c9c583fb6420001c308d7,68817205a84113384fffdfe3,68824dd7e8f362c814b9a9a5,,,,,,,,,,,,,0,,,,,,,,,,,,,,,,,,,,,,,,,,,,,,,,,,,,,42,cadallo,,,,,446.1883,447.892,0,1,1.1661,,0,91,91,41,1,REAL,FAKE,,,,,,,,,,,,,,,,,
,,,,,,,,,5a6c9c583fb6420001c308d7,Mexican,13 or older,"no, only English or Spanish",no,2025-07-24_11h15.03.412,empathy_intonation_perc_control,2024.2.4,Win32,60.24096386,5a6c9c583fb6420001c308d7,68817205a84113384fffdfe3,68824dd7e8f362c814b9a9a5,,,,,,,,,,,,,,,,,,,,,,,,,,,,,,,,,,,,,,,,,,,,,,,,,,,,,,,,,,,,,,,,,,,,,447.8922,450.1547,,,,,,,,,,,,,,,
,,,,,,,,,5a6c9c583fb6420001c308d7,Mexican,13 or older,"no, only English or Spanish",no,2025-07-24_11h15.03.412,empathy_intonation_perc_control,2024.2.4,Win32,60.24096386,5a6c9c583fb6420001c308d7,68817205a84113384fffdfe3,68824dd7e8f362c814b9a9a5,,,,,,,,,,,,,,,,,,,,,,,,,,,1,,,,,,,,,,,,,,,,,,,,,,,,,,,,,,,,,,,,,,,,,,,,450.16,453.7548,slightly agree,0,0,0,0,1,I can easily tell if someone else wants to enter a conversation.,1,0,1,0,,
,,,,,,,,,5a6c9c583fb6420001c308d7,Mexican,13 or older,"no, only English or Spanish",no,2025-07-24_11h15.03.412,empathy_intonation_perc_control,2024.2.4,Win32,60.24096386,5a6c9c583fb6420001c308d7,68817205a84113384fffdfe3,68824dd7e8f362c814b9a9a5,,,,,,,,,,,,,,,,,,,,,,,,,,,2,,,,,,,,,,,,,,,,,,,,,,,,,,,,,,,,,,,,,,,,,,,,453.7559,456.1882,slightly agree,0,1,1,1,1,I prefer animals to humans.,0,1,0,0,,
,,,,,,,,,5a6c9c583fb6420001c308d7,Mexican,13 or older,"no, only English or Spanish",no,2025-07-24_11h15.03.412,empathy_intonation_perc_control,2024.2.4,Win32,60.24096386,5a6c9c583fb6420001c308d7,68817205a84113384fffdfe3,68824dd7e8f362c814b9a9a5,,,,,,,,,,,,,,,,,,,,,,,,,,,3,,,,,,,,,,,,,,,,,,,,,,,,,,,,,,,,,,,,,,,,,,,,456.1891,458.705,strongly disagree,0,2,2,2,1,I try to keep up with the current trends and fashions.,0,1,0,0,,
,,,,,,,,,5a6c9c583fb6420001c308d7,Mexican,13 or older,"no, only English or Spanish",no,2025-07-24_11h15.03.412,empathy_intonation_perc_control,2024.2.4,Win32,60.24096386,5a6c9c583fb6420001c308d7,68817205a84113384fffdfe3,68824dd7e8f362c814b9a9a5,,,,,,,,,,,,,,,,,,,,,,,,,,,4,,,,,,,,,,,,,,,,,,,,,,,,,,,,,,,,,,,,,,,,,,,,458.706,466.2391,slightly disagree,0,3,3,3,1,"I find it difficult to explain to others things that I understand easily,   when they don't understand it first time.",1,0,0,1,,
,,,,,,,,,5a6c9c583fb6420001c308d7,Mexican,13 or older,"no, only English or Spanish",no,2025-07-24_11h15.03.412,empathy_intonation_perc_control,2024.2.4,Win32,60.24096386,5a6c9c583fb6420001c308d7,68817205a84113384fffdfe3,68824dd7e8f362c814b9a9a5,,,,,,,,,,,,,,,,,,,,,,,,,,,5,,,,,,,,,,,,,,,,,,,,,,,,,,,,,,,,,,,,,,,,,,,,466.2398,468.5888,strongly agree,0,4,4,4,1,I dream most nights.,0,1,0,0,,
,,,,,,,,,5a6c9c583fb6420001c308d7,Mexican,13 or older,"no, only English or Spanish",no,2025-07-24_11h15.03.412,empathy_intonation_perc_control,2024.2.4,Win32,60.24096386,5a6c9c583fb6420001c308d7,68817205a84113384fffdfe3,68824dd7e8f362c814b9a9a5,,,,,,,,,,,,,,,,,,,,,,,,,,,6,,,,,,,,,,,,,,,,,,,,,,,,,,,,,,,,,,,,,,,,,,,,468.5896,470.2389,strongly agree,0,5,5,5,1,I really enjoy caring for other people.,1,0,1,0,,
,,,,,,,,,5a6c9c583fb6420001c308d7,Mexican,13 or older,"no, only English or Spanish",no,2025-07-24_11h15.03.412,empathy_intonation_perc_control,2024.2.4,Win32,60.24096386,5a6c9c583fb6420001c308d7,68817205a84113384fffdfe3,68824dd7e8f362c814b9a9a5,,,,,,,,,,,,,,,,,,,,,,,,,,,7,,,,,,,,,,,,,,,,,,,,,,,,,,,,,,,,,,,,,,,,,,,,470.2398,474.4556,slightly agree,0,6,6,6,1,I try to solve my own problems rather than discussing them with others.,0,1,0,0,,
,,,,,,,,,5a6c9c583fb6420001c308d7,Mexican,13 or older,"no, only English or Spanish",no,2025-07-24_11h15.03.412,empathy_intonation_perc_control,2024.2.4,Win32,60.24096386,5a6c9c583fb6420001c308d7,68817205a84113384fffdfe3,68824dd7e8f362c814b9a9a5,,,,,,,,,,,,,,,,,,,,,,,,,,,8,,,,,,,,,,,,,,,,,,,,,,,,,,,,,,,,,,,,,,,,,,,,474.4563,477.6056,strongly disagree,0,7,7,7,1,I find it hard to know what to do in a social situation.,1,0,0,1,,
,,,,,,,,,5a6c9c583fb6420001c308d7,Mexican,13 or older,"no, only English or Spanish",no,2025-07-24_11h15.03.412,empathy_intonation_perc_control,2024.2.4,Win32,60.24096386,5a6c9c583fb6420001c308d7,68817205a84113384fffdfe3,68824dd7e8f362c814b9a9a5,,,,,,,,,,,,,,,,,,,,,,,,,,,9,,,,,,,,,,,,,,,,,,,,,,,,,,,,,,,,,,,,,,,,,,,,477.6062,479.9391,strongly disagree,0,8,8,8,1,I am at my best first thing in the morning.,0,1,0,0,,
,,,,,,,,,5a6c9c583fb6420001c308d7,Mexican,13 or older,"no, only English or Spanish",no,2025-07-24_11h15.03.412,empathy_intonation_perc_control,2024.2.4,Win32,60.24096386,5a6c9c583fb6420001c308d7,68817205a84113384fffdfe3,68824dd7e8f362c814b9a9a5,,,,,,,,,,,,,,,,,,,,,,,,,,,10,,,,,,,,,,,,,,,,,,,,,,,,,,,,,,,,,,,,,,,,,,,,479.94,483.4392,strongly disagree,0,9,9,9,1,People often tell me that I went too far in driving my point home in a discussion.,1,0,0,1,,
,,,,,,,,,5a6c9c583fb6420001c308d7,Mexican,13 or older,"no, only English or Spanish",no,2025-07-24_11h15.03.412,empathy_intonation_perc_control,2024.2.4,Win32,60.24096386,5a6c9c583fb6420001c308d7,68817205a84113384fffdfe3,68824dd7e8f362c814b9a9a5,,,,,,,,,,,,,,,,,,,,,,,,,,,11,,,,,,,,,,,,,,,,,,,,,,,,,,,,,,,,,,,,,,,,,,,,483.44,486.6395,strongly disagree,0,10,10,10,1,It doesn't bother me too much if I am late meeting a friend.,1,0,0,1,,
,,,,,,,,,5a6c9c583fb6420001c308d7,Mexican,13 or older,"no, only English or Spanish",no,2025-07-24_11h15.03.412,empathy_intonation_perc_control,2024.2.4,Win32,60.24096386,5a6c9c583fb6420001c308d7,68817205a84113384fffdfe3,68824dd7e8f362c814b9a9a5,,,,,,,,,,,,,,,,,,,,,,,,,,,12,,,,,,,,,,,,,,,,,,,,,,,,,,,,,,,,,,,,,,,,,,,,486.6404,488.9228,strongly disagree,0,11,11,11,1,"Friendships and relationships are just too difficult, so I tend not to 
  bother with them.",1,0,0,1,,
,,,,,,,,,5a6c9c583fb6420001c308d7,Mexican,13 or older,"no, only English or Spanish",no,2025-07-24_11h15.03.412,empathy_intonation_perc_control,2024.2.4,Win32,60.24096386,5a6c9c583fb6420001c308d7,68817205a84113384fffdfe3,68824dd7e8f362c814b9a9a5,,,,,,,,,,,,,,,,,,,,,,,,,,,13,,,,,,,,,,,,,,,,,,,,,,,,,,,,,,,,,,,,,,,,,,,,488.9235,491.9896,slightly disagree,0,12,12,12,1,"I would never break a law, no matter how minor.",0,1,0,0,,
,,,,,,,,,5a6c9c583fb6420001c308d7,Mexican,13 or older,"no, only English or Spanish",no,2025-07-24_11h15.03.412,empathy_intonation_perc_control,2024.2.4,Win32,60.24096386,5a6c9c583fb6420001c308d7,68817205a84113384fffdfe3,68824dd7e8f362c814b9a9a5,,,,,,,,,,,,,,,,,,,,,,,,,,,14,,,,,,,,,,,,,,,,,,,,,,,,,,,,,,,,,,,,,,,,,,,,491.9903,494.4229,strongly disagree,0,13,13,13,1,I often find it difficult to judge if something is rude or polite.,1,0,0,1,,
,,,,,,,,,5a6c9c583fb6420001c308d7,Mexican,13 or older,"no, only English or Spanish",no,2025-07-24_11h15.03.412,empathy_intonation_perc_control,2024.2.4,Win32,60.24096386,5a6c9c583fb6420001c308d7,68817205a84113384fffdfe3,68824dd7e8f362c814b9a9a5,,,,,,,,,,,,,,,,,,,,,,,,,,,15,,,,,,,,,,,,,,,,,,,,,,,,,,,,,,,,,,,,,,,,,,,,494.4237,496.7898,strongly disagree,0,14,14,14,1,"In a conversation, I tend to focus on my own thoughts rather than on what 
  my listener might be thinking.",1,0,0,1,,
,,,,,,,,,5a6c9c583fb6420001c308d7,Mexican,13 or older,"no, only English or Spanish",no,2025-07-24_11h15.03.412,empathy_intonation_perc_control,2024.2.4,Win32,60.24096386,5a6c9c583fb6420001c308d7,68817205a84113384fffdfe3,68824dd7e8f362c814b9a9a5,,,,,,,,,,,,,,,,,,,,,,,,,,,16,,,,,,,,,,,,,,,,,,,,,,,,,,,,,,,,,,,,,,,,,,,,496.7904,500.4565,strongly disagree,0,15,15,15,1,I prefer practical jokes to verbal humor.,0,1,0,0,,
,,,,,,,,,5a6c9c583fb6420001c308d7,Mexican,13 or older,"no, only English or Spanish",no,2025-07-24_11h15.03.412,empathy_intonation_perc_control,2024.2.4,Win32,60.24096386,5a6c9c583fb6420001c308d7,68817205a84113384fffdfe3,68824dd7e8f362c814b9a9a5,,,,,,,,,,,,,,,,,,,,,,,,,,,17,,,,,,,,,,,,,,,,,,,,,,,,,,,,,,,,,,,,,,,,,,,,500.4571,505.94,slightly agree,0,16,16,16,1,I live life for today rather than the future.,0,1,0,0,,
,,,,,,,,,5a6c9c583fb6420001c308d7,Mexican,13 or older,"no, only English or Spanish",no,2025-07-24_11h15.03.412,empathy_intonation_perc_control,2024.2.4,Win32,60.24096386,5a6c9c583fb6420001c308d7,68817205a84113384fffdfe3,68824dd7e8f362c814b9a9a5,,,,,,,,,,,,,,,,,,,,,,,,,,,18,,,,,,,,,,,,,,,,,,,,,,,,,,,,,,,,,,,,,,,,,,,,505.941,508.8402,strongly disagree,0,17,17,17,1,"When I was a child, I enjoyed cutting up worms to see what would happen.",1,0,0,1,,
,,,,,,,,,5a6c9c583fb6420001c308d7,Mexican,13 or older,"no, only English or Spanish",no,2025-07-24_11h15.03.412,empathy_intonation_perc_control,2024.2.4,Win32,60.24096386,5a6c9c583fb6420001c308d7,68817205a84113384fffdfe3,68824dd7e8f362c814b9a9a5,,,,,,,,,,,,,,,,,,,,,,,,,,,19,,,,,,,,,,,,,,,,,,,,,,,,,,,,,,,,,,,,,,,,,,,,508.8409,512.7238,slightly agree,0,18,18,18,1,I can pick up quickly if someone says one thing but means another.,1,0,1,0,,
,,,,,,,,,5a6c9c583fb6420001c308d7,Mexican,13 or older,"no, only English or Spanish",no,2025-07-24_11h15.03.412,empathy_intonation_perc_control,2024.2.4,Win32,60.24096386,5a6c9c583fb6420001c308d7,68817205a84113384fffdfe3,68824dd7e8f362c814b9a9a5,,,,,,,,,,,,,,,,,,,,,,,,,,,20,,,,,,,,,,,,,,,,,,,,,,,,,,,,,,,,,,,,,,,,,,,,512.7245,514.957,strongly agree,0,19,19,19,1,I tend to have very strong opinions about morality.,0,1,0,0,,
,,,,,,,,,5a6c9c583fb6420001c308d7,Mexican,13 or older,"no, only English or Spanish",no,2025-07-24_11h15.03.412,empathy_intonation_perc_control,2024.2.4,Win32,60.24096386,5a6c9c583fb6420001c308d7,68817205a84113384fffdfe3,68824dd7e8f362c814b9a9a5,,,,,,,,,,,,,,,,,,,,,,,,,,,21,,,,,,,,,,,,,,,,,,,,,,,,,,,,,,,,,,,,,,,,,,,,514.9577,519.9906,slightly disagree,0,20,20,20,1,It is hard for me to see why some things upset people so much.,1,0,0,1,,
,,,,,,,,,5a6c9c583fb6420001c308d7,Mexican,13 or older,"no, only English or Spanish",no,2025-07-24_11h15.03.412,empathy_intonation_perc_control,2024.2.4,Win32,60.24096386,5a6c9c583fb6420001c308d7,68817205a84113384fffdfe3,68824dd7e8f362c814b9a9a5,,,,,,,,,,,,,,,,,,,,,,,,,,,22,,,,,,,,,,,,,,,,,,,,,,,,,,,,,,,,,,,,,,,,,,,,519.9913,521.8115,slightly agree,0,21,21,21,1,I find it easy to put myself in somebody else's shoes.,1,0,1,0,,
,,,,,,,,,5a6c9c583fb6420001c308d7,Mexican,13 or older,"no, only English or Spanish",no,2025-07-24_11h15.03.412,empathy_intonation_perc_control,2024.2.4,Win32,60.24096386,5a6c9c583fb6420001c308d7,68817205a84113384fffdfe3,68824dd7e8f362c814b9a9a5,,,,,,,,,,,,,,,,,,,,,,,,,,,23,,,,,,,,,,,,,,,,,,,,,,,,,,,,,,,,,,,,,,,,,,,,521.8122,526.5242,strongly disagree,0,22,22,22,1,I think that good manners are the most important thing a parent can teach their child.,0,1,0,0,,
,,,,,,,,,5a6c9c583fb6420001c308d7,Mexican,13 or older,"no, only English or Spanish",no,2025-07-24_11h15.03.412,empathy_intonation_perc_control,2024.2.4,Win32,60.24096386,5a6c9c583fb6420001c308d7,68817205a84113384fffdfe3,68824dd7e8f362c814b9a9a5,,,,,,,,,,,,,,,,,,,,,,,,,,,24,,,,,,,,,,,,,,,,,,,,,,,,,,,,,,,,,,,,,,,,,,,,526.5248,528.6075,strongly agree,0,23,23,23,1,I like to do things on the spur of the moment.,0,1,0,0,,
,,,,,,,,,5a6c9c583fb6420001c308d7,Mexican,13 or older,"no, only English or Spanish",no,2025-07-24_11h15.03.412,empathy_intonation_perc_control,2024.2.4,Win32,60.24096386,5a6c9c583fb6420001c308d7,68817205a84113384fffdfe3,68824dd7e8f362c814b9a9a5,,,,,,,,,,,,,,,,,,,,,,,,,,,25,,,,,,,,,,,,,,,,,,,,,,,,,,,,,,,,,,,,,,,,,,,,528.6081,530.8577,slightly agree,0,24,24,24,1,I am good at predicting how someone will feel.,1,0,1,0,,
