instructions_2afc.started,instructions_2afc.stopped,instructions_2afc_loop.thisRepN,instructions_2afc_loop.thisTrialN,instructions_2afc_loop.thisN,instructions_2afc_loop.thisIndex,instructions_2afc_loop.ran,instructions_text,continue_text,participant_id,"What variety of Spanish are you most familiar with? (e.g., Peruvian, Spanish, Mexican)",At what age did you begin learning Spanish?,Are you proficient in any languages other than English/Spanish?,"Are you familiar with Caribbean (e.g., Caribbean, Puerto Rican) or Galician Spanish?",date,expName,psychopyVersion,OS,frameRate,id,study_id,session,practice_2afc.started,practice_2afc.stopped,key_resp_2afc_practice.keys,key_resp_2afc_practice.corr,key_resp_2afc_practice.rt,key_resp_2afc_practice.duration,trials_2afc_practice_loop.thisRepN,trials_2afc_practice_loop.thisTrialN,trials_2afc_practice_loop.thisN,trials_2afc_practice_loop.thisIndex,trials_2afc_practice_loop.ran,path,correct_response,check_2afc.started,check_2afc.stopped,trial_2afc.started,trial_2afc.stopped,key_resp_2afc_trial.keys,key_resp_2afc_trial.corr,key_resp_2afc_trial.rt,key_resp_2afc_trial.duration,trials_2afc_loop.thisRepN,trials_2afc_loop.thisTrialN,trials_2afc_loop.thisN,trials_2afc_loop.thisIndex,trials_2afc_loop.ran,item_num,target,variety,instructions_lextale.started,instructions_lextale.stopped,instructions_lextale_loop.thisRepN,instructions_lextale_loop.thisTrialN,instructions_lextale_loop.thisN,instructions_lextale_loop.thisIndex,instructions_lextale_loop.ran,practice_lextale.started,practice_lextale.stopped,key_resp_lextale_practice.keys,key_resp_lextale_practice.corr,key_resp_lextale_practice.rt,key_resp_lextale_practice.duration,practice_feedback_lextale.started,practice_feedback_lextale.stopped,trials_lextale_practice_loop.thisRepN,trials_lextale_practice_loop.thisTrialN,trials_lextale_practice_loop.thisN,trials_lextale_practice_loop.thisIndex,trials_lextale_practice_loop.ran,stim,word,prac_button_real,prac_button_false,check_lextale.started,check_lextale.stopped,trial_lextale.started,trial_lextale.stopped,key_resp_lextale_trial.keys,key_resp_lextale_trial.corr,key_resp_lextale_trial.rt,key_resp_lextale_trial.duration,trials_lextale_loop.thisRepN,trials_lextale_loop.thisTrialN,trials_lextale_loop.thisN,trials_lextale_loop.thisIndex,trials_lextale_loop.ran,button_real,button_false,instructions_eq.started,instructions_eq.stopped,trial_eq.started,trial_eq.stopped,slider_eq_trial.response,trials_eq_loop.thisRepN,trials_eq_loop.thisTrialN,trials_eq_loop.thisN,trials_eq_loop.thisIndex,trials_eq_loop.ran,item,is_test_item,is_distractor,is_agree_score,is_disagree_score,end_exp.started,end_exp.stopped
0.006,4.331,0,0,0,0,1,"In the following task you are going to hear a series of utterances. 

  You will decide if the utterances sound like questions or not using your keyboard.", (press the spacebar to continue),5b26ed8a8ecf3f0001619040,Mexican,13 or older,"no, only English or Spanish",no,2025-07-24_10h57.36.794,empathy_intonation_perc_control,2024.2.4,Win32,59.95203837,5b26ed8a8ecf3f0001619040,68817205a84113384fffdfe3,688249a8e18436b234c45d06,,,,,,,,,,,,,,,,,,,,,,,,,,,,,,,,,,,,,,,,,,,,,,,,,,,,,,,,,,,,,,,,,,,,,,,,,,,,,,,,,,,,,
4.331,13.48,0,1,1,1,1,"If you believe the utterance is a question, type '1' (for 'yes') and if you do not 
  believe it is a question type '0' (for 'no').

  Let's practice a bit...", (press the spacebar to continue),5b26ed8a8ecf3f0001619040,Mexican,13 or older,"no, only English or Spanish",no,2025-07-24_10h57.36.794,empathy_intonation_perc_control,2024.2.4,Win32,59.95203837,5b26ed8a8ecf3f0001619040,68817205a84113384fffdfe3,688249a8e18436b234c45d06,,,,,,,,,,,,,,,,,,,,,,,,,,,,,,,,,,,,,,,,,,,,,,,,,,,,,,,,,,,,,,,,,,,,,,,,,,,,,,,,,,,,,
,,,,,,,,,5b26ed8a8ecf3f0001619040,Mexican,13 or older,"no, only English or Spanish",no,2025-07-24_10h57.36.794,empathy_intonation_perc_control,2024.2.4,Win32,59.95203837,5b26ed8a8ecf3f0001619040,68817205a84113384fffdfe3,688249a8e18436b234c45d06,13.484,19.83,1,1,5.821,,0,0,0,0,1,./stim/wavs/castilian_question_filler_Mi-esposo-conoce-al-chico.wav,1,,,,,,,,,,,,,,,,,,,,,,,,,,,,,,,,,,,,,,,,,,,,,,,,,,,,,,,,,,,,,,,,,,,,,,,,
,,,,,,,,,5b26ed8a8ecf3f0001619040,Mexican,13 or older,"no, only English or Spanish",no,2025-07-24_10h57.36.794,empathy_intonation_perc_control,2024.2.4,Win32,59.95203837,5b26ed8a8ecf3f0001619040,68817205a84113384fffdfe3,688249a8e18436b234c45d06,19.831,24.764,0,0,4.416,,0,1,1,3,1,./stim/wavs/mexican_question_filler_Felipe-no-tiene-contrasena.wav,1,,,,,,,,,,,,,,,,,,,,,,,,,,,,,,,,,,,,,,,,,,,,,,,,,,,,,,,,,,,,,,,,,,,,,,,,
,,,,,,,,,5b26ed8a8ecf3f0001619040,Mexican,13 or older,"no, only English or Spanish",no,2025-07-24_10h57.36.794,empathy_intonation_perc_control,2024.2.4,Win32,59.95203837,5b26ed8a8ecf3f0001619040,68817205a84113384fffdfe3,688249a8e18436b234c45d06,24.765,27.847,0,1,2.549,,0,2,2,6,1,./stim/wavs/peruvian_statement_filler_El-nino-habla-con-su-madre.wav,0,,,,,,,,,,,,,,,,,,,,,,,,,,,,,,,,,,,,,,,,,,,,,,,,,,,,,,,,,,,,,,,,,,,,,,,,
,,,,,,,,,5b26ed8a8ecf3f0001619040,Mexican,13 or older,"no, only English or Spanish",no,2025-07-24_10h57.36.794,empathy_intonation_perc_control,2024.2.4,Win32,59.95203837,5b26ed8a8ecf3f0001619040,68817205a84113384fffdfe3,688249a8e18436b234c45d06,27.848,31.064,0,1,2.687,,0,3,3,7,1,./stim/wavs/puertorican_statement_filler_La-nina-pinta-con-su-amiga.wav,0,,,,,,,,,,,,,,,,,,,,,,,,,,,,,,,,,,,,,,,,,,,,,,,,,,,,,,,,,,,,,,,,,,,,,,,,
,,,,,,,,,5b26ed8a8ecf3f0001619040,Mexican,13 or older,"no, only English or Spanish",no,2025-07-24_10h57.36.794,empathy_intonation_perc_control,2024.2.4,Win32,59.95203837,5b26ed8a8ecf3f0001619040,68817205a84113384fffdfe3,688249a8e18436b234c45d06,31.064,33.68,1,1,2.1,,0,4,4,1,1,./stim/wavs/argentine_question_filler_Mi-vecino-habla-mucho.wav,1,,,,,,,,,,,,,,,,,,,,,,,,,,,,,,,,,,,,,,,,,,,,,,,,,,,,,,,,,,,,,,,,,,,,,,,,
,,,,,,,,,5b26ed8a8ecf3f0001619040,Mexican,13 or older,"no, only English or Spanish",no,2025-07-24_10h57.36.794,empathy_intonation_perc_control,2024.2.4,Win32,59.95203837,5b26ed8a8ecf3f0001619040,68817205a84113384fffdfe3,688249a8e18436b234c45d06,33.681,36.697,0,1,2.502,,0,5,5,5,1,./stim/wavs/andalusian_statement_filler_Alberto-nunca-se-afeita.wav,0,,,,,,,,,,,,,,,,,,,,,,,,,,,,,,,,,,,,,,,,,,,,,,,,,,,,,,,,,,,,,,,,,,,,,,,,
,,,,,,,,,5b26ed8a8ecf3f0001619040,Mexican,13 or older,"no, only English or Spanish",no,2025-07-24_10h57.36.794,empathy_intonation_perc_control,2024.2.4,Win32,59.95203837,5b26ed8a8ecf3f0001619040,68817205a84113384fffdfe3,688249a8e18436b234c45d06,36.698,40.88,0,0,3.651,,0,6,6,2,1,./stim/wavs/chilean_question_filler_Mi-padre-cantaba-bien.wav,1,,,,,,,,,,,,,,,,,,,,,,,,,,,,,,,,,,,,,,,,,,,,,,,,,,,,,,,,,,,,,,,,,,,,,,,,
,,,,,,,,,5b26ed8a8ecf3f0001619040,Mexican,13 or older,"no, only English or Spanish",no,2025-07-24_10h57.36.794,empathy_intonation_perc_control,2024.2.4,Win32,59.95203837,5b26ed8a8ecf3f0001619040,68817205a84113384fffdfe3,688249a8e18436b234c45d06,40.881,44.047,0,1,2.635,,0,7,7,4,1,./stim/wavs/cuban_statement_filler_Cocinabas-por-la-noche.wav,0,,,,,,,,,,,,,,,,,,,,,,,,,,,,,,,,,,,,,,,,,,,,,,,,,,,,,,,,,,,,,,,,,,,,,,,,
,,,,,,,,,5b26ed8a8ecf3f0001619040,Mexican,13 or older,"no, only English or Spanish",no,2025-07-24_10h57.36.794,empathy_intonation_perc_control,2024.2.4,Win32,59.95203837,5b26ed8a8ecf3f0001619040,68817205a84113384fffdfe3,688249a8e18436b234c45d06,,,,,,,,,,,,,,44.047,47.03,,,,,,,,,,,,,,,,,,,,,,,,,,,,,,,,,,,,,,,,,,,,,,,,,,,,,,,,,,,,,,,,,,,,,,
,,,,,,,,,5b26ed8a8ecf3f0001619040,Mexican,13 or older,"no, only English or Spanish",no,2025-07-24_10h57.36.794,empathy_intonation_perc_control,2024.2.4,Win32,59.95203837,5b26ed8a8ecf3f0001619040,68817205a84113384fffdfe3,688249a8e18436b234c45d06,,,,,,,,,,,,./stim/wavs/cuban_mismatch_interrogative-total-yn_El-nino-oye-el-rio.wav,1,,,47.037,49.564,0,0,2.002,,0,0,0,30,1,31,1,cuban,,,,,,,,,,,,,,,,,,,,,,,,,,,,,,,,,,,,,,,,,,,,,,,,,,,,,,,,
,,,,,,,,,5b26ed8a8ecf3f0001619040,Mexican,13 or older,"no, only English or Spanish",no,2025-07-24_10h57.36.794,empathy_intonation_perc_control,2024.2.4,Win32,59.95203837,5b26ed8a8ecf3f0001619040,68817205a84113384fffdfe3,688249a8e18436b234c45d06,,,,,,,,,,,,./stim/wavs/mexican_mismatch_interrogative-total-yn_El-hombre-mira-la-luna.wav,1,,,49.564,52.33,1,1,2.234,,0,1,1,34,1,35,0,mexican,,,,,,,,,,,,,,,,,,,,,,,,,,,,,,,,,,,,,,,,,,,,,,,,,,,,,,,,
,,,,,,,,,5b26ed8a8ecf3f0001619040,Mexican,13 or older,"no, only English or Spanish",no,2025-07-24_10h57.36.794,empathy_intonation_perc_control,2024.2.4,Win32,59.95203837,5b26ed8a8ecf3f0001619040,68817205a84113384fffdfe3,688249a8e18436b234c45d06,,,,,,,,,,,,./stim/wavs/castilian_mismatch_declarative-broad-focus_Mi-novio-viene-del-lago.wav,0,,,52.33,54.88,0,1,2.036,,0,2,2,71,1,72,0,castilian,,,,,,,,,,,,,,,,,,,,,,,,,,,,,,,,,,,,,,,,,,,,,,,,,,,,,,,,
,,,,,,,,,5b26ed8a8ecf3f0001619040,Mexican,13 or older,"no, only English or Spanish",no,2025-07-24_10h57.36.794,empathy_intonation_perc_control,2024.2.4,Win32,59.95203837,5b26ed8a8ecf3f0001619040,68817205a84113384fffdfe3,688249a8e18436b234c45d06,,,,,,,,,,,,./stim/wavs/puertorican_mismatch_declarative-broad-focus_La-maestra-vive-en-Paris.wav,0,,,54.88,57.43,0,1,2.032,,0,3,3,86,1,87,0,puertorican,,,,,,,,,,,,,,,,,,,,,,,,,,,,,,,,,,,,,,,,,,,,,,,,,,,,,,,,
,,,,,,,,,5b26ed8a8ecf3f0001619040,Mexican,13 or older,"no, only English or Spanish",no,2025-07-24_10h57.36.794,empathy_intonation_perc_control,2024.2.4,Win32,59.95203837,5b26ed8a8ecf3f0001619040,68817205a84113384fffdfe3,688249a8e18436b234c45d06,,,,,,,,,,,,./stim/wavs/castilian_mismatch_interrogative-total-yn_Mi-novio-viene-del-lago.wav,1,,,57.433,60.53,1,1,2.575,,0,4,4,27,1,28,0,castilian,,,,,,,,,,,,,,,,,,,,,,,,,,,,,,,,,,,,,,,,,,,,,,,,,,,,,,,,
,,,,,,,,,5b26ed8a8ecf3f0001619040,Mexican,13 or older,"no, only English or Spanish",no,2025-07-24_10h57.36.794,empathy_intonation_perc_control,2024.2.4,Win32,59.95203837,5b26ed8a8ecf3f0001619040,68817205a84113384fffdfe3,688249a8e18436b234c45d06,,,,,,,,,,,,./stim/wavs/cuban_mismatch_declarative-broad-focus_Mi-tia-odia-la-lluvia.wav,0,,,60.53,63.529,0,1,2.476,,0,5,5,77,1,78,0,cuban,,,,,,,,,,,,,,,,,,,,,,,,,,,,,,,,,,,,,,,,,,,,,,,,,,,,,,,,
,,,,,,,,,5b26ed8a8ecf3f0001619040,Mexican,13 or older,"no, only English or Spanish",no,2025-07-24_10h57.36.794,empathy_intonation_perc_control,2024.2.4,Win32,59.95203837,5b26ed8a8ecf3f0001619040,68817205a84113384fffdfe3,688249a8e18436b234c45d06,,,,,,,,,,,,./stim/wavs/puertorican_mismatch_declarative-broad-focus_La-nina-lava-el-plato.wav,0,,,63.531,66.263,0,1,2.206,,0,6,6,87,1,88,0,puertorican,,,,,,,,,,,,,,,,,,,,,,,,,,,,,,,,,,,,,,,,,,,,,,,,,,,,,,,,
,,,,,,,,,5b26ed8a8ecf3f0001619040,Mexican,13 or older,"no, only English or Spanish",no,2025-07-24_10h57.36.794,empathy_intonation_perc_control,2024.2.4,Win32,59.95203837,5b26ed8a8ecf3f0001619040,68817205a84113384fffdfe3,688249a8e18436b234c45d06,,,,,,,,,,,,./stim/wavs/castilian_match_declarative-broad-focus_David-leia-el-libro.wav,0,,,66.264,69.447,0,1,2.656,,0,7,7,44,1,45,0,castilian,,,,,,,,,,,,,,,,,,,,,,,,,,,,,,,,,,,,,,,,,,,,,,,,,,,,,,,,
,,,,,,,,,5b26ed8a8ecf3f0001619040,Mexican,13 or older,"no, only English or Spanish",no,2025-07-24_10h57.36.794,empathy_intonation_perc_control,2024.2.4,Win32,59.95203837,5b26ed8a8ecf3f0001619040,68817205a84113384fffdfe3,688249a8e18436b234c45d06,,,,,,,,,,,,./stim/wavs/cuban_mismatch_interrogative-total-yn_Mi-tia-odia-la-lluvia.wav,1,,,69.447,72.147,0,0,2.168,,0,8,8,33,1,34,1,cuban,,,,,,,,,,,,,,,,,,,,,,,,,,,,,,,,,,,,,,,,,,,,,,,,,,,,,,,,
,,,,,,,,,5b26ed8a8ecf3f0001619040,Mexican,13 or older,"no, only English or Spanish",no,2025-07-24_10h57.36.794,empathy_intonation_perc_control,2024.2.4,Win32,59.95203837,5b26ed8a8ecf3f0001619040,68817205a84113384fffdfe3,688249a8e18436b234c45d06,,,,,,,,,,,,./stim/wavs/cuban_match_interrogative-total-yn_Marta-abre-el-regalo.wav,1,,,72.147,75.863,0,0,3.188,,0,9,9,11,1,12,1,cuban,,,,,,,,,,,,,,,,,,,,,,,,,,,,,,,,,,,,,,,,,,,,,,,,,,,,,,,,
,,,,,,,,,5b26ed8a8ecf3f0001619040,Mexican,13 or older,"no, only English or Spanish",no,2025-07-24_10h57.36.794,empathy_intonation_perc_control,2024.2.4,Win32,59.95203837,5b26ed8a8ecf3f0001619040,68817205a84113384fffdfe3,688249a8e18436b234c45d06,,,,,,,,,,,,./stim/wavs/mexican_match_declarative-broad-focus_Emilio-ama-la-marcha.wav,0,,,75.863,78.997,0,1,2.624,,0,10,10,59,1,60,0,mexican,,,,,,,,,,,,,,,,,,,,,,,,,,,,,,,,,,,,,,,,,,,,,,,,,,,,,,,,
,,,,,,,,,5b26ed8a8ecf3f0001619040,Mexican,13 or older,"no, only English or Spanish",no,2025-07-24_10h57.36.794,empathy_intonation_perc_control,2024.2.4,Win32,59.95203837,5b26ed8a8ecf3f0001619040,68817205a84113384fffdfe3,688249a8e18436b234c45d06,,,,,,,,,,,,./stim/wavs/castilian_mismatch_declarative-broad-focus_La-maestra-vive-en-Paris.wav,0,,,78.997,82.446,0,1,2.915,,0,11,11,69,1,70,0,castilian,,,,,,,,,,,,,,,,,,,,,,,,,,,,,,,,,,,,,,,,,,,,,,,,,,,,,,,,
,,,,,,,,,5b26ed8a8ecf3f0001619040,Mexican,13 or older,"no, only English or Spanish",no,2025-07-24_10h57.36.794,empathy_intonation_perc_control,2024.2.4,Win32,59.95203837,5b26ed8a8ecf3f0001619040,68817205a84113384fffdfe3,688249a8e18436b234c45d06,,,,,,,,,,,,./stim/wavs/castilian_match_interrogative-total-yn_Marta-abre-el-regalo.wav,1,,,82.447,84.829,1,1,1.872,,0,12,12,5,1,6,0,castilian,,,,,,,,,,,,,,,,,,,,,,,,,,,,,,,,,,,,,,,,,,,,,,,,,,,,,,,,
,,,,,,,,,5b26ed8a8ecf3f0001619040,Mexican,13 or older,"no, only English or Spanish",no,2025-07-24_10h57.36.794,empathy_intonation_perc_control,2024.2.4,Win32,59.95203837,5b26ed8a8ecf3f0001619040,68817205a84113384fffdfe3,688249a8e18436b234c45d06,,,,,,,,,,,,./stim/wavs/mexican_mismatch_declarative-broad-focus_La-maestra-vive-en-Paris.wav,0,,,84.83,89.246,0,1,3.899,,0,13,13,80,1,81,0,mexican,,,,,,,,,,,,,,,,,,,,,,,,,,,,,,,,,,,,,,,,,,,,,,,,,,,,,,,,
,,,,,,,,,5b26ed8a8ecf3f0001619040,Mexican,13 or older,"no, only English or Spanish",no,2025-07-24_10h57.36.794,empathy_intonation_perc_control,2024.2.4,Win32,59.95203837,5b26ed8a8ecf3f0001619040,68817205a84113384fffdfe3,688249a8e18436b234c45d06,,,,,,,,,,,,./stim/wavs/castilian_match_interrogative-total-yn_Mariano-habla-del-tiempo.wav,1,,,89.247,92.863,1,1,3.104,,0,14,14,4,1,5,0,castilian,,,,,,,,,,,,,,,,,,,,,,,,,,,,,,,,,,,,,,,,,,,,,,,,,,,,,,,,
,,,,,,,,,5b26ed8a8ecf3f0001619040,Mexican,13 or older,"no, only English or Spanish",no,2025-07-24_10h57.36.794,empathy_intonation_perc_control,2024.2.4,Win32,59.95203837,5b26ed8a8ecf3f0001619040,68817205a84113384fffdfe3,688249a8e18436b234c45d06,,,,,,,,,,,,./stim/wavs/puertorican_match_declarative-broad-focus_Manuela-vende-el-carro.wav,0,,,92.864,95.562,0,1,2.175,,0,15,15,66,1,67,0,puertorican,,,,,,,,,,,,,,,,,,,,,,,,,,,,,,,,,,,,,,,,,,,,,,,,,,,,,,,,
,,,,,,,,,5b26ed8a8ecf3f0001619040,Mexican,13 or older,"no, only English or Spanish",no,2025-07-24_10h57.36.794,empathy_intonation_perc_control,2024.2.4,Win32,59.95203837,5b26ed8a8ecf3f0001619040,68817205a84113384fffdfe3,688249a8e18436b234c45d06,,,,,,,,,,,,./stim/wavs/cuban_match_declarative-broad-focus_Manuela-vende-el-carro.wav,0,,,95.563,98.096,0,1,2.002,,0,16,16,52,1,53,0,cuban,,,,,,,,,,,,,,,,,,,,,,,,,,,,,,,,,,,,,,,,,,,,,,,,,,,,,,,,
,,,,,,,,,5b26ed8a8ecf3f0001619040,Mexican,13 or older,"no, only English or Spanish",no,2025-07-24_10h57.36.794,empathy_intonation_perc_control,2024.2.4,Win32,59.95203837,5b26ed8a8ecf3f0001619040,68817205a84113384fffdfe3,688249a8e18436b234c45d06,,,,,,,,,,,,./stim/wavs/mexican_match_interrogative-total-yn_Emilio-ama-la-marcha.wav,1,,,98.097,100.979,1,1,2.35,,0,17,17,15,1,16,0,mexican,,,,,,,,,,,,,,,,,,,,,,,,,,,,,,,,,,,,,,,,,,,,,,,,,,,,,,,,
,,,,,,,,,5b26ed8a8ecf3f0001619040,Mexican,13 or older,"no, only English or Spanish",no,2025-07-24_10h57.36.794,empathy_intonation_perc_control,2024.2.4,Win32,59.95203837,5b26ed8a8ecf3f0001619040,68817205a84113384fffdfe3,688249a8e18436b234c45d06,,,,,,,,,,,,./stim/wavs/cuban_match_declarative-broad-focus_Mariano-habla-del-tiempo.wav,0,,,100.98,104.262,0,1,2.749,,0,18,18,54,1,55,0,cuban,,,,,,,,,,,,,,,,,,,,,,,,,,,,,,,,,,,,,,,,,,,,,,,,,,,,,,,,
,,,,,,,,,5b26ed8a8ecf3f0001619040,Mexican,13 or older,"no, only English or Spanish",no,2025-07-24_10h57.36.794,empathy_intonation_perc_control,2024.2.4,Win32,59.95203837,5b26ed8a8ecf3f0001619040,68817205a84113384fffdfe3,688249a8e18436b234c45d06,,,,,,,,,,,,./stim/wavs/puertorican_match_declarative-broad-focus_Maria-bebe-el-vino.wav,0,,,104.263,107.246,0,1,2.468,,0,19,19,67,1,68,0,puertorican,,,,,,,,,,,,,,,,,,,,,,,,,,,,,,,,,,,,,,,,,,,,,,,,,,,,,,,,
,,,,,,,,,5b26ed8a8ecf3f0001619040,Mexican,13 or older,"no, only English or Spanish",no,2025-07-24_10h57.36.794,empathy_intonation_perc_control,2024.2.4,Win32,59.95203837,5b26ed8a8ecf3f0001619040,68817205a84113384fffdfe3,688249a8e18436b234c45d06,,,,,,,,,,,,./stim/wavs/mexican_match_declarative-broad-focus_David-leia-el-libro.wav,0,,,107.247,109.812,0,1,2.04,,0,20,20,58,1,59,0,mexican,,,,,,,,,,,,,,,,,,,,,,,,,,,,,,,,,,,,,,,,,,,,,,,,,,,,,,,,
,,,,,,,,,5b26ed8a8ecf3f0001619040,Mexican,13 or older,"no, only English or Spanish",no,2025-07-24_10h57.36.794,empathy_intonation_perc_control,2024.2.4,Win32,59.95203837,5b26ed8a8ecf3f0001619040,68817205a84113384fffdfe3,688249a8e18436b234c45d06,,,,,,,,,,,,./stim/wavs/puertorican_mismatch_declarative-broad-focus_El-bebe-comia-muy-bien.wav,0,,,109.813,112.396,0,1,2.066,,0,21,21,83,1,84,0,puertorican,,,,,,,,,,,,,,,,,,,,,,,,,,,,,,,,,,,,,,,,,,,,,,,,,,,,,,,,
,,,,,,,,,5b26ed8a8ecf3f0001619040,Mexican,13 or older,"no, only English or Spanish",no,2025-07-24_10h57.36.794,empathy_intonation_perc_control,2024.2.4,Win32,59.95203837,5b26ed8a8ecf3f0001619040,68817205a84113384fffdfe3,688249a8e18436b234c45d06,,,,,,,,,,,,./stim/wavs/puertorican_mismatch_declarative-broad-focus_El-hombre-mira-la-luna.wav,0,,,112.396,117.846,0,1,4.922,,0,22,22,84,1,85,0,puertorican,,,,,,,,,,,,,,,,,,,,,,,,,,,,,,,,,,,,,,,,,,,,,,,,,,,,,,,,
,,,,,,,,,5b26ed8a8ecf3f0001619040,Mexican,13 or older,"no, only English or Spanish",no,2025-07-24_10h57.36.794,empathy_intonation_perc_control,2024.2.4,Win32,59.95203837,5b26ed8a8ecf3f0001619040,68817205a84113384fffdfe3,688249a8e18436b234c45d06,,,,,,,,,,,,./stim/wavs/mexican_match_interrogative-total-yn_David-leia-el-libro.wav,1,,,117.847,120.729,1,1,2.36,,0,23,23,14,1,15,0,mexican,,,,,,,,,,,,,,,,,,,,,,,,,,,,,,,,,,,,,,,,,,,,,,,,,,,,,,,,
,,,,,,,,,5b26ed8a8ecf3f0001619040,Mexican,13 or older,"no, only English or Spanish",no,2025-07-24_10h57.36.794,empathy_intonation_perc_control,2024.2.4,Win32,59.95203837,5b26ed8a8ecf3f0001619040,68817205a84113384fffdfe3,688249a8e18436b234c45d06,,,,,,,,,,,,./stim/wavs/cuban_match_declarative-broad-focus_Marta-abre-el-regalo.wav,0,,,120.729,124.912,0,1,3.67,,0,24,24,55,1,56,0,cuban,,,,,,,,,,,,,,,,,,,,,,,,,,,,,,,,,,,,,,,,,,,,,,,,,,,,,,,,
,,,,,,,,,5b26ed8a8ecf3f0001619040,Mexican,13 or older,"no, only English or Spanish",no,2025-07-24_10h57.36.794,empathy_intonation_perc_control,2024.2.4,Win32,59.95203837,5b26ed8a8ecf3f0001619040,68817205a84113384fffdfe3,688249a8e18436b234c45d06,,,,,,,,,,,,./stim/wavs/castilian_match_declarative-broad-focus_Manuela-vende-el-carro.wav,0,,,124.914,127.879,0,1,2.438,,0,25,25,46,1,47,0,castilian,,,,,,,,,,,,,,,,,,,,,,,,,,,,,,,,,,,,,,,,,,,,,,,,,,,,,,,,
,,,,,,,,,5b26ed8a8ecf3f0001619040,Mexican,13 or older,"no, only English or Spanish",no,2025-07-24_10h57.36.794,empathy_intonation_perc_control,2024.2.4,Win32,59.95203837,5b26ed8a8ecf3f0001619040,68817205a84113384fffdfe3,688249a8e18436b234c45d06,,,,,,,,,,,,./stim/wavs/castilian_match_interrogative-total-yn_Manuela-vende-el-carro.wav,1,,,127.88,130.663,1,1,2.25,,0,26,26,2,1,3,0,castilian,,,,,,,,,,,,,,,,,,,,,,,,,,,,,,,,,,,,,,,,,,,,,,,,,,,,,,,,
,,,,,,,,,5b26ed8a8ecf3f0001619040,Mexican,13 or older,"no, only English or Spanish",no,2025-07-24_10h57.36.794,empathy_intonation_perc_control,2024.2.4,Win32,59.95203837,5b26ed8a8ecf3f0001619040,68817205a84113384fffdfe3,688249a8e18436b234c45d06,,,,,,,,,,,,./stim/wavs/mexican_match_interrogative-total-yn_Ana-lleva-el-abrigo.wav,1,,,130.664,134.079,1,1,2.888,,0,27,27,12,1,13,0,mexican,,,,,,,,,,,,,,,,,,,,,,,,,,,,,,,,,,,,,,,,,,,,,,,,,,,,,,,,
,,,,,,,,,5b26ed8a8ecf3f0001619040,Mexican,13 or older,"no, only English or Spanish",no,2025-07-24_10h57.36.794,empathy_intonation_perc_control,2024.2.4,Win32,59.95203837,5b26ed8a8ecf3f0001619040,68817205a84113384fffdfe3,688249a8e18436b234c45d06,,,,,,,,,,,,./stim/wavs/cuban_match_declarative-broad-focus_Ana-lleva-el-abrigo.wav,0,,,134.08,136.845,0,1,2.241,,0,28,28,50,1,51,0,cuban,,,,,,,,,,,,,,,,,,,,,,,,,,,,,,,,,,,,,,,,,,,,,,,,,,,,,,,,
,,,,,,,,,5b26ed8a8ecf3f0001619040,Mexican,13 or older,"no, only English or Spanish",no,2025-07-24_10h57.36.794,empathy_intonation_perc_control,2024.2.4,Win32,59.95203837,5b26ed8a8ecf3f0001619040,68817205a84113384fffdfe3,688249a8e18436b234c45d06,,,,,,,,,,,,./stim/wavs/puertorican_match_interrogative-total-yn_Daniel-iba-a-Bolivia.wav,1,,,136.846,139.33,0,0,1.963,,0,29,29,19,1,20,1,puertorican,,,,,,,,,,,,,,,,,,,,,,,,,,,,,,,,,,,,,,,,,,,,,,,,,,,,,,,,
,,,,,,,,,5b26ed8a8ecf3f0001619040,Mexican,13 or older,"no, only English or Spanish",no,2025-07-24_10h57.36.794,empathy_intonation_perc_control,2024.2.4,Win32,59.95203837,5b26ed8a8ecf3f0001619040,68817205a84113384fffdfe3,688249a8e18436b234c45d06,,,,,,,,,,,,./stim/wavs/castilian_match_declarative-broad-focus_Maria-bebe-el-vino.wav,0,,,139.33,141.928,0,1,2.066,,0,30,30,47,1,48,0,castilian,,,,,,,,,,,,,,,,,,,,,,,,,,,,,,,,,,,,,,,,,,,,,,,,,,,,,,,,
,,,,,,,,,5b26ed8a8ecf3f0001619040,Mexican,13 or older,"no, only English or Spanish",no,2025-07-24_10h57.36.794,empathy_intonation_perc_control,2024.2.4,Win32,59.95203837,5b26ed8a8ecf3f0001619040,68817205a84113384fffdfe3,688249a8e18436b234c45d06,,,,,,,,,,,,./stim/wavs/castilian_match_declarative-broad-focus_Emilio-ama-la-marcha.wav,0,,,141.929,145.362,0,1,2.917,,0,31,31,45,1,46,0,castilian,,,,,,,,,,,,,,,,,,,,,,,,,,,,,,,,,,,,,,,,,,,,,,,,,,,,,,,,
,,,,,,,,,5b26ed8a8ecf3f0001619040,Mexican,13 or older,"no, only English or Spanish",no,2025-07-24_10h57.36.794,empathy_intonation_perc_control,2024.2.4,Win32,59.95203837,5b26ed8a8ecf3f0001619040,68817205a84113384fffdfe3,688249a8e18436b234c45d06,,,,,,,,,,,,./stim/wavs/castilian_mismatch_interrogative-total-yn_La-maestra-vive-en-Paris.wav,1,,,145.363,148.545,1,1,2.65,,0,32,32,24,1,25,0,castilian,,,,,,,,,,,,,,,,,,,,,,,,,,,,,,,,,,,,,,,,,,,,,,,,,,,,,,,,
,,,,,,,,,5b26ed8a8ecf3f0001619040,Mexican,13 or older,"no, only English or Spanish",no,2025-07-24_10h57.36.794,empathy_intonation_perc_control,2024.2.4,Win32,59.95203837,5b26ed8a8ecf3f0001619040,68817205a84113384fffdfe3,688249a8e18436b234c45d06,,,,,,,,,,,,./stim/wavs/puertorican_match_interrogative-total-yn_Emilio-ama-la-marcha.wav,1,,,148.545,151.112,0,0,2.052,,0,33,33,21,1,22,1,puertorican,,,,,,,,,,,,,,,,,,,,,,,,,,,,,,,,,,,,,,,,,,,,,,,,,,,,,,,,
,,,,,,,,,5b26ed8a8ecf3f0001619040,Mexican,13 or older,"no, only English or Spanish",no,2025-07-24_10h57.36.794,empathy_intonation_perc_control,2024.2.4,Win32,59.95203837,5b26ed8a8ecf3f0001619040,68817205a84113384fffdfe3,688249a8e18436b234c45d06,,,,,,,,,,,,./stim/wavs/puertorican_mismatch_interrogative-total-yn_La-maestra-vive-en-Paris.wav,1,,,151.112,153.795,0,0,2.176,,0,34,34,41,1,42,1,puertorican,,,,,,,,,,,,,,,,,,,,,,,,,,,,,,,,,,,,,,,,,,,,,,,,,,,,,,,,
,,,,,,,,,5b26ed8a8ecf3f0001619040,Mexican,13 or older,"no, only English or Spanish",no,2025-07-24_10h57.36.794,empathy_intonation_perc_control,2024.2.4,Win32,59.95203837,5b26ed8a8ecf3f0001619040,68817205a84113384fffdfe3,688249a8e18436b234c45d06,,,,,,,,,,,,./stim/wavs/puertorican_mismatch_declarative-broad-focus_El-nino-oye-el-rio.wav,0,,,153.796,156.629,0,1,2.307,,0,35,35,85,1,86,0,puertorican,,,,,,,,,,,,,,,,,,,,,,,,,,,,,,,,,,,,,,,,,,,,,,,,,,,,,,,,
,,,,,,,,,5b26ed8a8ecf3f0001619040,Mexican,13 or older,"no, only English or Spanish",no,2025-07-24_10h57.36.794,empathy_intonation_perc_control,2024.2.4,Win32,59.95203837,5b26ed8a8ecf3f0001619040,68817205a84113384fffdfe3,688249a8e18436b234c45d06,,,,,,,,,,,,./stim/wavs/mexican_mismatch_declarative-broad-focus_Mi-novio-viene-del-lago.wav,0,,,156.629,159.029,0,1,1.868,,0,36,36,81,1,82,0,mexican,,,,,,,,,,,,,,,,,,,,,,,,,,,,,,,,,,,,,,,,,,,,,,,,,,,,,,,,
,,,,,,,,,5b26ed8a8ecf3f0001619040,Mexican,13 or older,"no, only English or Spanish",no,2025-07-24_10h57.36.794,empathy_intonation_perc_control,2024.2.4,Win32,59.95203837,5b26ed8a8ecf3f0001619040,68817205a84113384fffdfe3,688249a8e18436b234c45d06,,,,,,,,,,,,./stim/wavs/mexican_mismatch_interrogative-total-yn_Mi-novio-viene-del-lago.wav,1,,,159.03,161.761,1,1,2.202,,0,37,37,37,1,38,0,mexican,,,,,,,,,,,,,,,,,,,,,,,,,,,,,,,,,,,,,,,,,,,,,,,,,,,,,,,,
,,,,,,,,,5b26ed8a8ecf3f0001619040,Mexican,13 or older,"no, only English or Spanish",no,2025-07-24_10h57.36.794,empathy_intonation_perc_control,2024.2.4,Win32,59.95203837,5b26ed8a8ecf3f0001619040,68817205a84113384fffdfe3,688249a8e18436b234c45d06,,,,,,,,,,,,./stim/wavs/mexican_match_declarative-broad-focus_Mariano-habla-del-tiempo.wav,0,,,161.763,164.146,0,1,1.862,,0,38,38,60,1,61,0,mexican,,,,,,,,,,,,,,,,,,,,,,,,,,,,,,,,,,,,,,,,,,,,,,,,,,,,,,,,
,,,,,,,,,5b26ed8a8ecf3f0001619040,Mexican,13 or older,"no, only English or Spanish",no,2025-07-24_10h57.36.794,empathy_intonation_perc_control,2024.2.4,Win32,59.95203837,5b26ed8a8ecf3f0001619040,68817205a84113384fffdfe3,688249a8e18436b234c45d06,,,,,,,,,,,,./stim/wavs/puertorican_mismatch_interrogative-total-yn_La-nina-lava-el-plato.wav,1,,,164.147,167.062,0,0,2.388,,0,39,39,42,1,43,1,puertorican,,,,,,,,,,,,,,,,,,,,,,,,,,,,,,,,,,,,,,,,,,,,,,,,,,,,,,,,
,,,,,,,,,5b26ed8a8ecf3f0001619040,Mexican,13 or older,"no, only English or Spanish",no,2025-07-24_10h57.36.794,empathy_intonation_perc_control,2024.2.4,Win32,59.95203837,5b26ed8a8ecf3f0001619040,68817205a84113384fffdfe3,688249a8e18436b234c45d06,,,,,,,,,,,,./stim/wavs/puertorican_match_declarative-broad-focus_Ana-lleva-el-abrigo.wav,0,,,167.063,170.262,0,1,2.667,,0,40,40,62,1,63,0,puertorican,,,,,,,,,,,,,,,,,,,,,,,,,,,,,,,,,,,,,,,,,,,,,,,,,,,,,,,,
,,,,,,,,,5b26ed8a8ecf3f0001619040,Mexican,13 or older,"no, only English or Spanish",no,2025-07-24_10h57.36.794,empathy_intonation_perc_control,2024.2.4,Win32,59.95203837,5b26ed8a8ecf3f0001619040,68817205a84113384fffdfe3,688249a8e18436b234c45d06,,,,,,,,,,,,./stim/wavs/puertorican_match_declarative-broad-focus_Daniel-iba-a-Bolivia.wav,0,,,170.262,173.378,0,1,2.6,,0,41,41,63,1,64,0,puertorican,,,,,,,,,,,,,,,,,,,,,,,,,,,,,,,,,,,,,,,,,,,,,,,,,,,,,,,,
,,,,,,,,,5b26ed8a8ecf3f0001619040,Mexican,13 or older,"no, only English or Spanish",no,2025-07-24_10h57.36.794,empathy_intonation_perc_control,2024.2.4,Win32,59.95203837,5b26ed8a8ecf3f0001619040,68817205a84113384fffdfe3,688249a8e18436b234c45d06,,,,,,,,,,,,./stim/wavs/cuban_mismatch_declarative-broad-focus_El-hombre-mira-la-luna.wav,0,,,173.378,176.929,0,1,3.034,,0,42,42,74,1,75,0,cuban,,,,,,,,,,,,,,,,,,,,,,,,,,,,,,,,,,,,,,,,,,,,,,,,,,,,,,,,
,,,,,,,,,5b26ed8a8ecf3f0001619040,Mexican,13 or older,"no, only English or Spanish",no,2025-07-24_10h57.36.794,empathy_intonation_perc_control,2024.2.4,Win32,59.95203837,5b26ed8a8ecf3f0001619040,68817205a84113384fffdfe3,688249a8e18436b234c45d06,,,,,,,,,,,,./stim/wavs/cuban_mismatch_interrogative-total-yn_Mi-novio-viene-del-lago.wav,1,,,176.929,181.129,0,0,3.668,,0,43,43,32,1,33,1,cuban,,,,,,,,,,,,,,,,,,,,,,,,,,,,,,,,,,,,,,,,,,,,,,,,,,,,,,,,
,,,,,,,,,5b26ed8a8ecf3f0001619040,Mexican,13 or older,"no, only English or Spanish",no,2025-07-24_10h57.36.794,empathy_intonation_perc_control,2024.2.4,Win32,59.95203837,5b26ed8a8ecf3f0001619040,68817205a84113384fffdfe3,688249a8e18436b234c45d06,,,,,,,,,,,,./stim/wavs/mexican_match_interrogative-total-yn_Daniel-iba-a-Bolivia.wav,1,,,181.129,184.579,1,1,2.924,,0,44,44,13,1,14,0,mexican,,,,,,,,,,,,,,,,,,,,,,,,,,,,,,,,,,,,,,,,,,,,,,,,,,,,,,,,
,,,,,,,,,5b26ed8a8ecf3f0001619040,Mexican,13 or older,"no, only English or Spanish",no,2025-07-24_10h57.36.794,empathy_intonation_perc_control,2024.2.4,Win32,59.95203837,5b26ed8a8ecf3f0001619040,68817205a84113384fffdfe3,688249a8e18436b234c45d06,,,,,,,,,,,,./stim/wavs/cuban_match_declarative-broad-focus_Daniel-iba-a-Bolivia.wav,0,,,184.579,189.145,0,1,4.035,,0,45,45,51,1,52,0,cuban,,,,,,,,,,,,,,,,,,,,,,,,,,,,,,,,,,,,,,,,,,,,,,,,,,,,,,,,
,,,,,,,,,5b26ed8a8ecf3f0001619040,Mexican,13 or older,"no, only English or Spanish",no,2025-07-24_10h57.36.794,empathy_intonation_perc_control,2024.2.4,Win32,59.95203837,5b26ed8a8ecf3f0001619040,68817205a84113384fffdfe3,688249a8e18436b234c45d06,,,,,,,,,,,,./stim/wavs/mexican_match_interrogative-total-yn_Mariano-habla-del-tiempo.wav,1,,,189.146,194.012,0,0,4.332,,0,46,46,16,1,17,0,mexican,,,,,,,,,,,,,,,,,,,,,,,,,,,,,,,,,,,,,,,,,,,,,,,,,,,,,,,,
,,,,,,,,,5b26ed8a8ecf3f0001619040,Mexican,13 or older,"no, only English or Spanish",no,2025-07-24_10h57.36.794,empathy_intonation_perc_control,2024.2.4,Win32,59.95203837,5b26ed8a8ecf3f0001619040,68817205a84113384fffdfe3,688249a8e18436b234c45d06,,,,,,,,,,,,./stim/wavs/mexican_mismatch_interrogative-total-yn_Mi-tia-odia-la-lluvia.wav,1,,,194.013,196.995,1,1,2.459,,0,47,47,38,1,39,0,mexican,,,,,,,,,,,,,,,,,,,,,,,,,,,,,,,,,,,,,,,,,,,,,,,,,,,,,,,,
,,,,,,,,,5b26ed8a8ecf3f0001619040,Mexican,13 or older,"no, only English or Spanish",no,2025-07-24_10h57.36.794,empathy_intonation_perc_control,2024.2.4,Win32,59.95203837,5b26ed8a8ecf3f0001619040,68817205a84113384fffdfe3,688249a8e18436b234c45d06,,,,,,,,,,,,./stim/wavs/mexican_match_declarative-broad-focus_Ana-lleva-el-abrigo.wav,0,,,196.996,199.078,0,1,1.556,,0,48,48,56,1,57,0,mexican,,,,,,,,,,,,,,,,,,,,,,,,,,,,,,,,,,,,,,,,,,,,,,,,,,,,,,,,
,,,,,,,,,5b26ed8a8ecf3f0001619040,Mexican,13 or older,"no, only English or Spanish",no,2025-07-24_10h57.36.794,empathy_intonation_perc_control,2024.2.4,Win32,59.95203837,5b26ed8a8ecf3f0001619040,68817205a84113384fffdfe3,688249a8e18436b234c45d06,,,,,,,,,,,,./stim/wavs/puertorican_mismatch_interrogative-total-yn_Mi-madre-come-la-fruta.wav,1,,,199.079,201.612,0,0,2.006,,0,49,49,43,1,44,1,puertorican,,,,,,,,,,,,,,,,,,,,,,,,,,,,,,,,,,,,,,,,,,,,,,,,,,,,,,,,
,,,,,,,,,5b26ed8a8ecf3f0001619040,Mexican,13 or older,"no, only English or Spanish",no,2025-07-24_10h57.36.794,empathy_intonation_perc_control,2024.2.4,Win32,59.95203837,5b26ed8a8ecf3f0001619040,68817205a84113384fffdfe3,688249a8e18436b234c45d06,,,,,,,,,,,,./stim/wavs/mexican_match_declarative-broad-focus_Daniel-iba-a-Bolivia.wav,0,,,201.612,204.145,0,1,2.007,,0,50,50,57,1,58,0,mexican,,,,,,,,,,,,,,,,,,,,,,,,,,,,,,,,,,,,,,,,,,,,,,,,,,,,,,,,
,,,,,,,,,5b26ed8a8ecf3f0001619040,Mexican,13 or older,"no, only English or Spanish",no,2025-07-24_10h57.36.794,empathy_intonation_perc_control,2024.2.4,Win32,59.95203837,5b26ed8a8ecf3f0001619040,68817205a84113384fffdfe3,688249a8e18436b234c45d06,,,,,,,,,,,,./stim/wavs/puertorican_mismatch_interrogative-total-yn_El-hombre-mira-la-luna.wav,1,,,204.146,206.678,1,1,2.005,,0,51,51,39,1,40,1,puertorican,,,,,,,,,,,,,,,,,,,,,,,,,,,,,,,,,,,,,,,,,,,,,,,,,,,,,,,,
,,,,,,,,,5b26ed8a8ecf3f0001619040,Mexican,13 or older,"no, only English or Spanish",no,2025-07-24_10h57.36.794,empathy_intonation_perc_control,2024.2.4,Win32,59.95203837,5b26ed8a8ecf3f0001619040,68817205a84113384fffdfe3,688249a8e18436b234c45d06,,,,,,,,,,,,./stim/wavs/mexican_mismatch_declarative-broad-focus_El-bebe-comia-muy-bien.wav,0,,,206.679,209.045,0,1,1.842,,0,52,52,78,1,79,0,mexican,,,,,,,,,,,,,,,,,,,,,,,,,,,,,,,,,,,,,,,,,,,,,,,,,,,,,,,,
,,,,,,,,,5b26ed8a8ecf3f0001619040,Mexican,13 or older,"no, only English or Spanish",no,2025-07-24_10h57.36.794,empathy_intonation_perc_control,2024.2.4,Win32,59.95203837,5b26ed8a8ecf3f0001619040,68817205a84113384fffdfe3,688249a8e18436b234c45d06,,,,,,,,,,,,./stim/wavs/castilian_match_interrogative-total-yn_David-leia-el-libro.wav,1,,,209.045,211.511,1,1,1.936,,0,53,53,0,1,1,0,castilian,,,,,,,,,,,,,,,,,,,,,,,,,,,,,,,,,,,,,,,,,,,,,,,,,,,,,,,,
,,,,,,,,,5b26ed8a8ecf3f0001619040,Mexican,13 or older,"no, only English or Spanish",no,2025-07-24_10h57.36.794,empathy_intonation_perc_control,2024.2.4,Win32,59.95203837,5b26ed8a8ecf3f0001619040,68817205a84113384fffdfe3,688249a8e18436b234c45d06,,,,,,,,,,,,./stim/wavs/mexican_match_interrogative-total-yn_Marta-abre-el-regalo.wav,1,,,211.511,214.712,1,1,2.688,,0,54,54,17,1,18,0,mexican,,,,,,,,,,,,,,,,,,,,,,,,,,,,,,,,,,,,,,,,,,,,,,,,,,,,,,,,
,,,,,,,,,5b26ed8a8ecf3f0001619040,Mexican,13 or older,"no, only English or Spanish",no,2025-07-24_10h57.36.794,empathy_intonation_perc_control,2024.2.4,Win32,59.95203837,5b26ed8a8ecf3f0001619040,68817205a84113384fffdfe3,688249a8e18436b234c45d06,,,,,,,,,,,,./stim/wavs/cuban_mismatch_interrogative-total-yn_El-hombre-mira-la-luna.wav,1,,,214.712,216.861,0,0,1.622,,0,55,55,29,1,30,1,cuban,,,,,,,,,,,,,,,,,,,,,,,,,,,,,,,,,,,,,,,,,,,,,,,,,,,,,,,,
,,,,,,,,,5b26ed8a8ecf3f0001619040,Mexican,13 or older,"no, only English or Spanish",no,2025-07-24_10h57.36.794,empathy_intonation_perc_control,2024.2.4,Win32,59.95203837,5b26ed8a8ecf3f0001619040,68817205a84113384fffdfe3,688249a8e18436b234c45d06,,,,,,,,,,,,./stim/wavs/puertorican_match_interrogative-total-yn_David-leia-el-libro.wav,1,,,216.861,219.828,0,0,2.457,,0,56,56,20,1,21,1,puertorican,,,,,,,,,,,,,,,,,,,,,,,,,,,,,,,,,,,,,,,,,,,,,,,,,,,,,,,,
,,,,,,,,,5b26ed8a8ecf3f0001619040,Mexican,13 or older,"no, only English or Spanish",no,2025-07-24_10h57.36.794,empathy_intonation_perc_control,2024.2.4,Win32,59.95203837,5b26ed8a8ecf3f0001619040,68817205a84113384fffdfe3,688249a8e18436b234c45d06,,,,,,,,,,,,./stim/wavs/castilian_match_interrogative-total-yn_Emilio-ama-la-marcha.wav,1,,,219.828,222.745,1,1,2.399,,0,57,57,1,1,2,0,castilian,,,,,,,,,,,,,,,,,,,,,,,,,,,,,,,,,,,,,,,,,,,,,,,,,,,,,,,,
,,,,,,,,,5b26ed8a8ecf3f0001619040,Mexican,13 or older,"no, only English or Spanish",no,2025-07-24_10h57.36.794,empathy_intonation_perc_control,2024.2.4,Win32,59.95203837,5b26ed8a8ecf3f0001619040,68817205a84113384fffdfe3,688249a8e18436b234c45d06,,,,,,,,,,,,./stim/wavs/castilian_mismatch_interrogative-total-yn_Mi-tia-odia-la-lluvia.wav,1,,,222.745,225.278,1,1,2.002,,0,58,58,28,1,29,0,castilian,,,,,,,,,,,,,,,,,,,,,,,,,,,,,,,,,,,,,,,,,,,,,,,,,,,,,,,,
,,,,,,,,,5b26ed8a8ecf3f0001619040,Mexican,13 or older,"no, only English or Spanish",no,2025-07-24_10h57.36.794,empathy_intonation_perc_control,2024.2.4,Win32,59.95203837,5b26ed8a8ecf3f0001619040,68817205a84113384fffdfe3,688249a8e18436b234c45d06,,,,,,,,,,,,./stim/wavs/mexican_mismatch_interrogative-total-yn_La-maestra-vive-en-Paris.wav,1,,,225.28,227.961,1,1,2.152,,0,59,59,36,1,37,0,mexican,,,,,,,,,,,,,,,,,,,,,,,,,,,,,,,,,,,,,,,,,,,,,,,,,,,,,,,,
,,,,,,,,,5b26ed8a8ecf3f0001619040,Mexican,13 or older,"no, only English or Spanish",no,2025-07-24_10h57.36.794,empathy_intonation_perc_control,2024.2.4,Win32,59.95203837,5b26ed8a8ecf3f0001619040,68817205a84113384fffdfe3,688249a8e18436b234c45d06,,,,,,,,,,,,./stim/wavs/puertorican_match_interrogative-total-yn_Ana-lleva-el-abrigo.wav,1,,,227.962,229.995,0,0,1.509,,0,60,60,18,1,19,1,puertorican,,,,,,,,,,,,,,,,,,,,,,,,,,,,,,,,,,,,,,,,,,,,,,,,,,,,,,,,
,,,,,,,,,5b26ed8a8ecf3f0001619040,Mexican,13 or older,"no, only English or Spanish",no,2025-07-24_10h57.36.794,empathy_intonation_perc_control,2024.2.4,Win32,59.95203837,5b26ed8a8ecf3f0001619040,68817205a84113384fffdfe3,688249a8e18436b234c45d06,,,,,,,,,,,,./stim/wavs/puertorican_match_declarative-broad-focus_David-leia-el-libro.wav,0,,,229.995,232.211,0,1,1.709,,0,61,61,64,1,65,0,puertorican,,,,,,,,,,,,,,,,,,,,,,,,,,,,,,,,,,,,,,,,,,,,,,,,,,,,,,,,
,,,,,,,,,5b26ed8a8ecf3f0001619040,Mexican,13 or older,"no, only English or Spanish",no,2025-07-24_10h57.36.794,empathy_intonation_perc_control,2024.2.4,Win32,59.95203837,5b26ed8a8ecf3f0001619040,68817205a84113384fffdfe3,688249a8e18436b234c45d06,,,,,,,,,,,,./stim/wavs/cuban_mismatch_interrogative-total-yn_Mi-madre-come-la-fruta.wav,1,,,232.212,234.894,0,0,2.167,,0,62,62,31,1,32,1,cuban,,,,,,,,,,,,,,,,,,,,,,,,,,,,,,,,,,,,,,,,,,,,,,,,,,,,,,,,
,,,,,,,,,5b26ed8a8ecf3f0001619040,Mexican,13 or older,"no, only English or Spanish",no,2025-07-24_10h57.36.794,empathy_intonation_perc_control,2024.2.4,Win32,59.95203837,5b26ed8a8ecf3f0001619040,68817205a84113384fffdfe3,688249a8e18436b234c45d06,,,,,,,,,,,,./stim/wavs/puertorican_match_interrogative-total-yn_Manuela-vende-el-carro.wav,1,,,234.895,238.077,0,0,2.667,,0,63,63,22,1,23,1,puertorican,,,,,,,,,,,,,,,,,,,,,,,,,,,,,,,,,,,,,,,,,,,,,,,,,,,,,,,,
,,,,,,,,,5b26ed8a8ecf3f0001619040,Mexican,13 or older,"no, only English or Spanish",no,2025-07-24_10h57.36.794,empathy_intonation_perc_control,2024.2.4,Win32,59.95203837,5b26ed8a8ecf3f0001619040,68817205a84113384fffdfe3,688249a8e18436b234c45d06,,,,,,,,,,,,./stim/wavs/mexican_mismatch_declarative-broad-focus_Mi-tia-odia-la-lluvia.wav,0,,,238.078,240.461,0,1,1.865,,0,64,64,82,1,83,0,mexican,,,,,,,,,,,,,,,,,,,,,,,,,,,,,,,,,,,,,,,,,,,,,,,,,,,,,,,,
,,,,,,,,,5b26ed8a8ecf3f0001619040,Mexican,13 or older,"no, only English or Spanish",no,2025-07-24_10h57.36.794,empathy_intonation_perc_control,2024.2.4,Win32,59.95203837,5b26ed8a8ecf3f0001619040,68817205a84113384fffdfe3,688249a8e18436b234c45d06,,,,,,,,,,,,./stim/wavs/castilian_mismatch_declarative-broad-focus_Mi-tia-odia-la-lluvia.wav,0,,,240.461,242.761,0,1,1.785,,0,65,65,72,1,73,0,castilian,,,,,,,,,,,,,,,,,,,,,,,,,,,,,,,,,,,,,,,,,,,,,,,,,,,,,,,,
,,,,,,,,,5b26ed8a8ecf3f0001619040,Mexican,13 or older,"no, only English or Spanish",no,2025-07-24_10h57.36.794,empathy_intonation_perc_control,2024.2.4,Win32,59.95203837,5b26ed8a8ecf3f0001619040,68817205a84113384fffdfe3,688249a8e18436b234c45d06,,,,,,,,,,,,./stim/wavs/mexican_match_declarative-broad-focus_Marta-abre-el-regalo.wav,0,,,242.761,245.077,0,1,1.8,,0,66,66,61,1,62,0,mexican,,,,,,,,,,,,,,,,,,,,,,,,,,,,,,,,,,,,,,,,,,,,,,,,,,,,,,,,
,,,,,,,,,5b26ed8a8ecf3f0001619040,Mexican,13 or older,"no, only English or Spanish",no,2025-07-24_10h57.36.794,empathy_intonation_perc_control,2024.2.4,Win32,59.95203837,5b26ed8a8ecf3f0001619040,68817205a84113384fffdfe3,688249a8e18436b234c45d06,,,,,,,,,,,,./stim/wavs/cuban_match_interrogative-total-yn_Ana-lleva-el-abrigo.wav,1,,,245.078,247.378,0,0,1.783,,0,67,67,6,1,7,1,cuban,,,,,,,,,,,,,,,,,,,,,,,,,,,,,,,,,,,,,,,,,,,,,,,,,,,,,,,,
,,,,,,,,,5b26ed8a8ecf3f0001619040,Mexican,13 or older,"no, only English or Spanish",no,2025-07-24_10h57.36.794,empathy_intonation_perc_control,2024.2.4,Win32,59.95203837,5b26ed8a8ecf3f0001619040,68817205a84113384fffdfe3,688249a8e18436b234c45d06,,,,,,,,,,,,./stim/wavs/puertorican_match_interrogative-total-yn_Maria-bebe-el-vino.wav,1,,,247.378,249.877,1,1,1.975,,0,68,68,23,1,24,1,puertorican,,,,,,,,,,,,,,,,,,,,,,,,,,,,,,,,,,,,,,,,,,,,,,,,,,,,,,,,
,,,,,,,,,5b26ed8a8ecf3f0001619040,Mexican,13 or older,"no, only English or Spanish",no,2025-07-24_10h57.36.794,empathy_intonation_perc_control,2024.2.4,Win32,59.95203837,5b26ed8a8ecf3f0001619040,68817205a84113384fffdfe3,688249a8e18436b234c45d06,,,,,,,,,,,,./stim/wavs/cuban_match_interrogative-total-yn_Daniel-iba-a-Bolivia.wav,1,,,249.878,252.077,0,0,1.67,,0,69,69,7,1,8,1,cuban,,,,,,,,,,,,,,,,,,,,,,,,,,,,,,,,,,,,,,,,,,,,,,,,,,,,,,,,
,,,,,,,,,5b26ed8a8ecf3f0001619040,Mexican,13 or older,"no, only English or Spanish",no,2025-07-24_10h57.36.794,empathy_intonation_perc_control,2024.2.4,Win32,59.95203837,5b26ed8a8ecf3f0001619040,68817205a84113384fffdfe3,688249a8e18436b234c45d06,,,,,,,,,,,,./stim/wavs/mexican_mismatch_declarative-broad-focus_El-hombre-mira-la-luna.wav,0,,,252.077,254.544,0,1,1.953,,0,70,70,79,1,80,0,mexican,,,,,,,,,,,,,,,,,,,,,,,,,,,,,,,,,,,,,,,,,,,,,,,,,,,,,,,,
,,,,,,,,,5b26ed8a8ecf3f0001619040,Mexican,13 or older,"no, only English or Spanish",no,2025-07-24_10h57.36.794,empathy_intonation_perc_control,2024.2.4,Win32,59.95203837,5b26ed8a8ecf3f0001619040,68817205a84113384fffdfe3,688249a8e18436b234c45d06,,,,,,,,,,,,./stim/wavs/cuban_match_interrogative-total-yn_Maria-bebe-el-vino.wav,1,,,254.545,257.111,0,0,2.037,,0,71,71,9,1,10,1,cuban,,,,,,,,,,,,,,,,,,,,,,,,,,,,,,,,,,,,,,,,,,,,,,,,,,,,,,,,
,,,,,,,,,5b26ed8a8ecf3f0001619040,Mexican,13 or older,"no, only English or Spanish",no,2025-07-24_10h57.36.794,empathy_intonation_perc_control,2024.2.4,Win32,59.95203837,5b26ed8a8ecf3f0001619040,68817205a84113384fffdfe3,688249a8e18436b234c45d06,,,,,,,,,,,,./stim/wavs/puertorican_mismatch_interrogative-total-yn_El-nino-oye-el-rio.wav,1,,,257.112,260.044,0,0,2.401,,0,72,72,40,1,41,1,puertorican,,,,,,,,,,,,,,,,,,,,,,,,,,,,,,,,,,,,,,,,,,,,,,,,,,,,,,,,
,,,,,,,,,5b26ed8a8ecf3f0001619040,Mexican,13 or older,"no, only English or Spanish",no,2025-07-24_10h57.36.794,empathy_intonation_perc_control,2024.2.4,Win32,59.95203837,5b26ed8a8ecf3f0001619040,68817205a84113384fffdfe3,688249a8e18436b234c45d06,,,,,,,,,,,,./stim/wavs/castilian_match_interrogative-total-yn_Maria-bebe-el-vino.wav,1,,,260.044,263.127,1,1,2.569,,0,73,73,3,1,4,0,castilian,,,,,,,,,,,,,,,,,,,,,,,,,,,,,,,,,,,,,,,,,,,,,,,,,,,,,,,,
,,,,,,,,,5b26ed8a8ecf3f0001619040,Mexican,13 or older,"no, only English or Spanish",no,2025-07-24_10h57.36.794,empathy_intonation_perc_control,2024.2.4,Win32,59.95203837,5b26ed8a8ecf3f0001619040,68817205a84113384fffdfe3,688249a8e18436b234c45d06,,,,,,,,,,,,./stim/wavs/cuban_match_declarative-broad-focus_Maria-bebe-el-vino.wav,0,,,263.127,265.261,0,1,1.625,,0,74,74,53,1,54,0,cuban,,,,,,,,,,,,,,,,,,,,,,,,,,,,,,,,,,,,,,,,,,,,,,,,,,,,,,,,
,,,,,,,,,5b26ed8a8ecf3f0001619040,Mexican,13 or older,"no, only English or Spanish",no,2025-07-24_10h57.36.794,empathy_intonation_perc_control,2024.2.4,Win32,59.95203837,5b26ed8a8ecf3f0001619040,68817205a84113384fffdfe3,688249a8e18436b234c45d06,,,,,,,,,,,,./stim/wavs/cuban_match_interrogative-total-yn_Mariano-habla-del-tiempo.wav,1,,,265.261,267.861,0,0,2.069,,0,75,75,10,1,11,1,cuban,,,,,,,,,,,,,,,,,,,,,,,,,,,,,,,,,,,,,,,,,,,,,,,,,,,,,,,,
,,,,,,,,,5b26ed8a8ecf3f0001619040,Mexican,13 or older,"no, only English or Spanish",no,2025-07-24_10h57.36.794,empathy_intonation_perc_control,2024.2.4,Win32,59.95203837,5b26ed8a8ecf3f0001619040,68817205a84113384fffdfe3,688249a8e18436b234c45d06,,,,,,,,,,,,./stim/wavs/cuban_mismatch_declarative-broad-focus_Mi-novio-viene-del-lago.wav,0,,,267.862,270.378,0,1,1.994,,0,76,76,76,1,77,0,cuban,,,,,,,,,,,,,,,,,,,,,,,,,,,,,,,,,,,,,,,,,,,,,,,,,,,,,,,,
,,,,,,,,,5b26ed8a8ecf3f0001619040,Mexican,13 or older,"no, only English or Spanish",no,2025-07-24_10h57.36.794,empathy_intonation_perc_control,2024.2.4,Win32,59.95203837,5b26ed8a8ecf3f0001619040,68817205a84113384fffdfe3,688249a8e18436b234c45d06,,,,,,,,,,,,./stim/wavs/castilian_match_declarative-broad-focus_Marta-abre-el-regalo.wav,0,,,270.378,273.027,0,1,2.127,,0,77,77,49,1,50,0,castilian,,,,,,,,,,,,,,,,,,,,,,,,,,,,,,,,,,,,,,,,,,,,,,,,,,,,,,,,
,,,,,,,,,5b26ed8a8ecf3f0001619040,Mexican,13 or older,"no, only English or Spanish",no,2025-07-24_10h57.36.794,empathy_intonation_perc_control,2024.2.4,Win32,59.95203837,5b26ed8a8ecf3f0001619040,68817205a84113384fffdfe3,688249a8e18436b234c45d06,,,,,,,,,,,,./stim/wavs/cuban_mismatch_declarative-broad-focus_El-bebe-comia-muy-bien.wav,0,,,273.028,277.16,0,1,3.603,,0,78,78,73,1,74,0,cuban,,,,,,,,,,,,,,,,,,,,,,,,,,,,,,,,,,,,,,,,,,,,,,,,,,,,,,,,
,,,,,,,,,5b26ed8a8ecf3f0001619040,Mexican,13 or older,"no, only English or Spanish",no,2025-07-24_10h57.36.794,empathy_intonation_perc_control,2024.2.4,Win32,59.95203837,5b26ed8a8ecf3f0001619040,68817205a84113384fffdfe3,688249a8e18436b234c45d06,,,,,,,,,,,,./stim/wavs/castilian_mismatch_declarative-broad-focus_El-nino-oye-el-rio.wav,0,,,277.161,279.627,0,1,1.958,,0,79,79,68,1,69,0,castilian,,,,,,,,,,,,,,,,,,,,,,,,,,,,,,,,,,,,,,,,,,,,,,,,,,,,,,,,
,,,,,,,,,5b26ed8a8ecf3f0001619040,Mexican,13 or older,"no, only English or Spanish",no,2025-07-24_10h57.36.794,empathy_intonation_perc_control,2024.2.4,Win32,59.95203837,5b26ed8a8ecf3f0001619040,68817205a84113384fffdfe3,688249a8e18436b234c45d06,,,,,,,,,,,,./stim/wavs/mexican_mismatch_interrogative-total-yn_El-nino-oye-el-rio.wav,1,,,279.627,282.028,1,1,1.884,,0,80,80,35,1,36,0,mexican,,,,,,,,,,,,,,,,,,,,,,,,,,,,,,,,,,,,,,,,,,,,,,,,,,,,,,,,
,,,,,,,,,5b26ed8a8ecf3f0001619040,Mexican,13 or older,"no, only English or Spanish",no,2025-07-24_10h57.36.794,empathy_intonation_perc_control,2024.2.4,Win32,59.95203837,5b26ed8a8ecf3f0001619040,68817205a84113384fffdfe3,688249a8e18436b234c45d06,,,,,,,,,,,,./stim/wavs/castilian_match_declarative-broad-focus_Mariano-habla-del-tiempo.wav,0,,,282.028,284.677,0,1,2.117,,0,81,81,48,1,49,0,castilian,,,,,,,,,,,,,,,,,,,,,,,,,,,,,,,,,,,,,,,,,,,,,,,,,,,,,,,,
,,,,,,,,,5b26ed8a8ecf3f0001619040,Mexican,13 or older,"no, only English or Spanish",no,2025-07-24_10h57.36.794,empathy_intonation_perc_control,2024.2.4,Win32,59.95203837,5b26ed8a8ecf3f0001619040,68817205a84113384fffdfe3,688249a8e18436b234c45d06,,,,,,,,,,,,./stim/wavs/castilian_mismatch_declarative-broad-focus_La-nina-lava-el-plato.wav,0,,,284.677,287.277,0,1,2.083,,0,82,82,70,1,71,0,castilian,,,,,,,,,,,,,,,,,,,,,,,,,,,,,,,,,,,,,,,,,,,,,,,,,,,,,,,,
,,,,,,,,,5b26ed8a8ecf3f0001619040,Mexican,13 or older,"no, only English or Spanish",no,2025-07-24_10h57.36.794,empathy_intonation_perc_control,2024.2.4,Win32,59.95203837,5b26ed8a8ecf3f0001619040,68817205a84113384fffdfe3,688249a8e18436b234c45d06,,,,,,,,,,,,./stim/wavs/cuban_mismatch_declarative-broad-focus_La-nina-lava-el-plato.wav,0,,,287.277,290.577,0,1,2.783,,0,83,83,75,1,76,0,cuban,,,,,,,,,,,,,,,,,,,,,,,,,,,,,,,,,,,,,,,,,,,,,,,,,,,,,,,,
,,,,,,,,,5b26ed8a8ecf3f0001619040,Mexican,13 or older,"no, only English or Spanish",no,2025-07-24_10h57.36.794,empathy_intonation_perc_control,2024.2.4,Win32,59.95203837,5b26ed8a8ecf3f0001619040,68817205a84113384fffdfe3,688249a8e18436b234c45d06,,,,,,,,,,,,./stim/wavs/castilian_mismatch_interrogative-total-yn_La-nina-lava-el-plato.wav,1,,,290.579,293.41,1,1,2.303,,0,84,84,25,1,26,0,castilian,,,,,,,,,,,,,,,,,,,,,,,,,,,,,,,,,,,,,,,,,,,,,,,,,,,,,,,,
,,,,,,,,,5b26ed8a8ecf3f0001619040,Mexican,13 or older,"no, only English or Spanish",no,2025-07-24_10h57.36.794,empathy_intonation_perc_control,2024.2.4,Win32,59.95203837,5b26ed8a8ecf3f0001619040,68817205a84113384fffdfe3,688249a8e18436b234c45d06,,,,,,,,,,,,./stim/wavs/cuban_match_interrogative-total-yn_Manuela-vende-el-carro.wav,1,,,293.411,295.66,0,0,1.721,,0,85,85,8,1,9,1,cuban,,,,,,,,,,,,,,,,,,,,,,,,,,,,,,,,,,,,,,,,,,,,,,,,,,,,,,,,
,,,,,,,,,5b26ed8a8ecf3f0001619040,Mexican,13 or older,"no, only English or Spanish",no,2025-07-24_10h57.36.794,empathy_intonation_perc_control,2024.2.4,Win32,59.95203837,5b26ed8a8ecf3f0001619040,68817205a84113384fffdfe3,688249a8e18436b234c45d06,,,,,,,,,,,,./stim/wavs/castilian_mismatch_interrogative-total-yn_Mi-madre-come-la-fruta.wav,1,,,295.661,297.927,0,0,1.735,,0,86,86,26,1,27,0,castilian,,,,,,,,,,,,,,,,,,,,,,,,,,,,,,,,,,,,,,,,,,,,,,,,,,,,,,,,
,,,,,,,,,5b26ed8a8ecf3f0001619040,Mexican,13 or older,"no, only English or Spanish",no,2025-07-24_10h57.36.794,empathy_intonation_perc_control,2024.2.4,Win32,59.95203837,5b26ed8a8ecf3f0001619040,68817205a84113384fffdfe3,688249a8e18436b234c45d06,,,,,,,,,,,,./stim/wavs/puertorican_match_declarative-broad-focus_Emilio-ama-la-marcha.wav,0,,,297.928,299.977,0,1,1.521,,0,87,87,65,1,66,0,puertorican,,,,,,,,,,,,,,,,,,,,,,,,,,,,,,,,,,,,,,,,,,,,,,,,,,,,,,,,
,,,,,,,"Great! Now we will move on. The next task consists of about 60 trials, in each of which you will see a string of letters. 
  
  Your task is to decide whether this is a real Spanish word or not.", (press the spacebar to continue),5b26ed8a8ecf3f0001619040,Mexican,13 or older,"no, only English or Spanish",no,2025-07-24_10h57.36.794,empathy_intonation_perc_control,2024.2.4,Win32,59.95203837,5b26ed8a8ecf3f0001619040,68817205a84113384fffdfe3,688249a8e18436b234c45d06,,,,,,,,,,,,,,,,,,,,,,,,,,,,,,299.983,306.827,0,0,0,0,1,,,,,,,,,,,,,,,,,,,,,,,,,,,,,,,,,,,,,,,,,,,,,,,,,
,,,,,,,"If you think it is an existing Spanish word, you type '1' (for 'REAL'), and if you think it is not an existing Spanish word, you type '0' (for 'FAKE').", (press the spacebar to continue),5b26ed8a8ecf3f0001619040,Mexican,13 or older,"no, only English or Spanish",no,2025-07-24_10h57.36.794,empathy_intonation_perc_control,2024.2.4,Win32,59.95203837,5b26ed8a8ecf3f0001619040,68817205a84113384fffdfe3,688249a8e18436b234c45d06,,,,,,,,,,,,,,,,,,,,,,,,,,,,,,306.829,311.36,0,1,1,1,1,,,,,,,,,,,,,,,,,,,,,,,,,,,,,,,,,,,,,,,,,,,,,,,,,
,,,,,,,"If you are sure that the word exists, even though you don’t know its exact meaning, you may still respond '1' (REAL). 
  
  But if you are not sure if it is an existing word, you should respond '0' (FAKE).
  
  Let's do a practice round...", (press the spacebar to continue),5b26ed8a8ecf3f0001619040,Mexican,13 or older,"no, only English or Spanish",no,2025-07-24_10h57.36.794,empathy_intonation_perc_control,2024.2.4,Win32,59.95203837,5b26ed8a8ecf3f0001619040,68817205a84113384fffdfe3,688249a8e18436b234c45d06,,,,,,,,,,,,,,,,,,,,,,,,,,,,,,311.362,316.326,0,2,2,2,1,,,,,,,,,,,,,,,,,,,,,,,,,,,,,,,,,,,,,,,,,,,,,,,,,
,,,,,,,,,5b26ed8a8ecf3f0001619040,Mexican,13 or older,"no, only English or Spanish",no,2025-07-24_10h57.36.794,empathy_intonation_perc_control,2024.2.4,Win32,59.95203837,5b26ed8a8ecf3f0001619040,68817205a84113384fffdfe3,688249a8e18436b234c45d06,,,,,,,,,,,,,0,,,,,,,,,,,,,,,,,,,,,,,,316.331,317.96,1,0,1.095,,317.96,318.96,0,0,0,0,1,0,depiste,REAL,FAKE,,,,,,,,,,,,,,,,,,,,,,,,,,,,,,,,
,,,,,,,,,5b26ed8a8ecf3f0001619040,Mexican,13 or older,"no, only English or Spanish",no,2025-07-24_10h57.36.794,empathy_intonation_perc_control,2024.2.4,Win32,59.95203837,5b26ed8a8ecf3f0001619040,68817205a84113384fffdfe3,688249a8e18436b234c45d06,,,,,,,,,,,,,1,,,,,,,,,,,,,,,,,,,,,,,,318.961,320.377,1,1,0.887,,320.378,321.377,0,1,1,1,1,0,sí,REAL,FAKE,,,,,,,,,,,,,,,,,,,,,,,,,,,,,,,,
,,,,,,,,,5b26ed8a8ecf3f0001619040,Mexican,13 or older,"no, only English or Spanish",no,2025-07-24_10h57.36.794,empathy_intonation_perc_control,2024.2.4,Win32,59.95203837,5b26ed8a8ecf3f0001619040,68817205a84113384fffdfe3,688249a8e18436b234c45d06,,,,,,,,,,,,,0,,,,,,,,,,,,,,,,,,,,,,,,321.378,322.943,0,1,1.021,,322.943,323.943,0,2,2,2,1,0,coné,REAL,FAKE,,,,,,,,,,,,,,,,,,,,,,,,,,,,,,,,
,,,,,,,,,5b26ed8a8ecf3f0001619040,Mexican,13 or older,"no, only English or Spanish",no,2025-07-24_10h57.36.794,empathy_intonation_perc_control,2024.2.4,Win32,59.95203837,5b26ed8a8ecf3f0001619040,68817205a84113384fffdfe3,688249a8e18436b234c45d06,,,,,,,,,,,,,0,,,,,,,,,,,,,,,,,,,,,,,,323.945,325.377,0,1,0.889,,325.377,326.376,0,3,3,3,1,0,calpar,REAL,FAKE,,,,,,,,,,,,,,,,,,,,,,,,,,,,,,,,
,,,,,,,,,5b26ed8a8ecf3f0001619040,Mexican,13 or older,"no, only English or Spanish",no,2025-07-24_10h57.36.794,empathy_intonation_perc_control,2024.2.4,Win32,59.95203837,5b26ed8a8ecf3f0001619040,68817205a84113384fffdfe3,688249a8e18436b234c45d06,,,,,,,,,,,,,0,,,,,,,,,,,,,,,,,,,,,,,,326.377,327.443,0,1,0.554,,327.443,328.443,0,4,4,4,1,0,joten,REAL,FAKE,,,,,,,,,,,,,,,,,,,,,,,,,,,,,,,,
,,,,,,,,,5b26ed8a8ecf3f0001619040,Mexican,13 or older,"no, only English or Spanish",no,2025-07-24_10h57.36.794,empathy_intonation_perc_control,2024.2.4,Win32,59.95203837,5b26ed8a8ecf3f0001619040,68817205a84113384fffdfe3,688249a8e18436b234c45d06,,,,,,,,,,,,,1,,,,,,,,,,,,,,,,,,,,,,,,328.444,329.71,1,1,0.74,,329.71,330.71,0,5,5,5,1,0,sacapuntas,REAL,FAKE,,,,,,,,,,,,,,,,,,,,,,,,,,,,,,,,
,,,,,,,,,5b26ed8a8ecf3f0001619040,Mexican,13 or older,"no, only English or Spanish",no,2025-07-24_10h57.36.794,empathy_intonation_perc_control,2024.2.4,Win32,59.95203837,5b26ed8a8ecf3f0001619040,68817205a84113384fffdfe3,688249a8e18436b234c45d06,,,,,,,,,,,,,0,,,,,,,,,,,,,,,,,,,,,,,,330.711,331.828,1,0,0.609,,331.828,332.827,0,6,6,6,1,0,priba,REAL,FAKE,,,,,,,,,,,,,,,,,,,,,,,,,,,,,,,,
,,,,,,,,,5b26ed8a8ecf3f0001619040,Mexican,13 or older,"no, only English or Spanish",no,2025-07-24_10h57.36.794,empathy_intonation_perc_control,2024.2.4,Win32,59.95203837,5b26ed8a8ecf3f0001619040,68817205a84113384fffdfe3,688249a8e18436b234c45d06,,,,,,,,,,,,,0,,,,,,,,,,,,,,,,,,,,,,,,332.828,334.609,1,0,1.261,,334.609,335.61,0,7,7,7,1,0,pelasula,REAL,FAKE,,,,,,,,,,,,,,,,,,,,,,,,,,,,,,,,
,,,,,,,,,5b26ed8a8ecf3f0001619040,Mexican,13 or older,"no, only English or Spanish",no,2025-07-24_10h57.36.794,empathy_intonation_perc_control,2024.2.4,Win32,59.95203837,5b26ed8a8ecf3f0001619040,68817205a84113384fffdfe3,688249a8e18436b234c45d06,,,,,,,,,,,,,1,,,,,,,,,,,,,,,,,,,,,,,,335.611,337.176,0,0,1.019,,337.176,338.176,0,8,8,8,1,0,bien,REAL,FAKE,,,,,,,,,,,,,,,,,,,,,,,,,,,,,,,,
,,,,,,,,,5b26ed8a8ecf3f0001619040,Mexican,13 or older,"no, only English or Spanish",no,2025-07-24_10h57.36.794,empathy_intonation_perc_control,2024.2.4,Win32,59.95203837,5b26ed8a8ecf3f0001619040,68817205a84113384fffdfe3,688249a8e18436b234c45d06,,,,,,,,,,,,,1,,,,,,,,,,,,,,,,,,,,,,,,338.177,339.326,1,1,0.606,,339.327,340.326,0,9,9,9,1,0,casa,REAL,FAKE,,,,,,,,,,,,,,,,,,,,,,,,,,,,,,,,
,,,,,,,,,5b26ed8a8ecf3f0001619040,Mexican,13 or older,"no, only English or Spanish",no,2025-07-24_10h57.36.794,empathy_intonation_perc_control,2024.2.4,Win32,59.95203837,5b26ed8a8ecf3f0001619040,68817205a84113384fffdfe3,688249a8e18436b234c45d06,,,,,,,,,,,,,0,,,,,,,,,,,,,,,,,,,,,,,,340.327,341.66,1,0,0.795,,341.66,342.659,0,10,10,10,1,0,lejo,REAL,FAKE,,,,,,,,,,,,,,,,,,,,,,,,,,,,,,,,
,,,,,,,,,5b26ed8a8ecf3f0001619040,Mexican,13 or older,"no, only English or Spanish",no,2025-07-24_10h57.36.794,empathy_intonation_perc_control,2024.2.4,Win32,59.95203837,5b26ed8a8ecf3f0001619040,68817205a84113384fffdfe3,688249a8e18436b234c45d06,,,,,,,,,,,,,0,,,,,,,,,,,,,,,,,,,,,,,,342.66,344.21,0,1,1.031,,344.21,345.21,0,11,11,11,1,0,pretantas,REAL,FAKE,,,,,,,,,,,,,,,,,,,,,,,,,,,,,,,,
,,,,,,,,,5b26ed8a8ecf3f0001619040,Mexican,13 or older,"no, only English or Spanish",no,2025-07-24_10h57.36.794,empathy_intonation_perc_control,2024.2.4,Win32,59.95203837,5b26ed8a8ecf3f0001619040,68817205a84113384fffdfe3,688249a8e18436b234c45d06,,,,,,,,,,,,,,,,,,,,,,,,,,,,,,,,,,,,,,,,,,,,,,,,,,,,,,345.21,346.643,,,,,,,,,,,,,,,,,,,,,,,,,,,,,,
,,,,,,,,,5b26ed8a8ecf3f0001619040,Mexican,13 or older,"no, only English or Spanish",no,2025-07-24_10h57.36.794,empathy_intonation_perc_control,2024.2.4,Win32,59.95203837,5b26ed8a8ecf3f0001619040,68817205a84113384fffdfe3,688249a8e18436b234c45d06,,,,,,,,,,,,,0,,,,,,,,,,,,,,,,,,,,,,,,,,,,,,,,,,,,,87,grodo,,,,,346.653,348.31,0,1,1.13,,0,0,0,86,1,REAL,FAKE,,,,,,,,,,,,,,,,,
,,,,,,,,,5b26ed8a8ecf3f0001619040,Mexican,13 or older,"no, only English or Spanish",no,2025-07-24_10h57.36.794,empathy_intonation_perc_control,2024.2.4,Win32,59.95203837,5b26ed8a8ecf3f0001619040,68817205a84113384fffdfe3,688249a8e18436b234c45d06,,,,,,,,,,,,,0,,,,,,,,,,,,,,,,,,,,,,,,,,,,,,,,,,,,,53,vegada,,,,,348.311,349.976,0,1,1.116,,0,1,1,52,1,REAL,FAKE,,,,,,,,,,,,,,,,,
,,,,,,,,,5b26ed8a8ecf3f0001619040,Mexican,13 or older,"no, only English or Spanish",no,2025-07-24_10h57.36.794,empathy_intonation_perc_control,2024.2.4,Win32,59.95203837,5b26ed8a8ecf3f0001619040,68817205a84113384fffdfe3,688249a8e18436b234c45d06,,,,,,,,,,,,,1,,,,,,,,,,,,,,,,,,,,,,,,,,,,,,,,,,,,,52,camisa,,,,,349.976,351.176,1,1,0.668,,0,2,2,51,1,REAL,FAKE,,,,,,,,,,,,,,,,,
,,,,,,,,,5b26ed8a8ecf3f0001619040,Mexican,13 or older,"no, only English or Spanish",no,2025-07-24_10h57.36.794,empathy_intonation_perc_control,2024.2.4,Win32,59.95203837,5b26ed8a8ecf3f0001619040,68817205a84113384fffdfe3,688249a8e18436b234c45d06,,,,,,,,,,,,,1,,,,,,,,,,,,,,,,,,,,,,,,,,,,,,,,,,,,,67,cabello,,,,,351.176,352.276,1,1,0.584,,0,3,3,66,1,REAL,FAKE,,,,,,,,,,,,,,,,,
,,,,,,,,,5b26ed8a8ecf3f0001619040,Mexican,13 or older,"no, only English or Spanish",no,2025-07-24_10h57.36.794,empathy_intonation_perc_control,2024.2.4,Win32,59.95203837,5b26ed8a8ecf3f0001619040,68817205a84113384fffdfe3,688249a8e18436b234c45d06,,,,,,,,,,,,,1,,,,,,,,,,,,,,,,,,,,,,,,,,,,,,,,,,,,,51,candado,,,,,352.277,353.976,0,0,1.173,,0,4,4,50,1,REAL,FAKE,,,,,,,,,,,,,,,,,
,,,,,,,,,5b26ed8a8ecf3f0001619040,Mexican,13 or older,"no, only English or Spanish",no,2025-07-24_10h57.36.794,empathy_intonation_perc_control,2024.2.4,Win32,59.95203837,5b26ed8a8ecf3f0001619040,68817205a84113384fffdfe3,688249a8e18436b234c45d06,,,,,,,,,,,,,1,,,,,,,,,,,,,,,,,,,,,,,,,,,,,,,,,,,,,43,canela,,,,,353.977,355.36,1,1,0.838,,0,5,5,42,1,REAL,FAKE,,,,,,,,,,,,,,,,,
,,,,,,,,,5b26ed8a8ecf3f0001619040,Mexican,13 or older,"no, only English or Spanish",no,2025-07-24_10h57.36.794,empathy_intonation_perc_control,2024.2.4,Win32,59.95203837,5b26ed8a8ecf3f0001619040,68817205a84113384fffdfe3,688249a8e18436b234c45d06,,,,,,,,,,,,,0,,,,,,,,,,,,,,,,,,,,,,,,,,,,,,,,,,,,,50,flamida,,,,,355.36,356.743,0,1,0.841,,0,6,6,49,1,REAL,FAKE,,,,,,,,,,,,,,,,,
,,,,,,,,,5b26ed8a8ecf3f0001619040,Mexican,13 or older,"no, only English or Spanish",no,2025-07-24_10h57.36.794,empathy_intonation_perc_control,2024.2.4,Win32,59.95203837,5b26ed8a8ecf3f0001619040,68817205a84113384fffdfe3,688249a8e18436b234c45d06,,,,,,,,,,,,,1,,,,,,,,,,,,,,,,,,,,,,,,,,,,,,,,,,,,,46,martillo,,,,,356.745,358.076,0,0,0.792,,0,7,7,45,1,REAL,FAKE,,,,,,,,,,,,,,,,,
,,,,,,,,,5b26ed8a8ecf3f0001619040,Mexican,13 or older,"no, only English or Spanish",no,2025-07-24_10h57.36.794,empathy_intonation_perc_control,2024.2.4,Win32,59.95203837,5b26ed8a8ecf3f0001619040,68817205a84113384fffdfe3,688249a8e18436b234c45d06,,,,,,,,,,,,,1,,,,,,,,,,,,,,,,,,,,,,,,,,,,,,,,,,,,,91,click the 1 key.,,,,,358.076,359.793,1,1,1.184,,0,8,8,90,1,REAL,FAKE,,,,,,,,,,,,,,,,,
,,,,,,,,,5b26ed8a8ecf3f0001619040,Mexican,13 or older,"no, only English or Spanish",no,2025-07-24_10h57.36.794,empathy_intonation_perc_control,2024.2.4,Win32,59.95203837,5b26ed8a8ecf3f0001619040,68817205a84113384fffdfe3,688249a8e18436b234c45d06,,,,,,,,,,,,,1,,,,,,,,,,,,,,,,,,,,,,,,,,,,,,,,,,,,,61,seda,,,,,359.794,361.576,1,1,1.248,,0,9,9,60,1,REAL,FAKE,,,,,,,,,,,,,,,,,
,,,,,,,,,5b26ed8a8ecf3f0001619040,Mexican,13 or older,"no, only English or Spanish",no,2025-07-24_10h57.36.794,empathy_intonation_perc_control,2024.2.4,Win32,59.95203837,5b26ed8a8ecf3f0001619040,68817205a84113384fffdfe3,688249a8e18436b234c45d06,,,,,,,,,,,,,1,,,,,,,,,,,,,,,,,,,,,,,,,,,,,,,,,,,,,39,torpe,,,,,361.577,362.909,0,0,0.807,,0,10,10,38,1,REAL,FAKE,,,,,,,,,,,,,,,,,
,,,,,,,,,5b26ed8a8ecf3f0001619040,Mexican,13 or older,"no, only English or Spanish",no,2025-07-24_10h57.36.794,empathy_intonation_perc_control,2024.2.4,Win32,59.95203837,5b26ed8a8ecf3f0001619040,68817205a84113384fffdfe3,688249a8e18436b234c45d06,,,,,,,,,,,,,0,,,,,,,,,,,,,,,,,,,,,,,,,,,,,,,,,,,,,23,lampera,,,,,362.909,364.209,1,0,0.782,,0,11,11,22,1,REAL,FAKE,,,,,,,,,,,,,,,,,
,,,,,,,,,5b26ed8a8ecf3f0001619040,Mexican,13 or older,"no, only English or Spanish",no,2025-07-24_10h57.36.794,empathy_intonation_perc_control,2024.2.4,Win32,59.95203837,5b26ed8a8ecf3f0001619040,68817205a84113384fffdfe3,688249a8e18436b234c45d06,,,,,,,,,,,,,1,,,,,,,,,,,,,,,,,,,,,,,,,,,,,,,,,,,,,6,tergiversar,,,,,364.21,365.676,0,0,0.922,,0,12,12,5,1,REAL,FAKE,,,,,,,,,,,,,,,,,
,,,,,,,,,5b26ed8a8ecf3f0001619040,Mexican,13 or older,"no, only English or Spanish",no,2025-07-24_10h57.36.794,empathy_intonation_perc_control,2024.2.4,Win32,59.95203837,5b26ed8a8ecf3f0001619040,68817205a84113384fffdfe3,688249a8e18436b234c45d06,,,,,,,,,,,,,0,,,,,,,,,,,,,,,,,,,,,,,,,,,,,,,,,,,,,16,abracer,,,,,365.676,367.01,1,0,0.805,,0,13,13,15,1,REAL,FAKE,,,,,,,,,,,,,,,,,
,,,,,,,,,5b26ed8a8ecf3f0001619040,Mexican,13 or older,"no, only English or Spanish",no,2025-07-24_10h57.36.794,empathy_intonation_perc_control,2024.2.4,Win32,59.95203837,5b26ed8a8ecf3f0001619040,68817205a84113384fffdfe3,688249a8e18436b234c45d06,,,,,,,,,,,,,0,,,,,,,,,,,,,,,,,,,,,,,,,,,,,,,,,,,,,32,fatacidad,,,,,367.01,368.427,0,1,0.891,,0,14,14,31,1,REAL,FAKE,,,,,,,,,,,,,,,,,
,,,,,,,,,5b26ed8a8ecf3f0001619040,Mexican,13 or older,"no, only English or Spanish",no,2025-07-24_10h57.36.794,empathy_intonation_perc_control,2024.2.4,Win32,59.95203837,5b26ed8a8ecf3f0001619040,68817205a84113384fffdfe3,688249a8e18436b234c45d06,,,,,,,,,,,,,1,,,,,,,,,,,,,,,,,,,,,,,,,,,,,,,,,,,,,3,pulmones,,,,,368.428,369.826,0,0,0.852,,0,15,15,2,1,REAL,FAKE,,,,,,,,,,,,,,,,,
,,,,,,,,,5b26ed8a8ecf3f0001619040,Mexican,13 or older,"no, only English or Spanish",no,2025-07-24_10h57.36.794,empathy_intonation_perc_control,2024.2.4,Win32,59.95203837,5b26ed8a8ecf3f0001619040,68817205a84113384fffdfe3,688249a8e18436b234c45d06,,,,,,,,,,,,,1,,,,,,,,,,,,,,,,,,,,,,,,,,,,,,,,,,,,,40,alfombra,,,,,369.827,371.042,1,1,0.693,,0,16,16,39,1,REAL,FAKE,,,,,,,,,,,,,,,,,
,,,,,,,,,5b26ed8a8ecf3f0001619040,Mexican,13 or older,"no, only English or Spanish",no,2025-07-24_10h57.36.794,empathy_intonation_perc_control,2024.2.4,Win32,59.95203837,5b26ed8a8ecf3f0001619040,68817205a84113384fffdfe3,688249a8e18436b234c45d06,,,,,,,,,,,,,1,,,,,,,,,,,,,,,,,,,,,,,,,,,,,,,,,,,,,22,lacayo,,,,,371.043,372.309,0,0,0.718,,0,17,17,21,1,REAL,FAKE,,,,,,,,,,,,,,,,,
,,,,,,,,,5b26ed8a8ecf3f0001619040,Mexican,13 or older,"no, only English or Spanish",no,2025-07-24_10h57.36.794,empathy_intonation_perc_control,2024.2.4,Win32,59.95203837,5b26ed8a8ecf3f0001619040,68817205a84113384fffdfe3,688249a8e18436b234c45d06,,,,,,,,,,,,,0,,,,,,,,,,,,,,,,,,,,,,,,,,,,,,,,,,,,,35,rompido,,,,,372.311,373.809,1,0,0.957,,0,18,18,34,1,REAL,FAKE,,,,,,,,,,,,,,,,,
,,,,,,,,,5b26ed8a8ecf3f0001619040,Mexican,13 or older,"no, only English or Spanish",no,2025-07-24_10h57.36.794,empathy_intonation_perc_control,2024.2.4,Win32,59.95203837,5b26ed8a8ecf3f0001619040,68817205a84113384fffdfe3,688249a8e18436b234c45d06,,,,,,,,,,,,,1,,,,,,,,,,,,,,,,,,,,,,,,,,,,,,,,,,,,,34,aviso,,,,,373.81,375.409,1,1,1.067,,0,19,19,33,1,REAL,FAKE,,,,,,,,,,,,,,,,,
,,,,,,,,,5b26ed8a8ecf3f0001619040,Mexican,13 or older,"no, only English or Spanish",no,2025-07-24_10h57.36.794,empathy_intonation_perc_control,2024.2.4,Win32,59.95203837,5b26ed8a8ecf3f0001619040,68817205a84113384fffdfe3,688249a8e18436b234c45d06,,,,,,,,,,,,,1,,,,,,,,,,,,,,,,,,,,,,,,,,,,,,,,,,,,,76,atar,,,,,375.41,377.11,1,1,1.18,,0,20,20,75,1,REAL,FAKE,,,,,,,,,,,,,,,,,
,,,,,,,,,5b26ed8a8ecf3f0001619040,Mexican,13 or older,"no, only English or Spanish",no,2025-07-24_10h57.36.794,empathy_intonation_perc_control,2024.2.4,Win32,59.95203837,5b26ed8a8ecf3f0001619040,68817205a84113384fffdfe3,688249a8e18436b234c45d06,,,,,,,,,,,,,0,,,,,,,,,,,,,,,,,,,,,,,,,,,,,,,,,,,,,92,click the 0 key.,,,,,377.11,378.375,0,1,0.732,,0,21,21,91,1,REAL,FAKE,,,,,,,,,,,,,,,,,
,,,,,,,,,5b26ed8a8ecf3f0001619040,Mexican,13 or older,"no, only English or Spanish",no,2025-07-24_10h57.36.794,empathy_intonation_perc_control,2024.2.4,Win32,59.95203837,5b26ed8a8ecf3f0001619040,68817205a84113384fffdfe3,688249a8e18436b234c45d06,,,,,,,,,,,,,0,,,,,,,,,,,,,,,,,,,,,,,,,,,,,,,,,,,,,72,pemición,,,,,378.376,379.842,0,1,0.943,,0,22,22,71,1,REAL,FAKE,,,,,,,,,,,,,,,,,
,,,,,,,,,5b26ed8a8ecf3f0001619040,Mexican,13 or older,"no, only English or Spanish",no,2025-07-24_10h57.36.794,empathy_intonation_perc_control,2024.2.4,Win32,59.95203837,5b26ed8a8ecf3f0001619040,68817205a84113384fffdfe3,688249a8e18436b234c45d06,,,,,,,,,,,,,0,,,,,,,,,,,,,,,,,,,,,,,,,,,,,,,,,,,,,70,temblo,,,,,379.843,381.275,0,1,0.908,,0,23,23,69,1,REAL,FAKE,,,,,,,,,,,,,,,,,
,,,,,,,,,5b26ed8a8ecf3f0001619040,Mexican,13 or older,"no, only English or Spanish",no,2025-07-24_10h57.36.794,empathy_intonation_perc_control,2024.2.4,Win32,59.95203837,5b26ed8a8ecf3f0001619040,68817205a84113384fffdfe3,688249a8e18436b234c45d06,,,,,,,,,,,,,1,,,,,,,,,,,,,,,,,,,,,,,,,,,,,,,,,,,,,24,látigo,,,,,381.276,382.626,0,0,0.819,,0,24,24,23,1,REAL,FAKE,,,,,,,,,,,,,,,,,
,,,,,,,,,5b26ed8a8ecf3f0001619040,Mexican,13 or older,"no, only English or Spanish",no,2025-07-24_10h57.36.794,empathy_intonation_perc_control,2024.2.4,Win32,59.95203837,5b26ed8a8ecf3f0001619040,68817205a84113384fffdfe3,688249a8e18436b234c45d06,,,,,,,,,,,,,0,,,,,,,,,,,,,,,,,,,,,,,,,,,,,,,,,,,,,84,escuto,,,,,382.626,384.393,0,1,1.231,,0,25,25,83,1,REAL,FAKE,,,,,,,,,,,,,,,,,
,,,,,,,,,5b26ed8a8ecf3f0001619040,Mexican,13 or older,"no, only English or Spanish",no,2025-07-24_10h57.36.794,empathy_intonation_perc_control,2024.2.4,Win32,59.95203837,5b26ed8a8ecf3f0001619040,68817205a84113384fffdfe3,688249a8e18436b234c45d06,,,,,,,,,,,,,1,,,,,,,,,,,,,,,,,,,,,,,,,,,,,,,,,,,,,36,loro,,,,,384.393,385.759,0,0,0.833,,0,26,26,35,1,REAL,FAKE,,,,,,,,,,,,,,,,,
,,,,,,,,,5b26ed8a8ecf3f0001619040,Mexican,13 or older,"no, only English or Spanish",no,2025-07-24_10h57.36.794,empathy_intonation_perc_control,2024.2.4,Win32,59.95203837,5b26ed8a8ecf3f0001619040,68817205a84113384fffdfe3,688249a8e18436b234c45d06,,,,,,,,,,,,,1,,,,,,,,,,,,,,,,,,,,,,,,,,,,,,,,,,,,,45,jilguero,,,,,385.759,387.126,0,0,0.838,,0,27,27,44,1,REAL,FAKE,,,,,,,,,,,,,,,,,
,,,,,,,,,5b26ed8a8ecf3f0001619040,Mexican,13 or older,"no, only English or Spanish",no,2025-07-24_10h57.36.794,empathy_intonation_perc_control,2024.2.4,Win32,59.95203837,5b26ed8a8ecf3f0001619040,68817205a84113384fffdfe3,688249a8e18436b234c45d06,,,,,,,,,,,,,1,,,,,,,,,,,,,,,,,,,,,,,,,,,,,,,,,,,,,59,besar,,,,,387.126,388.409,1,1,0.743,,0,28,28,58,1,REAL,FAKE,,,,,,,,,,,,,,,,,
,,,,,,,,,5b26ed8a8ecf3f0001619040,Mexican,13 or older,"no, only English or Spanish",no,2025-07-24_10h57.36.794,empathy_intonation_perc_control,2024.2.4,Win32,59.95203837,5b26ed8a8ecf3f0001619040,68817205a84113384fffdfe3,688249a8e18436b234c45d06,,,,,,,,,,,,,0,,,,,,,,,,,,,,,,,,,,,,,,,,,,,,,,,,,,,10,antar,,,,,388.409,389.942,0,1,1.016,,0,29,29,9,1,REAL,FAKE,,,,,,,,,,,,,,,,,
,,,,,,,,,5b26ed8a8ecf3f0001619040,Mexican,13 or older,"no, only English or Spanish",no,2025-07-24_10h57.36.794,empathy_intonation_perc_control,2024.2.4,Win32,59.95203837,5b26ed8a8ecf3f0001619040,68817205a84113384fffdfe3,688249a8e18436b234c45d06,,,,,,,,,,,,,1,,,,,,,,,,,,,,,,,,,,,,,,,,,,,,,,,,,,,48,ladrón,,,,,389.944,391.442,0,0,0.954,,0,30,30,47,1,REAL,FAKE,,,,,,,,,,,,,,,,,
,,,,,,,,,5b26ed8a8ecf3f0001619040,Mexican,13 or older,"no, only English or Spanish",no,2025-07-24_10h57.36.794,empathy_intonation_perc_control,2024.2.4,Win32,59.95203837,5b26ed8a8ecf3f0001619040,68817205a84113384fffdfe3,688249a8e18436b234c45d06,,,,,,,,,,,,,1,,,,,,,,,,,,,,,,,,,,,,,,,,,,,,,,,,,,,65,bizcocho,,,,,391.443,393.126,0,0,1.153,,0,31,31,64,1,REAL,FAKE,,,,,,,,,,,,,,,,,
,,,,,,,,,5b26ed8a8ecf3f0001619040,Mexican,13 or older,"no, only English or Spanish",no,2025-07-24_10h57.36.794,empathy_intonation_perc_control,2024.2.4,Win32,59.95203837,5b26ed8a8ecf3f0001619040,68817205a84113384fffdfe3,688249a8e18436b234c45d06,,,,,,,,,,,,,1,,,,,,,,,,,,,,,,,,,,,,,,,,,,,,,,,,,,,62,flaco,,,,,393.126,394.575,1,1,0.924,,0,32,32,61,1,REAL,FAKE,,,,,,,,,,,,,,,,,
,,,,,,,,,5b26ed8a8ecf3f0001619040,Mexican,13 or older,"no, only English or Spanish",no,2025-07-24_10h57.36.794,empathy_intonation_perc_control,2024.2.4,Win32,59.95203837,5b26ed8a8ecf3f0001619040,68817205a84113384fffdfe3,688249a8e18436b234c45d06,,,,,,,,,,,,,1,,,,,,,,,,,,,,,,,,,,,,,,,,,,,,,,,,,,,15,regar,,,,,394.577,396.259,0,0,1.166,,0,33,33,14,1,REAL,FAKE,,,,,,,,,,,,,,,,,
,,,,,,,,,5b26ed8a8ecf3f0001619040,Mexican,13 or older,"no, only English or Spanish",no,2025-07-24_10h57.36.794,empathy_intonation_perc_control,2024.2.4,Win32,59.95203837,5b26ed8a8ecf3f0001619040,68817205a84113384fffdfe3,688249a8e18436b234c45d06,,,,,,,,,,,,,1,,,,,,,,,,,,,,,,,,,,,,,,,,,,,,,,,,,,,69,engatusar,,,,,396.259,397.958,0,0,1.164,,0,34,34,68,1,REAL,FAKE,,,,,,,,,,,,,,,,,
,,,,,,,,,5b26ed8a8ecf3f0001619040,Mexican,13 or older,"no, only English or Spanish",no,2025-07-24_10h57.36.794,empathy_intonation_perc_control,2024.2.4,Win32,59.95203837,5b26ed8a8ecf3f0001619040,68817205a84113384fffdfe3,688249a8e18436b234c45d06,,,,,,,,,,,,,1,,,,,,,,,,,,,,,,,,,,,,,,,,,,,,,,,,,,,57,tacaño,,,,,397.959,399.392,1,1,0.903,,0,35,35,56,1,REAL,FAKE,,,,,,,,,,,,,,,,,
,,,,,,,,,5b26ed8a8ecf3f0001619040,Mexican,13 or older,"no, only English or Spanish",no,2025-07-24_10h57.36.794,empathy_intonation_perc_control,2024.2.4,Win32,59.95203837,5b26ed8a8ecf3f0001619040,68817205a84113384fffdfe3,688249a8e18436b234c45d06,,,,,,,,,,,,,0,,,,,,,,,,,,,,,,,,,,,,,,,,,,,,,,,,,,,8,cadeña,,,,,399.392,400.825,1,0,0.911,,0,36,36,7,1,REAL,FAKE,,,,,,,,,,,,,,,,,
,,,,,,,,,5b26ed8a8ecf3f0001619040,Mexican,13 or older,"no, only English or Spanish",no,2025-07-24_10h57.36.794,empathy_intonation_perc_control,2024.2.4,Win32,59.95203837,5b26ed8a8ecf3f0001619040,68817205a84113384fffdfe3,688249a8e18436b234c45d06,,,,,,,,,,,,,1,,,,,,,,,,,,,,,,,,,,,,,,,,,,,,,,,,,,,71,polvoriento,,,,,400.826,402.309,0,0,0.964,,0,37,37,70,1,REAL,FAKE,,,,,,,,,,,,,,,,,
,,,,,,,,,5b26ed8a8ecf3f0001619040,Mexican,13 or older,"no, only English or Spanish",no,2025-07-24_10h57.36.794,empathy_intonation_perc_control,2024.2.4,Win32,59.95203837,5b26ed8a8ecf3f0001619040,68817205a84113384fffdfe3,688249a8e18436b234c45d06,,,,,,,,,,,,,1,,,,,,,,,,,,,,,,,,,,,,,,,,,,,,,,,,,,,88,acantilado,,,,,402.309,403.908,0,0,1.068,,0,38,38,87,1,REAL,FAKE,,,,,,,,,,,,,,,,,
,,,,,,,,,5b26ed8a8ecf3f0001619040,Mexican,13 or older,"no, only English or Spanish",no,2025-07-24_10h57.36.794,empathy_intonation_perc_control,2024.2.4,Win32,59.95203837,5b26ed8a8ecf3f0001619040,68817205a84113384fffdfe3,688249a8e18436b234c45d06,,,,,,,,,,,,,1,,,,,,,,,,,,,,,,,,,,,,,,,,,,,,,,,,,,,28,merodear,,,,,403.91,405.358,0,0,0.921,,0,39,39,27,1,REAL,FAKE,,,,,,,,,,,,,,,,,
,,,,,,,,,5b26ed8a8ecf3f0001619040,Mexican,13 or older,"no, only English or Spanish",no,2025-07-24_10h57.36.794,empathy_intonation_perc_control,2024.2.4,Win32,59.95203837,5b26ed8a8ecf3f0001619040,68817205a84113384fffdfe3,688249a8e18436b234c45d06,,,,,,,,,,,,,1,,,,,,,,,,,,,,,,,,,,,,,,,,,,,,,,,,,,,14,yunque,,,,,405.359,406.875,1,1,0.985,,0,40,40,13,1,REAL,FAKE,,,,,,,,,,,,,,,,,
,,,,,,,,,5b26ed8a8ecf3f0001619040,Mexican,13 or older,"no, only English or Spanish",no,2025-07-24_10h57.36.794,empathy_intonation_perc_control,2024.2.4,Win32,59.95203837,5b26ed8a8ecf3f0001619040,68817205a84113384fffdfe3,688249a8e18436b234c45d06,,,,,,,,,,,,,1,,,,,,,,,,,,,,,,,,,,,,,,,,,,,,,,,,,,,25,bisagra,,,,,406.876,408.108,0,0,0.699,,0,41,41,24,1,REAL,FAKE,,,,,,,,,,,,,,,,,
,,,,,,,,,5b26ed8a8ecf3f0001619040,Mexican,13 or older,"no, only English or Spanish",no,2025-07-24_10h57.36.794,empathy_intonation_perc_control,2024.2.4,Win32,59.95203837,5b26ed8a8ecf3f0001619040,68817205a84113384fffdfe3,688249a8e18436b234c45d06,,,,,,,,,,,,,0,,,,,,,,,,,,,,,,,,,,,,,,,,,,,,,,,,,,,66,hacido,,,,,408.109,409.558,0,1,0.927,,0,42,42,65,1,REAL,FAKE,,,,,,,,,,,,,,,,,
,,,,,,,,,5b26ed8a8ecf3f0001619040,Mexican,13 or older,"no, only English or Spanish",no,2025-07-24_10h57.36.794,empathy_intonation_perc_control,2024.2.4,Win32,59.95203837,5b26ed8a8ecf3f0001619040,68817205a84113384fffdfe3,688249a8e18436b234c45d06,,,,,,,,,,,,,0,,,,,,,,,,,,,,,,,,,,,,,,,,,,,,,,,,,,,17,floroso,,,,,409.559,411.092,1,0,1.016,,0,43,43,16,1,REAL,FAKE,,,,,,,,,,,,,,,,,
,,,,,,,,,5b26ed8a8ecf3f0001619040,Mexican,13 or older,"no, only English or Spanish",no,2025-07-24_10h57.36.794,empathy_intonation_perc_control,2024.2.4,Win32,59.95203837,5b26ed8a8ecf3f0001619040,68817205a84113384fffdfe3,688249a8e18436b234c45d06,,,,,,,,,,,,,0,,,,,,,,,,,,,,,,,,,,,,,,,,,,,,,,,,,,,18,arsa,,,,,411.093,412.575,0,1,0.968,,0,44,44,17,1,REAL,FAKE,,,,,,,,,,,,,,,,,
,,,,,,,,,5b26ed8a8ecf3f0001619040,Mexican,13 or older,"no, only English or Spanish",no,2025-07-24_10h57.36.794,empathy_intonation_perc_control,2024.2.4,Win32,59.95203837,5b26ed8a8ecf3f0001619040,68817205a84113384fffdfe3,688249a8e18436b234c45d06,,,,,,,,,,,,,0,,,,,,,,,,,,,,,,,,,,,,,,,,,,,,,,,,,,,21,capillo,,,,,412.576,413.909,1,0,0.797,,0,45,45,20,1,REAL,FAKE,,,,,,,,,,,,,,,,,
,,,,,,,,,5b26ed8a8ecf3f0001619040,Mexican,13 or older,"no, only English or Spanish",no,2025-07-24_10h57.36.794,empathy_intonation_perc_control,2024.2.4,Win32,59.95203837,5b26ed8a8ecf3f0001619040,68817205a84113384fffdfe3,688249a8e18436b234c45d06,,,,,,,,,,,,,0,,,,,,,,,,,,,,,,,,,,,,,,,,,,,,,,,,,,,47,cartinar,,,,,413.909,415.542,0,1,1.084,,0,46,46,46,1,REAL,FAKE,,,,,,,,,,,,,,,,,
,,,,,,,,,5b26ed8a8ecf3f0001619040,Mexican,13 or older,"no, only English or Spanish",no,2025-07-24_10h57.36.794,empathy_intonation_perc_control,2024.2.4,Win32,59.95203837,5b26ed8a8ecf3f0001619040,68817205a84113384fffdfe3,688249a8e18436b234c45d06,,,,,,,,,,,,,1,,,,,,,,,,,,,,,,,,,,,,,,,,,,,,,,,,,,,81,pozo,,,,,415.543,416.892,0,0,0.818,,0,47,47,80,1,REAL,FAKE,,,,,,,,,,,,,,,,,
,,,,,,,,,5b26ed8a8ecf3f0001619040,Mexican,13 or older,"no, only English or Spanish",no,2025-07-24_10h57.36.794,empathy_intonation_perc_control,2024.2.4,Win32,59.95203837,5b26ed8a8ecf3f0001619040,68817205a84113384fffdfe3,688249a8e18436b234c45d06,,,,,,,,,,,,,1,,,,,,,,,,,,,,,,,,,,,,,,,,,,,,,,,,,,,44,cuchara,,,,,416.893,418.075,1,1,0.657,,0,48,48,43,1,REAL,FAKE,,,,,,,,,,,,,,,,,
,,,,,,,,,5b26ed8a8ecf3f0001619040,Mexican,13 or older,"no, only English or Spanish",no,2025-07-24_10h57.36.794,empathy_intonation_perc_control,2024.2.4,Win32,59.95203837,5b26ed8a8ecf3f0001619040,68817205a84113384fffdfe3,688249a8e18436b234c45d06,,,,,,,,,,,,,1,,,,,,,,,,,,,,,,,,,,,,,,,,,,,,,,,,,,,90,clavel,,,,,418.076,419.291,0,0,0.681,,0,49,49,89,1,REAL,FAKE,,,,,,,,,,,,,,,,,
,,,,,,,,,5b26ed8a8ecf3f0001619040,Mexican,13 or older,"no, only English or Spanish",no,2025-07-24_10h57.36.794,empathy_intonation_perc_control,2024.2.4,Win32,59.95203837,5b26ed8a8ecf3f0001619040,68817205a84113384fffdfe3,688249a8e18436b234c45d06,,,,,,,,,,,,,1,,,,,,,,,,,,,,,,,,,,,,,,,,,,,,,,,,,,,11,cenefa,,,,,419.292,420.608,0,0,0.787,,0,50,50,10,1,REAL,FAKE,,,,,,,,,,,,,,,,,
,,,,,,,,,5b26ed8a8ecf3f0001619040,Mexican,13 or older,"no, only English or Spanish",no,2025-07-24_10h57.36.794,empathy_intonation_perc_control,2024.2.4,Win32,59.95203837,5b26ed8a8ecf3f0001619040,68817205a84113384fffdfe3,688249a8e18436b234c45d06,,,,,,,,,,,,,1,,,,,,,,,,,,,,,,,,,,,,,,,,,,,,,,,,,,,78,frondoso,,,,,420.609,421.925,0,0,0.786,,0,51,51,77,1,REAL,FAKE,,,,,,,,,,,,,,,,,
,,,,,,,,,5b26ed8a8ecf3f0001619040,Mexican,13 or older,"no, only English or Spanish",no,2025-07-24_10h57.36.794,empathy_intonation_perc_control,2024.2.4,Win32,59.95203837,5b26ed8a8ecf3f0001619040,68817205a84113384fffdfe3,688249a8e18436b234c45d06,,,,,,,,,,,,,0,,,,,,,,,,,,,,,,,,,,,,,,,,,,,,,,,,,,,19,brecedad,,,,,421.925,423.392,0,1,0.936,,0,52,52,18,1,REAL,FAKE,,,,,,,,,,,,,,,,,
,,,,,,,,,5b26ed8a8ecf3f0001619040,Mexican,13 or older,"no, only English or Spanish",no,2025-07-24_10h57.36.794,empathy_intonation_perc_control,2024.2.4,Win32,59.95203837,5b26ed8a8ecf3f0001619040,68817205a84113384fffdfe3,688249a8e18436b234c45d06,,,,,,,,,,,,,0,,,,,,,,,,,,,,,,,,,,,,,,,,,,,,,,,,,,,4,batillón,,,,,423.393,424.858,1,0,0.941,,0,53,53,3,1,REAL,FAKE,,,,,,,,,,,,,,,,,
,,,,,,,,,5b26ed8a8ecf3f0001619040,Mexican,13 or older,"no, only English or Spanish",no,2025-07-24_10h57.36.794,empathy_intonation_perc_control,2024.2.4,Win32,59.95203837,5b26ed8a8ecf3f0001619040,68817205a84113384fffdfe3,688249a8e18436b234c45d06,,,,,,,,,,,,,0,,,,,,,,,,,,,,,,,,,,,,,,,,,,,,,,,,,,,74,cintro,,,,,424.859,426.309,1,0,0.917,,0,54,54,73,1,REAL,FAKE,,,,,,,,,,,,,,,,,
,,,,,,,,,5b26ed8a8ecf3f0001619040,Mexican,13 or older,"no, only English or Spanish",no,2025-07-24_10h57.36.794,empathy_intonation_perc_control,2024.2.4,Win32,59.95203837,5b26ed8a8ecf3f0001619040,68817205a84113384fffdfe3,688249a8e18436b234c45d06,,,,,,,,,,,,,1,,,,,,,,,,,,,,,,,,,,,,,,,,,,,,,,,,,,,26,secuestro,,,,,426.309,428.292,0,0,1.452,,0,55,55,25,1,REAL,FAKE,,,,,,,,,,,,,,,,,
,,,,,,,,,5b26ed8a8ecf3f0001619040,Mexican,13 or older,"no, only English or Spanish",no,2025-07-24_10h57.36.794,empathy_intonation_perc_control,2024.2.4,Win32,59.95203837,5b26ed8a8ecf3f0001619040,68817205a84113384fffdfe3,688249a8e18436b234c45d06,,,,,,,,,,,,,1,,,,,,,,,,,,,,,,,,,,,,,,,,,,,,,,,,,,,83,guante,,,,,428.293,429.775,1,1,0.957,,0,56,56,82,1,REAL,FAKE,,,,,,,,,,,,,,,,,
,,,,,,,,,5b26ed8a8ecf3f0001619040,Mexican,13 or older,"no, only English or Spanish",no,2025-07-24_10h57.36.794,empathy_intonation_perc_control,2024.2.4,Win32,59.95203837,5b26ed8a8ecf3f0001619040,68817205a84113384fffdfe3,688249a8e18436b234c45d06,,,,,,,,,,,,,1,,,,,,,,,,,,,,,,,,,,,,,,,,,,,,,,,,,,,54,fomentar,,,,,429.776,431.026,0,0,0.713,,0,57,57,53,1,REAL,FAKE,,,,,,,,,,,,,,,,,
,,,,,,,,,5b26ed8a8ecf3f0001619040,Mexican,13 or older,"no, only English or Spanish",no,2025-07-24_10h57.36.794,empathy_intonation_perc_control,2024.2.4,Win32,59.95203837,5b26ed8a8ecf3f0001619040,68817205a84113384fffdfe3,688249a8e18436b234c45d06,,,,,,,,,,,,,0,,,,,,,,,,,,,,,,,,,,,,,,,,,,,,,,,,,,,30,alardio,,,,,431.026,432.458,0,1,0.903,,0,58,58,29,1,REAL,FAKE,,,,,,,,,,,,,,,,,
,,,,,,,,,5b26ed8a8ecf3f0001619040,Mexican,13 or older,"no, only English or Spanish",no,2025-07-24_10h57.36.794,empathy_intonation_perc_control,2024.2.4,Win32,59.95203837,5b26ed8a8ecf3f0001619040,68817205a84113384fffdfe3,688249a8e18436b234c45d06,,,,,,,,,,,,,1,,,,,,,,,,,,,,,,,,,,,,,,,,,,,,,,,,,,,56,musgo,,,,,432.459,433.741,0,0,0.735,,0,59,59,55,1,REAL,FAKE,,,,,,,,,,,,,,,,,
,,,,,,,,,5b26ed8a8ecf3f0001619040,Mexican,13 or older,"no, only English or Spanish",no,2025-07-24_10h57.36.794,empathy_intonation_perc_control,2024.2.4,Win32,59.95203837,5b26ed8a8ecf3f0001619040,68817205a84113384fffdfe3,688249a8e18436b234c45d06,,,,,,,,,,,,,1,,,,,,,,,,,,,,,,,,,,,,,,,,,,,,,,,,,,,7,pésimo,,,,,433.742,435.241,0,0,0.954,,0,60,60,6,1,REAL,FAKE,,,,,,,,,,,,,,,,,
,,,,,,,,,5b26ed8a8ecf3f0001619040,Mexican,13 or older,"no, only English or Spanish",no,2025-07-24_10h57.36.794,empathy_intonation_perc_control,2024.2.4,Win32,59.95203837,5b26ed8a8ecf3f0001619040,68817205a84113384fffdfe3,688249a8e18436b234c45d06,,,,,,,,,,,,,0,,,,,,,,,,,,,,,,,,,,,,,,,,,,,,,,,,,,,1,terzo,,,,,435.243,436.658,0,1,0.887,,0,61,61,0,1,REAL,FAKE,,,,,,,,,,,,,,,,,
,,,,,,,,,5b26ed8a8ecf3f0001619040,Mexican,13 or older,"no, only English or Spanish",no,2025-07-24_10h57.36.794,empathy_intonation_perc_control,2024.2.4,Win32,59.95203837,5b26ed8a8ecf3f0001619040,68817205a84113384fffdfe3,688249a8e18436b234c45d06,,,,,,,,,,,,,1,,,,,,,,,,,,,,,,,,,,,,,,,,,,,,,,,,,,,64,orgulloso,,,,,436.658,438.508,1,1,1.327,,0,62,62,63,1,REAL,FAKE,,,,,,,,,,,,,,,,,
,,,,,,,,,5b26ed8a8ecf3f0001619040,Mexican,13 or older,"no, only English or Spanish",no,2025-07-24_10h57.36.794,empathy_intonation_perc_control,2024.2.4,Win32,59.95203837,5b26ed8a8ecf3f0001619040,68817205a84113384fffdfe3,688249a8e18436b234c45d06,,,,,,,,,,,,,1,,,,,,,,,,,,,,,,,,,,,,,,,,,,,,,,,,,,,86,barato,,,,,438.509,439.841,1,1,0.787,,0,63,63,85,1,REAL,FAKE,,,,,,,,,,,,,,,,,
,,,,,,,,,5b26ed8a8ecf3f0001619040,Mexican,13 or older,"no, only English or Spanish",no,2025-07-24_10h57.36.794,empathy_intonation_perc_control,2024.2.4,Win32,59.95203837,5b26ed8a8ecf3f0001619040,68817205a84113384fffdfe3,688249a8e18436b234c45d06,,,,,,,,,,,,,0,,,,,,,,,,,,,,,,,,,,,,,,,,,,,,,,,,,,,33,pauca,,,,,439.842,441.275,0,1,0.914,,0,64,64,32,1,REAL,FAKE,,,,,,,,,,,,,,,,,
,,,,,,,,,5b26ed8a8ecf3f0001619040,Mexican,13 or older,"no, only English or Spanish",no,2025-07-24_10h57.36.794,empathy_intonation_perc_control,2024.2.4,Win32,59.95203837,5b26ed8a8ecf3f0001619040,68817205a84113384fffdfe3,688249a8e18436b234c45d06,,,,,,,,,,,,,1,,,,,,,,,,,,,,,,,,,,,,,,,,,,,,,,,,,,,85,laúd,,,,,441.275,442.708,0,0,0.895,,0,65,65,84,1,REAL,FAKE,,,,,,,,,,,,,,,,,
,,,,,,,,,5b26ed8a8ecf3f0001619040,Mexican,13 or older,"no, only English or Spanish",no,2025-07-24_10h57.36.794,empathy_intonation_perc_control,2024.2.4,Win32,59.95203837,5b26ed8a8ecf3f0001619040,68817205a84113384fffdfe3,688249a8e18436b234c45d06,,,,,,,,,,,,,1,,,,,,,,,,,,,,,,,,,,,,,,,,,,,,,,,,,,,13,helar,,,,,442.709,444.092,0,0,0.867,,0,66,66,12,1,REAL,FAKE,,,,,,,,,,,,,,,,,
,,,,,,,,,5b26ed8a8ecf3f0001619040,Mexican,13 or older,"no, only English or Spanish",no,2025-07-24_10h57.36.794,empathy_intonation_perc_control,2024.2.4,Win32,59.95203837,5b26ed8a8ecf3f0001619040,68817205a84113384fffdfe3,688249a8e18436b234c45d06,,,,,,,,,,,,,0,,,,,,,,,,,,,,,,,,,,,,,,,,,,,,,,,,,,,29,decar,,,,,444.093,445.741,0,1,1.127,,0,67,67,28,1,REAL,FAKE,,,,,,,,,,,,,,,,,
,,,,,,,,,5b26ed8a8ecf3f0001619040,Mexican,13 or older,"no, only English or Spanish",no,2025-07-24_10h57.36.794,empathy_intonation_perc_control,2024.2.4,Win32,59.95203837,5b26ed8a8ecf3f0001619040,68817205a84113384fffdfe3,688249a8e18436b234c45d06,,,,,,,,,,,,,0,,,,,,,,,,,,,,,,,,,,,,,,,,,,,,,,,,,,,42,cadallo,,,,,445.742,447.758,0,1,1.486,,0,68,68,41,1,REAL,FAKE,,,,,,,,,,,,,,,,,
,,,,,,,,,5b26ed8a8ecf3f0001619040,Mexican,13 or older,"no, only English or Spanish",no,2025-07-24_10h57.36.794,empathy_intonation_perc_control,2024.2.4,Win32,59.95203837,5b26ed8a8ecf3f0001619040,68817205a84113384fffdfe3,688249a8e18436b234c45d06,,,,,,,,,,,,,0,,,,,,,,,,,,,,,,,,,,,,,,,,,,,,,,,,,,,63,esposante,,,,,447.759,449.258,0,1,0.954,,0,69,69,62,1,REAL,FAKE,,,,,,,,,,,,,,,,,
,,,,,,,,,5b26ed8a8ecf3f0001619040,Mexican,13 or older,"no, only English or Spanish",no,2025-07-24_10h57.36.794,empathy_intonation_perc_control,2024.2.4,Win32,59.95203837,5b26ed8a8ecf3f0001619040,68817205a84113384fffdfe3,688249a8e18436b234c45d06,,,,,,,,,,,,,0,,,,,,,,,,,,,,,,,,,,,,,,,,,,,,,,,,,,,58,plaudir,,,,,449.259,450.859,1,0,1.064,,0,70,70,57,1,REAL,FAKE,,,,,,,,,,,,,,,,,
,,,,,,,,,5b26ed8a8ecf3f0001619040,Mexican,13 or older,"no, only English or Spanish",no,2025-07-24_10h57.36.794,empathy_intonation_perc_control,2024.2.4,Win32,59.95203837,5b26ed8a8ecf3f0001619040,68817205a84113384fffdfe3,688249a8e18436b234c45d06,,,,,,,,,,,,,1,,,,,,,,,,,,,,,,,,,,,,,,,,,,,,,,,,,,,73,hervidor,,,,,450.86,452.174,0,0,0.774,,0,71,71,72,1,REAL,FAKE,,,,,,,,,,,,,,,,,
,,,,,,,,,5b26ed8a8ecf3f0001619040,Mexican,13 or older,"no, only English or Spanish",no,2025-07-24_10h57.36.794,empathy_intonation_perc_control,2024.2.4,Win32,59.95203837,5b26ed8a8ecf3f0001619040,68817205a84113384fffdfe3,688249a8e18436b234c45d06,,,,,,,,,,,,,0,,,,,,,,,,,,,,,,,,,,,,,,,,,,,,,,,,,,,82,empirador,,,,,452.175,453.858,1,0,1.168,,0,72,72,81,1,REAL,FAKE,,,,,,,,,,,,,,,,,
,,,,,,,,,5b26ed8a8ecf3f0001619040,Mexican,13 or older,"no, only English or Spanish",no,2025-07-24_10h57.36.794,empathy_intonation_perc_control,2024.2.4,Win32,59.95203837,5b26ed8a8ecf3f0001619040,68817205a84113384fffdfe3,688249a8e18436b234c45d06,,,,,,,,,,,,,1,,,,,,,,,,,,,,,,,,,,,,,,,,,,,,,,,,,,,60,matar,,,,,453.859,455.342,1,1,0.951,,0,73,73,59,1,REAL,FAKE,,,,,,,,,,,,,,,,,
,,,,,,,,,5b26ed8a8ecf3f0001619040,Mexican,13 or older,"no, only English or Spanish",no,2025-07-24_10h57.36.794,empathy_intonation_perc_control,2024.2.4,Win32,59.95203837,5b26ed8a8ecf3f0001619040,68817205a84113384fffdfe3,688249a8e18436b234c45d06,,,,,,,,,,,,,1,,,,,,,,,,,,,,,,,,,,,,,,,,,,,,,,,,,,,12,asesinato,,,,,455.343,457.142,0,0,1.25,,0,74,74,11,1,REAL,FAKE,,,,,,,,,,,,,,,,,
,,,,,,,,,5b26ed8a8ecf3f0001619040,Mexican,13 or older,"no, only English or Spanish",no,2025-07-24_10h57.36.794,empathy_intonation_perc_control,2024.2.4,Win32,59.95203837,5b26ed8a8ecf3f0001619040,68817205a84113384fffdfe3,688249a8e18436b234c45d06,,,,,,,,,,,,,1,,,,,,,,,,,,,,,,,,,,,,,,,,,,,,,,,,,,,68,alegre,,,,,457.145,458.408,1,1,0.725,,0,75,75,67,1,REAL,FAKE,,,,,,,,,,,,,,,,,
,,,,,,,,,5b26ed8a8ecf3f0001619040,Mexican,13 or older,"no, only English or Spanish",no,2025-07-24_10h57.36.794,empathy_intonation_perc_control,2024.2.4,Win32,59.95203837,5b26ed8a8ecf3f0001619040,68817205a84113384fffdfe3,688249a8e18436b234c45d06,,,,,,,,,,,,,1,,,,,,,,,,,,,,,,,,,,,,,,,,,,,,,,,,,,,5,zapato,,,,,458.408,459.608,1,1,0.681,,0,76,76,4,1,REAL,FAKE,,,,,,,,,,,,,,,,,
,,,,,,,,,5b26ed8a8ecf3f0001619040,Mexican,13 or older,"no, only English or Spanish",no,2025-07-24_10h57.36.794,empathy_intonation_perc_control,2024.2.4,Win32,59.95203837,5b26ed8a8ecf3f0001619040,68817205a84113384fffdfe3,688249a8e18436b234c45d06,,,,,,,,,,,,,1,,,,,,,,,,,,,,,,,,,,,,,,,,,,,,,,,,,,,80,hormiga,,,,,459.608,460.974,0,0,0.845,,0,77,77,79,1,REAL,FAKE,,,,,,,,,,,,,,,,,
,,,,,,,,,5b26ed8a8ecf3f0001619040,Mexican,13 or older,"no, only English or Spanish",no,2025-07-24_10h57.36.794,empathy_intonation_perc_control,2024.2.4,Win32,59.95203837,5b26ed8a8ecf3f0001619040,68817205a84113384fffdfe3,688249a8e18436b234c45d06,,,,,,,,,,,,,1,,,,,,,,,,,,,,,,,,,,,,,,,,,,,,,,,,,,,41,rebuscar,,,,,460.976,462.275,0,0,0.773,,0,78,78,40,1,REAL,FAKE,,,,,,,,,,,,,,,,,
,,,,,,,,,5b26ed8a8ecf3f0001619040,Mexican,13 or older,"no, only English or Spanish",no,2025-07-24_10h57.36.794,empathy_intonation_perc_control,2024.2.4,Win32,59.95203837,5b26ed8a8ecf3f0001619040,68817205a84113384fffdfe3,688249a8e18436b234c45d06,,,,,,,,,,,,,1,,,,,,,,,,,,,,,,,,,,,,,,,,,,,,,,,,,,,38,estornudar,,,,,462.275,463.708,0,0,0.895,,0,79,79,37,1,REAL,FAKE,,,,,,,,,,,,,,,,,
,,,,,,,,,5b26ed8a8ecf3f0001619040,Mexican,13 or older,"no, only English or Spanish",no,2025-07-24_10h57.36.794,empathy_intonation_perc_control,2024.2.4,Win32,59.95203837,5b26ed8a8ecf3f0001619040,68817205a84113384fffdfe3,688249a8e18436b234c45d06,,,,,,,,,,,,,1,,,,,,,,,,,,,,,,,,,,,,,,,,,,,,,,,,,,,37,granuja,,,,,463.709,465.258,1,1,1.018,,0,80,80,36,1,REAL,FAKE,,,,,,,,,,,,,,,,,
,,,,,,,,,5b26ed8a8ecf3f0001619040,Mexican,13 or older,"no, only English or Spanish",no,2025-07-24_10h57.36.794,empathy_intonation_perc_control,2024.2.4,Win32,59.95203837,5b26ed8a8ecf3f0001619040,68817205a84113384fffdfe3,688249a8e18436b234c45d06,,,,,,,,,,,,,1,,,,,,,,,,,,,,,,,,,,,,,,,,,,,,,,,,,,,2,pellizcar,,,,,465.259,466.791,0,0,0.99,,0,81,81,1,1,REAL,FAKE,,,,,,,,,,,,,,,,,
,,,,,,,,,5b26ed8a8ecf3f0001619040,Mexican,13 or older,"no, only English or Spanish",no,2025-07-24_10h57.36.794,empathy_intonation_perc_control,2024.2.4,Win32,59.95203837,5b26ed8a8ecf3f0001619040,68817205a84113384fffdfe3,688249a8e18436b234c45d06,,,,,,,,,,,,,1,,,,,,,,,,,,,,,,,,,,,,,,,,,,,,,,,,,,,9,hacha,,,,,466.791,468.258,1,1,0.945,,0,82,82,8,1,REAL,FAKE,,,,,,,,,,,,,,,,,
,,,,,,,,,5b26ed8a8ecf3f0001619040,Mexican,13 or older,"no, only English or Spanish",no,2025-07-24_10h57.36.794,empathy_intonation_perc_control,2024.2.4,Win32,59.95203837,5b26ed8a8ecf3f0001619040,68817205a84113384fffdfe3,688249a8e18436b234c45d06,,,,,,,,,,,,,1,,,,,,,,,,,,,,,,,,,,,,,,,,,,,,,,,,,,,49,ganar,,,,,468.259,469.574,1,1,0.794,,0,83,83,48,1,REAL,FAKE,,,,,,,,,,,,,,,,,
,,,,,,,,,5b26ed8a8ecf3f0001619040,Mexican,13 or older,"no, only English or Spanish",no,2025-07-24_10h57.36.794,empathy_intonation_perc_control,2024.2.4,Win32,59.95203837,5b26ed8a8ecf3f0001619040,68817205a84113384fffdfe3,688249a8e18436b234c45d06,,,,,,,,,,,,,1,,,,,,,,,,,,,,,,,,,,,,,,,,,,,,,,,,,,,31,pandilla,,,,,469.575,470.875,0,0,0.778,,0,84,84,30,1,REAL,FAKE,,,,,,,,,,,,,,,,,
,,,,,,,,,5b26ed8a8ecf3f0001619040,Mexican,13 or older,"no, only English or Spanish",no,2025-07-24_10h57.36.794,empathy_intonation_perc_control,2024.2.4,Win32,59.95203837,5b26ed8a8ecf3f0001619040,68817205a84113384fffdfe3,688249a8e18436b234c45d06,,,,,,,,,,,,,1,,,,,,,,,,,,,,,,,,,,,,,,,,,,,,,,,,,,,55,nevar,,,,,470.875,472.308,1,1,0.893,,0,85,85,54,1,REAL,FAKE,,,,,,,,,,,,,,,,,
,,,,,,,,,5b26ed8a8ecf3f0001619040,Mexican,13 or older,"no, only English or Spanish",no,2025-07-24_10h57.36.794,empathy_intonation_perc_control,2024.2.4,Win32,59.95203837,5b26ed8a8ecf3f0001619040,68817205a84113384fffdfe3,688249a8e18436b234c45d06,,,,,,,,,,,,,1,,,,,,,,,,,,,,,,,,,,,,,,,,,,,,,,,,,,,89,prisa,,,,,472.308,474.541,1,1,1.685,,0,86,86,88,1,REAL,FAKE,,,,,,,,,,,,,,,,,
,,,,,,,,,5b26ed8a8ecf3f0001619040,Mexican,13 or older,"no, only English or Spanish",no,2025-07-24_10h57.36.794,empathy_intonation_perc_control,2024.2.4,Win32,59.95203837,5b26ed8a8ecf3f0001619040,68817205a84113384fffdfe3,688249a8e18436b234c45d06,,,,,,,,,,,,,0,,,,,,,,,,,,,,,,,,,,,,,,,,,,,,,,,,,,,79,tropaje,,,,,474.541,475.841,0,1,0.771,,0,87,87,78,1,REAL,FAKE,,,,,,,,,,,,,,,,,
,,,,,,,,,5b26ed8a8ecf3f0001619040,Mexican,13 or older,"no, only English or Spanish",no,2025-07-24_10h57.36.794,empathy_intonation_perc_control,2024.2.4,Win32,59.95203837,5b26ed8a8ecf3f0001619040,68817205a84113384fffdfe3,688249a8e18436b234c45d06,,,,,,,,,,,,,0,,,,,,,,,,,,,,,,,,,,,,,,,,,,,,,,,,,,,27,acutación,,,,,475.842,477.191,0,1,0.835,,0,88,88,26,1,REAL,FAKE,,,,,,,,,,,,,,,,,
,,,,,,,,,5b26ed8a8ecf3f0001619040,Mexican,13 or older,"no, only English or Spanish",no,2025-07-24_10h57.36.794,empathy_intonation_perc_control,2024.2.4,Win32,59.95203837,5b26ed8a8ecf3f0001619040,68817205a84113384fffdfe3,688249a8e18436b234c45d06,,,,,,,,,,,,,1,,,,,,,,,,,,,,,,,,,,,,,,,,,,,,,,,,,,,77,tiburón,,,,,477.192,478.558,1,1,0.849,,0,89,89,76,1,REAL,FAKE,,,,,,,,,,,,,,,,,
,,,,,,,,,5b26ed8a8ecf3f0001619040,Mexican,13 or older,"no, only English or Spanish",no,2025-07-24_10h57.36.794,empathy_intonation_perc_control,2024.2.4,Win32,59.95203837,5b26ed8a8ecf3f0001619040,68817205a84113384fffdfe3,688249a8e18436b234c45d06,,,,,,,,,,,,,1,,,,,,,,,,,,,,,,,,,,,,,,,,,,,,,,,,,,,20,ávido,,,,,478.558,480.008,0,0,0.921,,0,90,90,19,1,REAL,FAKE,,,,,,,,,,,,,,,,,
,,,,,,,,,5b26ed8a8ecf3f0001619040,Mexican,13 or older,"no, only English or Spanish",no,2025-07-24_10h57.36.794,empathy_intonation_perc_control,2024.2.4,Win32,59.95203837,5b26ed8a8ecf3f0001619040,68817205a84113384fffdfe3,688249a8e18436b234c45d06,,,,,,,,,,,,,1,,,,,,,,,,,,,,,,,,,,,,,,,,,,,,,,,,,,,75,yacer,,,,,480.009,481.407,0,0,0.863,,0,91,91,74,1,REAL,FAKE,,,,,,,,,,,,,,,,,
,,,,,,,,,5b26ed8a8ecf3f0001619040,Mexican,13 or older,"no, only English or Spanish",no,2025-07-24_10h57.36.794,empathy_intonation_perc_control,2024.2.4,Win32,59.95203837,5b26ed8a8ecf3f0001619040,68817205a84113384fffdfe3,688249a8e18436b234c45d06,,,,,,,,,,,,,,,,,,,,,,,,,,,,,,,,,,,,,,,,,,,,,,,,,,,,,,,,,,,,,,,,,,,,,481.407,489.307,,,,,,,,,,,,,,,
,,,,,,,,,5b26ed8a8ecf3f0001619040,Mexican,13 or older,"no, only English or Spanish",no,2025-07-24_10h57.36.794,empathy_intonation_perc_control,2024.2.4,Win32,59.95203837,5b26ed8a8ecf3f0001619040,68817205a84113384fffdfe3,688249a8e18436b234c45d06,,,,,,,,,,,,,,,,,,,,,,,,,,,1,,,,,,,,,,,,,,,,,,,,,,,,,,,,,,,,,,,,,,,,,,,,489.316,493.908,slightly agree,0,0,0,0,1,I can easily tell if someone else wants to enter a conversation.,1,0,1,0,,
,,,,,,,,,5b26ed8a8ecf3f0001619040,Mexican,13 or older,"no, only English or Spanish",no,2025-07-24_10h57.36.794,empathy_intonation_perc_control,2024.2.4,Win32,59.95203837,5b26ed8a8ecf3f0001619040,68817205a84113384fffdfe3,688249a8e18436b234c45d06,,,,,,,,,,,,,,,,,,,,,,,,,,,2,,,,,,,,,,,,,,,,,,,,,,,,,,,,,,,,,,,,,,,,,,,,493.909,496.191,strongly agree,0,1,1,1,1,I prefer animals to humans.,0,1,0,0,,
,,,,,,,,,5b26ed8a8ecf3f0001619040,Mexican,13 or older,"no, only English or Spanish",no,2025-07-24_10h57.36.794,empathy_intonation_perc_control,2024.2.4,Win32,59.95203837,5b26ed8a8ecf3f0001619040,68817205a84113384fffdfe3,688249a8e18436b234c45d06,,,,,,,,,,,,,,,,,,,,,,,,,,,3,,,,,,,,,,,,,,,,,,,,,,,,,,,,,,,,,,,,,,,,,,,,496.192,499.091,slightly disagree,0,2,2,2,1,I try to keep up with the current trends and fashions.,0,1,0,0,,
,,,,,,,,,5b26ed8a8ecf3f0001619040,Mexican,13 or older,"no, only English or Spanish",no,2025-07-24_10h57.36.794,empathy_intonation_perc_control,2024.2.4,Win32,59.95203837,5b26ed8a8ecf3f0001619040,68817205a84113384fffdfe3,688249a8e18436b234c45d06,,,,,,,,,,,,,,,,,,,,,,,,,,,4,,,,,,,,,,,,,,,,,,,,,,,,,,,,,,,,,,,,,,,,,,,,499.092,504.608,slightly disagree,0,3,3,3,1,"I find it difficult to explain to others things that I understand easily,   when they don't understand it first time.",1,0,0,1,,
,,,,,,,,,5b26ed8a8ecf3f0001619040,Mexican,13 or older,"no, only English or Spanish",no,2025-07-24_10h57.36.794,empathy_intonation_perc_control,2024.2.4,Win32,59.95203837,5b26ed8a8ecf3f0001619040,68817205a84113384fffdfe3,688249a8e18436b234c45d06,,,,,,,,,,,,,,,,,,,,,,,,,,,5,,,,,,,,,,,,,,,,,,,,,,,,,,,,,,,,,,,,,,,,,,,,504.608,507.174,strongly disagree,0,4,4,4,1,I dream most nights.,0,1,0,0,,
,,,,,,,,,5b26ed8a8ecf3f0001619040,Mexican,13 or older,"no, only English or Spanish",no,2025-07-24_10h57.36.794,empathy_intonation_perc_control,2024.2.4,Win32,59.95203837,5b26ed8a8ecf3f0001619040,68817205a84113384fffdfe3,688249a8e18436b234c45d06,,,,,,,,,,,,,,,,,,,,,,,,,,,6,,,,,,,,,,,,,,,,,,,,,,,,,,,,,,,,,,,,,,,,,,,,507.174,510.158,slightly agree,0,5,5,5,1,I really enjoy caring for other people.,1,0,1,0,,
,,,,,,,,,5b26ed8a8ecf3f0001619040,Mexican,13 or older,"no, only English or Spanish",no,2025-07-24_10h57.36.794,empathy_intonation_perc_control,2024.2.4,Win32,59.95203837,5b26ed8a8ecf3f0001619040,68817205a84113384fffdfe3,688249a8e18436b234c45d06,,,,,,,,,,,,,,,,,,,,,,,,,,,7,,,,,,,,,,,,,,,,,,,,,,,,,,,,,,,,,,,,,,,,,,,,510.158,512.874,slightly agree,0,6,6,6,1,I try to solve my own problems rather than discussing them with others.,0,1,0,0,,
,,,,,,,,,5b26ed8a8ecf3f0001619040,Mexican,13 or older,"no, only English or Spanish",no,2025-07-24_10h57.36.794,empathy_intonation_perc_control,2024.2.4,Win32,59.95203837,5b26ed8a8ecf3f0001619040,68817205a84113384fffdfe3,688249a8e18436b234c45d06,,,,,,,,,,,,,,,,,,,,,,,,,,,8,,,,,,,,,,,,,,,,,,,,,,,,,,,,,,,,,,,,,,,,,,,,512.874,515.174,slightly agree,0,7,7,7,1,I find it hard to know what to do in a social situation.,1,0,0,1,,
,,,,,,,,,5b26ed8a8ecf3f0001619040,Mexican,13 or older,"no, only English or Spanish",no,2025-07-24_10h57.36.794,empathy_intonation_perc_control,2024.2.4,Win32,59.95203837,5b26ed8a8ecf3f0001619040,68817205a84113384fffdfe3,688249a8e18436b234c45d06,,,,,,,,,,,,,,,,,,,,,,,,,,,9,,,,,,,,,,,,,,,,,,,,,,,,,,,,,,,,,,,,,,,,,,,,515.174,517.407,slightly agree,0,8,8,8,1,I am at my best first thing in the morning.,0,1,0,0,,
,,,,,,,,,5b26ed8a8ecf3f0001619040,Mexican,13 or older,"no, only English or Spanish",no,2025-07-24_10h57.36.794,empathy_intonation_perc_control,2024.2.4,Win32,59.95203837,5b26ed8a8ecf3f0001619040,68817205a84113384fffdfe3,688249a8e18436b234c45d06,,,,,,,,,,,,,,,,,,,,,,,,,,,10,,,,,,,,,,,,,,,,,,,,,,,,,,,,,,,,,,,,,,,,,,,,517.408,520.791,slightly agree,0,9,9,9,1,People often tell me that I went too far in driving my point home in a discussion.,1,0,0,1,,
,,,,,,,,,5b26ed8a8ecf3f0001619040,Mexican,13 or older,"no, only English or Spanish",no,2025-07-24_10h57.36.794,empathy_intonation_perc_control,2024.2.4,Win32,59.95203837,5b26ed8a8ecf3f0001619040,68817205a84113384fffdfe3,688249a8e18436b234c45d06,,,,,,,,,,,,,,,,,,,,,,,,,,,11,,,,,,,,,,,,,,,,,,,,,,,,,,,,,,,,,,,,,,,,,,,,520.791,525.407,slightly disagree,0,10,10,10,1,It doesn't bother me too much if I am late meeting a friend.,1,0,0,1,,
,,,,,,,,,5b26ed8a8ecf3f0001619040,Mexican,13 or older,"no, only English or Spanish",no,2025-07-24_10h57.36.794,empathy_intonation_perc_control,2024.2.4,Win32,59.95203837,5b26ed8a8ecf3f0001619040,68817205a84113384fffdfe3,688249a8e18436b234c45d06,,,,,,,,,,,,,,,,,,,,,,,,,,,12,,,,,,,,,,,,,,,,,,,,,,,,,,,,,,,,,,,,,,,,,,,,525.408,528.34,slightly disagree,0,11,11,11,1,"Friendships and relationships are just too difficult, so I tend not to 
  bother with them.",1,0,0,1,,
,,,,,,,,,5b26ed8a8ecf3f0001619040,Mexican,13 or older,"no, only English or Spanish",no,2025-07-24_10h57.36.794,empathy_intonation_perc_control,2024.2.4,Win32,59.95203837,5b26ed8a8ecf3f0001619040,68817205a84113384fffdfe3,688249a8e18436b234c45d06,,,,,,,,,,,,,,,,,,,,,,,,,,,13,,,,,,,,,,,,,,,,,,,,,,,,,,,,,,,,,,,,,,,,,,,,528.341,530.674,slightly disagree,0,12,12,12,1,"I would never break a law, no matter how minor.",0,1,0,0,,
,,,,,,,,,5b26ed8a8ecf3f0001619040,Mexican,13 or older,"no, only English or Spanish",no,2025-07-24_10h57.36.794,empathy_intonation_perc_control,2024.2.4,Win32,59.95203837,5b26ed8a8ecf3f0001619040,68817205a84113384fffdfe3,688249a8e18436b234c45d06,,,,,,,,,,,,,,,,,,,,,,,,,,,14,,,,,,,,,,,,,,,,,,,,,,,,,,,,,,,,,,,,,,,,,,,,530.674,534.04,slightly disagree,0,13,13,13,1,I often find it difficult to judge if something is rude or polite.,1,0,0,1,,
,,,,,,,,,5b26ed8a8ecf3f0001619040,Mexican,13 or older,"no, only English or Spanish",no,2025-07-24_10h57.36.794,empathy_intonation_perc_control,2024.2.4,Win32,59.95203837,5b26ed8a8ecf3f0001619040,68817205a84113384fffdfe3,688249a8e18436b234c45d06,,,,,,,,,,,,,,,,,,,,,,,,,,,15,,,,,,,,,,,,,,,,,,,,,,,,,,,,,,,,,,,,,,,,,,,,534.041,538.973,slightly disagree,0,14,14,14,1,"In a conversation, I tend to focus on my own thoughts rather than on what 
  my listener might be thinking.",1,0,0,1,,
,,,,,,,,,5b26ed8a8ecf3f0001619040,Mexican,13 or older,"no, only English or Spanish",no,2025-07-24_10h57.36.794,empathy_intonation_perc_control,2024.2.4,Win32,59.95203837,5b26ed8a8ecf3f0001619040,68817205a84113384fffdfe3,688249a8e18436b234c45d06,,,,,,,,,,,,,,,,,,,,,,,,,,,16,,,,,,,,,,,,,,,,,,,,,,,,,,,,,,,,,,,,,,,,,,,,538.974,542.591,strongly disagree,0,15,15,15,1,I prefer practical jokes to verbal humor.,0,1,0,0,,
,,,,,,,,,5b26ed8a8ecf3f0001619040,Mexican,13 or older,"no, only English or Spanish",no,2025-07-24_10h57.36.794,empathy_intonation_perc_control,2024.2.4,Win32,59.95203837,5b26ed8a8ecf3f0001619040,68817205a84113384fffdfe3,688249a8e18436b234c45d06,,,,,,,,,,,,,,,,,,,,,,,,,,,17,,,,,,,,,,,,,,,,,,,,,,,,,,,,,,,,,,,,,,,,,,,,542.591,545.156,slightly agree,0,16,16,16,1,I live life for today rather than the future.,0,1,0,0,,
,,,,,,,,,5b26ed8a8ecf3f0001619040,Mexican,13 or older,"no, only English or Spanish",no,2025-07-24_10h57.36.794,empathy_intonation_perc_control,2024.2.4,Win32,59.95203837,5b26ed8a8ecf3f0001619040,68817205a84113384fffdfe3,688249a8e18436b234c45d06,,,,,,,,,,,,,,,,,,,,,,,,,,,18,,,,,,,,,,,,,,,,,,,,,,,,,,,,,,,,,,,,,,,,,,,,545.157,548.723,strongly disagree,0,17,17,17,1,"When I was a child, I enjoyed cutting up worms to see what would happen.",1,0,0,1,,
,,,,,,,,,5b26ed8a8ecf3f0001619040,Mexican,13 or older,"no, only English or Spanish",no,2025-07-24_10h57.36.794,empathy_intonation_perc_control,2024.2.4,Win32,59.95203837,5b26ed8a8ecf3f0001619040,68817205a84113384fffdfe3,688249a8e18436b234c45d06,,,,,,,,,,,,,,,,,,,,,,,,,,,19,,,,,,,,,,,,,,,,,,,,,,,,,,,,,,,,,,,,,,,,,,,,548.724,552.14,slightly agree,0,18,18,18,1,I can pick up quickly if someone says one thing but means another.,1,0,1,0,,
,,,,,,,,,5b26ed8a8ecf3f0001619040,Mexican,13 or older,"no, only English or Spanish",no,2025-07-24_10h57.36.794,empathy_intonation_perc_control,2024.2.4,Win32,59.95203837,5b26ed8a8ecf3f0001619040,68817205a84113384fffdfe3,688249a8e18436b234c45d06,,,,,,,,,,,,,,,,,,,,,,,,,,,20,,,,,,,,,,,,,,,,,,,,,,,,,,,,,,,,,,,,,,,,,,,,552.14,554.407,slightly agree,0,19,19,19,1,I tend to have very strong opinions about morality.,0,1,0,0,,
,,,,,,,,,5b26ed8a8ecf3f0001619040,Mexican,13 or older,"no, only English or Spanish",no,2025-07-24_10h57.36.794,empathy_intonation_perc_control,2024.2.4,Win32,59.95203837,5b26ed8a8ecf3f0001619040,68817205a84113384fffdfe3,688249a8e18436b234c45d06,,,,,,,,,,,,,,,,,,,,,,,,,,,21,,,,,,,,,,,,,,,,,,,,,,,,,,,,,,,,,,,,,,,,,,,,554.407,557.507,slightly agree,0,20,20,20,1,It is hard for me to see why some things upset people so much.,1,0,0,1,,
,,,,,,,,,5b26ed8a8ecf3f0001619040,Mexican,13 or older,"no, only English or Spanish",no,2025-07-24_10h57.36.794,empathy_intonation_perc_control,2024.2.4,Win32,59.95203837,5b26ed8a8ecf3f0001619040,68817205a84113384fffdfe3,688249a8e18436b234c45d06,,,,,,,,,,,,,,,,,,,,,,,,,,,22,,,,,,,,,,,,,,,,,,,,,,,,,,,,,,,,,,,,,,,,,,,,557.508,559.357,slightly agree,0,21,21,21,1,I find it easy to put myself in somebody else's shoes.,1,0,1,0,,
,,,,,,,,,5b26ed8a8ecf3f0001619040,Mexican,13 or older,"no, only English or Spanish",no,2025-07-24_10h57.36.794,empathy_intonation_perc_control,2024.2.4,Win32,59.95203837,5b26ed8a8ecf3f0001619040,68817205a84113384fffdfe3,688249a8e18436b234c45d06,,,,,,,,,,,,,,,,,,,,,,,,,,,23,,,,,,,,,,,,,,,,,,,,,,,,,,,,,,,,,,,,,,,,,,,,559.357,562.856,slightly disagree,0,22,22,22,1,I think that good manners are the most important thing a parent can teach their child.,0,1,0,0,,
,,,,,,,,,5b26ed8a8ecf3f0001619040,Mexican,13 or older,"no, only English or Spanish",no,2025-07-24_10h57.36.794,empathy_intonation_perc_control,2024.2.4,Win32,59.95203837,5b26ed8a8ecf3f0001619040,68817205a84113384fffdfe3,688249a8e18436b234c45d06,,,,,,,,,,,,,,,,,,,,,,,,,,,24,,,,,,,,,,,,,,,,,,,,,,,,,,,,,,,,,,,,,,,,,,,,562.857,565.44,slightly disagree,0,23,23,23,1,I like to do things on the spur of the moment.,0,1,0,0,,
,,,,,,,,,5b26ed8a8ecf3f0001619040,Mexican,13 or older,"no, only English or Spanish",no,2025-07-24_10h57.36.794,empathy_intonation_perc_control,2024.2.4,Win32,59.95203837,5b26ed8a8ecf3f0001619040,68817205a84113384fffdfe3,688249a8e18436b234c45d06,,,,,,,,,,,,,,,,,,,,,,,,,,,25,,,,,,,,,,,,,,,,,,,,,,,,,,,,,,,,,,,,,,,,,,,,565.44,568.457,slightly agree,0,24,24,24,1,I am good at predicting how someone will feel.,1,0,1,0,,
,,,,,,,,,5b26ed8a8ecf3f0001619040,Mexican,13 or older,"no, only English or Spanish",no,2025-07-24_10h57.36.794,empathy_intonation_perc_control,2024.2.4,Win32,59.95203837,5b26ed8a8ecf3f0001619040,68817205a84113384fffdfe3,688249a8e18436b234c45d06,,,,,,,,,,,,,,,,,,,,,,,,,,,26,,,,,,,,,,,,,,,,,,,,,,,,,,,,,,,,,,,,,,,,,,,,568.457,571.156,slightly agree,0,25,25,25,1,I am quick to spot when someone in a group is feeling awkward or uncomfortable.,1,0,1,0,,
