instructions_2afc.started,instructions_2afc.stopped,instructions_2afc_loop.thisRepN,instructions_2afc_loop.thisTrialN,instructions_2afc_loop.thisN,instructions_2afc_loop.thisIndex,instructions_2afc_loop.ran,instructions_text,continue_text,participant_id,"What variety of Spanish are you most familiar with? (e.g., Peruvian, Spanish, Mexican)",At what age did you begin learning Spanish?,Are you proficient in any languages other than English/Spanish?,"Are you familiar with Caribbean (e.g., Caribbean, Puerto Rican) or Galician Spanish?",date,expName,psychopyVersion,OS,frameRate,id,study_id,session,practice_2afc.started,practice_2afc.stopped,key_resp_2afc_practice.keys,key_resp_2afc_practice.corr,key_resp_2afc_practice.rt,key_resp_2afc_practice.duration,trials_2afc_practice_loop.thisRepN,trials_2afc_practice_loop.thisTrialN,trials_2afc_practice_loop.thisN,trials_2afc_practice_loop.thisIndex,trials_2afc_practice_loop.ran,path,correct_response,check_2afc.started,check_2afc.stopped,trial_2afc.started,trial_2afc.stopped,key_resp_2afc_trial.keys,key_resp_2afc_trial.corr,key_resp_2afc_trial.rt,key_resp_2afc_trial.duration,trials_2afc_loop.thisRepN,trials_2afc_loop.thisTrialN,trials_2afc_loop.thisN,trials_2afc_loop.thisIndex,trials_2afc_loop.ran,item_num,target,variety,instructions_lextale.started,instructions_lextale.stopped,instructions_lextale_loop.thisRepN,instructions_lextale_loop.thisTrialN,instructions_lextale_loop.thisN,instructions_lextale_loop.thisIndex,instructions_lextale_loop.ran,practice_lextale.started,practice_lextale.stopped,key_resp_lextale_practice.keys,key_resp_lextale_practice.corr,key_resp_lextale_practice.rt,key_resp_lextale_practice.duration,practice_feedback_lextale.started,practice_feedback_lextale.stopped,trials_lextale_practice_loop.thisRepN,trials_lextale_practice_loop.thisTrialN,trials_lextale_practice_loop.thisN,trials_lextale_practice_loop.thisIndex,trials_lextale_practice_loop.ran,stim,word,prac_button_real,prac_button_false,check_lextale.started,check_lextale.stopped,trial_lextale.started,trial_lextale.stopped,key_resp_lextale_trial.keys,key_resp_lextale_trial.corr,key_resp_lextale_trial.rt,key_resp_lextale_trial.duration,trials_lextale_loop.thisRepN,trials_lextale_loop.thisTrialN,trials_lextale_loop.thisN,trials_lextale_loop.thisIndex,trials_lextale_loop.ran,button_real,button_false,instructions_eq.started,instructions_eq.stopped,trial_eq.started,trial_eq.stopped,slider_eq_trial.response,trials_eq_loop.thisRepN,trials_eq_loop.thisTrialN,trials_eq_loop.thisN,trials_eq_loop.thisIndex,trials_eq_loop.ran,item,is_test_item,is_distractor,is_agree_score,is_disagree_score,end_exp.started,end_exp.stopped
0.0587,5.8023,0,0,0,0,1,"In the following task you are going to hear a series of utterances. 

  You will decide if the utterances sound like questions or not using your keyboard.", (press the spacebar to continue),5b29b956007d870001c82114,Mexican,13 or older,"no, only English or Spanish",yes,2025-07-24_08h47.02.462,empathy_intonation_perc_control,2024.2.4,Win32,59.88023952,5b29b956007d870001c82114,68817205a84113384fffdfe3,68822b24a9a7517e023e6031,,,,,,,,,,,,,,,,,,,,,,,,,,,,,,,,,,,,,,,,,,,,,,,,,,,,,,,,,,,,,,,,,,,,,,,,,,,,,,,,,,,,,
5.8147,31.8658,0,1,1,1,1,"If you believe the utterance is a question, type '1' (for 'yes') and if you do not 
  believe it is a question type '0' (for 'no').

  Let's practice a bit...", (press the spacebar to continue),5b29b956007d870001c82114,Mexican,13 or older,"no, only English or Spanish",yes,2025-07-24_08h47.02.462,empathy_intonation_perc_control,2024.2.4,Win32,59.88023952,5b29b956007d870001c82114,68817205a84113384fffdfe3,68822b24a9a7517e023e6031,,,,,,,,,,,,,,,,,,,,,,,,,,,,,,,,,,,,,,,,,,,,,,,,,,,,,,,,,,,,,,,,,,,,,,,,,,,,,,,,,,,,,
,,,,,,,,,5b29b956007d870001c82114,Mexican,13 or older,"no, only English or Spanish",yes,2025-07-24_08h47.02.462,empathy_intonation_perc_control,2024.2.4,Win32,59.88023952,5b29b956007d870001c82114,68817205a84113384fffdfe3,68822b24a9a7517e023e6031,31.8792,35.1328,1,1,2.7304,,0,0,0,0,1,./stim/wavs/castilian_question_filler_Mi-esposo-conoce-al-chico.wav,1,,,,,,,,,,,,,,,,,,,,,,,,,,,,,,,,,,,,,,,,,,,,,,,,,,,,,,,,,,,,,,,,,,,,,,,,
,,,,,,,,,5b29b956007d870001c82114,Mexican,13 or older,"no, only English or Spanish",yes,2025-07-24_08h47.02.462,empathy_intonation_perc_control,2024.2.4,Win32,59.88023952,5b29b956007d870001c82114,68817205a84113384fffdfe3,68822b24a9a7517e023e6031,35.1341,39.2823,0,1,3.625,,0,1,1,6,1,./stim/wavs/peruvian_statement_filler_El-nino-habla-con-su-madre.wav,0,,,,,,,,,,,,,,,,,,,,,,,,,,,,,,,,,,,,,,,,,,,,,,,,,,,,,,,,,,,,,,,,,,,,,,,,
,,,,,,,,,5b29b956007d870001c82114,Mexican,13 or older,"no, only English or Spanish",yes,2025-07-24_08h47.02.462,empathy_intonation_perc_control,2024.2.4,Win32,59.88023952,5b29b956007d870001c82114,68817205a84113384fffdfe3,68822b24a9a7517e023e6031,39.283,41.8826,0,1,2.0875,,0,2,2,5,1,./stim/wavs/andalusian_statement_filler_Alberto-nunca-se-afeita.wav,0,,,,,,,,,,,,,,,,,,,,,,,,,,,,,,,,,,,,,,,,,,,,,,,,,,,,,,,,,,,,,,,,,,,,,,,,
,,,,,,,,,5b29b956007d870001c82114,Mexican,13 or older,"no, only English or Spanish",yes,2025-07-24_08h47.02.462,empathy_intonation_perc_control,2024.2.4,Win32,59.88023952,5b29b956007d870001c82114,68817205a84113384fffdfe3,68822b24a9a7517e023e6031,41.8834,45.1989,0,1,2.7844,,0,3,3,7,1,./stim/wavs/puertorican_statement_filler_La-nina-pinta-con-su-amiga.wav,0,,,,,,,,,,,,,,,,,,,,,,,,,,,,,,,,,,,,,,,,,,,,,,,,,,,,,,,,,,,,,,,,,,,,,,,,
,,,,,,,,,5b29b956007d870001c82114,Mexican,13 or older,"no, only English or Spanish",yes,2025-07-24_08h47.02.462,empathy_intonation_perc_control,2024.2.4,Win32,59.88023952,5b29b956007d870001c82114,68817205a84113384fffdfe3,68822b24a9a7517e023e6031,45.1998,48.5154,0,0,2.7916,,0,4,4,2,1,./stim/wavs/chilean_question_filler_Mi-padre-cantaba-bien.wav,1,,,,,,,,,,,,,,,,,,,,,,,,,,,,,,,,,,,,,,,,,,,,,,,,,,,,,,,,,,,,,,,,,,,,,,,,
,,,,,,,,,5b29b956007d870001c82114,Mexican,13 or older,"no, only English or Spanish",yes,2025-07-24_08h47.02.462,empathy_intonation_perc_control,2024.2.4,Win32,59.88023952,5b29b956007d870001c82114,68817205a84113384fffdfe3,68822b24a9a7517e023e6031,48.5162,51.5485,0,1,2.5028,,0,5,5,4,1,./stim/wavs/cuban_statement_filler_Cocinabas-por-la-noche.wav,0,,,,,,,,,,,,,,,,,,,,,,,,,,,,,,,,,,,,,,,,,,,,,,,,,,,,,,,,,,,,,,,,,,,,,,,,
,,,,,,,,,5b29b956007d870001c82114,Mexican,13 or older,"no, only English or Spanish",yes,2025-07-24_08h47.02.462,empathy_intonation_perc_control,2024.2.4,Win32,59.88023952,5b29b956007d870001c82114,68817205a84113384fffdfe3,68822b24a9a7517e023e6031,51.5494,53.4822,1,1,1.4039,,0,6,6,1,1,./stim/wavs/argentine_question_filler_Mi-vecino-habla-mucho.wav,1,,,,,,,,,,,,,,,,,,,,,,,,,,,,,,,,,,,,,,,,,,,,,,,,,,,,,,,,,,,,,,,,,,,,,,,,
,,,,,,,,,5b29b956007d870001c82114,Mexican,13 or older,"no, only English or Spanish",yes,2025-07-24_08h47.02.462,empathy_intonation_perc_control,2024.2.4,Win32,59.88023952,5b29b956007d870001c82114,68817205a84113384fffdfe3,68822b24a9a7517e023e6031,53.4828,55.7156,1,1,1.7042,,0,7,7,3,1,./stim/wavs/mexican_question_filler_Felipe-no-tiene-contrasena.wav,1,,,,,,,,,,,,,,,,,,,,,,,,,,,,,,,,,,,,,,,,,,,,,,,,,,,,,,,,,,,,,,,,,,,,,,,,
,,,,,,,,,5b29b956007d870001c82114,Mexican,13 or older,"no, only English or Spanish",yes,2025-07-24_08h47.02.462,empathy_intonation_perc_control,2024.2.4,Win32,59.88023952,5b29b956007d870001c82114,68817205a84113384fffdfe3,68822b24a9a7517e023e6031,,,,,,,,,,,,,,55.716,59.9158,,,,,,,,,,,,,,,,,,,,,,,,,,,,,,,,,,,,,,,,,,,,,,,,,,,,,,,,,,,,,,,,,,,,,,
,,,,,,,,,5b29b956007d870001c82114,Mexican,13 or older,"no, only English or Spanish",yes,2025-07-24_08h47.02.462,empathy_intonation_perc_control,2024.2.4,Win32,59.88023952,5b29b956007d870001c82114,68817205a84113384fffdfe3,68822b24a9a7517e023e6031,,,,,,,,,,,,./stim/wavs/puertorican_mismatch_declarative-broad-focus_El-nino-oye-el-rio.wav,0,,,59.9275,62.5157,0,1,2.0674,,0,0,0,85,1,86,0,puertorican,,,,,,,,,,,,,,,,,,,,,,,,,,,,,,,,,,,,,,,,,,,,,,,,,,,,,,,,
,,,,,,,,,5b29b956007d870001c82114,Mexican,13 or older,"no, only English or Spanish",yes,2025-07-24_08h47.02.462,empathy_intonation_perc_control,2024.2.4,Win32,59.88023952,5b29b956007d870001c82114,68817205a84113384fffdfe3,68822b24a9a7517e023e6031,,,,,,,,,,,,./stim/wavs/cuban_match_interrogative-total-yn_Manuela-vende-el-carro.wav,1,,,62.5165,65.115,0,0,2.0667,,0,1,1,8,1,9,1,cuban,,,,,,,,,,,,,,,,,,,,,,,,,,,,,,,,,,,,,,,,,,,,,,,,,,,,,,,,
,,,,,,,,,5b29b956007d870001c82114,Mexican,13 or older,"no, only English or Spanish",yes,2025-07-24_08h47.02.462,empathy_intonation_perc_control,2024.2.4,Win32,59.88023952,5b29b956007d870001c82114,68817205a84113384fffdfe3,68822b24a9a7517e023e6031,,,,,,,,,,,,./stim/wavs/mexican_match_interrogative-total-yn_Marta-abre-el-regalo.wav,1,,,65.1159,67.5653,1,1,1.9171,,0,2,2,17,1,18,0,mexican,,,,,,,,,,,,,,,,,,,,,,,,,,,,,,,,,,,,,,,,,,,,,,,,,,,,,,,,
,,,,,,,,,5b29b956007d870001c82114,Mexican,13 or older,"no, only English or Spanish",yes,2025-07-24_08h47.02.462,empathy_intonation_perc_control,2024.2.4,Win32,59.88023952,5b29b956007d870001c82114,68817205a84113384fffdfe3,68822b24a9a7517e023e6031,,,,,,,,,,,,./stim/wavs/cuban_match_interrogative-total-yn_Mariano-habla-del-tiempo.wav,1,,,67.5659,69.9649,0,0,1.8727,,0,3,3,10,1,11,1,cuban,,,,,,,,,,,,,,,,,,,,,,,,,,,,,,,,,,,,,,,,,,,,,,,,,,,,,,,,
,,,,,,,,,5b29b956007d870001c82114,Mexican,13 or older,"no, only English or Spanish",yes,2025-07-24_08h47.02.462,empathy_intonation_perc_control,2024.2.4,Win32,59.88023952,5b29b956007d870001c82114,68817205a84113384fffdfe3,68822b24a9a7517e023e6031,,,,,,,,,,,,./stim/wavs/mexican_match_declarative-broad-focus_Mariano-habla-del-tiempo.wav,0,,,69.9655,72.7318,0,1,2.2342,,0,4,4,60,1,61,0,mexican,,,,,,,,,,,,,,,,,,,,,,,,,,,,,,,,,,,,,,,,,,,,,,,,,,,,,,,,
,,,,,,,,,5b29b956007d870001c82114,Mexican,13 or older,"no, only English or Spanish",yes,2025-07-24_08h47.02.462,empathy_intonation_perc_control,2024.2.4,Win32,59.88023952,5b29b956007d870001c82114,68817205a84113384fffdfe3,68822b24a9a7517e023e6031,,,,,,,,,,,,./stim/wavs/puertorican_mismatch_declarative-broad-focus_La-maestra-vive-en-Paris.wav,0,,,72.7326,75.3985,0,1,2.1439,,0,5,5,86,1,87,0,puertorican,,,,,,,,,,,,,,,,,,,,,,,,,,,,,,,,,,,,,,,,,,,,,,,,,,,,,,,,
,,,,,,,,,5b29b956007d870001c82114,Mexican,13 or older,"no, only English or Spanish",yes,2025-07-24_08h47.02.462,empathy_intonation_perc_control,2024.2.4,Win32,59.88023952,5b29b956007d870001c82114,68817205a84113384fffdfe3,68822b24a9a7517e023e6031,,,,,,,,,,,,./stim/wavs/cuban_mismatch_declarative-broad-focus_El-hombre-mira-la-luna.wav,0,,,75.3993,78.0312,0,1,2.1097,,0,6,6,74,1,75,0,cuban,,,,,,,,,,,,,,,,,,,,,,,,,,,,,,,,,,,,,,,,,,,,,,,,,,,,,,,,
,,,,,,,,,5b29b956007d870001c82114,Mexican,13 or older,"no, only English or Spanish",yes,2025-07-24_08h47.02.462,empathy_intonation_perc_control,2024.2.4,Win32,59.88023952,5b29b956007d870001c82114,68817205a84113384fffdfe3,68822b24a9a7517e023e6031,,,,,,,,,,,,./stim/wavs/cuban_match_declarative-broad-focus_Mariano-habla-del-tiempo.wav,0,,,78.032,80.6985,0,1,2.1388,,0,7,7,54,1,55,0,cuban,,,,,,,,,,,,,,,,,,,,,,,,,,,,,,,,,,,,,,,,,,,,,,,,,,,,,,,,
,,,,,,,,,5b29b956007d870001c82114,Mexican,13 or older,"no, only English or Spanish",yes,2025-07-24_08h47.02.462,empathy_intonation_perc_control,2024.2.4,Win32,59.88023952,5b29b956007d870001c82114,68817205a84113384fffdfe3,68822b24a9a7517e023e6031,,,,,,,,,,,,./stim/wavs/castilian_mismatch_declarative-broad-focus_El-nino-oye-el-rio.wav,0,,,80.6992,83.265,0,1,2.0388,,0,8,8,68,1,69,0,castilian,,,,,,,,,,,,,,,,,,,,,,,,,,,,,,,,,,,,,,,,,,,,,,,,,,,,,,,,
,,,,,,,,,5b29b956007d870001c82114,Mexican,13 or older,"no, only English or Spanish",yes,2025-07-24_08h47.02.462,empathy_intonation_perc_control,2024.2.4,Win32,59.88023952,5b29b956007d870001c82114,68817205a84113384fffdfe3,68822b24a9a7517e023e6031,,,,,,,,,,,,./stim/wavs/cuban_mismatch_interrogative-total-yn_Mi-madre-come-la-fruta.wav,1,,,83.2657,86.298,0,0,2.5028,,0,9,9,31,1,32,1,cuban,,,,,,,,,,,,,,,,,,,,,,,,,,,,,,,,,,,,,,,,,,,,,,,,,,,,,,,,
,,,,,,,,,5b29b956007d870001c82114,Mexican,13 or older,"no, only English or Spanish",yes,2025-07-24_08h47.02.462,empathy_intonation_perc_control,2024.2.4,Win32,59.88023952,5b29b956007d870001c82114,68817205a84113384fffdfe3,68822b24a9a7517e023e6031,,,,,,,,,,,,./stim/wavs/cuban_match_declarative-broad-focus_Manuela-vende-el-carro.wav,0,,,86.2987,89.2646,0,1,2.4345,,0,10,10,52,1,53,0,cuban,,,,,,,,,,,,,,,,,,,,,,,,,,,,,,,,,,,,,,,,,,,,,,,,,,,,,,,,
,,,,,,,,,5b29b956007d870001c82114,Mexican,13 or older,"no, only English or Spanish",yes,2025-07-24_08h47.02.462,empathy_intonation_perc_control,2024.2.4,Win32,59.88023952,5b29b956007d870001c82114,68817205a84113384fffdfe3,68822b24a9a7517e023e6031,,,,,,,,,,,,./stim/wavs/mexican_match_declarative-broad-focus_Marta-abre-el-regalo.wav,0,,,89.2654,92.2983,0,1,2.503,,0,11,11,61,1,62,0,mexican,,,,,,,,,,,,,,,,,,,,,,,,,,,,,,,,,,,,,,,,,,,,,,,,,,,,,,,,
,,,,,,,,,5b29b956007d870001c82114,Mexican,13 or older,"no, only English or Spanish",yes,2025-07-24_08h47.02.462,empathy_intonation_perc_control,2024.2.4,Win32,59.88023952,5b29b956007d870001c82114,68817205a84113384fffdfe3,68822b24a9a7517e023e6031,,,,,,,,,,,,./stim/wavs/puertorican_match_interrogative-total-yn_Ana-lleva-el-abrigo.wav,1,,,92.299,94.7312,0,0,1.9067,,0,12,12,18,1,19,1,puertorican,,,,,,,,,,,,,,,,,,,,,,,,,,,,,,,,,,,,,,,,,,,,,,,,,,,,,,,,
,,,,,,,,,5b29b956007d870001c82114,Mexican,13 or older,"no, only English or Spanish",yes,2025-07-24_08h47.02.462,empathy_intonation_perc_control,2024.2.4,Win32,59.88023952,5b29b956007d870001c82114,68817205a84113384fffdfe3,68822b24a9a7517e023e6031,,,,,,,,,,,,./stim/wavs/cuban_match_declarative-broad-focus_Daniel-iba-a-Bolivia.wav,0,,,94.7322,97.2647,1,0,1.9994,,0,13,13,51,1,52,0,cuban,,,,,,,,,,,,,,,,,,,,,,,,,,,,,,,,,,,,,,,,,,,,,,,,,,,,,,,,
,,,,,,,,,5b29b956007d870001c82114,Mexican,13 or older,"no, only English or Spanish",yes,2025-07-24_08h47.02.462,empathy_intonation_perc_control,2024.2.4,Win32,59.88023952,5b29b956007d870001c82114,68817205a84113384fffdfe3,68822b24a9a7517e023e6031,,,,,,,,,,,,./stim/wavs/castilian_mismatch_interrogative-total-yn_Mi-novio-viene-del-lago.wav,1,,,97.2655,99.6811,1,1,1.8818,,0,14,14,27,1,28,0,castilian,,,,,,,,,,,,,,,,,,,,,,,,,,,,,,,,,,,,,,,,,,,,,,,,,,,,,,,,
,,,,,,,,,5b29b956007d870001c82114,Mexican,13 or older,"no, only English or Spanish",yes,2025-07-24_08h47.02.462,empathy_intonation_perc_control,2024.2.4,Win32,59.88023952,5b29b956007d870001c82114,68817205a84113384fffdfe3,68822b24a9a7517e023e6031,,,,,,,,,,,,./stim/wavs/mexican_match_interrogative-total-yn_Mariano-habla-del-tiempo.wav,1,,,99.682,101.9142,1,1,1.7095,,0,15,15,16,1,17,0,mexican,,,,,,,,,,,,,,,,,,,,,,,,,,,,,,,,,,,,,,,,,,,,,,,,,,,,,,,,
,,,,,,,,,5b29b956007d870001c82114,Mexican,13 or older,"no, only English or Spanish",yes,2025-07-24_08h47.02.462,empathy_intonation_perc_control,2024.2.4,Win32,59.88023952,5b29b956007d870001c82114,68817205a84113384fffdfe3,68822b24a9a7517e023e6031,,,,,,,,,,,,./stim/wavs/castilian_match_declarative-broad-focus_Marta-abre-el-regalo.wav,0,,,101.9148,104.6476,0,1,2.2062,,0,16,16,49,1,50,0,castilian,,,,,,,,,,,,,,,,,,,,,,,,,,,,,,,,,,,,,,,,,,,,,,,,,,,,,,,,
,,,,,,,,,5b29b956007d870001c82114,Mexican,13 or older,"no, only English or Spanish",yes,2025-07-24_08h47.02.462,empathy_intonation_perc_control,2024.2.4,Win32,59.88023952,5b29b956007d870001c82114,68817205a84113384fffdfe3,68822b24a9a7517e023e6031,,,,,,,,,,,,./stim/wavs/mexican_mismatch_declarative-broad-focus_El-hombre-mira-la-luna.wav,0,,,104.6483,106.9807,0,1,1.8017,,0,17,17,79,1,80,0,mexican,,,,,,,,,,,,,,,,,,,,,,,,,,,,,,,,,,,,,,,,,,,,,,,,,,,,,,,,
,,,,,,,,,5b29b956007d870001c82114,Mexican,13 or older,"no, only English or Spanish",yes,2025-07-24_08h47.02.462,empathy_intonation_perc_control,2024.2.4,Win32,59.88023952,5b29b956007d870001c82114,68817205a84113384fffdfe3,68822b24a9a7517e023e6031,,,,,,,,,,,,./stim/wavs/mexican_match_interrogative-total-yn_David-leia-el-libro.wav,1,,,106.9816,109.2811,1,1,1.7705,,0,18,18,14,1,15,0,mexican,,,,,,,,,,,,,,,,,,,,,,,,,,,,,,,,,,,,,,,,,,,,,,,,,,,,,,,,
,,,,,,,,,5b29b956007d870001c82114,Mexican,13 or older,"no, only English or Spanish",yes,2025-07-24_08h47.02.462,empathy_intonation_perc_control,2024.2.4,Win32,59.88023952,5b29b956007d870001c82114,68817205a84113384fffdfe3,68822b24a9a7517e023e6031,,,,,,,,,,,,./stim/wavs/castilian_mismatch_interrogative-total-yn_Mi-tia-odia-la-lluvia.wav,1,,,109.2818,111.6303,1,1,1.8258,,0,19,19,28,1,29,0,castilian,,,,,,,,,,,,,,,,,,,,,,,,,,,,,,,,,,,,,,,,,,,,,,,,,,,,,,,,
,,,,,,,,,5b29b956007d870001c82114,Mexican,13 or older,"no, only English or Spanish",yes,2025-07-24_08h47.02.462,empathy_intonation_perc_control,2024.2.4,Win32,59.88023952,5b29b956007d870001c82114,68817205a84113384fffdfe3,68822b24a9a7517e023e6031,,,,,,,,,,,,./stim/wavs/mexican_mismatch_declarative-broad-focus_La-maestra-vive-en-Paris.wav,0,,,111.631,113.9311,0,1,1.7707,,0,20,20,80,1,81,0,mexican,,,,,,,,,,,,,,,,,,,,,,,,,,,,,,,,,,,,,,,,,,,,,,,,,,,,,,,,
,,,,,,,,,5b29b956007d870001c82114,Mexican,13 or older,"no, only English or Spanish",yes,2025-07-24_08h47.02.462,empathy_intonation_perc_control,2024.2.4,Win32,59.88023952,5b29b956007d870001c82114,68817205a84113384fffdfe3,68822b24a9a7517e023e6031,,,,,,,,,,,,./stim/wavs/castilian_match_interrogative-total-yn_Maria-bebe-el-vino.wav,1,,,113.9322,116.098,1,1,1.6438,,0,21,21,3,1,4,0,castilian,,,,,,,,,,,,,,,,,,,,,,,,,,,,,,,,,,,,,,,,,,,,,,,,,,,,,,,,
,,,,,,,,,5b29b956007d870001c82114,Mexican,13 or older,"no, only English or Spanish",yes,2025-07-24_08h47.02.462,empathy_intonation_perc_control,2024.2.4,Win32,59.88023952,5b29b956007d870001c82114,68817205a84113384fffdfe3,68822b24a9a7517e023e6031,,,,,,,,,,,,./stim/wavs/castilian_match_declarative-broad-focus_Emilio-ama-la-marcha.wav,0,,,116.0988,119.0971,0,1,2.4722,,0,22,22,45,1,46,0,castilian,,,,,,,,,,,,,,,,,,,,,,,,,,,,,,,,,,,,,,,,,,,,,,,,,,,,,,,,
,,,,,,,,,5b29b956007d870001c82114,Mexican,13 or older,"no, only English or Spanish",yes,2025-07-24_08h47.02.462,empathy_intonation_perc_control,2024.2.4,Win32,59.88023952,5b29b956007d870001c82114,68817205a84113384fffdfe3,68822b24a9a7517e023e6031,,,,,,,,,,,,./stim/wavs/cuban_mismatch_declarative-broad-focus_Mi-tia-odia-la-lluvia.wav,0,,,119.0977,121.6477,0,1,2.019,,0,23,23,77,1,78,0,cuban,,,,,,,,,,,,,,,,,,,,,,,,,,,,,,,,,,,,,,,,,,,,,,,,,,,,,,,,
,,,,,,,,,5b29b956007d870001c82114,Mexican,13 or older,"no, only English or Spanish",yes,2025-07-24_08h47.02.462,empathy_intonation_perc_control,2024.2.4,Win32,59.88023952,5b29b956007d870001c82114,68817205a84113384fffdfe3,68822b24a9a7517e023e6031,,,,,,,,,,,,./stim/wavs/mexican_match_interrogative-total-yn_Daniel-iba-a-Bolivia.wav,1,,,121.6484,123.7639,1,1,1.5885,,0,24,24,13,1,14,0,mexican,,,,,,,,,,,,,,,,,,,,,,,,,,,,,,,,,,,,,,,,,,,,,,,,,,,,,,,,
,,,,,,,,,5b29b956007d870001c82114,Mexican,13 or older,"no, only English or Spanish",yes,2025-07-24_08h47.02.462,empathy_intonation_perc_control,2024.2.4,Win32,59.88023952,5b29b956007d870001c82114,68817205a84113384fffdfe3,68822b24a9a7517e023e6031,,,,,,,,,,,,./stim/wavs/mexican_match_declarative-broad-focus_David-leia-el-libro.wav,0,,,123.7646,126.0968,1,0,1.7989,,0,25,25,58,1,59,0,mexican,,,,,,,,,,,,,,,,,,,,,,,,,,,,,,,,,,,,,,,,,,,,,,,,,,,,,,,,
,,,,,,,,,5b29b956007d870001c82114,Mexican,13 or older,"no, only English or Spanish",yes,2025-07-24_08h47.02.462,empathy_intonation_perc_control,2024.2.4,Win32,59.88023952,5b29b956007d870001c82114,68817205a84113384fffdfe3,68822b24a9a7517e023e6031,,,,,,,,,,,,./stim/wavs/mexican_mismatch_interrogative-total-yn_La-maestra-vive-en-Paris.wav,1,,,126.0974,128.3471,1,1,1.7198,,0,26,26,36,1,37,0,mexican,,,,,,,,,,,,,,,,,,,,,,,,,,,,,,,,,,,,,,,,,,,,,,,,,,,,,,,,
,,,,,,,,,5b29b956007d870001c82114,Mexican,13 or older,"no, only English or Spanish",yes,2025-07-24_08h47.02.462,empathy_intonation_perc_control,2024.2.4,Win32,59.88023952,5b29b956007d870001c82114,68817205a84113384fffdfe3,68822b24a9a7517e023e6031,,,,,,,,,,,,./stim/wavs/puertorican_match_declarative-broad-focus_Ana-lleva-el-abrigo.wav,0,,,128.3478,131.7472,0,1,2.87,,0,27,27,62,1,63,0,puertorican,,,,,,,,,,,,,,,,,,,,,,,,,,,,,,,,,,,,,,,,,,,,,,,,,,,,,,,,
,,,,,,,,,5b29b956007d870001c82114,Mexican,13 or older,"no, only English or Spanish",yes,2025-07-24_08h47.02.462,empathy_intonation_perc_control,2024.2.4,Win32,59.88023952,5b29b956007d870001c82114,68817205a84113384fffdfe3,68822b24a9a7517e023e6031,,,,,,,,,,,,./stim/wavs/castilian_mismatch_interrogative-total-yn_La-nina-lava-el-plato.wav,1,,,131.7483,135.8805,1,1,3.608,,0,28,28,25,1,26,0,castilian,,,,,,,,,,,,,,,,,,,,,,,,,,,,,,,,,,,,,,,,,,,,,,,,,,,,,,,,
,,,,,,,,,5b29b956007d870001c82114,Mexican,13 or older,"no, only English or Spanish",yes,2025-07-24_08h47.02.462,empathy_intonation_perc_control,2024.2.4,Win32,59.88023952,5b29b956007d870001c82114,68817205a84113384fffdfe3,68822b24a9a7517e023e6031,,,,,,,,,,,,./stim/wavs/castilian_match_declarative-broad-focus_David-leia-el-libro.wav,0,,,135.8811,138.5805,0,1,2.1695,,0,29,29,44,1,45,0,castilian,,,,,,,,,,,,,,,,,,,,,,,,,,,,,,,,,,,,,,,,,,,,,,,,,,,,,,,,
,,,,,,,,,5b29b956007d870001c82114,Mexican,13 or older,"no, only English or Spanish",yes,2025-07-24_08h47.02.462,empathy_intonation_perc_control,2024.2.4,Win32,59.88023952,5b29b956007d870001c82114,68817205a84113384fffdfe3,68822b24a9a7517e023e6031,,,,,,,,,,,,./stim/wavs/puertorican_mismatch_declarative-broad-focus_El-hombre-mira-la-luna.wav,0,,,138.5814,140.9805,0,1,1.869,,0,30,30,84,1,85,0,puertorican,,,,,,,,,,,,,,,,,,,,,,,,,,,,,,,,,,,,,,,,,,,,,,,,,,,,,,,,
,,,,,,,,,5b29b956007d870001c82114,Mexican,13 or older,"no, only English or Spanish",yes,2025-07-24_08h47.02.462,empathy_intonation_perc_control,2024.2.4,Win32,59.88023952,5b29b956007d870001c82114,68817205a84113384fffdfe3,68822b24a9a7517e023e6031,,,,,,,,,,,,./stim/wavs/cuban_match_declarative-broad-focus_Ana-lleva-el-abrigo.wav,0,,,140.9812,143.5804,0,1,2.07,,0,31,31,50,1,51,0,cuban,,,,,,,,,,,,,,,,,,,,,,,,,,,,,,,,,,,,,,,,,,,,,,,,,,,,,,,,
,,,,,,,,,5b29b956007d870001c82114,Mexican,13 or older,"no, only English or Spanish",yes,2025-07-24_08h47.02.462,empathy_intonation_perc_control,2024.2.4,Win32,59.88023952,5b29b956007d870001c82114,68817205a84113384fffdfe3,68822b24a9a7517e023e6031,,,,,,,,,,,,./stim/wavs/puertorican_mismatch_declarative-broad-focus_El-bebe-comia-muy-bien.wav,0,,,143.5809,146.2136,1,0,2.1006,,0,32,32,83,1,84,0,puertorican,,,,,,,,,,,,,,,,,,,,,,,,,,,,,,,,,,,,,,,,,,,,,,,,,,,,,,,,
,,,,,,,,,5b29b956007d870001c82114,Mexican,13 or older,"no, only English or Spanish",yes,2025-07-24_08h47.02.462,empathy_intonation_perc_control,2024.2.4,Win32,59.88023952,5b29b956007d870001c82114,68817205a84113384fffdfe3,68822b24a9a7517e023e6031,,,,,,,,,,,,./stim/wavs/castilian_mismatch_declarative-broad-focus_Mi-tia-odia-la-lluvia.wav,0,,,146.2143,148.5631,0,1,1.8253,,0,33,33,72,1,73,0,castilian,,,,,,,,,,,,,,,,,,,,,,,,,,,,,,,,,,,,,,,,,,,,,,,,,,,,,,,,
,,,,,,,,,5b29b956007d870001c82114,Mexican,13 or older,"no, only English or Spanish",yes,2025-07-24_08h47.02.462,empathy_intonation_perc_control,2024.2.4,Win32,59.88023952,5b29b956007d870001c82114,68817205a84113384fffdfe3,68822b24a9a7517e023e6031,,,,,,,,,,,,./stim/wavs/puertorican_match_interrogative-total-yn_Emilio-ama-la-marcha.wav,1,,,148.5637,150.6135,0,0,1.5178,,0,34,34,21,1,22,1,puertorican,,,,,,,,,,,,,,,,,,,,,,,,,,,,,,,,,,,,,,,,,,,,,,,,,,,,,,,,
,,,,,,,,,5b29b956007d870001c82114,Mexican,13 or older,"no, only English or Spanish",yes,2025-07-24_08h47.02.462,empathy_intonation_perc_control,2024.2.4,Win32,59.88023952,5b29b956007d870001c82114,68817205a84113384fffdfe3,68822b24a9a7517e023e6031,,,,,,,,,,,,./stim/wavs/mexican_mismatch_interrogative-total-yn_El-nino-oye-el-rio.wav,1,,,150.6143,152.6964,1,1,1.5499,,0,35,35,35,1,36,0,mexican,,,,,,,,,,,,,,,,,,,,,,,,,,,,,,,,,,,,,,,,,,,,,,,,,,,,,,,,
,,,,,,,,,5b29b956007d870001c82114,Mexican,13 or older,"no, only English or Spanish",yes,2025-07-24_08h47.02.462,empathy_intonation_perc_control,2024.2.4,Win32,59.88023952,5b29b956007d870001c82114,68817205a84113384fffdfe3,68822b24a9a7517e023e6031,,,,,,,,,,,,./stim/wavs/puertorican_mismatch_interrogative-total-yn_Mi-madre-come-la-fruta.wav,1,,,152.697,154.9465,0,0,1.7271,,0,36,36,43,1,44,1,puertorican,,,,,,,,,,,,,,,,,,,,,,,,,,,,,,,,,,,,,,,,,,,,,,,,,,,,,,,,
,,,,,,,,,5b29b956007d870001c82114,Mexican,13 or older,"no, only English or Spanish",yes,2025-07-24_08h47.02.462,empathy_intonation_perc_control,2024.2.4,Win32,59.88023952,5b29b956007d870001c82114,68817205a84113384fffdfe3,68822b24a9a7517e023e6031,,,,,,,,,,,,./stim/wavs/puertorican_mismatch_declarative-broad-focus_La-nina-lava-el-plato.wav,0,,,154.9472,157.1801,0,1,1.7043,,0,37,37,87,1,88,0,puertorican,,,,,,,,,,,,,,,,,,,,,,,,,,,,,,,,,,,,,,,,,,,,,,,,,,,,,,,,
,,,,,,,,,5b29b956007d870001c82114,Mexican,13 or older,"no, only English or Spanish",yes,2025-07-24_08h47.02.462,empathy_intonation_perc_control,2024.2.4,Win32,59.88023952,5b29b956007d870001c82114,68817205a84113384fffdfe3,68822b24a9a7517e023e6031,,,,,,,,,,,,./stim/wavs/puertorican_mismatch_interrogative-total-yn_El-nino-oye-el-rio.wav,1,,,157.181,159.4299,0,0,1.724,,0,38,38,40,1,41,1,puertorican,,,,,,,,,,,,,,,,,,,,,,,,,,,,,,,,,,,,,,,,,,,,,,,,,,,,,,,,
,,,,,,,,,5b29b956007d870001c82114,Mexican,13 or older,"no, only English or Spanish",yes,2025-07-24_08h47.02.462,empathy_intonation_perc_control,2024.2.4,Win32,59.88023952,5b29b956007d870001c82114,68817205a84113384fffdfe3,68822b24a9a7517e023e6031,,,,,,,,,,,,./stim/wavs/cuban_match_interrogative-total-yn_Maria-bebe-el-vino.wav,1,,,159.4307,161.6131,0,0,1.6504,,0,39,39,9,1,10,1,cuban,,,,,,,,,,,,,,,,,,,,,,,,,,,,,,,,,,,,,,,,,,,,,,,,,,,,,,,,
,,,,,,,,,5b29b956007d870001c82114,Mexican,13 or older,"no, only English or Spanish",yes,2025-07-24_08h47.02.462,empathy_intonation_perc_control,2024.2.4,Win32,59.88023952,5b29b956007d870001c82114,68817205a84113384fffdfe3,68822b24a9a7517e023e6031,,,,,,,,,,,,./stim/wavs/cuban_match_interrogative-total-yn_Marta-abre-el-regalo.wav,1,,,161.6137,163.9967,0,0,1.8511,,0,40,40,11,1,12,1,cuban,,,,,,,,,,,,,,,,,,,,,,,,,,,,,,,,,,,,,,,,,,,,,,,,,,,,,,,,
,,,,,,,,,5b29b956007d870001c82114,Mexican,13 or older,"no, only English or Spanish",yes,2025-07-24_08h47.02.462,empathy_intonation_perc_control,2024.2.4,Win32,59.88023952,5b29b956007d870001c82114,68817205a84113384fffdfe3,68822b24a9a7517e023e6031,,,,,,,,,,,,./stim/wavs/mexican_match_declarative-broad-focus_Ana-lleva-el-abrigo.wav,0,,,163.9974,166.68,1,0,2.1522,,0,41,41,56,1,57,0,mexican,,,,,,,,,,,,,,,,,,,,,,,,,,,,,,,,,,,,,,,,,,,,,,,,,,,,,,,,
,,,,,,,,,5b29b956007d870001c82114,Mexican,13 or older,"no, only English or Spanish",yes,2025-07-24_08h47.02.462,empathy_intonation_perc_control,2024.2.4,Win32,59.88023952,5b29b956007d870001c82114,68817205a84113384fffdfe3,68822b24a9a7517e023e6031,,,,,,,,,,,,./stim/wavs/castilian_match_interrogative-total-yn_David-leia-el-libro.wav,1,,,166.6809,168.8628,1,1,1.6507,,0,42,42,0,1,1,0,castilian,,,,,,,,,,,,,,,,,,,,,,,,,,,,,,,,,,,,,,,,,,,,,,,,,,,,,,,,
,,,,,,,,,5b29b956007d870001c82114,Mexican,13 or older,"no, only English or Spanish",yes,2025-07-24_08h47.02.462,empathy_intonation_perc_control,2024.2.4,Win32,59.88023952,5b29b956007d870001c82114,68817205a84113384fffdfe3,68822b24a9a7517e023e6031,,,,,,,,,,,,./stim/wavs/castilian_mismatch_interrogative-total-yn_La-maestra-vive-en-Paris.wav,1,,,168.8635,171.5627,1,1,2.1681,,0,43,43,24,1,25,0,castilian,,,,,,,,,,,,,,,,,,,,,,,,,,,,,,,,,,,,,,,,,,,,,,,,,,,,,,,,
,,,,,,,,,5b29b956007d870001c82114,Mexican,13 or older,"no, only English or Spanish",yes,2025-07-24_08h47.02.462,empathy_intonation_perc_control,2024.2.4,Win32,59.88023952,5b29b956007d870001c82114,68817205a84113384fffdfe3,68822b24a9a7517e023e6031,,,,,,,,,,,,./stim/wavs/puertorican_match_declarative-broad-focus_Manuela-vende-el-carro.wav,0,,,171.5634,174.4468,0,1,2.355,,0,44,44,66,1,67,0,puertorican,,,,,,,,,,,,,,,,,,,,,,,,,,,,,,,,,,,,,,,,,,,,,,,,,,,,,,,,
,,,,,,,,,5b29b956007d870001c82114,Mexican,13 or older,"no, only English or Spanish",yes,2025-07-24_08h47.02.462,empathy_intonation_perc_control,2024.2.4,Win32,59.88023952,5b29b956007d870001c82114,68817205a84113384fffdfe3,68822b24a9a7517e023e6031,,,,,,,,,,,,./stim/wavs/castilian_match_declarative-broad-focus_Manuela-vende-el-carro.wav,0,,,174.4474,177.7126,0,1,2.7337,,0,45,45,46,1,47,0,castilian,,,,,,,,,,,,,,,,,,,,,,,,,,,,,,,,,,,,,,,,,,,,,,,,,,,,,,,,
,,,,,,,,,5b29b956007d870001c82114,Mexican,13 or older,"no, only English or Spanish",yes,2025-07-24_08h47.02.462,empathy_intonation_perc_control,2024.2.4,Win32,59.88023952,5b29b956007d870001c82114,68817205a84113384fffdfe3,68822b24a9a7517e023e6031,,,,,,,,,,,,./stim/wavs/castilian_match_interrogative-total-yn_Marta-abre-el-regalo.wav,1,,,177.7132,180.8462,1,1,2.6021,,0,46,46,5,1,6,0,castilian,,,,,,,,,,,,,,,,,,,,,,,,,,,,,,,,,,,,,,,,,,,,,,,,,,,,,,,,
,,,,,,,,,5b29b956007d870001c82114,Mexican,13 or older,"no, only English or Spanish",yes,2025-07-24_08h47.02.462,empathy_intonation_perc_control,2024.2.4,Win32,59.88023952,5b29b956007d870001c82114,68817205a84113384fffdfe3,68822b24a9a7517e023e6031,,,,,,,,,,,,./stim/wavs/mexican_match_interrogative-total-yn_Ana-lleva-el-abrigo.wav,1,,,180.8472,183.2797,1,1,1.9014,,0,47,47,12,1,13,0,mexican,,,,,,,,,,,,,,,,,,,,,,,,,,,,,,,,,,,,,,,,,,,,,,,,,,,,,,,,
,,,,,,,,,5b29b956007d870001c82114,Mexican,13 or older,"no, only English or Spanish",yes,2025-07-24_08h47.02.462,empathy_intonation_perc_control,2024.2.4,Win32,59.88023952,5b29b956007d870001c82114,68817205a84113384fffdfe3,68822b24a9a7517e023e6031,,,,,,,,,,,,./stim/wavs/cuban_mismatch_declarative-broad-focus_El-bebe-comia-muy-bien.wav,0,,,183.2804,186.3957,0,1,2.5928,,0,48,48,73,1,74,0,cuban,,,,,,,,,,,,,,,,,,,,,,,,,,,,,,,,,,,,,,,,,,,,,,,,,,,,,,,,
,,,,,,,,,5b29b956007d870001c82114,Mexican,13 or older,"no, only English or Spanish",yes,2025-07-24_08h47.02.462,empathy_intonation_perc_control,2024.2.4,Win32,59.88023952,5b29b956007d870001c82114,68817205a84113384fffdfe3,68822b24a9a7517e023e6031,,,,,,,,,,,,./stim/wavs/puertorican_match_declarative-broad-focus_Emilio-ama-la-marcha.wav,0,,,186.3966,189.396,1,0,2.4672,,0,49,49,65,1,66,0,puertorican,,,,,,,,,,,,,,,,,,,,,,,,,,,,,,,,,,,,,,,,,,,,,,,,,,,,,,,,
,,,,,,,,,5b29b956007d870001c82114,Mexican,13 or older,"no, only English or Spanish",yes,2025-07-24_08h47.02.462,empathy_intonation_perc_control,2024.2.4,Win32,59.88023952,5b29b956007d870001c82114,68817205a84113384fffdfe3,68822b24a9a7517e023e6031,,,,,,,,,,,,./stim/wavs/castilian_match_interrogative-total-yn_Mariano-habla-del-tiempo.wav,1,,,189.3968,191.9624,1,1,2.0356,,0,50,50,4,1,5,0,castilian,,,,,,,,,,,,,,,,,,,,,,,,,,,,,,,,,,,,,,,,,,,,,,,,,,,,,,,,
,,,,,,,,,5b29b956007d870001c82114,Mexican,13 or older,"no, only English or Spanish",yes,2025-07-24_08h47.02.462,empathy_intonation_perc_control,2024.2.4,Win32,59.88023952,5b29b956007d870001c82114,68817205a84113384fffdfe3,68822b24a9a7517e023e6031,,,,,,,,,,,,./stim/wavs/puertorican_match_interrogative-total-yn_Manuela-vende-el-carro.wav,1,,,191.9631,194.8296,0,0,2.3373,,0,51,51,22,1,23,1,puertorican,,,,,,,,,,,,,,,,,,,,,,,,,,,,,,,,,,,,,,,,,,,,,,,,,,,,,,,,
,,,,,,,,,5b29b956007d870001c82114,Mexican,13 or older,"no, only English or Spanish",yes,2025-07-24_08h47.02.462,empathy_intonation_perc_control,2024.2.4,Win32,59.88023952,5b29b956007d870001c82114,68817205a84113384fffdfe3,68822b24a9a7517e023e6031,,,,,,,,,,,,./stim/wavs/cuban_mismatch_declarative-broad-focus_Mi-novio-viene-del-lago.wav,0,,,194.8303,197.4623,0,1,2.1049,,0,52,52,76,1,77,0,cuban,,,,,,,,,,,,,,,,,,,,,,,,,,,,,,,,,,,,,,,,,,,,,,,,,,,,,,,,
,,,,,,,,,5b29b956007d870001c82114,Mexican,13 or older,"no, only English or Spanish",yes,2025-07-24_08h47.02.462,empathy_intonation_perc_control,2024.2.4,Win32,59.88023952,5b29b956007d870001c82114,68817205a84113384fffdfe3,68822b24a9a7517e023e6031,,,,,,,,,,,,./stim/wavs/castilian_mismatch_declarative-broad-focus_Mi-novio-viene-del-lago.wav,0,,,197.4628,199.529,1,0,1.5381,,0,53,53,71,1,72,0,castilian,,,,,,,,,,,,,,,,,,,,,,,,,,,,,,,,,,,,,,,,,,,,,,,,,,,,,,,,
,,,,,,,,,5b29b956007d870001c82114,Mexican,13 or older,"no, only English or Spanish",yes,2025-07-24_08h47.02.462,empathy_intonation_perc_control,2024.2.4,Win32,59.88023952,5b29b956007d870001c82114,68817205a84113384fffdfe3,68822b24a9a7517e023e6031,,,,,,,,,,,,./stim/wavs/puertorican_match_interrogative-total-yn_Maria-bebe-el-vino.wav,1,,,199.5296,202.0293,0,0,1.9681,,0,54,54,23,1,24,1,puertorican,,,,,,,,,,,,,,,,,,,,,,,,,,,,,,,,,,,,,,,,,,,,,,,,,,,,,,,,
,,,,,,,,,5b29b956007d870001c82114,Mexican,13 or older,"no, only English or Spanish",yes,2025-07-24_08h47.02.462,empathy_intonation_perc_control,2024.2.4,Win32,59.88023952,5b29b956007d870001c82114,68817205a84113384fffdfe3,68822b24a9a7517e023e6031,,,,,,,,,,,,./stim/wavs/puertorican_mismatch_interrogative-total-yn_La-maestra-vive-en-Paris.wav,1,,,202.03,205.7624,0,0,3.1995,,0,55,55,41,1,42,1,puertorican,,,,,,,,,,,,,,,,,,,,,,,,,,,,,,,,,,,,,,,,,,,,,,,,,,,,,,,,
,,,,,,,,,5b29b956007d870001c82114,Mexican,13 or older,"no, only English or Spanish",yes,2025-07-24_08h47.02.462,empathy_intonation_perc_control,2024.2.4,Win32,59.88023952,5b29b956007d870001c82114,68817205a84113384fffdfe3,68822b24a9a7517e023e6031,,,,,,,,,,,,./stim/wavs/puertorican_mismatch_interrogative-total-yn_El-hombre-mira-la-luna.wav,1,,,205.7631,208.079,1,1,1.7971,,0,56,56,39,1,40,1,puertorican,,,,,,,,,,,,,,,,,,,,,,,,,,,,,,,,,,,,,,,,,,,,,,,,,,,,,,,,
,,,,,,,,,5b29b956007d870001c82114,Mexican,13 or older,"no, only English or Spanish",yes,2025-07-24_08h47.02.462,empathy_intonation_perc_control,2024.2.4,Win32,59.88023952,5b29b956007d870001c82114,68817205a84113384fffdfe3,68822b24a9a7517e023e6031,,,,,,,,,,,,./stim/wavs/cuban_mismatch_interrogative-total-yn_Mi-novio-viene-del-lago.wav,1,,,208.0799,210.379,0,0,1.7688,,0,57,57,32,1,33,1,cuban,,,,,,,,,,,,,,,,,,,,,,,,,,,,,,,,,,,,,,,,,,,,,,,,,,,,,,,,
,,,,,,,,,5b29b956007d870001c82114,Mexican,13 or older,"no, only English or Spanish",yes,2025-07-24_08h47.02.462,empathy_intonation_perc_control,2024.2.4,Win32,59.88023952,5b29b956007d870001c82114,68817205a84113384fffdfe3,68822b24a9a7517e023e6031,,,,,,,,,,,,./stim/wavs/mexican_match_declarative-broad-focus_Daniel-iba-a-Bolivia.wav,0,,,210.3798,212.9953,0,1,2.0876,,0,58,58,57,1,58,0,mexican,,,,,,,,,,,,,,,,,,,,,,,,,,,,,,,,,,,,,,,,,,,,,,,,,,,,,,,,
,,,,,,,,,5b29b956007d870001c82114,Mexican,13 or older,"no, only English or Spanish",yes,2025-07-24_08h47.02.462,empathy_intonation_perc_control,2024.2.4,Win32,59.88023952,5b29b956007d870001c82114,68817205a84113384fffdfe3,68822b24a9a7517e023e6031,,,,,,,,,,,,./stim/wavs/puertorican_match_declarative-broad-focus_David-leia-el-libro.wav,0,,,212.996,215.9625,0,1,2.461,,0,59,59,64,1,65,0,puertorican,,,,,,,,,,,,,,,,,,,,,,,,,,,,,,,,,,,,,,,,,,,,,,,,,,,,,,,,
,,,,,,,,,5b29b956007d870001c82114,Mexican,13 or older,"no, only English or Spanish",yes,2025-07-24_08h47.02.462,empathy_intonation_perc_control,2024.2.4,Win32,59.88023952,5b29b956007d870001c82114,68817205a84113384fffdfe3,68822b24a9a7517e023e6031,,,,,,,,,,,,./stim/wavs/cuban_match_interrogative-total-yn_Daniel-iba-a-Bolivia.wav,1,,,215.9633,218.4292,0,0,1.9344,,0,60,60,7,1,8,1,cuban,,,,,,,,,,,,,,,,,,,,,,,,,,,,,,,,,,,,,,,,,,,,,,,,,,,,,,,,
,,,,,,,,,5b29b956007d870001c82114,Mexican,13 or older,"no, only English or Spanish",yes,2025-07-24_08h47.02.462,empathy_intonation_perc_control,2024.2.4,Win32,59.88023952,5b29b956007d870001c82114,68817205a84113384fffdfe3,68822b24a9a7517e023e6031,,,,,,,,,,,,./stim/wavs/cuban_match_declarative-broad-focus_Marta-abre-el-regalo.wav,0,,,218.4298,220.6286,0,1,1.6733,,0,61,61,55,1,56,0,cuban,,,,,,,,,,,,,,,,,,,,,,,,,,,,,,,,,,,,,,,,,,,,,,,,,,,,,,,,
,,,,,,,,,5b29b956007d870001c82114,Mexican,13 or older,"no, only English or Spanish",yes,2025-07-24_08h47.02.462,empathy_intonation_perc_control,2024.2.4,Win32,59.88023952,5b29b956007d870001c82114,68817205a84113384fffdfe3,68822b24a9a7517e023e6031,,,,,,,,,,,,./stim/wavs/castilian_mismatch_declarative-broad-focus_La-maestra-vive-en-Paris.wav,0,,,220.6293,223.0301,1,0,1.8782,,0,62,62,69,1,70,0,castilian,,,,,,,,,,,,,,,,,,,,,,,,,,,,,,,,,,,,,,,,,,,,,,,,,,,,,,,,
,,,,,,,,,5b29b956007d870001c82114,Mexican,13 or older,"no, only English or Spanish",yes,2025-07-24_08h47.02.462,empathy_intonation_perc_control,2024.2.4,Win32,59.88023952,5b29b956007d870001c82114,68817205a84113384fffdfe3,68822b24a9a7517e023e6031,,,,,,,,,,,,./stim/wavs/cuban_mismatch_interrogative-total-yn_El-hombre-mira-la-luna.wav,1,,,223.0308,225.179,0,0,1.6202,,0,63,63,29,1,30,1,cuban,,,,,,,,,,,,,,,,,,,,,,,,,,,,,,,,,,,,,,,,,,,,,,,,,,,,,,,,
,,,,,,,,,5b29b956007d870001c82114,Mexican,13 or older,"no, only English or Spanish",yes,2025-07-24_08h47.02.462,empathy_intonation_perc_control,2024.2.4,Win32,59.88023952,5b29b956007d870001c82114,68817205a84113384fffdfe3,68822b24a9a7517e023e6031,,,,,,,,,,,,./stim/wavs/cuban_match_interrogative-total-yn_Ana-lleva-el-abrigo.wav,1,,,225.1797,227.4621,0,0,1.7547,,0,64,64,6,1,7,1,cuban,,,,,,,,,,,,,,,,,,,,,,,,,,,,,,,,,,,,,,,,,,,,,,,,,,,,,,,,
,,,,,,,,,5b29b956007d870001c82114,Mexican,13 or older,"no, only English or Spanish",yes,2025-07-24_08h47.02.462,empathy_intonation_perc_control,2024.2.4,Win32,59.88023952,5b29b956007d870001c82114,68817205a84113384fffdfe3,68822b24a9a7517e023e6031,,,,,,,,,,,,./stim/wavs/castilian_match_interrogative-total-yn_Manuela-vende-el-carro.wav,1,,,227.4628,229.7286,1,1,1.7359,,0,65,65,2,1,3,0,castilian,,,,,,,,,,,,,,,,,,,,,,,,,,,,,,,,,,,,,,,,,,,,,,,,,,,,,,,,
,,,,,,,,,5b29b956007d870001c82114,Mexican,13 or older,"no, only English or Spanish",yes,2025-07-24_08h47.02.462,empathy_intonation_perc_control,2024.2.4,Win32,59.88023952,5b29b956007d870001c82114,68817205a84113384fffdfe3,68822b24a9a7517e023e6031,,,,,,,,,,,,./stim/wavs/mexican_mismatch_interrogative-total-yn_El-hombre-mira-la-luna.wav,1,,,229.7292,231.6619,1,1,1.4007,,0,66,66,34,1,35,0,mexican,,,,,,,,,,,,,,,,,,,,,,,,,,,,,,,,,,,,,,,,,,,,,,,,,,,,,,,,
,,,,,,,,,5b29b956007d870001c82114,Mexican,13 or older,"no, only English or Spanish",yes,2025-07-24_08h47.02.462,empathy_intonation_perc_control,2024.2.4,Win32,59.88023952,5b29b956007d870001c82114,68817205a84113384fffdfe3,68822b24a9a7517e023e6031,,,,,,,,,,,,./stim/wavs/castilian_mismatch_interrogative-total-yn_Mi-madre-come-la-fruta.wav,1,,,231.6626,234.2283,1,1,2.0433,,0,67,67,26,1,27,0,castilian,,,,,,,,,,,,,,,,,,,,,,,,,,,,,,,,,,,,,,,,,,,,,,,,,,,,,,,,
,,,,,,,,,5b29b956007d870001c82114,Mexican,13 or older,"no, only English or Spanish",yes,2025-07-24_08h47.02.462,empathy_intonation_perc_control,2024.2.4,Win32,59.88023952,5b29b956007d870001c82114,68817205a84113384fffdfe3,68822b24a9a7517e023e6031,,,,,,,,,,,,./stim/wavs/puertorican_mismatch_interrogative-total-yn_La-nina-lava-el-plato.wav,1,,,234.229,238.0119,0,0,3.2533,,0,68,68,42,1,43,1,puertorican,,,,,,,,,,,,,,,,,,,,,,,,,,,,,,,,,,,,,,,,,,,,,,,,,,,,,,,,
,,,,,,,,,5b29b956007d870001c82114,Mexican,13 or older,"no, only English or Spanish",yes,2025-07-24_08h47.02.462,empathy_intonation_perc_control,2024.2.4,Win32,59.88023952,5b29b956007d870001c82114,68817205a84113384fffdfe3,68822b24a9a7517e023e6031,,,,,,,,,,,,./stim/wavs/puertorican_match_interrogative-total-yn_Daniel-iba-a-Bolivia.wav,1,,,238.0126,240.4785,0,0,1.9507,,0,69,69,19,1,20,1,puertorican,,,,,,,,,,,,,,,,,,,,,,,,,,,,,,,,,,,,,,,,,,,,,,,,,,,,,,,,
,,,,,,,,,5b29b956007d870001c82114,Mexican,13 or older,"no, only English or Spanish",yes,2025-07-24_08h47.02.462,empathy_intonation_perc_control,2024.2.4,Win32,59.88023952,5b29b956007d870001c82114,68817205a84113384fffdfe3,68822b24a9a7517e023e6031,,,,,,,,,,,,./stim/wavs/castilian_match_interrogative-total-yn_Emilio-ama-la-marcha.wav,1,,,240.4793,242.6949,1,1,1.6932,,0,70,70,1,1,2,0,castilian,,,,,,,,,,,,,,,,,,,,,,,,,,,,,,,,,,,,,,,,,,,,,,,,,,,,,,,,
,,,,,,,,,5b29b956007d870001c82114,Mexican,13 or older,"no, only English or Spanish",yes,2025-07-24_08h47.02.462,empathy_intonation_perc_control,2024.2.4,Win32,59.88023952,5b29b956007d870001c82114,68817205a84113384fffdfe3,68822b24a9a7517e023e6031,,,,,,,,,,,,./stim/wavs/mexican_mismatch_declarative-broad-focus_El-bebe-comia-muy-bien.wav,0,,,242.6954,245.3116,1,0,2.0897,,0,71,71,78,1,79,0,mexican,,,,,,,,,,,,,,,,,,,,,,,,,,,,,,,,,,,,,,,,,,,,,,,,,,,,,,,,
,,,,,,,,,5b29b956007d870001c82114,Mexican,13 or older,"no, only English or Spanish",yes,2025-07-24_08h47.02.462,empathy_intonation_perc_control,2024.2.4,Win32,59.88023952,5b29b956007d870001c82114,68817205a84113384fffdfe3,68822b24a9a7517e023e6031,,,,,,,,,,,,./stim/wavs/mexican_mismatch_interrogative-total-yn_Mi-tia-odia-la-lluvia.wav,1,,,245.3122,247.5782,1,1,1.7378,,0,72,72,38,1,39,0,mexican,,,,,,,,,,,,,,,,,,,,,,,,,,,,,,,,,,,,,,,,,,,,,,,,,,,,,,,,
,,,,,,,,,5b29b956007d870001c82114,Mexican,13 or older,"no, only English or Spanish",yes,2025-07-24_08h47.02.462,empathy_intonation_perc_control,2024.2.4,Win32,59.88023952,5b29b956007d870001c82114,68817205a84113384fffdfe3,68822b24a9a7517e023e6031,,,,,,,,,,,,./stim/wavs/mexican_mismatch_interrogative-total-yn_Mi-novio-viene-del-lago.wav,1,,,247.5789,249.7282,1,1,1.6207,,0,73,73,37,1,38,0,mexican,,,,,,,,,,,,,,,,,,,,,,,,,,,,,,,,,,,,,,,,,,,,,,,,,,,,,,,,
,,,,,,,,,5b29b956007d870001c82114,Mexican,13 or older,"no, only English or Spanish",yes,2025-07-24_08h47.02.462,empathy_intonation_perc_control,2024.2.4,Win32,59.88023952,5b29b956007d870001c82114,68817205a84113384fffdfe3,68822b24a9a7517e023e6031,,,,,,,,,,,,./stim/wavs/cuban_mismatch_interrogative-total-yn_El-nino-oye-el-rio.wav,1,,,249.7289,251.6284,0,0,1.3689,,0,74,74,30,1,31,1,cuban,,,,,,,,,,,,,,,,,,,,,,,,,,,,,,,,,,,,,,,,,,,,,,,,,,,,,,,,
,,,,,,,,,5b29b956007d870001c82114,Mexican,13 or older,"no, only English or Spanish",yes,2025-07-24_08h47.02.462,empathy_intonation_perc_control,2024.2.4,Win32,59.88023952,5b29b956007d870001c82114,68817205a84113384fffdfe3,68822b24a9a7517e023e6031,,,,,,,,,,,,./stim/wavs/castilian_match_declarative-broad-focus_Mariano-habla-del-tiempo.wav,0,,,251.629,254.128,0,1,1.9677,,0,75,75,48,1,49,0,castilian,,,,,,,,,,,,,,,,,,,,,,,,,,,,,,,,,,,,,,,,,,,,,,,,,,,,,,,,
,,,,,,,,,5b29b956007d870001c82114,Mexican,13 or older,"no, only English or Spanish",yes,2025-07-24_08h47.02.462,empathy_intonation_perc_control,2024.2.4,Win32,59.88023952,5b29b956007d870001c82114,68817205a84113384fffdfe3,68822b24a9a7517e023e6031,,,,,,,,,,,,./stim/wavs/mexican_mismatch_declarative-broad-focus_Mi-novio-viene-del-lago.wav,0,,,254.1286,256.3114,0,1,1.6525,,0,76,76,81,1,82,0,mexican,,,,,,,,,,,,,,,,,,,,,,,,,,,,,,,,,,,,,,,,,,,,,,,,,,,,,,,,
,,,,,,,,,5b29b956007d870001c82114,Mexican,13 or older,"no, only English or Spanish",yes,2025-07-24_08h47.02.462,empathy_intonation_perc_control,2024.2.4,Win32,59.88023952,5b29b956007d870001c82114,68817205a84113384fffdfe3,68822b24a9a7517e023e6031,,,,,,,,,,,,./stim/wavs/cuban_mismatch_declarative-broad-focus_La-nina-lava-el-plato.wav,0,,,256.3121,258.7112,0,1,1.8848,,0,77,77,75,1,76,0,cuban,,,,,,,,,,,,,,,,,,,,,,,,,,,,,,,,,,,,,,,,,,,,,,,,,,,,,,,,
,,,,,,,,,5b29b956007d870001c82114,Mexican,13 or older,"no, only English or Spanish",yes,2025-07-24_08h47.02.462,empathy_intonation_perc_control,2024.2.4,Win32,59.88023952,5b29b956007d870001c82114,68817205a84113384fffdfe3,68822b24a9a7517e023e6031,,,,,,,,,,,,./stim/wavs/cuban_mismatch_interrogative-total-yn_Mi-tia-odia-la-lluvia.wav,1,,,258.7118,261.5111,1,1,2.2683,,0,78,78,33,1,34,1,cuban,,,,,,,,,,,,,,,,,,,,,,,,,,,,,,,,,,,,,,,,,,,,,,,,,,,,,,,,
,,,,,,,,,5b29b956007d870001c82114,Mexican,13 or older,"no, only English or Spanish",yes,2025-07-24_08h47.02.462,empathy_intonation_perc_control,2024.2.4,Win32,59.88023952,5b29b956007d870001c82114,68817205a84113384fffdfe3,68822b24a9a7517e023e6031,,,,,,,,,,,,./stim/wavs/cuban_match_declarative-broad-focus_Maria-bebe-el-vino.wav,0,,,261.5118,264.0448,0,1,1.9996,,0,79,79,53,1,54,0,cuban,,,,,,,,,,,,,,,,,,,,,,,,,,,,,,,,,,,,,,,,,,,,,,,,,,,,,,,,
,,,,,,,,,5b29b956007d870001c82114,Mexican,13 or older,"no, only English or Spanish",yes,2025-07-24_08h47.02.462,empathy_intonation_perc_control,2024.2.4,Win32,59.88023952,5b29b956007d870001c82114,68817205a84113384fffdfe3,68822b24a9a7517e023e6031,,,,,,,,,,,,./stim/wavs/mexican_match_declarative-broad-focus_Emilio-ama-la-marcha.wav,0,,,264.0455,267.1947,0,1,2.6209,,0,80,80,59,1,60,0,mexican,,,,,,,,,,,,,,,,,,,,,,,,,,,,,,,,,,,,,,,,,,,,,,,,,,,,,,,,
,,,,,,,,,5b29b956007d870001c82114,Mexican,13 or older,"no, only English or Spanish",yes,2025-07-24_08h47.02.462,empathy_intonation_perc_control,2024.2.4,Win32,59.88023952,5b29b956007d870001c82114,68817205a84113384fffdfe3,68822b24a9a7517e023e6031,,,,,,,,,,,,./stim/wavs/puertorican_match_declarative-broad-focus_Daniel-iba-a-Bolivia.wav,0,,,267.1953,270.2944,0,1,2.5671,,0,81,81,63,1,64,0,puertorican,,,,,,,,,,,,,,,,,,,,,,,,,,,,,,,,,,,,,,,,,,,,,,,,,,,,,,,,
,,,,,,,,,5b29b956007d870001c82114,Mexican,13 or older,"no, only English or Spanish",yes,2025-07-24_08h47.02.462,empathy_intonation_perc_control,2024.2.4,Win32,59.88023952,5b29b956007d870001c82114,68817205a84113384fffdfe3,68822b24a9a7517e023e6031,,,,,,,,,,,,./stim/wavs/puertorican_match_interrogative-total-yn_David-leia-el-libro.wav,1,,,270.295,272.1772,1,1,1.3591,,0,82,82,20,1,21,1,puertorican,,,,,,,,,,,,,,,,,,,,,,,,,,,,,,,,,,,,,,,,,,,,,,,,,,,,,,,,
,,,,,,,,,5b29b956007d870001c82114,Mexican,13 or older,"no, only English or Spanish",yes,2025-07-24_08h47.02.462,empathy_intonation_perc_control,2024.2.4,Win32,59.88023952,5b29b956007d870001c82114,68817205a84113384fffdfe3,68822b24a9a7517e023e6031,,,,,,,,,,,,./stim/wavs/mexican_match_interrogative-total-yn_Emilio-ama-la-marcha.wav,1,,,272.1778,274.3776,1,1,1.6908,,0,83,83,15,1,16,0,mexican,,,,,,,,,,,,,,,,,,,,,,,,,,,,,,,,,,,,,,,,,,,,,,,,,,,,,,,,
,,,,,,,,,5b29b956007d870001c82114,Mexican,13 or older,"no, only English or Spanish",yes,2025-07-24_08h47.02.462,empathy_intonation_perc_control,2024.2.4,Win32,59.88023952,5b29b956007d870001c82114,68817205a84113384fffdfe3,68822b24a9a7517e023e6031,,,,,,,,,,,,./stim/wavs/castilian_mismatch_declarative-broad-focus_La-nina-lava-el-plato.wav,0,,,274.3782,276.7447,0,1,1.8411,,0,84,84,70,1,71,0,castilian,,,,,,,,,,,,,,,,,,,,,,,,,,,,,,,,,,,,,,,,,,,,,,,,,,,,,,,,
,,,,,,,,,5b29b956007d870001c82114,Mexican,13 or older,"no, only English or Spanish",yes,2025-07-24_08h47.02.462,empathy_intonation_perc_control,2024.2.4,Win32,59.88023952,5b29b956007d870001c82114,68817205a84113384fffdfe3,68822b24a9a7517e023e6031,,,,,,,,,,,,./stim/wavs/puertorican_match_declarative-broad-focus_Maria-bebe-el-vino.wav,0,,,276.7454,279.1943,0,1,1.9191,,0,85,85,67,1,68,0,puertorican,,,,,,,,,,,,,,,,,,,,,,,,,,,,,,,,,,,,,,,,,,,,,,,,,,,,,,,,
,,,,,,,,,5b29b956007d870001c82114,Mexican,13 or older,"no, only English or Spanish",yes,2025-07-24_08h47.02.462,empathy_intonation_perc_control,2024.2.4,Win32,59.88023952,5b29b956007d870001c82114,68817205a84113384fffdfe3,68822b24a9a7517e023e6031,,,,,,,,,,,,./stim/wavs/castilian_match_declarative-broad-focus_Maria-bebe-el-vino.wav,0,,,279.1951,281.3612,0,1,1.639,,0,86,86,47,1,48,0,castilian,,,,,,,,,,,,,,,,,,,,,,,,,,,,,,,,,,,,,,,,,,,,,,,,,,,,,,,,
,,,,,,,,,5b29b956007d870001c82114,Mexican,13 or older,"no, only English or Spanish",yes,2025-07-24_08h47.02.462,empathy_intonation_perc_control,2024.2.4,Win32,59.88023952,5b29b956007d870001c82114,68817205a84113384fffdfe3,68822b24a9a7517e023e6031,,,,,,,,,,,,./stim/wavs/mexican_mismatch_declarative-broad-focus_Mi-tia-odia-la-lluvia.wav,0,,,281.362,283.8282,0,1,1.9442,,0,87,87,82,1,83,0,mexican,,,,,,,,,,,,,,,,,,,,,,,,,,,,,,,,,,,,,,,,,,,,,,,,,,,,,,,,
,,,,,,,"Great! Now we will move on. The next task consists of about 60 trials, in each of which you will see a string of letters. 
  
  Your task is to decide whether this is a real Spanish word or not.", (press the spacebar to continue),5b29b956007d870001c82114,Mexican,13 or older,"no, only English or Spanish",yes,2025-07-24_08h47.02.462,empathy_intonation_perc_control,2024.2.4,Win32,59.88023952,5b29b956007d870001c82114,68817205a84113384fffdfe3,68822b24a9a7517e023e6031,,,,,,,,,,,,,,,,,,,,,,,,,,,,,,283.8347,290.3443,0,0,0,0,1,,,,,,,,,,,,,,,,,,,,,,,,,,,,,,,,,,,,,,,,,,,,,,,,,
,,,,,,,"If you think it is an existing Spanish word, you type '1' (for 'REAL'), and if you think it is not an existing Spanish word, you type '0' (for 'FAKE').", (press the spacebar to continue),5b29b956007d870001c82114,Mexican,13 or older,"no, only English or Spanish",yes,2025-07-24_08h47.02.462,empathy_intonation_perc_control,2024.2.4,Win32,59.88023952,5b29b956007d870001c82114,68817205a84113384fffdfe3,68822b24a9a7517e023e6031,,,,,,,,,,,,,,,,,,,,,,,,,,,,,,290.3478,293.5277,0,1,1,1,1,,,,,,,,,,,,,,,,,,,,,,,,,,,,,,,,,,,,,,,,,,,,,,,,,
,,,,,,,"If you are sure that the word exists, even though you don’t know its exact meaning, you may still respond '1' (REAL). 
  
  But if you are not sure if it is an existing word, you should respond '0' (FAKE).
  
  Let's do a practice round...", (press the spacebar to continue),5b29b956007d870001c82114,Mexican,13 or older,"no, only English or Spanish",yes,2025-07-24_08h47.02.462,empathy_intonation_perc_control,2024.2.4,Win32,59.88023952,5b29b956007d870001c82114,68817205a84113384fffdfe3,68822b24a9a7517e023e6031,,,,,,,,,,,,,,,,,,,,,,,,,,,,,,293.5299,295.3606,0,2,2,2,1,,,,,,,,,,,,,,,,,,,,,,,,,,,,,,,,,,,,,,,,,,,,,,,,,
,,,,,,,,,5b29b956007d870001c82114,Mexican,13 or older,"no, only English or Spanish",yes,2025-07-24_08h47.02.462,empathy_intonation_perc_control,2024.2.4,Win32,59.88023952,5b29b956007d870001c82114,68817205a84113384fffdfe3,68822b24a9a7517e023e6031,,,,,,,,,,,,,0,,,,,,,,,,,,,,,,,,,,,,,,295.3668,297.4606,1,0,1.5647,,297.4608,298.4613,0,0,0,0,1,0,depiste,REAL,FAKE,,,,,,,,,,,,,,,,,,,,,,,,,,,,,,,,
,,,,,,,,,5b29b956007d870001c82114,Mexican,13 or older,"no, only English or Spanish",yes,2025-07-24_08h47.02.462,empathy_intonation_perc_control,2024.2.4,Win32,59.88023952,5b29b956007d870001c82114,68817205a84113384fffdfe3,68822b24a9a7517e023e6031,,,,,,,,,,,,,1,,,,,,,,,,,,,,,,,,,,,,,,298.4634,300.0937,1,1,1.103,,300.095,301.0945,0,1,1,1,1,0,sí,REAL,FAKE,,,,,,,,,,,,,,,,,,,,,,,,,,,,,,,,
,,,,,,,,,5b29b956007d870001c82114,Mexican,13 or older,"no, only English or Spanish",yes,2025-07-24_08h47.02.462,empathy_intonation_perc_control,2024.2.4,Win32,59.88023952,5b29b956007d870001c82114,68817205a84113384fffdfe3,68822b24a9a7517e023e6031,,,,,,,,,,,,,0,,,,,,,,,,,,,,,,,,,,,,,,301.0964,303.1775,1,0,1.5462,,303.1787,304.1774,0,2,2,2,1,0,coné,REAL,FAKE,,,,,,,,,,,,,,,,,,,,,,,,,,,,,,,,
,,,,,,,,,5b29b956007d870001c82114,Mexican,13 or older,"no, only English or Spanish",yes,2025-07-24_08h47.02.462,empathy_intonation_perc_control,2024.2.4,Win32,59.88023952,5b29b956007d870001c82114,68817205a84113384fffdfe3,68822b24a9a7517e023e6031,,,,,,,,,,,,,0,,,,,,,,,,,,,,,,,,,,,,,,304.1791,305.694,1,0,0.983,,305.694,306.6941,0,3,3,3,1,0,calpar,REAL,FAKE,,,,,,,,,,,,,,,,,,,,,,,,,,,,,,,,
,,,,,,,,,5b29b956007d870001c82114,Mexican,13 or older,"no, only English or Spanish",yes,2025-07-24_08h47.02.462,empathy_intonation_perc_control,2024.2.4,Win32,59.88023952,5b29b956007d870001c82114,68817205a84113384fffdfe3,68822b24a9a7517e023e6031,,,,,,,,,,,,,0,,,,,,,,,,,,,,,,,,,,,,,,306.6956,308.5938,0,1,1.3621,,308.5946,309.5937,0,4,4,4,1,0,joten,REAL,FAKE,,,,,,,,,,,,,,,,,,,,,,,,,,,,,,,,
,,,,,,,,,5b29b956007d870001c82114,Mexican,13 or older,"no, only English or Spanish",yes,2025-07-24_08h47.02.462,empathy_intonation_perc_control,2024.2.4,Win32,59.88023952,5b29b956007d870001c82114,68817205a84113384fffdfe3,68822b24a9a7517e023e6031,,,,,,,,,,,,,1,,,,,,,,,,,,,,,,,,,,,,,,309.5951,311.5772,1,1,1.4494,,311.5773,312.5774,0,5,5,5,1,0,sacapuntas,REAL,FAKE,,,,,,,,,,,,,,,,,,,,,,,,,,,,,,,,
,,,,,,,,,5b29b956007d870001c82114,Mexican,13 or older,"no, only English or Spanish",yes,2025-07-24_08h47.02.462,empathy_intonation_perc_control,2024.2.4,Win32,59.88023952,5b29b956007d870001c82114,68817205a84113384fffdfe3,68822b24a9a7517e023e6031,,,,,,,,,,,,,0,,,,,,,,,,,,,,,,,,,,,,,,312.5796,314.1603,1,0,1.0459,,314.1613,315.1606,0,6,6,6,1,0,priba,REAL,FAKE,,,,,,,,,,,,,,,,,,,,,,,,,,,,,,,,
,,,,,,,,,5b29b956007d870001c82114,Mexican,13 or older,"no, only English or Spanish",yes,2025-07-24_08h47.02.462,empathy_intonation_perc_control,2024.2.4,Win32,59.88023952,5b29b956007d870001c82114,68817205a84113384fffdfe3,68822b24a9a7517e023e6031,,,,,,,,,,,,,0,,,,,,,,,,,,,,,,,,,,,,,,315.1627,317.1935,0,1,1.498,,317.1942,318.1938,0,7,7,7,1,0,pelasula,REAL,FAKE,,,,,,,,,,,,,,,,,,,,,,,,,,,,,,,,
,,,,,,,,,5b29b956007d870001c82114,Mexican,13 or older,"no, only English or Spanish",yes,2025-07-24_08h47.02.462,empathy_intonation_perc_control,2024.2.4,Win32,59.88023952,5b29b956007d870001c82114,68817205a84113384fffdfe3,68822b24a9a7517e023e6031,,,,,,,,,,,,,1,,,,,,,,,,,,,,,,,,,,,,,,318.1951,319.7272,1,1,0.9967,,319.7272,320.7271,0,8,8,8,1,0,bien,REAL,FAKE,,,,,,,,,,,,,,,,,,,,,,,,,,,,,,,,
,,,,,,,,,5b29b956007d870001c82114,Mexican,13 or older,"no, only English or Spanish",yes,2025-07-24_08h47.02.462,empathy_intonation_perc_control,2024.2.4,Win32,59.88023952,5b29b956007d870001c82114,68817205a84113384fffdfe3,68822b24a9a7517e023e6031,,,,,,,,,,,,,1,,,,,,,,,,,,,,,,,,,,,,,,320.7288,321.9603,1,1,0.6972,,321.9604,322.9605,0,9,9,9,1,0,casa,REAL,FAKE,,,,,,,,,,,,,,,,,,,,,,,,,,,,,,,,
,,,,,,,,,5b29b956007d870001c82114,Mexican,13 or older,"no, only English or Spanish",yes,2025-07-24_08h47.02.462,empathy_intonation_perc_control,2024.2.4,Win32,59.88023952,5b29b956007d870001c82114,68817205a84113384fffdfe3,68822b24a9a7517e023e6031,,,,,,,,,,,,,0,,,,,,,,,,,,,,,,,,,,,,,,322.9627,324.3769,1,0,0.878,,324.378,325.3766,0,10,10,10,1,0,lejo,REAL,FAKE,,,,,,,,,,,,,,,,,,,,,,,,,,,,,,,,
,,,,,,,,,5b29b956007d870001c82114,Mexican,13 or older,"no, only English or Spanish",yes,2025-07-24_08h47.02.462,empathy_intonation_perc_control,2024.2.4,Win32,59.88023952,5b29b956007d870001c82114,68817205a84113384fffdfe3,68822b24a9a7517e023e6031,,,,,,,,,,,,,0,,,,,,,,,,,,,,,,,,,,,,,,325.3784,327.4764,0,1,1.5641,,327.4772,328.4769,0,11,11,11,1,0,pretantas,REAL,FAKE,,,,,,,,,,,,,,,,,,,,,,,,,,,,,,,,
,,,,,,,,,5b29b956007d870001c82114,Mexican,13 or older,"no, only English or Spanish",yes,2025-07-24_08h47.02.462,empathy_intonation_perc_control,2024.2.4,Win32,59.88023952,5b29b956007d870001c82114,68817205a84113384fffdfe3,68822b24a9a7517e023e6031,,,,,,,,,,,,,,,,,,,,,,,,,,,,,,,,,,,,,,,,,,,,,,,,,,,,,,328.4773,329.6772,,,,,,,,,,,,,,,,,,,,,,,,,,,,,,
,,,,,,,,,5b29b956007d870001c82114,Mexican,13 or older,"no, only English or Spanish",yes,2025-07-24_08h47.02.462,empathy_intonation_perc_control,2024.2.4,Win32,59.88023952,5b29b956007d870001c82114,68817205a84113384fffdfe3,68822b24a9a7517e023e6031,,,,,,,,,,,,,1,,,,,,,,,,,,,,,,,,,,,,,,,,,,,,,,,,,,,77,tiburón,,,,,329.6891,332.9281,0,0,2.7153,,0,0,0,76,1,REAL,FAKE,,,,,,,,,,,,,,,,,
,,,,,,,,,5b29b956007d870001c82114,Mexican,13 or older,"no, only English or Spanish",yes,2025-07-24_08h47.02.462,empathy_intonation_perc_control,2024.2.4,Win32,59.88023952,5b29b956007d870001c82114,68817205a84113384fffdfe3,68822b24a9a7517e023e6031,,,,,,,,,,,,,0,,,,,,,,,,,,,,,,,,,,,,,,,,,,,,,,,,,,,79,tropaje,,,,,332.9315,334.4277,1,0,0.9616,,0,1,1,78,1,REAL,FAKE,,,,,,,,,,,,,,,,,
,,,,,,,,,5b29b956007d870001c82114,Mexican,13 or older,"no, only English or Spanish",yes,2025-07-24_08h47.02.462,empathy_intonation_perc_control,2024.2.4,Win32,59.88023952,5b29b956007d870001c82114,68817205a84113384fffdfe3,68822b24a9a7517e023e6031,,,,,,,,,,,,,1,,,,,,,,,,,,,,,,,,,,,,,,,,,,,,,,,,,,,24,látigo,,,,,334.434,336.7606,1,1,1.7949,,0,2,2,23,1,REAL,FAKE,,,,,,,,,,,,,,,,,
,,,,,,,,,5b29b956007d870001c82114,Mexican,13 or older,"no, only English or Spanish",yes,2025-07-24_08h47.02.462,empathy_intonation_perc_control,2024.2.4,Win32,59.88023952,5b29b956007d870001c82114,68817205a84113384fffdfe3,68822b24a9a7517e023e6031,,,,,,,,,,,,,0,,,,,,,,,,,,,,,,,,,,,,,,,,,,,,,,,,,,,29,decar,,,,,336.7641,338.3454,1,0,1.0498,,0,3,3,28,1,REAL,FAKE,,,,,,,,,,,,,,,,,
,,,,,,,,,5b29b956007d870001c82114,Mexican,13 or older,"no, only English or Spanish",yes,2025-07-24_08h47.02.462,empathy_intonation_perc_control,2024.2.4,Win32,59.88023952,5b29b956007d870001c82114,68817205a84113384fffdfe3,68822b24a9a7517e023e6031,,,,,,,,,,,,,1,,,,,,,,,,,,,,,,,,,,,,,,,,,,,,,,,,,,,22,lacayo,,,,,338.3482,339.6607,0,0,0.7763,,0,4,4,21,1,REAL,FAKE,,,,,,,,,,,,,,,,,
,,,,,,,,,5b29b956007d870001c82114,Mexican,13 or older,"no, only English or Spanish",yes,2025-07-24_08h47.02.462,empathy_intonation_perc_control,2024.2.4,Win32,59.88023952,5b29b956007d870001c82114,68817205a84113384fffdfe3,68822b24a9a7517e023e6031,,,,,,,,,,,,,1,,,,,,,,,,,,,,,,,,,,,,,,,,,,,,,,,,,,,49,ganar,,,,,339.6636,341.6594,1,1,1.4607,,0,5,5,48,1,REAL,FAKE,,,,,,,,,,,,,,,,,
,,,,,,,,,5b29b956007d870001c82114,Mexican,13 or older,"no, only English or Spanish",yes,2025-07-24_08h47.02.462,empathy_intonation_perc_control,2024.2.4,Win32,59.88023952,5b29b956007d870001c82114,68817205a84113384fffdfe3,68822b24a9a7517e023e6031,,,,,,,,,,,,,1,,,,,,,,,,,,,,,,,,,,,,,,,,,,,,,,,,,,,15,regar,,,,,341.6605,343.7433,0,0,1.5465,,0,6,6,14,1,REAL,FAKE,,,,,,,,,,,,,,,,,
,,,,,,,,,5b29b956007d870001c82114,Mexican,13 or older,"no, only English or Spanish",yes,2025-07-24_08h47.02.462,empathy_intonation_perc_control,2024.2.4,Win32,59.88023952,5b29b956007d870001c82114,68817205a84113384fffdfe3,68822b24a9a7517e023e6031,,,,,,,,,,,,,1,,,,,,,,,,,,,,,,,,,,,,,,,,,,,,,,,,,,,83,guante,,,,,343.7447,345.3435,1,1,1.0718,,0,7,7,82,1,REAL,FAKE,,,,,,,,,,,,,,,,,
,,,,,,,,,5b29b956007d870001c82114,Mexican,13 or older,"no, only English or Spanish",yes,2025-07-24_08h47.02.462,empathy_intonation_perc_control,2024.2.4,Win32,59.88023952,5b29b956007d870001c82114,68817205a84113384fffdfe3,68822b24a9a7517e023e6031,,,,,,,,,,,,,1,,,,,,,,,,,,,,,,,,,,,,,,,,,,,,,,,,,,,14,yunque,,,,,345.3449,347.2101,0,0,1.3321,,0,8,8,13,1,REAL,FAKE,,,,,,,,,,,,,,,,,
,,,,,,,,,5b29b956007d870001c82114,Mexican,13 or older,"no, only English or Spanish",yes,2025-07-24_08h47.02.462,empathy_intonation_perc_control,2024.2.4,Win32,59.88023952,5b29b956007d870001c82114,68817205a84113384fffdfe3,68822b24a9a7517e023e6031,,,,,,,,,,,,,1,,,,,,,,,,,,,,,,,,,,,,,,,,,,,,,,,,,,,12,asesinato,,,,,347.2118,349.0597,0,0,1.311,,0,9,9,11,1,REAL,FAKE,,,,,,,,,,,,,,,,,
,,,,,,,,,5b29b956007d870001c82114,Mexican,13 or older,"no, only English or Spanish",yes,2025-07-24_08h47.02.462,empathy_intonation_perc_control,2024.2.4,Win32,59.88023952,5b29b956007d870001c82114,68817205a84113384fffdfe3,68822b24a9a7517e023e6031,,,,,,,,,,,,,1,,,,,,,,,,,,,,,,,,,,,,,,,,,,,,,,,,,,,31,pandilla,,,,,349.0609,350.5927,1,1,1.001,,0,10,10,30,1,REAL,FAKE,,,,,,,,,,,,,,,,,
,,,,,,,,,5b29b956007d870001c82114,Mexican,13 or older,"no, only English or Spanish",yes,2025-07-24_08h47.02.462,empathy_intonation_perc_control,2024.2.4,Win32,59.88023952,5b29b956007d870001c82114,68817205a84113384fffdfe3,68822b24a9a7517e023e6031,,,,,,,,,,,,,1,,,,,,,,,,,,,,,,,,,,,,,,,,,,,,,,,,,,,64,orgulloso,,,,,350.5941,351.8596,0,0,0.73,,0,11,11,63,1,REAL,FAKE,,,,,,,,,,,,,,,,,
,,,,,,,,,5b29b956007d870001c82114,Mexican,13 or older,"no, only English or Spanish",yes,2025-07-24_08h47.02.462,empathy_intonation_perc_control,2024.2.4,Win32,59.88023952,5b29b956007d870001c82114,68817205a84113384fffdfe3,68822b24a9a7517e023e6031,,,,,,,,,,,,,1,,,,,,,,,,,,,,,,,,,,,,,,,,,,,,,,,,,,,67,cabello,,,,,351.861,353.1595,1,1,0.765,,0,12,12,66,1,REAL,FAKE,,,,,,,,,,,,,,,,,
,,,,,,,,,5b29b956007d870001c82114,Mexican,13 or older,"no, only English or Spanish",yes,2025-07-24_08h47.02.462,empathy_intonation_perc_control,2024.2.4,Win32,59.88023952,5b29b956007d870001c82114,68817205a84113384fffdfe3,68822b24a9a7517e023e6031,,,,,,,,,,,,,1,,,,,,,,,,,,,,,,,,,,,,,,,,,,,,,,,,,,,9,hacha,,,,,353.1607,354.9096,0,0,1.2185,,0,13,13,8,1,REAL,FAKE,,,,,,,,,,,,,,,,,
,,,,,,,,,5b29b956007d870001c82114,Mexican,13 or older,"no, only English or Spanish",yes,2025-07-24_08h47.02.462,empathy_intonation_perc_control,2024.2.4,Win32,59.88023952,5b29b956007d870001c82114,68817205a84113384fffdfe3,68822b24a9a7517e023e6031,,,,,,,,,,,,,1,,,,,,,,,,,,,,,,,,,,,,,,,,,,,,,,,,,,,65,bizcocho,,,,,354.9113,356.9427,0,0,1.5024,,0,14,14,64,1,REAL,FAKE,,,,,,,,,,,,,,,,,
,,,,,,,,,5b29b956007d870001c82114,Mexican,13 or older,"no, only English or Spanish",yes,2025-07-24_08h47.02.462,empathy_intonation_perc_control,2024.2.4,Win32,59.88023952,5b29b956007d870001c82114,68817205a84113384fffdfe3,68822b24a9a7517e023e6031,,,,,,,,,,,,,1,,,,,,,,,,,,,,,,,,,,,,,,,,,,,,,,,,,,,59,besar,,,,,356.944,358.2596,1,1,0.7809,,0,15,15,58,1,REAL,FAKE,,,,,,,,,,,,,,,,,
,,,,,,,,,5b29b956007d870001c82114,Mexican,13 or older,"no, only English or Spanish",yes,2025-07-24_08h47.02.462,empathy_intonation_perc_control,2024.2.4,Win32,59.88023952,5b29b956007d870001c82114,68817205a84113384fffdfe3,68822b24a9a7517e023e6031,,,,,,,,,,,,,0,,,,,,,,,,,,,,,,,,,,,,,,,,,,,,,,,,,,,66,hacido,,,,,358.2609,359.5928,0,1,0.8052,,0,16,16,65,1,REAL,FAKE,,,,,,,,,,,,,,,,,
,,,,,,,,,5b29b956007d870001c82114,Mexican,13 or older,"no, only English or Spanish",yes,2025-07-24_08h47.02.462,empathy_intonation_perc_control,2024.2.4,Win32,59.88023952,5b29b956007d870001c82114,68817205a84113384fffdfe3,68822b24a9a7517e023e6031,,,,,,,,,,,,,0,,,,,,,,,,,,,,,,,,,,,,,,,,,,,,,,,,,,,87,grodo,,,,,359.594,360.9426,1,0,0.8133,,0,17,17,86,1,REAL,FAKE,,,,,,,,,,,,,,,,,
,,,,,,,,,5b29b956007d870001c82114,Mexican,13 or older,"no, only English or Spanish",yes,2025-07-24_08h47.02.462,empathy_intonation_perc_control,2024.2.4,Win32,59.88023952,5b29b956007d870001c82114,68817205a84113384fffdfe3,68822b24a9a7517e023e6031,,,,,,,,,,,,,1,,,,,,,,,,,,,,,,,,,,,,,,,,,,,,,,,,,,,37,granuja,,,,,360.9439,362.4092,1,1,0.9468,,0,18,18,36,1,REAL,FAKE,,,,,,,,,,,,,,,,,
,,,,,,,,,5b29b956007d870001c82114,Mexican,13 or older,"no, only English or Spanish",yes,2025-07-24_08h47.02.462,empathy_intonation_perc_control,2024.2.4,Win32,59.88023952,5b29b956007d870001c82114,68817205a84113384fffdfe3,68822b24a9a7517e023e6031,,,,,,,,,,,,,1,,,,,,,,,,,,,,,,,,,,,,,,,,,,,,,,,,,,,57,tacaño,,,,,362.4112,364.3426,1,1,1.3957,,0,19,19,56,1,REAL,FAKE,,,,,,,,,,,,,,,,,
,,,,,,,,,5b29b956007d870001c82114,Mexican,13 or older,"no, only English or Spanish",yes,2025-07-24_08h47.02.462,empathy_intonation_perc_control,2024.2.4,Win32,59.88023952,5b29b956007d870001c82114,68817205a84113384fffdfe3,68822b24a9a7517e023e6031,,,,,,,,,,,,,1,,,,,,,,,,,,,,,,,,,,,,,,,,,,,,,,,,,,,36,loro,,,,,364.3441,365.6594,0,0,0.7798,,0,20,20,35,1,REAL,FAKE,,,,,,,,,,,,,,,,,
,,,,,,,,,5b29b956007d870001c82114,Mexican,13 or older,"no, only English or Spanish",yes,2025-07-24_08h47.02.462,empathy_intonation_perc_control,2024.2.4,Win32,59.88023952,5b29b956007d870001c82114,68817205a84113384fffdfe3,68822b24a9a7517e023e6031,,,,,,,,,,,,,1,,,,,,,,,,,,,,,,,,,,,,,,,,,,,,,,,,,,,52,camisa,,,,,365.6615,366.9256,1,1,0.7305,,0,21,21,51,1,REAL,FAKE,,,,,,,,,,,,,,,,,
,,,,,,,,,5b29b956007d870001c82114,Mexican,13 or older,"no, only English or Spanish",yes,2025-07-24_08h47.02.462,empathy_intonation_perc_control,2024.2.4,Win32,59.88023952,5b29b956007d870001c82114,68817205a84113384fffdfe3,68822b24a9a7517e023e6031,,,,,,,,,,,,,1,,,,,,,,,,,,,,,,,,,,,,,,,,,,,,,,,,,,,48,ladrón,,,,,366.9267,368.3762,1,1,0.9188,,0,22,22,47,1,REAL,FAKE,,,,,,,,,,,,,,,,,
,,,,,,,,,5b29b956007d870001c82114,Mexican,13 or older,"no, only English or Spanish",yes,2025-07-24_08h47.02.462,empathy_intonation_perc_control,2024.2.4,Win32,59.88023952,5b29b956007d870001c82114,68817205a84113384fffdfe3,68822b24a9a7517e023e6031,,,,,,,,,,,,,1,,,,,,,,,,,,,,,,,,,,,,,,,,,,,,,,,,,,,55,nevar,,,,,368.378,369.9256,0,0,1.0209,,0,23,23,54,1,REAL,FAKE,,,,,,,,,,,,,,,,,
,,,,,,,,,5b29b956007d870001c82114,Mexican,13 or older,"no, only English or Spanish",yes,2025-07-24_08h47.02.462,empathy_intonation_perc_control,2024.2.4,Win32,59.88023952,5b29b956007d870001c82114,68817205a84113384fffdfe3,68822b24a9a7517e023e6031,,,,,,,,,,,,,1,,,,,,,,,,,,,,,,,,,,,,,,,,,,,,,,,,,,,44,cuchara,,,,,369.9268,371.492,1,1,1.0476,,0,24,24,43,1,REAL,FAKE,,,,,,,,,,,,,,,,,
,,,,,,,,,5b29b956007d870001c82114,Mexican,13 or older,"no, only English or Spanish",yes,2025-07-24_08h47.02.462,empathy_intonation_perc_control,2024.2.4,Win32,59.88023952,5b29b956007d870001c82114,68817205a84113384fffdfe3,68822b24a9a7517e023e6031,,,,,,,,,,,,,1,,,,,,,,,,,,,,,,,,,,,,,,,,,,,,,,,,,,,61,seda,,,,,371.4929,373.3091,0,0,1.3013,,0,25,25,60,1,REAL,FAKE,,,,,,,,,,,,,,,,,
,,,,,,,,,5b29b956007d870001c82114,Mexican,13 or older,"no, only English or Spanish",yes,2025-07-24_08h47.02.462,empathy_intonation_perc_control,2024.2.4,Win32,59.88023952,5b29b956007d870001c82114,68817205a84113384fffdfe3,68822b24a9a7517e023e6031,,,,,,,,,,,,,0,,,,,,,,,,,,,,,,,,,,,,,,,,,,,,,,,,,,,1,terzo,,,,,373.3104,375.3428,0,1,1.495,,0,26,26,0,1,REAL,FAKE,,,,,,,,,,,,,,,,,
,,,,,,,,,5b29b956007d870001c82114,Mexican,13 or older,"no, only English or Spanish",yes,2025-07-24_08h47.02.462,empathy_intonation_perc_control,2024.2.4,Win32,59.88023952,5b29b956007d870001c82114,68817205a84113384fffdfe3,68822b24a9a7517e023e6031,,,,,,,,,,,,,1,,,,,,,,,,,,,,,,,,,,,,,,,,,,,,,,,,,,,71,polvoriento,,,,,375.3446,376.8926,0,0,1.0143,,0,27,27,70,1,REAL,FAKE,,,,,,,,,,,,,,,,,
,,,,,,,,,5b29b956007d870001c82114,Mexican,13 or older,"no, only English or Spanish",yes,2025-07-24_08h47.02.462,empathy_intonation_perc_control,2024.2.4,Win32,59.88023952,5b29b956007d870001c82114,68817205a84113384fffdfe3,68822b24a9a7517e023e6031,,,,,,,,,,,,,0,,,,,,,,,,,,,,,,,,,,,,,,,,,,,,,,,,,,,33,pauca,,,,,376.8946,378.659,0,1,1.232,,0,28,28,32,1,REAL,FAKE,,,,,,,,,,,,,,,,,
,,,,,,,,,5b29b956007d870001c82114,Mexican,13 or older,"no, only English or Spanish",yes,2025-07-24_08h47.02.462,empathy_intonation_perc_control,2024.2.4,Win32,59.88023952,5b29b956007d870001c82114,68817205a84113384fffdfe3,68822b24a9a7517e023e6031,,,,,,,,,,,,,1,,,,,,,,,,,,,,,,,,,,,,,,,,,,,,,,,,,,,90,clavel,,,,,378.6604,379.7258,1,1,0.5319,,0,29,29,89,1,REAL,FAKE,,,,,,,,,,,,,,,,,
,,,,,,,,,5b29b956007d870001c82114,Mexican,13 or older,"no, only English or Spanish",yes,2025-07-24_08h47.02.462,empathy_intonation_perc_control,2024.2.4,Win32,59.88023952,5b29b956007d870001c82114,68817205a84113384fffdfe3,68822b24a9a7517e023e6031,,,,,,,,,,,,,0,,,,,,,,,,,,,,,,,,,,,,,,,,,,,,,,,,,,,58,plaudir,,,,,379.7272,381.0593,1,0,0.7968,,0,30,30,57,1,REAL,FAKE,,,,,,,,,,,,,,,,,
,,,,,,,,,5b29b956007d870001c82114,Mexican,13 or older,"no, only English or Spanish",yes,2025-07-24_08h47.02.462,empathy_intonation_perc_control,2024.2.4,Win32,59.88023952,5b29b956007d870001c82114,68817205a84113384fffdfe3,68822b24a9a7517e023e6031,,,,,,,,,,,,,1,,,,,,,,,,,,,,,,,,,,,,,,,,,,,,,,,,,,,68,alegre,,,,,381.0606,383.0427,1,1,1.4461,,0,31,31,67,1,REAL,FAKE,,,,,,,,,,,,,,,,,
,,,,,,,,,5b29b956007d870001c82114,Mexican,13 or older,"no, only English or Spanish",yes,2025-07-24_08h47.02.462,empathy_intonation_perc_control,2024.2.4,Win32,59.88023952,5b29b956007d870001c82114,68817205a84113384fffdfe3,68822b24a9a7517e023e6031,,,,,,,,,,,,,1,,,,,,,,,,,,,,,,,,,,,,,,,,,,,,,,,,,,,7,pésimo,,,,,383.0443,385.1604,1,1,1.5889,,0,32,32,6,1,REAL,FAKE,,,,,,,,,,,,,,,,,
,,,,,,,,,5b29b956007d870001c82114,Mexican,13 or older,"no, only English or Spanish",yes,2025-07-24_08h47.02.462,empathy_intonation_perc_control,2024.2.4,Win32,59.88023952,5b29b956007d870001c82114,68817205a84113384fffdfe3,68822b24a9a7517e023e6031,,,,,,,,,,,,,0,,,,,,,,,,,,,,,,,,,,,,,,,,,,,,,,,,,,,32,fatacidad,,,,,385.1625,386.4584,0,1,0.771,,0,33,33,31,1,REAL,FAKE,,,,,,,,,,,,,,,,,
,,,,,,,,,5b29b956007d870001c82114,Mexican,13 or older,"no, only English or Spanish",yes,2025-07-24_08h47.02.462,empathy_intonation_perc_control,2024.2.4,Win32,59.88023952,5b29b956007d870001c82114,68817205a84113384fffdfe3,68822b24a9a7517e023e6031,,,,,,,,,,,,,1,,,,,,,,,,,,,,,,,,,,,,,,,,,,,,,,,,,,,20,ávido,,,,,386.4596,388.192,0,0,1.1982,,0,34,34,19,1,REAL,FAKE,,,,,,,,,,,,,,,,,
,,,,,,,,,5b29b956007d870001c82114,Mexican,13 or older,"no, only English or Spanish",yes,2025-07-24_08h47.02.462,empathy_intonation_perc_control,2024.2.4,Win32,59.88023952,5b29b956007d870001c82114,68817205a84113384fffdfe3,68822b24a9a7517e023e6031,,,,,,,,,,,,,0,,,,,,,,,,,,,,,,,,,,,,,,,,,,,,,,,,,,,92,click the 0 key.,,,,,388.1944,390.2757,0,1,1.5438,,0,35,35,91,1,REAL,FAKE,,,,,,,,,,,,,,,,,
,,,,,,,,,5b29b956007d870001c82114,Mexican,13 or older,"no, only English or Spanish",yes,2025-07-24_08h47.02.462,empathy_intonation_perc_control,2024.2.4,Win32,59.88023952,5b29b956007d870001c82114,68817205a84113384fffdfe3,68822b24a9a7517e023e6031,,,,,,,,,,,,,1,,,,,,,,,,,,,,,,,,,,,,,,,,,,,,,,,,,,,54,fomentar,,,,,390.2774,392.4589,1,1,1.6469,,0,36,36,53,1,REAL,FAKE,,,,,,,,,,,,,,,,,
,,,,,,,,,5b29b956007d870001c82114,Mexican,13 or older,"no, only English or Spanish",yes,2025-07-24_08h47.02.462,empathy_intonation_perc_control,2024.2.4,Win32,59.88023952,5b29b956007d870001c82114,68817205a84113384fffdfe3,68822b24a9a7517e023e6031,,,,,,,,,,,,,1,,,,,,,,,,,,,,,,,,,,,,,,,,,,,,,,,,,,,26,secuestro,,,,,392.4603,394.7256,0,0,1.7351,,0,37,37,25,1,REAL,FAKE,,,,,,,,,,,,,,,,,
,,,,,,,,,5b29b956007d870001c82114,Mexican,13 or older,"no, only English or Spanish",yes,2025-07-24_08h47.02.462,empathy_intonation_perc_control,2024.2.4,Win32,59.88023952,5b29b956007d870001c82114,68817205a84113384fffdfe3,68822b24a9a7517e023e6031,,,,,,,,,,,,,1,,,,,,,,,,,,,,,,,,,,,,,,,,,,,,,,,,,,,34,aviso,,,,,394.7268,396.2419,1,1,0.9797,,0,38,38,33,1,REAL,FAKE,,,,,,,,,,,,,,,,,
,,,,,,,,,5b29b956007d870001c82114,Mexican,13 or older,"no, only English or Spanish",yes,2025-07-24_08h47.02.462,empathy_intonation_perc_control,2024.2.4,Win32,59.88023952,5b29b956007d870001c82114,68817205a84113384fffdfe3,68822b24a9a7517e023e6031,,,,,,,,,,,,,0,,,,,,,,,,,,,,,,,,,,,,,,,,,,,,,,,,,,,17,floroso,,,,,396.2432,398.1918,1,0,1.4142,,0,39,39,16,1,REAL,FAKE,,,,,,,,,,,,,,,,,
,,,,,,,,,5b29b956007d870001c82114,Mexican,13 or older,"no, only English or Spanish",yes,2025-07-24_08h47.02.462,empathy_intonation_perc_control,2024.2.4,Win32,59.88023952,5b29b956007d870001c82114,68817205a84113384fffdfe3,68822b24a9a7517e023e6031,,,,,,,,,,,,,0,,,,,,,,,,,,,,,,,,,,,,,,,,,,,,,,,,,,,74,cintro,,,,,398.1932,399.7914,0,1,1.0695,,0,40,40,73,1,REAL,FAKE,,,,,,,,,,,,,,,,,
,,,,,,,,,5b29b956007d870001c82114,Mexican,13 or older,"no, only English or Spanish",yes,2025-07-24_08h47.02.462,empathy_intonation_perc_control,2024.2.4,Win32,59.88023952,5b29b956007d870001c82114,68817205a84113384fffdfe3,68822b24a9a7517e023e6031,,,,,,,,,,,,,1,,,,,,,,,,,,,,,,,,,,,,,,,,,,,,,,,,,,,69,engatusar,,,,,399.7926,401.1754,0,0,0.8624,,0,41,41,68,1,REAL,FAKE,,,,,,,,,,,,,,,,,
,,,,,,,,,5b29b956007d870001c82114,Mexican,13 or older,"no, only English or Spanish",yes,2025-07-24_08h47.02.462,empathy_intonation_perc_control,2024.2.4,Win32,59.88023952,5b29b956007d870001c82114,68817205a84113384fffdfe3,68822b24a9a7517e023e6031,,,,,,,,,,,,,0,,,,,,,,,,,,,,,,,,,,,,,,,,,,,,,,,,,,,27,acutación,,,,,401.1769,402.8581,1,0,1.1468,,0,42,42,26,1,REAL,FAKE,,,,,,,,,,,,,,,,,
,,,,,,,,,5b29b956007d870001c82114,Mexican,13 or older,"no, only English or Spanish",yes,2025-07-24_08h47.02.462,empathy_intonation_perc_control,2024.2.4,Win32,59.88023952,5b29b956007d870001c82114,68817205a84113384fffdfe3,68822b24a9a7517e023e6031,,,,,,,,,,,,,1,,,,,,,,,,,,,,,,,,,,,,,,,,,,,,,,,,,,,28,merodear,,,,,402.859,404.1748,0,0,0.8044,,0,43,43,27,1,REAL,FAKE,,,,,,,,,,,,,,,,,
,,,,,,,,,5b29b956007d870001c82114,Mexican,13 or older,"no, only English or Spanish",yes,2025-07-24_08h47.02.462,empathy_intonation_perc_control,2024.2.4,Win32,59.88023952,5b29b956007d870001c82114,68817205a84113384fffdfe3,68822b24a9a7517e023e6031,,,,,,,,,,,,,0,,,,,,,,,,,,,,,,,,,,,,,,,,,,,,,,,,,,,50,flamida,,,,,404.1764,405.4919,1,0,0.8012,,0,44,44,49,1,REAL,FAKE,,,,,,,,,,,,,,,,,
,,,,,,,,,5b29b956007d870001c82114,Mexican,13 or older,"no, only English or Spanish",yes,2025-07-24_08h47.02.462,empathy_intonation_perc_control,2024.2.4,Win32,59.88023952,5b29b956007d870001c82114,68817205a84113384fffdfe3,68822b24a9a7517e023e6031,,,,,,,,,,,,,0,,,,,,,,,,,,,,,,,,,,,,,,,,,,,,,,,,,,,70,temblo,,,,,405.4933,406.8422,1,0,0.8158,,0,45,45,69,1,REAL,FAKE,,,,,,,,,,,,,,,,,
,,,,,,,,,5b29b956007d870001c82114,Mexican,13 or older,"no, only English or Spanish",yes,2025-07-24_08h47.02.462,empathy_intonation_perc_control,2024.2.4,Win32,59.88023952,5b29b956007d870001c82114,68817205a84113384fffdfe3,68822b24a9a7517e023e6031,,,,,,,,,,,,,1,,,,,,,,,,,,,,,,,,,,,,,,,,,,,,,,,,,,,60,matar,,,,,406.8435,408.6418,1,1,1.268,,0,46,46,59,1,REAL,FAKE,,,,,,,,,,,,,,,,,
,,,,,,,,,5b29b956007d870001c82114,Mexican,13 or older,"no, only English or Spanish",yes,2025-07-24_08h47.02.462,empathy_intonation_perc_control,2024.2.4,Win32,59.88023952,5b29b956007d870001c82114,68817205a84113384fffdfe3,68822b24a9a7517e023e6031,,,,,,,,,,,,,1,,,,,,,,,,,,,,,,,,,,,,,,,,,,,,,,,,,,,46,martillo,,,,,408.6436,410.0747,0,0,0.9035,,0,47,47,45,1,REAL,FAKE,,,,,,,,,,,,,,,,,
,,,,,,,,,5b29b956007d870001c82114,Mexican,13 or older,"no, only English or Spanish",yes,2025-07-24_08h47.02.462,empathy_intonation_perc_control,2024.2.4,Win32,59.88023952,5b29b956007d870001c82114,68817205a84113384fffdfe3,68822b24a9a7517e023e6031,,,,,,,,,,,,,0,,,,,,,,,,,,,,,,,,,,,,,,,,,,,,,,,,,,,47,cartinar,,,,,410.0761,411.6419,0,1,1.0293,,0,48,48,46,1,REAL,FAKE,,,,,,,,,,,,,,,,,
,,,,,,,,,5b29b956007d870001c82114,Mexican,13 or older,"no, only English or Spanish",yes,2025-07-24_08h47.02.462,empathy_intonation_perc_control,2024.2.4,Win32,59.88023952,5b29b956007d870001c82114,68817205a84113384fffdfe3,68822b24a9a7517e023e6031,,,,,,,,,,,,,1,,,,,,,,,,,,,,,,,,,,,,,,,,,,,,,,,,,,,13,helar,,,,,411.643,413.2419,1,1,1.068,,0,49,49,12,1,REAL,FAKE,,,,,,,,,,,,,,,,,
,,,,,,,,,5b29b956007d870001c82114,Mexican,13 or older,"no, only English or Spanish",yes,2025-07-24_08h47.02.462,empathy_intonation_perc_control,2024.2.4,Win32,59.88023952,5b29b956007d870001c82114,68817205a84113384fffdfe3,68822b24a9a7517e023e6031,,,,,,,,,,,,,0,,,,,,,,,,,,,,,,,,,,,,,,,,,,,,,,,,,,,35,rompido,,,,,413.2434,414.8084,0,1,1.0307,,0,50,50,34,1,REAL,FAKE,,,,,,,,,,,,,,,,,
,,,,,,,,,5b29b956007d870001c82114,Mexican,13 or older,"no, only English or Spanish",yes,2025-07-24_08h47.02.462,empathy_intonation_perc_control,2024.2.4,Win32,59.88023952,5b29b956007d870001c82114,68817205a84113384fffdfe3,68822b24a9a7517e023e6031,,,,,,,,,,,,,1,,,,,,,,,,,,,,,,,,,,,,,,,,,,,,,,,,,,,40,alfombra,,,,,414.8098,416.3414,1,1,0.9979,,0,51,51,39,1,REAL,FAKE,,,,,,,,,,,,,,,,,
,,,,,,,,,5b29b956007d870001c82114,Mexican,13 or older,"no, only English or Spanish",yes,2025-07-24_08h47.02.462,empathy_intonation_perc_control,2024.2.4,Win32,59.88023952,5b29b956007d870001c82114,68817205a84113384fffdfe3,68822b24a9a7517e023e6031,,,,,,,,,,,,,1,,,,,,,,,,,,,,,,,,,,,,,,,,,,,,,,,,,,,91,click the 1 key.,,,,,416.3435,418.1248,1,1,1.2498,,0,52,52,90,1,REAL,FAKE,,,,,,,,,,,,,,,,,
,,,,,,,,,5b29b956007d870001c82114,Mexican,13 or older,"no, only English or Spanish",yes,2025-07-24_08h47.02.462,empathy_intonation_perc_control,2024.2.4,Win32,59.88023952,5b29b956007d870001c82114,68817205a84113384fffdfe3,68822b24a9a7517e023e6031,,,,,,,,,,,,,1,,,,,,,,,,,,,,,,,,,,,,,,,,,,,,,,,,,,,38,estornudar,,,,,418.126,419.9583,1,1,1.2964,,0,53,53,37,1,REAL,FAKE,,,,,,,,,,,,,,,,,
,,,,,,,,,5b29b956007d870001c82114,Mexican,13 or older,"no, only English or Spanish",yes,2025-07-24_08h47.02.462,empathy_intonation_perc_control,2024.2.4,Win32,59.88023952,5b29b956007d870001c82114,68817205a84113384fffdfe3,68822b24a9a7517e023e6031,,,,,,,,,,,,,1,,,,,,,,,,,,,,,,,,,,,,,,,,,,,,,,,,,,,76,atar,,,,,419.9596,421.3254,0,0,0.8318,,0,54,54,75,1,REAL,FAKE,,,,,,,,,,,,,,,,,
,,,,,,,,,5b29b956007d870001c82114,Mexican,13 or older,"no, only English or Spanish",yes,2025-07-24_08h47.02.462,empathy_intonation_perc_control,2024.2.4,Win32,59.88023952,5b29b956007d870001c82114,68817205a84113384fffdfe3,68822b24a9a7517e023e6031,,,,,,,,,,,,,0,,,,,,,,,,,,,,,,,,,,,,,,,,,,,,,,,,,,,53,vegada,,,,,421.3278,422.7588,0,1,0.8924,,0,55,55,52,1,REAL,FAKE,,,,,,,,,,,,,,,,,
,,,,,,,,,5b29b956007d870001c82114,Mexican,13 or older,"no, only English or Spanish",yes,2025-07-24_08h47.02.462,empathy_intonation_perc_control,2024.2.4,Win32,59.88023952,5b29b956007d870001c82114,68817205a84113384fffdfe3,68822b24a9a7517e023e6031,,,,,,,,,,,,,1,,,,,,,,,,,,,,,,,,,,,,,,,,,,,,,,,,,,,45,jilguero,,,,,422.7611,425.6256,0,0,2.3352,,0,56,56,44,1,REAL,FAKE,,,,,,,,,,,,,,,,,
,,,,,,,,,5b29b956007d870001c82114,Mexican,13 or older,"no, only English or Spanish",yes,2025-07-24_08h47.02.462,empathy_intonation_perc_control,2024.2.4,Win32,59.88023952,5b29b956007d870001c82114,68817205a84113384fffdfe3,68822b24a9a7517e023e6031,,,,,,,,,,,,,1,,,,,,,,,,,,,,,,,,,,,,,,,,,,,,,,,,,,,86,barato,,,,,425.6286,427.0413,1,1,0.8805,,0,57,57,85,1,REAL,FAKE,,,,,,,,,,,,,,,,,
,,,,,,,,,5b29b956007d870001c82114,Mexican,13 or older,"no, only English or Spanish",yes,2025-07-24_08h47.02.462,empathy_intonation_perc_control,2024.2.4,Win32,59.88023952,5b29b956007d870001c82114,68817205a84113384fffdfe3,68822b24a9a7517e023e6031,,,,,,,,,,,,,0,,,,,,,,,,,,,,,,,,,,,,,,,,,,,,,,,,,,,72,pemición,,,,,427.0433,428.5089,0,1,0.9451,,0,58,58,71,1,REAL,FAKE,,,,,,,,,,,,,,,,,
,,,,,,,,,5b29b956007d870001c82114,Mexican,13 or older,"no, only English or Spanish",yes,2025-07-24_08h47.02.462,empathy_intonation_perc_control,2024.2.4,Win32,59.88023952,5b29b956007d870001c82114,68817205a84113384fffdfe3,68822b24a9a7517e023e6031,,,,,,,,,,,,,1,,,,,,,,,,,,,,,,,,,,,,,,,,,,,,,,,,,,,51,candado,,,,,428.5121,430.0918,0,0,1.0452,,0,59,59,50,1,REAL,FAKE,,,,,,,,,,,,,,,,,
,,,,,,,,,5b29b956007d870001c82114,Mexican,13 or older,"no, only English or Spanish",yes,2025-07-24_08h47.02.462,empathy_intonation_perc_control,2024.2.4,Win32,59.88023952,5b29b956007d870001c82114,68817205a84113384fffdfe3,68822b24a9a7517e023e6031,,,,,,,,,,,,,0,,,,,,,,,,,,,,,,,,,,,,,,,,,,,,,,,,,,,19,brecedad,,,,,430.0944,431.7412,0,1,1.1093,,0,60,60,18,1,REAL,FAKE,,,,,,,,,,,,,,,,,
,,,,,,,,,5b29b956007d870001c82114,Mexican,13 or older,"no, only English or Spanish",yes,2025-07-24_08h47.02.462,empathy_intonation_perc_control,2024.2.4,Win32,59.88023952,5b29b956007d870001c82114,68817205a84113384fffdfe3,68822b24a9a7517e023e6031,,,,,,,,,,,,,0,,,,,,,,,,,,,,,,,,,,,,,,,,,,,,,,,,,,,8,cadeña,,,,,431.7426,433.1247,1,0,0.8483,,0,61,61,7,1,REAL,FAKE,,,,,,,,,,,,,,,,,
,,,,,,,,,5b29b956007d870001c82114,Mexican,13 or older,"no, only English or Spanish",yes,2025-07-24_08h47.02.462,empathy_intonation_perc_control,2024.2.4,Win32,59.88023952,5b29b956007d870001c82114,68817205a84113384fffdfe3,68822b24a9a7517e023e6031,,,,,,,,,,,,,1,,,,,,,,,,,,,,,,,,,,,,,,,,,,,,,,,,,,,56,musgo,,,,,433.1259,434.4412,0,0,0.7836,,0,62,62,55,1,REAL,FAKE,,,,,,,,,,,,,,,,,
,,,,,,,,,5b29b956007d870001c82114,Mexican,13 or older,"no, only English or Spanish",yes,2025-07-24_08h47.02.462,empathy_intonation_perc_control,2024.2.4,Win32,59.88023952,5b29b956007d870001c82114,68817205a84113384fffdfe3,68822b24a9a7517e023e6031,,,,,,,,,,,,,0,,,,,,,,,,,,,,,,,,,,,,,,,,,,,,,,,,,,,30,alardio,,,,,434.4424,435.7744,1,0,0.8043,,0,63,63,29,1,REAL,FAKE,,,,,,,,,,,,,,,,,
,,,,,,,,,5b29b956007d870001c82114,Mexican,13 or older,"no, only English or Spanish",yes,2025-07-24_08h47.02.462,empathy_intonation_perc_control,2024.2.4,Win32,59.88023952,5b29b956007d870001c82114,68817205a84113384fffdfe3,68822b24a9a7517e023e6031,,,,,,,,,,,,,0,,,,,,,,,,,,,,,,,,,,,,,,,,,,,,,,,,,,,84,escuto,,,,,435.7755,437.0079,0,1,0.7132,,0,64,64,83,1,REAL,FAKE,,,,,,,,,,,,,,,,,
,,,,,,,,,5b29b956007d870001c82114,Mexican,13 or older,"no, only English or Spanish",yes,2025-07-24_08h47.02.462,empathy_intonation_perc_control,2024.2.4,Win32,59.88023952,5b29b956007d870001c82114,68817205a84113384fffdfe3,68822b24a9a7517e023e6031,,,,,,,,,,,,,1,,,,,,,,,,,,,,,,,,,,,,,,,,,,,,,,,,,,,39,torpe,,,,,437.0093,438.3414,0,0,0.795,,0,65,65,38,1,REAL,FAKE,,,,,,,,,,,,,,,,,
,,,,,,,,,5b29b956007d870001c82114,Mexican,13 or older,"no, only English or Spanish",yes,2025-07-24_08h47.02.462,empathy_intonation_perc_control,2024.2.4,Win32,59.88023952,5b29b956007d870001c82114,68817205a84113384fffdfe3,68822b24a9a7517e023e6031,,,,,,,,,,,,,1,,,,,,,,,,,,,,,,,,,,,,,,,,,,,,,,,,,,,5,zapato,,,,,438.3432,440.1414,1,1,1.2652,,0,66,66,4,1,REAL,FAKE,,,,,,,,,,,,,,,,,
,,,,,,,,,5b29b956007d870001c82114,Mexican,13 or older,"no, only English or Spanish",yes,2025-07-24_08h47.02.462,empathy_intonation_perc_control,2024.2.4,Win32,59.88023952,5b29b956007d870001c82114,68817205a84113384fffdfe3,68822b24a9a7517e023e6031,,,,,,,,,,,,,1,,,,,,,,,,,,,,,,,,,,,,,,,,,,,,,,,,,,,78,frondoso,,,,,440.1434,441.3741,0,0,0.7034,,0,67,67,77,1,REAL,FAKE,,,,,,,,,,,,,,,,,
,,,,,,,,,5b29b956007d870001c82114,Mexican,13 or older,"no, only English or Spanish",yes,2025-07-24_08h47.02.462,empathy_intonation_perc_control,2024.2.4,Win32,59.88023952,5b29b956007d870001c82114,68817205a84113384fffdfe3,68822b24a9a7517e023e6031,,,,,,,,,,,,,0,,,,,,,,,,,,,,,,,,,,,,,,,,,,,,,,,,,,,42,cadallo,,,,,441.3754,444.0408,1,0,2.1383,,0,68,68,41,1,REAL,FAKE,,,,,,,,,,,,,,,,,
,,,,,,,,,5b29b956007d870001c82114,Mexican,13 or older,"no, only English or Spanish",yes,2025-07-24_08h47.02.462,empathy_intonation_perc_control,2024.2.4,Win32,59.88023952,5b29b956007d870001c82114,68817205a84113384fffdfe3,68822b24a9a7517e023e6031,,,,,,,,,,,,,1,,,,,,,,,,,,,,,,,,,,,,,,,,,,,,,,,,,,,75,yacer,,,,,444.0421,445.4578,0,0,0.8982,,0,69,69,74,1,REAL,FAKE,,,,,,,,,,,,,,,,,
,,,,,,,,,5b29b956007d870001c82114,Mexican,13 or older,"no, only English or Spanish",yes,2025-07-24_08h47.02.462,empathy_intonation_perc_control,2024.2.4,Win32,59.88023952,5b29b956007d870001c82114,68817205a84113384fffdfe3,68822b24a9a7517e023e6031,,,,,,,,,,,,,1,,,,,,,,,,,,,,,,,,,,,,,,,,,,,,,,,,,,,88,acantilado,,,,,445.4589,446.7248,1,1,0.7313,,0,70,70,87,1,REAL,FAKE,,,,,,,,,,,,,,,,,
,,,,,,,,,5b29b956007d870001c82114,Mexican,13 or older,"no, only English or Spanish",yes,2025-07-24_08h47.02.462,empathy_intonation_perc_control,2024.2.4,Win32,59.88023952,5b29b956007d870001c82114,68817205a84113384fffdfe3,68822b24a9a7517e023e6031,,,,,,,,,,,,,1,,,,,,,,,,,,,,,,,,,,,,,,,,,,,,,,,,,,,43,canela,,,,,446.7267,447.9748,1,1,0.7133,,0,71,71,42,1,REAL,FAKE,,,,,,,,,,,,,,,,,
,,,,,,,,,5b29b956007d870001c82114,Mexican,13 or older,"no, only English or Spanish",yes,2025-07-24_08h47.02.462,empathy_intonation_perc_control,2024.2.4,Win32,59.88023952,5b29b956007d870001c82114,68817205a84113384fffdfe3,68822b24a9a7517e023e6031,,,,,,,,,,,,,1,,,,,,,,,,,,,,,,,,,,,,,,,,,,,,,,,,,,,25,bisagra,,,,,447.9767,449.2081,0,0,0.6958,,0,72,72,24,1,REAL,FAKE,,,,,,,,,,,,,,,,,
,,,,,,,,,5b29b956007d870001c82114,Mexican,13 or older,"no, only English or Spanish",yes,2025-07-24_08h47.02.462,empathy_intonation_perc_control,2024.2.4,Win32,59.88023952,5b29b956007d870001c82114,68817205a84113384fffdfe3,68822b24a9a7517e023e6031,,,,,,,,,,,,,1,,,,,,,,,,,,,,,,,,,,,,,,,,,,,,,,,,,,,11,cenefa,,,,,449.2113,450.9751,0,0,1.2274,,0,73,73,10,1,REAL,FAKE,,,,,,,,,,,,,,,,,
,,,,,,,,,5b29b956007d870001c82114,Mexican,13 or older,"no, only English or Spanish",yes,2025-07-24_08h47.02.462,empathy_intonation_perc_control,2024.2.4,Win32,59.88023952,5b29b956007d870001c82114,68817205a84113384fffdfe3,68822b24a9a7517e023e6031,,,,,,,,,,,,,0,,,,,,,,,,,,,,,,,,,,,,,,,,,,,,,,,,,,,23,lampera,,,,,450.9779,452.2915,1,0,0.7713,,0,74,74,22,1,REAL,FAKE,,,,,,,,,,,,,,,,,
,,,,,,,,,5b29b956007d870001c82114,Mexican,13 or older,"no, only English or Spanish",yes,2025-07-24_08h47.02.462,empathy_intonation_perc_control,2024.2.4,Win32,59.88023952,5b29b956007d870001c82114,68817205a84113384fffdfe3,68822b24a9a7517e023e6031,,,,,,,,,,,,,0,,,,,,,,,,,,,,,,,,,,,,,,,,,,,,,,,,,,,63,esposante,,,,,452.2951,454.2412,0,1,1.404,,0,75,75,62,1,REAL,FAKE,,,,,,,,,,,,,,,,,
,,,,,,,,,5b29b956007d870001c82114,Mexican,13 or older,"no, only English or Spanish",yes,2025-07-24_08h47.02.462,empathy_intonation_perc_control,2024.2.4,Win32,59.88023952,5b29b956007d870001c82114,68817205a84113384fffdfe3,68822b24a9a7517e023e6031,,,,,,,,,,,,,0,,,,,,,,,,,,,,,,,,,,,,,,,,,,,,,,,,,,,18,arsa,,,,,454.2448,455.4749,1,0,0.6912,,0,76,76,17,1,REAL,FAKE,,,,,,,,,,,,,,,,,
,,,,,,,,,5b29b956007d870001c82114,Mexican,13 or older,"no, only English or Spanish",yes,2025-07-24_08h47.02.462,empathy_intonation_perc_control,2024.2.4,Win32,59.88023952,5b29b956007d870001c82114,68817205a84113384fffdfe3,68822b24a9a7517e023e6031,,,,,,,,,,,,,1,,,,,,,,,,,,,,,,,,,,,,,,,,,,,,,,,,,,,3,pulmones,,,,,455.4787,456.7414,1,1,0.7188,,0,77,77,2,1,REAL,FAKE,,,,,,,,,,,,,,,,,
,,,,,,,,,5b29b956007d870001c82114,Mexican,13 or older,"no, only English or Spanish",yes,2025-07-24_08h47.02.462,empathy_intonation_perc_control,2024.2.4,Win32,59.88023952,5b29b956007d870001c82114,68817205a84113384fffdfe3,68822b24a9a7517e023e6031,,,,,,,,,,,,,1,,,,,,,,,,,,,,,,,,,,,,,,,,,,,,,,,,,,,6,tergiversar,,,,,456.7451,458.2342,0,0,0.9512,,0,78,78,5,1,REAL,FAKE,,,,,,,,,,,,,,,,,
,,,,,,,,,5b29b956007d870001c82114,Mexican,13 or older,"no, only English or Spanish",yes,2025-07-24_08h47.02.462,empathy_intonation_perc_control,2024.2.4,Win32,59.88023952,5b29b956007d870001c82114,68817205a84113384fffdfe3,68822b24a9a7517e023e6031,,,,,,,,,,,,,1,,,,,,,,,,,,,,,,,,,,,,,,,,,,,,,,,,,,,62,flaco,,,,,458.237,459.8246,0,0,1.0527,,0,79,79,61,1,REAL,FAKE,,,,,,,,,,,,,,,,,
,,,,,,,,,5b29b956007d870001c82114,Mexican,13 or older,"no, only English or Spanish",yes,2025-07-24_08h47.02.462,empathy_intonation_perc_control,2024.2.4,Win32,59.88023952,5b29b956007d870001c82114,68817205a84113384fffdfe3,68822b24a9a7517e023e6031,,,,,,,,,,,,,0,,,,,,,,,,,,,,,,,,,,,,,,,,,,,,,,,,,,,82,empirador,,,,,459.8276,461.3583,1,0,0.9878,,0,80,80,81,1,REAL,FAKE,,,,,,,,,,,,,,,,,
,,,,,,,,,5b29b956007d870001c82114,Mexican,13 or older,"no, only English or Spanish",yes,2025-07-24_08h47.02.462,empathy_intonation_perc_control,2024.2.4,Win32,59.88023952,5b29b956007d870001c82114,68817205a84113384fffdfe3,68822b24a9a7517e023e6031,,,,,,,,,,,,,0,,,,,,,,,,,,,,,,,,,,,,,,,,,,,,,,,,,,,21,capillo,,,,,461.3616,462.841,1,0,0.9354,,0,81,81,20,1,REAL,FAKE,,,,,,,,,,,,,,,,,
,,,,,,,,,5b29b956007d870001c82114,Mexican,13 or older,"no, only English or Spanish",yes,2025-07-24_08h47.02.462,empathy_intonation_perc_control,2024.2.4,Win32,59.88023952,5b29b956007d870001c82114,68817205a84113384fffdfe3,68822b24a9a7517e023e6031,,,,,,,,,,,,,1,,,,,,,,,,,,,,,,,,,,,,,,,,,,,,,,,,,,,81,pozo,,,,,462.8444,464.0084,0,0,0.6205,,0,82,82,80,1,REAL,FAKE,,,,,,,,,,,,,,,,,
,,,,,,,,,5b29b956007d870001c82114,Mexican,13 or older,"no, only English or Spanish",yes,2025-07-24_08h47.02.462,empathy_intonation_perc_control,2024.2.4,Win32,59.88023952,5b29b956007d870001c82114,68817205a84113384fffdfe3,68822b24a9a7517e023e6031,,,,,,,,,,,,,1,,,,,,,,,,,,,,,,,,,,,,,,,,,,,,,,,,,,,2,pellizcar,,,,,464.0123,465.4665,0,0,0.9174,,0,83,83,1,1,REAL,FAKE,,,,,,,,,,,,,,,,,
,,,,,,,,,5b29b956007d870001c82114,Mexican,13 or older,"no, only English or Spanish",yes,2025-07-24_08h47.02.462,empathy_intonation_perc_control,2024.2.4,Win32,59.88023952,5b29b956007d870001c82114,68817205a84113384fffdfe3,68822b24a9a7517e023e6031,,,,,,,,,,,,,1,,,,,,,,,,,,,,,,,,,,,,,,,,,,,,,,,,,,,73,hervidor,,,,,465.4691,466.8249,1,1,0.8209,,0,84,84,72,1,REAL,FAKE,,,,,,,,,,,,,,,,,
,,,,,,,,,5b29b956007d870001c82114,Mexican,13 or older,"no, only English or Spanish",yes,2025-07-24_08h47.02.462,empathy_intonation_perc_control,2024.2.4,Win32,59.88023952,5b29b956007d870001c82114,68817205a84113384fffdfe3,68822b24a9a7517e023e6031,,,,,,,,,,,,,0,,,,,,,,,,,,,,,,,,,,,,,,,,,,,,,,,,,,,16,abracer,,,,,466.828,468.7748,1,0,1.403,,0,85,85,15,1,REAL,FAKE,,,,,,,,,,,,,,,,,
,,,,,,,,,5b29b956007d870001c82114,Mexican,13 or older,"no, only English or Spanish",yes,2025-07-24_08h47.02.462,empathy_intonation_perc_control,2024.2.4,Win32,59.88023952,5b29b956007d870001c82114,68817205a84113384fffdfe3,68822b24a9a7517e023e6031,,,,,,,,,,,,,1,,,,,,,,,,,,,,,,,,,,,,,,,,,,,,,,,,,,,41,rebuscar,,,,,468.7783,470.0248,0,0,0.7035,,0,86,86,40,1,REAL,FAKE,,,,,,,,,,,,,,,,,
,,,,,,,,,5b29b956007d870001c82114,Mexican,13 or older,"no, only English or Spanish",yes,2025-07-24_08h47.02.462,empathy_intonation_perc_control,2024.2.4,Win32,59.88023952,5b29b956007d870001c82114,68817205a84113384fffdfe3,68822b24a9a7517e023e6031,,,,,,,,,,,,,1,,,,,,,,,,,,,,,,,,,,,,,,,,,,,,,,,,,,,80,hormiga,,,,,470.0288,471.4746,0,0,0.9048,,0,87,87,79,1,REAL,FAKE,,,,,,,,,,,,,,,,,
,,,,,,,,,5b29b956007d870001c82114,Mexican,13 or older,"no, only English or Spanish",yes,2025-07-24_08h47.02.462,empathy_intonation_perc_control,2024.2.4,Win32,59.88023952,5b29b956007d870001c82114,68817205a84113384fffdfe3,68822b24a9a7517e023e6031,,,,,,,,,,,,,1,,,,,,,,,,,,,,,,,,,,,,,,,,,,,,,,,,,,,85,laúd,,,,,471.479,473.2331,0,0,1.2174,,0,88,88,84,1,REAL,FAKE,,,,,,,,,,,,,,,,,
,,,,,,,,,5b29b956007d870001c82114,Mexican,13 or older,"no, only English or Spanish",yes,2025-07-24_08h47.02.462,empathy_intonation_perc_control,2024.2.4,Win32,59.88023952,5b29b956007d870001c82114,68817205a84113384fffdfe3,68822b24a9a7517e023e6031,,,,,,,,,,,,,0,,,,,,,,,,,,,,,,,,,,,,,,,,,,,,,,,,,,,10,antar,,,,,473.2362,474.8082,1,0,1.0419,,0,89,89,9,1,REAL,FAKE,,,,,,,,,,,,,,,,,
,,,,,,,,,5b29b956007d870001c82114,Mexican,13 or older,"no, only English or Spanish",yes,2025-07-24_08h47.02.462,empathy_intonation_perc_control,2024.2.4,Win32,59.88023952,5b29b956007d870001c82114,68817205a84113384fffdfe3,68822b24a9a7517e023e6031,,,,,,,,,,,,,1,,,,,,,,,,,,,,,,,,,,,,,,,,,,,,,,,,,,,89,prisa,,,,,474.8121,476.4246,0,0,1.0761,,0,90,90,88,1,REAL,FAKE,,,,,,,,,,,,,,,,,
,,,,,,,,,5b29b956007d870001c82114,Mexican,13 or older,"no, only English or Spanish",yes,2025-07-24_08h47.02.462,empathy_intonation_perc_control,2024.2.4,Win32,59.88023952,5b29b956007d870001c82114,68817205a84113384fffdfe3,68822b24a9a7517e023e6031,,,,,,,,,,,,,0,,,,,,,,,,,,,,,,,,,,,,,,,,,,,,,,,,,,,4,batillón,,,,,476.4291,477.8577,1,0,0.8905,,0,91,91,3,1,REAL,FAKE,,,,,,,,,,,,,,,,,
,,,,,,,,,5b29b956007d870001c82114,Mexican,13 or older,"no, only English or Spanish",yes,2025-07-24_08h47.02.462,empathy_intonation_perc_control,2024.2.4,Win32,59.88023952,5b29b956007d870001c82114,68817205a84113384fffdfe3,68822b24a9a7517e023e6031,,,,,,,,,,,,,,,,,,,,,,,,,,,,,,,,,,,,,,,,,,,,,,,,,,,,,,,,,,,,,,,,,,,,,477.8594,482.0847,,,,,,,,,,,,,,,
,,,,,,,,,5b29b956007d870001c82114,Mexican,13 or older,"no, only English or Spanish",yes,2025-07-24_08h47.02.462,empathy_intonation_perc_control,2024.2.4,Win32,59.88023952,5b29b956007d870001c82114,68817205a84113384fffdfe3,68822b24a9a7517e023e6031,,,,,,,,,,,,,,,,,,,,,,,,,,,1,,,,,,,,,,,,,,,,,,,,,,,,,,,,,,,,,,,,,,,,,,,,482.1138,494.6739,slightly agree,0,0,0,0,1,I can easily tell if someone else wants to enter a conversation.,1,0,1,0,,
,,,,,,,,,5b29b956007d870001c82114,Mexican,13 or older,"no, only English or Spanish",yes,2025-07-24_08h47.02.462,empathy_intonation_perc_control,2024.2.4,Win32,59.88023952,5b29b956007d870001c82114,68817205a84113384fffdfe3,68822b24a9a7517e023e6031,,,,,,,,,,,,,,,,,,,,,,,,,,,2,,,,,,,,,,,,,,,,,,,,,,,,,,,,,,,,,,,,,,,,,,,,494.6773,497.0069,slightly agree,0,1,1,1,1,I prefer animals to humans.,0,1,0,0,,
,,,,,,,,,5b29b956007d870001c82114,Mexican,13 or older,"no, only English or Spanish",yes,2025-07-24_08h47.02.462,empathy_intonation_perc_control,2024.2.4,Win32,59.88023952,5b29b956007d870001c82114,68817205a84113384fffdfe3,68822b24a9a7517e023e6031,,,,,,,,,,,,,,,,,,,,,,,,,,,3,,,,,,,,,,,,,,,,,,,,,,,,,,,,,,,,,,,,,,,,,,,,497.0107,499.1567,slightly disagree,0,2,2,2,1,I try to keep up with the current trends and fashions.,0,1,0,0,,
,,,,,,,,,5b29b956007d870001c82114,Mexican,13 or older,"no, only English or Spanish",yes,2025-07-24_08h47.02.462,empathy_intonation_perc_control,2024.2.4,Win32,59.88023952,5b29b956007d870001c82114,68817205a84113384fffdfe3,68822b24a9a7517e023e6031,,,,,,,,,,,,,,,,,,,,,,,,,,,4,,,,,,,,,,,,,,,,,,,,,,,,,,,,,,,,,,,,,,,,,,,,499.1607,501.4805,slightly disagree,0,3,3,3,1,"I find it difficult to explain to others things that I understand easily,   when they don't understand it first time.",1,0,0,1,,
,,,,,,,,,5b29b956007d870001c82114,Mexican,13 or older,"no, only English or Spanish",yes,2025-07-24_08h47.02.462,empathy_intonation_perc_control,2024.2.4,Win32,59.88023952,5b29b956007d870001c82114,68817205a84113384fffdfe3,68822b24a9a7517e023e6031,,,,,,,,,,,,,,,,,,,,,,,,,,,5,,,,,,,,,,,,,,,,,,,,,,,,,,,,,,,,,,,,,,,,,,,,501.482,503.1782,strongly agree,0,4,4,4,1,I dream most nights.,0,1,0,0,,
,,,,,,,,,5b29b956007d870001c82114,Mexican,13 or older,"no, only English or Spanish",yes,2025-07-24_08h47.02.462,empathy_intonation_perc_control,2024.2.4,Win32,59.88023952,5b29b956007d870001c82114,68817205a84113384fffdfe3,68822b24a9a7517e023e6031,,,,,,,,,,,,,,,,,,,,,,,,,,,6,,,,,,,,,,,,,,,,,,,,,,,,,,,,,,,,,,,,,,,,,,,,503.18,504.5146,slightly agree,0,5,5,5,1,I really enjoy caring for other people.,1,0,1,0,,
,,,,,,,,,5b29b956007d870001c82114,Mexican,13 or older,"no, only English or Spanish",yes,2025-07-24_08h47.02.462,empathy_intonation_perc_control,2024.2.4,Win32,59.88023952,5b29b956007d870001c82114,68817205a84113384fffdfe3,68822b24a9a7517e023e6031,,,,,,,,,,,,,,,,,,,,,,,,,,,7,,,,,,,,,,,,,,,,,,,,,,,,,,,,,,,,,,,,,,,,,,,,504.5161,506.49,strongly agree,0,6,6,6,1,I try to solve my own problems rather than discussing them with others.,0,1,0,0,,
,,,,,,,,,5b29b956007d870001c82114,Mexican,13 or older,"no, only English or Spanish",yes,2025-07-24_08h47.02.462,empathy_intonation_perc_control,2024.2.4,Win32,59.88023952,5b29b956007d870001c82114,68817205a84113384fffdfe3,68822b24a9a7517e023e6031,,,,,,,,,,,,,,,,,,,,,,,,,,,8,,,,,,,,,,,,,,,,,,,,,,,,,,,,,,,,,,,,,,,,,,,,506.4934,508.1896,slightly agree,0,7,7,7,1,I find it hard to know what to do in a social situation.,1,0,0,1,,
,,,,,,,,,5b29b956007d870001c82114,Mexican,13 or older,"no, only English or Spanish",yes,2025-07-24_08h47.02.462,empathy_intonation_perc_control,2024.2.4,Win32,59.88023952,5b29b956007d870001c82114,68817205a84113384fffdfe3,68822b24a9a7517e023e6031,,,,,,,,,,,,,,,,,,,,,,,,,,,9,,,,,,,,,,,,,,,,,,,,,,,,,,,,,,,,,,,,,,,,,,,,508.1927,510.2902,slightly agree,0,8,8,8,1,I am at my best first thing in the morning.,0,1,0,0,,
,,,,,,,,,5b29b956007d870001c82114,Mexican,13 or older,"no, only English or Spanish",yes,2025-07-24_08h47.02.462,empathy_intonation_perc_control,2024.2.4,Win32,59.88023952,5b29b956007d870001c82114,68817205a84113384fffdfe3,68822b24a9a7517e023e6031,,,,,,,,,,,,,,,,,,,,,,,,,,,10,,,,,,,,,,,,,,,,,,,,,,,,,,,,,,,,,,,,,,,,,,,,510.2937,512.9564,slightly disagree,0,9,9,9,1,People often tell me that I went too far in driving my point home in a discussion.,1,0,0,1,,
,,,,,,,,,5b29b956007d870001c82114,Mexican,13 or older,"no, only English or Spanish",yes,2025-07-24_08h47.02.462,empathy_intonation_perc_control,2024.2.4,Win32,59.88023952,5b29b956007d870001c82114,68817205a84113384fffdfe3,68822b24a9a7517e023e6031,,,,,,,,,,,,,,,,,,,,,,,,,,,11,,,,,,,,,,,,,,,,,,,,,,,,,,,,,,,,,,,,,,,,,,,,512.9595,515.0238,slightly disagree,0,10,10,10,1,It doesn't bother me too much if I am late meeting a friend.,1,0,0,1,,
,,,,,,,,,5b29b956007d870001c82114,Mexican,13 or older,"no, only English or Spanish",yes,2025-07-24_08h47.02.462,empathy_intonation_perc_control,2024.2.4,Win32,59.88023952,5b29b956007d870001c82114,68817205a84113384fffdfe3,68822b24a9a7517e023e6031,,,,,,,,,,,,,,,,,,,,,,,,,,,12,,,,,,,,,,,,,,,,,,,,,,,,,,,,,,,,,,,,,,,,,,,,515.0293,516.8739,slightly disagree,0,11,11,11,1,"Friendships and relationships are just too difficult, so I tend not to 
  bother with them.",1,0,0,1,,
,,,,,,,,,5b29b956007d870001c82114,Mexican,13 or older,"no, only English or Spanish",yes,2025-07-24_08h47.02.462,empathy_intonation_perc_control,2024.2.4,Win32,59.88023952,5b29b956007d870001c82114,68817205a84113384fffdfe3,68822b24a9a7517e023e6031,,,,,,,,,,,,,,,,,,,,,,,,,,,13,,,,,,,,,,,,,,,,,,,,,,,,,,,,,,,,,,,,,,,,,,,,516.8788,519.6234,slightly agree,0,12,12,12,1,"I would never break a law, no matter how minor.",0,1,0,0,,
,,,,,,,,,5b29b956007d870001c82114,Mexican,13 or older,"no, only English or Spanish",yes,2025-07-24_08h47.02.462,empathy_intonation_perc_control,2024.2.4,Win32,59.88023952,5b29b956007d870001c82114,68817205a84113384fffdfe3,68822b24a9a7517e023e6031,,,,,,,,,,,,,,,,,,,,,,,,,,,14,,,,,,,,,,,,,,,,,,,,,,,,,,,,,,,,,,,,,,,,,,,,519.6263,523.7231,slightly disagree,0,13,13,13,1,I often find it difficult to judge if something is rude or polite.,1,0,0,1,,
,,,,,,,,,5b29b956007d870001c82114,Mexican,13 or older,"no, only English or Spanish",yes,2025-07-24_08h47.02.462,empathy_intonation_perc_control,2024.2.4,Win32,59.88023952,5b29b956007d870001c82114,68817205a84113384fffdfe3,68822b24a9a7517e023e6031,,,,,,,,,,,,,,,,,,,,,,,,,,,15,,,,,,,,,,,,,,,,,,,,,,,,,,,,,,,,,,,,,,,,,,,,523.7261,528.3897,slightly agree,0,14,14,14,1,"In a conversation, I tend to focus on my own thoughts rather than on what 
  my listener might be thinking.",1,0,0,1,,
,,,,,,,,,5b29b956007d870001c82114,Mexican,13 or older,"no, only English or Spanish",yes,2025-07-24_08h47.02.462,empathy_intonation_perc_control,2024.2.4,Win32,59.88023952,5b29b956007d870001c82114,68817205a84113384fffdfe3,68822b24a9a7517e023e6031,,,,,,,,,,,,,,,,,,,,,,,,,,,16,,,,,,,,,,,,,,,,,,,,,,,,,,,,,,,,,,,,,,,,,,,,528.3922,531.4724,slightly disagree,0,15,15,15,1,I prefer practical jokes to verbal humor.,0,1,0,0,,
,,,,,,,,,5b29b956007d870001c82114,Mexican,13 or older,"no, only English or Spanish",yes,2025-07-24_08h47.02.462,empathy_intonation_perc_control,2024.2.4,Win32,59.88023952,5b29b956007d870001c82114,68817205a84113384fffdfe3,68822b24a9a7517e023e6031,,,,,,,,,,,,,,,,,,,,,,,,,,,17,,,,,,,,,,,,,,,,,,,,,,,,,,,,,,,,,,,,,,,,,,,,531.4748,534.6732,slightly disagree,0,16,16,16,1,I live life for today rather than the future.,0,1,0,0,,
,,,,,,,,,5b29b956007d870001c82114,Mexican,13 or older,"no, only English or Spanish",yes,2025-07-24_08h47.02.462,empathy_intonation_perc_control,2024.2.4,Win32,59.88023952,5b29b956007d870001c82114,68817205a84113384fffdfe3,68822b24a9a7517e023e6031,,,,,,,,,,,,,,,,,,,,,,,,,,,18,,,,,,,,,,,,,,,,,,,,,,,,,,,,,,,,,,,,,,,,,,,,534.6769,536.4231,slightly disagree,0,17,17,17,1,"When I was a child, I enjoyed cutting up worms to see what would happen.",1,0,0,1,,
,,,,,,,,,5b29b956007d870001c82114,Mexican,13 or older,"no, only English or Spanish",yes,2025-07-24_08h47.02.462,empathy_intonation_perc_control,2024.2.4,Win32,59.88023952,5b29b956007d870001c82114,68817205a84113384fffdfe3,68822b24a9a7517e023e6031,,,,,,,,,,,,,,,,,,,,,,,,,,,19,,,,,,,,,,,,,,,,,,,,,,,,,,,,,,,,,,,,,,,,,,,,536.4258,541.5728,slightly agree,0,18,18,18,1,I can pick up quickly if someone says one thing but means another.,1,0,1,0,,
,,,,,,,,,5b29b956007d870001c82114,Mexican,13 or older,"no, only English or Spanish",yes,2025-07-24_08h47.02.462,empathy_intonation_perc_control,2024.2.4,Win32,59.88023952,5b29b956007d870001c82114,68817205a84113384fffdfe3,68822b24a9a7517e023e6031,,,,,,,,,,,,,,,,,,,,,,,,,,,20,,,,,,,,,,,,,,,,,,,,,,,,,,,,,,,,,,,,,,,,,,,,541.5755,543.1559,slightly agree,0,19,19,19,1,I tend to have very strong opinions about morality.,0,1,0,0,,
,,,,,,,,,5b29b956007d870001c82114,Mexican,13 or older,"no, only English or Spanish",yes,2025-07-24_08h47.02.462,empathy_intonation_perc_control,2024.2.4,Win32,59.88023952,5b29b956007d870001c82114,68817205a84113384fffdfe3,68822b24a9a7517e023e6031,,,,,,,,,,,,,,,,,,,,,,,,,,,21,,,,,,,,,,,,,,,,,,,,,,,,,,,,,,,,,,,,,,,,,,,,543.1581,544.9388,slightly disagree,0,20,20,20,1,It is hard for me to see why some things upset people so much.,1,0,0,1,,
,,,,,,,,,5b29b956007d870001c82114,Mexican,13 or older,"no, only English or Spanish",yes,2025-07-24_08h47.02.462,empathy_intonation_perc_control,2024.2.4,Win32,59.88023952,5b29b956007d870001c82114,68817205a84113384fffdfe3,68822b24a9a7517e023e6031,,,,,,,,,,,,,,,,,,,,,,,,,,,22,,,,,,,,,,,,,,,,,,,,,,,,,,,,,,,,,,,,,,,,,,,,544.9408,547.7396,slightly agree,0,21,21,21,1,I find it easy to put myself in somebody else's shoes.,1,0,1,0,,
,,,,,,,,,5b29b956007d870001c82114,Mexican,13 or older,"no, only English or Spanish",yes,2025-07-24_08h47.02.462,empathy_intonation_perc_control,2024.2.4,Win32,59.88023952,5b29b956007d870001c82114,68817205a84113384fffdfe3,68822b24a9a7517e023e6031,,,,,,,,,,,,,,,,,,,,,,,,,,,23,,,,,,,,,,,,,,,,,,,,,,,,,,,,,,,,,,,,,,,,,,,,547.7422,549.9727,slightly disagree,0,22,22,22,1,I think that good manners are the most important thing a parent can teach their child.,0,1,0,0,,
,,,,,,,,,5b29b956007d870001c82114,Mexican,13 or older,"no, only English or Spanish",yes,2025-07-24_08h47.02.462,empathy_intonation_perc_control,2024.2.4,Win32,59.88023952,5b29b956007d870001c82114,68817205a84113384fffdfe3,68822b24a9a7517e023e6031,,,,,,,,,,,,,,,,,,,,,,,,,,,24,,,,,,,,,,,,,,,,,,,,,,,,,,,,,,,,,,,,,,,,,,,,549.9757,552.3725,slightly disagree,0,23,23,23,1,I like to do things on the spur of the moment.,0,1,0,0,,
