instructions_2afc.started,instructions_2afc.stopped,instructions_2afc_loop.thisRepN,instructions_2afc_loop.thisTrialN,instructions_2afc_loop.thisN,instructions_2afc_loop.thisIndex,instructions_2afc_loop.ran,instructions_text,continue_text,participant_id,"What variety of Spanish are you most familiar with? (e.g., Peruvian, Spanish, Mexican)",At what age did you begin learning Spanish?,Are you proficient in any languages other than English/Spanish?,"Are you familiar with Caribbean (e.g., Caribbean, Puerto Rican) or Galician Spanish?",date,expName,psychopyVersion,OS,frameRate,id,study_id,session,practice_2afc.started,practice_2afc.stopped,key_resp_2afc_practice.keys,key_resp_2afc_practice.corr,key_resp_2afc_practice.rt,key_resp_2afc_practice.duration,trials_2afc_practice_loop.thisRepN,trials_2afc_practice_loop.thisTrialN,trials_2afc_practice_loop.thisN,trials_2afc_practice_loop.thisIndex,trials_2afc_practice_loop.ran,path,correct_response,check_2afc.started,check_2afc.stopped,trial_2afc.started,trial_2afc.stopped,key_resp_2afc_trial.keys,key_resp_2afc_trial.corr,key_resp_2afc_trial.rt,key_resp_2afc_trial.duration,trials_2afc_loop.thisRepN,trials_2afc_loop.thisTrialN,trials_2afc_loop.thisN,trials_2afc_loop.thisIndex,trials_2afc_loop.ran,item_num,target,variety,instructions_lextale.started,instructions_lextale.stopped,instructions_lextale_loop.thisRepN,instructions_lextale_loop.thisTrialN,instructions_lextale_loop.thisN,instructions_lextale_loop.thisIndex,instructions_lextale_loop.ran,practice_lextale.started,practice_lextale.stopped,key_resp_lextale_practice.keys,key_resp_lextale_practice.corr,key_resp_lextale_practice.rt,key_resp_lextale_practice.duration,practice_feedback_lextale.started,practice_feedback_lextale.stopped,trials_lextale_practice_loop.thisRepN,trials_lextale_practice_loop.thisTrialN,trials_lextale_practice_loop.thisN,trials_lextale_practice_loop.thisIndex,trials_lextale_practice_loop.ran,stim,word,prac_button_real,prac_button_false,check_lextale.started,check_lextale.stopped,trial_lextale.started,trial_lextale.stopped,key_resp_lextale_trial.keys,key_resp_lextale_trial.corr,key_resp_lextale_trial.rt,key_resp_lextale_trial.duration,trials_lextale_loop.thisRepN,trials_lextale_loop.thisTrialN,trials_lextale_loop.thisN,trials_lextale_loop.thisIndex,trials_lextale_loop.ran,button_real,button_false,instructions_eq.started,instructions_eq.stopped,trial_eq.started,trial_eq.stopped,slider_eq_trial.response,trials_eq_loop.thisRepN,trials_eq_loop.thisTrialN,trials_eq_loop.thisN,trials_eq_loop.thisIndex,trials_eq_loop.ran,item,is_test_item,is_distractor,is_agree_score,is_disagree_score,end_exp.started,end_exp.stopped
0.009,7.242,0,0,0,0,1,"In the following task you are going to hear a series of utterances. 

  You will decide if the utterances sound like questions or not using your keyboard.", (press the spacebar to continue),5b50881a59119400018abaf3,Spanish,13 or older,"no, only English or Spanish",no,2025-07-24_07h42.11.941,empathy_intonation_perc_control,2024.2.4,Win32,59.95203837,5b50881a59119400018abaf3,68817205a84113384fffdfe3,68821aaec9d0243f69a77134,,,,,,,,,,,,,,,,,,,,,,,,,,,,,,,,,,,,,,,,,,,,,,,,,,,,,,,,,,,,,,,,,,,,,,,,,,,,,,,,,,,,,
7.242,9.281,0,1,1,1,1,"If you believe the utterance is a question, type '1' (for 'yes') and if you do not 
  believe it is a question type '0' (for 'no').

  Let's practice a bit...", (press the spacebar to continue),5b50881a59119400018abaf3,Spanish,13 or older,"no, only English or Spanish",no,2025-07-24_07h42.11.941,empathy_intonation_perc_control,2024.2.4,Win32,59.95203837,5b50881a59119400018abaf3,68817205a84113384fffdfe3,68821aaec9d0243f69a77134,,,,,,,,,,,,,,,,,,,,,,,,,,,,,,,,,,,,,,,,,,,,,,,,,,,,,,,,,,,,,,,,,,,,,,,,,,,,,,,,,,,,,
,,,,,,,,,5b50881a59119400018abaf3,Spanish,13 or older,"no, only English or Spanish",no,2025-07-24_07h42.11.941,empathy_intonation_perc_control,2024.2.4,Win32,59.95203837,5b50881a59119400018abaf3,68817205a84113384fffdfe3,68821aaec9d0243f69a77134,9.295,11.551,0,1,1.738,,0,0,0,7,1,./stim/wavs/puertorican_statement_filler_La-nina-pinta-con-su-amiga.wav,0,,,,,,,,,,,,,,,,,,,,,,,,,,,,,,,,,,,,,,,,,,,,,,,,,,,,,,,,,,,,,,,,,,,,,,,,
,,,,,,,,,5b50881a59119400018abaf3,Spanish,13 or older,"no, only English or Spanish",no,2025-07-24_07h42.11.941,empathy_intonation_perc_control,2024.2.4,Win32,59.95203837,5b50881a59119400018abaf3,68817205a84113384fffdfe3,68821aaec9d0243f69a77134,11.552,14.208,0,1,2.143,,0,1,1,6,1,./stim/wavs/peruvian_statement_filler_El-nino-habla-con-su-madre.wav,0,,,,,,,,,,,,,,,,,,,,,,,,,,,,,,,,,,,,,,,,,,,,,,,,,,,,,,,,,,,,,,,,,,,,,,,,
,,,,,,,,,5b50881a59119400018abaf3,Spanish,13 or older,"no, only English or Spanish",no,2025-07-24_07h42.11.941,empathy_intonation_perc_control,2024.2.4,Win32,59.95203837,5b50881a59119400018abaf3,68817205a84113384fffdfe3,68821aaec9d0243f69a77134,14.209,16.463,1,1,1.739,,0,2,2,0,1,./stim/wavs/castilian_question_filler_Mi-esposo-conoce-al-chico.wav,1,,,,,,,,,,,,,,,,,,,,,,,,,,,,,,,,,,,,,,,,,,,,,,,,,,,,,,,,,,,,,,,,,,,,,,,,
,,,,,,,,,5b50881a59119400018abaf3,Spanish,13 or older,"no, only English or Spanish",no,2025-07-24_07h42.11.941,empathy_intonation_perc_control,2024.2.4,Win32,59.95203837,5b50881a59119400018abaf3,68817205a84113384fffdfe3,68821aaec9d0243f69a77134,16.464,18.334,0,0,1.356,,0,3,3,2,1,./stim/wavs/chilean_question_filler_Mi-padre-cantaba-bien.wav,1,,,,,,,,,,,,,,,,,,,,,,,,,,,,,,,,,,,,,,,,,,,,,,,,,,,,,,,,,,,,,,,,,,,,,,,,
,,,,,,,,,5b50881a59119400018abaf3,Spanish,13 or older,"no, only English or Spanish",no,2025-07-24_07h42.11.941,empathy_intonation_perc_control,2024.2.4,Win32,59.95203837,5b50881a59119400018abaf3,68817205a84113384fffdfe3,68821aaec9d0243f69a77134,18.335,20.388,0,1,1.537,,0,4,4,4,1,./stim/wavs/cuban_statement_filler_Cocinabas-por-la-noche.wav,0,,,,,,,,,,,,,,,,,,,,,,,,,,,,,,,,,,,,,,,,,,,,,,,,,,,,,,,,,,,,,,,,,,,,,,,,
,,,,,,,,,5b50881a59119400018abaf3,Spanish,13 or older,"no, only English or Spanish",no,2025-07-24_07h42.11.941,empathy_intonation_perc_control,2024.2.4,Win32,59.95203837,5b50881a59119400018abaf3,68817205a84113384fffdfe3,68821aaec9d0243f69a77134,20.388,22.56,1,1,1.661,,0,5,5,3,1,./stim/wavs/mexican_question_filler_Felipe-no-tiene-contrasena.wav,1,,,,,,,,,,,,,,,,,,,,,,,,,,,,,,,,,,,,,,,,,,,,,,,,,,,,,,,,,,,,,,,,,,,,,,,,
,,,,,,,,,5b50881a59119400018abaf3,Spanish,13 or older,"no, only English or Spanish",no,2025-07-24_07h42.11.941,empathy_intonation_perc_control,2024.2.4,Win32,59.95203837,5b50881a59119400018abaf3,68817205a84113384fffdfe3,68821aaec9d0243f69a77134,22.56,24.597,1,1,1.523,,0,6,6,1,1,./stim/wavs/argentine_question_filler_Mi-vecino-habla-mucho.wav,1,,,,,,,,,,,,,,,,,,,,,,,,,,,,,,,,,,,,,,,,,,,,,,,,,,,,,,,,,,,,,,,,,,,,,,,,
,,,,,,,,,5b50881a59119400018abaf3,Spanish,13 or older,"no, only English or Spanish",no,2025-07-24_07h42.11.941,empathy_intonation_perc_control,2024.2.4,Win32,59.95203837,5b50881a59119400018abaf3,68817205a84113384fffdfe3,68821aaec9d0243f69a77134,24.598,26.77,0,1,1.655,,0,7,7,5,1,./stim/wavs/andalusian_statement_filler_Alberto-nunca-se-afeita.wav,0,,,,,,,,,,,,,,,,,,,,,,,,,,,,,,,,,,,,,,,,,,,,,,,,,,,,,,,,,,,,,,,,,,,,,,,,
,,,,,,,,,5b50881a59119400018abaf3,Spanish,13 or older,"no, only English or Spanish",no,2025-07-24_07h42.11.941,empathy_intonation_perc_control,2024.2.4,Win32,59.95203837,5b50881a59119400018abaf3,68817205a84113384fffdfe3,68821aaec9d0243f69a77134,,,,,,,,,,,,,,26.771,28.941,,,,,,,,,,,,,,,,,,,,,,,,,,,,,,,,,,,,,,,,,,,,,,,,,,,,,,,,,,,,,,,,,,,,,,
,,,,,,,,,5b50881a59119400018abaf3,Spanish,13 or older,"no, only English or Spanish",no,2025-07-24_07h42.11.941,empathy_intonation_perc_control,2024.2.4,Win32,59.95203837,5b50881a59119400018abaf3,68817205a84113384fffdfe3,68821aaec9d0243f69a77134,,,,,,,,,,,,./stim/wavs/castilian_mismatch_interrogative-total-yn_Mi-madre-come-la-fruta.wav,1,,,28.965,31.213,1,1,1.722,,0,0,0,26,1,27,0,castilian,,,,,,,,,,,,,,,,,,,,,,,,,,,,,,,,,,,,,,,,,,,,,,,,,,,,,,,,
,,,,,,,,,5b50881a59119400018abaf3,Spanish,13 or older,"no, only English or Spanish",no,2025-07-24_07h42.11.941,empathy_intonation_perc_control,2024.2.4,Win32,59.95203837,5b50881a59119400018abaf3,68817205a84113384fffdfe3,68821aaec9d0243f69a77134,,,,,,,,,,,,./stim/wavs/puertorican_match_declarative-broad-focus_Ana-lleva-el-abrigo.wav,0,,,31.214,33.051,0,1,1.321,,0,1,1,62,1,63,0,puertorican,,,,,,,,,,,,,,,,,,,,,,,,,,,,,,,,,,,,,,,,,,,,,,,,,,,,,,,,
,,,,,,,,,5b50881a59119400018abaf3,Spanish,13 or older,"no, only English or Spanish",no,2025-07-24_07h42.11.941,empathy_intonation_perc_control,2024.2.4,Win32,59.95203837,5b50881a59119400018abaf3,68817205a84113384fffdfe3,68821aaec9d0243f69a77134,,,,,,,,,,,,./stim/wavs/puertorican_match_declarative-broad-focus_Maria-bebe-el-vino.wav,0,,,33.052,35.188,1,0,1.618,,0,2,2,67,1,68,0,puertorican,,,,,,,,,,,,,,,,,,,,,,,,,,,,,,,,,,,,,,,,,,,,,,,,,,,,,,,,
,,,,,,,,,5b50881a59119400018abaf3,Spanish,13 or older,"no, only English or Spanish",no,2025-07-24_07h42.11.941,empathy_intonation_perc_control,2024.2.4,Win32,59.95203837,5b50881a59119400018abaf3,68817205a84113384fffdfe3,68821aaec9d0243f69a77134,,,,,,,,,,,,./stim/wavs/puertorican_mismatch_interrogative-total-yn_Mi-madre-come-la-fruta.wav,1,,,35.189,37.243,0,0,1.54,,0,3,3,43,1,44,1,puertorican,,,,,,,,,,,,,,,,,,,,,,,,,,,,,,,,,,,,,,,,,,,,,,,,,,,,,,,,
,,,,,,,,,5b50881a59119400018abaf3,Spanish,13 or older,"no, only English or Spanish",no,2025-07-24_07h42.11.941,empathy_intonation_perc_control,2024.2.4,Win32,59.95203837,5b50881a59119400018abaf3,68817205a84113384fffdfe3,68821aaec9d0243f69a77134,,,,,,,,,,,,./stim/wavs/cuban_match_declarative-broad-focus_Marta-abre-el-regalo.wav,0,,,37.244,39.365,0,1,1.608,,0,4,4,55,1,56,0,cuban,,,,,,,,,,,,,,,,,,,,,,,,,,,,,,,,,,,,,,,,,,,,,,,,,,,,,,,,
,,,,,,,,,5b50881a59119400018abaf3,Spanish,13 or older,"no, only English or Spanish",no,2025-07-24_07h42.11.941,empathy_intonation_perc_control,2024.2.4,Win32,59.95203837,5b50881a59119400018abaf3,68817205a84113384fffdfe3,68821aaec9d0243f69a77134,,,,,,,,,,,,./stim/wavs/puertorican_mismatch_interrogative-total-yn_La-maestra-vive-en-Paris.wav,1,,,39.365,41.587,0,0,1.708,,0,5,5,41,1,42,1,puertorican,,,,,,,,,,,,,,,,,,,,,,,,,,,,,,,,,,,,,,,,,,,,,,,,,,,,,,,,
,,,,,,,,,5b50881a59119400018abaf3,Spanish,13 or older,"no, only English or Spanish",no,2025-07-24_07h42.11.941,empathy_intonation_perc_control,2024.2.4,Win32,59.95203837,5b50881a59119400018abaf3,68817205a84113384fffdfe3,68821aaec9d0243f69a77134,,,,,,,,,,,,./stim/wavs/puertorican_match_declarative-broad-focus_Daniel-iba-a-Bolivia.wav,0,,,41.588,43.541,0,1,1.442,,0,6,6,63,1,64,0,puertorican,,,,,,,,,,,,,,,,,,,,,,,,,,,,,,,,,,,,,,,,,,,,,,,,,,,,,,,,
,,,,,,,,,5b50881a59119400018abaf3,Spanish,13 or older,"no, only English or Spanish",no,2025-07-24_07h42.11.941,empathy_intonation_perc_control,2024.2.4,Win32,59.95203837,5b50881a59119400018abaf3,68817205a84113384fffdfe3,68821aaec9d0243f69a77134,,,,,,,,,,,,./stim/wavs/cuban_match_interrogative-total-yn_Daniel-iba-a-Bolivia.wav,1,,,43.542,45.563,0,0,1.504,,0,7,7,7,1,8,1,cuban,,,,,,,,,,,,,,,,,,,,,,,,,,,,,,,,,,,,,,,,,,,,,,,,,,,,,,,,
,,,,,,,,,5b50881a59119400018abaf3,Spanish,13 or older,"no, only English or Spanish",no,2025-07-24_07h42.11.941,empathy_intonation_perc_control,2024.2.4,Win32,59.95203837,5b50881a59119400018abaf3,68817205a84113384fffdfe3,68821aaec9d0243f69a77134,,,,,,,,,,,,./stim/wavs/cuban_mismatch_interrogative-total-yn_Mi-novio-viene-del-lago.wav,1,,,45.563,47.75,0,0,1.67,,0,8,8,32,1,33,1,cuban,,,,,,,,,,,,,,,,,,,,,,,,,,,,,,,,,,,,,,,,,,,,,,,,,,,,,,,,
,,,,,,,,,5b50881a59119400018abaf3,Spanish,13 or older,"no, only English or Spanish",no,2025-07-24_07h42.11.941,empathy_intonation_perc_control,2024.2.4,Win32,59.95203837,5b50881a59119400018abaf3,68817205a84113384fffdfe3,68821aaec9d0243f69a77134,,,,,,,,,,,,./stim/wavs/cuban_mismatch_declarative-broad-focus_Mi-novio-viene-del-lago.wav,0,,,47.751,49.955,0,1,1.688,,0,9,9,76,1,77,0,cuban,,,,,,,,,,,,,,,,,,,,,,,,,,,,,,,,,,,,,,,,,,,,,,,,,,,,,,,,
,,,,,,,,,5b50881a59119400018abaf3,Spanish,13 or older,"no, only English or Spanish",no,2025-07-24_07h42.11.941,empathy_intonation_perc_control,2024.2.4,Win32,59.95203837,5b50881a59119400018abaf3,68817205a84113384fffdfe3,68821aaec9d0243f69a77134,,,,,,,,,,,,./stim/wavs/castilian_match_interrogative-total-yn_David-leia-el-libro.wav,1,,,49.956,52.077,1,1,1.603,,0,10,10,0,1,1,0,castilian,,,,,,,,,,,,,,,,,,,,,,,,,,,,,,,,,,,,,,,,,,,,,,,,,,,,,,,,
,,,,,,,,,5b50881a59119400018abaf3,Spanish,13 or older,"no, only English or Spanish",no,2025-07-24_07h42.11.941,empathy_intonation_perc_control,2024.2.4,Win32,59.95203837,5b50881a59119400018abaf3,68817205a84113384fffdfe3,68821aaec9d0243f69a77134,,,,,,,,,,,,./stim/wavs/castilian_match_declarative-broad-focus_Emilio-ama-la-marcha.wav,0,,,52.078,54.216,0,1,1.617,,0,11,11,45,1,46,0,castilian,,,,,,,,,,,,,,,,,,,,,,,,,,,,,,,,,,,,,,,,,,,,,,,,,,,,,,,,
,,,,,,,,,5b50881a59119400018abaf3,Spanish,13 or older,"no, only English or Spanish",no,2025-07-24_07h42.11.941,empathy_intonation_perc_control,2024.2.4,Win32,59.95203837,5b50881a59119400018abaf3,68817205a84113384fffdfe3,68821aaec9d0243f69a77134,,,,,,,,,,,,./stim/wavs/cuban_mismatch_declarative-broad-focus_El-hombre-mira-la-luna.wav,0,,,54.216,56.103,0,1,1.371,,0,12,12,74,1,75,0,cuban,,,,,,,,,,,,,,,,,,,,,,,,,,,,,,,,,,,,,,,,,,,,,,,,,,,,,,,,
,,,,,,,,,5b50881a59119400018abaf3,Spanish,13 or older,"no, only English or Spanish",no,2025-07-24_07h42.11.941,empathy_intonation_perc_control,2024.2.4,Win32,59.95203837,5b50881a59119400018abaf3,68817205a84113384fffdfe3,68821aaec9d0243f69a77134,,,,,,,,,,,,./stim/wavs/puertorican_match_declarative-broad-focus_Emilio-ama-la-marcha.wav,0,,,56.104,58.091,0,1,1.475,,0,13,13,65,1,66,0,puertorican,,,,,,,,,,,,,,,,,,,,,,,,,,,,,,,,,,,,,,,,,,,,,,,,,,,,,,,,
,,,,,,,,,5b50881a59119400018abaf3,Spanish,13 or older,"no, only English or Spanish",no,2025-07-24_07h42.11.941,empathy_intonation_perc_control,2024.2.4,Win32,59.95203837,5b50881a59119400018abaf3,68817205a84113384fffdfe3,68821aaec9d0243f69a77134,,,,,,,,,,,,./stim/wavs/puertorican_mismatch_interrogative-total-yn_El-hombre-mira-la-luna.wav,1,,,58.091,60.414,1,1,1.806,,0,14,14,39,1,40,1,puertorican,,,,,,,,,,,,,,,,,,,,,,,,,,,,,,,,,,,,,,,,,,,,,,,,,,,,,,,,
,,,,,,,,,5b50881a59119400018abaf3,Spanish,13 or older,"no, only English or Spanish",no,2025-07-24_07h42.11.941,empathy_intonation_perc_control,2024.2.4,Win32,59.95203837,5b50881a59119400018abaf3,68817205a84113384fffdfe3,68821aaec9d0243f69a77134,,,,,,,,,,,,./stim/wavs/castilian_match_declarative-broad-focus_Mariano-habla-del-tiempo.wav,0,,,60.416,62.801,0,1,1.86,,0,15,15,48,1,49,0,castilian,,,,,,,,,,,,,,,,,,,,,,,,,,,,,,,,,,,,,,,,,,,,,,,,,,,,,,,,
,,,,,,,,,5b50881a59119400018abaf3,Spanish,13 or older,"no, only English or Spanish",no,2025-07-24_07h42.11.941,empathy_intonation_perc_control,2024.2.4,Win32,59.95203837,5b50881a59119400018abaf3,68817205a84113384fffdfe3,68821aaec9d0243f69a77134,,,,,,,,,,,,./stim/wavs/mexican_match_declarative-broad-focus_Daniel-iba-a-Bolivia.wav,0,,,62.802,64.756,0,1,1.434,,0,16,16,57,1,58,0,mexican,,,,,,,,,,,,,,,,,,,,,,,,,,,,,,,,,,,,,,,,,,,,,,,,,,,,,,,,
,,,,,,,,,5b50881a59119400018abaf3,Spanish,13 or older,"no, only English or Spanish",no,2025-07-24_07h42.11.941,empathy_intonation_perc_control,2024.2.4,Win32,59.95203837,5b50881a59119400018abaf3,68817205a84113384fffdfe3,68821aaec9d0243f69a77134,,,,,,,,,,,,./stim/wavs/puertorican_match_interrogative-total-yn_Manuela-vende-el-carro.wav,1,,,64.757,66.828,0,0,1.537,,0,17,17,22,1,23,1,puertorican,,,,,,,,,,,,,,,,,,,,,,,,,,,,,,,,,,,,,,,,,,,,,,,,,,,,,,,,
,,,,,,,,,5b50881a59119400018abaf3,Spanish,13 or older,"no, only English or Spanish",no,2025-07-24_07h42.11.941,empathy_intonation_perc_control,2024.2.4,Win32,59.95203837,5b50881a59119400018abaf3,68817205a84113384fffdfe3,68821aaec9d0243f69a77134,,,,,,,,,,,,./stim/wavs/mexican_match_declarative-broad-focus_David-leia-el-libro.wav,0,,,66.828,68.715,0,1,1.373,,0,18,18,58,1,59,0,mexican,,,,,,,,,,,,,,,,,,,,,,,,,,,,,,,,,,,,,,,,,,,,,,,,,,,,,,,,
,,,,,,,,,5b50881a59119400018abaf3,Spanish,13 or older,"no, only English or Spanish",no,2025-07-24_07h42.11.941,empathy_intonation_perc_control,2024.2.4,Win32,59.95203837,5b50881a59119400018abaf3,68817205a84113384fffdfe3,68821aaec9d0243f69a77134,,,,,,,,,,,,./stim/wavs/puertorican_mismatch_declarative-broad-focus_El-bebe-comia-muy-bien.wav,0,,,68.716,70.669,0,1,1.439,,0,19,19,83,1,84,0,puertorican,,,,,,,,,,,,,,,,,,,,,,,,,,,,,,,,,,,,,,,,,,,,,,,,,,,,,,,,
,,,,,,,,,5b50881a59119400018abaf3,Spanish,13 or older,"no, only English or Spanish",no,2025-07-24_07h42.11.941,empathy_intonation_perc_control,2024.2.4,Win32,59.95203837,5b50881a59119400018abaf3,68817205a84113384fffdfe3,68821aaec9d0243f69a77134,,,,,,,,,,,,./stim/wavs/puertorican_mismatch_interrogative-total-yn_La-nina-lava-el-plato.wav,1,,,70.67,72.74,1,1,1.557,,0,20,20,42,1,43,1,puertorican,,,,,,,,,,,,,,,,,,,,,,,,,,,,,,,,,,,,,,,,,,,,,,,,,,,,,,,,
,,,,,,,,,5b50881a59119400018abaf3,Spanish,13 or older,"no, only English or Spanish",no,2025-07-24_07h42.11.941,empathy_intonation_perc_control,2024.2.4,Win32,59.95203837,5b50881a59119400018abaf3,68817205a84113384fffdfe3,68821aaec9d0243f69a77134,,,,,,,,,,,,./stim/wavs/cuban_mismatch_interrogative-total-yn_Mi-madre-come-la-fruta.wav,1,,,72.742,74.762,0,0,1.497,,0,21,21,31,1,32,1,cuban,,,,,,,,,,,,,,,,,,,,,,,,,,,,,,,,,,,,,,,,,,,,,,,,,,,,,,,,
,,,,,,,,,5b50881a59119400018abaf3,Spanish,13 or older,"no, only English or Spanish",no,2025-07-24_07h42.11.941,empathy_intonation_perc_control,2024.2.4,Win32,59.95203837,5b50881a59119400018abaf3,68817205a84113384fffdfe3,68821aaec9d0243f69a77134,,,,,,,,,,,,./stim/wavs/cuban_match_declarative-broad-focus_Ana-lleva-el-abrigo.wav,0,,,74.763,76.784,0,1,1.508,,0,22,22,50,1,51,0,cuban,,,,,,,,,,,,,,,,,,,,,,,,,,,,,,,,,,,,,,,,,,,,,,,,,,,,,,,,
,,,,,,,,,5b50881a59119400018abaf3,Spanish,13 or older,"no, only English or Spanish",no,2025-07-24_07h42.11.941,empathy_intonation_perc_control,2024.2.4,Win32,59.95203837,5b50881a59119400018abaf3,68817205a84113384fffdfe3,68821aaec9d0243f69a77134,,,,,,,,,,,,./stim/wavs/cuban_mismatch_interrogative-total-yn_Mi-tia-odia-la-lluvia.wav,1,,,76.785,78.738,0,0,1.434,,0,23,23,33,1,34,1,cuban,,,,,,,,,,,,,,,,,,,,,,,,,,,,,,,,,,,,,,,,,,,,,,,,,,,,,,,,
,,,,,,,,,5b50881a59119400018abaf3,Spanish,13 or older,"no, only English or Spanish",no,2025-07-24_07h42.11.941,empathy_intonation_perc_control,2024.2.4,Win32,59.95203837,5b50881a59119400018abaf3,68817205a84113384fffdfe3,68821aaec9d0243f69a77134,,,,,,,,,,,,./stim/wavs/puertorican_match_interrogative-total-yn_Daniel-iba-a-Bolivia.wav,1,,,78.739,80.775,0,0,1.527,,0,24,24,19,1,20,1,puertorican,,,,,,,,,,,,,,,,,,,,,,,,,,,,,,,,,,,,,,,,,,,,,,,,,,,,,,,,
,,,,,,,,,5b50881a59119400018abaf3,Spanish,13 or older,"no, only English or Spanish",no,2025-07-24_07h42.11.941,empathy_intonation_perc_control,2024.2.4,Win32,59.95203837,5b50881a59119400018abaf3,68817205a84113384fffdfe3,68821aaec9d0243f69a77134,,,,,,,,,,,,./stim/wavs/castilian_match_declarative-broad-focus_David-leia-el-libro.wav,0,,,80.776,82.981,0,1,1.691,,0,25,25,44,1,45,0,castilian,,,,,,,,,,,,,,,,,,,,,,,,,,,,,,,,,,,,,,,,,,,,,,,,,,,,,,,,
,,,,,,,,,5b50881a59119400018abaf3,Spanish,13 or older,"no, only English or Spanish",no,2025-07-24_07h42.11.941,empathy_intonation_perc_control,2024.2.4,Win32,59.95203837,5b50881a59119400018abaf3,68817205a84113384fffdfe3,68821aaec9d0243f69a77134,,,,,,,,,,,,./stim/wavs/cuban_match_interrogative-total-yn_Maria-bebe-el-vino.wav,1,,,82.982,85.186,0,0,1.688,,0,26,26,9,1,10,1,cuban,,,,,,,,,,,,,,,,,,,,,,,,,,,,,,,,,,,,,,,,,,,,,,,,,,,,,,,,
,,,,,,,,,5b50881a59119400018abaf3,Spanish,13 or older,"no, only English or Spanish",no,2025-07-24_07h42.11.941,empathy_intonation_perc_control,2024.2.4,Win32,59.95203837,5b50881a59119400018abaf3,68817205a84113384fffdfe3,68821aaec9d0243f69a77134,,,,,,,,,,,,./stim/wavs/puertorican_match_interrogative-total-yn_David-leia-el-libro.wav,1,,,85.187,86.989,0,0,1.285,,0,27,27,20,1,21,1,puertorican,,,,,,,,,,,,,,,,,,,,,,,,,,,,,,,,,,,,,,,,,,,,,,,,,,,,,,,,
,,,,,,,,,5b50881a59119400018abaf3,Spanish,13 or older,"no, only English or Spanish",no,2025-07-24_07h42.11.941,empathy_intonation_perc_control,2024.2.4,Win32,59.95203837,5b50881a59119400018abaf3,68817205a84113384fffdfe3,68821aaec9d0243f69a77134,,,,,,,,,,,,./stim/wavs/mexican_mismatch_interrogative-total-yn_Mi-tia-odia-la-lluvia.wav,1,,,86.99,89.095,1,1,1.589,,0,28,28,38,1,39,0,mexican,,,,,,,,,,,,,,,,,,,,,,,,,,,,,,,,,,,,,,,,,,,,,,,,,,,,,,,,
,,,,,,,,,5b50881a59119400018abaf3,Spanish,13 or older,"no, only English or Spanish",no,2025-07-24_07h42.11.941,empathy_intonation_perc_control,2024.2.4,Win32,59.95203837,5b50881a59119400018abaf3,68817205a84113384fffdfe3,68821aaec9d0243f69a77134,,,,,,,,,,,,./stim/wavs/castilian_mismatch_declarative-broad-focus_Mi-novio-viene-del-lago.wav,0,,,89.095,91.534,0,1,1.922,,0,29,29,71,1,72,0,castilian,,,,,,,,,,,,,,,,,,,,,,,,,,,,,,,,,,,,,,,,,,,,,,,,,,,,,,,,
,,,,,,,,,5b50881a59119400018abaf3,Spanish,13 or older,"no, only English or Spanish",no,2025-07-24_07h42.11.941,empathy_intonation_perc_control,2024.2.4,Win32,59.95203837,5b50881a59119400018abaf3,68817205a84113384fffdfe3,68821aaec9d0243f69a77134,,,,,,,,,,,,./stim/wavs/castilian_match_interrogative-total-yn_Emilio-ama-la-marcha.wav,1,,,91.535,94.173,1,1,2.105,,0,30,30,1,1,2,0,castilian,,,,,,,,,,,,,,,,,,,,,,,,,,,,,,,,,,,,,,,,,,,,,,,,,,,,,,,,
,,,,,,,,,5b50881a59119400018abaf3,Spanish,13 or older,"no, only English or Spanish",no,2025-07-24_07h42.11.941,empathy_intonation_perc_control,2024.2.4,Win32,59.95203837,5b50881a59119400018abaf3,68817205a84113384fffdfe3,68821aaec9d0243f69a77134,,,,,,,,,,,,./stim/wavs/cuban_match_interrogative-total-yn_Marta-abre-el-regalo.wav,1,,,94.176,96.144,0,0,1.435,,0,31,31,11,1,12,1,cuban,,,,,,,,,,,,,,,,,,,,,,,,,,,,,,,,,,,,,,,,,,,,,,,,,,,,,,,,
,,,,,,,,,5b50881a59119400018abaf3,Spanish,13 or older,"no, only English or Spanish",no,2025-07-24_07h42.11.941,empathy_intonation_perc_control,2024.2.4,Win32,59.95203837,5b50881a59119400018abaf3,68817205a84113384fffdfe3,68821aaec9d0243f69a77134,,,,,,,,,,,,./stim/wavs/castilian_match_interrogative-total-yn_Mariano-habla-del-tiempo.wav,1,,,96.145,98.483,1,1,1.825,,0,32,32,4,1,5,0,castilian,,,,,,,,,,,,,,,,,,,,,,,,,,,,,,,,,,,,,,,,,,,,,,,,,,,,,,,,
,,,,,,,,,5b50881a59119400018abaf3,Spanish,13 or older,"no, only English or Spanish",no,2025-07-24_07h42.11.941,empathy_intonation_perc_control,2024.2.4,Win32,59.95203837,5b50881a59119400018abaf3,68817205a84113384fffdfe3,68821aaec9d0243f69a77134,,,,,,,,,,,,./stim/wavs/cuban_match_interrogative-total-yn_Manuela-vende-el-carro.wav,1,,,98.484,100.672,0,0,1.673,,0,33,33,8,1,9,1,cuban,,,,,,,,,,,,,,,,,,,,,,,,,,,,,,,,,,,,,,,,,,,,,,,,,,,,,,,,
,,,,,,,,,5b50881a59119400018abaf3,Spanish,13 or older,"no, only English or Spanish",no,2025-07-24_07h42.11.941,empathy_intonation_perc_control,2024.2.4,Win32,59.95203837,5b50881a59119400018abaf3,68817205a84113384fffdfe3,68821aaec9d0243f69a77134,,,,,,,,,,,,./stim/wavs/cuban_mismatch_declarative-broad-focus_El-bebe-comia-muy-bien.wav,0,,,100.673,102.609,0,1,1.419,,0,34,34,73,1,74,0,cuban,,,,,,,,,,,,,,,,,,,,,,,,,,,,,,,,,,,,,,,,,,,,,,,,,,,,,,,,
,,,,,,,,,5b50881a59119400018abaf3,Spanish,13 or older,"no, only English or Spanish",no,2025-07-24_07h42.11.941,empathy_intonation_perc_control,2024.2.4,Win32,59.95203837,5b50881a59119400018abaf3,68817205a84113384fffdfe3,68821aaec9d0243f69a77134,,,,,,,,,,,,./stim/wavs/cuban_mismatch_interrogative-total-yn_El-nino-oye-el-rio.wav,1,,,102.61,104.347,0,0,1.221,,0,35,35,30,1,31,1,cuban,,,,,,,,,,,,,,,,,,,,,,,,,,,,,,,,,,,,,,,,,,,,,,,,,,,,,,,,
,,,,,,,,,5b50881a59119400018abaf3,Spanish,13 or older,"no, only English or Spanish",no,2025-07-24_07h42.11.941,empathy_intonation_perc_control,2024.2.4,Win32,59.95203837,5b50881a59119400018abaf3,68817205a84113384fffdfe3,68821aaec9d0243f69a77134,,,,,,,,,,,,./stim/wavs/mexican_mismatch_declarative-broad-focus_Mi-tia-odia-la-lluvia.wav,0,,,104.347,106.217,0,1,1.353,,0,36,36,82,1,83,0,mexican,,,,,,,,,,,,,,,,,,,,,,,,,,,,,,,,,,,,,,,,,,,,,,,,,,,,,,,,
,,,,,,,,,5b50881a59119400018abaf3,Spanish,13 or older,"no, only English or Spanish",no,2025-07-24_07h42.11.941,empathy_intonation_perc_control,2024.2.4,Win32,59.95203837,5b50881a59119400018abaf3,68817205a84113384fffdfe3,68821aaec9d0243f69a77134,,,,,,,,,,,,./stim/wavs/mexican_mismatch_interrogative-total-yn_El-hombre-mira-la-luna.wav,1,,,106.218,108.121,1,1,1.393,,0,37,37,34,1,35,0,mexican,,,,,,,,,,,,,,,,,,,,,,,,,,,,,,,,,,,,,,,,,,,,,,,,,,,,,,,,
,,,,,,,,,5b50881a59119400018abaf3,Spanish,13 or older,"no, only English or Spanish",no,2025-07-24_07h42.11.941,empathy_intonation_perc_control,2024.2.4,Win32,59.95203837,5b50881a59119400018abaf3,68817205a84113384fffdfe3,68821aaec9d0243f69a77134,,,,,,,,,,,,./stim/wavs/puertorican_match_interrogative-total-yn_Maria-bebe-el-vino.wav,1,,,108.122,109.909,0,0,1.274,,0,38,38,23,1,24,1,puertorican,,,,,,,,,,,,,,,,,,,,,,,,,,,,,,,,,,,,,,,,,,,,,,,,,,,,,,,,
,,,,,,,,,5b50881a59119400018abaf3,Spanish,13 or older,"no, only English or Spanish",no,2025-07-24_07h42.11.941,empathy_intonation_perc_control,2024.2.4,Win32,59.95203837,5b50881a59119400018abaf3,68817205a84113384fffdfe3,68821aaec9d0243f69a77134,,,,,,,,,,,,./stim/wavs/mexican_mismatch_interrogative-total-yn_La-maestra-vive-en-Paris.wav,1,,,109.91,112.064,1,1,1.644,,0,39,39,36,1,37,0,mexican,,,,,,,,,,,,,,,,,,,,,,,,,,,,,,,,,,,,,,,,,,,,,,,,,,,,,,,,
,,,,,,,,,5b50881a59119400018abaf3,Spanish,13 or older,"no, only English or Spanish",no,2025-07-24_07h42.11.941,empathy_intonation_perc_control,2024.2.4,Win32,59.95203837,5b50881a59119400018abaf3,68817205a84113384fffdfe3,68821aaec9d0243f69a77134,,,,,,,,,,,,./stim/wavs/mexican_match_interrogative-total-yn_Ana-lleva-el-abrigo.wav,1,,,112.064,114.035,1,1,1.453,,0,40,40,12,1,13,0,mexican,,,,,,,,,,,,,,,,,,,,,,,,,,,,,,,,,,,,,,,,,,,,,,,,,,,,,,,,
,,,,,,,,,5b50881a59119400018abaf3,Spanish,13 or older,"no, only English or Spanish",no,2025-07-24_07h42.11.941,empathy_intonation_perc_control,2024.2.4,Win32,59.95203837,5b50881a59119400018abaf3,68817205a84113384fffdfe3,68821aaec9d0243f69a77134,,,,,,,,,,,,./stim/wavs/castilian_match_interrogative-total-yn_Maria-bebe-el-vino.wav,1,,,114.036,115.956,1,1,1.406,,0,41,41,3,1,4,0,castilian,,,,,,,,,,,,,,,,,,,,,,,,,,,,,,,,,,,,,,,,,,,,,,,,,,,,,,,,
,,,,,,,,,5b50881a59119400018abaf3,Spanish,13 or older,"no, only English or Spanish",no,2025-07-24_07h42.11.941,empathy_intonation_perc_control,2024.2.4,Win32,59.95203837,5b50881a59119400018abaf3,68817205a84113384fffdfe3,68821aaec9d0243f69a77134,,,,,,,,,,,,./stim/wavs/puertorican_match_declarative-broad-focus_Manuela-vende-el-carro.wav,0,,,115.958,117.994,0,1,1.511,,0,42,42,66,1,67,0,puertorican,,,,,,,,,,,,,,,,,,,,,,,,,,,,,,,,,,,,,,,,,,,,,,,,,,,,,,,,
,,,,,,,,,5b50881a59119400018abaf3,Spanish,13 or older,"no, only English or Spanish",no,2025-07-24_07h42.11.941,empathy_intonation_perc_control,2024.2.4,Win32,59.95203837,5b50881a59119400018abaf3,68817205a84113384fffdfe3,68821aaec9d0243f69a77134,,,,,,,,,,,,./stim/wavs/mexican_mismatch_declarative-broad-focus_El-bebe-comia-muy-bien.wav,0,,,117.994,119.981,0,1,1.473,,0,43,43,78,1,79,0,mexican,,,,,,,,,,,,,,,,,,,,,,,,,,,,,,,,,,,,,,,,,,,,,,,,,,,,,,,,
,,,,,,,,,5b50881a59119400018abaf3,Spanish,13 or older,"no, only English or Spanish",no,2025-07-24_07h42.11.941,empathy_intonation_perc_control,2024.2.4,Win32,59.95203837,5b50881a59119400018abaf3,68817205a84113384fffdfe3,68821aaec9d0243f69a77134,,,,,,,,,,,,./stim/wavs/puertorican_mismatch_declarative-broad-focus_El-nino-oye-el-rio.wav,0,,,119.982,121.903,0,1,1.411,,0,44,44,85,1,86,0,puertorican,,,,,,,,,,,,,,,,,,,,,,,,,,,,,,,,,,,,,,,,,,,,,,,,,,,,,,,,
,,,,,,,,,5b50881a59119400018abaf3,Spanish,13 or older,"no, only English or Spanish",no,2025-07-24_07h42.11.941,empathy_intonation_perc_control,2024.2.4,Win32,59.95203837,5b50881a59119400018abaf3,68817205a84113384fffdfe3,68821aaec9d0243f69a77134,,,,,,,,,,,,./stim/wavs/puertorican_mismatch_declarative-broad-focus_La-nina-lava-el-plato.wav,0,,,121.904,124.008,0,1,1.589,,0,45,45,87,1,88,0,puertorican,,,,,,,,,,,,,,,,,,,,,,,,,,,,,,,,,,,,,,,,,,,,,,,,,,,,,,,,
,,,,,,,,,5b50881a59119400018abaf3,Spanish,13 or older,"no, only English or Spanish",no,2025-07-24_07h42.11.941,empathy_intonation_perc_control,2024.2.4,Win32,59.95203837,5b50881a59119400018abaf3,68817205a84113384fffdfe3,68821aaec9d0243f69a77134,,,,,,,,,,,,./stim/wavs/puertorican_match_declarative-broad-focus_David-leia-el-libro.wav,0,,,124.009,125.879,0,1,1.336,,0,46,46,64,1,65,0,puertorican,,,,,,,,,,,,,,,,,,,,,,,,,,,,,,,,,,,,,,,,,,,,,,,,,,,,,,,,
,,,,,,,,,5b50881a59119400018abaf3,Spanish,13 or older,"no, only English or Spanish",no,2025-07-24_07h42.11.941,empathy_intonation_perc_control,2024.2.4,Win32,59.95203837,5b50881a59119400018abaf3,68817205a84113384fffdfe3,68821aaec9d0243f69a77134,,,,,,,,,,,,./stim/wavs/puertorican_mismatch_interrogative-total-yn_El-nino-oye-el-rio.wav,1,,,125.879,127.985,0,0,1.585,,0,47,47,40,1,41,1,puertorican,,,,,,,,,,,,,,,,,,,,,,,,,,,,,,,,,,,,,,,,,,,,,,,,,,,,,,,,
,,,,,,,,,5b50881a59119400018abaf3,Spanish,13 or older,"no, only English or Spanish",no,2025-07-24_07h42.11.941,empathy_intonation_perc_control,2024.2.4,Win32,59.95203837,5b50881a59119400018abaf3,68817205a84113384fffdfe3,68821aaec9d0243f69a77134,,,,,,,,,,,,./stim/wavs/puertorican_match_interrogative-total-yn_Emilio-ama-la-marcha.wav,1,,,127.988,130.022,0,0,1.505,,0,48,48,21,1,22,1,puertorican,,,,,,,,,,,,,,,,,,,,,,,,,,,,,,,,,,,,,,,,,,,,,,,,,,,,,,,,
,,,,,,,,,5b50881a59119400018abaf3,Spanish,13 or older,"no, only English or Spanish",no,2025-07-24_07h42.11.941,empathy_intonation_perc_control,2024.2.4,Win32,59.95203837,5b50881a59119400018abaf3,68817205a84113384fffdfe3,68821aaec9d0243f69a77134,,,,,,,,,,,,./stim/wavs/castilian_mismatch_interrogative-total-yn_Mi-novio-viene-del-lago.wav,1,,,130.022,132.209,1,1,1.674,,0,49,49,27,1,28,0,castilian,,,,,,,,,,,,,,,,,,,,,,,,,,,,,,,,,,,,,,,,,,,,,,,,,,,,,,,,
,,,,,,,,,5b50881a59119400018abaf3,Spanish,13 or older,"no, only English or Spanish",no,2025-07-24_07h42.11.941,empathy_intonation_perc_control,2024.2.4,Win32,59.95203837,5b50881a59119400018abaf3,68817205a84113384fffdfe3,68821aaec9d0243f69a77134,,,,,,,,,,,,./stim/wavs/mexican_mismatch_interrogative-total-yn_Mi-novio-viene-del-lago.wav,1,,,132.211,134.198,1,1,1.456,,0,50,50,37,1,38,0,mexican,,,,,,,,,,,,,,,,,,,,,,,,,,,,,,,,,,,,,,,,,,,,,,,,,,,,,,,,
,,,,,,,,,5b50881a59119400018abaf3,Spanish,13 or older,"no, only English or Spanish",no,2025-07-24_07h42.11.941,empathy_intonation_perc_control,2024.2.4,Win32,59.95203837,5b50881a59119400018abaf3,68817205a84113384fffdfe3,68821aaec9d0243f69a77134,,,,,,,,,,,,./stim/wavs/mexican_mismatch_declarative-broad-focus_La-maestra-vive-en-Paris.wav,0,,,134.199,136.218,0,1,1.49,,0,51,51,80,1,81,0,mexican,,,,,,,,,,,,,,,,,,,,,,,,,,,,,,,,,,,,,,,,,,,,,,,,,,,,,,,,
,,,,,,,,,5b50881a59119400018abaf3,Spanish,13 or older,"no, only English or Spanish",no,2025-07-24_07h42.11.941,empathy_intonation_perc_control,2024.2.4,Win32,59.95203837,5b50881a59119400018abaf3,68817205a84113384fffdfe3,68821aaec9d0243f69a77134,,,,,,,,,,,,./stim/wavs/cuban_match_declarative-broad-focus_Daniel-iba-a-Bolivia.wav,0,,,136.219,138.14,0,1,1.401,,0,52,52,51,1,52,0,cuban,,,,,,,,,,,,,,,,,,,,,,,,,,,,,,,,,,,,,,,,,,,,,,,,,,,,,,,,
,,,,,,,,,5b50881a59119400018abaf3,Spanish,13 or older,"no, only English or Spanish",no,2025-07-24_07h42.11.941,empathy_intonation_perc_control,2024.2.4,Win32,59.95203837,5b50881a59119400018abaf3,68817205a84113384fffdfe3,68821aaec9d0243f69a77134,,,,,,,,,,,,./stim/wavs/mexican_mismatch_interrogative-total-yn_El-nino-oye-el-rio.wav,1,,,138.14,140.145,1,1,1.487,,0,53,53,35,1,36,0,mexican,,,,,,,,,,,,,,,,,,,,,,,,,,,,,,,,,,,,,,,,,,,,,,,,,,,,,,,,
,,,,,,,,,5b50881a59119400018abaf3,Spanish,13 or older,"no, only English or Spanish",no,2025-07-24_07h42.11.941,empathy_intonation_perc_control,2024.2.4,Win32,59.95203837,5b50881a59119400018abaf3,68817205a84113384fffdfe3,68821aaec9d0243f69a77134,,,,,,,,,,,,./stim/wavs/castilian_mismatch_declarative-broad-focus_La-nina-lava-el-plato.wav,0,,,140.146,142.433,0,1,1.76,,0,54,54,70,1,71,0,castilian,,,,,,,,,,,,,,,,,,,,,,,,,,,,,,,,,,,,,,,,,,,,,,,,,,,,,,,,
,,,,,,,,,5b50881a59119400018abaf3,Spanish,13 or older,"no, only English or Spanish",no,2025-07-24_07h42.11.941,empathy_intonation_perc_control,2024.2.4,Win32,59.95203837,5b50881a59119400018abaf3,68817205a84113384fffdfe3,68821aaec9d0243f69a77134,,,,,,,,,,,,./stim/wavs/cuban_match_interrogative-total-yn_Mariano-habla-del-tiempo.wav,1,,,142.434,144.505,0,0,1.552,,0,55,55,10,1,11,1,cuban,,,,,,,,,,,,,,,,,,,,,,,,,,,,,,,,,,,,,,,,,,,,,,,,,,,,,,,,
,,,,,,,,,5b50881a59119400018abaf3,Spanish,13 or older,"no, only English or Spanish",no,2025-07-24_07h42.11.941,empathy_intonation_perc_control,2024.2.4,Win32,59.95203837,5b50881a59119400018abaf3,68817205a84113384fffdfe3,68821aaec9d0243f69a77134,,,,,,,,,,,,./stim/wavs/mexican_mismatch_declarative-broad-focus_Mi-novio-viene-del-lago.wav,0,,,144.505,146.358,0,1,1.337,,0,56,56,81,1,82,0,mexican,,,,,,,,,,,,,,,,,,,,,,,,,,,,,,,,,,,,,,,,,,,,,,,,,,,,,,,,
,,,,,,,,,5b50881a59119400018abaf3,Spanish,13 or older,"no, only English or Spanish",no,2025-07-24_07h42.11.941,empathy_intonation_perc_control,2024.2.4,Win32,59.95203837,5b50881a59119400018abaf3,68817205a84113384fffdfe3,68821aaec9d0243f69a77134,,,,,,,,,,,,./stim/wavs/mexican_match_interrogative-total-yn_Daniel-iba-a-Bolivia.wav,1,,,146.359,148.43,0,0,1.554,,0,57,57,13,1,14,0,mexican,,,,,,,,,,,,,,,,,,,,,,,,,,,,,,,,,,,,,,,,,,,,,,,,,,,,,,,,
,,,,,,,,,5b50881a59119400018abaf3,Spanish,13 or older,"no, only English or Spanish",no,2025-07-24_07h42.11.941,empathy_intonation_perc_control,2024.2.4,Win32,59.95203837,5b50881a59119400018abaf3,68817205a84113384fffdfe3,68821aaec9d0243f69a77134,,,,,,,,,,,,./stim/wavs/mexican_match_interrogative-total-yn_Mariano-habla-del-tiempo.wav,1,,,148.431,150.552,1,1,1.611,,0,58,58,16,1,17,0,mexican,,,,,,,,,,,,,,,,,,,,,,,,,,,,,,,,,,,,,,,,,,,,,,,,,,,,,,,,
,,,,,,,,,5b50881a59119400018abaf3,Spanish,13 or older,"no, only English or Spanish",no,2025-07-24_07h42.11.941,empathy_intonation_perc_control,2024.2.4,Win32,59.95203837,5b50881a59119400018abaf3,68817205a84113384fffdfe3,68821aaec9d0243f69a77134,,,,,,,,,,,,./stim/wavs/cuban_match_declarative-broad-focus_Maria-bebe-el-vino.wav,0,,,150.552,152.891,0,1,1.822,,0,59,59,53,1,54,0,cuban,,,,,,,,,,,,,,,,,,,,,,,,,,,,,,,,,,,,,,,,,,,,,,,,,,,,,,,,
,,,,,,,,,5b50881a59119400018abaf3,Spanish,13 or older,"no, only English or Spanish",no,2025-07-24_07h42.11.941,empathy_intonation_perc_control,2024.2.4,Win32,59.95203837,5b50881a59119400018abaf3,68817205a84113384fffdfe3,68821aaec9d0243f69a77134,,,,,,,,,,,,./stim/wavs/mexican_match_declarative-broad-focus_Ana-lleva-el-abrigo.wav,0,,,152.892,154.728,0,1,1.328,,0,60,60,56,1,57,0,mexican,,,,,,,,,,,,,,,,,,,,,,,,,,,,,,,,,,,,,,,,,,,,,,,,,,,,,,,,
,,,,,,,,,5b50881a59119400018abaf3,Spanish,13 or older,"no, only English or Spanish",no,2025-07-24_07h42.11.941,empathy_intonation_perc_control,2024.2.4,Win32,59.95203837,5b50881a59119400018abaf3,68817205a84113384fffdfe3,68821aaec9d0243f69a77134,,,,,,,,,,,,./stim/wavs/castilian_match_interrogative-total-yn_Manuela-vende-el-carro.wav,1,,,154.728,156.983,1,1,1.739,,0,61,61,2,1,3,0,castilian,,,,,,,,,,,,,,,,,,,,,,,,,,,,,,,,,,,,,,,,,,,,,,,,,,,,,,,,
,,,,,,,,,5b50881a59119400018abaf3,Spanish,13 or older,"no, only English or Spanish",no,2025-07-24_07h42.11.941,empathy_intonation_perc_control,2024.2.4,Win32,59.95203837,5b50881a59119400018abaf3,68817205a84113384fffdfe3,68821aaec9d0243f69a77134,,,,,,,,,,,,./stim/wavs/mexican_match_interrogative-total-yn_Marta-abre-el-regalo.wav,1,,,156.984,158.887,1,1,1.396,,0,62,62,17,1,18,0,mexican,,,,,,,,,,,,,,,,,,,,,,,,,,,,,,,,,,,,,,,,,,,,,,,,,,,,,,,,
,,,,,,,,,5b50881a59119400018abaf3,Spanish,13 or older,"no, only English or Spanish",no,2025-07-24_07h42.11.941,empathy_intonation_perc_control,2024.2.4,Win32,59.95203837,5b50881a59119400018abaf3,68817205a84113384fffdfe3,68821aaec9d0243f69a77134,,,,,,,,,,,,./stim/wavs/puertorican_match_interrogative-total-yn_Ana-lleva-el-abrigo.wav,1,,,158.888,160.742,1,1,1.336,,0,63,63,18,1,19,1,puertorican,,,,,,,,,,,,,,,,,,,,,,,,,,,,,,,,,,,,,,,,,,,,,,,,,,,,,,,,
,,,,,,,,,5b50881a59119400018abaf3,Spanish,13 or older,"no, only English or Spanish",no,2025-07-24_07h42.11.941,empathy_intonation_perc_control,2024.2.4,Win32,59.95203837,5b50881a59119400018abaf3,68817205a84113384fffdfe3,68821aaec9d0243f69a77134,,,,,,,,,,,,./stim/wavs/puertorican_mismatch_declarative-broad-focus_El-hombre-mira-la-luna.wav,0,,,160.745,162.713,0,1,1.437,,0,64,64,84,1,85,0,puertorican,,,,,,,,,,,,,,,,,,,,,,,,,,,,,,,,,,,,,,,,,,,,,,,,,,,,,,,,
,,,,,,,,,5b50881a59119400018abaf3,Spanish,13 or older,"no, only English or Spanish",no,2025-07-24_07h42.11.941,empathy_intonation_perc_control,2024.2.4,Win32,59.95203837,5b50881a59119400018abaf3,68817205a84113384fffdfe3,68821aaec9d0243f69a77134,,,,,,,,,,,,./stim/wavs/mexican_mismatch_declarative-broad-focus_El-hombre-mira-la-luna.wav,0,,,162.714,164.65,0,1,1.42,,0,65,65,79,1,80,0,mexican,,,,,,,,,,,,,,,,,,,,,,,,,,,,,,,,,,,,,,,,,,,,,,,,,,,,,,,,
,,,,,,,,,5b50881a59119400018abaf3,Spanish,13 or older,"no, only English or Spanish",no,2025-07-24_07h42.11.941,empathy_intonation_perc_control,2024.2.4,Win32,59.95203837,5b50881a59119400018abaf3,68817205a84113384fffdfe3,68821aaec9d0243f69a77134,,,,,,,,,,,,./stim/wavs/cuban_mismatch_interrogative-total-yn_El-hombre-mira-la-luna.wav,1,,,164.651,166.488,0,0,1.318,,0,66,66,29,1,30,1,cuban,,,,,,,,,,,,,,,,,,,,,,,,,,,,,,,,,,,,,,,,,,,,,,,,,,,,,,,,
,,,,,,,,,5b50881a59119400018abaf3,Spanish,13 or older,"no, only English or Spanish",no,2025-07-24_07h42.11.941,empathy_intonation_perc_control,2024.2.4,Win32,59.95203837,5b50881a59119400018abaf3,68817205a84113384fffdfe3,68821aaec9d0243f69a77134,,,,,,,,,,,,./stim/wavs/mexican_match_interrogative-total-yn_Emilio-ama-la-marcha.wav,1,,,166.489,168.559,0,0,1.555,,0,67,67,15,1,16,0,mexican,,,,,,,,,,,,,,,,,,,,,,,,,,,,,,,,,,,,,,,,,,,,,,,,,,,,,,,,
,,,,,,,,,5b50881a59119400018abaf3,Spanish,13 or older,"no, only English or Spanish",no,2025-07-24_07h42.11.941,empathy_intonation_perc_control,2024.2.4,Win32,59.95203837,5b50881a59119400018abaf3,68817205a84113384fffdfe3,68821aaec9d0243f69a77134,,,,,,,,,,,,./stim/wavs/puertorican_mismatch_declarative-broad-focus_La-maestra-vive-en-Paris.wav,0,,,168.56,170.697,0,1,1.622,,0,68,68,86,1,87,0,puertorican,,,,,,,,,,,,,,,,,,,,,,,,,,,,,,,,,,,,,,,,,,,,,,,,,,,,,,,,
,,,,,,,,,5b50881a59119400018abaf3,Spanish,13 or older,"no, only English or Spanish",no,2025-07-24_07h42.11.941,empathy_intonation_perc_control,2024.2.4,Win32,59.95203837,5b50881a59119400018abaf3,68817205a84113384fffdfe3,68821aaec9d0243f69a77134,,,,,,,,,,,,./stim/wavs/castilian_mismatch_declarative-broad-focus_El-nino-oye-el-rio.wav,0,,,170.698,172.919,0,1,1.713,,0,69,69,68,1,69,0,castilian,,,,,,,,,,,,,,,,,,,,,,,,,,,,,,,,,,,,,,,,,,,,,,,,,,,,,,,,
,,,,,,,,,5b50881a59119400018abaf3,Spanish,13 or older,"no, only English or Spanish",no,2025-07-24_07h42.11.941,empathy_intonation_perc_control,2024.2.4,Win32,59.95203837,5b50881a59119400018abaf3,68817205a84113384fffdfe3,68821aaec9d0243f69a77134,,,,,,,,,,,,./stim/wavs/mexican_match_declarative-broad-focus_Marta-abre-el-regalo.wav,0,,,172.919,174.807,0,1,1.378,,0,70,70,61,1,62,0,mexican,,,,,,,,,,,,,,,,,,,,,,,,,,,,,,,,,,,,,,,,,,,,,,,,,,,,,,,,
,,,,,,,,,5b50881a59119400018abaf3,Spanish,13 or older,"no, only English or Spanish",no,2025-07-24_07h42.11.941,empathy_intonation_perc_control,2024.2.4,Win32,59.95203837,5b50881a59119400018abaf3,68817205a84113384fffdfe3,68821aaec9d0243f69a77134,,,,,,,,,,,,./stim/wavs/cuban_match_declarative-broad-focus_Mariano-habla-del-tiempo.wav,0,,,174.807,177.029,0,1,1.707,,0,71,71,54,1,55,0,cuban,,,,,,,,,,,,,,,,,,,,,,,,,,,,,,,,,,,,,,,,,,,,,,,,,,,,,,,,
,,,,,,,,,5b50881a59119400018abaf3,Spanish,13 or older,"no, only English or Spanish",no,2025-07-24_07h42.11.941,empathy_intonation_perc_control,2024.2.4,Win32,59.95203837,5b50881a59119400018abaf3,68817205a84113384fffdfe3,68821aaec9d0243f69a77134,,,,,,,,,,,,./stim/wavs/cuban_match_declarative-broad-focus_Manuela-vende-el-carro.wav,0,,,177.029,179.117,0,1,1.57,,0,72,72,52,1,53,0,cuban,,,,,,,,,,,,,,,,,,,,,,,,,,,,,,,,,,,,,,,,,,,,,,,,,,,,,,,,
,,,,,,,,,5b50881a59119400018abaf3,Spanish,13 or older,"no, only English or Spanish",no,2025-07-24_07h42.11.941,empathy_intonation_perc_control,2024.2.4,Win32,59.95203837,5b50881a59119400018abaf3,68817205a84113384fffdfe3,68821aaec9d0243f69a77134,,,,,,,,,,,,./stim/wavs/castilian_mismatch_interrogative-total-yn_Mi-tia-odia-la-lluvia.wav,1,,,179.117,181.222,1,1,1.588,,0,73,73,28,1,29,0,castilian,,,,,,,,,,,,,,,,,,,,,,,,,,,,,,,,,,,,,,,,,,,,,,,,,,,,,,,,
,,,,,,,,,5b50881a59119400018abaf3,Spanish,13 or older,"no, only English or Spanish",no,2025-07-24_07h42.11.941,empathy_intonation_perc_control,2024.2.4,Win32,59.95203837,5b50881a59119400018abaf3,68817205a84113384fffdfe3,68821aaec9d0243f69a77134,,,,,,,,,,,,./stim/wavs/castilian_mismatch_declarative-broad-focus_Mi-tia-odia-la-lluvia.wav,0,,,181.222,183.327,1,0,1.589,,0,74,74,72,1,73,0,castilian,,,,,,,,,,,,,,,,,,,,,,,,,,,,,,,,,,,,,,,,,,,,,,,,,,,,,,,,
,,,,,,,,,5b50881a59119400018abaf3,Spanish,13 or older,"no, only English or Spanish",no,2025-07-24_07h42.11.941,empathy_intonation_perc_control,2024.2.4,Win32,59.95203837,5b50881a59119400018abaf3,68817205a84113384fffdfe3,68821aaec9d0243f69a77134,,,,,,,,,,,,./stim/wavs/cuban_mismatch_declarative-broad-focus_La-nina-lava-el-plato.wav,0,,,183.327,185.264,0,1,1.421,,0,75,75,75,1,76,0,cuban,,,,,,,,,,,,,,,,,,,,,,,,,,,,,,,,,,,,,,,,,,,,,,,,,,,,,,,,
,,,,,,,,,5b50881a59119400018abaf3,Spanish,13 or older,"no, only English or Spanish",no,2025-07-24_07h42.11.941,empathy_intonation_perc_control,2024.2.4,Win32,59.95203837,5b50881a59119400018abaf3,68817205a84113384fffdfe3,68821aaec9d0243f69a77134,,,,,,,,,,,,./stim/wavs/cuban_mismatch_declarative-broad-focus_Mi-tia-odia-la-lluvia.wav,0,,,185.265,187.469,0,1,1.689,,0,76,76,77,1,78,0,cuban,,,,,,,,,,,,,,,,,,,,,,,,,,,,,,,,,,,,,,,,,,,,,,,,,,,,,,,,
,,,,,,,,,5b50881a59119400018abaf3,Spanish,13 or older,"no, only English or Spanish",no,2025-07-24_07h42.11.941,empathy_intonation_perc_control,2024.2.4,Win32,59.95203837,5b50881a59119400018abaf3,68817205a84113384fffdfe3,68821aaec9d0243f69a77134,,,,,,,,,,,,./stim/wavs/castilian_match_declarative-broad-focus_Marta-abre-el-regalo.wav,0,,,187.47,189.608,0,1,1.621,,0,77,77,49,1,50,0,castilian,,,,,,,,,,,,,,,,,,,,,,,,,,,,,,,,,,,,,,,,,,,,,,,,,,,,,,,,
,,,,,,,,,5b50881a59119400018abaf3,Spanish,13 or older,"no, only English or Spanish",no,2025-07-24_07h42.11.941,empathy_intonation_perc_control,2024.2.4,Win32,59.95203837,5b50881a59119400018abaf3,68817205a84113384fffdfe3,68821aaec9d0243f69a77134,,,,,,,,,,,,./stim/wavs/castilian_mismatch_declarative-broad-focus_La-maestra-vive-en-Paris.wav,0,,,189.609,191.879,0,1,1.76,,0,78,78,69,1,70,0,castilian,,,,,,,,,,,,,,,,,,,,,,,,,,,,,,,,,,,,,,,,,,,,,,,,,,,,,,,,
,,,,,,,,,5b50881a59119400018abaf3,Spanish,13 or older,"no, only English or Spanish",no,2025-07-24_07h42.11.941,empathy_intonation_perc_control,2024.2.4,Win32,59.95203837,5b50881a59119400018abaf3,68817205a84113384fffdfe3,68821aaec9d0243f69a77134,,,,,,,,,,,,./stim/wavs/castilian_mismatch_interrogative-total-yn_La-nina-lava-el-plato.wav,1,,,191.879,193.984,1,1,1.588,,0,79,79,25,1,26,0,castilian,,,,,,,,,,,,,,,,,,,,,,,,,,,,,,,,,,,,,,,,,,,,,,,,,,,,,,,,
,,,,,,,,,5b50881a59119400018abaf3,Spanish,13 or older,"no, only English or Spanish",no,2025-07-24_07h42.11.941,empathy_intonation_perc_control,2024.2.4,Win32,59.95203837,5b50881a59119400018abaf3,68817205a84113384fffdfe3,68821aaec9d0243f69a77134,,,,,,,,,,,,./stim/wavs/castilian_match_declarative-broad-focus_Maria-bebe-el-vino.wav,0,,,193.987,196.039,0,1,1.528,,0,80,80,47,1,48,0,castilian,,,,,,,,,,,,,,,,,,,,,,,,,,,,,,,,,,,,,,,,,,,,,,,,,,,,,,,,
,,,,,,,,,5b50881a59119400018abaf3,Spanish,13 or older,"no, only English or Spanish",no,2025-07-24_07h42.11.941,empathy_intonation_perc_control,2024.2.4,Win32,59.95203837,5b50881a59119400018abaf3,68817205a84113384fffdfe3,68821aaec9d0243f69a77134,,,,,,,,,,,,./stim/wavs/castilian_match_declarative-broad-focus_Manuela-vende-el-carro.wav,0,,,196.039,198.294,0,1,1.736,,0,81,81,46,1,47,0,castilian,,,,,,,,,,,,,,,,,,,,,,,,,,,,,,,,,,,,,,,,,,,,,,,,,,,,,,,,
,,,,,,,,,5b50881a59119400018abaf3,Spanish,13 or older,"no, only English or Spanish",no,2025-07-24_07h42.11.941,empathy_intonation_perc_control,2024.2.4,Win32,59.95203837,5b50881a59119400018abaf3,68817205a84113384fffdfe3,68821aaec9d0243f69a77134,,,,,,,,,,,,./stim/wavs/mexican_match_declarative-broad-focus_Emilio-ama-la-marcha.wav,0,,,198.295,200.382,0,1,1.555,,0,82,82,59,1,60,0,mexican,,,,,,,,,,,,,,,,,,,,,,,,,,,,,,,,,,,,,,,,,,,,,,,,,,,,,,,,
,,,,,,,,,5b50881a59119400018abaf3,Spanish,13 or older,"no, only English or Spanish",no,2025-07-24_07h42.11.941,empathy_intonation_perc_control,2024.2.4,Win32,59.95203837,5b50881a59119400018abaf3,68817205a84113384fffdfe3,68821aaec9d0243f69a77134,,,,,,,,,,,,./stim/wavs/mexican_match_interrogative-total-yn_David-leia-el-libro.wav,1,,,200.383,202.503,1,1,1.611,,0,83,83,14,1,15,0,mexican,,,,,,,,,,,,,,,,,,,,,,,,,,,,,,,,,,,,,,,,,,,,,,,,,,,,,,,,
,,,,,,,,,5b50881a59119400018abaf3,Spanish,13 or older,"no, only English or Spanish",no,2025-07-24_07h42.11.941,empathy_intonation_perc_control,2024.2.4,Win32,59.95203837,5b50881a59119400018abaf3,68817205a84113384fffdfe3,68821aaec9d0243f69a77134,,,,,,,,,,,,./stim/wavs/castilian_match_interrogative-total-yn_Marta-abre-el-regalo.wav,1,,,202.504,204.658,1,1,1.638,,0,84,84,5,1,6,0,castilian,,,,,,,,,,,,,,,,,,,,,,,,,,,,,,,,,,,,,,,,,,,,,,,,,,,,,,,,
,,,,,,,,,5b50881a59119400018abaf3,Spanish,13 or older,"no, only English or Spanish",no,2025-07-24_07h42.11.941,empathy_intonation_perc_control,2024.2.4,Win32,59.95203837,5b50881a59119400018abaf3,68817205a84113384fffdfe3,68821aaec9d0243f69a77134,,,,,,,,,,,,./stim/wavs/castilian_mismatch_interrogative-total-yn_La-maestra-vive-en-Paris.wav,1,,,204.658,207.181,1,1,2.008,,0,85,85,24,1,25,0,castilian,,,,,,,,,,,,,,,,,,,,,,,,,,,,,,,,,,,,,,,,,,,,,,,,,,,,,,,,
,,,,,,,,,5b50881a59119400018abaf3,Spanish,13 or older,"no, only English or Spanish",no,2025-07-24_07h42.11.941,empathy_intonation_perc_control,2024.2.4,Win32,59.95203837,5b50881a59119400018abaf3,68817205a84113384fffdfe3,68821aaec9d0243f69a77134,,,,,,,,,,,,./stim/wavs/mexican_match_declarative-broad-focus_Mariano-habla-del-tiempo.wav,0,,,207.181,209.202,0,1,1.502,,0,86,86,60,1,61,0,mexican,,,,,,,,,,,,,,,,,,,,,,,,,,,,,,,,,,,,,,,,,,,,,,,,,,,,,,,,
,,,,,,,,,5b50881a59119400018abaf3,Spanish,13 or older,"no, only English or Spanish",no,2025-07-24_07h42.11.941,empathy_intonation_perc_control,2024.2.4,Win32,59.95203837,5b50881a59119400018abaf3,68817205a84113384fffdfe3,68821aaec9d0243f69a77134,,,,,,,,,,,,./stim/wavs/cuban_match_interrogative-total-yn_Ana-lleva-el-abrigo.wav,1,,,209.203,211.325,0,0,1.603,,0,87,87,6,1,7,1,cuban,,,,,,,,,,,,,,,,,,,,,,,,,,,,,,,,,,,,,,,,,,,,,,,,,,,,,,,,
,,,,,,,"Great! Now we will move on. The next task consists of about 60 trials, in each of which you will see a string of letters. 
  
  Your task is to decide whether this is a real Spanish word or not.", (press the spacebar to continue),5b50881a59119400018abaf3,Spanish,13 or older,"no, only English or Spanish",no,2025-07-24_07h42.11.941,empathy_intonation_perc_control,2024.2.4,Win32,59.95203837,5b50881a59119400018abaf3,68817205a84113384fffdfe3,68821aaec9d0243f69a77134,,,,,,,,,,,,,,,,,,,,,,,,,,,,,,211.335,230.685,0,0,0,0,1,,,,,,,,,,,,,,,,,,,,,,,,,,,,,,,,,,,,,,,,,,,,,,,,,
,,,,,,,"If you think it is an existing Spanish word, you type '1' (for 'REAL'), and if you think it is not an existing Spanish word, you type '0' (for 'FAKE').", (press the spacebar to continue),5b50881a59119400018abaf3,Spanish,13 or older,"no, only English or Spanish",no,2025-07-24_07h42.11.941,empathy_intonation_perc_control,2024.2.4,Win32,59.95203837,5b50881a59119400018abaf3,68817205a84113384fffdfe3,68821aaec9d0243f69a77134,,,,,,,,,,,,,,,,,,,,,,,,,,,,,,230.69,232.104,0,1,1,1,1,,,,,,,,,,,,,,,,,,,,,,,,,,,,,,,,,,,,,,,,,,,,,,,,,
,,,,,,,"If you are sure that the word exists, even though you don’t know its exact meaning, you may still respond '1' (REAL). 
  
  But if you are not sure if it is an existing word, you should respond '0' (FAKE).
  
  Let's do a practice round...", (press the spacebar to continue),5b50881a59119400018abaf3,Spanish,13 or older,"no, only English or Spanish",no,2025-07-24_07h42.11.941,empathy_intonation_perc_control,2024.2.4,Win32,59.95203837,5b50881a59119400018abaf3,68817205a84113384fffdfe3,68821aaec9d0243f69a77134,,,,,,,,,,,,,,,,,,,,,,,,,,,,,,232.105,233.124,0,2,2,2,1,,,,,,,,,,,,,,,,,,,,,,,,,,,,,,,,,,,,,,,,,,,,,,,,,
,,,,,,,,,5b50881a59119400018abaf3,Spanish,13 or older,"no, only English or Spanish",no,2025-07-24_07h42.11.941,empathy_intonation_perc_control,2024.2.4,Win32,59.95203837,5b50881a59119400018abaf3,68817205a84113384fffdfe3,68821aaec9d0243f69a77134,,,,,,,,,,,,,0,,,,,,,,,,,,,,,,,,,,,,,,233.134,235.144,0,1,1.472,,235.144,236.147,0,0,0,0,1,0,depiste,REAL,FAKE,,,,,,,,,,,,,,,,,,,,,,,,,,,,,,,,
,,,,,,,,,5b50881a59119400018abaf3,Spanish,13 or older,"no, only English or Spanish",no,2025-07-24_07h42.11.941,empathy_intonation_perc_control,2024.2.4,Win32,59.95203837,5b50881a59119400018abaf3,68817205a84113384fffdfe3,68821aaec9d0243f69a77134,,,,,,,,,,,,,1,,,,,,,,,,,,,,,,,,,,,,,,236.148,237.249,1,1,0.589,,237.25,238.252,0,1,1,1,1,0,sí,REAL,FAKE,,,,,,,,,,,,,,,,,,,,,,,,,,,,,,,,
,,,,,,,,,5b50881a59119400018abaf3,Spanish,13 or older,"no, only English or Spanish",no,2025-07-24_07h42.11.941,empathy_intonation_perc_control,2024.2.4,Win32,59.95203837,5b50881a59119400018abaf3,68817205a84113384fffdfe3,68821aaec9d0243f69a77134,,,,,,,,,,,,,0,,,,,,,,,,,,,,,,,,,,,,,,238.253,239.421,0,1,0.634,,239.421,240.423,0,2,2,2,1,0,coné,REAL,FAKE,,,,,,,,,,,,,,,,,,,,,,,,,,,,,,,,
,,,,,,,,,5b50881a59119400018abaf3,Spanish,13 or older,"no, only English or Spanish",no,2025-07-24_07h42.11.941,empathy_intonation_perc_control,2024.2.4,Win32,59.95203837,5b50881a59119400018abaf3,68817205a84113384fffdfe3,68821aaec9d0243f69a77134,,,,,,,,,,,,,0,,,,,,,,,,,,,,,,,,,,,,,,240.424,241.592,0,1,0.642,,241.592,242.595,0,3,3,3,1,0,calpar,REAL,FAKE,,,,,,,,,,,,,,,,,,,,,,,,,,,,,,,,
,,,,,,,,,5b50881a59119400018abaf3,Spanish,13 or older,"no, only English or Spanish",no,2025-07-24_07h42.11.941,empathy_intonation_perc_control,2024.2.4,Win32,59.95203837,5b50881a59119400018abaf3,68817205a84113384fffdfe3,68821aaec9d0243f69a77134,,,,,,,,,,,,,0,,,,,,,,,,,,,,,,,,,,,,,,242.596,243.731,0,1,0.61,,243.731,244.733,0,4,4,4,1,0,joten,REAL,FAKE,,,,,,,,,,,,,,,,,,,,,,,,,,,,,,,,
,,,,,,,,,5b50881a59119400018abaf3,Spanish,13 or older,"no, only English or Spanish",no,2025-07-24_07h42.11.941,empathy_intonation_perc_control,2024.2.4,Win32,59.95203837,5b50881a59119400018abaf3,68817205a84113384fffdfe3,68821aaec9d0243f69a77134,,,,,,,,,,,,,1,,,,,,,,,,,,,,,,,,,,,,,,244.734,245.869,0,0,0.615,,245.87,246.871,0,5,5,5,1,0,sacapuntas,REAL,FAKE,,,,,,,,,,,,,,,,,,,,,,,,,,,,,,,,
,,,,,,,,,5b50881a59119400018abaf3,Spanish,13 or older,"no, only English or Spanish",no,2025-07-24_07h42.11.941,empathy_intonation_perc_control,2024.2.4,Win32,59.95203837,5b50881a59119400018abaf3,68817205a84113384fffdfe3,68821aaec9d0243f69a77134,,,,,,,,,,,,,0,,,,,,,,,,,,,,,,,,,,,,,,246.872,248.123,1,0,0.725,,248.124,249.126,0,6,6,6,1,0,priba,REAL,FAKE,,,,,,,,,,,,,,,,,,,,,,,,,,,,,,,,
,,,,,,,,,5b50881a59119400018abaf3,Spanish,13 or older,"no, only English or Spanish",no,2025-07-24_07h42.11.941,empathy_intonation_perc_control,2024.2.4,Win32,59.95203837,5b50881a59119400018abaf3,68817205a84113384fffdfe3,68821aaec9d0243f69a77134,,,,,,,,,,,,,0,,,,,,,,,,,,,,,,,,,,,,,,249.128,250.312,0,1,0.655,,250.313,251.315,0,7,7,7,1,0,pelasula,REAL,FAKE,,,,,,,,,,,,,,,,,,,,,,,,,,,,,,,,
,,,,,,,,,5b50881a59119400018abaf3,Spanish,13 or older,"no, only English or Spanish",no,2025-07-24_07h42.11.941,empathy_intonation_perc_control,2024.2.4,Win32,59.95203837,5b50881a59119400018abaf3,68817205a84113384fffdfe3,68821aaec9d0243f69a77134,,,,,,,,,,,,,1,,,,,,,,,,,,,,,,,,,,,,,,251.316,252.401,1,1,0.564,,252.401,253.403,0,8,8,8,1,0,bien,REAL,FAKE,,,,,,,,,,,,,,,,,,,,,,,,,,,,,,,,
,,,,,,,,,5b50881a59119400018abaf3,Spanish,13 or older,"no, only English or Spanish",no,2025-07-24_07h42.11.941,empathy_intonation_perc_control,2024.2.4,Win32,59.95203837,5b50881a59119400018abaf3,68817205a84113384fffdfe3,68821aaec9d0243f69a77134,,,,,,,,,,,,,1,,,,,,,,,,,,,,,,,,,,,,,,253.404,254.609,1,1,0.656,,254.609,255.608,0,9,9,9,1,0,casa,REAL,FAKE,,,,,,,,,,,,,,,,,,,,,,,,,,,,,,,,
,,,,,,,,,5b50881a59119400018abaf3,Spanish,13 or older,"no, only English or Spanish",no,2025-07-24_07h42.11.941,empathy_intonation_perc_control,2024.2.4,Win32,59.95203837,5b50881a59119400018abaf3,68817205a84113384fffdfe3,68821aaec9d0243f69a77134,,,,,,,,,,,,,0,,,,,,,,,,,,,,,,,,,,,,,,255.61,256.744,0,1,0.61,,256.744,257.746,0,10,10,10,1,0,lejo,REAL,FAKE,,,,,,,,,,,,,,,,,,,,,,,,,,,,,,,,
,,,,,,,,,5b50881a59119400018abaf3,Spanish,13 or older,"no, only English or Spanish",no,2025-07-24_07h42.11.941,empathy_intonation_perc_control,2024.2.4,Win32,59.95203837,5b50881a59119400018abaf3,68817205a84113384fffdfe3,68821aaec9d0243f69a77134,,,,,,,,,,,,,0,,,,,,,,,,,,,,,,,,,,,,,,257.752,259.066,1,0,0.766,,259.067,260.068,0,11,11,11,1,0,pretantas,REAL,FAKE,,,,,,,,,,,,,,,,,,,,,,,,,,,,,,,,
,,,,,,,,,5b50881a59119400018abaf3,Spanish,13 or older,"no, only English or Spanish",no,2025-07-24_07h42.11.941,empathy_intonation_perc_control,2024.2.4,Win32,59.95203837,5b50881a59119400018abaf3,68817205a84113384fffdfe3,68821aaec9d0243f69a77134,,,,,,,,,,,,,,,,,,,,,,,,,,,,,,,,,,,,,,,,,,,,,,,,,,,,,,260.068,261.104,,,,,,,,,,,,,,,,,,,,,,,,,,,,,,
,,,,,,,,,5b50881a59119400018abaf3,Spanish,13 or older,"no, only English or Spanish",no,2025-07-24_07h42.11.941,empathy_intonation_perc_control,2024.2.4,Win32,59.95203837,5b50881a59119400018abaf3,68817205a84113384fffdfe3,68821aaec9d0243f69a77134,,,,,,,,,,,,,1,,,,,,,,,,,,,,,,,,,,,,,,,,,,,,,,,,,,,31,pandilla,,,,,261.118,262.574,0,0,0.917,,0,0,0,30,1,REAL,FAKE,,,,,,,,,,,,,,,,,
,,,,,,,,,5b50881a59119400018abaf3,Spanish,13 or older,"no, only English or Spanish",no,2025-07-24_07h42.11.941,empathy_intonation_perc_control,2024.2.4,Win32,59.95203837,5b50881a59119400018abaf3,68817205a84113384fffdfe3,68821aaec9d0243f69a77134,,,,,,,,,,,,,1,,,,,,,,,,,,,,,,,,,,,,,,,,,,,,,,,,,,,88,acantilado,,,,,262.575,264.177,0,0,1.082,,0,1,1,87,1,REAL,FAKE,,,,,,,,,,,,,,,,,
,,,,,,,,,5b50881a59119400018abaf3,Spanish,13 or older,"no, only English or Spanish",no,2025-07-24_07h42.11.941,empathy_intonation_perc_control,2024.2.4,Win32,59.95203837,5b50881a59119400018abaf3,68817205a84113384fffdfe3,68821aaec9d0243f69a77134,,,,,,,,,,,,,0,,,,,,,,,,,,,,,,,,,,,,,,,,,,,,,,,,,,,4,batillón,,,,,264.178,265.547,0,1,0.845,,0,2,2,3,1,REAL,FAKE,,,,,,,,,,,,,,,,,
,,,,,,,,,5b50881a59119400018abaf3,Spanish,13 or older,"no, only English or Spanish",no,2025-07-24_07h42.11.941,empathy_intonation_perc_control,2024.2.4,Win32,59.95203837,5b50881a59119400018abaf3,68817205a84113384fffdfe3,68821aaec9d0243f69a77134,,,,,,,,,,,,,1,,,,,,,,,,,,,,,,,,,,,,,,,,,,,,,,,,,,,78,frondoso,,,,,265.548,266.817,0,0,0.736,,0,3,3,77,1,REAL,FAKE,,,,,,,,,,,,,,,,,
,,,,,,,,,5b50881a59119400018abaf3,Spanish,13 or older,"no, only English or Spanish",no,2025-07-24_07h42.11.941,empathy_intonation_perc_control,2024.2.4,Win32,59.95203837,5b50881a59119400018abaf3,68817205a84113384fffdfe3,68821aaec9d0243f69a77134,,,,,,,,,,,,,1,,,,,,,,,,,,,,,,,,,,,,,,,,,,,,,,,,,,,9,hacha,,,,,266.818,267.92,1,1,0.584,,0,4,4,8,1,REAL,FAKE,,,,,,,,,,,,,,,,,
,,,,,,,,,5b50881a59119400018abaf3,Spanish,13 or older,"no, only English or Spanish",no,2025-07-24_07h42.11.941,empathy_intonation_perc_control,2024.2.4,Win32,59.95203837,5b50881a59119400018abaf3,68817205a84113384fffdfe3,68821aaec9d0243f69a77134,,,,,,,,,,,,,1,,,,,,,,,,,,,,,,,,,,,,,,,,,,,,,,,,,,,41,rebuscar,,,,,267.92,269.373,1,1,0.924,,0,5,5,40,1,REAL,FAKE,,,,,,,,,,,,,,,,,
,,,,,,,,,5b50881a59119400018abaf3,Spanish,13 or older,"no, only English or Spanish",no,2025-07-24_07h42.11.941,empathy_intonation_perc_control,2024.2.4,Win32,59.95203837,5b50881a59119400018abaf3,68817205a84113384fffdfe3,68821aaec9d0243f69a77134,,,,,,,,,,,,,0,,,,,,,,,,,,,,,,,,,,,,,,,,,,,,,,,,,,,33,pauca,,,,,269.374,270.576,0,1,0.671,,0,6,6,32,1,REAL,FAKE,,,,,,,,,,,,,,,,,
,,,,,,,,,5b50881a59119400018abaf3,Spanish,13 or older,"no, only English or Spanish",no,2025-07-24_07h42.11.941,empathy_intonation_perc_control,2024.2.4,Win32,59.95203837,5b50881a59119400018abaf3,68817205a84113384fffdfe3,68821aaec9d0243f69a77134,,,,,,,,,,,,,1,,,,,,,,,,,,,,,,,,,,,,,,,,,,,,,,,,,,,57,tacaño,,,,,270.577,271.895,0,0,0.793,,0,7,7,56,1,REAL,FAKE,,,,,,,,,,,,,,,,,
,,,,,,,,,5b50881a59119400018abaf3,Spanish,13 or older,"no, only English or Spanish",no,2025-07-24_07h42.11.941,empathy_intonation_perc_control,2024.2.4,Win32,59.95203837,5b50881a59119400018abaf3,68817205a84113384fffdfe3,68821aaec9d0243f69a77134,,,,,,,,,,,,,1,,,,,,,,,,,,,,,,,,,,,,,,,,,,,,,,,,,,,37,granuja,,,,,271.896,273.081,0,0,0.664,,0,8,8,36,1,REAL,FAKE,,,,,,,,,,,,,,,,,
,,,,,,,,,5b50881a59119400018abaf3,Spanish,13 or older,"no, only English or Spanish",no,2025-07-24_07h42.11.941,empathy_intonation_perc_control,2024.2.4,Win32,59.95203837,5b50881a59119400018abaf3,68817205a84113384fffdfe3,68821aaec9d0243f69a77134,,,,,,,,,,,,,1,,,,,,,,,,,,,,,,,,,,,,,,,,,,,,,,,,,,,34,aviso,,,,,273.082,274.718,1,1,1.105,,0,9,9,33,1,REAL,FAKE,,,,,,,,,,,,,,,,,
,,,,,,,,,5b50881a59119400018abaf3,Spanish,13 or older,"no, only English or Spanish",no,2025-07-24_07h42.11.941,empathy_intonation_perc_control,2024.2.4,Win32,59.95203837,5b50881a59119400018abaf3,68817205a84113384fffdfe3,68821aaec9d0243f69a77134,,,,,,,,,,,,,1,,,,,,,,,,,,,,,,,,,,,,,,,,,,,,,,,,,,,3,pulmones,,,,,274.72,276.038,0,0,0.799,,0,10,10,2,1,REAL,FAKE,,,,,,,,,,,,,,,,,
,,,,,,,,,5b50881a59119400018abaf3,Spanish,13 or older,"no, only English or Spanish",no,2025-07-24_07h42.11.941,empathy_intonation_perc_control,2024.2.4,Win32,59.95203837,5b50881a59119400018abaf3,68817205a84113384fffdfe3,68821aaec9d0243f69a77134,,,,,,,,,,,,,0,,,,,,,,,,,,,,,,,,,,,,,,,,,,,,,,,,,,,10,antar,,,,,276.039,277.324,1,0,0.753,,0,11,11,9,1,REAL,FAKE,,,,,,,,,,,,,,,,,
,,,,,,,,,5b50881a59119400018abaf3,Spanish,13 or older,"no, only English or Spanish",no,2025-07-24_07h42.11.941,empathy_intonation_perc_control,2024.2.4,Win32,59.95203837,5b50881a59119400018abaf3,68817205a84113384fffdfe3,68821aaec9d0243f69a77134,,,,,,,,,,,,,1,,,,,,,,,,,,,,,,,,,,,,,,,,,,,,,,,,,,,28,merodear,,,,,277.324,278.827,0,0,0.971,,0,12,12,27,1,REAL,FAKE,,,,,,,,,,,,,,,,,
,,,,,,,,,5b50881a59119400018abaf3,Spanish,13 or older,"no, only English or Spanish",no,2025-07-24_07h42.11.941,empathy_intonation_perc_control,2024.2.4,Win32,59.95203837,5b50881a59119400018abaf3,68817205a84113384fffdfe3,68821aaec9d0243f69a77134,,,,,,,,,,,,,1,,,,,,,,,,,,,,,,,,,,,,,,,,,,,,,,,,,,,38,estornudar,,,,,278.828,280.03,0,0,0.68,,0,13,13,37,1,REAL,FAKE,,,,,,,,,,,,,,,,,
,,,,,,,,,5b50881a59119400018abaf3,Spanish,13 or older,"no, only English or Spanish",no,2025-07-24_07h42.11.941,empathy_intonation_perc_control,2024.2.4,Win32,59.95203837,5b50881a59119400018abaf3,68817205a84113384fffdfe3,68821aaec9d0243f69a77134,,,,,,,,,,,,,0,,,,,,,,,,,,,,,,,,,,,,,,,,,,,,,,,,,,,32,fatacidad,,,,,280.031,281.517,0,1,0.964,,0,14,14,31,1,REAL,FAKE,,,,,,,,,,,,,,,,,
,,,,,,,,,5b50881a59119400018abaf3,Spanish,13 or older,"no, only English or Spanish",no,2025-07-24_07h42.11.941,empathy_intonation_perc_control,2024.2.4,Win32,59.95203837,5b50881a59119400018abaf3,68817205a84113384fffdfe3,68821aaec9d0243f69a77134,,,,,,,,,,,,,1,,,,,,,,,,,,,,,,,,,,,,,,,,,,,,,,,,,,,14,yunque,,,,,281.519,282.853,0,0,0.809,,0,15,15,13,1,REAL,FAKE,,,,,,,,,,,,,,,,,
,,,,,,,,,5b50881a59119400018abaf3,Spanish,13 or older,"no, only English or Spanish",no,2025-07-24_07h42.11.941,empathy_intonation_perc_control,2024.2.4,Win32,59.95203837,5b50881a59119400018abaf3,68817205a84113384fffdfe3,68821aaec9d0243f69a77134,,,,,,,,,,,,,0,,,,,,,,,,,,,,,,,,,,,,,,,,,,,,,,,,,,,35,rompido,,,,,282.855,284.24,0,1,0.854,,0,16,16,34,1,REAL,FAKE,,,,,,,,,,,,,,,,,
,,,,,,,,,5b50881a59119400018abaf3,Spanish,13 or older,"no, only English or Spanish",no,2025-07-24_07h42.11.941,empathy_intonation_perc_control,2024.2.4,Win32,59.95203837,5b50881a59119400018abaf3,68817205a84113384fffdfe3,68821aaec9d0243f69a77134,,,,,,,,,,,,,1,,,,,,,,,,,,,,,,,,,,,,,,,,,,,,,,,,,,,43,canela,,,,,284.241,285.643,1,1,0.884,,0,17,17,42,1,REAL,FAKE,,,,,,,,,,,,,,,,,
,,,,,,,,,5b50881a59119400018abaf3,Spanish,13 or older,"no, only English or Spanish",no,2025-07-24_07h42.11.941,empathy_intonation_perc_control,2024.2.4,Win32,59.95203837,5b50881a59119400018abaf3,68817205a84113384fffdfe3,68821aaec9d0243f69a77134,,,,,,,,,,,,,0,,,,,,,,,,,,,,,,,,,,,,,,,,,,,,,,,,,,,18,arsa,,,,,285.644,286.862,0,1,0.692,,0,18,18,17,1,REAL,FAKE,,,,,,,,,,,,,,,,,
,,,,,,,,,5b50881a59119400018abaf3,Spanish,13 or older,"no, only English or Spanish",no,2025-07-24_07h42.11.941,empathy_intonation_perc_control,2024.2.4,Win32,59.95203837,5b50881a59119400018abaf3,68817205a84113384fffdfe3,68821aaec9d0243f69a77134,,,,,,,,,,,,,1,,,,,,,,,,,,,,,,,,,,,,,,,,,,,,,,,,,,,61,seda,,,,,286.864,288.266,0,0,0.88,,0,19,19,60,1,REAL,FAKE,,,,,,,,,,,,,,,,,
,,,,,,,,,5b50881a59119400018abaf3,Spanish,13 or older,"no, only English or Spanish",no,2025-07-24_07h42.11.941,empathy_intonation_perc_control,2024.2.4,Win32,59.95203837,5b50881a59119400018abaf3,68817205a84113384fffdfe3,68821aaec9d0243f69a77134,,,,,,,,,,,,,1,,,,,,,,,,,,,,,,,,,,,,,,,,,,,,,,,,,,,68,alegre,,,,,288.267,289.585,1,1,0.784,,0,20,20,67,1,REAL,FAKE,,,,,,,,,,,,,,,,,
,,,,,,,,,5b50881a59119400018abaf3,Spanish,13 or older,"no, only English or Spanish",no,2025-07-24_07h42.11.941,empathy_intonation_perc_control,2024.2.4,Win32,59.95203837,5b50881a59119400018abaf3,68817205a84113384fffdfe3,68821aaec9d0243f69a77134,,,,,,,,,,,,,0,,,,,,,,,,,,,,,,,,,,,,,,,,,,,,,,,,,,,50,flamida,,,,,289.586,290.939,0,1,0.832,,0,21,21,49,1,REAL,FAKE,,,,,,,,,,,,,,,,,
,,,,,,,,,5b50881a59119400018abaf3,Spanish,13 or older,"no, only English or Spanish",no,2025-07-24_07h42.11.941,empathy_intonation_perc_control,2024.2.4,Win32,59.95203837,5b50881a59119400018abaf3,68817205a84113384fffdfe3,68821aaec9d0243f69a77134,,,,,,,,,,,,,1,,,,,,,,,,,,,,,,,,,,,,,,,,,,,,,,,,,,,2,pellizcar,,,,,290.939,292.241,0,0,0.782,,0,22,22,1,1,REAL,FAKE,,,,,,,,,,,,,,,,,
,,,,,,,,,5b50881a59119400018abaf3,Spanish,13 or older,"no, only English or Spanish",no,2025-07-24_07h42.11.941,empathy_intonation_perc_control,2024.2.4,Win32,59.95203837,5b50881a59119400018abaf3,68817205a84113384fffdfe3,68821aaec9d0243f69a77134,,,,,,,,,,,,,0,,,,,,,,,,,,,,,,,,,,,,,,,,,,,,,,,,,,,21,capillo,,,,,292.245,293.378,1,0,0.589,,0,23,23,20,1,REAL,FAKE,,,,,,,,,,,,,,,,,
,,,,,,,,,5b50881a59119400018abaf3,Spanish,13 or older,"no, only English or Spanish",no,2025-07-24_07h42.11.941,empathy_intonation_perc_control,2024.2.4,Win32,59.95203837,5b50881a59119400018abaf3,68817205a84113384fffdfe3,68821aaec9d0243f69a77134,,,,,,,,,,,,,1,,,,,,,,,,,,,,,,,,,,,,,,,,,,,,,,,,,,,77,tiburón,,,,,293.383,294.647,0,0,0.731,,0,24,24,76,1,REAL,FAKE,,,,,,,,,,,,,,,,,
,,,,,,,,,5b50881a59119400018abaf3,Spanish,13 or older,"no, only English or Spanish",no,2025-07-24_07h42.11.941,empathy_intonation_perc_control,2024.2.4,Win32,59.95203837,5b50881a59119400018abaf3,68817205a84113384fffdfe3,68821aaec9d0243f69a77134,,,,,,,,,,,,,0,,,,,,,,,,,,,,,,,,,,,,,,,,,,,,,,,,,,,70,temblo,,,,,294.648,295.816,0,1,0.649,,0,25,25,69,1,REAL,FAKE,,,,,,,,,,,,,,,,,
,,,,,,,,,5b50881a59119400018abaf3,Spanish,13 or older,"no, only English or Spanish",no,2025-07-24_07h42.11.941,empathy_intonation_perc_control,2024.2.4,Win32,59.95203837,5b50881a59119400018abaf3,68817205a84113384fffdfe3,68821aaec9d0243f69a77134,,,,,,,,,,,,,1,,,,,,,,,,,,,,,,,,,,,,,,,,,,,,,,,,,,,65,bizcocho,,,,,295.818,297.27,0,0,0.924,,0,26,26,64,1,REAL,FAKE,,,,,,,,,,,,,,,,,
,,,,,,,,,5b50881a59119400018abaf3,Spanish,13 or older,"no, only English or Spanish",no,2025-07-24_07h42.11.941,empathy_intonation_perc_control,2024.2.4,Win32,59.95203837,5b50881a59119400018abaf3,68817205a84113384fffdfe3,68821aaec9d0243f69a77134,,,,,,,,,,,,,1,,,,,,,,,,,,,,,,,,,,,,,,,,,,,,,,,,,,,25,bisagra,,,,,297.271,298.472,1,1,0.686,,0,27,27,24,1,REAL,FAKE,,,,,,,,,,,,,,,,,
,,,,,,,,,5b50881a59119400018abaf3,Spanish,13 or older,"no, only English or Spanish",no,2025-07-24_07h42.11.941,empathy_intonation_perc_control,2024.2.4,Win32,59.95203837,5b50881a59119400018abaf3,68817205a84113384fffdfe3,68821aaec9d0243f69a77134,,,,,,,,,,,,,1,,,,,,,,,,,,,,,,,,,,,,,,,,,,,,,,,,,,,91,click the 1 key.,,,,,298.473,300.159,1,1,1.158,,0,28,28,90,1,REAL,FAKE,,,,,,,,,,,,,,,,,
,,,,,,,,,5b50881a59119400018abaf3,Spanish,13 or older,"no, only English or Spanish",no,2025-07-24_07h42.11.941,empathy_intonation_perc_control,2024.2.4,Win32,59.95203837,5b50881a59119400018abaf3,68817205a84113384fffdfe3,68821aaec9d0243f69a77134,,,,,,,,,,,,,1,,,,,,,,,,,,,,,,,,,,,,,,,,,,,,,,,,,,,12,asesinato,,,,,300.16,301.68,0,0,1,,0,29,29,11,1,REAL,FAKE,,,,,,,,,,,,,,,,,
,,,,,,,,,5b50881a59119400018abaf3,Spanish,13 or older,"no, only English or Spanish",no,2025-07-24_07h42.11.941,empathy_intonation_perc_control,2024.2.4,Win32,59.95203837,5b50881a59119400018abaf3,68817205a84113384fffdfe3,68821aaec9d0243f69a77134,,,,,,,,,,,,,1,,,,,,,,,,,,,,,,,,,,,,,,,,,,,,,,,,,,,49,ganar,,,,,301.681,303.033,1,1,0.825,,0,30,30,48,1,REAL,FAKE,,,,,,,,,,,,,,,,,
,,,,,,,,,5b50881a59119400018abaf3,Spanish,13 or older,"no, only English or Spanish",no,2025-07-24_07h42.11.941,empathy_intonation_perc_control,2024.2.4,Win32,59.95203837,5b50881a59119400018abaf3,68817205a84113384fffdfe3,68821aaec9d0243f69a77134,,,,,,,,,,,,,1,,,,,,,,,,,,,,,,,,,,,,,,,,,,,,,,,,,,,90,clavel,,,,,303.034,304.219,0,0,0.654,,0,31,31,89,1,REAL,FAKE,,,,,,,,,,,,,,,,,
,,,,,,,,,5b50881a59119400018abaf3,Spanish,13 or older,"no, only English or Spanish",no,2025-07-24_07h42.11.941,empathy_intonation_perc_control,2024.2.4,Win32,59.95203837,5b50881a59119400018abaf3,68817205a84113384fffdfe3,68821aaec9d0243f69a77134,,,,,,,,,,,,,0,,,,,,,,,,,,,,,,,,,,,,,,,,,,,,,,,,,,,23,lampera,,,,,304.22,305.722,0,1,0.966,,0,32,32,22,1,REAL,FAKE,,,,,,,,,,,,,,,,,
,,,,,,,,,5b50881a59119400018abaf3,Spanish,13 or older,"no, only English or Spanish",no,2025-07-24_07h42.11.941,empathy_intonation_perc_control,2024.2.4,Win32,59.95203837,5b50881a59119400018abaf3,68817205a84113384fffdfe3,68821aaec9d0243f69a77134,,,,,,,,,,,,,1,,,,,,,,,,,,,,,,,,,,,,,,,,,,,,,,,,,,,5,zapato,,,,,305.723,306.925,1,1,0.662,,0,33,33,4,1,REAL,FAKE,,,,,,,,,,,,,,,,,
,,,,,,,,,5b50881a59119400018abaf3,Spanish,13 or older,"no, only English or Spanish",no,2025-07-24_07h42.11.941,empathy_intonation_perc_control,2024.2.4,Win32,59.95203837,5b50881a59119400018abaf3,68817205a84113384fffdfe3,68821aaec9d0243f69a77134,,,,,,,,,,,,,1,,,,,,,,,,,,,,,,,,,,,,,,,,,,,,,,,,,,,6,tergiversar,,,,,306.926,308.195,0,0,0.737,,0,34,34,5,1,REAL,FAKE,,,,,,,,,,,,,,,,,
,,,,,,,,,5b50881a59119400018abaf3,Spanish,13 or older,"no, only English or Spanish",no,2025-07-24_07h42.11.941,empathy_intonation_perc_control,2024.2.4,Win32,59.95203837,5b50881a59119400018abaf3,68817205a84113384fffdfe3,68821aaec9d0243f69a77134,,,,,,,,,,,,,1,,,,,,,,,,,,,,,,,,,,,,,,,,,,,,,,,,,,,51,candado,,,,,308.196,309.431,1,1,0.715,,0,35,35,50,1,REAL,FAKE,,,,,,,,,,,,,,,,,
,,,,,,,,,5b50881a59119400018abaf3,Spanish,13 or older,"no, only English or Spanish",no,2025-07-24_07h42.11.941,empathy_intonation_perc_control,2024.2.4,Win32,59.95203837,5b50881a59119400018abaf3,68817205a84113384fffdfe3,68821aaec9d0243f69a77134,,,,,,,,,,,,,1,,,,,,,,,,,,,,,,,,,,,,,,,,,,,,,,,,,,,64,orgulloso,,,,,309.431,310.617,0,0,0.66,,0,36,36,63,1,REAL,FAKE,,,,,,,,,,,,,,,,,
,,,,,,,,,5b50881a59119400018abaf3,Spanish,13 or older,"no, only English or Spanish",no,2025-07-24_07h42.11.941,empathy_intonation_perc_control,2024.2.4,Win32,59.95203837,5b50881a59119400018abaf3,68817205a84113384fffdfe3,68821aaec9d0243f69a77134,,,,,,,,,,,,,1,,,,,,,,,,,,,,,,,,,,,,,,,,,,,,,,,,,,,36,loro,,,,,310.618,311.87,0,0,0.724,,0,37,37,35,1,REAL,FAKE,,,,,,,,,,,,,,,,,
,,,,,,,,,5b50881a59119400018abaf3,Spanish,13 or older,"no, only English or Spanish",no,2025-07-24_07h42.11.941,empathy_intonation_perc_control,2024.2.4,Win32,59.95203837,5b50881a59119400018abaf3,68817205a84113384fffdfe3,68821aaec9d0243f69a77134,,,,,,,,,,,,,1,,,,,,,,,,,,,,,,,,,,,,,,,,,,,,,,,,,,,62,flaco,,,,,311.87,313.123,0,0,0.722,,0,38,38,61,1,REAL,FAKE,,,,,,,,,,,,,,,,,
,,,,,,,,,5b50881a59119400018abaf3,Spanish,13 or older,"no, only English or Spanish",no,2025-07-24_07h42.11.941,empathy_intonation_perc_control,2024.2.4,Win32,59.95203837,5b50881a59119400018abaf3,68817205a84113384fffdfe3,68821aaec9d0243f69a77134,,,,,,,,,,,,,1,,,,,,,,,,,,,,,,,,,,,,,,,,,,,,,,,,,,,46,martillo,,,,,313.123,314.826,1,1,1.179,,0,39,39,45,1,REAL,FAKE,,,,,,,,,,,,,,,,,
,,,,,,,,,5b50881a59119400018abaf3,Spanish,13 or older,"no, only English or Spanish",no,2025-07-24_07h42.11.941,empathy_intonation_perc_control,2024.2.4,Win32,59.95203837,5b50881a59119400018abaf3,68817205a84113384fffdfe3,68821aaec9d0243f69a77134,,,,,,,,,,,,,0,,,,,,,,,,,,,,,,,,,,,,,,,,,,,,,,,,,,,74,cintro,,,,,314.827,315.963,1,0,0.606,,0,40,40,73,1,REAL,FAKE,,,,,,,,,,,,,,,,,
,,,,,,,,,5b50881a59119400018abaf3,Spanish,13 or older,"no, only English or Spanish",no,2025-07-24_07h42.11.941,empathy_intonation_perc_control,2024.2.4,Win32,59.95203837,5b50881a59119400018abaf3,68817205a84113384fffdfe3,68821aaec9d0243f69a77134,,,,,,,,,,,,,1,,,,,,,,,,,,,,,,,,,,,,,,,,,,,,,,,,,,,48,ladrón,,,,,315.963,317.382,0,0,0.889,,0,41,41,47,1,REAL,FAKE,,,,,,,,,,,,,,,,,
,,,,,,,,,5b50881a59119400018abaf3,Spanish,13 or older,"no, only English or Spanish",no,2025-07-24_07h42.11.941,empathy_intonation_perc_control,2024.2.4,Win32,59.95203837,5b50881a59119400018abaf3,68817205a84113384fffdfe3,68821aaec9d0243f69a77134,,,,,,,,,,,,,1,,,,,,,,,,,,,,,,,,,,,,,,,,,,,,,,,,,,,52,camisa,,,,,317.383,318.669,1,1,0.745,,0,42,42,51,1,REAL,FAKE,,,,,,,,,,,,,,,,,
,,,,,,,,,5b50881a59119400018abaf3,Spanish,13 or older,"no, only English or Spanish",no,2025-07-24_07h42.11.941,empathy_intonation_perc_control,2024.2.4,Win32,59.95203837,5b50881a59119400018abaf3,68817205a84113384fffdfe3,68821aaec9d0243f69a77134,,,,,,,,,,,,,1,,,,,,,,,,,,,,,,,,,,,,,,,,,,,,,,,,,,,71,polvoriento,,,,,318.669,319.988,0,0,0.799,,0,43,43,70,1,REAL,FAKE,,,,,,,,,,,,,,,,,
,,,,,,,,,5b50881a59119400018abaf3,Spanish,13 or older,"no, only English or Spanish",no,2025-07-24_07h42.11.941,empathy_intonation_perc_control,2024.2.4,Win32,59.95203837,5b50881a59119400018abaf3,68817205a84113384fffdfe3,68821aaec9d0243f69a77134,,,,,,,,,,,,,1,,,,,,,,,,,,,,,,,,,,,,,,,,,,,,,,,,,,,15,regar,,,,,319.989,321.091,1,1,0.568,,0,44,44,14,1,REAL,FAKE,,,,,,,,,,,,,,,,,
,,,,,,,,,5b50881a59119400018abaf3,Spanish,13 or older,"no, only English or Spanish",no,2025-07-24_07h42.11.941,empathy_intonation_perc_control,2024.2.4,Win32,59.95203837,5b50881a59119400018abaf3,68817205a84113384fffdfe3,68821aaec9d0243f69a77134,,,,,,,,,,,,,0,,,,,,,,,,,,,,,,,,,,,,,,,,,,,,,,,,,,,92,click the 0 key.,,,,,321.091,322.361,0,1,0.742,,0,45,45,91,1,REAL,FAKE,,,,,,,,,,,,,,,,,
,,,,,,,,,5b50881a59119400018abaf3,Spanish,13 or older,"no, only English or Spanish",no,2025-07-24_07h42.11.941,empathy_intonation_perc_control,2024.2.4,Win32,59.95203837,5b50881a59119400018abaf3,68817205a84113384fffdfe3,68821aaec9d0243f69a77134,,,,,,,,,,,,,0,,,,,,,,,,,,,,,,,,,,,,,,,,,,,,,,,,,,,29,decar,,,,,322.362,324.014,1,0,1.129,,0,46,46,28,1,REAL,FAKE,,,,,,,,,,,,,,,,,
,,,,,,,,,5b50881a59119400018abaf3,Spanish,13 or older,"no, only English or Spanish",no,2025-07-24_07h42.11.941,empathy_intonation_perc_control,2024.2.4,Win32,59.95203837,5b50881a59119400018abaf3,68817205a84113384fffdfe3,68821aaec9d0243f69a77134,,,,,,,,,,,,,1,,,,,,,,,,,,,,,,,,,,,,,,,,,,,,,,,,,,,13,helar,,,,,324.015,325.251,1,1,0.713,,0,47,47,12,1,REAL,FAKE,,,,,,,,,,,,,,,,,
,,,,,,,,,5b50881a59119400018abaf3,Spanish,13 or older,"no, only English or Spanish",no,2025-07-24_07h42.11.941,empathy_intonation_perc_control,2024.2.4,Win32,59.95203837,5b50881a59119400018abaf3,68817205a84113384fffdfe3,68821aaec9d0243f69a77134,,,,,,,,,,,,,1,,,,,,,,,,,,,,,,,,,,,,,,,,,,,,,,,,,,,75,yacer,,,,,325.254,326.57,1,1,0.774,,0,48,48,74,1,REAL,FAKE,,,,,,,,,,,,,,,,,
,,,,,,,,,5b50881a59119400018abaf3,Spanish,13 or older,"no, only English or Spanish",no,2025-07-24_07h42.11.941,empathy_intonation_perc_control,2024.2.4,Win32,59.95203837,5b50881a59119400018abaf3,68817205a84113384fffdfe3,68821aaec9d0243f69a77134,,,,,,,,,,,,,1,,,,,,,,,,,,,,,,,,,,,,,,,,,,,,,,,,,,,22,lacayo,,,,,326.571,327.705,0,0,0.619,,0,49,49,21,1,REAL,FAKE,,,,,,,,,,,,,,,,,
,,,,,,,,,5b50881a59119400018abaf3,Spanish,13 or older,"no, only English or Spanish",no,2025-07-24_07h42.11.941,empathy_intonation_perc_control,2024.2.4,Win32,59.95203837,5b50881a59119400018abaf3,68817205a84113384fffdfe3,68821aaec9d0243f69a77134,,,,,,,,,,,,,0,,,,,,,,,,,,,,,,,,,,,,,,,,,,,,,,,,,,,79,tropaje,,,,,327.706,328.842,0,1,0.61,,0,50,50,78,1,REAL,FAKE,,,,,,,,,,,,,,,,,
,,,,,,,,,5b50881a59119400018abaf3,Spanish,13 or older,"no, only English or Spanish",no,2025-07-24_07h42.11.941,empathy_intonation_perc_control,2024.2.4,Win32,59.95203837,5b50881a59119400018abaf3,68817205a84113384fffdfe3,68821aaec9d0243f69a77134,,,,,,,,,,,,,0,,,,,,,,,,,,,,,,,,,,,,,,,,,,,,,,,,,,,66,hacido,,,,,328.842,330.094,1,0,0.719,,0,51,51,65,1,REAL,FAKE,,,,,,,,,,,,,,,,,
,,,,,,,,,5b50881a59119400018abaf3,Spanish,13 or older,"no, only English or Spanish",no,2025-07-24_07h42.11.941,empathy_intonation_perc_control,2024.2.4,Win32,59.95203837,5b50881a59119400018abaf3,68817205a84113384fffdfe3,68821aaec9d0243f69a77134,,,,,,,,,,,,,0,,,,,,,,,,,,,,,,,,,,,,,,,,,,,,,,,,,,,16,abracer,,,,,330.096,331.164,0,1,0.547,,0,52,52,15,1,REAL,FAKE,,,,,,,,,,,,,,,,,
,,,,,,,,,5b50881a59119400018abaf3,Spanish,13 or older,"no, only English or Spanish",no,2025-07-24_07h42.11.941,empathy_intonation_perc_control,2024.2.4,Win32,59.95203837,5b50881a59119400018abaf3,68817205a84113384fffdfe3,68821aaec9d0243f69a77134,,,,,,,,,,,,,0,,,,,,,,,,,,,,,,,,,,,,,,,,,,,,,,,,,,,1,terzo,,,,,331.165,332.367,0,1,0.681,,0,53,53,0,1,REAL,FAKE,,,,,,,,,,,,,,,,,
,,,,,,,,,5b50881a59119400018abaf3,Spanish,13 or older,"no, only English or Spanish",no,2025-07-24_07h42.11.941,empathy_intonation_perc_control,2024.2.4,Win32,59.95203837,5b50881a59119400018abaf3,68817205a84113384fffdfe3,68821aaec9d0243f69a77134,,,,,,,,,,,,,1,,,,,,,,,,,,,,,,,,,,,,,,,,,,,,,,,,,,,26,secuestro,,,,,332.368,333.752,1,1,0.871,,0,54,54,25,1,REAL,FAKE,,,,,,,,,,,,,,,,,
,,,,,,,,,5b50881a59119400018abaf3,Spanish,13 or older,"no, only English or Spanish",no,2025-07-24_07h42.11.941,empathy_intonation_perc_control,2024.2.4,Win32,59.95203837,5b50881a59119400018abaf3,68817205a84113384fffdfe3,68821aaec9d0243f69a77134,,,,,,,,,,,,,1,,,,,,,,,,,,,,,,,,,,,,,,,,,,,,,,,,,,,81,pozo,,,,,333.753,335.072,0,0,0.794,,0,55,55,80,1,REAL,FAKE,,,,,,,,,,,,,,,,,
,,,,,,,,,5b50881a59119400018abaf3,Spanish,13 or older,"no, only English or Spanish",no,2025-07-24_07h42.11.941,empathy_intonation_perc_control,2024.2.4,Win32,59.95203837,5b50881a59119400018abaf3,68817205a84113384fffdfe3,68821aaec9d0243f69a77134,,,,,,,,,,,,,0,,,,,,,,,,,,,,,,,,,,,,,,,,,,,,,,,,,,,42,cadallo,,,,,335.073,336.409,1,0,0.806,,0,56,56,41,1,REAL,FAKE,,,,,,,,,,,,,,,,,
,,,,,,,,,5b50881a59119400018abaf3,Spanish,13 or older,"no, only English or Spanish",no,2025-07-24_07h42.11.941,empathy_intonation_perc_control,2024.2.4,Win32,59.95203837,5b50881a59119400018abaf3,68817205a84113384fffdfe3,68821aaec9d0243f69a77134,,,,,,,,,,,,,0,,,,,,,,,,,,,,,,,,,,,,,,,,,,,,,,,,,,,53,vegada,,,,,336.409,337.578,1,0,0.651,,0,57,57,52,1,REAL,FAKE,,,,,,,,,,,,,,,,,
,,,,,,,,,5b50881a59119400018abaf3,Spanish,13 or older,"no, only English or Spanish",no,2025-07-24_07h42.11.941,empathy_intonation_perc_control,2024.2.4,Win32,59.95203837,5b50881a59119400018abaf3,68817205a84113384fffdfe3,68821aaec9d0243f69a77134,,,,,,,,,,,,,0,,,,,,,,,,,,,,,,,,,,,,,,,,,,,,,,,,,,,87,grodo,,,,,337.578,338.764,0,1,0.664,,0,58,58,86,1,REAL,FAKE,,,,,,,,,,,,,,,,,
,,,,,,,,,5b50881a59119400018abaf3,Spanish,13 or older,"no, only English or Spanish",no,2025-07-24_07h42.11.941,empathy_intonation_perc_control,2024.2.4,Win32,59.95203837,5b50881a59119400018abaf3,68817205a84113384fffdfe3,68821aaec9d0243f69a77134,,,,,,,,,,,,,0,,,,,,,,,,,,,,,,,,,,,,,,,,,,,,,,,,,,,30,alardio,,,,,338.766,340.251,0,1,0.966,,0,59,59,29,1,REAL,FAKE,,,,,,,,,,,,,,,,,
,,,,,,,,,5b50881a59119400018abaf3,Spanish,13 or older,"no, only English or Spanish",no,2025-07-24_07h42.11.941,empathy_intonation_perc_control,2024.2.4,Win32,59.95203837,5b50881a59119400018abaf3,68817205a84113384fffdfe3,68821aaec9d0243f69a77134,,,,,,,,,,,,,1,,,,,,,,,,,,,,,,,,,,,,,,,,,,,,,,,,,,,45,jilguero,,,,,340.252,341.571,0,0,0.798,,0,60,60,44,1,REAL,FAKE,,,,,,,,,,,,,,,,,
,,,,,,,,,5b50881a59119400018abaf3,Spanish,13 or older,"no, only English or Spanish",no,2025-07-24_07h42.11.941,empathy_intonation_perc_control,2024.2.4,Win32,59.95203837,5b50881a59119400018abaf3,68817205a84113384fffdfe3,68821aaec9d0243f69a77134,,,,,,,,,,,,,0,,,,,,,,,,,,,,,,,,,,,,,,,,,,,,,,,,,,,63,esposante,,,,,341.571,342.874,0,1,0.77,,0,61,61,62,1,REAL,FAKE,,,,,,,,,,,,,,,,,
,,,,,,,,,5b50881a59119400018abaf3,Spanish,13 or older,"no, only English or Spanish",no,2025-07-24_07h42.11.941,empathy_intonation_perc_control,2024.2.4,Win32,59.95203837,5b50881a59119400018abaf3,68817205a84113384fffdfe3,68821aaec9d0243f69a77134,,,,,,,,,,,,,1,,,,,,,,,,,,,,,,,,,,,,,,,,,,,,,,,,,,,54,fomentar,,,,,342.875,344.277,1,1,0.885,,0,62,62,53,1,REAL,FAKE,,,,,,,,,,,,,,,,,
,,,,,,,,,5b50881a59119400018abaf3,Spanish,13 or older,"no, only English or Spanish",no,2025-07-24_07h42.11.941,empathy_intonation_perc_control,2024.2.4,Win32,59.95203837,5b50881a59119400018abaf3,68817205a84113384fffdfe3,68821aaec9d0243f69a77134,,,,,,,,,,,,,1,,,,,,,,,,,,,,,,,,,,,,,,,,,,,,,,,,,,,44,cuchara,,,,,344.277,345.68,0,0,0.89,,0,63,63,43,1,REAL,FAKE,,,,,,,,,,,,,,,,,
,,,,,,,,,5b50881a59119400018abaf3,Spanish,13 or older,"no, only English or Spanish",no,2025-07-24_07h42.11.941,empathy_intonation_perc_control,2024.2.4,Win32,59.95203837,5b50881a59119400018abaf3,68817205a84113384fffdfe3,68821aaec9d0243f69a77134,,,,,,,,,,,,,1,,,,,,,,,,,,,,,,,,,,,,,,,,,,,,,,,,,,,60,matar,,,,,345.681,346.916,1,1,0.719,,0,64,64,59,1,REAL,FAKE,,,,,,,,,,,,,,,,,
,,,,,,,,,5b50881a59119400018abaf3,Spanish,13 or older,"no, only English or Spanish",no,2025-07-24_07h42.11.941,empathy_intonation_perc_control,2024.2.4,Win32,59.95203837,5b50881a59119400018abaf3,68817205a84113384fffdfe3,68821aaec9d0243f69a77134,,,,,,,,,,,,,1,,,,,,,,,,,,,,,,,,,,,,,,,,,,,,,,,,,,,20,ávido,,,,,346.917,347.952,0,0,0.506,,0,65,65,19,1,REAL,FAKE,,,,,,,,,,,,,,,,,
,,,,,,,,,5b50881a59119400018abaf3,Spanish,13 or older,"no, only English or Spanish",no,2025-07-24_07h42.11.941,empathy_intonation_perc_control,2024.2.4,Win32,59.95203837,5b50881a59119400018abaf3,68817205a84113384fffdfe3,68821aaec9d0243f69a77134,,,,,,,,,,,,,0,,,,,,,,,,,,,,,,,,,,,,,,,,,,,,,,,,,,,84,escuto,,,,,347.953,349.338,0,1,0.865,,0,66,66,83,1,REAL,FAKE,,,,,,,,,,,,,,,,,
,,,,,,,,,5b50881a59119400018abaf3,Spanish,13 or older,"no, only English or Spanish",no,2025-07-24_07h42.11.941,empathy_intonation_perc_control,2024.2.4,Win32,59.95203837,5b50881a59119400018abaf3,68817205a84113384fffdfe3,68821aaec9d0243f69a77134,,,,,,,,,,,,,1,,,,,,,,,,,,,,,,,,,,,,,,,,,,,,,,,,,,,86,barato,,,,,349.339,350.942,1,1,1.073,,0,67,67,85,1,REAL,FAKE,,,,,,,,,,,,,,,,,
,,,,,,,,,5b50881a59119400018abaf3,Spanish,13 or older,"no, only English or Spanish",no,2025-07-24_07h42.11.941,empathy_intonation_perc_control,2024.2.4,Win32,59.95203837,5b50881a59119400018abaf3,68817205a84113384fffdfe3,68821aaec9d0243f69a77134,,,,,,,,,,,,,0,,,,,,,,,,,,,,,,,,,,,,,,,,,,,,,,,,,,,19,brecedad,,,,,350.943,352.245,0,1,0.776,,0,68,68,18,1,REAL,FAKE,,,,,,,,,,,,,,,,,
,,,,,,,,,5b50881a59119400018abaf3,Spanish,13 or older,"no, only English or Spanish",no,2025-07-24_07h42.11.941,empathy_intonation_perc_control,2024.2.4,Win32,59.95203837,5b50881a59119400018abaf3,68817205a84113384fffdfe3,68821aaec9d0243f69a77134,,,,,,,,,,,,,0,,,,,,,,,,,,,,,,,,,,,,,,,,,,,,,,,,,,,58,plaudir,,,,,352.246,353.815,1,0,1.044,,0,69,69,57,1,REAL,FAKE,,,,,,,,,,,,,,,,,
,,,,,,,,,5b50881a59119400018abaf3,Spanish,13 or older,"no, only English or Spanish",no,2025-07-24_07h42.11.941,empathy_intonation_perc_control,2024.2.4,Win32,59.95203837,5b50881a59119400018abaf3,68817205a84113384fffdfe3,68821aaec9d0243f69a77134,,,,,,,,,,,,,1,,,,,,,,,,,,,,,,,,,,,,,,,,,,,,,,,,,,,40,alfombra,,,,,353.816,354.885,0,0,0.537,,0,70,70,39,1,REAL,FAKE,,,,,,,,,,,,,,,,,
,,,,,,,,,5b50881a59119400018abaf3,Spanish,13 or older,"no, only English or Spanish",no,2025-07-24_07h42.11.941,empathy_intonation_perc_control,2024.2.4,Win32,59.95203837,5b50881a59119400018abaf3,68817205a84113384fffdfe3,68821aaec9d0243f69a77134,,,,,,,,,,,,,1,,,,,,,,,,,,,,,,,,,,,,,,,,,,,,,,,,,,,76,atar,,,,,354.885,356.07,1,1,0.654,,0,71,71,75,1,REAL,FAKE,,,,,,,,,,,,,,,,,
,,,,,,,,,5b50881a59119400018abaf3,Spanish,13 or older,"no, only English or Spanish",no,2025-07-24_07h42.11.941,empathy_intonation_perc_control,2024.2.4,Win32,59.95203837,5b50881a59119400018abaf3,68817205a84113384fffdfe3,68821aaec9d0243f69a77134,,,,,,,,,,,,,0,,,,,,,,,,,,,,,,,,,,,,,,,,,,,,,,,,,,,82,empirador,,,,,356.071,357.357,0,1,0.761,,0,72,72,81,1,REAL,FAKE,,,,,,,,,,,,,,,,,
,,,,,,,,,5b50881a59119400018abaf3,Spanish,13 or older,"no, only English or Spanish",no,2025-07-24_07h42.11.941,empathy_intonation_perc_control,2024.2.4,Win32,59.95203837,5b50881a59119400018abaf3,68817205a84113384fffdfe3,68821aaec9d0243f69a77134,,,,,,,,,,,,,1,,,,,,,,,,,,,,,,,,,,,,,,,,,,,,,,,,,,,73,hervidor,,,,,357.357,358.677,0,0,0.785,,0,73,73,72,1,REAL,FAKE,,,,,,,,,,,,,,,,,
,,,,,,,,,5b50881a59119400018abaf3,Spanish,13 or older,"no, only English or Spanish",no,2025-07-24_07h42.11.941,empathy_intonation_perc_control,2024.2.4,Win32,59.95203837,5b50881a59119400018abaf3,68817205a84113384fffdfe3,68821aaec9d0243f69a77134,,,,,,,,,,,,,1,,,,,,,,,,,,,,,,,,,,,,,,,,,,,,,,,,,,,56,musgo,,,,,358.682,359.98,0,0,0.756,,0,74,74,55,1,REAL,FAKE,,,,,,,,,,,,,,,,,
,,,,,,,,,5b50881a59119400018abaf3,Spanish,13 or older,"no, only English or Spanish",no,2025-07-24_07h42.11.941,empathy_intonation_perc_control,2024.2.4,Win32,59.95203837,5b50881a59119400018abaf3,68817205a84113384fffdfe3,68821aaec9d0243f69a77134,,,,,,,,,,,,,1,,,,,,,,,,,,,,,,,,,,,,,,,,,,,,,,,,,,,59,besar,,,,,359.981,361.182,1,1,0.679,,0,75,75,58,1,REAL,FAKE,,,,,,,,,,,,,,,,,
,,,,,,,,,5b50881a59119400018abaf3,Spanish,13 or older,"no, only English or Spanish",no,2025-07-24_07h42.11.941,empathy_intonation_perc_control,2024.2.4,Win32,59.95203837,5b50881a59119400018abaf3,68817205a84113384fffdfe3,68821aaec9d0243f69a77134,,,,,,,,,,,,,1,,,,,,,,,,,,,,,,,,,,,,,,,,,,,,,,,,,,,80,hormiga,,,,,361.183,362.568,0,0,0.865,,0,76,76,79,1,REAL,FAKE,,,,,,,,,,,,,,,,,
,,,,,,,,,5b50881a59119400018abaf3,Spanish,13 or older,"no, only English or Spanish",no,2025-07-24_07h42.11.941,empathy_intonation_perc_control,2024.2.4,Win32,59.95203837,5b50881a59119400018abaf3,68817205a84113384fffdfe3,68821aaec9d0243f69a77134,,,,,,,,,,,,,1,,,,,,,,,,,,,,,,,,,,,,,,,,,,,,,,,,,,,85,laúd,,,,,362.569,363.704,0,0,0.621,,0,77,77,84,1,REAL,FAKE,,,,,,,,,,,,,,,,,
,,,,,,,,,5b50881a59119400018abaf3,Spanish,13 or older,"no, only English or Spanish",no,2025-07-24_07h42.11.941,empathy_intonation_perc_control,2024.2.4,Win32,59.95203837,5b50881a59119400018abaf3,68817205a84113384fffdfe3,68821aaec9d0243f69a77134,,,,,,,,,,,,,0,,,,,,,,,,,,,,,,,,,,,,,,,,,,,,,,,,,,,72,pemición,,,,,363.706,365.174,0,1,0.949,,0,78,78,71,1,REAL,FAKE,,,,,,,,,,,,,,,,,
,,,,,,,,,5b50881a59119400018abaf3,Spanish,13 or older,"no, only English or Spanish",no,2025-07-24_07h42.11.941,empathy_intonation_perc_control,2024.2.4,Win32,59.95203837,5b50881a59119400018abaf3,68817205a84113384fffdfe3,68821aaec9d0243f69a77134,,,,,,,,,,,,,0,,,,,,,,,,,,,,,,,,,,,,,,,,,,,,,,,,,,,27,acutación,,,,,365.175,366.544,1,0,0.841,,0,79,79,26,1,REAL,FAKE,,,,,,,,,,,,,,,,,
,,,,,,,,,5b50881a59119400018abaf3,Spanish,13 or older,"no, only English or Spanish",no,2025-07-24_07h42.11.941,empathy_intonation_perc_control,2024.2.4,Win32,59.95203837,5b50881a59119400018abaf3,68817205a84113384fffdfe3,68821aaec9d0243f69a77134,,,,,,,,,,,,,1,,,,,,,,,,,,,,,,,,,,,,,,,,,,,,,,,,,,,67,cabello,,,,,366.545,367.73,1,1,0.651,,0,80,80,66,1,REAL,FAKE,,,,,,,,,,,,,,,,,
,,,,,,,,,5b50881a59119400018abaf3,Spanish,13 or older,"no, only English or Spanish",no,2025-07-24_07h42.11.941,empathy_intonation_perc_control,2024.2.4,Win32,59.95203837,5b50881a59119400018abaf3,68817205a84113384fffdfe3,68821aaec9d0243f69a77134,,,,,,,,,,,,,0,,,,,,,,,,,,,,,,,,,,,,,,,,,,,,,,,,,,,17,floroso,,,,,367.731,369.1,1,0,0.839,,0,81,81,16,1,REAL,FAKE,,,,,,,,,,,,,,,,,
,,,,,,,,,5b50881a59119400018abaf3,Spanish,13 or older,"no, only English or Spanish",no,2025-07-24_07h42.11.941,empathy_intonation_perc_control,2024.2.4,Win32,59.95203837,5b50881a59119400018abaf3,68817205a84113384fffdfe3,68821aaec9d0243f69a77134,,,,,,,,,,,,,1,,,,,,,,,,,,,,,,,,,,,,,,,,,,,,,,,,,,,89,prisa,,,,,369.101,370.236,0,0,0.61,,0,82,82,88,1,REAL,FAKE,,,,,,,,,,,,,,,,,
,,,,,,,,,5b50881a59119400018abaf3,Spanish,13 or older,"no, only English or Spanish",no,2025-07-24_07h42.11.941,empathy_intonation_perc_control,2024.2.4,Win32,59.95203837,5b50881a59119400018abaf3,68817205a84113384fffdfe3,68821aaec9d0243f69a77134,,,,,,,,,,,,,1,,,,,,,,,,,,,,,,,,,,,,,,,,,,,,,,,,,,,83,guante,,,,,370.237,371.422,0,0,0.662,,0,83,83,82,1,REAL,FAKE,,,,,,,,,,,,,,,,,
,,,,,,,,,5b50881a59119400018abaf3,Spanish,13 or older,"no, only English or Spanish",no,2025-07-24_07h42.11.941,empathy_intonation_perc_control,2024.2.4,Win32,59.95203837,5b50881a59119400018abaf3,68817205a84113384fffdfe3,68821aaec9d0243f69a77134,,,,,,,,,,,,,1,,,,,,,,,,,,,,,,,,,,,,,,,,,,,,,,,,,,,7,pésimo,,,,,371.423,372.892,0,0,0.941,,0,84,84,6,1,REAL,FAKE,,,,,,,,,,,,,,,,,
,,,,,,,,,5b50881a59119400018abaf3,Spanish,13 or older,"no, only English or Spanish",no,2025-07-24_07h42.11.941,empathy_intonation_perc_control,2024.2.4,Win32,59.95203837,5b50881a59119400018abaf3,68817205a84113384fffdfe3,68821aaec9d0243f69a77134,,,,,,,,,,,,,1,,,,,,,,,,,,,,,,,,,,,,,,,,,,,,,,,,,,,39,torpe,,,,,372.892,374.095,0,0,0.673,,0,85,85,38,1,REAL,FAKE,,,,,,,,,,,,,,,,,
,,,,,,,,,5b50881a59119400018abaf3,Spanish,13 or older,"no, only English or Spanish",no,2025-07-24_07h42.11.941,empathy_intonation_perc_control,2024.2.4,Win32,59.95203837,5b50881a59119400018abaf3,68817205a84113384fffdfe3,68821aaec9d0243f69a77134,,,,,,,,,,,,,1,,,,,,,,,,,,,,,,,,,,,,,,,,,,,,,,,,,,,69,engatusar,,,,,374.095,375.431,0,0,0.822,,0,86,86,68,1,REAL,FAKE,,,,,,,,,,,,,,,,,
,,,,,,,,,5b50881a59119400018abaf3,Spanish,13 or older,"no, only English or Spanish",no,2025-07-24_07h42.11.941,empathy_intonation_perc_control,2024.2.4,Win32,59.95203837,5b50881a59119400018abaf3,68817205a84113384fffdfe3,68821aaec9d0243f69a77134,,,,,,,,,,,,,0,,,,,,,,,,,,,,,,,,,,,,,,,,,,,,,,,,,,,8,cadeña,,,,,375.432,376.551,1,0,0.596,,0,87,87,7,1,REAL,FAKE,,,,,,,,,,,,,,,,,
,,,,,,,,,5b50881a59119400018abaf3,Spanish,13 or older,"no, only English or Spanish",no,2025-07-24_07h42.11.941,empathy_intonation_perc_control,2024.2.4,Win32,59.95203837,5b50881a59119400018abaf3,68817205a84113384fffdfe3,68821aaec9d0243f69a77134,,,,,,,,,,,,,1,,,,,,,,,,,,,,,,,,,,,,,,,,,,,,,,,,,,,55,nevar,,,,,376.552,378.288,1,1,1.212,,0,88,88,54,1,REAL,FAKE,,,,,,,,,,,,,,,,,
,,,,,,,,,5b50881a59119400018abaf3,Spanish,13 or older,"no, only English or Spanish",no,2025-07-24_07h42.11.941,empathy_intonation_perc_control,2024.2.4,Win32,59.95203837,5b50881a59119400018abaf3,68817205a84113384fffdfe3,68821aaec9d0243f69a77134,,,,,,,,,,,,,1,,,,,,,,,,,,,,,,,,,,,,,,,,,,,,,,,,,,,11,cenefa,,,,,378.289,379.407,0,0,0.582,,0,89,89,10,1,REAL,FAKE,,,,,,,,,,,,,,,,,
,,,,,,,,,5b50881a59119400018abaf3,Spanish,13 or older,"no, only English or Spanish",no,2025-07-24_07h42.11.941,empathy_intonation_perc_control,2024.2.4,Win32,59.95203837,5b50881a59119400018abaf3,68817205a84113384fffdfe3,68821aaec9d0243f69a77134,,,,,,,,,,,,,0,,,,,,,,,,,,,,,,,,,,,,,,,,,,,,,,,,,,,47,cartinar,,,,,379.408,381.094,1,0,1.162,,0,90,90,46,1,REAL,FAKE,,,,,,,,,,,,,,,,,
,,,,,,,,,5b50881a59119400018abaf3,Spanish,13 or older,"no, only English or Spanish",no,2025-07-24_07h42.11.941,empathy_intonation_perc_control,2024.2.4,Win32,59.95203837,5b50881a59119400018abaf3,68817205a84113384fffdfe3,68821aaec9d0243f69a77134,,,,,,,,,,,,,1,,,,,,,,,,,,,,,,,,,,,,,,,,,,,,,,,,,,,24,látigo,,,,,381.095,382.363,1,1,0.741,,0,91,91,23,1,REAL,FAKE,,,,,,,,,,,,,,,,,
,,,,,,,,,5b50881a59119400018abaf3,Spanish,13 or older,"no, only English or Spanish",no,2025-07-24_07h42.11.941,empathy_intonation_perc_control,2024.2.4,Win32,59.95203837,5b50881a59119400018abaf3,68817205a84113384fffdfe3,68821aaec9d0243f69a77134,,,,,,,,,,,,,,,,,,,,,,,,,,,,,,,,,,,,,,,,,,,,,,,,,,,,,,,,,,,,,,,,,,,,,382.364,387.057,,,,,,,,,,,,,,,
,,,,,,,,,5b50881a59119400018abaf3,Spanish,13 or older,"no, only English or Spanish",no,2025-07-24_07h42.11.941,empathy_intonation_perc_control,2024.2.4,Win32,59.95203837,5b50881a59119400018abaf3,68817205a84113384fffdfe3,68821aaec9d0243f69a77134,,,,,,,,,,,,,,,,,,,,,,,,,,,1,,,,,,,,,,,,,,,,,,,,,,,,,,,,,,,,,,,,,,,,,,,,387.07,391.568,strongly agree,0,0,0,0,1,I can easily tell if someone else wants to enter a conversation.,1,0,1,0,,
,,,,,,,,,5b50881a59119400018abaf3,Spanish,13 or older,"no, only English or Spanish",no,2025-07-24_07h42.11.941,empathy_intonation_perc_control,2024.2.4,Win32,59.95203837,5b50881a59119400018abaf3,68817205a84113384fffdfe3,68821aaec9d0243f69a77134,,,,,,,,,,,,,,,,,,,,,,,,,,,2,,,,,,,,,,,,,,,,,,,,,,,,,,,,,,,,,,,,,,,,,,,,391.571,394.09,strongly disagree,0,1,1,1,1,I prefer animals to humans.,0,1,0,0,,
,,,,,,,,,5b50881a59119400018abaf3,Spanish,13 or older,"no, only English or Spanish",no,2025-07-24_07h42.11.941,empathy_intonation_perc_control,2024.2.4,Win32,59.95203837,5b50881a59119400018abaf3,68817205a84113384fffdfe3,68821aaec9d0243f69a77134,,,,,,,,,,,,,,,,,,,,,,,,,,,3,,,,,,,,,,,,,,,,,,,,,,,,,,,,,,,,,,,,,,,,,,,,394.091,396.797,strongly agree,0,2,2,2,1,I try to keep up with the current trends and fashions.,0,1,0,0,,
,,,,,,,,,5b50881a59119400018abaf3,Spanish,13 or older,"no, only English or Spanish",no,2025-07-24_07h42.11.941,empathy_intonation_perc_control,2024.2.4,Win32,59.95203837,5b50881a59119400018abaf3,68817205a84113384fffdfe3,68821aaec9d0243f69a77134,,,,,,,,,,,,,,,,,,,,,,,,,,,4,,,,,,,,,,,,,,,,,,,,,,,,,,,,,,,,,,,,,,,,,,,,396.798,400.471,slightly disagree,0,3,3,3,1,"I find it difficult to explain to others things that I understand easily,   when they don't understand it first time.",1,0,0,1,,
,,,,,,,,,5b50881a59119400018abaf3,Spanish,13 or older,"no, only English or Spanish",no,2025-07-24_07h42.11.941,empathy_intonation_perc_control,2024.2.4,Win32,59.95203837,5b50881a59119400018abaf3,68817205a84113384fffdfe3,68821aaec9d0243f69a77134,,,,,,,,,,,,,,,,,,,,,,,,,,,5,,,,,,,,,,,,,,,,,,,,,,,,,,,,,,,,,,,,,,,,,,,,400.474,402.643,strongly agree,0,4,4,4,1,I dream most nights.,0,1,0,0,,
,,,,,,,,,5b50881a59119400018abaf3,Spanish,13 or older,"no, only English or Spanish",no,2025-07-24_07h42.11.941,empathy_intonation_perc_control,2024.2.4,Win32,59.95203837,5b50881a59119400018abaf3,68817205a84113384fffdfe3,68821aaec9d0243f69a77134,,,,,,,,,,,,,,,,,,,,,,,,,,,6,,,,,,,,,,,,,,,,,,,,,,,,,,,,,,,,,,,,,,,,,,,,402.644,404.432,strongly agree,0,5,5,5,1,I really enjoy caring for other people.,1,0,1,0,,
,,,,,,,,,5b50881a59119400018abaf3,Spanish,13 or older,"no, only English or Spanish",no,2025-07-24_07h42.11.941,empathy_intonation_perc_control,2024.2.4,Win32,59.95203837,5b50881a59119400018abaf3,68817205a84113384fffdfe3,68821aaec9d0243f69a77134,,,,,,,,,,,,,,,,,,,,,,,,,,,7,,,,,,,,,,,,,,,,,,,,,,,,,,,,,,,,,,,,,,,,,,,,404.434,406.067,strongly agree,0,6,6,6,1,I try to solve my own problems rather than discussing them with others.,0,1,0,0,,
,,,,,,,,,5b50881a59119400018abaf3,Spanish,13 or older,"no, only English or Spanish",no,2025-07-24_07h42.11.941,empathy_intonation_perc_control,2024.2.4,Win32,59.95203837,5b50881a59119400018abaf3,68817205a84113384fffdfe3,68821aaec9d0243f69a77134,,,,,,,,,,,,,,,,,,,,,,,,,,,8,,,,,,,,,,,,,,,,,,,,,,,,,,,,,,,,,,,,,,,,,,,,406.068,408.807,strongly disagree,0,7,7,7,1,I find it hard to know what to do in a social situation.,1,0,0,1,,
,,,,,,,,,5b50881a59119400018abaf3,Spanish,13 or older,"no, only English or Spanish",no,2025-07-24_07h42.11.941,empathy_intonation_perc_control,2024.2.4,Win32,59.95203837,5b50881a59119400018abaf3,68817205a84113384fffdfe3,68821aaec9d0243f69a77134,,,,,,,,,,,,,,,,,,,,,,,,,,,9,,,,,,,,,,,,,,,,,,,,,,,,,,,,,,,,,,,,,,,,,,,,408.807,411.347,slightly disagree,0,8,8,8,1,I am at my best first thing in the morning.,0,1,0,0,,
,,,,,,,,,5b50881a59119400018abaf3,Spanish,13 or older,"no, only English or Spanish",no,2025-07-24_07h42.11.941,empathy_intonation_perc_control,2024.2.4,Win32,59.95203837,5b50881a59119400018abaf3,68817205a84113384fffdfe3,68821aaec9d0243f69a77134,,,,,,,,,,,,,,,,,,,,,,,,,,,10,,,,,,,,,,,,,,,,,,,,,,,,,,,,,,,,,,,,,,,,,,,,411.348,413.468,strongly disagree,0,9,9,9,1,People often tell me that I went too far in driving my point home in a discussion.,1,0,0,1,,
,,,,,,,,,5b50881a59119400018abaf3,Spanish,13 or older,"no, only English or Spanish",no,2025-07-24_07h42.11.941,empathy_intonation_perc_control,2024.2.4,Win32,59.95203837,5b50881a59119400018abaf3,68817205a84113384fffdfe3,68821aaec9d0243f69a77134,,,,,,,,,,,,,,,,,,,,,,,,,,,11,,,,,,,,,,,,,,,,,,,,,,,,,,,,,,,,,,,,,,,,,,,,413.469,416.224,strongly disagree,0,10,10,10,1,It doesn't bother me too much if I am late meeting a friend.,1,0,0,1,,
,,,,,,,,,5b50881a59119400018abaf3,Spanish,13 or older,"no, only English or Spanish",no,2025-07-24_07h42.11.941,empathy_intonation_perc_control,2024.2.4,Win32,59.95203837,5b50881a59119400018abaf3,68817205a84113384fffdfe3,68821aaec9d0243f69a77134,,,,,,,,,,,,,,,,,,,,,,,,,,,12,,,,,,,,,,,,,,,,,,,,,,,,,,,,,,,,,,,,,,,,,,,,416.225,418.228,strongly disagree,0,11,11,11,1,"Friendships and relationships are just too difficult, so I tend not to 
  bother with them.",1,0,0,1,,
,,,,,,,,,5b50881a59119400018abaf3,Spanish,13 or older,"no, only English or Spanish",no,2025-07-24_07h42.11.941,empathy_intonation_perc_control,2024.2.4,Win32,59.95203837,5b50881a59119400018abaf3,68817205a84113384fffdfe3,68821aaec9d0243f69a77134,,,,,,,,,,,,,,,,,,,,,,,,,,,13,,,,,,,,,,,,,,,,,,,,,,,,,,,,,,,,,,,,,,,,,,,,418.23,420.819,strongly agree,0,12,12,12,1,"I would never break a law, no matter how minor.",0,1,0,0,,
,,,,,,,,,5b50881a59119400018abaf3,Spanish,13 or older,"no, only English or Spanish",no,2025-07-24_07h42.11.941,empathy_intonation_perc_control,2024.2.4,Win32,59.95203837,5b50881a59119400018abaf3,68817205a84113384fffdfe3,68821aaec9d0243f69a77134,,,,,,,,,,,,,,,,,,,,,,,,,,,14,,,,,,,,,,,,,,,,,,,,,,,,,,,,,,,,,,,,,,,,,,,,420.821,423.49,strongly disagree,0,13,13,13,1,I often find it difficult to judge if something is rude or polite.,1,0,0,1,,
,,,,,,,,,5b50881a59119400018abaf3,Spanish,13 or older,"no, only English or Spanish",no,2025-07-24_07h42.11.941,empathy_intonation_perc_control,2024.2.4,Win32,59.95203837,5b50881a59119400018abaf3,68817205a84113384fffdfe3,68821aaec9d0243f69a77134,,,,,,,,,,,,,,,,,,,,,,,,,,,15,,,,,,,,,,,,,,,,,,,,,,,,,,,,,,,,,,,,,,,,,,,,423.493,427.082,slightly disagree,0,14,14,14,1,"In a conversation, I tend to focus on my own thoughts rather than on what 
  my listener might be thinking.",1,0,0,1,,
,,,,,,,,,5b50881a59119400018abaf3,Spanish,13 or older,"no, only English or Spanish",no,2025-07-24_07h42.11.941,empathy_intonation_perc_control,2024.2.4,Win32,59.95203837,5b50881a59119400018abaf3,68817205a84113384fffdfe3,68821aaec9d0243f69a77134,,,,,,,,,,,,,,,,,,,,,,,,,,,16,,,,,,,,,,,,,,,,,,,,,,,,,,,,,,,,,,,,,,,,,,,,427.083,428.602,strongly disagree,0,15,15,15,1,I prefer practical jokes to verbal humor.,0,1,0,0,,
,,,,,,,,,5b50881a59119400018abaf3,Spanish,13 or older,"no, only English or Spanish",no,2025-07-24_07h42.11.941,empathy_intonation_perc_control,2024.2.4,Win32,59.95203837,5b50881a59119400018abaf3,68817205a84113384fffdfe3,68821aaec9d0243f69a77134,,,,,,,,,,,,,,,,,,,,,,,,,,,17,,,,,,,,,,,,,,,,,,,,,,,,,,,,,,,,,,,,,,,,,,,,428.604,431.792,slightly disagree,0,16,16,16,1,I live life for today rather than the future.,0,1,0,0,,
,,,,,,,,,5b50881a59119400018abaf3,Spanish,13 or older,"no, only English or Spanish",no,2025-07-24_07h42.11.941,empathy_intonation_perc_control,2024.2.4,Win32,59.95203837,5b50881a59119400018abaf3,68817205a84113384fffdfe3,68821aaec9d0243f69a77134,,,,,,,,,,,,,,,,,,,,,,,,,,,18,,,,,,,,,,,,,,,,,,,,,,,,,,,,,,,,,,,,,,,,,,,,431.795,433.897,strongly disagree,0,17,17,17,1,"When I was a child, I enjoyed cutting up worms to see what would happen.",1,0,0,1,,
,,,,,,,,,5b50881a59119400018abaf3,Spanish,13 or older,"no, only English or Spanish",no,2025-07-24_07h42.11.941,empathy_intonation_perc_control,2024.2.4,Win32,59.95203837,5b50881a59119400018abaf3,68817205a84113384fffdfe3,68821aaec9d0243f69a77134,,,,,,,,,,,,,,,,,,,,,,,,,,,19,,,,,,,,,,,,,,,,,,,,,,,,,,,,,,,,,,,,,,,,,,,,433.899,436.37,slightly agree,0,18,18,18,1,I can pick up quickly if someone says one thing but means another.,1,0,1,0,,
,,,,,,,,,5b50881a59119400018abaf3,Spanish,13 or older,"no, only English or Spanish",no,2025-07-24_07h42.11.941,empathy_intonation_perc_control,2024.2.4,Win32,59.95203837,5b50881a59119400018abaf3,68817205a84113384fffdfe3,68821aaec9d0243f69a77134,,,,,,,,,,,,,,,,,,,,,,,,,,,20,,,,,,,,,,,,,,,,,,,,,,,,,,,,,,,,,,,,,,,,,,,,436.371,439.36,strongly agree,0,19,19,19,1,I tend to have very strong opinions about morality.,0,1,0,0,,
,,,,,,,,,5b50881a59119400018abaf3,Spanish,13 or older,"no, only English or Spanish",no,2025-07-24_07h42.11.941,empathy_intonation_perc_control,2024.2.4,Win32,59.95203837,5b50881a59119400018abaf3,68817205a84113384fffdfe3,68821aaec9d0243f69a77134,,,,,,,,,,,,,,,,,,,,,,,,,,,21,,,,,,,,,,,,,,,,,,,,,,,,,,,,,,,,,,,,,,,,,,,,439.361,441.515,strongly disagree,0,20,20,20,1,It is hard for me to see why some things upset people so much.,1,0,0,1,,
,,,,,,,,,5b50881a59119400018abaf3,Spanish,13 or older,"no, only English or Spanish",no,2025-07-24_07h42.11.941,empathy_intonation_perc_control,2024.2.4,Win32,59.95203837,5b50881a59119400018abaf3,68817205a84113384fffdfe3,68821aaec9d0243f69a77134,,,,,,,,,,,,,,,,,,,,,,,,,,,22,,,,,,,,,,,,,,,,,,,,,,,,,,,,,,,,,,,,,,,,,,,,441.516,444.087,strongly agree,0,21,21,21,1,I find it easy to put myself in somebody else's shoes.,1,0,1,0,,
,,,,,,,,,5b50881a59119400018abaf3,Spanish,13 or older,"no, only English or Spanish",no,2025-07-24_07h42.11.941,empathy_intonation_perc_control,2024.2.4,Win32,59.95203837,5b50881a59119400018abaf3,68817205a84113384fffdfe3,68821aaec9d0243f69a77134,,,,,,,,,,,,,,,,,,,,,,,,,,,23,,,,,,,,,,,,,,,,,,,,,,,,,,,,,,,,,,,,,,,,,,,,444.088,446.76,slightly agree,0,22,22,22,1,I think that good manners are the most important thing a parent can teach their child.,0,1,0,0,,
,,,,,,,,,5b50881a59119400018abaf3,Spanish,13 or older,"no, only English or Spanish",no,2025-07-24_07h42.11.941,empathy_intonation_perc_control,2024.2.4,Win32,59.95203837,5b50881a59119400018abaf3,68817205a84113384fffdfe3,68821aaec9d0243f69a77134,,,,,,,,,,,,,,,,,,,,,,,,,,,24,,,,,,,,,,,,,,,,,,,,,,,,,,,,,,,,,,,,,,,,,,,,446.762,449.333,slightly agree,0,23,23,23,1,I like to do things on the spur of the moment.,0,1,0,0,,
,,,,,,,,,5b50881a59119400018abaf3,Spanish,13 or older,"no, only English or Spanish",no,2025-07-24_07h42.11.941,empathy_intonation_perc_control,2024.2.4,Win32,59.95203837,5b50881a59119400018abaf3,68817205a84113384fffdfe3,68821aaec9d0243f69a77134,,,,,,,,,,,,,,,,,,,,,,,,,,,25,,,,,,,,,,,,,,,,,,,,,,,,,,,,,,,,,,,,,,,,,,,,449.333,451.171,slightly agree,0,24,24,24,1,I am good at predicting how someone will feel.,1,0,1,0,,
,,,,,,,,,5b50881a59119400018abaf3,Spanish,13 or older,"no, only English or Spanish",no,2025-07-24_07h42.11.941,empathy_intonation_perc_control,2024.2.4,Win32,59.95203837,5b50881a59119400018abaf3,68817205a84113384fffdfe3,68821aaec9d0243f69a77134,,,,,,,,,,,,,,,,,,,,,,,,,,,26,,,,,,,,,,,,,,,,,,,,,,,,,,,,,,,,,,,,,,,,,,,,451.175,451.404,slightly agree,0,25,25,25,1,I am quick to spot when someone in a group is feeling awkward or uncomfortable.,1,0,1,0,,
