instructions_2afc.started,instructions_2afc.stopped,instructions_2afc_loop.thisRepN,instructions_2afc_loop.thisTrialN,instructions_2afc_loop.thisN,instructions_2afc_loop.thisIndex,instructions_2afc_loop.ran,instructions_text,continue_text,participant_id,"What variety of Spanish are you most familiar with? (e.g., Peruvian, Spanish, Mexican)",At what age did you begin learning Spanish?,Are you proficient in any languages other than English/Spanish?,"Are you familiar with Caribbean (e.g., Caribbean, Puerto Rican) or Galician Spanish?",date,expName,psychopyVersion,OS,frameRate,id,study_id,session,practice_2afc.started,practice_2afc.stopped,key_resp_2afc_practice.keys,key_resp_2afc_practice.corr,key_resp_2afc_practice.rt,key_resp_2afc_practice.duration,trials_2afc_practice_loop.thisRepN,trials_2afc_practice_loop.thisTrialN,trials_2afc_practice_loop.thisN,trials_2afc_practice_loop.thisIndex,trials_2afc_practice_loop.ran,path,correct_response,check_2afc.started,check_2afc.stopped,trial_2afc.started,trial_2afc.stopped,key_resp_2afc_trial.keys,key_resp_2afc_trial.corr,key_resp_2afc_trial.rt,key_resp_2afc_trial.duration,trials_2afc_loop.thisRepN,trials_2afc_loop.thisTrialN,trials_2afc_loop.thisN,trials_2afc_loop.thisIndex,trials_2afc_loop.ran,item_num,target,variety,instructions_lextale.started,instructions_lextale.stopped,instructions_lextale_loop.thisRepN,instructions_lextale_loop.thisTrialN,instructions_lextale_loop.thisN,instructions_lextale_loop.thisIndex,instructions_lextale_loop.ran,practice_lextale.started,practice_lextale.stopped,key_resp_lextale_practice.keys,key_resp_lextale_practice.corr,key_resp_lextale_practice.rt,key_resp_lextale_practice.duration,practice_feedback_lextale.started,practice_feedback_lextale.stopped,trials_lextale_practice_loop.thisRepN,trials_lextale_practice_loop.thisTrialN,trials_lextale_practice_loop.thisN,trials_lextale_practice_loop.thisIndex,trials_lextale_practice_loop.ran,stim,word,prac_button_real,prac_button_false,check_lextale.started,check_lextale.stopped,trial_lextale.started,trial_lextale.stopped,key_resp_lextale_trial.keys,key_resp_lextale_trial.corr,key_resp_lextale_trial.rt,key_resp_lextale_trial.duration,trials_lextale_loop.thisRepN,trials_lextale_loop.thisTrialN,trials_lextale_loop.thisN,trials_lextale_loop.thisIndex,trials_lextale_loop.ran,button_real,button_false,instructions_eq.started,instructions_eq.stopped,trial_eq.started,trial_eq.stopped,slider_eq_trial.response,trials_eq_loop.thisRepN,trials_eq_loop.thisTrialN,trials_eq_loop.thisN,trials_eq_loop.thisIndex,trials_eq_loop.ran,item,is_test_item,is_distractor,is_agree_score,is_disagree_score,end_exp.started,end_exp.stopped
0.0078,10.9013,0,0,0,0,1,"In the following task you are going to hear a series of utterances. 

  You will decide if the utterances sound like questions or not using your keyboard.", (press the spacebar to continue),5b78542ef642ed0001517ca0,Mexican,13 or older,"no, only English or Spanish",no,2025-07-24_09h22.23.788,empathy_intonation_perc_control,2024.2.4,MacIntel,114.9425287,5b78542ef642ed0001517ca0,68817205a84113384fffdfe3,6882335edb0b2fd1eb7c3ee5,,,,,,,,,,,,,,,,,,,,,,,,,,,,,,,,,,,,,,,,,,,,,,,,,,,,,,,,,,,,,,,,,,,,,,,,,,,,,,,,,,,,,
10.9022,20.602,0,1,1,1,1,"If you believe the utterance is a question, type '1' (for 'yes') and if you do not 
  believe it is a question type '0' (for 'no').

  Let's practice a bit...", (press the spacebar to continue),5b78542ef642ed0001517ca0,Mexican,13 or older,"no, only English or Spanish",no,2025-07-24_09h22.23.788,empathy_intonation_perc_control,2024.2.4,MacIntel,114.9425287,5b78542ef642ed0001517ca0,68817205a84113384fffdfe3,6882335edb0b2fd1eb7c3ee5,,,,,,,,,,,,,,,,,,,,,,,,,,,,,,,,,,,,,,,,,,,,,,,,,,,,,,,,,,,,,,,,,,,,,,,,,,,,,,,,,,,,,
,,,,,,,,,5b78542ef642ed0001517ca0,Mexican,13 or older,"no, only English or Spanish",no,2025-07-24_09h22.23.788,empathy_intonation_perc_control,2024.2.4,MacIntel,114.9425287,5b78542ef642ed0001517ca0,68817205a84113384fffdfe3,6882335edb0b2fd1eb7c3ee5,20.6083,25.4405,0,1,4.3103,,0,0,0,5,1,./stim/wavs/andalusian_statement_filler_Alberto-nunca-se-afeita.wav,0,,,,,,,,,,,,,,,,,,,,,,,,,,,,,,,,,,,,,,,,,,,,,,,,,,,,,,,,,,,,,,,,,,,,,,,,
,,,,,,,,,5b78542ef642ed0001517ca0,Mexican,13 or older,"no, only English or Spanish",no,2025-07-24_09h22.23.788,empathy_intonation_perc_control,2024.2.4,MacIntel,114.9425287,5b78542ef642ed0001517ca0,68817205a84113384fffdfe3,6882335edb0b2fd1eb7c3ee5,25.4471,28.2063,1,1,2.2493,,0,1,1,0,1,./stim/wavs/castilian_question_filler_Mi-esposo-conoce-al-chico.wav,1,,,,,,,,,,,,,,,,,,,,,,,,,,,,,,,,,,,,,,,,,,,,,,,,,,,,,,,,,,,,,,,,,,,,,,,,
,,,,,,,,,5b78542ef642ed0001517ca0,Mexican,13 or older,"no, only English or Spanish",no,2025-07-24_09h22.23.788,empathy_intonation_perc_control,2024.2.4,MacIntel,114.9425287,5b78542ef642ed0001517ca0,68817205a84113384fffdfe3,6882335edb0b2fd1eb7c3ee5,28.207,31.2662,1,1,2.5504,,0,2,2,3,1,./stim/wavs/mexican_question_filler_Felipe-no-tiene-contrasena.wav,1,,,,,,,,,,,,,,,,,,,,,,,,,,,,,,,,,,,,,,,,,,,,,,,,,,,,,,,,,,,,,,,,,,,,,,,,
,,,,,,,,,5b78542ef642ed0001517ca0,Mexican,13 or older,"no, only English or Spanish",no,2025-07-24_09h22.23.788,empathy_intonation_perc_control,2024.2.4,MacIntel,114.9425287,5b78542ef642ed0001517ca0,68817205a84113384fffdfe3,6882335edb0b2fd1eb7c3ee5,31.2667,33.9995,0,0,2.222,,0,3,3,2,1,./stim/wavs/chilean_question_filler_Mi-padre-cantaba-bien.wav,1,,,,,,,,,,,,,,,,,,,,,,,,,,,,,,,,,,,,,,,,,,,,,,,,,,,,,,,,,,,,,,,,,,,,,,,,
,,,,,,,,,5b78542ef642ed0001517ca0,Mexican,13 or older,"no, only English or Spanish",no,2025-07-24_09h22.23.788,empathy_intonation_perc_control,2024.2.4,MacIntel,114.9425287,5b78542ef642ed0001517ca0,68817205a84113384fffdfe3,6882335edb0b2fd1eb7c3ee5,34,36.4984,0,1,1.9843,,0,4,4,7,1,./stim/wavs/puertorican_statement_filler_La-nina-pinta-con-su-amiga.wav,0,,,,,,,,,,,,,,,,,,,,,,,,,,,,,,,,,,,,,,,,,,,,,,,,,,,,,,,,,,,,,,,,,,,,,,,,
,,,,,,,,,5b78542ef642ed0001517ca0,Mexican,13 or older,"no, only English or Spanish",no,2025-07-24_09h22.23.788,empathy_intonation_perc_control,2024.2.4,MacIntel,114.9425287,5b78542ef642ed0001517ca0,68817205a84113384fffdfe3,6882335edb0b2fd1eb7c3ee5,36.4989,38.7809,0,1,1.7675,,0,5,5,4,1,./stim/wavs/cuban_statement_filler_Cocinabas-por-la-noche.wav,0,,,,,,,,,,,,,,,,,,,,,,,,,,,,,,,,,,,,,,,,,,,,,,,,,,,,,,,,,,,,,,,,,,,,,,,,
,,,,,,,,,5b78542ef642ed0001517ca0,Mexican,13 or older,"no, only English or Spanish",no,2025-07-24_09h22.23.788,empathy_intonation_perc_control,2024.2.4,MacIntel,114.9425287,5b78542ef642ed0001517ca0,68817205a84113384fffdfe3,6882335edb0b2fd1eb7c3ee5,38.7814,41.9157,0,1,2.6294,,0,6,6,6,1,./stim/wavs/peruvian_statement_filler_El-nino-habla-con-su-madre.wav,0,,,,,,,,,,,,,,,,,,,,,,,,,,,,,,,,,,,,,,,,,,,,,,,,,,,,,,,,,,,,,,,,,,,,,,,,
,,,,,,,,,5b78542ef642ed0001517ca0,Mexican,13 or older,"no, only English or Spanish",no,2025-07-24_09h22.23.788,empathy_intonation_perc_control,2024.2.4,MacIntel,114.9425287,5b78542ef642ed0001517ca0,68817205a84113384fffdfe3,6882335edb0b2fd1eb7c3ee5,41.9162,44.3404,1,1,1.9096,,0,7,7,1,1,./stim/wavs/argentine_question_filler_Mi-vecino-habla-mucho.wav,1,,,,,,,,,,,,,,,,,,,,,,,,,,,,,,,,,,,,,,,,,,,,,,,,,,,,,,,,,,,,,,,,,,,,,,,,
,,,,,,,,,5b78542ef642ed0001517ca0,Mexican,13 or older,"no, only English or Spanish",no,2025-07-24_09h22.23.788,empathy_intonation_perc_control,2024.2.4,MacIntel,114.9425287,5b78542ef642ed0001517ca0,68817205a84113384fffdfe3,6882335edb0b2fd1eb7c3ee5,,,,,,,,,,,,,,44.3409,47.4413,,,,,,,,,,,,,,,,,,,,,,,,,,,,,,,,,,,,,,,,,,,,,,,,,,,,,,,,,,,,,,,,,,,,,,
,,,,,,,,,5b78542ef642ed0001517ca0,Mexican,13 or older,"no, only English or Spanish",no,2025-07-24_09h22.23.788,empathy_intonation_perc_control,2024.2.4,MacIntel,114.9425287,5b78542ef642ed0001517ca0,68817205a84113384fffdfe3,6882335edb0b2fd1eb7c3ee5,,,,,,,,,,,,./stim/wavs/puertorican_mismatch_interrogative-total-yn_La-nina-lava-el-plato.wav,1,,,47.4497,49.8731,0,0,1.9087,,0,0,0,42,1,43,1,puertorican,,,,,,,,,,,,,,,,,,,,,,,,,,,,,,,,,,,,,,,,,,,,,,,,,,,,,,,,
,,,,,,,,,5b78542ef642ed0001517ca0,Mexican,13 or older,"no, only English or Spanish",no,2025-07-24_09h22.23.788,empathy_intonation_perc_control,2024.2.4,MacIntel,114.9425287,5b78542ef642ed0001517ca0,68817205a84113384fffdfe3,6882335edb0b2fd1eb7c3ee5,,,,,,,,,,,,./stim/wavs/cuban_match_declarative-broad-focus_Manuela-vende-el-carro.wav,0,,,49.8735,52.2984,0,1,1.9178,,0,1,1,52,1,53,0,cuban,,,,,,,,,,,,,,,,,,,,,,,,,,,,,,,,,,,,,,,,,,,,,,,,,,,,,,,,
,,,,,,,,,5b78542ef642ed0001517ca0,Mexican,13 or older,"no, only English or Spanish",no,2025-07-24_09h22.23.788,empathy_intonation_perc_control,2024.2.4,MacIntel,114.9425287,5b78542ef642ed0001517ca0,68817205a84113384fffdfe3,6882335edb0b2fd1eb7c3ee5,,,,,,,,,,,,./stim/wavs/puertorican_match_interrogative-total-yn_Daniel-iba-a-Bolivia.wav,1,,,52.299,54.6975,0,0,1.8832,,0,2,2,19,1,20,1,puertorican,,,,,,,,,,,,,,,,,,,,,,,,,,,,,,,,,,,,,,,,,,,,,,,,,,,,,,,,
,,,,,,,,,5b78542ef642ed0001517ca0,Mexican,13 or older,"no, only English or Spanish",no,2025-07-24_09h22.23.788,empathy_intonation_perc_control,2024.2.4,MacIntel,114.9425287,5b78542ef642ed0001517ca0,68817205a84113384fffdfe3,6882335edb0b2fd1eb7c3ee5,,,,,,,,,,,,./stim/wavs/cuban_match_interrogative-total-yn_Manuela-vende-el-carro.wav,1,,,54.698,57.3484,0,0,2.1385,,0,3,3,8,1,9,1,cuban,,,,,,,,,,,,,,,,,,,,,,,,,,,,,,,,,,,,,,,,,,,,,,,,,,,,,,,,
,,,,,,,,,5b78542ef642ed0001517ca0,Mexican,13 or older,"no, only English or Spanish",no,2025-07-24_09h22.23.788,empathy_intonation_perc_control,2024.2.4,MacIntel,114.9425287,5b78542ef642ed0001517ca0,68817205a84113384fffdfe3,6882335edb0b2fd1eb7c3ee5,,,,,,,,,,,,./stim/wavs/cuban_mismatch_interrogative-total-yn_Mi-tia-odia-la-lluvia.wav,1,,,57.3488,59.932,0,0,2.0668,,0,4,4,33,1,34,1,cuban,,,,,,,,,,,,,,,,,,,,,,,,,,,,,,,,,,,,,,,,,,,,,,,,,,,,,,,,
,,,,,,,,,5b78542ef642ed0001517ca0,Mexican,13 or older,"no, only English or Spanish",no,2025-07-24_09h22.23.788,empathy_intonation_perc_control,2024.2.4,MacIntel,114.9425287,5b78542ef642ed0001517ca0,68817205a84113384fffdfe3,6882335edb0b2fd1eb7c3ee5,,,,,,,,,,,,./stim/wavs/puertorican_mismatch_declarative-broad-focus_El-bebe-comia-muy-bien.wav,0,,,59.9334,62.5485,0,1,2.0993,,0,5,5,83,1,84,0,puertorican,,,,,,,,,,,,,,,,,,,,,,,,,,,,,,,,,,,,,,,,,,,,,,,,,,,,,,,,
,,,,,,,,,5b78542ef642ed0001517ca0,Mexican,13 or older,"no, only English or Spanish",no,2025-07-24_09h22.23.788,empathy_intonation_perc_control,2024.2.4,MacIntel,114.9425287,5b78542ef642ed0001517ca0,68817205a84113384fffdfe3,6882335edb0b2fd1eb7c3ee5,,,,,,,,,,,,./stim/wavs/puertorican_mismatch_interrogative-total-yn_Mi-madre-come-la-fruta.wav,1,,,62.5493,64.6737,0,0,1.6089,,0,6,6,43,1,44,1,puertorican,,,,,,,,,,,,,,,,,,,,,,,,,,,,,,,,,,,,,,,,,,,,,,,,,,,,,,,,
,,,,,,,,,5b78542ef642ed0001517ca0,Mexican,13 or older,"no, only English or Spanish",no,2025-07-24_09h22.23.788,empathy_intonation_perc_control,2024.2.4,MacIntel,114.9425287,5b78542ef642ed0001517ca0,68817205a84113384fffdfe3,6882335edb0b2fd1eb7c3ee5,,,,,,,,,,,,./stim/wavs/puertorican_match_declarative-broad-focus_Maria-bebe-el-vino.wav,0,,,64.6741,67.7484,1,0,2.5579,,0,7,7,67,1,68,0,puertorican,,,,,,,,,,,,,,,,,,,,,,,,,,,,,,,,,,,,,,,,,,,,,,,,,,,,,,,,
,,,,,,,,,5b78542ef642ed0001517ca0,Mexican,13 or older,"no, only English or Spanish",no,2025-07-24_09h22.23.788,empathy_intonation_perc_control,2024.2.4,MacIntel,114.9425287,5b78542ef642ed0001517ca0,68817205a84113384fffdfe3,6882335edb0b2fd1eb7c3ee5,,,,,,,,,,,,./stim/wavs/mexican_match_declarative-broad-focus_Ana-lleva-el-abrigo.wav,0,,,67.7499,69.8151,0,1,1.5496,,0,8,8,56,1,57,0,mexican,,,,,,,,,,,,,,,,,,,,,,,,,,,,,,,,,,,,,,,,,,,,,,,,,,,,,,,,
,,,,,,,,,5b78542ef642ed0001517ca0,Mexican,13 or older,"no, only English or Spanish",no,2025-07-24_09h22.23.788,empathy_intonation_perc_control,2024.2.4,MacIntel,114.9425287,5b78542ef642ed0001517ca0,68817205a84113384fffdfe3,6882335edb0b2fd1eb7c3ee5,,,,,,,,,,,,./stim/wavs/puertorican_match_interrogative-total-yn_Ana-lleva-el-abrigo.wav,1,,,69.8156,72.2154,0,0,1.8826,,0,9,9,18,1,19,1,puertorican,,,,,,,,,,,,,,,,,,,,,,,,,,,,,,,,,,,,,,,,,,,,,,,,,,,,,,,,
,,,,,,,,,5b78542ef642ed0001517ca0,Mexican,13 or older,"no, only English or Spanish",no,2025-07-24_09h22.23.788,empathy_intonation_perc_control,2024.2.4,MacIntel,114.9425287,5b78542ef642ed0001517ca0,68817205a84113384fffdfe3,6882335edb0b2fd1eb7c3ee5,,,,,,,,,,,,./stim/wavs/mexican_match_declarative-broad-focus_Marta-abre-el-regalo.wav,0,,,72.2163,74.5151,0,1,1.7831,,0,10,10,61,1,62,0,mexican,,,,,,,,,,,,,,,,,,,,,,,,,,,,,,,,,,,,,,,,,,,,,,,,,,,,,,,,
,,,,,,,,,5b78542ef642ed0001517ca0,Mexican,13 or older,"no, only English or Spanish",no,2025-07-24_09h22.23.788,empathy_intonation_perc_control,2024.2.4,MacIntel,114.9425287,5b78542ef642ed0001517ca0,68817205a84113384fffdfe3,6882335edb0b2fd1eb7c3ee5,,,,,,,,,,,,./stim/wavs/mexican_mismatch_interrogative-total-yn_Mi-tia-odia-la-lluvia.wav,1,,,74.5157,76.9482,1,1,1.9178,,0,11,11,38,1,39,0,mexican,,,,,,,,,,,,,,,,,,,,,,,,,,,,,,,,,,,,,,,,,,,,,,,,,,,,,,,,
,,,,,,,,,5b78542ef642ed0001517ca0,Mexican,13 or older,"no, only English or Spanish",no,2025-07-24_09h22.23.788,empathy_intonation_perc_control,2024.2.4,MacIntel,114.9425287,5b78542ef642ed0001517ca0,68817205a84113384fffdfe3,6882335edb0b2fd1eb7c3ee5,,,,,,,,,,,,./stim/wavs/cuban_match_declarative-broad-focus_Maria-bebe-el-vino.wav,0,,,76.9486,79.0648,0,1,1.601,,0,12,12,53,1,54,0,cuban,,,,,,,,,,,,,,,,,,,,,,,,,,,,,,,,,,,,,,,,,,,,,,,,,,,,,,,,
,,,,,,,,,5b78542ef642ed0001517ca0,Mexican,13 or older,"no, only English or Spanish",no,2025-07-24_09h22.23.788,empathy_intonation_perc_control,2024.2.4,MacIntel,114.9425287,5b78542ef642ed0001517ca0,68817205a84113384fffdfe3,6882335edb0b2fd1eb7c3ee5,,,,,,,,,,,,./stim/wavs/mexican_match_interrogative-total-yn_Emilio-ama-la-marcha.wav,1,,,79.0651,81.3065,1,1,1.7256,,0,13,13,15,1,16,0,mexican,,,,,,,,,,,,,,,,,,,,,,,,,,,,,,,,,,,,,,,,,,,,,,,,,,,,,,,,
,,,,,,,,,5b78542ef642ed0001517ca0,Mexican,13 or older,"no, only English or Spanish",no,2025-07-24_09h22.23.788,empathy_intonation_perc_control,2024.2.4,MacIntel,114.9425287,5b78542ef642ed0001517ca0,68817205a84113384fffdfe3,6882335edb0b2fd1eb7c3ee5,,,,,,,,,,,,./stim/wavs/cuban_match_interrogative-total-yn_Mariano-habla-del-tiempo.wav,1,,,81.3069,83.8733,0,0,2.05,,0,14,14,10,1,11,1,cuban,,,,,,,,,,,,,,,,,,,,,,,,,,,,,,,,,,,,,,,,,,,,,,,,,,,,,,,,
,,,,,,,,,5b78542ef642ed0001517ca0,Mexican,13 or older,"no, only English or Spanish",no,2025-07-24_09h22.23.788,empathy_intonation_perc_control,2024.2.4,MacIntel,114.9425287,5b78542ef642ed0001517ca0,68817205a84113384fffdfe3,6882335edb0b2fd1eb7c3ee5,,,,,,,,,,,,./stim/wavs/mexican_match_interrogative-total-yn_Mariano-habla-del-tiempo.wav,1,,,83.874,86.331,1,1,1.942,,0,15,15,16,1,17,0,mexican,,,,,,,,,,,,,,,,,,,,,,,,,,,,,,,,,,,,,,,,,,,,,,,,,,,,,,,,
,,,,,,,,,5b78542ef642ed0001517ca0,Mexican,13 or older,"no, only English or Spanish",no,2025-07-24_09h22.23.788,empathy_intonation_perc_control,2024.2.4,MacIntel,114.9425287,5b78542ef642ed0001517ca0,68817205a84113384fffdfe3,6882335edb0b2fd1eb7c3ee5,,,,,,,,,,,,./stim/wavs/puertorican_mismatch_declarative-broad-focus_El-hombre-mira-la-luna.wav,0,,,86.3314,88.7316,0,1,1.8916,,0,16,16,84,1,85,0,puertorican,,,,,,,,,,,,,,,,,,,,,,,,,,,,,,,,,,,,,,,,,,,,,,,,,,,,,,,,
,,,,,,,,,5b78542ef642ed0001517ca0,Mexican,13 or older,"no, only English or Spanish",no,2025-07-24_09h22.23.788,empathy_intonation_perc_control,2024.2.4,MacIntel,114.9425287,5b78542ef642ed0001517ca0,68817205a84113384fffdfe3,6882335edb0b2fd1eb7c3ee5,,,,,,,,,,,,./stim/wavs/mexican_mismatch_interrogative-total-yn_Mi-novio-viene-del-lago.wav,1,,,88.7321,90.9741,1,1,1.7302,,0,17,17,37,1,38,0,mexican,,,,,,,,,,,,,,,,,,,,,,,,,,,,,,,,,,,,,,,,,,,,,,,,,,,,,,,,
,,,,,,,,,5b78542ef642ed0001517ca0,Mexican,13 or older,"no, only English or Spanish",no,2025-07-24_09h22.23.788,empathy_intonation_perc_control,2024.2.4,MacIntel,114.9425287,5b78542ef642ed0001517ca0,68817205a84113384fffdfe3,6882335edb0b2fd1eb7c3ee5,,,,,,,,,,,,./stim/wavs/mexican_mismatch_interrogative-total-yn_El-hombre-mira-la-luna.wav,1,,,90.9746,93.0734,1,1,1.5839,,0,18,18,34,1,35,0,mexican,,,,,,,,,,,,,,,,,,,,,,,,,,,,,,,,,,,,,,,,,,,,,,,,,,,,,,,,
,,,,,,,,,5b78542ef642ed0001517ca0,Mexican,13 or older,"no, only English or Spanish",no,2025-07-24_09h22.23.788,empathy_intonation_perc_control,2024.2.4,MacIntel,114.9425287,5b78542ef642ed0001517ca0,68817205a84113384fffdfe3,6882335edb0b2fd1eb7c3ee5,,,,,,,,,,,,./stim/wavs/mexican_match_interrogative-total-yn_Ana-lleva-el-abrigo.wav,1,,,93.074,95.0066,1,1,1.4163,,0,19,19,12,1,13,0,mexican,,,,,,,,,,,,,,,,,,,,,,,,,,,,,,,,,,,,,,,,,,,,,,,,,,,,,,,,
,,,,,,,,,5b78542ef642ed0001517ca0,Mexican,13 or older,"no, only English or Spanish",no,2025-07-24_09h22.23.788,empathy_intonation_perc_control,2024.2.4,MacIntel,114.9425287,5b78542ef642ed0001517ca0,68817205a84113384fffdfe3,6882335edb0b2fd1eb7c3ee5,,,,,,,,,,,,./stim/wavs/puertorican_mismatch_declarative-broad-focus_La-maestra-vive-en-Paris.wav,0,,,95.0072,97.3814,0,1,1.858,,0,20,20,86,1,87,0,puertorican,,,,,,,,,,,,,,,,,,,,,,,,,,,,,,,,,,,,,,,,,,,,,,,,,,,,,,,,
,,,,,,,,,5b78542ef642ed0001517ca0,Mexican,13 or older,"no, only English or Spanish",no,2025-07-24_09h22.23.788,empathy_intonation_perc_control,2024.2.4,MacIntel,114.9425287,5b78542ef642ed0001517ca0,68817205a84113384fffdfe3,6882335edb0b2fd1eb7c3ee5,,,,,,,,,,,,./stim/wavs/castilian_match_interrogative-total-yn_David-leia-el-libro.wav,1,,,97.382,99.7241,1,1,1.8261,,0,21,21,0,1,1,0,castilian,,,,,,,,,,,,,,,,,,,,,,,,,,,,,,,,,,,,,,,,,,,,,,,,,,,,,,,,
,,,,,,,,,5b78542ef642ed0001517ca0,Mexican,13 or older,"no, only English or Spanish",no,2025-07-24_09h22.23.788,empathy_intonation_perc_control,2024.2.4,MacIntel,114.9425287,5b78542ef642ed0001517ca0,68817205a84113384fffdfe3,6882335edb0b2fd1eb7c3ee5,,,,,,,,,,,,./stim/wavs/castilian_match_declarative-broad-focus_Maria-bebe-el-vino.wav,0,,,99.7304,102.34,0,1,2.0991,,0,22,22,47,1,48,0,castilian,,,,,,,,,,,,,,,,,,,,,,,,,,,,,,,,,,,,,,,,,,,,,,,,,,,,,,,,
,,,,,,,,,5b78542ef642ed0001517ca0,Mexican,13 or older,"no, only English or Spanish",no,2025-07-24_09h22.23.788,empathy_intonation_perc_control,2024.2.4,MacIntel,114.9425287,5b78542ef642ed0001517ca0,68817205a84113384fffdfe3,6882335edb0b2fd1eb7c3ee5,,,,,,,,,,,,./stim/wavs/mexican_match_declarative-broad-focus_Mariano-habla-del-tiempo.wav,0,,,102.3405,104.7312,0,1,1.8681,,0,23,23,60,1,61,0,mexican,,,,,,,,,,,,,,,,,,,,,,,,,,,,,,,,,,,,,,,,,,,,,,,,,,,,,,,,
,,,,,,,,,5b78542ef642ed0001517ca0,Mexican,13 or older,"no, only English or Spanish",no,2025-07-24_09h22.23.788,empathy_intonation_perc_control,2024.2.4,MacIntel,114.9425287,5b78542ef642ed0001517ca0,68817205a84113384fffdfe3,6882335edb0b2fd1eb7c3ee5,,,,,,,,,,,,./stim/wavs/puertorican_match_declarative-broad-focus_Ana-lleva-el-abrigo.wav,0,,,104.7316,107.0307,0,1,1.7844,,0,24,24,62,1,63,0,puertorican,,,,,,,,,,,,,,,,,,,,,,,,,,,,,,,,,,,,,,,,,,,,,,,,,,,,,,,,
,,,,,,,,,5b78542ef642ed0001517ca0,Mexican,13 or older,"no, only English or Spanish",no,2025-07-24_09h22.23.788,empathy_intonation_perc_control,2024.2.4,MacIntel,114.9425287,5b78542ef642ed0001517ca0,68817205a84113384fffdfe3,6882335edb0b2fd1eb7c3ee5,,,,,,,,,,,,./stim/wavs/cuban_mismatch_interrogative-total-yn_Mi-madre-come-la-fruta.wav,1,,,107.0312,109.7065,0,0,2.1705,,0,25,25,31,1,32,1,cuban,,,,,,,,,,,,,,,,,,,,,,,,,,,,,,,,,,,,,,,,,,,,,,,,,,,,,,,,
,,,,,,,,,5b78542ef642ed0001517ca0,Mexican,13 or older,"no, only English or Spanish",no,2025-07-24_09h22.23.788,empathy_intonation_perc_control,2024.2.4,MacIntel,114.9425287,5b78542ef642ed0001517ca0,68817205a84113384fffdfe3,6882335edb0b2fd1eb7c3ee5,,,,,,,,,,,,./stim/wavs/cuban_mismatch_declarative-broad-focus_El-hombre-mira-la-luna.wav,0,,,109.707,111.656,0,1,1.4336,,0,26,26,74,1,75,0,cuban,,,,,,,,,,,,,,,,,,,,,,,,,,,,,,,,,,,,,,,,,,,,,,,,,,,,,,,,
,,,,,,,,,5b78542ef642ed0001517ca0,Mexican,13 or older,"no, only English or Spanish",no,2025-07-24_09h22.23.788,empathy_intonation_perc_control,2024.2.4,MacIntel,114.9425287,5b78542ef642ed0001517ca0,68817205a84113384fffdfe3,6882335edb0b2fd1eb7c3ee5,,,,,,,,,,,,./stim/wavs/puertorican_mismatch_interrogative-total-yn_El-hombre-mira-la-luna.wav,1,,,111.6564,113.7814,1,1,1.6201,,0,27,27,39,1,40,1,puertorican,,,,,,,,,,,,,,,,,,,,,,,,,,,,,,,,,,,,,,,,,,,,,,,,,,,,,,,,
,,,,,,,,,5b78542ef642ed0001517ca0,Mexican,13 or older,"no, only English or Spanish",no,2025-07-24_09h22.23.788,empathy_intonation_perc_control,2024.2.4,MacIntel,114.9425287,5b78542ef642ed0001517ca0,68817205a84113384fffdfe3,6882335edb0b2fd1eb7c3ee5,,,,,,,,,,,,./stim/wavs/mexican_mismatch_declarative-broad-focus_Mi-novio-viene-del-lago.wav,0,,,113.7816,116.2307,0,1,1.9366,,0,28,28,81,1,82,0,mexican,,,,,,,,,,,,,,,,,,,,,,,,,,,,,,,,,,,,,,,,,,,,,,,,,,,,,,,,
,,,,,,,,,5b78542ef642ed0001517ca0,Mexican,13 or older,"no, only English or Spanish",no,2025-07-24_09h22.23.788,empathy_intonation_perc_control,2024.2.4,MacIntel,114.9425287,5b78542ef642ed0001517ca0,68817205a84113384fffdfe3,6882335edb0b2fd1eb7c3ee5,,,,,,,,,,,,./stim/wavs/cuban_mismatch_declarative-broad-focus_Mi-novio-viene-del-lago.wav,0,,,116.2312,119.3314,0,1,2.5931,,0,29,29,76,1,77,0,cuban,,,,,,,,,,,,,,,,,,,,,,,,,,,,,,,,,,,,,,,,,,,,,,,,,,,,,,,,
,,,,,,,,,5b78542ef642ed0001517ca0,Mexican,13 or older,"no, only English or Spanish",no,2025-07-24_09h22.23.788,empathy_intonation_perc_control,2024.2.4,MacIntel,114.9425287,5b78542ef642ed0001517ca0,68817205a84113384fffdfe3,6882335edb0b2fd1eb7c3ee5,,,,,,,,,,,,./stim/wavs/castilian_match_declarative-broad-focus_David-leia-el-libro.wav,0,,,119.3319,121.5979,0,1,1.7511,,0,30,30,44,1,45,0,castilian,,,,,,,,,,,,,,,,,,,,,,,,,,,,,,,,,,,,,,,,,,,,,,,,,,,,,,,,
,,,,,,,,,5b78542ef642ed0001517ca0,Mexican,13 or older,"no, only English or Spanish",no,2025-07-24_09h22.23.788,empathy_intonation_perc_control,2024.2.4,MacIntel,114.9425287,5b78542ef642ed0001517ca0,68817205a84113384fffdfe3,6882335edb0b2fd1eb7c3ee5,,,,,,,,,,,,./stim/wavs/castilian_match_interrogative-total-yn_Marta-abre-el-regalo.wav,1,,,121.5988,123.7649,1,1,1.6514,,0,31,31,5,1,6,0,castilian,,,,,,,,,,,,,,,,,,,,,,,,,,,,,,,,,,,,,,,,,,,,,,,,,,,,,,,,
,,,,,,,,,5b78542ef642ed0001517ca0,Mexican,13 or older,"no, only English or Spanish",no,2025-07-24_09h22.23.788,empathy_intonation_perc_control,2024.2.4,MacIntel,114.9425287,5b78542ef642ed0001517ca0,68817205a84113384fffdfe3,6882335edb0b2fd1eb7c3ee5,,,,,,,,,,,,./stim/wavs/cuban_match_interrogative-total-yn_Marta-abre-el-regalo.wav,1,,,123.7657,126.5901,1,1,2.3073,,0,32,32,11,1,12,1,cuban,,,,,,,,,,,,,,,,,,,,,,,,,,,,,,,,,,,,,,,,,,,,,,,,,,,,,,,,
,,,,,,,,,5b78542ef642ed0001517ca0,Mexican,13 or older,"no, only English or Spanish",no,2025-07-24_09h22.23.788,empathy_intonation_perc_control,2024.2.4,MacIntel,114.9425287,5b78542ef642ed0001517ca0,68817205a84113384fffdfe3,6882335edb0b2fd1eb7c3ee5,,,,,,,,,,,,./stim/wavs/cuban_match_declarative-broad-focus_Ana-lleva-el-abrigo.wav,0,,,126.5907,128.8223,0,1,1.7166,,0,33,33,50,1,51,0,cuban,,,,,,,,,,,,,,,,,,,,,,,,,,,,,,,,,,,,,,,,,,,,,,,,,,,,,,,,
,,,,,,,,,5b78542ef642ed0001517ca0,Mexican,13 or older,"no, only English or Spanish",no,2025-07-24_09h22.23.788,empathy_intonation_perc_control,2024.2.4,MacIntel,114.9425287,5b78542ef642ed0001517ca0,68817205a84113384fffdfe3,6882335edb0b2fd1eb7c3ee5,,,,,,,,,,,,./stim/wavs/castilian_match_declarative-broad-focus_Manuela-vende-el-carro.wav,0,,,128.8227,131.3398,0,1,2.0002,,0,34,34,46,1,47,0,castilian,,,,,,,,,,,,,,,,,,,,,,,,,,,,,,,,,,,,,,,,,,,,,,,,,,,,,,,,
,,,,,,,,,5b78542ef642ed0001517ca0,Mexican,13 or older,"no, only English or Spanish",no,2025-07-24_09h22.23.788,empathy_intonation_perc_control,2024.2.4,MacIntel,114.9425287,5b78542ef642ed0001517ca0,68817205a84113384fffdfe3,6882335edb0b2fd1eb7c3ee5,,,,,,,,,,,,./stim/wavs/castilian_mismatch_declarative-broad-focus_Mi-tia-odia-la-lluvia.wav,0,,,131.3402,133.4979,0,1,1.6405,,0,35,35,72,1,73,0,castilian,,,,,,,,,,,,,,,,,,,,,,,,,,,,,,,,,,,,,,,,,,,,,,,,,,,,,,,,
,,,,,,,,,5b78542ef642ed0001517ca0,Mexican,13 or older,"no, only English or Spanish",no,2025-07-24_09h22.23.788,empathy_intonation_perc_control,2024.2.4,MacIntel,114.9425287,5b78542ef642ed0001517ca0,68817205a84113384fffdfe3,6882335edb0b2fd1eb7c3ee5,,,,,,,,,,,,./stim/wavs/castilian_mismatch_interrogative-total-yn_Mi-tia-odia-la-lluvia.wav,1,,,133.4981,135.7395,1,1,1.7291,,0,36,36,28,1,29,0,castilian,,,,,,,,,,,,,,,,,,,,,,,,,,,,,,,,,,,,,,,,,,,,,,,,,,,,,,,,
,,,,,,,,,5b78542ef642ed0001517ca0,Mexican,13 or older,"no, only English or Spanish",no,2025-07-24_09h22.23.788,empathy_intonation_perc_control,2024.2.4,MacIntel,114.9425287,5b78542ef642ed0001517ca0,68817205a84113384fffdfe3,6882335edb0b2fd1eb7c3ee5,,,,,,,,,,,,./stim/wavs/puertorican_match_declarative-broad-focus_Daniel-iba-a-Bolivia.wav,0,,,135.7397,138.1729,0,1,1.9077,,0,37,37,63,1,64,0,puertorican,,,,,,,,,,,,,,,,,,,,,,,,,,,,,,,,,,,,,,,,,,,,,,,,,,,,,,,,
,,,,,,,,,5b78542ef642ed0001517ca0,Mexican,13 or older,"no, only English or Spanish",no,2025-07-24_09h22.23.788,empathy_intonation_perc_control,2024.2.4,MacIntel,114.9425287,5b78542ef642ed0001517ca0,68817205a84113384fffdfe3,6882335edb0b2fd1eb7c3ee5,,,,,,,,,,,,./stim/wavs/castilian_match_declarative-broad-focus_Emilio-ama-la-marcha.wav,0,,,138.1732,140.4898,0,1,1.8069,,0,38,38,45,1,46,0,castilian,,,,,,,,,,,,,,,,,,,,,,,,,,,,,,,,,,,,,,,,,,,,,,,,,,,,,,,,
,,,,,,,,,5b78542ef642ed0001517ca0,Mexican,13 or older,"no, only English or Spanish",no,2025-07-24_09h22.23.788,empathy_intonation_perc_control,2024.2.4,MacIntel,114.9425287,5b78542ef642ed0001517ca0,68817205a84113384fffdfe3,6882335edb0b2fd1eb7c3ee5,,,,,,,,,,,,./stim/wavs/mexican_match_declarative-broad-focus_David-leia-el-libro.wav,0,,,140.4902,142.5146,0,1,1.509,,0,39,39,58,1,59,0,mexican,,,,,,,,,,,,,,,,,,,,,,,,,,,,,,,,,,,,,,,,,,,,,,,,,,,,,,,,
,,,,,,,,,5b78542ef642ed0001517ca0,Mexican,13 or older,"no, only English or Spanish",no,2025-07-24_09h22.23.788,empathy_intonation_perc_control,2024.2.4,MacIntel,114.9425287,5b78542ef642ed0001517ca0,68817205a84113384fffdfe3,6882335edb0b2fd1eb7c3ee5,,,,,,,,,,,,./stim/wavs/castilian_match_declarative-broad-focus_Marta-abre-el-regalo.wav,0,,,142.5151,144.6553,0,1,1.6263,,0,40,40,49,1,50,0,castilian,,,,,,,,,,,,,,,,,,,,,,,,,,,,,,,,,,,,,,,,,,,,,,,,,,,,,,,,
,,,,,,,,,5b78542ef642ed0001517ca0,Mexican,13 or older,"no, only English or Spanish",no,2025-07-24_09h22.23.788,empathy_intonation_perc_control,2024.2.4,MacIntel,114.9425287,5b78542ef642ed0001517ca0,68817205a84113384fffdfe3,6882335edb0b2fd1eb7c3ee5,,,,,,,,,,,,./stim/wavs/puertorican_match_declarative-broad-focus_Manuela-vende-el-carro.wav,0,,,144.6558,146.8146,0,1,1.6505,,0,41,41,66,1,67,0,puertorican,,,,,,,,,,,,,,,,,,,,,,,,,,,,,,,,,,,,,,,,,,,,,,,,,,,,,,,,
,,,,,,,,,5b78542ef642ed0001517ca0,Mexican,13 or older,"no, only English or Spanish",no,2025-07-24_09h22.23.788,empathy_intonation_perc_control,2024.2.4,MacIntel,114.9425287,5b78542ef642ed0001517ca0,68817205a84113384fffdfe3,6882335edb0b2fd1eb7c3ee5,,,,,,,,,,,,./stim/wavs/castilian_match_interrogative-total-yn_Manuela-vende-el-carro.wav,1,,,146.8152,149.2983,1,1,1.9669,,0,42,42,2,1,3,0,castilian,,,,,,,,,,,,,,,,,,,,,,,,,,,,,,,,,,,,,,,,,,,,,,,,,,,,,,,,
,,,,,,,,,5b78542ef642ed0001517ca0,Mexican,13 or older,"no, only English or Spanish",no,2025-07-24_09h22.23.788,empathy_intonation_perc_control,2024.2.4,MacIntel,114.9425287,5b78542ef642ed0001517ca0,68817205a84113384fffdfe3,6882335edb0b2fd1eb7c3ee5,,,,,,,,,,,,./stim/wavs/puertorican_match_interrogative-total-yn_Emilio-ama-la-marcha.wav,1,,,149.2991,151.6312,0,0,1.8181,,0,43,43,21,1,22,1,puertorican,,,,,,,,,,,,,,,,,,,,,,,,,,,,,,,,,,,,,,,,,,,,,,,,,,,,,,,,
,,,,,,,,,5b78542ef642ed0001517ca0,Mexican,13 or older,"no, only English or Spanish",no,2025-07-24_09h22.23.788,empathy_intonation_perc_control,2024.2.4,MacIntel,114.9425287,5b78542ef642ed0001517ca0,68817205a84113384fffdfe3,6882335edb0b2fd1eb7c3ee5,,,,,,,,,,,,./stim/wavs/cuban_match_interrogative-total-yn_Daniel-iba-a-Bolivia.wav,1,,,151.6317,153.7061,0,0,1.5576,,0,44,44,7,1,8,1,cuban,,,,,,,,,,,,,,,,,,,,,,,,,,,,,,,,,,,,,,,,,,,,,,,,,,,,,,,,
,,,,,,,,,5b78542ef642ed0001517ca0,Mexican,13 or older,"no, only English or Spanish",no,2025-07-24_09h22.23.788,empathy_intonation_perc_control,2024.2.4,MacIntel,114.9425287,5b78542ef642ed0001517ca0,68817205a84113384fffdfe3,6882335edb0b2fd1eb7c3ee5,,,,,,,,,,,,./stim/wavs/castilian_match_interrogative-total-yn_Maria-bebe-el-vino.wav,1,,,153.7066,156.2312,1,1,2.0097,,0,45,45,3,1,4,0,castilian,,,,,,,,,,,,,,,,,,,,,,,,,,,,,,,,,,,,,,,,,,,,,,,,,,,,,,,,
,,,,,,,,,5b78542ef642ed0001517ca0,Mexican,13 or older,"no, only English or Spanish",no,2025-07-24_09h22.23.788,empathy_intonation_perc_control,2024.2.4,MacIntel,114.9425287,5b78542ef642ed0001517ca0,68817205a84113384fffdfe3,6882335edb0b2fd1eb7c3ee5,,,,,,,,,,,,./stim/wavs/cuban_mismatch_declarative-broad-focus_El-bebe-comia-muy-bien.wav,0,,,156.2315,158.4312,0,1,1.6854,,0,46,46,73,1,74,0,cuban,,,,,,,,,,,,,,,,,,,,,,,,,,,,,,,,,,,,,,,,,,,,,,,,,,,,,,,,
,,,,,,,,,5b78542ef642ed0001517ca0,Mexican,13 or older,"no, only English or Spanish",no,2025-07-24_09h22.23.788,empathy_intonation_perc_control,2024.2.4,MacIntel,114.9425287,5b78542ef642ed0001517ca0,68817205a84113384fffdfe3,6882335edb0b2fd1eb7c3ee5,,,,,,,,,,,,./stim/wavs/cuban_match_declarative-broad-focus_Marta-abre-el-regalo.wav,0,,,158.4317,160.8058,0,1,1.8605,,0,47,47,55,1,56,0,cuban,,,,,,,,,,,,,,,,,,,,,,,,,,,,,,,,,,,,,,,,,,,,,,,,,,,,,,,,
,,,,,,,,,5b78542ef642ed0001517ca0,Mexican,13 or older,"no, only English or Spanish",no,2025-07-24_09h22.23.788,empathy_intonation_perc_control,2024.2.4,MacIntel,114.9425287,5b78542ef642ed0001517ca0,68817205a84113384fffdfe3,6882335edb0b2fd1eb7c3ee5,,,,,,,,,,,,./stim/wavs/puertorican_match_declarative-broad-focus_David-leia-el-libro.wav,0,,,160.8067,162.7311,0,1,1.409,,0,48,48,64,1,65,0,puertorican,,,,,,,,,,,,,,,,,,,,,,,,,,,,,,,,,,,,,,,,,,,,,,,,,,,,,,,,
,,,,,,,,,5b78542ef642ed0001517ca0,Mexican,13 or older,"no, only English or Spanish",no,2025-07-24_09h22.23.788,empathy_intonation_perc_control,2024.2.4,MacIntel,114.9425287,5b78542ef642ed0001517ca0,68817205a84113384fffdfe3,6882335edb0b2fd1eb7c3ee5,,,,,,,,,,,,./stim/wavs/mexican_match_declarative-broad-focus_Daniel-iba-a-Bolivia.wav,0,,,162.7315,164.7311,0,1,1.4918,,0,49,49,57,1,58,0,mexican,,,,,,,,,,,,,,,,,,,,,,,,,,,,,,,,,,,,,,,,,,,,,,,,,,,,,,,,
,,,,,,,,,5b78542ef642ed0001517ca0,Mexican,13 or older,"no, only English or Spanish",no,2025-07-24_09h22.23.788,empathy_intonation_perc_control,2024.2.4,MacIntel,114.9425287,5b78542ef642ed0001517ca0,68817205a84113384fffdfe3,6882335edb0b2fd1eb7c3ee5,,,,,,,,,,,,./stim/wavs/castilian_mismatch_declarative-broad-focus_La-nina-lava-el-plato.wav,0,,,164.7314,167.5313,0,1,2.2906,,0,50,50,70,1,71,0,castilian,,,,,,,,,,,,,,,,,,,,,,,,,,,,,,,,,,,,,,,,,,,,,,,,,,,,,,,,
,,,,,,,,,5b78542ef642ed0001517ca0,Mexican,13 or older,"no, only English or Spanish",no,2025-07-24_09h22.23.788,empathy_intonation_perc_control,2024.2.4,MacIntel,114.9425287,5b78542ef642ed0001517ca0,68817205a84113384fffdfe3,6882335edb0b2fd1eb7c3ee5,,,,,,,,,,,,./stim/wavs/mexican_match_interrogative-total-yn_Marta-abre-el-regalo.wav,1,,,167.5316,170.4399,1,1,2.3947,,0,51,51,17,1,18,0,mexican,,,,,,,,,,,,,,,,,,,,,,,,,,,,,,,,,,,,,,,,,,,,,,,,,,,,,,,,
,,,,,,,,,5b78542ef642ed0001517ca0,Mexican,13 or older,"no, only English or Spanish",no,2025-07-24_09h22.23.788,empathy_intonation_perc_control,2024.2.4,MacIntel,114.9425287,5b78542ef642ed0001517ca0,68817205a84113384fffdfe3,6882335edb0b2fd1eb7c3ee5,,,,,,,,,,,,./stim/wavs/puertorican_match_declarative-broad-focus_Emilio-ama-la-marcha.wav,0,,,170.4407,172.923,0,1,1.9674,,0,52,52,65,1,66,0,puertorican,,,,,,,,,,,,,,,,,,,,,,,,,,,,,,,,,,,,,,,,,,,,,,,,,,,,,,,,
,,,,,,,,,5b78542ef642ed0001517ca0,Mexican,13 or older,"no, only English or Spanish",no,2025-07-24_09h22.23.788,empathy_intonation_perc_control,2024.2.4,MacIntel,114.9425287,5b78542ef642ed0001517ca0,68817205a84113384fffdfe3,6882335edb0b2fd1eb7c3ee5,,,,,,,,,,,,./stim/wavs/mexican_match_interrogative-total-yn_David-leia-el-libro.wav,1,,,172.9238,174.956,1,1,1.5149,,0,53,53,14,1,15,0,mexican,,,,,,,,,,,,,,,,,,,,,,,,,,,,,,,,,,,,,,,,,,,,,,,,,,,,,,,,
,,,,,,,,,5b78542ef642ed0001517ca0,Mexican,13 or older,"no, only English or Spanish",no,2025-07-24_09h22.23.788,empathy_intonation_perc_control,2024.2.4,MacIntel,114.9425287,5b78542ef642ed0001517ca0,68817205a84113384fffdfe3,6882335edb0b2fd1eb7c3ee5,,,,,,,,,,,,./stim/wavs/castilian_mismatch_interrogative-total-yn_La-maestra-vive-en-Paris.wav,1,,,174.9563,177.5398,1,1,2.0678,,0,54,54,24,1,25,0,castilian,,,,,,,,,,,,,,,,,,,,,,,,,,,,,,,,,,,,,,,,,,,,,,,,,,,,,,,,
,,,,,,,,,5b78542ef642ed0001517ca0,Mexican,13 or older,"no, only English or Spanish",no,2025-07-24_09h22.23.788,empathy_intonation_perc_control,2024.2.4,MacIntel,114.9425287,5b78542ef642ed0001517ca0,68817205a84113384fffdfe3,6882335edb0b2fd1eb7c3ee5,,,,,,,,,,,,./stim/wavs/cuban_match_declarative-broad-focus_Mariano-habla-del-tiempo.wav,0,,,177.5409,180.6562,0,1,2.5987,,0,55,55,54,1,55,0,cuban,,,,,,,,,,,,,,,,,,,,,,,,,,,,,,,,,,,,,,,,,,,,,,,,,,,,,,,,
,,,,,,,,,5b78542ef642ed0001517ca0,Mexican,13 or older,"no, only English or Spanish",no,2025-07-24_09h22.23.788,empathy_intonation_perc_control,2024.2.4,MacIntel,114.9425287,5b78542ef642ed0001517ca0,68817205a84113384fffdfe3,6882335edb0b2fd1eb7c3ee5,,,,,,,,,,,,./stim/wavs/mexican_mismatch_declarative-broad-focus_El-bebe-comia-muy-bien.wav,0,,,180.6566,182.8899,0,1,1.7161,,0,56,56,78,1,79,0,mexican,,,,,,,,,,,,,,,,,,,,,,,,,,,,,,,,,,,,,,,,,,,,,,,,,,,,,,,,
,,,,,,,,,5b78542ef642ed0001517ca0,Mexican,13 or older,"no, only English or Spanish",no,2025-07-24_09h22.23.788,empathy_intonation_perc_control,2024.2.4,MacIntel,114.9425287,5b78542ef642ed0001517ca0,68817205a84113384fffdfe3,6882335edb0b2fd1eb7c3ee5,,,,,,,,,,,,./stim/wavs/castilian_mismatch_interrogative-total-yn_La-nina-lava-el-plato.wav,1,,,182.8906,185.0476,1,1,1.6425,,0,57,57,25,1,26,0,castilian,,,,,,,,,,,,,,,,,,,,,,,,,,,,,,,,,,,,,,,,,,,,,,,,,,,,,,,,
,,,,,,,,,5b78542ef642ed0001517ca0,Mexican,13 or older,"no, only English or Spanish",no,2025-07-24_09h22.23.788,empathy_intonation_perc_control,2024.2.4,MacIntel,114.9425287,5b78542ef642ed0001517ca0,68817205a84113384fffdfe3,6882335edb0b2fd1eb7c3ee5,,,,,,,,,,,,./stim/wavs/puertorican_match_interrogative-total-yn_Maria-bebe-el-vino.wav,1,,,185.0483,187.2061,0,0,1.6396,,0,58,58,23,1,24,1,puertorican,,,,,,,,,,,,,,,,,,,,,,,,,,,,,,,,,,,,,,,,,,,,,,,,,,,,,,,,
,,,,,,,,,5b78542ef642ed0001517ca0,Mexican,13 or older,"no, only English or Spanish",no,2025-07-24_09h22.23.788,empathy_intonation_perc_control,2024.2.4,MacIntel,114.9425287,5b78542ef642ed0001517ca0,68817205a84113384fffdfe3,6882335edb0b2fd1eb7c3ee5,,,,,,,,,,,,./stim/wavs/mexican_mismatch_declarative-broad-focus_La-maestra-vive-en-Paris.wav,0,,,187.2065,189.6409,0,1,1.9191,,0,59,59,80,1,81,0,mexican,,,,,,,,,,,,,,,,,,,,,,,,,,,,,,,,,,,,,,,,,,,,,,,,,,,,,,,,
,,,,,,,,,5b78542ef642ed0001517ca0,Mexican,13 or older,"no, only English or Spanish",no,2025-07-24_09h22.23.788,empathy_intonation_perc_control,2024.2.4,MacIntel,114.9425287,5b78542ef642ed0001517ca0,68817205a84113384fffdfe3,6882335edb0b2fd1eb7c3ee5,,,,,,,,,,,,./stim/wavs/castilian_mismatch_interrogative-total-yn_Mi-novio-viene-del-lago.wav,1,,,189.6418,192.1302,1,1,1.97,,0,60,60,27,1,28,0,castilian,,,,,,,,,,,,,,,,,,,,,,,,,,,,,,,,,,,,,,,,,,,,,,,,,,,,,,,,
,,,,,,,,,5b78542ef642ed0001517ca0,Mexican,13 or older,"no, only English or Spanish",no,2025-07-24_09h22.23.788,empathy_intonation_perc_control,2024.2.4,MacIntel,114.9425287,5b78542ef642ed0001517ca0,68817205a84113384fffdfe3,6882335edb0b2fd1eb7c3ee5,,,,,,,,,,,,./stim/wavs/puertorican_mismatch_interrogative-total-yn_La-maestra-vive-en-Paris.wav,1,,,192.1307,194.281,0,0,1.6432,,0,61,61,41,1,42,1,puertorican,,,,,,,,,,,,,,,,,,,,,,,,,,,,,,,,,,,,,,,,,,,,,,,,,,,,,,,,
,,,,,,,,,5b78542ef642ed0001517ca0,Mexican,13 or older,"no, only English or Spanish",no,2025-07-24_09h22.23.788,empathy_intonation_perc_control,2024.2.4,MacIntel,114.9425287,5b78542ef642ed0001517ca0,68817205a84113384fffdfe3,6882335edb0b2fd1eb7c3ee5,,,,,,,,,,,,./stim/wavs/mexican_mismatch_interrogative-total-yn_El-nino-oye-el-rio.wav,1,,,194.2816,196.4807,1,1,1.6778,,0,62,62,35,1,36,0,mexican,,,,,,,,,,,,,,,,,,,,,,,,,,,,,,,,,,,,,,,,,,,,,,,,,,,,,,,,
,,,,,,,,,5b78542ef642ed0001517ca0,Mexican,13 or older,"no, only English or Spanish",no,2025-07-24_09h22.23.788,empathy_intonation_perc_control,2024.2.4,MacIntel,114.9425287,5b78542ef642ed0001517ca0,68817205a84113384fffdfe3,6882335edb0b2fd1eb7c3ee5,,,,,,,,,,,,./stim/wavs/mexican_mismatch_declarative-broad-focus_El-hombre-mira-la-luna.wav,0,,,196.4813,199.006,0,1,2.0059,,0,63,63,79,1,80,0,mexican,,,,,,,,,,,,,,,,,,,,,,,,,,,,,,,,,,,,,,,,,,,,,,,,,,,,,,,,
,,,,,,,,,5b78542ef642ed0001517ca0,Mexican,13 or older,"no, only English or Spanish",no,2025-07-24_09h22.23.788,empathy_intonation_perc_control,2024.2.4,MacIntel,114.9425287,5b78542ef642ed0001517ca0,68817205a84113384fffdfe3,6882335edb0b2fd1eb7c3ee5,,,,,,,,,,,,./stim/wavs/puertorican_mismatch_interrogative-total-yn_El-nino-oye-el-rio.wav,1,,,199.0069,201.3646,0,0,1.841,,0,64,64,40,1,41,1,puertorican,,,,,,,,,,,,,,,,,,,,,,,,,,,,,,,,,,,,,,,,,,,,,,,,,,,,,,,,
,,,,,,,,,5b78542ef642ed0001517ca0,Mexican,13 or older,"no, only English or Spanish",no,2025-07-24_09h22.23.788,empathy_intonation_perc_control,2024.2.4,MacIntel,114.9425287,5b78542ef642ed0001517ca0,68817205a84113384fffdfe3,6882335edb0b2fd1eb7c3ee5,,,,,,,,,,,,./stim/wavs/castilian_mismatch_declarative-broad-focus_Mi-novio-viene-del-lago.wav,0,,,201.3651,203.6894,0,1,1.8122,,0,65,65,71,1,72,0,castilian,,,,,,,,,,,,,,,,,,,,,,,,,,,,,,,,,,,,,,,,,,,,,,,,,,,,,,,,
,,,,,,,,,5b78542ef642ed0001517ca0,Mexican,13 or older,"no, only English or Spanish",no,2025-07-24_09h22.23.788,empathy_intonation_perc_control,2024.2.4,MacIntel,114.9425287,5b78542ef642ed0001517ca0,68817205a84113384fffdfe3,6882335edb0b2fd1eb7c3ee5,,,,,,,,,,,,./stim/wavs/cuban_mismatch_declarative-broad-focus_La-nina-lava-el-plato.wav,0,,,203.6898,206.3728,0,1,2.1682,,0,66,66,75,1,76,0,cuban,,,,,,,,,,,,,,,,,,,,,,,,,,,,,,,,,,,,,,,,,,,,,,,,,,,,,,,,
,,,,,,,,,5b78542ef642ed0001517ca0,Mexican,13 or older,"no, only English or Spanish",no,2025-07-24_09h22.23.788,empathy_intonation_perc_control,2024.2.4,MacIntel,114.9425287,5b78542ef642ed0001517ca0,68817205a84113384fffdfe3,6882335edb0b2fd1eb7c3ee5,,,,,,,,,,,,./stim/wavs/cuban_mismatch_declarative-broad-focus_Mi-tia-odia-la-lluvia.wav,0,,,206.3733,208.6062,0,1,1.7248,,0,67,67,77,1,78,0,cuban,,,,,,,,,,,,,,,,,,,,,,,,,,,,,,,,,,,,,,,,,,,,,,,,,,,,,,,,
,,,,,,,,,5b78542ef642ed0001517ca0,Mexican,13 or older,"no, only English or Spanish",no,2025-07-24_09h22.23.788,empathy_intonation_perc_control,2024.2.4,MacIntel,114.9425287,5b78542ef642ed0001517ca0,68817205a84113384fffdfe3,6882335edb0b2fd1eb7c3ee5,,,,,,,,,,,,./stim/wavs/mexican_mismatch_interrogative-total-yn_La-maestra-vive-en-Paris.wav,1,,,208.607,210.9218,1,1,1.8006,,0,68,68,36,1,37,0,mexican,,,,,,,,,,,,,,,,,,,,,,,,,,,,,,,,,,,,,,,,,,,,,,,,,,,,,,,,
,,,,,,,,,5b78542ef642ed0001517ca0,Mexican,13 or older,"no, only English or Spanish",no,2025-07-24_09h22.23.788,empathy_intonation_perc_control,2024.2.4,MacIntel,114.9425287,5b78542ef642ed0001517ca0,68817205a84113384fffdfe3,6882335edb0b2fd1eb7c3ee5,,,,,,,,,,,,./stim/wavs/mexican_match_interrogative-total-yn_Daniel-iba-a-Bolivia.wav,1,,,210.9222,213.056,1,1,1.6244,,0,69,69,13,1,14,0,mexican,,,,,,,,,,,,,,,,,,,,,,,,,,,,,,,,,,,,,,,,,,,,,,,,,,,,,,,,
,,,,,,,,,5b78542ef642ed0001517ca0,Mexican,13 or older,"no, only English or Spanish",no,2025-07-24_09h22.23.788,empathy_intonation_perc_control,2024.2.4,MacIntel,114.9425287,5b78542ef642ed0001517ca0,68817205a84113384fffdfe3,6882335edb0b2fd1eb7c3ee5,,,,,,,,,,,,./stim/wavs/cuban_mismatch_interrogative-total-yn_Mi-novio-viene-del-lago.wav,1,,,213.0565,215.356,0,0,1.7825,,0,70,70,32,1,33,1,cuban,,,,,,,,,,,,,,,,,,,,,,,,,,,,,,,,,,,,,,,,,,,,,,,,,,,,,,,,
,,,,,,,,,5b78542ef642ed0001517ca0,Mexican,13 or older,"no, only English or Spanish",no,2025-07-24_09h22.23.788,empathy_intonation_perc_control,2024.2.4,MacIntel,114.9425287,5b78542ef642ed0001517ca0,68817205a84113384fffdfe3,6882335edb0b2fd1eb7c3ee5,,,,,,,,,,,,./stim/wavs/puertorican_mismatch_declarative-broad-focus_El-nino-oye-el-rio.wav,0,,,215.3564,218.0726,0,1,2.1998,,0,71,71,85,1,86,0,puertorican,,,,,,,,,,,,,,,,,,,,,,,,,,,,,,,,,,,,,,,,,,,,,,,,,,,,,,,,
,,,,,,,,,5b78542ef642ed0001517ca0,Mexican,13 or older,"no, only English or Spanish",no,2025-07-24_09h22.23.788,empathy_intonation_perc_control,2024.2.4,MacIntel,114.9425287,5b78542ef642ed0001517ca0,68817205a84113384fffdfe3,6882335edb0b2fd1eb7c3ee5,,,,,,,,,,,,./stim/wavs/cuban_match_declarative-broad-focus_Daniel-iba-a-Bolivia.wav,0,,,218.073,220.4217,0,1,1.8328,,0,72,72,51,1,52,0,cuban,,,,,,,,,,,,,,,,,,,,,,,,,,,,,,,,,,,,,,,,,,,,,,,,,,,,,,,,
,,,,,,,,,5b78542ef642ed0001517ca0,Mexican,13 or older,"no, only English or Spanish",no,2025-07-24_09h22.23.788,empathy_intonation_perc_control,2024.2.4,MacIntel,114.9425287,5b78542ef642ed0001517ca0,68817205a84113384fffdfe3,6882335edb0b2fd1eb7c3ee5,,,,,,,,,,,,./stim/wavs/castilian_mismatch_declarative-broad-focus_El-nino-oye-el-rio.wav,0,,,220.4222,222.7891,0,1,1.8571,,0,73,73,68,1,69,0,castilian,,,,,,,,,,,,,,,,,,,,,,,,,,,,,,,,,,,,,,,,,,,,,,,,,,,,,,,,
,,,,,,,,,5b78542ef642ed0001517ca0,Mexican,13 or older,"no, only English or Spanish",no,2025-07-24_09h22.23.788,empathy_intonation_perc_control,2024.2.4,MacIntel,114.9425287,5b78542ef642ed0001517ca0,68817205a84113384fffdfe3,6882335edb0b2fd1eb7c3ee5,,,,,,,,,,,,./stim/wavs/puertorican_mismatch_declarative-broad-focus_La-nina-lava-el-plato.wav,0,,,222.7894,225.2967,0,1,1.9922,,0,74,74,87,1,88,0,puertorican,,,,,,,,,,,,,,,,,,,,,,,,,,,,,,,,,,,,,,,,,,,,,,,,,,,,,,,,
,,,,,,,,,5b78542ef642ed0001517ca0,Mexican,13 or older,"no, only English or Spanish",no,2025-07-24_09h22.23.788,empathy_intonation_perc_control,2024.2.4,MacIntel,114.9425287,5b78542ef642ed0001517ca0,68817205a84113384fffdfe3,6882335edb0b2fd1eb7c3ee5,,,,,,,,,,,,./stim/wavs/puertorican_match_interrogative-total-yn_Manuela-vende-el-carro.wav,1,,,225.2971,227.3301,0,0,1.5269,,0,75,75,22,1,23,1,puertorican,,,,,,,,,,,,,,,,,,,,,,,,,,,,,,,,,,,,,,,,,,,,,,,,,,,,,,,,
,,,,,,,,,5b78542ef642ed0001517ca0,Mexican,13 or older,"no, only English or Spanish",no,2025-07-24_09h22.23.788,empathy_intonation_perc_control,2024.2.4,MacIntel,114.9425287,5b78542ef642ed0001517ca0,68817205a84113384fffdfe3,6882335edb0b2fd1eb7c3ee5,,,,,,,,,,,,./stim/wavs/castilian_mismatch_interrogative-total-yn_Mi-madre-come-la-fruta.wav,1,,,227.3304,229.7476,1,1,1.8989,,0,76,76,26,1,27,0,castilian,,,,,,,,,,,,,,,,,,,,,,,,,,,,,,,,,,,,,,,,,,,,,,,,,,,,,,,,
,,,,,,,,,5b78542ef642ed0001517ca0,Mexican,13 or older,"no, only English or Spanish",no,2025-07-24_09h22.23.788,empathy_intonation_perc_control,2024.2.4,MacIntel,114.9425287,5b78542ef642ed0001517ca0,68817205a84113384fffdfe3,6882335edb0b2fd1eb7c3ee5,,,,,,,,,,,,./stim/wavs/castilian_match_interrogative-total-yn_Mariano-habla-del-tiempo.wav,1,,,229.7481,232.4643,1,1,2.2007,,0,77,77,4,1,5,0,castilian,,,,,,,,,,,,,,,,,,,,,,,,,,,,,,,,,,,,,,,,,,,,,,,,,,,,,,,,
,,,,,,,,,5b78542ef642ed0001517ca0,Mexican,13 or older,"no, only English or Spanish",no,2025-07-24_09h22.23.788,empathy_intonation_perc_control,2024.2.4,MacIntel,114.9425287,5b78542ef642ed0001517ca0,68817205a84113384fffdfe3,6882335edb0b2fd1eb7c3ee5,,,,,,,,,,,,./stim/wavs/cuban_mismatch_interrogative-total-yn_El-hombre-mira-la-luna.wav,1,,,232.4648,235.0261,0,0,2.0488,,0,78,78,29,1,30,1,cuban,,,,,,,,,,,,,,,,,,,,,,,,,,,,,,,,,,,,,,,,,,,,,,,,,,,,,,,,
,,,,,,,,,5b78542ef642ed0001517ca0,Mexican,13 or older,"no, only English or Spanish",no,2025-07-24_09h22.23.788,empathy_intonation_perc_control,2024.2.4,MacIntel,114.9425287,5b78542ef642ed0001517ca0,68817205a84113384fffdfe3,6882335edb0b2fd1eb7c3ee5,,,,,,,,,,,,./stim/wavs/castilian_match_interrogative-total-yn_Emilio-ama-la-marcha.wav,1,,,235.0263,237.5559,1,1,2.017,,0,79,79,1,1,2,0,castilian,,,,,,,,,,,,,,,,,,,,,,,,,,,,,,,,,,,,,,,,,,,,,,,,,,,,,,,,
,,,,,,,,,5b78542ef642ed0001517ca0,Mexican,13 or older,"no, only English or Spanish",no,2025-07-24_09h22.23.788,empathy_intonation_perc_control,2024.2.4,MacIntel,114.9425287,5b78542ef642ed0001517ca0,68817205a84113384fffdfe3,6882335edb0b2fd1eb7c3ee5,,,,,,,,,,,,./stim/wavs/cuban_mismatch_interrogative-total-yn_El-nino-oye-el-rio.wav,1,,,237.5562,240.0809,0,0,2.0093,,0,80,80,30,1,31,1,cuban,,,,,,,,,,,,,,,,,,,,,,,,,,,,,,,,,,,,,,,,,,,,,,,,,,,,,,,,
,,,,,,,,,5b78542ef642ed0001517ca0,Mexican,13 or older,"no, only English or Spanish",no,2025-07-24_09h22.23.788,empathy_intonation_perc_control,2024.2.4,MacIntel,114.9425287,5b78542ef642ed0001517ca0,68817205a84113384fffdfe3,6882335edb0b2fd1eb7c3ee5,,,,,,,,,,,,./stim/wavs/mexican_mismatch_declarative-broad-focus_Mi-tia-odia-la-lluvia.wav,0,,,240.0814,241.9997,0,1,1.4009,,0,81,81,82,1,83,0,mexican,,,,,,,,,,,,,,,,,,,,,,,,,,,,,,,,,,,,,,,,,,,,,,,,,,,,,,,,
,,,,,,,,,5b78542ef642ed0001517ca0,Mexican,13 or older,"no, only English or Spanish",no,2025-07-24_09h22.23.788,empathy_intonation_perc_control,2024.2.4,MacIntel,114.9425287,5b78542ef642ed0001517ca0,68817205a84113384fffdfe3,6882335edb0b2fd1eb7c3ee5,,,,,,,,,,,,./stim/wavs/castilian_mismatch_declarative-broad-focus_La-maestra-vive-en-Paris.wav,0,,,242.0017,244.264,0,1,1.7489,,0,82,82,69,1,70,0,castilian,,,,,,,,,,,,,,,,,,,,,,,,,,,,,,,,,,,,,,,,,,,,,,,,,,,,,,,,
,,,,,,,,,5b78542ef642ed0001517ca0,Mexican,13 or older,"no, only English or Spanish",no,2025-07-24_09h22.23.788,empathy_intonation_perc_control,2024.2.4,MacIntel,114.9425287,5b78542ef642ed0001517ca0,68817205a84113384fffdfe3,6882335edb0b2fd1eb7c3ee5,,,,,,,,,,,,./stim/wavs/puertorican_match_interrogative-total-yn_David-leia-el-libro.wav,1,,,244.2644,246.2308,0,0,1.4504,,0,83,83,20,1,21,1,puertorican,,,,,,,,,,,,,,,,,,,,,,,,,,,,,,,,,,,,,,,,,,,,,,,,,,,,,,,,
,,,,,,,,,5b78542ef642ed0001517ca0,Mexican,13 or older,"no, only English or Spanish",no,2025-07-24_09h22.23.788,empathy_intonation_perc_control,2024.2.4,MacIntel,114.9425287,5b78542ef642ed0001517ca0,68817205a84113384fffdfe3,6882335edb0b2fd1eb7c3ee5,,,,,,,,,,,,./stim/wavs/cuban_match_interrogative-total-yn_Maria-bebe-el-vino.wav,1,,,246.2314,248.3974,0,0,1.6507,,0,84,84,9,1,10,1,cuban,,,,,,,,,,,,,,,,,,,,,,,,,,,,,,,,,,,,,,,,,,,,,,,,,,,,,,,,
,,,,,,,,,5b78542ef642ed0001517ca0,Mexican,13 or older,"no, only English or Spanish",no,2025-07-24_09h22.23.788,empathy_intonation_perc_control,2024.2.4,MacIntel,114.9425287,5b78542ef642ed0001517ca0,68817205a84113384fffdfe3,6882335edb0b2fd1eb7c3ee5,,,,,,,,,,,,./stim/wavs/mexican_match_declarative-broad-focus_Emilio-ama-la-marcha.wav,0,,,248.398,250.7144,0,1,1.7994,,0,85,85,59,1,60,0,mexican,,,,,,,,,,,,,,,,,,,,,,,,,,,,,,,,,,,,,,,,,,,,,,,,,,,,,,,,
,,,,,,,,,5b78542ef642ed0001517ca0,Mexican,13 or older,"no, only English or Spanish",no,2025-07-24_09h22.23.788,empathy_intonation_perc_control,2024.2.4,MacIntel,114.9425287,5b78542ef642ed0001517ca0,68817205a84113384fffdfe3,6882335edb0b2fd1eb7c3ee5,,,,,,,,,,,,./stim/wavs/cuban_match_interrogative-total-yn_Ana-lleva-el-abrigo.wav,1,,,250.7152,252.8976,0,0,1.6675,,0,86,86,6,1,7,1,cuban,,,,,,,,,,,,,,,,,,,,,,,,,,,,,,,,,,,,,,,,,,,,,,,,,,,,,,,,
,,,,,,,,,5b78542ef642ed0001517ca0,Mexican,13 or older,"no, only English or Spanish",no,2025-07-24_09h22.23.788,empathy_intonation_perc_control,2024.2.4,MacIntel,114.9425287,5b78542ef642ed0001517ca0,68817205a84113384fffdfe3,6882335edb0b2fd1eb7c3ee5,,,,,,,,,,,,./stim/wavs/castilian_match_declarative-broad-focus_Mariano-habla-del-tiempo.wav,0,,,252.8983,255.7512,0,1,2.3413,,0,87,87,48,1,49,0,castilian,,,,,,,,,,,,,,,,,,,,,,,,,,,,,,,,,,,,,,,,,,,,,,,,,,,,,,,,
,,,,,,,"Great! Now we will move on. The next task consists of about 60 trials, in each of which you will see a string of letters. 
  
  Your task is to decide whether this is a real Spanish word or not.", (press the spacebar to continue),5b78542ef642ed0001517ca0,Mexican,13 or older,"no, only English or Spanish",no,2025-07-24_09h22.23.788,empathy_intonation_perc_control,2024.2.4,MacIntel,114.9425287,5b78542ef642ed0001517ca0,68817205a84113384fffdfe3,6882335edb0b2fd1eb7c3ee5,,,,,,,,,,,,,,,,,,,,,,,,,,,,,,255.7551,262.2998,0,0,0,0,1,,,,,,,,,,,,,,,,,,,,,,,,,,,,,,,,,,,,,,,,,,,,,,,,,
,,,,,,,"If you think it is an existing Spanish word, you type '1' (for 'REAL'), and if you think it is not an existing Spanish word, you type '0' (for 'FAKE').", (press the spacebar to continue),5b78542ef642ed0001517ca0,Mexican,13 or older,"no, only English or Spanish",no,2025-07-24_09h22.23.788,empathy_intonation_perc_control,2024.2.4,MacIntel,114.9425287,5b78542ef642ed0001517ca0,68817205a84113384fffdfe3,6882335edb0b2fd1eb7c3ee5,,,,,,,,,,,,,,,,,,,,,,,,,,,,,,262.303,267.0731,0,1,1,1,1,,,,,,,,,,,,,,,,,,,,,,,,,,,,,,,,,,,,,,,,,,,,,,,,,
,,,,,,,"If you are sure that the word exists, even though you don’t know its exact meaning, you may still respond '1' (REAL). 
  
  But if you are not sure if it is an existing word, you should respond '0' (FAKE).
  
  Let's do a practice round...", (press the spacebar to continue),5b78542ef642ed0001517ca0,Mexican,13 or older,"no, only English or Spanish",no,2025-07-24_09h22.23.788,empathy_intonation_perc_control,2024.2.4,MacIntel,114.9425287,5b78542ef642ed0001517ca0,68817205a84113384fffdfe3,6882335edb0b2fd1eb7c3ee5,,,,,,,,,,,,,,,,,,,,,,,,,,,,,,267.0755,275.232,0,2,2,2,1,,,,,,,,,,,,,,,,,,,,,,,,,,,,,,,,,,,,,,,,,,,,,,,,,
,,,,,,,,,5b78542ef642ed0001517ca0,Mexican,13 or older,"no, only English or Spanish",no,2025-07-24_09h22.23.788,empathy_intonation_perc_control,2024.2.4,MacIntel,114.9425287,5b78542ef642ed0001517ca0,68817205a84113384fffdfe3,6882335edb0b2fd1eb7c3ee5,,,,,,,,,,,,,0,,,,,,,,,,,,,,,,,,,,,,,,275.2406,277.6644,1,0,1.9029,,277.6646,278.6641,0,0,0,0,1,0,depiste,REAL,FAKE,,,,,,,,,,,,,,,,,,,,,,,,,,,,,,,,
,,,,,,,,,5b78542ef642ed0001517ca0,Mexican,13 or older,"no, only English or Spanish",no,2025-07-24_09h22.23.788,empathy_intonation_perc_control,2024.2.4,MacIntel,114.9425287,5b78542ef642ed0001517ca0,68817205a84113384fffdfe3,6882335edb0b2fd1eb7c3ee5,,,,,,,,,,,,,1,,,,,,,,,,,,,,,,,,,,,,,,278.6661,280.2724,1,1,1.0856,,280.2732,281.2725,0,1,1,1,1,0,sí,REAL,FAKE,,,,,,,,,,,,,,,,,,,,,,,,,,,,,,,,
,,,,,,,,,5b78542ef642ed0001517ca0,Mexican,13 or older,"no, only English or Spanish",no,2025-07-24_09h22.23.788,empathy_intonation_perc_control,2024.2.4,MacIntel,114.9425287,5b78542ef642ed0001517ca0,68817205a84113384fffdfe3,6882335edb0b2fd1eb7c3ee5,,,,,,,,,,,,,0,,,,,,,,,,,,,,,,,,,,,,,,281.2736,284.1356,0,1,2.3297,,284.1359,285.1308,0,2,2,2,1,0,coné,REAL,FAKE,,,,,,,,,,,,,,,,,,,,,,,,,,,,,,,,
,,,,,,,,,5b78542ef642ed0001517ca0,Mexican,13 or older,"no, only English or Spanish",no,2025-07-24_09h22.23.788,empathy_intonation_perc_control,2024.2.4,MacIntel,114.9425287,5b78542ef642ed0001517ca0,68817205a84113384fffdfe3,6882335edb0b2fd1eb7c3ee5,,,,,,,,,,,,,0,,,,,,,,,,,,,,,,,,,,,,,,285.1328,287.2057,0,1,1.5519,,287.2058,288.2051,0,3,3,3,1,0,calpar,REAL,FAKE,,,,,,,,,,,,,,,,,,,,,,,,,,,,,,,,
,,,,,,,,,5b78542ef642ed0001517ca0,Mexican,13 or older,"no, only English or Spanish",no,2025-07-24_09h22.23.788,empathy_intonation_perc_control,2024.2.4,MacIntel,114.9425287,5b78542ef642ed0001517ca0,68817205a84113384fffdfe3,6882335edb0b2fd1eb7c3ee5,,,,,,,,,,,,,0,,,,,,,,,,,,,,,,,,,,,,,,288.2061,290.2224,0,1,1.4947,,290.2224,291.2218,0,4,4,4,1,0,joten,REAL,FAKE,,,,,,,,,,,,,,,,,,,,,,,,,,,,,,,,
,,,,,,,,,5b78542ef642ed0001517ca0,Mexican,13 or older,"no, only English or Spanish",no,2025-07-24_09h22.23.788,empathy_intonation_perc_control,2024.2.4,MacIntel,114.9425287,5b78542ef642ed0001517ca0,68817205a84113384fffdfe3,6882335edb0b2fd1eb7c3ee5,,,,,,,,,,,,,1,,,,,,,,,,,,,,,,,,,,,,,,291.2228,293.0307,0,0,1.2925,,293.0315,294.0305,0,5,5,5,1,0,sacapuntas,REAL,FAKE,,,,,,,,,,,,,,,,,,,,,,,,,,,,,,,,
,,,,,,,,,5b78542ef642ed0001517ca0,Mexican,13 or older,"no, only English or Spanish",no,2025-07-24_09h22.23.788,empathy_intonation_perc_control,2024.2.4,MacIntel,114.9425287,5b78542ef642ed0001517ca0,68817205a84113384fffdfe3,6882335edb0b2fd1eb7c3ee5,,,,,,,,,,,,,0,,,,,,,,,,,,,,,,,,,,,,,,294.0315,295.6557,0,1,1.0989,,295.6563,296.6559,0,6,6,6,1,0,priba,REAL,FAKE,,,,,,,,,,,,,,,,,,,,,,,,,,,,,,,,
,,,,,,,,,5b78542ef642ed0001517ca0,Mexican,13 or older,"no, only English or Spanish",no,2025-07-24_09h22.23.788,empathy_intonation_perc_control,2024.2.4,MacIntel,114.9425287,5b78542ef642ed0001517ca0,68817205a84113384fffdfe3,6882335edb0b2fd1eb7c3ee5,,,,,,,,,,,,,0,,,,,,,,,,,,,,,,,,,,,,,,296.6572,298.5469,1,0,1.3618,,298.5475,299.5474,0,7,7,7,1,0,pelasula,REAL,FAKE,,,,,,,,,,,,,,,,,,,,,,,,,,,,,,,,
,,,,,,,,,5b78542ef642ed0001517ca0,Mexican,13 or older,"no, only English or Spanish",no,2025-07-24_09h22.23.788,empathy_intonation_perc_control,2024.2.4,MacIntel,114.9425287,5b78542ef642ed0001517ca0,68817205a84113384fffdfe3,6882335edb0b2fd1eb7c3ee5,,,,,,,,,,,,,1,,,,,,,,,,,,,,,,,,,,,,,,299.5486,300.8389,1,1,0.7645,,300.8397,301.8389,0,8,8,8,1,0,bien,REAL,FAKE,,,,,,,,,,,,,,,,,,,,,,,,,,,,,,,,
,,,,,,,,,5b78542ef642ed0001517ca0,Mexican,13 or older,"no, only English or Spanish",no,2025-07-24_09h22.23.788,empathy_intonation_perc_control,2024.2.4,MacIntel,114.9425287,5b78542ef642ed0001517ca0,68817205a84113384fffdfe3,6882335edb0b2fd1eb7c3ee5,,,,,,,,,,,,,1,,,,,,,,,,,,,,,,,,,,,,,,301.84,303.0054,1,1,0.6271,,303.0055,304.0057,0,9,9,9,1,0,casa,REAL,FAKE,,,,,,,,,,,,,,,,,,,,,,,,,,,,,,,,
,,,,,,,,,5b78542ef642ed0001517ca0,Mexican,13 or older,"no, only English or Spanish",no,2025-07-24_09h22.23.788,empathy_intonation_perc_control,2024.2.4,MacIntel,114.9425287,5b78542ef642ed0001517ca0,68817205a84113384fffdfe3,6882335edb0b2fd1eb7c3ee5,,,,,,,,,,,,,0,,,,,,,,,,,,,,,,,,,,,,,,304.0071,305.6886,0,1,1.1604,,305.6886,306.6886,0,10,10,10,1,0,lejo,REAL,FAKE,,,,,,,,,,,,,,,,,,,,,,,,,,,,,,,,
,,,,,,,,,5b78542ef642ed0001517ca0,Mexican,13 or older,"no, only English or Spanish",no,2025-07-24_09h22.23.788,empathy_intonation_perc_control,2024.2.4,MacIntel,114.9425287,5b78542ef642ed0001517ca0,68817205a84113384fffdfe3,6882335edb0b2fd1eb7c3ee5,,,,,,,,,,,,,0,,,,,,,,,,,,,,,,,,,,,,,,306.6896,308.2058,0,1,0.9947,,308.2059,309.2056,0,11,11,11,1,0,pretantas,REAL,FAKE,,,,,,,,,,,,,,,,,,,,,,,,,,,,,,,,
,,,,,,,,,5b78542ef642ed0001517ca0,Mexican,13 or older,"no, only English or Spanish",no,2025-07-24_09h22.23.788,empathy_intonation_perc_control,2024.2.4,MacIntel,114.9425287,5b78542ef642ed0001517ca0,68817205a84113384fffdfe3,6882335edb0b2fd1eb7c3ee5,,,,,,,,,,,,,,,,,,,,,,,,,,,,,,,,,,,,,,,,,,,,,,,,,,,,,,309.2064,310.98,,,,,,,,,,,,,,,,,,,,,,,,,,,,,,
,,,,,,,,,5b78542ef642ed0001517ca0,Mexican,13 or older,"no, only English or Spanish",no,2025-07-24_09h22.23.788,empathy_intonation_perc_control,2024.2.4,MacIntel,114.9425287,5b78542ef642ed0001517ca0,68817205a84113384fffdfe3,6882335edb0b2fd1eb7c3ee5,,,,,,,,,,,,,1,,,,,,,,,,,,,,,,,,,,,,,,,,,,,,,,,,,,,6,tergiversar,,,,,310.9917,312.6557,0,0,1.1417,,0,0,0,5,1,REAL,FAKE,,,,,,,,,,,,,,,,,
,,,,,,,,,5b78542ef642ed0001517ca0,Mexican,13 or older,"no, only English or Spanish",no,2025-07-24_09h22.23.788,empathy_intonation_perc_control,2024.2.4,MacIntel,114.9425287,5b78542ef642ed0001517ca0,68817205a84113384fffdfe3,6882335edb0b2fd1eb7c3ee5,,,,,,,,,,,,,0,,,,,,,,,,,,,,,,,,,,,,,,,,,,,,,,,,,,,63,esposante,,,,,312.6566,314.5057,0,1,1.3269,,0,1,1,62,1,REAL,FAKE,,,,,,,,,,,,,,,,,
,,,,,,,,,5b78542ef642ed0001517ca0,Mexican,13 or older,"no, only English or Spanish",no,2025-07-24_09h22.23.788,empathy_intonation_perc_control,2024.2.4,MacIntel,114.9425287,5b78542ef642ed0001517ca0,68817205a84113384fffdfe3,6882335edb0b2fd1eb7c3ee5,,,,,,,,,,,,,1,,,,,,,,,,,,,,,,,,,,,,,,,,,,,,,,,,,,,85,laúd,,,,,314.5068,315.7722,0,0,0.7307,,0,2,2,84,1,REAL,FAKE,,,,,,,,,,,,,,,,,
,,,,,,,,,5b78542ef642ed0001517ca0,Mexican,13 or older,"no, only English or Spanish",no,2025-07-24_09h22.23.788,empathy_intonation_perc_control,2024.2.4,MacIntel,114.9425287,5b78542ef642ed0001517ca0,68817205a84113384fffdfe3,6882335edb0b2fd1eb7c3ee5,,,,,,,,,,,,,0,,,,,,,,,,,,,,,,,,,,,,,,,,,,,,,,,,,,,42,cadallo,,,,,315.7729,317.4972,1,0,1.2019,,0,3,3,41,1,REAL,FAKE,,,,,,,,,,,,,,,,,
,,,,,,,,,5b78542ef642ed0001517ca0,Mexican,13 or older,"no, only English or Spanish",no,2025-07-24_09h22.23.788,empathy_intonation_perc_control,2024.2.4,MacIntel,114.9425287,5b78542ef642ed0001517ca0,68817205a84113384fffdfe3,6882335edb0b2fd1eb7c3ee5,,,,,,,,,,,,,1,,,,,,,,,,,,,,,,,,,,,,,,,,,,,,,,,,,,,38,estornudar,,,,,317.4979,319.1056,0,0,1.0803,,0,4,4,37,1,REAL,FAKE,,,,,,,,,,,,,,,,,
,,,,,,,,,5b78542ef642ed0001517ca0,Mexican,13 or older,"no, only English or Spanish",no,2025-07-24_09h22.23.788,empathy_intonation_perc_control,2024.2.4,MacIntel,114.9425287,5b78542ef642ed0001517ca0,68817205a84113384fffdfe3,6882335edb0b2fd1eb7c3ee5,,,,,,,,,,,,,1,,,,,,,,,,,,,,,,,,,,,,,,,,,,,,,,,,,,,15,regar,,,,,319.1064,320.8683,1,1,1.2297,,0,5,5,14,1,REAL,FAKE,,,,,,,,,,,,,,,,,
,,,,,,,,,5b78542ef642ed0001517ca0,Mexican,13 or older,"no, only English or Spanish",no,2025-07-24_09h22.23.788,empathy_intonation_perc_control,2024.2.4,MacIntel,114.9425287,5b78542ef642ed0001517ca0,68817205a84113384fffdfe3,6882335edb0b2fd1eb7c3ee5,,,,,,,,,,,,,0,,,,,,,,,,,,,,,,,,,,,,,,,,,,,,,,,,,,,70,temblo,,,,,320.8703,322.2441,0,1,0.8497,,0,6,6,69,1,REAL,FAKE,,,,,,,,,,,,,,,,,
,,,,,,,,,5b78542ef642ed0001517ca0,Mexican,13 or older,"no, only English or Spanish",no,2025-07-24_09h22.23.788,empathy_intonation_perc_control,2024.2.4,MacIntel,114.9425287,5b78542ef642ed0001517ca0,68817205a84113384fffdfe3,6882335edb0b2fd1eb7c3ee5,,,,,,,,,,,,,0,,,,,,,,,,,,,,,,,,,,,,,,,,,,,,,,,,,,,79,tropaje,,,,,322.2454,323.9653,0,1,1.1964,,0,7,7,78,1,REAL,FAKE,,,,,,,,,,,,,,,,,
,,,,,,,,,5b78542ef642ed0001517ca0,Mexican,13 or older,"no, only English or Spanish",no,2025-07-24_09h22.23.788,empathy_intonation_perc_control,2024.2.4,MacIntel,114.9425287,5b78542ef642ed0001517ca0,68817205a84113384fffdfe3,6882335edb0b2fd1eb7c3ee5,,,,,,,,,,,,,0,,,,,,,,,,,,,,,,,,,,,,,,,,,,,,,,,,,,,87,grodo,,,,,323.9665,325.8643,0,1,1.3667,,0,8,8,86,1,REAL,FAKE,,,,,,,,,,,,,,,,,
,,,,,,,,,5b78542ef642ed0001517ca0,Mexican,13 or older,"no, only English or Spanish",no,2025-07-24_09h22.23.788,empathy_intonation_perc_control,2024.2.4,MacIntel,114.9425287,5b78542ef642ed0001517ca0,68817205a84113384fffdfe3,6882335edb0b2fd1eb7c3ee5,,,,,,,,,,,,,1,,,,,,,,,,,,,,,,,,,,,,,,,,,,,,,,,,,,,12,asesinato,,,,,325.8654,327.8804,0,0,1.4797,,0,9,9,11,1,REAL,FAKE,,,,,,,,,,,,,,,,,
,,,,,,,,,5b78542ef642ed0001517ca0,Mexican,13 or older,"no, only English or Spanish",no,2025-07-24_09h22.23.788,empathy_intonation_perc_control,2024.2.4,MacIntel,114.9425287,5b78542ef642ed0001517ca0,68817205a84113384fffdfe3,6882335edb0b2fd1eb7c3ee5,,,,,,,,,,,,,0,,,,,,,,,,,,,,,,,,,,,,,,,,,,,,,,,,,,,66,hacido,,,,,327.8815,329.4308,1,0,1.0184,,0,10,10,65,1,REAL,FAKE,,,,,,,,,,,,,,,,,
,,,,,,,,,5b78542ef642ed0001517ca0,Mexican,13 or older,"no, only English or Spanish",no,2025-07-24_09h22.23.788,empathy_intonation_perc_control,2024.2.4,MacIntel,114.9425287,5b78542ef642ed0001517ca0,68817205a84113384fffdfe3,6882335edb0b2fd1eb7c3ee5,,,,,,,,,,,,,1,,,,,,,,,,,,,,,,,,,,,,,,,,,,,,,,,,,,,39,torpe,,,,,329.4323,330.7888,0,0,0.8306,,0,11,11,38,1,REAL,FAKE,,,,,,,,,,,,,,,,,
,,,,,,,,,5b78542ef642ed0001517ca0,Mexican,13 or older,"no, only English or Spanish",no,2025-07-24_09h22.23.788,empathy_intonation_perc_control,2024.2.4,MacIntel,114.9425287,5b78542ef642ed0001517ca0,68817205a84113384fffdfe3,6882335edb0b2fd1eb7c3ee5,,,,,,,,,,,,,0,,,,,,,,,,,,,,,,,,,,,,,,,,,,,,,,,,,,,21,capillo,,,,,330.7898,332.2888,1,0,0.9719,,0,12,12,20,1,REAL,FAKE,,,,,,,,,,,,,,,,,
,,,,,,,,,5b78542ef642ed0001517ca0,Mexican,13 or older,"no, only English or Spanish",no,2025-07-24_09h22.23.788,empathy_intonation_perc_control,2024.2.4,MacIntel,114.9425287,5b78542ef642ed0001517ca0,68817205a84113384fffdfe3,6882335edb0b2fd1eb7c3ee5,,,,,,,,,,,,,1,,,,,,,,,,,,,,,,,,,,,,,,,,,,,,,,,,,,,89,prisa,,,,,332.2899,333.7387,1,1,0.9196,,0,13,13,88,1,REAL,FAKE,,,,,,,,,,,,,,,,,
,,,,,,,,,5b78542ef642ed0001517ca0,Mexican,13 or older,"no, only English or Spanish",no,2025-07-24_09h22.23.788,empathy_intonation_perc_control,2024.2.4,MacIntel,114.9425287,5b78542ef642ed0001517ca0,68817205a84113384fffdfe3,6882335edb0b2fd1eb7c3ee5,,,,,,,,,,,,,1,,,,,,,,,,,,,,,,,,,,,,,,,,,,,,,,,,,,,86,barato,,,,,333.7396,335.1387,0,0,0.869,,0,14,14,85,1,REAL,FAKE,,,,,,,,,,,,,,,,,
,,,,,,,,,5b78542ef642ed0001517ca0,Mexican,13 or older,"no, only English or Spanish",no,2025-07-24_09h22.23.788,empathy_intonation_perc_control,2024.2.4,MacIntel,114.9425287,5b78542ef642ed0001517ca0,68817205a84113384fffdfe3,6882335edb0b2fd1eb7c3ee5,,,,,,,,,,,,,1,,,,,,,,,,,,,,,,,,,,,,,,,,,,,,,,,,,,,24,látigo,,,,,335.1397,336.5217,0,0,0.8525,,0,15,15,23,1,REAL,FAKE,,,,,,,,,,,,,,,,,
,,,,,,,,,5b78542ef642ed0001517ca0,Mexican,13 or older,"no, only English or Spanish",no,2025-07-24_09h22.23.788,empathy_intonation_perc_control,2024.2.4,MacIntel,114.9425287,5b78542ef642ed0001517ca0,68817205a84113384fffdfe3,6882335edb0b2fd1eb7c3ee5,,,,,,,,,,,,,0,,,,,,,,,,,,,,,,,,,,,,,,,,,,,,,,,,,,,16,abracer,,,,,336.522,338.1046,1,0,1.0652,,0,16,16,15,1,REAL,FAKE,,,,,,,,,,,,,,,,,
,,,,,,,,,5b78542ef642ed0001517ca0,Mexican,13 or older,"no, only English or Spanish",no,2025-07-24_09h22.23.788,empathy_intonation_perc_control,2024.2.4,MacIntel,114.9425287,5b78542ef642ed0001517ca0,68817205a84113384fffdfe3,6882335edb0b2fd1eb7c3ee5,,,,,,,,,,,,,1,,,,,,,,,,,,,,,,,,,,,,,,,,,,,,,,,,,,,3,pulmones,,,,,338.1058,339.5977,0,0,0.9615,,0,17,17,2,1,REAL,FAKE,,,,,,,,,,,,,,,,,
,,,,,,,,,5b78542ef642ed0001517ca0,Mexican,13 or older,"no, only English or Spanish",no,2025-07-24_09h22.23.788,empathy_intonation_perc_control,2024.2.4,MacIntel,114.9425287,5b78542ef642ed0001517ca0,68817205a84113384fffdfe3,6882335edb0b2fd1eb7c3ee5,,,,,,,,,,,,,0,,,,,,,,,,,,,,,,,,,,,,,,,,,,,,,,,,,,,74,cintro,,,,,339.5987,341.6881,0,1,1.5538,,0,18,18,73,1,REAL,FAKE,,,,,,,,,,,,,,,,,
,,,,,,,,,5b78542ef642ed0001517ca0,Mexican,13 or older,"no, only English or Spanish",no,2025-07-24_09h22.23.788,empathy_intonation_perc_control,2024.2.4,MacIntel,114.9425287,5b78542ef642ed0001517ca0,68817205a84113384fffdfe3,6882335edb0b2fd1eb7c3ee5,,,,,,,,,,,,,1,,,,,,,,,,,,,,,,,,,,,,,,,,,,,,,,,,,,,65,bizcocho,,,,,341.6894,344.4632,0,0,2.2387,,0,19,19,64,1,REAL,FAKE,,,,,,,,,,,,,,,,,
,,,,,,,,,5b78542ef642ed0001517ca0,Mexican,13 or older,"no, only English or Spanish",no,2025-07-24_09h22.23.788,empathy_intonation_perc_control,2024.2.4,MacIntel,114.9425287,5b78542ef642ed0001517ca0,68817205a84113384fffdfe3,6882335edb0b2fd1eb7c3ee5,,,,,,,,,,,,,1,,,,,,,,,,,,,,,,,,,,,,,,,,,,,,,,,,,,,81,pozo,,,,,344.4642,345.7378,0,0,0.7525,,0,20,20,80,1,REAL,FAKE,,,,,,,,,,,,,,,,,
,,,,,,,,,5b78542ef642ed0001517ca0,Mexican,13 or older,"no, only English or Spanish",no,2025-07-24_09h22.23.788,empathy_intonation_perc_control,2024.2.4,MacIntel,114.9425287,5b78542ef642ed0001517ca0,68817205a84113384fffdfe3,6882335edb0b2fd1eb7c3ee5,,,,,,,,,,,,,1,,,,,,,,,,,,,,,,,,,,,,,,,,,,,,,,,,,,,14,yunque,,,,,345.7386,347.0555,0,0,0.7918,,0,21,21,13,1,REAL,FAKE,,,,,,,,,,,,,,,,,
,,,,,,,,,5b78542ef642ed0001517ca0,Mexican,13 or older,"no, only English or Spanish",no,2025-07-24_09h22.23.788,empathy_intonation_perc_control,2024.2.4,MacIntel,114.9425287,5b78542ef642ed0001517ca0,68817205a84113384fffdfe3,6882335edb0b2fd1eb7c3ee5,,,,,,,,,,,,,1,,,,,,,,,,,,,,,,,,,,,,,,,,,,,,,,,,,,,67,cabello,,,,,347.0565,348.6218,1,1,1.0423,,0,22,22,66,1,REAL,FAKE,,,,,,,,,,,,,,,,,
,,,,,,,,,5b78542ef642ed0001517ca0,Mexican,13 or older,"no, only English or Spanish",no,2025-07-24_09h22.23.788,empathy_intonation_perc_control,2024.2.4,MacIntel,114.9425287,5b78542ef642ed0001517ca0,68817205a84113384fffdfe3,6882335edb0b2fd1eb7c3ee5,,,,,,,,,,,,,0,,,,,,,,,,,,,,,,,,,,,,,,,,,,,,,,,,,,,18,arsa,,,,,348.6228,349.855,0,1,0.7095,,0,23,23,17,1,REAL,FAKE,,,,,,,,,,,,,,,,,
,,,,,,,,,5b78542ef642ed0001517ca0,Mexican,13 or older,"no, only English or Spanish",no,2025-07-24_09h22.23.788,empathy_intonation_perc_control,2024.2.4,MacIntel,114.9425287,5b78542ef642ed0001517ca0,68817205a84113384fffdfe3,6882335edb0b2fd1eb7c3ee5,,,,,,,,,,,,,1,,,,,,,,,,,,,,,,,,,,,,,,,,,,,,,,,,,,,28,merodear,,,,,349.8562,351.0472,0,0,0.6662,,0,24,24,27,1,REAL,FAKE,,,,,,,,,,,,,,,,,
,,,,,,,,,5b78542ef642ed0001517ca0,Mexican,13 or older,"no, only English or Spanish",no,2025-07-24_09h22.23.788,empathy_intonation_perc_control,2024.2.4,MacIntel,114.9425287,5b78542ef642ed0001517ca0,68817205a84113384fffdfe3,6882335edb0b2fd1eb7c3ee5,,,,,,,,,,,,,1,,,,,,,,,,,,,,,,,,,,,,,,,,,,,,,,,,,,,34,aviso,,,,,351.0483,352.4053,1,1,0.8306,,0,25,25,33,1,REAL,FAKE,,,,,,,,,,,,,,,,,
,,,,,,,,,5b78542ef642ed0001517ca0,Mexican,13 or older,"no, only English or Spanish",no,2025-07-24_09h22.23.788,empathy_intonation_perc_control,2024.2.4,MacIntel,114.9425287,5b78542ef642ed0001517ca0,68817205a84113384fffdfe3,6882335edb0b2fd1eb7c3ee5,,,,,,,,,,,,,0,,,,,,,,,,,,,,,,,,,,,,,,,,,,,,,,,,,,,4,batillón,,,,,352.4059,353.8887,0,1,0.9535,,0,26,26,3,1,REAL,FAKE,,,,,,,,,,,,,,,,,
,,,,,,,,,5b78542ef642ed0001517ca0,Mexican,13 or older,"no, only English or Spanish",no,2025-07-24_09h22.23.788,empathy_intonation_perc_control,2024.2.4,MacIntel,114.9425287,5b78542ef642ed0001517ca0,68817205a84113384fffdfe3,6882335edb0b2fd1eb7c3ee5,,,,,,,,,,,,,0,,,,,,,,,,,,,,,,,,,,,,,,,,,,,,,,,,,,,8,cadeña,,,,,353.8894,355.4137,0,1,0.9982,,0,27,27,7,1,REAL,FAKE,,,,,,,,,,,,,,,,,
,,,,,,,,,5b78542ef642ed0001517ca0,Mexican,13 or older,"no, only English or Spanish",no,2025-07-24_09h22.23.788,empathy_intonation_perc_control,2024.2.4,MacIntel,114.9425287,5b78542ef642ed0001517ca0,68817205a84113384fffdfe3,6882335edb0b2fd1eb7c3ee5,,,,,,,,,,,,,0,,,,,,,,,,,,,,,,,,,,,,,,,,,,,,,,,,,,,47,cartinar,,,,,355.4151,357.3972,1,0,1.4562,,0,28,28,46,1,REAL,FAKE,,,,,,,,,,,,,,,,,
,,,,,,,,,5b78542ef642ed0001517ca0,Mexican,13 or older,"no, only English or Spanish",no,2025-07-24_09h22.23.788,empathy_intonation_perc_control,2024.2.4,MacIntel,114.9425287,5b78542ef642ed0001517ca0,68817205a84113384fffdfe3,6882335edb0b2fd1eb7c3ee5,,,,,,,,,,,,,1,,,,,,,,,,,,,,,,,,,,,,,,,,,,,,,,,,,,,88,acantilado,,,,,357.3985,359.1971,0,0,1.2702,,0,29,29,87,1,REAL,FAKE,,,,,,,,,,,,,,,,,
,,,,,,,,,5b78542ef642ed0001517ca0,Mexican,13 or older,"no, only English or Spanish",no,2025-07-24_09h22.23.788,empathy_intonation_perc_control,2024.2.4,MacIntel,114.9425287,5b78542ef642ed0001517ca0,68817205a84113384fffdfe3,6882335edb0b2fd1eb7c3ee5,,,,,,,,,,,,,0,,,,,,,,,,,,,,,,,,,,,,,,,,,,,,,,,,,,,53,vegada,,,,,359.1982,360.5385,0,1,0.8145,,0,30,30,52,1,REAL,FAKE,,,,,,,,,,,,,,,,,
,,,,,,,,,5b78542ef642ed0001517ca0,Mexican,13 or older,"no, only English or Spanish",no,2025-07-24_09h22.23.788,empathy_intonation_perc_control,2024.2.4,MacIntel,114.9425287,5b78542ef642ed0001517ca0,68817205a84113384fffdfe3,6882335edb0b2fd1eb7c3ee5,,,,,,,,,,,,,0,,,,,,,,,,,,,,,,,,,,,,,,,,,,,,,,,,,,,92,click the 0 key.,,,,,360.5396,362.2137,0,1,1.1422,,0,31,31,91,1,REAL,FAKE,,,,,,,,,,,,,,,,,
,,,,,,,,,5b78542ef642ed0001517ca0,Mexican,13 or older,"no, only English or Spanish",no,2025-07-24_09h22.23.788,empathy_intonation_perc_control,2024.2.4,MacIntel,114.9425287,5b78542ef642ed0001517ca0,68817205a84113384fffdfe3,6882335edb0b2fd1eb7c3ee5,,,,,,,,,,,,,1,,,,,,,,,,,,,,,,,,,,,,,,,,,,,,,,,,,,,80,hormiga,,,,,362.215,365.0386,0,0,2.2966,,0,32,32,79,1,REAL,FAKE,,,,,,,,,,,,,,,,,
,,,,,,,,,5b78542ef642ed0001517ca0,Mexican,13 or older,"no, only English or Spanish",no,2025-07-24_09h22.23.788,empathy_intonation_perc_control,2024.2.4,MacIntel,114.9425287,5b78542ef642ed0001517ca0,68817205a84113384fffdfe3,6882335edb0b2fd1eb7c3ee5,,,,,,,,,,,,,1,,,,,,,,,,,,,,,,,,,,,,,,,,,,,,,,,,,,,5,zapato,,,,,365.0398,366.5388,1,1,0.9538,,0,33,33,4,1,REAL,FAKE,,,,,,,,,,,,,,,,,
,,,,,,,,,5b78542ef642ed0001517ca0,Mexican,13 or older,"no, only English or Spanish",no,2025-07-24_09h22.23.788,empathy_intonation_perc_control,2024.2.4,MacIntel,114.9425287,5b78542ef642ed0001517ca0,68817205a84113384fffdfe3,6882335edb0b2fd1eb7c3ee5,,,,,,,,,,,,,0,,,,,,,,,,,,,,,,,,,,,,,,,,,,,,,,,,,,,19,brecedad,,,,,366.5402,368.697,0,1,1.6352,,0,34,34,18,1,REAL,FAKE,,,,,,,,,,,,,,,,,
,,,,,,,,,5b78542ef642ed0001517ca0,Mexican,13 or older,"no, only English or Spanish",no,2025-07-24_09h22.23.788,empathy_intonation_perc_control,2024.2.4,MacIntel,114.9425287,5b78542ef642ed0001517ca0,68817205a84113384fffdfe3,6882335edb0b2fd1eb7c3ee5,,,,,,,,,,,,,0,,,,,,,,,,,,,,,,,,,,,,,,,,,,,,,,,,,,,1,terzo,,,,,368.6986,369.9636,0,1,0.7383,,0,35,35,0,1,REAL,FAKE,,,,,,,,,,,,,,,,,
,,,,,,,,,5b78542ef642ed0001517ca0,Mexican,13 or older,"no, only English or Spanish",no,2025-07-24_09h22.23.788,empathy_intonation_perc_control,2024.2.4,MacIntel,114.9425287,5b78542ef642ed0001517ca0,68817205a84113384fffdfe3,6882335edb0b2fd1eb7c3ee5,,,,,,,,,,,,,1,,,,,,,,,,,,,,,,,,,,,,,,,,,,,,,,,,,,,68,alegre,,,,,369.9644,371.5548,1,1,1.0672,,0,36,36,67,1,REAL,FAKE,,,,,,,,,,,,,,,,,
,,,,,,,,,5b78542ef642ed0001517ca0,Mexican,13 or older,"no, only English or Spanish",no,2025-07-24_09h22.23.788,empathy_intonation_perc_control,2024.2.4,MacIntel,114.9425287,5b78542ef642ed0001517ca0,68817205a84113384fffdfe3,6882335edb0b2fd1eb7c3ee5,,,,,,,,,,,,,0,,,,,,,,,,,,,,,,,,,,,,,,,,,,,,,,,,,,,84,escuto,,,,,371.5558,372.805,0,1,0.7258,,0,37,37,83,1,REAL,FAKE,,,,,,,,,,,,,,,,,
,,,,,,,,,5b78542ef642ed0001517ca0,Mexican,13 or older,"no, only English or Spanish",no,2025-07-24_09h22.23.788,empathy_intonation_perc_control,2024.2.4,MacIntel,114.9425287,5b78542ef642ed0001517ca0,68817205a84113384fffdfe3,6882335edb0b2fd1eb7c3ee5,,,,,,,,,,,,,1,,,,,,,,,,,,,,,,,,,,,,,,,,,,,,,,,,,,,91,click the 1 key.,,,,,372.8062,374.2049,1,1,0.8719,,0,38,38,90,1,REAL,FAKE,,,,,,,,,,,,,,,,,
,,,,,,,,,5b78542ef642ed0001517ca0,Mexican,13 or older,"no, only English or Spanish",no,2025-07-24_09h22.23.788,empathy_intonation_perc_control,2024.2.4,MacIntel,114.9425287,5b78542ef642ed0001517ca0,68817205a84113384fffdfe3,6882335edb0b2fd1eb7c3ee5,,,,,,,,,,,,,1,,,,,,,,,,,,,,,,,,,,,,,,,,,,,,,,,,,,,64,orgulloso,,,,,374.2059,375.9463,0,0,1.2244,,0,39,39,63,1,REAL,FAKE,,,,,,,,,,,,,,,,,
,,,,,,,,,5b78542ef642ed0001517ca0,Mexican,13 or older,"no, only English or Spanish",no,2025-07-24_09h22.23.788,empathy_intonation_perc_control,2024.2.4,MacIntel,114.9425287,5b78542ef642ed0001517ca0,68817205a84113384fffdfe3,6882335edb0b2fd1eb7c3ee5,,,,,,,,,,,,,0,,,,,,,,,,,,,,,,,,,,,,,,,,,,,,,,,,,,,10,antar,,,,,375.9476,377.472,1,0,0.9917,,0,40,40,9,1,REAL,FAKE,,,,,,,,,,,,,,,,,
,,,,,,,,,5b78542ef642ed0001517ca0,Mexican,13 or older,"no, only English or Spanish",no,2025-07-24_09h22.23.788,empathy_intonation_perc_control,2024.2.4,MacIntel,114.9425287,5b78542ef642ed0001517ca0,68817205a84113384fffdfe3,6882335edb0b2fd1eb7c3ee5,,,,,,,,,,,,,1,,,,,,,,,,,,,,,,,,,,,,,,,,,,,,,,,,,,,83,guante,,,,,377.473,378.9222,0,0,0.9183,,0,41,41,82,1,REAL,FAKE,,,,,,,,,,,,,,,,,
,,,,,,,,,5b78542ef642ed0001517ca0,Mexican,13 or older,"no, only English or Spanish",no,2025-07-24_09h22.23.788,empathy_intonation_perc_control,2024.2.4,MacIntel,114.9425287,5b78542ef642ed0001517ca0,68817205a84113384fffdfe3,6882335edb0b2fd1eb7c3ee5,,,,,,,,,,,,,1,,,,,,,,,,,,,,,,,,,,,,,,,,,,,,,,,,,,,49,ganar,,,,,378.9234,380.2302,0,0,0.782,,0,42,42,48,1,REAL,FAKE,,,,,,,,,,,,,,,,,
,,,,,,,,,5b78542ef642ed0001517ca0,Mexican,13 or older,"no, only English or Spanish",no,2025-07-24_09h22.23.788,empathy_intonation_perc_control,2024.2.4,MacIntel,114.9425287,5b78542ef642ed0001517ca0,68817205a84113384fffdfe3,6882335edb0b2fd1eb7c3ee5,,,,,,,,,,,,,0,,,,,,,,,,,,,,,,,,,,,,,,,,,,,,,,,,,,,29,decar,,,,,380.231,382.0799,1,0,1.3248,,0,43,43,28,1,REAL,FAKE,,,,,,,,,,,,,,,,,
,,,,,,,,,5b78542ef642ed0001517ca0,Mexican,13 or older,"no, only English or Spanish",no,2025-07-24_09h22.23.788,empathy_intonation_perc_control,2024.2.4,MacIntel,114.9425287,5b78542ef642ed0001517ca0,68817205a84113384fffdfe3,6882335edb0b2fd1eb7c3ee5,,,,,,,,,,,,,0,,,,,,,,,,,,,,,,,,,,,,,,,,,,,,,,,,,,,72,pemición,,,,,382.0807,383.5718,0,1,0.9613,,0,44,44,71,1,REAL,FAKE,,,,,,,,,,,,,,,,,
,,,,,,,,,5b78542ef642ed0001517ca0,Mexican,13 or older,"no, only English or Spanish",no,2025-07-24_09h22.23.788,empathy_intonation_perc_control,2024.2.4,MacIntel,114.9425287,5b78542ef642ed0001517ca0,68817205a84113384fffdfe3,6882335edb0b2fd1eb7c3ee5,,,,,,,,,,,,,1,,,,,,,,,,,,,,,,,,,,,,,,,,,,,,,,,,,,,9,hacha,,,,,383.573,385.2214,1,1,1.1239,,0,45,45,8,1,REAL,FAKE,,,,,,,,,,,,,,,,,
,,,,,,,,,5b78542ef642ed0001517ca0,Mexican,13 or older,"no, only English or Spanish",no,2025-07-24_09h22.23.788,empathy_intonation_perc_control,2024.2.4,MacIntel,114.9425287,5b78542ef642ed0001517ca0,68817205a84113384fffdfe3,6882335edb0b2fd1eb7c3ee5,,,,,,,,,,,,,1,,,,,,,,,,,,,,,,,,,,,,,,,,,,,,,,,,,,,76,atar,,,,,385.2224,386.522,0,0,0.7735,,0,46,46,75,1,REAL,FAKE,,,,,,,,,,,,,,,,,
,,,,,,,,,5b78542ef642ed0001517ca0,Mexican,13 or older,"no, only English or Spanish",no,2025-07-24_09h22.23.788,empathy_intonation_perc_control,2024.2.4,MacIntel,114.9425287,5b78542ef642ed0001517ca0,68817205a84113384fffdfe3,6882335edb0b2fd1eb7c3ee5,,,,,,,,,,,,,1,,,,,,,,,,,,,,,,,,,,,,,,,,,,,,,,,,,,,40,alfombra,,,,,386.5234,388.3631,0,0,1.3174,,0,47,47,39,1,REAL,FAKE,,,,,,,,,,,,,,,,,
,,,,,,,,,5b78542ef642ed0001517ca0,Mexican,13 or older,"no, only English or Spanish",no,2025-07-24_09h22.23.788,empathy_intonation_perc_control,2024.2.4,MacIntel,114.9425287,5b78542ef642ed0001517ca0,68817205a84113384fffdfe3,6882335edb0b2fd1eb7c3ee5,,,,,,,,,,,,,0,,,,,,,,,,,,,,,,,,,,,,,,,,,,,,,,,,,,,23,lampera,,,,,388.3641,389.455,0,1,0.5728,,0,48,48,22,1,REAL,FAKE,,,,,,,,,,,,,,,,,
,,,,,,,,,5b78542ef642ed0001517ca0,Mexican,13 or older,"no, only English or Spanish",no,2025-07-24_09h22.23.788,empathy_intonation_perc_control,2024.2.4,MacIntel,114.9425287,5b78542ef642ed0001517ca0,68817205a84113384fffdfe3,6882335edb0b2fd1eb7c3ee5,,,,,,,,,,,,,1,,,,,,,,,,,,,,,,,,,,,,,,,,,,,,,,,,,,,73,hervidor,,,,,389.4561,391.4885,0,0,1.5092,,0,49,49,72,1,REAL,FAKE,,,,,,,,,,,,,,,,,
,,,,,,,,,5b78542ef642ed0001517ca0,Mexican,13 or older,"no, only English or Spanish",no,2025-07-24_09h22.23.788,empathy_intonation_perc_control,2024.2.4,MacIntel,114.9425287,5b78542ef642ed0001517ca0,68817205a84113384fffdfe3,6882335edb0b2fd1eb7c3ee5,,,,,,,,,,,,,1,,,,,,,,,,,,,,,,,,,,,,,,,,,,,,,,,,,,,62,flaco,,,,,391.4896,392.9053,0,0,0.8902,,0,50,50,61,1,REAL,FAKE,,,,,,,,,,,,,,,,,
,,,,,,,,,5b78542ef642ed0001517ca0,Mexican,13 or older,"no, only English or Spanish",no,2025-07-24_09h22.23.788,empathy_intonation_perc_control,2024.2.4,MacIntel,114.9425287,5b78542ef642ed0001517ca0,68817205a84113384fffdfe3,6882335edb0b2fd1eb7c3ee5,,,,,,,,,,,,,1,,,,,,,,,,,,,,,,,,,,,,,,,,,,,,,,,,,,,36,loro,,,,,392.9062,394.1551,0,0,0.7191,,0,51,51,35,1,REAL,FAKE,,,,,,,,,,,,,,,,,
,,,,,,,,,5b78542ef642ed0001517ca0,Mexican,13 or older,"no, only English or Spanish",no,2025-07-24_09h22.23.788,empathy_intonation_perc_control,2024.2.4,MacIntel,114.9425287,5b78542ef642ed0001517ca0,68817205a84113384fffdfe3,6882335edb0b2fd1eb7c3ee5,,,,,,,,,,,,,1,,,,,,,,,,,,,,,,,,,,,,,,,,,,,,,,,,,,,22,lacayo,,,,,394.156,395.1628,0,0,0.4862,,0,52,52,21,1,REAL,FAKE,,,,,,,,,,,,,,,,,
,,,,,,,,,5b78542ef642ed0001517ca0,Mexican,13 or older,"no, only English or Spanish",no,2025-07-24_09h22.23.788,empathy_intonation_perc_control,2024.2.4,MacIntel,114.9425287,5b78542ef642ed0001517ca0,68817205a84113384fffdfe3,6882335edb0b2fd1eb7c3ee5,,,,,,,,,,,,,0,,,,,,,,,,,,,,,,,,,,,,,,,,,,,,,,,,,,,17,floroso,,,,,395.1634,396.4136,0,1,0.7338,,0,53,53,16,1,REAL,FAKE,,,,,,,,,,,,,,,,,
,,,,,,,,,5b78542ef642ed0001517ca0,Mexican,13 or older,"no, only English or Spanish",no,2025-07-24_09h22.23.788,empathy_intonation_perc_control,2024.2.4,MacIntel,114.9425287,5b78542ef642ed0001517ca0,68817205a84113384fffdfe3,6882335edb0b2fd1eb7c3ee5,,,,,,,,,,,,,1,,,,,,,,,,,,,,,,,,,,,,,,,,,,,,,,,,,,,75,yacer,,,,,396.4146,397.5635,0,0,0.6209,,0,54,54,74,1,REAL,FAKE,,,,,,,,,,,,,,,,,
,,,,,,,,,5b78542ef642ed0001517ca0,Mexican,13 or older,"no, only English or Spanish",no,2025-07-24_09h22.23.788,empathy_intonation_perc_control,2024.2.4,MacIntel,114.9425287,5b78542ef642ed0001517ca0,68817205a84113384fffdfe3,6882335edb0b2fd1eb7c3ee5,,,,,,,,,,,,,1,,,,,,,,,,,,,,,,,,,,,,,,,,,,,,,,,,,,,7,pésimo,,,,,397.5644,399.3302,0,0,1.2412,,0,55,55,6,1,REAL,FAKE,,,,,,,,,,,,,,,,,
,,,,,,,,,5b78542ef642ed0001517ca0,Mexican,13 or older,"no, only English or Spanish",no,2025-07-24_09h22.23.788,empathy_intonation_perc_control,2024.2.4,MacIntel,114.9425287,5b78542ef642ed0001517ca0,68817205a84113384fffdfe3,6882335edb0b2fd1eb7c3ee5,,,,,,,,,,,,,1,,,,,,,,,,,,,,,,,,,,,,,,,,,,,,,,,,,,,45,jilguero,,,,,399.3313,400.5886,0,0,0.7316,,0,56,56,44,1,REAL,FAKE,,,,,,,,,,,,,,,,,
,,,,,,,,,5b78542ef642ed0001517ca0,Mexican,13 or older,"no, only English or Spanish",no,2025-07-24_09h22.23.788,empathy_intonation_perc_control,2024.2.4,MacIntel,114.9425287,5b78542ef642ed0001517ca0,68817205a84113384fffdfe3,6882335edb0b2fd1eb7c3ee5,,,,,,,,,,,,,0,,,,,,,,,,,,,,,,,,,,,,,,,,,,,,,,,,,,,35,rompido,,,,,400.5901,401.8298,0,1,0.719,,0,57,57,34,1,REAL,FAKE,,,,,,,,,,,,,,,,,
,,,,,,,,,5b78542ef642ed0001517ca0,Mexican,13 or older,"no, only English or Spanish",no,2025-07-24_09h22.23.788,empathy_intonation_perc_control,2024.2.4,MacIntel,114.9425287,5b78542ef642ed0001517ca0,68817205a84113384fffdfe3,6882335edb0b2fd1eb7c3ee5,,,,,,,,,,,,,1,,,,,,,,,,,,,,,,,,,,,,,,,,,,,,,,,,,,,31,pandilla,,,,,401.8308,403.2384,0,0,0.884,,0,58,58,30,1,REAL,FAKE,,,,,,,,,,,,,,,,,
,,,,,,,,,5b78542ef642ed0001517ca0,Mexican,13 or older,"no, only English or Spanish",no,2025-07-24_09h22.23.788,empathy_intonation_perc_control,2024.2.4,MacIntel,114.9425287,5b78542ef642ed0001517ca0,68817205a84113384fffdfe3,6882335edb0b2fd1eb7c3ee5,,,,,,,,,,,,,1,,,,,,,,,,,,,,,,,,,,,,,,,,,,,,,,,,,,,55,nevar,,,,,403.2393,404.7636,0,0,0.9973,,0,59,59,54,1,REAL,FAKE,,,,,,,,,,,,,,,,,
,,,,,,,,,5b78542ef642ed0001517ca0,Mexican,13 or older,"no, only English or Spanish",no,2025-07-24_09h22.23.788,empathy_intonation_perc_control,2024.2.4,MacIntel,114.9425287,5b78542ef642ed0001517ca0,68817205a84113384fffdfe3,6882335edb0b2fd1eb7c3ee5,,,,,,,,,,,,,1,,,,,,,,,,,,,,,,,,,,,,,,,,,,,,,,,,,,,44,cuchara,,,,,404.7645,406.3548,1,1,1.066,,0,60,60,43,1,REAL,FAKE,,,,,,,,,,,,,,,,,
,,,,,,,,,5b78542ef642ed0001517ca0,Mexican,13 or older,"no, only English or Spanish",no,2025-07-24_09h22.23.788,empathy_intonation_perc_control,2024.2.4,MacIntel,114.9425287,5b78542ef642ed0001517ca0,68817205a84113384fffdfe3,6882335edb0b2fd1eb7c3ee5,,,,,,,,,,,,,1,,,,,,,,,,,,,,,,,,,,,,,,,,,,,,,,,,,,,57,tacaño,,,,,406.3559,407.7131,0,0,0.8342,,0,61,61,56,1,REAL,FAKE,,,,,,,,,,,,,,,,,
,,,,,,,,,5b78542ef642ed0001517ca0,Mexican,13 or older,"no, only English or Spanish",no,2025-07-24_09h22.23.788,empathy_intonation_perc_control,2024.2.4,MacIntel,114.9425287,5b78542ef642ed0001517ca0,68817205a84113384fffdfe3,6882335edb0b2fd1eb7c3ee5,,,,,,,,,,,,,0,,,,,,,,,,,,,,,,,,,,,,,,,,,,,,,,,,,,,82,empirador,,,,,407.7143,409.0711,0,1,0.8348,,0,62,62,81,1,REAL,FAKE,,,,,,,,,,,,,,,,,
,,,,,,,,,5b78542ef642ed0001517ca0,Mexican,13 or older,"no, only English or Spanish",no,2025-07-24_09h22.23.788,empathy_intonation_perc_control,2024.2.4,MacIntel,114.9425287,5b78542ef642ed0001517ca0,68817205a84113384fffdfe3,6882335edb0b2fd1eb7c3ee5,,,,,,,,,,,,,1,,,,,,,,,,,,,,,,,,,,,,,,,,,,,,,,,,,,,26,secuestro,,,,,409.0722,410.6133,0,0,1.0293,,0,63,63,25,1,REAL,FAKE,,,,,,,,,,,,,,,,,
,,,,,,,,,5b78542ef642ed0001517ca0,Mexican,13 or older,"no, only English or Spanish",no,2025-07-24_09h22.23.788,empathy_intonation_perc_control,2024.2.4,MacIntel,114.9425287,5b78542ef642ed0001517ca0,68817205a84113384fffdfe3,6882335edb0b2fd1eb7c3ee5,,,,,,,,,,,,,1,,,,,,,,,,,,,,,,,,,,,,,,,,,,,,,,,,,,,77,tiburón,,,,,410.6137,412.4299,0,0,1.2959,,0,64,64,76,1,REAL,FAKE,,,,,,,,,,,,,,,,,
,,,,,,,,,5b78542ef642ed0001517ca0,Mexican,13 or older,"no, only English or Spanish",no,2025-07-24_09h22.23.788,empathy_intonation_perc_control,2024.2.4,MacIntel,114.9425287,5b78542ef642ed0001517ca0,68817205a84113384fffdfe3,6882335edb0b2fd1eb7c3ee5,,,,,,,,,,,,,1,,,,,,,,,,,,,,,,,,,,,,,,,,,,,,,,,,,,,11,cenefa,,,,,412.4312,414.3051,0,0,1.3512,,0,65,65,10,1,REAL,FAKE,,,,,,,,,,,,,,,,,
,,,,,,,,,5b78542ef642ed0001517ca0,Mexican,13 or older,"no, only English or Spanish",no,2025-07-24_09h22.23.788,empathy_intonation_perc_control,2024.2.4,MacIntel,114.9425287,5b78542ef642ed0001517ca0,68817205a84113384fffdfe3,6882335edb0b2fd1eb7c3ee5,,,,,,,,,,,,,0,,,,,,,,,,,,,,,,,,,,,,,,,,,,,,,,,,,,,50,flamida,,,,,414.3061,415.6552,0,1,0.8243,,0,66,66,49,1,REAL,FAKE,,,,,,,,,,,,,,,,,
,,,,,,,,,5b78542ef642ed0001517ca0,Mexican,13 or older,"no, only English or Spanish",no,2025-07-24_09h22.23.788,empathy_intonation_perc_control,2024.2.4,MacIntel,114.9425287,5b78542ef642ed0001517ca0,68817205a84113384fffdfe3,6882335edb0b2fd1eb7c3ee5,,,,,,,,,,,,,0,,,,,,,,,,,,,,,,,,,,,,,,,,,,,,,,,,,,,27,acutación,,,,,415.6559,417.9467,1,0,1.7656,,0,67,67,26,1,REAL,FAKE,,,,,,,,,,,,,,,,,
,,,,,,,,,5b78542ef642ed0001517ca0,Mexican,13 or older,"no, only English or Spanish",no,2025-07-24_09h22.23.788,empathy_intonation_perc_control,2024.2.4,MacIntel,114.9425287,5b78542ef642ed0001517ca0,68817205a84113384fffdfe3,6882335edb0b2fd1eb7c3ee5,,,,,,,,,,,,,1,,,,,,,,,,,,,,,,,,,,,,,,,,,,,,,,,,,,,61,seda,,,,,417.9477,419.2135,0,0,0.7358,,0,68,68,60,1,REAL,FAKE,,,,,,,,,,,,,,,,,
,,,,,,,,,5b78542ef642ed0001517ca0,Mexican,13 or older,"no, only English or Spanish",no,2025-07-24_09h22.23.788,empathy_intonation_perc_control,2024.2.4,MacIntel,114.9425287,5b78542ef642ed0001517ca0,68817205a84113384fffdfe3,6882335edb0b2fd1eb7c3ee5,,,,,,,,,,,,,1,,,,,,,,,,,,,,,,,,,,,,,,,,,,,,,,,,,,,41,rebuscar,,,,,419.2144,421.0461,1,1,1.3124,,0,69,69,40,1,REAL,FAKE,,,,,,,,,,,,,,,,,
,,,,,,,,,5b78542ef642ed0001517ca0,Mexican,13 or older,"no, only English or Spanish",no,2025-07-24_09h22.23.788,empathy_intonation_perc_control,2024.2.4,MacIntel,114.9425287,5b78542ef642ed0001517ca0,68817205a84113384fffdfe3,6882335edb0b2fd1eb7c3ee5,,,,,,,,,,,,,0,,,,,,,,,,,,,,,,,,,,,,,,,,,,,,,,,,,,,33,pauca,,,,,421.0473,422.3385,0,1,0.7673,,0,70,70,32,1,REAL,FAKE,,,,,,,,,,,,,,,,,
,,,,,,,,,5b78542ef642ed0001517ca0,Mexican,13 or older,"no, only English or Spanish",no,2025-07-24_09h22.23.788,empathy_intonation_perc_control,2024.2.4,MacIntel,114.9425287,5b78542ef642ed0001517ca0,68817205a84113384fffdfe3,6882335edb0b2fd1eb7c3ee5,,,,,,,,,,,,,1,,,,,,,,,,,,,,,,,,,,,,,,,,,,,,,,,,,,,56,musgo,,,,,422.3396,423.7548,0,0,0.8913,,0,71,71,55,1,REAL,FAKE,,,,,,,,,,,,,,,,,
,,,,,,,,,5b78542ef642ed0001517ca0,Mexican,13 or older,"no, only English or Spanish",no,2025-07-24_09h22.23.788,empathy_intonation_perc_control,2024.2.4,MacIntel,114.9425287,5b78542ef642ed0001517ca0,68817205a84113384fffdfe3,6882335edb0b2fd1eb7c3ee5,,,,,,,,,,,,,1,,,,,,,,,,,,,,,,,,,,,,,,,,,,,,,,,,,,,78,frondoso,,,,,423.7555,425.2713,0,0,0.9861,,0,72,72,77,1,REAL,FAKE,,,,,,,,,,,,,,,,,
,,,,,,,,,5b78542ef642ed0001517ca0,Mexican,13 or older,"no, only English or Spanish",no,2025-07-24_09h22.23.788,empathy_intonation_perc_control,2024.2.4,MacIntel,114.9425287,5b78542ef642ed0001517ca0,68817205a84113384fffdfe3,6882335edb0b2fd1eb7c3ee5,,,,,,,,,,,,,1,,,,,,,,,,,,,,,,,,,,,,,,,,,,,,,,,,,,,52,camisa,,,,,425.2723,426.5802,0,0,0.7753,,0,73,73,51,1,REAL,FAKE,,,,,,,,,,,,,,,,,
,,,,,,,,,5b78542ef642ed0001517ca0,Mexican,13 or older,"no, only English or Spanish",no,2025-07-24_09h22.23.788,empathy_intonation_perc_control,2024.2.4,MacIntel,114.9425287,5b78542ef642ed0001517ca0,68817205a84113384fffdfe3,6882335edb0b2fd1eb7c3ee5,,,,,,,,,,,,,1,,,,,,,,,,,,,,,,,,,,,,,,,,,,,,,,,,,,,54,fomentar,,,,,426.5811,427.8382,0,0,0.7308,,0,74,74,53,1,REAL,FAKE,,,,,,,,,,,,,,,,,
,,,,,,,,,5b78542ef642ed0001517ca0,Mexican,13 or older,"no, only English or Spanish",no,2025-07-24_09h22.23.788,empathy_intonation_perc_control,2024.2.4,MacIntel,114.9425287,5b78542ef642ed0001517ca0,68817205a84113384fffdfe3,6882335edb0b2fd1eb7c3ee5,,,,,,,,,,,,,1,,,,,,,,,,,,,,,,,,,,,,,,,,,,,,,,,,,,,90,clavel,,,,,427.8393,429.0716,0,0,0.7111,,0,75,75,89,1,REAL,FAKE,,,,,,,,,,,,,,,,,
,,,,,,,,,5b78542ef642ed0001517ca0,Mexican,13 or older,"no, only English or Spanish",no,2025-07-24_09h22.23.788,empathy_intonation_perc_control,2024.2.4,MacIntel,114.9425287,5b78542ef642ed0001517ca0,68817205a84113384fffdfe3,6882335edb0b2fd1eb7c3ee5,,,,,,,,,,,,,1,,,,,,,,,,,,,,,,,,,,,,,,,,,,,,,,,,,,,25,bisagra,,,,,429.073,430.2884,0,0,0.6839,,0,76,76,24,1,REAL,FAKE,,,,,,,,,,,,,,,,,
,,,,,,,,,5b78542ef642ed0001517ca0,Mexican,13 or older,"no, only English or Spanish",no,2025-07-24_09h22.23.788,empathy_intonation_perc_control,2024.2.4,MacIntel,114.9425287,5b78542ef642ed0001517ca0,68817205a84113384fffdfe3,6882335edb0b2fd1eb7c3ee5,,,,,,,,,,,,,1,,,,,,,,,,,,,,,,,,,,,,,,,,,,,,,,,,,,,60,matar,,,,,430.2894,432.08,1,1,1.2704,,0,77,77,59,1,REAL,FAKE,,,,,,,,,,,,,,,,,
,,,,,,,,,5b78542ef642ed0001517ca0,Mexican,13 or older,"no, only English or Spanish",no,2025-07-24_09h22.23.788,empathy_intonation_perc_control,2024.2.4,MacIntel,114.9425287,5b78542ef642ed0001517ca0,68817205a84113384fffdfe3,6882335edb0b2fd1eb7c3ee5,,,,,,,,,,,,,1,,,,,,,,,,,,,,,,,,,,,,,,,,,,,,,,,,,,,20,ávido,,,,,432.0818,433.488,0,0,0.8795,,0,78,78,19,1,REAL,FAKE,,,,,,,,,,,,,,,,,
,,,,,,,,,5b78542ef642ed0001517ca0,Mexican,13 or older,"no, only English or Spanish",no,2025-07-24_09h22.23.788,empathy_intonation_perc_control,2024.2.4,MacIntel,114.9425287,5b78542ef642ed0001517ca0,68817205a84113384fffdfe3,6882335edb0b2fd1eb7c3ee5,,,,,,,,,,,,,1,,,,,,,,,,,,,,,,,,,,,,,,,,,,,,,,,,,,,59,besar,,,,,433.4891,434.8884,1,1,0.8778,,0,79,79,58,1,REAL,FAKE,,,,,,,,,,,,,,,,,
,,,,,,,,,5b78542ef642ed0001517ca0,Mexican,13 or older,"no, only English or Spanish",no,2025-07-24_09h22.23.788,empathy_intonation_perc_control,2024.2.4,MacIntel,114.9425287,5b78542ef642ed0001517ca0,68817205a84113384fffdfe3,6882335edb0b2fd1eb7c3ee5,,,,,,,,,,,,,1,,,,,,,,,,,,,,,,,,,,,,,,,,,,,,,,,,,,,48,ladrón,,,,,434.8896,437.1208,0,0,1.7115,,0,80,80,47,1,REAL,FAKE,,,,,,,,,,,,,,,,,
,,,,,,,,,5b78542ef642ed0001517ca0,Mexican,13 or older,"no, only English or Spanish",no,2025-07-24_09h22.23.788,empathy_intonation_perc_control,2024.2.4,MacIntel,114.9425287,5b78542ef642ed0001517ca0,68817205a84113384fffdfe3,6882335edb0b2fd1eb7c3ee5,,,,,,,,,,,,,0,,,,,,,,,,,,,,,,,,,,,,,,,,,,,,,,,,,,,58,plaudir,,,,,437.1219,438.3801,0,1,0.7451,,0,81,81,57,1,REAL,FAKE,,,,,,,,,,,,,,,,,
,,,,,,,,,5b78542ef642ed0001517ca0,Mexican,13 or older,"no, only English or Spanish",no,2025-07-24_09h22.23.788,empathy_intonation_perc_control,2024.2.4,MacIntel,114.9425287,5b78542ef642ed0001517ca0,68817205a84113384fffdfe3,6882335edb0b2fd1eb7c3ee5,,,,,,,,,,,,,0,,,,,,,,,,,,,,,,,,,,,,,,,,,,,,,,,,,,,30,alardio,,,,,438.381,439.5882,0,1,0.6835,,0,82,82,29,1,REAL,FAKE,,,,,,,,,,,,,,,,,
,,,,,,,,,5b78542ef642ed0001517ca0,Mexican,13 or older,"no, only English or Spanish",no,2025-07-24_09h22.23.788,empathy_intonation_perc_control,2024.2.4,MacIntel,114.9425287,5b78542ef642ed0001517ca0,68817205a84113384fffdfe3,6882335edb0b2fd1eb7c3ee5,,,,,,,,,,,,,1,,,,,,,,,,,,,,,,,,,,,,,,,,,,,,,,,,,,,13,helar,,,,,439.5893,440.8128,0,0,0.6985,,0,83,83,12,1,REAL,FAKE,,,,,,,,,,,,,,,,,
,,,,,,,,,5b78542ef642ed0001517ca0,Mexican,13 or older,"no, only English or Spanish",no,2025-07-24_09h22.23.788,empathy_intonation_perc_control,2024.2.4,MacIntel,114.9425287,5b78542ef642ed0001517ca0,68817205a84113384fffdfe3,6882335edb0b2fd1eb7c3ee5,,,,,,,,,,,,,1,,,,,,,,,,,,,,,,,,,,,,,,,,,,,,,,,,,,,2,pellizcar,,,,,440.8141,441.9883,0,0,0.6453,,0,84,84,1,1,REAL,FAKE,,,,,,,,,,,,,,,,,
,,,,,,,,,5b78542ef642ed0001517ca0,Mexican,13 or older,"no, only English or Spanish",no,2025-07-24_09h22.23.788,empathy_intonation_perc_control,2024.2.4,MacIntel,114.9425287,5b78542ef642ed0001517ca0,68817205a84113384fffdfe3,6882335edb0b2fd1eb7c3ee5,,,,,,,,,,,,,0,,,,,,,,,,,,,,,,,,,,,,,,,,,,,,,,,,,,,32,fatacidad,,,,,441.9891,443.7042,0,1,1.1924,,0,85,85,31,1,REAL,FAKE,,,,,,,,,,,,,,,,,
,,,,,,,,,5b78542ef642ed0001517ca0,Mexican,13 or older,"no, only English or Spanish",no,2025-07-24_09h22.23.788,empathy_intonation_perc_control,2024.2.4,MacIntel,114.9425287,5b78542ef642ed0001517ca0,68817205a84113384fffdfe3,6882335edb0b2fd1eb7c3ee5,,,,,,,,,,,,,1,,,,,,,,,,,,,,,,,,,,,,,,,,,,,,,,,,,,,46,martillo,,,,,443.7052,444.9465,0,0,0.7148,,0,86,86,45,1,REAL,FAKE,,,,,,,,,,,,,,,,,
,,,,,,,,,5b78542ef642ed0001517ca0,Mexican,13 or older,"no, only English or Spanish",no,2025-07-24_09h22.23.788,empathy_intonation_perc_control,2024.2.4,MacIntel,114.9425287,5b78542ef642ed0001517ca0,68817205a84113384fffdfe3,6882335edb0b2fd1eb7c3ee5,,,,,,,,,,,,,1,,,,,,,,,,,,,,,,,,,,,,,,,,,,,,,,,,,,,69,engatusar,,,,,444.9475,446.1963,0,0,0.7264,,0,87,87,68,1,REAL,FAKE,,,,,,,,,,,,,,,,,
,,,,,,,,,5b78542ef642ed0001517ca0,Mexican,13 or older,"no, only English or Spanish",no,2025-07-24_09h22.23.788,empathy_intonation_perc_control,2024.2.4,MacIntel,114.9425287,5b78542ef642ed0001517ca0,68817205a84113384fffdfe3,6882335edb0b2fd1eb7c3ee5,,,,,,,,,,,,,1,,,,,,,,,,,,,,,,,,,,,,,,,,,,,,,,,,,,,71,polvoriento,,,,,446.1976,447.3551,0,0,0.6365,,0,88,88,70,1,REAL,FAKE,,,,,,,,,,,,,,,,,
,,,,,,,,,5b78542ef642ed0001517ca0,Mexican,13 or older,"no, only English or Spanish",no,2025-07-24_09h22.23.788,empathy_intonation_perc_control,2024.2.4,MacIntel,114.9425287,5b78542ef642ed0001517ca0,68817205a84113384fffdfe3,6882335edb0b2fd1eb7c3ee5,,,,,,,,,,,,,1,,,,,,,,,,,,,,,,,,,,,,,,,,,,,,,,,,,,,37,granuja,,,,,447.3563,448.6209,0,0,0.7398,,0,89,89,36,1,REAL,FAKE,,,,,,,,,,,,,,,,,
,,,,,,,,,5b78542ef642ed0001517ca0,Mexican,13 or older,"no, only English or Spanish",no,2025-07-24_09h22.23.788,empathy_intonation_perc_control,2024.2.4,MacIntel,114.9425287,5b78542ef642ed0001517ca0,68817205a84113384fffdfe3,6882335edb0b2fd1eb7c3ee5,,,,,,,,,,,,,1,,,,,,,,,,,,,,,,,,,,,,,,,,,,,,,,,,,,,43,canela,,,,,448.6218,449.8385,0,0,0.7005,,0,90,90,42,1,REAL,FAKE,,,,,,,,,,,,,,,,,
,,,,,,,,,5b78542ef642ed0001517ca0,Mexican,13 or older,"no, only English or Spanish",no,2025-07-24_09h22.23.788,empathy_intonation_perc_control,2024.2.4,MacIntel,114.9425287,5b78542ef642ed0001517ca0,68817205a84113384fffdfe3,6882335edb0b2fd1eb7c3ee5,,,,,,,,,,,,,1,,,,,,,,,,,,,,,,,,,,,,,,,,,,,,,,,,,,,51,candado,,,,,449.8397,451.0966,1,1,0.7331,,0,91,91,50,1,REAL,FAKE,,,,,,,,,,,,,,,,,
,,,,,,,,,5b78542ef642ed0001517ca0,Mexican,13 or older,"no, only English or Spanish",no,2025-07-24_09h22.23.788,empathy_intonation_perc_control,2024.2.4,MacIntel,114.9425287,5b78542ef642ed0001517ca0,68817205a84113384fffdfe3,6882335edb0b2fd1eb7c3ee5,,,,,,,,,,,,,,,,,,,,,,,,,,,,,,,,,,,,,,,,,,,,,,,,,,,,,,,,,,,,,,,,,,,,,451.0971,459.2886,,,,,,,,,,,,,,,
,,,,,,,,,5b78542ef642ed0001517ca0,Mexican,13 or older,"no, only English or Spanish",no,2025-07-24_09h22.23.788,empathy_intonation_perc_control,2024.2.4,MacIntel,114.9425287,5b78542ef642ed0001517ca0,68817205a84113384fffdfe3,6882335edb0b2fd1eb7c3ee5,,,,,,,,,,,,,,,,,,,,,,,,,,,1,,,,,,,,,,,,,,,,,,,,,,,,,,,,,,,,,,,,,,,,,,,,459.2946,462.9804,slightly agree,0,0,0,0,1,I can easily tell if someone else wants to enter a conversation.,1,0,1,0,,
,,,,,,,,,5b78542ef642ed0001517ca0,Mexican,13 or older,"no, only English or Spanish",no,2025-07-24_09h22.23.788,empathy_intonation_perc_control,2024.2.4,MacIntel,114.9425287,5b78542ef642ed0001517ca0,68817205a84113384fffdfe3,6882335edb0b2fd1eb7c3ee5,,,,,,,,,,,,,,,,,,,,,,,,,,,2,,,,,,,,,,,,,,,,,,,,,,,,,,,,,,,,,,,,,,,,,,,,462.9819,465.5713,slightly agree,0,1,1,1,1,I prefer animals to humans.,0,1,0,0,,
,,,,,,,,,5b78542ef642ed0001517ca0,Mexican,13 or older,"no, only English or Spanish",no,2025-07-24_09h22.23.788,empathy_intonation_perc_control,2024.2.4,MacIntel,114.9425287,5b78542ef642ed0001517ca0,68817205a84113384fffdfe3,6882335edb0b2fd1eb7c3ee5,,,,,,,,,,,,,,,,,,,,,,,,,,,3,,,,,,,,,,,,,,,,,,,,,,,,,,,,,,,,,,,,,,,,,,,,465.5724,467.8048,slightly disagree,0,2,2,2,1,I try to keep up with the current trends and fashions.,0,1,0,0,,
,,,,,,,,,5b78542ef642ed0001517ca0,Mexican,13 or older,"no, only English or Spanish",no,2025-07-24_09h22.23.788,empathy_intonation_perc_control,2024.2.4,MacIntel,114.9425287,5b78542ef642ed0001517ca0,68817205a84113384fffdfe3,6882335edb0b2fd1eb7c3ee5,,,,,,,,,,,,,,,,,,,,,,,,,,,4,,,,,,,,,,,,,,,,,,,,,,,,,,,,,,,,,,,,,,,,,,,,467.806,478.6024,slightly agree,0,3,3,3,1,"I find it difficult to explain to others things that I understand easily,   when they don't understand it first time.",1,0,0,1,,
,,,,,,,,,5b78542ef642ed0001517ca0,Mexican,13 or older,"no, only English or Spanish",no,2025-07-24_09h22.23.788,empathy_intonation_perc_control,2024.2.4,MacIntel,114.9425287,5b78542ef642ed0001517ca0,68817205a84113384fffdfe3,6882335edb0b2fd1eb7c3ee5,,,,,,,,,,,,,,,,,,,,,,,,,,,5,,,,,,,,,,,,,,,,,,,,,,,,,,,,,,,,,,,,,,,,,,,,478.6062,480.1498,slightly agree,0,4,4,4,1,I dream most nights.,0,1,0,0,,
,,,,,,,,,5b78542ef642ed0001517ca0,Mexican,13 or older,"no, only English or Spanish",no,2025-07-24_09h22.23.788,empathy_intonation_perc_control,2024.2.4,MacIntel,114.9425287,5b78542ef642ed0001517ca0,68817205a84113384fffdfe3,6882335edb0b2fd1eb7c3ee5,,,,,,,,,,,,,,,,,,,,,,,,,,,6,,,,,,,,,,,,,,,,,,,,,,,,,,,,,,,,,,,,,,,,,,,,480.1516,482.0673,slightly agree,0,5,5,5,1,I really enjoy caring for other people.,1,0,1,0,,
,,,,,,,,,5b78542ef642ed0001517ca0,Mexican,13 or older,"no, only English or Spanish",no,2025-07-24_09h22.23.788,empathy_intonation_perc_control,2024.2.4,MacIntel,114.9425287,5b78542ef642ed0001517ca0,68817205a84113384fffdfe3,6882335edb0b2fd1eb7c3ee5,,,,,,,,,,,,,,,,,,,,,,,,,,,7,,,,,,,,,,,,,,,,,,,,,,,,,,,,,,,,,,,,,,,,,,,,482.0693,484.7755,slightly disagree,0,6,6,6,1,I try to solve my own problems rather than discussing them with others.,0,1,0,0,,
,,,,,,,,,5b78542ef642ed0001517ca0,Mexican,13 or older,"no, only English or Spanish",no,2025-07-24_09h22.23.788,empathy_intonation_perc_control,2024.2.4,MacIntel,114.9425287,5b78542ef642ed0001517ca0,68817205a84113384fffdfe3,6882335edb0b2fd1eb7c3ee5,,,,,,,,,,,,,,,,,,,,,,,,,,,8,,,,,,,,,,,,,,,,,,,,,,,,,,,,,,,,,,,,,,,,,,,,484.777,487.7923,slightly disagree,0,7,7,7,1,I find it hard to know what to do in a social situation.,1,0,0,1,,
,,,,,,,,,5b78542ef642ed0001517ca0,Mexican,13 or older,"no, only English or Spanish",no,2025-07-24_09h22.23.788,empathy_intonation_perc_control,2024.2.4,MacIntel,114.9425287,5b78542ef642ed0001517ca0,68817205a84113384fffdfe3,6882335edb0b2fd1eb7c3ee5,,,,,,,,,,,,,,,,,,,,,,,,,,,9,,,,,,,,,,,,,,,,,,,,,,,,,,,,,,,,,,,,,,,,,,,,487.7941,490.3676,strongly disagree,0,8,8,8,1,I am at my best first thing in the morning.,0,1,0,0,,
,,,,,,,,,5b78542ef642ed0001517ca0,Mexican,13 or older,"no, only English or Spanish",no,2025-07-24_09h22.23.788,empathy_intonation_perc_control,2024.2.4,MacIntel,114.9425287,5b78542ef642ed0001517ca0,68817205a84113384fffdfe3,6882335edb0b2fd1eb7c3ee5,,,,,,,,,,,,,,,,,,,,,,,,,,,10,,,,,,,,,,,,,,,,,,,,,,,,,,,,,,,,,,,,,,,,,,,,490.3686,494.4586,slightly disagree,0,9,9,9,1,People often tell me that I went too far in driving my point home in a discussion.,1,0,0,1,,
,,,,,,,,,5b78542ef642ed0001517ca0,Mexican,13 or older,"no, only English or Spanish",no,2025-07-24_09h22.23.788,empathy_intonation_perc_control,2024.2.4,MacIntel,114.9425287,5b78542ef642ed0001517ca0,68817205a84113384fffdfe3,6882335edb0b2fd1eb7c3ee5,,,,,,,,,,,,,,,,,,,,,,,,,,,11,,,,,,,,,,,,,,,,,,,,,,,,,,,,,,,,,,,,,,,,,,,,494.4592,497.317,strongly disagree,0,10,10,10,1,It doesn't bother me too much if I am late meeting a friend.,1,0,0,1,,
,,,,,,,,,5b78542ef642ed0001517ca0,Mexican,13 or older,"no, only English or Spanish",no,2025-07-24_09h22.23.788,empathy_intonation_perc_control,2024.2.4,MacIntel,114.9425287,5b78542ef642ed0001517ca0,68817205a84113384fffdfe3,6882335edb0b2fd1eb7c3ee5,,,,,,,,,,,,,,,,,,,,,,,,,,,12,,,,,,,,,,,,,,,,,,,,,,,,,,,,,,,,,,,,,,,,,,,,497.3187,502.7127,slightly disagree,0,11,11,11,1,"Friendships and relationships are just too difficult, so I tend not to 
  bother with them.",1,0,0,1,,
,,,,,,,,,5b78542ef642ed0001517ca0,Mexican,13 or older,"no, only English or Spanish",no,2025-07-24_09h22.23.788,empathy_intonation_perc_control,2024.2.4,MacIntel,114.9425287,5b78542ef642ed0001517ca0,68817205a84113384fffdfe3,6882335edb0b2fd1eb7c3ee5,,,,,,,,,,,,,,,,,,,,,,,,,,,13,,,,,,,,,,,,,,,,,,,,,,,,,,,,,,,,,,,,,,,,,,,,502.7137,505.6463,slightly agree,0,12,12,12,1,"I would never break a law, no matter how minor.",0,1,0,0,,
,,,,,,,,,5b78542ef642ed0001517ca0,Mexican,13 or older,"no, only English or Spanish",no,2025-07-24_09h22.23.788,empathy_intonation_perc_control,2024.2.4,MacIntel,114.9425287,5b78542ef642ed0001517ca0,68817205a84113384fffdfe3,6882335edb0b2fd1eb7c3ee5,,,,,,,,,,,,,,,,,,,,,,,,,,,14,,,,,,,,,,,,,,,,,,,,,,,,,,,,,,,,,,,,,,,,,,,,505.6468,511.0544,slightly disagree,0,13,13,13,1,I often find it difficult to judge if something is rude or polite.,1,0,0,1,,
,,,,,,,,,5b78542ef642ed0001517ca0,Mexican,13 or older,"no, only English or Spanish",no,2025-07-24_09h22.23.788,empathy_intonation_perc_control,2024.2.4,MacIntel,114.9425287,5b78542ef642ed0001517ca0,68817205a84113384fffdfe3,6882335edb0b2fd1eb7c3ee5,,,,,,,,,,,,,,,,,,,,,,,,,,,15,,,,,,,,,,,,,,,,,,,,,,,,,,,,,,,,,,,,,,,,,,,,511.0554,515.9214,slightly disagree,0,14,14,14,1,"In a conversation, I tend to focus on my own thoughts rather than on what 
  my listener might be thinking.",1,0,0,1,,
,,,,,,,,,5b78542ef642ed0001517ca0,Mexican,13 or older,"no, only English or Spanish",no,2025-07-24_09h22.23.788,empathy_intonation_perc_control,2024.2.4,MacIntel,114.9425287,5b78542ef642ed0001517ca0,68817205a84113384fffdfe3,6882335edb0b2fd1eb7c3ee5,,,,,,,,,,,,,,,,,,,,,,,,,,,16,,,,,,,,,,,,,,,,,,,,,,,,,,,,,,,,,,,,,,,,,,,,515.9229,519.7462,strongly disagree,0,15,15,15,1,I prefer practical jokes to verbal humor.,0,1,0,0,,
,,,,,,,,,5b78542ef642ed0001517ca0,Mexican,13 or older,"no, only English or Spanish",no,2025-07-24_09h22.23.788,empathy_intonation_perc_control,2024.2.4,MacIntel,114.9425287,5b78542ef642ed0001517ca0,68817205a84113384fffdfe3,6882335edb0b2fd1eb7c3ee5,,,,,,,,,,,,,,,,,,,,,,,,,,,17,,,,,,,,,,,,,,,,,,,,,,,,,,,,,,,,,,,,,,,,,,,,519.7476,529.0961,slightly disagree,0,16,16,16,1,I live life for today rather than the future.,0,1,0,0,,
,,,,,,,,,5b78542ef642ed0001517ca0,Mexican,13 or older,"no, only English or Spanish",no,2025-07-24_09h22.23.788,empathy_intonation_perc_control,2024.2.4,MacIntel,114.9425287,5b78542ef642ed0001517ca0,68817205a84113384fffdfe3,6882335edb0b2fd1eb7c3ee5,,,,,,,,,,,,,,,,,,,,,,,,,,,18,,,,,,,,,,,,,,,,,,,,,,,,,,,,,,,,,,,,,,,,,,,,529.0969,531.5711,strongly disagree,0,17,17,17,1,"When I was a child, I enjoyed cutting up worms to see what would happen.",1,0,0,1,,
,,,,,,,,,5b78542ef642ed0001517ca0,Mexican,13 or older,"no, only English or Spanish",no,2025-07-24_09h22.23.788,empathy_intonation_perc_control,2024.2.4,MacIntel,114.9425287,5b78542ef642ed0001517ca0,68817205a84113384fffdfe3,6882335edb0b2fd1eb7c3ee5,,,,,,,,,,,,,,,,,,,,,,,,,,,19,,,,,,,,,,,,,,,,,,,,,,,,,,,,,,,,,,,,,,,,,,,,531.572,536.7294,slightly agree,0,18,18,18,1,I can pick up quickly if someone says one thing but means another.,1,0,1,0,,
,,,,,,,,,5b78542ef642ed0001517ca0,Mexican,13 or older,"no, only English or Spanish",no,2025-07-24_09h22.23.788,empathy_intonation_perc_control,2024.2.4,MacIntel,114.9425287,5b78542ef642ed0001517ca0,68817205a84113384fffdfe3,6882335edb0b2fd1eb7c3ee5,,,,,,,,,,,,,,,,,,,,,,,,,,,20,,,,,,,,,,,,,,,,,,,,,,,,,,,,,,,,,,,,,,,,,,,,536.7306,539.2878,slightly agree,0,19,19,19,1,I tend to have very strong opinions about morality.,0,1,0,0,,
,,,,,,,,,5b78542ef642ed0001517ca0,Mexican,13 or older,"no, only English or Spanish",no,2025-07-24_09h22.23.788,empathy_intonation_perc_control,2024.2.4,MacIntel,114.9425287,5b78542ef642ed0001517ca0,68817205a84113384fffdfe3,6882335edb0b2fd1eb7c3ee5,,,,,,,,,,,,,,,,,,,,,,,,,,,21,,,,,,,,,,,,,,,,,,,,,,,,,,,,,,,,,,,,,,,,,,,,539.289,541.9794,slightly disagree,0,20,20,20,1,It is hard for me to see why some things upset people so much.,1,0,0,1,,
,,,,,,,,,5b78542ef642ed0001517ca0,Mexican,13 or older,"no, only English or Spanish",no,2025-07-24_09h22.23.788,empathy_intonation_perc_control,2024.2.4,MacIntel,114.9425287,5b78542ef642ed0001517ca0,68817205a84113384fffdfe3,6882335edb0b2fd1eb7c3ee5,,,,,,,,,,,,,,,,,,,,,,,,,,,22,,,,,,,,,,,,,,,,,,,,,,,,,,,,,,,,,,,,,,,,,,,,541.9804,543.9959,strongly agree,0,21,21,21,1,I find it easy to put myself in somebody else's shoes.,1,0,1,0,,
,,,,,,,,,5b78542ef642ed0001517ca0,Mexican,13 or older,"no, only English or Spanish",no,2025-07-24_09h22.23.788,empathy_intonation_perc_control,2024.2.4,MacIntel,114.9425287,5b78542ef642ed0001517ca0,68817205a84113384fffdfe3,6882335edb0b2fd1eb7c3ee5,,,,,,,,,,,,,,,,,,,,,,,,,,,23,,,,,,,,,,,,,,,,,,,,,,,,,,,,,,,,,,,,,,,,,,,,543.9966,547.8044,slightly disagree,0,22,22,22,1,I think that good manners are the most important thing a parent can teach their child.,0,1,0,0,,
