instructions_2afc.started,instructions_2afc.stopped,instructions_2afc_loop.thisRepN,instructions_2afc_loop.thisTrialN,instructions_2afc_loop.thisN,instructions_2afc_loop.thisIndex,instructions_2afc_loop.ran,instructions_text,continue_text,participant_id,"What variety of Spanish are you most familiar with? (e.g., Peruvian, Spanish, Mexican)",At what age did you begin learning Spanish?,Are you proficient in any languages other than English/Spanish?,"Are you familiar with Caribbean (e.g., Caribbean, Puerto Rican) or Galician Spanish?",date,expName,psychopyVersion,OS,frameRate,id,study_id,session,practice_2afc.started,practice_2afc.stopped,key_resp_2afc_practice.keys,key_resp_2afc_practice.corr,key_resp_2afc_practice.rt,key_resp_2afc_practice.duration,trials_2afc_practice_loop.thisRepN,trials_2afc_practice_loop.thisTrialN,trials_2afc_practice_loop.thisN,trials_2afc_practice_loop.thisIndex,trials_2afc_practice_loop.ran,path,correct_response,check_2afc.started,check_2afc.stopped,trial_2afc.started,trial_2afc.stopped,key_resp_2afc_trial.keys,key_resp_2afc_trial.corr,key_resp_2afc_trial.rt,key_resp_2afc_trial.duration,trials_2afc_loop.thisRepN,trials_2afc_loop.thisTrialN,trials_2afc_loop.thisN,trials_2afc_loop.thisIndex,trials_2afc_loop.ran,item_num,target,variety,instructions_lextale.started,instructions_lextale.stopped,instructions_lextale_loop.thisRepN,instructions_lextale_loop.thisTrialN,instructions_lextale_loop.thisN,instructions_lextale_loop.thisIndex,instructions_lextale_loop.ran,practice_lextale.started,practice_lextale.stopped,key_resp_lextale_practice.keys,key_resp_lextale_practice.corr,key_resp_lextale_practice.rt,key_resp_lextale_practice.duration,practice_feedback_lextale.started,practice_feedback_lextale.stopped,trials_lextale_practice_loop.thisRepN,trials_lextale_practice_loop.thisTrialN,trials_lextale_practice_loop.thisN,trials_lextale_practice_loop.thisIndex,trials_lextale_practice_loop.ran,stim,word,prac_button_real,prac_button_false,check_lextale.started,check_lextale.stopped,trial_lextale.started,trial_lextale.stopped,key_resp_lextale_trial.keys,key_resp_lextale_trial.corr,key_resp_lextale_trial.rt,key_resp_lextale_trial.duration,trials_lextale_loop.thisRepN,trials_lextale_loop.thisTrialN,trials_lextale_loop.thisN,trials_lextale_loop.thisIndex,trials_lextale_loop.ran,button_real,button_false,instructions_eq.started,instructions_eq.stopped,trial_eq.started,trial_eq.stopped,slider_eq_trial.response,trials_eq_loop.thisRepN,trials_eq_loop.thisTrialN,trials_eq_loop.thisN,trials_eq_loop.thisIndex,trials_eq_loop.ran,item,is_test_item,is_distractor,is_agree_score,is_disagree_score,end_exp.started,end_exp.stopped
0.0118,5.3672,0,0,0,0,1,"In the following task you are going to hear a series of utterances. 

  You will decide if the utterances sound like questions or not using your keyboard.", (press the spacebar to continue),5be0ed4b9da2d300010ca1db,Mexican,13 or older,"yes, I am fluent in another language",yes,2025-07-23_23h26.29.239,empathy_intonation_perc_control,2024.2.4,MacIntel,60.24096386,5be0ed4b9da2d300010ca1db,68817205a84113384fffdfe3,6881a7a397fd373e83d3c0ad,,,,,,,,,,,,,,,,,,,,,,,,,,,,,,,,,,,,,,,,,,,,,,,,,,,,,,,,,,,,,,,,,,,,,,,,,,,,,,,,,,,,,
5.368,9.6841,0,1,1,1,1,"If you believe the utterance is a question, type '1' (for 'yes') and if you do not 
  believe it is a question type '0' (for 'no').

  Let's practice a bit...", (press the spacebar to continue),5be0ed4b9da2d300010ca1db,Mexican,13 or older,"yes, I am fluent in another language",yes,2025-07-23_23h26.29.239,empathy_intonation_perc_control,2024.2.4,MacIntel,60.24096386,5be0ed4b9da2d300010ca1db,68817205a84113384fffdfe3,6881a7a397fd373e83d3c0ad,,,,,,,,,,,,,,,,,,,,,,,,,,,,,,,,,,,,,,,,,,,,,,,,,,,,,,,,,,,,,,,,,,,,,,,,,,,,,,,,,,,,,
,,,,,,,,,5be0ed4b9da2d300010ca1db,Mexican,13 or older,"yes, I am fluent in another language",yes,2025-07-23_23h26.29.239,empathy_intonation_perc_control,2024.2.4,MacIntel,60.24096386,5be0ed4b9da2d300010ca1db,68817205a84113384fffdfe3,6881a7a397fd373e83d3c0ad,9.6981,13.4673,0,1,3.249,,0,0,0,6,1,./stim/wavs/peruvian_statement_filler_El-nino-habla-con-su-madre.wav,0,,,,,,,,,,,,,,,,,,,,,,,,,,,,,,,,,,,,,,,,,,,,,,,,,,,,,,,,,,,,,,,,,,,,,,,,
,,,,,,,,,5be0ed4b9da2d300010ca1db,Mexican,13 or older,"yes, I am fluent in another language",yes,2025-07-23_23h26.29.239,empathy_intonation_perc_control,2024.2.4,MacIntel,60.24096386,5be0ed4b9da2d300010ca1db,68817205a84113384fffdfe3,6881a7a397fd373e83d3c0ad,13.4685,16.5007,1,1,2.5126,,0,1,1,3,1,./stim/wavs/mexican_question_filler_Felipe-no-tiene-contrasena.wav,1,,,,,,,,,,,,,,,,,,,,,,,,,,,,,,,,,,,,,,,,,,,,,,,,,,,,,,,,,,,,,,,,,,,,,,,,
,,,,,,,,,5be0ed4b9da2d300010ca1db,Mexican,13 or older,"yes, I am fluent in another language",yes,2025-07-23_23h26.29.239,empathy_intonation_perc_control,2024.2.4,MacIntel,60.24096386,5be0ed4b9da2d300010ca1db,68817205a84113384fffdfe3,6881a7a397fd373e83d3c0ad,16.5014,29.234,0,1,12.2112,,0,2,2,7,1,./stim/wavs/puertorican_statement_filler_La-nina-pinta-con-su-amiga.wav,0,,,,,,,,,,,,,,,,,,,,,,,,,,,,,,,,,,,,,,,,,,,,,,,,,,,,,,,,,,,,,,,,,,,,,,,,
,,,,,,,,,5be0ed4b9da2d300010ca1db,Mexican,13 or older,"yes, I am fluent in another language",yes,2025-07-23_23h26.29.239,empathy_intonation_perc_control,2024.2.4,MacIntel,60.24096386,5be0ed4b9da2d300010ca1db,68817205a84113384fffdfe3,6881a7a397fd373e83d3c0ad,29.2342,32.1672,1,1,2.4102,,0,3,3,0,1,./stim/wavs/castilian_question_filler_Mi-esposo-conoce-al-chico.wav,1,,,,,,,,,,,,,,,,,,,,,,,,,,,,,,,,,,,,,,,,,,,,,,,,,,,,,,,,,,,,,,,,,,,,,,,,
,,,,,,,,,5be0ed4b9da2d300010ca1db,Mexican,13 or older,"yes, I am fluent in another language",yes,2025-07-23_23h26.29.239,empathy_intonation_perc_control,2024.2.4,MacIntel,60.24096386,5be0ed4b9da2d300010ca1db,68817205a84113384fffdfe3,6881a7a397fd373e83d3c0ad,32.1675,34.967,0,1,2.2756,,0,4,4,4,1,./stim/wavs/cuban_statement_filler_Cocinabas-por-la-noche.wav,0,,,,,,,,,,,,,,,,,,,,,,,,,,,,,,,,,,,,,,,,,,,,,,,,,,,,,,,,,,,,,,,,,,,,,,,,
,,,,,,,,,5be0ed4b9da2d300010ca1db,Mexican,13 or older,"yes, I am fluent in another language",yes,2025-07-23_23h26.29.239,empathy_intonation_perc_control,2024.2.4,MacIntel,60.24096386,5be0ed4b9da2d300010ca1db,68817205a84113384fffdfe3,6881a7a397fd373e83d3c0ad,34.9673,37.0174,1,1,1.5433,,0,5,5,1,1,./stim/wavs/argentine_question_filler_Mi-vecino-habla-mucho.wav,1,,,,,,,,,,,,,,,,,,,,,,,,,,,,,,,,,,,,,,,,,,,,,,,,,,,,,,,,,,,,,,,,,,,,,,,,
,,,,,,,,,5be0ed4b9da2d300010ca1db,Mexican,13 or older,"yes, I am fluent in another language",yes,2025-07-23_23h26.29.239,empathy_intonation_perc_control,2024.2.4,MacIntel,60.24096386,5be0ed4b9da2d300010ca1db,68817205a84113384fffdfe3,6881a7a397fd373e83d3c0ad,37.0177,39.4674,0,0,1.9171,,0,6,6,2,1,./stim/wavs/chilean_question_filler_Mi-padre-cantaba-bien.wav,1,,,,,,,,,,,,,,,,,,,,,,,,,,,,,,,,,,,,,,,,,,,,,,,,,,,,,,,,,,,,,,,,,,,,,,,,
,,,,,,,,,5be0ed4b9da2d300010ca1db,Mexican,13 or older,"yes, I am fluent in another language",yes,2025-07-23_23h26.29.239,empathy_intonation_perc_control,2024.2.4,MacIntel,60.24096386,5be0ed4b9da2d300010ca1db,68817205a84113384fffdfe3,6881a7a397fd373e83d3c0ad,39.4676,41.9177,0,1,1.9268,,0,7,7,5,1,./stim/wavs/andalusian_statement_filler_Alberto-nunca-se-afeita.wav,0,,,,,,,,,,,,,,,,,,,,,,,,,,,,,,,,,,,,,,,,,,,,,,,,,,,,,,,,,,,,,,,,,,,,,,,,
,,,,,,,,,5be0ed4b9da2d300010ca1db,Mexican,13 or older,"yes, I am fluent in another language",yes,2025-07-23_23h26.29.239,empathy_intonation_perc_control,2024.2.4,MacIntel,60.24096386,5be0ed4b9da2d300010ca1db,68817205a84113384fffdfe3,6881a7a397fd373e83d3c0ad,,,,,,,,,,,,,,41.918,48.8349,,,,,,,,,,,,,,,,,,,,,,,,,,,,,,,,,,,,,,,,,,,,,,,,,,,,,,,,,,,,,,,,,,,,,,
,,,,,,,,,5be0ed4b9da2d300010ca1db,Mexican,13 or older,"yes, I am fluent in another language",yes,2025-07-23_23h26.29.239,empathy_intonation_perc_control,2024.2.4,MacIntel,60.24096386,5be0ed4b9da2d300010ca1db,68817205a84113384fffdfe3,6881a7a397fd373e83d3c0ad,,,,,,,,,,,,./stim/wavs/castilian_match_declarative-broad-focus_Emilio-ama-la-marcha.wav,0,,,48.8446,51.4689,0,1,2.1128,,0,0,0,45,1,46,0,castilian,,,,,,,,,,,,,,,,,,,,,,,,,,,,,,,,,,,,,,,,,,,,,,,,,,,,,,,,
,,,,,,,,,5be0ed4b9da2d300010ca1db,Mexican,13 or older,"yes, I am fluent in another language",yes,2025-07-23_23h26.29.239,empathy_intonation_perc_control,2024.2.4,MacIntel,60.24096386,5be0ed4b9da2d300010ca1db,68817205a84113384fffdfe3,6881a7a397fd373e83d3c0ad,,,,,,,,,,,,./stim/wavs/mexican_match_declarative-broad-focus_David-leia-el-libro.wav,0,,,51.4694,53.6344,0,1,1.6417,,0,1,1,58,1,59,0,mexican,,,,,,,,,,,,,,,,,,,,,,,,,,,,,,,,,,,,,,,,,,,,,,,,,,,,,,,,
,,,,,,,,,5be0ed4b9da2d300010ca1db,Mexican,13 or older,"yes, I am fluent in another language",yes,2025-07-23_23h26.29.239,empathy_intonation_perc_control,2024.2.4,MacIntel,60.24096386,5be0ed4b9da2d300010ca1db,68817205a84113384fffdfe3,6881a7a397fd373e83d3c0ad,,,,,,,,,,,,./stim/wavs/castilian_mismatch_interrogative-total-yn_Mi-madre-come-la-fruta.wav,1,,,53.6348,56.3511,1,1,2.1817,,0,2,2,26,1,27,0,castilian,,,,,,,,,,,,,,,,,,,,,,,,,,,,,,,,,,,,,,,,,,,,,,,,,,,,,,,,
,,,,,,,,,5be0ed4b9da2d300010ca1db,Mexican,13 or older,"yes, I am fluent in another language",yes,2025-07-23_23h26.29.239,empathy_intonation_perc_control,2024.2.4,MacIntel,60.24096386,5be0ed4b9da2d300010ca1db,68817205a84113384fffdfe3,6881a7a397fd373e83d3c0ad,,,,,,,,,,,,./stim/wavs/mexican_match_interrogative-total-yn_Mariano-habla-del-tiempo.wav,1,,,56.3515,58.8346,1,1,1.9601,,0,3,3,16,1,17,0,mexican,,,,,,,,,,,,,,,,,,,,,,,,,,,,,,,,,,,,,,,,,,,,,,,,,,,,,,,,
,,,,,,,,,5be0ed4b9da2d300010ca1db,Mexican,13 or older,"yes, I am fluent in another language",yes,2025-07-23_23h26.29.239,empathy_intonation_perc_control,2024.2.4,MacIntel,60.24096386,5be0ed4b9da2d300010ca1db,68817205a84113384fffdfe3,6881a7a397fd373e83d3c0ad,,,,,,,,,,,,./stim/wavs/cuban_mismatch_interrogative-total-yn_Mi-novio-viene-del-lago.wav,1,,,58.8349,61.8683,0,0,2.5166,,0,4,4,32,1,33,1,cuban,,,,,,,,,,,,,,,,,,,,,,,,,,,,,,,,,,,,,,,,,,,,,,,,,,,,,,,,
,,,,,,,,,5be0ed4b9da2d300010ca1db,Mexican,13 or older,"yes, I am fluent in another language",yes,2025-07-23_23h26.29.239,empathy_intonation_perc_control,2024.2.4,MacIntel,60.24096386,5be0ed4b9da2d300010ca1db,68817205a84113384fffdfe3,6881a7a397fd373e83d3c0ad,,,,,,,,,,,,./stim/wavs/mexican_mismatch_declarative-broad-focus_Mi-tia-odia-la-lluvia.wav,0,,,61.869,64.9852,0,1,2.5961,,0,5,5,82,1,83,0,mexican,,,,,,,,,,,,,,,,,,,,,,,,,,,,,,,,,,,,,,,,,,,,,,,,,,,,,,,,
,,,,,,,,,5be0ed4b9da2d300010ca1db,Mexican,13 or older,"yes, I am fluent in another language",yes,2025-07-23_23h26.29.239,empathy_intonation_perc_control,2024.2.4,MacIntel,60.24096386,5be0ed4b9da2d300010ca1db,68817205a84113384fffdfe3,6881a7a397fd373e83d3c0ad,,,,,,,,,,,,./stim/wavs/castilian_match_interrogative-total-yn_Maria-bebe-el-vino.wav,1,,,64.9857,67.2515,1,1,1.7422,,0,6,6,3,1,4,0,castilian,,,,,,,,,,,,,,,,,,,,,,,,,,,,,,,,,,,,,,,,,,,,,,,,,,,,,,,,
,,,,,,,,,5be0ed4b9da2d300010ca1db,Mexican,13 or older,"yes, I am fluent in another language",yes,2025-07-23_23h26.29.239,empathy_intonation_perc_control,2024.2.4,MacIntel,60.24096386,5be0ed4b9da2d300010ca1db,68817205a84113384fffdfe3,6881a7a397fd373e83d3c0ad,,,,,,,,,,,,./stim/wavs/cuban_mismatch_declarative-broad-focus_El-bebe-comia-muy-bien.wav,0,,,67.2518,69.6684,0,1,1.8855,,0,7,7,73,1,74,0,cuban,,,,,,,,,,,,,,,,,,,,,,,,,,,,,,,,,,,,,,,,,,,,,,,,,,,,,,,,
,,,,,,,,,5be0ed4b9da2d300010ca1db,Mexican,13 or older,"yes, I am fluent in another language",yes,2025-07-23_23h26.29.239,empathy_intonation_perc_control,2024.2.4,MacIntel,60.24096386,5be0ed4b9da2d300010ca1db,68817205a84113384fffdfe3,6881a7a397fd373e83d3c0ad,,,,,,,,,,,,./stim/wavs/puertorican_match_declarative-broad-focus_Manuela-vende-el-carro.wav,0,,,69.6689,72.4848,0,1,2.2945,,0,8,8,66,1,67,0,puertorican,,,,,,,,,,,,,,,,,,,,,,,,,,,,,,,,,,,,,,,,,,,,,,,,,,,,,,,,
,,,,,,,,,5be0ed4b9da2d300010ca1db,Mexican,13 or older,"yes, I am fluent in another language",yes,2025-07-23_23h26.29.239,empathy_intonation_perc_control,2024.2.4,MacIntel,60.24096386,5be0ed4b9da2d300010ca1db,68817205a84113384fffdfe3,6881a7a397fd373e83d3c0ad,,,,,,,,,,,,./stim/wavs/puertorican_mismatch_declarative-broad-focus_La-nina-lava-el-plato.wav,0,,,72.4851,74.8017,0,1,1.8002,,0,9,9,87,1,88,0,puertorican,,,,,,,,,,,,,,,,,,,,,,,,,,,,,,,,,,,,,,,,,,,,,,,,,,,,,,,,
,,,,,,,,,5be0ed4b9da2d300010ca1db,Mexican,13 or older,"yes, I am fluent in another language",yes,2025-07-23_23h26.29.239,empathy_intonation_perc_control,2024.2.4,MacIntel,60.24096386,5be0ed4b9da2d300010ca1db,68817205a84113384fffdfe3,6881a7a397fd373e83d3c0ad,,,,,,,,,,,,./stim/wavs/castilian_mismatch_interrogative-total-yn_Mi-novio-viene-del-lago.wav,1,,,74.8022,77.2007,1,1,1.875,,0,10,10,27,1,28,0,castilian,,,,,,,,,,,,,,,,,,,,,,,,,,,,,,,,,,,,,,,,,,,,,,,,,,,,,,,,
,,,,,,,,,5be0ed4b9da2d300010ca1db,Mexican,13 or older,"yes, I am fluent in another language",yes,2025-07-23_23h26.29.239,empathy_intonation_perc_control,2024.2.4,MacIntel,60.24096386,5be0ed4b9da2d300010ca1db,68817205a84113384fffdfe3,6881a7a397fd373e83d3c0ad,,,,,,,,,,,,./stim/wavs/cuban_match_interrogative-total-yn_Manuela-vende-el-carro.wav,1,,,77.201,79.5019,0,0,1.7855,,0,11,11,8,1,9,1,cuban,,,,,,,,,,,,,,,,,,,,,,,,,,,,,,,,,,,,,,,,,,,,,,,,,,,,,,,,
,,,,,,,,,5be0ed4b9da2d300010ca1db,Mexican,13 or older,"yes, I am fluent in another language",yes,2025-07-23_23h26.29.239,empathy_intonation_perc_control,2024.2.4,MacIntel,60.24096386,5be0ed4b9da2d300010ca1db,68817205a84113384fffdfe3,6881a7a397fd373e83d3c0ad,,,,,,,,,,,,./stim/wavs/castilian_mismatch_declarative-broad-focus_La-maestra-vive-en-Paris.wav,0,,,79.5024,82.2686,0,1,2.2443,,0,12,12,69,1,70,0,castilian,,,,,,,,,,,,,,,,,,,,,,,,,,,,,,,,,,,,,,,,,,,,,,,,,,,,,,,,
,,,,,,,,,5be0ed4b9da2d300010ca1db,Mexican,13 or older,"yes, I am fluent in another language",yes,2025-07-23_23h26.29.239,empathy_intonation_perc_control,2024.2.4,MacIntel,60.24096386,5be0ed4b9da2d300010ca1db,68817205a84113384fffdfe3,6881a7a397fd373e83d3c0ad,,,,,,,,,,,,./stim/wavs/castilian_match_interrogative-total-yn_Manuela-vende-el-carro.wav,1,,,82.2689,85.0518,1,1,2.2512,,0,13,13,2,1,3,0,castilian,,,,,,,,,,,,,,,,,,,,,,,,,,,,,,,,,,,,,,,,,,,,,,,,,,,,,,,,
,,,,,,,,,5be0ed4b9da2d300010ca1db,Mexican,13 or older,"yes, I am fluent in another language",yes,2025-07-23_23h26.29.239,empathy_intonation_perc_control,2024.2.4,MacIntel,60.24096386,5be0ed4b9da2d300010ca1db,68817205a84113384fffdfe3,6881a7a397fd373e83d3c0ad,,,,,,,,,,,,./stim/wavs/puertorican_match_interrogative-total-yn_David-leia-el-libro.wav,1,,,85.0521,87.9854,0,0,2.4002,,0,14,14,20,1,21,1,puertorican,,,,,,,,,,,,,,,,,,,,,,,,,,,,,,,,,,,,,,,,,,,,,,,,,,,,,,,,
,,,,,,,,,5be0ed4b9da2d300010ca1db,Mexican,13 or older,"yes, I am fluent in another language",yes,2025-07-23_23h26.29.239,empathy_intonation_perc_control,2024.2.4,MacIntel,60.24096386,5be0ed4b9da2d300010ca1db,68817205a84113384fffdfe3,6881a7a397fd373e83d3c0ad,,,,,,,,,,,,./stim/wavs/castilian_match_interrogative-total-yn_Mariano-habla-del-tiempo.wav,1,,,87.986,91.9021,1,1,3.395,,0,15,15,4,1,5,0,castilian,,,,,,,,,,,,,,,,,,,,,,,,,,,,,,,,,,,,,,,,,,,,,,,,,,,,,,,,
,,,,,,,,,5be0ed4b9da2d300010ca1db,Mexican,13 or older,"yes, I am fluent in another language",yes,2025-07-23_23h26.29.239,empathy_intonation_perc_control,2024.2.4,MacIntel,60.24096386,5be0ed4b9da2d300010ca1db,68817205a84113384fffdfe3,6881a7a397fd373e83d3c0ad,,,,,,,,,,,,./stim/wavs/castilian_match_declarative-broad-focus_David-leia-el-libro.wav,0,,,91.9025,94.4185,0,1,1.9938,,0,16,16,44,1,45,0,castilian,,,,,,,,,,,,,,,,,,,,,,,,,,,,,,,,,,,,,,,,,,,,,,,,,,,,,,,,
,,,,,,,,,5be0ed4b9da2d300010ca1db,Mexican,13 or older,"yes, I am fluent in another language",yes,2025-07-23_23h26.29.239,empathy_intonation_perc_control,2024.2.4,MacIntel,60.24096386,5be0ed4b9da2d300010ca1db,68817205a84113384fffdfe3,6881a7a397fd373e83d3c0ad,,,,,,,,,,,,./stim/wavs/puertorican_match_declarative-broad-focus_Daniel-iba-a-Bolivia.wav,0,,,94.4188,96.952,0,1,2.0287,,0,17,17,63,1,64,0,puertorican,,,,,,,,,,,,,,,,,,,,,,,,,,,,,,,,,,,,,,,,,,,,,,,,,,,,,,,,
,,,,,,,,,5be0ed4b9da2d300010ca1db,Mexican,13 or older,"yes, I am fluent in another language",yes,2025-07-23_23h26.29.239,empathy_intonation_perc_control,2024.2.4,MacIntel,60.24096386,5be0ed4b9da2d300010ca1db,68817205a84113384fffdfe3,6881a7a397fd373e83d3c0ad,,,,,,,,,,,,./stim/wavs/puertorican_mismatch_declarative-broad-focus_La-maestra-vive-en-Paris.wav,0,,,96.9523,99.4023,0,1,1.9436,,0,18,18,86,1,87,0,puertorican,,,,,,,,,,,,,,,,,,,,,,,,,,,,,,,,,,,,,,,,,,,,,,,,,,,,,,,,
,,,,,,,,,5be0ed4b9da2d300010ca1db,Mexican,13 or older,"yes, I am fluent in another language",yes,2025-07-23_23h26.29.239,empathy_intonation_perc_control,2024.2.4,MacIntel,60.24096386,5be0ed4b9da2d300010ca1db,68817205a84113384fffdfe3,6881a7a397fd373e83d3c0ad,,,,,,,,,,,,./stim/wavs/cuban_match_interrogative-total-yn_Maria-bebe-el-vino.wav,1,,,99.4027,102.0021,0,0,2.0745,,0,19,19,9,1,10,1,cuban,,,,,,,,,,,,,,,,,,,,,,,,,,,,,,,,,,,,,,,,,,,,,,,,,,,,,,,,
,,,,,,,,,5be0ed4b9da2d300010ca1db,Mexican,13 or older,"yes, I am fluent in another language",yes,2025-07-23_23h26.29.239,empathy_intonation_perc_control,2024.2.4,MacIntel,60.24096386,5be0ed4b9da2d300010ca1db,68817205a84113384fffdfe3,6881a7a397fd373e83d3c0ad,,,,,,,,,,,,./stim/wavs/puertorican_match_interrogative-total-yn_Daniel-iba-a-Bolivia.wav,1,,,102.0024,104.936,0,0,2.3999,,0,20,20,19,1,20,1,puertorican,,,,,,,,,,,,,,,,,,,,,,,,,,,,,,,,,,,,,,,,,,,,,,,,,,,,,,,,
,,,,,,,,,5be0ed4b9da2d300010ca1db,Mexican,13 or older,"yes, I am fluent in another language",yes,2025-07-23_23h26.29.239,empathy_intonation_perc_control,2024.2.4,MacIntel,60.24096386,5be0ed4b9da2d300010ca1db,68817205a84113384fffdfe3,6881a7a397fd373e83d3c0ad,,,,,,,,,,,,./stim/wavs/puertorican_mismatch_interrogative-total-yn_La-maestra-vive-en-Paris.wav,1,,,104.9366,107.5519,0,0,2.0925,,0,21,21,41,1,42,1,puertorican,,,,,,,,,,,,,,,,,,,,,,,,,,,,,,,,,,,,,,,,,,,,,,,,,,,,,,,,
,,,,,,,,,5be0ed4b9da2d300010ca1db,Mexican,13 or older,"yes, I am fluent in another language",yes,2025-07-23_23h26.29.239,empathy_intonation_perc_control,2024.2.4,MacIntel,60.24096386,5be0ed4b9da2d300010ca1db,68817205a84113384fffdfe3,6881a7a397fd373e83d3c0ad,,,,,,,,,,,,./stim/wavs/cuban_match_interrogative-total-yn_Marta-abre-el-regalo.wav,1,,,107.5522,110.2358,0,0,2.1655,,0,22,22,11,1,12,1,cuban,,,,,,,,,,,,,,,,,,,,,,,,,,,,,,,,,,,,,,,,,,,,,,,,,,,,,,,,
,,,,,,,,,5be0ed4b9da2d300010ca1db,Mexican,13 or older,"yes, I am fluent in another language",yes,2025-07-23_23h26.29.239,empathy_intonation_perc_control,2024.2.4,MacIntel,60.24096386,5be0ed4b9da2d300010ca1db,68817205a84113384fffdfe3,6881a7a397fd373e83d3c0ad,,,,,,,,,,,,./stim/wavs/mexican_match_declarative-broad-focus_Daniel-iba-a-Bolivia.wav,0,,,110.2361,113.1359,0,1,2.3671,,0,23,23,57,1,58,0,mexican,,,,,,,,,,,,,,,,,,,,,,,,,,,,,,,,,,,,,,,,,,,,,,,,,,,,,,,,
,,,,,,,,,5be0ed4b9da2d300010ca1db,Mexican,13 or older,"yes, I am fluent in another language",yes,2025-07-23_23h26.29.239,empathy_intonation_perc_control,2024.2.4,MacIntel,60.24096386,5be0ed4b9da2d300010ca1db,68817205a84113384fffdfe3,6881a7a397fd373e83d3c0ad,,,,,,,,,,,,./stim/wavs/mexican_mismatch_declarative-broad-focus_El-bebe-comia-muy-bien.wav,0,,,113.1365,116.0861,0,1,2.4226,,0,24,24,78,1,79,0,mexican,,,,,,,,,,,,,,,,,,,,,,,,,,,,,,,,,,,,,,,,,,,,,,,,,,,,,,,,
,,,,,,,,,5be0ed4b9da2d300010ca1db,Mexican,13 or older,"yes, I am fluent in another language",yes,2025-07-23_23h26.29.239,empathy_intonation_perc_control,2024.2.4,MacIntel,60.24096386,5be0ed4b9da2d300010ca1db,68817205a84113384fffdfe3,6881a7a397fd373e83d3c0ad,,,,,,,,,,,,./stim/wavs/castilian_mismatch_interrogative-total-yn_Mi-tia-odia-la-lluvia.wav,1,,,116.0865,118.5693,1,1,1.9595,,0,25,25,28,1,29,0,castilian,,,,,,,,,,,,,,,,,,,,,,,,,,,,,,,,,,,,,,,,,,,,,,,,,,,,,,,,
,,,,,,,,,5be0ed4b9da2d300010ca1db,Mexican,13 or older,"yes, I am fluent in another language",yes,2025-07-23_23h26.29.239,empathy_intonation_perc_control,2024.2.4,MacIntel,60.24096386,5be0ed4b9da2d300010ca1db,68817205a84113384fffdfe3,6881a7a397fd373e83d3c0ad,,,,,,,,,,,,./stim/wavs/mexican_match_interrogative-total-yn_David-leia-el-libro.wav,1,,,118.5695,120.9528,1,1,1.8515,,0,26,26,14,1,15,0,mexican,,,,,,,,,,,,,,,,,,,,,,,,,,,,,,,,,,,,,,,,,,,,,,,,,,,,,,,,
,,,,,,,,,5be0ed4b9da2d300010ca1db,Mexican,13 or older,"yes, I am fluent in another language",yes,2025-07-23_23h26.29.239,empathy_intonation_perc_control,2024.2.4,MacIntel,60.24096386,5be0ed4b9da2d300010ca1db,68817205a84113384fffdfe3,6881a7a397fd373e83d3c0ad,,,,,,,,,,,,./stim/wavs/castilian_match_declarative-broad-focus_Marta-abre-el-regalo.wav,0,,,120.9534,123.586,0,1,2.0995,,0,27,27,49,1,50,0,castilian,,,,,,,,,,,,,,,,,,,,,,,,,,,,,,,,,,,,,,,,,,,,,,,,,,,,,,,,
,,,,,,,,,5be0ed4b9da2d300010ca1db,Mexican,13 or older,"yes, I am fluent in another language",yes,2025-07-23_23h26.29.239,empathy_intonation_perc_control,2024.2.4,MacIntel,60.24096386,5be0ed4b9da2d300010ca1db,68817205a84113384fffdfe3,6881a7a397fd373e83d3c0ad,,,,,,,,,,,,./stim/wavs/castilian_mismatch_declarative-broad-focus_El-nino-oye-el-rio.wav,0,,,123.5864,126.1024,0,1,1.9819,,0,28,28,68,1,69,0,castilian,,,,,,,,,,,,,,,,,,,,,,,,,,,,,,,,,,,,,,,,,,,,,,,,,,,,,,,,
,,,,,,,,,5be0ed4b9da2d300010ca1db,Mexican,13 or older,"yes, I am fluent in another language",yes,2025-07-23_23h26.29.239,empathy_intonation_perc_control,2024.2.4,MacIntel,60.24096386,5be0ed4b9da2d300010ca1db,68817205a84113384fffdfe3,6881a7a397fd373e83d3c0ad,,,,,,,,,,,,./stim/wavs/castilian_mismatch_declarative-broad-focus_La-nina-lava-el-plato.wav,0,,,126.1027,129.0529,0,1,2.4322,,0,29,29,70,1,71,0,castilian,,,,,,,,,,,,,,,,,,,,,,,,,,,,,,,,,,,,,,,,,,,,,,,,,,,,,,,,
,,,,,,,,,5be0ed4b9da2d300010ca1db,Mexican,13 or older,"yes, I am fluent in another language",yes,2025-07-23_23h26.29.239,empathy_intonation_perc_control,2024.2.4,MacIntel,60.24096386,5be0ed4b9da2d300010ca1db,68817205a84113384fffdfe3,6881a7a397fd373e83d3c0ad,,,,,,,,,,,,./stim/wavs/mexican_mismatch_declarative-broad-focus_La-maestra-vive-en-Paris.wav,0,,,129.0532,131.7862,0,1,2.2042,,0,30,30,80,1,81,0,mexican,,,,,,,,,,,,,,,,,,,,,,,,,,,,,,,,,,,,,,,,,,,,,,,,,,,,,,,,
,,,,,,,,,5be0ed4b9da2d300010ca1db,Mexican,13 or older,"yes, I am fluent in another language",yes,2025-07-23_23h26.29.239,empathy_intonation_perc_control,2024.2.4,MacIntel,60.24096386,5be0ed4b9da2d300010ca1db,68817205a84113384fffdfe3,6881a7a397fd373e83d3c0ad,,,,,,,,,,,,./stim/wavs/cuban_match_interrogative-total-yn_Mariano-habla-del-tiempo.wav,1,,,131.7866,134.703,0,0,2.4008,,0,31,31,10,1,11,1,cuban,,,,,,,,,,,,,,,,,,,,,,,,,,,,,,,,,,,,,,,,,,,,,,,,,,,,,,,,
,,,,,,,,,5be0ed4b9da2d300010ca1db,Mexican,13 or older,"yes, I am fluent in another language",yes,2025-07-23_23h26.29.239,empathy_intonation_perc_control,2024.2.4,MacIntel,60.24096386,5be0ed4b9da2d300010ca1db,68817205a84113384fffdfe3,6881a7a397fd373e83d3c0ad,,,,,,,,,,,,./stim/wavs/castilian_mismatch_interrogative-total-yn_La-maestra-vive-en-Paris.wav,1,,,134.7033,137.3699,1,1,2.1463,,0,32,32,24,1,25,0,castilian,,,,,,,,,,,,,,,,,,,,,,,,,,,,,,,,,,,,,,,,,,,,,,,,,,,,,,,,
,,,,,,,,,5be0ed4b9da2d300010ca1db,Mexican,13 or older,"yes, I am fluent in another language",yes,2025-07-23_23h26.29.239,empathy_intonation_perc_control,2024.2.4,MacIntel,60.24096386,5be0ed4b9da2d300010ca1db,68817205a84113384fffdfe3,6881a7a397fd373e83d3c0ad,,,,,,,,,,,,./stim/wavs/castilian_mismatch_declarative-broad-focus_Mi-novio-viene-del-lago.wav,0,,,137.3701,139.97,0,1,2.0681,,0,33,33,71,1,72,0,castilian,,,,,,,,,,,,,,,,,,,,,,,,,,,,,,,,,,,,,,,,,,,,,,,,,,,,,,,,
,,,,,,,,,5be0ed4b9da2d300010ca1db,Mexican,13 or older,"yes, I am fluent in another language",yes,2025-07-23_23h26.29.239,empathy_intonation_perc_control,2024.2.4,MacIntel,60.24096386,5be0ed4b9da2d300010ca1db,68817205a84113384fffdfe3,6881a7a397fd373e83d3c0ad,,,,,,,,,,,,./stim/wavs/mexican_match_interrogative-total-yn_Marta-abre-el-regalo.wav,1,,,139.9703,142.2532,1,1,1.749,,0,34,34,17,1,18,0,mexican,,,,,,,,,,,,,,,,,,,,,,,,,,,,,,,,,,,,,,,,,,,,,,,,,,,,,,,,
,,,,,,,,,5be0ed4b9da2d300010ca1db,Mexican,13 or older,"yes, I am fluent in another language",yes,2025-07-23_23h26.29.239,empathy_intonation_perc_control,2024.2.4,MacIntel,60.24096386,5be0ed4b9da2d300010ca1db,68817205a84113384fffdfe3,6881a7a397fd373e83d3c0ad,,,,,,,,,,,,./stim/wavs/puertorican_mismatch_declarative-broad-focus_El-hombre-mira-la-luna.wav,0,,,142.2535,145.0532,0,1,2.2656,,0,35,35,84,1,85,0,puertorican,,,,,,,,,,,,,,,,,,,,,,,,,,,,,,,,,,,,,,,,,,,,,,,,,,,,,,,,
,,,,,,,,,5be0ed4b9da2d300010ca1db,Mexican,13 or older,"yes, I am fluent in another language",yes,2025-07-23_23h26.29.239,empathy_intonation_perc_control,2024.2.4,MacIntel,60.24096386,5be0ed4b9da2d300010ca1db,68817205a84113384fffdfe3,6881a7a397fd373e83d3c0ad,,,,,,,,,,,,./stim/wavs/cuban_mismatch_interrogative-total-yn_Mi-tia-odia-la-lluvia.wav,1,,,145.0535,148.5867,0,0,3.0192,,0,36,36,33,1,34,1,cuban,,,,,,,,,,,,,,,,,,,,,,,,,,,,,,,,,,,,,,,,,,,,,,,,,,,,,,,,
,,,,,,,,,5be0ed4b9da2d300010ca1db,Mexican,13 or older,"yes, I am fluent in another language",yes,2025-07-23_23h26.29.239,empathy_intonation_perc_control,2024.2.4,MacIntel,60.24096386,5be0ed4b9da2d300010ca1db,68817205a84113384fffdfe3,6881a7a397fd373e83d3c0ad,,,,,,,,,,,,./stim/wavs/castilian_mismatch_interrogative-total-yn_La-nina-lava-el-plato.wav,1,,,148.5872,151.153,1,1,2.0448,,0,37,37,25,1,26,0,castilian,,,,,,,,,,,,,,,,,,,,,,,,,,,,,,,,,,,,,,,,,,,,,,,,,,,,,,,,
,,,,,,,,,5be0ed4b9da2d300010ca1db,Mexican,13 or older,"yes, I am fluent in another language",yes,2025-07-23_23h26.29.239,empathy_intonation_perc_control,2024.2.4,MacIntel,60.24096386,5be0ed4b9da2d300010ca1db,68817205a84113384fffdfe3,6881a7a397fd373e83d3c0ad,,,,,,,,,,,,./stim/wavs/mexican_mismatch_declarative-broad-focus_El-hombre-mira-la-luna.wav,0,,,151.1535,153.6867,0,1,2.0161,,0,38,38,79,1,80,0,mexican,,,,,,,,,,,,,,,,,,,,,,,,,,,,,,,,,,,,,,,,,,,,,,,,,,,,,,,,
,,,,,,,,,5be0ed4b9da2d300010ca1db,Mexican,13 or older,"yes, I am fluent in another language",yes,2025-07-23_23h26.29.239,empathy_intonation_perc_control,2024.2.4,MacIntel,60.24096386,5be0ed4b9da2d300010ca1db,68817205a84113384fffdfe3,6881a7a397fd373e83d3c0ad,,,,,,,,,,,,./stim/wavs/cuban_match_interrogative-total-yn_Ana-lleva-el-abrigo.wav,1,,,153.6869,156.4702,0,0,2.2514,,0,39,39,6,1,7,1,cuban,,,,,,,,,,,,,,,,,,,,,,,,,,,,,,,,,,,,,,,,,,,,,,,,,,,,,,,,
,,,,,,,,,5be0ed4b9da2d300010ca1db,Mexican,13 or older,"yes, I am fluent in another language",yes,2025-07-23_23h26.29.239,empathy_intonation_perc_control,2024.2.4,MacIntel,60.24096386,5be0ed4b9da2d300010ca1db,68817205a84113384fffdfe3,6881a7a397fd373e83d3c0ad,,,,,,,,,,,,./stim/wavs/puertorican_match_interrogative-total-yn_Manuela-vende-el-carro.wav,1,,,156.4707,159.5704,0,0,2.5711,,0,40,40,22,1,23,1,puertorican,,,,,,,,,,,,,,,,,,,,,,,,,,,,,,,,,,,,,,,,,,,,,,,,,,,,,,,,
,,,,,,,,,5be0ed4b9da2d300010ca1db,Mexican,13 or older,"yes, I am fluent in another language",yes,2025-07-23_23h26.29.239,empathy_intonation_perc_control,2024.2.4,MacIntel,60.24096386,5be0ed4b9da2d300010ca1db,68817205a84113384fffdfe3,6881a7a397fd373e83d3c0ad,,,,,,,,,,,,./stim/wavs/cuban_match_interrogative-total-yn_Daniel-iba-a-Bolivia.wav,1,,,159.5709,164.187,0,0,4.0946,,0,41,41,7,1,8,1,cuban,,,,,,,,,,,,,,,,,,,,,,,,,,,,,,,,,,,,,,,,,,,,,,,,,,,,,,,,
,,,,,,,,,5be0ed4b9da2d300010ca1db,Mexican,13 or older,"yes, I am fluent in another language",yes,2025-07-23_23h26.29.239,empathy_intonation_perc_control,2024.2.4,MacIntel,60.24096386,5be0ed4b9da2d300010ca1db,68817205a84113384fffdfe3,6881a7a397fd373e83d3c0ad,,,,,,,,,,,,./stim/wavs/castilian_match_declarative-broad-focus_Mariano-habla-del-tiempo.wav,0,,,164.1873,169.7201,0,1,4.9997,,0,42,42,48,1,49,0,castilian,,,,,,,,,,,,,,,,,,,,,,,,,,,,,,,,,,,,,,,,,,,,,,,,,,,,,,,,
,,,,,,,,,5be0ed4b9da2d300010ca1db,Mexican,13 or older,"yes, I am fluent in another language",yes,2025-07-23_23h26.29.239,empathy_intonation_perc_control,2024.2.4,MacIntel,60.24096386,5be0ed4b9da2d300010ca1db,68817205a84113384fffdfe3,6881a7a397fd373e83d3c0ad,,,,,,,,,,,,./stim/wavs/castilian_match_interrogative-total-yn_David-leia-el-libro.wav,1,,,169.7205,172.0703,1,1,1.8283,,0,43,43,0,1,1,0,castilian,,,,,,,,,,,,,,,,,,,,,,,,,,,,,,,,,,,,,,,,,,,,,,,,,,,,,,,,
,,,,,,,,,5be0ed4b9da2d300010ca1db,Mexican,13 or older,"yes, I am fluent in another language",yes,2025-07-23_23h26.29.239,empathy_intonation_perc_control,2024.2.4,MacIntel,60.24096386,5be0ed4b9da2d300010ca1db,68817205a84113384fffdfe3,6881a7a397fd373e83d3c0ad,,,,,,,,,,,,./stim/wavs/cuban_mismatch_interrogative-total-yn_Mi-madre-come-la-fruta.wav,1,,,172.0706,175.2875,0,0,2.685,,0,44,44,31,1,32,1,cuban,,,,,,,,,,,,,,,,,,,,,,,,,,,,,,,,,,,,,,,,,,,,,,,,,,,,,,,,
,,,,,,,,,5be0ed4b9da2d300010ca1db,Mexican,13 or older,"yes, I am fluent in another language",yes,2025-07-23_23h26.29.239,empathy_intonation_perc_control,2024.2.4,MacIntel,60.24096386,5be0ed4b9da2d300010ca1db,68817205a84113384fffdfe3,6881a7a397fd373e83d3c0ad,,,,,,,,,,,,./stim/wavs/castilian_match_declarative-broad-focus_Maria-bebe-el-vino.wav,0,,,175.288,178.2709,0,1,2.4496,,0,45,45,47,1,48,0,castilian,,,,,,,,,,,,,,,,,,,,,,,,,,,,,,,,,,,,,,,,,,,,,,,,,,,,,,,,
,,,,,,,,,5be0ed4b9da2d300010ca1db,Mexican,13 or older,"yes, I am fluent in another language",yes,2025-07-23_23h26.29.239,empathy_intonation_perc_control,2024.2.4,MacIntel,60.24096386,5be0ed4b9da2d300010ca1db,68817205a84113384fffdfe3,6881a7a397fd373e83d3c0ad,,,,,,,,,,,,./stim/wavs/puertorican_match_declarative-broad-focus_David-leia-el-libro.wav,0,,,178.2715,181.0542,0,1,2.2504,,0,46,46,64,1,65,0,puertorican,,,,,,,,,,,,,,,,,,,,,,,,,,,,,,,,,,,,,,,,,,,,,,,,,,,,,,,,
,,,,,,,,,5be0ed4b9da2d300010ca1db,Mexican,13 or older,"yes, I am fluent in another language",yes,2025-07-23_23h26.29.239,empathy_intonation_perc_control,2024.2.4,MacIntel,60.24096386,5be0ed4b9da2d300010ca1db,68817205a84113384fffdfe3,6881a7a397fd373e83d3c0ad,,,,,,,,,,,,./stim/wavs/mexican_match_declarative-broad-focus_Marta-abre-el-regalo.wav,0,,,181.0549,184.0707,0,1,2.4842,,0,47,47,61,1,62,0,mexican,,,,,,,,,,,,,,,,,,,,,,,,,,,,,,,,,,,,,,,,,,,,,,,,,,,,,,,,
,,,,,,,,,5be0ed4b9da2d300010ca1db,Mexican,13 or older,"yes, I am fluent in another language",yes,2025-07-23_23h26.29.239,empathy_intonation_perc_control,2024.2.4,MacIntel,60.24096386,5be0ed4b9da2d300010ca1db,68817205a84113384fffdfe3,6881a7a397fd373e83d3c0ad,,,,,,,,,,,,./stim/wavs/cuban_match_declarative-broad-focus_Mariano-habla-del-tiempo.wav,0,,,184.071,188.4711,0,1,3.8717,,0,48,48,54,1,55,0,cuban,,,,,,,,,,,,,,,,,,,,,,,,,,,,,,,,,,,,,,,,,,,,,,,,,,,,,,,,
,,,,,,,,,5be0ed4b9da2d300010ca1db,Mexican,13 or older,"yes, I am fluent in another language",yes,2025-07-23_23h26.29.239,empathy_intonation_perc_control,2024.2.4,MacIntel,60.24096386,5be0ed4b9da2d300010ca1db,68817205a84113384fffdfe3,6881a7a397fd373e83d3c0ad,,,,,,,,,,,,./stim/wavs/puertorican_mismatch_declarative-broad-focus_El-nino-oye-el-rio.wav,0,,,188.4715,191.0375,0,1,2.0333,,0,49,49,85,1,86,0,puertorican,,,,,,,,,,,,,,,,,,,,,,,,,,,,,,,,,,,,,,,,,,,,,,,,,,,,,,,,
,,,,,,,,,5be0ed4b9da2d300010ca1db,Mexican,13 or older,"yes, I am fluent in another language",yes,2025-07-23_23h26.29.239,empathy_intonation_perc_control,2024.2.4,MacIntel,60.24096386,5be0ed4b9da2d300010ca1db,68817205a84113384fffdfe3,6881a7a397fd373e83d3c0ad,,,,,,,,,,,,./stim/wavs/castilian_match_interrogative-total-yn_Marta-abre-el-regalo.wav,1,,,191.0378,194.7037,1,1,3.1508,,0,50,50,5,1,6,0,castilian,,,,,,,,,,,,,,,,,,,,,,,,,,,,,,,,,,,,,,,,,,,,,,,,,,,,,,,,
,,,,,,,,,5be0ed4b9da2d300010ca1db,Mexican,13 or older,"yes, I am fluent in another language",yes,2025-07-23_23h26.29.239,empathy_intonation_perc_control,2024.2.4,MacIntel,60.24096386,5be0ed4b9da2d300010ca1db,68817205a84113384fffdfe3,6881a7a397fd373e83d3c0ad,,,,,,,,,,,,./stim/wavs/puertorican_mismatch_interrogative-total-yn_Mi-madre-come-la-fruta.wav,1,,,194.7041,197.0711,0,0,1.8623,,0,51,51,43,1,44,1,puertorican,,,,,,,,,,,,,,,,,,,,,,,,,,,,,,,,,,,,,,,,,,,,,,,,,,,,,,,,
,,,,,,,,,5be0ed4b9da2d300010ca1db,Mexican,13 or older,"yes, I am fluent in another language",yes,2025-07-23_23h26.29.239,empathy_intonation_perc_control,2024.2.4,MacIntel,60.24096386,5be0ed4b9da2d300010ca1db,68817205a84113384fffdfe3,6881a7a397fd373e83d3c0ad,,,,,,,,,,,,./stim/wavs/cuban_match_declarative-broad-focus_Daniel-iba-a-Bolivia.wav,0,,,197.0715,200.0544,0,1,2.4536,,0,52,52,51,1,52,0,cuban,,,,,,,,,,,,,,,,,,,,,,,,,,,,,,,,,,,,,,,,,,,,,,,,,,,,,,,,
,,,,,,,,,5be0ed4b9da2d300010ca1db,Mexican,13 or older,"yes, I am fluent in another language",yes,2025-07-23_23h26.29.239,empathy_intonation_perc_control,2024.2.4,MacIntel,60.24096386,5be0ed4b9da2d300010ca1db,68817205a84113384fffdfe3,6881a7a397fd373e83d3c0ad,,,,,,,,,,,,./stim/wavs/cuban_mismatch_interrogative-total-yn_El-hombre-mira-la-luna.wav,1,,,200.0547,204.1875,0,0,3.6211,,0,53,53,29,1,30,1,cuban,,,,,,,,,,,,,,,,,,,,,,,,,,,,,,,,,,,,,,,,,,,,,,,,,,,,,,,,
,,,,,,,,,5be0ed4b9da2d300010ca1db,Mexican,13 or older,"yes, I am fluent in another language",yes,2025-07-23_23h26.29.239,empathy_intonation_perc_control,2024.2.4,MacIntel,60.24096386,5be0ed4b9da2d300010ca1db,68817205a84113384fffdfe3,6881a7a397fd373e83d3c0ad,,,,,,,,,,,,./stim/wavs/mexican_match_interrogative-total-yn_Daniel-iba-a-Bolivia.wav,1,,,204.1879,206.8045,1,1,2.1106,,0,54,54,13,1,14,0,mexican,,,,,,,,,,,,,,,,,,,,,,,,,,,,,,,,,,,,,,,,,,,,,,,,,,,,,,,,
,,,,,,,,,5be0ed4b9da2d300010ca1db,Mexican,13 or older,"yes, I am fluent in another language",yes,2025-07-23_23h26.29.239,empathy_intonation_perc_control,2024.2.4,MacIntel,60.24096386,5be0ed4b9da2d300010ca1db,68817205a84113384fffdfe3,6881a7a397fd373e83d3c0ad,,,,,,,,,,,,./stim/wavs/puertorican_mismatch_interrogative-total-yn_El-nino-oye-el-rio.wav,1,,,206.8047,210.0382,0,0,2.7176,,0,55,55,40,1,41,1,puertorican,,,,,,,,,,,,,,,,,,,,,,,,,,,,,,,,,,,,,,,,,,,,,,,,,,,,,,,,
,,,,,,,,,5be0ed4b9da2d300010ca1db,Mexican,13 or older,"yes, I am fluent in another language",yes,2025-07-23_23h26.29.239,empathy_intonation_perc_control,2024.2.4,MacIntel,60.24096386,5be0ed4b9da2d300010ca1db,68817205a84113384fffdfe3,6881a7a397fd373e83d3c0ad,,,,,,,,,,,,./stim/wavs/cuban_match_declarative-broad-focus_Marta-abre-el-regalo.wav,0,,,210.0386,212.8546,0,1,2.2829,,0,56,56,55,1,56,0,cuban,,,,,,,,,,,,,,,,,,,,,,,,,,,,,,,,,,,,,,,,,,,,,,,,,,,,,,,,
,,,,,,,,,5be0ed4b9da2d300010ca1db,Mexican,13 or older,"yes, I am fluent in another language",yes,2025-07-23_23h26.29.239,empathy_intonation_perc_control,2024.2.4,MacIntel,60.24096386,5be0ed4b9da2d300010ca1db,68817205a84113384fffdfe3,6881a7a397fd373e83d3c0ad,,,,,,,,,,,,./stim/wavs/puertorican_mismatch_interrogative-total-yn_El-hombre-mira-la-luna.wav,1,,,212.855,216.0883,0,0,2.7021,,0,57,57,39,1,40,1,puertorican,,,,,,,,,,,,,,,,,,,,,,,,,,,,,,,,,,,,,,,,,,,,,,,,,,,,,,,,
,,,,,,,,,5be0ed4b9da2d300010ca1db,Mexican,13 or older,"yes, I am fluent in another language",yes,2025-07-23_23h26.29.239,empathy_intonation_perc_control,2024.2.4,MacIntel,60.24096386,5be0ed4b9da2d300010ca1db,68817205a84113384fffdfe3,6881a7a397fd373e83d3c0ad,,,,,,,,,,,,./stim/wavs/mexican_match_declarative-broad-focus_Emilio-ama-la-marcha.wav,0,,,216.0888,218.9049,0,1,2.2859,,0,58,58,59,1,60,0,mexican,,,,,,,,,,,,,,,,,,,,,,,,,,,,,,,,,,,,,,,,,,,,,,,,,,,,,,,,
,,,,,,,,,5be0ed4b9da2d300010ca1db,Mexican,13 or older,"yes, I am fluent in another language",yes,2025-07-23_23h26.29.239,empathy_intonation_perc_control,2024.2.4,MacIntel,60.24096386,5be0ed4b9da2d300010ca1db,68817205a84113384fffdfe3,6881a7a397fd373e83d3c0ad,,,,,,,,,,,,./stim/wavs/cuban_match_declarative-broad-focus_Maria-bebe-el-vino.wav,0,,,218.9052,222.6552,0,1,3.218,,0,59,59,53,1,54,0,cuban,,,,,,,,,,,,,,,,,,,,,,,,,,,,,,,,,,,,,,,,,,,,,,,,,,,,,,,,
,,,,,,,,,5be0ed4b9da2d300010ca1db,Mexican,13 or older,"yes, I am fluent in another language",yes,2025-07-23_23h26.29.239,empathy_intonation_perc_control,2024.2.4,MacIntel,60.24096386,5be0ed4b9da2d300010ca1db,68817205a84113384fffdfe3,6881a7a397fd373e83d3c0ad,,,,,,,,,,,,./stim/wavs/mexican_match_interrogative-total-yn_Emilio-ama-la-marcha.wav,1,,,222.6558,225.3878,1,1,2.2001,,0,60,60,15,1,16,0,mexican,,,,,,,,,,,,,,,,,,,,,,,,,,,,,,,,,,,,,,,,,,,,,,,,,,,,,,,,
,,,,,,,,,5be0ed4b9da2d300010ca1db,Mexican,13 or older,"yes, I am fluent in another language",yes,2025-07-23_23h26.29.239,empathy_intonation_perc_control,2024.2.4,MacIntel,60.24096386,5be0ed4b9da2d300010ca1db,68817205a84113384fffdfe3,6881a7a397fd373e83d3c0ad,,,,,,,,,,,,./stim/wavs/puertorican_match_declarative-broad-focus_Maria-bebe-el-vino.wav,0,,,225.388,227.8717,0,1,1.9787,,0,61,61,67,1,68,0,puertorican,,,,,,,,,,,,,,,,,,,,,,,,,,,,,,,,,,,,,,,,,,,,,,,,,,,,,,,,
,,,,,,,,,5be0ed4b9da2d300010ca1db,Mexican,13 or older,"yes, I am fluent in another language",yes,2025-07-23_23h26.29.239,empathy_intonation_perc_control,2024.2.4,MacIntel,60.24096386,5be0ed4b9da2d300010ca1db,68817205a84113384fffdfe3,6881a7a397fd373e83d3c0ad,,,,,,,,,,,,./stim/wavs/puertorican_mismatch_interrogative-total-yn_La-nina-lava-el-plato.wav,1,,,227.8719,230.8052,0,0,2.4286,,0,62,62,42,1,43,1,puertorican,,,,,,,,,,,,,,,,,,,,,,,,,,,,,,,,,,,,,,,,,,,,,,,,,,,,,,,,
,,,,,,,,,5be0ed4b9da2d300010ca1db,Mexican,13 or older,"yes, I am fluent in another language",yes,2025-07-23_23h26.29.239,empathy_intonation_perc_control,2024.2.4,MacIntel,60.24096386,5be0ed4b9da2d300010ca1db,68817205a84113384fffdfe3,6881a7a397fd373e83d3c0ad,,,,,,,,,,,,./stim/wavs/castilian_match_declarative-broad-focus_Manuela-vende-el-carro.wav,0,,,230.8057,233.5387,0,1,2.2005,,0,63,63,46,1,47,0,castilian,,,,,,,,,,,,,,,,,,,,,,,,,,,,,,,,,,,,,,,,,,,,,,,,,,,,,,,,
,,,,,,,,,5be0ed4b9da2d300010ca1db,Mexican,13 or older,"yes, I am fluent in another language",yes,2025-07-23_23h26.29.239,empathy_intonation_perc_control,2024.2.4,MacIntel,60.24096386,5be0ed4b9da2d300010ca1db,68817205a84113384fffdfe3,6881a7a397fd373e83d3c0ad,,,,,,,,,,,,./stim/wavs/castilian_match_interrogative-total-yn_Emilio-ama-la-marcha.wav,1,,,233.5393,236.5546,1,1,2.4835,,0,64,64,1,1,2,0,castilian,,,,,,,,,,,,,,,,,,,,,,,,,,,,,,,,,,,,,,,,,,,,,,,,,,,,,,,,
,,,,,,,,,5be0ed4b9da2d300010ca1db,Mexican,13 or older,"yes, I am fluent in another language",yes,2025-07-23_23h26.29.239,empathy_intonation_perc_control,2024.2.4,MacIntel,60.24096386,5be0ed4b9da2d300010ca1db,68817205a84113384fffdfe3,6881a7a397fd373e83d3c0ad,,,,,,,,,,,,./stim/wavs/mexican_mismatch_interrogative-total-yn_Mi-tia-odia-la-lluvia.wav,1,,,236.5551,239.7222,1,1,2.6624,,0,65,65,38,1,39,0,mexican,,,,,,,,,,,,,,,,,,,,,,,,,,,,,,,,,,,,,,,,,,,,,,,,,,,,,,,,
,,,,,,,,,5be0ed4b9da2d300010ca1db,Mexican,13 or older,"yes, I am fluent in another language",yes,2025-07-23_23h26.29.239,empathy_intonation_perc_control,2024.2.4,MacIntel,60.24096386,5be0ed4b9da2d300010ca1db,68817205a84113384fffdfe3,6881a7a397fd373e83d3c0ad,,,,,,,,,,,,./stim/wavs/cuban_mismatch_declarative-broad-focus_El-hombre-mira-la-luna.wav,0,,,239.7227,242.9223,0,1,2.6664,,0,66,66,74,1,75,0,cuban,,,,,,,,,,,,,,,,,,,,,,,,,,,,,,,,,,,,,,,,,,,,,,,,,,,,,,,,
,,,,,,,,,5be0ed4b9da2d300010ca1db,Mexican,13 or older,"yes, I am fluent in another language",yes,2025-07-23_23h26.29.239,empathy_intonation_perc_control,2024.2.4,MacIntel,60.24096386,5be0ed4b9da2d300010ca1db,68817205a84113384fffdfe3,6881a7a397fd373e83d3c0ad,,,,,,,,,,,,./stim/wavs/puertorican_match_interrogative-total-yn_Ana-lleva-el-abrigo.wav,1,,,242.9227,245.2888,1,1,1.8322,,0,67,67,18,1,19,1,puertorican,,,,,,,,,,,,,,,,,,,,,,,,,,,,,,,,,,,,,,,,,,,,,,,,,,,,,,,,
,,,,,,,,,5be0ed4b9da2d300010ca1db,Mexican,13 or older,"yes, I am fluent in another language",yes,2025-07-23_23h26.29.239,empathy_intonation_perc_control,2024.2.4,MacIntel,60.24096386,5be0ed4b9da2d300010ca1db,68817205a84113384fffdfe3,6881a7a397fd373e83d3c0ad,,,,,,,,,,,,./stim/wavs/cuban_mismatch_declarative-broad-focus_Mi-tia-odia-la-lluvia.wav,0,,,245.2889,248.3223,0,1,2.5219,,0,68,68,77,1,78,0,cuban,,,,,,,,,,,,,,,,,,,,,,,,,,,,,,,,,,,,,,,,,,,,,,,,,,,,,,,,
,,,,,,,,,5be0ed4b9da2d300010ca1db,Mexican,13 or older,"yes, I am fluent in another language",yes,2025-07-23_23h26.29.239,empathy_intonation_perc_control,2024.2.4,MacIntel,60.24096386,5be0ed4b9da2d300010ca1db,68817205a84113384fffdfe3,6881a7a397fd373e83d3c0ad,,,,,,,,,,,,./stim/wavs/cuban_mismatch_interrogative-total-yn_El-nino-oye-el-rio.wav,1,,,248.3227,253.155,0,0,4.3002,,0,69,69,30,1,31,1,cuban,,,,,,,,,,,,,,,,,,,,,,,,,,,,,,,,,,,,,,,,,,,,,,,,,,,,,,,,
,,,,,,,,,5be0ed4b9da2d300010ca1db,Mexican,13 or older,"yes, I am fluent in another language",yes,2025-07-23_23h26.29.239,empathy_intonation_perc_control,2024.2.4,MacIntel,60.24096386,5be0ed4b9da2d300010ca1db,68817205a84113384fffdfe3,6881a7a397fd373e83d3c0ad,,,,,,,,,,,,./stim/wavs/cuban_mismatch_declarative-broad-focus_La-nina-lava-el-plato.wav,0,,,253.1555,257.9725,0,1,4.3118,,0,70,70,75,1,76,0,cuban,,,,,,,,,,,,,,,,,,,,,,,,,,,,,,,,,,,,,,,,,,,,,,,,,,,,,,,,
,,,,,,,,,5be0ed4b9da2d300010ca1db,Mexican,13 or older,"yes, I am fluent in another language",yes,2025-07-23_23h26.29.239,empathy_intonation_perc_control,2024.2.4,MacIntel,60.24096386,5be0ed4b9da2d300010ca1db,68817205a84113384fffdfe3,6881a7a397fd373e83d3c0ad,,,,,,,,,,,,./stim/wavs/mexican_mismatch_interrogative-total-yn_La-maestra-vive-en-Paris.wav,1,,,257.973,260.7057,1,1,2.208,,0,71,71,36,1,37,0,mexican,,,,,,,,,,,,,,,,,,,,,,,,,,,,,,,,,,,,,,,,,,,,,,,,,,,,,,,,
,,,,,,,,,5be0ed4b9da2d300010ca1db,Mexican,13 or older,"yes, I am fluent in another language",yes,2025-07-23_23h26.29.239,empathy_intonation_perc_control,2024.2.4,MacIntel,60.24096386,5be0ed4b9da2d300010ca1db,68817205a84113384fffdfe3,6881a7a397fd373e83d3c0ad,,,,,,,,,,,,./stim/wavs/puertorican_match_interrogative-total-yn_Maria-bebe-el-vino.wav,1,,,260.7059,263.0725,1,1,1.8488,,0,72,72,23,1,24,1,puertorican,,,,,,,,,,,,,,,,,,,,,,,,,,,,,,,,,,,,,,,,,,,,,,,,,,,,,,,,
,,,,,,,,,5be0ed4b9da2d300010ca1db,Mexican,13 or older,"yes, I am fluent in another language",yes,2025-07-23_23h26.29.239,empathy_intonation_perc_control,2024.2.4,MacIntel,60.24096386,5be0ed4b9da2d300010ca1db,68817205a84113384fffdfe3,6881a7a397fd373e83d3c0ad,,,,,,,,,,,,./stim/wavs/castilian_mismatch_declarative-broad-focus_Mi-tia-odia-la-lluvia.wav,0,,,263.0726,269.423,0,1,5.8339,,0,73,73,72,1,73,0,castilian,,,,,,,,,,,,,,,,,,,,,,,,,,,,,,,,,,,,,,,,,,,,,,,,,,,,,,,,
,,,,,,,,,5be0ed4b9da2d300010ca1db,Mexican,13 or older,"yes, I am fluent in another language",yes,2025-07-23_23h26.29.239,empathy_intonation_perc_control,2024.2.4,MacIntel,60.24096386,5be0ed4b9da2d300010ca1db,68817205a84113384fffdfe3,6881a7a397fd373e83d3c0ad,,,,,,,,,,,,./stim/wavs/puertorican_match_declarative-broad-focus_Ana-lleva-el-abrigo.wav,0,,,269.4236,272.2895,0,1,2.334,,0,74,74,62,1,63,0,puertorican,,,,,,,,,,,,,,,,,,,,,,,,,,,,,,,,,,,,,,,,,,,,,,,,,,,,,,,,
,,,,,,,,,5be0ed4b9da2d300010ca1db,Mexican,13 or older,"yes, I am fluent in another language",yes,2025-07-23_23h26.29.239,empathy_intonation_perc_control,2024.2.4,MacIntel,60.24096386,5be0ed4b9da2d300010ca1db,68817205a84113384fffdfe3,6881a7a397fd373e83d3c0ad,,,,,,,,,,,,./stim/wavs/mexican_mismatch_interrogative-total-yn_El-nino-oye-el-rio.wav,1,,,272.2902,274.7727,1,1,1.9596,,0,75,75,35,1,36,0,mexican,,,,,,,,,,,,,,,,,,,,,,,,,,,,,,,,,,,,,,,,,,,,,,,,,,,,,,,,
,,,,,,,,,5be0ed4b9da2d300010ca1db,Mexican,13 or older,"yes, I am fluent in another language",yes,2025-07-23_23h26.29.239,empathy_intonation_perc_control,2024.2.4,MacIntel,60.24096386,5be0ed4b9da2d300010ca1db,68817205a84113384fffdfe3,6881a7a397fd373e83d3c0ad,,,,,,,,,,,,./stim/wavs/mexican_mismatch_interrogative-total-yn_El-hombre-mira-la-luna.wav,1,,,274.7729,276.9894,1,1,1.7093,,0,76,76,34,1,35,0,mexican,,,,,,,,,,,,,,,,,,,,,,,,,,,,,,,,,,,,,,,,,,,,,,,,,,,,,,,,
,,,,,,,,,5be0ed4b9da2d300010ca1db,Mexican,13 or older,"yes, I am fluent in another language",yes,2025-07-23_23h26.29.239,empathy_intonation_perc_control,2024.2.4,MacIntel,60.24096386,5be0ed4b9da2d300010ca1db,68817205a84113384fffdfe3,6881a7a397fd373e83d3c0ad,,,,,,,,,,,,./stim/wavs/puertorican_match_declarative-broad-focus_Emilio-ama-la-marcha.wav,0,,,276.9897,279.7229,0,1,2.21,,0,77,77,65,1,66,0,puertorican,,,,,,,,,,,,,,,,,,,,,,,,,,,,,,,,,,,,,,,,,,,,,,,,,,,,,,,,
,,,,,,,,,5be0ed4b9da2d300010ca1db,Mexican,13 or older,"yes, I am fluent in another language",yes,2025-07-23_23h26.29.239,empathy_intonation_perc_control,2024.2.4,MacIntel,60.24096386,5be0ed4b9da2d300010ca1db,68817205a84113384fffdfe3,6881a7a397fd373e83d3c0ad,,,,,,,,,,,,./stim/wavs/puertorican_mismatch_declarative-broad-focus_El-bebe-comia-muy-bien.wav,0,,,279.7231,282.8564,0,1,2.6278,,0,78,78,83,1,84,0,puertorican,,,,,,,,,,,,,,,,,,,,,,,,,,,,,,,,,,,,,,,,,,,,,,,,,,,,,,,,
,,,,,,,,,5be0ed4b9da2d300010ca1db,Mexican,13 or older,"yes, I am fluent in another language",yes,2025-07-23_23h26.29.239,empathy_intonation_perc_control,2024.2.4,MacIntel,60.24096386,5be0ed4b9da2d300010ca1db,68817205a84113384fffdfe3,6881a7a397fd373e83d3c0ad,,,,,,,,,,,,./stim/wavs/mexican_match_declarative-broad-focus_Mariano-habla-del-tiempo.wav,0,,,282.857,285.3063,0,1,1.9167,,0,79,79,60,1,61,0,mexican,,,,,,,,,,,,,,,,,,,,,,,,,,,,,,,,,,,,,,,,,,,,,,,,,,,,,,,,
,,,,,,,,,5be0ed4b9da2d300010ca1db,Mexican,13 or older,"yes, I am fluent in another language",yes,2025-07-23_23h26.29.239,empathy_intonation_perc_control,2024.2.4,MacIntel,60.24096386,5be0ed4b9da2d300010ca1db,68817205a84113384fffdfe3,6881a7a397fd373e83d3c0ad,,,,,,,,,,,,./stim/wavs/cuban_mismatch_declarative-broad-focus_Mi-novio-viene-del-lago.wav,0,,,285.3068,287.823,0,1,1.9919,,0,80,80,76,1,77,0,cuban,,,,,,,,,,,,,,,,,,,,,,,,,,,,,,,,,,,,,,,,,,,,,,,,,,,,,,,,
,,,,,,,,,5be0ed4b9da2d300010ca1db,Mexican,13 or older,"yes, I am fluent in another language",yes,2025-07-23_23h26.29.239,empathy_intonation_perc_control,2024.2.4,MacIntel,60.24096386,5be0ed4b9da2d300010ca1db,68817205a84113384fffdfe3,6881a7a397fd373e83d3c0ad,,,,,,,,,,,,./stim/wavs/mexican_match_declarative-broad-focus_Ana-lleva-el-abrigo.wav,0,,,287.8233,290.1565,0,1,1.7996,,0,81,81,56,1,57,0,mexican,,,,,,,,,,,,,,,,,,,,,,,,,,,,,,,,,,,,,,,,,,,,,,,,,,,,,,,,
,,,,,,,,,5be0ed4b9da2d300010ca1db,Mexican,13 or older,"yes, I am fluent in another language",yes,2025-07-23_23h26.29.239,empathy_intonation_perc_control,2024.2.4,MacIntel,60.24096386,5be0ed4b9da2d300010ca1db,68817205a84113384fffdfe3,6881a7a397fd373e83d3c0ad,,,,,,,,,,,,./stim/wavs/mexican_match_interrogative-total-yn_Ana-lleva-el-abrigo.wav,1,,,290.1568,292.9899,1,1,2.2994,,0,82,82,12,1,13,0,mexican,,,,,,,,,,,,,,,,,,,,,,,,,,,,,,,,,,,,,,,,,,,,,,,,,,,,,,,,
,,,,,,,,,5be0ed4b9da2d300010ca1db,Mexican,13 or older,"yes, I am fluent in another language",yes,2025-07-23_23h26.29.239,empathy_intonation_perc_control,2024.2.4,MacIntel,60.24096386,5be0ed4b9da2d300010ca1db,68817205a84113384fffdfe3,6881a7a397fd373e83d3c0ad,,,,,,,,,,,,./stim/wavs/mexican_mismatch_interrogative-total-yn_Mi-novio-viene-del-lago.wav,1,,,292.9903,295.6567,1,1,2.1377,,0,83,83,37,1,38,0,mexican,,,,,,,,,,,,,,,,,,,,,,,,,,,,,,,,,,,,,,,,,,,,,,,,,,,,,,,,
,,,,,,,,,5be0ed4b9da2d300010ca1db,Mexican,13 or older,"yes, I am fluent in another language",yes,2025-07-23_23h26.29.239,empathy_intonation_perc_control,2024.2.4,MacIntel,60.24096386,5be0ed4b9da2d300010ca1db,68817205a84113384fffdfe3,6881a7a397fd373e83d3c0ad,,,,,,,,,,,,./stim/wavs/puertorican_match_interrogative-total-yn_Emilio-ama-la-marcha.wav,1,,,295.6569,301.9903,0,0,5.7996,,0,84,84,21,1,22,1,puertorican,,,,,,,,,,,,,,,,,,,,,,,,,,,,,,,,,,,,,,,,,,,,,,,,,,,,,,,,
,,,,,,,,,5be0ed4b9da2d300010ca1db,Mexican,13 or older,"yes, I am fluent in another language",yes,2025-07-23_23h26.29.239,empathy_intonation_perc_control,2024.2.4,MacIntel,60.24096386,5be0ed4b9da2d300010ca1db,68817205a84113384fffdfe3,6881a7a397fd373e83d3c0ad,,,,,,,,,,,,./stim/wavs/cuban_match_declarative-broad-focus_Manuela-vende-el-carro.wav,0,,,301.9908,305.2894,0,1,2.7726,,0,85,85,52,1,53,0,cuban,,,,,,,,,,,,,,,,,,,,,,,,,,,,,,,,,,,,,,,,,,,,,,,,,,,,,,,,
,,,,,,,,,5be0ed4b9da2d300010ca1db,Mexican,13 or older,"yes, I am fluent in another language",yes,2025-07-23_23h26.29.239,empathy_intonation_perc_control,2024.2.4,MacIntel,60.24096386,5be0ed4b9da2d300010ca1db,68817205a84113384fffdfe3,6881a7a397fd373e83d3c0ad,,,,,,,,,,,,./stim/wavs/cuban_match_declarative-broad-focus_Ana-lleva-el-abrigo.wav,0,,,305.2898,307.7569,0,1,1.9491,,0,86,86,50,1,51,0,cuban,,,,,,,,,,,,,,,,,,,,,,,,,,,,,,,,,,,,,,,,,,,,,,,,,,,,,,,,
,,,,,,,,,5be0ed4b9da2d300010ca1db,Mexican,13 or older,"yes, I am fluent in another language",yes,2025-07-23_23h26.29.239,empathy_intonation_perc_control,2024.2.4,MacIntel,60.24096386,5be0ed4b9da2d300010ca1db,68817205a84113384fffdfe3,6881a7a397fd373e83d3c0ad,,,,,,,,,,,,./stim/wavs/mexican_mismatch_declarative-broad-focus_Mi-novio-viene-del-lago.wav,0,,,307.7572,310.3402,0,1,2.0621,,0,87,87,81,1,82,0,mexican,,,,,,,,,,,,,,,,,,,,,,,,,,,,,,,,,,,,,,,,,,,,,,,,,,,,,,,,
,,,,,,,"Great! Now we will move on. The next task consists of about 60 trials, in each of which you will see a string of letters. 
  
  Your task is to decide whether this is a real Spanish word or not.", (press the spacebar to continue),5be0ed4b9da2d300010ca1db,Mexican,13 or older,"yes, I am fluent in another language",yes,2025-07-23_23h26.29.239,empathy_intonation_perc_control,2024.2.4,MacIntel,60.24096386,5be0ed4b9da2d300010ca1db,68817205a84113384fffdfe3,6881a7a397fd373e83d3c0ad,,,,,,,,,,,,,,,,,,,,,,,,,,,,,,310.3441,316.7742,0,0,0,0,1,,,,,,,,,,,,,,,,,,,,,,,,,,,,,,,,,,,,,,,,,,,,,,,,,
,,,,,,,"If you think it is an existing Spanish word, you type '1' (for 'REAL'), and if you think it is not an existing Spanish word, you type '0' (for 'FAKE').", (press the spacebar to continue),5be0ed4b9da2d300010ca1db,Mexican,13 or older,"yes, I am fluent in another language",yes,2025-07-23_23h26.29.239,empathy_intonation_perc_control,2024.2.4,MacIntel,60.24096386,5be0ed4b9da2d300010ca1db,68817205a84113384fffdfe3,6881a7a397fd373e83d3c0ad,,,,,,,,,,,,,,,,,,,,,,,,,,,,,,316.7757,319.4906,0,1,1,1,1,,,,,,,,,,,,,,,,,,,,,,,,,,,,,,,,,,,,,,,,,,,,,,,,,
,,,,,,,"If you are sure that the word exists, even though you don’t know its exact meaning, you may still respond '1' (REAL). 
  
  But if you are not sure if it is an existing word, you should respond '0' (FAKE).
  
  Let's do a practice round...", (press the spacebar to continue),5be0ed4b9da2d300010ca1db,Mexican,13 or older,"yes, I am fluent in another language",yes,2025-07-23_23h26.29.239,empathy_intonation_perc_control,2024.2.4,MacIntel,60.24096386,5be0ed4b9da2d300010ca1db,68817205a84113384fffdfe3,6881a7a397fd373e83d3c0ad,,,,,,,,,,,,,,,,,,,,,,,,,,,,,,319.4926,322.0739,0,2,2,2,1,,,,,,,,,,,,,,,,,,,,,,,,,,,,,,,,,,,,,,,,,,,,,,,,,
,,,,,,,,,5be0ed4b9da2d300010ca1db,Mexican,13 or older,"yes, I am fluent in another language",yes,2025-07-23_23h26.29.239,empathy_intonation_perc_control,2024.2.4,MacIntel,60.24096386,5be0ed4b9da2d300010ca1db,68817205a84113384fffdfe3,6881a7a397fd373e83d3c0ad,,,,,,,,,,,,,0,,,,,,,,,,,,,,,,,,,,,,,,322.0777,324.4575,0,1,1.8429,,324.4578,325.4577,0,0,0,0,1,0,depiste,REAL,FAKE,,,,,,,,,,,,,,,,,,,,,,,,,,,,,,,,
,,,,,,,,,5be0ed4b9da2d300010ca1db,Mexican,13 or older,"yes, I am fluent in another language",yes,2025-07-23_23h26.29.239,empathy_intonation_perc_control,2024.2.4,MacIntel,60.24096386,5be0ed4b9da2d300010ca1db,68817205a84113384fffdfe3,6881a7a397fd373e83d3c0ad,,,,,,,,,,,,,1,,,,,,,,,,,,,,,,,,,,,,,,325.4591,326.7076,1,1,0.7122,,326.7077,327.7066,0,1,1,1,1,0,sí,REAL,FAKE,,,,,,,,,,,,,,,,,,,,,,,,,,,,,,,,
,,,,,,,,,5be0ed4b9da2d300010ca1db,Mexican,13 or older,"yes, I am fluent in another language",yes,2025-07-23_23h26.29.239,empathy_intonation_perc_control,2024.2.4,MacIntel,60.24096386,5be0ed4b9da2d300010ca1db,68817205a84113384fffdfe3,6881a7a397fd373e83d3c0ad,,,,,,,,,,,,,0,,,,,,,,,,,,,,,,,,,,,,,,327.7077,329.0575,0,1,0.8241,,329.0575,330.0576,0,2,2,2,1,0,coné,REAL,FAKE,,,,,,,,,,,,,,,,,,,,,,,,,,,,,,,,
,,,,,,,,,5be0ed4b9da2d300010ca1db,Mexican,13 or older,"yes, I am fluent in another language",yes,2025-07-23_23h26.29.239,empathy_intonation_perc_control,2024.2.4,MacIntel,60.24096386,5be0ed4b9da2d300010ca1db,68817205a84113384fffdfe3,6881a7a397fd373e83d3c0ad,,,,,,,,,,,,,0,,,,,,,,,,,,,,,,,,,,,,,,330.0588,331.424,0,1,0.8393,,331.424,332.4249,0,3,3,3,1,0,calpar,REAL,FAKE,,,,,,,,,,,,,,,,,,,,,,,,,,,,,,,,
,,,,,,,,,5be0ed4b9da2d300010ca1db,Mexican,13 or older,"yes, I am fluent in another language",yes,2025-07-23_23h26.29.239,empathy_intonation_perc_control,2024.2.4,MacIntel,60.24096386,5be0ed4b9da2d300010ca1db,68817205a84113384fffdfe3,6881a7a397fd373e83d3c0ad,,,,,,,,,,,,,0,,,,,,,,,,,,,,,,,,,,,,,,332.4262,333.6574,0,1,0.7034,,333.6575,334.6577,0,4,4,4,1,0,joten,REAL,FAKE,,,,,,,,,,,,,,,,,,,,,,,,,,,,,,,,
,,,,,,,,,5be0ed4b9da2d300010ca1db,Mexican,13 or older,"yes, I am fluent in another language",yes,2025-07-23_23h26.29.239,empathy_intonation_perc_control,2024.2.4,MacIntel,60.24096386,5be0ed4b9da2d300010ca1db,68817205a84113384fffdfe3,6881a7a397fd373e83d3c0ad,,,,,,,,,,,,,1,,,,,,,,,,,,,,,,,,,,,,,,334.6589,336.1077,1,1,0.9147,,336.1079,337.1079,0,5,5,5,1,0,sacapuntas,REAL,FAKE,,,,,,,,,,,,,,,,,,,,,,,,,,,,,,,,
,,,,,,,,,5be0ed4b9da2d300010ca1db,Mexican,13 or older,"yes, I am fluent in another language",yes,2025-07-23_23h26.29.239,empathy_intonation_perc_control,2024.2.4,MacIntel,60.24096386,5be0ed4b9da2d300010ca1db,68817205a84113384fffdfe3,6881a7a397fd373e83d3c0ad,,,,,,,,,,,,,0,,,,,,,,,,,,,,,,,,,,,,,,337.1092,338.3572,0,1,0.7146,,338.3572,339.3581,0,6,6,6,1,0,priba,REAL,FAKE,,,,,,,,,,,,,,,,,,,,,,,,,,,,,,,,
,,,,,,,,,5be0ed4b9da2d300010ca1db,Mexican,13 or older,"yes, I am fluent in another language",yes,2025-07-23_23h26.29.239,empathy_intonation_perc_control,2024.2.4,MacIntel,60.24096386,5be0ed4b9da2d300010ca1db,68817205a84113384fffdfe3,6881a7a397fd373e83d3c0ad,,,,,,,,,,,,,0,,,,,,,,,,,,,,,,,,,,,,,,339.3592,340.6744,0,1,0.773,,340.6745,341.6747,0,7,7,7,1,0,pelasula,REAL,FAKE,,,,,,,,,,,,,,,,,,,,,,,,,,,,,,,,
,,,,,,,,,5be0ed4b9da2d300010ca1db,Mexican,13 or older,"yes, I am fluent in another language",yes,2025-07-23_23h26.29.239,empathy_intonation_perc_control,2024.2.4,MacIntel,60.24096386,5be0ed4b9da2d300010ca1db,68817205a84113384fffdfe3,6881a7a397fd373e83d3c0ad,,,,,,,,,,,,,1,,,,,,,,,,,,,,,,,,,,,,,,341.6759,342.8567,1,1,0.6454,,342.8567,343.8579,0,8,8,8,1,0,bien,REAL,FAKE,,,,,,,,,,,,,,,,,,,,,,,,,,,,,,,,
,,,,,,,,,5be0ed4b9da2d300010ca1db,Mexican,13 or older,"yes, I am fluent in another language",yes,2025-07-23_23h26.29.239,empathy_intonation_perc_control,2024.2.4,MacIntel,60.24096386,5be0ed4b9da2d300010ca1db,68817205a84113384fffdfe3,6881a7a397fd373e83d3c0ad,,,,,,,,,,,,,1,,,,,,,,,,,,,,,,,,,,,,,,343.8589,345.0247,1,1,0.6305,,345.0248,346.0247,0,9,9,9,1,0,casa,REAL,FAKE,,,,,,,,,,,,,,,,,,,,,,,,,,,,,,,,
,,,,,,,,,5be0ed4b9da2d300010ca1db,Mexican,13 or older,"yes, I am fluent in another language",yes,2025-07-23_23h26.29.239,empathy_intonation_perc_control,2024.2.4,MacIntel,60.24096386,5be0ed4b9da2d300010ca1db,68817205a84113384fffdfe3,6881a7a397fd373e83d3c0ad,,,,,,,,,,,,,0,,,,,,,,,,,,,,,,,,,,,,,,346.0258,347.1746,1,0,0.6229,,347.1755,348.1747,0,10,10,10,1,0,lejo,REAL,FAKE,,,,,,,,,,,,,,,,,,,,,,,,,,,,,,,,
,,,,,,,,,5be0ed4b9da2d300010ca1db,Mexican,13 or older,"yes, I am fluent in another language",yes,2025-07-23_23h26.29.239,empathy_intonation_perc_control,2024.2.4,MacIntel,60.24096386,5be0ed4b9da2d300010ca1db,68817205a84113384fffdfe3,6881a7a397fd373e83d3c0ad,,,,,,,,,,,,,0,,,,,,,,,,,,,,,,,,,,,,,,348.1758,349.8248,0,1,1.112,,349.8254,350.8249,0,11,11,11,1,0,pretantas,REAL,FAKE,,,,,,,,,,,,,,,,,,,,,,,,,,,,,,,,
,,,,,,,,,5be0ed4b9da2d300010ca1db,Mexican,13 or older,"yes, I am fluent in another language",yes,2025-07-23_23h26.29.239,empathy_intonation_perc_control,2024.2.4,MacIntel,60.24096386,5be0ed4b9da2d300010ca1db,68817205a84113384fffdfe3,6881a7a397fd373e83d3c0ad,,,,,,,,,,,,,,,,,,,,,,,,,,,,,,,,,,,,,,,,,,,,,,,,,,,,,,350.8252,354.3752,,,,,,,,,,,,,,,,,,,,,,,,,,,,,,
,,,,,,,,,5be0ed4b9da2d300010ca1db,Mexican,13 or older,"yes, I am fluent in another language",yes,2025-07-23_23h26.29.239,empathy_intonation_perc_control,2024.2.4,MacIntel,60.24096386,5be0ed4b9da2d300010ca1db,68817205a84113384fffdfe3,6881a7a397fd373e83d3c0ad,,,,,,,,,,,,,0,,,,,,,,,,,,,,,,,,,,,,,,,,,,,,,,,,,,,87,grodo,,,,,354.3837,355.7418,0,1,0.832,,0,0,0,86,1,REAL,FAKE,,,,,,,,,,,,,,,,,
,,,,,,,,,5be0ed4b9da2d300010ca1db,Mexican,13 or older,"yes, I am fluent in another language",yes,2025-07-23_23h26.29.239,empathy_intonation_perc_control,2024.2.4,MacIntel,60.24096386,5be0ed4b9da2d300010ca1db,68817205a84113384fffdfe3,6881a7a397fd373e83d3c0ad,,,,,,,,,,,,,0,,,,,,,,,,,,,,,,,,,,,,,,,,,,,,,,,,,,,58,plaudir,,,,,355.7429,357.2915,0,1,1.0134,,0,1,1,57,1,REAL,FAKE,,,,,,,,,,,,,,,,,
,,,,,,,,,5be0ed4b9da2d300010ca1db,Mexican,13 or older,"yes, I am fluent in another language",yes,2025-07-23_23h26.29.239,empathy_intonation_perc_control,2024.2.4,MacIntel,60.24096386,5be0ed4b9da2d300010ca1db,68817205a84113384fffdfe3,6881a7a397fd373e83d3c0ad,,,,,,,,,,,,,1,,,,,,,,,,,,,,,,,,,,,,,,,,,,,,,,,,,,,43,canela,,,,,357.2924,358.608,1,1,0.7813,,0,2,2,42,1,REAL,FAKE,,,,,,,,,,,,,,,,,
,,,,,,,,,5be0ed4b9da2d300010ca1db,Mexican,13 or older,"yes, I am fluent in another language",yes,2025-07-23_23h26.29.239,empathy_intonation_perc_control,2024.2.4,MacIntel,60.24096386,5be0ed4b9da2d300010ca1db,68817205a84113384fffdfe3,6881a7a397fd373e83d3c0ad,,,,,,,,,,,,,1,,,,,,,,,,,,,,,,,,,,,,,,,,,,,,,,,,,,,44,cuchara,,,,,358.6085,360.6415,1,1,1.4946,,0,3,3,43,1,REAL,FAKE,,,,,,,,,,,,,,,,,
,,,,,,,,,5be0ed4b9da2d300010ca1db,Mexican,13 or older,"yes, I am fluent in another language",yes,2025-07-23_23h26.29.239,empathy_intonation_perc_control,2024.2.4,MacIntel,60.24096386,5be0ed4b9da2d300010ca1db,68817205a84113384fffdfe3,6881a7a397fd373e83d3c0ad,,,,,,,,,,,,,1,,,,,,,,,,,,,,,,,,,,,,,,,,,,,,,,,,,,,64,orgulloso,,,,,360.6424,361.9917,1,1,0.8116,,0,4,4,63,1,REAL,FAKE,,,,,,,,,,,,,,,,,
,,,,,,,,,5be0ed4b9da2d300010ca1db,Mexican,13 or older,"yes, I am fluent in another language",yes,2025-07-23_23h26.29.239,empathy_intonation_perc_control,2024.2.4,MacIntel,60.24096386,5be0ed4b9da2d300010ca1db,68817205a84113384fffdfe3,6881a7a397fd373e83d3c0ad,,,,,,,,,,,,,1,,,,,,,,,,,,,,,,,,,,,,,,,,,,,,,,,,,,,41,rebuscar,,,,,361.9925,364.1077,1,1,1.5913,,0,5,5,40,1,REAL,FAKE,,,,,,,,,,,,,,,,,
,,,,,,,,,5be0ed4b9da2d300010ca1db,Mexican,13 or older,"yes, I am fluent in another language",yes,2025-07-23_23h26.29.239,empathy_intonation_perc_control,2024.2.4,MacIntel,60.24096386,5be0ed4b9da2d300010ca1db,68817205a84113384fffdfe3,6881a7a397fd373e83d3c0ad,,,,,,,,,,,,,1,,,,,,,,,,,,,,,,,,,,,,,,,,,,,,,,,,,,,46,martillo,,,,,364.1089,365.5916,0,0,0.9529,,0,6,6,45,1,REAL,FAKE,,,,,,,,,,,,,,,,,
,,,,,,,,,5be0ed4b9da2d300010ca1db,Mexican,13 or older,"yes, I am fluent in another language",yes,2025-07-23_23h26.29.239,empathy_intonation_perc_control,2024.2.4,MacIntel,60.24096386,5be0ed4b9da2d300010ca1db,68817205a84113384fffdfe3,6881a7a397fd373e83d3c0ad,,,,,,,,,,,,,1,,,,,,,,,,,,,,,,,,,,,,,,,,,,,,,,,,,,,85,laúd,,,,,365.5926,367.3085,0,0,1.1814,,0,7,7,84,1,REAL,FAKE,,,,,,,,,,,,,,,,,
,,,,,,,,,5be0ed4b9da2d300010ca1db,Mexican,13 or older,"yes, I am fluent in another language",yes,2025-07-23_23h26.29.239,empathy_intonation_perc_control,2024.2.4,MacIntel,60.24096386,5be0ed4b9da2d300010ca1db,68817205a84113384fffdfe3,6881a7a397fd373e83d3c0ad,,,,,,,,,,,,,1,,,,,,,,,,,,,,,,,,,,,,,,,,,,,,,,,,,,,71,polvoriento,,,,,367.3094,371.0092,0,0,3.174,,0,8,8,70,1,REAL,FAKE,,,,,,,,,,,,,,,,,
,,,,,,,,,5be0ed4b9da2d300010ca1db,Mexican,13 or older,"yes, I am fluent in another language",yes,2025-07-23_23h26.29.239,empathy_intonation_perc_control,2024.2.4,MacIntel,60.24096386,5be0ed4b9da2d300010ca1db,68817205a84113384fffdfe3,6881a7a397fd373e83d3c0ad,,,,,,,,,,,,,1,,,,,,,,,,,,,,,,,,,,,,,,,,,,,,,,,,,,,88,acantilado,,,,,371.0102,373.1419,0,0,1.5941,,0,9,9,87,1,REAL,FAKE,,,,,,,,,,,,,,,,,
,,,,,,,,,5be0ed4b9da2d300010ca1db,Mexican,13 or older,"yes, I am fluent in another language",yes,2025-07-23_23h26.29.239,empathy_intonation_perc_control,2024.2.4,MacIntel,60.24096386,5be0ed4b9da2d300010ca1db,68817205a84113384fffdfe3,6881a7a397fd373e83d3c0ad,,,,,,,,,,,,,0,,,,,,,,,,,,,,,,,,,,,,,,,,,,,,,,,,,,,23,lampera,,,,,373.1427,374.6085,1,0,0.9336,,0,10,10,22,1,REAL,FAKE,,,,,,,,,,,,,,,,,
,,,,,,,,,5be0ed4b9da2d300010ca1db,Mexican,13 or older,"yes, I am fluent in another language",yes,2025-07-23_23h26.29.239,empathy_intonation_perc_control,2024.2.4,MacIntel,60.24096386,5be0ed4b9da2d300010ca1db,68817205a84113384fffdfe3,6881a7a397fd373e83d3c0ad,,,,,,,,,,,,,1,,,,,,,,,,,,,,,,,,,,,,,,,,,,,,,,,,,,,83,guante,,,,,374.6093,376.0086,0,0,0.864,,0,11,11,82,1,REAL,FAKE,,,,,,,,,,,,,,,,,
,,,,,,,,,5be0ed4b9da2d300010ca1db,Mexican,13 or older,"yes, I am fluent in another language",yes,2025-07-23_23h26.29.239,empathy_intonation_perc_control,2024.2.4,MacIntel,60.24096386,5be0ed4b9da2d300010ca1db,68817205a84113384fffdfe3,6881a7a397fd373e83d3c0ad,,,,,,,,,,,,,0,,,,,,,,,,,,,,,,,,,,,,,,,,,,,,,,,,,,,53,vegada,,,,,376.0094,378.1925,0,1,1.6592,,0,12,12,52,1,REAL,FAKE,,,,,,,,,,,,,,,,,
,,,,,,,,,5be0ed4b9da2d300010ca1db,Mexican,13 or older,"yes, I am fluent in another language",yes,2025-07-23_23h26.29.239,empathy_intonation_perc_control,2024.2.4,MacIntel,60.24096386,5be0ed4b9da2d300010ca1db,68817205a84113384fffdfe3,6881a7a397fd373e83d3c0ad,,,,,,,,,,,,,0,,,,,,,,,,,,,,,,,,,,,,,,,,,,,,,,,,,,,21,capillo,,,,,378.1933,380.0588,1,0,1.3291,,0,13,13,20,1,REAL,FAKE,,,,,,,,,,,,,,,,,
,,,,,,,,,5be0ed4b9da2d300010ca1db,Mexican,13 or older,"yes, I am fluent in another language",yes,2025-07-23_23h26.29.239,empathy_intonation_perc_control,2024.2.4,MacIntel,60.24096386,5be0ed4b9da2d300010ca1db,68817205a84113384fffdfe3,6881a7a397fd373e83d3c0ad,,,,,,,,,,,,,0,,,,,,,,,,,,,,,,,,,,,,,,,,,,,,,,,,,,,82,empirador,,,,,380.0597,382.0245,1,0,1.4292,,0,14,14,81,1,REAL,FAKE,,,,,,,,,,,,,,,,,
,,,,,,,,,5be0ed4b9da2d300010ca1db,Mexican,13 or older,"yes, I am fluent in another language",yes,2025-07-23_23h26.29.239,empathy_intonation_perc_control,2024.2.4,MacIntel,60.24096386,5be0ed4b9da2d300010ca1db,68817205a84113384fffdfe3,6881a7a397fd373e83d3c0ad,,,,,,,,,,,,,1,,,,,,,,,,,,,,,,,,,,,,,,,,,,,,,,,,,,,89,prisa,,,,,382.0253,383.7921,1,1,1.2481,,0,15,15,88,1,REAL,FAKE,,,,,,,,,,,,,,,,,
,,,,,,,,,5be0ed4b9da2d300010ca1db,Mexican,13 or older,"yes, I am fluent in another language",yes,2025-07-23_23h26.29.239,empathy_intonation_perc_control,2024.2.4,MacIntel,60.24096386,5be0ed4b9da2d300010ca1db,68817205a84113384fffdfe3,6881a7a397fd373e83d3c0ad,,,,,,,,,,,,,1,,,,,,,,,,,,,,,,,,,,,,,,,,,,,,,,,,,,,12,asesinato,,,,,383.7929,386.5922,1,1,2.2676,,0,16,16,11,1,REAL,FAKE,,,,,,,,,,,,,,,,,
,,,,,,,,,5be0ed4b9da2d300010ca1db,Mexican,13 or older,"yes, I am fluent in another language",yes,2025-07-23_23h26.29.239,empathy_intonation_perc_control,2024.2.4,MacIntel,60.24096386,5be0ed4b9da2d300010ca1db,68817205a84113384fffdfe3,6881a7a397fd373e83d3c0ad,,,,,,,,,,,,,1,,,,,,,,,,,,,,,,,,,,,,,,,,,,,,,,,,,,,68,alegre,,,,,386.593,388.4254,1,1,1.3055,,0,17,17,67,1,REAL,FAKE,,,,,,,,,,,,,,,,,
,,,,,,,,,5be0ed4b9da2d300010ca1db,Mexican,13 or older,"yes, I am fluent in another language",yes,2025-07-23_23h26.29.239,empathy_intonation_perc_control,2024.2.4,MacIntel,60.24096386,5be0ed4b9da2d300010ca1db,68817205a84113384fffdfe3,6881a7a397fd373e83d3c0ad,,,,,,,,,,,,,1,,,,,,,,,,,,,,,,,,,,,,,,,,,,,,,,,,,,,36,loro,,,,,388.4261,389.7423,0,0,0.7805,,0,18,18,35,1,REAL,FAKE,,,,,,,,,,,,,,,,,
,,,,,,,,,5be0ed4b9da2d300010ca1db,Mexican,13 or older,"yes, I am fluent in another language",yes,2025-07-23_23h26.29.239,empathy_intonation_perc_control,2024.2.4,MacIntel,60.24096386,5be0ed4b9da2d300010ca1db,68817205a84113384fffdfe3,6881a7a397fd373e83d3c0ad,,,,,,,,,,,,,1,,,,,,,,,,,,,,,,,,,,,,,,,,,,,,,,,,,,,6,tergiversar,,,,,389.7434,391.7589,0,0,1.4883,,0,19,19,5,1,REAL,FAKE,,,,,,,,,,,,,,,,,
,,,,,,,,,5be0ed4b9da2d300010ca1db,Mexican,13 or older,"yes, I am fluent in another language",yes,2025-07-23_23h26.29.239,empathy_intonation_perc_control,2024.2.4,MacIntel,60.24096386,5be0ed4b9da2d300010ca1db,68817205a84113384fffdfe3,6881a7a397fd373e83d3c0ad,,,,,,,,,,,,,1,,,,,,,,,,,,,,,,,,,,,,,,,,,,,,,,,,,,,15,regar,,,,,391.7601,393.7918,0,0,1.5036,,0,20,20,14,1,REAL,FAKE,,,,,,,,,,,,,,,,,
,,,,,,,,,5be0ed4b9da2d300010ca1db,Mexican,13 or older,"yes, I am fluent in another language",yes,2025-07-23_23h26.29.239,empathy_intonation_perc_control,2024.2.4,MacIntel,60.24096386,5be0ed4b9da2d300010ca1db,68817205a84113384fffdfe3,6881a7a397fd373e83d3c0ad,,,,,,,,,,,,,1,,,,,,,,,,,,,,,,,,,,,,,,,,,,,,,,,,,,,77,tiburón,,,,,393.7926,395.1589,1,1,0.8324,,0,21,21,76,1,REAL,FAKE,,,,,,,,,,,,,,,,,
,,,,,,,,,5be0ed4b9da2d300010ca1db,Mexican,13 or older,"yes, I am fluent in another language",yes,2025-07-23_23h26.29.239,empathy_intonation_perc_control,2024.2.4,MacIntel,60.24096386,5be0ed4b9da2d300010ca1db,68817205a84113384fffdfe3,6881a7a397fd373e83d3c0ad,,,,,,,,,,,,,1,,,,,,,,,,,,,,,,,,,,,,,,,,,,,,,,,,,,,7,pésimo,,,,,395.1598,397.0591,1,1,1.3629,,0,22,22,6,1,REAL,FAKE,,,,,,,,,,,,,,,,,
,,,,,,,,,5be0ed4b9da2d300010ca1db,Mexican,13 or older,"yes, I am fluent in another language",yes,2025-07-23_23h26.29.239,empathy_intonation_perc_control,2024.2.4,MacIntel,60.24096386,5be0ed4b9da2d300010ca1db,68817205a84113384fffdfe3,6881a7a397fd373e83d3c0ad,,,,,,,,,,,,,0,,,,,,,,,,,,,,,,,,,,,,,,,,,,,,,,,,,,,8,cadeña,,,,,397.06,400.7092,1,0,3.1113,,0,23,23,7,1,REAL,FAKE,,,,,,,,,,,,,,,,,
,,,,,,,,,5be0ed4b9da2d300010ca1db,Mexican,13 or older,"yes, I am fluent in another language",yes,2025-07-23_23h26.29.239,empathy_intonation_perc_control,2024.2.4,MacIntel,60.24096386,5be0ed4b9da2d300010ca1db,68817205a84113384fffdfe3,6881a7a397fd373e83d3c0ad,,,,,,,,,,,,,1,,,,,,,,,,,,,,,,,,,,,,,,,,,,,,,,,,,,,62,flaco,,,,,400.7101,402.026,1,1,0.7747,,0,24,24,61,1,REAL,FAKE,,,,,,,,,,,,,,,,,
,,,,,,,,,5be0ed4b9da2d300010ca1db,Mexican,13 or older,"yes, I am fluent in another language",yes,2025-07-23_23h26.29.239,empathy_intonation_perc_control,2024.2.4,MacIntel,60.24096386,5be0ed4b9da2d300010ca1db,68817205a84113384fffdfe3,6881a7a397fd373e83d3c0ad,,,,,,,,,,,,,0,,,,,,,,,,,,,,,,,,,,,,,,,,,,,,,,,,,,,18,arsa,,,,,402.027,403.3599,0,1,0.8104,,0,25,25,17,1,REAL,FAKE,,,,,,,,,,,,,,,,,
,,,,,,,,,5be0ed4b9da2d300010ca1db,Mexican,13 or older,"yes, I am fluent in another language",yes,2025-07-23_23h26.29.239,empathy_intonation_perc_control,2024.2.4,MacIntel,60.24096386,5be0ed4b9da2d300010ca1db,68817205a84113384fffdfe3,6881a7a397fd373e83d3c0ad,,,,,,,,,,,,,1,,,,,,,,,,,,,,,,,,,,,,,,,,,,,,,,,,,,,13,helar,,,,,403.3608,406.0085,1,1,2.1237,,0,26,26,12,1,REAL,FAKE,,,,,,,,,,,,,,,,,
,,,,,,,,,5be0ed4b9da2d300010ca1db,Mexican,13 or older,"yes, I am fluent in another language",yes,2025-07-23_23h26.29.239,empathy_intonation_perc_control,2024.2.4,MacIntel,60.24096386,5be0ed4b9da2d300010ca1db,68817205a84113384fffdfe3,6881a7a397fd373e83d3c0ad,,,,,,,,,,,,,1,,,,,,,,,,,,,,,,,,,,,,,,,,,,,,,,,,,,,56,musgo,,,,,406.0093,408.8593,0,0,2.3281,,0,27,27,55,1,REAL,FAKE,,,,,,,,,,,,,,,,,
,,,,,,,,,5be0ed4b9da2d300010ca1db,Mexican,13 or older,"yes, I am fluent in another language",yes,2025-07-23_23h26.29.239,empathy_intonation_perc_control,2024.2.4,MacIntel,60.24096386,5be0ed4b9da2d300010ca1db,68817205a84113384fffdfe3,6881a7a397fd373e83d3c0ad,,,,,,,,,,,,,0,,,,,,,,,,,,,,,,,,,,,,,,,,,,,,,,,,,,,27,acutación,,,,,408.8602,410.6755,0,1,1.2838,,0,28,28,26,1,REAL,FAKE,,,,,,,,,,,,,,,,,
,,,,,,,,,5be0ed4b9da2d300010ca1db,Mexican,13 or older,"yes, I am fluent in another language",yes,2025-07-23_23h26.29.239,empathy_intonation_perc_control,2024.2.4,MacIntel,60.24096386,5be0ed4b9da2d300010ca1db,68817205a84113384fffdfe3,6881a7a397fd373e83d3c0ad,,,,,,,,,,,,,1,,,,,,,,,,,,,,,,,,,,,,,,,,,,,,,,,,,,,90,clavel,,,,,410.6764,412.3435,0,0,1.1596,,0,29,29,89,1,REAL,FAKE,,,,,,,,,,,,,,,,,
,,,,,,,,,5be0ed4b9da2d300010ca1db,Mexican,13 or older,"yes, I am fluent in another language",yes,2025-07-23_23h26.29.239,empathy_intonation_perc_control,2024.2.4,MacIntel,60.24096386,5be0ed4b9da2d300010ca1db,68817205a84113384fffdfe3,6881a7a397fd373e83d3c0ad,,,,,,,,,,,,,1,,,,,,,,,,,,,,,,,,,,,,,,,,,,,,,,,,,,,86,barato,,,,,412.3444,414.11,1,1,1.2416,,0,30,30,85,1,REAL,FAKE,,,,,,,,,,,,,,,,,
,,,,,,,,,5be0ed4b9da2d300010ca1db,Mexican,13 or older,"yes, I am fluent in another language",yes,2025-07-23_23h26.29.239,empathy_intonation_perc_control,2024.2.4,MacIntel,60.24096386,5be0ed4b9da2d300010ca1db,68817205a84113384fffdfe3,6881a7a397fd373e83d3c0ad,,,,,,,,,,,,,0,,,,,,,,,,,,,,,,,,,,,,,,,,,,,,,,,,,,,19,brecedad,,,,,414.1109,415.6093,0,1,0.9659,,0,31,31,18,1,REAL,FAKE,,,,,,,,,,,,,,,,,
,,,,,,,,,5be0ed4b9da2d300010ca1db,Mexican,13 or older,"yes, I am fluent in another language",yes,2025-07-23_23h26.29.239,empathy_intonation_perc_control,2024.2.4,MacIntel,60.24096386,5be0ed4b9da2d300010ca1db,68817205a84113384fffdfe3,6881a7a397fd373e83d3c0ad,,,,,,,,,,,,,0,,,,,,,,,,,,,,,,,,,,,,,,,,,,,,,,,,,,,32,fatacidad,,,,,415.6102,417.7761,0,1,1.6287,,0,32,32,31,1,REAL,FAKE,,,,,,,,,,,,,,,,,
,,,,,,,,,5be0ed4b9da2d300010ca1db,Mexican,13 or older,"yes, I am fluent in another language",yes,2025-07-23_23h26.29.239,empathy_intonation_perc_control,2024.2.4,MacIntel,60.24096386,5be0ed4b9da2d300010ca1db,68817205a84113384fffdfe3,6881a7a397fd373e83d3c0ad,,,,,,,,,,,,,0,,,,,,,,,,,,,,,,,,,,,,,,,,,,,,,,,,,,,17,floroso,,,,,417.7768,419.3267,0,1,1.0177,,0,33,33,16,1,REAL,FAKE,,,,,,,,,,,,,,,,,
,,,,,,,,,5be0ed4b9da2d300010ca1db,Mexican,13 or older,"yes, I am fluent in another language",yes,2025-07-23_23h26.29.239,empathy_intonation_perc_control,2024.2.4,MacIntel,60.24096386,5be0ed4b9da2d300010ca1db,68817205a84113384fffdfe3,6881a7a397fd373e83d3c0ad,,,,,,,,,,,,,0,,,,,,,,,,,,,,,,,,,,,,,,,,,,,,,,,,,,,79,tropaje,,,,,419.3276,422.6263,0,1,2.7661,,0,34,34,78,1,REAL,FAKE,,,,,,,,,,,,,,,,,
,,,,,,,,,5be0ed4b9da2d300010ca1db,Mexican,13 or older,"yes, I am fluent in another language",yes,2025-07-23_23h26.29.239,empathy_intonation_perc_control,2024.2.4,MacIntel,60.24096386,5be0ed4b9da2d300010ca1db,68817205a84113384fffdfe3,6881a7a397fd373e83d3c0ad,,,,,,,,,,,,,0,,,,,,,,,,,,,,,,,,,,,,,,,,,,,,,,,,,,,84,escuto,,,,,422.6272,424.8264,0,1,1.6607,,0,35,35,83,1,REAL,FAKE,,,,,,,,,,,,,,,,,
,,,,,,,,,5be0ed4b9da2d300010ca1db,Mexican,13 or older,"yes, I am fluent in another language",yes,2025-07-23_23h26.29.239,empathy_intonation_perc_control,2024.2.4,MacIntel,60.24096386,5be0ed4b9da2d300010ca1db,68817205a84113384fffdfe3,6881a7a397fd373e83d3c0ad,,,,,,,,,,,,,0,,,,,,,,,,,,,,,,,,,,,,,,,,,,,,,,,,,,,42,cadallo,,,,,424.8272,426.0598,0,1,0.6998,,0,36,36,41,1,REAL,FAKE,,,,,,,,,,,,,,,,,
,,,,,,,,,5be0ed4b9da2d300010ca1db,Mexican,13 or older,"yes, I am fluent in another language",yes,2025-07-23_23h26.29.239,empathy_intonation_perc_control,2024.2.4,MacIntel,60.24096386,5be0ed4b9da2d300010ca1db,68817205a84113384fffdfe3,6881a7a397fd373e83d3c0ad,,,,,,,,,,,,,1,,,,,,,,,,,,,,,,,,,,,,,,,,,,,,,,,,,,,81,pozo,,,,,426.0608,427.4431,0,0,0.8432,,0,37,37,80,1,REAL,FAKE,,,,,,,,,,,,,,,,,
,,,,,,,,,5be0ed4b9da2d300010ca1db,Mexican,13 or older,"yes, I am fluent in another language",yes,2025-07-23_23h26.29.239,empathy_intonation_perc_control,2024.2.4,MacIntel,60.24096386,5be0ed4b9da2d300010ca1db,68817205a84113384fffdfe3,6881a7a397fd373e83d3c0ad,,,,,,,,,,,,,1,,,,,,,,,,,,,,,,,,,,,,,,,,,,,,,,,,,,,61,seda,,,,,427.4442,428.6769,0,0,0.7088,,0,38,38,60,1,REAL,FAKE,,,,,,,,,,,,,,,,,
,,,,,,,,,5be0ed4b9da2d300010ca1db,Mexican,13 or older,"yes, I am fluent in another language",yes,2025-07-23_23h26.29.239,empathy_intonation_perc_control,2024.2.4,MacIntel,60.24096386,5be0ed4b9da2d300010ca1db,68817205a84113384fffdfe3,6881a7a397fd373e83d3c0ad,,,,,,,,,,,,,0,,,,,,,,,,,,,,,,,,,,,,,,,,,,,,,,,,,,,35,rompido,,,,,428.6778,434.4932,0,1,5.2788,,0,39,39,34,1,REAL,FAKE,,,,,,,,,,,,,,,,,
,,,,,,,,,5be0ed4b9da2d300010ca1db,Mexican,13 or older,"yes, I am fluent in another language",yes,2025-07-23_23h26.29.239,empathy_intonation_perc_control,2024.2.4,MacIntel,60.24096386,5be0ed4b9da2d300010ca1db,68817205a84113384fffdfe3,6881a7a397fd373e83d3c0ad,,,,,,,,,,,,,1,,,,,,,,,,,,,,,,,,,,,,,,,,,,,,,,,,,,,11,cenefa,,,,,434.4939,436.1605,0,0,1.1362,,0,40,40,10,1,REAL,FAKE,,,,,,,,,,,,,,,,,
,,,,,,,,,5be0ed4b9da2d300010ca1db,Mexican,13 or older,"yes, I am fluent in another language",yes,2025-07-23_23h26.29.239,empathy_intonation_perc_control,2024.2.4,MacIntel,60.24096386,5be0ed4b9da2d300010ca1db,68817205a84113384fffdfe3,6881a7a397fd373e83d3c0ad,,,,,,,,,,,,,1,,,,,,,,,,,,,,,,,,,,,,,,,,,,,,,,,,,,,9,hacha,,,,,436.1614,437.4933,0,0,0.7963,,0,41,41,8,1,REAL,FAKE,,,,,,,,,,,,,,,,,
,,,,,,,,,5be0ed4b9da2d300010ca1db,Mexican,13 or older,"yes, I am fluent in another language",yes,2025-07-23_23h26.29.239,empathy_intonation_perc_control,2024.2.4,MacIntel,60.24096386,5be0ed4b9da2d300010ca1db,68817205a84113384fffdfe3,6881a7a397fd373e83d3c0ad,,,,,,,,,,,,,0,,,,,,,,,,,,,,,,,,,,,,,,,,,,,,,,,,,,,47,cartinar,,,,,437.4942,439.1775,0,1,1.1585,,0,42,42,46,1,REAL,FAKE,,,,,,,,,,,,,,,,,
,,,,,,,,,5be0ed4b9da2d300010ca1db,Mexican,13 or older,"yes, I am fluent in another language",yes,2025-07-23_23h26.29.239,empathy_intonation_perc_control,2024.2.4,MacIntel,60.24096386,5be0ed4b9da2d300010ca1db,68817205a84113384fffdfe3,6881a7a397fd373e83d3c0ad,,,,,,,,,,,,,1,,,,,,,,,,,,,,,,,,,,,,,,,,,,,,,,,,,,,22,lacayo,,,,,439.1785,440.4106,0,0,0.7066,,0,43,43,21,1,REAL,FAKE,,,,,,,,,,,,,,,,,
,,,,,,,,,5be0ed4b9da2d300010ca1db,Mexican,13 or older,"yes, I am fluent in another language",yes,2025-07-23_23h26.29.239,empathy_intonation_perc_control,2024.2.4,MacIntel,60.24096386,5be0ed4b9da2d300010ca1db,68817205a84113384fffdfe3,6881a7a397fd373e83d3c0ad,,,,,,,,,,,,,1,,,,,,,,,,,,,,,,,,,,,,,,,,,,,,,,,,,,,80,hormiga,,,,,440.4116,441.6939,1,1,0.7595,,0,44,44,79,1,REAL,FAKE,,,,,,,,,,,,,,,,,
,,,,,,,,,5be0ed4b9da2d300010ca1db,Mexican,13 or older,"yes, I am fluent in another language",yes,2025-07-23_23h26.29.239,empathy_intonation_perc_control,2024.2.4,MacIntel,60.24096386,5be0ed4b9da2d300010ca1db,68817205a84113384fffdfe3,6881a7a397fd373e83d3c0ad,,,,,,,,,,,,,1,,,,,,,,,,,,,,,,,,,,,,,,,,,,,,,,,,,,,3,pulmones,,,,,441.6948,443.0936,0,0,0.8625,,0,45,45,2,1,REAL,FAKE,,,,,,,,,,,,,,,,,
,,,,,,,,,5be0ed4b9da2d300010ca1db,Mexican,13 or older,"yes, I am fluent in another language",yes,2025-07-23_23h26.29.239,empathy_intonation_perc_control,2024.2.4,MacIntel,60.24096386,5be0ed4b9da2d300010ca1db,68817205a84113384fffdfe3,6881a7a397fd373e83d3c0ad,,,,,,,,,,,,,1,,,,,,,,,,,,,,,,,,,,,,,,,,,,,,,,,,,,,59,besar,,,,,443.0945,444.4272,1,1,0.8059,,0,46,46,58,1,REAL,FAKE,,,,,,,,,,,,,,,,,
,,,,,,,,,5be0ed4b9da2d300010ca1db,Mexican,13 or older,"yes, I am fluent in another language",yes,2025-07-23_23h26.29.239,empathy_intonation_perc_control,2024.2.4,MacIntel,60.24096386,5be0ed4b9da2d300010ca1db,68817205a84113384fffdfe3,6881a7a397fd373e83d3c0ad,,,,,,,,,,,,,1,,,,,,,,,,,,,,,,,,,,,,,,,,,,,,,,,,,,,91,click the 1 key.,,,,,444.4284,445.9936,1,1,1.0358,,0,47,47,90,1,REAL,FAKE,,,,,,,,,,,,,,,,,
,,,,,,,,,5be0ed4b9da2d300010ca1db,Mexican,13 or older,"yes, I am fluent in another language",yes,2025-07-23_23h26.29.239,empathy_intonation_perc_control,2024.2.4,MacIntel,60.24096386,5be0ed4b9da2d300010ca1db,68817205a84113384fffdfe3,6881a7a397fd373e83d3c0ad,,,,,,,,,,,,,1,,,,,,,,,,,,,,,,,,,,,,,,,,,,,,,,,,,,,75,yacer,,,,,445.9945,447.3094,0,0,0.7727,,0,48,48,74,1,REAL,FAKE,,,,,,,,,,,,,,,,,
,,,,,,,,,5be0ed4b9da2d300010ca1db,Mexican,13 or older,"yes, I am fluent in another language",yes,2025-07-23_23h26.29.239,empathy_intonation_perc_control,2024.2.4,MacIntel,60.24096386,5be0ed4b9da2d300010ca1db,68817205a84113384fffdfe3,6881a7a397fd373e83d3c0ad,,,,,,,,,,,,,1,,,,,,,,,,,,,,,,,,,,,,,,,,,,,,,,,,,,,24,látigo,,,,,447.3104,451.1431,0,0,3.2886,,0,49,49,23,1,REAL,FAKE,,,,,,,,,,,,,,,,,
,,,,,,,,,5be0ed4b9da2d300010ca1db,Mexican,13 or older,"yes, I am fluent in another language",yes,2025-07-23_23h26.29.239,empathy_intonation_perc_control,2024.2.4,MacIntel,60.24096386,5be0ed4b9da2d300010ca1db,68817205a84113384fffdfe3,6881a7a397fd373e83d3c0ad,,,,,,,,,,,,,0,,,,,,,,,,,,,,,,,,,,,,,,,,,,,,,,,,,,,16,abracer,,,,,451.1439,453.4279,1,0,1.7709,,0,50,50,15,1,REAL,FAKE,,,,,,,,,,,,,,,,,
,,,,,,,,,5be0ed4b9da2d300010ca1db,Mexican,13 or older,"yes, I am fluent in another language",yes,2025-07-23_23h26.29.239,empathy_intonation_perc_control,2024.2.4,MacIntel,60.24096386,5be0ed4b9da2d300010ca1db,68817205a84113384fffdfe3,6881a7a397fd373e83d3c0ad,,,,,,,,,,,,,1,,,,,,,,,,,,,,,,,,,,,,,,,,,,,,,,,,,,,76,atar,,,,,453.4289,455.4438,0,0,1.4792,,0,51,51,75,1,REAL,FAKE,,,,,,,,,,,,,,,,,
,,,,,,,,,5be0ed4b9da2d300010ca1db,Mexican,13 or older,"yes, I am fluent in another language",yes,2025-07-23_23h26.29.239,empathy_intonation_perc_control,2024.2.4,MacIntel,60.24096386,5be0ed4b9da2d300010ca1db,68817205a84113384fffdfe3,6881a7a397fd373e83d3c0ad,,,,,,,,,,,,,1,,,,,,,,,,,,,,,,,,,,,,,,,,,,,,,,,,,,,78,frondoso,,,,,455.4448,458.5939,0,0,2.6046,,0,52,52,77,1,REAL,FAKE,,,,,,,,,,,,,,,,,
,,,,,,,,,5be0ed4b9da2d300010ca1db,Mexican,13 or older,"yes, I am fluent in another language",yes,2025-07-23_23h26.29.239,empathy_intonation_perc_control,2024.2.4,MacIntel,60.24096386,5be0ed4b9da2d300010ca1db,68817205a84113384fffdfe3,6881a7a397fd373e83d3c0ad,,,,,,,,,,,,,0,,,,,,,,,,,,,,,,,,,,,,,,,,,,,,,,,,,,,29,decar,,,,,458.5947,460.1104,0,1,0.9775,,0,53,53,28,1,REAL,FAKE,,,,,,,,,,,,,,,,,
,,,,,,,,,5be0ed4b9da2d300010ca1db,Mexican,13 or older,"yes, I am fluent in another language",yes,2025-07-23_23h26.29.239,empathy_intonation_perc_control,2024.2.4,MacIntel,60.24096386,5be0ed4b9da2d300010ca1db,68817205a84113384fffdfe3,6881a7a397fd373e83d3c0ad,,,,,,,,,,,,,0,,,,,,,,,,,,,,,,,,,,,,,,,,,,,,,,,,,,,1,terzo,,,,,460.1112,461.4601,0,1,0.8148,,0,54,54,0,1,REAL,FAKE,,,,,,,,,,,,,,,,,
,,,,,,,,,5be0ed4b9da2d300010ca1db,Mexican,13 or older,"yes, I am fluent in another language",yes,2025-07-23_23h26.29.239,empathy_intonation_perc_control,2024.2.4,MacIntel,60.24096386,5be0ed4b9da2d300010ca1db,68817205a84113384fffdfe3,6881a7a397fd373e83d3c0ad,,,,,,,,,,,,,1,,,,,,,,,,,,,,,,,,,,,,,,,,,,,,,,,,,,,48,ladrón,,,,,461.461,464.1107,1,1,2.1107,,0,55,55,47,1,REAL,FAKE,,,,,,,,,,,,,,,,,
,,,,,,,,,5be0ed4b9da2d300010ca1db,Mexican,13 or older,"yes, I am fluent in another language",yes,2025-07-23_23h26.29.239,empathy_intonation_perc_control,2024.2.4,MacIntel,60.24096386,5be0ed4b9da2d300010ca1db,68817205a84113384fffdfe3,6881a7a397fd373e83d3c0ad,,,,,,,,,,,,,0,,,,,,,,,,,,,,,,,,,,,,,,,,,,,,,,,,,,,50,flamida,,,,,464.1117,465.6441,0,1,0.9983,,0,56,56,49,1,REAL,FAKE,,,,,,,,,,,,,,,,,
,,,,,,,,,5be0ed4b9da2d300010ca1db,Mexican,13 or older,"yes, I am fluent in another language",yes,2025-07-23_23h26.29.239,empathy_intonation_perc_control,2024.2.4,MacIntel,60.24096386,5be0ed4b9da2d300010ca1db,68817205a84113384fffdfe3,6881a7a397fd373e83d3c0ad,,,,,,,,,,,,,1,,,,,,,,,,,,,,,,,,,,,,,,,,,,,,,,,,,,,38,estornudar,,,,,465.6451,468.344,0,0,2.1604,,0,57,57,37,1,REAL,FAKE,,,,,,,,,,,,,,,,,
,,,,,,,,,5be0ed4b9da2d300010ca1db,Mexican,13 or older,"yes, I am fluent in another language",yes,2025-07-23_23h26.29.239,empathy_intonation_perc_control,2024.2.4,MacIntel,60.24096386,5be0ed4b9da2d300010ca1db,68817205a84113384fffdfe3,6881a7a397fd373e83d3c0ad,,,,,,,,,,,,,0,,,,,,,,,,,,,,,,,,,,,,,,,,,,,,,,,,,,,4,batillón,,,,,468.3448,470.9775,0,1,2.0944,,0,58,58,3,1,REAL,FAKE,,,,,,,,,,,,,,,,,
,,,,,,,,,5be0ed4b9da2d300010ca1db,Mexican,13 or older,"yes, I am fluent in another language",yes,2025-07-23_23h26.29.239,empathy_intonation_perc_control,2024.2.4,MacIntel,60.24096386,5be0ed4b9da2d300010ca1db,68817205a84113384fffdfe3,6881a7a397fd373e83d3c0ad,,,,,,,,,,,,,1,,,,,,,,,,,,,,,,,,,,,,,,,,,,,,,,,,,,,25,bisagra,,,,,470.9784,474.4608,0,0,2.9571,,0,59,59,24,1,REAL,FAKE,,,,,,,,,,,,,,,,,
,,,,,,,,,5be0ed4b9da2d300010ca1db,Mexican,13 or older,"yes, I am fluent in another language",yes,2025-07-23_23h26.29.239,empathy_intonation_perc_control,2024.2.4,MacIntel,60.24096386,5be0ed4b9da2d300010ca1db,68817205a84113384fffdfe3,6881a7a397fd373e83d3c0ad,,,,,,,,,,,,,1,,,,,,,,,,,,,,,,,,,,,,,,,,,,,,,,,,,,,31,pandilla,,,,,474.4618,475.8273,1,1,0.8231,,0,60,60,30,1,REAL,FAKE,,,,,,,,,,,,,,,,,
,,,,,,,,,5be0ed4b9da2d300010ca1db,Mexican,13 or older,"yes, I am fluent in another language",yes,2025-07-23_23h26.29.239,empathy_intonation_perc_control,2024.2.4,MacIntel,60.24096386,5be0ed4b9da2d300010ca1db,68817205a84113384fffdfe3,6881a7a397fd373e83d3c0ad,,,,,,,,,,,,,0,,,,,,,,,,,,,,,,,,,,,,,,,,,,,,,,,,,,,33,pauca,,,,,475.8282,477.6438,0,1,1.2805,,0,61,61,32,1,REAL,FAKE,,,,,,,,,,,,,,,,,
,,,,,,,,,5be0ed4b9da2d300010ca1db,Mexican,13 or older,"yes, I am fluent in another language",yes,2025-07-23_23h26.29.239,empathy_intonation_perc_control,2024.2.4,MacIntel,60.24096386,5be0ed4b9da2d300010ca1db,68817205a84113384fffdfe3,6881a7a397fd373e83d3c0ad,,,,,,,,,,,,,1,,,,,,,,,,,,,,,,,,,,,,,,,,,,,,,,,,,,,54,fomentar,,,,,477.6447,479.2943,1,1,1.1298,,0,62,62,53,1,REAL,FAKE,,,,,,,,,,,,,,,,,
,,,,,,,,,5be0ed4b9da2d300010ca1db,Mexican,13 or older,"yes, I am fluent in another language",yes,2025-07-23_23h26.29.239,empathy_intonation_perc_control,2024.2.4,MacIntel,60.24096386,5be0ed4b9da2d300010ca1db,68817205a84113384fffdfe3,6881a7a397fd373e83d3c0ad,,,,,,,,,,,,,1,,,,,,,,,,,,,,,,,,,,,,,,,,,,,,,,,,,,,49,ganar,,,,,479.2953,480.8277,1,1,0.9997,,0,63,63,48,1,REAL,FAKE,,,,,,,,,,,,,,,,,
,,,,,,,,,5be0ed4b9da2d300010ca1db,Mexican,13 or older,"yes, I am fluent in another language",yes,2025-07-23_23h26.29.239,empathy_intonation_perc_control,2024.2.4,MacIntel,60.24096386,5be0ed4b9da2d300010ca1db,68817205a84113384fffdfe3,6881a7a397fd373e83d3c0ad,,,,,,,,,,,,,0,,,,,,,,,,,,,,,,,,,,,,,,,,,,,,,,,,,,,63,esposante,,,,,480.8286,483.0278,0,1,1.6674,,0,64,64,62,1,REAL,FAKE,,,,,,,,,,,,,,,,,
,,,,,,,,,5be0ed4b9da2d300010ca1db,Mexican,13 or older,"yes, I am fluent in another language",yes,2025-07-23_23h26.29.239,empathy_intonation_perc_control,2024.2.4,MacIntel,60.24096386,5be0ed4b9da2d300010ca1db,68817205a84113384fffdfe3,6881a7a397fd373e83d3c0ad,,,,,,,,,,,,,1,,,,,,,,,,,,,,,,,,,,,,,,,,,,,,,,,,,,,34,aviso,,,,,483.0291,488.7279,0,0,5.1628,,0,65,65,33,1,REAL,FAKE,,,,,,,,,,,,,,,,,
,,,,,,,,,5be0ed4b9da2d300010ca1db,Mexican,13 or older,"yes, I am fluent in another language",yes,2025-07-23_23h26.29.239,empathy_intonation_perc_control,2024.2.4,MacIntel,60.24096386,5be0ed4b9da2d300010ca1db,68817205a84113384fffdfe3,6881a7a397fd373e83d3c0ad,,,,,,,,,,,,,0,,,,,,,,,,,,,,,,,,,,,,,,,,,,,,,,,,,,,74,cintro,,,,,488.729,492.7611,0,1,3.4986,,0,66,66,73,1,REAL,FAKE,,,,,,,,,,,,,,,,,
,,,,,,,,,5be0ed4b9da2d300010ca1db,Mexican,13 or older,"yes, I am fluent in another language",yes,2025-07-23_23h26.29.239,empathy_intonation_perc_control,2024.2.4,MacIntel,60.24096386,5be0ed4b9da2d300010ca1db,68817205a84113384fffdfe3,6881a7a397fd373e83d3c0ad,,,,,,,,,,,,,1,,,,,,,,,,,,,,,,,,,,,,,,,,,,,,,,,,,,,57,tacaño,,,,,492.7618,494.178,0,0,0.8732,,0,67,67,56,1,REAL,FAKE,,,,,,,,,,,,,,,,,
,,,,,,,,,5be0ed4b9da2d300010ca1db,Mexican,13 or older,"yes, I am fluent in another language",yes,2025-07-23_23h26.29.239,empathy_intonation_perc_control,2024.2.4,MacIntel,60.24096386,5be0ed4b9da2d300010ca1db,68817205a84113384fffdfe3,6881a7a397fd373e83d3c0ad,,,,,,,,,,,,,1,,,,,,,,,,,,,,,,,,,,,,,,,,,,,,,,,,,,,69,engatusar,,,,,494.179,496.9789,0,0,2.2772,,0,68,68,68,1,REAL,FAKE,,,,,,,,,,,,,,,,,
,,,,,,,,,5be0ed4b9da2d300010ca1db,Mexican,13 or older,"yes, I am fluent in another language",yes,2025-07-23_23h26.29.239,empathy_intonation_perc_control,2024.2.4,MacIntel,60.24096386,5be0ed4b9da2d300010ca1db,68817205a84113384fffdfe3,6881a7a397fd373e83d3c0ad,,,,,,,,,,,,,1,,,,,,,,,,,,,,,,,,,,,,,,,,,,,,,,,,,,,28,merodear,,,,,496.9798,498.6613,0,0,1.1522,,0,69,69,27,1,REAL,FAKE,,,,,,,,,,,,,,,,,
,,,,,,,,,5be0ed4b9da2d300010ca1db,Mexican,13 or older,"yes, I am fluent in another language",yes,2025-07-23_23h26.29.239,empathy_intonation_perc_control,2024.2.4,MacIntel,60.24096386,5be0ed4b9da2d300010ca1db,68817205a84113384fffdfe3,6881a7a397fd373e83d3c0ad,,,,,,,,,,,,,0,,,,,,,,,,,,,,,,,,,,,,,,,,,,,,,,,,,,,70,temblo,,,,,498.6622,500.1448,0,1,0.9503,,0,70,70,69,1,REAL,FAKE,,,,,,,,,,,,,,,,,
,,,,,,,,,5be0ed4b9da2d300010ca1db,Mexican,13 or older,"yes, I am fluent in another language",yes,2025-07-23_23h26.29.239,empathy_intonation_perc_control,2024.2.4,MacIntel,60.24096386,5be0ed4b9da2d300010ca1db,68817205a84113384fffdfe3,6881a7a397fd373e83d3c0ad,,,,,,,,,,,,,1,,,,,,,,,,,,,,,,,,,,,,,,,,,,,,,,,,,,,39,torpe,,,,,500.1459,501.4783,0,0,0.808,,0,71,71,38,1,REAL,FAKE,,,,,,,,,,,,,,,,,
,,,,,,,,,5be0ed4b9da2d300010ca1db,Mexican,13 or older,"yes, I am fluent in another language",yes,2025-07-23_23h26.29.239,empathy_intonation_perc_control,2024.2.4,MacIntel,60.24096386,5be0ed4b9da2d300010ca1db,68817205a84113384fffdfe3,6881a7a397fd373e83d3c0ad,,,,,,,,,,,,,1,,,,,,,,,,,,,,,,,,,,,,,,,,,,,,,,,,,,,65,bizcocho,,,,,501.4792,503.0285,1,1,1.0248,,0,72,72,64,1,REAL,FAKE,,,,,,,,,,,,,,,,,
,,,,,,,,,5be0ed4b9da2d300010ca1db,Mexican,13 or older,"yes, I am fluent in another language",yes,2025-07-23_23h26.29.239,empathy_intonation_perc_control,2024.2.4,MacIntel,60.24096386,5be0ed4b9da2d300010ca1db,68817205a84113384fffdfe3,6881a7a397fd373e83d3c0ad,,,,,,,,,,,,,1,,,,,,,,,,,,,,,,,,,,,,,,,,,,,,,,,,,,,14,yunque,,,,,503.0293,504.3615,1,1,0.7969,,0,73,73,13,1,REAL,FAKE,,,,,,,,,,,,,,,,,
,,,,,,,,,5be0ed4b9da2d300010ca1db,Mexican,13 or older,"yes, I am fluent in another language",yes,2025-07-23_23h26.29.239,empathy_intonation_perc_control,2024.2.4,MacIntel,60.24096386,5be0ed4b9da2d300010ca1db,68817205a84113384fffdfe3,6881a7a397fd373e83d3c0ad,,,,,,,,,,,,,1,,,,,,,,,,,,,,,,,,,,,,,,,,,,,,,,,,,,,2,pellizcar,,,,,504.3625,507.8449,0,0,2.9513,,0,74,74,1,1,REAL,FAKE,,,,,,,,,,,,,,,,,
,,,,,,,,,5be0ed4b9da2d300010ca1db,Mexican,13 or older,"yes, I am fluent in another language",yes,2025-07-23_23h26.29.239,empathy_intonation_perc_control,2024.2.4,MacIntel,60.24096386,5be0ed4b9da2d300010ca1db,68817205a84113384fffdfe3,6881a7a397fd373e83d3c0ad,,,,,,,,,,,,,1,,,,,,,,,,,,,,,,,,,,,,,,,,,,,,,,,,,,,40,alfombra,,,,,507.8457,509.3607,1,1,0.9888,,0,75,75,39,1,REAL,FAKE,,,,,,,,,,,,,,,,,
,,,,,,,,,5be0ed4b9da2d300010ca1db,Mexican,13 or older,"yes, I am fluent in another language",yes,2025-07-23_23h26.29.239,empathy_intonation_perc_control,2024.2.4,MacIntel,60.24096386,5be0ed4b9da2d300010ca1db,68817205a84113384fffdfe3,6881a7a397fd373e83d3c0ad,,,,,,,,,,,,,1,,,,,,,,,,,,,,,,,,,,,,,,,,,,,,,,,,,,,60,matar,,,,,509.3616,510.7447,1,1,0.8678,,0,76,76,59,1,REAL,FAKE,,,,,,,,,,,,,,,,,
,,,,,,,,,5be0ed4b9da2d300010ca1db,Mexican,13 or older,"yes, I am fluent in another language",yes,2025-07-23_23h26.29.239,empathy_intonation_perc_control,2024.2.4,MacIntel,60.24096386,5be0ed4b9da2d300010ca1db,68817205a84113384fffdfe3,6881a7a397fd373e83d3c0ad,,,,,,,,,,,,,1,,,,,,,,,,,,,,,,,,,,,,,,,,,,,,,,,,,,,51,candado,,,,,510.7451,512.4461,1,1,1.1917,,0,77,77,50,1,REAL,FAKE,,,,,,,,,,,,,,,,,
,,,,,,,,,5be0ed4b9da2d300010ca1db,Mexican,13 or older,"yes, I am fluent in another language",yes,2025-07-23_23h26.29.239,empathy_intonation_perc_control,2024.2.4,MacIntel,60.24096386,5be0ed4b9da2d300010ca1db,68817205a84113384fffdfe3,6881a7a397fd373e83d3c0ad,,,,,,,,,,,,,0,,,,,,,,,,,,,,,,,,,,,,,,,,,,,,,,,,,,,66,hacido,,,,,512.4472,514.3283,0,1,1.3454,,0,78,78,65,1,REAL,FAKE,,,,,,,,,,,,,,,,,
,,,,,,,,,5be0ed4b9da2d300010ca1db,Mexican,13 or older,"yes, I am fluent in another language",yes,2025-07-23_23h26.29.239,empathy_intonation_perc_control,2024.2.4,MacIntel,60.24096386,5be0ed4b9da2d300010ca1db,68817205a84113384fffdfe3,6881a7a397fd373e83d3c0ad,,,,,,,,,,,,,1,,,,,,,,,,,,,,,,,,,,,,,,,,,,,,,,,,,,,26,secuestro,,,,,514.3291,515.9952,1,1,1.1284,,0,79,79,25,1,REAL,FAKE,,,,,,,,,,,,,,,,,
,,,,,,,,,5be0ed4b9da2d300010ca1db,Mexican,13 or older,"yes, I am fluent in another language",yes,2025-07-23_23h26.29.239,empathy_intonation_perc_control,2024.2.4,MacIntel,60.24096386,5be0ed4b9da2d300010ca1db,68817205a84113384fffdfe3,6881a7a397fd373e83d3c0ad,,,,,,,,,,,,,0,,,,,,,,,,,,,,,,,,,,,,,,,,,,,,,,,,,,,92,click the 0 key.,,,,,515.9962,517.4784,0,1,0.9387,,0,80,80,91,1,REAL,FAKE,,,,,,,,,,,,,,,,,
,,,,,,,,,5be0ed4b9da2d300010ca1db,Mexican,13 or older,"yes, I am fluent in another language",yes,2025-07-23_23h26.29.239,empathy_intonation_perc_control,2024.2.4,MacIntel,60.24096386,5be0ed4b9da2d300010ca1db,68817205a84113384fffdfe3,6881a7a397fd373e83d3c0ad,,,,,,,,,,,,,0,,,,,,,,,,,,,,,,,,,,,,,,,,,,,,,,,,,,,30,alardio,,,,,517.4793,520.3952,0,1,2.3735,,0,81,81,29,1,REAL,FAKE,,,,,,,,,,,,,,,,,
,,,,,,,,,5be0ed4b9da2d300010ca1db,Mexican,13 or older,"yes, I am fluent in another language",yes,2025-07-23_23h26.29.239,empathy_intonation_perc_control,2024.2.4,MacIntel,60.24096386,5be0ed4b9da2d300010ca1db,68817205a84113384fffdfe3,6881a7a397fd373e83d3c0ad,,,,,,,,,,,,,0,,,,,,,,,,,,,,,,,,,,,,,,,,,,,,,,,,,,,72,pemición,,,,,520.3961,522.1444,0,1,1.216,,0,82,82,71,1,REAL,FAKE,,,,,,,,,,,,,,,,,
,,,,,,,,,5be0ed4b9da2d300010ca1db,Mexican,13 or older,"yes, I am fluent in another language",yes,2025-07-23_23h26.29.239,empathy_intonation_perc_control,2024.2.4,MacIntel,60.24096386,5be0ed4b9da2d300010ca1db,68817205a84113384fffdfe3,6881a7a397fd373e83d3c0ad,,,,,,,,,,,,,1,,,,,,,,,,,,,,,,,,,,,,,,,,,,,,,,,,,,,73,hervidor,,,,,522.1448,524.2619,0,0,1.5978,,0,83,83,72,1,REAL,FAKE,,,,,,,,,,,,,,,,,
,,,,,,,,,5be0ed4b9da2d300010ca1db,Mexican,13 or older,"yes, I am fluent in another language",yes,2025-07-23_23h26.29.239,empathy_intonation_perc_control,2024.2.4,MacIntel,60.24096386,5be0ed4b9da2d300010ca1db,68817205a84113384fffdfe3,6881a7a397fd373e83d3c0ad,,,,,,,,,,,,,1,,,,,,,,,,,,,,,,,,,,,,,,,,,,,,,,,,,,,67,cabello,,,,,524.2628,525.8786,1,1,1.0902,,0,84,84,66,1,REAL,FAKE,,,,,,,,,,,,,,,,,
,,,,,,,,,5be0ed4b9da2d300010ca1db,Mexican,13 or older,"yes, I am fluent in another language",yes,2025-07-23_23h26.29.239,empathy_intonation_perc_control,2024.2.4,MacIntel,60.24096386,5be0ed4b9da2d300010ca1db,68817205a84113384fffdfe3,6881a7a397fd373e83d3c0ad,,,,,,,,,,,,,0,,,,,,,,,,,,,,,,,,,,,,,,,,,,,,,,,,,,,10,antar,,,,,525.8794,528.1787,0,1,1.7636,,0,85,85,9,1,REAL,FAKE,,,,,,,,,,,,,,,,,
,,,,,,,,,5be0ed4b9da2d300010ca1db,Mexican,13 or older,"yes, I am fluent in another language",yes,2025-07-23_23h26.29.239,empathy_intonation_perc_control,2024.2.4,MacIntel,60.24096386,5be0ed4b9da2d300010ca1db,68817205a84113384fffdfe3,6881a7a397fd373e83d3c0ad,,,,,,,,,,,,,1,,,,,,,,,,,,,,,,,,,,,,,,,,,,,,,,,,,,,20,ávido,,,,,528.1797,530.7122,0,0,1.9967,,0,86,86,19,1,REAL,FAKE,,,,,,,,,,,,,,,,,
,,,,,,,,,5be0ed4b9da2d300010ca1db,Mexican,13 or older,"yes, I am fluent in another language",yes,2025-07-23_23h26.29.239,empathy_intonation_perc_control,2024.2.4,MacIntel,60.24096386,5be0ed4b9da2d300010ca1db,68817205a84113384fffdfe3,6881a7a397fd373e83d3c0ad,,,,,,,,,,,,,1,,,,,,,,,,,,,,,,,,,,,,,,,,,,,,,,,,,,,45,jilguero,,,,,530.7131,533.3788,0,0,2.129,,0,87,87,44,1,REAL,FAKE,,,,,,,,,,,,,,,,,
,,,,,,,,,5be0ed4b9da2d300010ca1db,Mexican,13 or older,"yes, I am fluent in another language",yes,2025-07-23_23h26.29.239,empathy_intonation_perc_control,2024.2.4,MacIntel,60.24096386,5be0ed4b9da2d300010ca1db,68817205a84113384fffdfe3,6881a7a397fd373e83d3c0ad,,,,,,,,,,,,,1,,,,,,,,,,,,,,,,,,,,,,,,,,,,,,,,,,,,,52,camisa,,,,,533.3797,535.0121,1,1,1.1077,,0,88,88,51,1,REAL,FAKE,,,,,,,,,,,,,,,,,
,,,,,,,,,5be0ed4b9da2d300010ca1db,Mexican,13 or older,"yes, I am fluent in another language",yes,2025-07-23_23h26.29.239,empathy_intonation_perc_control,2024.2.4,MacIntel,60.24096386,5be0ed4b9da2d300010ca1db,68817205a84113384fffdfe3,6881a7a397fd373e83d3c0ad,,,,,,,,,,,,,1,,,,,,,,,,,,,,,,,,,,,,,,,,,,,,,,,,,,,37,granuja,,,,,535.0128,544.4124,0,0,8.8627,,0,89,89,36,1,REAL,FAKE,,,,,,,,,,,,,,,,,
,,,,,,,,,5be0ed4b9da2d300010ca1db,Mexican,13 or older,"yes, I am fluent in another language",yes,2025-07-23_23h26.29.239,empathy_intonation_perc_control,2024.2.4,MacIntel,60.24096386,5be0ed4b9da2d300010ca1db,68817205a84113384fffdfe3,6881a7a397fd373e83d3c0ad,,,,,,,,,,,,,1,,,,,,,,,,,,,,,,,,,,,,,,,,,,,,,,,,,,,5,zapato,,,,,544.4133,545.8123,1,1,0.87,,0,90,90,4,1,REAL,FAKE,,,,,,,,,,,,,,,,,
,,,,,,,,,5be0ed4b9da2d300010ca1db,Mexican,13 or older,"yes, I am fluent in another language",yes,2025-07-23_23h26.29.239,empathy_intonation_perc_control,2024.2.4,MacIntel,60.24096386,5be0ed4b9da2d300010ca1db,68817205a84113384fffdfe3,6881a7a397fd373e83d3c0ad,,,,,,,,,,,,,1,,,,,,,,,,,,,,,,,,,,,,,,,,,,,,,,,,,,,55,nevar,,,,,545.813,547.5793,1,1,1.2325,,0,91,91,54,1,REAL,FAKE,,,,,,,,,,,,,,,,,
,,,,,,,,,5be0ed4b9da2d300010ca1db,Mexican,13 or older,"yes, I am fluent in another language",yes,2025-07-23_23h26.29.239,empathy_intonation_perc_control,2024.2.4,MacIntel,60.24096386,5be0ed4b9da2d300010ca1db,68817205a84113384fffdfe3,6881a7a397fd373e83d3c0ad,,,,,,,,,,,,,,,,,,,,,,,,,,,,,,,,,,,,,,,,,,,,,,,,,,,,,,,,,,,,,,,,,,,,,547.5797,555.663,,,,,,,,,,,,,,,
,,,,,,,,,5be0ed4b9da2d300010ca1db,Mexican,13 or older,"yes, I am fluent in another language",yes,2025-07-23_23h26.29.239,empathy_intonation_perc_control,2024.2.4,MacIntel,60.24096386,5be0ed4b9da2d300010ca1db,68817205a84113384fffdfe3,6881a7a397fd373e83d3c0ad,,,,,,,,,,,,,,,,,,,,,,,,,,,1,,,,,,,,,,,,,,,,,,,,,,,,,,,,,,,,,,,,,,,,,,,,555.6711,558.9785,strongly agree,0,0,0,0,1,I can easily tell if someone else wants to enter a conversation.,1,0,1,0,,
,,,,,,,,,5be0ed4b9da2d300010ca1db,Mexican,13 or older,"yes, I am fluent in another language",yes,2025-07-23_23h26.29.239,empathy_intonation_perc_control,2024.2.4,MacIntel,60.24096386,5be0ed4b9da2d300010ca1db,68817205a84113384fffdfe3,6881a7a397fd373e83d3c0ad,,,,,,,,,,,,,,,,,,,,,,,,,,,2,,,,,,,,,,,,,,,,,,,,,,,,,,,,,,,,,,,,,,,,,,,,558.9795,561.3962,strongly disagree,0,1,1,1,1,I prefer animals to humans.,0,1,0,0,,
,,,,,,,,,5be0ed4b9da2d300010ca1db,Mexican,13 or older,"yes, I am fluent in another language",yes,2025-07-23_23h26.29.239,empathy_intonation_perc_control,2024.2.4,MacIntel,60.24096386,5be0ed4b9da2d300010ca1db,68817205a84113384fffdfe3,6881a7a397fd373e83d3c0ad,,,,,,,,,,,,,,,,,,,,,,,,,,,3,,,,,,,,,,,,,,,,,,,,,,,,,,,,,,,,,,,,,,,,,,,,561.3972,564.8295,slightly disagree,0,2,2,2,1,I try to keep up with the current trends and fashions.,0,1,0,0,,
,,,,,,,,,5be0ed4b9da2d300010ca1db,Mexican,13 or older,"yes, I am fluent in another language",yes,2025-07-23_23h26.29.239,empathy_intonation_perc_control,2024.2.4,MacIntel,60.24096386,5be0ed4b9da2d300010ca1db,68817205a84113384fffdfe3,6881a7a397fd373e83d3c0ad,,,,,,,,,,,,,,,,,,,,,,,,,,,4,,,,,,,,,,,,,,,,,,,,,,,,,,,,,,,,,,,,,,,,,,,,564.8307,585.5134,slightly agree,0,3,3,3,1,"I find it difficult to explain to others things that I understand easily,   when they don't understand it first time.",1,0,0,1,,
,,,,,,,,,5be0ed4b9da2d300010ca1db,Mexican,13 or older,"yes, I am fluent in another language",yes,2025-07-23_23h26.29.239,empathy_intonation_perc_control,2024.2.4,MacIntel,60.24096386,5be0ed4b9da2d300010ca1db,68817205a84113384fffdfe3,6881a7a397fd373e83d3c0ad,,,,,,,,,,,,,,,,,,,,,,,,,,,5,,,,,,,,,,,,,,,,,,,,,,,,,,,,,,,,,,,,,,,,,,,,585.5148,587.9301,slightly agree,0,4,4,4,1,I dream most nights.,0,1,0,0,,
,,,,,,,,,5be0ed4b9da2d300010ca1db,Mexican,13 or older,"yes, I am fluent in another language",yes,2025-07-23_23h26.29.239,empathy_intonation_perc_control,2024.2.4,MacIntel,60.24096386,5be0ed4b9da2d300010ca1db,68817205a84113384fffdfe3,6881a7a397fd373e83d3c0ad,,,,,,,,,,,,,,,,,,,,,,,,,,,6,,,,,,,,,,,,,,,,,,,,,,,,,,,,,,,,,,,,,,,,,,,,587.9312,589.7634,slightly agree,0,5,5,5,1,I really enjoy caring for other people.,1,0,1,0,,
,,,,,,,,,5be0ed4b9da2d300010ca1db,Mexican,13 or older,"yes, I am fluent in another language",yes,2025-07-23_23h26.29.239,empathy_intonation_perc_control,2024.2.4,MacIntel,60.24096386,5be0ed4b9da2d300010ca1db,68817205a84113384fffdfe3,6881a7a397fd373e83d3c0ad,,,,,,,,,,,,,,,,,,,,,,,,,,,7,,,,,,,,,,,,,,,,,,,,,,,,,,,,,,,,,,,,,,,,,,,,589.7647,592.7135,strongly agree,0,6,6,6,1,I try to solve my own problems rather than discussing them with others.,0,1,0,0,,
,,,,,,,,,5be0ed4b9da2d300010ca1db,Mexican,13 or older,"yes, I am fluent in another language",yes,2025-07-23_23h26.29.239,empathy_intonation_perc_control,2024.2.4,MacIntel,60.24096386,5be0ed4b9da2d300010ca1db,68817205a84113384fffdfe3,6881a7a397fd373e83d3c0ad,,,,,,,,,,,,,,,,,,,,,,,,,,,8,,,,,,,,,,,,,,,,,,,,,,,,,,,,,,,,,,,,,,,,,,,,592.7146,596.6799,slightly disagree,0,7,7,7,1,I find it hard to know what to do in a social situation.,1,0,0,1,,
,,,,,,,,,5be0ed4b9da2d300010ca1db,Mexican,13 or older,"yes, I am fluent in another language",yes,2025-07-23_23h26.29.239,empathy_intonation_perc_control,2024.2.4,MacIntel,60.24096386,5be0ed4b9da2d300010ca1db,68817205a84113384fffdfe3,6881a7a397fd373e83d3c0ad,,,,,,,,,,,,,,,,,,,,,,,,,,,9,,,,,,,,,,,,,,,,,,,,,,,,,,,,,,,,,,,,,,,,,,,,596.6805,599.197,slightly agree,0,8,8,8,1,I am at my best first thing in the morning.,0,1,0,0,,
,,,,,,,,,5be0ed4b9da2d300010ca1db,Mexican,13 or older,"yes, I am fluent in another language",yes,2025-07-23_23h26.29.239,empathy_intonation_perc_control,2024.2.4,MacIntel,60.24096386,5be0ed4b9da2d300010ca1db,68817205a84113384fffdfe3,6881a7a397fd373e83d3c0ad,,,,,,,,,,,,,,,,,,,,,,,,,,,10,,,,,,,,,,,,,,,,,,,,,,,,,,,,,,,,,,,,,,,,,,,,599.1984,611.3137,slightly disagree,0,9,9,9,1,People often tell me that I went too far in driving my point home in a discussion.,1,0,0,1,,
,,,,,,,,,5be0ed4b9da2d300010ca1db,Mexican,13 or older,"yes, I am fluent in another language",yes,2025-07-23_23h26.29.239,empathy_intonation_perc_control,2024.2.4,MacIntel,60.24096386,5be0ed4b9da2d300010ca1db,68817205a84113384fffdfe3,6881a7a397fd373e83d3c0ad,,,,,,,,,,,,,,,,,,,,,,,,,,,11,,,,,,,,,,,,,,,,,,,,,,,,,,,,,,,,,,,,,,,,,,,,611.3144,617.2133,slightly disagree,0,10,10,10,1,It doesn't bother me too much if I am late meeting a friend.,1,0,0,1,,
,,,,,,,,,5be0ed4b9da2d300010ca1db,Mexican,13 or older,"yes, I am fluent in another language",yes,2025-07-23_23h26.29.239,empathy_intonation_perc_control,2024.2.4,MacIntel,60.24096386,5be0ed4b9da2d300010ca1db,68817205a84113384fffdfe3,6881a7a397fd373e83d3c0ad,,,,,,,,,,,,,,,,,,,,,,,,,,,12,,,,,,,,,,,,,,,,,,,,,,,,,,,,,,,,,,,,,,,,,,,,617.2148,621.6807,strongly disagree,0,11,11,11,1,"Friendships and relationships are just too difficult, so I tend not to 
  bother with them.",1,0,0,1,,
,,,,,,,,,5be0ed4b9da2d300010ca1db,Mexican,13 or older,"yes, I am fluent in another language",yes,2025-07-23_23h26.29.239,empathy_intonation_perc_control,2024.2.4,MacIntel,60.24096386,5be0ed4b9da2d300010ca1db,68817205a84113384fffdfe3,6881a7a397fd373e83d3c0ad,,,,,,,,,,,,,,,,,,,,,,,,,,,13,,,,,,,,,,,,,,,,,,,,,,,,,,,,,,,,,,,,,,,,,,,,621.6818,624.5141,slightly disagree,0,12,12,12,1,"I would never break a law, no matter how minor.",0,1,0,0,,
,,,,,,,,,5be0ed4b9da2d300010ca1db,Mexican,13 or older,"yes, I am fluent in another language",yes,2025-07-23_23h26.29.239,empathy_intonation_perc_control,2024.2.4,MacIntel,60.24096386,5be0ed4b9da2d300010ca1db,68817205a84113384fffdfe3,6881a7a397fd373e83d3c0ad,,,,,,,,,,,,,,,,,,,,,,,,,,,14,,,,,,,,,,,,,,,,,,,,,,,,,,,,,,,,,,,,,,,,,,,,624.515,636.3978,strongly disagree,0,13,13,13,1,I often find it difficult to judge if something is rude or polite.,1,0,0,1,,
,,,,,,,,,5be0ed4b9da2d300010ca1db,Mexican,13 or older,"yes, I am fluent in another language",yes,2025-07-23_23h26.29.239,empathy_intonation_perc_control,2024.2.4,MacIntel,60.24096386,5be0ed4b9da2d300010ca1db,68817205a84113384fffdfe3,6881a7a397fd373e83d3c0ad,,,,,,,,,,,,,,,,,,,,,,,,,,,15,,,,,,,,,,,,,,,,,,,,,,,,,,,,,,,,,,,,,,,,,,,,636.3992,647.5974,slightly disagree,0,14,14,14,1,"In a conversation, I tend to focus on my own thoughts rather than on what 
  my listener might be thinking.",1,0,0,1,,
,,,,,,,,,5be0ed4b9da2d300010ca1db,Mexican,13 or older,"yes, I am fluent in another language",yes,2025-07-23_23h26.29.239,empathy_intonation_perc_control,2024.2.4,MacIntel,60.24096386,5be0ed4b9da2d300010ca1db,68817205a84113384fffdfe3,6881a7a397fd373e83d3c0ad,,,,,,,,,,,,,,,,,,,,,,,,,,,16,,,,,,,,,,,,,,,,,,,,,,,,,,,,,,,,,,,,,,,,,,,,647.5985,654.3314,strongly disagree,0,15,15,15,1,I prefer practical jokes to verbal humor.,0,1,0,0,,
,,,,,,,,,5be0ed4b9da2d300010ca1db,Mexican,13 or older,"yes, I am fluent in another language",yes,2025-07-23_23h26.29.239,empathy_intonation_perc_control,2024.2.4,MacIntel,60.24096386,5be0ed4b9da2d300010ca1db,68817205a84113384fffdfe3,6881a7a397fd373e83d3c0ad,,,,,,,,,,,,,,,,,,,,,,,,,,,17,,,,,,,,,,,,,,,,,,,,,,,,,,,,,,,,,,,,,,,,,,,,654.3325,669.048,strongly disagree,0,16,16,16,1,I live life for today rather than the future.,0,1,0,0,,
,,,,,,,,,5be0ed4b9da2d300010ca1db,Mexican,13 or older,"yes, I am fluent in another language",yes,2025-07-23_23h26.29.239,empathy_intonation_perc_control,2024.2.4,MacIntel,60.24096386,5be0ed4b9da2d300010ca1db,68817205a84113384fffdfe3,6881a7a397fd373e83d3c0ad,,,,,,,,,,,,,,,,,,,,,,,,,,,18,,,,,,,,,,,,,,,,,,,,,,,,,,,,,,,,,,,,,,,,,,,,669.0487,671.6651,strongly disagree,0,17,17,17,1,"When I was a child, I enjoyed cutting up worms to see what would happen.",1,0,0,1,,
