instructions_2afc.started,instructions_2afc.stopped,instructions_2afc_loop.thisRepN,instructions_2afc_loop.thisTrialN,instructions_2afc_loop.thisN,instructions_2afc_loop.thisIndex,instructions_2afc_loop.ran,instructions_text,continue_text,participant_id,"What variety of Spanish are you most familiar with? (e.g., Peruvian, Spanish, Mexican)",At what age did you begin learning Spanish?,Are you proficient in any languages other than English/Spanish?,"Are you familiar with Caribbean (e.g., Caribbean, Puerto Rican) or Galician Spanish?",date,expName,psychopyVersion,OS,frameRate,id,study_id,session,practice_2afc.started,practice_2afc.stopped,key_resp_2afc_practice.keys,key_resp_2afc_practice.corr,key_resp_2afc_practice.rt,key_resp_2afc_practice.duration,trials_2afc_practice_loop.thisRepN,trials_2afc_practice_loop.thisTrialN,trials_2afc_practice_loop.thisN,trials_2afc_practice_loop.thisIndex,trials_2afc_practice_loop.ran,path,correct_response,check_2afc.started,check_2afc.stopped,trial_2afc.started,trial_2afc.stopped,key_resp_2afc_trial.keys,key_resp_2afc_trial.corr,key_resp_2afc_trial.rt,key_resp_2afc_trial.duration,trials_2afc_loop.thisRepN,trials_2afc_loop.thisTrialN,trials_2afc_loop.thisN,trials_2afc_loop.thisIndex,trials_2afc_loop.ran,item_num,target,variety,instructions_lextale.started,instructions_lextale.stopped,instructions_lextale_loop.thisRepN,instructions_lextale_loop.thisTrialN,instructions_lextale_loop.thisN,instructions_lextale_loop.thisIndex,instructions_lextale_loop.ran,practice_lextale.started,practice_lextale.stopped,key_resp_lextale_practice.keys,key_resp_lextale_practice.corr,key_resp_lextale_practice.rt,key_resp_lextale_practice.duration,practice_feedback_lextale.started,practice_feedback_lextale.stopped,trials_lextale_practice_loop.thisRepN,trials_lextale_practice_loop.thisTrialN,trials_lextale_practice_loop.thisN,trials_lextale_practice_loop.thisIndex,trials_lextale_practice_loop.ran,stim,word,prac_button_real,prac_button_false,check_lextale.started,check_lextale.stopped,trial_lextale.started,trial_lextale.stopped,key_resp_lextale_trial.keys,key_resp_lextale_trial.corr,key_resp_lextale_trial.rt,key_resp_lextale_trial.duration,trials_lextale_loop.thisRepN,trials_lextale_loop.thisTrialN,trials_lextale_loop.thisN,trials_lextale_loop.thisIndex,trials_lextale_loop.ran,button_real,button_false,instructions_eq.started,instructions_eq.stopped,trial_eq.started,trial_eq.stopped,slider_eq_trial.response,trials_eq_loop.thisRepN,trials_eq_loop.thisTrialN,trials_eq_loop.thisN,trials_eq_loop.thisIndex,trials_eq_loop.ran,item,is_test_item,is_distractor,is_agree_score,is_disagree_score,end_exp.started,end_exp.stopped
0.0147,7.3376,0,0,0,0,1,"In the following task you are going to hear a series of utterances. 

  You will decide if the utterances sound like questions or not using your keyboard.", (press the spacebar to continue),5beddd59e4dbf300011c1d50,Mexican,13 or older,"no, only English or Spanish",no,2025-07-24_04h08.21.680,empathy_intonation_perc_control,2024.2.4,Win32,59.88023952,5beddd59e4dbf300011c1d50,68817205a84113384fffdfe3,6881e9bce34f1c8b39731d0c,,,,,,,,,,,,,,,,,,,,,,,,,,,,,,,,,,,,,,,,,,,,,,,,,,,,,,,,,,,,,,,,,,,,,,,,,,,,,,,,,,,,,
7.3411,19.3534,0,1,1,1,1,"If you believe the utterance is a question, type '1' (for 'yes') and if you do not 
  believe it is a question type '0' (for 'no').

  Let's practice a bit...", (press the spacebar to continue),5beddd59e4dbf300011c1d50,Mexican,13 or older,"no, only English or Spanish",no,2025-07-24_04h08.21.680,empathy_intonation_perc_control,2024.2.4,Win32,59.88023952,5beddd59e4dbf300011c1d50,68817205a84113384fffdfe3,6881e9bce34f1c8b39731d0c,,,,,,,,,,,,,,,,,,,,,,,,,,,,,,,,,,,,,,,,,,,,,,,,,,,,,,,,,,,,,,,,,,,,,,,,,,,,,,,,,,,,,
,,,,,,,,,5beddd59e4dbf300011c1d50,Mexican,13 or older,"no, only English or Spanish",no,2025-07-24_04h08.21.680,empathy_intonation_perc_control,2024.2.4,Win32,59.88023952,5beddd59e4dbf300011c1d50,68817205a84113384fffdfe3,6881e9bce34f1c8b39731d0c,19.3629,21.987,0,1,2.0988,,0,0,0,5,1,./stim/wavs/andalusian_statement_filler_Alberto-nunca-se-afeita.wav,0,,,,,,,,,,,,,,,,,,,,,,,,,,,,,,,,,,,,,,,,,,,,,,,,,,,,,,,,,,,,,,,,,,,,,,,,
,,,,,,,,,5beddd59e4dbf300011c1d50,Mexican,13 or older,"no, only English or Spanish",no,2025-07-24_04h08.21.680,empathy_intonation_perc_control,2024.2.4,Win32,59.88023952,5beddd59e4dbf300011c1d50,68817205a84113384fffdfe3,6881e9bce34f1c8b39731d0c,21.9886,25.0031,1,1,2.4905,,0,1,1,0,1,./stim/wavs/castilian_question_filler_Mi-esposo-conoce-al-chico.wav,1,,,,,,,,,,,,,,,,,,,,,,,,,,,,,,,,,,,,,,,,,,,,,,,,,,,,,,,,,,,,,,,,,,,,,,,,
,,,,,,,,,5beddd59e4dbf300011c1d50,Mexican,13 or older,"no, only English or Spanish",no,2025-07-24_04h08.21.680,empathy_intonation_perc_control,2024.2.4,Win32,59.88023952,5beddd59e4dbf300011c1d50,68817205a84113384fffdfe3,6881e9bce34f1c8b39731d0c,25.0041,27.4706,0,1,1.9468,,0,2,2,7,1,./stim/wavs/puertorican_statement_filler_La-nina-pinta-con-su-amiga.wav,0,,,,,,,,,,,,,,,,,,,,,,,,,,,,,,,,,,,,,,,,,,,,,,,,,,,,,,,,,,,,,,,,,,,,,,,,
,,,,,,,,,5beddd59e4dbf300011c1d50,Mexican,13 or older,"no, only English or Spanish",no,2025-07-24_04h08.21.680,empathy_intonation_perc_control,2024.2.4,Win32,59.88023952,5beddd59e4dbf300011c1d50,68817205a84113384fffdfe3,6881e9bce34f1c8b39731d0c,27.4713,29.6861,1,1,1.6896,,0,3,3,2,1,./stim/wavs/chilean_question_filler_Mi-padre-cantaba-bien.wav,1,,,,,,,,,,,,,,,,,,,,,,,,,,,,,,,,,,,,,,,,,,,,,,,,,,,,,,,,,,,,,,,,,,,,,,,,
,,,,,,,,,5beddd59e4dbf300011c1d50,Mexican,13 or older,"no, only English or Spanish",no,2025-07-24_04h08.21.680,empathy_intonation_perc_control,2024.2.4,Win32,59.88023952,5beddd59e4dbf300011c1d50,68817205a84113384fffdfe3,6881e9bce34f1c8b39731d0c,29.6868,31.6858,1,1,1.4789,,0,4,4,1,1,./stim/wavs/argentine_question_filler_Mi-vecino-habla-mucho.wav,1,,,,,,,,,,,,,,,,,,,,,,,,,,,,,,,,,,,,,,,,,,,,,,,,,,,,,,,,,,,,,,,,,,,,,,,,
,,,,,,,,,5beddd59e4dbf300011c1d50,Mexican,13 or older,"no, only English or Spanish",no,2025-07-24_04h08.21.680,empathy_intonation_perc_control,2024.2.4,Win32,59.88023952,5beddd59e4dbf300011c1d50,68817205a84113384fffdfe3,6881e9bce34f1c8b39731d0c,31.6864,34.1027,1,1,1.8871,,0,5,5,3,1,./stim/wavs/mexican_question_filler_Felipe-no-tiene-contrasena.wav,1,,,,,,,,,,,,,,,,,,,,,,,,,,,,,,,,,,,,,,,,,,,,,,,,,,,,,,,,,,,,,,,,,,,,,,,,
,,,,,,,,,5beddd59e4dbf300011c1d50,Mexican,13 or older,"no, only English or Spanish",no,2025-07-24_04h08.21.680,empathy_intonation_perc_control,2024.2.4,Win32,59.88023952,5beddd59e4dbf300011c1d50,68817205a84113384fffdfe3,6881e9bce34f1c8b39731d0c,34.1035,36.8689,0,1,2.2385,,0,6,6,6,1,./stim/wavs/peruvian_statement_filler_El-nino-habla-con-su-madre.wav,0,,,,,,,,,,,,,,,,,,,,,,,,,,,,,,,,,,,,,,,,,,,,,,,,,,,,,,,,,,,,,,,,,,,,,,,,
,,,,,,,,,5beddd59e4dbf300011c1d50,Mexican,13 or older,"no, only English or Spanish",no,2025-07-24_04h08.21.680,empathy_intonation_perc_control,2024.2.4,Win32,59.88023952,5beddd59e4dbf300011c1d50,68817205a84113384fffdfe3,6881e9bce34f1c8b39731d0c,36.8698,39.3686,0,1,1.9764,,0,7,7,4,1,./stim/wavs/cuban_statement_filler_Cocinabas-por-la-noche.wav,0,,,,,,,,,,,,,,,,,,,,,,,,,,,,,,,,,,,,,,,,,,,,,,,,,,,,,,,,,,,,,,,,,,,,,,,,
,,,,,,,,,5beddd59e4dbf300011c1d50,Mexican,13 or older,"no, only English or Spanish",no,2025-07-24_04h08.21.680,empathy_intonation_perc_control,2024.2.4,Win32,59.88023952,5beddd59e4dbf300011c1d50,68817205a84113384fffdfe3,6881e9bce34f1c8b39731d0c,,,,,,,,,,,,,,39.3689,43.7691,,,,,,,,,,,,,,,,,,,,,,,,,,,,,,,,,,,,,,,,,,,,,,,,,,,,,,,,,,,,,,,,,,,,,,
,,,,,,,,,5beddd59e4dbf300011c1d50,Mexican,13 or older,"no, only English or Spanish",no,2025-07-24_04h08.21.680,empathy_intonation_perc_control,2024.2.4,Win32,59.88023952,5beddd59e4dbf300011c1d50,68817205a84113384fffdfe3,6881e9bce34f1c8b39731d0c,,,,,,,,,,,,./stim/wavs/mexican_mismatch_interrogative-total-yn_Mi-novio-viene-del-lago.wav,1,,,43.7781,45.9688,1,1,1.6683,,0,0,0,37,1,38,0,mexican,,,,,,,,,,,,,,,,,,,,,,,,,,,,,,,,,,,,,,,,,,,,,,,,,,,,,,,,
,,,,,,,,,5beddd59e4dbf300011c1d50,Mexican,13 or older,"no, only English or Spanish",no,2025-07-24_04h08.21.680,empathy_intonation_perc_control,2024.2.4,Win32,59.88023952,5beddd59e4dbf300011c1d50,68817205a84113384fffdfe3,6881e9bce34f1c8b39731d0c,,,,,,,,,,,,./stim/wavs/cuban_match_declarative-broad-focus_Daniel-iba-a-Bolivia.wav,0,,,45.9699,48.4182,0,1,1.9169,,0,1,1,51,1,52,0,cuban,,,,,,,,,,,,,,,,,,,,,,,,,,,,,,,,,,,,,,,,,,,,,,,,,,,,,,,,
,,,,,,,,,5beddd59e4dbf300011c1d50,Mexican,13 or older,"no, only English or Spanish",no,2025-07-24_04h08.21.680,empathy_intonation_perc_control,2024.2.4,Win32,59.88023952,5beddd59e4dbf300011c1d50,68817205a84113384fffdfe3,6881e9bce34f1c8b39731d0c,,,,,,,,,,,,./stim/wavs/cuban_mismatch_declarative-broad-focus_El-hombre-mira-la-luna.wav,0,,,48.4192,50.4687,0,1,1.5171,,0,2,2,74,1,75,0,cuban,,,,,,,,,,,,,,,,,,,,,,,,,,,,,,,,,,,,,,,,,,,,,,,,,,,,,,,,
,,,,,,,,,5beddd59e4dbf300011c1d50,Mexican,13 or older,"no, only English or Spanish",no,2025-07-24_04h08.21.680,empathy_intonation_perc_control,2024.2.4,Win32,59.88023952,5beddd59e4dbf300011c1d50,68817205a84113384fffdfe3,6881e9bce34f1c8b39731d0c,,,,,,,,,,,,./stim/wavs/castilian_mismatch_interrogative-total-yn_Mi-tia-odia-la-lluvia.wav,1,,,50.4695,52.7514,1,1,1.7561,,0,3,3,28,1,29,0,castilian,,,,,,,,,,,,,,,,,,,,,,,,,,,,,,,,,,,,,,,,,,,,,,,,,,,,,,,,
,,,,,,,,,5beddd59e4dbf300011c1d50,Mexican,13 or older,"no, only English or Spanish",no,2025-07-24_04h08.21.680,empathy_intonation_perc_control,2024.2.4,Win32,59.88023952,5beddd59e4dbf300011c1d50,68817205a84113384fffdfe3,6881e9bce34f1c8b39731d0c,,,,,,,,,,,,./stim/wavs/cuban_match_interrogative-total-yn_Daniel-iba-a-Bolivia.wav,1,,,52.752,55.1344,0,0,1.8567,,0,4,4,7,1,8,1,cuban,,,,,,,,,,,,,,,,,,,,,,,,,,,,,,,,,,,,,,,,,,,,,,,,,,,,,,,,
,,,,,,,,,5beddd59e4dbf300011c1d50,Mexican,13 or older,"no, only English or Spanish",no,2025-07-24_04h08.21.680,empathy_intonation_perc_control,2024.2.4,Win32,59.88023952,5beddd59e4dbf300011c1d50,68817205a84113384fffdfe3,6881e9bce34f1c8b39731d0c,,,,,,,,,,,,./stim/wavs/castilian_match_declarative-broad-focus_Manuela-vende-el-carro.wav,0,,,55.135,57.6677,0,1,2.0004,,0,5,5,46,1,47,0,castilian,,,,,,,,,,,,,,,,,,,,,,,,,,,,,,,,,,,,,,,,,,,,,,,,,,,,,,,,
,,,,,,,,,5beddd59e4dbf300011c1d50,Mexican,13 or older,"no, only English or Spanish",no,2025-07-24_04h08.21.680,empathy_intonation_perc_control,2024.2.4,Win32,59.88023952,5beddd59e4dbf300011c1d50,68817205a84113384fffdfe3,6881e9bce34f1c8b39731d0c,,,,,,,,,,,,./stim/wavs/castilian_match_declarative-broad-focus_Marta-abre-el-regalo.wav,0,,,57.6685,59.9176,0,1,1.7005,,0,6,6,49,1,50,0,castilian,,,,,,,,,,,,,,,,,,,,,,,,,,,,,,,,,,,,,,,,,,,,,,,,,,,,,,,,
,,,,,,,,,5beddd59e4dbf300011c1d50,Mexican,13 or older,"no, only English or Spanish",no,2025-07-24_04h08.21.680,empathy_intonation_perc_control,2024.2.4,Win32,59.88023952,5beddd59e4dbf300011c1d50,68817205a84113384fffdfe3,6881e9bce34f1c8b39731d0c,,,,,,,,,,,,./stim/wavs/puertorican_match_declarative-broad-focus_Daniel-iba-a-Bolivia.wav,0,,,59.9182,61.9672,0,1,1.5115,,0,7,7,63,1,64,0,puertorican,,,,,,,,,,,,,,,,,,,,,,,,,,,,,,,,,,,,,,,,,,,,,,,,,,,,,,,,
,,,,,,,,,5beddd59e4dbf300011c1d50,Mexican,13 or older,"no, only English or Spanish",no,2025-07-24_04h08.21.680,empathy_intonation_perc_control,2024.2.4,Win32,59.88023952,5beddd59e4dbf300011c1d50,68817205a84113384fffdfe3,6881e9bce34f1c8b39731d0c,,,,,,,,,,,,./stim/wavs/puertorican_match_declarative-broad-focus_Ana-lleva-el-abrigo.wav,0,,,61.9678,64.1006,0,1,1.6057,,0,8,8,62,1,63,0,puertorican,,,,,,,,,,,,,,,,,,,,,,,,,,,,,,,,,,,,,,,,,,,,,,,,,,,,,,,,
,,,,,,,,,5beddd59e4dbf300011c1d50,Mexican,13 or older,"no, only English or Spanish",no,2025-07-24_04h08.21.680,empathy_intonation_perc_control,2024.2.4,Win32,59.88023952,5beddd59e4dbf300011c1d50,68817205a84113384fffdfe3,6881e9bce34f1c8b39731d0c,,,,,,,,,,,,./stim/wavs/castilian_match_interrogative-total-yn_Marta-abre-el-regalo.wav,1,,,64.1016,66.317,1,1,1.6847,,0,9,9,5,1,6,0,castilian,,,,,,,,,,,,,,,,,,,,,,,,,,,,,,,,,,,,,,,,,,,,,,,,,,,,,,,,
,,,,,,,,,5beddd59e4dbf300011c1d50,Mexican,13 or older,"no, only English or Spanish",no,2025-07-24_04h08.21.680,empathy_intonation_perc_control,2024.2.4,Win32,59.88023952,5beddd59e4dbf300011c1d50,68817205a84113384fffdfe3,6881e9bce34f1c8b39731d0c,,,,,,,,,,,,./stim/wavs/puertorican_mismatch_declarative-broad-focus_El-bebe-comia-muy-bien.wav,0,,,66.3176,68.3836,0,1,1.5438,,0,10,10,83,1,84,0,puertorican,,,,,,,,,,,,,,,,,,,,,,,,,,,,,,,,,,,,,,,,,,,,,,,,,,,,,,,,
,,,,,,,,,5beddd59e4dbf300011c1d50,Mexican,13 or older,"no, only English or Spanish",no,2025-07-24_04h08.21.680,empathy_intonation_perc_control,2024.2.4,Win32,59.88023952,5beddd59e4dbf300011c1d50,68817205a84113384fffdfe3,6881e9bce34f1c8b39731d0c,,,,,,,,,,,,./stim/wavs/mexican_mismatch_declarative-broad-focus_Mi-novio-viene-del-lago.wav,0,,,68.3842,70.3834,0,1,1.469,,0,11,11,81,1,82,0,mexican,,,,,,,,,,,,,,,,,,,,,,,,,,,,,,,,,,,,,,,,,,,,,,,,,,,,,,,,
,,,,,,,,,5beddd59e4dbf300011c1d50,Mexican,13 or older,"no, only English or Spanish",no,2025-07-24_04h08.21.680,empathy_intonation_perc_control,2024.2.4,Win32,59.88023952,5beddd59e4dbf300011c1d50,68817205a84113384fffdfe3,6881e9bce34f1c8b39731d0c,,,,,,,,,,,,./stim/wavs/cuban_match_declarative-broad-focus_Maria-bebe-el-vino.wav,0,,,70.3843,72.4838,0,1,1.5668,,0,12,12,53,1,54,0,cuban,,,,,,,,,,,,,,,,,,,,,,,,,,,,,,,,,,,,,,,,,,,,,,,,,,,,,,,,
,,,,,,,,,5beddd59e4dbf300011c1d50,Mexican,13 or older,"no, only English or Spanish",no,2025-07-24_04h08.21.680,empathy_intonation_perc_control,2024.2.4,Win32,59.88023952,5beddd59e4dbf300011c1d50,68817205a84113384fffdfe3,6881e9bce34f1c8b39731d0c,,,,,,,,,,,,./stim/wavs/cuban_mismatch_declarative-broad-focus_La-nina-lava-el-plato.wav,0,,,72.4851,74.5332,0,1,1.5216,,0,13,13,75,1,76,0,cuban,,,,,,,,,,,,,,,,,,,,,,,,,,,,,,,,,,,,,,,,,,,,,,,,,,,,,,,,
,,,,,,,,,5beddd59e4dbf300011c1d50,Mexican,13 or older,"no, only English or Spanish",no,2025-07-24_04h08.21.680,empathy_intonation_perc_control,2024.2.4,Win32,59.88023952,5beddd59e4dbf300011c1d50,68817205a84113384fffdfe3,6881e9bce34f1c8b39731d0c,,,,,,,,,,,,./stim/wavs/cuban_mismatch_interrogative-total-yn_Mi-madre-come-la-fruta.wav,1,,,74.5337,76.8164,0,0,1.7503,,0,14,14,31,1,32,1,cuban,,,,,,,,,,,,,,,,,,,,,,,,,,,,,,,,,,,,,,,,,,,,,,,,,,,,,,,,
,,,,,,,,,5beddd59e4dbf300011c1d50,Mexican,13 or older,"no, only English or Spanish",no,2025-07-24_04h08.21.680,empathy_intonation_perc_control,2024.2.4,Win32,59.88023952,5beddd59e4dbf300011c1d50,68817205a84113384fffdfe3,6881e9bce34f1c8b39731d0c,,,,,,,,,,,,./stim/wavs/puertorican_mismatch_interrogative-total-yn_El-nino-oye-el-rio.wav,1,,,76.8169,78.8496,0,0,1.5003,,0,15,15,40,1,41,1,puertorican,,,,,,,,,,,,,,,,,,,,,,,,,,,,,,,,,,,,,,,,,,,,,,,,,,,,,,,,
,,,,,,,,,5beddd59e4dbf300011c1d50,Mexican,13 or older,"no, only English or Spanish",no,2025-07-24_04h08.21.680,empathy_intonation_perc_control,2024.2.4,Win32,59.88023952,5beddd59e4dbf300011c1d50,68817205a84113384fffdfe3,6881e9bce34f1c8b39731d0c,,,,,,,,,,,,./stim/wavs/castilian_mismatch_interrogative-total-yn_La-nina-lava-el-plato.wav,1,,,78.8502,81.0161,1,1,1.6434,,0,16,16,25,1,26,0,castilian,,,,,,,,,,,,,,,,,,,,,,,,,,,,,,,,,,,,,,,,,,,,,,,,,,,,,,,,
,,,,,,,,,5beddd59e4dbf300011c1d50,Mexican,13 or older,"no, only English or Spanish",no,2025-07-24_04h08.21.680,empathy_intonation_perc_control,2024.2.4,Win32,59.88023952,5beddd59e4dbf300011c1d50,68817205a84113384fffdfe3,6881e9bce34f1c8b39731d0c,,,,,,,,,,,,./stim/wavs/mexican_match_interrogative-total-yn_Emilio-ama-la-marcha.wav,1,,,81.0167,83.0993,1,1,1.5572,,0,17,17,15,1,16,0,mexican,,,,,,,,,,,,,,,,,,,,,,,,,,,,,,,,,,,,,,,,,,,,,,,,,,,,,,,,
,,,,,,,,,5beddd59e4dbf300011c1d50,Mexican,13 or older,"no, only English or Spanish",no,2025-07-24_04h08.21.680,empathy_intonation_perc_control,2024.2.4,Win32,59.88023952,5beddd59e4dbf300011c1d50,68817205a84113384fffdfe3,6881e9bce34f1c8b39731d0c,,,,,,,,,,,,./stim/wavs/mexican_match_declarative-broad-focus_Ana-lleva-el-abrigo.wav,0,,,83.0999,84.9659,0,1,1.3376,,0,18,18,56,1,57,0,mexican,,,,,,,,,,,,,,,,,,,,,,,,,,,,,,,,,,,,,,,,,,,,,,,,,,,,,,,,
,,,,,,,,,5beddd59e4dbf300011c1d50,Mexican,13 or older,"no, only English or Spanish",no,2025-07-24_04h08.21.680,empathy_intonation_perc_control,2024.2.4,Win32,59.88023952,5beddd59e4dbf300011c1d50,68817205a84113384fffdfe3,6881e9bce34f1c8b39731d0c,,,,,,,,,,,,./stim/wavs/cuban_mismatch_interrogative-total-yn_El-nino-oye-el-rio.wav,1,,,84.9666,86.8159,0,0,1.3222,,0,19,19,30,1,31,1,cuban,,,,,,,,,,,,,,,,,,,,,,,,,,,,,,,,,,,,,,,,,,,,,,,,,,,,,,,,
,,,,,,,,,5beddd59e4dbf300011c1d50,Mexican,13 or older,"no, only English or Spanish",no,2025-07-24_04h08.21.680,empathy_intonation_perc_control,2024.2.4,Win32,59.88023952,5beddd59e4dbf300011c1d50,68817205a84113384fffdfe3,6881e9bce34f1c8b39731d0c,,,,,,,,,,,,./stim/wavs/castilian_mismatch_declarative-broad-focus_La-maestra-vive-en-Paris.wav,0,,,86.8163,89.0991,0,1,1.7499,,0,20,20,69,1,70,0,castilian,,,,,,,,,,,,,,,,,,,,,,,,,,,,,,,,,,,,,,,,,,,,,,,,,,,,,,,,
,,,,,,,,,5beddd59e4dbf300011c1d50,Mexican,13 or older,"no, only English or Spanish",no,2025-07-24_04h08.21.680,empathy_intonation_perc_control,2024.2.4,Win32,59.88023952,5beddd59e4dbf300011c1d50,68817205a84113384fffdfe3,6881e9bce34f1c8b39731d0c,,,,,,,,,,,,./stim/wavs/cuban_match_declarative-broad-focus_Manuela-vende-el-carro.wav,0,,,89.1001,91.299,0,1,1.6668,,0,21,21,52,1,53,0,cuban,,,,,,,,,,,,,,,,,,,,,,,,,,,,,,,,,,,,,,,,,,,,,,,,,,,,,,,,
,,,,,,,,,5beddd59e4dbf300011c1d50,Mexican,13 or older,"no, only English or Spanish",no,2025-07-24_04h08.21.680,empathy_intonation_perc_control,2024.2.4,Win32,59.88023952,5beddd59e4dbf300011c1d50,68817205a84113384fffdfe3,6881e9bce34f1c8b39731d0c,,,,,,,,,,,,./stim/wavs/puertorican_mismatch_interrogative-total-yn_El-hombre-mira-la-luna.wav,1,,,91.2998,93.4655,0,0,1.641,,0,22,22,39,1,40,1,puertorican,,,,,,,,,,,,,,,,,,,,,,,,,,,,,,,,,,,,,,,,,,,,,,,,,,,,,,,,
,,,,,,,,,5beddd59e4dbf300011c1d50,Mexican,13 or older,"no, only English or Spanish",no,2025-07-24_04h08.21.680,empathy_intonation_perc_control,2024.2.4,Win32,59.88023952,5beddd59e4dbf300011c1d50,68817205a84113384fffdfe3,6881e9bce34f1c8b39731d0c,,,,,,,,,,,,./stim/wavs/cuban_mismatch_declarative-broad-focus_El-bebe-comia-muy-bien.wav,0,,,93.4666,95.4654,0,1,1.4674,,0,23,23,73,1,74,0,cuban,,,,,,,,,,,,,,,,,,,,,,,,,,,,,,,,,,,,,,,,,,,,,,,,,,,,,,,,
,,,,,,,,,5beddd59e4dbf300011c1d50,Mexican,13 or older,"no, only English or Spanish",no,2025-07-24_04h08.21.680,empathy_intonation_perc_control,2024.2.4,Win32,59.88023952,5beddd59e4dbf300011c1d50,68817205a84113384fffdfe3,6881e9bce34f1c8b39731d0c,,,,,,,,,,,,./stim/wavs/cuban_match_interrogative-total-yn_Manuela-vende-el-carro.wav,1,,,95.4659,97.5819,0,0,1.5836,,0,24,24,8,1,9,1,cuban,,,,,,,,,,,,,,,,,,,,,,,,,,,,,,,,,,,,,,,,,,,,,,,,,,,,,,,,
,,,,,,,,,5beddd59e4dbf300011c1d50,Mexican,13 or older,"no, only English or Spanish",no,2025-07-24_04h08.21.680,empathy_intonation_perc_control,2024.2.4,Win32,59.88023952,5beddd59e4dbf300011c1d50,68817205a84113384fffdfe3,6881e9bce34f1c8b39731d0c,,,,,,,,,,,,./stim/wavs/castilian_mismatch_declarative-broad-focus_El-nino-oye-el-rio.wav,0,,,97.5823,99.7319,0,1,1.6233,,0,25,25,68,1,69,0,castilian,,,,,,,,,,,,,,,,,,,,,,,,,,,,,,,,,,,,,,,,,,,,,,,,,,,,,,,,
,,,,,,,,,5beddd59e4dbf300011c1d50,Mexican,13 or older,"no, only English or Spanish",no,2025-07-24_04h08.21.680,empathy_intonation_perc_control,2024.2.4,Win32,59.88023952,5beddd59e4dbf300011c1d50,68817205a84113384fffdfe3,6881e9bce34f1c8b39731d0c,,,,,,,,,,,,./stim/wavs/castilian_mismatch_interrogative-total-yn_Mi-novio-viene-del-lago.wav,1,,,99.733,102.0982,1,1,1.8415,,0,26,26,27,1,28,0,castilian,,,,,,,,,,,,,,,,,,,,,,,,,,,,,,,,,,,,,,,,,,,,,,,,,,,,,,,,
,,,,,,,,,5beddd59e4dbf300011c1d50,Mexican,13 or older,"no, only English or Spanish",no,2025-07-24_04h08.21.680,empathy_intonation_perc_control,2024.2.4,Win32,59.88023952,5beddd59e4dbf300011c1d50,68817205a84113384fffdfe3,6881e9bce34f1c8b39731d0c,,,,,,,,,,,,./stim/wavs/mexican_mismatch_interrogative-total-yn_Mi-tia-odia-la-lluvia.wav,1,,,102.0987,104.0981,1,1,1.4672,,0,27,27,38,1,39,0,mexican,,,,,,,,,,,,,,,,,,,,,,,,,,,,,,,,,,,,,,,,,,,,,,,,,,,,,,,,
,,,,,,,,,5beddd59e4dbf300011c1d50,Mexican,13 or older,"no, only English or Spanish",no,2025-07-24_04h08.21.680,empathy_intonation_perc_control,2024.2.4,Win32,59.88023952,5beddd59e4dbf300011c1d50,68817205a84113384fffdfe3,6881e9bce34f1c8b39731d0c,,,,,,,,,,,,./stim/wavs/cuban_mismatch_interrogative-total-yn_El-hombre-mira-la-luna.wav,1,,,104.0986,106.1816,0,0,1.5499,,0,28,28,29,1,30,1,cuban,,,,,,,,,,,,,,,,,,,,,,,,,,,,,,,,,,,,,,,,,,,,,,,,,,,,,,,,
,,,,,,,,,5beddd59e4dbf300011c1d50,Mexican,13 or older,"no, only English or Spanish",no,2025-07-24_04h08.21.680,empathy_intonation_perc_control,2024.2.4,Win32,59.88023952,5beddd59e4dbf300011c1d50,68817205a84113384fffdfe3,6881e9bce34f1c8b39731d0c,,,,,,,,,,,,./stim/wavs/puertorican_match_interrogative-total-yn_Daniel-iba-a-Bolivia.wav,1,,,106.1821,108.2146,0,0,1.5057,,0,29,29,19,1,20,1,puertorican,,,,,,,,,,,,,,,,,,,,,,,,,,,,,,,,,,,,,,,,,,,,,,,,,,,,,,,,
,,,,,,,,,5beddd59e4dbf300011c1d50,Mexican,13 or older,"no, only English or Spanish",no,2025-07-24_04h08.21.680,empathy_intonation_perc_control,2024.2.4,Win32,59.88023952,5beddd59e4dbf300011c1d50,68817205a84113384fffdfe3,6881e9bce34f1c8b39731d0c,,,,,,,,,,,,./stim/wavs/puertorican_match_interrogative-total-yn_Manuela-vende-el-carro.wav,1,,,108.2154,110.1811,0,0,1.4372,,0,30,30,22,1,23,1,puertorican,,,,,,,,,,,,,,,,,,,,,,,,,,,,,,,,,,,,,,,,,,,,,,,,,,,,,,,,
,,,,,,,,,5beddd59e4dbf300011c1d50,Mexican,13 or older,"no, only English or Spanish",no,2025-07-24_04h08.21.680,empathy_intonation_perc_control,2024.2.4,Win32,59.88023952,5beddd59e4dbf300011c1d50,68817205a84113384fffdfe3,6881e9bce34f1c8b39731d0c,,,,,,,,,,,,./stim/wavs/castilian_match_declarative-broad-focus_Maria-bebe-el-vino.wav,0,,,110.1816,112.2476,0,1,1.5361,,0,31,31,47,1,48,0,castilian,,,,,,,,,,,,,,,,,,,,,,,,,,,,,,,,,,,,,,,,,,,,,,,,,,,,,,,,
,,,,,,,,,5beddd59e4dbf300011c1d50,Mexican,13 or older,"no, only English or Spanish",no,2025-07-24_04h08.21.680,empathy_intonation_perc_control,2024.2.4,Win32,59.88023952,5beddd59e4dbf300011c1d50,68817205a84113384fffdfe3,6881e9bce34f1c8b39731d0c,,,,,,,,,,,,./stim/wavs/mexican_mismatch_interrogative-total-yn_El-nino-oye-el-rio.wav,1,,,112.248,114.2975,1,1,1.5165,,0,32,32,35,1,36,0,mexican,,,,,,,,,,,,,,,,,,,,,,,,,,,,,,,,,,,,,,,,,,,,,,,,,,,,,,,,
,,,,,,,,,5beddd59e4dbf300011c1d50,Mexican,13 or older,"no, only English or Spanish",no,2025-07-24_04h08.21.680,empathy_intonation_perc_control,2024.2.4,Win32,59.88023952,5beddd59e4dbf300011c1d50,68817205a84113384fffdfe3,6881e9bce34f1c8b39731d0c,,,,,,,,,,,,./stim/wavs/puertorican_mismatch_declarative-broad-focus_El-hombre-mira-la-luna.wav,0,,,114.2981,116.2473,0,1,1.4277,,0,33,33,84,1,85,0,puertorican,,,,,,,,,,,,,,,,,,,,,,,,,,,,,,,,,,,,,,,,,,,,,,,,,,,,,,,,
,,,,,,,,,5beddd59e4dbf300011c1d50,Mexican,13 or older,"no, only English or Spanish",no,2025-07-24_04h08.21.680,empathy_intonation_perc_control,2024.2.4,Win32,59.88023952,5beddd59e4dbf300011c1d50,68817205a84113384fffdfe3,6881e9bce34f1c8b39731d0c,,,,,,,,,,,,./stim/wavs/puertorican_match_interrogative-total-yn_Ana-lleva-el-abrigo.wav,1,,,116.2478,118.1642,0,0,1.3896,,0,34,34,18,1,19,1,puertorican,,,,,,,,,,,,,,,,,,,,,,,,,,,,,,,,,,,,,,,,,,,,,,,,,,,,,,,,
,,,,,,,,,5beddd59e4dbf300011c1d50,Mexican,13 or older,"no, only English or Spanish",no,2025-07-24_04h08.21.680,empathy_intonation_perc_control,2024.2.4,Win32,59.88023952,5beddd59e4dbf300011c1d50,68817205a84113384fffdfe3,6881e9bce34f1c8b39731d0c,,,,,,,,,,,,./stim/wavs/mexican_match_interrogative-total-yn_Marta-abre-el-regalo.wav,1,,,118.1648,120.3137,1,1,1.6277,,0,35,35,17,1,18,0,mexican,,,,,,,,,,,,,,,,,,,,,,,,,,,,,,,,,,,,,,,,,,,,,,,,,,,,,,,,
,,,,,,,,,5beddd59e4dbf300011c1d50,Mexican,13 or older,"no, only English or Spanish",no,2025-07-24_04h08.21.680,empathy_intonation_perc_control,2024.2.4,Win32,59.88023952,5beddd59e4dbf300011c1d50,68817205a84113384fffdfe3,6881e9bce34f1c8b39731d0c,,,,,,,,,,,,./stim/wavs/puertorican_match_interrogative-total-yn_Maria-bebe-el-vino.wav,1,,,120.3143,122.7303,0,0,1.8836,,0,36,36,23,1,24,1,puertorican,,,,,,,,,,,,,,,,,,,,,,,,,,,,,,,,,,,,,,,,,,,,,,,,,,,,,,,,
,,,,,,,,,5beddd59e4dbf300011c1d50,Mexican,13 or older,"no, only English or Spanish",no,2025-07-24_04h08.21.680,empathy_intonation_perc_control,2024.2.4,Win32,59.88023952,5beddd59e4dbf300011c1d50,68817205a84113384fffdfe3,6881e9bce34f1c8b39731d0c,,,,,,,,,,,,./stim/wavs/castilian_match_declarative-broad-focus_Emilio-ama-la-marcha.wav,0,,,122.7308,124.9136,0,1,1.6507,,0,37,37,45,1,46,0,castilian,,,,,,,,,,,,,,,,,,,,,,,,,,,,,,,,,,,,,,,,,,,,,,,,,,,,,,,,
,,,,,,,,,5beddd59e4dbf300011c1d50,Mexican,13 or older,"no, only English or Spanish",no,2025-07-24_04h08.21.680,empathy_intonation_perc_control,2024.2.4,Win32,59.88023952,5beddd59e4dbf300011c1d50,68817205a84113384fffdfe3,6881e9bce34f1c8b39731d0c,,,,,,,,,,,,./stim/wavs/castilian_match_interrogative-total-yn_Manuela-vende-el-carro.wav,1,,,124.9142,127.3303,1,1,1.8834,,0,38,38,2,1,3,0,castilian,,,,,,,,,,,,,,,,,,,,,,,,,,,,,,,,,,,,,,,,,,,,,,,,,,,,,,,,
,,,,,,,,,5beddd59e4dbf300011c1d50,Mexican,13 or older,"no, only English or Spanish",no,2025-07-24_04h08.21.680,empathy_intonation_perc_control,2024.2.4,Win32,59.88023952,5beddd59e4dbf300011c1d50,68817205a84113384fffdfe3,6881e9bce34f1c8b39731d0c,,,,,,,,,,,,./stim/wavs/mexican_match_interrogative-total-yn_Ana-lleva-el-abrigo.wav,1,,,127.3312,129.2465,1,1,1.387,,0,39,39,12,1,13,0,mexican,,,,,,,,,,,,,,,,,,,,,,,,,,,,,,,,,,,,,,,,,,,,,,,,,,,,,,,,
,,,,,,,,,5beddd59e4dbf300011c1d50,Mexican,13 or older,"no, only English or Spanish",no,2025-07-24_04h08.21.680,empathy_intonation_perc_control,2024.2.4,Win32,59.88023952,5beddd59e4dbf300011c1d50,68817205a84113384fffdfe3,6881e9bce34f1c8b39731d0c,,,,,,,,,,,,./stim/wavs/puertorican_match_interrogative-total-yn_Emilio-ama-la-marcha.wav,1,,,129.247,131.2964,0,0,1.521,,0,40,40,21,1,22,1,puertorican,,,,,,,,,,,,,,,,,,,,,,,,,,,,,,,,,,,,,,,,,,,,,,,,,,,,,,,,
,,,,,,,,,5beddd59e4dbf300011c1d50,Mexican,13 or older,"no, only English or Spanish",no,2025-07-24_04h08.21.680,empathy_intonation_perc_control,2024.2.4,Win32,59.88023952,5beddd59e4dbf300011c1d50,68817205a84113384fffdfe3,6881e9bce34f1c8b39731d0c,,,,,,,,,,,,./stim/wavs/cuban_match_declarative-broad-focus_Mariano-habla-del-tiempo.wav,0,,,131.297,133.6129,0,1,1.7831,,0,41,41,54,1,55,0,cuban,,,,,,,,,,,,,,,,,,,,,,,,,,,,,,,,,,,,,,,,,,,,,,,,,,,,,,,,
,,,,,,,,,5beddd59e4dbf300011c1d50,Mexican,13 or older,"no, only English or Spanish",no,2025-07-24_04h08.21.680,empathy_intonation_perc_control,2024.2.4,Win32,59.88023952,5beddd59e4dbf300011c1d50,68817205a84113384fffdfe3,6881e9bce34f1c8b39731d0c,,,,,,,,,,,,./stim/wavs/castilian_match_interrogative-total-yn_Emilio-ama-la-marcha.wav,1,,,133.6134,135.8296,1,1,1.6838,,0,42,42,1,1,2,0,castilian,,,,,,,,,,,,,,,,,,,,,,,,,,,,,,,,,,,,,,,,,,,,,,,,,,,,,,,,
,,,,,,,,,5beddd59e4dbf300011c1d50,Mexican,13 or older,"no, only English or Spanish",no,2025-07-24_04h08.21.680,empathy_intonation_perc_control,2024.2.4,Win32,59.88023952,5beddd59e4dbf300011c1d50,68817205a84113384fffdfe3,6881e9bce34f1c8b39731d0c,,,,,,,,,,,,./stim/wavs/puertorican_mismatch_declarative-broad-focus_El-nino-oye-el-rio.wav,0,,,135.8307,137.996,0,1,1.6339,,0,43,43,85,1,86,0,puertorican,,,,,,,,,,,,,,,,,,,,,,,,,,,,,,,,,,,,,,,,,,,,,,,,,,,,,,,,
,,,,,,,,,5beddd59e4dbf300011c1d50,Mexican,13 or older,"no, only English or Spanish",no,2025-07-24_04h08.21.680,empathy_intonation_perc_control,2024.2.4,Win32,59.88023952,5beddd59e4dbf300011c1d50,68817205a84113384fffdfe3,6881e9bce34f1c8b39731d0c,,,,,,,,,,,,./stim/wavs/castilian_mismatch_interrogative-total-yn_La-maestra-vive-en-Paris.wav,1,,,137.9965,140.4296,1,1,1.8965,,0,44,44,24,1,25,0,castilian,,,,,,,,,,,,,,,,,,,,,,,,,,,,,,,,,,,,,,,,,,,,,,,,,,,,,,,,
,,,,,,,,,5beddd59e4dbf300011c1d50,Mexican,13 or older,"no, only English or Spanish",no,2025-07-24_04h08.21.680,empathy_intonation_perc_control,2024.2.4,Win32,59.88023952,5beddd59e4dbf300011c1d50,68817205a84113384fffdfe3,6881e9bce34f1c8b39731d0c,,,,,,,,,,,,./stim/wavs/mexican_match_interrogative-total-yn_David-leia-el-libro.wav,1,,,140.4302,142.5624,1,1,1.6031,,0,45,45,14,1,15,0,mexican,,,,,,,,,,,,,,,,,,,,,,,,,,,,,,,,,,,,,,,,,,,,,,,,,,,,,,,,
,,,,,,,,,5beddd59e4dbf300011c1d50,Mexican,13 or older,"no, only English or Spanish",no,2025-07-24_04h08.21.680,empathy_intonation_perc_control,2024.2.4,Win32,59.88023952,5beddd59e4dbf300011c1d50,68817205a84113384fffdfe3,6881e9bce34f1c8b39731d0c,,,,,,,,,,,,./stim/wavs/castilian_mismatch_interrogative-total-yn_Mi-madre-come-la-fruta.wav,1,,,142.5634,144.9459,1,1,1.8556,,0,46,46,26,1,27,0,castilian,,,,,,,,,,,,,,,,,,,,,,,,,,,,,,,,,,,,,,,,,,,,,,,,,,,,,,,,
,,,,,,,,,5beddd59e4dbf300011c1d50,Mexican,13 or older,"no, only English or Spanish",no,2025-07-24_04h08.21.680,empathy_intonation_perc_control,2024.2.4,Win32,59.88023952,5beddd59e4dbf300011c1d50,68817205a84113384fffdfe3,6881e9bce34f1c8b39731d0c,,,,,,,,,,,,./stim/wavs/cuban_match_interrogative-total-yn_Maria-bebe-el-vino.wav,1,,,144.9471,147.1621,0,0,1.6855,,0,47,47,9,1,10,1,cuban,,,,,,,,,,,,,,,,,,,,,,,,,,,,,,,,,,,,,,,,,,,,,,,,,,,,,,,,
,,,,,,,,,5beddd59e4dbf300011c1d50,Mexican,13 or older,"no, only English or Spanish",no,2025-07-24_04h08.21.680,empathy_intonation_perc_control,2024.2.4,Win32,59.88023952,5beddd59e4dbf300011c1d50,68817205a84113384fffdfe3,6881e9bce34f1c8b39731d0c,,,,,,,,,,,,./stim/wavs/cuban_mismatch_declarative-broad-focus_Mi-tia-odia-la-lluvia.wav,0,,,147.1626,149.412,0,1,1.7004,,0,48,48,77,1,78,0,cuban,,,,,,,,,,,,,,,,,,,,,,,,,,,,,,,,,,,,,,,,,,,,,,,,,,,,,,,,
,,,,,,,,,5beddd59e4dbf300011c1d50,Mexican,13 or older,"no, only English or Spanish",no,2025-07-24_04h08.21.680,empathy_intonation_perc_control,2024.2.4,Win32,59.88023952,5beddd59e4dbf300011c1d50,68817205a84113384fffdfe3,6881e9bce34f1c8b39731d0c,,,,,,,,,,,,./stim/wavs/castilian_mismatch_declarative-broad-focus_Mi-novio-viene-del-lago.wav,0,,,149.4125,151.8118,0,1,1.8729,,0,49,49,71,1,72,0,castilian,,,,,,,,,,,,,,,,,,,,,,,,,,,,,,,,,,,,,,,,,,,,,,,,,,,,,,,,
,,,,,,,,,5beddd59e4dbf300011c1d50,Mexican,13 or older,"no, only English or Spanish",no,2025-07-24_04h08.21.680,empathy_intonation_perc_control,2024.2.4,Win32,59.88023952,5beddd59e4dbf300011c1d50,68817205a84113384fffdfe3,6881e9bce34f1c8b39731d0c,,,,,,,,,,,,./stim/wavs/cuban_match_interrogative-total-yn_Marta-abre-el-regalo.wav,1,,,151.8122,153.8117,0,0,1.476,,0,50,50,11,1,12,1,cuban,,,,,,,,,,,,,,,,,,,,,,,,,,,,,,,,,,,,,,,,,,,,,,,,,,,,,,,,
,,,,,,,,,5beddd59e4dbf300011c1d50,Mexican,13 or older,"no, only English or Spanish",no,2025-07-24_04h08.21.680,empathy_intonation_perc_control,2024.2.4,Win32,59.88023952,5beddd59e4dbf300011c1d50,68817205a84113384fffdfe3,6881e9bce34f1c8b39731d0c,,,,,,,,,,,,./stim/wavs/puertorican_mismatch_declarative-broad-focus_La-maestra-vive-en-Paris.wav,0,,,153.8122,156.0783,0,1,1.7446,,0,51,51,86,1,87,0,puertorican,,,,,,,,,,,,,,,,,,,,,,,,,,,,,,,,,,,,,,,,,,,,,,,,,,,,,,,,
,,,,,,,,,5beddd59e4dbf300011c1d50,Mexican,13 or older,"no, only English or Spanish",no,2025-07-24_04h08.21.680,empathy_intonation_perc_control,2024.2.4,Win32,59.88023952,5beddd59e4dbf300011c1d50,68817205a84113384fffdfe3,6881e9bce34f1c8b39731d0c,,,,,,,,,,,,./stim/wavs/mexican_mismatch_interrogative-total-yn_La-maestra-vive-en-Paris.wav,1,,,156.079,158.4617,1,1,1.863,,0,52,52,36,1,37,0,mexican,,,,,,,,,,,,,,,,,,,,,,,,,,,,,,,,,,,,,,,,,,,,,,,,,,,,,,,,
,,,,,,,,,5beddd59e4dbf300011c1d50,Mexican,13 or older,"no, only English or Spanish",no,2025-07-24_04h08.21.680,empathy_intonation_perc_control,2024.2.4,Win32,59.88023952,5beddd59e4dbf300011c1d50,68817205a84113384fffdfe3,6881e9bce34f1c8b39731d0c,,,,,,,,,,,,./stim/wavs/cuban_mismatch_interrogative-total-yn_Mi-novio-viene-del-lago.wav,1,,,158.4626,160.7447,0,0,1.7542,,0,53,53,32,1,33,1,cuban,,,,,,,,,,,,,,,,,,,,,,,,,,,,,,,,,,,,,,,,,,,,,,,,,,,,,,,,
,,,,,,,,,5beddd59e4dbf300011c1d50,Mexican,13 or older,"no, only English or Spanish",no,2025-07-24_04h08.21.680,empathy_intonation_perc_control,2024.2.4,Win32,59.88023952,5beddd59e4dbf300011c1d50,68817205a84113384fffdfe3,6881e9bce34f1c8b39731d0c,,,,,,,,,,,,./stim/wavs/castilian_match_interrogative-total-yn_Mariano-habla-del-tiempo.wav,1,,,160.7456,163.1277,1,1,1.8523,,0,54,54,4,1,5,0,castilian,,,,,,,,,,,,,,,,,,,,,,,,,,,,,,,,,,,,,,,,,,,,,,,,,,,,,,,,
,,,,,,,,,5beddd59e4dbf300011c1d50,Mexican,13 or older,"no, only English or Spanish",no,2025-07-24_04h08.21.680,empathy_intonation_perc_control,2024.2.4,Win32,59.88023952,5beddd59e4dbf300011c1d50,68817205a84113384fffdfe3,6881e9bce34f1c8b39731d0c,,,,,,,,,,,,./stim/wavs/castilian_mismatch_declarative-broad-focus_La-nina-lava-el-plato.wav,0,,,163.1286,165.3943,0,1,1.7446,,0,55,55,70,1,71,0,castilian,,,,,,,,,,,,,,,,,,,,,,,,,,,,,,,,,,,,,,,,,,,,,,,,,,,,,,,,
,,,,,,,,,5beddd59e4dbf300011c1d50,Mexican,13 or older,"no, only English or Spanish",no,2025-07-24_04h08.21.680,empathy_intonation_perc_control,2024.2.4,Win32,59.88023952,5beddd59e4dbf300011c1d50,68817205a84113384fffdfe3,6881e9bce34f1c8b39731d0c,,,,,,,,,,,,./stim/wavs/puertorican_match_declarative-broad-focus_Maria-bebe-el-vino.wav,0,,,165.3948,167.5108,0,1,1.5946,,0,56,56,67,1,68,0,puertorican,,,,,,,,,,,,,,,,,,,,,,,,,,,,,,,,,,,,,,,,,,,,,,,,,,,,,,,,
,,,,,,,,,5beddd59e4dbf300011c1d50,Mexican,13 or older,"no, only English or Spanish",no,2025-07-24_04h08.21.680,empathy_intonation_perc_control,2024.2.4,Win32,59.88023952,5beddd59e4dbf300011c1d50,68817205a84113384fffdfe3,6881e9bce34f1c8b39731d0c,,,,,,,,,,,,./stim/wavs/castilian_match_interrogative-total-yn_Maria-bebe-el-vino.wav,1,,,167.5113,169.5608,1,1,1.5243,,0,57,57,3,1,4,0,castilian,,,,,,,,,,,,,,,,,,,,,,,,,,,,,,,,,,,,,,,,,,,,,,,,,,,,,,,,
,,,,,,,,,5beddd59e4dbf300011c1d50,Mexican,13 or older,"no, only English or Spanish",no,2025-07-24_04h08.21.680,empathy_intonation_perc_control,2024.2.4,Win32,59.88023952,5beddd59e4dbf300011c1d50,68817205a84113384fffdfe3,6881e9bce34f1c8b39731d0c,,,,,,,,,,,,./stim/wavs/puertorican_match_declarative-broad-focus_David-leia-el-libro.wav,0,,,169.5613,171.5106,0,1,1.4282,,0,58,58,64,1,65,0,puertorican,,,,,,,,,,,,,,,,,,,,,,,,,,,,,,,,,,,,,,,,,,,,,,,,,,,,,,,,
,,,,,,,,,5beddd59e4dbf300011c1d50,Mexican,13 or older,"no, only English or Spanish",no,2025-07-24_04h08.21.680,empathy_intonation_perc_control,2024.2.4,Win32,59.88023952,5beddd59e4dbf300011c1d50,68817205a84113384fffdfe3,6881e9bce34f1c8b39731d0c,,,,,,,,,,,,./stim/wavs/castilian_match_interrogative-total-yn_David-leia-el-libro.wav,1,,,171.5111,173.6776,1,1,1.6465,,0,59,59,0,1,1,0,castilian,,,,,,,,,,,,,,,,,,,,,,,,,,,,,,,,,,,,,,,,,,,,,,,,,,,,,,,,
,,,,,,,,,5beddd59e4dbf300011c1d50,Mexican,13 or older,"no, only English or Spanish",no,2025-07-24_04h08.21.680,empathy_intonation_perc_control,2024.2.4,Win32,59.88023952,5beddd59e4dbf300011c1d50,68817205a84113384fffdfe3,6881e9bce34f1c8b39731d0c,,,,,,,,,,,,./stim/wavs/puertorican_match_declarative-broad-focus_Emilio-ama-la-marcha.wav,0,,,173.6783,175.8438,0,1,1.6351,,0,60,60,65,1,66,0,puertorican,,,,,,,,,,,,,,,,,,,,,,,,,,,,,,,,,,,,,,,,,,,,,,,,,,,,,,,,
,,,,,,,,,5beddd59e4dbf300011c1d50,Mexican,13 or older,"no, only English or Spanish",no,2025-07-24_04h08.21.680,empathy_intonation_perc_control,2024.2.4,Win32,59.88023952,5beddd59e4dbf300011c1d50,68817205a84113384fffdfe3,6881e9bce34f1c8b39731d0c,,,,,,,,,,,,./stim/wavs/mexican_mismatch_declarative-broad-focus_Mi-tia-odia-la-lluvia.wav,0,,,175.8448,177.9102,0,1,1.5356,,0,61,61,82,1,83,0,mexican,,,,,,,,,,,,,,,,,,,,,,,,,,,,,,,,,,,,,,,,,,,,,,,,,,,,,,,,
,,,,,,,,,5beddd59e4dbf300011c1d50,Mexican,13 or older,"no, only English or Spanish",no,2025-07-24_04h08.21.680,empathy_intonation_perc_control,2024.2.4,Win32,59.88023952,5beddd59e4dbf300011c1d50,68817205a84113384fffdfe3,6881e9bce34f1c8b39731d0c,,,,,,,,,,,,./stim/wavs/mexican_mismatch_interrogative-total-yn_El-hombre-mira-la-luna.wav,1,,,177.9107,179.8768,1,1,1.4469,,0,62,62,34,1,35,0,mexican,,,,,,,,,,,,,,,,,,,,,,,,,,,,,,,,,,,,,,,,,,,,,,,,,,,,,,,,
,,,,,,,,,5beddd59e4dbf300011c1d50,Mexican,13 or older,"no, only English or Spanish",no,2025-07-24_04h08.21.680,empathy_intonation_perc_control,2024.2.4,Win32,59.88023952,5beddd59e4dbf300011c1d50,68817205a84113384fffdfe3,6881e9bce34f1c8b39731d0c,,,,,,,,,,,,./stim/wavs/cuban_match_interrogative-total-yn_Mariano-habla-del-tiempo.wav,1,,,179.8773,182.16,0,0,1.76,,0,63,63,10,1,11,1,cuban,,,,,,,,,,,,,,,,,,,,,,,,,,,,,,,,,,,,,,,,,,,,,,,,,,,,,,,,
,,,,,,,,,5beddd59e4dbf300011c1d50,Mexican,13 or older,"no, only English or Spanish",no,2025-07-24_04h08.21.680,empathy_intonation_perc_control,2024.2.4,Win32,59.88023952,5beddd59e4dbf300011c1d50,68817205a84113384fffdfe3,6881e9bce34f1c8b39731d0c,,,,,,,,,,,,./stim/wavs/puertorican_mismatch_declarative-broad-focus_La-nina-lava-el-plato.wav,0,,,182.1606,184.3931,0,1,1.7088,,0,64,64,87,1,88,0,puertorican,,,,,,,,,,,,,,,,,,,,,,,,,,,,,,,,,,,,,,,,,,,,,,,,,,,,,,,,
,,,,,,,,,5beddd59e4dbf300011c1d50,Mexican,13 or older,"no, only English or Spanish",no,2025-07-24_04h08.21.680,empathy_intonation_perc_control,2024.2.4,Win32,59.88023952,5beddd59e4dbf300011c1d50,68817205a84113384fffdfe3,6881e9bce34f1c8b39731d0c,,,,,,,,,,,,./stim/wavs/cuban_match_interrogative-total-yn_Ana-lleva-el-abrigo.wav,1,,,184.3936,186.6263,0,0,1.7175,,0,65,65,6,1,7,1,cuban,,,,,,,,,,,,,,,,,,,,,,,,,,,,,,,,,,,,,,,,,,,,,,,,,,,,,,,,
,,,,,,,,,5beddd59e4dbf300011c1d50,Mexican,13 or older,"no, only English or Spanish",no,2025-07-24_04h08.21.680,empathy_intonation_perc_control,2024.2.4,Win32,59.88023952,5beddd59e4dbf300011c1d50,68817205a84113384fffdfe3,6881e9bce34f1c8b39731d0c,,,,,,,,,,,,./stim/wavs/mexican_match_declarative-broad-focus_Mariano-habla-del-tiempo.wav,0,,,186.6267,188.8262,0,1,1.6668,,0,66,66,60,1,61,0,mexican,,,,,,,,,,,,,,,,,,,,,,,,,,,,,,,,,,,,,,,,,,,,,,,,,,,,,,,,
,,,,,,,,,5beddd59e4dbf300011c1d50,Mexican,13 or older,"no, only English or Spanish",no,2025-07-24_04h08.21.680,empathy_intonation_perc_control,2024.2.4,Win32,59.88023952,5beddd59e4dbf300011c1d50,68817205a84113384fffdfe3,6881e9bce34f1c8b39731d0c,,,,,,,,,,,,./stim/wavs/puertorican_match_declarative-broad-focus_Manuela-vende-el-carro.wav,0,,,188.8268,190.9594,0,1,1.5861,,0,67,67,66,1,67,0,puertorican,,,,,,,,,,,,,,,,,,,,,,,,,,,,,,,,,,,,,,,,,,,,,,,,,,,,,,,,
,,,,,,,,,5beddd59e4dbf300011c1d50,Mexican,13 or older,"no, only English or Spanish",no,2025-07-24_04h08.21.680,empathy_intonation_perc_control,2024.2.4,Win32,59.88023952,5beddd59e4dbf300011c1d50,68817205a84113384fffdfe3,6881e9bce34f1c8b39731d0c,,,,,,,,,,,,./stim/wavs/castilian_match_declarative-broad-focus_Mariano-habla-del-tiempo.wav,0,,,190.9599,193.2759,0,1,1.7835,,0,68,68,48,1,49,0,castilian,,,,,,,,,,,,,,,,,,,,,,,,,,,,,,,,,,,,,,,,,,,,,,,,,,,,,,,,
,,,,,,,,,5beddd59e4dbf300011c1d50,Mexican,13 or older,"no, only English or Spanish",no,2025-07-24_04h08.21.680,empathy_intonation_perc_control,2024.2.4,Win32,59.88023952,5beddd59e4dbf300011c1d50,68817205a84113384fffdfe3,6881e9bce34f1c8b39731d0c,,,,,,,,,,,,./stim/wavs/castilian_match_declarative-broad-focus_David-leia-el-libro.wav,0,,,193.2764,195.5091,0,1,1.7008,,0,69,69,44,1,45,0,castilian,,,,,,,,,,,,,,,,,,,,,,,,,,,,,,,,,,,,,,,,,,,,,,,,,,,,,,,,
,,,,,,,,,5beddd59e4dbf300011c1d50,Mexican,13 or older,"no, only English or Spanish",no,2025-07-24_04h08.21.680,empathy_intonation_perc_control,2024.2.4,Win32,59.88023952,5beddd59e4dbf300011c1d50,68817205a84113384fffdfe3,6881e9bce34f1c8b39731d0c,,,,,,,,,,,,./stim/wavs/mexican_mismatch_declarative-broad-focus_El-hombre-mira-la-luna.wav,0,,,195.5096,197.4925,0,1,1.4513,,0,70,70,79,1,80,0,mexican,,,,,,,,,,,,,,,,,,,,,,,,,,,,,,,,,,,,,,,,,,,,,,,,,,,,,,,,
,,,,,,,,,5beddd59e4dbf300011c1d50,Mexican,13 or older,"no, only English or Spanish",no,2025-07-24_04h08.21.680,empathy_intonation_perc_control,2024.2.4,Win32,59.88023952,5beddd59e4dbf300011c1d50,68817205a84113384fffdfe3,6881e9bce34f1c8b39731d0c,,,,,,,,,,,,./stim/wavs/cuban_match_declarative-broad-focus_Ana-lleva-el-abrigo.wav,0,,,197.493,199.4923,0,1,1.4725,,0,71,71,50,1,51,0,cuban,,,,,,,,,,,,,,,,,,,,,,,,,,,,,,,,,,,,,,,,,,,,,,,,,,,,,,,,
,,,,,,,,,5beddd59e4dbf300011c1d50,Mexican,13 or older,"no, only English or Spanish",no,2025-07-24_04h08.21.680,empathy_intonation_perc_control,2024.2.4,Win32,59.88023952,5beddd59e4dbf300011c1d50,68817205a84113384fffdfe3,6881e9bce34f1c8b39731d0c,,,,,,,,,,,,./stim/wavs/mexican_mismatch_declarative-broad-focus_El-bebe-comia-muy-bien.wav,0,,,199.4929,201.8089,0,1,1.7865,,0,72,72,78,1,79,0,mexican,,,,,,,,,,,,,,,,,,,,,,,,,,,,,,,,,,,,,,,,,,,,,,,,,,,,,,,,
,,,,,,,,,5beddd59e4dbf300011c1d50,Mexican,13 or older,"no, only English or Spanish",no,2025-07-24_04h08.21.680,empathy_intonation_perc_control,2024.2.4,Win32,59.88023952,5beddd59e4dbf300011c1d50,68817205a84113384fffdfe3,6881e9bce34f1c8b39731d0c,,,,,,,,,,,,./stim/wavs/castilian_mismatch_declarative-broad-focus_Mi-tia-odia-la-lluvia.wav,0,,,201.8097,203.8921,0,1,1.5557,,0,73,73,72,1,73,0,castilian,,,,,,,,,,,,,,,,,,,,,,,,,,,,,,,,,,,,,,,,,,,,,,,,,,,,,,,,
,,,,,,,,,5beddd59e4dbf300011c1d50,Mexican,13 or older,"no, only English or Spanish",no,2025-07-24_04h08.21.680,empathy_intonation_perc_control,2024.2.4,Win32,59.88023952,5beddd59e4dbf300011c1d50,68817205a84113384fffdfe3,6881e9bce34f1c8b39731d0c,,,,,,,,,,,,./stim/wavs/puertorican_mismatch_interrogative-total-yn_La-nina-lava-el-plato.wav,1,,,203.8927,205.992,0,0,1.5689,,0,74,74,42,1,43,1,puertorican,,,,,,,,,,,,,,,,,,,,,,,,,,,,,,,,,,,,,,,,,,,,,,,,,,,,,,,,
,,,,,,,,,5beddd59e4dbf300011c1d50,Mexican,13 or older,"no, only English or Spanish",no,2025-07-24_04h08.21.680,empathy_intonation_perc_control,2024.2.4,Win32,59.88023952,5beddd59e4dbf300011c1d50,68817205a84113384fffdfe3,6881e9bce34f1c8b39731d0c,,,,,,,,,,,,./stim/wavs/cuban_mismatch_declarative-broad-focus_Mi-novio-viene-del-lago.wav,0,,,205.9928,208.1083,0,1,1.5921,,0,75,75,76,1,77,0,cuban,,,,,,,,,,,,,,,,,,,,,,,,,,,,,,,,,,,,,,,,,,,,,,,,,,,,,,,,
,,,,,,,,,5beddd59e4dbf300011c1d50,Mexican,13 or older,"no, only English or Spanish",no,2025-07-24_04h08.21.680,empathy_intonation_perc_control,2024.2.4,Win32,59.88023952,5beddd59e4dbf300011c1d50,68817205a84113384fffdfe3,6881e9bce34f1c8b39731d0c,,,,,,,,,,,,./stim/wavs/puertorican_mismatch_interrogative-total-yn_La-maestra-vive-en-Paris.wav,1,,,208.1088,210.3583,0,0,1.7205,,0,76,76,41,1,42,1,puertorican,,,,,,,,,,,,,,,,,,,,,,,,,,,,,,,,,,,,,,,,,,,,,,,,,,,,,,,,
,,,,,,,,,5beddd59e4dbf300011c1d50,Mexican,13 or older,"no, only English or Spanish",no,2025-07-24_04h08.21.680,empathy_intonation_perc_control,2024.2.4,Win32,59.88023952,5beddd59e4dbf300011c1d50,68817205a84113384fffdfe3,6881e9bce34f1c8b39731d0c,,,,,,,,,,,,./stim/wavs/mexican_match_interrogative-total-yn_Daniel-iba-a-Bolivia.wav,1,,,210.3599,212.5417,1,1,1.663,,0,77,77,13,1,14,0,mexican,,,,,,,,,,,,,,,,,,,,,,,,,,,,,,,,,,,,,,,,,,,,,,,,,,,,,,,,
,,,,,,,,,5beddd59e4dbf300011c1d50,Mexican,13 or older,"no, only English or Spanish",no,2025-07-24_04h08.21.680,empathy_intonation_perc_control,2024.2.4,Win32,59.88023952,5beddd59e4dbf300011c1d50,68817205a84113384fffdfe3,6881e9bce34f1c8b39731d0c,,,,,,,,,,,,./stim/wavs/puertorican_mismatch_interrogative-total-yn_Mi-madre-come-la-fruta.wav,1,,,212.5422,214.6247,0,0,1.56,,0,78,78,43,1,44,1,puertorican,,,,,,,,,,,,,,,,,,,,,,,,,,,,,,,,,,,,,,,,,,,,,,,,,,,,,,,,
,,,,,,,,,5beddd59e4dbf300011c1d50,Mexican,13 or older,"no, only English or Spanish",no,2025-07-24_04h08.21.680,empathy_intonation_perc_control,2024.2.4,Win32,59.88023952,5beddd59e4dbf300011c1d50,68817205a84113384fffdfe3,6881e9bce34f1c8b39731d0c,,,,,,,,,,,,./stim/wavs/mexican_match_declarative-broad-focus_David-leia-el-libro.wav,0,,,214.6251,216.5912,0,1,1.4362,,0,79,79,58,1,59,0,mexican,,,,,,,,,,,,,,,,,,,,,,,,,,,,,,,,,,,,,,,,,,,,,,,,,,,,,,,,
,,,,,,,,,5beddd59e4dbf300011c1d50,Mexican,13 or older,"no, only English or Spanish",no,2025-07-24_04h08.21.680,empathy_intonation_perc_control,2024.2.4,Win32,59.88023952,5beddd59e4dbf300011c1d50,68817205a84113384fffdfe3,6881e9bce34f1c8b39731d0c,,,,,,,,,,,,./stim/wavs/mexican_match_interrogative-total-yn_Mariano-habla-del-tiempo.wav,1,,,216.5917,218.7744,1,1,1.6567,,0,80,80,16,1,17,0,mexican,,,,,,,,,,,,,,,,,,,,,,,,,,,,,,,,,,,,,,,,,,,,,,,,,,,,,,,,
,,,,,,,,,5beddd59e4dbf300011c1d50,Mexican,13 or older,"no, only English or Spanish",no,2025-07-24_04h08.21.680,empathy_intonation_perc_control,2024.2.4,Win32,59.88023952,5beddd59e4dbf300011c1d50,68817205a84113384fffdfe3,6881e9bce34f1c8b39731d0c,,,,,,,,,,,,./stim/wavs/mexican_mismatch_declarative-broad-focus_La-maestra-vive-en-Paris.wav,0,,,218.7752,220.9076,0,1,1.6065,,0,81,81,80,1,81,0,mexican,,,,,,,,,,,,,,,,,,,,,,,,,,,,,,,,,,,,,,,,,,,,,,,,,,,,,,,,
,,,,,,,,,5beddd59e4dbf300011c1d50,Mexican,13 or older,"no, only English or Spanish",no,2025-07-24_04h08.21.680,empathy_intonation_perc_control,2024.2.4,Win32,59.88023952,5beddd59e4dbf300011c1d50,68817205a84113384fffdfe3,6881e9bce34f1c8b39731d0c,,,,,,,,,,,,./stim/wavs/mexican_match_declarative-broad-focus_Marta-abre-el-regalo.wav,0,,,220.9085,222.7908,0,1,1.3605,,0,82,82,61,1,62,0,mexican,,,,,,,,,,,,,,,,,,,,,,,,,,,,,,,,,,,,,,,,,,,,,,,,,,,,,,,,
,,,,,,,,,5beddd59e4dbf300011c1d50,Mexican,13 or older,"no, only English or Spanish",no,2025-07-24_04h08.21.680,empathy_intonation_perc_control,2024.2.4,Win32,59.88023952,5beddd59e4dbf300011c1d50,68817205a84113384fffdfe3,6881e9bce34f1c8b39731d0c,,,,,,,,,,,,./stim/wavs/cuban_mismatch_interrogative-total-yn_Mi-tia-odia-la-lluvia.wav,1,,,222.7913,224.8905,0,0,1.5742,,0,83,83,33,1,34,1,cuban,,,,,,,,,,,,,,,,,,,,,,,,,,,,,,,,,,,,,,,,,,,,,,,,,,,,,,,,
,,,,,,,,,5beddd59e4dbf300011c1d50,Mexican,13 or older,"no, only English or Spanish",no,2025-07-24_04h08.21.680,empathy_intonation_perc_control,2024.2.4,Win32,59.88023952,5beddd59e4dbf300011c1d50,68817205a84113384fffdfe3,6881e9bce34f1c8b39731d0c,,,,,,,,,,,,./stim/wavs/cuban_match_declarative-broad-focus_Marta-abre-el-regalo.wav,0,,,224.8912,227.1238,0,1,1.7063,,0,84,84,55,1,56,0,cuban,,,,,,,,,,,,,,,,,,,,,,,,,,,,,,,,,,,,,,,,,,,,,,,,,,,,,,,,
,,,,,,,,,5beddd59e4dbf300011c1d50,Mexican,13 or older,"no, only English or Spanish",no,2025-07-24_04h08.21.680,empathy_intonation_perc_control,2024.2.4,Win32,59.88023952,5beddd59e4dbf300011c1d50,68817205a84113384fffdfe3,6881e9bce34f1c8b39731d0c,,,,,,,,,,,,./stim/wavs/mexican_match_declarative-broad-focus_Emilio-ama-la-marcha.wav,0,,,227.1244,229.2738,0,1,1.6199,,0,85,85,59,1,60,0,mexican,,,,,,,,,,,,,,,,,,,,,,,,,,,,,,,,,,,,,,,,,,,,,,,,,,,,,,,,
,,,,,,,,,5beddd59e4dbf300011c1d50,Mexican,13 or older,"no, only English or Spanish",no,2025-07-24_04h08.21.680,empathy_intonation_perc_control,2024.2.4,Win32,59.88023952,5beddd59e4dbf300011c1d50,68817205a84113384fffdfe3,6881e9bce34f1c8b39731d0c,,,,,,,,,,,,./stim/wavs/mexican_match_declarative-broad-focus_Daniel-iba-a-Bolivia.wav,0,,,229.2743,231.2237,0,1,1.4271,,0,86,86,57,1,58,0,mexican,,,,,,,,,,,,,,,,,,,,,,,,,,,,,,,,,,,,,,,,,,,,,,,,,,,,,,,,
,,,,,,,,,5beddd59e4dbf300011c1d50,Mexican,13 or older,"no, only English or Spanish",no,2025-07-24_04h08.21.680,empathy_intonation_perc_control,2024.2.4,Win32,59.88023952,5beddd59e4dbf300011c1d50,68817205a84113384fffdfe3,6881e9bce34f1c8b39731d0c,,,,,,,,,,,,./stim/wavs/puertorican_match_interrogative-total-yn_David-leia-el-libro.wav,1,,,231.2247,233.3068,0,0,1.5489,,0,87,87,20,1,21,1,puertorican,,,,,,,,,,,,,,,,,,,,,,,,,,,,,,,,,,,,,,,,,,,,,,,,,,,,,,,,
,,,,,,,"Great! Now we will move on. The next task consists of about 60 trials, in each of which you will see a string of letters. 
  
  Your task is to decide whether this is a real Spanish word or not.", (press the spacebar to continue),5beddd59e4dbf300011c1d50,Mexican,13 or older,"no, only English or Spanish",no,2025-07-24_04h08.21.680,empathy_intonation_perc_control,2024.2.4,Win32,59.88023952,5beddd59e4dbf300011c1d50,68817205a84113384fffdfe3,6881e9bce34f1c8b39731d0c,,,,,,,,,,,,,,,,,,,,,,,,,,,,,,233.3124,238.8567,0,0,0,0,1,,,,,,,,,,,,,,,,,,,,,,,,,,,,,,,,,,,,,,,,,,,,,,,,,
,,,,,,,"If you think it is an existing Spanish word, you type '1' (for 'REAL'), and if you think it is not an existing Spanish word, you type '0' (for 'FAKE').", (press the spacebar to continue),5beddd59e4dbf300011c1d50,Mexican,13 or older,"no, only English or Spanish",no,2025-07-24_04h08.21.680,empathy_intonation_perc_control,2024.2.4,Win32,59.88023952,5beddd59e4dbf300011c1d50,68817205a84113384fffdfe3,6881e9bce34f1c8b39731d0c,,,,,,,,,,,,,,,,,,,,,,,,,,,,,,238.8589,250.4224,0,1,1,1,1,,,,,,,,,,,,,,,,,,,,,,,,,,,,,,,,,,,,,,,,,,,,,,,,,
,,,,,,,"If you are sure that the word exists, even though you don’t know its exact meaning, you may still respond '1' (REAL). 
  
  But if you are not sure if it is an existing word, you should respond '0' (FAKE).
  
  Let's do a practice round...", (press the spacebar to continue),5beddd59e4dbf300011c1d50,Mexican,13 or older,"no, only English or Spanish",no,2025-07-24_04h08.21.680,empathy_intonation_perc_control,2024.2.4,Win32,59.88023952,5beddd59e4dbf300011c1d50,68817205a84113384fffdfe3,6881e9bce34f1c8b39731d0c,,,,,,,,,,,,,,,,,,,,,,,,,,,,,,250.4246,258.1219,0,2,2,2,1,,,,,,,,,,,,,,,,,,,,,,,,,,,,,,,,,,,,,,,,,,,,,,,,,
,,,,,,,,,5beddd59e4dbf300011c1d50,Mexican,13 or older,"no, only English or Spanish",no,2025-07-24_04h08.21.680,empathy_intonation_perc_control,2024.2.4,Win32,59.88023952,5beddd59e4dbf300011c1d50,68817205a84113384fffdfe3,6881e9bce34f1c8b39731d0c,,,,,,,,,,,,,0,,,,,,,,,,,,,,,,,,,,,,,,258.1264,260.2387,1,0,1.5783,,260.239,261.2387,0,0,0,0,1,0,depiste,REAL,FAKE,,,,,,,,,,,,,,,,,,,,,,,,,,,,,,,,
,,,,,,,,,5beddd59e4dbf300011c1d50,Mexican,13 or older,"no, only English or Spanish",no,2025-07-24_04h08.21.680,empathy_intonation_perc_control,2024.2.4,Win32,59.88023952,5beddd59e4dbf300011c1d50,68817205a84113384fffdfe3,6881e9bce34f1c8b39731d0c,,,,,,,,,,,,,1,,,,,,,,,,,,,,,,,,,,,,,,261.2407,262.5384,1,1,0.7608,,262.54,263.5383,0,1,1,1,1,0,sí,REAL,FAKE,,,,,,,,,,,,,,,,,,,,,,,,,,,,,,,,
,,,,,,,,,5beddd59e4dbf300011c1d50,Mexican,13 or older,"no, only English or Spanish",no,2025-07-24_04h08.21.680,empathy_intonation_perc_control,2024.2.4,Win32,59.88023952,5beddd59e4dbf300011c1d50,68817205a84113384fffdfe3,6881e9bce34f1c8b39731d0c,,,,,,,,,,,,,0,,,,,,,,,,,,,,,,,,,,,,,,263.5407,265.1382,1,0,1.0505,,265.1388,266.1382,0,2,2,2,1,0,coné,REAL,FAKE,,,,,,,,,,,,,,,,,,,,,,,,,,,,,,,,
,,,,,,,,,5beddd59e4dbf300011c1d50,Mexican,13 or older,"no, only English or Spanish",no,2025-07-24_04h08.21.680,empathy_intonation_perc_control,2024.2.4,Win32,59.88023952,5beddd59e4dbf300011c1d50,68817205a84113384fffdfe3,6881e9bce34f1c8b39731d0c,,,,,,,,,,,,,0,,,,,,,,,,,,,,,,,,,,,,,,266.14,267.5046,0,1,0.8179,,267.5052,268.505,0,3,3,3,1,0,calpar,REAL,FAKE,,,,,,,,,,,,,,,,,,,,,,,,,,,,,,,,
,,,,,,,,,5beddd59e4dbf300011c1d50,Mexican,13 or older,"no, only English or Spanish",no,2025-07-24_04h08.21.680,empathy_intonation_perc_control,2024.2.4,Win32,59.88023952,5beddd59e4dbf300011c1d50,68817205a84113384fffdfe3,6881e9bce34f1c8b39731d0c,,,,,,,,,,,,,0,,,,,,,,,,,,,,,,,,,,,,,,268.5068,269.8716,0,1,0.8196,,269.8718,270.8715,0,4,4,4,1,0,joten,REAL,FAKE,,,,,,,,,,,,,,,,,,,,,,,,,,,,,,,,
,,,,,,,,,5beddd59e4dbf300011c1d50,Mexican,13 or older,"no, only English or Spanish",no,2025-07-24_04h08.21.680,empathy_intonation_perc_control,2024.2.4,Win32,59.88023952,5beddd59e4dbf300011c1d50,68817205a84113384fffdfe3,6881e9bce34f1c8b39731d0c,,,,,,,,,,,,,1,,,,,,,,,,,,,,,,,,,,,,,,270.8731,272.5046,1,1,1.093,,272.5047,273.5043,0,5,5,5,1,0,sacapuntas,REAL,FAKE,,,,,,,,,,,,,,,,,,,,,,,,,,,,,,,,
,,,,,,,,,5beddd59e4dbf300011c1d50,Mexican,13 or older,"no, only English or Spanish",no,2025-07-24_04h08.21.680,empathy_intonation_perc_control,2024.2.4,Win32,59.88023952,5beddd59e4dbf300011c1d50,68817205a84113384fffdfe3,6881e9bce34f1c8b39731d0c,,,,,,,,,,,,,0,,,,,,,,,,,,,,,,,,,,,,,,273.5059,275.088,1,0,1.0465,,275.0888,276.0876,0,6,6,6,1,0,priba,REAL,FAKE,,,,,,,,,,,,,,,,,,,,,,,,,,,,,,,,
,,,,,,,,,5beddd59e4dbf300011c1d50,Mexican,13 or older,"no, only English or Spanish",no,2025-07-24_04h08.21.680,empathy_intonation_perc_control,2024.2.4,Win32,59.88023952,5beddd59e4dbf300011c1d50,68817205a84113384fffdfe3,6881e9bce34f1c8b39731d0c,,,,,,,,,,,,,0,,,,,,,,,,,,,,,,,,,,,,,,276.0888,277.6212,1,0,0.9893,,277.6213,278.6211,0,7,7,7,1,0,pelasula,REAL,FAKE,,,,,,,,,,,,,,,,,,,,,,,,,,,,,,,,
,,,,,,,,,5beddd59e4dbf300011c1d50,Mexican,13 or older,"no, only English or Spanish",no,2025-07-24_04h08.21.680,empathy_intonation_perc_control,2024.2.4,Win32,59.88023952,5beddd59e4dbf300011c1d50,68817205a84113384fffdfe3,6881e9bce34f1c8b39731d0c,,,,,,,,,,,,,1,,,,,,,,,,,,,,,,,,,,,,,,278.6223,279.9373,1,1,0.7677,,279.9381,280.9373,0,8,8,8,1,0,bien,REAL,FAKE,,,,,,,,,,,,,,,,,,,,,,,,,,,,,,,,
,,,,,,,,,5beddd59e4dbf300011c1d50,Mexican,13 or older,"no, only English or Spanish",no,2025-07-24_04h08.21.680,empathy_intonation_perc_control,2024.2.4,Win32,59.88023952,5beddd59e4dbf300011c1d50,68817205a84113384fffdfe3,6881e9bce34f1c8b39731d0c,,,,,,,,,,,,,1,,,,,,,,,,,,,,,,,,,,,,,,280.9382,282.2039,1,1,0.723,,282.204,283.204,0,9,9,9,1,0,casa,REAL,FAKE,,,,,,,,,,,,,,,,,,,,,,,,,,,,,,,,
,,,,,,,,,5beddd59e4dbf300011c1d50,Mexican,13 or older,"no, only English or Spanish",no,2025-07-24_04h08.21.680,empathy_intonation_perc_control,2024.2.4,Win32,59.88023952,5beddd59e4dbf300011c1d50,68817205a84113384fffdfe3,6881e9bce34f1c8b39731d0c,,,,,,,,,,,,,0,,,,,,,,,,,,,,,,,,,,,,,,283.2056,284.6704,1,0,0.9289,,284.671,285.6703,0,10,10,10,1,0,lejo,REAL,FAKE,,,,,,,,,,,,,,,,,,,,,,,,,,,,,,,,
,,,,,,,,,5beddd59e4dbf300011c1d50,Mexican,13 or older,"no, only English or Spanish",no,2025-07-24_04h08.21.680,empathy_intonation_perc_control,2024.2.4,Win32,59.88023952,5beddd59e4dbf300011c1d50,68817205a84113384fffdfe3,6881e9bce34f1c8b39731d0c,,,,,,,,,,,,,0,,,,,,,,,,,,,,,,,,,,,,,,285.6723,287.1701,1,0,0.9616,,287.1702,288.1701,0,11,11,11,1,0,pretantas,REAL,FAKE,,,,,,,,,,,,,,,,,,,,,,,,,,,,,,,,
,,,,,,,,,5beddd59e4dbf300011c1d50,Mexican,13 or older,"no, only English or Spanish",no,2025-07-24_04h08.21.680,empathy_intonation_perc_control,2024.2.4,Win32,59.88023952,5beddd59e4dbf300011c1d50,68817205a84113384fffdfe3,6881e9bce34f1c8b39731d0c,,,,,,,,,,,,,,,,,,,,,,,,,,,,,,,,,,,,,,,,,,,,,,,,,,,,,,288.1704,289.6204,,,,,,,,,,,,,,,,,,,,,,,,,,,,,,
,,,,,,,,,5beddd59e4dbf300011c1d50,Mexican,13 or older,"no, only English or Spanish",no,2025-07-24_04h08.21.680,empathy_intonation_perc_control,2024.2.4,Win32,59.88023952,5beddd59e4dbf300011c1d50,68817205a84113384fffdfe3,6881e9bce34f1c8b39731d0c,,,,,,,,,,,,,1,,,,,,,,,,,,,,,,,,,,,,,,,,,,,,,,,,,,,59,besar,,,,,289.6285,291.0869,1,1,0.9286,,0,0,0,58,1,REAL,FAKE,,,,,,,,,,,,,,,,,
,,,,,,,,,5beddd59e4dbf300011c1d50,Mexican,13 or older,"no, only English or Spanish",no,2025-07-24_04h08.21.680,empathy_intonation_perc_control,2024.2.4,Win32,59.88023952,5beddd59e4dbf300011c1d50,68817205a84113384fffdfe3,6881e9bce34f1c8b39731d0c,,,,,,,,,,,,,0,,,,,,,,,,,,,,,,,,,,,,,,,,,,,,,,,,,,,42,cadallo,,,,,291.088,293.0866,1,0,1.4617,,0,1,1,41,1,REAL,FAKE,,,,,,,,,,,,,,,,,
,,,,,,,,,5beddd59e4dbf300011c1d50,Mexican,13 or older,"no, only English or Spanish",no,2025-07-24_04h08.21.680,empathy_intonation_perc_control,2024.2.4,Win32,59.88023952,5beddd59e4dbf300011c1d50,68817205a84113384fffdfe3,6881e9bce34f1c8b39731d0c,,,,,,,,,,,,,1,,,,,,,,,,,,,,,,,,,,,,,,,,,,,,,,,,,,,38,estornudar,,,,,293.0878,294.7863,0,0,1.1505,,0,2,2,37,1,REAL,FAKE,,,,,,,,,,,,,,,,,
,,,,,,,,,5beddd59e4dbf300011c1d50,Mexican,13 or older,"no, only English or Spanish",no,2025-07-24_04h08.21.680,empathy_intonation_perc_control,2024.2.4,Win32,59.88023952,5beddd59e4dbf300011c1d50,68817205a84113384fffdfe3,6881e9bce34f1c8b39731d0c,,,,,,,,,,,,,1,,,,,,,,,,,,,,,,,,,,,,,,,,,,,,,,,,,,,69,engatusar,,,,,294.7877,296.4535,0,0,1.1297,,0,3,3,68,1,REAL,FAKE,,,,,,,,,,,,,,,,,
,,,,,,,,,5beddd59e4dbf300011c1d50,Mexican,13 or older,"no, only English or Spanish",no,2025-07-24_04h08.21.680,empathy_intonation_perc_control,2024.2.4,Win32,59.88023952,5beddd59e4dbf300011c1d50,68817205a84113384fffdfe3,6881e9bce34f1c8b39731d0c,,,,,,,,,,,,,0,,,,,,,,,,,,,,,,,,,,,,,,,,,,,,,,,,,,,19,brecedad,,,,,296.4548,297.7862,0,1,0.7861,,0,4,4,18,1,REAL,FAKE,,,,,,,,,,,,,,,,,
,,,,,,,,,5beddd59e4dbf300011c1d50,Mexican,13 or older,"no, only English or Spanish",no,2025-07-24_04h08.21.680,empathy_intonation_perc_control,2024.2.4,Win32,59.88023952,5beddd59e4dbf300011c1d50,68817205a84113384fffdfe3,6881e9bce34f1c8b39731d0c,,,,,,,,,,,,,1,,,,,,,,,,,,,,,,,,,,,,,,,,,,,,,,,,,,,22,lacayo,,,,,297.7875,299.2531,1,1,0.9221,,0,5,5,21,1,REAL,FAKE,,,,,,,,,,,,,,,,,
,,,,,,,,,5beddd59e4dbf300011c1d50,Mexican,13 or older,"no, only English or Spanish",no,2025-07-24_04h08.21.680,empathy_intonation_perc_control,2024.2.4,Win32,59.88023952,5beddd59e4dbf300011c1d50,68817205a84113384fffdfe3,6881e9bce34f1c8b39731d0c,,,,,,,,,,,,,1,,,,,,,,,,,,,,,,,,,,,,,,,,,,,,,,,,,,,5,zapato,,,,,299.2555,300.6028,0,0,0.8079,,0,6,6,4,1,REAL,FAKE,,,,,,,,,,,,,,,,,
,,,,,,,,,5beddd59e4dbf300011c1d50,Mexican,13 or older,"no, only English or Spanish",no,2025-07-24_04h08.21.680,empathy_intonation_perc_control,2024.2.4,Win32,59.88023952,5beddd59e4dbf300011c1d50,68817205a84113384fffdfe3,6881e9bce34f1c8b39731d0c,,,,,,,,,,,,,1,,,,,,,,,,,,,,,,,,,,,,,,,,,,,,,,,,,,,55,nevar,,,,,300.605,302.0528,0,0,0.906,,0,7,7,54,1,REAL,FAKE,,,,,,,,,,,,,,,,,
,,,,,,,,,5beddd59e4dbf300011c1d50,Mexican,13 or older,"no, only English or Spanish",no,2025-07-24_04h08.21.680,empathy_intonation_perc_control,2024.2.4,Win32,59.88023952,5beddd59e4dbf300011c1d50,68817205a84113384fffdfe3,6881e9bce34f1c8b39731d0c,,,,,,,,,,,,,1,,,,,,,,,,,,,,,,,,,,,,,,,,,,,,,,,,,,,54,fomentar,,,,,302.0552,303.8859,0,0,1.2881,,0,8,8,53,1,REAL,FAKE,,,,,,,,,,,,,,,,,
,,,,,,,,,5beddd59e4dbf300011c1d50,Mexican,13 or older,"no, only English or Spanish",no,2025-07-24_04h08.21.680,empathy_intonation_perc_control,2024.2.4,Win32,59.88023952,5beddd59e4dbf300011c1d50,68817205a84113384fffdfe3,6881e9bce34f1c8b39731d0c,,,,,,,,,,,,,1,,,,,,,,,,,,,,,,,,,,,,,,,,,,,,,,,,,,,46,martillo,,,,,303.8869,305.419,1,1,0.9831,,0,9,9,45,1,REAL,FAKE,,,,,,,,,,,,,,,,,
,,,,,,,,,5beddd59e4dbf300011c1d50,Mexican,13 or older,"no, only English or Spanish",no,2025-07-24_04h08.21.680,empathy_intonation_perc_control,2024.2.4,Win32,59.88023952,5beddd59e4dbf300011c1d50,68817205a84113384fffdfe3,6881e9bce34f1c8b39731d0c,,,,,,,,,,,,,1,,,,,,,,,,,,,,,,,,,,,,,,,,,,,,,,,,,,,12,asesinato,,,,,305.4201,307.4526,1,1,1.4836,,0,10,10,11,1,REAL,FAKE,,,,,,,,,,,,,,,,,
,,,,,,,,,5beddd59e4dbf300011c1d50,Mexican,13 or older,"no, only English or Spanish",no,2025-07-24_04h08.21.680,empathy_intonation_perc_control,2024.2.4,Win32,59.88023952,5beddd59e4dbf300011c1d50,68817205a84113384fffdfe3,6881e9bce34f1c8b39731d0c,,,,,,,,,,,,,1,,,,,,,,,,,,,,,,,,,,,,,,,,,,,,,,,,,,,88,acantilado,,,,,307.4546,309.3525,1,1,1.3669,,0,11,11,87,1,REAL,FAKE,,,,,,,,,,,,,,,,,
,,,,,,,,,5beddd59e4dbf300011c1d50,Mexican,13 or older,"no, only English or Spanish",no,2025-07-24_04h08.21.680,empathy_intonation_perc_control,2024.2.4,Win32,59.88023952,5beddd59e4dbf300011c1d50,68817205a84113384fffdfe3,6881e9bce34f1c8b39731d0c,,,,,,,,,,,,,0,,,,,,,,,,,,,,,,,,,,,,,,,,,,,,,,,,,,,74,cintro,,,,,309.3544,310.8523,1,0,0.9507,,0,12,12,73,1,REAL,FAKE,,,,,,,,,,,,,,,,,
,,,,,,,,,5beddd59e4dbf300011c1d50,Mexican,13 or older,"no, only English or Spanish",no,2025-07-24_04h08.21.680,empathy_intonation_perc_control,2024.2.4,Win32,59.88023952,5beddd59e4dbf300011c1d50,68817205a84113384fffdfe3,6881e9bce34f1c8b39731d0c,,,,,,,,,,,,,1,,,,,,,,,,,,,,,,,,,,,,,,,,,,,,,,,,,,,39,torpe,,,,,310.8541,312.1853,1,1,0.7929,,0,13,13,38,1,REAL,FAKE,,,,,,,,,,,,,,,,,
,,,,,,,,,5beddd59e4dbf300011c1d50,Mexican,13 or older,"no, only English or Spanish",no,2025-07-24_04h08.21.680,empathy_intonation_perc_control,2024.2.4,Win32,59.88023952,5beddd59e4dbf300011c1d50,68817205a84113384fffdfe3,6881e9bce34f1c8b39731d0c,,,,,,,,,,,,,0,,,,,,,,,,,,,,,,,,,,,,,,,,,,,,,,,,,,,72,pemición,,,,,312.1869,313.6382,1,0,0.9158,,0,14,14,71,1,REAL,FAKE,,,,,,,,,,,,,,,,,
,,,,,,,,,5beddd59e4dbf300011c1d50,Mexican,13 or older,"no, only English or Spanish",no,2025-07-24_04h08.21.680,empathy_intonation_perc_control,2024.2.4,Win32,59.88023952,5beddd59e4dbf300011c1d50,68817205a84113384fffdfe3,6881e9bce34f1c8b39731d0c,,,,,,,,,,,,,0,,,,,,,,,,,,,,,,,,,,,,,,,,,,,,,,,,,,,87,grodo,,,,,313.6388,314.8852,1,0,0.7049,,0,15,15,86,1,REAL,FAKE,,,,,,,,,,,,,,,,,
,,,,,,,,,5beddd59e4dbf300011c1d50,Mexican,13 or older,"no, only English or Spanish",no,2025-07-24_04h08.21.680,empathy_intonation_perc_control,2024.2.4,Win32,59.88023952,5beddd59e4dbf300011c1d50,68817205a84113384fffdfe3,6881e9bce34f1c8b39731d0c,,,,,,,,,,,,,0,,,,,,,,,,,,,,,,,,,,,,,,,,,,,,,,,,,,,23,lampera,,,,,314.8862,316.3019,1,0,0.871,,0,16,16,22,1,REAL,FAKE,,,,,,,,,,,,,,,,,
,,,,,,,,,5beddd59e4dbf300011c1d50,Mexican,13 or older,"no, only English or Spanish",no,2025-07-24_04h08.21.680,empathy_intonation_perc_control,2024.2.4,Win32,59.88023952,5beddd59e4dbf300011c1d50,68817205a84113384fffdfe3,6881e9bce34f1c8b39731d0c,,,,,,,,,,,,,1,,,,,,,,,,,,,,,,,,,,,,,,,,,,,,,,,,,,,24,látigo,,,,,316.3037,317.585,1,1,0.7345,,0,17,17,23,1,REAL,FAKE,,,,,,,,,,,,,,,,,
,,,,,,,,,5beddd59e4dbf300011c1d50,Mexican,13 or older,"no, only English or Spanish",no,2025-07-24_04h08.21.680,empathy_intonation_perc_control,2024.2.4,Win32,59.88023952,5beddd59e4dbf300011c1d50,68817205a84113384fffdfe3,6881e9bce34f1c8b39731d0c,,,,,,,,,,,,,1,,,,,,,,,,,,,,,,,,,,,,,,,,,,,,,,,,,,,49,ganar,,,,,317.5863,319.5182,0,0,1.3903,,0,18,18,48,1,REAL,FAKE,,,,,,,,,,,,,,,,,
,,,,,,,,,5beddd59e4dbf300011c1d50,Mexican,13 or older,"no, only English or Spanish",no,2025-07-24_04h08.21.680,empathy_intonation_perc_control,2024.2.4,Win32,59.88023952,5beddd59e4dbf300011c1d50,68817205a84113384fffdfe3,6881e9bce34f1c8b39731d0c,,,,,,,,,,,,,0,,,,,,,,,,,,,,,,,,,,,,,,,,,,,,,,,,,,,10,antar,,,,,319.5192,320.9681,0,1,0.9106,,0,19,19,9,1,REAL,FAKE,,,,,,,,,,,,,,,,,
,,,,,,,,,5beddd59e4dbf300011c1d50,Mexican,13 or older,"no, only English or Spanish",no,2025-07-24_04h08.21.680,empathy_intonation_perc_control,2024.2.4,Win32,59.88023952,5beddd59e4dbf300011c1d50,68817205a84113384fffdfe3,6881e9bce34f1c8b39731d0c,,,,,,,,,,,,,0,,,,,,,,,,,,,,,,,,,,,,,,,,,,,,,,,,,,,82,empirador,,,,,320.9691,323.6348,1,0,2.1169,,0,20,20,81,1,REAL,FAKE,,,,,,,,,,,,,,,,,
,,,,,,,,,5beddd59e4dbf300011c1d50,Mexican,13 or older,"no, only English or Spanish",no,2025-07-24_04h08.21.680,empathy_intonation_perc_control,2024.2.4,Win32,59.88023952,5beddd59e4dbf300011c1d50,68817205a84113384fffdfe3,6881e9bce34f1c8b39731d0c,,,,,,,,,,,,,1,,,,,,,,,,,,,,,,,,,,,,,,,,,,,,,,,,,,,81,pozo,,,,,323.6358,325.4182,1,1,1.2337,,0,21,21,80,1,REAL,FAKE,,,,,,,,,,,,,,,,,
,,,,,,,,,5beddd59e4dbf300011c1d50,Mexican,13 or older,"no, only English or Spanish",no,2025-07-24_04h08.21.680,empathy_intonation_perc_control,2024.2.4,Win32,59.88023952,5beddd59e4dbf300011c1d50,68817205a84113384fffdfe3,6881e9bce34f1c8b39731d0c,,,,,,,,,,,,,1,,,,,,,,,,,,,,,,,,,,,,,,,,,,,,,,,,,,,90,clavel,,,,,325.4196,326.9678,0,0,1.0023,,0,22,22,89,1,REAL,FAKE,,,,,,,,,,,,,,,,,
,,,,,,,,,5beddd59e4dbf300011c1d50,Mexican,13 or older,"no, only English or Spanish",no,2025-07-24_04h08.21.680,empathy_intonation_perc_control,2024.2.4,Win32,59.88023952,5beddd59e4dbf300011c1d50,68817205a84113384fffdfe3,6881e9bce34f1c8b39731d0c,,,,,,,,,,,,,1,,,,,,,,,,,,,,,,,,,,,,,,,,,,,,,,,,,,,26,secuestro,,,,,326.9697,328.4177,1,1,0.9091,,0,23,23,25,1,REAL,FAKE,,,,,,,,,,,,,,,,,
,,,,,,,,,5beddd59e4dbf300011c1d50,Mexican,13 or older,"no, only English or Spanish",no,2025-07-24_04h08.21.680,empathy_intonation_perc_control,2024.2.4,Win32,59.88023952,5beddd59e4dbf300011c1d50,68817205a84113384fffdfe3,6881e9bce34f1c8b39731d0c,,,,,,,,,,,,,1,,,,,,,,,,,,,,,,,,,,,,,,,,,,,,,,,,,,,13,helar,,,,,328.4187,329.9844,1,1,1.0214,,0,24,24,12,1,REAL,FAKE,,,,,,,,,,,,,,,,,
,,,,,,,,,5beddd59e4dbf300011c1d50,Mexican,13 or older,"no, only English or Spanish",no,2025-07-24_04h08.21.680,empathy_intonation_perc_control,2024.2.4,Win32,59.88023952,5beddd59e4dbf300011c1d50,68817205a84113384fffdfe3,6881e9bce34f1c8b39731d0c,,,,,,,,,,,,,0,,,,,,,,,,,,,,,,,,,,,,,,,,,,,,,,,,,,,33,pauca,,,,,329.9868,331.8008,0,1,1.2761,,0,25,25,32,1,REAL,FAKE,,,,,,,,,,,,,,,,,
,,,,,,,,,5beddd59e4dbf300011c1d50,Mexican,13 or older,"no, only English or Spanish",no,2025-07-24_04h08.21.680,empathy_intonation_perc_control,2024.2.4,Win32,59.88023952,5beddd59e4dbf300011c1d50,68817205a84113384fffdfe3,6881e9bce34f1c8b39731d0c,,,,,,,,,,,,,1,,,,,,,,,,,,,,,,,,,,,,,,,,,,,,,,,,,,,6,tergiversar,,,,,331.8024,333.4841,0,0,1.1398,,0,26,26,5,1,REAL,FAKE,,,,,,,,,,,,,,,,,
,,,,,,,,,5beddd59e4dbf300011c1d50,Mexican,13 or older,"no, only English or Spanish",no,2025-07-24_04h08.21.680,empathy_intonation_perc_control,2024.2.4,Win32,59.88023952,5beddd59e4dbf300011c1d50,68817205a84113384fffdfe3,6881e9bce34f1c8b39731d0c,,,,,,,,,,,,,1,,,,,,,,,,,,,,,,,,,,,,,,,,,,,,,,,,,,,64,orgulloso,,,,,333.4852,335.0341,0,0,1.0004,,0,27,27,63,1,REAL,FAKE,,,,,,,,,,,,,,,,,
,,,,,,,,,5beddd59e4dbf300011c1d50,Mexican,13 or older,"no, only English or Spanish",no,2025-07-24_04h08.21.680,empathy_intonation_perc_control,2024.2.4,Win32,59.88023952,5beddd59e4dbf300011c1d50,68817205a84113384fffdfe3,6881e9bce34f1c8b39731d0c,,,,,,,,,,,,,0,,,,,,,,,,,,,,,,,,,,,,,,,,,,,,,,,,,,,1,terzo,,,,,335.0358,336.9175,1,0,1.3465,,0,28,28,0,1,REAL,FAKE,,,,,,,,,,,,,,,,,
,,,,,,,,,5beddd59e4dbf300011c1d50,Mexican,13 or older,"no, only English or Spanish",no,2025-07-24_04h08.21.680,empathy_intonation_perc_control,2024.2.4,Win32,59.88023952,5beddd59e4dbf300011c1d50,68817205a84113384fffdfe3,6881e9bce34f1c8b39731d0c,,,,,,,,,,,,,1,,,,,,,,,,,,,,,,,,,,,,,,,,,,,,,,,,,,,65,bizcocho,,,,,336.9184,338.684,1,1,1.2169,,0,29,29,64,1,REAL,FAKE,,,,,,,,,,,,,,,,,
,,,,,,,,,5beddd59e4dbf300011c1d50,Mexican,13 or older,"no, only English or Spanish",no,2025-07-24_04h08.21.680,empathy_intonation_perc_control,2024.2.4,Win32,59.88023952,5beddd59e4dbf300011c1d50,68817205a84113384fffdfe3,6881e9bce34f1c8b39731d0c,,,,,,,,,,,,,0,,,,,,,,,,,,,,,,,,,,,,,,,,,,,,,,,,,,,27,acutación,,,,,338.6859,340.4671,1,0,1.2405,,0,30,30,26,1,REAL,FAKE,,,,,,,,,,,,,,,,,
,,,,,,,,,5beddd59e4dbf300011c1d50,Mexican,13 or older,"no, only English or Spanish",no,2025-07-24_04h08.21.680,empathy_intonation_perc_control,2024.2.4,Win32,59.88023952,5beddd59e4dbf300011c1d50,68817205a84113384fffdfe3,6881e9bce34f1c8b39731d0c,,,,,,,,,,,,,1,,,,,,,,,,,,,,,,,,,,,,,,,,,,,,,,,,,,,61,seda,,,,,340.4684,341.7835,1,1,0.7779,,0,31,31,60,1,REAL,FAKE,,,,,,,,,,,,,,,,,
,,,,,,,,,5beddd59e4dbf300011c1d50,Mexican,13 or older,"no, only English or Spanish",no,2025-07-24_04h08.21.680,empathy_intonation_perc_control,2024.2.4,Win32,59.88023952,5beddd59e4dbf300011c1d50,68817205a84113384fffdfe3,6881e9bce34f1c8b39731d0c,,,,,,,,,,,,,0,,,,,,,,,,,,,,,,,,,,,,,,,,,,,,,,,,,,,66,hacido,,,,,341.7847,343.4,1,0,1.0687,,0,32,32,65,1,REAL,FAKE,,,,,,,,,,,,,,,,,
,,,,,,,,,5beddd59e4dbf300011c1d50,Mexican,13 or older,"no, only English or Spanish",no,2025-07-24_04h08.21.680,empathy_intonation_perc_control,2024.2.4,Win32,59.88023952,5beddd59e4dbf300011c1d50,68817205a84113384fffdfe3,6881e9bce34f1c8b39731d0c,,,,,,,,,,,,,0,,,,,,,,,,,,,,,,,,,,,,,,,,,,,,,,,,,,,84,escuto,,,,,343.4019,344.8337,1,0,0.8842,,0,33,33,83,1,REAL,FAKE,,,,,,,,,,,,,,,,,
,,,,,,,,,5beddd59e4dbf300011c1d50,Mexican,13 or older,"no, only English or Spanish",no,2025-07-24_04h08.21.680,empathy_intonation_perc_control,2024.2.4,Win32,59.88023952,5beddd59e4dbf300011c1d50,68817205a84113384fffdfe3,6881e9bce34f1c8b39731d0c,,,,,,,,,,,,,1,,,,,,,,,,,,,,,,,,,,,,,,,,,,,,,,,,,,,37,granuja,,,,,344.8356,346.3341,1,1,0.9636,,0,34,34,36,1,REAL,FAKE,,,,,,,,,,,,,,,,,
,,,,,,,,,5beddd59e4dbf300011c1d50,Mexican,13 or older,"no, only English or Spanish",no,2025-07-24_04h08.21.680,empathy_intonation_perc_control,2024.2.4,Win32,59.88023952,5beddd59e4dbf300011c1d50,68817205a84113384fffdfe3,6881e9bce34f1c8b39731d0c,,,,,,,,,,,,,1,,,,,,,,,,,,,,,,,,,,,,,,,,,,,,,,,,,,,80,hormiga,,,,,346.3354,347.6166,1,1,0.7348,,0,35,35,79,1,REAL,FAKE,,,,,,,,,,,,,,,,,
,,,,,,,,,5beddd59e4dbf300011c1d50,Mexican,13 or older,"no, only English or Spanish",no,2025-07-24_04h08.21.680,empathy_intonation_perc_control,2024.2.4,Win32,59.88023952,5beddd59e4dbf300011c1d50,68817205a84113384fffdfe3,6881e9bce34f1c8b39731d0c,,,,,,,,,,,,,1,,,,,,,,,,,,,,,,,,,,,,,,,,,,,,,,,,,,,76,atar,,,,,347.6181,349.0496,0,0,0.8925,,0,36,36,75,1,REAL,FAKE,,,,,,,,,,,,,,,,,
,,,,,,,,,5beddd59e4dbf300011c1d50,Mexican,13 or older,"no, only English or Spanish",no,2025-07-24_04h08.21.680,empathy_intonation_perc_control,2024.2.4,Win32,59.88023952,5beddd59e4dbf300011c1d50,68817205a84113384fffdfe3,6881e9bce34f1c8b39731d0c,,,,,,,,,,,,,1,,,,,,,,,,,,,,,,,,,,,,,,,,,,,,,,,,,,,28,merodear,,,,,349.0506,350.7996,0,0,1.2111,,0,37,37,27,1,REAL,FAKE,,,,,,,,,,,,,,,,,
,,,,,,,,,5beddd59e4dbf300011c1d50,Mexican,13 or older,"no, only English or Spanish",no,2025-07-24_04h08.21.680,empathy_intonation_perc_control,2024.2.4,Win32,59.88023952,5beddd59e4dbf300011c1d50,68817205a84113384fffdfe3,6881e9bce34f1c8b39731d0c,,,,,,,,,,,,,0,,,,,,,,,,,,,,,,,,,,,,,,,,,,,,,,,,,,,50,flamida,,,,,350.8006,352.6494,0,1,1.3093,,0,38,38,49,1,REAL,FAKE,,,,,,,,,,,,,,,,,
,,,,,,,,,5beddd59e4dbf300011c1d50,Mexican,13 or older,"no, only English or Spanish",no,2025-07-24_04h08.21.680,empathy_intonation_perc_control,2024.2.4,Win32,59.88023952,5beddd59e4dbf300011c1d50,68817205a84113384fffdfe3,6881e9bce34f1c8b39731d0c,,,,,,,,,,,,,1,,,,,,,,,,,,,,,,,,,,,,,,,,,,,,,,,,,,,44,cuchara,,,,,352.6507,354.183,1,1,0.9865,,0,39,39,43,1,REAL,FAKE,,,,,,,,,,,,,,,,,
,,,,,,,,,5beddd59e4dbf300011c1d50,Mexican,13 or older,"no, only English or Spanish",no,2025-07-24_04h08.21.680,empathy_intonation_perc_control,2024.2.4,Win32,59.88023952,5beddd59e4dbf300011c1d50,68817205a84113384fffdfe3,6881e9bce34f1c8b39731d0c,,,,,,,,,,,,,0,,,,,,,,,,,,,,,,,,,,,,,,,,,,,,,,,,,,,92,click the 0 key.,,,,,354.1853,356.7829,0,1,2.0534,,0,40,40,91,1,REAL,FAKE,,,,,,,,,,,,,,,,,
,,,,,,,,,5beddd59e4dbf300011c1d50,Mexican,13 or older,"no, only English or Spanish",no,2025-07-24_04h08.21.680,empathy_intonation_perc_control,2024.2.4,Win32,59.88023952,5beddd59e4dbf300011c1d50,68817205a84113384fffdfe3,6881e9bce34f1c8b39731d0c,,,,,,,,,,,,,1,,,,,,,,,,,,,,,,,,,,,,,,,,,,,,,,,,,,,85,laúd,,,,,356.785,358.5491,0,0,1.2173,,0,41,41,84,1,REAL,FAKE,,,,,,,,,,,,,,,,,
,,,,,,,,,5beddd59e4dbf300011c1d50,Mexican,13 or older,"no, only English or Spanish",no,2025-07-24_04h08.21.680,empathy_intonation_perc_control,2024.2.4,Win32,59.88023952,5beddd59e4dbf300011c1d50,68817205a84113384fffdfe3,6881e9bce34f1c8b39731d0c,,,,,,,,,,,,,0,,,,,,,,,,,,,,,,,,,,,,,,,,,,,,,,,,,,,4,batillón,,,,,358.5501,360.0492,1,0,0.951,,0,42,42,3,1,REAL,FAKE,,,,,,,,,,,,,,,,,
,,,,,,,,,5beddd59e4dbf300011c1d50,Mexican,13 or older,"no, only English or Spanish",no,2025-07-24_04h08.21.680,empathy_intonation_perc_control,2024.2.4,Win32,59.88023952,5beddd59e4dbf300011c1d50,68817205a84113384fffdfe3,6881e9bce34f1c8b39731d0c,,,,,,,,,,,,,1,,,,,,,,,,,,,,,,,,,,,,,,,,,,,,,,,,,,,86,barato,,,,,360.0509,362.0996,1,1,1.511,,0,43,43,85,1,REAL,FAKE,,,,,,,,,,,,,,,,,
,,,,,,,,,5beddd59e4dbf300011c1d50,Mexican,13 or older,"no, only English or Spanish",no,2025-07-24_04h08.21.680,empathy_intonation_perc_control,2024.2.4,Win32,59.88023952,5beddd59e4dbf300011c1d50,68817205a84113384fffdfe3,6881e9bce34f1c8b39731d0c,,,,,,,,,,,,,0,,,,,,,,,,,,,,,,,,,,,,,,,,,,,,,,,,,,,32,fatacidad,,,,,362.101,364.0821,0,1,1.4336,,0,44,44,31,1,REAL,FAKE,,,,,,,,,,,,,,,,,
,,,,,,,,,5beddd59e4dbf300011c1d50,Mexican,13 or older,"no, only English or Spanish",no,2025-07-24_04h08.21.680,empathy_intonation_perc_control,2024.2.4,Win32,59.88023952,5beddd59e4dbf300011c1d50,68817205a84113384fffdfe3,6881e9bce34f1c8b39731d0c,,,,,,,,,,,,,0,,,,,,,,,,,,,,,,,,,,,,,,,,,,,,,,,,,,,17,floroso,,,,,364.0833,365.5486,1,0,0.922,,0,45,45,16,1,REAL,FAKE,,,,,,,,,,,,,,,,,
,,,,,,,,,5beddd59e4dbf300011c1d50,Mexican,13 or older,"no, only English or Spanish",no,2025-07-24_04h08.21.680,empathy_intonation_perc_control,2024.2.4,Win32,59.88023952,5beddd59e4dbf300011c1d50,68817205a84113384fffdfe3,6881e9bce34f1c8b39731d0c,,,,,,,,,,,,,1,,,,,,,,,,,,,,,,,,,,,,,,,,,,,,,,,,,,,52,camisa,,,,,365.5497,367.1653,1,1,1.0715,,0,46,46,51,1,REAL,FAKE,,,,,,,,,,,,,,,,,
,,,,,,,,,5beddd59e4dbf300011c1d50,Mexican,13 or older,"no, only English or Spanish",no,2025-07-24_04h08.21.680,empathy_intonation_perc_control,2024.2.4,Win32,59.88023952,5beddd59e4dbf300011c1d50,68817205a84113384fffdfe3,6881e9bce34f1c8b39731d0c,,,,,,,,,,,,,1,,,,,,,,,,,,,,,,,,,,,,,,,,,,,,,,,,,,,62,flaco,,,,,367.1667,368.5485,1,1,0.8397,,0,47,47,61,1,REAL,FAKE,,,,,,,,,,,,,,,,,
,,,,,,,,,5beddd59e4dbf300011c1d50,Mexican,13 or older,"no, only English or Spanish",no,2025-07-24_04h08.21.680,empathy_intonation_perc_control,2024.2.4,Win32,59.88023952,5beddd59e4dbf300011c1d50,68817205a84113384fffdfe3,6881e9bce34f1c8b39731d0c,,,,,,,,,,,,,1,,,,,,,,,,,,,,,,,,,,,,,,,,,,,,,,,,,,,15,regar,,,,,368.5499,370.3152,1,1,1.2235,,0,48,48,14,1,REAL,FAKE,,,,,,,,,,,,,,,,,
,,,,,,,,,5beddd59e4dbf300011c1d50,Mexican,13 or older,"no, only English or Spanish",no,2025-07-24_04h08.21.680,empathy_intonation_perc_control,2024.2.4,Win32,59.88023952,5beddd59e4dbf300011c1d50,68817205a84113384fffdfe3,6881e9bce34f1c8b39731d0c,,,,,,,,,,,,,1,,,,,,,,,,,,,,,,,,,,,,,,,,,,,,,,,,,,,20,ávido,,,,,370.3171,371.6316,1,1,0.7769,,0,49,49,19,1,REAL,FAKE,,,,,,,,,,,,,,,,,
,,,,,,,,,5beddd59e4dbf300011c1d50,Mexican,13 or older,"no, only English or Spanish",no,2025-07-24_04h08.21.680,empathy_intonation_perc_control,2024.2.4,Win32,59.88023952,5beddd59e4dbf300011c1d50,68817205a84113384fffdfe3,6881e9bce34f1c8b39731d0c,,,,,,,,,,,,,1,,,,,,,,,,,,,,,,,,,,,,,,,,,,,,,,,,,,,73,hervidor,,,,,371.6327,373.0649,0,0,0.896,,0,50,50,72,1,REAL,FAKE,,,,,,,,,,,,,,,,,
,,,,,,,,,5beddd59e4dbf300011c1d50,Mexican,13 or older,"no, only English or Spanish",no,2025-07-24_04h08.21.680,empathy_intonation_perc_control,2024.2.4,Win32,59.88023952,5beddd59e4dbf300011c1d50,68817205a84113384fffdfe3,6881e9bce34f1c8b39731d0c,,,,,,,,,,,,,0,,,,,,,,,,,,,,,,,,,,,,,,,,,,,,,,,,,,,16,abracer,,,,,373.0661,374.7981,0,1,1.1954,,0,51,51,15,1,REAL,FAKE,,,,,,,,,,,,,,,,,
,,,,,,,,,5beddd59e4dbf300011c1d50,Mexican,13 or older,"no, only English or Spanish",no,2025-07-24_04h08.21.680,empathy_intonation_perc_control,2024.2.4,Win32,59.88023952,5beddd59e4dbf300011c1d50,68817205a84113384fffdfe3,6881e9bce34f1c8b39731d0c,,,,,,,,,,,,,1,,,,,,,,,,,,,,,,,,,,,,,,,,,,,,,,,,,,,67,cabello,,,,,374.7992,376.1815,1,1,0.838,,0,52,52,66,1,REAL,FAKE,,,,,,,,,,,,,,,,,
,,,,,,,,,5beddd59e4dbf300011c1d50,Mexican,13 or older,"no, only English or Spanish",no,2025-07-24_04h08.21.680,empathy_intonation_perc_control,2024.2.4,Win32,59.88023952,5beddd59e4dbf300011c1d50,68817205a84113384fffdfe3,6881e9bce34f1c8b39731d0c,,,,,,,,,,,,,1,,,,,,,,,,,,,,,,,,,,,,,,,,,,,,,,,,,,,83,guante,,,,,376.1834,377.582,1,1,0.8629,,0,53,53,82,1,REAL,FAKE,,,,,,,,,,,,,,,,,
,,,,,,,,,5beddd59e4dbf300011c1d50,Mexican,13 or older,"no, only English or Spanish",no,2025-07-24_04h08.21.680,empathy_intonation_perc_control,2024.2.4,Win32,59.88023952,5beddd59e4dbf300011c1d50,68817205a84113384fffdfe3,6881e9bce34f1c8b39731d0c,,,,,,,,,,,,,1,,,,,,,,,,,,,,,,,,,,,,,,,,,,,,,,,,,,,45,jilguero,,,,,377.5836,379.2484,1,1,1.1269,,0,54,54,44,1,REAL,FAKE,,,,,,,,,,,,,,,,,
,,,,,,,,,5beddd59e4dbf300011c1d50,Mexican,13 or older,"no, only English or Spanish",no,2025-07-24_04h08.21.680,empathy_intonation_perc_control,2024.2.4,Win32,59.88023952,5beddd59e4dbf300011c1d50,68817205a84113384fffdfe3,6881e9bce34f1c8b39731d0c,,,,,,,,,,,,,1,,,,,,,,,,,,,,,,,,,,,,,,,,,,,,,,,,,,,31,pandilla,,,,,379.2498,380.9812,1,1,1.1916,,0,55,55,30,1,REAL,FAKE,,,,,,,,,,,,,,,,,
,,,,,,,,,5beddd59e4dbf300011c1d50,Mexican,13 or older,"no, only English or Spanish",no,2025-07-24_04h08.21.680,empathy_intonation_perc_control,2024.2.4,Win32,59.88023952,5beddd59e4dbf300011c1d50,68817205a84113384fffdfe3,6881e9bce34f1c8b39731d0c,,,,,,,,,,,,,0,,,,,,,,,,,,,,,,,,,,,,,,,,,,,,,,,,,,,47,cartinar,,,,,380.9824,382.7309,1,0,1.2075,,0,56,56,46,1,REAL,FAKE,,,,,,,,,,,,,,,,,
,,,,,,,,,5beddd59e4dbf300011c1d50,Mexican,13 or older,"no, only English or Spanish",no,2025-07-24_04h08.21.680,empathy_intonation_perc_control,2024.2.4,Win32,59.88023952,5beddd59e4dbf300011c1d50,68817205a84113384fffdfe3,6881e9bce34f1c8b39731d0c,,,,,,,,,,,,,1,,,,,,,,,,,,,,,,,,,,,,,,,,,,,,,,,,,,,60,matar,,,,,382.7321,384.3142,1,1,1.0442,,0,57,57,59,1,REAL,FAKE,,,,,,,,,,,,,,,,,
,,,,,,,,,5beddd59e4dbf300011c1d50,Mexican,13 or older,"no, only English or Spanish",no,2025-07-24_04h08.21.680,empathy_intonation_perc_control,2024.2.4,Win32,59.88023952,5beddd59e4dbf300011c1d50,68817205a84113384fffdfe3,6881e9bce34f1c8b39731d0c,,,,,,,,,,,,,1,,,,,,,,,,,,,,,,,,,,,,,,,,,,,,,,,,,,,48,ladrón,,,,,384.3154,385.8142,1,1,0.9542,,0,58,58,47,1,REAL,FAKE,,,,,,,,,,,,,,,,,
,,,,,,,,,5beddd59e4dbf300011c1d50,Mexican,13 or older,"no, only English or Spanish",no,2025-07-24_04h08.21.680,empathy_intonation_perc_control,2024.2.4,Win32,59.88023952,5beddd59e4dbf300011c1d50,68817205a84113384fffdfe3,6881e9bce34f1c8b39731d0c,,,,,,,,,,,,,1,,,,,,,,,,,,,,,,,,,,,,,,,,,,,,,,,,,,,68,alegre,,,,,385.8153,387.2645,1,1,0.902,,0,59,59,67,1,REAL,FAKE,,,,,,,,,,,,,,,,,
,,,,,,,,,5beddd59e4dbf300011c1d50,Mexican,13 or older,"no, only English or Spanish",no,2025-07-24_04h08.21.680,empathy_intonation_perc_control,2024.2.4,Win32,59.88023952,5beddd59e4dbf300011c1d50,68817205a84113384fffdfe3,6881e9bce34f1c8b39731d0c,,,,,,,,,,,,,0,,,,,,,,,,,,,,,,,,,,,,,,,,,,,,,,,,,,,18,arsa,,,,,387.2661,389.3976,1,0,1.596,,0,60,60,17,1,REAL,FAKE,,,,,,,,,,,,,,,,,
,,,,,,,,,5beddd59e4dbf300011c1d50,Mexican,13 or older,"no, only English or Spanish",no,2025-07-24_04h08.21.680,empathy_intonation_perc_control,2024.2.4,Win32,59.88023952,5beddd59e4dbf300011c1d50,68817205a84113384fffdfe3,6881e9bce34f1c8b39731d0c,,,,,,,,,,,,,0,,,,,,,,,,,,,,,,,,,,,,,,,,,,,,,,,,,,,53,vegada,,,,,389.3987,391.6472,0,1,1.7029,,0,61,61,52,1,REAL,FAKE,,,,,,,,,,,,,,,,,
,,,,,,,,,5beddd59e4dbf300011c1d50,Mexican,13 or older,"no, only English or Spanish",no,2025-07-24_04h08.21.680,empathy_intonation_perc_control,2024.2.4,Win32,59.88023952,5beddd59e4dbf300011c1d50,68817205a84113384fffdfe3,6881e9bce34f1c8b39731d0c,,,,,,,,,,,,,1,,,,,,,,,,,,,,,,,,,,,,,,,,,,,,,,,,,,,14,yunque,,,,,391.6481,392.8846,0,0,0.7004,,0,62,62,13,1,REAL,FAKE,,,,,,,,,,,,,,,,,
,,,,,,,,,5beddd59e4dbf300011c1d50,Mexican,13 or older,"no, only English or Spanish",no,2025-07-24_04h08.21.680,empathy_intonation_perc_control,2024.2.4,Win32,59.88023952,5beddd59e4dbf300011c1d50,68817205a84113384fffdfe3,6881e9bce34f1c8b39731d0c,,,,,,,,,,,,,1,,,,,,,,,,,,,,,,,,,,,,,,,,,,,,,,,,,,,2,pellizcar,,,,,392.8854,394.3804,0,0,0.9512,,0,63,63,1,1,REAL,FAKE,,,,,,,,,,,,,,,,,
,,,,,,,,,5beddd59e4dbf300011c1d50,Mexican,13 or older,"no, only English or Spanish",no,2025-07-24_04h08.21.680,empathy_intonation_perc_control,2024.2.4,Win32,59.88023952,5beddd59e4dbf300011c1d50,68817205a84113384fffdfe3,6881e9bce34f1c8b39731d0c,,,,,,,,,,,,,1,,,,,,,,,,,,,,,,,,,,,,,,,,,,,,,,,,,,,77,tiburón,,,,,394.3815,395.9637,0,0,1.0401,,0,64,64,76,1,REAL,FAKE,,,,,,,,,,,,,,,,,
,,,,,,,,,5beddd59e4dbf300011c1d50,Mexican,13 or older,"no, only English or Spanish",no,2025-07-24_04h08.21.680,empathy_intonation_perc_control,2024.2.4,Win32,59.88023952,5beddd59e4dbf300011c1d50,68817205a84113384fffdfe3,6881e9bce34f1c8b39731d0c,,,,,,,,,,,,,1,,,,,,,,,,,,,,,,,,,,,,,,,,,,,,,,,,,,,41,rebuscar,,,,,395.9656,397.4468,0,0,0.9452,,0,65,65,40,1,REAL,FAKE,,,,,,,,,,,,,,,,,
,,,,,,,,,5beddd59e4dbf300011c1d50,Mexican,13 or older,"no, only English or Spanish",no,2025-07-24_04h08.21.680,empathy_intonation_perc_control,2024.2.4,Win32,59.88023952,5beddd59e4dbf300011c1d50,68817205a84113384fffdfe3,6881e9bce34f1c8b39731d0c,,,,,,,,,,,,,1,,,,,,,,,,,,,,,,,,,,,,,,,,,,,,,,,,,,,40,alfombra,,,,,397.448,399.0139,0,0,1.0301,,0,66,66,39,1,REAL,FAKE,,,,,,,,,,,,,,,,,
,,,,,,,,,5beddd59e4dbf300011c1d50,Mexican,13 or older,"no, only English or Spanish",no,2025-07-24_04h08.21.680,empathy_intonation_perc_control,2024.2.4,Win32,59.88023952,5beddd59e4dbf300011c1d50,68817205a84113384fffdfe3,6881e9bce34f1c8b39731d0c,,,,,,,,,,,,,1,,,,,,,,,,,,,,,,,,,,,,,,,,,,,,,,,,,,,34,aviso,,,,,399.015,400.3637,1,1,0.8005,,0,67,67,33,1,REAL,FAKE,,,,,,,,,,,,,,,,,
,,,,,,,,,5beddd59e4dbf300011c1d50,Mexican,13 or older,"no, only English or Spanish",no,2025-07-24_04h08.21.680,empathy_intonation_perc_control,2024.2.4,Win32,59.88023952,5beddd59e4dbf300011c1d50,68817205a84113384fffdfe3,6881e9bce34f1c8b39731d0c,,,,,,,,,,,,,1,,,,,,,,,,,,,,,,,,,,,,,,,,,,,,,,,,,,,36,loro,,,,,400.3651,401.6798,1,1,0.7776,,0,68,68,35,1,REAL,FAKE,,,,,,,,,,,,,,,,,
,,,,,,,,,5beddd59e4dbf300011c1d50,Mexican,13 or older,"no, only English or Spanish",no,2025-07-24_04h08.21.680,empathy_intonation_perc_control,2024.2.4,Win32,59.88023952,5beddd59e4dbf300011c1d50,68817205a84113384fffdfe3,6881e9bce34f1c8b39731d0c,,,,,,,,,,,,,0,,,,,,,,,,,,,,,,,,,,,,,,,,,,,,,,,,,,,63,esposante,,,,,401.6808,403.0637,1,0,0.8463,,0,69,69,62,1,REAL,FAKE,,,,,,,,,,,,,,,,,
,,,,,,,,,5beddd59e4dbf300011c1d50,Mexican,13 or older,"no, only English or Spanish",no,2025-07-24_04h08.21.680,empathy_intonation_perc_control,2024.2.4,Win32,59.88023952,5beddd59e4dbf300011c1d50,68817205a84113384fffdfe3,6881e9bce34f1c8b39731d0c,,,,,,,,,,,,,1,,,,,,,,,,,,,,,,,,,,,,,,,,,,,,,,,,,,,71,polvoriento,,,,,403.0651,404.913,0,0,1.3123,,0,70,70,70,1,REAL,FAKE,,,,,,,,,,,,,,,,,
,,,,,,,,,5beddd59e4dbf300011c1d50,Mexican,13 or older,"no, only English or Spanish",no,2025-07-24_04h08.21.680,empathy_intonation_perc_control,2024.2.4,Win32,59.88023952,5beddd59e4dbf300011c1d50,68817205a84113384fffdfe3,6881e9bce34f1c8b39731d0c,,,,,,,,,,,,,1,,,,,,,,,,,,,,,,,,,,,,,,,,,,,,,,,,,,,25,bisagra,,,,,404.9142,406.663,0,0,1.2112,,0,71,71,24,1,REAL,FAKE,,,,,,,,,,,,,,,,,
,,,,,,,,,5beddd59e4dbf300011c1d50,Mexican,13 or older,"no, only English or Spanish",no,2025-07-24_04h08.21.680,empathy_intonation_perc_control,2024.2.4,Win32,59.88023952,5beddd59e4dbf300011c1d50,68817205a84113384fffdfe3,6881e9bce34f1c8b39731d0c,,,,,,,,,,,,,1,,,,,,,,,,,,,,,,,,,,,,,,,,,,,,,,,,,,,75,yacer,,,,,406.6641,408.1461,0,0,0.9413,,0,72,72,74,1,REAL,FAKE,,,,,,,,,,,,,,,,,
,,,,,,,,,5beddd59e4dbf300011c1d50,Mexican,13 or older,"no, only English or Spanish",no,2025-07-24_04h08.21.680,empathy_intonation_perc_control,2024.2.4,Win32,59.88023952,5beddd59e4dbf300011c1d50,68817205a84113384fffdfe3,6881e9bce34f1c8b39731d0c,,,,,,,,,,,,,0,,,,,,,,,,,,,,,,,,,,,,,,,,,,,,,,,,,,,21,capillo,,,,,408.1471,409.4126,1,0,0.7173,,0,73,73,20,1,REAL,FAKE,,,,,,,,,,,,,,,,,
,,,,,,,,,5beddd59e4dbf300011c1d50,Mexican,13 or older,"no, only English or Spanish",no,2025-07-24_04h08.21.680,empathy_intonation_perc_control,2024.2.4,Win32,59.88023952,5beddd59e4dbf300011c1d50,68817205a84113384fffdfe3,6881e9bce34f1c8b39731d0c,,,,,,,,,,,,,1,,,,,,,,,,,,,,,,,,,,,,,,,,,,,,,,,,,,,51,candado,,,,,409.414,410.8298,1,1,0.8714,,0,74,74,50,1,REAL,FAKE,,,,,,,,,,,,,,,,,
,,,,,,,,,5beddd59e4dbf300011c1d50,Mexican,13 or older,"no, only English or Spanish",no,2025-07-24_04h08.21.680,empathy_intonation_perc_control,2024.2.4,Win32,59.88023952,5beddd59e4dbf300011c1d50,68817205a84113384fffdfe3,6881e9bce34f1c8b39731d0c,,,,,,,,,,,,,1,,,,,,,,,,,,,,,,,,,,,,,,,,,,,,,,,,,,,78,frondoso,,,,,410.8316,412.1458,1,1,0.7757,,0,75,75,77,1,REAL,FAKE,,,,,,,,,,,,,,,,,
,,,,,,,,,5beddd59e4dbf300011c1d50,Mexican,13 or older,"no, only English or Spanish",no,2025-07-24_04h08.21.680,empathy_intonation_perc_control,2024.2.4,Win32,59.88023952,5beddd59e4dbf300011c1d50,68817205a84113384fffdfe3,6881e9bce34f1c8b39731d0c,,,,,,,,,,,,,0,,,,,,,,,,,,,,,,,,,,,,,,,,,,,,,,,,,,,79,tropaje,,,,,412.1475,413.4791,1,0,0.7947,,0,76,76,78,1,REAL,FAKE,,,,,,,,,,,,,,,,,
,,,,,,,,,5beddd59e4dbf300011c1d50,Mexican,13 or older,"no, only English or Spanish",no,2025-07-24_04h08.21.680,empathy_intonation_perc_control,2024.2.4,Win32,59.88023952,5beddd59e4dbf300011c1d50,68817205a84113384fffdfe3,6881e9bce34f1c8b39731d0c,,,,,,,,,,,,,1,,,,,,,,,,,,,,,,,,,,,,,,,,,,,,,,,,,,,3,pulmones,,,,,413.4801,414.9959,1,1,0.969,,0,77,77,2,1,REAL,FAKE,,,,,,,,,,,,,,,,,
,,,,,,,,,5beddd59e4dbf300011c1d50,Mexican,13 or older,"no, only English or Spanish",no,2025-07-24_04h08.21.680,empathy_intonation_perc_control,2024.2.4,Win32,59.88023952,5beddd59e4dbf300011c1d50,68817205a84113384fffdfe3,6881e9bce34f1c8b39731d0c,,,,,,,,,,,,,1,,,,,,,,,,,,,,,,,,,,,,,,,,,,,,,,,,,,,56,musgo,,,,,414.9978,416.3462,0,0,0.8006,,0,78,78,55,1,REAL,FAKE,,,,,,,,,,,,,,,,,
,,,,,,,,,5beddd59e4dbf300011c1d50,Mexican,13 or older,"no, only English or Spanish",no,2025-07-24_04h08.21.680,empathy_intonation_perc_control,2024.2.4,Win32,59.88023952,5beddd59e4dbf300011c1d50,68817205a84113384fffdfe3,6881e9bce34f1c8b39731d0c,,,,,,,,,,,,,0,,,,,,,,,,,,,,,,,,,,,,,,,,,,,,,,,,,,,35,rompido,,,,,416.348,417.6289,1,0,0.739,,0,79,79,34,1,REAL,FAKE,,,,,,,,,,,,,,,,,
,,,,,,,,,5beddd59e4dbf300011c1d50,Mexican,13 or older,"no, only English or Spanish",no,2025-07-24_04h08.21.680,empathy_intonation_perc_control,2024.2.4,Win32,59.88023952,5beddd59e4dbf300011c1d50,68817205a84113384fffdfe3,6881e9bce34f1c8b39731d0c,,,,,,,,,,,,,1,,,,,,,,,,,,,,,,,,,,,,,,,,,,,,,,,,,,,57,tacaño,,,,,417.6311,418.9788,1,1,0.8072,,0,80,80,56,1,REAL,FAKE,,,,,,,,,,,,,,,,,
,,,,,,,,,5beddd59e4dbf300011c1d50,Mexican,13 or older,"no, only English or Spanish",no,2025-07-24_04h08.21.680,empathy_intonation_perc_control,2024.2.4,Win32,59.88023952,5beddd59e4dbf300011c1d50,68817205a84113384fffdfe3,6881e9bce34f1c8b39731d0c,,,,,,,,,,,,,0,,,,,,,,,,,,,,,,,,,,,,,,,,,,,,,,,,,,,58,plaudir,,,,,418.98,420.4314,0,1,0.9155,,0,81,81,57,1,REAL,FAKE,,,,,,,,,,,,,,,,,
,,,,,,,,,5beddd59e4dbf300011c1d50,Mexican,13 or older,"no, only English or Spanish",no,2025-07-24_04h08.21.680,empathy_intonation_perc_control,2024.2.4,Win32,59.88023952,5beddd59e4dbf300011c1d50,68817205a84113384fffdfe3,6881e9bce34f1c8b39731d0c,,,,,,,,,,,,,0,,,,,,,,,,,,,,,,,,,,,,,,,,,,,,,,,,,,,8,cadeña,,,,,420.4321,421.6955,1,0,0.7277,,0,82,82,7,1,REAL,FAKE,,,,,,,,,,,,,,,,,
,,,,,,,,,5beddd59e4dbf300011c1d50,Mexican,13 or older,"no, only English or Spanish",no,2025-07-24_04h08.21.680,empathy_intonation_perc_control,2024.2.4,Win32,59.88023952,5beddd59e4dbf300011c1d50,68817205a84113384fffdfe3,6881e9bce34f1c8b39731d0c,,,,,,,,,,,,,1,,,,,,,,,,,,,,,,,,,,,,,,,,,,,,,,,,,,,9,hacha,,,,,421.6971,423.0955,1,1,0.8529,,0,83,83,8,1,REAL,FAKE,,,,,,,,,,,,,,,,,
,,,,,,,,,5beddd59e4dbf300011c1d50,Mexican,13 or older,"no, only English or Spanish",no,2025-07-24_04h08.21.680,empathy_intonation_perc_control,2024.2.4,Win32,59.88023952,5beddd59e4dbf300011c1d50,68817205a84113384fffdfe3,6881e9bce34f1c8b39731d0c,,,,,,,,,,,,,1,,,,,,,,,,,,,,,,,,,,,,,,,,,,,,,,,,,,,7,pésimo,,,,,423.0966,424.3951,1,1,0.7503,,0,84,84,6,1,REAL,FAKE,,,,,,,,,,,,,,,,,
,,,,,,,,,5beddd59e4dbf300011c1d50,Mexican,13 or older,"no, only English or Spanish",no,2025-07-24_04h08.21.680,empathy_intonation_perc_control,2024.2.4,Win32,59.88023952,5beddd59e4dbf300011c1d50,68817205a84113384fffdfe3,6881e9bce34f1c8b39731d0c,,,,,,,,,,,,,1,,,,,,,,,,,,,,,,,,,,,,,,,,,,,,,,,,,,,91,click the 1 key.,,,,,424.3974,426.1451,1,1,1.204,,0,85,85,90,1,REAL,FAKE,,,,,,,,,,,,,,,,,
,,,,,,,,,5beddd59e4dbf300011c1d50,Mexican,13 or older,"no, only English or Spanish",no,2025-07-24_04h08.21.680,empathy_intonation_perc_control,2024.2.4,Win32,59.88023952,5beddd59e4dbf300011c1d50,68817205a84113384fffdfe3,6881e9bce34f1c8b39731d0c,,,,,,,,,,,,,0,,,,,,,,,,,,,,,,,,,,,,,,,,,,,,,,,,,,,29,decar,,,,,426.1471,427.8783,0,1,1.1956,,0,86,86,28,1,REAL,FAKE,,,,,,,,,,,,,,,,,
,,,,,,,,,5beddd59e4dbf300011c1d50,Mexican,13 or older,"no, only English or Spanish",no,2025-07-24_04h08.21.680,empathy_intonation_perc_control,2024.2.4,Win32,59.88023952,5beddd59e4dbf300011c1d50,68817205a84113384fffdfe3,6881e9bce34f1c8b39731d0c,,,,,,,,,,,,,0,,,,,,,,,,,,,,,,,,,,,,,,,,,,,,,,,,,,,30,alardio,,,,,427.8792,429.1653,0,1,0.7499,,0,87,87,29,1,REAL,FAKE,,,,,,,,,,,,,,,,,
,,,,,,,,,5beddd59e4dbf300011c1d50,Mexican,13 or older,"no, only English or Spanish",no,2025-07-24_04h08.21.680,empathy_intonation_perc_control,2024.2.4,Win32,59.88023952,5beddd59e4dbf300011c1d50,68817205a84113384fffdfe3,6881e9bce34f1c8b39731d0c,,,,,,,,,,,,,1,,,,,,,,,,,,,,,,,,,,,,,,,,,,,,,,,,,,,43,canela,,,,,429.1661,430.5784,1,1,0.8671,,0,88,88,42,1,REAL,FAKE,,,,,,,,,,,,,,,,,
,,,,,,,,,5beddd59e4dbf300011c1d50,Mexican,13 or older,"no, only English or Spanish",no,2025-07-24_04h08.21.680,empathy_intonation_perc_control,2024.2.4,Win32,59.88023952,5beddd59e4dbf300011c1d50,68817205a84113384fffdfe3,6881e9bce34f1c8b39731d0c,,,,,,,,,,,,,1,,,,,,,,,,,,,,,,,,,,,,,,,,,,,,,,,,,,,89,prisa,,,,,430.5798,431.9282,1,1,0.8021,,0,89,89,88,1,REAL,FAKE,,,,,,,,,,,,,,,,,
,,,,,,,,,5beddd59e4dbf300011c1d50,Mexican,13 or older,"no, only English or Spanish",no,2025-07-24_04h08.21.680,empathy_intonation_perc_control,2024.2.4,Win32,59.88023952,5beddd59e4dbf300011c1d50,68817205a84113384fffdfe3,6881e9bce34f1c8b39731d0c,,,,,,,,,,,,,1,,,,,,,,,,,,,,,,,,,,,,,,,,,,,,,,,,,,,11,cenefa,,,,,431.9295,433.4945,1,1,1.0201,,0,90,90,10,1,REAL,FAKE,,,,,,,,,,,,,,,,,
,,,,,,,,,5beddd59e4dbf300011c1d50,Mexican,13 or older,"no, only English or Spanish",no,2025-07-24_04h08.21.680,empathy_intonation_perc_control,2024.2.4,Win32,59.88023952,5beddd59e4dbf300011c1d50,68817205a84113384fffdfe3,6881e9bce34f1c8b39731d0c,,,,,,,,,,,,,0,,,,,,,,,,,,,,,,,,,,,,,,,,,,,,,,,,,,,70,temblo,,,,,433.4955,435.1445,1,0,1.1019,,0,91,91,69,1,REAL,FAKE,,,,,,,,,,,,,,,,,
,,,,,,,,,5beddd59e4dbf300011c1d50,Mexican,13 or older,"no, only English or Spanish",no,2025-07-24_04h08.21.680,empathy_intonation_perc_control,2024.2.4,Win32,59.88023952,5beddd59e4dbf300011c1d50,68817205a84113384fffdfe3,6881e9bce34f1c8b39731d0c,,,,,,,,,,,,,,,,,,,,,,,,,,,,,,,,,,,,,,,,,,,,,,,,,,,,,,,,,,,,,,,,,,,,,435.1449,442.8943,,,,,,,,,,,,,,,
,,,,,,,,,5beddd59e4dbf300011c1d50,Mexican,13 or older,"no, only English or Spanish",no,2025-07-24_04h08.21.680,empathy_intonation_perc_control,2024.2.4,Win32,59.88023952,5beddd59e4dbf300011c1d50,68817205a84113384fffdfe3,6881e9bce34f1c8b39731d0c,,,,,,,,,,,,,,,,,,,,,,,,,,,1,,,,,,,,,,,,,,,,,,,,,,,,,,,,,,,,,,,,,,,,,,,,442.9036,449.4938,strongly agree,0,0,0,0,1,I can easily tell if someone else wants to enter a conversation.,1,0,1,0,,
,,,,,,,,,5beddd59e4dbf300011c1d50,Mexican,13 or older,"no, only English or Spanish",no,2025-07-24_04h08.21.680,empathy_intonation_perc_control,2024.2.4,Win32,59.88023952,5beddd59e4dbf300011c1d50,68817205a84113384fffdfe3,6881e9bce34f1c8b39731d0c,,,,,,,,,,,,,,,,,,,,,,,,,,,2,,,,,,,,,,,,,,,,,,,,,,,,,,,,,,,,,,,,,,,,,,,,449.4951,455.2479,slightly agree,0,1,1,1,1,I prefer animals to humans.,0,1,0,0,,
,,,,,,,,,5beddd59e4dbf300011c1d50,Mexican,13 or older,"no, only English or Spanish",no,2025-07-24_04h08.21.680,empathy_intonation_perc_control,2024.2.4,Win32,59.88023952,5beddd59e4dbf300011c1d50,68817205a84113384fffdfe3,6881e9bce34f1c8b39731d0c,,,,,,,,,,,,,,,,,,,,,,,,,,,3,,,,,,,,,,,,,,,,,,,,,,,,,,,,,,,,,,,,,,,,,,,,455.2493,462.6099,slightly disagree,0,2,2,2,1,I try to keep up with the current trends and fashions.,0,1,0,0,,
,,,,,,,,,5beddd59e4dbf300011c1d50,Mexican,13 or older,"no, only English or Spanish",no,2025-07-24_04h08.21.680,empathy_intonation_perc_control,2024.2.4,Win32,59.88023952,5beddd59e4dbf300011c1d50,68817205a84113384fffdfe3,6881e9bce34f1c8b39731d0c,,,,,,,,,,,,,,,,,,,,,,,,,,,4,,,,,,,,,,,,,,,,,,,,,,,,,,,,,,,,,,,,,,,,,,,,462.6124,468.9264,slightly disagree,0,3,3,3,1,"I find it difficult to explain to others things that I understand easily,   when they don't understand it first time.",1,0,0,1,,
,,,,,,,,,5beddd59e4dbf300011c1d50,Mexican,13 or older,"no, only English or Spanish",no,2025-07-24_04h08.21.680,empathy_intonation_perc_control,2024.2.4,Win32,59.88023952,5beddd59e4dbf300011c1d50,68817205a84113384fffdfe3,6881e9bce34f1c8b39731d0c,,,,,,,,,,,,,,,,,,,,,,,,,,,5,,,,,,,,,,,,,,,,,,,,,,,,,,,,,,,,,,,,,,,,,,,,468.9279,471.1089,slightly agree,0,4,4,4,1,I dream most nights.,0,1,0,0,,
,,,,,,,,,5beddd59e4dbf300011c1d50,Mexican,13 or older,"no, only English or Spanish",no,2025-07-24_04h08.21.680,empathy_intonation_perc_control,2024.2.4,Win32,59.88023952,5beddd59e4dbf300011c1d50,68817205a84113384fffdfe3,6881e9bce34f1c8b39731d0c,,,,,,,,,,,,,,,,,,,,,,,,,,,6,,,,,,,,,,,,,,,,,,,,,,,,,,,,,,,,,,,,,,,,,,,,471.1111,479.7445,slightly disagree,0,5,5,5,1,I really enjoy caring for other people.,1,0,1,0,,
,,,,,,,,,5beddd59e4dbf300011c1d50,Mexican,13 or older,"no, only English or Spanish",no,2025-07-24_04h08.21.680,empathy_intonation_perc_control,2024.2.4,Win32,59.88023952,5beddd59e4dbf300011c1d50,68817205a84113384fffdfe3,6881e9bce34f1c8b39731d0c,,,,,,,,,,,,,,,,,,,,,,,,,,,7,,,,,,,,,,,,,,,,,,,,,,,,,,,,,,,,,,,,,,,,,,,,479.7457,482.2254,strongly agree,0,6,6,6,1,I try to solve my own problems rather than discussing them with others.,0,1,0,0,,
,,,,,,,,,5beddd59e4dbf300011c1d50,Mexican,13 or older,"no, only English or Spanish",no,2025-07-24_04h08.21.680,empathy_intonation_perc_control,2024.2.4,Win32,59.88023952,5beddd59e4dbf300011c1d50,68817205a84113384fffdfe3,6881e9bce34f1c8b39731d0c,,,,,,,,,,,,,,,,,,,,,,,,,,,8,,,,,,,,,,,,,,,,,,,,,,,,,,,,,,,,,,,,,,,,,,,,482.2272,484.8443,strongly disagree,0,7,7,7,1,I find it hard to know what to do in a social situation.,1,0,0,1,,
,,,,,,,,,5beddd59e4dbf300011c1d50,Mexican,13 or older,"no, only English or Spanish",no,2025-07-24_04h08.21.680,empathy_intonation_perc_control,2024.2.4,Win32,59.88023952,5beddd59e4dbf300011c1d50,68817205a84113384fffdfe3,6881e9bce34f1c8b39731d0c,,,,,,,,,,,,,,,,,,,,,,,,,,,9,,,,,,,,,,,,,,,,,,,,,,,,,,,,,,,,,,,,,,,,,,,,484.8454,487.6082,strongly disagree,0,8,8,8,1,I am at my best first thing in the morning.,0,1,0,0,,
,,,,,,,,,5beddd59e4dbf300011c1d50,Mexican,13 or older,"no, only English or Spanish",no,2025-07-24_04h08.21.680,empathy_intonation_perc_control,2024.2.4,Win32,59.88023952,5beddd59e4dbf300011c1d50,68817205a84113384fffdfe3,6881e9bce34f1c8b39731d0c,,,,,,,,,,,,,,,,,,,,,,,,,,,10,,,,,,,,,,,,,,,,,,,,,,,,,,,,,,,,,,,,,,,,,,,,487.6105,491.1743,strongly disagree,0,9,9,9,1,People often tell me that I went too far in driving my point home in a discussion.,1,0,0,1,,
,,,,,,,,,5beddd59e4dbf300011c1d50,Mexican,13 or older,"no, only English or Spanish",no,2025-07-24_04h08.21.680,empathy_intonation_perc_control,2024.2.4,Win32,59.88023952,5beddd59e4dbf300011c1d50,68817205a84113384fffdfe3,6881e9bce34f1c8b39731d0c,,,,,,,,,,,,,,,,,,,,,,,,,,,11,,,,,,,,,,,,,,,,,,,,,,,,,,,,,,,,,,,,,,,,,,,,491.1763,494.2743,strongly disagree,0,10,10,10,1,It doesn't bother me too much if I am late meeting a friend.,1,0,0,1,,
,,,,,,,,,5beddd59e4dbf300011c1d50,Mexican,13 or older,"no, only English or Spanish",no,2025-07-24_04h08.21.680,empathy_intonation_perc_control,2024.2.4,Win32,59.88023952,5beddd59e4dbf300011c1d50,68817205a84113384fffdfe3,6881e9bce34f1c8b39731d0c,,,,,,,,,,,,,,,,,,,,,,,,,,,12,,,,,,,,,,,,,,,,,,,,,,,,,,,,,,,,,,,,,,,,,,,,494.2768,497.2073,strongly disagree,0,11,11,11,1,"Friendships and relationships are just too difficult, so I tend not to 
  bother with them.",1,0,0,1,,
,,,,,,,,,5beddd59e4dbf300011c1d50,Mexican,13 or older,"no, only English or Spanish",no,2025-07-24_04h08.21.680,empathy_intonation_perc_control,2024.2.4,Win32,59.88023952,5beddd59e4dbf300011c1d50,68817205a84113384fffdfe3,6881e9bce34f1c8b39731d0c,,,,,,,,,,,,,,,,,,,,,,,,,,,13,,,,,,,,,,,,,,,,,,,,,,,,,,,,,,,,,,,,,,,,,,,,497.2095,504.107,slightly disagree,0,12,12,12,1,"I would never break a law, no matter how minor.",0,1,0,0,,
,,,,,,,,,5beddd59e4dbf300011c1d50,Mexican,13 or older,"no, only English or Spanish",no,2025-07-24_04h08.21.680,empathy_intonation_perc_control,2024.2.4,Win32,59.88023952,5beddd59e4dbf300011c1d50,68817205a84113384fffdfe3,6881e9bce34f1c8b39731d0c,,,,,,,,,,,,,,,,,,,,,,,,,,,14,,,,,,,,,,,,,,,,,,,,,,,,,,,,,,,,,,,,,,,,,,,,504.1089,507.1567,strongly disagree,0,13,13,13,1,I often find it difficult to judge if something is rude or polite.,1,0,0,1,,
,,,,,,,,,5beddd59e4dbf300011c1d50,Mexican,13 or older,"no, only English or Spanish",no,2025-07-24_04h08.21.680,empathy_intonation_perc_control,2024.2.4,Win32,59.88023952,5beddd59e4dbf300011c1d50,68817205a84113384fffdfe3,6881e9bce34f1c8b39731d0c,,,,,,,,,,,,,,,,,,,,,,,,,,,15,,,,,,,,,,,,,,,,,,,,,,,,,,,,,,,,,,,,,,,,,,,,507.1587,511.0111,slightly disagree,0,14,14,14,1,"In a conversation, I tend to focus on my own thoughts rather than on what 
  my listener might be thinking.",1,0,0,1,,
,,,,,,,,,5beddd59e4dbf300011c1d50,Mexican,13 or older,"no, only English or Spanish",no,2025-07-24_04h08.21.680,empathy_intonation_perc_control,2024.2.4,Win32,59.88023952,5beddd59e4dbf300011c1d50,68817205a84113384fffdfe3,6881e9bce34f1c8b39731d0c,,,,,,,,,,,,,,,,,,,,,,,,,,,16,,,,,,,,,,,,,,,,,,,,,,,,,,,,,,,,,,,,,,,,,,,,511.012,514.573,strongly disagree,0,15,15,15,1,I prefer practical jokes to verbal humor.,0,1,0,0,,
,,,,,,,,,5beddd59e4dbf300011c1d50,Mexican,13 or older,"no, only English or Spanish",no,2025-07-24_04h08.21.680,empathy_intonation_perc_control,2024.2.4,Win32,59.88023952,5beddd59e4dbf300011c1d50,68817205a84113384fffdfe3,6881e9bce34f1c8b39731d0c,,,,,,,,,,,,,,,,,,,,,,,,,,,17,,,,,,,,,,,,,,,,,,,,,,,,,,,,,,,,,,,,,,,,,,,,514.5749,517.9894,slightly agree,0,16,16,16,1,I live life for today rather than the future.,0,1,0,0,,
,,,,,,,,,5beddd59e4dbf300011c1d50,Mexican,13 or older,"no, only English or Spanish",no,2025-07-24_04h08.21.680,empathy_intonation_perc_control,2024.2.4,Win32,59.88023952,5beddd59e4dbf300011c1d50,68817205a84113384fffdfe3,6881e9bce34f1c8b39731d0c,,,,,,,,,,,,,,,,,,,,,,,,,,,18,,,,,,,,,,,,,,,,,,,,,,,,,,,,,,,,,,,,,,,,,,,,517.9916,520.8559,strongly disagree,0,17,17,17,1,"When I was a child, I enjoyed cutting up worms to see what would happen.",1,0,0,1,,
,,,,,,,,,5beddd59e4dbf300011c1d50,Mexican,13 or older,"no, only English or Spanish",no,2025-07-24_04h08.21.680,empathy_intonation_perc_control,2024.2.4,Win32,59.88023952,5beddd59e4dbf300011c1d50,68817205a84113384fffdfe3,6881e9bce34f1c8b39731d0c,,,,,,,,,,,,,,,,,,,,,,,,,,,19,,,,,,,,,,,,,,,,,,,,,,,,,,,,,,,,,,,,,,,,,,,,520.8582,528.0059,slightly agree,0,18,18,18,1,I can pick up quickly if someone says one thing but means another.,1,0,1,0,,
,,,,,,,,,5beddd59e4dbf300011c1d50,Mexican,13 or older,"no, only English or Spanish",no,2025-07-24_04h08.21.680,empathy_intonation_perc_control,2024.2.4,Win32,59.88023952,5beddd59e4dbf300011c1d50,68817205a84113384fffdfe3,6881e9bce34f1c8b39731d0c,,,,,,,,,,,,,,,,,,,,,,,,,,,20,,,,,,,,,,,,,,,,,,,,,,,,,,,,,,,,,,,,,,,,,,,,528.0084,530.4054,strongly agree,0,19,19,19,1,I tend to have very strong opinions about morality.,0,1,0,0,,
,,,,,,,,,5beddd59e4dbf300011c1d50,Mexican,13 or older,"no, only English or Spanish",no,2025-07-24_04h08.21.680,empathy_intonation_perc_control,2024.2.4,Win32,59.88023952,5beddd59e4dbf300011c1d50,68817205a84113384fffdfe3,6881e9bce34f1c8b39731d0c,,,,,,,,,,,,,,,,,,,,,,,,,,,21,,,,,,,,,,,,,,,,,,,,,,,,,,,,,,,,,,,,,,,,,,,,530.4076,533.3721,strongly disagree,0,20,20,20,1,It is hard for me to see why some things upset people so much.,1,0,0,1,,
,,,,,,,,,5beddd59e4dbf300011c1d50,Mexican,13 or older,"no, only English or Spanish",no,2025-07-24_04h08.21.680,empathy_intonation_perc_control,2024.2.4,Win32,59.88023952,5beddd59e4dbf300011c1d50,68817205a84113384fffdfe3,6881e9bce34f1c8b39731d0c,,,,,,,,,,,,,,,,,,,,,,,,,,,22,,,,,,,,,,,,,,,,,,,,,,,,,,,,,,,,,,,,,,,,,,,,533.3743,535.9928,strongly agree,0,21,21,21,1,I find it easy to put myself in somebody else's shoes.,1,0,1,0,,
,,,,,,,,,5beddd59e4dbf300011c1d50,Mexican,13 or older,"no, only English or Spanish",no,2025-07-24_04h08.21.680,empathy_intonation_perc_control,2024.2.4,Win32,59.88023952,5beddd59e4dbf300011c1d50,68817205a84113384fffdfe3,6881e9bce34f1c8b39731d0c,,,,,,,,,,,,,,,,,,,,,,,,,,,23,,,,,,,,,,,,,,,,,,,,,,,,,,,,,,,,,,,,,,,,,,,,535.9939,540.2053,slightly disagree,0,22,22,22,1,I think that good manners are the most important thing a parent can teach their child.,0,1,0,0,,
,,,,,,,,,5beddd59e4dbf300011c1d50,Mexican,13 or older,"no, only English or Spanish",no,2025-07-24_04h08.21.680,empathy_intonation_perc_control,2024.2.4,Win32,59.88023952,5beddd59e4dbf300011c1d50,68817205a84113384fffdfe3,6881e9bce34f1c8b39731d0c,,,,,,,,,,,,,,,,,,,,,,,,,,,24,,,,,,,,,,,,,,,,,,,,,,,,,,,,,,,,,,,,,,,,,,,,540.2075,542.5715,slightly disagree,0,23,23,23,1,I like to do things on the spur of the moment.,0,1,0,0,,
,,,,,,,,,5beddd59e4dbf300011c1d50,Mexican,13 or older,"no, only English or Spanish",no,2025-07-24_04h08.21.680,empathy_intonation_perc_control,2024.2.4,Win32,59.88023952,5beddd59e4dbf300011c1d50,68817205a84113384fffdfe3,6881e9bce34f1c8b39731d0c,,,,,,,,,,,,,,,,,,,,,,,,,,,25,,,,,,,,,,,,,,,,,,,,,,,,,,,,,,,,,,,,,,,,,,,,542.5741,546.171,slightly disagree,0,24,24,24,1,I am good at predicting how someone will feel.,1,0,1,0,,
