instructions_2afc.started,instructions_2afc.stopped,instructions_2afc_loop.thisRepN,instructions_2afc_loop.thisTrialN,instructions_2afc_loop.thisN,instructions_2afc_loop.thisIndex,instructions_2afc_loop.ran,instructions_text,continue_text,participant_id,"What variety of Spanish are you most familiar with? (e.g., Peruvian, Spanish, Mexican)",At what age did you begin learning Spanish?,Are you proficient in any languages other than English/Spanish?,"Are you familiar with Caribbean (e.g., Caribbean, Puerto Rican) or Galician Spanish?",date,expName,psychopyVersion,OS,frameRate,id,study_id,session,practice_2afc.started,practice_2afc.stopped,key_resp_2afc_practice.keys,key_resp_2afc_practice.corr,key_resp_2afc_practice.rt,key_resp_2afc_practice.duration,trials_2afc_practice_loop.thisRepN,trials_2afc_practice_loop.thisTrialN,trials_2afc_practice_loop.thisN,trials_2afc_practice_loop.thisIndex,trials_2afc_practice_loop.ran,path,correct_response,check_2afc.started,check_2afc.stopped,trial_2afc.started,trial_2afc.stopped,key_resp_2afc_trial.keys,key_resp_2afc_trial.corr,key_resp_2afc_trial.rt,key_resp_2afc_trial.duration,trials_2afc_loop.thisRepN,trials_2afc_loop.thisTrialN,trials_2afc_loop.thisN,trials_2afc_loop.thisIndex,trials_2afc_loop.ran,item_num,target,variety,instructions_lextale.started,instructions_lextale.stopped,instructions_lextale_loop.thisRepN,instructions_lextale_loop.thisTrialN,instructions_lextale_loop.thisN,instructions_lextale_loop.thisIndex,instructions_lextale_loop.ran,practice_lextale.started,practice_lextale.stopped,key_resp_lextale_practice.keys,key_resp_lextale_practice.corr,key_resp_lextale_practice.rt,key_resp_lextale_practice.duration,practice_feedback_lextale.started,practice_feedback_lextale.stopped,trials_lextale_practice_loop.thisRepN,trials_lextale_practice_loop.thisTrialN,trials_lextale_practice_loop.thisN,trials_lextale_practice_loop.thisIndex,trials_lextale_practice_loop.ran,stim,word,prac_button_real,prac_button_false,check_lextale.started,check_lextale.stopped,trial_lextale.started,trial_lextale.stopped,key_resp_lextale_trial.keys,key_resp_lextale_trial.corr,key_resp_lextale_trial.rt,key_resp_lextale_trial.duration,trials_lextale_loop.thisRepN,trials_lextale_loop.thisTrialN,trials_lextale_loop.thisN,trials_lextale_loop.thisIndex,trials_lextale_loop.ran,button_real,button_false,instructions_eq.started,instructions_eq.stopped,trial_eq.started,trial_eq.stopped,slider_eq_trial.response,trials_eq_loop.thisRepN,trials_eq_loop.thisTrialN,trials_eq_loop.thisN,trials_eq_loop.thisIndex,trials_eq_loop.ran,item,is_test_item,is_distractor,is_agree_score,is_disagree_score,end_exp.started,end_exp.stopped
0.0127,4.6923,0,0,0,0,1,"In the following task you are going to hear a series of utterances. 

  You will decide if the utterances sound like questions or not using your keyboard.", (press the spacebar to continue),5bf289cc17a7de0001cf52f0,Spanish,younger than 13,"yes, I am fluent in another language",no,2025-07-24_01h49.51.091,empathy_intonation_perc_control,2024.2.4,Win32,142.8571429,5bf289cc17a7de0001cf52f0,68817205a84113384fffdfe3,6881c9630abe584b8f24da04,,,,,,,,,,,,,,,,,,,,,,,,,,,,,,,,,,,,,,,,,,,,,,,,,,,,,,,,,,,,,,,,,,,,,,,,,,,,,,,,,,,,,
4.6942,28.8459,0,1,1,1,1,"If you believe the utterance is a question, type '1' (for 'yes') and if you do not 
  believe it is a question type '0' (for 'no').

  Let's practice a bit...", (press the spacebar to continue),5bf289cc17a7de0001cf52f0,Spanish,younger than 13,"yes, I am fluent in another language",no,2025-07-24_01h49.51.091,empathy_intonation_perc_control,2024.2.4,Win32,142.8571429,5bf289cc17a7de0001cf52f0,68817205a84113384fffdfe3,6881c9630abe584b8f24da04,,,,,,,,,,,,,,,,,,,,,,,,,,,,,,,,,,,,,,,,,,,,,,,,,,,,,,,,,,,,,,,,,,,,,,,,,,,,,,,,,,,,,
,,,,,,,,,5bf289cc17a7de0001cf52f0,Spanish,younger than 13,"yes, I am fluent in another language",no,2025-07-24_01h49.51.091,empathy_intonation_perc_control,2024.2.4,Win32,142.8571429,5bf289cc17a7de0001cf52f0,68817205a84113384fffdfe3,6881c9630abe584b8f24da04,28.8529,33.6449,0,1,4.2843,,0,0,0,7,1,./stim/wavs/puertorican_statement_filler_La-nina-pinta-con-su-amiga.wav,0,,,,,,,,,,,,,,,,,,,,,,,,,,,,,,,,,,,,,,,,,,,,,,,,,,,,,,,,,,,,,,,,,,,,,,,,
,,,,,,,,,5bf289cc17a7de0001cf52f0,Spanish,younger than 13,"yes, I am fluent in another language",no,2025-07-24_01h49.51.091,empathy_intonation_perc_control,2024.2.4,Win32,142.8571429,5bf289cc17a7de0001cf52f0,68817205a84113384fffdfe3,6881c9630abe584b8f24da04,33.6458,36.6518,1,0,2.4989,,0,1,1,6,1,./stim/wavs/peruvian_statement_filler_El-nino-habla-con-su-madre.wav,0,,,,,,,,,,,,,,,,,,,,,,,,,,,,,,,,,,,,,,,,,,,,,,,,,,,,,,,,,,,,,,,,,,,,,,,,
,,,,,,,,,5bf289cc17a7de0001cf52f0,Spanish,younger than 13,"yes, I am fluent in another language",no,2025-07-24_01h49.51.091,empathy_intonation_perc_control,2024.2.4,Win32,142.8571429,5bf289cc17a7de0001cf52f0,68817205a84113384fffdfe3,6881c9630abe584b8f24da04,36.6522,41.2492,1,1,4.0875,,0,2,2,3,1,./stim/wavs/mexican_question_filler_Felipe-no-tiene-contrasena.wav,1,,,,,,,,,,,,,,,,,,,,,,,,,,,,,,,,,,,,,,,,,,,,,,,,,,,,,,,,,,,,,,,,,,,,,,,,
,,,,,,,,,5bf289cc17a7de0001cf52f0,Spanish,younger than 13,"yes, I am fluent in another language",no,2025-07-24_01h49.51.091,empathy_intonation_perc_control,2024.2.4,Win32,142.8571429,5bf289cc17a7de0001cf52f0,68817205a84113384fffdfe3,6881c9630abe584b8f24da04,41.2495,44.673,1,1,2.9099,,0,3,3,1,1,./stim/wavs/argentine_question_filler_Mi-vecino-habla-mucho.wav,1,,,,,,,,,,,,,,,,,,,,,,,,,,,,,,,,,,,,,,,,,,,,,,,,,,,,,,,,,,,,,,,,,,,,,,,,
,,,,,,,,,5bf289cc17a7de0001cf52f0,Spanish,younger than 13,"yes, I am fluent in another language",no,2025-07-24_01h49.51.091,empathy_intonation_perc_control,2024.2.4,Win32,142.8571429,5bf289cc17a7de0001cf52f0,68817205a84113384fffdfe3,6881c9630abe584b8f24da04,44.6735,47.9925,0,0,2.8106,,0,4,4,0,1,./stim/wavs/castilian_question_filler_Mi-esposo-conoce-al-chico.wav,1,,,,,,,,,,,,,,,,,,,,,,,,,,,,,,,,,,,,,,,,,,,,,,,,,,,,,,,,,,,,,,,,,,,,,,,,
,,,,,,,,,5bf289cc17a7de0001cf52f0,Spanish,younger than 13,"yes, I am fluent in another language",no,2025-07-24_01h49.51.091,empathy_intonation_perc_control,2024.2.4,Win32,142.8571429,5bf289cc17a7de0001cf52f0,68817205a84113384fffdfe3,6881c9630abe584b8f24da04,47.993,52.5344,0,1,4.0285,,0,5,5,4,1,./stim/wavs/cuban_statement_filler_Cocinabas-por-la-noche.wav,0,,,,,,,,,,,,,,,,,,,,,,,,,,,,,,,,,,,,,,,,,,,,,,,,,,,,,,,,,,,,,,,,,,,,,,,,
,,,,,,,,,5bf289cc17a7de0001cf52f0,Spanish,younger than 13,"yes, I am fluent in another language",no,2025-07-24_01h49.51.091,empathy_intonation_perc_control,2024.2.4,Win32,142.8571429,5bf289cc17a7de0001cf52f0,68817205a84113384fffdfe3,6881c9630abe584b8f24da04,52.535,55.1109,0,1,2.0631,,0,6,6,5,1,./stim/wavs/andalusian_statement_filler_Alberto-nunca-se-afeita.wav,0,,,,,,,,,,,,,,,,,,,,,,,,,,,,,,,,,,,,,,,,,,,,,,,,,,,,,,,,,,,,,,,,,,,,,,,,
,,,,,,,,,5bf289cc17a7de0001cf52f0,Spanish,younger than 13,"yes, I am fluent in another language",no,2025-07-24_01h49.51.091,empathy_intonation_perc_control,2024.2.4,Win32,142.8571429,5bf289cc17a7de0001cf52f0,68817205a84113384fffdfe3,6881c9630abe584b8f24da04,55.1114,61.2084,1,1,5.5844,,0,7,7,2,1,./stim/wavs/chilean_question_filler_Mi-padre-cantaba-bien.wav,1,,,,,,,,,,,,,,,,,,,,,,,,,,,,,,,,,,,,,,,,,,,,,,,,,,,,,,,,,,,,,,,,,,,,,,,,
,,,,,,,,,5bf289cc17a7de0001cf52f0,Spanish,younger than 13,"yes, I am fluent in another language",no,2025-07-24_01h49.51.091,empathy_intonation_perc_control,2024.2.4,Win32,142.8571429,5bf289cc17a7de0001cf52f0,68817205a84113384fffdfe3,6881c9630abe584b8f24da04,,,,,,,,,,,,,,61.2087,63.2571,,,,,,,,,,,,,,,,,,,,,,,,,,,,,,,,,,,,,,,,,,,,,,,,,,,,,,,,,,,,,,,,,,,,,,
,,,,,,,,,5bf289cc17a7de0001cf52f0,Spanish,younger than 13,"yes, I am fluent in another language",no,2025-07-24_01h49.51.091,empathy_intonation_perc_control,2024.2.4,Win32,142.8571429,5bf289cc17a7de0001cf52f0,68817205a84113384fffdfe3,6881c9630abe584b8f24da04,,,,,,,,,,,,./stim/wavs/castilian_match_interrogative-total-yn_Maria-bebe-el-vino.wav,1,,,63.2695,69.3824,1,1,5.6067,,0,0,0,3,1,4,0,castilian,,,,,,,,,,,,,,,,,,,,,,,,,,,,,,,,,,,,,,,,,,,,,,,,,,,,,,,,
,,,,,,,,,5bf289cc17a7de0001cf52f0,Spanish,younger than 13,"yes, I am fluent in another language",no,2025-07-24_01h49.51.091,empathy_intonation_perc_control,2024.2.4,Win32,142.8571429,5bf289cc17a7de0001cf52f0,68817205a84113384fffdfe3,6881c9630abe584b8f24da04,,,,,,,,,,,,./stim/wavs/mexican_mismatch_declarative-broad-focus_Mi-tia-odia-la-lluvia.wav,0,,,69.3828,72.1324,0,1,2.2384,,0,1,1,82,1,83,0,mexican,,,,,,,,,,,,,,,,,,,,,,,,,,,,,,,,,,,,,,,,,,,,,,,,,,,,,,,,
,,,,,,,,,5bf289cc17a7de0001cf52f0,Spanish,younger than 13,"yes, I am fluent in another language",no,2025-07-24_01h49.51.091,empathy_intonation_perc_control,2024.2.4,Win32,142.8571429,5bf289cc17a7de0001cf52f0,68817205a84113384fffdfe3,6881c9630abe584b8f24da04,,,,,,,,,,,,./stim/wavs/castilian_mismatch_declarative-broad-focus_El-nino-oye-el-rio.wav,0,,,72.1329,75.0306,0,1,2.3815,,0,2,2,68,1,69,0,castilian,,,,,,,,,,,,,,,,,,,,,,,,,,,,,,,,,,,,,,,,,,,,,,,,,,,,,,,,
,,,,,,,,,5bf289cc17a7de0001cf52f0,Spanish,younger than 13,"yes, I am fluent in another language",no,2025-07-24_01h49.51.091,empathy_intonation_perc_control,2024.2.4,Win32,142.8571429,5bf289cc17a7de0001cf52f0,68817205a84113384fffdfe3,6881c9630abe584b8f24da04,,,,,,,,,,,,./stim/wavs/cuban_mismatch_declarative-broad-focus_El-hombre-mira-la-luna.wav,0,,,75.0312,89.0704,0,1,13.5296,,0,3,3,74,1,75,0,cuban,,,,,,,,,,,,,,,,,,,,,,,,,,,,,,,,,,,,,,,,,,,,,,,,,,,,,,,,
,,,,,,,,,5bf289cc17a7de0001cf52f0,Spanish,younger than 13,"yes, I am fluent in another language",no,2025-07-24_01h49.51.091,empathy_intonation_perc_control,2024.2.4,Win32,142.8571429,5bf289cc17a7de0001cf52f0,68817205a84113384fffdfe3,6881c9630abe584b8f24da04,,,,,,,,,,,,./stim/wavs/mexican_match_interrogative-total-yn_Emilio-ama-la-marcha.wav,1,,,89.0707,91.6887,0,0,2.1011,,0,4,4,15,1,16,0,mexican,,,,,,,,,,,,,,,,,,,,,,,,,,,,,,,,,,,,,,,,,,,,,,,,,,,,,,,,
,,,,,,,,,5bf289cc17a7de0001cf52f0,Spanish,younger than 13,"yes, I am fluent in another language",no,2025-07-24_01h49.51.091,empathy_intonation_perc_control,2024.2.4,Win32,142.8571429,5bf289cc17a7de0001cf52f0,68817205a84113384fffdfe3,6881c9630abe584b8f24da04,,,,,,,,,,,,./stim/wavs/cuban_match_interrogative-total-yn_Ana-lleva-el-abrigo.wav,1,,,91.689,94.1263,0,0,1.925,,0,5,5,6,1,7,1,cuban,,,,,,,,,,,,,,,,,,,,,,,,,,,,,,,,,,,,,,,,,,,,,,,,,,,,,,,,
,,,,,,,,,5bf289cc17a7de0001cf52f0,Spanish,younger than 13,"yes, I am fluent in another language",no,2025-07-24_01h49.51.091,empathy_intonation_perc_control,2024.2.4,Win32,142.8571429,5bf289cc17a7de0001cf52f0,68817205a84113384fffdfe3,6881c9630abe584b8f24da04,,,,,,,,,,,,./stim/wavs/castilian_mismatch_interrogative-total-yn_Mi-tia-odia-la-lluvia.wav,1,,,94.1269,97.0013,1,1,2.3612,,0,6,6,28,1,29,0,castilian,,,,,,,,,,,,,,,,,,,,,,,,,,,,,,,,,,,,,,,,,,,,,,,,,,,,,,,,
,,,,,,,,,5bf289cc17a7de0001cf52f0,Spanish,younger than 13,"yes, I am fluent in another language",no,2025-07-24_01h49.51.091,empathy_intonation_perc_control,2024.2.4,Win32,142.8571429,5bf289cc17a7de0001cf52f0,68817205a84113384fffdfe3,6881c9630abe584b8f24da04,,,,,,,,,,,,./stim/wavs/castilian_match_interrogative-total-yn_Marta-abre-el-regalo.wav,1,,,97.0016,99.9627,1,1,2.4519,,0,7,7,5,1,6,0,castilian,,,,,,,,,,,,,,,,,,,,,,,,,,,,,,,,,,,,,,,,,,,,,,,,,,,,,,,,
,,,,,,,,,5bf289cc17a7de0001cf52f0,Spanish,younger than 13,"yes, I am fluent in another language",no,2025-07-24_01h49.51.091,empathy_intonation_perc_control,2024.2.4,Win32,142.8571429,5bf289cc17a7de0001cf52f0,68817205a84113384fffdfe3,6881c9630abe584b8f24da04,,,,,,,,,,,,./stim/wavs/cuban_mismatch_declarative-broad-focus_La-nina-lava-el-plato.wav,0,,,99.9632,104.7658,1,0,4.2949,,0,8,8,75,1,76,0,cuban,,,,,,,,,,,,,,,,,,,,,,,,,,,,,,,,,,,,,,,,,,,,,,,,,,,,,,,,
,,,,,,,,,5bf289cc17a7de0001cf52f0,Spanish,younger than 13,"yes, I am fluent in another language",no,2025-07-24_01h49.51.091,empathy_intonation_perc_control,2024.2.4,Win32,142.8571429,5bf289cc17a7de0001cf52f0,68817205a84113384fffdfe3,6881c9630abe584b8f24da04,,,,,,,,,,,,./stim/wavs/castilian_match_declarative-broad-focus_Manuela-vende-el-carro.wav,0,,,104.766,108.8839,0,1,3.6045,,0,9,9,46,1,47,0,castilian,,,,,,,,,,,,,,,,,,,,,,,,,,,,,,,,,,,,,,,,,,,,,,,,,,,,,,,,
,,,,,,,,,5bf289cc17a7de0001cf52f0,Spanish,younger than 13,"yes, I am fluent in another language",no,2025-07-24_01h49.51.091,empathy_intonation_perc_control,2024.2.4,Win32,142.8571429,5bf289cc17a7de0001cf52f0,68817205a84113384fffdfe3,6881c9630abe584b8f24da04,,,,,,,,,,,,./stim/wavs/puertorican_mismatch_declarative-broad-focus_El-nino-oye-el-rio.wav,0,,,108.8844,113.1131,0,1,3.7184,,0,10,10,85,1,86,0,puertorican,,,,,,,,,,,,,,,,,,,,,,,,,,,,,,,,,,,,,,,,,,,,,,,,,,,,,,,,
,,,,,,,,,5bf289cc17a7de0001cf52f0,Spanish,younger than 13,"yes, I am fluent in another language",no,2025-07-24_01h49.51.091,empathy_intonation_perc_control,2024.2.4,Win32,142.8571429,5bf289cc17a7de0001cf52f0,68817205a84113384fffdfe3,6881c9630abe584b8f24da04,,,,,,,,,,,,./stim/wavs/castilian_mismatch_interrogative-total-yn_Mi-novio-viene-del-lago.wav,1,,,113.1134,116.3492,0,0,2.7223,,0,11,11,27,1,28,0,castilian,,,,,,,,,,,,,,,,,,,,,,,,,,,,,,,,,,,,,,,,,,,,,,,,,,,,,,,,
,,,,,,,,,5bf289cc17a7de0001cf52f0,Spanish,younger than 13,"yes, I am fluent in another language",no,2025-07-24_01h49.51.091,empathy_intonation_perc_control,2024.2.4,Win32,142.8571429,5bf289cc17a7de0001cf52f0,68817205a84113384fffdfe3,6881c9630abe584b8f24da04,,,,,,,,,,,,./stim/wavs/castilian_match_declarative-broad-focus_Maria-bebe-el-vino.wav,0,,,116.3495,119.1482,1,0,2.2849,,0,12,12,47,1,48,0,castilian,,,,,,,,,,,,,,,,,,,,,,,,,,,,,,,,,,,,,,,,,,,,,,,,,,,,,,,,
,,,,,,,,,5bf289cc17a7de0001cf52f0,Spanish,younger than 13,"yes, I am fluent in another language",no,2025-07-24_01h49.51.091,empathy_intonation_perc_control,2024.2.4,Win32,142.8571429,5bf289cc17a7de0001cf52f0,68817205a84113384fffdfe3,6881c9630abe584b8f24da04,,,,,,,,,,,,./stim/wavs/puertorican_mismatch_interrogative-total-yn_El-hombre-mira-la-luna.wav,1,,,119.1486,121.5858,0,0,1.9238,,0,13,13,39,1,40,1,puertorican,,,,,,,,,,,,,,,,,,,,,,,,,,,,,,,,,,,,,,,,,,,,,,,,,,,,,,,,
,,,,,,,,,5bf289cc17a7de0001cf52f0,Spanish,younger than 13,"yes, I am fluent in another language",no,2025-07-24_01h49.51.091,empathy_intonation_perc_control,2024.2.4,Win32,142.8571429,5bf289cc17a7de0001cf52f0,68817205a84113384fffdfe3,6881c9630abe584b8f24da04,,,,,,,,,,,,./stim/wavs/mexican_match_declarative-broad-focus_Daniel-iba-a-Bolivia.wav,0,,,121.5862,124.1761,0,1,2.0793,,0,14,14,57,1,58,0,mexican,,,,,,,,,,,,,,,,,,,,,,,,,,,,,,,,,,,,,,,,,,,,,,,,,,,,,,,,
,,,,,,,,,5bf289cc17a7de0001cf52f0,Spanish,younger than 13,"yes, I am fluent in another language",no,2025-07-24_01h49.51.091,empathy_intonation_perc_control,2024.2.4,Win32,142.8571429,5bf289cc17a7de0001cf52f0,68817205a84113384fffdfe3,6881c9630abe584b8f24da04,,,,,,,,,,,,./stim/wavs/cuban_mismatch_declarative-broad-focus_Mi-tia-odia-la-lluvia.wav,0,,,124.1766,127.1484,0,1,2.4597,,0,15,15,77,1,78,0,cuban,,,,,,,,,,,,,,,,,,,,,,,,,,,,,,,,,,,,,,,,,,,,,,,,,,,,,,,,
,,,,,,,,,5bf289cc17a7de0001cf52f0,Spanish,younger than 13,"yes, I am fluent in another language",no,2025-07-24_01h49.51.091,empathy_intonation_perc_control,2024.2.4,Win32,142.8571429,5bf289cc17a7de0001cf52f0,68817205a84113384fffdfe3,6881c9630abe584b8f24da04,,,,,,,,,,,,./stim/wavs/castilian_mismatch_declarative-broad-focus_La-nina-lava-el-plato.wav,0,,,127.149,130.6347,0,1,2.9733,,0,16,16,70,1,71,0,castilian,,,,,,,,,,,,,,,,,,,,,,,,,,,,,,,,,,,,,,,,,,,,,,,,,,,,,,,,
,,,,,,,,,5bf289cc17a7de0001cf52f0,Spanish,younger than 13,"yes, I am fluent in another language",no,2025-07-24_01h49.51.091,empathy_intonation_perc_control,2024.2.4,Win32,142.8571429,5bf289cc17a7de0001cf52f0,68817205a84113384fffdfe3,6881c9630abe584b8f24da04,,,,,,,,,,,,./stim/wavs/castilian_match_interrogative-total-yn_Manuela-vende-el-carro.wav,1,,,130.6349,134.3794,1,1,3.2356,,0,17,17,2,1,3,0,castilian,,,,,,,,,,,,,,,,,,,,,,,,,,,,,,,,,,,,,,,,,,,,,,,,,,,,,,,,
,,,,,,,,,5bf289cc17a7de0001cf52f0,Spanish,younger than 13,"yes, I am fluent in another language",no,2025-07-24_01h49.51.091,empathy_intonation_perc_control,2024.2.4,Win32,142.8571429,5bf289cc17a7de0001cf52f0,68817205a84113384fffdfe3,6881c9630abe584b8f24da04,,,,,,,,,,,,./stim/wavs/mexican_mismatch_declarative-broad-focus_El-bebe-comia-muy-bien.wav,0,,,134.38,140.5101,0,1,5.6218,,0,18,18,78,1,79,0,mexican,,,,,,,,,,,,,,,,,,,,,,,,,,,,,,,,,,,,,,,,,,,,,,,,,,,,,,,,
,,,,,,,,,5bf289cc17a7de0001cf52f0,Spanish,younger than 13,"yes, I am fluent in another language",no,2025-07-24_01h49.51.091,empathy_intonation_perc_control,2024.2.4,Win32,142.8571429,5bf289cc17a7de0001cf52f0,68817205a84113384fffdfe3,6881c9630abe584b8f24da04,,,,,,,,,,,,./stim/wavs/mexican_mismatch_interrogative-total-yn_Mi-novio-viene-del-lago.wav,1,,,140.5104,148.5382,0,0,7.5179,,0,19,19,37,1,38,0,mexican,,,,,,,,,,,,,,,,,,,,,,,,,,,,,,,,,,,,,,,,,,,,,,,,,,,,,,,,
,,,,,,,,,5bf289cc17a7de0001cf52f0,Spanish,younger than 13,"yes, I am fluent in another language",no,2025-07-24_01h49.51.091,empathy_intonation_perc_control,2024.2.4,Win32,142.8571429,5bf289cc17a7de0001cf52f0,68817205a84113384fffdfe3,6881c9630abe584b8f24da04,,,,,,,,,,,,./stim/wavs/cuban_match_declarative-broad-focus_Manuela-vende-el-carro.wav,0,,,148.5385,156.8163,1,0,7.7687,,0,20,20,52,1,53,0,cuban,,,,,,,,,,,,,,,,,,,,,,,,,,,,,,,,,,,,,,,,,,,,,,,,,,,,,,,,
,,,,,,,,,5bf289cc17a7de0001cf52f0,Spanish,younger than 13,"yes, I am fluent in another language",no,2025-07-24_01h49.51.091,empathy_intonation_perc_control,2024.2.4,Win32,142.8571429,5bf289cc17a7de0001cf52f0,68817205a84113384fffdfe3,6881c9630abe584b8f24da04,,,,,,,,,,,,./stim/wavs/castilian_mismatch_interrogative-total-yn_Mi-madre-come-la-fruta.wav,1,,,156.8167,164.9834,0,0,7.6566,,0,21,21,26,1,27,0,castilian,,,,,,,,,,,,,,,,,,,,,,,,,,,,,,,,,,,,,,,,,,,,,,,,,,,,,,,,
,,,,,,,,,5bf289cc17a7de0001cf52f0,Spanish,younger than 13,"yes, I am fluent in another language",no,2025-07-24_01h49.51.091,empathy_intonation_perc_control,2024.2.4,Win32,142.8571429,5bf289cc17a7de0001cf52f0,68817205a84113384fffdfe3,6881c9630abe584b8f24da04,,,,,,,,,,,,./stim/wavs/mexican_mismatch_interrogative-total-yn_Mi-tia-odia-la-lluvia.wav,1,,,164.9838,168.4765,0,0,2.9726,,0,22,22,38,1,39,0,mexican,,,,,,,,,,,,,,,,,,,,,,,,,,,,,,,,,,,,,,,,,,,,,,,,,,,,,,,,
,,,,,,,,,5bf289cc17a7de0001cf52f0,Spanish,younger than 13,"yes, I am fluent in another language",no,2025-07-24_01h49.51.091,empathy_intonation_perc_control,2024.2.4,Win32,142.8571429,5bf289cc17a7de0001cf52f0,68817205a84113384fffdfe3,6881c9630abe584b8f24da04,,,,,,,,,,,,./stim/wavs/mexican_mismatch_declarative-broad-focus_El-hombre-mira-la-luna.wav,0,,,168.4768,171.2544,0,1,2.2634,,0,23,23,79,1,80,0,mexican,,,,,,,,,,,,,,,,,,,,,,,,,,,,,,,,,,,,,,,,,,,,,,,,,,,,,,,,
,,,,,,,,,5bf289cc17a7de0001cf52f0,Spanish,younger than 13,"yes, I am fluent in another language",no,2025-07-24_01h49.51.091,empathy_intonation_perc_control,2024.2.4,Win32,142.8571429,5bf289cc17a7de0001cf52f0,68817205a84113384fffdfe3,6881c9630abe584b8f24da04,,,,,,,,,,,,./stim/wavs/castilian_match_declarative-broad-focus_David-leia-el-libro.wav,0,,,171.2549,176.0253,0,1,4.2605,,0,24,24,44,1,45,0,castilian,,,,,,,,,,,,,,,,,,,,,,,,,,,,,,,,,,,,,,,,,,,,,,,,,,,,,,,,
,,,,,,,,,5bf289cc17a7de0001cf52f0,Spanish,younger than 13,"yes, I am fluent in another language",no,2025-07-24_01h49.51.091,empathy_intonation_perc_control,2024.2.4,Win32,142.8571429,5bf289cc17a7de0001cf52f0,68817205a84113384fffdfe3,6881c9630abe584b8f24da04,,,,,,,,,,,,./stim/wavs/puertorican_match_interrogative-total-yn_Manuela-vende-el-carro.wav,1,,,176.0257,182.3242,0,0,5.7864,,0,25,25,22,1,23,1,puertorican,,,,,,,,,,,,,,,,,,,,,,,,,,,,,,,,,,,,,,,,,,,,,,,,,,,,,,,,
,,,,,,,,,5bf289cc17a7de0001cf52f0,Spanish,younger than 13,"yes, I am fluent in another language",no,2025-07-24_01h49.51.091,empathy_intonation_perc_control,2024.2.4,Win32,142.8571429,5bf289cc17a7de0001cf52f0,68817205a84113384fffdfe3,6881c9630abe584b8f24da04,,,,,,,,,,,,./stim/wavs/puertorican_mismatch_interrogative-total-yn_El-nino-oye-el-rio.wav,1,,,182.3245,187.9704,0,0,5.1367,,0,26,26,40,1,41,1,puertorican,,,,,,,,,,,,,,,,,,,,,,,,,,,,,,,,,,,,,,,,,,,,,,,,,,,,,,,,
,,,,,,,,,5bf289cc17a7de0001cf52f0,Spanish,younger than 13,"yes, I am fluent in another language",no,2025-07-24_01h49.51.091,empathy_intonation_perc_control,2024.2.4,Win32,142.8571429,5bf289cc17a7de0001cf52f0,68817205a84113384fffdfe3,6881c9630abe584b8f24da04,,,,,,,,,,,,./stim/wavs/mexican_match_interrogative-total-yn_David-leia-el-libro.wav,1,,,187.9708,190.6509,1,1,2.1747,,0,27,27,14,1,15,0,mexican,,,,,,,,,,,,,,,,,,,,,,,,,,,,,,,,,,,,,,,,,,,,,,,,,,,,,,,,
,,,,,,,,,5bf289cc17a7de0001cf52f0,Spanish,younger than 13,"yes, I am fluent in another language",no,2025-07-24_01h49.51.091,empathy_intonation_perc_control,2024.2.4,Win32,142.8571429,5bf289cc17a7de0001cf52f0,68817205a84113384fffdfe3,6881c9630abe584b8f24da04,,,,,,,,,,,,./stim/wavs/castilian_match_interrogative-total-yn_David-leia-el-libro.wav,1,,,190.6515,193.8455,1,1,2.6848,,0,28,28,0,1,1,0,castilian,,,,,,,,,,,,,,,,,,,,,,,,,,,,,,,,,,,,,,,,,,,,,,,,,,,,,,,,
,,,,,,,,,5bf289cc17a7de0001cf52f0,Spanish,younger than 13,"yes, I am fluent in another language",no,2025-07-24_01h49.51.091,empathy_intonation_perc_control,2024.2.4,Win32,142.8571429,5bf289cc17a7de0001cf52f0,68817205a84113384fffdfe3,6881c9630abe584b8f24da04,,,,,,,,,,,,./stim/wavs/mexican_match_declarative-broad-focus_Emilio-ama-la-marcha.wav,0,,,193.8461,196.5959,0,1,2.2414,,0,29,29,59,1,60,0,mexican,,,,,,,,,,,,,,,,,,,,,,,,,,,,,,,,,,,,,,,,,,,,,,,,,,,,,,,,
,,,,,,,,,5bf289cc17a7de0001cf52f0,Spanish,younger than 13,"yes, I am fluent in another language",no,2025-07-24_01h49.51.091,empathy_intonation_perc_control,2024.2.4,Win32,142.8571429,5bf289cc17a7de0001cf52f0,68817205a84113384fffdfe3,6881c9630abe584b8f24da04,,,,,,,,,,,,./stim/wavs/cuban_mismatch_interrogative-total-yn_El-nino-oye-el-rio.wav,1,,,196.5961,199.4499,0,0,2.3433,,0,30,30,30,1,31,1,cuban,,,,,,,,,,,,,,,,,,,,,,,,,,,,,,,,,,,,,,,,,,,,,,,,,,,,,,,,
,,,,,,,,,5bf289cc17a7de0001cf52f0,Spanish,younger than 13,"yes, I am fluent in another language",no,2025-07-24_01h49.51.091,empathy_intonation_perc_control,2024.2.4,Win32,142.8571429,5bf289cc17a7de0001cf52f0,68817205a84113384fffdfe3,6881c9630abe584b8f24da04,,,,,,,,,,,,./stim/wavs/cuban_mismatch_interrogative-total-yn_Mi-novio-viene-del-lago.wav,1,,,199.4503,202.7764,0,0,2.8159,,0,31,31,32,1,33,1,cuban,,,,,,,,,,,,,,,,,,,,,,,,,,,,,,,,,,,,,,,,,,,,,,,,,,,,,,,,
,,,,,,,,,5bf289cc17a7de0001cf52f0,Spanish,younger than 13,"yes, I am fluent in another language",no,2025-07-24_01h49.51.091,empathy_intonation_perc_control,2024.2.4,Win32,142.8571429,5bf289cc17a7de0001cf52f0,68817205a84113384fffdfe3,6881c9630abe584b8f24da04,,,,,,,,,,,,./stim/wavs/mexican_mismatch_declarative-broad-focus_La-maestra-vive-en-Paris.wav,0,,,202.7768,206.6863,0,1,3.3983,,0,32,32,80,1,81,0,mexican,,,,,,,,,,,,,,,,,,,,,,,,,,,,,,,,,,,,,,,,,,,,,,,,,,,,,,,,
,,,,,,,,,5bf289cc17a7de0001cf52f0,Spanish,younger than 13,"yes, I am fluent in another language",no,2025-07-24_01h49.51.091,empathy_intonation_perc_control,2024.2.4,Win32,142.8571429,5bf289cc17a7de0001cf52f0,68817205a84113384fffdfe3,6881c9630abe584b8f24da04,,,,,,,,,,,,./stim/wavs/mexican_match_interrogative-total-yn_Daniel-iba-a-Bolivia.wav,1,,,206.6866,209.0822,1,1,1.8865,,0,33,33,13,1,14,0,mexican,,,,,,,,,,,,,,,,,,,,,,,,,,,,,,,,,,,,,,,,,,,,,,,,,,,,,,,,
,,,,,,,,,5bf289cc17a7de0001cf52f0,Spanish,younger than 13,"yes, I am fluent in another language",no,2025-07-24_01h49.51.091,empathy_intonation_perc_control,2024.2.4,Win32,142.8571429,5bf289cc17a7de0001cf52f0,68817205a84113384fffdfe3,6881c9630abe584b8f24da04,,,,,,,,,,,,./stim/wavs/mexican_match_interrogative-total-yn_Marta-abre-el-regalo.wav,1,,,209.0827,212.0893,1,1,2.4933,,0,34,34,17,1,18,0,mexican,,,,,,,,,,,,,,,,,,,,,,,,,,,,,,,,,,,,,,,,,,,,,,,,,,,,,,,,
,,,,,,,,,5bf289cc17a7de0001cf52f0,Spanish,younger than 13,"yes, I am fluent in another language",no,2025-07-24_01h49.51.091,empathy_intonation_perc_control,2024.2.4,Win32,142.8571429,5bf289cc17a7de0001cf52f0,68817205a84113384fffdfe3,6881c9630abe584b8f24da04,,,,,,,,,,,,./stim/wavs/mexican_match_declarative-broad-focus_David-leia-el-libro.wav,0,,,212.0898,215.0338,1,0,2.4346,,0,35,35,58,1,59,0,mexican,,,,,,,,,,,,,,,,,,,,,,,,,,,,,,,,,,,,,,,,,,,,,,,,,,,,,,,,
,,,,,,,,,5bf289cc17a7de0001cf52f0,Spanish,younger than 13,"yes, I am fluent in another language",no,2025-07-24_01h49.51.091,empathy_intonation_perc_control,2024.2.4,Win32,142.8571429,5bf289cc17a7de0001cf52f0,68817205a84113384fffdfe3,6881c9630abe584b8f24da04,,,,,,,,,,,,./stim/wavs/puertorican_match_declarative-broad-focus_Maria-bebe-el-vino.wav,0,,,215.0343,218.8465,1,0,3.299,,0,36,36,67,1,68,0,puertorican,,,,,,,,,,,,,,,,,,,,,,,,,,,,,,,,,,,,,,,,,,,,,,,,,,,,,,,,
,,,,,,,,,5bf289cc17a7de0001cf52f0,Spanish,younger than 13,"yes, I am fluent in another language",no,2025-07-24_01h49.51.091,empathy_intonation_perc_control,2024.2.4,Win32,142.8571429,5bf289cc17a7de0001cf52f0,68817205a84113384fffdfe3,6881c9630abe584b8f24da04,,,,,,,,,,,,./stim/wavs/cuban_mismatch_interrogative-total-yn_El-hombre-mira-la-luna.wav,1,,,218.847,222.5226,0,0,3.1671,,0,37,37,29,1,30,1,cuban,,,,,,,,,,,,,,,,,,,,,,,,,,,,,,,,,,,,,,,,,,,,,,,,,,,,,,,,
,,,,,,,,,5bf289cc17a7de0001cf52f0,Spanish,younger than 13,"yes, I am fluent in another language",no,2025-07-24_01h49.51.091,empathy_intonation_perc_control,2024.2.4,Win32,142.8571429,5bf289cc17a7de0001cf52f0,68817205a84113384fffdfe3,6881c9630abe584b8f24da04,,,,,,,,,,,,./stim/wavs/puertorican_match_declarative-broad-focus_Emilio-ama-la-marcha.wav,0,,,222.523,224.9857,0,1,1.9555,,0,38,38,65,1,66,0,puertorican,,,,,,,,,,,,,,,,,,,,,,,,,,,,,,,,,,,,,,,,,,,,,,,,,,,,,,,,
,,,,,,,,,5bf289cc17a7de0001cf52f0,Spanish,younger than 13,"yes, I am fluent in another language",no,2025-07-24_01h49.51.091,empathy_intonation_perc_control,2024.2.4,Win32,142.8571429,5bf289cc17a7de0001cf52f0,68817205a84113384fffdfe3,6881c9630abe584b8f24da04,,,,,,,,,,,,./stim/wavs/cuban_match_declarative-broad-focus_Maria-bebe-el-vino.wav,0,,,224.9862,228.6664,1,0,3.167,,0,39,39,53,1,54,0,cuban,,,,,,,,,,,,,,,,,,,,,,,,,,,,,,,,,,,,,,,,,,,,,,,,,,,,,,,,
,,,,,,,,,5bf289cc17a7de0001cf52f0,Spanish,younger than 13,"yes, I am fluent in another language",no,2025-07-24_01h49.51.091,empathy_intonation_perc_control,2024.2.4,Win32,142.8571429,5bf289cc17a7de0001cf52f0,68817205a84113384fffdfe3,6881c9630abe584b8f24da04,,,,,,,,,,,,./stim/wavs/mexican_mismatch_interrogative-total-yn_El-nino-oye-el-rio.wav,1,,,228.6669,231.4929,1,1,2.3154,,0,40,40,35,1,36,0,mexican,,,,,,,,,,,,,,,,,,,,,,,,,,,,,,,,,,,,,,,,,,,,,,,,,,,,,,,,
,,,,,,,,,5bf289cc17a7de0001cf52f0,Spanish,younger than 13,"yes, I am fluent in another language",no,2025-07-24_01h49.51.091,empathy_intonation_perc_control,2024.2.4,Win32,142.8571429,5bf289cc17a7de0001cf52f0,68817205a84113384fffdfe3,6881c9630abe584b8f24da04,,,,,,,,,,,,./stim/wavs/castilian_mismatch_declarative-broad-focus_Mi-novio-viene-del-lago.wav,0,,,231.4933,234.1736,0,1,2.1669,,0,41,41,71,1,72,0,castilian,,,,,,,,,,,,,,,,,,,,,,,,,,,,,,,,,,,,,,,,,,,,,,,,,,,,,,,,
,,,,,,,,,5bf289cc17a7de0001cf52f0,Spanish,younger than 13,"yes, I am fluent in another language",no,2025-07-24_01h49.51.091,empathy_intonation_perc_control,2024.2.4,Win32,142.8571429,5bf289cc17a7de0001cf52f0,68817205a84113384fffdfe3,6881c9630abe584b8f24da04,,,,,,,,,,,,./stim/wavs/puertorican_match_interrogative-total-yn_Ana-lleva-el-abrigo.wav,1,,,234.174,237.2709,0,0,2.5853,,0,42,42,18,1,19,1,puertorican,,,,,,,,,,,,,,,,,,,,,,,,,,,,,,,,,,,,,,,,,,,,,,,,,,,,,,,,
,,,,,,,,,5bf289cc17a7de0001cf52f0,Spanish,younger than 13,"yes, I am fluent in another language",no,2025-07-24_01h49.51.091,empathy_intonation_perc_control,2024.2.4,Win32,142.8571429,5bf289cc17a7de0001cf52f0,68817205a84113384fffdfe3,6881c9630abe584b8f24da04,,,,,,,,,,,,./stim/wavs/cuban_match_interrogative-total-yn_Mariano-habla-del-tiempo.wav,1,,,237.2713,242.5419,1,1,4.7599,,0,43,43,10,1,11,1,cuban,,,,,,,,,,,,,,,,,,,,,,,,,,,,,,,,,,,,,,,,,,,,,,,,,,,,,,,,
,,,,,,,,,5bf289cc17a7de0001cf52f0,Spanish,younger than 13,"yes, I am fluent in another language",no,2025-07-24_01h49.51.091,empathy_intonation_perc_control,2024.2.4,Win32,142.8571429,5bf289cc17a7de0001cf52f0,68817205a84113384fffdfe3,6881c9630abe584b8f24da04,,,,,,,,,,,,./stim/wavs/castilian_match_declarative-broad-focus_Emilio-ama-la-marcha.wav,0,,,242.5422,245.0518,0,1,2.0003,,0,44,44,45,1,46,0,castilian,,,,,,,,,,,,,,,,,,,,,,,,,,,,,,,,,,,,,,,,,,,,,,,,,,,,,,,,
,,,,,,,,,5bf289cc17a7de0001cf52f0,Spanish,younger than 13,"yes, I am fluent in another language",no,2025-07-24_01h49.51.091,empathy_intonation_perc_control,2024.2.4,Win32,142.8571429,5bf289cc17a7de0001cf52f0,68817205a84113384fffdfe3,6881c9630abe584b8f24da04,,,,,,,,,,,,./stim/wavs/mexican_match_declarative-broad-focus_Mariano-habla-del-tiempo.wav,0,,,245.0523,249.57,0,1,4.0072,,0,45,45,60,1,61,0,mexican,,,,,,,,,,,,,,,,,,,,,,,,,,,,,,,,,,,,,,,,,,,,,,,,,,,,,,,,
,,,,,,,,,5bf289cc17a7de0001cf52f0,Spanish,younger than 13,"yes, I am fluent in another language",no,2025-07-24_01h49.51.091,empathy_intonation_perc_control,2024.2.4,Win32,142.8571429,5bf289cc17a7de0001cf52f0,68817205a84113384fffdfe3,6881c9630abe584b8f24da04,,,,,,,,,,,,./stim/wavs/cuban_match_declarative-broad-focus_Ana-lleva-el-abrigo.wav,0,,,249.5703,252.2229,0,1,2.1407,,0,46,46,50,1,51,0,cuban,,,,,,,,,,,,,,,,,,,,,,,,,,,,,,,,,,,,,,,,,,,,,,,,,,,,,,,,
,,,,,,,,,5bf289cc17a7de0001cf52f0,Spanish,younger than 13,"yes, I am fluent in another language",no,2025-07-24_01h49.51.091,empathy_intonation_perc_control,2024.2.4,Win32,142.8571429,5bf289cc17a7de0001cf52f0,68817205a84113384fffdfe3,6881c9630abe584b8f24da04,,,,,,,,,,,,./stim/wavs/puertorican_match_interrogative-total-yn_Maria-bebe-el-vino.wav,1,,,252.2233,255.4036,1,1,2.6669,,0,47,47,23,1,24,1,puertorican,,,,,,,,,,,,,,,,,,,,,,,,,,,,,,,,,,,,,,,,,,,,,,,,,,,,,,,,
,,,,,,,,,5bf289cc17a7de0001cf52f0,Spanish,younger than 13,"yes, I am fluent in another language",no,2025-07-24_01h49.51.091,empathy_intonation_perc_control,2024.2.4,Win32,142.8571429,5bf289cc17a7de0001cf52f0,68817205a84113384fffdfe3,6881c9630abe584b8f24da04,,,,,,,,,,,,./stim/wavs/mexican_match_declarative-broad-focus_Marta-abre-el-regalo.wav,0,,,255.4041,257.5494,0,1,1.6351,,0,48,48,61,1,62,0,mexican,,,,,,,,,,,,,,,,,,,,,,,,,,,,,,,,,,,,,,,,,,,,,,,,,,,,,,,,
,,,,,,,,,5bf289cc17a7de0001cf52f0,Spanish,younger than 13,"yes, I am fluent in another language",no,2025-07-24_01h49.51.091,empathy_intonation_perc_control,2024.2.4,Win32,142.8571429,5bf289cc17a7de0001cf52f0,68817205a84113384fffdfe3,6881c9630abe584b8f24da04,,,,,,,,,,,,./stim/wavs/cuban_match_declarative-broad-focus_Marta-abre-el-regalo.wav,0,,,257.5497,259.6121,1,0,1.5496,,0,49,49,55,1,56,0,cuban,,,,,,,,,,,,,,,,,,,,,,,,,,,,,,,,,,,,,,,,,,,,,,,,,,,,,,,,
,,,,,,,,,5bf289cc17a7de0001cf52f0,Spanish,younger than 13,"yes, I am fluent in another language",no,2025-07-24_01h49.51.091,empathy_intonation_perc_control,2024.2.4,Win32,142.8571429,5bf289cc17a7de0001cf52f0,68817205a84113384fffdfe3,6881c9630abe584b8f24da04,,,,,,,,,,,,./stim/wavs/cuban_match_declarative-broad-focus_Mariano-habla-del-tiempo.wav,0,,,259.6126,263.4317,0,1,3.3149,,0,50,50,54,1,55,0,cuban,,,,,,,,,,,,,,,,,,,,,,,,,,,,,,,,,,,,,,,,,,,,,,,,,,,,,,,,
,,,,,,,,,5bf289cc17a7de0001cf52f0,Spanish,younger than 13,"yes, I am fluent in another language",no,2025-07-24_01h49.51.091,empathy_intonation_perc_control,2024.2.4,Win32,142.8571429,5bf289cc17a7de0001cf52f0,68817205a84113384fffdfe3,6881c9630abe584b8f24da04,,,,,,,,,,,,./stim/wavs/castilian_match_declarative-broad-focus_Marta-abre-el-regalo.wav,0,,,263.432,268.6889,0,1,4.7483,,0,51,51,49,1,50,0,castilian,,,,,,,,,,,,,,,,,,,,,,,,,,,,,,,,,,,,,,,,,,,,,,,,,,,,,,,,
,,,,,,,,,5bf289cc17a7de0001cf52f0,Spanish,younger than 13,"yes, I am fluent in another language",no,2025-07-24_01h49.51.091,empathy_intonation_perc_control,2024.2.4,Win32,142.8571429,5bf289cc17a7de0001cf52f0,68817205a84113384fffdfe3,6881c9630abe584b8f24da04,,,,,,,,,,,,./stim/wavs/puertorican_match_interrogative-total-yn_Daniel-iba-a-Bolivia.wav,1,,,268.6893,271.4806,0,0,2.278,,0,52,52,19,1,20,1,puertorican,,,,,,,,,,,,,,,,,,,,,,,,,,,,,,,,,,,,,,,,,,,,,,,,,,,,,,,,
,,,,,,,,,5bf289cc17a7de0001cf52f0,Spanish,younger than 13,"yes, I am fluent in another language",no,2025-07-24_01h49.51.091,empathy_intonation_perc_control,2024.2.4,Win32,142.8571429,5bf289cc17a7de0001cf52f0,68817205a84113384fffdfe3,6881c9630abe584b8f24da04,,,,,,,,,,,,./stim/wavs/cuban_mismatch_interrogative-total-yn_Mi-tia-odia-la-lluvia.wav,1,,,271.4811,273.967,0,0,1.9773,,0,53,53,33,1,34,1,cuban,,,,,,,,,,,,,,,,,,,,,,,,,,,,,,,,,,,,,,,,,,,,,,,,,,,,,,,,
,,,,,,,,,5bf289cc17a7de0001cf52f0,Spanish,younger than 13,"yes, I am fluent in another language",no,2025-07-24_01h49.51.091,empathy_intonation_perc_control,2024.2.4,Win32,142.8571429,5bf289cc17a7de0001cf52f0,68817205a84113384fffdfe3,6881c9630abe584b8f24da04,,,,,,,,,,,,./stim/wavs/puertorican_mismatch_declarative-broad-focus_La-maestra-vive-en-Paris.wav,0,,,273.9673,276.5571,0,1,2.0767,,0,54,54,86,1,87,0,puertorican,,,,,,,,,,,,,,,,,,,,,,,,,,,,,,,,,,,,,,,,,,,,,,,,,,,,,,,,
,,,,,,,,,5bf289cc17a7de0001cf52f0,Spanish,younger than 13,"yes, I am fluent in another language",no,2025-07-24_01h49.51.091,empathy_intonation_perc_control,2024.2.4,Win32,142.8571429,5bf289cc17a7de0001cf52f0,68817205a84113384fffdfe3,6881c9630abe584b8f24da04,,,,,,,,,,,,./stim/wavs/puertorican_match_declarative-broad-focus_David-leia-el-libro.wav,0,,,276.5574,282.6337,1,0,5.5647,,0,55,55,64,1,65,0,puertorican,,,,,,,,,,,,,,,,,,,,,,,,,,,,,,,,,,,,,,,,,,,,,,,,,,,,,,,,
,,,,,,,,,5bf289cc17a7de0001cf52f0,Spanish,younger than 13,"yes, I am fluent in another language",no,2025-07-24_01h49.51.091,empathy_intonation_perc_control,2024.2.4,Win32,142.8571429,5bf289cc17a7de0001cf52f0,68817205a84113384fffdfe3,6881c9630abe584b8f24da04,,,,,,,,,,,,./stim/wavs/puertorican_mismatch_declarative-broad-focus_El-hombre-mira-la-luna.wav,0,,,282.634,284.9464,0,1,1.7989,,0,56,56,84,1,85,0,puertorican,,,,,,,,,,,,,,,,,,,,,,,,,,,,,,,,,,,,,,,,,,,,,,,,,,,,,,,,
,,,,,,,,,5bf289cc17a7de0001cf52f0,Spanish,younger than 13,"yes, I am fluent in another language",no,2025-07-24_01h49.51.091,empathy_intonation_perc_control,2024.2.4,Win32,142.8571429,5bf289cc17a7de0001cf52f0,68817205a84113384fffdfe3,6881c9630abe584b8f24da04,,,,,,,,,,,,./stim/wavs/puertorican_match_declarative-broad-focus_Daniel-iba-a-Bolivia.wav,0,,,284.9466,287.7867,0,1,2.3313,,0,57,57,63,1,64,0,puertorican,,,,,,,,,,,,,,,,,,,,,,,,,,,,,,,,,,,,,,,,,,,,,,,,,,,,,,,,
,,,,,,,,,5bf289cc17a7de0001cf52f0,Spanish,younger than 13,"yes, I am fluent in another language",no,2025-07-24_01h49.51.091,empathy_intonation_perc_control,2024.2.4,Win32,142.8571429,5bf289cc17a7de0001cf52f0,68817205a84113384fffdfe3,6881c9630abe584b8f24da04,,,,,,,,,,,,./stim/wavs/castilian_mismatch_interrogative-total-yn_La-maestra-vive-en-Paris.wav,1,,,287.7871,299.6901,0,0,11.3912,,0,58,58,24,1,25,0,castilian,,,,,,,,,,,,,,,,,,,,,,,,,,,,,,,,,,,,,,,,,,,,,,,,,,,,,,,,
,,,,,,,,,5bf289cc17a7de0001cf52f0,Spanish,younger than 13,"yes, I am fluent in another language",no,2025-07-24_01h49.51.091,empathy_intonation_perc_control,2024.2.4,Win32,142.8571429,5bf289cc17a7de0001cf52f0,68817205a84113384fffdfe3,6881c9630abe584b8f24da04,,,,,,,,,,,,./stim/wavs/puertorican_mismatch_interrogative-total-yn_La-maestra-vive-en-Paris.wav,1,,,299.6905,302.8499,0,0,2.6469,,0,59,59,41,1,42,1,puertorican,,,,,,,,,,,,,,,,,,,,,,,,,,,,,,,,,,,,,,,,,,,,,,,,,,,,,,,,
,,,,,,,,,5bf289cc17a7de0001cf52f0,Spanish,younger than 13,"yes, I am fluent in another language",no,2025-07-24_01h49.51.091,empathy_intonation_perc_control,2024.2.4,Win32,142.8571429,5bf289cc17a7de0001cf52f0,68817205a84113384fffdfe3,6881c9630abe584b8f24da04,,,,,,,,,,,,./stim/wavs/mexican_match_interrogative-total-yn_Mariano-habla-del-tiempo.wav,1,,,302.8501,305.3222,1,1,1.9555,,0,60,60,16,1,17,0,mexican,,,,,,,,,,,,,,,,,,,,,,,,,,,,,,,,,,,,,,,,,,,,,,,,,,,,,,,,
,,,,,,,,,5bf289cc17a7de0001cf52f0,Spanish,younger than 13,"yes, I am fluent in another language",no,2025-07-24_01h49.51.091,empathy_intonation_perc_control,2024.2.4,Win32,142.8571429,5bf289cc17a7de0001cf52f0,68817205a84113384fffdfe3,6881c9630abe584b8f24da04,,,,,,,,,,,,./stim/wavs/puertorican_match_declarative-broad-focus_Manuela-vende-el-carro.wav,0,,,305.3226,307.357,0,1,1.5222,,0,61,61,66,1,67,0,puertorican,,,,,,,,,,,,,,,,,,,,,,,,,,,,,,,,,,,,,,,,,,,,,,,,,,,,,,,,
,,,,,,,,,5bf289cc17a7de0001cf52f0,Spanish,younger than 13,"yes, I am fluent in another language",no,2025-07-24_01h49.51.091,empathy_intonation_perc_control,2024.2.4,Win32,142.8571429,5bf289cc17a7de0001cf52f0,68817205a84113384fffdfe3,6881c9630abe584b8f24da04,,,,,,,,,,,,./stim/wavs/puertorican_match_interrogative-total-yn_David-leia-el-libro.wav,1,,,307.3575,311.0655,1,1,3.1947,,0,62,62,20,1,21,1,puertorican,,,,,,,,,,,,,,,,,,,,,,,,,,,,,,,,,,,,,,,,,,,,,,,,,,,,,,,,
,,,,,,,,,5bf289cc17a7de0001cf52f0,Spanish,younger than 13,"yes, I am fluent in another language",no,2025-07-24_01h49.51.091,empathy_intonation_perc_control,2024.2.4,Win32,142.8571429,5bf289cc17a7de0001cf52f0,68817205a84113384fffdfe3,6881c9630abe584b8f24da04,,,,,,,,,,,,./stim/wavs/mexican_match_declarative-broad-focus_Ana-lleva-el-abrigo.wav,0,,,311.0661,313.213,0,1,1.6385,,0,63,63,56,1,57,0,mexican,,,,,,,,,,,,,,,,,,,,,,,,,,,,,,,,,,,,,,,,,,,,,,,,,,,,,,,,
,,,,,,,,,5bf289cc17a7de0001cf52f0,Spanish,younger than 13,"yes, I am fluent in another language",no,2025-07-24_01h49.51.091,empathy_intonation_perc_control,2024.2.4,Win32,142.8571429,5bf289cc17a7de0001cf52f0,68817205a84113384fffdfe3,6881c9630abe584b8f24da04,,,,,,,,,,,,./stim/wavs/cuban_match_interrogative-total-yn_Manuela-vende-el-carro.wav,1,,,313.2135,315.2809,0,0,1.5574,,0,64,64,8,1,9,1,cuban,,,,,,,,,,,,,,,,,,,,,,,,,,,,,,,,,,,,,,,,,,,,,,,,,,,,,,,,
,,,,,,,,,5bf289cc17a7de0001cf52f0,Spanish,younger than 13,"yes, I am fluent in another language",no,2025-07-24_01h49.51.091,empathy_intonation_perc_control,2024.2.4,Win32,142.8571429,5bf289cc17a7de0001cf52f0,68817205a84113384fffdfe3,6881c9630abe584b8f24da04,,,,,,,,,,,,./stim/wavs/cuban_match_interrogative-total-yn_Maria-bebe-el-vino.wav,1,,,315.2814,317.413,0,0,1.619,,0,65,65,9,1,10,1,cuban,,,,,,,,,,,,,,,,,,,,,,,,,,,,,,,,,,,,,,,,,,,,,,,,,,,,,,,,
,,,,,,,,,5bf289cc17a7de0001cf52f0,Spanish,younger than 13,"yes, I am fluent in another language",no,2025-07-24_01h49.51.091,empathy_intonation_perc_control,2024.2.4,Win32,142.8571429,5bf289cc17a7de0001cf52f0,68817205a84113384fffdfe3,6881c9630abe584b8f24da04,,,,,,,,,,,,./stim/wavs/puertorican_mismatch_interrogative-total-yn_Mi-madre-come-la-fruta.wav,1,,,317.4132,319.8227,0,0,1.8961,,0,66,66,43,1,44,1,puertorican,,,,,,,,,,,,,,,,,,,,,,,,,,,,,,,,,,,,,,,,,,,,,,,,,,,,,,,,
,,,,,,,,,5bf289cc17a7de0001cf52f0,Spanish,younger than 13,"yes, I am fluent in another language",no,2025-07-24_01h49.51.091,empathy_intonation_perc_control,2024.2.4,Win32,142.8571429,5bf289cc17a7de0001cf52f0,68817205a84113384fffdfe3,6881c9630abe584b8f24da04,,,,,,,,,,,,./stim/wavs/cuban_match_declarative-broad-focus_Daniel-iba-a-Bolivia.wav,0,,,319.8232,322.1076,0,1,1.7711,,0,67,67,51,1,52,0,cuban,,,,,,,,,,,,,,,,,,,,,,,,,,,,,,,,,,,,,,,,,,,,,,,,,,,,,,,,
,,,,,,,,,5bf289cc17a7de0001cf52f0,Spanish,younger than 13,"yes, I am fluent in another language",no,2025-07-24_01h49.51.091,empathy_intonation_perc_control,2024.2.4,Win32,142.8571429,5bf289cc17a7de0001cf52f0,68817205a84113384fffdfe3,6881c9630abe584b8f24da04,,,,,,,,,,,,./stim/wavs/cuban_mismatch_declarative-broad-focus_El-bebe-comia-muy-bien.wav,0,,,322.1078,323.9689,0,1,1.3522,,0,68,68,73,1,74,0,cuban,,,,,,,,,,,,,,,,,,,,,,,,,,,,,,,,,,,,,,,,,,,,,,,,,,,,,,,,
,,,,,,,,,5bf289cc17a7de0001cf52f0,Spanish,younger than 13,"yes, I am fluent in another language",no,2025-07-24_01h49.51.091,empathy_intonation_perc_control,2024.2.4,Win32,142.8571429,5bf289cc17a7de0001cf52f0,68817205a84113384fffdfe3,6881c9630abe584b8f24da04,,,,,,,,,,,,./stim/wavs/puertorican_match_interrogative-total-yn_Emilio-ama-la-marcha.wav,1,,,323.9694,326.9967,1,1,2.518,,0,69,69,21,1,22,1,puertorican,,,,,,,,,,,,,,,,,,,,,,,,,,,,,,,,,,,,,,,,,,,,,,,,,,,,,,,,
,,,,,,,,,5bf289cc17a7de0001cf52f0,Spanish,younger than 13,"yes, I am fluent in another language",no,2025-07-24_01h49.51.091,empathy_intonation_perc_control,2024.2.4,Win32,142.8571429,5bf289cc17a7de0001cf52f0,68817205a84113384fffdfe3,6881c9630abe584b8f24da04,,,,,,,,,,,,./stim/wavs/cuban_match_interrogative-total-yn_Daniel-iba-a-Bolivia.wav,1,,,326.9972,329.0524,0,0,1.542,,0,70,70,7,1,8,1,cuban,,,,,,,,,,,,,,,,,,,,,,,,,,,,,,,,,,,,,,,,,,,,,,,,,,,,,,,,
,,,,,,,,,5bf289cc17a7de0001cf52f0,Spanish,younger than 13,"yes, I am fluent in another language",no,2025-07-24_01h49.51.091,empathy_intonation_perc_control,2024.2.4,Win32,142.8571429,5bf289cc17a7de0001cf52f0,68817205a84113384fffdfe3,6881c9630abe584b8f24da04,,,,,,,,,,,,./stim/wavs/puertorican_mismatch_declarative-broad-focus_La-nina-lava-el-plato.wav,0,,,329.0528,330.9622,0,1,1.3965,,0,71,71,87,1,88,0,puertorican,,,,,,,,,,,,,,,,,,,,,,,,,,,,,,,,,,,,,,,,,,,,,,,,,,,,,,,,
,,,,,,,,,5bf289cc17a7de0001cf52f0,Spanish,younger than 13,"yes, I am fluent in another language",no,2025-07-24_01h49.51.091,empathy_intonation_perc_control,2024.2.4,Win32,142.8571429,5bf289cc17a7de0001cf52f0,68817205a84113384fffdfe3,6881c9630abe584b8f24da04,,,,,,,,,,,,./stim/wavs/mexican_mismatch_declarative-broad-focus_Mi-novio-viene-del-lago.wav,0,,,330.9626,332.9136,0,1,1.4389,,0,72,72,81,1,82,0,mexican,,,,,,,,,,,,,,,,,,,,,,,,,,,,,,,,,,,,,,,,,,,,,,,,,,,,,,,,
,,,,,,,,,5bf289cc17a7de0001cf52f0,Spanish,younger than 13,"yes, I am fluent in another language",no,2025-07-24_01h49.51.091,empathy_intonation_perc_control,2024.2.4,Win32,142.8571429,5bf289cc17a7de0001cf52f0,68817205a84113384fffdfe3,6881c9630abe584b8f24da04,,,,,,,,,,,,./stim/wavs/castilian_mismatch_interrogative-total-yn_La-nina-lava-el-plato.wav,1,,,332.914,335.0803,1,1,1.6543,,0,73,73,25,1,26,0,castilian,,,,,,,,,,,,,,,,,,,,,,,,,,,,,,,,,,,,,,,,,,,,,,,,,,,,,,,,
,,,,,,,,,5bf289cc17a7de0001cf52f0,Spanish,younger than 13,"yes, I am fluent in another language",no,2025-07-24_01h49.51.091,empathy_intonation_perc_control,2024.2.4,Win32,142.8571429,5bf289cc17a7de0001cf52f0,68817205a84113384fffdfe3,6881c9630abe584b8f24da04,,,,,,,,,,,,./stim/wavs/cuban_mismatch_declarative-broad-focus_Mi-novio-viene-del-lago.wav,0,,,335.0806,337.1568,0,1,1.5674,,0,74,74,76,1,77,0,cuban,,,,,,,,,,,,,,,,,,,,,,,,,,,,,,,,,,,,,,,,,,,,,,,,,,,,,,,,
,,,,,,,,,5bf289cc17a7de0001cf52f0,Spanish,younger than 13,"yes, I am fluent in another language",no,2025-07-24_01h49.51.091,empathy_intonation_perc_control,2024.2.4,Win32,142.8571429,5bf289cc17a7de0001cf52f0,68817205a84113384fffdfe3,6881c9630abe584b8f24da04,,,,,,,,,,,,./stim/wavs/castilian_mismatch_declarative-broad-focus_Mi-tia-odia-la-lluvia.wav,0,,,337.157,339.5179,0,1,1.8499,,0,75,75,72,1,73,0,castilian,,,,,,,,,,,,,,,,,,,,,,,,,,,,,,,,,,,,,,,,,,,,,,,,,,,,,,,,
,,,,,,,,,5bf289cc17a7de0001cf52f0,Spanish,younger than 13,"yes, I am fluent in another language",no,2025-07-24_01h49.51.091,empathy_intonation_perc_control,2024.2.4,Win32,142.8571429,5bf289cc17a7de0001cf52f0,68817205a84113384fffdfe3,6881c9630abe584b8f24da04,,,,,,,,,,,,./stim/wavs/mexican_match_interrogative-total-yn_Ana-lleva-el-abrigo.wav,1,,,339.5183,341.4903,1,1,1.4665,,0,76,76,12,1,13,0,mexican,,,,,,,,,,,,,,,,,,,,,,,,,,,,,,,,,,,,,,,,,,,,,,,,,,,,,,,,
,,,,,,,,,5bf289cc17a7de0001cf52f0,Spanish,younger than 13,"yes, I am fluent in another language",no,2025-07-24_01h49.51.091,empathy_intonation_perc_control,2024.2.4,Win32,142.8571429,5bf289cc17a7de0001cf52f0,68817205a84113384fffdfe3,6881c9630abe584b8f24da04,,,,,,,,,,,,./stim/wavs/castilian_match_interrogative-total-yn_Emilio-ama-la-marcha.wav,1,,,341.4909,343.9001,1,1,1.896,,0,77,77,1,1,2,0,castilian,,,,,,,,,,,,,,,,,,,,,,,,,,,,,,,,,,,,,,,,,,,,,,,,,,,,,,,,
,,,,,,,,,5bf289cc17a7de0001cf52f0,Spanish,younger than 13,"yes, I am fluent in another language",no,2025-07-24_01h49.51.091,empathy_intonation_perc_control,2024.2.4,Win32,142.8571429,5bf289cc17a7de0001cf52f0,68817205a84113384fffdfe3,6881c9630abe584b8f24da04,,,,,,,,,,,,./stim/wavs/cuban_match_interrogative-total-yn_Marta-abre-el-regalo.wav,1,,,343.9006,346.0323,0,0,1.6108,,0,78,78,11,1,12,1,cuban,,,,,,,,,,,,,,,,,,,,,,,,,,,,,,,,,,,,,,,,,,,,,,,,,,,,,,,,
,,,,,,,,,5bf289cc17a7de0001cf52f0,Spanish,younger than 13,"yes, I am fluent in another language",no,2025-07-24_01h49.51.091,empathy_intonation_perc_control,2024.2.4,Win32,142.8571429,5bf289cc17a7de0001cf52f0,68817205a84113384fffdfe3,6881c9630abe584b8f24da04,,,,,,,,,,,,./stim/wavs/puertorican_mismatch_declarative-broad-focus_El-bebe-comia-muy-bien.wav,0,,,346.0326,348.1226,0,1,1.5768,,0,79,79,83,1,84,0,puertorican,,,,,,,,,,,,,,,,,,,,,,,,,,,,,,,,,,,,,,,,,,,,,,,,,,,,,,,,
,,,,,,,,,5bf289cc17a7de0001cf52f0,Spanish,younger than 13,"yes, I am fluent in another language",no,2025-07-24_01h49.51.091,empathy_intonation_perc_control,2024.2.4,Win32,142.8571429,5bf289cc17a7de0001cf52f0,68817205a84113384fffdfe3,6881c9630abe584b8f24da04,,,,,,,,,,,,./stim/wavs/castilian_mismatch_declarative-broad-focus_La-maestra-vive-en-Paris.wav,0,,,348.123,350.5601,0,1,1.9309,,0,80,80,69,1,70,0,castilian,,,,,,,,,,,,,,,,,,,,,,,,,,,,,,,,,,,,,,,,,,,,,,,,,,,,,,,,
,,,,,,,,,5bf289cc17a7de0001cf52f0,Spanish,younger than 13,"yes, I am fluent in another language",no,2025-07-24_01h49.51.091,empathy_intonation_perc_control,2024.2.4,Win32,142.8571429,5bf289cc17a7de0001cf52f0,68817205a84113384fffdfe3,6881c9630abe584b8f24da04,,,,,,,,,,,,./stim/wavs/castilian_match_declarative-broad-focus_Mariano-habla-del-tiempo.wav,0,,,350.5604,352.7219,0,1,1.6529,,0,81,81,48,1,49,0,castilian,,,,,,,,,,,,,,,,,,,,,,,,,,,,,,,,,,,,,,,,,,,,,,,,,,,,,,,,
,,,,,,,,,5bf289cc17a7de0001cf52f0,Spanish,younger than 13,"yes, I am fluent in another language",no,2025-07-24_01h49.51.091,empathy_intonation_perc_control,2024.2.4,Win32,142.8571429,5bf289cc17a7de0001cf52f0,68817205a84113384fffdfe3,6881c9630abe584b8f24da04,,,,,,,,,,,,./stim/wavs/mexican_mismatch_interrogative-total-yn_El-hombre-mira-la-luna.wav,1,,,352.7222,354.9909,1,1,1.761,,0,82,82,34,1,35,0,mexican,,,,,,,,,,,,,,,,,,,,,,,,,,,,,,,,,,,,,,,,,,,,,,,,,,,,,,,,
,,,,,,,,,5bf289cc17a7de0001cf52f0,Spanish,younger than 13,"yes, I am fluent in another language",no,2025-07-24_01h49.51.091,empathy_intonation_perc_control,2024.2.4,Win32,142.8571429,5bf289cc17a7de0001cf52f0,68817205a84113384fffdfe3,6881c9630abe584b8f24da04,,,,,,,,,,,,./stim/wavs/cuban_mismatch_interrogative-total-yn_Mi-madre-come-la-fruta.wav,1,,,354.9915,357.5469,0,0,2.0469,,0,83,83,31,1,32,1,cuban,,,,,,,,,,,,,,,,,,,,,,,,,,,,,,,,,,,,,,,,,,,,,,,,,,,,,,,,
,,,,,,,,,5bf289cc17a7de0001cf52f0,Spanish,younger than 13,"yes, I am fluent in another language",no,2025-07-24_01h49.51.091,empathy_intonation_perc_control,2024.2.4,Win32,142.8571429,5bf289cc17a7de0001cf52f0,68817205a84113384fffdfe3,6881c9630abe584b8f24da04,,,,,,,,,,,,./stim/wavs/castilian_match_interrogative-total-yn_Mariano-habla-del-tiempo.wav,1,,,357.5473,359.7912,1,1,1.7357,,0,84,84,4,1,5,0,castilian,,,,,,,,,,,,,,,,,,,,,,,,,,,,,,,,,,,,,,,,,,,,,,,,,,,,,,,,
,,,,,,,,,5bf289cc17a7de0001cf52f0,Spanish,younger than 13,"yes, I am fluent in another language",no,2025-07-24_01h49.51.091,empathy_intonation_perc_control,2024.2.4,Win32,142.8571429,5bf289cc17a7de0001cf52f0,68817205a84113384fffdfe3,6881c9630abe584b8f24da04,,,,,,,,,,,,./stim/wavs/mexican_mismatch_interrogative-total-yn_La-maestra-vive-en-Paris.wav,1,,,359.7916,362.3245,1,1,2.024,,0,85,85,36,1,37,0,mexican,,,,,,,,,,,,,,,,,,,,,,,,,,,,,,,,,,,,,,,,,,,,,,,,,,,,,,,,
,,,,,,,,,5bf289cc17a7de0001cf52f0,Spanish,younger than 13,"yes, I am fluent in another language",no,2025-07-24_01h49.51.091,empathy_intonation_perc_control,2024.2.4,Win32,142.8571429,5bf289cc17a7de0001cf52f0,68817205a84113384fffdfe3,6881c9630abe584b8f24da04,,,,,,,,,,,,./stim/wavs/puertorican_match_declarative-broad-focus_Ana-lleva-el-abrigo.wav,0,,,362.3249,364.1788,0,1,1.3445,,0,86,86,62,1,63,0,puertorican,,,,,,,,,,,,,,,,,,,,,,,,,,,,,,,,,,,,,,,,,,,,,,,,,,,,,,,,
,,,,,,,,,5bf289cc17a7de0001cf52f0,Spanish,younger than 13,"yes, I am fluent in another language",no,2025-07-24_01h49.51.091,empathy_intonation_perc_control,2024.2.4,Win32,142.8571429,5bf289cc17a7de0001cf52f0,68817205a84113384fffdfe3,6881c9630abe584b8f24da04,,,,,,,,,,,,./stim/wavs/puertorican_mismatch_interrogative-total-yn_La-nina-lava-el-plato.wav,1,,,364.179,367.3594,0,0,2.6692,,0,87,87,42,1,43,1,puertorican,,,,,,,,,,,,,,,,,,,,,,,,,,,,,,,,,,,,,,,,,,,,,,,,,,,,,,,,
,,,,,,,"Great! Now we will move on. The next task consists of about 60 trials, in each of which you will see a string of letters. 
  
  Your task is to decide whether this is a real Spanish word or not.", (press the spacebar to continue),5bf289cc17a7de0001cf52f0,Spanish,younger than 13,"yes, I am fluent in another language",no,2025-07-24_01h49.51.091,empathy_intonation_perc_control,2024.2.4,Win32,142.8571429,5bf289cc17a7de0001cf52f0,68817205a84113384fffdfe3,6881c9630abe584b8f24da04,,,,,,,,,,,,,,,,,,,,,,,,,,,,,,367.365,371.8667,0,0,0,0,1,,,,,,,,,,,,,,,,,,,,,,,,,,,,,,,,,,,,,,,,,,,,,,,,,
,,,,,,,"If you think it is an existing Spanish word, you type '1' (for 'REAL'), and if you think it is not an existing Spanish word, you type '0' (for 'FAKE').", (press the spacebar to continue),5bf289cc17a7de0001cf52f0,Spanish,younger than 13,"yes, I am fluent in another language",no,2025-07-24_01h49.51.091,empathy_intonation_perc_control,2024.2.4,Win32,142.8571429,5bf289cc17a7de0001cf52f0,68817205a84113384fffdfe3,6881c9630abe584b8f24da04,,,,,,,,,,,,,,,,,,,,,,,,,,,,,,371.8695,375.0681,0,1,1,1,1,,,,,,,,,,,,,,,,,,,,,,,,,,,,,,,,,,,,,,,,,,,,,,,,,
,,,,,,,"If you are sure that the word exists, even though you don’t know its exact meaning, you may still respond '1' (REAL). 
  
  But if you are not sure if it is an existing word, you should respond '0' (FAKE).
  
  Let's do a practice round...", (press the spacebar to continue),5bf289cc17a7de0001cf52f0,Spanish,younger than 13,"yes, I am fluent in another language",no,2025-07-24_01h49.51.091,empathy_intonation_perc_control,2024.2.4,Win32,142.8571429,5bf289cc17a7de0001cf52f0,68817205a84113384fffdfe3,6881c9630abe584b8f24da04,,,,,,,,,,,,,,,,,,,,,,,,,,,,,,375.0703,378.6515,0,2,2,2,1,,,,,,,,,,,,,,,,,,,,,,,,,,,,,,,,,,,,,,,,,,,,,,,,,
,,,,,,,,,5bf289cc17a7de0001cf52f0,Spanish,younger than 13,"yes, I am fluent in another language",no,2025-07-24_01h49.51.091,empathy_intonation_perc_control,2024.2.4,Win32,142.8571429,5bf289cc17a7de0001cf52f0,68817205a84113384fffdfe3,6881c9630abe584b8f24da04,,,,,,,,,,,,,0,,,,,,,,,,,,,,,,,,,,,,,,378.6582,381.0545,0,1,1.888,,381.0546,382.0546,0,0,0,0,1,0,depiste,REAL,FAKE,,,,,,,,,,,,,,,,,,,,,,,,,,,,,,,,
,,,,,,,,,5bf289cc17a7de0001cf52f0,Spanish,younger than 13,"yes, I am fluent in another language",no,2025-07-24_01h49.51.091,empathy_intonation_perc_control,2024.2.4,Win32,142.8571429,5bf289cc17a7de0001cf52f0,68817205a84113384fffdfe3,6881c9630abe584b8f24da04,,,,,,,,,,,,,1,,,,,,,,,,,,,,,,,,,,,,,,382.056,383.3601,1,1,0.7938,,383.3601,384.36,0,1,1,1,1,0,sí,REAL,FAKE,,,,,,,,,,,,,,,,,,,,,,,,,,,,,,,,
,,,,,,,,,5bf289cc17a7de0001cf52f0,Spanish,younger than 13,"yes, I am fluent in another language",no,2025-07-24_01h49.51.091,empathy_intonation_perc_control,2024.2.4,Win32,142.8571429,5bf289cc17a7de0001cf52f0,68817205a84113384fffdfe3,6881c9630abe584b8f24da04,,,,,,,,,,,,,0,,,,,,,,,,,,,,,,,,,,,,,,384.3608,386.6727,0,1,1.7952,,386.6727,387.6727,0,2,2,2,1,0,coné,REAL,FAKE,,,,,,,,,,,,,,,,,,,,,,,,,,,,,,,,
,,,,,,,,,5bf289cc17a7de0001cf52f0,Spanish,younger than 13,"yes, I am fluent in another language",no,2025-07-24_01h49.51.091,empathy_intonation_perc_control,2024.2.4,Win32,142.8571429,5bf289cc17a7de0001cf52f0,68817205a84113384fffdfe3,6881c9630abe584b8f24da04,,,,,,,,,,,,,0,,,,,,,,,,,,,,,,,,,,,,,,387.6734,389.3742,0,1,1.1897,,389.3743,390.3743,0,3,3,3,1,0,calpar,REAL,FAKE,,,,,,,,,,,,,,,,,,,,,,,,,,,,,,,,
,,,,,,,,,5bf289cc17a7de0001cf52f0,Spanish,younger than 13,"yes, I am fluent in another language",no,2025-07-24_01h49.51.091,empathy_intonation_perc_control,2024.2.4,Win32,142.8571429,5bf289cc17a7de0001cf52f0,68817205a84113384fffdfe3,6881c9630abe584b8f24da04,,,,,,,,,,,,,0,,,,,,,,,,,,,,,,,,,,,,,,390.3754,391.6382,0,1,0.7513,,391.6382,392.6382,0,4,4,4,1,0,joten,REAL,FAKE,,,,,,,,,,,,,,,,,,,,,,,,,,,,,,,,
,,,,,,,,,5bf289cc17a7de0001cf52f0,Spanish,younger than 13,"yes, I am fluent in another language",no,2025-07-24_01h49.51.091,empathy_intonation_perc_control,2024.2.4,Win32,142.8571429,5bf289cc17a7de0001cf52f0,68817205a84113384fffdfe3,6881c9630abe584b8f24da04,,,,,,,,,,,,,1,,,,,,,,,,,,,,,,,,,,,,,,392.6391,395.4994,0,0,2.3472,,395.5003,396.4994,0,5,5,5,1,0,sacapuntas,REAL,FAKE,,,,,,,,,,,,,,,,,,,,,,,,,,,,,,,,
,,,,,,,,,5bf289cc17a7de0001cf52f0,Spanish,younger than 13,"yes, I am fluent in another language",no,2025-07-24_01h49.51.091,empathy_intonation_perc_control,2024.2.4,Win32,142.8571429,5bf289cc17a7de0001cf52f0,68817205a84113384fffdfe3,6881c9630abe584b8f24da04,,,,,,,,,,,,,0,,,,,,,,,,,,,,,,,,,,,,,,396.5002,399.0065,1,0,1.9918,,399.0066,400.0065,0,6,6,6,1,0,priba,REAL,FAKE,,,,,,,,,,,,,,,,,,,,,,,,,,,,,,,,
,,,,,,,,,5bf289cc17a7de0001cf52f0,Spanish,younger than 13,"yes, I am fluent in another language",no,2025-07-24_01h49.51.091,empathy_intonation_perc_control,2024.2.4,Win32,142.8571429,5bf289cc17a7de0001cf52f0,68817205a84113384fffdfe3,6881c9630abe584b8f24da04,,,,,,,,,,,,,0,,,,,,,,,,,,,,,,,,,,,,,,400.0071,402.1803,1,0,1.6577,,402.1803,403.1803,0,7,7,7,1,0,pelasula,REAL,FAKE,,,,,,,,,,,,,,,,,,,,,,,,,,,,,,,,
,,,,,,,,,5bf289cc17a7de0001cf52f0,Spanish,younger than 13,"yes, I am fluent in another language",no,2025-07-24_01h49.51.091,empathy_intonation_perc_control,2024.2.4,Win32,142.8571429,5bf289cc17a7de0001cf52f0,68817205a84113384fffdfe3,6881c9630abe584b8f24da04,,,,,,,,,,,,,1,,,,,,,,,,,,,,,,,,,,,,,,403.181,404.4097,1,1,0.7148,,404.4102,405.4096,0,8,8,8,1,0,bien,REAL,FAKE,,,,,,,,,,,,,,,,,,,,,,,,,,,,,,,,
,,,,,,,,,5bf289cc17a7de0001cf52f0,Spanish,younger than 13,"yes, I am fluent in another language",no,2025-07-24_01h49.51.091,empathy_intonation_perc_control,2024.2.4,Win32,142.8571429,5bf289cc17a7de0001cf52f0,68817205a84113384fffdfe3,6881c9630abe584b8f24da04,,,,,,,,,,,,,1,,,,,,,,,,,,,,,,,,,,,,,,405.4104,406.5554,1,1,0.6328,,406.5554,407.5554,0,9,9,9,1,0,casa,REAL,FAKE,,,,,,,,,,,,,,,,,,,,,,,,,,,,,,,,
,,,,,,,,,5bf289cc17a7de0001cf52f0,Spanish,younger than 13,"yes, I am fluent in another language",no,2025-07-24_01h49.51.091,empathy_intonation_perc_control,2024.2.4,Win32,142.8571429,5bf289cc17a7de0001cf52f0,68817205a84113384fffdfe3,6881c9630abe584b8f24da04,,,,,,,,,,,,,0,,,,,,,,,,,,,,,,,,,,,,,,407.5559,409.875,1,0,1.8069,,409.8755,410.875,0,10,10,10,1,0,lejo,REAL,FAKE,,,,,,,,,,,,,,,,,,,,,,,,,,,,,,,,
,,,,,,,,,5bf289cc17a7de0001cf52f0,Spanish,younger than 13,"yes, I am fluent in another language",no,2025-07-24_01h49.51.091,empathy_intonation_perc_control,2024.2.4,Win32,142.8571429,5bf289cc17a7de0001cf52f0,68817205a84113384fffdfe3,6881c9630abe584b8f24da04,,,,,,,,,,,,,0,,,,,,,,,,,,,,,,,,,,,,,,410.8757,412.6597,0,1,1.2708,,412.66,413.6598,0,11,11,11,1,0,pretantas,REAL,FAKE,,,,,,,,,,,,,,,,,,,,,,,,,,,,,,,,
,,,,,,,,,5bf289cc17a7de0001cf52f0,Spanish,younger than 13,"yes, I am fluent in another language",no,2025-07-24_01h49.51.091,empathy_intonation_perc_control,2024.2.4,Win32,142.8571429,5bf289cc17a7de0001cf52f0,68817205a84113384fffdfe3,6881c9630abe584b8f24da04,,,,,,,,,,,,,,,,,,,,,,,,,,,,,,,,,,,,,,,,,,,,,,,,,,,,,,413.6601,415.0211,,,,,,,,,,,,,,,,,,,,,,,,,,,,,,
,,,,,,,,,5bf289cc17a7de0001cf52f0,Spanish,younger than 13,"yes, I am fluent in another language",no,2025-07-24_01h49.51.091,empathy_intonation_perc_control,2024.2.4,Win32,142.8571429,5bf289cc17a7de0001cf52f0,68817205a84113384fffdfe3,6881c9630abe584b8f24da04,,,,,,,,,,,,,1,,,,,,,,,,,,,,,,,,,,,,,,,,,,,,,,,,,,,90,clavel,,,,,415.027,416.9799,0,0,1.444,,0,0,0,89,1,REAL,FAKE,,,,,,,,,,,,,,,,,
,,,,,,,,,5bf289cc17a7de0001cf52f0,Spanish,younger than 13,"yes, I am fluent in another language",no,2025-07-24_01h49.51.091,empathy_intonation_perc_control,2024.2.4,Win32,142.8571429,5bf289cc17a7de0001cf52f0,68817205a84113384fffdfe3,6881c9630abe584b8f24da04,,,,,,,,,,,,,1,,,,,,,,,,,,,,,,,,,,,,,,,,,,,,,,,,,,,24,látigo,,,,,416.9813,420.73,0,0,3.2389,,0,1,1,23,1,REAL,FAKE,,,,,,,,,,,,,,,,,
,,,,,,,,,5bf289cc17a7de0001cf52f0,Spanish,younger than 13,"yes, I am fluent in another language",no,2025-07-24_01h49.51.091,empathy_intonation_perc_control,2024.2.4,Win32,142.8571429,5bf289cc17a7de0001cf52f0,68817205a84113384fffdfe3,6881c9630abe584b8f24da04,,,,,,,,,,,,,0,,,,,,,,,,,,,,,,,,,,,,,,,,,,,,,,,,,,,42,cadallo,,,,,420.7307,422.5978,1,0,1.3524,,0,2,2,41,1,REAL,FAKE,,,,,,,,,,,,,,,,,
,,,,,,,,,5bf289cc17a7de0001cf52f0,Spanish,younger than 13,"yes, I am fluent in another language",no,2025-07-24_01h49.51.091,empathy_intonation_perc_control,2024.2.4,Win32,142.8571429,5bf289cc17a7de0001cf52f0,68817205a84113384fffdfe3,6881c9630abe584b8f24da04,,,,,,,,,,,,,1,,,,,,,,,,,,,,,,,,,,,,,,,,,,,,,,,,,,,77,tiburón,,,,,422.599,424.0839,0,0,0.9744,,0,3,3,76,1,REAL,FAKE,,,,,,,,,,,,,,,,,
,,,,,,,,,5bf289cc17a7de0001cf52f0,Spanish,younger than 13,"yes, I am fluent in another language",no,2025-07-24_01h49.51.091,empathy_intonation_perc_control,2024.2.4,Win32,142.8571429,5bf289cc17a7de0001cf52f0,68817205a84113384fffdfe3,6881c9630abe584b8f24da04,,,,,,,,,,,,,1,,,,,,,,,,,,,,,,,,,,,,,,,,,,,,,,,,,,,91,click the 1 key.,,,,,424.086,425.4797,1,1,0.8791,,0,4,4,90,1,REAL,FAKE,,,,,,,,,,,,,,,,,
,,,,,,,,,5bf289cc17a7de0001cf52f0,Spanish,younger than 13,"yes, I am fluent in another language",no,2025-07-24_01h49.51.091,empathy_intonation_perc_control,2024.2.4,Win32,142.8571429,5bf289cc17a7de0001cf52f0,68817205a84113384fffdfe3,6881c9630abe584b8f24da04,,,,,,,,,,,,,0,,,,,,,,,,,,,,,,,,,,,,,,,,,,,,,,,,,,,17,floroso,,,,,425.4804,427.459,1,0,1.4626,,0,5,5,16,1,REAL,FAKE,,,,,,,,,,,,,,,,,
,,,,,,,,,5bf289cc17a7de0001cf52f0,Spanish,younger than 13,"yes, I am fluent in another language",no,2025-07-24_01h49.51.091,empathy_intonation_perc_control,2024.2.4,Win32,142.8571429,5bf289cc17a7de0001cf52f0,68817205a84113384fffdfe3,6881c9630abe584b8f24da04,,,,,,,,,,,,,1,,,,,,,,,,,,,,,,,,,,,,,,,,,,,,,,,,,,,68,alegre,,,,,427.4595,429.0008,1,1,1.0255,,0,6,6,67,1,REAL,FAKE,,,,,,,,,,,,,,,,,
,,,,,,,,,5bf289cc17a7de0001cf52f0,Spanish,younger than 13,"yes, I am fluent in another language",no,2025-07-24_01h49.51.091,empathy_intonation_perc_control,2024.2.4,Win32,142.8571429,5bf289cc17a7de0001cf52f0,68817205a84113384fffdfe3,6881c9630abe584b8f24da04,,,,,,,,,,,,,0,,,,,,,,,,,,,,,,,,,,,,,,,,,,,,,,,,,,,33,pauca,,,,,429.0013,430.3619,0,1,0.8495,,0,7,7,32,1,REAL,FAKE,,,,,,,,,,,,,,,,,
,,,,,,,,,5bf289cc17a7de0001cf52f0,Spanish,younger than 13,"yes, I am fluent in another language",no,2025-07-24_01h49.51.091,empathy_intonation_perc_control,2024.2.4,Win32,142.8571429,5bf289cc17a7de0001cf52f0,68817205a84113384fffdfe3,6881c9630abe584b8f24da04,,,,,,,,,,,,,0,,,,,,,,,,,,,,,,,,,,,,,,,,,,,,,,,,,,,18,arsa,,,,,430.3627,431.7161,0,1,0.8399,,0,8,8,17,1,REAL,FAKE,,,,,,,,,,,,,,,,,
,,,,,,,,,5bf289cc17a7de0001cf52f0,Spanish,younger than 13,"yes, I am fluent in another language",no,2025-07-24_01h49.51.091,empathy_intonation_perc_control,2024.2.4,Win32,142.8571429,5bf289cc17a7de0001cf52f0,68817205a84113384fffdfe3,6881c9630abe584b8f24da04,,,,,,,,,,,,,1,,,,,,,,,,,,,,,,,,,,,,,,,,,,,,,,,,,,,20,ávido,,,,,431.7166,433.0842,1,1,0.855,,0,9,9,19,1,REAL,FAKE,,,,,,,,,,,,,,,,,
,,,,,,,,,5bf289cc17a7de0001cf52f0,Spanish,younger than 13,"yes, I am fluent in another language",no,2025-07-24_01h49.51.091,empathy_intonation_perc_control,2024.2.4,Win32,142.8571429,5bf289cc17a7de0001cf52f0,68817205a84113384fffdfe3,6881c9630abe584b8f24da04,,,,,,,,,,,,,1,,,,,,,,,,,,,,,,,,,,,,,,,,,,,,,,,,,,,9,hacha,,,,,433.0847,434.8898,0,0,1.2925,,0,10,10,8,1,REAL,FAKE,,,,,,,,,,,,,,,,,
,,,,,,,,,5bf289cc17a7de0001cf52f0,Spanish,younger than 13,"yes, I am fluent in another language",no,2025-07-24_01h49.51.091,empathy_intonation_perc_control,2024.2.4,Win32,142.8571429,5bf289cc17a7de0001cf52f0,68817205a84113384fffdfe3,6881c9630abe584b8f24da04,,,,,,,,,,,,,1,,,,,,,,,,,,,,,,,,,,,,,,,,,,,,,,,,,,,62,flaco,,,,,434.8904,436.2927,1,1,0.8889,,0,11,11,61,1,REAL,FAKE,,,,,,,,,,,,,,,,,
,,,,,,,,,5bf289cc17a7de0001cf52f0,Spanish,younger than 13,"yes, I am fluent in another language",no,2025-07-24_01h49.51.091,empathy_intonation_perc_control,2024.2.4,Win32,142.8571429,5bf289cc17a7de0001cf52f0,68817205a84113384fffdfe3,6881c9630abe584b8f24da04,,,,,,,,,,,,,0,,,,,,,,,,,,,,,,,,,,,,,,,,,,,,,,,,,,,32,fatacidad,,,,,436.2932,437.9802,0,1,1.1722,,0,12,12,31,1,REAL,FAKE,,,,,,,,,,,,,,,,,
,,,,,,,,,5bf289cc17a7de0001cf52f0,Spanish,younger than 13,"yes, I am fluent in another language",no,2025-07-24_01h49.51.091,empathy_intonation_perc_control,2024.2.4,Win32,142.8571429,5bf289cc17a7de0001cf52f0,68817205a84113384fffdfe3,6881c9630abe584b8f24da04,,,,,,,,,,,,,0,,,,,,,,,,,,,,,,,,,,,,,,,,,,,,,,,,,,,84,escuto,,,,,437.9807,439.3554,1,0,0.8627,,0,13,13,83,1,REAL,FAKE,,,,,,,,,,,,,,,,,
,,,,,,,,,5bf289cc17a7de0001cf52f0,Spanish,younger than 13,"yes, I am fluent in another language",no,2025-07-24_01h49.51.091,empathy_intonation_perc_control,2024.2.4,Win32,142.8571429,5bf289cc17a7de0001cf52f0,68817205a84113384fffdfe3,6881c9630abe584b8f24da04,,,,,,,,,,,,,1,,,,,,,,,,,,,,,,,,,,,,,,,,,,,,,,,,,,,31,pandilla,,,,,439.3562,440.9874,0,0,1.1159,,0,14,14,30,1,REAL,FAKE,,,,,,,,,,,,,,,,,
,,,,,,,,,5bf289cc17a7de0001cf52f0,Spanish,younger than 13,"yes, I am fluent in another language",no,2025-07-24_01h49.51.091,empathy_intonation_perc_control,2024.2.4,Win32,142.8571429,5bf289cc17a7de0001cf52f0,68817205a84113384fffdfe3,6881c9630abe584b8f24da04,,,,,,,,,,,,,1,,,,,,,,,,,,,,,,,,,,,,,,,,,,,,,,,,,,,26,secuestro,,,,,440.9882,442.7652,1,1,1.2611,,0,15,15,25,1,REAL,FAKE,,,,,,,,,,,,,,,,,
,,,,,,,,,5bf289cc17a7de0001cf52f0,Spanish,younger than 13,"yes, I am fluent in another language",no,2025-07-24_01h49.51.091,empathy_intonation_perc_control,2024.2.4,Win32,142.8571429,5bf289cc17a7de0001cf52f0,68817205a84113384fffdfe3,6881c9630abe584b8f24da04,,,,,,,,,,,,,1,,,,,,,,,,,,,,,,,,,,,,,,,,,,,,,,,,,,,44,cuchara,,,,,442.7657,444.3208,1,1,1.0399,,0,16,16,43,1,REAL,FAKE,,,,,,,,,,,,,,,,,
,,,,,,,,,5bf289cc17a7de0001cf52f0,Spanish,younger than 13,"yes, I am fluent in another language",no,2025-07-24_01h49.51.091,empathy_intonation_perc_control,2024.2.4,Win32,142.8571429,5bf289cc17a7de0001cf52f0,68817205a84113384fffdfe3,6881c9630abe584b8f24da04,,,,,,,,,,,,,0,,,,,,,,,,,,,,,,,,,,,,,,,,,,,,,,,,,,,53,vegada,,,,,444.3213,445.6889,0,1,0.8541,,0,17,17,52,1,REAL,FAKE,,,,,,,,,,,,,,,,,
,,,,,,,,,5bf289cc17a7de0001cf52f0,Spanish,younger than 13,"yes, I am fluent in another language",no,2025-07-24_01h49.51.091,empathy_intonation_perc_control,2024.2.4,Win32,142.8571429,5bf289cc17a7de0001cf52f0,68817205a84113384fffdfe3,6881c9630abe584b8f24da04,,,,,,,,,,,,,1,,,,,,,,,,,,,,,,,,,,,,,,,,,,,,,,,,,,,65,bizcocho,,,,,445.6897,447.5779,1,1,1.3746,,0,18,18,64,1,REAL,FAKE,,,,,,,,,,,,,,,,,
,,,,,,,,,5bf289cc17a7de0001cf52f0,Spanish,younger than 13,"yes, I am fluent in another language",no,2025-07-24_01h49.51.091,empathy_intonation_perc_control,2024.2.4,Win32,142.8571429,5bf289cc17a7de0001cf52f0,68817205a84113384fffdfe3,6881c9630abe584b8f24da04,,,,,,,,,,,,,0,,,,,,,,,,,,,,,,,,,,,,,,,,,,,,,,,,,,,1,terzo,,,,,447.5787,449.0363,0,1,0.9454,,0,19,19,0,1,REAL,FAKE,,,,,,,,,,,,,,,,,
,,,,,,,,,5bf289cc17a7de0001cf52f0,Spanish,younger than 13,"yes, I am fluent in another language",no,2025-07-24_01h49.51.091,empathy_intonation_perc_control,2024.2.4,Win32,142.8571429,5bf289cc17a7de0001cf52f0,68817205a84113384fffdfe3,6881c9630abe584b8f24da04,,,,,,,,,,,,,1,,,,,,,,,,,,,,,,,,,,,,,,,,,,,,,,,,,,,45,jilguero,,,,,449.0371,450.7168,0,0,1.1655,,0,20,20,44,1,REAL,FAKE,,,,,,,,,,,,,,,,,
,,,,,,,,,5bf289cc17a7de0001cf52f0,Spanish,younger than 13,"yes, I am fluent in another language",no,2025-07-24_01h49.51.091,empathy_intonation_perc_control,2024.2.4,Win32,142.8571429,5bf289cc17a7de0001cf52f0,68817205a84113384fffdfe3,6881c9630abe584b8f24da04,,,,,,,,,,,,,1,,,,,,,,,,,,,,,,,,,,,,,,,,,,,,,,,,,,,13,helar,,,,,450.7173,452.4948,0,0,1.2566,,0,21,21,12,1,REAL,FAKE,,,,,,,,,,,,,,,,,
,,,,,,,,,5bf289cc17a7de0001cf52f0,Spanish,younger than 13,"yes, I am fluent in another language",no,2025-07-24_01h49.51.091,empathy_intonation_perc_control,2024.2.4,Win32,142.8571429,5bf289cc17a7de0001cf52f0,68817205a84113384fffdfe3,6881c9630abe584b8f24da04,,,,,,,,,,,,,1,,,,,,,,,,,,,,,,,,,,,,,,,,,,,,,,,,,,,64,orgulloso,,,,,452.4956,453.8351,1,1,0.8191,,0,22,22,63,1,REAL,FAKE,,,,,,,,,,,,,,,,,
,,,,,,,,,5bf289cc17a7de0001cf52f0,Spanish,younger than 13,"yes, I am fluent in another language",no,2025-07-24_01h49.51.091,empathy_intonation_perc_control,2024.2.4,Win32,142.8571429,5bf289cc17a7de0001cf52f0,68817205a84113384fffdfe3,6881c9630abe584b8f24da04,,,,,,,,,,,,,0,,,,,,,,,,,,,,,,,,,,,,,,,,,,,,,,,,,,,74,cintro,,,,,453.8356,455.2101,1,0,0.8574,,0,23,23,73,1,REAL,FAKE,,,,,,,,,,,,,,,,,
,,,,,,,,,5bf289cc17a7de0001cf52f0,Spanish,younger than 13,"yes, I am fluent in another language",no,2025-07-24_01h49.51.091,empathy_intonation_perc_control,2024.2.4,Win32,142.8571429,5bf289cc17a7de0001cf52f0,68817205a84113384fffdfe3,6881c9630abe584b8f24da04,,,,,,,,,,,,,0,,,,,,,,,,,,,,,,,,,,,,,,,,,,,,,,,,,,,58,plaudir,,,,,455.2109,456.5672,0,1,0.8479,,0,24,24,57,1,REAL,FAKE,,,,,,,,,,,,,,,,,
,,,,,,,,,5bf289cc17a7de0001cf52f0,Spanish,younger than 13,"yes, I am fluent in another language",no,2025-07-24_01h49.51.091,empathy_intonation_perc_control,2024.2.4,Win32,142.8571429,5bf289cc17a7de0001cf52f0,68817205a84113384fffdfe3,6881c9630abe584b8f24da04,,,,,,,,,,,,,1,,,,,,,,,,,,,,,,,,,,,,,,,,,,,,,,,,,,,80,hormiga,,,,,456.5684,458.456,0,0,1.3753,,0,25,25,79,1,REAL,FAKE,,,,,,,,,,,,,,,,,
,,,,,,,,,5bf289cc17a7de0001cf52f0,Spanish,younger than 13,"yes, I am fluent in another language",no,2025-07-24_01h49.51.091,empathy_intonation_perc_control,2024.2.4,Win32,142.8571429,5bf289cc17a7de0001cf52f0,68817205a84113384fffdfe3,6881c9630abe584b8f24da04,,,,,,,,,,,,,1,,,,,,,,,,,,,,,,,,,,,,,,,,,,,,,,,,,,,55,nevar,,,,,458.4565,460.523,1,1,1.5533,,0,26,26,54,1,REAL,FAKE,,,,,,,,,,,,,,,,,
,,,,,,,,,5bf289cc17a7de0001cf52f0,Spanish,younger than 13,"yes, I am fluent in another language",no,2025-07-24_01h49.51.091,empathy_intonation_perc_control,2024.2.4,Win32,142.8571429,5bf289cc17a7de0001cf52f0,68817205a84113384fffdfe3,6881c9630abe584b8f24da04,,,,,,,,,,,,,1,,,,,,,,,,,,,,,,,,,,,,,,,,,,,,,,,,,,,5,zapato,,,,,460.5237,462.0508,1,1,1.0085,,0,27,27,4,1,REAL,FAKE,,,,,,,,,,,,,,,,,
,,,,,,,,,5bf289cc17a7de0001cf52f0,Spanish,younger than 13,"yes, I am fluent in another language",no,2025-07-24_01h49.51.091,empathy_intonation_perc_control,2024.2.4,Win32,142.8571429,5bf289cc17a7de0001cf52f0,68817205a84113384fffdfe3,6881c9630abe584b8f24da04,,,,,,,,,,,,,1,,,,,,,,,,,,,,,,,,,,,,,,,,,,,,,,,,,,,49,ganar,,,,,462.0515,463.469,1,1,0.9017,,0,28,28,48,1,REAL,FAKE,,,,,,,,,,,,,,,,,
,,,,,,,,,5bf289cc17a7de0001cf52f0,Spanish,younger than 13,"yes, I am fluent in another language",no,2025-07-24_01h49.51.091,empathy_intonation_perc_control,2024.2.4,Win32,142.8571429,5bf289cc17a7de0001cf52f0,68817205a84113384fffdfe3,6881c9630abe584b8f24da04,,,,,,,,,,,,,0,,,,,,,,,,,,,,,,,,,,,,,,,,,,,,,,,,,,,23,lampera,,,,,463.4698,464.9882,1,0,0.9996,,0,29,29,22,1,REAL,FAKE,,,,,,,,,,,,,,,,,
,,,,,,,,,5bf289cc17a7de0001cf52f0,Spanish,younger than 13,"yes, I am fluent in another language",no,2025-07-24_01h49.51.091,empathy_intonation_perc_control,2024.2.4,Win32,142.8571429,5bf289cc17a7de0001cf52f0,68817205a84113384fffdfe3,6881c9630abe584b8f24da04,,,,,,,,,,,,,1,,,,,,,,,,,,,,,,,,,,,,,,,,,,,,,,,,,,,15,regar,,,,,464.9888,470.0025,1,1,4.493,,0,30,30,14,1,REAL,FAKE,,,,,,,,,,,,,,,,,
,,,,,,,,,5bf289cc17a7de0001cf52f0,Spanish,younger than 13,"yes, I am fluent in another language",no,2025-07-24_01h49.51.091,empathy_intonation_perc_control,2024.2.4,Win32,142.8571429,5bf289cc17a7de0001cf52f0,68817205a84113384fffdfe3,6881c9630abe584b8f24da04,,,,,,,,,,,,,0,,,,,,,,,,,,,,,,,,,,,,,,,,,,,,,,,,,,,8,cadeña,,,,,470.0037,471.9956,0,1,1.4721,,0,31,31,7,1,REAL,FAKE,,,,,,,,,,,,,,,,,
,,,,,,,,,5bf289cc17a7de0001cf52f0,Spanish,younger than 13,"yes, I am fluent in another language",no,2025-07-24_01h49.51.091,empathy_intonation_perc_control,2024.2.4,Win32,142.8571429,5bf289cc17a7de0001cf52f0,68817205a84113384fffdfe3,6881c9630abe584b8f24da04,,,,,,,,,,,,,0,,,,,,,,,,,,,,,,,,,,,,,,,,,,,,,,,,,,,79,tropaje,,,,,471.9964,473.3289,0,1,0.8158,,0,32,32,78,1,REAL,FAKE,,,,,,,,,,,,,,,,,
,,,,,,,,,5bf289cc17a7de0001cf52f0,Spanish,younger than 13,"yes, I am fluent in another language",no,2025-07-24_01h49.51.091,empathy_intonation_perc_control,2024.2.4,Win32,142.8571429,5bf289cc17a7de0001cf52f0,68817205a84113384fffdfe3,6881c9630abe584b8f24da04,,,,,,,,,,,,,1,,,,,,,,,,,,,,,,,,,,,,,,,,,,,,,,,,,,,12,asesinato,,,,,473.3294,474.601,0,0,0.7557,,0,33,33,11,1,REAL,FAKE,,,,,,,,,,,,,,,,,
,,,,,,,,,5bf289cc17a7de0001cf52f0,Spanish,younger than 13,"yes, I am fluent in another language",no,2025-07-24_01h49.51.091,empathy_intonation_perc_control,2024.2.4,Win32,142.8571429,5bf289cc17a7de0001cf52f0,68817205a84113384fffdfe3,6881c9630abe584b8f24da04,,,,,,,,,,,,,1,,,,,,,,,,,,,,,,,,,,,,,,,,,,,,,,,,,,,54,fomentar,,,,,474.6016,476.3707,0,0,1.2498,,0,34,34,53,1,REAL,FAKE,,,,,,,,,,,,,,,,,
,,,,,,,,,5bf289cc17a7de0001cf52f0,Spanish,younger than 13,"yes, I am fluent in another language",no,2025-07-24_01h49.51.091,empathy_intonation_perc_control,2024.2.4,Win32,142.8571429,5bf289cc17a7de0001cf52f0,68817205a84113384fffdfe3,6881c9630abe584b8f24da04,,,,,,,,,,,,,0,,,,,,,,,,,,,,,,,,,,,,,,,,,,,,,,,,,,,70,temblo,,,,,476.3714,477.8013,0,1,0.9202,,0,35,35,69,1,REAL,FAKE,,,,,,,,,,,,,,,,,
,,,,,,,,,5bf289cc17a7de0001cf52f0,Spanish,younger than 13,"yes, I am fluent in another language",no,2025-07-24_01h49.51.091,empathy_intonation_perc_control,2024.2.4,Win32,142.8571429,5bf289cc17a7de0001cf52f0,68817205a84113384fffdfe3,6881c9630abe584b8f24da04,,,,,,,,,,,,,1,,,,,,,,,,,,,,,,,,,,,,,,,,,,,,,,,,,,,81,pozo,,,,,477.8018,479.1903,0,0,0.8723,,0,36,36,80,1,REAL,FAKE,,,,,,,,,,,,,,,,,
,,,,,,,,,5bf289cc17a7de0001cf52f0,Spanish,younger than 13,"yes, I am fluent in another language",no,2025-07-24_01h49.51.091,empathy_intonation_perc_control,2024.2.4,Win32,142.8571429,5bf289cc17a7de0001cf52f0,68817205a84113384fffdfe3,6881c9630abe584b8f24da04,,,,,,,,,,,,,0,,,,,,,,,,,,,,,,,,,,,,,,,,,,,,,,,,,,,21,capillo,,,,,479.1909,482.1279,1,0,2.4166,,0,37,37,20,1,REAL,FAKE,,,,,,,,,,,,,,,,,
,,,,,,,,,5bf289cc17a7de0001cf52f0,Spanish,younger than 13,"yes, I am fluent in another language",no,2025-07-24_01h49.51.091,empathy_intonation_perc_control,2024.2.4,Win32,142.8571429,5bf289cc17a7de0001cf52f0,68817205a84113384fffdfe3,6881c9630abe584b8f24da04,,,,,,,,,,,,,1,,,,,,,,,,,,,,,,,,,,,,,,,,,,,,,,,,,,,22,lacayo,,,,,482.1285,483.4057,0,0,0.7598,,0,38,38,21,1,REAL,FAKE,,,,,,,,,,,,,,,,,
,,,,,,,,,5bf289cc17a7de0001cf52f0,Spanish,younger than 13,"yes, I am fluent in another language",no,2025-07-24_01h49.51.091,empathy_intonation_perc_control,2024.2.4,Win32,142.8571429,5bf289cc17a7de0001cf52f0,68817205a84113384fffdfe3,6881c9630abe584b8f24da04,,,,,,,,,,,,,1,,,,,,,,,,,,,,,,,,,,,,,,,,,,,,,,,,,,,2,pellizcar,,,,,483.4065,485.4752,1,1,1.5516,,0,39,39,1,1,REAL,FAKE,,,,,,,,,,,,,,,,,
,,,,,,,,,5bf289cc17a7de0001cf52f0,Spanish,younger than 13,"yes, I am fluent in another language",no,2025-07-24_01h49.51.091,empathy_intonation_perc_control,2024.2.4,Win32,142.8571429,5bf289cc17a7de0001cf52f0,68817205a84113384fffdfe3,6881c9630abe584b8f24da04,,,,,,,,,,,,,1,,,,,,,,,,,,,,,,,,,,,,,,,,,,,,,,,,,,,56,musgo,,,,,485.476,487.1975,0,0,1.2053,,0,40,40,55,1,REAL,FAKE,,,,,,,,,,,,,,,,,
,,,,,,,,,5bf289cc17a7de0001cf52f0,Spanish,younger than 13,"yes, I am fluent in another language",no,2025-07-24_01h49.51.091,empathy_intonation_perc_control,2024.2.4,Win32,142.8571429,5bf289cc17a7de0001cf52f0,68817205a84113384fffdfe3,6881c9630abe584b8f24da04,,,,,,,,,,,,,1,,,,,,,,,,,,,,,,,,,,,,,,,,,,,,,,,,,,,6,tergiversar,,,,,487.1984,488.4852,0,0,0.7711,,0,41,41,5,1,REAL,FAKE,,,,,,,,,,,,,,,,,
,,,,,,,,,5bf289cc17a7de0001cf52f0,Spanish,younger than 13,"yes, I am fluent in another language",no,2025-07-24_01h49.51.091,empathy_intonation_perc_control,2024.2.4,Win32,142.8571429,5bf289cc17a7de0001cf52f0,68817205a84113384fffdfe3,6881c9630abe584b8f24da04,,,,,,,,,,,,,1,,,,,,,,,,,,,,,,,,,,,,,,,,,,,,,,,,,,,89,prisa,,,,,488.486,489.8435,1,1,0.8404,,0,42,42,88,1,REAL,FAKE,,,,,,,,,,,,,,,,,
,,,,,,,,,5bf289cc17a7de0001cf52f0,Spanish,younger than 13,"yes, I am fluent in another language",no,2025-07-24_01h49.51.091,empathy_intonation_perc_control,2024.2.4,Win32,142.8571429,5bf289cc17a7de0001cf52f0,68817205a84113384fffdfe3,6881c9630abe584b8f24da04,,,,,,,,,,,,,1,,,,,,,,,,,,,,,,,,,,,,,,,,,,,,,,,,,,,28,merodear,,,,,489.8439,491.0589,0,0,0.6981,,0,43,43,27,1,REAL,FAKE,,,,,,,,,,,,,,,,,
,,,,,,,,,5bf289cc17a7de0001cf52f0,Spanish,younger than 13,"yes, I am fluent in another language",no,2025-07-24_01h49.51.091,empathy_intonation_perc_control,2024.2.4,Win32,142.8571429,5bf289cc17a7de0001cf52f0,68817205a84113384fffdfe3,6881c9630abe584b8f24da04,,,,,,,,,,,,,0,,,,,,,,,,,,,,,,,,,,,,,,,,,,,,,,,,,,,4,batillón,,,,,491.0596,493.3158,0,1,1.7468,,0,44,44,3,1,REAL,FAKE,,,,,,,,,,,,,,,,,
,,,,,,,,,5bf289cc17a7de0001cf52f0,Spanish,younger than 13,"yes, I am fluent in another language",no,2025-07-24_01h49.51.091,empathy_intonation_perc_control,2024.2.4,Win32,142.8571429,5bf289cc17a7de0001cf52f0,68817205a84113384fffdfe3,6881c9630abe584b8f24da04,,,,,,,,,,,,,1,,,,,,,,,,,,,,,,,,,,,,,,,,,,,,,,,,,,,37,granuja,,,,,493.3167,494.6701,1,1,0.833,,0,45,45,36,1,REAL,FAKE,,,,,,,,,,,,,,,,,
,,,,,,,,,5bf289cc17a7de0001cf52f0,Spanish,younger than 13,"yes, I am fluent in another language",no,2025-07-24_01h49.51.091,empathy_intonation_perc_control,2024.2.4,Win32,142.8571429,5bf289cc17a7de0001cf52f0,68817205a84113384fffdfe3,6881c9630abe584b8f24da04,,,,,,,,,,,,,0,,,,,,,,,,,,,,,,,,,,,,,,,,,,,,,,,,,,,30,alardio,,,,,494.6708,496.2604,0,1,1.0734,,0,46,46,29,1,REAL,FAKE,,,,,,,,,,,,,,,,,
,,,,,,,,,5bf289cc17a7de0001cf52f0,Spanish,younger than 13,"yes, I am fluent in another language",no,2025-07-24_01h49.51.091,empathy_intonation_perc_control,2024.2.4,Win32,142.8571429,5bf289cc17a7de0001cf52f0,68817205a84113384fffdfe3,6881c9630abe584b8f24da04,,,,,,,,,,,,,1,,,,,,,,,,,,,,,,,,,,,,,,,,,,,,,,,,,,,3,pulmones,,,,,496.2615,497.684,0,0,0.904,,0,47,47,2,1,REAL,FAKE,,,,,,,,,,,,,,,,,
,,,,,,,,,5bf289cc17a7de0001cf52f0,Spanish,younger than 13,"yes, I am fluent in another language",no,2025-07-24_01h49.51.091,empathy_intonation_perc_control,2024.2.4,Win32,142.8571429,5bf289cc17a7de0001cf52f0,68817205a84113384fffdfe3,6881c9630abe584b8f24da04,,,,,,,,,,,,,1,,,,,,,,,,,,,,,,,,,,,,,,,,,,,,,,,,,,,75,yacer,,,,,497.6847,498.8301,0,0,0.6252,,0,48,48,74,1,REAL,FAKE,,,,,,,,,,,,,,,,,
,,,,,,,,,5bf289cc17a7de0001cf52f0,Spanish,younger than 13,"yes, I am fluent in another language",no,2025-07-24_01h49.51.091,empathy_intonation_perc_control,2024.2.4,Win32,142.8571429,5bf289cc17a7de0001cf52f0,68817205a84113384fffdfe3,6881c9630abe584b8f24da04,,,,,,,,,,,,,1,,,,,,,,,,,,,,,,,,,,,,,,,,,,,,,,,,,,,69,engatusar,,,,,498.8309,501.0106,1,1,1.6603,,0,49,49,68,1,REAL,FAKE,,,,,,,,,,,,,,,,,
,,,,,,,,,5bf289cc17a7de0001cf52f0,Spanish,younger than 13,"yes, I am fluent in another language",no,2025-07-24_01h49.51.091,empathy_intonation_perc_control,2024.2.4,Win32,142.8571429,5bf289cc17a7de0001cf52f0,68817205a84113384fffdfe3,6881c9630abe584b8f24da04,,,,,,,,,,,,,1,,,,,,,,,,,,,,,,,,,,,,,,,,,,,,,,,,,,,51,candado,,,,,501.0111,502.4551,0,0,0.9268,,0,50,50,50,1,REAL,FAKE,,,,,,,,,,,,,,,,,
,,,,,,,,,5bf289cc17a7de0001cf52f0,Spanish,younger than 13,"yes, I am fluent in another language",no,2025-07-24_01h49.51.091,empathy_intonation_perc_control,2024.2.4,Win32,142.8571429,5bf289cc17a7de0001cf52f0,68817205a84113384fffdfe3,6881c9630abe584b8f24da04,,,,,,,,,,,,,1,,,,,,,,,,,,,,,,,,,,,,,,,,,,,,,,,,,,,41,rebuscar,,,,,502.4559,504.2538,1,1,1.2865,,0,51,51,40,1,REAL,FAKE,,,,,,,,,,,,,,,,,
,,,,,,,,,5bf289cc17a7de0001cf52f0,Spanish,younger than 13,"yes, I am fluent in another language",no,2025-07-24_01h49.51.091,empathy_intonation_perc_control,2024.2.4,Win32,142.8571429,5bf289cc17a7de0001cf52f0,68817205a84113384fffdfe3,6881c9630abe584b8f24da04,,,,,,,,,,,,,1,,,,,,,,,,,,,,,,,,,,,,,,,,,,,,,,,,,,,76,atar,,,,,504.2542,506.0386,0,0,1.2636,,0,52,52,75,1,REAL,FAKE,,,,,,,,,,,,,,,,,
,,,,,,,,,5bf289cc17a7de0001cf52f0,Spanish,younger than 13,"yes, I am fluent in another language",no,2025-07-24_01h49.51.091,empathy_intonation_perc_control,2024.2.4,Win32,142.8571429,5bf289cc17a7de0001cf52f0,68817205a84113384fffdfe3,6881c9630abe584b8f24da04,,,,,,,,,,,,,1,,,,,,,,,,,,,,,,,,,,,,,,,,,,,,,,,,,,,39,torpe,,,,,506.0391,507.1983,0,0,0.6416,,0,53,53,38,1,REAL,FAKE,,,,,,,,,,,,,,,,,
,,,,,,,,,5bf289cc17a7de0001cf52f0,Spanish,younger than 13,"yes, I am fluent in another language",no,2025-07-24_01h49.51.091,empathy_intonation_perc_control,2024.2.4,Win32,142.8571429,5bf289cc17a7de0001cf52f0,68817205a84113384fffdfe3,6881c9630abe584b8f24da04,,,,,,,,,,,,,0,,,,,,,,,,,,,,,,,,,,,,,,,,,,,,,,,,,,,92,click the 0 key.,,,,,507.1989,508.8373,0,1,1.1222,,0,54,54,91,1,REAL,FAKE,,,,,,,,,,,,,,,,,
,,,,,,,,,5bf289cc17a7de0001cf52f0,Spanish,younger than 13,"yes, I am fluent in another language",no,2025-07-24_01h49.51.091,empathy_intonation_perc_control,2024.2.4,Win32,142.8571429,5bf289cc17a7de0001cf52f0,68817205a84113384fffdfe3,6881c9630abe584b8f24da04,,,,,,,,,,,,,0,,,,,,,,,,,,,,,,,,,,,,,,,,,,,,,,,,,,,63,esposante,,,,,508.8381,510.3584,0,1,1.0002,,0,55,55,62,1,REAL,FAKE,,,,,,,,,,,,,,,,,
,,,,,,,,,5bf289cc17a7de0001cf52f0,Spanish,younger than 13,"yes, I am fluent in another language",no,2025-07-24_01h49.51.091,empathy_intonation_perc_control,2024.2.4,Win32,142.8571429,5bf289cc17a7de0001cf52f0,68817205a84113384fffdfe3,6881c9630abe584b8f24da04,,,,,,,,,,,,,1,,,,,,,,,,,,,,,,,,,,,,,,,,,,,,,,,,,,,48,ladrón,,,,,510.3592,512.3721,0,0,1.4972,,0,56,56,47,1,REAL,FAKE,,,,,,,,,,,,,,,,,
,,,,,,,,,5bf289cc17a7de0001cf52f0,Spanish,younger than 13,"yes, I am fluent in another language",no,2025-07-24_01h49.51.091,empathy_intonation_perc_control,2024.2.4,Win32,142.8571429,5bf289cc17a7de0001cf52f0,68817205a84113384fffdfe3,6881c9630abe584b8f24da04,,,,,,,,,,,,,1,,,,,,,,,,,,,,,,,,,,,,,,,,,,,,,,,,,,,57,tacaño,,,,,512.3726,514.0277,0,0,1.1392,,0,57,57,56,1,REAL,FAKE,,,,,,,,,,,,,,,,,
,,,,,,,,,5bf289cc17a7de0001cf52f0,Spanish,younger than 13,"yes, I am fluent in another language",no,2025-07-24_01h49.51.091,empathy_intonation_perc_control,2024.2.4,Win32,142.8571429,5bf289cc17a7de0001cf52f0,68817205a84113384fffdfe3,6881c9630abe584b8f24da04,,,,,,,,,,,,,1,,,,,,,,,,,,,,,,,,,,,,,,,,,,,,,,,,,,,25,bisagra,,,,,514.0283,515.4278,0,0,0.8829,,0,58,58,24,1,REAL,FAKE,,,,,,,,,,,,,,,,,
,,,,,,,,,5bf289cc17a7de0001cf52f0,Spanish,younger than 13,"yes, I am fluent in another language",no,2025-07-24_01h49.51.091,empathy_intonation_perc_control,2024.2.4,Win32,142.8571429,5bf289cc17a7de0001cf52f0,68817205a84113384fffdfe3,6881c9630abe584b8f24da04,,,,,,,,,,,,,1,,,,,,,,,,,,,,,,,,,,,,,,,,,,,,,,,,,,,83,guante,,,,,515.4287,517.2265,0,0,1.2797,,0,59,59,82,1,REAL,FAKE,,,,,,,,,,,,,,,,,
,,,,,,,,,5bf289cc17a7de0001cf52f0,Spanish,younger than 13,"yes, I am fluent in another language",no,2025-07-24_01h49.51.091,empathy_intonation_perc_control,2024.2.4,Win32,142.8571429,5bf289cc17a7de0001cf52f0,68817205a84113384fffdfe3,6881c9630abe584b8f24da04,,,,,,,,,,,,,0,,,,,,,,,,,,,,,,,,,,,,,,,,,,,,,,,,,,,27,acutación,,,,,517.2273,520.1642,0,1,2.4281,,0,60,60,26,1,REAL,FAKE,,,,,,,,,,,,,,,,,
,,,,,,,,,5bf289cc17a7de0001cf52f0,Spanish,younger than 13,"yes, I am fluent in another language",no,2025-07-24_01h49.51.091,empathy_intonation_perc_control,2024.2.4,Win32,142.8571429,5bf289cc17a7de0001cf52f0,68817205a84113384fffdfe3,6881c9630abe584b8f24da04,,,,,,,,,,,,,0,,,,,,,,,,,,,,,,,,,,,,,,,,,,,,,,,,,,,35,rompido,,,,,520.1647,523.0879,0,1,2.4053,,0,61,61,34,1,REAL,FAKE,,,,,,,,,,,,,,,,,
,,,,,,,,,5bf289cc17a7de0001cf52f0,Spanish,younger than 13,"yes, I am fluent in another language",no,2025-07-24_01h49.51.091,empathy_intonation_perc_control,2024.2.4,Win32,142.8571429,5bf289cc17a7de0001cf52f0,68817205a84113384fffdfe3,6881c9630abe584b8f24da04,,,,,,,,,,,,,1,,,,,,,,,,,,,,,,,,,,,,,,,,,,,,,,,,,,,78,frondoso,,,,,523.0884,524.7546,0,0,1.1485,,0,62,62,77,1,REAL,FAKE,,,,,,,,,,,,,,,,,
,,,,,,,,,5bf289cc17a7de0001cf52f0,Spanish,younger than 13,"yes, I am fluent in another language",no,2025-07-24_01h49.51.091,empathy_intonation_perc_control,2024.2.4,Win32,142.8571429,5bf289cc17a7de0001cf52f0,68817205a84113384fffdfe3,6881c9630abe584b8f24da04,,,,,,,,,,,,,1,,,,,,,,,,,,,,,,,,,,,,,,,,,,,,,,,,,,,59,besar,,,,,524.7554,526.1156,1,1,0.8495,,0,63,63,58,1,REAL,FAKE,,,,,,,,,,,,,,,,,
,,,,,,,,,5bf289cc17a7de0001cf52f0,Spanish,younger than 13,"yes, I am fluent in another language",no,2025-07-24_01h49.51.091,empathy_intonation_perc_control,2024.2.4,Win32,142.8571429,5bf289cc17a7de0001cf52f0,68817205a84113384fffdfe3,6881c9630abe584b8f24da04,,,,,,,,,,,,,1,,,,,,,,,,,,,,,,,,,,,,,,,,,,,,,,,,,,,52,camisa,,,,,526.1163,527.602,1,1,0.9698,,0,64,64,51,1,REAL,FAKE,,,,,,,,,,,,,,,,,
,,,,,,,,,5bf289cc17a7de0001cf52f0,Spanish,younger than 13,"yes, I am fluent in another language",no,2025-07-24_01h49.51.091,empathy_intonation_perc_control,2024.2.4,Win32,142.8571429,5bf289cc17a7de0001cf52f0,68817205a84113384fffdfe3,6881c9630abe584b8f24da04,,,,,,,,,,,,,1,,,,,,,,,,,,,,,,,,,,,,,,,,,,,,,,,,,,,67,cabello,,,,,527.6028,529.2131,1,1,1.0939,,0,65,65,66,1,REAL,FAKE,,,,,,,,,,,,,,,,,
,,,,,,,,,5bf289cc17a7de0001cf52f0,Spanish,younger than 13,"yes, I am fluent in another language",no,2025-07-24_01h49.51.091,empathy_intonation_perc_control,2024.2.4,Win32,142.8571429,5bf289cc17a7de0001cf52f0,68817205a84113384fffdfe3,6881c9630abe584b8f24da04,,,,,,,,,,,,,0,,,,,,,,,,,,,,,,,,,,,,,,,,,,,,,,,,,,,72,pemición,,,,,529.2136,530.7549,0,1,1.0235,,0,66,66,71,1,REAL,FAKE,,,,,,,,,,,,,,,,,
,,,,,,,,,5bf289cc17a7de0001cf52f0,Spanish,younger than 13,"yes, I am fluent in another language",no,2025-07-24_01h49.51.091,empathy_intonation_perc_control,2024.2.4,Win32,142.8571429,5bf289cc17a7de0001cf52f0,68817205a84113384fffdfe3,6881c9630abe584b8f24da04,,,,,,,,,,,,,1,,,,,,,,,,,,,,,,,,,,,,,,,,,,,,,,,,,,,36,loro,,,,,530.7556,532.1508,0,0,0.8768,,0,67,67,35,1,REAL,FAKE,,,,,,,,,,,,,,,,,
,,,,,,,,,5bf289cc17a7de0001cf52f0,Spanish,younger than 13,"yes, I am fluent in another language",no,2025-07-24_01h49.51.091,empathy_intonation_perc_control,2024.2.4,Win32,142.8571429,5bf289cc17a7de0001cf52f0,68817205a84113384fffdfe3,6881c9630abe584b8f24da04,,,,,,,,,,,,,0,,,,,,,,,,,,,,,,,,,,,,,,,,,,,,,,,,,,,82,empirador,,,,,532.1515,533.5813,0,1,0.9092,,0,68,68,81,1,REAL,FAKE,,,,,,,,,,,,,,,,,
,,,,,,,,,5bf289cc17a7de0001cf52f0,Spanish,younger than 13,"yes, I am fluent in another language",no,2025-07-24_01h49.51.091,empathy_intonation_perc_control,2024.2.4,Win32,142.8571429,5bf289cc17a7de0001cf52f0,68817205a84113384fffdfe3,6881c9630abe584b8f24da04,,,,,,,,,,,,,0,,,,,,,,,,,,,,,,,,,,,,,,,,,,,,,,,,,,,19,brecedad,,,,,533.5819,534.8105,0,1,0.7121,,0,69,69,18,1,REAL,FAKE,,,,,,,,,,,,,,,,,
,,,,,,,,,5bf289cc17a7de0001cf52f0,Spanish,younger than 13,"yes, I am fluent in another language",no,2025-07-24_01h49.51.091,empathy_intonation_perc_control,2024.2.4,Win32,142.8571429,5bf289cc17a7de0001cf52f0,68817205a84113384fffdfe3,6881c9630abe584b8f24da04,,,,,,,,,,,,,1,,,,,,,,,,,,,,,,,,,,,,,,,,,,,,,,,,,,,46,martillo,,,,,534.811,537.5537,0,0,2.2229,,0,70,70,45,1,REAL,FAKE,,,,,,,,,,,,,,,,,
,,,,,,,,,5bf289cc17a7de0001cf52f0,Spanish,younger than 13,"yes, I am fluent in another language",no,2025-07-24_01h49.51.091,empathy_intonation_perc_control,2024.2.4,Win32,142.8571429,5bf289cc17a7de0001cf52f0,68817205a84113384fffdfe3,6881c9630abe584b8f24da04,,,,,,,,,,,,,0,,,,,,,,,,,,,,,,,,,,,,,,,,,,,,,,,,,,,87,grodo,,,,,537.5542,538.9565,0,1,0.8853,,0,71,71,86,1,REAL,FAKE,,,,,,,,,,,,,,,,,
,,,,,,,,,5bf289cc17a7de0001cf52f0,Spanish,younger than 13,"yes, I am fluent in another language",no,2025-07-24_01h49.51.091,empathy_intonation_perc_control,2024.2.4,Win32,142.8571429,5bf289cc17a7de0001cf52f0,68817205a84113384fffdfe3,6881c9630abe584b8f24da04,,,,,,,,,,,,,0,,,,,,,,,,,,,,,,,,,,,,,,,,,,,,,,,,,,,16,abracer,,,,,538.9573,540.8803,0,1,1.4041,,0,72,72,15,1,REAL,FAKE,,,,,,,,,,,,,,,,,
,,,,,,,,,5bf289cc17a7de0001cf52f0,Spanish,younger than 13,"yes, I am fluent in another language",no,2025-07-24_01h49.51.091,empathy_intonation_perc_control,2024.2.4,Win32,142.8571429,5bf289cc17a7de0001cf52f0,68817205a84113384fffdfe3,6881c9630abe584b8f24da04,,,,,,,,,,,,,1,,,,,,,,,,,,,,,,,,,,,,,,,,,,,,,,,,,,,73,hervidor,,,,,540.881,542.1442,0,0,0.7462,,0,73,73,72,1,REAL,FAKE,,,,,,,,,,,,,,,,,
,,,,,,,,,5bf289cc17a7de0001cf52f0,Spanish,younger than 13,"yes, I am fluent in another language",no,2025-07-24_01h49.51.091,empathy_intonation_perc_control,2024.2.4,Win32,142.8571429,5bf289cc17a7de0001cf52f0,68817205a84113384fffdfe3,6881c9630abe584b8f24da04,,,,,,,,,,,,,0,,,,,,,,,,,,,,,,,,,,,,,,,,,,,,,,,,,,,10,antar,,,,,542.1447,543.5123,0,1,0.8519,,0,74,74,9,1,REAL,FAKE,,,,,,,,,,,,,,,,,
,,,,,,,,,5bf289cc17a7de0001cf52f0,Spanish,younger than 13,"yes, I am fluent in another language",no,2025-07-24_01h49.51.091,empathy_intonation_perc_control,2024.2.4,Win32,142.8571429,5bf289cc17a7de0001cf52f0,68817205a84113384fffdfe3,6881c9630abe584b8f24da04,,,,,,,,,,,,,0,,,,,,,,,,,,,,,,,,,,,,,,,,,,,,,,,,,,,66,hacido,,,,,543.513,544.9429,1,0,0.9101,,0,75,75,65,1,REAL,FAKE,,,,,,,,,,,,,,,,,
,,,,,,,,,5bf289cc17a7de0001cf52f0,Spanish,younger than 13,"yes, I am fluent in another language",no,2025-07-24_01h49.51.091,empathy_intonation_perc_control,2024.2.4,Win32,142.8571429,5bf289cc17a7de0001cf52f0,68817205a84113384fffdfe3,6881c9630abe584b8f24da04,,,,,,,,,,,,,0,,,,,,,,,,,,,,,,,,,,,,,,,,,,,,,,,,,,,29,decar,,,,,544.9433,546.8388,1,0,1.3788,,0,76,76,28,1,REAL,FAKE,,,,,,,,,,,,,,,,,
,,,,,,,,,5bf289cc17a7de0001cf52f0,Spanish,younger than 13,"yes, I am fluent in another language",no,2025-07-24_01h49.51.091,empathy_intonation_perc_control,2024.2.4,Win32,142.8571429,5bf289cc17a7de0001cf52f0,68817205a84113384fffdfe3,6881c9630abe584b8f24da04,,,,,,,,,,,,,1,,,,,,,,,,,,,,,,,,,,,,,,,,,,,,,,,,,,,34,aviso,,,,,546.8396,548.6514,1,1,1.2984,,0,77,77,33,1,REAL,FAKE,,,,,,,,,,,,,,,,,
,,,,,,,,,5bf289cc17a7de0001cf52f0,Spanish,younger than 13,"yes, I am fluent in another language",no,2025-07-24_01h49.51.091,empathy_intonation_perc_control,2024.2.4,Win32,142.8571429,5bf289cc17a7de0001cf52f0,68817205a84113384fffdfe3,6881c9630abe584b8f24da04,,,,,,,,,,,,,1,,,,,,,,,,,,,,,,,,,,,,,,,,,,,,,,,,,,,11,cenefa,,,,,548.6518,550.0056,0,0,0.8331,,0,78,78,10,1,REAL,FAKE,,,,,,,,,,,,,,,,,
,,,,,,,,,5bf289cc17a7de0001cf52f0,Spanish,younger than 13,"yes, I am fluent in another language",no,2025-07-24_01h49.51.091,empathy_intonation_perc_control,2024.2.4,Win32,142.8571429,5bf289cc17a7de0001cf52f0,68817205a84113384fffdfe3,6881c9630abe584b8f24da04,,,,,,,,,,,,,1,,,,,,,,,,,,,,,,,,,,,,,,,,,,,,,,,,,,,86,barato,,,,,550.0065,552.0611,1,1,1.5387,,0,79,79,85,1,REAL,FAKE,,,,,,,,,,,,,,,,,
,,,,,,,,,5bf289cc17a7de0001cf52f0,Spanish,younger than 13,"yes, I am fluent in another language",no,2025-07-24_01h49.51.091,empathy_intonation_perc_control,2024.2.4,Win32,142.8571429,5bf289cc17a7de0001cf52f0,68817205a84113384fffdfe3,6881c9630abe584b8f24da04,,,,,,,,,,,,,0,,,,,,,,,,,,,,,,,,,,,,,,,,,,,,,,,,,,,50,flamida,,,,,552.0618,553.5405,0,1,0.9613,,0,80,80,49,1,REAL,FAKE,,,,,,,,,,,,,,,,,
,,,,,,,,,5bf289cc17a7de0001cf52f0,Spanish,younger than 13,"yes, I am fluent in another language",no,2025-07-24_01h49.51.091,empathy_intonation_perc_control,2024.2.4,Win32,142.8571429,5bf289cc17a7de0001cf52f0,68817205a84113384fffdfe3,6881c9630abe584b8f24da04,,,,,,,,,,,,,1,,,,,,,,,,,,,,,,,,,,,,,,,,,,,,,,,,,,,85,laúd,,,,,553.5416,554.7071,0,0,0.65,,0,81,81,84,1,REAL,FAKE,,,,,,,,,,,,,,,,,
,,,,,,,,,5bf289cc17a7de0001cf52f0,Spanish,younger than 13,"yes, I am fluent in another language",no,2025-07-24_01h49.51.091,empathy_intonation_perc_control,2024.2.4,Win32,142.8571429,5bf289cc17a7de0001cf52f0,68817205a84113384fffdfe3,6881c9630abe584b8f24da04,,,,,,,,,,,,,1,,,,,,,,,,,,,,,,,,,,,,,,,,,,,,,,,,,,,60,matar,,,,,554.7077,556.0683,1,1,0.8492,,0,82,82,59,1,REAL,FAKE,,,,,,,,,,,,,,,,,
,,,,,,,,,5bf289cc17a7de0001cf52f0,Spanish,younger than 13,"yes, I am fluent in another language",no,2025-07-24_01h49.51.091,empathy_intonation_perc_control,2024.2.4,Win32,142.8571429,5bf289cc17a7de0001cf52f0,68817205a84113384fffdfe3,6881c9630abe584b8f24da04,,,,,,,,,,,,,1,,,,,,,,,,,,,,,,,,,,,,,,,,,,,,,,,,,,,40,alfombra,,,,,556.0689,558.7631,0,0,2.1858,,0,83,83,39,1,REAL,FAKE,,,,,,,,,,,,,,,,,
,,,,,,,,,5bf289cc17a7de0001cf52f0,Spanish,younger than 13,"yes, I am fluent in another language",no,2025-07-24_01h49.51.091,empathy_intonation_perc_control,2024.2.4,Win32,142.8571429,5bf289cc17a7de0001cf52f0,68817205a84113384fffdfe3,6881c9630abe584b8f24da04,,,,,,,,,,,,,1,,,,,,,,,,,,,,,,,,,,,,,,,,,,,,,,,,,,,71,polvoriento,,,,,558.7637,560.2144,0,0,0.9304,,0,84,84,70,1,REAL,FAKE,,,,,,,,,,,,,,,,,
,,,,,,,,,5bf289cc17a7de0001cf52f0,Spanish,younger than 13,"yes, I am fluent in another language",no,2025-07-24_01h49.51.091,empathy_intonation_perc_control,2024.2.4,Win32,142.8571429,5bf289cc17a7de0001cf52f0,68817205a84113384fffdfe3,6881c9630abe584b8f24da04,,,,,,,,,,,,,1,,,,,,,,,,,,,,,,,,,,,,,,,,,,,,,,,,,,,38,estornudar,,,,,560.2152,563.2909,0,0,2.5577,,0,85,85,37,1,REAL,FAKE,,,,,,,,,,,,,,,,,
,,,,,,,,,5bf289cc17a7de0001cf52f0,Spanish,younger than 13,"yes, I am fluent in another language",no,2025-07-24_01h49.51.091,empathy_intonation_perc_control,2024.2.4,Win32,142.8571429,5bf289cc17a7de0001cf52f0,68817205a84113384fffdfe3,6881c9630abe584b8f24da04,,,,,,,,,,,,,0,,,,,,,,,,,,,,,,,,,,,,,,,,,,,,,,,,,,,47,cartinar,,,,,563.2914,564.7353,0,1,0.9325,,0,86,86,46,1,REAL,FAKE,,,,,,,,,,,,,,,,,
,,,,,,,,,5bf289cc17a7de0001cf52f0,Spanish,younger than 13,"yes, I am fluent in another language",no,2025-07-24_01h49.51.091,empathy_intonation_perc_control,2024.2.4,Win32,142.8571429,5bf289cc17a7de0001cf52f0,68817205a84113384fffdfe3,6881c9630abe584b8f24da04,,,,,,,,,,,,,1,,,,,,,,,,,,,,,,,,,,,,,,,,,,,,,,,,,,,14,yunque,,,,,564.7359,565.9299,0,0,0.6781,,0,87,87,13,1,REAL,FAKE,,,,,,,,,,,,,,,,,
,,,,,,,,,5bf289cc17a7de0001cf52f0,Spanish,younger than 13,"yes, I am fluent in another language",no,2025-07-24_01h49.51.091,empathy_intonation_perc_control,2024.2.4,Win32,142.8571429,5bf289cc17a7de0001cf52f0,68817205a84113384fffdfe3,6881c9630abe584b8f24da04,,,,,,,,,,,,,1,,,,,,,,,,,,,,,,,,,,,,,,,,,,,,,,,,,,,61,seda,,,,,565.9304,568.3839,0,0,1.9381,,0,88,88,60,1,REAL,FAKE,,,,,,,,,,,,,,,,,
,,,,,,,,,5bf289cc17a7de0001cf52f0,Spanish,younger than 13,"yes, I am fluent in another language",no,2025-07-24_01h49.51.091,empathy_intonation_perc_control,2024.2.4,Win32,142.8571429,5bf289cc17a7de0001cf52f0,68817205a84113384fffdfe3,6881c9630abe584b8f24da04,,,,,,,,,,,,,1,,,,,,,,,,,,,,,,,,,,,,,,,,,,,,,,,,,,,43,canela,,,,,568.3845,569.7286,0,0,0.8304,,0,89,89,42,1,REAL,FAKE,,,,,,,,,,,,,,,,,
,,,,,,,,,5bf289cc17a7de0001cf52f0,Spanish,younger than 13,"yes, I am fluent in another language",no,2025-07-24_01h49.51.091,empathy_intonation_perc_control,2024.2.4,Win32,142.8571429,5bf289cc17a7de0001cf52f0,68817205a84113384fffdfe3,6881c9630abe584b8f24da04,,,,,,,,,,,,,1,,,,,,,,,,,,,,,,,,,,,,,,,,,,,,,,,,,,,88,acantilado,,,,,569.7294,572.7912,1,1,2.5438,,0,90,90,87,1,REAL,FAKE,,,,,,,,,,,,,,,,,
,,,,,,,,,5bf289cc17a7de0001cf52f0,Spanish,younger than 13,"yes, I am fluent in another language",no,2025-07-24_01h49.51.091,empathy_intonation_perc_control,2024.2.4,Win32,142.8571429,5bf289cc17a7de0001cf52f0,68817205a84113384fffdfe3,6881c9630abe584b8f24da04,,,,,,,,,,,,,1,,,,,,,,,,,,,,,,,,,,,,,,,,,,,,,,,,,,,7,pésimo,,,,,572.7917,574.4233,1,1,1.1144,,0,91,91,6,1,REAL,FAKE,,,,,,,,,,,,,,,,,
,,,,,,,,,5bf289cc17a7de0001cf52f0,Spanish,younger than 13,"yes, I am fluent in another language",no,2025-07-24_01h49.51.091,empathy_intonation_perc_control,2024.2.4,Win32,142.8571429,5bf289cc17a7de0001cf52f0,68817205a84113384fffdfe3,6881c9630abe584b8f24da04,,,,,,,,,,,,,,,,,,,,,,,,,,,,,,,,,,,,,,,,,,,,,,,,,,,,,,,,,,,,,,,,,,,,,574.4236,579.7432,,,,,,,,,,,,,,,
,,,,,,,,,5bf289cc17a7de0001cf52f0,Spanish,younger than 13,"yes, I am fluent in another language",no,2025-07-24_01h49.51.091,empathy_intonation_perc_control,2024.2.4,Win32,142.8571429,5bf289cc17a7de0001cf52f0,68817205a84113384fffdfe3,6881c9630abe584b8f24da04,,,,,,,,,,,,,,,,,,,,,,,,,,,1,,,,,,,,,,,,,,,,,,,,,,,,,,,,,,,,,,,,,,,,,,,,579.7497,586.2709,slightly agree,0,0,0,0,1,I can easily tell if someone else wants to enter a conversation.,1,0,1,0,,
,,,,,,,,,5bf289cc17a7de0001cf52f0,Spanish,younger than 13,"yes, I am fluent in another language",no,2025-07-24_01h49.51.091,empathy_intonation_perc_control,2024.2.4,Win32,142.8571429,5bf289cc17a7de0001cf52f0,68817205a84113384fffdfe3,6881c9630abe584b8f24da04,,,,,,,,,,,,,,,,,,,,,,,,,,,2,,,,,,,,,,,,,,,,,,,,,,,,,,,,,,,,,,,,,,,,,,,,586.272,624.4184,slightly disagree,0,1,1,1,1,I prefer animals to humans.,0,1,0,0,,
,,,,,,,,,5bf289cc17a7de0001cf52f0,Spanish,younger than 13,"yes, I am fluent in another language",no,2025-07-24_01h49.51.091,empathy_intonation_perc_control,2024.2.4,Win32,142.8571429,5bf289cc17a7de0001cf52f0,68817205a84113384fffdfe3,6881c9630abe584b8f24da04,,,,,,,,,,,,,,,,,,,,,,,,,,,3,,,,,,,,,,,,,,,,,,,,,,,,,,,,,,,,,,,,,,,,,,,,624.4193,631.8422,slightly agree,0,2,2,2,1,I try to keep up with the current trends and fashions.,0,1,0,0,,
,,,,,,,,,5bf289cc17a7de0001cf52f0,Spanish,younger than 13,"yes, I am fluent in another language",no,2025-07-24_01h49.51.091,empathy_intonation_perc_control,2024.2.4,Win32,142.8571429,5bf289cc17a7de0001cf52f0,68817205a84113384fffdfe3,6881c9630abe584b8f24da04,,,,,,,,,,,,,,,,,,,,,,,,,,,4,,,,,,,,,,,,,,,,,,,,,,,,,,,,,,,,,,,,,,,,,,,,631.8433,638.5022,slightly agree,0,3,3,3,1,"I find it difficult to explain to others things that I understand easily,   when they don't understand it first time.",1,0,0,1,,
,,,,,,,,,5bf289cc17a7de0001cf52f0,Spanish,younger than 13,"yes, I am fluent in another language",no,2025-07-24_01h49.51.091,empathy_intonation_perc_control,2024.2.4,Win32,142.8571429,5bf289cc17a7de0001cf52f0,68817205a84113384fffdfe3,6881c9630abe584b8f24da04,,,,,,,,,,,,,,,,,,,,,,,,,,,5,,,,,,,,,,,,,,,,,,,,,,,,,,,,,,,,,,,,,,,,,,,,638.5028,643.5997,strongly agree,0,4,4,4,1,I dream most nights.,0,1,0,0,,
,,,,,,,,,5bf289cc17a7de0001cf52f0,Spanish,younger than 13,"yes, I am fluent in another language",no,2025-07-24_01h49.51.091,empathy_intonation_perc_control,2024.2.4,Win32,142.8571429,5bf289cc17a7de0001cf52f0,68817205a84113384fffdfe3,6881c9630abe584b8f24da04,,,,,,,,,,,,,,,,,,,,,,,,,,,6,,,,,,,,,,,,,,,,,,,,,,,,,,,,,,,,,,,,,,,,,,,,643.6008,649.8221,strongly agree,0,5,5,5,1,I really enjoy caring for other people.,1,0,1,0,,
,,,,,,,,,5bf289cc17a7de0001cf52f0,Spanish,younger than 13,"yes, I am fluent in another language",no,2025-07-24_01h49.51.091,empathy_intonation_perc_control,2024.2.4,Win32,142.8571429,5bf289cc17a7de0001cf52f0,68817205a84113384fffdfe3,6881c9630abe584b8f24da04,,,,,,,,,,,,,,,,,,,,,,,,,,,7,,,,,,,,,,,,,,,,,,,,,,,,,,,,,,,,,,,,,,,,,,,,649.8229,656.3739,slightly agree,0,6,6,6,1,I try to solve my own problems rather than discussing them with others.,0,1,0,0,,
,,,,,,,,,5bf289cc17a7de0001cf52f0,Spanish,younger than 13,"yes, I am fluent in another language",no,2025-07-24_01h49.51.091,empathy_intonation_perc_control,2024.2.4,Win32,142.8571429,5bf289cc17a7de0001cf52f0,68817205a84113384fffdfe3,6881c9630abe584b8f24da04,,,,,,,,,,,,,,,,,,,,,,,,,,,8,,,,,,,,,,,,,,,,,,,,,,,,,,,,,,,,,,,,,,,,,,,,656.3745,659.496,slightly disagree,0,7,7,7,1,I find it hard to know what to do in a social situation.,1,0,0,1,,
,,,,,,,,,5bf289cc17a7de0001cf52f0,Spanish,younger than 13,"yes, I am fluent in another language",no,2025-07-24_01h49.51.091,empathy_intonation_perc_control,2024.2.4,Win32,142.8571429,5bf289cc17a7de0001cf52f0,68817205a84113384fffdfe3,6881c9630abe584b8f24da04,,,,,,,,,,,,,,,,,,,,,,,,,,,9,,,,,,,,,,,,,,,,,,,,,,,,,,,,,,,,,,,,,,,,,,,,659.4967,664.7115,strongly disagree,0,8,8,8,1,I am at my best first thing in the morning.,0,1,0,0,,
,,,,,,,,,5bf289cc17a7de0001cf52f0,Spanish,younger than 13,"yes, I am fluent in another language",no,2025-07-24_01h49.51.091,empathy_intonation_perc_control,2024.2.4,Win32,142.8571429,5bf289cc17a7de0001cf52f0,68817205a84113384fffdfe3,6881c9630abe584b8f24da04,,,,,,,,,,,,,,,,,,,,,,,,,,,10,,,,,,,,,,,,,,,,,,,,,,,,,,,,,,,,,,,,,,,,,,,,664.7124,671.276,slightly disagree,0,9,9,9,1,People often tell me that I went too far in driving my point home in a discussion.,1,0,0,1,,
,,,,,,,,,5bf289cc17a7de0001cf52f0,Spanish,younger than 13,"yes, I am fluent in another language",no,2025-07-24_01h49.51.091,empathy_intonation_perc_control,2024.2.4,Win32,142.8571429,5bf289cc17a7de0001cf52f0,68817205a84113384fffdfe3,6881c9630abe584b8f24da04,,,,,,,,,,,,,,,,,,,,,,,,,,,11,,,,,,,,,,,,,,,,,,,,,,,,,,,,,,,,,,,,,,,,,,,,671.2767,676.2262,slightly agree,0,10,10,10,1,It doesn't bother me too much if I am late meeting a friend.,1,0,0,1,,
,,,,,,,,,5bf289cc17a7de0001cf52f0,Spanish,younger than 13,"yes, I am fluent in another language",no,2025-07-24_01h49.51.091,empathy_intonation_perc_control,2024.2.4,Win32,142.8571429,5bf289cc17a7de0001cf52f0,68817205a84113384fffdfe3,6881c9630abe584b8f24da04,,,,,,,,,,,,,,,,,,,,,,,,,,,12,,,,,,,,,,,,,,,,,,,,,,,,,,,,,,,,,,,,,,,,,,,,676.2272,679.0385,strongly disagree,0,11,11,11,1,"Friendships and relationships are just too difficult, so I tend not to 
  bother with them.",1,0,0,1,,
,,,,,,,,,5bf289cc17a7de0001cf52f0,Spanish,younger than 13,"yes, I am fluent in another language",no,2025-07-24_01h49.51.091,empathy_intonation_perc_control,2024.2.4,Win32,142.8571429,5bf289cc17a7de0001cf52f0,68817205a84113384fffdfe3,6881c9630abe584b8f24da04,,,,,,,,,,,,,,,,,,,,,,,,,,,13,,,,,,,,,,,,,,,,,,,,,,,,,,,,,,,,,,,,,,,,,,,,679.0391,682.2214,slightly disagree,0,12,12,12,1,"I would never break a law, no matter how minor.",0,1,0,0,,
,,,,,,,,,5bf289cc17a7de0001cf52f0,Spanish,younger than 13,"yes, I am fluent in another language",no,2025-07-24_01h49.51.091,empathy_intonation_perc_control,2024.2.4,Win32,142.8571429,5bf289cc17a7de0001cf52f0,68817205a84113384fffdfe3,6881c9630abe584b8f24da04,,,,,,,,,,,,,,,,,,,,,,,,,,,14,,,,,,,,,,,,,,,,,,,,,,,,,,,,,,,,,,,,,,,,,,,,682.2221,698.0601,slightly disagree,0,13,13,13,1,I often find it difficult to judge if something is rude or polite.,1,0,0,1,,
,,,,,,,,,5bf289cc17a7de0001cf52f0,Spanish,younger than 13,"yes, I am fluent in another language",no,2025-07-24_01h49.51.091,empathy_intonation_perc_control,2024.2.4,Win32,142.8571429,5bf289cc17a7de0001cf52f0,68817205a84113384fffdfe3,6881c9630abe584b8f24da04,,,,,,,,,,,,,,,,,,,,,,,,,,,15,,,,,,,,,,,,,,,,,,,,,,,,,,,,,,,,,,,,,,,,,,,,698.0609,708.0118,slightly disagree,0,14,14,14,1,"In a conversation, I tend to focus on my own thoughts rather than on what 
  my listener might be thinking.",1,0,0,1,,
,,,,,,,,,5bf289cc17a7de0001cf52f0,Spanish,younger than 13,"yes, I am fluent in another language",no,2025-07-24_01h49.51.091,empathy_intonation_perc_control,2024.2.4,Win32,142.8571429,5bf289cc17a7de0001cf52f0,68817205a84113384fffdfe3,6881c9630abe584b8f24da04,,,,,,,,,,,,,,,,,,,,,,,,,,,16,,,,,,,,,,,,,,,,,,,,,,,,,,,,,,,,,,,,,,,,,,,,708.0124,712.6926,slightly disagree,0,15,15,15,1,I prefer practical jokes to verbal humor.,0,1,0,0,,
,,,,,,,,,5bf289cc17a7de0001cf52f0,Spanish,younger than 13,"yes, I am fluent in another language",no,2025-07-24_01h49.51.091,empathy_intonation_perc_control,2024.2.4,Win32,142.8571429,5bf289cc17a7de0001cf52f0,68817205a84113384fffdfe3,6881c9630abe584b8f24da04,,,,,,,,,,,,,,,,,,,,,,,,,,,17,,,,,,,,,,,,,,,,,,,,,,,,,,,,,,,,,,,,,,,,,,,,712.6932,717.3206,strongly agree,0,16,16,16,1,I live life for today rather than the future.,0,1,0,0,,
,,,,,,,,,5bf289cc17a7de0001cf52f0,Spanish,younger than 13,"yes, I am fluent in another language",no,2025-07-24_01h49.51.091,empathy_intonation_perc_control,2024.2.4,Win32,142.8571429,5bf289cc17a7de0001cf52f0,68817205a84113384fffdfe3,6881c9630abe584b8f24da04,,,,,,,,,,,,,,,,,,,,,,,,,,,18,,,,,,,,,,,,,,,,,,,,,,,,,,,,,,,,,,,,,,,,,,,,717.3214,720.2833,strongly disagree,0,17,17,17,1,"When I was a child, I enjoyed cutting up worms to see what would happen.",1,0,0,1,,
