instructions_2afc.started,instructions_2afc.stopped,instructions_2afc_loop.thisRepN,instructions_2afc_loop.thisTrialN,instructions_2afc_loop.thisN,instructions_2afc_loop.thisIndex,instructions_2afc_loop.ran,instructions_text,continue_text,participant_id,"What variety of Spanish are you most familiar with? (e.g., Peruvian, Spanish, Mexican)",At what age did you begin learning Spanish?,Are you proficient in any languages other than English/Spanish?,"Are you familiar with Caribbean (e.g., Caribbean, Puerto Rican) or Galician Spanish?",date,expName,psychopyVersion,OS,frameRate,id,study_id,session,practice_2afc.started,practice_2afc.stopped,key_resp_2afc_practice.keys,key_resp_2afc_practice.corr,key_resp_2afc_practice.rt,key_resp_2afc_practice.duration,trials_2afc_practice_loop.thisRepN,trials_2afc_practice_loop.thisTrialN,trials_2afc_practice_loop.thisN,trials_2afc_practice_loop.thisIndex,trials_2afc_practice_loop.ran,path,correct_response,check_2afc.started,check_2afc.stopped,trial_2afc.started,trial_2afc.stopped,key_resp_2afc_trial.keys,key_resp_2afc_trial.corr,key_resp_2afc_trial.rt,key_resp_2afc_trial.duration,trials_2afc_loop.thisRepN,trials_2afc_loop.thisTrialN,trials_2afc_loop.thisN,trials_2afc_loop.thisIndex,trials_2afc_loop.ran,item_num,target,variety,instructions_lextale.started,instructions_lextale.stopped,instructions_lextale_loop.thisRepN,instructions_lextale_loop.thisTrialN,instructions_lextale_loop.thisN,instructions_lextale_loop.thisIndex,instructions_lextale_loop.ran,practice_lextale.started,practice_lextale.stopped,key_resp_lextale_practice.keys,key_resp_lextale_practice.corr,key_resp_lextale_practice.rt,key_resp_lextale_practice.duration,practice_feedback_lextale.started,practice_feedback_lextale.stopped,trials_lextale_practice_loop.thisRepN,trials_lextale_practice_loop.thisTrialN,trials_lextale_practice_loop.thisN,trials_lextale_practice_loop.thisIndex,trials_lextale_practice_loop.ran,stim,word,prac_button_real,prac_button_false,check_lextale.started,check_lextale.stopped,trial_lextale.started,trial_lextale.stopped,key_resp_lextale_trial.keys,key_resp_lextale_trial.corr,key_resp_lextale_trial.rt,key_resp_lextale_trial.duration,trials_lextale_loop.thisRepN,trials_lextale_loop.thisTrialN,trials_lextale_loop.thisN,trials_lextale_loop.thisIndex,trials_lextale_loop.ran,button_real,button_false,instructions_eq.started,instructions_eq.stopped,trial_eq.started,trial_eq.stopped,slider_eq_trial.response,trials_eq_loop.thisRepN,trials_eq_loop.thisTrialN,trials_eq_loop.thisN,trials_eq_loop.thisIndex,trials_eq_loop.ran,item,is_test_item,is_distractor,is_agree_score,is_disagree_score,end_exp.started,end_exp.stopped
0.0149,8.0263,0,0,0,0,1,"In the following task you are going to hear a series of utterances. 

  You will decide if the utterances sound like questions or not using your keyboard.", (press the spacebar to continue),5c3630c83ce2c8000111b504,Spanish,13 or older,"no, only English or Spanish",no,2025-07-23_21h13.15.809,empathy_intonation_perc_control,2024.2.4,Win32,59.88023952,5c3630c83ce2c8000111b504,68817205a84113384fffdfe3,688188738fff0579ab95c8eb,,,,,,,,,,,,,,,,,,,,,,,,,,,,,,,,,,,,,,,,,,,,,,,,,,,,,,,,,,,,,,,,,,,,,,,,,,,,,,,,,,,,,
8.0274,15.7043,0,1,1,1,1,"If you believe the utterance is a question, type '1' (for 'yes') and if you do not 
  believe it is a question type '0' (for 'no').

  Let's practice a bit...", (press the spacebar to continue),5c3630c83ce2c8000111b504,Spanish,13 or older,"no, only English or Spanish",no,2025-07-23_21h13.15.809,empathy_intonation_perc_control,2024.2.4,Win32,59.88023952,5c3630c83ce2c8000111b504,68817205a84113384fffdfe3,688188738fff0579ab95c8eb,,,,,,,,,,,,,,,,,,,,,,,,,,,,,,,,,,,,,,,,,,,,,,,,,,,,,,,,,,,,,,,,,,,,,,,,,,,,,,,,,,,,,
,,,,,,,,,5c3630c83ce2c8000111b504,Spanish,13 or older,"no, only English or Spanish",no,2025-07-23_21h13.15.809,empathy_intonation_perc_control,2024.2.4,Win32,59.88023952,5c3630c83ce2c8000111b504,68817205a84113384fffdfe3,688188738fff0579ab95c8eb,15.7144,21.2529,1,1,5.017,,0,0,0,1,1,./stim/wavs/argentine_question_filler_Mi-vecino-habla-mucho.wav,1,,,,,,,,,,,,,,,,,,,,,,,,,,,,,,,,,,,,,,,,,,,,,,,,,,,,,,,,,,,,,,,,,,,,,,,,
,,,,,,,,,5c3630c83ce2c8000111b504,Spanish,13 or older,"no, only English or Spanish",no,2025-07-23_21h13.15.809,empathy_intonation_perc_control,2024.2.4,Win32,59.88023952,5c3630c83ce2c8000111b504,68817205a84113384fffdfe3,688188738fff0579ab95c8eb,21.2545,24.0514,0,0,2.2697,,0,1,1,2,1,./stim/wavs/chilean_question_filler_Mi-padre-cantaba-bien.wav,1,,,,,,,,,,,,,,,,,,,,,,,,,,,,,,,,,,,,,,,,,,,,,,,,,,,,,,,,,,,,,,,,,,,,,,,,
,,,,,,,,,5c3630c83ce2c8000111b504,Spanish,13 or older,"no, only English or Spanish",no,2025-07-23_21h13.15.809,empathy_intonation_perc_control,2024.2.4,Win32,59.88023952,5c3630c83ce2c8000111b504,68817205a84113384fffdfe3,688188738fff0579ab95c8eb,24.0526,26.7508,1,1,2.1748,,0,2,2,3,1,./stim/wavs/mexican_question_filler_Felipe-no-tiene-contrasena.wav,1,,,,,,,,,,,,,,,,,,,,,,,,,,,,,,,,,,,,,,,,,,,,,,,,,,,,,,,,,,,,,,,,,,,,,,,,
,,,,,,,,,5c3630c83ce2c8000111b504,Spanish,13 or older,"no, only English or Spanish",no,2025-07-23_21h13.15.809,empathy_intonation_perc_control,2024.2.4,Win32,59.88023952,5c3630c83ce2c8000111b504,68817205a84113384fffdfe3,688188738fff0579ab95c8eb,26.7515,29.1689,0,1,1.8946,,0,3,3,5,1,./stim/wavs/andalusian_statement_filler_Alberto-nunca-se-afeita.wav,0,,,,,,,,,,,,,,,,,,,,,,,,,,,,,,,,,,,,,,,,,,,,,,,,,,,,,,,,,,,,,,,,,,,,,,,,
,,,,,,,,,5c3630c83ce2c8000111b504,Spanish,13 or older,"no, only English or Spanish",no,2025-07-23_21h13.15.809,empathy_intonation_perc_control,2024.2.4,Win32,59.88023952,5c3630c83ce2c8000111b504,68817205a84113384fffdfe3,688188738fff0579ab95c8eb,29.1699,31.4142,0,1,1.7194,,0,4,4,4,1,./stim/wavs/cuban_statement_filler_Cocinabas-por-la-noche.wav,0,,,,,,,,,,,,,,,,,,,,,,,,,,,,,,,,,,,,,,,,,,,,,,,,,,,,,,,,,,,,,,,,,,,,,,,,
,,,,,,,,,5c3630c83ce2c8000111b504,Spanish,13 or older,"no, only English or Spanish",no,2025-07-23_21h13.15.809,empathy_intonation_perc_control,2024.2.4,Win32,59.88023952,5c3630c83ce2c8000111b504,68817205a84113384fffdfe3,688188738fff0579ab95c8eb,31.4157,34.0157,1,1,2.0772,,0,5,5,0,1,./stim/wavs/castilian_question_filler_Mi-esposo-conoce-al-chico.wav,1,,,,,,,,,,,,,,,,,,,,,,,,,,,,,,,,,,,,,,,,,,,,,,,,,,,,,,,,,,,,,,,,,,,,,,,,
,,,,,,,,,5c3630c83ce2c8000111b504,Spanish,13 or older,"no, only English or Spanish",no,2025-07-23_21h13.15.809,empathy_intonation_perc_control,2024.2.4,Win32,59.88023952,5c3630c83ce2c8000111b504,68817205a84113384fffdfe3,688188738fff0579ab95c8eb,34.0165,36.3948,0,1,1.8517,,0,6,6,7,1,./stim/wavs/puertorican_statement_filler_La-nina-pinta-con-su-amiga.wav,0,,,,,,,,,,,,,,,,,,,,,,,,,,,,,,,,,,,,,,,,,,,,,,,,,,,,,,,,,,,,,,,,,,,,,,,,
,,,,,,,,,5c3630c83ce2c8000111b504,Spanish,13 or older,"no, only English or Spanish",no,2025-07-23_21h13.15.809,empathy_intonation_perc_control,2024.2.4,Win32,59.88023952,5c3630c83ce2c8000111b504,68817205a84113384fffdfe3,688188738fff0579ab95c8eb,36.3958,39.077,0,1,2.1522,,0,7,7,6,1,./stim/wavs/peruvian_statement_filler_El-nino-habla-con-su-madre.wav,0,,,,,,,,,,,,,,,,,,,,,,,,,,,,,,,,,,,,,,,,,,,,,,,,,,,,,,,,,,,,,,,,,,,,,,,,
,,,,,,,,,5c3630c83ce2c8000111b504,Spanish,13 or older,"no, only English or Spanish",no,2025-07-23_21h13.15.809,empathy_intonation_perc_control,2024.2.4,Win32,59.88023952,5c3630c83ce2c8000111b504,68817205a84113384fffdfe3,688188738fff0579ab95c8eb,,,,,,,,,,,,,,39.0777,43.0426,,,,,,,,,,,,,,,,,,,,,,,,,,,,,,,,,,,,,,,,,,,,,,,,,,,,,,,,,,,,,,,,,,,,,,
,,,,,,,,,5c3630c83ce2c8000111b504,Spanish,13 or older,"no, only English or Spanish",no,2025-07-23_21h13.15.809,empathy_intonation_perc_control,2024.2.4,Win32,59.88023952,5c3630c83ce2c8000111b504,68817205a84113384fffdfe3,688188738fff0579ab95c8eb,,,,,,,,,,,,./stim/wavs/castilian_match_declarative-broad-focus_Maria-bebe-el-vino.wav,0,,,43.0701,45.3442,0,1,1.763,,0,0,0,47,1,48,0,castilian,,,,,,,,,,,,,,,,,,,,,,,,,,,,,,,,,,,,,,,,,,,,,,,,,,,,,,,,
,,,,,,,,,5c3630c83ce2c8000111b504,Spanish,13 or older,"no, only English or Spanish",no,2025-07-23_21h13.15.809,empathy_intonation_perc_control,2024.2.4,Win32,59.88023952,5c3630c83ce2c8000111b504,68817205a84113384fffdfe3,688188738fff0579ab95c8eb,,,,,,,,,,,,./stim/wavs/mexican_match_interrogative-total-yn_David-leia-el-libro.wav,1,,,45.3453,47.7224,1,1,1.8505,,0,1,1,14,1,15,0,mexican,,,,,,,,,,,,,,,,,,,,,,,,,,,,,,,,,,,,,,,,,,,,,,,,,,,,,,,,
,,,,,,,,,5c3630c83ce2c8000111b504,Spanish,13 or older,"no, only English or Spanish",no,2025-07-23_21h13.15.809,empathy_intonation_perc_control,2024.2.4,Win32,59.88023952,5c3630c83ce2c8000111b504,68817205a84113384fffdfe3,688188738fff0579ab95c8eb,,,,,,,,,,,,./stim/wavs/castilian_mismatch_declarative-broad-focus_La-nina-lava-el-plato.wav,0,,,47.723,50.0549,0,1,1.8032,,0,2,2,70,1,71,0,castilian,,,,,,,,,,,,,,,,,,,,,,,,,,,,,,,,,,,,,,,,,,,,,,,,,,,,,,,,
,,,,,,,,,5c3630c83ce2c8000111b504,Spanish,13 or older,"no, only English or Spanish",no,2025-07-23_21h13.15.809,empathy_intonation_perc_control,2024.2.4,Win32,59.88023952,5c3630c83ce2c8000111b504,68817205a84113384fffdfe3,688188738fff0579ab95c8eb,,,,,,,,,,,,./stim/wavs/puertorican_match_interrogative-total-yn_Daniel-iba-a-Bolivia.wav,1,,,50.0558,52.24,0,0,1.6625,,0,3,3,19,1,20,1,puertorican,,,,,,,,,,,,,,,,,,,,,,,,,,,,,,,,,,,,,,,,,,,,,,,,,,,,,,,,
,,,,,,,,,5c3630c83ce2c8000111b504,Spanish,13 or older,"no, only English or Spanish",no,2025-07-23_21h13.15.809,empathy_intonation_perc_control,2024.2.4,Win32,59.88023952,5c3630c83ce2c8000111b504,68817205a84113384fffdfe3,688188738fff0579ab95c8eb,,,,,,,,,,,,./stim/wavs/mexican_match_declarative-broad-focus_Emilio-ama-la-marcha.wav,0,,,52.2407,54.5193,0,1,1.7529,,0,4,4,59,1,60,0,mexican,,,,,,,,,,,,,,,,,,,,,,,,,,,,,,,,,,,,,,,,,,,,,,,,,,,,,,,,
,,,,,,,,,5c3630c83ce2c8000111b504,Spanish,13 or older,"no, only English or Spanish",no,2025-07-23_21h13.15.809,empathy_intonation_perc_control,2024.2.4,Win32,59.88023952,5c3630c83ce2c8000111b504,68817205a84113384fffdfe3,688188738fff0579ab95c8eb,,,,,,,,,,,,./stim/wavs/castilian_match_interrogative-total-yn_Manuela-vende-el-carro.wav,1,,,54.52,56.9516,1,1,1.9046,,0,5,5,2,1,3,0,castilian,,,,,,,,,,,,,,,,,,,,,,,,,,,,,,,,,,,,,,,,,,,,,,,,,,,,,,,,
,,,,,,,,,5c3630c83ce2c8000111b504,Spanish,13 or older,"no, only English or Spanish",no,2025-07-23_21h13.15.809,empathy_intonation_perc_control,2024.2.4,Win32,59.88023952,5c3630c83ce2c8000111b504,68817205a84113384fffdfe3,688188738fff0579ab95c8eb,,,,,,,,,,,,./stim/wavs/castilian_mismatch_declarative-broad-focus_Mi-tia-odia-la-lluvia.wav,0,,,56.9525,59.1662,0,1,1.6892,,0,6,6,72,1,73,0,castilian,,,,,,,,,,,,,,,,,,,,,,,,,,,,,,,,,,,,,,,,,,,,,,,,,,,,,,,,
,,,,,,,,,5c3630c83ce2c8000111b504,Spanish,13 or older,"no, only English or Spanish",no,2025-07-23_21h13.15.809,empathy_intonation_perc_control,2024.2.4,Win32,59.88023952,5c3630c83ce2c8000111b504,68817205a84113384fffdfe3,688188738fff0579ab95c8eb,,,,,,,,,,,,./stim/wavs/mexican_mismatch_interrogative-total-yn_El-nino-oye-el-rio.wav,1,,,59.1665,61.3822,1,1,1.6876,,0,7,7,35,1,36,0,mexican,,,,,,,,,,,,,,,,,,,,,,,,,,,,,,,,,,,,,,,,,,,,,,,,,,,,,,,,
,,,,,,,,,5c3630c83ce2c8000111b504,Spanish,13 or older,"no, only English or Spanish",no,2025-07-23_21h13.15.809,empathy_intonation_perc_control,2024.2.4,Win32,59.88023952,5c3630c83ce2c8000111b504,68817205a84113384fffdfe3,688188738fff0579ab95c8eb,,,,,,,,,,,,./stim/wavs/puertorican_mismatch_interrogative-total-yn_Mi-madre-come-la-fruta.wav,1,,,61.3829,63.6645,0,0,1.7573,,0,8,8,43,1,44,1,puertorican,,,,,,,,,,,,,,,,,,,,,,,,,,,,,,,,,,,,,,,,,,,,,,,,,,,,,,,,
,,,,,,,,,5c3630c83ce2c8000111b504,Spanish,13 or older,"no, only English or Spanish",no,2025-07-23_21h13.15.809,empathy_intonation_perc_control,2024.2.4,Win32,59.88023952,5c3630c83ce2c8000111b504,68817205a84113384fffdfe3,688188738fff0579ab95c8eb,,,,,,,,,,,,./stim/wavs/castilian_mismatch_declarative-broad-focus_Mi-novio-viene-del-lago.wav,0,,,63.6653,66.3137,0,1,2.1207,,0,9,9,71,1,72,0,castilian,,,,,,,,,,,,,,,,,,,,,,,,,,,,,,,,,,,,,,,,,,,,,,,,,,,,,,,,
,,,,,,,,,5c3630c83ce2c8000111b504,Spanish,13 or older,"no, only English or Spanish",no,2025-07-23_21h13.15.809,empathy_intonation_perc_control,2024.2.4,Win32,59.88023952,5c3630c83ce2c8000111b504,68817205a84113384fffdfe3,688188738fff0579ab95c8eb,,,,,,,,,,,,./stim/wavs/mexican_mismatch_interrogative-total-yn_El-hombre-mira-la-luna.wav,1,,,66.3147,68.6624,1,1,1.8204,,0,10,10,34,1,35,0,mexican,,,,,,,,,,,,,,,,,,,,,,,,,,,,,,,,,,,,,,,,,,,,,,,,,,,,,,,,
,,,,,,,,,5c3630c83ce2c8000111b504,Spanish,13 or older,"no, only English or Spanish",no,2025-07-23_21h13.15.809,empathy_intonation_perc_control,2024.2.4,Win32,59.88023952,5c3630c83ce2c8000111b504,68817205a84113384fffdfe3,688188738fff0579ab95c8eb,,,,,,,,,,,,./stim/wavs/cuban_mismatch_declarative-broad-focus_Mi-novio-viene-del-lago.wav,0,,,68.663,70.8783,0,1,1.6935,,0,11,11,76,1,77,0,cuban,,,,,,,,,,,,,,,,,,,,,,,,,,,,,,,,,,,,,,,,,,,,,,,,,,,,,,,,
,,,,,,,,,5c3630c83ce2c8000111b504,Spanish,13 or older,"no, only English or Spanish",no,2025-07-23_21h13.15.809,empathy_intonation_perc_control,2024.2.4,Win32,59.88023952,5c3630c83ce2c8000111b504,68817205a84113384fffdfe3,688188738fff0579ab95c8eb,,,,,,,,,,,,./stim/wavs/puertorican_mismatch_declarative-broad-focus_El-bebe-comia-muy-bien.wav,0,,,70.8789,73.1267,0,1,1.7186,,0,12,12,83,1,84,0,puertorican,,,,,,,,,,,,,,,,,,,,,,,,,,,,,,,,,,,,,,,,,,,,,,,,,,,,,,,,
,,,,,,,,,5c3630c83ce2c8000111b504,Spanish,13 or older,"no, only English or Spanish",no,2025-07-23_21h13.15.809,empathy_intonation_perc_control,2024.2.4,Win32,59.88023952,5c3630c83ce2c8000111b504,68817205a84113384fffdfe3,688188738fff0579ab95c8eb,,,,,,,,,,,,./stim/wavs/puertorican_mismatch_interrogative-total-yn_El-hombre-mira-la-luna.wav,1,,,73.1274,75.3432,0,0,1.6932,,0,13,13,39,1,40,1,puertorican,,,,,,,,,,,,,,,,,,,,,,,,,,,,,,,,,,,,,,,,,,,,,,,,,,,,,,,,
,,,,,,,,,5c3630c83ce2c8000111b504,Spanish,13 or older,"no, only English or Spanish",no,2025-07-23_21h13.15.809,empathy_intonation_perc_control,2024.2.4,Win32,59.88023952,5c3630c83ce2c8000111b504,68817205a84113384fffdfe3,688188738fff0579ab95c8eb,,,,,,,,,,,,./stim/wavs/castilian_match_declarative-broad-focus_Marta-abre-el-regalo.wav,0,,,75.3439,77.6082,0,1,1.7374,,0,14,14,49,1,50,0,castilian,,,,,,,,,,,,,,,,,,,,,,,,,,,,,,,,,,,,,,,,,,,,,,,,,,,,,,,,
,,,,,,,,,5c3630c83ce2c8000111b504,Spanish,13 or older,"no, only English or Spanish",no,2025-07-23_21h13.15.809,empathy_intonation_perc_control,2024.2.4,Win32,59.88023952,5c3630c83ce2c8000111b504,68817205a84113384fffdfe3,688188738fff0579ab95c8eb,,,,,,,,,,,,./stim/wavs/puertorican_match_interrogative-total-yn_Manuela-vende-el-carro.wav,1,,,77.609,79.74,0,0,1.6093,,0,15,15,22,1,23,1,puertorican,,,,,,,,,,,,,,,,,,,,,,,,,,,,,,,,,,,,,,,,,,,,,,,,,,,,,,,,
,,,,,,,,,5c3630c83ce2c8000111b504,Spanish,13 or older,"no, only English or Spanish",no,2025-07-23_21h13.15.809,empathy_intonation_perc_control,2024.2.4,Win32,59.88023952,5c3630c83ce2c8000111b504,68817205a84113384fffdfe3,688188738fff0579ab95c8eb,,,,,,,,,,,,./stim/wavs/cuban_match_interrogative-total-yn_Daniel-iba-a-Bolivia.wav,1,,,79.7404,82.1556,0,0,1.8864,,0,16,16,7,1,8,1,cuban,,,,,,,,,,,,,,,,,,,,,,,,,,,,,,,,,,,,,,,,,,,,,,,,,,,,,,,,
,,,,,,,,,5c3630c83ce2c8000111b504,Spanish,13 or older,"no, only English or Spanish",no,2025-07-23_21h13.15.809,empathy_intonation_perc_control,2024.2.4,Win32,59.88023952,5c3630c83ce2c8000111b504,68817205a84113384fffdfe3,688188738fff0579ab95c8eb,,,,,,,,,,,,./stim/wavs/mexican_match_declarative-broad-focus_Marta-abre-el-regalo.wav,0,,,82.1562,84.704,0,1,2.0236,,0,17,17,61,1,62,0,mexican,,,,,,,,,,,,,,,,,,,,,,,,,,,,,,,,,,,,,,,,,,,,,,,,,,,,,,,,
,,,,,,,,,5c3630c83ce2c8000111b504,Spanish,13 or older,"no, only English or Spanish",no,2025-07-23_21h13.15.809,empathy_intonation_perc_control,2024.2.4,Win32,59.88023952,5c3630c83ce2c8000111b504,68817205a84113384fffdfe3,688188738fff0579ab95c8eb,,,,,,,,,,,,./stim/wavs/castilian_match_interrogative-total-yn_Marta-abre-el-regalo.wav,1,,,84.7048,86.9366,1,1,1.7022,,0,18,18,5,1,6,0,castilian,,,,,,,,,,,,,,,,,,,,,,,,,,,,,,,,,,,,,,,,,,,,,,,,,,,,,,,,
,,,,,,,,,5c3630c83ce2c8000111b504,Spanish,13 or older,"no, only English or Spanish",no,2025-07-23_21h13.15.809,empathy_intonation_perc_control,2024.2.4,Win32,59.88023952,5c3630c83ce2c8000111b504,68817205a84113384fffdfe3,688188738fff0579ab95c8eb,,,,,,,,,,,,./stim/wavs/cuban_mismatch_interrogative-total-yn_El-nino-oye-el-rio.wav,1,,,86.9371,88.9693,0,0,1.5039,,0,19,19,30,1,31,1,cuban,,,,,,,,,,,,,,,,,,,,,,,,,,,,,,,,,,,,,,,,,,,,,,,,,,,,,,,,
,,,,,,,,,5c3630c83ce2c8000111b504,Spanish,13 or older,"no, only English or Spanish",no,2025-07-23_21h13.15.809,empathy_intonation_perc_control,2024.2.4,Win32,59.88023952,5c3630c83ce2c8000111b504,68817205a84113384fffdfe3,688188738fff0579ab95c8eb,,,,,,,,,,,,./stim/wavs/cuban_mismatch_declarative-broad-focus_El-hombre-mira-la-luna.wav,0,,,88.9701,91.3679,0,1,1.8692,,0,20,20,74,1,75,0,cuban,,,,,,,,,,,,,,,,,,,,,,,,,,,,,,,,,,,,,,,,,,,,,,,,,,,,,,,,
,,,,,,,,,5c3630c83ce2c8000111b504,Spanish,13 or older,"no, only English or Spanish",no,2025-07-23_21h13.15.809,empathy_intonation_perc_control,2024.2.4,Win32,59.88023952,5c3630c83ce2c8000111b504,68817205a84113384fffdfe3,688188738fff0579ab95c8eb,,,,,,,,,,,,./stim/wavs/castilian_match_declarative-broad-focus_David-leia-el-libro.wav,0,,,91.3686,93.6833,0,1,1.7874,,0,21,21,44,1,45,0,castilian,,,,,,,,,,,,,,,,,,,,,,,,,,,,,,,,,,,,,,,,,,,,,,,,,,,,,,,,
,,,,,,,,,5c3630c83ce2c8000111b504,Spanish,13 or older,"no, only English or Spanish",no,2025-07-23_21h13.15.809,empathy_intonation_perc_control,2024.2.4,Win32,59.88023952,5c3630c83ce2c8000111b504,68817205a84113384fffdfe3,688188738fff0579ab95c8eb,,,,,,,,,,,,./stim/wavs/puertorican_match_interrogative-total-yn_Maria-bebe-el-vino.wav,1,,,93.684,96.315,0,0,2.1033,,0,22,22,23,1,24,1,puertorican,,,,,,,,,,,,,,,,,,,,,,,,,,,,,,,,,,,,,,,,,,,,,,,,,,,,,,,,
,,,,,,,,,5c3630c83ce2c8000111b504,Spanish,13 or older,"no, only English or Spanish",no,2025-07-23_21h13.15.809,empathy_intonation_perc_control,2024.2.4,Win32,59.88023952,5c3630c83ce2c8000111b504,68817205a84113384fffdfe3,688188738fff0579ab95c8eb,,,,,,,,,,,,./stim/wavs/mexican_match_declarative-broad-focus_Ana-lleva-el-abrigo.wav,0,,,96.3157,98.2978,0,1,1.4529,,0,23,23,56,1,57,0,mexican,,,,,,,,,,,,,,,,,,,,,,,,,,,,,,,,,,,,,,,,,,,,,,,,,,,,,,,,
,,,,,,,,,5c3630c83ce2c8000111b504,Spanish,13 or older,"no, only English or Spanish",no,2025-07-23_21h13.15.809,empathy_intonation_perc_control,2024.2.4,Win32,59.88023952,5c3630c83ce2c8000111b504,68817205a84113384fffdfe3,688188738fff0579ab95c8eb,,,,,,,,,,,,./stim/wavs/puertorican_match_declarative-broad-focus_Manuela-vende-el-carro.wav,0,,,98.2987,100.4461,0,1,1.6249,,0,24,24,66,1,67,0,puertorican,,,,,,,,,,,,,,,,,,,,,,,,,,,,,,,,,,,,,,,,,,,,,,,,,,,,,,,,
,,,,,,,,,5c3630c83ce2c8000111b504,Spanish,13 or older,"no, only English or Spanish",no,2025-07-23_21h13.15.809,empathy_intonation_perc_control,2024.2.4,Win32,59.88023952,5c3630c83ce2c8000111b504,68817205a84113384fffdfe3,688188738fff0579ab95c8eb,,,,,,,,,,,,./stim/wavs/castilian_match_interrogative-total-yn_Mariano-habla-del-tiempo.wav,1,,,100.4466,102.9447,1,1,1.97,,0,25,25,4,1,5,0,castilian,,,,,,,,,,,,,,,,,,,,,,,,,,,,,,,,,,,,,,,,,,,,,,,,,,,,,,,,
,,,,,,,,,5c3630c83ce2c8000111b504,Spanish,13 or older,"no, only English or Spanish",no,2025-07-23_21h13.15.809,empathy_intonation_perc_control,2024.2.4,Win32,59.88023952,5c3630c83ce2c8000111b504,68817205a84113384fffdfe3,688188738fff0579ab95c8eb,,,,,,,,,,,,./stim/wavs/cuban_match_declarative-broad-focus_Daniel-iba-a-Bolivia.wav,0,,,102.945,105.2277,0,1,1.7529,,0,26,26,51,1,52,0,cuban,,,,,,,,,,,,,,,,,,,,,,,,,,,,,,,,,,,,,,,,,,,,,,,,,,,,,,,,
,,,,,,,,,5c3630c83ce2c8000111b504,Spanish,13 or older,"no, only English or Spanish",no,2025-07-23_21h13.15.809,empathy_intonation_perc_control,2024.2.4,Win32,59.88023952,5c3630c83ce2c8000111b504,68817205a84113384fffdfe3,688188738fff0579ab95c8eb,,,,,,,,,,,,./stim/wavs/puertorican_match_interrogative-total-yn_Emilio-ama-la-marcha.wav,1,,,105.2284,107.3268,0,0,1.5766,,0,27,27,21,1,22,1,puertorican,,,,,,,,,,,,,,,,,,,,,,,,,,,,,,,,,,,,,,,,,,,,,,,,,,,,,,,,
,,,,,,,,,5c3630c83ce2c8000111b504,Spanish,13 or older,"no, only English or Spanish",no,2025-07-23_21h13.15.809,empathy_intonation_perc_control,2024.2.4,Win32,59.88023952,5c3630c83ce2c8000111b504,68817205a84113384fffdfe3,688188738fff0579ab95c8eb,,,,,,,,,,,,./stim/wavs/mexican_match_declarative-broad-focus_David-leia-el-libro.wav,0,,,107.3275,109.3427,0,1,1.4933,,0,28,28,58,1,59,0,mexican,,,,,,,,,,,,,,,,,,,,,,,,,,,,,,,,,,,,,,,,,,,,,,,,,,,,,,,,
,,,,,,,,,5c3630c83ce2c8000111b504,Spanish,13 or older,"no, only English or Spanish",no,2025-07-23_21h13.15.809,empathy_intonation_perc_control,2024.2.4,Win32,59.88023952,5c3630c83ce2c8000111b504,68817205a84113384fffdfe3,688188738fff0579ab95c8eb,,,,,,,,,,,,./stim/wavs/puertorican_mismatch_interrogative-total-yn_La-maestra-vive-en-Paris.wav,1,,,109.3436,111.675,0,0,1.8059,,0,29,29,41,1,42,1,puertorican,,,,,,,,,,,,,,,,,,,,,,,,,,,,,,,,,,,,,,,,,,,,,,,,,,,,,,,,
,,,,,,,,,5c3630c83ce2c8000111b504,Spanish,13 or older,"no, only English or Spanish",no,2025-07-23_21h13.15.809,empathy_intonation_perc_control,2024.2.4,Win32,59.88023952,5c3630c83ce2c8000111b504,68817205a84113384fffdfe3,688188738fff0579ab95c8eb,,,,,,,,,,,,./stim/wavs/puertorican_mismatch_declarative-broad-focus_La-maestra-vive-en-Paris.wav,0,,,111.6758,115.223,0,1,3.02,,0,30,30,86,1,87,0,puertorican,,,,,,,,,,,,,,,,,,,,,,,,,,,,,,,,,,,,,,,,,,,,,,,,,,,,,,,,
,,,,,,,,,5c3630c83ce2c8000111b504,Spanish,13 or older,"no, only English or Spanish",no,2025-07-23_21h13.15.809,empathy_intonation_perc_control,2024.2.4,Win32,59.88023952,5c3630c83ce2c8000111b504,68817205a84113384fffdfe3,688188738fff0579ab95c8eb,,,,,,,,,,,,./stim/wavs/cuban_match_declarative-broad-focus_Marta-abre-el-regalo.wav,0,,,115.2239,117.7761,0,1,2.0318,,0,31,31,55,1,56,0,cuban,,,,,,,,,,,,,,,,,,,,,,,,,,,,,,,,,,,,,,,,,,,,,,,,,,,,,,,,
,,,,,,,,,5c3630c83ce2c8000111b504,Spanish,13 or older,"no, only English or Spanish",no,2025-07-23_21h13.15.809,empathy_intonation_perc_control,2024.2.4,Win32,59.88023952,5c3630c83ce2c8000111b504,68817205a84113384fffdfe3,688188738fff0579ab95c8eb,,,,,,,,,,,,./stim/wavs/castilian_mismatch_interrogative-total-yn_La-nina-lava-el-plato.wav,1,,,117.777,120.054,1,1,1.7537,,0,32,32,25,1,26,0,castilian,,,,,,,,,,,,,,,,,,,,,,,,,,,,,,,,,,,,,,,,,,,,,,,,,,,,,,,,
,,,,,,,,,5c3630c83ce2c8000111b504,Spanish,13 or older,"no, only English or Spanish",no,2025-07-23_21h13.15.809,empathy_intonation_perc_control,2024.2.4,Win32,59.88023952,5c3630c83ce2c8000111b504,68817205a84113384fffdfe3,688188738fff0579ab95c8eb,,,,,,,,,,,,./stim/wavs/mexican_match_interrogative-total-yn_Emilio-ama-la-marcha.wav,1,,,120.0548,122.2197,1,1,1.6373,,0,33,33,15,1,16,0,mexican,,,,,,,,,,,,,,,,,,,,,,,,,,,,,,,,,,,,,,,,,,,,,,,,,,,,,,,,
,,,,,,,,,5c3630c83ce2c8000111b504,Spanish,13 or older,"no, only English or Spanish",no,2025-07-23_21h13.15.809,empathy_intonation_perc_control,2024.2.4,Win32,59.88023952,5c3630c83ce2c8000111b504,68817205a84113384fffdfe3,688188738fff0579ab95c8eb,,,,,,,,,,,,./stim/wavs/mexican_mismatch_interrogative-total-yn_Mi-tia-odia-la-lluvia.wav,1,,,122.2205,124.3023,1,1,1.5601,,0,34,34,38,1,39,0,mexican,,,,,,,,,,,,,,,,,,,,,,,,,,,,,,,,,,,,,,,,,,,,,,,,,,,,,,,,
,,,,,,,,,5c3630c83ce2c8000111b504,Spanish,13 or older,"no, only English or Spanish",no,2025-07-23_21h13.15.809,empathy_intonation_perc_control,2024.2.4,Win32,59.88023952,5c3630c83ce2c8000111b504,68817205a84113384fffdfe3,688188738fff0579ab95c8eb,,,,,,,,,,,,./stim/wavs/mexican_match_interrogative-total-yn_Daniel-iba-a-Bolivia.wav,1,,,124.303,126.6507,1,1,1.8198,,0,35,35,13,1,14,0,mexican,,,,,,,,,,,,,,,,,,,,,,,,,,,,,,,,,,,,,,,,,,,,,,,,,,,,,,,,
,,,,,,,,,5c3630c83ce2c8000111b504,Spanish,13 or older,"no, only English or Spanish",no,2025-07-23_21h13.15.809,empathy_intonation_perc_control,2024.2.4,Win32,59.88023952,5c3630c83ce2c8000111b504,68817205a84113384fffdfe3,688188738fff0579ab95c8eb,,,,,,,,,,,,./stim/wavs/mexican_match_interrogative-total-yn_Mariano-habla-del-tiempo.wav,1,,,126.6513,128.9659,1,1,1.7881,,0,36,36,16,1,17,0,mexican,,,,,,,,,,,,,,,,,,,,,,,,,,,,,,,,,,,,,,,,,,,,,,,,,,,,,,,,
,,,,,,,,,5c3630c83ce2c8000111b504,Spanish,13 or older,"no, only English or Spanish",no,2025-07-23_21h13.15.809,empathy_intonation_perc_control,2024.2.4,Win32,59.88023952,5c3630c83ce2c8000111b504,68817205a84113384fffdfe3,688188738fff0579ab95c8eb,,,,,,,,,,,,./stim/wavs/mexican_mismatch_declarative-broad-focus_El-bebe-comia-muy-bien.wav,0,,,128.9667,131.1666,0,1,1.6781,,0,37,37,78,1,79,0,mexican,,,,,,,,,,,,,,,,,,,,,,,,,,,,,,,,,,,,,,,,,,,,,,,,,,,,,,,,
,,,,,,,,,5c3630c83ce2c8000111b504,Spanish,13 or older,"no, only English or Spanish",no,2025-07-23_21h13.15.809,empathy_intonation_perc_control,2024.2.4,Win32,59.88023952,5c3630c83ce2c8000111b504,68817205a84113384fffdfe3,688188738fff0579ab95c8eb,,,,,,,,,,,,./stim/wavs/castilian_match_declarative-broad-focus_Mariano-habla-del-tiempo.wav,0,,,131.1676,133.5844,0,1,1.8967,,0,38,38,48,1,49,0,castilian,,,,,,,,,,,,,,,,,,,,,,,,,,,,,,,,,,,,,,,,,,,,,,,,,,,,,,,,
,,,,,,,,,5c3630c83ce2c8000111b504,Spanish,13 or older,"no, only English or Spanish",no,2025-07-23_21h13.15.809,empathy_intonation_perc_control,2024.2.4,Win32,59.88023952,5c3630c83ce2c8000111b504,68817205a84113384fffdfe3,688188738fff0579ab95c8eb,,,,,,,,,,,,./stim/wavs/puertorican_match_declarative-broad-focus_Maria-bebe-el-vino.wav,0,,,133.5854,135.5131,0,1,1.4031,,0,39,39,67,1,68,0,puertorican,,,,,,,,,,,,,,,,,,,,,,,,,,,,,,,,,,,,,,,,,,,,,,,,,,,,,,,,
,,,,,,,,,5c3630c83ce2c8000111b504,Spanish,13 or older,"no, only English or Spanish",no,2025-07-23_21h13.15.809,empathy_intonation_perc_control,2024.2.4,Win32,59.88023952,5c3630c83ce2c8000111b504,68817205a84113384fffdfe3,688188738fff0579ab95c8eb,,,,,,,,,,,,./stim/wavs/cuban_match_declarative-broad-focus_Mariano-habla-del-tiempo.wav,0,,,135.514,137.8947,0,1,1.8525,,0,40,40,54,1,55,0,cuban,,,,,,,,,,,,,,,,,,,,,,,,,,,,,,,,,,,,,,,,,,,,,,,,,,,,,,,,
,,,,,,,,,5c3630c83ce2c8000111b504,Spanish,13 or older,"no, only English or Spanish",no,2025-07-23_21h13.15.809,empathy_intonation_perc_control,2024.2.4,Win32,59.88023952,5c3630c83ce2c8000111b504,68817205a84113384fffdfe3,688188738fff0579ab95c8eb,,,,,,,,,,,,./stim/wavs/cuban_match_interrogative-total-yn_Maria-bebe-el-vino.wav,1,,,137.8953,140.2273,0,0,1.8052,,0,41,41,9,1,10,1,cuban,,,,,,,,,,,,,,,,,,,,,,,,,,,,,,,,,,,,,,,,,,,,,,,,,,,,,,,,
,,,,,,,,,5c3630c83ce2c8000111b504,Spanish,13 or older,"no, only English or Spanish",no,2025-07-23_21h13.15.809,empathy_intonation_perc_control,2024.2.4,Win32,59.88023952,5c3630c83ce2c8000111b504,68817205a84113384fffdfe3,688188738fff0579ab95c8eb,,,,,,,,,,,,./stim/wavs/mexican_mismatch_interrogative-total-yn_Mi-novio-viene-del-lago.wav,1,,,140.2279,142.4096,1,1,1.6534,,0,42,42,37,1,38,0,mexican,,,,,,,,,,,,,,,,,,,,,,,,,,,,,,,,,,,,,,,,,,,,,,,,,,,,,,,,
,,,,,,,,,5c3630c83ce2c8000111b504,Spanish,13 or older,"no, only English or Spanish",no,2025-07-23_21h13.15.809,empathy_intonation_perc_control,2024.2.4,Win32,59.88023952,5c3630c83ce2c8000111b504,68817205a84113384fffdfe3,688188738fff0579ab95c8eb,,,,,,,,,,,,./stim/wavs/mexican_mismatch_declarative-broad-focus_El-hombre-mira-la-luna.wav,0,,,142.4103,144.7743,0,1,1.833,,0,43,43,79,1,80,0,mexican,,,,,,,,,,,,,,,,,,,,,,,,,,,,,,,,,,,,,,,,,,,,,,,,,,,,,,,,
,,,,,,,,,5c3630c83ce2c8000111b504,Spanish,13 or older,"no, only English or Spanish",no,2025-07-23_21h13.15.809,empathy_intonation_perc_control,2024.2.4,Win32,59.88023952,5c3630c83ce2c8000111b504,68817205a84113384fffdfe3,688188738fff0579ab95c8eb,,,,,,,,,,,,./stim/wavs/cuban_mismatch_interrogative-total-yn_El-hombre-mira-la-luna.wav,1,,,144.7745,146.8409,0,0,1.5399,,0,44,44,29,1,30,1,cuban,,,,,,,,,,,,,,,,,,,,,,,,,,,,,,,,,,,,,,,,,,,,,,,,,,,,,,,,
,,,,,,,,,5c3630c83ce2c8000111b504,Spanish,13 or older,"no, only English or Spanish",no,2025-07-23_21h13.15.809,empathy_intonation_perc_control,2024.2.4,Win32,59.88023952,5c3630c83ce2c8000111b504,68817205a84113384fffdfe3,688188738fff0579ab95c8eb,,,,,,,,,,,,./stim/wavs/cuban_match_declarative-broad-focus_Maria-bebe-el-vino.wav,0,,,146.8417,148.9264,0,1,1.5628,,0,45,45,53,1,54,0,cuban,,,,,,,,,,,,,,,,,,,,,,,,,,,,,,,,,,,,,,,,,,,,,,,,,,,,,,,,
,,,,,,,,,5c3630c83ce2c8000111b504,Spanish,13 or older,"no, only English or Spanish",no,2025-07-23_21h13.15.809,empathy_intonation_perc_control,2024.2.4,Win32,59.88023952,5c3630c83ce2c8000111b504,68817205a84113384fffdfe3,688188738fff0579ab95c8eb,,,,,,,,,,,,./stim/wavs/cuban_match_declarative-broad-focus_Manuela-vende-el-carro.wav,0,,,148.9272,151.2552,0,1,1.805,,0,46,46,52,1,53,0,cuban,,,,,,,,,,,,,,,,,,,,,,,,,,,,,,,,,,,,,,,,,,,,,,,,,,,,,,,,
,,,,,,,,,5c3630c83ce2c8000111b504,Spanish,13 or older,"no, only English or Spanish",no,2025-07-23_21h13.15.809,empathy_intonation_perc_control,2024.2.4,Win32,59.88023952,5c3630c83ce2c8000111b504,68817205a84113384fffdfe3,688188738fff0579ab95c8eb,,,,,,,,,,,,./stim/wavs/mexican_match_declarative-broad-focus_Mariano-habla-del-tiempo.wav,0,,,151.2559,153.5203,0,1,1.7409,,0,47,47,60,1,61,0,mexican,,,,,,,,,,,,,,,,,,,,,,,,,,,,,,,,,,,,,,,,,,,,,,,,,,,,,,,,
,,,,,,,,,5c3630c83ce2c8000111b504,Spanish,13 or older,"no, only English or Spanish",no,2025-07-23_21h13.15.809,empathy_intonation_perc_control,2024.2.4,Win32,59.88023952,5c3630c83ce2c8000111b504,68817205a84113384fffdfe3,688188738fff0579ab95c8eb,,,,,,,,,,,,./stim/wavs/castilian_mismatch_declarative-broad-focus_El-nino-oye-el-rio.wav,0,,,153.5211,156.3044,0,1,2.2762,,0,48,48,68,1,69,0,castilian,,,,,,,,,,,,,,,,,,,,,,,,,,,,,,,,,,,,,,,,,,,,,,,,,,,,,,,,
,,,,,,,,,5c3630c83ce2c8000111b504,Spanish,13 or older,"no, only English or Spanish",no,2025-07-23_21h13.15.809,empathy_intonation_perc_control,2024.2.4,Win32,59.88023952,5c3630c83ce2c8000111b504,68817205a84113384fffdfe3,688188738fff0579ab95c8eb,,,,,,,,,,,,./stim/wavs/puertorican_match_interrogative-total-yn_David-leia-el-libro.wav,1,,,156.3053,158.3357,0,0,1.5112,,0,49,49,20,1,21,1,puertorican,,,,,,,,,,,,,,,,,,,,,,,,,,,,,,,,,,,,,,,,,,,,,,,,,,,,,,,,
,,,,,,,,,5c3630c83ce2c8000111b504,Spanish,13 or older,"no, only English or Spanish",no,2025-07-23_21h13.15.809,empathy_intonation_perc_control,2024.2.4,Win32,59.88023952,5c3630c83ce2c8000111b504,68817205a84113384fffdfe3,688188738fff0579ab95c8eb,,,,,,,,,,,,./stim/wavs/cuban_match_interrogative-total-yn_Marta-abre-el-regalo.wav,1,,,158.3366,160.5173,0,0,1.6536,,0,50,50,11,1,12,1,cuban,,,,,,,,,,,,,,,,,,,,,,,,,,,,,,,,,,,,,,,,,,,,,,,,,,,,,,,,
,,,,,,,,,5c3630c83ce2c8000111b504,Spanish,13 or older,"no, only English or Spanish",no,2025-07-23_21h13.15.809,empathy_intonation_perc_control,2024.2.4,Win32,59.88023952,5c3630c83ce2c8000111b504,68817205a84113384fffdfe3,688188738fff0579ab95c8eb,,,,,,,,,,,,./stim/wavs/cuban_mismatch_declarative-broad-focus_Mi-tia-odia-la-lluvia.wav,0,,,160.5182,162.7511,0,1,1.7103,,0,51,51,77,1,78,0,cuban,,,,,,,,,,,,,,,,,,,,,,,,,,,,,,,,,,,,,,,,,,,,,,,,,,,,,,,,
,,,,,,,,,5c3630c83ce2c8000111b504,Spanish,13 or older,"no, only English or Spanish",no,2025-07-23_21h13.15.809,empathy_intonation_perc_control,2024.2.4,Win32,59.88023952,5c3630c83ce2c8000111b504,68817205a84113384fffdfe3,688188738fff0579ab95c8eb,,,,,,,,,,,,./stim/wavs/cuban_match_declarative-broad-focus_Ana-lleva-el-abrigo.wav,0,,,162.7521,164.7978,0,1,1.5232,,0,52,52,50,1,51,0,cuban,,,,,,,,,,,,,,,,,,,,,,,,,,,,,,,,,,,,,,,,,,,,,,,,,,,,,,,,
,,,,,,,,,5c3630c83ce2c8000111b504,Spanish,13 or older,"no, only English or Spanish",no,2025-07-23_21h13.15.809,empathy_intonation_perc_control,2024.2.4,Win32,59.88023952,5c3630c83ce2c8000111b504,68817205a84113384fffdfe3,688188738fff0579ab95c8eb,,,,,,,,,,,,./stim/wavs/castilian_match_declarative-broad-focus_Manuela-vende-el-carro.wav,0,,,164.7983,167.3304,0,1,2.0215,,0,53,53,46,1,47,0,castilian,,,,,,,,,,,,,,,,,,,,,,,,,,,,,,,,,,,,,,,,,,,,,,,,,,,,,,,,
,,,,,,,,,5c3630c83ce2c8000111b504,Spanish,13 or older,"no, only English or Spanish",no,2025-07-23_21h13.15.809,empathy_intonation_perc_control,2024.2.4,Win32,59.88023952,5c3630c83ce2c8000111b504,68817205a84113384fffdfe3,688188738fff0579ab95c8eb,,,,,,,,,,,,./stim/wavs/puertorican_mismatch_declarative-broad-focus_El-nino-oye-el-rio.wav,0,,,167.331,169.363,0,1,1.5049,,0,54,54,85,1,86,0,puertorican,,,,,,,,,,,,,,,,,,,,,,,,,,,,,,,,,,,,,,,,,,,,,,,,,,,,,,,,
,,,,,,,,,5c3630c83ce2c8000111b504,Spanish,13 or older,"no, only English or Spanish",no,2025-07-23_21h13.15.809,empathy_intonation_perc_control,2024.2.4,Win32,59.88023952,5c3630c83ce2c8000111b504,68817205a84113384fffdfe3,688188738fff0579ab95c8eb,,,,,,,,,,,,./stim/wavs/cuban_mismatch_declarative-broad-focus_El-bebe-comia-muy-bien.wav,0,,,169.3637,171.2953,0,1,1.4102,,0,55,55,73,1,74,0,cuban,,,,,,,,,,,,,,,,,,,,,,,,,,,,,,,,,,,,,,,,,,,,,,,,,,,,,,,,
,,,,,,,,,5c3630c83ce2c8000111b504,Spanish,13 or older,"no, only English or Spanish",no,2025-07-23_21h13.15.809,empathy_intonation_perc_control,2024.2.4,Win32,59.88023952,5c3630c83ce2c8000111b504,68817205a84113384fffdfe3,688188738fff0579ab95c8eb,,,,,,,,,,,,./stim/wavs/cuban_match_interrogative-total-yn_Manuela-vende-el-carro.wav,1,,,171.2962,173.4278,0,0,1.6067,,0,56,56,8,1,9,1,cuban,,,,,,,,,,,,,,,,,,,,,,,,,,,,,,,,,,,,,,,,,,,,,,,,,,,,,,,,
,,,,,,,,,5c3630c83ce2c8000111b504,Spanish,13 or older,"no, only English or Spanish",no,2025-07-23_21h13.15.809,empathy_intonation_perc_control,2024.2.4,Win32,59.88023952,5c3630c83ce2c8000111b504,68817205a84113384fffdfe3,688188738fff0579ab95c8eb,,,,,,,,,,,,./stim/wavs/puertorican_mismatch_declarative-broad-focus_La-nina-lava-el-plato.wav,0,,,173.4284,175.4763,0,1,1.5199,,0,57,57,87,1,88,0,puertorican,,,,,,,,,,,,,,,,,,,,,,,,,,,,,,,,,,,,,,,,,,,,,,,,,,,,,,,,
,,,,,,,,,5c3630c83ce2c8000111b504,Spanish,13 or older,"no, only English or Spanish",no,2025-07-23_21h13.15.809,empathy_intonation_perc_control,2024.2.4,Win32,59.88023952,5c3630c83ce2c8000111b504,68817205a84113384fffdfe3,688188738fff0579ab95c8eb,,,,,,,,,,,,./stim/wavs/cuban_mismatch_declarative-broad-focus_La-nina-lava-el-plato.wav,0,,,175.4769,177.4753,0,1,1.4717,,0,58,58,75,1,76,0,cuban,,,,,,,,,,,,,,,,,,,,,,,,,,,,,,,,,,,,,,,,,,,,,,,,,,,,,,,,
,,,,,,,,,5c3630c83ce2c8000111b504,Spanish,13 or older,"no, only English or Spanish",no,2025-07-23_21h13.15.809,empathy_intonation_perc_control,2024.2.4,Win32,59.88023952,5c3630c83ce2c8000111b504,68817205a84113384fffdfe3,688188738fff0579ab95c8eb,,,,,,,,,,,,./stim/wavs/castilian_match_interrogative-total-yn_Maria-bebe-el-vino.wav,1,,,177.476,179.6243,1,1,1.6199,,0,59,59,3,1,4,0,castilian,,,,,,,,,,,,,,,,,,,,,,,,,,,,,,,,,,,,,,,,,,,,,,,,,,,,,,,,
,,,,,,,,,5c3630c83ce2c8000111b504,Spanish,13 or older,"no, only English or Spanish",no,2025-07-23_21h13.15.809,empathy_intonation_perc_control,2024.2.4,Win32,59.88023952,5c3630c83ce2c8000111b504,68817205a84113384fffdfe3,688188738fff0579ab95c8eb,,,,,,,,,,,,./stim/wavs/puertorican_mismatch_declarative-broad-focus_El-hombre-mira-la-luna.wav,0,,,179.625,181.7603,0,1,1.6141,,0,60,60,84,1,85,0,puertorican,,,,,,,,,,,,,,,,,,,,,,,,,,,,,,,,,,,,,,,,,,,,,,,,,,,,,,,,
,,,,,,,,,5c3630c83ce2c8000111b504,Spanish,13 or older,"no, only English or Spanish",no,2025-07-23_21h13.15.809,empathy_intonation_perc_control,2024.2.4,Win32,59.88023952,5c3630c83ce2c8000111b504,68817205a84113384fffdfe3,688188738fff0579ab95c8eb,,,,,,,,,,,,./stim/wavs/mexican_mismatch_declarative-broad-focus_Mi-novio-viene-del-lago.wav,0,,,181.7611,183.7228,0,1,1.4368,,0,61,61,81,1,82,0,mexican,,,,,,,,,,,,,,,,,,,,,,,,,,,,,,,,,,,,,,,,,,,,,,,,,,,,,,,,
,,,,,,,,,5c3630c83ce2c8000111b504,Spanish,13 or older,"no, only English or Spanish",no,2025-07-23_21h13.15.809,empathy_intonation_perc_control,2024.2.4,Win32,59.88023952,5c3630c83ce2c8000111b504,68817205a84113384fffdfe3,688188738fff0579ab95c8eb,,,,,,,,,,,,./stim/wavs/puertorican_mismatch_interrogative-total-yn_El-nino-oye-el-rio.wav,1,,,183.7235,185.776,0,0,1.5319,,0,62,62,40,1,41,1,puertorican,,,,,,,,,,,,,,,,,,,,,,,,,,,,,,,,,,,,,,,,,,,,,,,,,,,,,,,,
,,,,,,,,,5c3630c83ce2c8000111b504,Spanish,13 or older,"no, only English or Spanish",no,2025-07-23_21h13.15.809,empathy_intonation_perc_control,2024.2.4,Win32,59.88023952,5c3630c83ce2c8000111b504,68817205a84113384fffdfe3,688188738fff0579ab95c8eb,,,,,,,,,,,,./stim/wavs/puertorican_match_interrogative-total-yn_Ana-lleva-el-abrigo.wav,1,,,185.7767,187.6532,0,0,1.3499,,0,63,63,18,1,19,1,puertorican,,,,,,,,,,,,,,,,,,,,,,,,,,,,,,,,,,,,,,,,,,,,,,,,,,,,,,,,
,,,,,,,,,5c3630c83ce2c8000111b504,Spanish,13 or older,"no, only English or Spanish",no,2025-07-23_21h13.15.809,empathy_intonation_perc_control,2024.2.4,Win32,59.88023952,5c3630c83ce2c8000111b504,68817205a84113384fffdfe3,688188738fff0579ab95c8eb,,,,,,,,,,,,./stim/wavs/puertorican_match_declarative-broad-focus_Emilio-ama-la-marcha.wav,0,,,187.6535,189.7028,0,1,1.5186,,0,64,64,65,1,66,0,puertorican,,,,,,,,,,,,,,,,,,,,,,,,,,,,,,,,,,,,,,,,,,,,,,,,,,,,,,,,
,,,,,,,,,5c3630c83ce2c8000111b504,Spanish,13 or older,"no, only English or Spanish",no,2025-07-23_21h13.15.809,empathy_intonation_perc_control,2024.2.4,Win32,59.88023952,5c3630c83ce2c8000111b504,68817205a84113384fffdfe3,688188738fff0579ab95c8eb,,,,,,,,,,,,./stim/wavs/cuban_mismatch_interrogative-total-yn_Mi-madre-come-la-fruta.wav,1,,,189.7034,191.9193,0,0,1.6938,,0,65,65,31,1,32,1,cuban,,,,,,,,,,,,,,,,,,,,,,,,,,,,,,,,,,,,,,,,,,,,,,,,,,,,,,,,
,,,,,,,,,5c3630c83ce2c8000111b504,Spanish,13 or older,"no, only English or Spanish",no,2025-07-23_21h13.15.809,empathy_intonation_perc_control,2024.2.4,Win32,59.88023952,5c3630c83ce2c8000111b504,68817205a84113384fffdfe3,688188738fff0579ab95c8eb,,,,,,,,,,,,./stim/wavs/castilian_mismatch_interrogative-total-yn_Mi-novio-viene-del-lago.wav,1,,,191.9202,194.4003,1,1,1.9539,,0,66,66,27,1,28,0,castilian,,,,,,,,,,,,,,,,,,,,,,,,,,,,,,,,,,,,,,,,,,,,,,,,,,,,,,,,
,,,,,,,,,5c3630c83ce2c8000111b504,Spanish,13 or older,"no, only English or Spanish",no,2025-07-23_21h13.15.809,empathy_intonation_perc_control,2024.2.4,Win32,59.88023952,5c3630c83ce2c8000111b504,68817205a84113384fffdfe3,688188738fff0579ab95c8eb,,,,,,,,,,,,./stim/wavs/castilian_mismatch_interrogative-total-yn_Mi-madre-come-la-fruta.wav,1,,,194.4006,196.7656,1,1,1.8416,,0,67,67,26,1,27,0,castilian,,,,,,,,,,,,,,,,,,,,,,,,,,,,,,,,,,,,,,,,,,,,,,,,,,,,,,,,
,,,,,,,,,5c3630c83ce2c8000111b504,Spanish,13 or older,"no, only English or Spanish",no,2025-07-23_21h13.15.809,empathy_intonation_perc_control,2024.2.4,Win32,59.88023952,5c3630c83ce2c8000111b504,68817205a84113384fffdfe3,688188738fff0579ab95c8eb,,,,,,,,,,,,./stim/wavs/castilian_mismatch_declarative-broad-focus_La-maestra-vive-en-Paris.wav,0,,,196.7661,199.1644,0,1,1.8744,,0,68,68,69,1,70,0,castilian,,,,,,,,,,,,,,,,,,,,,,,,,,,,,,,,,,,,,,,,,,,,,,,,,,,,,,,,
,,,,,,,,,5c3630c83ce2c8000111b504,Spanish,13 or older,"no, only English or Spanish",no,2025-07-23_21h13.15.809,empathy_intonation_perc_control,2024.2.4,Win32,59.88023952,5c3630c83ce2c8000111b504,68817205a84113384fffdfe3,688188738fff0579ab95c8eb,,,,,,,,,,,,./stim/wavs/castilian_match_interrogative-total-yn_David-leia-el-libro.wav,1,,,199.1647,201.4805,1,1,1.7881,,0,69,69,0,1,1,0,castilian,,,,,,,,,,,,,,,,,,,,,,,,,,,,,,,,,,,,,,,,,,,,,,,,,,,,,,,,
,,,,,,,,,5c3630c83ce2c8000111b504,Spanish,13 or older,"no, only English or Spanish",no,2025-07-23_21h13.15.809,empathy_intonation_perc_control,2024.2.4,Win32,59.88023952,5c3630c83ce2c8000111b504,68817205a84113384fffdfe3,688188738fff0579ab95c8eb,,,,,,,,,,,,./stim/wavs/cuban_match_interrogative-total-yn_Ana-lleva-el-abrigo.wav,1,,,201.4814,203.5677,0,0,1.5648,,0,70,70,6,1,7,1,cuban,,,,,,,,,,,,,,,,,,,,,,,,,,,,,,,,,,,,,,,,,,,,,,,,,,,,,,,,
,,,,,,,,,5c3630c83ce2c8000111b504,Spanish,13 or older,"no, only English or Spanish",no,2025-07-23_21h13.15.809,empathy_intonation_perc_control,2024.2.4,Win32,59.88023952,5c3630c83ce2c8000111b504,68817205a84113384fffdfe3,688188738fff0579ab95c8eb,,,,,,,,,,,,./stim/wavs/mexican_mismatch_interrogative-total-yn_La-maestra-vive-en-Paris.wav,1,,,203.5685,206.711,1,1,2.618,,0,71,71,36,1,37,0,mexican,,,,,,,,,,,,,,,,,,,,,,,,,,,,,,,,,,,,,,,,,,,,,,,,,,,,,,,,
,,,,,,,,,5c3630c83ce2c8000111b504,Spanish,13 or older,"no, only English or Spanish",no,2025-07-23_21h13.15.809,empathy_intonation_perc_control,2024.2.4,Win32,59.88023952,5c3630c83ce2c8000111b504,68817205a84113384fffdfe3,688188738fff0579ab95c8eb,,,,,,,,,,,,./stim/wavs/puertorican_match_declarative-broad-focus_Ana-lleva-el-abrigo.wav,0,,,206.7116,208.9602,0,1,1.7246,,0,72,72,62,1,63,0,puertorican,,,,,,,,,,,,,,,,,,,,,,,,,,,,,,,,,,,,,,,,,,,,,,,,,,,,,,,,
,,,,,,,,,5c3630c83ce2c8000111b504,Spanish,13 or older,"no, only English or Spanish",no,2025-07-23_21h13.15.809,empathy_intonation_perc_control,2024.2.4,Win32,59.88023952,5c3630c83ce2c8000111b504,68817205a84113384fffdfe3,688188738fff0579ab95c8eb,,,,,,,,,,,,./stim/wavs/cuban_match_interrogative-total-yn_Mariano-habla-del-tiempo.wav,1,,,208.9609,211.2258,0,0,1.7376,,0,73,73,10,1,11,1,cuban,,,,,,,,,,,,,,,,,,,,,,,,,,,,,,,,,,,,,,,,,,,,,,,,,,,,,,,,
,,,,,,,,,5c3630c83ce2c8000111b504,Spanish,13 or older,"no, only English or Spanish",no,2025-07-23_21h13.15.809,empathy_intonation_perc_control,2024.2.4,Win32,59.88023952,5c3630c83ce2c8000111b504,68817205a84113384fffdfe3,688188738fff0579ab95c8eb,,,,,,,,,,,,./stim/wavs/mexican_mismatch_declarative-broad-focus_Mi-tia-odia-la-lluvia.wav,0,,,211.2267,213.6579,0,1,1.9027,,0,74,74,82,1,83,0,mexican,,,,,,,,,,,,,,,,,,,,,,,,,,,,,,,,,,,,,,,,,,,,,,,,,,,,,,,,
,,,,,,,,,5c3630c83ce2c8000111b504,Spanish,13 or older,"no, only English or Spanish",no,2025-07-23_21h13.15.809,empathy_intonation_perc_control,2024.2.4,Win32,59.88023952,5c3630c83ce2c8000111b504,68817205a84113384fffdfe3,688188738fff0579ab95c8eb,,,,,,,,,,,,./stim/wavs/castilian_mismatch_interrogative-total-yn_La-maestra-vive-en-Paris.wav,1,,,213.6588,216.2062,1,1,2.0227,,0,75,75,24,1,25,0,castilian,,,,,,,,,,,,,,,,,,,,,,,,,,,,,,,,,,,,,,,,,,,,,,,,,,,,,,,,
,,,,,,,,,5c3630c83ce2c8000111b504,Spanish,13 or older,"no, only English or Spanish",no,2025-07-23_21h13.15.809,empathy_intonation_perc_control,2024.2.4,Win32,59.88023952,5c3630c83ce2c8000111b504,68817205a84113384fffdfe3,688188738fff0579ab95c8eb,,,,,,,,,,,,./stim/wavs/mexican_mismatch_declarative-broad-focus_La-maestra-vive-en-Paris.wav,0,,,216.2073,218.5907,0,1,1.8594,,0,76,76,80,1,81,0,mexican,,,,,,,,,,,,,,,,,,,,,,,,,,,,,,,,,,,,,,,,,,,,,,,,,,,,,,,,
,,,,,,,,,5c3630c83ce2c8000111b504,Spanish,13 or older,"no, only English or Spanish",no,2025-07-23_21h13.15.809,empathy_intonation_perc_control,2024.2.4,Win32,59.88023952,5c3630c83ce2c8000111b504,68817205a84113384fffdfe3,688188738fff0579ab95c8eb,,,,,,,,,,,,./stim/wavs/cuban_mismatch_interrogative-total-yn_Mi-tia-odia-la-lluvia.wav,1,,,218.5916,220.8383,0,0,1.7196,,0,77,77,33,1,34,1,cuban,,,,,,,,,,,,,,,,,,,,,,,,,,,,,,,,,,,,,,,,,,,,,,,,,,,,,,,,
,,,,,,,,,5c3630c83ce2c8000111b504,Spanish,13 or older,"no, only English or Spanish",no,2025-07-23_21h13.15.809,empathy_intonation_perc_control,2024.2.4,Win32,59.88023952,5c3630c83ce2c8000111b504,68817205a84113384fffdfe3,688188738fff0579ab95c8eb,,,,,,,,,,,,./stim/wavs/puertorican_mismatch_interrogative-total-yn_La-nina-lava-el-plato.wav,1,,,220.8391,222.8531,0,0,1.4835,,0,78,78,42,1,43,1,puertorican,,,,,,,,,,,,,,,,,,,,,,,,,,,,,,,,,,,,,,,,,,,,,,,,,,,,,,,,
,,,,,,,,,5c3630c83ce2c8000111b504,Spanish,13 or older,"no, only English or Spanish",no,2025-07-23_21h13.15.809,empathy_intonation_perc_control,2024.2.4,Win32,59.88023952,5c3630c83ce2c8000111b504,68817205a84113384fffdfe3,688188738fff0579ab95c8eb,,,,,,,,,,,,./stim/wavs/puertorican_match_declarative-broad-focus_David-leia-el-libro.wav,0,,,222.8542,224.9027,0,1,1.5182,,0,79,79,64,1,65,0,puertorican,,,,,,,,,,,,,,,,,,,,,,,,,,,,,,,,,,,,,,,,,,,,,,,,,,,,,,,,
,,,,,,,,,5c3630c83ce2c8000111b504,Spanish,13 or older,"no, only English or Spanish",no,2025-07-23_21h13.15.809,empathy_intonation_perc_control,2024.2.4,Win32,59.88023952,5c3630c83ce2c8000111b504,68817205a84113384fffdfe3,688188738fff0579ab95c8eb,,,,,,,,,,,,./stim/wavs/mexican_match_interrogative-total-yn_Ana-lleva-el-abrigo.wav,1,,,224.9036,226.9343,0,0,1.5006,,0,80,80,12,1,13,0,mexican,,,,,,,,,,,,,,,,,,,,,,,,,,,,,,,,,,,,,,,,,,,,,,,,,,,,,,,,
,,,,,,,,,5c3630c83ce2c8000111b504,Spanish,13 or older,"no, only English or Spanish",no,2025-07-23_21h13.15.809,empathy_intonation_perc_control,2024.2.4,Win32,59.88023952,5c3630c83ce2c8000111b504,68817205a84113384fffdfe3,688188738fff0579ab95c8eb,,,,,,,,,,,,./stim/wavs/castilian_match_interrogative-total-yn_Emilio-ama-la-marcha.wav,1,,,226.9353,229.2842,1,1,1.8194,,0,81,81,1,1,2,0,castilian,,,,,,,,,,,,,,,,,,,,,,,,,,,,,,,,,,,,,,,,,,,,,,,,,,,,,,,,
,,,,,,,,,5c3630c83ce2c8000111b504,Spanish,13 or older,"no, only English or Spanish",no,2025-07-23_21h13.15.809,empathy_intonation_perc_control,2024.2.4,Win32,59.88023952,5c3630c83ce2c8000111b504,68817205a84113384fffdfe3,688188738fff0579ab95c8eb,,,,,,,,,,,,./stim/wavs/castilian_mismatch_interrogative-total-yn_Mi-tia-odia-la-lluvia.wav,1,,,229.285,231.4836,1,1,1.6755,,0,82,82,28,1,29,0,castilian,,,,,,,,,,,,,,,,,,,,,,,,,,,,,,,,,,,,,,,,,,,,,,,,,,,,,,,,
,,,,,,,,,5c3630c83ce2c8000111b504,Spanish,13 or older,"no, only English or Spanish",no,2025-07-23_21h13.15.809,empathy_intonation_perc_control,2024.2.4,Win32,59.88023952,5c3630c83ce2c8000111b504,68817205a84113384fffdfe3,688188738fff0579ab95c8eb,,,,,,,,,,,,./stim/wavs/cuban_mismatch_interrogative-total-yn_Mi-novio-viene-del-lago.wav,1,,,231.4839,233.6321,0,0,1.6246,,0,83,83,32,1,33,1,cuban,,,,,,,,,,,,,,,,,,,,,,,,,,,,,,,,,,,,,,,,,,,,,,,,,,,,,,,,
,,,,,,,,,5c3630c83ce2c8000111b504,Spanish,13 or older,"no, only English or Spanish",no,2025-07-23_21h13.15.809,empathy_intonation_perc_control,2024.2.4,Win32,59.88023952,5c3630c83ce2c8000111b504,68817205a84113384fffdfe3,688188738fff0579ab95c8eb,,,,,,,,,,,,./stim/wavs/castilian_match_declarative-broad-focus_Emilio-ama-la-marcha.wav,0,,,233.6333,235.8637,0,1,1.7017,,0,84,84,45,1,46,0,castilian,,,,,,,,,,,,,,,,,,,,,,,,,,,,,,,,,,,,,,,,,,,,,,,,,,,,,,,,
,,,,,,,,,5c3630c83ce2c8000111b504,Spanish,13 or older,"no, only English or Spanish",no,2025-07-23_21h13.15.809,empathy_intonation_perc_control,2024.2.4,Win32,59.88023952,5c3630c83ce2c8000111b504,68817205a84113384fffdfe3,688188738fff0579ab95c8eb,,,,,,,,,,,,./stim/wavs/puertorican_match_declarative-broad-focus_Daniel-iba-a-Bolivia.wav,0,,,235.8646,237.913,0,1,1.5189,,0,85,85,63,1,64,0,puertorican,,,,,,,,,,,,,,,,,,,,,,,,,,,,,,,,,,,,,,,,,,,,,,,,,,,,,,,,
,,,,,,,,,5c3630c83ce2c8000111b504,Spanish,13 or older,"no, only English or Spanish",no,2025-07-23_21h13.15.809,empathy_intonation_perc_control,2024.2.4,Win32,59.88023952,5c3630c83ce2c8000111b504,68817205a84113384fffdfe3,688188738fff0579ab95c8eb,,,,,,,,,,,,./stim/wavs/mexican_match_interrogative-total-yn_Marta-abre-el-regalo.wav,1,,,237.9138,240.0293,1,1,1.5919,,0,86,86,17,1,18,0,mexican,,,,,,,,,,,,,,,,,,,,,,,,,,,,,,,,,,,,,,,,,,,,,,,,,,,,,,,,
,,,,,,,,,5c3630c83ce2c8000111b504,Spanish,13 or older,"no, only English or Spanish",no,2025-07-23_21h13.15.809,empathy_intonation_perc_control,2024.2.4,Win32,59.88023952,5c3630c83ce2c8000111b504,68817205a84113384fffdfe3,688188738fff0579ab95c8eb,,,,,,,,,,,,./stim/wavs/mexican_match_declarative-broad-focus_Daniel-iba-a-Bolivia.wav,0,,,240.0299,242.0618,0,1,1.509,,0,87,87,57,1,58,0,mexican,,,,,,,,,,,,,,,,,,,,,,,,,,,,,,,,,,,,,,,,,,,,,,,,,,,,,,,,
,,,,,,,"Great! Now we will move on. The next task consists of about 60 trials, in each of which you will see a string of letters. 
  
  Your task is to decide whether this is a real Spanish word or not.", (press the spacebar to continue),5c3630c83ce2c8000111b504,Spanish,13 or older,"no, only English or Spanish",no,2025-07-23_21h13.15.809,empathy_intonation_perc_control,2024.2.4,Win32,59.88023952,5c3630c83ce2c8000111b504,68817205a84113384fffdfe3,688188738fff0579ab95c8eb,,,,,,,,,,,,,,,,,,,,,,,,,,,,,,242.072,249.4069,0,0,0,0,1,,,,,,,,,,,,,,,,,,,,,,,,,,,,,,,,,,,,,,,,,,,,,,,,,
,,,,,,,"If you think it is an existing Spanish word, you type '1' (for 'REAL'), and if you think it is not an existing Spanish word, you type '0' (for 'FAKE').", (press the spacebar to continue),5c3630c83ce2c8000111b504,Spanish,13 or older,"no, only English or Spanish",no,2025-07-23_21h13.15.809,empathy_intonation_perc_control,2024.2.4,Win32,59.88023952,5c3630c83ce2c8000111b504,68817205a84113384fffdfe3,688188738fff0579ab95c8eb,,,,,,,,,,,,,,,,,,,,,,,,,,,,,,249.4119,256.8536,0,1,1,1,1,,,,,,,,,,,,,,,,,,,,,,,,,,,,,,,,,,,,,,,,,,,,,,,,,
,,,,,,,"If you are sure that the word exists, even though you don’t know its exact meaning, you may still respond '1' (REAL). 
  
  But if you are not sure if it is an existing word, you should respond '0' (FAKE).
  
  Let's do a practice round...", (press the spacebar to continue),5c3630c83ce2c8000111b504,Spanish,13 or older,"no, only English or Spanish",no,2025-07-23_21h13.15.809,empathy_intonation_perc_control,2024.2.4,Win32,59.88023952,5c3630c83ce2c8000111b504,68817205a84113384fffdfe3,688188738fff0579ab95c8eb,,,,,,,,,,,,,,,,,,,,,,,,,,,,,,256.8573,266.365,0,2,2,2,1,,,,,,,,,,,,,,,,,,,,,,,,,,,,,,,,,,,,,,,,,,,,,,,,,
,,,,,,,,,5c3630c83ce2c8000111b504,Spanish,13 or older,"no, only English or Spanish",no,2025-07-23_21h13.15.809,empathy_intonation_perc_control,2024.2.4,Win32,59.88023952,5c3630c83ce2c8000111b504,68817205a84113384fffdfe3,688188738fff0579ab95c8eb,,,,,,,,,,,,,0,,,,,,,,,,,,,,,,,,,,,,,,266.3698,270.6135,0,1,3.7104,,270.6139,270.6297,0,0,0,0,1,0,depiste,REAL,FAKE,,,,,,,,,,,,,,,,,,,,,,,,,,,,,,,,
,,,,,,,,,5c3630c83ce2c8000111b504,Spanish,13 or older,"no, only English or Spanish",no,2025-07-23_21h13.15.809,empathy_intonation_perc_control,2024.2.4,Win32,59.88023952,5c3630c83ce2c8000111b504,68817205a84113384fffdfe3,688188738fff0579ab95c8eb,,,,,,,,,,,,,1,,,,,,,,,,,,,,,,,,,,,,,,270.6323,273.1785,1,1,2.0221,,273.1786,274.1775,0,1,1,1,1,0,sí,REAL,FAKE,,,,,,,,,,,,,,,,,,,,,,,,,,,,,,,,
,,,,,,,,,5c3630c83ce2c8000111b504,Spanish,13 or older,"no, only English or Spanish",no,2025-07-23_21h13.15.809,empathy_intonation_perc_control,2024.2.4,Win32,59.88023952,5c3630c83ce2c8000111b504,68817205a84113384fffdfe3,688188738fff0579ab95c8eb,,,,,,,,,,,,,0,,,,,,,,,,,,,,,,,,,,,,,,274.1783,276.0949,0,1,1.3915,,276.095,277.0936,0,2,2,2,1,0,coné,REAL,FAKE,,,,,,,,,,,,,,,,,,,,,,,,,,,,,,,,
,,,,,,,,,5c3630c83ce2c8000111b504,Spanish,13 or older,"no, only English or Spanish",no,2025-07-23_21h13.15.809,empathy_intonation_perc_control,2024.2.4,Win32,59.88023952,5c3630c83ce2c8000111b504,68817205a84113384fffdfe3,688188738fff0579ab95c8eb,,,,,,,,,,,,,0,,,,,,,,,,,,,,,,,,,,,,,,277.0958,278.7093,0,1,1.0821,,278.7094,279.7091,0,3,3,3,1,0,calpar,REAL,FAKE,,,,,,,,,,,,,,,,,,,,,,,,,,,,,,,,
,,,,,,,,,5c3630c83ce2c8000111b504,Spanish,13 or older,"no, only English or Spanish",no,2025-07-23_21h13.15.809,empathy_intonation_perc_control,2024.2.4,Win32,59.88023952,5c3630c83ce2c8000111b504,68817205a84113384fffdfe3,688188738fff0579ab95c8eb,,,,,,,,,,,,,0,,,,,,,,,,,,,,,,,,,,,,,,279.7113,281.1081,0,1,0.8657,,281.1083,282.1079,0,4,4,4,1,0,joten,REAL,FAKE,,,,,,,,,,,,,,,,,,,,,,,,,,,,,,,,
,,,,,,,,,5c3630c83ce2c8000111b504,Spanish,13 or older,"no, only English or Spanish",no,2025-07-23_21h13.15.809,empathy_intonation_perc_control,2024.2.4,Win32,59.88023952,5c3630c83ce2c8000111b504,68817205a84113384fffdfe3,688188738fff0579ab95c8eb,,,,,,,,,,,,,1,,,,,,,,,,,,,,,,,,,,,,,,282.1094,284.0068,1,1,1.3653,,284.0068,285.0061,0,5,5,5,1,0,sacapuntas,REAL,FAKE,,,,,,,,,,,,,,,,,,,,,,,,,,,,,,,,
,,,,,,,,,5c3630c83ce2c8000111b504,Spanish,13 or older,"no, only English or Spanish",no,2025-07-23_21h13.15.809,empathy_intonation_perc_control,2024.2.4,Win32,59.88023952,5c3630c83ce2c8000111b504,68817205a84113384fffdfe3,688188738fff0579ab95c8eb,,,,,,,,,,,,,0,,,,,,,,,,,,,,,,,,,,,,,,285.0084,286.4391,0,1,0.9005,,286.4392,287.4385,0,6,6,6,1,0,priba,REAL,FAKE,,,,,,,,,,,,,,,,,,,,,,,,,,,,,,,,
,,,,,,,,,5c3630c83ce2c8000111b504,Spanish,13 or older,"no, only English or Spanish",no,2025-07-23_21h13.15.809,empathy_intonation_perc_control,2024.2.4,Win32,59.88023952,5c3630c83ce2c8000111b504,68817205a84113384fffdfe3,688188738fff0579ab95c8eb,,,,,,,,,,,,,0,,,,,,,,,,,,,,,,,,,,,,,,287.44,289.0539,0,1,1.085,,289.054,290.054,0,7,7,7,1,0,pelasula,REAL,FAKE,,,,,,,,,,,,,,,,,,,,,,,,,,,,,,,,
,,,,,,,,,5c3630c83ce2c8000111b504,Spanish,13 or older,"no, only English or Spanish",no,2025-07-23_21h13.15.809,empathy_intonation_perc_control,2024.2.4,Win32,59.88023952,5c3630c83ce2c8000111b504,68817205a84113384fffdfe3,688188738fff0579ab95c8eb,,,,,,,,,,,,,1,,,,,,,,,,,,,,,,,,,,,,,,290.0555,291.4694,1,1,0.8873,,291.4694,292.4695,0,8,8,8,1,0,bien,REAL,FAKE,,,,,,,,,,,,,,,,,,,,,,,,,,,,,,,,
,,,,,,,,,5c3630c83ce2c8000111b504,Spanish,13 or older,"no, only English or Spanish",no,2025-07-23_21h13.15.809,empathy_intonation_perc_control,2024.2.4,Win32,59.88023952,5c3630c83ce2c8000111b504,68817205a84113384fffdfe3,688188738fff0579ab95c8eb,,,,,,,,,,,,,1,,,,,,,,,,,,,,,,,,,,,,,,292.4706,293.8022,1,1,0.8002,,293.8023,294.8017,0,9,9,9,1,0,casa,REAL,FAKE,,,,,,,,,,,,,,,,,,,,,,,,,,,,,,,,
,,,,,,,,,5c3630c83ce2c8000111b504,Spanish,13 or older,"no, only English or Spanish",no,2025-07-23_21h13.15.809,empathy_intonation_perc_control,2024.2.4,Win32,59.88023952,5c3630c83ce2c8000111b504,68817205a84113384fffdfe3,688188738fff0579ab95c8eb,,,,,,,,,,,,,0,,,,,,,,,,,,,,,,,,,,,,,,294.8033,296.4836,1,0,1.1483,,296.4844,297.4837,0,10,10,10,1,0,lejo,REAL,FAKE,,,,,,,,,,,,,,,,,,,,,,,,,,,,,,,,
,,,,,,,,,5c3630c83ce2c8000111b504,Spanish,13 or older,"no, only English or Spanish",no,2025-07-23_21h13.15.809,empathy_intonation_perc_control,2024.2.4,Win32,59.88023952,5c3630c83ce2c8000111b504,68817205a84113384fffdfe3,688188738fff0579ab95c8eb,,,,,,,,,,,,,0,,,,,,,,,,,,,,,,,,,,,,,,297.4852,299.4157,0,1,1.399,,299.4168,300.4153,0,11,11,11,1,0,pretantas,REAL,FAKE,,,,,,,,,,,,,,,,,,,,,,,,,,,,,,,,
,,,,,,,,,5c3630c83ce2c8000111b504,Spanish,13 or older,"no, only English or Spanish",no,2025-07-23_21h13.15.809,empathy_intonation_perc_control,2024.2.4,Win32,59.88023952,5c3630c83ce2c8000111b504,68817205a84113384fffdfe3,688188738fff0579ab95c8eb,,,,,,,,,,,,,,,,,,,,,,,,,,,,,,,,,,,,,,,,,,,,,,,,,,,,,,300.4157,308.111,,,,,,,,,,,,,,,,,,,,,,,,,,,,,,
,,,,,,,,,5c3630c83ce2c8000111b504,Spanish,13 or older,"no, only English or Spanish",no,2025-07-23_21h13.15.809,empathy_intonation_perc_control,2024.2.4,Win32,59.88023952,5c3630c83ce2c8000111b504,68817205a84113384fffdfe3,688188738fff0579ab95c8eb,,,,,,,,,,,,,1,,,,,,,,,,,,,,,,,,,,,,,,,,,,,,,,,,,,,55,nevar,,,,,308.126,310.0108,0,0,1.3646,,0,0,0,54,1,REAL,FAKE,,,,,,,,,,,,,,,,,
,,,,,,,,,5c3630c83ce2c8000111b504,Spanish,13 or older,"no, only English or Spanish",no,2025-07-23_21h13.15.809,empathy_intonation_perc_control,2024.2.4,Win32,59.88023952,5c3630c83ce2c8000111b504,68817205a84113384fffdfe3,688188738fff0579ab95c8eb,,,,,,,,,,,,,1,,,,,,,,,,,,,,,,,,,,,,,,,,,,,,,,,,,,,86,barato,,,,,310.0122,311.51,0,0,0.9678,,0,1,1,85,1,REAL,FAKE,,,,,,,,,,,,,,,,,
,,,,,,,,,5c3630c83ce2c8000111b504,Spanish,13 or older,"no, only English or Spanish",no,2025-07-23_21h13.15.809,empathy_intonation_perc_control,2024.2.4,Win32,59.88023952,5c3630c83ce2c8000111b504,68817205a84113384fffdfe3,688188738fff0579ab95c8eb,,,,,,,,,,,,,1,,,,,,,,,,,,,,,,,,,,,,,,,,,,,,,,,,,,,26,secuestro,,,,,311.5116,313.2258,1,1,1.1829,,0,2,2,25,1,REAL,FAKE,,,,,,,,,,,,,,,,,
,,,,,,,,,5c3630c83ce2c8000111b504,Spanish,13 or older,"no, only English or Spanish",no,2025-07-23_21h13.15.809,empathy_intonation_perc_control,2024.2.4,Win32,59.88023952,5c3630c83ce2c8000111b504,68817205a84113384fffdfe3,688188738fff0579ab95c8eb,,,,,,,,,,,,,0,,,,,,,,,,,,,,,,,,,,,,,,,,,,,,,,,,,,,27,acutación,,,,,313.2283,315.8904,1,0,2.1291,,0,3,3,26,1,REAL,FAKE,,,,,,,,,,,,,,,,,
,,,,,,,,,5c3630c83ce2c8000111b504,Spanish,13 or older,"no, only English or Spanish",no,2025-07-23_21h13.15.809,empathy_intonation_perc_control,2024.2.4,Win32,59.88023952,5c3630c83ce2c8000111b504,68817205a84113384fffdfe3,688188738fff0579ab95c8eb,,,,,,,,,,,,,1,,,,,,,,,,,,,,,,,,,,,,,,,,,,,,,,,,,,,69,engatusar,,,,,315.8915,317.4896,0,0,1.0667,,0,4,4,68,1,REAL,FAKE,,,,,,,,,,,,,,,,,
,,,,,,,,,5c3630c83ce2c8000111b504,Spanish,13 or older,"no, only English or Spanish",no,2025-07-23_21h13.15.809,empathy_intonation_perc_control,2024.2.4,Win32,59.88023952,5c3630c83ce2c8000111b504,68817205a84113384fffdfe3,688188738fff0579ab95c8eb,,,,,,,,,,,,,0,,,,,,,,,,,,,,,,,,,,,,,,,,,,,,,,,,,,,84,escuto,,,,,317.4901,319.0559,0,1,1.0534,,0,5,5,83,1,REAL,FAKE,,,,,,,,,,,,,,,,,
,,,,,,,,,5c3630c83ce2c8000111b504,Spanish,13 or older,"no, only English or Spanish",no,2025-07-23_21h13.15.809,empathy_intonation_perc_control,2024.2.4,Win32,59.88023952,5c3630c83ce2c8000111b504,68817205a84113384fffdfe3,688188738fff0579ab95c8eb,,,,,,,,,,,,,0,,,,,,,,,,,,,,,,,,,,,,,,,,,,,,,,,,,,,18,arsa,,,,,319.0575,320.3554,0,1,0.7651,,0,6,6,17,1,REAL,FAKE,,,,,,,,,,,,,,,,,
,,,,,,,,,5c3630c83ce2c8000111b504,Spanish,13 or older,"no, only English or Spanish",no,2025-07-23_21h13.15.809,empathy_intonation_perc_control,2024.2.4,Win32,59.88023952,5c3630c83ce2c8000111b504,68817205a84113384fffdfe3,688188738fff0579ab95c8eb,,,,,,,,,,,,,1,,,,,,,,,,,,,,,,,,,,,,,,,,,,,,,,,,,,,15,regar,,,,,320.3566,321.9046,1,1,1.0201,,0,7,7,14,1,REAL,FAKE,,,,,,,,,,,,,,,,,
,,,,,,,,,5c3630c83ce2c8000111b504,Spanish,13 or older,"no, only English or Spanish",no,2025-07-23_21h13.15.809,empathy_intonation_perc_control,2024.2.4,Win32,59.88023952,5c3630c83ce2c8000111b504,68817205a84113384fffdfe3,688188738fff0579ab95c8eb,,,,,,,,,,,,,1,,,,,,,,,,,,,,,,,,,,,,,,,,,,,,,,,,,,,91,click the 1 key.,,,,,321.9089,323.7371,1,1,1.2985,,0,8,8,90,1,REAL,FAKE,,,,,,,,,,,,,,,,,
,,,,,,,,,5c3630c83ce2c8000111b504,Spanish,13 or older,"no, only English or Spanish",no,2025-07-23_21h13.15.809,empathy_intonation_perc_control,2024.2.4,Win32,59.88023952,5c3630c83ce2c8000111b504,68817205a84113384fffdfe3,688188738fff0579ab95c8eb,,,,,,,,,,,,,0,,,,,,,,,,,,,,,,,,,,,,,,,,,,,,,,,,,,,50,flamida,,,,,323.7393,325.5531,0,1,1.2848,,0,9,9,49,1,REAL,FAKE,,,,,,,,,,,,,,,,,
,,,,,,,,,5c3630c83ce2c8000111b504,Spanish,13 or older,"no, only English or Spanish",no,2025-07-23_21h13.15.809,empathy_intonation_perc_control,2024.2.4,Win32,59.88023952,5c3630c83ce2c8000111b504,68817205a84113384fffdfe3,688188738fff0579ab95c8eb,,,,,,,,,,,,,1,,,,,,,,,,,,,,,,,,,,,,,,,,,,,,,,,,,,,31,pandilla,,,,,325.5543,328.0521,1,1,1.9689,,0,10,10,30,1,REAL,FAKE,,,,,,,,,,,,,,,,,
,,,,,,,,,5c3630c83ce2c8000111b504,Spanish,13 or older,"no, only English or Spanish",no,2025-07-23_21h13.15.809,empathy_intonation_perc_control,2024.2.4,Win32,59.88023952,5c3630c83ce2c8000111b504,68817205a84113384fffdfe3,688188738fff0579ab95c8eb,,,,,,,,,,,,,1,,,,,,,,,,,,,,,,,,,,,,,,,,,,,,,,,,,,,89,prisa,,,,,328.0535,329.4343,1,1,0.8533,,0,11,11,88,1,REAL,FAKE,,,,,,,,,,,,,,,,,
,,,,,,,,,5c3630c83ce2c8000111b504,Spanish,13 or older,"no, only English or Spanish",no,2025-07-23_21h13.15.809,empathy_intonation_perc_control,2024.2.4,Win32,59.88023952,5c3630c83ce2c8000111b504,68817205a84113384fffdfe3,688188738fff0579ab95c8eb,,,,,,,,,,,,,0,,,,,,,,,,,,,,,,,,,,,,,,,,,,,,,,,,,,,4,batillón,,,,,329.4356,331.0556,1,0,1.0935,,0,12,12,3,1,REAL,FAKE,,,,,,,,,,,,,,,,,
,,,,,,,,,5c3630c83ce2c8000111b504,Spanish,13 or older,"no, only English or Spanish",no,2025-07-23_21h13.15.809,empathy_intonation_perc_control,2024.2.4,Win32,59.88023952,5c3630c83ce2c8000111b504,68817205a84113384fffdfe3,688188738fff0579ab95c8eb,,,,,,,,,,,,,1,,,,,,,,,,,,,,,,,,,,,,,,,,,,,,,,,,,,,49,ganar,,,,,331.0572,332.6001,1,1,1.0176,,0,13,13,48,1,REAL,FAKE,,,,,,,,,,,,,,,,,
,,,,,,,,,5c3630c83ce2c8000111b504,Spanish,13 or older,"no, only English or Spanish",no,2025-07-23_21h13.15.809,empathy_intonation_perc_control,2024.2.4,Win32,59.88023952,5c3630c83ce2c8000111b504,68817205a84113384fffdfe3,688188738fff0579ab95c8eb,,,,,,,,,,,,,1,,,,,,,,,,,,,,,,,,,,,,,,,,,,,,,,,,,,,2,pellizcar,,,,,332.603,334.2322,0,0,1.0971,,0,14,14,1,1,REAL,FAKE,,,,,,,,,,,,,,,,,
,,,,,,,,,5c3630c83ce2c8000111b504,Spanish,13 or older,"no, only English or Spanish",no,2025-07-23_21h13.15.809,empathy_intonation_perc_control,2024.2.4,Win32,59.88023952,5c3630c83ce2c8000111b504,68817205a84113384fffdfe3,688188738fff0579ab95c8eb,,,,,,,,,,,,,0,,,,,,,,,,,,,,,,,,,,,,,,,,,,,,,,,,,,,32,fatacidad,,,,,334.2333,336.5312,1,0,1.7674,,0,15,15,31,1,REAL,FAKE,,,,,,,,,,,,,,,,,
,,,,,,,,,5c3630c83ce2c8000111b504,Spanish,13 or older,"no, only English or Spanish",no,2025-07-23_21h13.15.809,empathy_intonation_perc_control,2024.2.4,Win32,59.88023952,5c3630c83ce2c8000111b504,68817205a84113384fffdfe3,688188738fff0579ab95c8eb,,,,,,,,,,,,,0,,,,,,,,,,,,,,,,,,,,,,,,,,,,,,,,,,,,,33,pauca,,,,,336.5327,337.8135,0,1,0.7494,,0,16,16,32,1,REAL,FAKE,,,,,,,,,,,,,,,,,
,,,,,,,,,5c3630c83ce2c8000111b504,Spanish,13 or older,"no, only English or Spanish",no,2025-07-23_21h13.15.809,empathy_intonation_perc_control,2024.2.4,Win32,59.88023952,5c3630c83ce2c8000111b504,68817205a84113384fffdfe3,688188738fff0579ab95c8eb,,,,,,,,,,,,,0,,,,,,,,,,,,,,,,,,,,,,,,,,,,,,,,,,,,,92,click the 0 key.,,,,,337.8148,339.4631,0,1,1.1183,,0,17,17,91,1,REAL,FAKE,,,,,,,,,,,,,,,,,
,,,,,,,,,5c3630c83ce2c8000111b504,Spanish,13 or older,"no, only English or Spanish",no,2025-07-23_21h13.15.809,empathy_intonation_perc_control,2024.2.4,Win32,59.88023952,5c3630c83ce2c8000111b504,68817205a84113384fffdfe3,688188738fff0579ab95c8eb,,,,,,,,,,,,,0,,,,,,,,,,,,,,,,,,,,,,,,,,,,,,,,,,,,,29,decar,,,,,339.4647,340.9952,1,0,0.9992,,0,18,18,28,1,REAL,FAKE,,,,,,,,,,,,,,,,,
,,,,,,,,,5c3630c83ce2c8000111b504,Spanish,13 or older,"no, only English or Spanish",no,2025-07-23_21h13.15.809,empathy_intonation_perc_control,2024.2.4,Win32,59.88023952,5c3630c83ce2c8000111b504,68817205a84113384fffdfe3,688188738fff0579ab95c8eb,,,,,,,,,,,,,1,,,,,,,,,,,,,,,,,,,,,,,,,,,,,,,,,,,,,34,aviso,,,,,340.9964,342.2942,1,1,0.761,,0,19,19,33,1,REAL,FAKE,,,,,,,,,,,,,,,,,
,,,,,,,,,5c3630c83ce2c8000111b504,Spanish,13 or older,"no, only English or Spanish",no,2025-07-23_21h13.15.809,empathy_intonation_perc_control,2024.2.4,Win32,59.88023952,5c3630c83ce2c8000111b504,68817205a84113384fffdfe3,688188738fff0579ab95c8eb,,,,,,,,,,,,,1,,,,,,,,,,,,,,,,,,,,,,,,,,,,,,,,,,,,,75,yacer,,,,,342.295,343.6304,0,0,0.8082,,0,20,20,74,1,REAL,FAKE,,,,,,,,,,,,,,,,,
,,,,,,,,,5c3630c83ce2c8000111b504,Spanish,13 or older,"no, only English or Spanish",no,2025-07-23_21h13.15.809,empathy_intonation_perc_control,2024.2.4,Win32,59.88023952,5c3630c83ce2c8000111b504,68817205a84113384fffdfe3,688188738fff0579ab95c8eb,,,,,,,,,,,,,1,,,,,,,,,,,,,,,,,,,,,,,,,,,,,,,,,,,,,64,orgulloso,,,,,343.6316,345.227,0,0,1.0677,,0,21,21,63,1,REAL,FAKE,,,,,,,,,,,,,,,,,
,,,,,,,,,5c3630c83ce2c8000111b504,Spanish,13 or older,"no, only English or Spanish",no,2025-07-23_21h13.15.809,empathy_intonation_perc_control,2024.2.4,Win32,59.88023952,5c3630c83ce2c8000111b504,68817205a84113384fffdfe3,688188738fff0579ab95c8eb,,,,,,,,,,,,,0,,,,,,,,,,,,,,,,,,,,,,,,,,,,,,,,,,,,,66,hacido,,,,,345.2286,346.5592,1,0,0.8031,,0,22,22,65,1,REAL,FAKE,,,,,,,,,,,,,,,,,
,,,,,,,,,5c3630c83ce2c8000111b504,Spanish,13 or older,"no, only English or Spanish",no,2025-07-23_21h13.15.809,empathy_intonation_perc_control,2024.2.4,Win32,59.88023952,5c3630c83ce2c8000111b504,68817205a84113384fffdfe3,688188738fff0579ab95c8eb,,,,,,,,,,,,,1,,,,,,,,,,,,,,,,,,,,,,,,,,,,,,,,,,,,,44,cuchara,,,,,346.5606,348.0792,1,1,0.9922,,0,23,23,43,1,REAL,FAKE,,,,,,,,,,,,,,,,,
,,,,,,,,,5c3630c83ce2c8000111b504,Spanish,13 or older,"no, only English or Spanish",no,2025-07-23_21h13.15.809,empathy_intonation_perc_control,2024.2.4,Win32,59.88023952,5c3630c83ce2c8000111b504,68817205a84113384fffdfe3,688188738fff0579ab95c8eb,,,,,,,,,,,,,1,,,,,,,,,,,,,,,,,,,,,,,,,,,,,,,,,,,,,65,bizcocho,,,,,348.0807,349.3909,0,0,0.7875,,0,24,24,64,1,REAL,FAKE,,,,,,,,,,,,,,,,,
,,,,,,,,,5c3630c83ce2c8000111b504,Spanish,13 or older,"no, only English or Spanish",no,2025-07-23_21h13.15.809,empathy_intonation_perc_control,2024.2.4,Win32,59.88023952,5c3630c83ce2c8000111b504,68817205a84113384fffdfe3,688188738fff0579ab95c8eb,,,,,,,,,,,,,0,,,,,,,,,,,,,,,,,,,,,,,,,,,,,,,,,,,,,16,abracer,,,,,349.3924,350.9119,1,0,0.9926,,0,25,25,15,1,REAL,FAKE,,,,,,,,,,,,,,,,,
,,,,,,,,,5c3630c83ce2c8000111b504,Spanish,13 or older,"no, only English or Spanish",no,2025-07-23_21h13.15.809,empathy_intonation_perc_control,2024.2.4,Win32,59.88023952,5c3630c83ce2c8000111b504,68817205a84113384fffdfe3,688188738fff0579ab95c8eb,,,,,,,,,,,,,1,,,,,,,,,,,,,,,,,,,,,,,,,,,,,,,,,,,,,67,cabello,,,,,350.9134,352.2734,1,1,0.835,,0,26,26,66,1,REAL,FAKE,,,,,,,,,,,,,,,,,
,,,,,,,,,5c3630c83ce2c8000111b504,Spanish,13 or older,"no, only English or Spanish",no,2025-07-23_21h13.15.809,empathy_intonation_perc_control,2024.2.4,Win32,59.88023952,5c3630c83ce2c8000111b504,68817205a84113384fffdfe3,688188738fff0579ab95c8eb,,,,,,,,,,,,,1,,,,,,,,,,,,,,,,,,,,,,,,,,,,,,,,,,,,,13,helar,,,,,352.2745,353.8557,1,1,1.0544,,0,27,27,12,1,REAL,FAKE,,,,,,,,,,,,,,,,,
,,,,,,,,,5c3630c83ce2c8000111b504,Spanish,13 or older,"no, only English or Spanish",no,2025-07-23_21h13.15.809,empathy_intonation_perc_control,2024.2.4,Win32,59.88023952,5c3630c83ce2c8000111b504,68817205a84113384fffdfe3,688188738fff0579ab95c8eb,,,,,,,,,,,,,1,,,,,,,,,,,,,,,,,,,,,,,,,,,,,,,,,,,,,20,ávido,,,,,353.8578,355.2387,1,1,0.8494,,0,28,28,19,1,REAL,FAKE,,,,,,,,,,,,,,,,,
,,,,,,,,,5c3630c83ce2c8000111b504,Spanish,13 or older,"no, only English or Spanish",no,2025-07-23_21h13.15.809,empathy_intonation_perc_control,2024.2.4,Win32,59.88023952,5c3630c83ce2c8000111b504,68817205a84113384fffdfe3,688188738fff0579ab95c8eb,,,,,,,,,,,,,0,,,,,,,,,,,,,,,,,,,,,,,,,,,,,,,,,,,,,79,tropaje,,,,,355.2402,357.3211,1,0,1.5502,,0,29,29,78,1,REAL,FAKE,,,,,,,,,,,,,,,,,
,,,,,,,,,5c3630c83ce2c8000111b504,Spanish,13 or older,"no, only English or Spanish",no,2025-07-23_21h13.15.809,empathy_intonation_perc_control,2024.2.4,Win32,59.88023952,5c3630c83ce2c8000111b504,68817205a84113384fffdfe3,688188738fff0579ab95c8eb,,,,,,,,,,,,,0,,,,,,,,,,,,,,,,,,,,,,,,,,,,,,,,,,,,,1,terzo,,,,,357.3227,358.5705,0,1,0.7174,,0,30,30,0,1,REAL,FAKE,,,,,,,,,,,,,,,,,
,,,,,,,,,5c3630c83ce2c8000111b504,Spanish,13 or older,"no, only English or Spanish",no,2025-07-23_21h13.15.809,empathy_intonation_perc_control,2024.2.4,Win32,59.88023952,5c3630c83ce2c8000111b504,68817205a84113384fffdfe3,688188738fff0579ab95c8eb,,,,,,,,,,,,,1,,,,,,,,,,,,,,,,,,,,,,,,,,,,,,,,,,,,,36,loro,,,,,358.5723,359.7355,0,0,0.631,,0,31,31,35,1,REAL,FAKE,,,,,,,,,,,,,,,,,
,,,,,,,,,5c3630c83ce2c8000111b504,Spanish,13 or older,"no, only English or Spanish",no,2025-07-23_21h13.15.809,empathy_intonation_perc_control,2024.2.4,Win32,59.88023952,5c3630c83ce2c8000111b504,68817205a84113384fffdfe3,688188738fff0579ab95c8eb,,,,,,,,,,,,,1,,,,,,,,,,,,,,,,,,,,,,,,,,,,,,,,,,,,,80,hormiga,,,,,359.7361,361.0395,0,0,0.7782,,0,32,32,79,1,REAL,FAKE,,,,,,,,,,,,,,,,,
,,,,,,,,,5c3630c83ce2c8000111b504,Spanish,13 or older,"no, only English or Spanish",no,2025-07-23_21h13.15.809,empathy_intonation_perc_control,2024.2.4,Win32,59.88023952,5c3630c83ce2c8000111b504,68817205a84113384fffdfe3,688188738fff0579ab95c8eb,,,,,,,,,,,,,1,,,,,,,,,,,,,,,,,,,,,,,,,,,,,,,,,,,,,12,asesinato,,,,,361.0409,362.9683,0,0,1.3991,,0,33,33,11,1,REAL,FAKE,,,,,,,,,,,,,,,,,
,,,,,,,,,5c3630c83ce2c8000111b504,Spanish,13 or older,"no, only English or Spanish",no,2025-07-23_21h13.15.809,empathy_intonation_perc_control,2024.2.4,Win32,59.88023952,5c3630c83ce2c8000111b504,68817205a84113384fffdfe3,688188738fff0579ab95c8eb,,,,,,,,,,,,,1,,,,,,,,,,,,,,,,,,,,,,,,,,,,,,,,,,,,,56,musgo,,,,,362.9698,364.3198,0,0,0.8397,,0,34,34,55,1,REAL,FAKE,,,,,,,,,,,,,,,,,
,,,,,,,,,5c3630c83ce2c8000111b504,Spanish,13 or older,"no, only English or Spanish",no,2025-07-23_21h13.15.809,empathy_intonation_perc_control,2024.2.4,Win32,59.88023952,5c3630c83ce2c8000111b504,68817205a84113384fffdfe3,688188738fff0579ab95c8eb,,,,,,,,,,,,,1,,,,,,,,,,,,,,,,,,,,,,,,,,,,,,,,,,,,,39,torpe,,,,,364.3214,365.7335,0,0,0.8835,,0,35,35,38,1,REAL,FAKE,,,,,,,,,,,,,,,,,
,,,,,,,,,5c3630c83ce2c8000111b504,Spanish,13 or older,"no, only English or Spanish",no,2025-07-23_21h13.15.809,empathy_intonation_perc_control,2024.2.4,Win32,59.88023952,5c3630c83ce2c8000111b504,68817205a84113384fffdfe3,688188738fff0579ab95c8eb,,,,,,,,,,,,,1,,,,,,,,,,,,,,,,,,,,,,,,,,,,,,,,,,,,,22,lacayo,,,,,365.735,367.2495,0,0,0.9856,,0,36,36,21,1,REAL,FAKE,,,,,,,,,,,,,,,,,
,,,,,,,,,5c3630c83ce2c8000111b504,Spanish,13 or older,"no, only English or Spanish",no,2025-07-23_21h13.15.809,empathy_intonation_perc_control,2024.2.4,Win32,59.88023952,5c3630c83ce2c8000111b504,68817205a84113384fffdfe3,688188738fff0579ab95c8eb,,,,,,,,,,,,,1,,,,,,,,,,,,,,,,,,,,,,,,,,,,,,,,,,,,,71,polvoriento,,,,,367.2511,368.9149,0,0,1.1325,,0,37,37,70,1,REAL,FAKE,,,,,,,,,,,,,,,,,
,,,,,,,,,5c3630c83ce2c8000111b504,Spanish,13 or older,"no, only English or Spanish",no,2025-07-23_21h13.15.809,empathy_intonation_perc_control,2024.2.4,Win32,59.88023952,5c3630c83ce2c8000111b504,68817205a84113384fffdfe3,688188738fff0579ab95c8eb,,,,,,,,,,,,,1,,,,,,,,,,,,,,,,,,,,,,,,,,,,,,,,,,,,,41,rebuscar,,,,,368.9162,370.2144,1,1,0.7661,,0,38,38,40,1,REAL,FAKE,,,,,,,,,,,,,,,,,
,,,,,,,,,5c3630c83ce2c8000111b504,Spanish,13 or older,"no, only English or Spanish",no,2025-07-23_21h13.15.809,empathy_intonation_perc_control,2024.2.4,Win32,59.88023952,5c3630c83ce2c8000111b504,68817205a84113384fffdfe3,688188738fff0579ab95c8eb,,,,,,,,,,,,,1,,,,,,,,,,,,,,,,,,,,,,,,,,,,,,,,,,,,,62,flaco,,,,,370.2159,371.5833,0,0,0.8404,,0,39,39,61,1,REAL,FAKE,,,,,,,,,,,,,,,,,
,,,,,,,,,5c3630c83ce2c8000111b504,Spanish,13 or older,"no, only English or Spanish",no,2025-07-23_21h13.15.809,empathy_intonation_perc_control,2024.2.4,Win32,59.88023952,5c3630c83ce2c8000111b504,68817205a84113384fffdfe3,688188738fff0579ab95c8eb,,,,,,,,,,,,,1,,,,,,,,,,,,,,,,,,,,,,,,,,,,,,,,,,,,,7,pésimo,,,,,371.5848,373.5465,1,1,1.4342,,0,40,40,6,1,REAL,FAKE,,,,,,,,,,,,,,,,,
,,,,,,,,,5c3630c83ce2c8000111b504,Spanish,13 or older,"no, only English or Spanish",no,2025-07-23_21h13.15.809,empathy_intonation_perc_control,2024.2.4,Win32,59.88023952,5c3630c83ce2c8000111b504,68817205a84113384fffdfe3,688188738fff0579ab95c8eb,,,,,,,,,,,,,0,,,,,,,,,,,,,,,,,,,,,,,,,,,,,,,,,,,,,21,capillo,,,,,373.5481,374.9791,1,0,0.9018,,0,41,41,20,1,REAL,FAKE,,,,,,,,,,,,,,,,,
,,,,,,,,,5c3630c83ce2c8000111b504,Spanish,13 or older,"no, only English or Spanish",no,2025-07-23_21h13.15.809,empathy_intonation_perc_control,2024.2.4,Win32,59.88023952,5c3630c83ce2c8000111b504,68817205a84113384fffdfe3,688188738fff0579ab95c8eb,,,,,,,,,,,,,1,,,,,,,,,,,,,,,,,,,,,,,,,,,,,,,,,,,,,14,yunque,,,,,374.9805,376.4151,1,1,0.9082,,0,42,42,13,1,REAL,FAKE,,,,,,,,,,,,,,,,,
,,,,,,,,,5c3630c83ce2c8000111b504,Spanish,13 or older,"no, only English or Spanish",no,2025-07-23_21h13.15.809,empathy_intonation_perc_control,2024.2.4,Win32,59.88023952,5c3630c83ce2c8000111b504,68817205a84113384fffdfe3,688188738fff0579ab95c8eb,,,,,,,,,,,,,1,,,,,,,,,,,,,,,,,,,,,,,,,,,,,,,,,,,,,24,látigo,,,,,376.4166,378.0629,0,0,1.1254,,0,43,43,23,1,REAL,FAKE,,,,,,,,,,,,,,,,,
,,,,,,,,,5c3630c83ce2c8000111b504,Spanish,13 or older,"no, only English or Spanish",no,2025-07-23_21h13.15.809,empathy_intonation_perc_control,2024.2.4,Win32,59.88023952,5c3630c83ce2c8000111b504,68817205a84113384fffdfe3,688188738fff0579ab95c8eb,,,,,,,,,,,,,1,,,,,,,,,,,,,,,,,,,,,,,,,,,,,,,,,,,,,61,seda,,,,,378.0649,379.4935,0,0,0.8988,,0,44,44,60,1,REAL,FAKE,,,,,,,,,,,,,,,,,
,,,,,,,,,5c3630c83ce2c8000111b504,Spanish,13 or older,"no, only English or Spanish",no,2025-07-23_21h13.15.809,empathy_intonation_perc_control,2024.2.4,Win32,59.88023952,5c3630c83ce2c8000111b504,68817205a84113384fffdfe3,688188738fff0579ab95c8eb,,,,,,,,,,,,,1,,,,,,,,,,,,,,,,,,,,,,,,,,,,,,,,,,,,,77,tiburón,,,,,379.495,382.2252,0,0,2.1973,,0,45,45,76,1,REAL,FAKE,,,,,,,,,,,,,,,,,
,,,,,,,,,5c3630c83ce2c8000111b504,Spanish,13 or older,"no, only English or Spanish",no,2025-07-23_21h13.15.809,empathy_intonation_perc_control,2024.2.4,Win32,59.88023952,5c3630c83ce2c8000111b504,68817205a84113384fffdfe3,688188738fff0579ab95c8eb,,,,,,,,,,,,,1,,,,,,,,,,,,,,,,,,,,,,,,,,,,,,,,,,,,,76,atar,,,,,382.2267,384.9919,1,1,2.2397,,0,46,46,75,1,REAL,FAKE,,,,,,,,,,,,,,,,,
,,,,,,,,,5c3630c83ce2c8000111b504,Spanish,13 or older,"no, only English or Spanish",no,2025-07-23_21h13.15.809,empathy_intonation_perc_control,2024.2.4,Win32,59.88023952,5c3630c83ce2c8000111b504,68817205a84113384fffdfe3,688188738fff0579ab95c8eb,,,,,,,,,,,,,0,,,,,,,,,,,,,,,,,,,,,,,,,,,,,,,,,,,,,42,cadallo,,,,,384.994,386.7064,0,1,1.1847,,0,47,47,41,1,REAL,FAKE,,,,,,,,,,,,,,,,,
,,,,,,,,,5c3630c83ce2c8000111b504,Spanish,13 or older,"no, only English or Spanish",no,2025-07-23_21h13.15.809,empathy_intonation_perc_control,2024.2.4,Win32,59.88023952,5c3630c83ce2c8000111b504,68817205a84113384fffdfe3,688188738fff0579ab95c8eb,,,,,,,,,,,,,0,,,,,,,,,,,,,,,,,,,,,,,,,,,,,,,,,,,,,8,cadeña,,,,,386.709,388.0556,1,0,0.8165,,0,48,48,7,1,REAL,FAKE,,,,,,,,,,,,,,,,,
,,,,,,,,,5c3630c83ce2c8000111b504,Spanish,13 or older,"no, only English or Spanish",no,2025-07-23_21h13.15.809,empathy_intonation_perc_control,2024.2.4,Win32,59.88023952,5c3630c83ce2c8000111b504,68817205a84113384fffdfe3,688188738fff0579ab95c8eb,,,,,,,,,,,,,1,,,,,,,,,,,,,,,,,,,,,,,,,,,,,,,,,,,,,3,pulmones,,,,,388.0569,389.4071,0,0,0.8239,,0,49,49,2,1,REAL,FAKE,,,,,,,,,,,,,,,,,
,,,,,,,,,5c3630c83ce2c8000111b504,Spanish,13 or older,"no, only English or Spanish",no,2025-07-23_21h13.15.809,empathy_intonation_perc_control,2024.2.4,Win32,59.88023952,5c3630c83ce2c8000111b504,68817205a84113384fffdfe3,688188738fff0579ab95c8eb,,,,,,,,,,,,,1,,,,,,,,,,,,,,,,,,,,,,,,,,,,,,,,,,,,,48,ladrón,,,,,389.409,391.1711,1,1,1.2344,,0,50,50,47,1,REAL,FAKE,,,,,,,,,,,,,,,,,
,,,,,,,,,5c3630c83ce2c8000111b504,Spanish,13 or older,"no, only English or Spanish",no,2025-07-23_21h13.15.809,empathy_intonation_perc_control,2024.2.4,Win32,59.88023952,5c3630c83ce2c8000111b504,68817205a84113384fffdfe3,688188738fff0579ab95c8eb,,,,,,,,,,,,,1,,,,,,,,,,,,,,,,,,,,,,,,,,,,,,,,,,,,,45,jilguero,,,,,391.1728,393.2366,0,0,1.5323,,0,51,51,44,1,REAL,FAKE,,,,,,,,,,,,,,,,,
,,,,,,,,,5c3630c83ce2c8000111b504,Spanish,13 or older,"no, only English or Spanish",no,2025-07-23_21h13.15.809,empathy_intonation_perc_control,2024.2.4,Win32,59.88023952,5c3630c83ce2c8000111b504,68817205a84113384fffdfe3,688188738fff0579ab95c8eb,,,,,,,,,,,,,1,,,,,,,,,,,,,,,,,,,,,,,,,,,,,,,,,,,,,5,zapato,,,,,393.2384,394.8524,1,1,1.0803,,0,52,52,4,1,REAL,FAKE,,,,,,,,,,,,,,,,,
,,,,,,,,,5c3630c83ce2c8000111b504,Spanish,13 or older,"no, only English or Spanish",no,2025-07-23_21h13.15.809,empathy_intonation_perc_control,2024.2.4,Win32,59.88023952,5c3630c83ce2c8000111b504,68817205a84113384fffdfe3,688188738fff0579ab95c8eb,,,,,,,,,,,,,1,,,,,,,,,,,,,,,,,,,,,,,,,,,,,,,,,,,,,37,granuja,,,,,394.8535,396.3849,1,1,1.0024,,0,53,53,36,1,REAL,FAKE,,,,,,,,,,,,,,,,,
,,,,,,,,,5c3630c83ce2c8000111b504,Spanish,13 or older,"no, only English or Spanish",no,2025-07-23_21h13.15.809,empathy_intonation_perc_control,2024.2.4,Win32,59.88023952,5c3630c83ce2c8000111b504,68817205a84113384fffdfe3,688188738fff0579ab95c8eb,,,,,,,,,,,,,1,,,,,,,,,,,,,,,,,,,,,,,,,,,,,,,,,,,,,43,canela,,,,,396.3864,398.0678,0,0,1.1512,,0,54,54,42,1,REAL,FAKE,,,,,,,,,,,,,,,,,
,,,,,,,,,5c3630c83ce2c8000111b504,Spanish,13 or older,"no, only English or Spanish",no,2025-07-23_21h13.15.809,empathy_intonation_perc_control,2024.2.4,Win32,59.88023952,5c3630c83ce2c8000111b504,68817205a84113384fffdfe3,688188738fff0579ab95c8eb,,,,,,,,,,,,,0,,,,,,,,,,,,,,,,,,,,,,,,,,,,,,,,,,,,,63,esposante,,,,,398.0696,400.4833,1,0,1.8836,,0,55,55,62,1,REAL,FAKE,,,,,,,,,,,,,,,,,
,,,,,,,,,5c3630c83ce2c8000111b504,Spanish,13 or older,"no, only English or Spanish",no,2025-07-23_21h13.15.809,empathy_intonation_perc_control,2024.2.4,Win32,59.88023952,5c3630c83ce2c8000111b504,68817205a84113384fffdfe3,688188738fff0579ab95c8eb,,,,,,,,,,,,,1,,,,,,,,,,,,,,,,,,,,,,,,,,,,,,,,,,,,,9,hacha,,,,,400.4851,401.7316,1,1,0.7118,,0,56,56,8,1,REAL,FAKE,,,,,,,,,,,,,,,,,
,,,,,,,,,5c3630c83ce2c8000111b504,Spanish,13 or older,"no, only English or Spanish",no,2025-07-23_21h13.15.809,empathy_intonation_perc_control,2024.2.4,Win32,59.88023952,5c3630c83ce2c8000111b504,68817205a84113384fffdfe3,688188738fff0579ab95c8eb,,,,,,,,,,,,,0,,,,,,,,,,,,,,,,,,,,,,,,,,,,,,,,,,,,,74,cintro,,,,,401.7321,402.9976,1,0,0.7308,,0,57,57,73,1,REAL,FAKE,,,,,,,,,,,,,,,,,
,,,,,,,,,5c3630c83ce2c8000111b504,Spanish,13 or older,"no, only English or Spanish",no,2025-07-23_21h13.15.809,empathy_intonation_perc_control,2024.2.4,Win32,59.88023952,5c3630c83ce2c8000111b504,68817205a84113384fffdfe3,688188738fff0579ab95c8eb,,,,,,,,,,,,,1,,,,,,,,,,,,,,,,,,,,,,,,,,,,,,,,,,,,,46,martillo,,,,,402.9982,404.4306,1,1,0.9177,,0,58,58,45,1,REAL,FAKE,,,,,,,,,,,,,,,,,
,,,,,,,,,5c3630c83ce2c8000111b504,Spanish,13 or older,"no, only English or Spanish",no,2025-07-23_21h13.15.809,empathy_intonation_perc_control,2024.2.4,Win32,59.88023952,5c3630c83ce2c8000111b504,68817205a84113384fffdfe3,688188738fff0579ab95c8eb,,,,,,,,,,,,,0,,,,,,,,,,,,,,,,,,,,,,,,,,,,,,,,,,,,,19,brecedad,,,,,404.4314,406.5302,0,1,1.5687,,0,59,59,18,1,REAL,FAKE,,,,,,,,,,,,,,,,,
,,,,,,,,,5c3630c83ce2c8000111b504,Spanish,13 or older,"no, only English or Spanish",no,2025-07-23_21h13.15.809,empathy_intonation_perc_control,2024.2.4,Win32,59.88023952,5c3630c83ce2c8000111b504,68817205a84113384fffdfe3,688188738fff0579ab95c8eb,,,,,,,,,,,,,1,,,,,,,,,,,,,,,,,,,,,,,,,,,,,,,,,,,,,40,alfombra,,,,,406.532,408.0122,0,0,0.9531,,0,60,60,39,1,REAL,FAKE,,,,,,,,,,,,,,,,,
,,,,,,,,,5c3630c83ce2c8000111b504,Spanish,13 or older,"no, only English or Spanish",no,2025-07-23_21h13.15.809,empathy_intonation_perc_control,2024.2.4,Win32,59.88023952,5c3630c83ce2c8000111b504,68817205a84113384fffdfe3,688188738fff0579ab95c8eb,,,,,,,,,,,,,1,,,,,,,,,,,,,,,,,,,,,,,,,,,,,,,,,,,,,6,tergiversar,,,,,408.0129,409.5789,0,0,1.0489,,0,61,61,5,1,REAL,FAKE,,,,,,,,,,,,,,,,,
,,,,,,,,,5c3630c83ce2c8000111b504,Spanish,13 or older,"no, only English or Spanish",no,2025-07-23_21h13.15.809,empathy_intonation_perc_control,2024.2.4,Win32,59.88023952,5c3630c83ce2c8000111b504,68817205a84113384fffdfe3,688188738fff0579ab95c8eb,,,,,,,,,,,,,0,,,,,,,,,,,,,,,,,,,,,,,,,,,,,,,,,,,,,82,empirador,,,,,409.5803,411.4446,1,0,1.3344,,0,62,62,81,1,REAL,FAKE,,,,,,,,,,,,,,,,,
,,,,,,,,,5c3630c83ce2c8000111b504,Spanish,13 or older,"no, only English or Spanish",no,2025-07-23_21h13.15.809,empathy_intonation_perc_control,2024.2.4,Win32,59.88023952,5c3630c83ce2c8000111b504,68817205a84113384fffdfe3,688188738fff0579ab95c8eb,,,,,,,,,,,,,0,,,,,,,,,,,,,,,,,,,,,,,,,,,,,,,,,,,,,17,floroso,,,,,411.4462,413.1268,0,1,1.1506,,0,63,63,16,1,REAL,FAKE,,,,,,,,,,,,,,,,,
,,,,,,,,,5c3630c83ce2c8000111b504,Spanish,13 or older,"no, only English or Spanish",no,2025-07-23_21h13.15.809,empathy_intonation_perc_control,2024.2.4,Win32,59.88023952,5c3630c83ce2c8000111b504,68817205a84113384fffdfe3,688188738fff0579ab95c8eb,,,,,,,,,,,,,0,,,,,,,,,,,,,,,,,,,,,,,,,,,,,,,,,,,,,72,pemición,,,,,413.1285,414.4098,0,1,0.7503,,0,64,64,71,1,REAL,FAKE,,,,,,,,,,,,,,,,,
,,,,,,,,,5c3630c83ce2c8000111b504,Spanish,13 or older,"no, only English or Spanish",no,2025-07-23_21h13.15.809,empathy_intonation_perc_control,2024.2.4,Win32,59.88023952,5c3630c83ce2c8000111b504,68817205a84113384fffdfe3,688188738fff0579ab95c8eb,,,,,,,,,,,,,0,,,,,,,,,,,,,,,,,,,,,,,,,,,,,,,,,,,,,23,lampera,,,,,414.4111,415.711,1,0,0.7731,,0,65,65,22,1,REAL,FAKE,,,,,,,,,,,,,,,,,
,,,,,,,,,5c3630c83ce2c8000111b504,Spanish,13 or older,"no, only English or Spanish",no,2025-07-23_21h13.15.809,empathy_intonation_perc_control,2024.2.4,Win32,59.88023952,5c3630c83ce2c8000111b504,68817205a84113384fffdfe3,688188738fff0579ab95c8eb,,,,,,,,,,,,,1,,,,,,,,,,,,,,,,,,,,,,,,,,,,,,,,,,,,,90,clavel,,,,,415.7128,416.9913,0,0,0.754,,0,66,66,89,1,REAL,FAKE,,,,,,,,,,,,,,,,,
,,,,,,,,,5c3630c83ce2c8000111b504,Spanish,13 or older,"no, only English or Spanish",no,2025-07-23_21h13.15.809,empathy_intonation_perc_control,2024.2.4,Win32,59.88023952,5c3630c83ce2c8000111b504,68817205a84113384fffdfe3,688188738fff0579ab95c8eb,,,,,,,,,,,,,1,,,,,,,,,,,,,,,,,,,,,,,,,,,,,,,,,,,,,25,bisagra,,,,,416.9927,418.9435,0,0,1.4233,,0,67,67,24,1,REAL,FAKE,,,,,,,,,,,,,,,,,
,,,,,,,,,5c3630c83ce2c8000111b504,Spanish,13 or older,"no, only English or Spanish",no,2025-07-23_21h13.15.809,empathy_intonation_perc_control,2024.2.4,Win32,59.88023952,5c3630c83ce2c8000111b504,68817205a84113384fffdfe3,688188738fff0579ab95c8eb,,,,,,,,,,,,,0,,,,,,,,,,,,,,,,,,,,,,,,,,,,,,,,,,,,,30,alardio,,,,,418.9451,420.1429,0,1,0.674,,0,68,68,29,1,REAL,FAKE,,,,,,,,,,,,,,,,,
,,,,,,,,,5c3630c83ce2c8000111b504,Spanish,13 or older,"no, only English or Spanish",no,2025-07-23_21h13.15.809,empathy_intonation_perc_control,2024.2.4,Win32,59.88023952,5c3630c83ce2c8000111b504,68817205a84113384fffdfe3,688188738fff0579ab95c8eb,,,,,,,,,,,,,1,,,,,,,,,,,,,,,,,,,,,,,,,,,,,,,,,,,,,83,guante,,,,,420.1445,421.4559,1,1,0.7862,,0,69,69,82,1,REAL,FAKE,,,,,,,,,,,,,,,,,
,,,,,,,,,5c3630c83ce2c8000111b504,Spanish,13 or older,"no, only English or Spanish",no,2025-07-23_21h13.15.809,empathy_intonation_perc_control,2024.2.4,Win32,59.88023952,5c3630c83ce2c8000111b504,68817205a84113384fffdfe3,688188738fff0579ab95c8eb,,,,,,,,,,,,,0,,,,,,,,,,,,,,,,,,,,,,,,,,,,,,,,,,,,,10,antar,,,,,421.457,422.7222,1,0,0.7344,,0,70,70,9,1,REAL,FAKE,,,,,,,,,,,,,,,,,
,,,,,,,,,5c3630c83ce2c8000111b504,Spanish,13 or older,"no, only English or Spanish",no,2025-07-23_21h13.15.809,empathy_intonation_perc_control,2024.2.4,Win32,59.88023952,5c3630c83ce2c8000111b504,68817205a84113384fffdfe3,688188738fff0579ab95c8eb,,,,,,,,,,,,,1,,,,,,,,,,,,,,,,,,,,,,,,,,,,,,,,,,,,,57,tacaño,,,,,422.7235,424.3709,1,1,1.1137,,0,71,71,56,1,REAL,FAKE,,,,,,,,,,,,,,,,,
,,,,,,,,,5c3630c83ce2c8000111b504,Spanish,13 or older,"no, only English or Spanish",no,2025-07-23_21h13.15.809,empathy_intonation_perc_control,2024.2.4,Win32,59.88023952,5c3630c83ce2c8000111b504,68817205a84113384fffdfe3,688188738fff0579ab95c8eb,,,,,,,,,,,,,1,,,,,,,,,,,,,,,,,,,,,,,,,,,,,,,,,,,,,52,camisa,,,,,424.3715,425.7572,1,1,0.8579,,0,72,72,51,1,REAL,FAKE,,,,,,,,,,,,,,,,,
,,,,,,,,,5c3630c83ce2c8000111b504,Spanish,13 or older,"no, only English or Spanish",no,2025-07-23_21h13.15.809,empathy_intonation_perc_control,2024.2.4,Win32,59.88023952,5c3630c83ce2c8000111b504,68817205a84113384fffdfe3,688188738fff0579ab95c8eb,,,,,,,,,,,,,1,,,,,,,,,,,,,,,,,,,,,,,,,,,,,,,,,,,,,38,estornudar,,,,,425.7584,427.419,0,0,1.1373,,0,73,73,37,1,REAL,FAKE,,,,,,,,,,,,,,,,,
,,,,,,,,,5c3630c83ce2c8000111b504,Spanish,13 or older,"no, only English or Spanish",no,2025-07-23_21h13.15.809,empathy_intonation_perc_control,2024.2.4,Win32,59.88023952,5c3630c83ce2c8000111b504,68817205a84113384fffdfe3,688188738fff0579ab95c8eb,,,,,,,,,,,,,1,,,,,,,,,,,,,,,,,,,,,,,,,,,,,,,,,,,,,54,fomentar,,,,,427.4197,429.0555,1,1,1.1239,,0,74,74,53,1,REAL,FAKE,,,,,,,,,,,,,,,,,
,,,,,,,,,5c3630c83ce2c8000111b504,Spanish,13 or older,"no, only English or Spanish",no,2025-07-23_21h13.15.809,empathy_intonation_perc_control,2024.2.4,Win32,59.88023952,5c3630c83ce2c8000111b504,68817205a84113384fffdfe3,688188738fff0579ab95c8eb,,,,,,,,,,,,,1,,,,,,,,,,,,,,,,,,,,,,,,,,,,,,,,,,,,,88,acantilado,,,,,429.0571,430.9348,0,0,1.3476,,0,75,75,87,1,REAL,FAKE,,,,,,,,,,,,,,,,,
,,,,,,,,,5c3630c83ce2c8000111b504,Spanish,13 or older,"no, only English or Spanish",no,2025-07-23_21h13.15.809,empathy_intonation_perc_control,2024.2.4,Win32,59.88023952,5c3630c83ce2c8000111b504,68817205a84113384fffdfe3,688188738fff0579ab95c8eb,,,,,,,,,,,,,1,,,,,,,,,,,,,,,,,,,,,,,,,,,,,,,,,,,,,51,candado,,,,,430.936,432.8674,0,0,1.3991,,0,76,76,50,1,REAL,FAKE,,,,,,,,,,,,,,,,,
,,,,,,,,,5c3630c83ce2c8000111b504,Spanish,13 or older,"no, only English or Spanish",no,2025-07-23_21h13.15.809,empathy_intonation_perc_control,2024.2.4,Win32,59.88023952,5c3630c83ce2c8000111b504,68817205a84113384fffdfe3,688188738fff0579ab95c8eb,,,,,,,,,,,,,1,,,,,,,,,,,,,,,,,,,,,,,,,,,,,,,,,,,,,28,merodear,,,,,432.869,434.2334,0,0,0.8337,,0,77,77,27,1,REAL,FAKE,,,,,,,,,,,,,,,,,
,,,,,,,,,5c3630c83ce2c8000111b504,Spanish,13 or older,"no, only English or Spanish",no,2025-07-23_21h13.15.809,empathy_intonation_perc_control,2024.2.4,Win32,59.88023952,5c3630c83ce2c8000111b504,68817205a84113384fffdfe3,688188738fff0579ab95c8eb,,,,,,,,,,,,,0,,,,,,,,,,,,,,,,,,,,,,,,,,,,,,,,,,,,,47,cartinar,,,,,434.235,435.7993,0,1,1.0332,,0,78,78,46,1,REAL,FAKE,,,,,,,,,,,,,,,,,
,,,,,,,,,5c3630c83ce2c8000111b504,Spanish,13 or older,"no, only English or Spanish",no,2025-07-23_21h13.15.809,empathy_intonation_perc_control,2024.2.4,Win32,59.88023952,5c3630c83ce2c8000111b504,68817205a84113384fffdfe3,688188738fff0579ab95c8eb,,,,,,,,,,,,,0,,,,,,,,,,,,,,,,,,,,,,,,,,,,,,,,,,,,,58,plaudir,,,,,435.8007,437.0318,0,1,0.7004,,0,79,79,57,1,REAL,FAKE,,,,,,,,,,,,,,,,,
,,,,,,,,,5c3630c83ce2c8000111b504,Spanish,13 or older,"no, only English or Spanish",no,2025-07-23_21h13.15.809,empathy_intonation_perc_control,2024.2.4,Win32,59.88023952,5c3630c83ce2c8000111b504,68817205a84113384fffdfe3,688188738fff0579ab95c8eb,,,,,,,,,,,,,1,,,,,,,,,,,,,,,,,,,,,,,,,,,,,,,,,,,,,73,hervidor,,,,,437.0336,438.3353,0,0,0.7766,,0,80,80,72,1,REAL,FAKE,,,,,,,,,,,,,,,,,
,,,,,,,,,5c3630c83ce2c8000111b504,Spanish,13 or older,"no, only English or Spanish",no,2025-07-23_21h13.15.809,empathy_intonation_perc_control,2024.2.4,Win32,59.88023952,5c3630c83ce2c8000111b504,68817205a84113384fffdfe3,688188738fff0579ab95c8eb,,,,,,,,,,,,,0,,,,,,,,,,,,,,,,,,,,,,,,,,,,,,,,,,,,,35,rompido,,,,,438.3366,439.8306,0,1,0.968,,0,81,81,34,1,REAL,FAKE,,,,,,,,,,,,,,,,,
,,,,,,,,,5c3630c83ce2c8000111b504,Spanish,13 or older,"no, only English or Spanish",no,2025-07-23_21h13.15.809,empathy_intonation_perc_control,2024.2.4,Win32,59.88023952,5c3630c83ce2c8000111b504,68817205a84113384fffdfe3,688188738fff0579ab95c8eb,,,,,,,,,,,,,1,,,,,,,,,,,,,,,,,,,,,,,,,,,,,,,,,,,,,60,matar,,,,,439.8322,441.13,0,0,0.7669,,0,82,82,59,1,REAL,FAKE,,,,,,,,,,,,,,,,,
,,,,,,,,,5c3630c83ce2c8000111b504,Spanish,13 or older,"no, only English or Spanish",no,2025-07-23_21h13.15.809,empathy_intonation_perc_control,2024.2.4,Win32,59.88023952,5c3630c83ce2c8000111b504,68817205a84113384fffdfe3,688188738fff0579ab95c8eb,,,,,,,,,,,,,1,,,,,,,,,,,,,,,,,,,,,,,,,,,,,,,,,,,,,11,cenefa,,,,,441.1316,442.5126,0,0,0.8542,,0,83,83,10,1,REAL,FAKE,,,,,,,,,,,,,,,,,
,,,,,,,,,5c3630c83ce2c8000111b504,Spanish,13 or older,"no, only English or Spanish",no,2025-07-23_21h13.15.809,empathy_intonation_perc_control,2024.2.4,Win32,59.88023952,5c3630c83ce2c8000111b504,68817205a84113384fffdfe3,688188738fff0579ab95c8eb,,,,,,,,,,,,,1,,,,,,,,,,,,,,,,,,,,,,,,,,,,,,,,,,,,,85,laúd,,,,,442.5147,443.9814,1,1,0.9425,,0,84,84,84,1,REAL,FAKE,,,,,,,,,,,,,,,,,
,,,,,,,,,5c3630c83ce2c8000111b504,Spanish,13 or older,"no, only English or Spanish",no,2025-07-23_21h13.15.809,empathy_intonation_perc_control,2024.2.4,Win32,59.88023952,5c3630c83ce2c8000111b504,68817205a84113384fffdfe3,688188738fff0579ab95c8eb,,,,,,,,,,,,,1,,,,,,,,,,,,,,,,,,,,,,,,,,,,,,,,,,,,,59,besar,,,,,443.9827,445.3601,1,1,0.8509,,0,85,85,58,1,REAL,FAKE,,,,,,,,,,,,,,,,,
,,,,,,,,,5c3630c83ce2c8000111b504,Spanish,13 or older,"no, only English or Spanish",no,2025-07-23_21h13.15.809,empathy_intonation_perc_control,2024.2.4,Win32,59.88023952,5c3630c83ce2c8000111b504,68817205a84113384fffdfe3,688188738fff0579ab95c8eb,,,,,,,,,,,,,0,,,,,,,,,,,,,,,,,,,,,,,,,,,,,,,,,,,,,53,vegada,,,,,445.3608,447.2305,1,0,1.3448,,0,86,86,52,1,REAL,FAKE,,,,,,,,,,,,,,,,,
,,,,,,,,,5c3630c83ce2c8000111b504,Spanish,13 or older,"no, only English or Spanish",no,2025-07-23_21h13.15.809,empathy_intonation_perc_control,2024.2.4,Win32,59.88023952,5c3630c83ce2c8000111b504,68817205a84113384fffdfe3,688188738fff0579ab95c8eb,,,,,,,,,,,,,0,,,,,,,,,,,,,,,,,,,,,,,,,,,,,,,,,,,,,70,temblo,,,,,447.231,448.9253,0,1,1.1686,,0,87,87,69,1,REAL,FAKE,,,,,,,,,,,,,,,,,
,,,,,,,,,5c3630c83ce2c8000111b504,Spanish,13 or older,"no, only English or Spanish",no,2025-07-23_21h13.15.809,empathy_intonation_perc_control,2024.2.4,Win32,59.88023952,5c3630c83ce2c8000111b504,68817205a84113384fffdfe3,688188738fff0579ab95c8eb,,,,,,,,,,,,,1,,,,,,,,,,,,,,,,,,,,,,,,,,,,,,,,,,,,,81,pozo,,,,,448.9262,450.0422,0,0,0.599,,0,88,88,80,1,REAL,FAKE,,,,,,,,,,,,,,,,,
,,,,,,,,,5c3630c83ce2c8000111b504,Spanish,13 or older,"no, only English or Spanish",no,2025-07-23_21h13.15.809,empathy_intonation_perc_control,2024.2.4,Win32,59.88023952,5c3630c83ce2c8000111b504,68817205a84113384fffdfe3,688188738fff0579ab95c8eb,,,,,,,,,,,,,1,,,,,,,,,,,,,,,,,,,,,,,,,,,,,,,,,,,,,78,frondoso,,,,,450.0436,451.4079,0,0,0.8366,,0,89,89,77,1,REAL,FAKE,,,,,,,,,,,,,,,,,
,,,,,,,,,5c3630c83ce2c8000111b504,Spanish,13 or older,"no, only English or Spanish",no,2025-07-23_21h13.15.809,empathy_intonation_perc_control,2024.2.4,Win32,59.88023952,5c3630c83ce2c8000111b504,68817205a84113384fffdfe3,688188738fff0579ab95c8eb,,,,,,,,,,,,,0,,,,,,,,,,,,,,,,,,,,,,,,,,,,,,,,,,,,,87,grodo,,,,,451.4093,452.6072,0,1,0.6693,,0,90,90,86,1,REAL,FAKE,,,,,,,,,,,,,,,,,
,,,,,,,,,5c3630c83ce2c8000111b504,Spanish,13 or older,"no, only English or Spanish",no,2025-07-23_21h13.15.809,empathy_intonation_perc_control,2024.2.4,Win32,59.88023952,5c3630c83ce2c8000111b504,68817205a84113384fffdfe3,688188738fff0579ab95c8eb,,,,,,,,,,,,,1,,,,,,,,,,,,,,,,,,,,,,,,,,,,,,,,,,,,,68,alegre,,,,,452.6088,455.5396,0,0,2.401,,0,91,91,67,1,REAL,FAKE,,,,,,,,,,,,,,,,,
,,,,,,,,,5c3630c83ce2c8000111b504,Spanish,13 or older,"no, only English or Spanish",no,2025-07-23_21h13.15.809,empathy_intonation_perc_control,2024.2.4,Win32,59.88023952,5c3630c83ce2c8000111b504,68817205a84113384fffdfe3,688188738fff0579ab95c8eb,,,,,,,,,,,,,,,,,,,,,,,,,,,,,,,,,,,,,,,,,,,,,,,,,,,,,,,,,,,,,,,,,,,,,455.5403,465.4675,,,,,,,,,,,,,,,
,,,,,,,,,5c3630c83ce2c8000111b504,Spanish,13 or older,"no, only English or Spanish",no,2025-07-23_21h13.15.809,empathy_intonation_perc_control,2024.2.4,Win32,59.88023952,5c3630c83ce2c8000111b504,68817205a84113384fffdfe3,688188738fff0579ab95c8eb,,,,,,,,,,,,,,,,,,,,,,,,,,,1,,,,,,,,,,,,,,,,,,,,,,,,,,,,,,,,,,,,,,,,,,,,465.4838,474.58,strongly agree,0,0,0,0,1,I can easily tell if someone else wants to enter a conversation.,1,0,1,0,,
,,,,,,,,,5c3630c83ce2c8000111b504,Spanish,13 or older,"no, only English or Spanish",no,2025-07-23_21h13.15.809,empathy_intonation_perc_control,2024.2.4,Win32,59.88023952,5c3630c83ce2c8000111b504,68817205a84113384fffdfe3,688188738fff0579ab95c8eb,,,,,,,,,,,,,,,,,,,,,,,,,,,2,,,,,,,,,,,,,,,,,,,,,,,,,,,,,,,,,,,,,,,,,,,,474.5819,476.8782,slightly disagree,0,1,1,1,1,I prefer animals to humans.,0,1,0,0,,
,,,,,,,,,5c3630c83ce2c8000111b504,Spanish,13 or older,"no, only English or Spanish",no,2025-07-23_21h13.15.809,empathy_intonation_perc_control,2024.2.4,Win32,59.88023952,5c3630c83ce2c8000111b504,68817205a84113384fffdfe3,688188738fff0579ab95c8eb,,,,,,,,,,,,,,,,,,,,,,,,,,,3,,,,,,,,,,,,,,,,,,,,,,,,,,,,,,,,,,,,,,,,,,,,476.8797,480.0431,strongly disagree,0,2,2,2,1,I try to keep up with the current trends and fashions.,0,1,0,0,,
,,,,,,,,,5c3630c83ce2c8000111b504,Spanish,13 or older,"no, only English or Spanish",no,2025-07-23_21h13.15.809,empathy_intonation_perc_control,2024.2.4,Win32,59.88023952,5c3630c83ce2c8000111b504,68817205a84113384fffdfe3,688188738fff0579ab95c8eb,,,,,,,,,,,,,,,,,,,,,,,,,,,4,,,,,,,,,,,,,,,,,,,,,,,,,,,,,,,,,,,,,,,,,,,,480.0454,489.4723,slightly disagree,0,3,3,3,1,"I find it difficult to explain to others things that I understand easily,   when they don't understand it first time.",1,0,0,1,,
,,,,,,,,,5c3630c83ce2c8000111b504,Spanish,13 or older,"no, only English or Spanish",no,2025-07-23_21h13.15.809,empathy_intonation_perc_control,2024.2.4,Win32,59.88023952,5c3630c83ce2c8000111b504,68817205a84113384fffdfe3,688188738fff0579ab95c8eb,,,,,,,,,,,,,,,,,,,,,,,,,,,5,,,,,,,,,,,,,,,,,,,,,,,,,,,,,,,,,,,,,,,,,,,,489.4732,492.9392,slightly disagree,0,4,4,4,1,I dream most nights.,0,1,0,0,,
,,,,,,,,,5c3630c83ce2c8000111b504,Spanish,13 or older,"no, only English or Spanish",no,2025-07-23_21h13.15.809,empathy_intonation_perc_control,2024.2.4,Win32,59.88023952,5c3630c83ce2c8000111b504,68817205a84113384fffdfe3,688188738fff0579ab95c8eb,,,,,,,,,,,,,,,,,,,,,,,,,,,6,,,,,,,,,,,,,,,,,,,,,,,,,,,,,,,,,,,,,,,,,,,,492.9401,495.6694,slightly agree,0,5,5,5,1,I really enjoy caring for other people.,1,0,1,0,,
,,,,,,,,,5c3630c83ce2c8000111b504,Spanish,13 or older,"no, only English or Spanish",no,2025-07-23_21h13.15.809,empathy_intonation_perc_control,2024.2.4,Win32,59.88023952,5c3630c83ce2c8000111b504,68817205a84113384fffdfe3,688188738fff0579ab95c8eb,,,,,,,,,,,,,,,,,,,,,,,,,,,7,,,,,,,,,,,,,,,,,,,,,,,,,,,,,,,,,,,,,,,,,,,,495.6707,497.735,slightly agree,0,6,6,6,1,I try to solve my own problems rather than discussing them with others.,0,1,0,0,,
,,,,,,,,,5c3630c83ce2c8000111b504,Spanish,13 or older,"no, only English or Spanish",no,2025-07-23_21h13.15.809,empathy_intonation_perc_control,2024.2.4,Win32,59.88023952,5c3630c83ce2c8000111b504,68817205a84113384fffdfe3,688188738fff0579ab95c8eb,,,,,,,,,,,,,,,,,,,,,,,,,,,8,,,,,,,,,,,,,,,,,,,,,,,,,,,,,,,,,,,,,,,,,,,,497.736,500.3505,strongly disagree,0,7,7,7,1,I find it hard to know what to do in a social situation.,1,0,0,1,,
,,,,,,,,,5c3630c83ce2c8000111b504,Spanish,13 or older,"no, only English or Spanish",no,2025-07-23_21h13.15.809,empathy_intonation_perc_control,2024.2.4,Win32,59.88023952,5c3630c83ce2c8000111b504,68817205a84113384fffdfe3,688188738fff0579ab95c8eb,,,,,,,,,,,,,,,,,,,,,,,,,,,9,,,,,,,,,,,,,,,,,,,,,,,,,,,,,,,,,,,,,,,,,,,,500.3516,503.6152,strongly disagree,0,8,8,8,1,I am at my best first thing in the morning.,0,1,0,0,,
,,,,,,,,,5c3630c83ce2c8000111b504,Spanish,13 or older,"no, only English or Spanish",no,2025-07-23_21h13.15.809,empathy_intonation_perc_control,2024.2.4,Win32,59.88023952,5c3630c83ce2c8000111b504,68817205a84113384fffdfe3,688188738fff0579ab95c8eb,,,,,,,,,,,,,,,,,,,,,,,,,,,10,,,,,,,,,,,,,,,,,,,,,,,,,,,,,,,,,,,,,,,,,,,,503.6166,508.3297,slightly disagree,0,9,9,9,1,People often tell me that I went too far in driving my point home in a discussion.,1,0,0,1,,
,,,,,,,,,5c3630c83ce2c8000111b504,Spanish,13 or older,"no, only English or Spanish",no,2025-07-23_21h13.15.809,empathy_intonation_perc_control,2024.2.4,Win32,59.88023952,5c3630c83ce2c8000111b504,68817205a84113384fffdfe3,688188738fff0579ab95c8eb,,,,,,,,,,,,,,,,,,,,,,,,,,,11,,,,,,,,,,,,,,,,,,,,,,,,,,,,,,,,,,,,,,,,,,,,508.3309,512.8607,slightly disagree,0,10,10,10,1,It doesn't bother me too much if I am late meeting a friend.,1,0,0,1,,
,,,,,,,,,5c3630c83ce2c8000111b504,Spanish,13 or older,"no, only English or Spanish",no,2025-07-23_21h13.15.809,empathy_intonation_perc_control,2024.2.4,Win32,59.88023952,5c3630c83ce2c8000111b504,68817205a84113384fffdfe3,688188738fff0579ab95c8eb,,,,,,,,,,,,,,,,,,,,,,,,,,,12,,,,,,,,,,,,,,,,,,,,,,,,,,,,,,,,,,,,,,,,,,,,512.862,516.0759,strongly disagree,0,11,11,11,1,"Friendships and relationships are just too difficult, so I tend not to 
  bother with them.",1,0,0,1,,
,,,,,,,,,5c3630c83ce2c8000111b504,Spanish,13 or older,"no, only English or Spanish",no,2025-07-23_21h13.15.809,empathy_intonation_perc_control,2024.2.4,Win32,59.88023952,5c3630c83ce2c8000111b504,68817205a84113384fffdfe3,688188738fff0579ab95c8eb,,,,,,,,,,,,,,,,,,,,,,,,,,,13,,,,,,,,,,,,,,,,,,,,,,,,,,,,,,,,,,,,,,,,,,,,516.0769,519.5073,slightly agree,0,12,12,12,1,"I would never break a law, no matter how minor.",0,1,0,0,,
,,,,,,,,,5c3630c83ce2c8000111b504,Spanish,13 or older,"no, only English or Spanish",no,2025-07-23_21h13.15.809,empathy_intonation_perc_control,2024.2.4,Win32,59.88023952,5c3630c83ce2c8000111b504,68817205a84113384fffdfe3,688188738fff0579ab95c8eb,,,,,,,,,,,,,,,,,,,,,,,,,,,14,,,,,,,,,,,,,,,,,,,,,,,,,,,,,,,,,,,,,,,,,,,,519.5081,523.7552,strongly disagree,0,13,13,13,1,I often find it difficult to judge if something is rude or polite.,1,0,0,1,,
,,,,,,,,,5c3630c83ce2c8000111b504,Spanish,13 or older,"no, only English or Spanish",no,2025-07-23_21h13.15.809,empathy_intonation_perc_control,2024.2.4,Win32,59.88023952,5c3630c83ce2c8000111b504,68817205a84113384fffdfe3,688188738fff0579ab95c8eb,,,,,,,,,,,,,,,,,,,,,,,,,,,15,,,,,,,,,,,,,,,,,,,,,,,,,,,,,,,,,,,,,,,,,,,,523.7563,527.4538,strongly disagree,0,14,14,14,1,"In a conversation, I tend to focus on my own thoughts rather than on what 
  my listener might be thinking.",1,0,0,1,,
,,,,,,,,,5c3630c83ce2c8000111b504,Spanish,13 or older,"no, only English or Spanish",no,2025-07-23_21h13.15.809,empathy_intonation_perc_control,2024.2.4,Win32,59.88023952,5c3630c83ce2c8000111b504,68817205a84113384fffdfe3,688188738fff0579ab95c8eb,,,,,,,,,,,,,,,,,,,,,,,,,,,16,,,,,,,,,,,,,,,,,,,,,,,,,,,,,,,,,,,,,,,,,,,,527.4548,530.6851,strongly disagree,0,15,15,15,1,I prefer practical jokes to verbal humor.,0,1,0,0,,
,,,,,,,,,5c3630c83ce2c8000111b504,Spanish,13 or older,"no, only English or Spanish",no,2025-07-23_21h13.15.809,empathy_intonation_perc_control,2024.2.4,Win32,59.88023952,5c3630c83ce2c8000111b504,68817205a84113384fffdfe3,688188738fff0579ab95c8eb,,,,,,,,,,,,,,,,,,,,,,,,,,,17,,,,,,,,,,,,,,,,,,,,,,,,,,,,,,,,,,,,,,,,,,,,530.6859,534.3669,strongly disagree,0,16,16,16,1,I live life for today rather than the future.,0,1,0,0,,
,,,,,,,,,5c3630c83ce2c8000111b504,Spanish,13 or older,"no, only English or Spanish",no,2025-07-23_21h13.15.809,empathy_intonation_perc_control,2024.2.4,Win32,59.88023952,5c3630c83ce2c8000111b504,68817205a84113384fffdfe3,688188738fff0579ab95c8eb,,,,,,,,,,,,,,,,,,,,,,,,,,,18,,,,,,,,,,,,,,,,,,,,,,,,,,,,,,,,,,,,,,,,,,,,534.3684,536.6326,strongly disagree,0,17,17,17,1,"When I was a child, I enjoyed cutting up worms to see what would happen.",1,0,0,1,,
,,,,,,,,,5c3630c83ce2c8000111b504,Spanish,13 or older,"no, only English or Spanish",no,2025-07-23_21h13.15.809,empathy_intonation_perc_control,2024.2.4,Win32,59.88023952,5c3630c83ce2c8000111b504,68817205a84113384fffdfe3,688188738fff0579ab95c8eb,,,,,,,,,,,,,,,,,,,,,,,,,,,19,,,,,,,,,,,,,,,,,,,,,,,,,,,,,,,,,,,,,,,,,,,,536.6338,541.4469,slightly agree,0,18,18,18,1,I can pick up quickly if someone says one thing but means another.,1,0,1,0,,
,,,,,,,,,5c3630c83ce2c8000111b504,Spanish,13 or older,"no, only English or Spanish",no,2025-07-23_21h13.15.809,empathy_intonation_perc_control,2024.2.4,Win32,59.88023952,5c3630c83ce2c8000111b504,68817205a84113384fffdfe3,688188738fff0579ab95c8eb,,,,,,,,,,,,,,,,,,,,,,,,,,,20,,,,,,,,,,,,,,,,,,,,,,,,,,,,,,,,,,,,,,,,,,,,541.4479,543.7124,slightly agree,0,19,19,19,1,I tend to have very strong opinions about morality.,0,1,0,0,,
,,,,,,,,,5c3630c83ce2c8000111b504,Spanish,13 or older,"no, only English or Spanish",no,2025-07-23_21h13.15.809,empathy_intonation_perc_control,2024.2.4,Win32,59.88023952,5c3630c83ce2c8000111b504,68817205a84113384fffdfe3,688188738fff0579ab95c8eb,,,,,,,,,,,,,,,,,,,,,,,,,,,21,,,,,,,,,,,,,,,,,,,,,,,,,,,,,,,,,,,,,,,,,,,,543.7144,546.5775,slightly agree,0,20,20,20,1,It is hard for me to see why some things upset people so much.,1,0,0,1,,
,,,,,,,,,5c3630c83ce2c8000111b504,Spanish,13 or older,"no, only English or Spanish",no,2025-07-23_21h13.15.809,empathy_intonation_perc_control,2024.2.4,Win32,59.88023952,5c3630c83ce2c8000111b504,68817205a84113384fffdfe3,688188738fff0579ab95c8eb,,,,,,,,,,,,,,,,,,,,,,,,,,,22,,,,,,,,,,,,,,,,,,,,,,,,,,,,,,,,,,,,,,,,,,,,546.5783,548.6766,slightly agree,0,21,21,21,1,I find it easy to put myself in somebody else's shoes.,1,0,1,0,,
,,,,,,,,,5c3630c83ce2c8000111b504,Spanish,13 or older,"no, only English or Spanish",no,2025-07-23_21h13.15.809,empathy_intonation_perc_control,2024.2.4,Win32,59.88023952,5c3630c83ce2c8000111b504,68817205a84113384fffdfe3,688188738fff0579ab95c8eb,,,,,,,,,,,,,,,,,,,,,,,,,,,23,,,,,,,,,,,,,,,,,,,,,,,,,,,,,,,,,,,,,,,,,,,,548.6778,553.9075,slightly agree,0,22,22,22,1,I think that good manners are the most important thing a parent can teach their child.,0,1,0,0,,
,,,,,,,,,5c3630c83ce2c8000111b504,Spanish,13 or older,"no, only English or Spanish",no,2025-07-23_21h13.15.809,empathy_intonation_perc_control,2024.2.4,Win32,59.88023952,5c3630c83ce2c8000111b504,68817205a84113384fffdfe3,688188738fff0579ab95c8eb,,,,,,,,,,,,,,,,,,,,,,,,,,,24,,,,,,,,,,,,,,,,,,,,,,,,,,,,,,,,,,,,,,,,,,,,553.9085,556.1395,slightly agree,0,23,23,23,1,I like to do things on the spur of the moment.,0,1,0,0,,
,,,,,,,,,5c3630c83ce2c8000111b504,Spanish,13 or older,"no, only English or Spanish",no,2025-07-23_21h13.15.809,empathy_intonation_perc_control,2024.2.4,Win32,59.88023952,5c3630c83ce2c8000111b504,68817205a84113384fffdfe3,688188738fff0579ab95c8eb,,,,,,,,,,,,,,,,,,,,,,,,,,,25,,,,,,,,,,,,,,,,,,,,,,,,,,,,,,,,,,,,,,,,,,,,556.1405,558.8383,slightly disagree,0,24,24,24,1,I am good at predicting how someone will feel.,1,0,1,0,,
