instructions_2afc.started,instructions_2afc.stopped,instructions_2afc_loop.thisRepN,instructions_2afc_loop.thisTrialN,instructions_2afc_loop.thisN,instructions_2afc_loop.thisIndex,instructions_2afc_loop.ran,instructions_text,continue_text,participant_id,"What variety of Spanish are you most familiar with? (e.g., Peruvian, Spanish, Mexican)",At what age did you begin learning Spanish?,Are you proficient in any languages other than English/Spanish?,"Are you familiar with Caribbean (e.g., Caribbean, Puerto Rican) or Galician Spanish?",date,expName,psychopyVersion,OS,frameRate,id,study_id,session,practice_2afc.started,practice_2afc.stopped,key_resp_2afc_practice.keys,key_resp_2afc_practice.corr,key_resp_2afc_practice.rt,key_resp_2afc_practice.duration,trials_2afc_practice_loop.thisRepN,trials_2afc_practice_loop.thisTrialN,trials_2afc_practice_loop.thisN,trials_2afc_practice_loop.thisIndex,trials_2afc_practice_loop.ran,path,correct_response,check_2afc.started,check_2afc.stopped,trial_2afc.started,trial_2afc.stopped,key_resp_2afc_trial.keys,key_resp_2afc_trial.corr,key_resp_2afc_trial.rt,key_resp_2afc_trial.duration,trials_2afc_loop.thisRepN,trials_2afc_loop.thisTrialN,trials_2afc_loop.thisN,trials_2afc_loop.thisIndex,trials_2afc_loop.ran,item_num,target,variety,instructions_lextale.started,instructions_lextale.stopped,instructions_lextale_loop.thisRepN,instructions_lextale_loop.thisTrialN,instructions_lextale_loop.thisN,instructions_lextale_loop.thisIndex,instructions_lextale_loop.ran,practice_lextale.started,practice_lextale.stopped,key_resp_lextale_practice.keys,key_resp_lextale_practice.corr,key_resp_lextale_practice.rt,key_resp_lextale_practice.duration,practice_feedback_lextale.started,practice_feedback_lextale.stopped,trials_lextale_practice_loop.thisRepN,trials_lextale_practice_loop.thisTrialN,trials_lextale_practice_loop.thisN,trials_lextale_practice_loop.thisIndex,trials_lextale_practice_loop.ran,stim,word,prac_button_real,prac_button_false,check_lextale.started,check_lextale.stopped,trial_lextale.started,trial_lextale.stopped,key_resp_lextale_trial.keys,key_resp_lextale_trial.corr,key_resp_lextale_trial.rt,key_resp_lextale_trial.duration,trials_lextale_loop.thisRepN,trials_lextale_loop.thisTrialN,trials_lextale_loop.thisN,trials_lextale_loop.thisIndex,trials_lextale_loop.ran,button_real,button_false,instructions_eq.started,instructions_eq.stopped,trial_eq.started,trial_eq.stopped,slider_eq_trial.response,trials_eq_loop.thisRepN,trials_eq_loop.thisTrialN,trials_eq_loop.thisN,trials_eq_loop.thisIndex,trials_eq_loop.ran,item,is_test_item,is_distractor,is_agree_score,is_disagree_score,end_exp.started,end_exp.stopped
0.0701,293.4253,0,0,0,0,1,"In the following task you are going to hear a series of utterances. 

  You will decide if the utterances sound like questions or not using your keyboard.", (press the spacebar to continue),5c376ea0eecc440001c58889,Spanish,13 or older,"no, only English or Spanish",no,2025-08-12_14h01.53.085,empathy_intonation_perc_control,2024.2.4,Win32,59.88023952,5c376ea0eecc440001c58889,68817205a84113384fffdfe3,689b8158cbb0963fb96aee93,,,,,,,,,,,,,,,,,,,,,,,,,,,,,,,,,,,,,,,,,,,,,,,,,,,,,,,,,,,,,,,,,,,,,,,,,,,,,,,,,,,,,
293.4263,302.1024,0,1,1,1,1,"If you believe the utterance is a question, type '1' (for 'yes') and if you do not 
  believe it is a question type '0' (for 'no').

  Let's practice a bit...", (press the spacebar to continue),5c376ea0eecc440001c58889,Spanish,13 or older,"no, only English or Spanish",no,2025-08-12_14h01.53.085,empathy_intonation_perc_control,2024.2.4,Win32,59.88023952,5c376ea0eecc440001c58889,68817205a84113384fffdfe3,689b8158cbb0963fb96aee93,,,,,,,,,,,,,,,,,,,,,,,,,,,,,,,,,,,,,,,,,,,,,,,,,,,,,,,,,,,,,,,,,,,,,,,,,,,,,,,,,,,,,
,,,,,,,,,5c376ea0eecc440001c58889,Spanish,13 or older,"no, only English or Spanish",no,2025-08-12_14h01.53.085,empathy_intonation_perc_control,2024.2.4,Win32,59.88023952,5c376ea0eecc440001c58889,68817205a84113384fffdfe3,689b8158cbb0963fb96aee93,302.1224,307.8482,0,1,5.2048,,0,0,0,7,1,./stim/wavs/puertorican_statement_filler_La-nina-pinta-con-su-amiga.wav,0,,,,,,,,,,,,,,,,,,,,,,,,,,,,,,,,,,,,,,,,,,,,,,,,,,,,,,,,,,,,,,,,,,,,,,,,
,,,,,,,,,5c376ea0eecc440001c58889,Spanish,13 or older,"no, only English or Spanish",no,2025-08-12_14h01.53.085,empathy_intonation_perc_control,2024.2.4,Win32,59.88023952,5c376ea0eecc440001c58889,68817205a84113384fffdfe3,689b8158cbb0963fb96aee93,307.8499,310.4144,1,1,2.0345,,0,1,1,3,1,./stim/wavs/mexican_question_filler_Felipe-no-tiene-contrasena.wav,1,,,,,,,,,,,,,,,,,,,,,,,,,,,,,,,,,,,,,,,,,,,,,,,,,,,,,,,,,,,,,,,,,,,,,,,,
,,,,,,,,,5c376ea0eecc440001c58889,Spanish,13 or older,"no, only English or Spanish",no,2025-08-12_14h01.53.085,empathy_intonation_perc_control,2024.2.4,Win32,59.88023952,5c376ea0eecc440001c58889,68817205a84113384fffdfe3,689b8158cbb0963fb96aee93,310.4162,312.5139,1,1,1.5692,,0,2,2,1,1,./stim/wavs/argentine_question_filler_Mi-vecino-habla-mucho.wav,1,,,,,,,,,,,,,,,,,,,,,,,,,,,,,,,,,,,,,,,,,,,,,,,,,,,,,,,,,,,,,,,,,,,,,,,,
,,,,,,,,,5c376ea0eecc440001c58889,Spanish,13 or older,"no, only English or Spanish",no,2025-08-12_14h01.53.085,empathy_intonation_perc_control,2024.2.4,Win32,59.88023952,5c376ea0eecc440001c58889,68817205a84113384fffdfe3,689b8158cbb0963fb96aee93,312.5154,315.0639,1,1,2.0202,,0,3,3,0,1,./stim/wavs/castilian_question_filler_Mi-esposo-conoce-al-chico.wav,1,,,,,,,,,,,,,,,,,,,,,,,,,,,,,,,,,,,,,,,,,,,,,,,,,,,,,,,,,,,,,,,,,,,,,,,,
,,,,,,,,,5c376ea0eecc440001c58889,Spanish,13 or older,"no, only English or Spanish",no,2025-08-12_14h01.53.085,empathy_intonation_perc_control,2024.2.4,Win32,59.88023952,5c376ea0eecc440001c58889,68817205a84113384fffdfe3,689b8158cbb0963fb96aee93,315.0654,317.3139,0,0,1.7165,,0,4,4,2,1,./stim/wavs/chilean_question_filler_Mi-padre-cantaba-bien.wav,1,,,,,,,,,,,,,,,,,,,,,,,,,,,,,,,,,,,,,,,,,,,,,,,,,,,,,,,,,,,,,,,,,,,,,,,,
,,,,,,,,,5c376ea0eecc440001c58889,Spanish,13 or older,"no, only English or Spanish",no,2025-08-12_14h01.53.085,empathy_intonation_perc_control,2024.2.4,Win32,59.88023952,5c376ea0eecc440001c58889,68817205a84113384fffdfe3,689b8158cbb0963fb96aee93,317.3152,319.7468,0,1,1.9001,,0,5,5,4,1,./stim/wavs/cuban_statement_filler_Cocinabas-por-la-noche.wav,0,,,,,,,,,,,,,,,,,,,,,,,,,,,,,,,,,,,,,,,,,,,,,,,,,,,,,,,,,,,,,,,,,,,,,,,,
,,,,,,,,,5c376ea0eecc440001c58889,Spanish,13 or older,"no, only English or Spanish",no,2025-08-12_14h01.53.085,empathy_intonation_perc_control,2024.2.4,Win32,59.88023952,5c376ea0eecc440001c58889,68817205a84113384fffdfe3,689b8158cbb0963fb96aee93,319.7482,322.847,0,1,2.5706,,0,6,6,5,1,./stim/wavs/andalusian_statement_filler_Alberto-nunca-se-afeita.wav,0,,,,,,,,,,,,,,,,,,,,,,,,,,,,,,,,,,,,,,,,,,,,,,,,,,,,,,,,,,,,,,,,,,,,,,,,
,,,,,,,,,5c376ea0eecc440001c58889,Spanish,13 or older,"no, only English or Spanish",no,2025-08-12_14h01.53.085,empathy_intonation_perc_control,2024.2.4,Win32,59.88023952,5c376ea0eecc440001c58889,68817205a84113384fffdfe3,689b8158cbb0963fb96aee93,322.8483,325.5634,0,1,2.1868,,0,7,7,6,1,./stim/wavs/peruvian_statement_filler_El-nino-habla-con-su-madre.wav,0,,,,,,,,,,,,,,,,,,,,,,,,,,,,,,,,,,,,,,,,,,,,,,,,,,,,,,,,,,,,,,,,,,,,,,,,
,,,,,,,,,5c376ea0eecc440001c58889,Spanish,13 or older,"no, only English or Spanish",no,2025-08-12_14h01.53.085,empathy_intonation_perc_control,2024.2.4,Win32,59.88023952,5c376ea0eecc440001c58889,68817205a84113384fffdfe3,689b8158cbb0963fb96aee93,,,,,,,,,,,,,,325.5638,328.0974,,,,,,,,,,,,,,,,,,,,,,,,,,,,,,,,,,,,,,,,,,,,,,,,,,,,,,,,,,,,,,,,,,,,,,
,,,,,,,,,5c376ea0eecc440001c58889,Spanish,13 or older,"no, only English or Spanish",no,2025-08-12_14h01.53.085,empathy_intonation_perc_control,2024.2.4,Win32,59.88023952,5c376ea0eecc440001c58889,68817205a84113384fffdfe3,689b8158cbb0963fb96aee93,,,,,,,,,,,,./stim/wavs/mexican_mismatch_declarative-broad-focus_Mi-novio-viene-del-lago.wav,0,,,328.1138,330.2525,0,1,1.6165,,0,0,0,81,1,82,0,mexican,,,,,,,,,,,,,,,,,,,,,,,,,,,,,,,,,,,,,,,,,,,,,,,,,,,,,,,,
,,,,,,,,,5c376ea0eecc440001c58889,Spanish,13 or older,"no, only English or Spanish",no,2025-08-12_14h01.53.085,empathy_intonation_perc_control,2024.2.4,Win32,59.88023952,5c376ea0eecc440001c58889,68817205a84113384fffdfe3,689b8158cbb0963fb96aee93,,,,,,,,,,,,./stim/wavs/puertorican_mismatch_declarative-broad-focus_El-nino-oye-el-rio.wav,0,,,330.2534,332.4856,0,1,1.7023,,0,1,1,85,1,86,0,puertorican,,,,,,,,,,,,,,,,,,,,,,,,,,,,,,,,,,,,,,,,,,,,,,,,,,,,,,,,
,,,,,,,,,5c376ea0eecc440001c58889,Spanish,13 or older,"no, only English or Spanish",no,2025-08-12_14h01.53.085,empathy_intonation_perc_control,2024.2.4,Win32,59.88023952,5c376ea0eecc440001c58889,68817205a84113384fffdfe3,689b8158cbb0963fb96aee93,,,,,,,,,,,,./stim/wavs/mexican_match_declarative-broad-focus_Ana-lleva-el-abrigo.wav,0,,,332.4862,334.5336,0,1,1.5166,,0,2,2,56,1,57,0,mexican,,,,,,,,,,,,,,,,,,,,,,,,,,,,,,,,,,,,,,,,,,,,,,,,,,,,,,,,
,,,,,,,,,5c376ea0eecc440001c58889,Spanish,13 or older,"no, only English or Spanish",no,2025-08-12_14h01.53.085,empathy_intonation_perc_control,2024.2.4,Win32,59.88023952,5c376ea0eecc440001c58889,68817205a84113384fffdfe3,689b8158cbb0963fb96aee93,,,,,,,,,,,,./stim/wavs/castilian_mismatch_declarative-broad-focus_Mi-tia-odia-la-lluvia.wav,0,,,334.535,340.0829,0,1,5.0161,,0,3,3,72,1,73,0,castilian,,,,,,,,,,,,,,,,,,,,,,,,,,,,,,,,,,,,,,,,,,,,,,,,,,,,,,,,
,,,,,,,,,5c376ea0eecc440001c58889,Spanish,13 or older,"no, only English or Spanish",no,2025-08-12_14h01.53.085,empathy_intonation_perc_control,2024.2.4,Win32,59.88023952,5c376ea0eecc440001c58889,68817205a84113384fffdfe3,689b8158cbb0963fb96aee93,,,,,,,,,,,,./stim/wavs/puertorican_match_interrogative-total-yn_Ana-lleva-el-abrigo.wav,1,,,340.084,342.8176,0,0,2.2019,,0,4,4,18,1,19,1,puertorican,,,,,,,,,,,,,,,,,,,,,,,,,,,,,,,,,,,,,,,,,,,,,,,,,,,,,,,,
,,,,,,,,,5c376ea0eecc440001c58889,Spanish,13 or older,"no, only English or Spanish",no,2025-08-12_14h01.53.085,empathy_intonation_perc_control,2024.2.4,Win32,59.88023952,5c376ea0eecc440001c58889,68817205a84113384fffdfe3,689b8158cbb0963fb96aee93,,,,,,,,,,,,./stim/wavs/mexican_mismatch_declarative-broad-focus_La-maestra-vive-en-Paris.wav,0,,,342.8185,345.5997,0,1,2.2499,,0,5,5,80,1,81,0,mexican,,,,,,,,,,,,,,,,,,,,,,,,,,,,,,,,,,,,,,,,,,,,,,,,,,,,,,,,
,,,,,,,,,5c376ea0eecc440001c58889,Spanish,13 or older,"no, only English or Spanish",no,2025-08-12_14h01.53.085,empathy_intonation_perc_control,2024.2.4,Win32,59.88023952,5c376ea0eecc440001c58889,68817205a84113384fffdfe3,689b8158cbb0963fb96aee93,,,,,,,,,,,,./stim/wavs/mexican_match_interrogative-total-yn_Daniel-iba-a-Bolivia.wav,1,,,345.6016,347.8167,1,1,1.696,,0,6,6,13,1,14,0,mexican,,,,,,,,,,,,,,,,,,,,,,,,,,,,,,,,,,,,,,,,,,,,,,,,,,,,,,,,
,,,,,,,,,5c376ea0eecc440001c58889,Spanish,13 or older,"no, only English or Spanish",no,2025-08-12_14h01.53.085,empathy_intonation_perc_control,2024.2.4,Win32,59.88023952,5c376ea0eecc440001c58889,68817205a84113384fffdfe3,689b8158cbb0963fb96aee93,,,,,,,,,,,,./stim/wavs/castilian_mismatch_interrogative-total-yn_La-nina-lava-el-plato.wav,1,,,347.8179,350.1163,1,1,1.7669,,0,7,7,25,1,26,0,castilian,,,,,,,,,,,,,,,,,,,,,,,,,,,,,,,,,,,,,,,,,,,,,,,,,,,,,,,,
,,,,,,,,,5c376ea0eecc440001c58889,Spanish,13 or older,"no, only English or Spanish",no,2025-08-12_14h01.53.085,empathy_intonation_perc_control,2024.2.4,Win32,59.88023952,5c376ea0eecc440001c58889,68817205a84113384fffdfe3,689b8158cbb0963fb96aee93,,,,,,,,,,,,./stim/wavs/mexican_mismatch_interrogative-total-yn_Mi-tia-odia-la-lluvia.wav,1,,,350.1179,352.2994,1,1,1.6622,,0,8,8,38,1,39,0,mexican,,,,,,,,,,,,,,,,,,,,,,,,,,,,,,,,,,,,,,,,,,,,,,,,,,,,,,,,
,,,,,,,,,5c376ea0eecc440001c58889,Spanish,13 or older,"no, only English or Spanish",no,2025-08-12_14h01.53.085,empathy_intonation_perc_control,2024.2.4,Win32,59.88023952,5c376ea0eecc440001c58889,68817205a84113384fffdfe3,689b8158cbb0963fb96aee93,,,,,,,,,,,,./stim/wavs/castilian_match_interrogative-total-yn_Emilio-ama-la-marcha.wav,1,,,352.3002,354.4996,1,1,1.6795,,0,9,9,1,1,2,0,castilian,,,,,,,,,,,,,,,,,,,,,,,,,,,,,,,,,,,,,,,,,,,,,,,,,,,,,,,,
,,,,,,,,,5c376ea0eecc440001c58889,Spanish,13 or older,"no, only English or Spanish",no,2025-08-12_14h01.53.085,empathy_intonation_perc_control,2024.2.4,Win32,59.88023952,5c376ea0eecc440001c58889,68817205a84113384fffdfe3,689b8158cbb0963fb96aee93,,,,,,,,,,,,./stim/wavs/mexican_match_declarative-broad-focus_Emilio-ama-la-marcha.wav,0,,,354.5002,357.1994,0,1,2.1672,,0,10,10,59,1,60,0,mexican,,,,,,,,,,,,,,,,,,,,,,,,,,,,,,,,,,,,,,,,,,,,,,,,,,,,,,,,
,,,,,,,,,5c376ea0eecc440001c58889,Spanish,13 or older,"no, only English or Spanish",no,2025-08-12_14h01.53.085,empathy_intonation_perc_control,2024.2.4,Win32,59.88023952,5c376ea0eecc440001c58889,68817205a84113384fffdfe3,689b8158cbb0963fb96aee93,,,,,,,,,,,,./stim/wavs/puertorican_match_declarative-broad-focus_Maria-bebe-el-vino.wav,0,,,357.2009,359.865,1,0,2.1338,,0,11,11,67,1,68,0,puertorican,,,,,,,,,,,,,,,,,,,,,,,,,,,,,,,,,,,,,,,,,,,,,,,,,,,,,,,,
,,,,,,,,,5c376ea0eecc440001c58889,Spanish,13 or older,"no, only English or Spanish",no,2025-08-12_14h01.53.085,empathy_intonation_perc_control,2024.2.4,Win32,59.88023952,5c376ea0eecc440001c58889,68817205a84113384fffdfe3,689b8158cbb0963fb96aee93,,,,,,,,,,,,./stim/wavs/puertorican_match_interrogative-total-yn_Maria-bebe-el-vino.wav,1,,,359.8659,362.3942,0,0,1.9893,,0,12,12,23,1,24,1,puertorican,,,,,,,,,,,,,,,,,,,,,,,,,,,,,,,,,,,,,,,,,,,,,,,,,,,,,,,,
,,,,,,,,,5c376ea0eecc440001c58889,Spanish,13 or older,"no, only English or Spanish",no,2025-08-12_14h01.53.085,empathy_intonation_perc_control,2024.2.4,Win32,59.88023952,5c376ea0eecc440001c58889,68817205a84113384fffdfe3,689b8158cbb0963fb96aee93,,,,,,,,,,,,./stim/wavs/cuban_match_declarative-broad-focus_Daniel-iba-a-Bolivia.wav,0,,,362.3958,364.9483,0,1,2.0334,,0,13,13,51,1,52,0,cuban,,,,,,,,,,,,,,,,,,,,,,,,,,,,,,,,,,,,,,,,,,,,,,,,,,,,,,,,
,,,,,,,,,5c376ea0eecc440001c58889,Spanish,13 or older,"no, only English or Spanish",no,2025-08-12_14h01.53.085,empathy_intonation_perc_control,2024.2.4,Win32,59.88023952,5c376ea0eecc440001c58889,68817205a84113384fffdfe3,689b8158cbb0963fb96aee93,,,,,,,,,,,,./stim/wavs/mexican_mismatch_interrogative-total-yn_El-hombre-mira-la-luna.wav,1,,,364.9501,367.1649,1,1,1.6841,,0,14,14,34,1,35,0,mexican,,,,,,,,,,,,,,,,,,,,,,,,,,,,,,,,,,,,,,,,,,,,,,,,,,,,,,,,
,,,,,,,,,5c376ea0eecc440001c58889,Spanish,13 or older,"no, only English or Spanish",no,2025-08-12_14h01.53.085,empathy_intonation_perc_control,2024.2.4,Win32,59.88023952,5c376ea0eecc440001c58889,68817205a84113384fffdfe3,689b8158cbb0963fb96aee93,,,,,,,,,,,,./stim/wavs/puertorican_match_declarative-broad-focus_Ana-lleva-el-abrigo.wav,0,,,367.1661,369.4273,0,1,1.722,,0,15,15,62,1,63,0,puertorican,,,,,,,,,,,,,,,,,,,,,,,,,,,,,,,,,,,,,,,,,,,,,,,,,,,,,,,,
,,,,,,,,,5c376ea0eecc440001c58889,Spanish,13 or older,"no, only English or Spanish",no,2025-08-12_14h01.53.085,empathy_intonation_perc_control,2024.2.4,Win32,59.88023952,5c376ea0eecc440001c58889,68817205a84113384fffdfe3,689b8158cbb0963fb96aee93,,,,,,,,,,,,./stim/wavs/mexican_mismatch_interrogative-total-yn_Mi-novio-viene-del-lago.wav,1,,,369.4288,371.6143,1,1,1.6659,,0,16,16,37,1,38,0,mexican,,,,,,,,,,,,,,,,,,,,,,,,,,,,,,,,,,,,,,,,,,,,,,,,,,,,,,,,
,,,,,,,,,5c376ea0eecc440001c58889,Spanish,13 or older,"no, only English or Spanish",no,2025-08-12_14h01.53.085,empathy_intonation_perc_control,2024.2.4,Win32,59.88023952,5c376ea0eecc440001c58889,68817205a84113384fffdfe3,689b8158cbb0963fb96aee93,,,,,,,,,,,,./stim/wavs/cuban_match_interrogative-total-yn_Maria-bebe-el-vino.wav,1,,,371.6155,374.1815,0,0,2.0342,,0,17,17,9,1,10,1,cuban,,,,,,,,,,,,,,,,,,,,,,,,,,,,,,,,,,,,,,,,,,,,,,,,,,,,,,,,
,,,,,,,,,5c376ea0eecc440001c58889,Spanish,13 or older,"no, only English or Spanish",no,2025-08-12_14h01.53.085,empathy_intonation_perc_control,2024.2.4,Win32,59.88023952,5c376ea0eecc440001c58889,68817205a84113384fffdfe3,689b8158cbb0963fb96aee93,,,,,,,,,,,,./stim/wavs/puertorican_match_interrogative-total-yn_Manuela-vende-el-carro.wav,1,,,374.1827,376.731,0,0,2.0166,,0,18,18,22,1,23,1,puertorican,,,,,,,,,,,,,,,,,,,,,,,,,,,,,,,,,,,,,,,,,,,,,,,,,,,,,,,,
,,,,,,,,,5c376ea0eecc440001c58889,Spanish,13 or older,"no, only English or Spanish",no,2025-08-12_14h01.53.085,empathy_intonation_perc_control,2024.2.4,Win32,59.88023952,5c376ea0eecc440001c58889,68817205a84113384fffdfe3,689b8158cbb0963fb96aee93,,,,,,,,,,,,./stim/wavs/puertorican_mismatch_interrogative-total-yn_Mi-madre-come-la-fruta.wav,1,,,376.7323,378.8978,0,0,1.6341,,0,19,19,43,1,44,1,puertorican,,,,,,,,,,,,,,,,,,,,,,,,,,,,,,,,,,,,,,,,,,,,,,,,,,,,,,,,
,,,,,,,,,5c376ea0eecc440001c58889,Spanish,13 or older,"no, only English or Spanish",no,2025-08-12_14h01.53.085,empathy_intonation_perc_control,2024.2.4,Win32,59.88023952,5c376ea0eecc440001c58889,68817205a84113384fffdfe3,689b8158cbb0963fb96aee93,,,,,,,,,,,,./stim/wavs/mexican_mismatch_declarative-broad-focus_El-bebe-comia-muy-bien.wav,0,,,378.899,381.2807,0,1,1.85,,0,20,20,78,1,79,0,mexican,,,,,,,,,,,,,,,,,,,,,,,,,,,,,,,,,,,,,,,,,,,,,,,,,,,,,,,,
,,,,,,,,,5c376ea0eecc440001c58889,Spanish,13 or older,"no, only English or Spanish",no,2025-08-12_14h01.53.085,empathy_intonation_perc_control,2024.2.4,Win32,59.88023952,5c376ea0eecc440001c58889,68817205a84113384fffdfe3,689b8158cbb0963fb96aee93,,,,,,,,,,,,./stim/wavs/cuban_mismatch_interrogative-total-yn_El-nino-oye-el-rio.wav,1,,,381.2814,384.3141,0,0,2.5001,,0,21,21,30,1,31,1,cuban,,,,,,,,,,,,,,,,,,,,,,,,,,,,,,,,,,,,,,,,,,,,,,,,,,,,,,,,
,,,,,,,,,5c376ea0eecc440001c58889,Spanish,13 or older,"no, only English or Spanish",no,2025-08-12_14h01.53.085,empathy_intonation_perc_control,2024.2.4,Win32,59.88023952,5c376ea0eecc440001c58889,68817205a84113384fffdfe3,689b8158cbb0963fb96aee93,,,,,,,,,,,,./stim/wavs/cuban_match_declarative-broad-focus_Manuela-vende-el-carro.wav,0,,,384.3157,386.8497,0,1,2.0046,,0,22,22,52,1,53,0,cuban,,,,,,,,,,,,,,,,,,,,,,,,,,,,,,,,,,,,,,,,,,,,,,,,,,,,,,,,
,,,,,,,,,5c376ea0eecc440001c58889,Spanish,13 or older,"no, only English or Spanish",no,2025-08-12_14h01.53.085,empathy_intonation_perc_control,2024.2.4,Win32,59.88023952,5c376ea0eecc440001c58889,68817205a84113384fffdfe3,689b8158cbb0963fb96aee93,,,,,,,,,,,,./stim/wavs/cuban_match_interrogative-total-yn_Daniel-iba-a-Bolivia.wav,1,,,386.8505,390.2311,0,0,2.8509,,0,23,23,7,1,8,1,cuban,,,,,,,,,,,,,,,,,,,,,,,,,,,,,,,,,,,,,,,,,,,,,,,,,,,,,,,,
,,,,,,,,,5c376ea0eecc440001c58889,Spanish,13 or older,"no, only English or Spanish",no,2025-08-12_14h01.53.085,empathy_intonation_perc_control,2024.2.4,Win32,59.88023952,5c376ea0eecc440001c58889,68817205a84113384fffdfe3,689b8158cbb0963fb96aee93,,,,,,,,,,,,./stim/wavs/cuban_mismatch_declarative-broad-focus_La-nina-lava-el-plato.wav,0,,,390.232,392.6634,0,1,1.9009,,0,24,24,75,1,76,0,cuban,,,,,,,,,,,,,,,,,,,,,,,,,,,,,,,,,,,,,,,,,,,,,,,,,,,,,,,,
,,,,,,,,,5c376ea0eecc440001c58889,Spanish,13 or older,"no, only English or Spanish",no,2025-08-12_14h01.53.085,empathy_intonation_perc_control,2024.2.4,Win32,59.88023952,5c376ea0eecc440001c58889,68817205a84113384fffdfe3,689b8158cbb0963fb96aee93,,,,,,,,,,,,./stim/wavs/castilian_match_declarative-broad-focus_David-leia-el-libro.wav,0,,,392.6649,395.9634,0,1,2.7677,,0,25,25,44,1,45,0,castilian,,,,,,,,,,,,,,,,,,,,,,,,,,,,,,,,,,,,,,,,,,,,,,,,,,,,,,,,
,,,,,,,,,5c376ea0eecc440001c58889,Spanish,13 or older,"no, only English or Spanish",no,2025-08-12_14h01.53.085,empathy_intonation_perc_control,2024.2.4,Win32,59.88023952,5c376ea0eecc440001c58889,68817205a84113384fffdfe3,689b8158cbb0963fb96aee93,,,,,,,,,,,,./stim/wavs/cuban_mismatch_declarative-broad-focus_El-hombre-mira-la-luna.wav,0,,,395.9642,399.2626,0,1,2.7663,,0,26,26,74,1,75,0,cuban,,,,,,,,,,,,,,,,,,,,,,,,,,,,,,,,,,,,,,,,,,,,,,,,,,,,,,,,
,,,,,,,,,5c376ea0eecc440001c58889,Spanish,13 or older,"no, only English or Spanish",no,2025-08-12_14h01.53.085,empathy_intonation_perc_control,2024.2.4,Win32,59.88023952,5c376ea0eecc440001c58889,68817205a84113384fffdfe3,689b8158cbb0963fb96aee93,,,,,,,,,,,,./stim/wavs/mexican_match_declarative-broad-focus_Daniel-iba-a-Bolivia.wav,0,,,399.2639,402.2452,0,1,2.45,,0,27,27,57,1,58,0,mexican,,,,,,,,,,,,,,,,,,,,,,,,,,,,,,,,,,,,,,,,,,,,,,,,,,,,,,,,
,,,,,,,,,5c376ea0eecc440001c58889,Spanish,13 or older,"no, only English or Spanish",no,2025-08-12_14h01.53.085,empathy_intonation_perc_control,2024.2.4,Win32,59.88023952,5c376ea0eecc440001c58889,68817205a84113384fffdfe3,689b8158cbb0963fb96aee93,,,,,,,,,,,,./stim/wavs/castilian_match_declarative-broad-focus_Mariano-habla-del-tiempo.wav,0,,,402.2466,405.2582,0,1,2.479,,0,28,28,48,1,49,0,castilian,,,,,,,,,,,,,,,,,,,,,,,,,,,,,,,,,,,,,,,,,,,,,,,,,,,,,,,,
,,,,,,,,,5c376ea0eecc440001c58889,Spanish,13 or older,"no, only English or Spanish",no,2025-08-12_14h01.53.085,empathy_intonation_perc_control,2024.2.4,Win32,59.88023952,5c376ea0eecc440001c58889,68817205a84113384fffdfe3,689b8158cbb0963fb96aee93,,,,,,,,,,,,./stim/wavs/mexican_mismatch_interrogative-total-yn_La-maestra-vive-en-Paris.wav,1,,,405.2602,407.6289,1,1,1.8506,,0,29,29,36,1,37,0,mexican,,,,,,,,,,,,,,,,,,,,,,,,,,,,,,,,,,,,,,,,,,,,,,,,,,,,,,,,
,,,,,,,,,5c376ea0eecc440001c58889,Spanish,13 or older,"no, only English or Spanish",no,2025-08-12_14h01.53.085,empathy_intonation_perc_control,2024.2.4,Win32,59.88023952,5c376ea0eecc440001c58889,68817205a84113384fffdfe3,689b8158cbb0963fb96aee93,,,,,,,,,,,,./stim/wavs/cuban_match_declarative-broad-focus_Maria-bebe-el-vino.wav,0,,,407.6298,410.7458,0,1,2.5851,,0,30,30,53,1,54,0,cuban,,,,,,,,,,,,,,,,,,,,,,,,,,,,,,,,,,,,,,,,,,,,,,,,,,,,,,,,
,,,,,,,,,5c376ea0eecc440001c58889,Spanish,13 or older,"no, only English or Spanish",no,2025-08-12_14h01.53.085,empathy_intonation_perc_control,2024.2.4,Win32,59.88023952,5c376ea0eecc440001c58889,68817205a84113384fffdfe3,689b8158cbb0963fb96aee93,,,,,,,,,,,,./stim/wavs/castilian_mismatch_declarative-broad-focus_La-nina-lava-el-plato.wav,0,,,410.7473,413.8456,0,1,2.5793,,0,31,31,70,1,71,0,castilian,,,,,,,,,,,,,,,,,,,,,,,,,,,,,,,,,,,,,,,,,,,,,,,,,,,,,,,,
,,,,,,,,,5c376ea0eecc440001c58889,Spanish,13 or older,"no, only English or Spanish",no,2025-08-12_14h01.53.085,empathy_intonation_perc_control,2024.2.4,Win32,59.88023952,5c376ea0eecc440001c58889,68817205a84113384fffdfe3,689b8158cbb0963fb96aee93,,,,,,,,,,,,./stim/wavs/cuban_mismatch_declarative-broad-focus_El-bebe-comia-muy-bien.wav,0,,,413.8472,416.3778,0,1,1.9995,,0,32,32,73,1,74,0,cuban,,,,,,,,,,,,,,,,,,,,,,,,,,,,,,,,,,,,,,,,,,,,,,,,,,,,,,,,
,,,,,,,,,5c376ea0eecc440001c58889,Spanish,13 or older,"no, only English or Spanish",no,2025-08-12_14h01.53.085,empathy_intonation_perc_control,2024.2.4,Win32,59.88023952,5c376ea0eecc440001c58889,68817205a84113384fffdfe3,689b8158cbb0963fb96aee93,,,,,,,,,,,,./stim/wavs/cuban_match_interrogative-total-yn_Ana-lleva-el-abrigo.wav,1,,,416.3791,419.3241,0,0,2.4053,,0,33,33,6,1,7,1,cuban,,,,,,,,,,,,,,,,,,,,,,,,,,,,,,,,,,,,,,,,,,,,,,,,,,,,,,,,
,,,,,,,,,5c376ea0eecc440001c58889,Spanish,13 or older,"no, only English or Spanish",no,2025-08-12_14h01.53.085,empathy_intonation_perc_control,2024.2.4,Win32,59.88023952,5c376ea0eecc440001c58889,68817205a84113384fffdfe3,689b8158cbb0963fb96aee93,,,,,,,,,,,,./stim/wavs/cuban_match_interrogative-total-yn_Mariano-habla-del-tiempo.wav,1,,,419.3257,422.1951,0,0,2.35,,0,34,34,10,1,11,1,cuban,,,,,,,,,,,,,,,,,,,,,,,,,,,,,,,,,,,,,,,,,,,,,,,,,,,,,,,,
,,,,,,,,,5c376ea0eecc440001c58889,Spanish,13 or older,"no, only English or Spanish",no,2025-08-12_14h01.53.085,empathy_intonation_perc_control,2024.2.4,Win32,59.88023952,5c376ea0eecc440001c58889,68817205a84113384fffdfe3,689b8158cbb0963fb96aee93,,,,,,,,,,,,./stim/wavs/castilian_mismatch_interrogative-total-yn_Mi-novio-viene-del-lago.wav,1,,,422.196,424.4447,1,1,1.7162,,0,35,35,27,1,28,0,castilian,,,,,,,,,,,,,,,,,,,,,,,,,,,,,,,,,,,,,,,,,,,,,,,,,,,,,,,,
,,,,,,,,,5c376ea0eecc440001c58889,Spanish,13 or older,"no, only English or Spanish",no,2025-08-12_14h01.53.085,empathy_intonation_perc_control,2024.2.4,Win32,59.88023952,5c376ea0eecc440001c58889,68817205a84113384fffdfe3,689b8158cbb0963fb96aee93,,,,,,,,,,,,./stim/wavs/mexican_match_declarative-broad-focus_Mariano-habla-del-tiempo.wav,0,,,424.4458,426.7114,0,1,1.7335,,0,36,36,60,1,61,0,mexican,,,,,,,,,,,,,,,,,,,,,,,,,,,,,,,,,,,,,,,,,,,,,,,,,,,,,,,,
,,,,,,,,,5c376ea0eecc440001c58889,Spanish,13 or older,"no, only English or Spanish",no,2025-08-12_14h01.53.085,empathy_intonation_perc_control,2024.2.4,Win32,59.88023952,5c376ea0eecc440001c58889,68817205a84113384fffdfe3,689b8158cbb0963fb96aee93,,,,,,,,,,,,./stim/wavs/puertorican_mismatch_declarative-broad-focus_La-maestra-vive-en-Paris.wav,0,,,426.7126,429.061,0,1,1.8175,,0,37,37,86,1,87,0,puertorican,,,,,,,,,,,,,,,,,,,,,,,,,,,,,,,,,,,,,,,,,,,,,,,,,,,,,,,,
,,,,,,,,,5c376ea0eecc440001c58889,Spanish,13 or older,"no, only English or Spanish",no,2025-08-12_14h01.53.085,empathy_intonation_perc_control,2024.2.4,Win32,59.88023952,5c376ea0eecc440001c58889,68817205a84113384fffdfe3,689b8158cbb0963fb96aee93,,,,,,,,,,,,./stim/wavs/cuban_match_declarative-broad-focus_Mariano-habla-del-tiempo.wav,0,,,429.0623,435.0733,0,1,5.4677,,0,38,38,54,1,55,0,cuban,,,,,,,,,,,,,,,,,,,,,,,,,,,,,,,,,,,,,,,,,,,,,,,,,,,,,,,,
,,,,,,,,,5c376ea0eecc440001c58889,Spanish,13 or older,"no, only English or Spanish",no,2025-08-12_14h01.53.085,empathy_intonation_perc_control,2024.2.4,Win32,59.88023952,5c376ea0eecc440001c58889,68817205a84113384fffdfe3,689b8158cbb0963fb96aee93,,,,,,,,,,,,./stim/wavs/castilian_mismatch_declarative-broad-focus_La-maestra-vive-en-Paris.wav,0,,,435.0748,438.1604,0,1,2.5667,,0,39,39,69,1,70,0,castilian,,,,,,,,,,,,,,,,,,,,,,,,,,,,,,,,,,,,,,,,,,,,,,,,,,,,,,,,
,,,,,,,,,5c376ea0eecc440001c58889,Spanish,13 or older,"no, only English or Spanish",no,2025-08-12_14h01.53.085,empathy_intonation_perc_control,2024.2.4,Win32,59.88023952,5c376ea0eecc440001c58889,68817205a84113384fffdfe3,689b8158cbb0963fb96aee93,,,,,,,,,,,,./stim/wavs/puertorican_match_declarative-broad-focus_Emilio-ama-la-marcha.wav,0,,,438.1618,441.643,0,1,2.9495,,0,40,40,65,1,66,0,puertorican,,,,,,,,,,,,,,,,,,,,,,,,,,,,,,,,,,,,,,,,,,,,,,,,,,,,,,,,
,,,,,,,,,5c376ea0eecc440001c58889,Spanish,13 or older,"no, only English or Spanish",no,2025-08-12_14h01.53.085,empathy_intonation_perc_control,2024.2.4,Win32,59.88023952,5c376ea0eecc440001c58889,68817205a84113384fffdfe3,689b8158cbb0963fb96aee93,,,,,,,,,,,,./stim/wavs/mexican_match_declarative-broad-focus_Marta-abre-el-regalo.wav,0,,,441.6446,444.8605,0,1,2.6842,,0,41,41,61,1,62,0,mexican,,,,,,,,,,,,,,,,,,,,,,,,,,,,,,,,,,,,,,,,,,,,,,,,,,,,,,,,
,,,,,,,,,5c376ea0eecc440001c58889,Spanish,13 or older,"no, only English or Spanish",no,2025-08-12_14h01.53.085,empathy_intonation_perc_control,2024.2.4,Win32,59.88023952,5c376ea0eecc440001c58889,68817205a84113384fffdfe3,689b8158cbb0963fb96aee93,,,,,,,,,,,,./stim/wavs/puertorican_mismatch_declarative-broad-focus_El-bebe-comia-muy-bien.wav,0,,,444.8617,447.2769,0,1,1.8836,,0,42,42,83,1,84,0,puertorican,,,,,,,,,,,,,,,,,,,,,,,,,,,,,,,,,,,,,,,,,,,,,,,,,,,,,,,,
,,,,,,,,,5c376ea0eecc440001c58889,Spanish,13 or older,"no, only English or Spanish",no,2025-08-12_14h01.53.085,empathy_intonation_perc_control,2024.2.4,Win32,59.88023952,5c376ea0eecc440001c58889,68817205a84113384fffdfe3,689b8158cbb0963fb96aee93,,,,,,,,,,,,./stim/wavs/mexican_mismatch_declarative-broad-focus_El-hombre-mira-la-luna.wav,0,,,447.2782,449.8096,0,1,1.9997,,0,43,43,79,1,80,0,mexican,,,,,,,,,,,,,,,,,,,,,,,,,,,,,,,,,,,,,,,,,,,,,,,,,,,,,,,,
,,,,,,,,,5c376ea0eecc440001c58889,Spanish,13 or older,"no, only English or Spanish",no,2025-08-12_14h01.53.085,empathy_intonation_perc_control,2024.2.4,Win32,59.88023952,5c376ea0eecc440001c58889,68817205a84113384fffdfe3,689b8158cbb0963fb96aee93,,,,,,,,,,,,./stim/wavs/castilian_match_interrogative-total-yn_Marta-abre-el-regalo.wav,1,,,449.8111,452.0886,1,1,1.7532,,0,44,44,5,1,6,0,castilian,,,,,,,,,,,,,,,,,,,,,,,,,,,,,,,,,,,,,,,,,,,,,,,,,,,,,,,,
,,,,,,,,,5c376ea0eecc440001c58889,Spanish,13 or older,"no, only English or Spanish",no,2025-08-12_14h01.53.085,empathy_intonation_perc_control,2024.2.4,Win32,59.88023952,5c376ea0eecc440001c58889,68817205a84113384fffdfe3,689b8158cbb0963fb96aee93,,,,,,,,,,,,./stim/wavs/castilian_mismatch_interrogative-total-yn_La-maestra-vive-en-Paris.wav,1,,,452.0903,454.6589,1,1,2.0493,,0,45,45,24,1,25,0,castilian,,,,,,,,,,,,,,,,,,,,,,,,,,,,,,,,,,,,,,,,,,,,,,,,,,,,,,,,
,,,,,,,,,5c376ea0eecc440001c58889,Spanish,13 or older,"no, only English or Spanish",no,2025-08-12_14h01.53.085,empathy_intonation_perc_control,2024.2.4,Win32,59.88023952,5c376ea0eecc440001c58889,68817205a84113384fffdfe3,689b8158cbb0963fb96aee93,,,,,,,,,,,,./stim/wavs/cuban_match_interrogative-total-yn_Marta-abre-el-regalo.wav,1,,,454.6601,457.3092,0,0,2.1175,,0,46,46,11,1,12,1,cuban,,,,,,,,,,,,,,,,,,,,,,,,,,,,,,,,,,,,,,,,,,,,,,,,,,,,,,,,
,,,,,,,,,5c376ea0eecc440001c58889,Spanish,13 or older,"no, only English or Spanish",no,2025-08-12_14h01.53.085,empathy_intonation_perc_control,2024.2.4,Win32,59.88023952,5c376ea0eecc440001c58889,68817205a84113384fffdfe3,689b8158cbb0963fb96aee93,,,,,,,,,,,,./stim/wavs/cuban_mismatch_declarative-broad-focus_Mi-tia-odia-la-lluvia.wav,0,,,457.3108,461.7755,1,0,3.9462,,0,47,47,77,1,78,0,cuban,,,,,,,,,,,,,,,,,,,,,,,,,,,,,,,,,,,,,,,,,,,,,,,,,,,,,,,,
,,,,,,,,,5c376ea0eecc440001c58889,Spanish,13 or older,"no, only English or Spanish",no,2025-08-12_14h01.53.085,empathy_intonation_perc_control,2024.2.4,Win32,59.88023952,5c376ea0eecc440001c58889,68817205a84113384fffdfe3,689b8158cbb0963fb96aee93,,,,,,,,,,,,./stim/wavs/cuban_mismatch_interrogative-total-yn_Mi-tia-odia-la-lluvia.wav,1,,,461.7772,464.5586,1,1,2.2628,,0,48,48,33,1,34,1,cuban,,,,,,,,,,,,,,,,,,,,,,,,,,,,,,,,,,,,,,,,,,,,,,,,,,,,,,,,
,,,,,,,,,5c376ea0eecc440001c58889,Spanish,13 or older,"no, only English or Spanish",no,2025-08-12_14h01.53.085,empathy_intonation_perc_control,2024.2.4,Win32,59.88023952,5c376ea0eecc440001c58889,68817205a84113384fffdfe3,689b8158cbb0963fb96aee93,,,,,,,,,,,,./stim/wavs/castilian_mismatch_interrogative-total-yn_Mi-tia-odia-la-lluvia.wav,1,,,464.56,466.991,1,1,1.9,,0,49,49,28,1,29,0,castilian,,,,,,,,,,,,,,,,,,,,,,,,,,,,,,,,,,,,,,,,,,,,,,,,,,,,,,,,
,,,,,,,,,5c376ea0eecc440001c58889,Spanish,13 or older,"no, only English or Spanish",no,2025-08-12_14h01.53.085,empathy_intonation_perc_control,2024.2.4,Win32,59.88023952,5c376ea0eecc440001c58889,68817205a84113384fffdfe3,689b8158cbb0963fb96aee93,,,,,,,,,,,,./stim/wavs/mexican_match_interrogative-total-yn_Emilio-ama-la-marcha.wav,1,,,466.9925,469.2093,1,1,1.6828,,0,50,50,15,1,16,0,mexican,,,,,,,,,,,,,,,,,,,,,,,,,,,,,,,,,,,,,,,,,,,,,,,,,,,,,,,,
,,,,,,,,,5c376ea0eecc440001c58889,Spanish,13 or older,"no, only English or Spanish",no,2025-08-12_14h01.53.085,empathy_intonation_perc_control,2024.2.4,Win32,59.88023952,5c376ea0eecc440001c58889,68817205a84113384fffdfe3,689b8158cbb0963fb96aee93,,,,,,,,,,,,./stim/wavs/mexican_mismatch_declarative-broad-focus_Mi-tia-odia-la-lluvia.wav,0,,,469.2108,471.675,1,0,1.9333,,0,51,51,82,1,83,0,mexican,,,,,,,,,,,,,,,,,,,,,,,,,,,,,,,,,,,,,,,,,,,,,,,,,,,,,,,,
,,,,,,,,,5c376ea0eecc440001c58889,Spanish,13 or older,"no, only English or Spanish",no,2025-08-12_14h01.53.085,empathy_intonation_perc_control,2024.2.4,Win32,59.88023952,5c376ea0eecc440001c58889,68817205a84113384fffdfe3,689b8158cbb0963fb96aee93,,,,,,,,,,,,./stim/wavs/castilian_match_declarative-broad-focus_Manuela-vende-el-carro.wav,0,,,471.6756,473.9703,0,1,1.757,,0,52,52,46,1,47,0,castilian,,,,,,,,,,,,,,,,,,,,,,,,,,,,,,,,,,,,,,,,,,,,,,,,,,,,,,,,
,,,,,,,,,5c376ea0eecc440001c58889,Spanish,13 or older,"no, only English or Spanish",no,2025-08-12_14h01.53.085,empathy_intonation_perc_control,2024.2.4,Win32,59.88023952,5c376ea0eecc440001c58889,68817205a84113384fffdfe3,689b8158cbb0963fb96aee93,,,,,,,,,,,,./stim/wavs/cuban_mismatch_interrogative-total-yn_Mi-madre-come-la-fruta.wav,1,,,473.972,476.2912,0,0,1.7996,,0,53,53,31,1,32,1,cuban,,,,,,,,,,,,,,,,,,,,,,,,,,,,,,,,,,,,,,,,,,,,,,,,,,,,,,,,
,,,,,,,,,5c376ea0eecc440001c58889,Spanish,13 or older,"no, only English or Spanish",no,2025-08-12_14h01.53.085,empathy_intonation_perc_control,2024.2.4,Win32,59.88023952,5c376ea0eecc440001c58889,68817205a84113384fffdfe3,689b8158cbb0963fb96aee93,,,,,,,,,,,,./stim/wavs/castilian_mismatch_declarative-broad-focus_Mi-novio-viene-del-lago.wav,0,,,476.2923,478.707,0,1,1.8826,,0,54,54,71,1,72,0,castilian,,,,,,,,,,,,,,,,,,,,,,,,,,,,,,,,,,,,,,,,,,,,,,,,,,,,,,,,
,,,,,,,,,5c376ea0eecc440001c58889,Spanish,13 or older,"no, only English or Spanish",no,2025-08-12_14h01.53.085,empathy_intonation_perc_control,2024.2.4,Win32,59.88023952,5c376ea0eecc440001c58889,68817205a84113384fffdfe3,689b8158cbb0963fb96aee93,,,,,,,,,,,,./stim/wavs/cuban_mismatch_interrogative-total-yn_El-hombre-mira-la-luna.wav,1,,,478.7083,481.7748,0,0,2.5335,,0,55,55,29,1,30,1,cuban,,,,,,,,,,,,,,,,,,,,,,,,,,,,,,,,,,,,,,,,,,,,,,,,,,,,,,,,
,,,,,,,,,5c376ea0eecc440001c58889,Spanish,13 or older,"no, only English or Spanish",no,2025-08-12_14h01.53.085,empathy_intonation_perc_control,2024.2.4,Win32,59.88023952,5c376ea0eecc440001c58889,68817205a84113384fffdfe3,689b8158cbb0963fb96aee93,,,,,,,,,,,,./stim/wavs/castilian_match_declarative-broad-focus_Maria-bebe-el-vino.wav,0,,,481.7761,483.941,0,1,1.6469,,0,56,56,47,1,48,0,castilian,,,,,,,,,,,,,,,,,,,,,,,,,,,,,,,,,,,,,,,,,,,,,,,,,,,,,,,,
,,,,,,,,,5c376ea0eecc440001c58889,Spanish,13 or older,"no, only English or Spanish",no,2025-08-12_14h01.53.085,empathy_intonation_perc_control,2024.2.4,Win32,59.88023952,5c376ea0eecc440001c58889,68817205a84113384fffdfe3,689b8158cbb0963fb96aee93,,,,,,,,,,,,./stim/wavs/puertorican_mismatch_interrogative-total-yn_La-nina-lava-el-plato.wav,1,,,483.9422,486.2079,0,0,1.7337,,0,57,57,42,1,43,1,puertorican,,,,,,,,,,,,,,,,,,,,,,,,,,,,,,,,,,,,,,,,,,,,,,,,,,,,,,,,
,,,,,,,,,5c376ea0eecc440001c58889,Spanish,13 or older,"no, only English or Spanish",no,2025-08-12_14h01.53.085,empathy_intonation_perc_control,2024.2.4,Win32,59.88023952,5c376ea0eecc440001c58889,68817205a84113384fffdfe3,689b8158cbb0963fb96aee93,,,,,,,,,,,,./stim/wavs/mexican_mismatch_interrogative-total-yn_El-nino-oye-el-rio.wav,1,,,486.2086,488.1073,1,1,1.3784,,0,58,58,35,1,36,0,mexican,,,,,,,,,,,,,,,,,,,,,,,,,,,,,,,,,,,,,,,,,,,,,,,,,,,,,,,,
,,,,,,,,,5c376ea0eecc440001c58889,Spanish,13 or older,"no, only English or Spanish",no,2025-08-12_14h01.53.085,empathy_intonation_perc_control,2024.2.4,Win32,59.88023952,5c376ea0eecc440001c58889,68817205a84113384fffdfe3,689b8158cbb0963fb96aee93,,,,,,,,,,,,./stim/wavs/puertorican_match_declarative-broad-focus_Manuela-vende-el-carro.wav,0,,,488.108,490.2911,0,1,1.6507,,0,59,59,66,1,67,0,puertorican,,,,,,,,,,,,,,,,,,,,,,,,,,,,,,,,,,,,,,,,,,,,,,,,,,,,,,,,
,,,,,,,,,5c376ea0eecc440001c58889,Spanish,13 or older,"no, only English or Spanish",no,2025-08-12_14h01.53.085,empathy_intonation_perc_control,2024.2.4,Win32,59.88023952,5c376ea0eecc440001c58889,68817205a84113384fffdfe3,689b8158cbb0963fb96aee93,,,,,,,,,,,,./stim/wavs/puertorican_mismatch_interrogative-total-yn_La-maestra-vive-en-Paris.wav,1,,,490.2922,492.9412,0,0,2.1174,,0,60,60,41,1,42,1,puertorican,,,,,,,,,,,,,,,,,,,,,,,,,,,,,,,,,,,,,,,,,,,,,,,,,,,,,,,,
,,,,,,,,,5c376ea0eecc440001c58889,Spanish,13 or older,"no, only English or Spanish",no,2025-08-12_14h01.53.085,empathy_intonation_perc_control,2024.2.4,Win32,59.88023952,5c376ea0eecc440001c58889,68817205a84113384fffdfe3,689b8158cbb0963fb96aee93,,,,,,,,,,,,./stim/wavs/castilian_mismatch_declarative-broad-focus_El-nino-oye-el-rio.wav,0,,,492.9424,495.7574,1,0,2.2842,,0,61,61,68,1,69,0,castilian,,,,,,,,,,,,,,,,,,,,,,,,,,,,,,,,,,,,,,,,,,,,,,,,,,,,,,,,
,,,,,,,,,5c376ea0eecc440001c58889,Spanish,13 or older,"no, only English or Spanish",no,2025-08-12_14h01.53.085,empathy_intonation_perc_control,2024.2.4,Win32,59.88023952,5c376ea0eecc440001c58889,68817205a84113384fffdfe3,689b8158cbb0963fb96aee93,,,,,,,,,,,,./stim/wavs/mexican_match_interrogative-total-yn_Mariano-habla-del-tiempo.wav,1,,,495.7586,498.407,1,1,2.1166,,0,62,62,16,1,17,0,mexican,,,,,,,,,,,,,,,,,,,,,,,,,,,,,,,,,,,,,,,,,,,,,,,,,,,,,,,,
,,,,,,,,,5c376ea0eecc440001c58889,Spanish,13 or older,"no, only English or Spanish",no,2025-08-12_14h01.53.085,empathy_intonation_perc_control,2024.2.4,Win32,59.88023952,5c376ea0eecc440001c58889,68817205a84113384fffdfe3,689b8158cbb0963fb96aee93,,,,,,,,,,,,./stim/wavs/castilian_mismatch_interrogative-total-yn_Mi-madre-come-la-fruta.wav,1,,,498.4079,500.6567,1,1,1.7171,,0,63,63,26,1,27,0,castilian,,,,,,,,,,,,,,,,,,,,,,,,,,,,,,,,,,,,,,,,,,,,,,,,,,,,,,,,
,,,,,,,,,5c376ea0eecc440001c58889,Spanish,13 or older,"no, only English or Spanish",no,2025-08-12_14h01.53.085,empathy_intonation_perc_control,2024.2.4,Win32,59.88023952,5c376ea0eecc440001c58889,68817205a84113384fffdfe3,689b8158cbb0963fb96aee93,,,,,,,,,,,,./stim/wavs/puertorican_mismatch_interrogative-total-yn_El-hombre-mira-la-luna.wav,1,,,500.6577,503.4685,1,1,2.2748,,0,64,64,39,1,40,1,puertorican,,,,,,,,,,,,,,,,,,,,,,,,,,,,,,,,,,,,,,,,,,,,,,,,,,,,,,,,
,,,,,,,,,5c376ea0eecc440001c58889,Spanish,13 or older,"no, only English or Spanish",no,2025-08-12_14h01.53.085,empathy_intonation_perc_control,2024.2.4,Win32,59.88023952,5c376ea0eecc440001c58889,68817205a84113384fffdfe3,689b8158cbb0963fb96aee93,,,,,,,,,,,,./stim/wavs/puertorican_match_interrogative-total-yn_David-leia-el-libro.wav,1,,,503.4703,506.0727,1,1,2.0842,,0,65,65,20,1,21,1,puertorican,,,,,,,,,,,,,,,,,,,,,,,,,,,,,,,,,,,,,,,,,,,,,,,,,,,,,,,,
,,,,,,,,,5c376ea0eecc440001c58889,Spanish,13 or older,"no, only English or Spanish",no,2025-08-12_14h01.53.085,empathy_intonation_perc_control,2024.2.4,Win32,59.88023952,5c376ea0eecc440001c58889,68817205a84113384fffdfe3,689b8158cbb0963fb96aee93,,,,,,,,,,,,./stim/wavs/mexican_match_interrogative-total-yn_Marta-abre-el-regalo.wav,1,,,506.0739,508.4225,1,1,1.8166,,0,66,66,17,1,18,0,mexican,,,,,,,,,,,,,,,,,,,,,,,,,,,,,,,,,,,,,,,,,,,,,,,,,,,,,,,,
,,,,,,,,,5c376ea0eecc440001c58889,Spanish,13 or older,"no, only English or Spanish",no,2025-08-12_14h01.53.085,empathy_intonation_perc_control,2024.2.4,Win32,59.88023952,5c376ea0eecc440001c58889,68817205a84113384fffdfe3,689b8158cbb0963fb96aee93,,,,,,,,,,,,./stim/wavs/puertorican_match_declarative-broad-focus_Daniel-iba-a-Bolivia.wav,0,,,508.4239,510.7064,0,1,1.7507,,0,67,67,63,1,64,0,puertorican,,,,,,,,,,,,,,,,,,,,,,,,,,,,,,,,,,,,,,,,,,,,,,,,,,,,,,,,
,,,,,,,,,5c376ea0eecc440001c58889,Spanish,13 or older,"no, only English or Spanish",no,2025-08-12_14h01.53.085,empathy_intonation_perc_control,2024.2.4,Win32,59.88023952,5c376ea0eecc440001c58889,68817205a84113384fffdfe3,689b8158cbb0963fb96aee93,,,,,,,,,,,,./stim/wavs/puertorican_match_declarative-broad-focus_David-leia-el-libro.wav,0,,,510.7074,514.406,0,1,3.1675,,0,68,68,64,1,65,0,puertorican,,,,,,,,,,,,,,,,,,,,,,,,,,,,,,,,,,,,,,,,,,,,,,,,,,,,,,,,
,,,,,,,,,5c376ea0eecc440001c58889,Spanish,13 or older,"no, only English or Spanish",no,2025-08-12_14h01.53.085,empathy_intonation_perc_control,2024.2.4,Win32,59.88023952,5c376ea0eecc440001c58889,68817205a84113384fffdfe3,689b8158cbb0963fb96aee93,,,,,,,,,,,,./stim/wavs/cuban_match_interrogative-total-yn_Manuela-vende-el-carro.wav,1,,,514.4073,516.8675,0,0,1.9258,,0,69,69,8,1,9,1,cuban,,,,,,,,,,,,,,,,,,,,,,,,,,,,,,,,,,,,,,,,,,,,,,,,,,,,,,,,
,,,,,,,,,5c376ea0eecc440001c58889,Spanish,13 or older,"no, only English or Spanish",no,2025-08-12_14h01.53.085,empathy_intonation_perc_control,2024.2.4,Win32,59.88023952,5c376ea0eecc440001c58889,68817205a84113384fffdfe3,689b8158cbb0963fb96aee93,,,,,,,,,,,,./stim/wavs/puertorican_match_interrogative-total-yn_Daniel-iba-a-Bolivia.wav,1,,,516.8694,519.572,1,1,2.1832,,0,70,70,19,1,20,1,puertorican,,,,,,,,,,,,,,,,,,,,,,,,,,,,,,,,,,,,,,,,,,,,,,,,,,,,,,,,
,,,,,,,,,5c376ea0eecc440001c58889,Spanish,13 or older,"no, only English or Spanish",no,2025-08-12_14h01.53.085,empathy_intonation_perc_control,2024.2.4,Win32,59.88023952,5c376ea0eecc440001c58889,68817205a84113384fffdfe3,689b8158cbb0963fb96aee93,,,,,,,,,,,,./stim/wavs/puertorican_mismatch_declarative-broad-focus_La-nina-lava-el-plato.wav,0,,,519.5731,522.7897,1,0,2.6856,,0,71,71,87,1,88,0,puertorican,,,,,,,,,,,,,,,,,,,,,,,,,,,,,,,,,,,,,,,,,,,,,,,,,,,,,,,,
,,,,,,,,,5c376ea0eecc440001c58889,Spanish,13 or older,"no, only English or Spanish",no,2025-08-12_14h01.53.085,empathy_intonation_perc_control,2024.2.4,Win32,59.88023952,5c376ea0eecc440001c58889,68817205a84113384fffdfe3,689b8158cbb0963fb96aee93,,,,,,,,,,,,./stim/wavs/cuban_mismatch_interrogative-total-yn_Mi-novio-viene-del-lago.wav,1,,,522.7905,525.1387,0,0,1.8172,,0,72,72,32,1,33,1,cuban,,,,,,,,,,,,,,,,,,,,,,,,,,,,,,,,,,,,,,,,,,,,,,,,,,,,,,,,
,,,,,,,,,5c376ea0eecc440001c58889,Spanish,13 or older,"no, only English or Spanish",no,2025-08-12_14h01.53.085,empathy_intonation_perc_control,2024.2.4,Win32,59.88023952,5c376ea0eecc440001c58889,68817205a84113384fffdfe3,689b8158cbb0963fb96aee93,,,,,,,,,,,,./stim/wavs/mexican_match_interrogative-total-yn_Ana-lleva-el-abrigo.wav,1,,,525.1399,527.3837,1,1,1.7085,,0,73,73,12,1,13,0,mexican,,,,,,,,,,,,,,,,,,,,,,,,,,,,,,,,,,,,,,,,,,,,,,,,,,,,,,,,
,,,,,,,,,5c376ea0eecc440001c58889,Spanish,13 or older,"no, only English or Spanish",no,2025-08-12_14h01.53.085,empathy_intonation_perc_control,2024.2.4,Win32,59.88023952,5c376ea0eecc440001c58889,68817205a84113384fffdfe3,689b8158cbb0963fb96aee93,,,,,,,,,,,,./stim/wavs/castilian_match_interrogative-total-yn_Maria-bebe-el-vino.wav,1,,,527.3853,529.3884,1,1,1.4845,,0,74,74,3,1,4,0,castilian,,,,,,,,,,,,,,,,,,,,,,,,,,,,,,,,,,,,,,,,,,,,,,,,,,,,,,,,
,,,,,,,,,5c376ea0eecc440001c58889,Spanish,13 or older,"no, only English or Spanish",no,2025-08-12_14h01.53.085,empathy_intonation_perc_control,2024.2.4,Win32,59.88023952,5c376ea0eecc440001c58889,68817205a84113384fffdfe3,689b8158cbb0963fb96aee93,,,,,,,,,,,,./stim/wavs/puertorican_mismatch_declarative-broad-focus_El-hombre-mira-la-luna.wav,0,,,529.3895,532.1372,0,1,2.2159,,0,75,75,84,1,85,0,puertorican,,,,,,,,,,,,,,,,,,,,,,,,,,,,,,,,,,,,,,,,,,,,,,,,,,,,,,,,
,,,,,,,,,5c376ea0eecc440001c58889,Spanish,13 or older,"no, only English or Spanish",no,2025-08-12_14h01.53.085,empathy_intonation_perc_control,2024.2.4,Win32,59.88023952,5c376ea0eecc440001c58889,68817205a84113384fffdfe3,689b8158cbb0963fb96aee93,,,,,,,,,,,,./stim/wavs/cuban_match_declarative-broad-focus_Ana-lleva-el-abrigo.wav,0,,,532.1383,534.405,0,1,1.7341,,0,76,76,50,1,51,0,cuban,,,,,,,,,,,,,,,,,,,,,,,,,,,,,,,,,,,,,,,,,,,,,,,,,,,,,,,,
,,,,,,,,,5c376ea0eecc440001c58889,Spanish,13 or older,"no, only English or Spanish",no,2025-08-12_14h01.53.085,empathy_intonation_perc_control,2024.2.4,Win32,59.88023952,5c376ea0eecc440001c58889,68817205a84113384fffdfe3,689b8158cbb0963fb96aee93,,,,,,,,,,,,./stim/wavs/castilian_match_interrogative-total-yn_Manuela-vende-el-carro.wav,1,,,534.406,536.7878,1,1,1.8501,,0,77,77,2,1,3,0,castilian,,,,,,,,,,,,,,,,,,,,,,,,,,,,,,,,,,,,,,,,,,,,,,,,,,,,,,,,
,,,,,,,,,5c376ea0eecc440001c58889,Spanish,13 or older,"no, only English or Spanish",no,2025-08-12_14h01.53.085,empathy_intonation_perc_control,2024.2.4,Win32,59.88023952,5c376ea0eecc440001c58889,68817205a84113384fffdfe3,689b8158cbb0963fb96aee93,,,,,,,,,,,,./stim/wavs/puertorican_mismatch_interrogative-total-yn_El-nino-oye-el-rio.wav,1,,,536.7889,538.9197,1,1,1.599,,0,78,78,40,1,41,1,puertorican,,,,,,,,,,,,,,,,,,,,,,,,,,,,,,,,,,,,,,,,,,,,,,,,,,,,,,,,
,,,,,,,,,5c376ea0eecc440001c58889,Spanish,13 or older,"no, only English or Spanish",no,2025-08-12_14h01.53.085,empathy_intonation_perc_control,2024.2.4,Win32,59.88023952,5c376ea0eecc440001c58889,68817205a84113384fffdfe3,689b8158cbb0963fb96aee93,,,,,,,,,,,,./stim/wavs/castilian_match_declarative-broad-focus_Marta-abre-el-regalo.wav,0,,,538.9213,541.3538,0,1,1.8996,,0,79,79,49,1,50,0,castilian,,,,,,,,,,,,,,,,,,,,,,,,,,,,,,,,,,,,,,,,,,,,,,,,,,,,,,,,
,,,,,,,,,5c376ea0eecc440001c58889,Spanish,13 or older,"no, only English or Spanish",no,2025-08-12_14h01.53.085,empathy_intonation_perc_control,2024.2.4,Win32,59.88023952,5c376ea0eecc440001c58889,68817205a84113384fffdfe3,689b8158cbb0963fb96aee93,,,,,,,,,,,,./stim/wavs/mexican_match_declarative-broad-focus_David-leia-el-libro.wav,0,,,541.355,543.654,0,1,1.7679,,0,80,80,58,1,59,0,mexican,,,,,,,,,,,,,,,,,,,,,,,,,,,,,,,,,,,,,,,,,,,,,,,,,,,,,,,,
,,,,,,,,,5c376ea0eecc440001c58889,Spanish,13 or older,"no, only English or Spanish",no,2025-08-12_14h01.53.085,empathy_intonation_perc_control,2024.2.4,Win32,59.88023952,5c376ea0eecc440001c58889,68817205a84113384fffdfe3,689b8158cbb0963fb96aee93,,,,,,,,,,,,./stim/wavs/castilian_match_declarative-broad-focus_Emilio-ama-la-marcha.wav,0,,,543.655,546.4196,0,1,2.2323,,0,81,81,45,1,46,0,castilian,,,,,,,,,,,,,,,,,,,,,,,,,,,,,,,,,,,,,,,,,,,,,,,,,,,,,,,,
,,,,,,,,,5c376ea0eecc440001c58889,Spanish,13 or older,"no, only English or Spanish",no,2025-08-12_14h01.53.085,empathy_intonation_perc_control,2024.2.4,Win32,59.88023952,5c376ea0eecc440001c58889,68817205a84113384fffdfe3,689b8158cbb0963fb96aee93,,,,,,,,,,,,./stim/wavs/cuban_match_declarative-broad-focus_Marta-abre-el-regalo.wav,0,,,546.4208,548.9366,0,1,1.984,,0,82,82,55,1,56,0,cuban,,,,,,,,,,,,,,,,,,,,,,,,,,,,,,,,,,,,,,,,,,,,,,,,,,,,,,,,
,,,,,,,,,5c376ea0eecc440001c58889,Spanish,13 or older,"no, only English or Spanish",no,2025-08-12_14h01.53.085,empathy_intonation_perc_control,2024.2.4,Win32,59.88023952,5c376ea0eecc440001c58889,68817205a84113384fffdfe3,689b8158cbb0963fb96aee93,,,,,,,,,,,,./stim/wavs/castilian_match_interrogative-total-yn_David-leia-el-libro.wav,1,,,548.9376,551.3201,1,1,1.8504,,0,83,83,0,1,1,0,castilian,,,,,,,,,,,,,,,,,,,,,,,,,,,,,,,,,,,,,,,,,,,,,,,,,,,,,,,,
,,,,,,,,,5c376ea0eecc440001c58889,Spanish,13 or older,"no, only English or Spanish",no,2025-08-12_14h01.53.085,empathy_intonation_perc_control,2024.2.4,Win32,59.88023952,5c376ea0eecc440001c58889,68817205a84113384fffdfe3,689b8158cbb0963fb96aee93,,,,,,,,,,,,./stim/wavs/cuban_mismatch_declarative-broad-focus_Mi-novio-viene-del-lago.wav,0,,,551.3212,553.5702,0,1,1.7178,,0,84,84,76,1,77,0,cuban,,,,,,,,,,,,,,,,,,,,,,,,,,,,,,,,,,,,,,,,,,,,,,,,,,,,,,,,
,,,,,,,,,5c376ea0eecc440001c58889,Spanish,13 or older,"no, only English or Spanish",no,2025-08-12_14h01.53.085,empathy_intonation_perc_control,2024.2.4,Win32,59.88023952,5c376ea0eecc440001c58889,68817205a84113384fffdfe3,689b8158cbb0963fb96aee93,,,,,,,,,,,,./stim/wavs/mexican_match_interrogative-total-yn_David-leia-el-libro.wav,1,,,553.5712,555.7194,1,1,1.6174,,0,85,85,14,1,15,0,mexican,,,,,,,,,,,,,,,,,,,,,,,,,,,,,,,,,,,,,,,,,,,,,,,,,,,,,,,,
,,,,,,,,,5c376ea0eecc440001c58889,Spanish,13 or older,"no, only English or Spanish",no,2025-08-12_14h01.53.085,empathy_intonation_perc_control,2024.2.4,Win32,59.88023952,5c376ea0eecc440001c58889,68817205a84113384fffdfe3,689b8158cbb0963fb96aee93,,,,,,,,,,,,./stim/wavs/puertorican_match_interrogative-total-yn_Emilio-ama-la-marcha.wav,1,,,555.7206,558.7148,0,0,2.4577,,0,86,86,21,1,22,1,puertorican,,,,,,,,,,,,,,,,,,,,,,,,,,,,,,,,,,,,,,,,,,,,,,,,,,,,,,,,
,,,,,,,,,5c376ea0eecc440001c58889,Spanish,13 or older,"no, only English or Spanish",no,2025-08-12_14h01.53.085,empathy_intonation_perc_control,2024.2.4,Win32,59.88023952,5c376ea0eecc440001c58889,68817205a84113384fffdfe3,689b8158cbb0963fb96aee93,,,,,,,,,,,,./stim/wavs/castilian_match_interrogative-total-yn_Mariano-habla-del-tiempo.wav,1,,,558.7167,561.1691,1,1,1.9342,,0,87,87,4,1,5,0,castilian,,,,,,,,,,,,,,,,,,,,,,,,,,,,,,,,,,,,,,,,,,,,,,,,,,,,,,,,
,,,,,,,"Great! Now we will move on. The next task consists of about 60 trials, in each of which you will see a string of letters. 
  
  Your task is to decide whether this is a real Spanish word or not.", (press the spacebar to continue),5c376ea0eecc440001c58889,Spanish,13 or older,"no, only English or Spanish",no,2025-08-12_14h01.53.085,empathy_intonation_perc_control,2024.2.4,Win32,59.88023952,5c376ea0eecc440001c58889,68817205a84113384fffdfe3,689b8158cbb0963fb96aee93,,,,,,,,,,,,,,,,,,,,,,,,,,,,,,561.1778,564.8531,0,0,0,0,1,,,,,,,,,,,,,,,,,,,,,,,,,,,,,,,,,,,,,,,,,,,,,,,,,
,,,,,,,"If you think it is an existing Spanish word, you type '1' (for 'REAL'), and if you think it is not an existing Spanish word, you type '0' (for 'FAKE').", (press the spacebar to continue),5c376ea0eecc440001c58889,Spanish,13 or older,"no, only English or Spanish",no,2025-08-12_14h01.53.085,empathy_intonation_perc_control,2024.2.4,Win32,59.88023952,5c376ea0eecc440001c58889,68817205a84113384fffdfe3,689b8158cbb0963fb96aee93,,,,,,,,,,,,,,,,,,,,,,,,,,,,,,564.8578,569.4355,0,1,1,1,1,,,,,,,,,,,,,,,,,,,,,,,,,,,,,,,,,,,,,,,,,,,,,,,,,
,,,,,,,"If you are sure that the word exists, even though you don’t know its exact meaning, you may still respond '1' (REAL). 
  
  But if you are not sure if it is an existing word, you should respond '0' (FAKE).
  
  Let's do a practice round...", (press the spacebar to continue),5c376ea0eecc440001c58889,Spanish,13 or older,"no, only English or Spanish",no,2025-08-12_14h01.53.085,empathy_intonation_perc_control,2024.2.4,Win32,59.88023952,5c376ea0eecc440001c58889,68817205a84113384fffdfe3,689b8158cbb0963fb96aee93,,,,,,,,,,,,,,,,,,,,,,,,,,,,,,569.4389,573.2358,0,2,2,2,1,,,,,,,,,,,,,,,,,,,,,,,,,,,,,,,,,,,,,,,,,,,,,,,,,
,,,,,,,,,5c376ea0eecc440001c58889,Spanish,13 or older,"no, only English or Spanish",no,2025-08-12_14h01.53.085,empathy_intonation_perc_control,2024.2.4,Win32,59.88023952,5c376ea0eecc440001c58889,68817205a84113384fffdfe3,689b8158cbb0963fb96aee93,,,,,,,,,,,,,0,,,,,,,,,,,,,,,,,,,,,,,,573.243,575.6525,1,0,1.8839,,575.6528,576.6524,0,0,0,0,1,0,depiste,REAL,FAKE,,,,,,,,,,,,,,,,,,,,,,,,,,,,,,,,
,,,,,,,,,5c376ea0eecc440001c58889,Spanish,13 or older,"no, only English or Spanish",no,2025-08-12_14h01.53.085,empathy_intonation_perc_control,2024.2.4,Win32,59.88023952,5c376ea0eecc440001c58889,68817205a84113384fffdfe3,689b8158cbb0963fb96aee93,,,,,,,,,,,,,1,,,,,,,,,,,,,,,,,,,,,,,,576.6542,578.114,1,1,0.9216,,578.116,579.1176,0,1,1,1,1,0,sí,REAL,FAKE,,,,,,,,,,,,,,,,,,,,,,,,,,,,,,,,
,,,,,,,,,5c376ea0eecc440001c58889,Spanish,13 or older,"no, only English or Spanish",no,2025-08-12_14h01.53.085,empathy_intonation_perc_control,2024.2.4,Win32,59.88023952,5c376ea0eecc440001c58889,68817205a84113384fffdfe3,689b8158cbb0963fb96aee93,,,,,,,,,,,,,0,,,,,,,,,,,,,,,,,,,,,,,,579.1197,581.0701,0,1,1.4359,,581.0701,582.0684,0,2,2,2,1,0,coné,REAL,FAKE,,,,,,,,,,,,,,,,,,,,,,,,,,,,,,,,
,,,,,,,,,5c376ea0eecc440001c58889,Spanish,13 or older,"no, only English or Spanish",no,2025-08-12_14h01.53.085,empathy_intonation_perc_control,2024.2.4,Win32,59.88023952,5c376ea0eecc440001c58889,68817205a84113384fffdfe3,689b8158cbb0963fb96aee93,,,,,,,,,,,,,0,,,,,,,,,,,,,,,,,,,,,,,,582.0702,583.8181,1,0,1.2174,,583.8195,584.8179,0,3,3,3,1,0,calpar,REAL,FAKE,,,,,,,,,,,,,,,,,,,,,,,,,,,,,,,,
,,,,,,,,,5c376ea0eecc440001c58889,Spanish,13 or older,"no, only English or Spanish",no,2025-08-12_14h01.53.085,empathy_intonation_perc_control,2024.2.4,Win32,59.88023952,5c376ea0eecc440001c58889,68817205a84113384fffdfe3,689b8158cbb0963fb96aee93,,,,,,,,,,,,,0,,,,,,,,,,,,,,,,,,,,,,,,584.8197,586.4682,0,1,1.1174,,586.4691,587.4684,0,4,4,4,1,0,joten,REAL,FAKE,,,,,,,,,,,,,,,,,,,,,,,,,,,,,,,,
,,,,,,,,,5c376ea0eecc440001c58889,Spanish,13 or older,"no, only English or Spanish",no,2025-08-12_14h01.53.085,empathy_intonation_perc_control,2024.2.4,Win32,59.88023952,5c376ea0eecc440001c58889,68817205a84113384fffdfe3,689b8158cbb0963fb96aee93,,,,,,,,,,,,,1,,,,,,,,,,,,,,,,,,,,,,,,587.4697,589.9678,0,0,1.9674,,589.9689,590.9677,0,5,5,5,1,0,sacapuntas,REAL,FAKE,,,,,,,,,,,,,,,,,,,,,,,,,,,,,,,,
,,,,,,,,,5c376ea0eecc440001c58889,Spanish,13 or older,"no, only English or Spanish",no,2025-08-12_14h01.53.085,empathy_intonation_perc_control,2024.2.4,Win32,59.88023952,5c376ea0eecc440001c58889,68817205a84113384fffdfe3,689b8158cbb0963fb96aee93,,,,,,,,,,,,,0,,,,,,,,,,,,,,,,,,,,,,,,590.9695,593.3009,0,1,1.8004,,593.3019,594.3,0,6,6,6,1,0,priba,REAL,FAKE,,,,,,,,,,,,,,,,,,,,,,,,,,,,,,,,
,,,,,,,,,5c376ea0eecc440001c58889,Spanish,13 or older,"no, only English or Spanish",no,2025-08-12_14h01.53.085,empathy_intonation_perc_control,2024.2.4,Win32,59.88023952,5c376ea0eecc440001c58889,68817205a84113384fffdfe3,689b8158cbb0963fb96aee93,,,,,,,,,,,,,0,,,,,,,,,,,,,,,,,,,,,,,,594.3019,596.8003,1,0,1.9667,,596.8019,597.799,0,7,7,7,1,0,pelasula,REAL,FAKE,,,,,,,,,,,,,,,,,,,,,,,,,,,,,,,,
,,,,,,,,,5c376ea0eecc440001c58889,Spanish,13 or older,"no, only English or Spanish",no,2025-08-12_14h01.53.085,empathy_intonation_perc_control,2024.2.4,Win32,59.88023952,5c376ea0eecc440001c58889,68817205a84113384fffdfe3,689b8158cbb0963fb96aee93,,,,,,,,,,,,,1,,,,,,,,,,,,,,,,,,,,,,,,597.8009,599.233,1,1,0.8991,,599.2341,600.233,0,8,8,8,1,0,bien,REAL,FAKE,,,,,,,,,,,,,,,,,,,,,,,,,,,,,,,,
,,,,,,,,,5c376ea0eecc440001c58889,Spanish,13 or older,"no, only English or Spanish",no,2025-08-12_14h01.53.085,empathy_intonation_perc_control,2024.2.4,Win32,59.88023952,5c376ea0eecc440001c58889,68817205a84113384fffdfe3,689b8158cbb0963fb96aee93,,,,,,,,,,,,,1,,,,,,,,,,,,,,,,,,,,,,,,600.2348,601.517,1,1,0.7507,,601.517,602.5163,0,9,9,9,1,0,casa,REAL,FAKE,,,,,,,,,,,,,,,,,,,,,,,,,,,,,,,,
,,,,,,,,,5c376ea0eecc440001c58889,Spanish,13 or older,"no, only English or Spanish",no,2025-08-12_14h01.53.085,empathy_intonation_perc_control,2024.2.4,Win32,59.88023952,5c376ea0eecc440001c58889,68817205a84113384fffdfe3,689b8158cbb0963fb96aee93,,,,,,,,,,,,,0,,,,,,,,,,,,,,,,,,,,,,,,602.518,604.4164,1,0,1.3671,,604.418,605.4161,0,10,10,10,1,0,lejo,REAL,FAKE,,,,,,,,,,,,,,,,,,,,,,,,,,,,,,,,
,,,,,,,,,5c376ea0eecc440001c58889,Spanish,13 or older,"no, only English or Spanish",no,2025-08-12_14h01.53.085,empathy_intonation_perc_control,2024.2.4,Win32,59.88023952,5c376ea0eecc440001c58889,68817205a84113384fffdfe3,689b8158cbb0963fb96aee93,,,,,,,,,,,,,0,,,,,,,,,,,,,,,,,,,,,,,,605.4178,608.1503,0,1,2.2013,,608.151,609.1494,0,11,11,11,1,0,pretantas,REAL,FAKE,,,,,,,,,,,,,,,,,,,,,,,,,,,,,,,,
,,,,,,,,,5c376ea0eecc440001c58889,Spanish,13 or older,"no, only English or Spanish",no,2025-08-12_14h01.53.085,empathy_intonation_perc_control,2024.2.4,Win32,59.88023952,5c376ea0eecc440001c58889,68817205a84113384fffdfe3,689b8158cbb0963fb96aee93,,,,,,,,,,,,,,,,,,,,,,,,,,,,,,,,,,,,,,,,,,,,,,,,,,,,,,609.15,610.3322,,,,,,,,,,,,,,,,,,,,,,,,,,,,,,
,,,,,,,,,5c376ea0eecc440001c58889,Spanish,13 or older,"no, only English or Spanish",no,2025-08-12_14h01.53.085,empathy_intonation_perc_control,2024.2.4,Win32,59.88023952,5c376ea0eecc440001c58889,68817205a84113384fffdfe3,689b8158cbb0963fb96aee93,,,,,,,,,,,,,0,,,,,,,,,,,,,,,,,,,,,,,,,,,,,,,,,,,,,8,cadeña,,,,,610.3495,613.5832,1,0,2.717,,0,0,0,7,1,REAL,FAKE,,,,,,,,,,,,,,,,,
,,,,,,,,,5c376ea0eecc440001c58889,Spanish,13 or older,"no, only English or Spanish",no,2025-08-12_14h01.53.085,empathy_intonation_perc_control,2024.2.4,Win32,59.88023952,5c376ea0eecc440001c58889,68817205a84113384fffdfe3,689b8158cbb0963fb96aee93,,,,,,,,,,,,,1,,,,,,,,,,,,,,,,,,,,,,,,,,,,,,,,,,,,,69,engatusar,,,,,613.5851,615.7671,0,0,1.6516,,0,1,1,68,1,REAL,FAKE,,,,,,,,,,,,,,,,,
,,,,,,,,,5c376ea0eecc440001c58889,Spanish,13 or older,"no, only English or Spanish",no,2025-08-12_14h01.53.085,empathy_intonation_perc_control,2024.2.4,Win32,59.88023952,5c376ea0eecc440001c58889,68817205a84113384fffdfe3,689b8158cbb0963fb96aee93,,,,,,,,,,,,,1,,,,,,,,,,,,,,,,,,,,,,,,,,,,,,,,,,,,,60,matar,,,,,615.7694,617.2156,1,1,0.917,,0,2,2,59,1,REAL,FAKE,,,,,,,,,,,,,,,,,
,,,,,,,,,5c376ea0eecc440001c58889,Spanish,13 or older,"no, only English or Spanish",no,2025-08-12_14h01.53.085,empathy_intonation_perc_control,2024.2.4,Win32,59.88023952,5c376ea0eecc440001c58889,68817205a84113384fffdfe3,689b8158cbb0963fb96aee93,,,,,,,,,,,,,1,,,,,,,,,,,,,,,,,,,,,,,,,,,,,,,,,,,,,3,pulmones,,,,,617.2174,619.0983,0,0,1.3498,,0,3,3,2,1,REAL,FAKE,,,,,,,,,,,,,,,,,
,,,,,,,,,5c376ea0eecc440001c58889,Spanish,13 or older,"no, only English or Spanish",no,2025-08-12_14h01.53.085,empathy_intonation_perc_control,2024.2.4,Win32,59.88023952,5c376ea0eecc440001c58889,68817205a84113384fffdfe3,689b8158cbb0963fb96aee93,,,,,,,,,,,,,0,,,,,,,,,,,,,,,,,,,,,,,,,,,,,,,,,,,,,74,cintro,,,,,619.0998,622.2156,0,1,2.5838,,0,4,4,73,1,REAL,FAKE,,,,,,,,,,,,,,,,,
,,,,,,,,,5c376ea0eecc440001c58889,Spanish,13 or older,"no, only English or Spanish",no,2025-08-12_14h01.53.085,empathy_intonation_perc_control,2024.2.4,Win32,59.88023952,5c376ea0eecc440001c58889,68817205a84113384fffdfe3,689b8158cbb0963fb96aee93,,,,,,,,,,,,,0,,,,,,,,,,,,,,,,,,,,,,,,,,,,,,,,,,,,,23,lampera,,,,,622.2175,624.4984,0,1,1.7503,,0,5,5,22,1,REAL,FAKE,,,,,,,,,,,,,,,,,
,,,,,,,,,5c376ea0eecc440001c58889,Spanish,13 or older,"no, only English or Spanish",no,2025-08-12_14h01.53.085,empathy_intonation_perc_control,2024.2.4,Win32,59.88023952,5c376ea0eecc440001c58889,68817205a84113384fffdfe3,689b8158cbb0963fb96aee93,,,,,,,,,,,,,0,,,,,,,,,,,,,,,,,,,,,,,,,,,,,,,,,,,,,17,floroso,,,,,624.5007,627.0817,1,0,2.0502,,0,6,6,16,1,REAL,FAKE,,,,,,,,,,,,,,,,,
,,,,,,,,,5c376ea0eecc440001c58889,Spanish,13 or older,"no, only English or Spanish",no,2025-08-12_14h01.53.085,empathy_intonation_perc_control,2024.2.4,Win32,59.88023952,5c376ea0eecc440001c58889,68817205a84113384fffdfe3,689b8158cbb0963fb96aee93,,,,,,,,,,,,,1,,,,,,,,,,,,,,,,,,,,,,,,,,,,,,,,,,,,,90,clavel,,,,,627.0839,629.9973,0,0,2.3828,,0,7,7,89,1,REAL,FAKE,,,,,,,,,,,,,,,,,
,,,,,,,,,5c376ea0eecc440001c58889,Spanish,13 or older,"no, only English or Spanish",no,2025-08-12_14h01.53.085,empathy_intonation_perc_control,2024.2.4,Win32,59.88023952,5c376ea0eecc440001c58889,68817205a84113384fffdfe3,689b8158cbb0963fb96aee93,,,,,,,,,,,,,1,,,,,,,,,,,,,,,,,,,,,,,,,,,,,,,,,,,,,91,click the 1 key.,,,,,630.0002,631.6983,1,1,1.1673,,0,8,8,90,1,REAL,FAKE,,,,,,,,,,,,,,,,,
,,,,,,,,,5c376ea0eecc440001c58889,Spanish,13 or older,"no, only English or Spanish",no,2025-08-12_14h01.53.085,empathy_intonation_perc_control,2024.2.4,Win32,59.88023952,5c376ea0eecc440001c58889,68817205a84113384fffdfe3,689b8158cbb0963fb96aee93,,,,,,,,,,,,,1,,,,,,,,,,,,,,,,,,,,,,,,,,,,,,,,,,,,,11,cenefa,,,,,631.6998,633.564,0,0,1.3329,,0,9,9,10,1,REAL,FAKE,,,,,,,,,,,,,,,,,
,,,,,,,,,5c376ea0eecc440001c58889,Spanish,13 or older,"no, only English or Spanish",no,2025-08-12_14h01.53.085,empathy_intonation_perc_control,2024.2.4,Win32,59.88023952,5c376ea0eecc440001c58889,68817205a84113384fffdfe3,689b8158cbb0963fb96aee93,,,,,,,,,,,,,1,,,,,,,,,,,,,,,,,,,,,,,,,,,,,,,,,,,,,12,asesinato,,,,,633.566,637.4811,0,0,3.3837,,0,10,10,11,1,REAL,FAKE,,,,,,,,,,,,,,,,,
,,,,,,,,,5c376ea0eecc440001c58889,Spanish,13 or older,"no, only English or Spanish",no,2025-08-12_14h01.53.085,empathy_intonation_perc_control,2024.2.4,Win32,59.88023952,5c376ea0eecc440001c58889,68817205a84113384fffdfe3,689b8158cbb0963fb96aee93,,,,,,,,,,,,,1,,,,,,,,,,,,,,,,,,,,,,,,,,,,,,,,,,,,,31,pandilla,,,,,637.483,639.8475,1,1,1.8337,,0,11,11,30,1,REAL,FAKE,,,,,,,,,,,,,,,,,
,,,,,,,,,5c376ea0eecc440001c58889,Spanish,13 or older,"no, only English or Spanish",no,2025-08-12_14h01.53.085,empathy_intonation_perc_control,2024.2.4,Win32,59.88023952,5c376ea0eecc440001c58889,68817205a84113384fffdfe3,689b8158cbb0963fb96aee93,,,,,,,,,,,,,0,,,,,,,,,,,,,,,,,,,,,,,,,,,,,,,,,,,,,10,antar,,,,,639.8495,642.9632,0,1,2.5826,,0,12,12,9,1,REAL,FAKE,,,,,,,,,,,,,,,,,
,,,,,,,,,5c376ea0eecc440001c58889,Spanish,13 or older,"no, only English or Spanish",no,2025-08-12_14h01.53.085,empathy_intonation_perc_control,2024.2.4,Win32,59.88023952,5c376ea0eecc440001c58889,68817205a84113384fffdfe3,689b8158cbb0963fb96aee93,,,,,,,,,,,,,1,,,,,,,,,,,,,,,,,,,,,,,,,,,,,,,,,,,,,39,torpe,,,,,642.9651,645.9798,0,0,2.4996,,0,13,13,38,1,REAL,FAKE,,,,,,,,,,,,,,,,,
,,,,,,,,,5c376ea0eecc440001c58889,Spanish,13 or older,"no, only English or Spanish",no,2025-08-12_14h01.53.085,empathy_intonation_perc_control,2024.2.4,Win32,59.88023952,5c376ea0eecc440001c58889,68817205a84113384fffdfe3,689b8158cbb0963fb96aee93,,,,,,,,,,,,,1,,,,,,,,,,,,,,,,,,,,,,,,,,,,,,,,,,,,,80,hormiga,,,,,645.9815,649.1138,1,1,2.6003,,0,14,14,79,1,REAL,FAKE,,,,,,,,,,,,,,,,,
,,,,,,,,,5c376ea0eecc440001c58889,Spanish,13 or older,"no, only English or Spanish",no,2025-08-12_14h01.53.085,empathy_intonation_perc_control,2024.2.4,Win32,59.88023952,5c376ea0eecc440001c58889,68817205a84113384fffdfe3,689b8158cbb0963fb96aee93,,,,,,,,,,,,,0,,,,,,,,,,,,,,,,,,,,,,,,,,,,,,,,,,,,,79,tropaje,,,,,649.1157,651.162,0,1,1.5151,,0,15,15,78,1,REAL,FAKE,,,,,,,,,,,,,,,,,
,,,,,,,,,5c376ea0eecc440001c58889,Spanish,13 or older,"no, only English or Spanish",no,2025-08-12_14h01.53.085,empathy_intonation_perc_control,2024.2.4,Win32,59.88023952,5c376ea0eecc440001c58889,68817205a84113384fffdfe3,689b8158cbb0963fb96aee93,,,,,,,,,,,,,1,,,,,,,,,,,,,,,,,,,,,,,,,,,,,,,,,,,,,41,rebuscar,,,,,651.1635,652.8638,0,0,1.1672,,0,16,16,40,1,REAL,FAKE,,,,,,,,,,,,,,,,,
,,,,,,,,,5c376ea0eecc440001c58889,Spanish,13 or older,"no, only English or Spanish",no,2025-08-12_14h01.53.085,empathy_intonation_perc_control,2024.2.4,Win32,59.88023952,5c376ea0eecc440001c58889,68817205a84113384fffdfe3,689b8158cbb0963fb96aee93,,,,,,,,,,,,,1,,,,,,,,,,,,,,,,,,,,,,,,,,,,,,,,,,,,,45,jilguero,,,,,652.8656,655.2969,0,0,1.9008,,0,17,17,44,1,REAL,FAKE,,,,,,,,,,,,,,,,,
,,,,,,,,,5c376ea0eecc440001c58889,Spanish,13 or older,"no, only English or Spanish",no,2025-08-12_14h01.53.085,empathy_intonation_perc_control,2024.2.4,Win32,59.88023952,5c376ea0eecc440001c58889,68817205a84113384fffdfe3,689b8158cbb0963fb96aee93,,,,,,,,,,,,,1,,,,,,,,,,,,,,,,,,,,,,,,,,,,,,,,,,,,,83,guante,,,,,655.2985,657.6976,0,0,1.8683,,0,18,18,82,1,REAL,FAKE,,,,,,,,,,,,,,,,,
,,,,,,,,,5c376ea0eecc440001c58889,Spanish,13 or older,"no, only English or Spanish",no,2025-08-12_14h01.53.085,empathy_intonation_perc_control,2024.2.4,Win32,59.88023952,5c376ea0eecc440001c58889,68817205a84113384fffdfe3,689b8158cbb0963fb96aee93,,,,,,,,,,,,,1,,,,,,,,,,,,,,,,,,,,,,,,,,,,,,,,,,,,,43,canela,,,,,657.6987,659.4466,1,1,1.2175,,0,19,19,42,1,REAL,FAKE,,,,,,,,,,,,,,,,,
,,,,,,,,,5c376ea0eecc440001c58889,Spanish,13 or older,"no, only English or Spanish",no,2025-08-12_14h01.53.085,empathy_intonation_perc_control,2024.2.4,Win32,59.88023952,5c376ea0eecc440001c58889,68817205a84113384fffdfe3,689b8158cbb0963fb96aee93,,,,,,,,,,,,,1,,,,,,,,,,,,,,,,,,,,,,,,,,,,,,,,,,,,,24,látigo,,,,,659.4487,661.3131,0,0,1.3339,,0,20,20,23,1,REAL,FAKE,,,,,,,,,,,,,,,,,
,,,,,,,,,5c376ea0eecc440001c58889,Spanish,13 or older,"no, only English or Spanish",no,2025-08-12_14h01.53.085,empathy_intonation_perc_control,2024.2.4,Win32,59.88023952,5c376ea0eecc440001c58889,68817205a84113384fffdfe3,689b8158cbb0963fb96aee93,,,,,,,,,,,,,0,,,,,,,,,,,,,,,,,,,,,,,,,,,,,,,,,,,,,29,decar,,,,,661.3145,663.7957,0,1,1.9497,,0,21,21,28,1,REAL,FAKE,,,,,,,,,,,,,,,,,
,,,,,,,,,5c376ea0eecc440001c58889,Spanish,13 or older,"no, only English or Spanish",no,2025-08-12_14h01.53.085,empathy_intonation_perc_control,2024.2.4,Win32,59.88023952,5c376ea0eecc440001c58889,68817205a84113384fffdfe3,689b8158cbb0963fb96aee93,,,,,,,,,,,,,1,,,,,,,,,,,,,,,,,,,,,,,,,,,,,,,,,,,,,20,ávido,,,,,663.7974,666.5791,1,1,2.25,,0,22,22,19,1,REAL,FAKE,,,,,,,,,,,,,,,,,
,,,,,,,,,5c376ea0eecc440001c58889,Spanish,13 or older,"no, only English or Spanish",no,2025-08-12_14h01.53.085,empathy_intonation_perc_control,2024.2.4,Win32,59.88023952,5c376ea0eecc440001c58889,68817205a84113384fffdfe3,689b8158cbb0963fb96aee93,,,,,,,,,,,,,1,,,,,,,,,,,,,,,,,,,,,,,,,,,,,,,,,,,,,26,secuestro,,,,,666.581,668.9292,1,1,1.8171,,0,23,23,25,1,REAL,FAKE,,,,,,,,,,,,,,,,,
,,,,,,,,,5c376ea0eecc440001c58889,Spanish,13 or older,"no, only English or Spanish",no,2025-08-12_14h01.53.085,empathy_intonation_perc_control,2024.2.4,Win32,59.88023952,5c376ea0eecc440001c58889,68817205a84113384fffdfe3,689b8158cbb0963fb96aee93,,,,,,,,,,,,,1,,,,,,,,,,,,,,,,,,,,,,,,,,,,,,,,,,,,,44,cuchara,,,,,668.9309,671.4458,1,1,1.984,,0,24,24,43,1,REAL,FAKE,,,,,,,,,,,,,,,,,
,,,,,,,,,5c376ea0eecc440001c58889,Spanish,13 or older,"no, only English or Spanish",no,2025-08-12_14h01.53.085,empathy_intonation_perc_control,2024.2.4,Win32,59.88023952,5c376ea0eecc440001c58889,68817205a84113384fffdfe3,689b8158cbb0963fb96aee93,,,,,,,,,,,,,1,,,,,,,,,,,,,,,,,,,,,,,,,,,,,,,,,,,,,6,tergiversar,,,,,671.4473,673.0623,0,0,1.0838,,0,25,25,5,1,REAL,FAKE,,,,,,,,,,,,,,,,,
,,,,,,,,,5c376ea0eecc440001c58889,Spanish,13 or older,"no, only English or Spanish",no,2025-08-12_14h01.53.085,empathy_intonation_perc_control,2024.2.4,Win32,59.88023952,5c376ea0eecc440001c58889,68817205a84113384fffdfe3,689b8158cbb0963fb96aee93,,,,,,,,,,,,,1,,,,,,,,,,,,,,,,,,,,,,,,,,,,,,,,,,,,,67,cabello,,,,,673.0643,674.6784,1,1,1.0832,,0,26,26,66,1,REAL,FAKE,,,,,,,,,,,,,,,,,
,,,,,,,,,5c376ea0eecc440001c58889,Spanish,13 or older,"no, only English or Spanish",no,2025-08-12_14h01.53.085,empathy_intonation_perc_control,2024.2.4,Win32,59.88023952,5c376ea0eecc440001c58889,68817205a84113384fffdfe3,689b8158cbb0963fb96aee93,,,,,,,,,,,,,0,,,,,,,,,,,,,,,,,,,,,,,,,,,,,,,,,,,,,82,empirador,,,,,674.68,676.4953,0,1,1.2836,,0,27,27,81,1,REAL,FAKE,,,,,,,,,,,,,,,,,
,,,,,,,,,5c376ea0eecc440001c58889,Spanish,13 or older,"no, only English or Spanish",no,2025-08-12_14h01.53.085,empathy_intonation_perc_control,2024.2.4,Win32,59.88023952,5c376ea0eecc440001c58889,68817205a84113384fffdfe3,689b8158cbb0963fb96aee93,,,,,,,,,,,,,0,,,,,,,,,,,,,,,,,,,,,,,,,,,,,,,,,,,,,21,capillo,,,,,676.4971,678.2451,0,1,1.2171,,0,28,28,20,1,REAL,FAKE,,,,,,,,,,,,,,,,,
,,,,,,,,,5c376ea0eecc440001c58889,Spanish,13 or older,"no, only English or Spanish",no,2025-08-12_14h01.53.085,empathy_intonation_perc_control,2024.2.4,Win32,59.88023952,5c376ea0eecc440001c58889,68817205a84113384fffdfe3,689b8158cbb0963fb96aee93,,,,,,,,,,,,,1,,,,,,,,,,,,,,,,,,,,,,,,,,,,,,,,,,,,,15,regar,,,,,678.2469,680.2615,0,0,1.4836,,0,29,29,14,1,REAL,FAKE,,,,,,,,,,,,,,,,,
,,,,,,,,,5c376ea0eecc440001c58889,Spanish,13 or older,"no, only English or Spanish",no,2025-08-12_14h01.53.085,empathy_intonation_perc_control,2024.2.4,Win32,59.88023952,5c376ea0eecc440001c58889,68817205a84113384fffdfe3,689b8158cbb0963fb96aee93,,,,,,,,,,,,,1,,,,,,,,,,,,,,,,,,,,,,,,,,,,,,,,,,,,,2,pellizcar,,,,,680.2637,681.745,0,0,0.9507,,0,30,30,1,1,REAL,FAKE,,,,,,,,,,,,,,,,,
,,,,,,,,,5c376ea0eecc440001c58889,Spanish,13 or older,"no, only English or Spanish",no,2025-08-12_14h01.53.085,empathy_intonation_perc_control,2024.2.4,Win32,59.88023952,5c376ea0eecc440001c58889,68817205a84113384fffdfe3,689b8158cbb0963fb96aee93,,,,,,,,,,,,,1,,,,,,,,,,,,,,,,,,,,,,,,,,,,,,,,,,,,,51,candado,,,,,681.7467,686.4419,0,0,4.1634,,0,31,31,50,1,REAL,FAKE,,,,,,,,,,,,,,,,,
,,,,,,,,,5c376ea0eecc440001c58889,Spanish,13 or older,"no, only English or Spanish",no,2025-08-12_14h01.53.085,empathy_intonation_perc_control,2024.2.4,Win32,59.88023952,5c376ea0eecc440001c58889,68817205a84113384fffdfe3,689b8158cbb0963fb96aee93,,,,,,,,,,,,,1,,,,,,,,,,,,,,,,,,,,,,,,,,,,,,,,,,,,,61,seda,,,,,686.4433,688.1922,0,0,1.2269,,0,32,32,60,1,REAL,FAKE,,,,,,,,,,,,,,,,,
,,,,,,,,,5c376ea0eecc440001c58889,Spanish,13 or older,"no, only English or Spanish",no,2025-08-12_14h01.53.085,empathy_intonation_perc_control,2024.2.4,Win32,59.88023952,5c376ea0eecc440001c58889,68817205a84113384fffdfe3,689b8158cbb0963fb96aee93,,,,,,,,,,,,,1,,,,,,,,,,,,,,,,,,,,,,,,,,,,,,,,,,,,,49,ganar,,,,,688.1939,689.524,1,1,0.797,,0,33,33,48,1,REAL,FAKE,,,,,,,,,,,,,,,,,
,,,,,,,,,5c376ea0eecc440001c58889,Spanish,13 or older,"no, only English or Spanish",no,2025-08-12_14h01.53.085,empathy_intonation_perc_control,2024.2.4,Win32,59.88023952,5c376ea0eecc440001c58889,68817205a84113384fffdfe3,689b8158cbb0963fb96aee93,,,,,,,,,,,,,1,,,,,,,,,,,,,,,,,,,,,,,,,,,,,,,,,,,,,25,bisagra,,,,,689.5251,691.6239,0,0,1.5707,,0,34,34,24,1,REAL,FAKE,,,,,,,,,,,,,,,,,
,,,,,,,,,5c376ea0eecc440001c58889,Spanish,13 or older,"no, only English or Spanish",no,2025-08-12_14h01.53.085,empathy_intonation_perc_control,2024.2.4,Win32,59.88023952,5c376ea0eecc440001c58889,68817205a84113384fffdfe3,689b8158cbb0963fb96aee93,,,,,,,,,,,,,0,,,,,,,,,,,,,,,,,,,,,,,,,,,,,,,,,,,,,47,cartinar,,,,,691.6249,693.2905,0,1,1.1348,,0,35,35,46,1,REAL,FAKE,,,,,,,,,,,,,,,,,
,,,,,,,,,5c376ea0eecc440001c58889,Spanish,13 or older,"no, only English or Spanish",no,2025-08-12_14h01.53.085,empathy_intonation_perc_control,2024.2.4,Win32,59.88023952,5c376ea0eecc440001c58889,68817205a84113384fffdfe3,689b8158cbb0963fb96aee93,,,,,,,,,,,,,0,,,,,,,,,,,,,,,,,,,,,,,,,,,,,,,,,,,,,66,hacido,,,,,693.2916,695.5735,1,0,1.7513,,0,36,36,65,1,REAL,FAKE,,,,,,,,,,,,,,,,,
,,,,,,,,,5c376ea0eecc440001c58889,Spanish,13 or older,"no, only English or Spanish",no,2025-08-12_14h01.53.085,empathy_intonation_perc_control,2024.2.4,Win32,59.88023952,5c376ea0eecc440001c58889,68817205a84113384fffdfe3,689b8158cbb0963fb96aee93,,,,,,,,,,,,,0,,,,,,,,,,,,,,,,,,,,,,,,,,,,,,,,,,,,,32,fatacidad,,,,,695.5746,698.1735,0,1,2.0707,,0,37,37,31,1,REAL,FAKE,,,,,,,,,,,,,,,,,
,,,,,,,,,5c376ea0eecc440001c58889,Spanish,13 or older,"no, only English or Spanish",no,2025-08-12_14h01.53.085,empathy_intonation_perc_control,2024.2.4,Win32,59.88023952,5c376ea0eecc440001c58889,68817205a84113384fffdfe3,689b8158cbb0963fb96aee93,,,,,,,,,,,,,1,,,,,,,,,,,,,,,,,,,,,,,,,,,,,,,,,,,,,78,frondoso,,,,,698.1746,699.79,0,0,1.0857,,0,38,38,77,1,REAL,FAKE,,,,,,,,,,,,,,,,,
,,,,,,,,,5c376ea0eecc440001c58889,Spanish,13 or older,"no, only English or Spanish",no,2025-08-12_14h01.53.085,empathy_intonation_perc_control,2024.2.4,Win32,59.88023952,5c376ea0eecc440001c58889,68817205a84113384fffdfe3,689b8158cbb0963fb96aee93,,,,,,,,,,,,,1,,,,,,,,,,,,,,,,,,,,,,,,,,,,,,,,,,,,,75,yacer,,,,,699.7911,702.7731,0,0,2.4484,,0,39,39,74,1,REAL,FAKE,,,,,,,,,,,,,,,,,
,,,,,,,,,5c376ea0eecc440001c58889,Spanish,13 or older,"no, only English or Spanish",no,2025-08-12_14h01.53.085,empathy_intonation_perc_control,2024.2.4,Win32,59.88023952,5c376ea0eecc440001c58889,68817205a84113384fffdfe3,689b8158cbb0963fb96aee93,,,,,,,,,,,,,0,,,,,,,,,,,,,,,,,,,,,,,,,,,,,,,,,,,,,63,esposante,,,,,702.7742,708.1394,0,1,4.8285,,0,40,40,62,1,REAL,FAKE,,,,,,,,,,,,,,,,,
,,,,,,,,,5c376ea0eecc440001c58889,Spanish,13 or older,"no, only English or Spanish",no,2025-08-12_14h01.53.085,empathy_intonation_perc_control,2024.2.4,Win32,59.88023952,5c376ea0eecc440001c58889,68817205a84113384fffdfe3,689b8158cbb0963fb96aee93,,,,,,,,,,,,,1,,,,,,,,,,,,,,,,,,,,,,,,,,,,,,,,,,,,,22,lacayo,,,,,708.1405,709.6393,0,0,0.9671,,0,41,41,21,1,REAL,FAKE,,,,,,,,,,,,,,,,,
,,,,,,,,,5c376ea0eecc440001c58889,Spanish,13 or older,"no, only English or Spanish",no,2025-08-12_14h01.53.085,empathy_intonation_perc_control,2024.2.4,Win32,59.88023952,5c376ea0eecc440001c58889,68817205a84113384fffdfe3,689b8158cbb0963fb96aee93,,,,,,,,,,,,,0,,,,,,,,,,,,,,,,,,,,,,,,,,,,,,,,,,,,,72,pemición,,,,,709.6409,714.1585,0,1,3.9934,,0,42,42,71,1,REAL,FAKE,,,,,,,,,,,,,,,,,
,,,,,,,,,5c376ea0eecc440001c58889,Spanish,13 or older,"no, only English or Spanish",no,2025-08-12_14h01.53.085,empathy_intonation_perc_control,2024.2.4,Win32,59.88023952,5c376ea0eecc440001c58889,68817205a84113384fffdfe3,689b8158cbb0963fb96aee93,,,,,,,,,,,,,1,,,,,,,,,,,,,,,,,,,,,,,,,,,,,,,,,,,,,71,polvoriento,,,,,714.1598,717.1056,0,0,2.4165,,0,43,43,70,1,REAL,FAKE,,,,,,,,,,,,,,,,,
,,,,,,,,,5c376ea0eecc440001c58889,Spanish,13 or older,"no, only English or Spanish",no,2025-08-12_14h01.53.085,empathy_intonation_perc_control,2024.2.4,Win32,59.88023952,5c376ea0eecc440001c58889,68817205a84113384fffdfe3,689b8158cbb0963fb96aee93,,,,,,,,,,,,,0,,,,,,,,,,,,,,,,,,,,,,,,,,,,,,,,,,,,,42,cadallo,,,,,717.1074,719.3554,0,1,1.7115,,0,44,44,41,1,REAL,FAKE,,,,,,,,,,,,,,,,,
,,,,,,,,,5c376ea0eecc440001c58889,Spanish,13 or older,"no, only English or Spanish",no,2025-08-12_14h01.53.085,empathy_intonation_perc_control,2024.2.4,Win32,59.88023952,5c376ea0eecc440001c58889,68817205a84113384fffdfe3,689b8158cbb0963fb96aee93,,,,,,,,,,,,,1,,,,,,,,,,,,,,,,,,,,,,,,,,,,,,,,,,,,,77,tiburón,,,,,719.3565,721.7053,0,0,1.8117,,0,45,45,76,1,REAL,FAKE,,,,,,,,,,,,,,,,,
,,,,,,,,,5c376ea0eecc440001c58889,Spanish,13 or older,"no, only English or Spanish",no,2025-08-12_14h01.53.085,empathy_intonation_perc_control,2024.2.4,Win32,59.88023952,5c376ea0eecc440001c58889,68817205a84113384fffdfe3,689b8158cbb0963fb96aee93,,,,,,,,,,,,,1,,,,,,,,,,,,,,,,,,,,,,,,,,,,,,,,,,,,,68,alegre,,,,,721.7064,724.2399,1,1,2.0082,,0,46,46,67,1,REAL,FAKE,,,,,,,,,,,,,,,,,
,,,,,,,,,5c376ea0eecc440001c58889,Spanish,13 or older,"no, only English or Spanish",no,2025-08-12_14h01.53.085,empathy_intonation_perc_control,2024.2.4,Win32,59.88023952,5c376ea0eecc440001c58889,68817205a84113384fffdfe3,689b8158cbb0963fb96aee93,,,,,,,,,,,,,1,,,,,,,,,,,,,,,,,,,,,,,,,,,,,,,,,,,,,28,merodear,,,,,724.2413,726.1383,0,0,1.3707,,0,47,47,27,1,REAL,FAKE,,,,,,,,,,,,,,,,,
,,,,,,,,,5c376ea0eecc440001c58889,Spanish,13 or older,"no, only English or Spanish",no,2025-08-12_14h01.53.085,empathy_intonation_perc_control,2024.2.4,Win32,59.88023952,5c376ea0eecc440001c58889,68817205a84113384fffdfe3,689b8158cbb0963fb96aee93,,,,,,,,,,,,,1,,,,,,,,,,,,,,,,,,,,,,,,,,,,,,,,,,,,,37,granuja,,,,,726.1394,728.1381,0,0,1.4642,,0,48,48,36,1,REAL,FAKE,,,,,,,,,,,,,,,,,
,,,,,,,,,5c376ea0eecc440001c58889,Spanish,13 or older,"no, only English or Spanish",no,2025-08-12_14h01.53.085,empathy_intonation_perc_control,2024.2.4,Win32,59.88023952,5c376ea0eecc440001c58889,68817205a84113384fffdfe3,689b8158cbb0963fb96aee93,,,,,,,,,,,,,1,,,,,,,,,,,,,,,,,,,,,,,,,,,,,,,,,,,,,5,zapato,,,,,728.1393,729.5553,1,1,0.8976,,0,49,49,4,1,REAL,FAKE,,,,,,,,,,,,,,,,,
,,,,,,,,,5c376ea0eecc440001c58889,Spanish,13 or older,"no, only English or Spanish",no,2025-08-12_14h01.53.085,empathy_intonation_perc_control,2024.2.4,Win32,59.88023952,5c376ea0eecc440001c58889,68817205a84113384fffdfe3,689b8158cbb0963fb96aee93,,,,,,,,,,,,,0,,,,,,,,,,,,,,,,,,,,,,,,,,,,,,,,,,,,,19,brecedad,,,,,729.5564,731.6713,0,1,1.5824,,0,50,50,18,1,REAL,FAKE,,,,,,,,,,,,,,,,,
,,,,,,,,,5c376ea0eecc440001c58889,Spanish,13 or older,"no, only English or Spanish",no,2025-08-12_14h01.53.085,empathy_intonation_perc_control,2024.2.4,Win32,59.88023952,5c376ea0eecc440001c58889,68817205a84113384fffdfe3,689b8158cbb0963fb96aee93,,,,,,,,,,,,,1,,,,,,,,,,,,,,,,,,,,,,,,,,,,,,,,,,,,,89,prisa,,,,,731.6725,733.1378,0,0,0.9389,,0,51,51,88,1,REAL,FAKE,,,,,,,,,,,,,,,,,
,,,,,,,,,5c376ea0eecc440001c58889,Spanish,13 or older,"no, only English or Spanish",no,2025-08-12_14h01.53.085,empathy_intonation_perc_control,2024.2.4,Win32,59.88023952,5c376ea0eecc440001c58889,68817205a84113384fffdfe3,689b8158cbb0963fb96aee93,,,,,,,,,,,,,1,,,,,,,,,,,,,,,,,,,,,,,,,,,,,,,,,,,,,88,acantilado,,,,,733.139,736.0891,0,0,2.4262,,0,52,52,87,1,REAL,FAKE,,,,,,,,,,,,,,,,,
,,,,,,,,,5c376ea0eecc440001c58889,Spanish,13 or older,"no, only English or Spanish",no,2025-08-12_14h01.53.085,empathy_intonation_perc_control,2024.2.4,Win32,59.88023952,5c376ea0eecc440001c58889,68817205a84113384fffdfe3,689b8158cbb0963fb96aee93,,,,,,,,,,,,,0,,,,,,,,,,,,,,,,,,,,,,,,,,,,,,,,,,,,,30,alardio,,,,,736.0905,738.5374,0,1,1.9193,,0,53,53,29,1,REAL,FAKE,,,,,,,,,,,,,,,,,
,,,,,,,,,5c376ea0eecc440001c58889,Spanish,13 or older,"no, only English or Spanish",no,2025-08-12_14h01.53.085,empathy_intonation_perc_control,2024.2.4,Win32,59.88023952,5c376ea0eecc440001c58889,68817205a84113384fffdfe3,689b8158cbb0963fb96aee93,,,,,,,,,,,,,0,,,,,,,,,,,,,,,,,,,,,,,,,,,,,,,,,,,,,84,escuto,,,,,738.5386,740.4206,1,0,1.3527,,0,54,54,83,1,REAL,FAKE,,,,,,,,,,,,,,,,,
,,,,,,,,,5c376ea0eecc440001c58889,Spanish,13 or older,"no, only English or Spanish",no,2025-08-12_14h01.53.085,empathy_intonation_perc_control,2024.2.4,Win32,59.88023952,5c376ea0eecc440001c58889,68817205a84113384fffdfe3,689b8158cbb0963fb96aee93,,,,,,,,,,,,,1,,,,,,,,,,,,,,,,,,,,,,,,,,,,,,,,,,,,,38,estornudar,,,,,740.4217,742.5871,0,0,1.6316,,0,55,55,37,1,REAL,FAKE,,,,,,,,,,,,,,,,,
,,,,,,,,,5c376ea0eecc440001c58889,Spanish,13 or older,"no, only English or Spanish",no,2025-08-12_14h01.53.085,empathy_intonation_perc_control,2024.2.4,Win32,59.88023952,5c376ea0eecc440001c58889,68817205a84113384fffdfe3,689b8158cbb0963fb96aee93,,,,,,,,,,,,,0,,,,,,,,,,,,,,,,,,,,,,,,,,,,,,,,,,,,,18,arsa,,,,,742.5883,744.1385,0,1,1.0265,,0,56,56,17,1,REAL,FAKE,,,,,,,,,,,,,,,,,
,,,,,,,,,5c376ea0eecc440001c58889,Spanish,13 or older,"no, only English or Spanish",no,2025-08-12_14h01.53.085,empathy_intonation_perc_control,2024.2.4,Win32,59.88023952,5c376ea0eecc440001c58889,68817205a84113384fffdfe3,689b8158cbb0963fb96aee93,,,,,,,,,,,,,1,,,,,,,,,,,,,,,,,,,,,,,,,,,,,,,,,,,,,52,camisa,,,,,744.1397,745.9036,1,1,1.2391,,0,57,57,51,1,REAL,FAKE,,,,,,,,,,,,,,,,,
,,,,,,,,,5c376ea0eecc440001c58889,Spanish,13 or older,"no, only English or Spanish",no,2025-08-12_14h01.53.085,empathy_intonation_perc_control,2024.2.4,Win32,59.88023952,5c376ea0eecc440001c58889,68817205a84113384fffdfe3,689b8158cbb0963fb96aee93,,,,,,,,,,,,,1,,,,,,,,,,,,,,,,,,,,,,,,,,,,,,,,,,,,,64,orgulloso,,,,,745.9048,747.6369,0,0,1.1951,,0,58,58,63,1,REAL,FAKE,,,,,,,,,,,,,,,,,
,,,,,,,,,5c376ea0eecc440001c58889,Spanish,13 or older,"no, only English or Spanish",no,2025-08-12_14h01.53.085,empathy_intonation_perc_control,2024.2.4,Win32,59.88023952,5c376ea0eecc440001c58889,68817205a84113384fffdfe3,689b8158cbb0963fb96aee93,,,,,,,,,,,,,1,,,,,,,,,,,,,,,,,,,,,,,,,,,,,,,,,,,,,46,martillo,,,,,747.6381,749.1535,0,0,0.98,,0,59,59,45,1,REAL,FAKE,,,,,,,,,,,,,,,,,
,,,,,,,,,5c376ea0eecc440001c58889,Spanish,13 or older,"no, only English or Spanish",no,2025-08-12_14h01.53.085,empathy_intonation_perc_control,2024.2.4,Win32,59.88023952,5c376ea0eecc440001c58889,68817205a84113384fffdfe3,689b8158cbb0963fb96aee93,,,,,,,,,,,,,1,,,,,,,,,,,,,,,,,,,,,,,,,,,,,,,,,,,,,57,tacaño,,,,,749.1545,752.0532,0,0,2.3628,,0,60,60,56,1,REAL,FAKE,,,,,,,,,,,,,,,,,
,,,,,,,,,5c376ea0eecc440001c58889,Spanish,13 or older,"no, only English or Spanish",no,2025-08-12_14h01.53.085,empathy_intonation_perc_control,2024.2.4,Win32,59.88023952,5c376ea0eecc440001c58889,68817205a84113384fffdfe3,689b8158cbb0963fb96aee93,,,,,,,,,,,,,0,,,,,,,,,,,,,,,,,,,,,,,,,,,,,,,,,,,,,87,grodo,,,,,752.0543,753.5034,0,1,0.9115,,0,61,61,86,1,REAL,FAKE,,,,,,,,,,,,,,,,,
,,,,,,,,,5c376ea0eecc440001c58889,Spanish,13 or older,"no, only English or Spanish",no,2025-08-12_14h01.53.085,empathy_intonation_perc_control,2024.2.4,Win32,59.88023952,5c376ea0eecc440001c58889,68817205a84113384fffdfe3,689b8158cbb0963fb96aee93,,,,,,,,,,,,,1,,,,,,,,,,,,,,,,,,,,,,,,,,,,,,,,,,,,,85,laúd,,,,,753.5053,755.1367,0,0,1.1062,,0,62,62,84,1,REAL,FAKE,,,,,,,,,,,,,,,,,
,,,,,,,,,5c376ea0eecc440001c58889,Spanish,13 or older,"no, only English or Spanish",no,2025-08-12_14h01.53.085,empathy_intonation_perc_control,2024.2.4,Win32,59.88023952,5c376ea0eecc440001c58889,68817205a84113384fffdfe3,689b8158cbb0963fb96aee93,,,,,,,,,,,,,0,,,,,,,,,,,,,,,,,,,,,,,,,,,,,,,,,,,,,1,terzo,,,,,755.1378,757.2696,1,0,1.5963,,0,63,63,0,1,REAL,FAKE,,,,,,,,,,,,,,,,,
,,,,,,,,,5c376ea0eecc440001c58889,Spanish,13 or older,"no, only English or Spanish",no,2025-08-12_14h01.53.085,empathy_intonation_perc_control,2024.2.4,Win32,59.88023952,5c376ea0eecc440001c58889,68817205a84113384fffdfe3,689b8158cbb0963fb96aee93,,,,,,,,,,,,,0,,,,,,,,,,,,,,,,,,,,,,,,,,,,,,,,,,,,,53,vegada,,,,,757.2706,759.4529,0,1,1.6539,,0,64,64,52,1,REAL,FAKE,,,,,,,,,,,,,,,,,
,,,,,,,,,5c376ea0eecc440001c58889,Spanish,13 or older,"no, only English or Spanish",no,2025-08-12_14h01.53.085,empathy_intonation_perc_control,2024.2.4,Win32,59.88023952,5c376ea0eecc440001c58889,68817205a84113384fffdfe3,689b8158cbb0963fb96aee93,,,,,,,,,,,,,1,,,,,,,,,,,,,,,,,,,,,,,,,,,,,,,,,,,,,56,musgo,,,,,759.4541,760.886,0,0,0.902,,0,65,65,55,1,REAL,FAKE,,,,,,,,,,,,,,,,,
,,,,,,,,,5c376ea0eecc440001c58889,Spanish,13 or older,"no, only English or Spanish",no,2025-08-12_14h01.53.085,empathy_intonation_perc_control,2024.2.4,Win32,59.88023952,5c376ea0eecc440001c58889,68817205a84113384fffdfe3,689b8158cbb0963fb96aee93,,,,,,,,,,,,,1,,,,,,,,,,,,,,,,,,,,,,,,,,,,,,,,,,,,,14,yunque,,,,,760.8871,762.8359,0,0,1.4208,,0,66,66,13,1,REAL,FAKE,,,,,,,,,,,,,,,,,
,,,,,,,,,5c376ea0eecc440001c58889,Spanish,13 or older,"no, only English or Spanish",no,2025-08-12_14h01.53.085,empathy_intonation_perc_control,2024.2.4,Win32,59.88023952,5c376ea0eecc440001c58889,68817205a84113384fffdfe3,689b8158cbb0963fb96aee93,,,,,,,,,,,,,1,,,,,,,,,,,,,,,,,,,,,,,,,,,,,,,,,,,,,13,helar,,,,,762.837,765.3524,1,1,1.9825,,0,67,67,12,1,REAL,FAKE,,,,,,,,,,,,,,,,,
,,,,,,,,,5c376ea0eecc440001c58889,Spanish,13 or older,"no, only English or Spanish",no,2025-08-12_14h01.53.085,empathy_intonation_perc_control,2024.2.4,Win32,59.88023952,5c376ea0eecc440001c58889,68817205a84113384fffdfe3,689b8158cbb0963fb96aee93,,,,,,,,,,,,,0,,,,,,,,,,,,,,,,,,,,,,,,,,,,,,,,,,,,,92,click the 0 key.,,,,,765.3536,766.8205,0,1,0.9414,,0,68,68,91,1,REAL,FAKE,,,,,,,,,,,,,,,,,
,,,,,,,,,5c376ea0eecc440001c58889,Spanish,13 or older,"no, only English or Spanish",no,2025-08-12_14h01.53.085,empathy_intonation_perc_control,2024.2.4,Win32,59.88023952,5c376ea0eecc440001c58889,68817205a84113384fffdfe3,689b8158cbb0963fb96aee93,,,,,,,,,,,,,1,,,,,,,,,,,,,,,,,,,,,,,,,,,,,,,,,,,,,86,barato,,,,,766.8217,768.7855,0,0,1.4347,,0,69,69,85,1,REAL,FAKE,,,,,,,,,,,,,,,,,
,,,,,,,,,5c376ea0eecc440001c58889,Spanish,13 or older,"no, only English or Spanish",no,2025-08-12_14h01.53.085,empathy_intonation_perc_control,2024.2.4,Win32,59.88023952,5c376ea0eecc440001c58889,68817205a84113384fffdfe3,689b8158cbb0963fb96aee93,,,,,,,,,,,,,1,,,,,,,,,,,,,,,,,,,,,,,,,,,,,,,,,,,,,48,ladrón,,,,,768.7866,771.2699,0,0,1.9584,,0,70,70,47,1,REAL,FAKE,,,,,,,,,,,,,,,,,
,,,,,,,,,5c376ea0eecc440001c58889,Spanish,13 or older,"no, only English or Spanish",no,2025-08-12_14h01.53.085,empathy_intonation_perc_control,2024.2.4,Win32,59.88023952,5c376ea0eecc440001c58889,68817205a84113384fffdfe3,689b8158cbb0963fb96aee93,,,,,,,,,,,,,1,,,,,,,,,,,,,,,,,,,,,,,,,,,,,,,,,,,,,40,alfombra,,,,,771.2715,776.6851,0,0,4.8813,,0,71,71,39,1,REAL,FAKE,,,,,,,,,,,,,,,,,
,,,,,,,,,5c376ea0eecc440001c58889,Spanish,13 or older,"no, only English or Spanish",no,2025-08-12_14h01.53.085,empathy_intonation_perc_control,2024.2.4,Win32,59.88023952,5c376ea0eecc440001c58889,68817205a84113384fffdfe3,689b8158cbb0963fb96aee93,,,,,,,,,,,,,0,,,,,,,,,,,,,,,,,,,,,,,,,,,,,,,,,,,,,33,pauca,,,,,776.6861,778.2016,0,1,0.9787,,0,72,72,32,1,REAL,FAKE,,,,,,,,,,,,,,,,,
,,,,,,,,,5c376ea0eecc440001c58889,Spanish,13 or older,"no, only English or Spanish",no,2025-08-12_14h01.53.085,empathy_intonation_perc_control,2024.2.4,Win32,59.88023952,5c376ea0eecc440001c58889,68817205a84113384fffdfe3,689b8158cbb0963fb96aee93,,,,,,,,,,,,,1,,,,,,,,,,,,,,,,,,,,,,,,,,,,,,,,,,,,,76,atar,,,,,778.2027,780.0515,1,1,1.315,,0,73,73,75,1,REAL,FAKE,,,,,,,,,,,,,,,,,
,,,,,,,,,5c376ea0eecc440001c58889,Spanish,13 or older,"no, only English or Spanish",no,2025-08-12_14h01.53.085,empathy_intonation_perc_control,2024.2.4,Win32,59.88023952,5c376ea0eecc440001c58889,68817205a84113384fffdfe3,689b8158cbb0963fb96aee93,,,,,,,,,,,,,1,,,,,,,,,,,,,,,,,,,,,,,,,,,,,,,,,,,,,34,aviso,,,,,780.0526,781.5015,1,1,0.9143,,0,74,74,33,1,REAL,FAKE,,,,,,,,,,,,,,,,,
,,,,,,,,,5c376ea0eecc440001c58889,Spanish,13 or older,"no, only English or Spanish",no,2025-08-12_14h01.53.085,empathy_intonation_perc_control,2024.2.4,Win32,59.88023952,5c376ea0eecc440001c58889,68817205a84113384fffdfe3,689b8158cbb0963fb96aee93,,,,,,,,,,,,,1,,,,,,,,,,,,,,,,,,,,,,,,,,,,,,,,,,,,,36,loro,,,,,781.5027,782.8846,0,0,0.8528,,0,75,75,35,1,REAL,FAKE,,,,,,,,,,,,,,,,,
,,,,,,,,,5c376ea0eecc440001c58889,Spanish,13 or older,"no, only English or Spanish",no,2025-08-12_14h01.53.085,empathy_intonation_perc_control,2024.2.4,Win32,59.88023952,5c376ea0eecc440001c58889,68817205a84113384fffdfe3,689b8158cbb0963fb96aee93,,,,,,,,,,,,,1,,,,,,,,,,,,,,,,,,,,,,,,,,,,,,,,,,,,,81,pozo,,,,,782.8858,784.1185,0,0,0.7087,,0,76,76,80,1,REAL,FAKE,,,,,,,,,,,,,,,,,
,,,,,,,,,5c376ea0eecc440001c58889,Spanish,13 or older,"no, only English or Spanish",no,2025-08-12_14h01.53.085,empathy_intonation_perc_control,2024.2.4,Win32,59.88023952,5c376ea0eecc440001c58889,68817205a84113384fffdfe3,689b8158cbb0963fb96aee93,,,,,,,,,,,,,0,,,,,,,,,,,,,,,,,,,,,,,,,,,,,,,,,,,,,27,acutación,,,,,784.1198,786.7178,0,1,2.0678,,0,77,77,26,1,REAL,FAKE,,,,,,,,,,,,,,,,,
,,,,,,,,,5c376ea0eecc440001c58889,Spanish,13 or older,"no, only English or Spanish",no,2025-08-12_14h01.53.085,empathy_intonation_perc_control,2024.2.4,Win32,59.88023952,5c376ea0eecc440001c58889,68817205a84113384fffdfe3,689b8158cbb0963fb96aee93,,,,,,,,,,,,,1,,,,,,,,,,,,,,,,,,,,,,,,,,,,,,,,,,,,,54,fomentar,,,,,786.7193,788.7024,1,1,1.4583,,0,78,78,53,1,REAL,FAKE,,,,,,,,,,,,,,,,,
,,,,,,,,,5c376ea0eecc440001c58889,Spanish,13 or older,"no, only English or Spanish",no,2025-08-12_14h01.53.085,empathy_intonation_perc_control,2024.2.4,Win32,59.88023952,5c376ea0eecc440001c58889,68817205a84113384fffdfe3,689b8158cbb0963fb96aee93,,,,,,,,,,,,,1,,,,,,,,,,,,,,,,,,,,,,,,,,,,,,,,,,,,,65,bizcocho,,,,,788.7037,790.2342,0,0,1.0052,,0,79,79,64,1,REAL,FAKE,,,,,,,,,,,,,,,,,
,,,,,,,,,5c376ea0eecc440001c58889,Spanish,13 or older,"no, only English or Spanish",no,2025-08-12_14h01.53.085,empathy_intonation_perc_control,2024.2.4,Win32,59.88023952,5c376ea0eecc440001c58889,68817205a84113384fffdfe3,689b8158cbb0963fb96aee93,,,,,,,,,,,,,0,,,,,,,,,,,,,,,,,,,,,,,,,,,,,,,,,,,,,58,plaudir,,,,,790.2353,791.7507,0,1,0.9842,,0,80,80,57,1,REAL,FAKE,,,,,,,,,,,,,,,,,
,,,,,,,,,5c376ea0eecc440001c58889,Spanish,13 or older,"no, only English or Spanish",no,2025-08-12_14h01.53.085,empathy_intonation_perc_control,2024.2.4,Win32,59.88023952,5c376ea0eecc440001c58889,68817205a84113384fffdfe3,689b8158cbb0963fb96aee93,,,,,,,,,,,,,1,,,,,,,,,,,,,,,,,,,,,,,,,,,,,,,,,,,,,62,flaco,,,,,791.7518,793.2506,1,1,0.964,,0,81,81,61,1,REAL,FAKE,,,,,,,,,,,,,,,,,
,,,,,,,,,5c376ea0eecc440001c58889,Spanish,13 or older,"no, only English or Spanish",no,2025-08-12_14h01.53.085,empathy_intonation_perc_control,2024.2.4,Win32,59.88023952,5c376ea0eecc440001c58889,68817205a84113384fffdfe3,689b8158cbb0963fb96aee93,,,,,,,,,,,,,0,,,,,,,,,,,,,,,,,,,,,,,,,,,,,,,,,,,,,70,temblo,,,,,793.2517,795.0505,0,1,1.2661,,0,82,82,69,1,REAL,FAKE,,,,,,,,,,,,,,,,,
,,,,,,,,,5c376ea0eecc440001c58889,Spanish,13 or older,"no, only English or Spanish",no,2025-08-12_14h01.53.085,empathy_intonation_perc_control,2024.2.4,Win32,59.88023952,5c376ea0eecc440001c58889,68817205a84113384fffdfe3,689b8158cbb0963fb96aee93,,,,,,,,,,,,,0,,,,,,,,,,,,,,,,,,,,,,,,,,,,,,,,,,,,,35,rompido,,,,,795.0516,796.6672,0,1,1.0802,,0,83,83,34,1,REAL,FAKE,,,,,,,,,,,,,,,,,
,,,,,,,,,5c376ea0eecc440001c58889,Spanish,13 or older,"no, only English or Spanish",no,2025-08-12_14h01.53.085,empathy_intonation_perc_control,2024.2.4,Win32,59.88023952,5c376ea0eecc440001c58889,68817205a84113384fffdfe3,689b8158cbb0963fb96aee93,,,,,,,,,,,,,1,,,,,,,,,,,,,,,,,,,,,,,,,,,,,,,,,,,,,7,pésimo,,,,,796.6684,801.4501,1,1,4.2482,,0,84,84,6,1,REAL,FAKE,,,,,,,,,,,,,,,,,
,,,,,,,,,5c376ea0eecc440001c58889,Spanish,13 or older,"no, only English or Spanish",no,2025-08-12_14h01.53.085,empathy_intonation_perc_control,2024.2.4,Win32,59.88023952,5c376ea0eecc440001c58889,68817205a84113384fffdfe3,689b8158cbb0963fb96aee93,,,,,,,,,,,,,1,,,,,,,,,,,,,,,,,,,,,,,,,,,,,,,,,,,,,9,hacha,,,,,801.4513,803.0342,1,1,1.0551,,0,85,85,8,1,REAL,FAKE,,,,,,,,,,,,,,,,,
,,,,,,,,,5c376ea0eecc440001c58889,Spanish,13 or older,"no, only English or Spanish",no,2025-08-12_14h01.53.085,empathy_intonation_perc_control,2024.2.4,Win32,59.88023952,5c376ea0eecc440001c58889,68817205a84113384fffdfe3,689b8158cbb0963fb96aee93,,,,,,,,,,,,,1,,,,,,,,,,,,,,,,,,,,,,,,,,,,,,,,,,,,,55,nevar,,,,,803.0356,804.4667,0,0,0.8974,,0,86,86,54,1,REAL,FAKE,,,,,,,,,,,,,,,,,
,,,,,,,,,5c376ea0eecc440001c58889,Spanish,13 or older,"no, only English or Spanish",no,2025-08-12_14h01.53.085,empathy_intonation_perc_control,2024.2.4,Win32,59.88023952,5c376ea0eecc440001c58889,68817205a84113384fffdfe3,689b8158cbb0963fb96aee93,,,,,,,,,,,,,1,,,,,,,,,,,,,,,,,,,,,,,,,,,,,,,,,,,,,59,besar,,,,,804.4678,807.2165,1,1,2.2106,,0,87,87,58,1,REAL,FAKE,,,,,,,,,,,,,,,,,
,,,,,,,,,5c376ea0eecc440001c58889,Spanish,13 or older,"no, only English or Spanish",no,2025-08-12_14h01.53.085,empathy_intonation_perc_control,2024.2.4,Win32,59.88023952,5c376ea0eecc440001c58889,68817205a84113384fffdfe3,689b8158cbb0963fb96aee93,,,,,,,,,,,,,0,,,,,,,,,,,,,,,,,,,,,,,,,,,,,,,,,,,,,4,batillón,,,,,807.2175,808.9001,0,1,1.1551,,0,88,88,3,1,REAL,FAKE,,,,,,,,,,,,,,,,,
,,,,,,,,,5c376ea0eecc440001c58889,Spanish,13 or older,"no, only English or Spanish",no,2025-08-12_14h01.53.085,empathy_intonation_perc_control,2024.2.4,Win32,59.88023952,5c376ea0eecc440001c58889,68817205a84113384fffdfe3,689b8158cbb0963fb96aee93,,,,,,,,,,,,,1,,,,,,,,,,,,,,,,,,,,,,,,,,,,,,,,,,,,,73,hervidor,,,,,808.9012,810.4162,0,0,0.9827,,0,89,89,72,1,REAL,FAKE,,,,,,,,,,,,,,,,,
,,,,,,,,,5c376ea0eecc440001c58889,Spanish,13 or older,"no, only English or Spanish",no,2025-08-12_14h01.53.085,empathy_intonation_perc_control,2024.2.4,Win32,59.88023952,5c376ea0eecc440001c58889,68817205a84113384fffdfe3,689b8158cbb0963fb96aee93,,,,,,,,,,,,,0,,,,,,,,,,,,,,,,,,,,,,,,,,,,,,,,,,,,,50,flamida,,,,,810.4172,811.9661,0,1,1.0117,,0,90,90,49,1,REAL,FAKE,,,,,,,,,,,,,,,,,
,,,,,,,,,5c376ea0eecc440001c58889,Spanish,13 or older,"no, only English or Spanish",no,2025-08-12_14h01.53.085,empathy_intonation_perc_control,2024.2.4,Win32,59.88023952,5c376ea0eecc440001c58889,68817205a84113384fffdfe3,689b8158cbb0963fb96aee93,,,,,,,,,,,,,0,,,,,,,,,,,,,,,,,,,,,,,,,,,,,,,,,,,,,16,abracer,,,,,811.9673,814.5498,1,0,2.0477,,0,91,91,15,1,REAL,FAKE,,,,,,,,,,,,,,,,,
,,,,,,,,,5c376ea0eecc440001c58889,Spanish,13 or older,"no, only English or Spanish",no,2025-08-12_14h01.53.085,empathy_intonation_perc_control,2024.2.4,Win32,59.88023952,5c376ea0eecc440001c58889,68817205a84113384fffdfe3,689b8158cbb0963fb96aee93,,,,,,,,,,,,,,,,,,,,,,,,,,,,,,,,,,,,,,,,,,,,,,,,,,,,,,,,,,,,,,,,,,,,,814.5503,819.9992,,,,,,,,,,,,,,,
,,,,,,,,,5c376ea0eecc440001c58889,Spanish,13 or older,"no, only English or Spanish",no,2025-08-12_14h01.53.085,empathy_intonation_perc_control,2024.2.4,Win32,59.88023952,5c376ea0eecc440001c58889,68817205a84113384fffdfe3,689b8158cbb0963fb96aee93,,,,,,,,,,,,,,,,,,,,,,,,,,,1,,,,,,,,,,,,,,,,,,,,,,,,,,,,,,,,,,,,,,,,,,,,820.0161,827.166,strongly agree,0,0,0,0,1,I can easily tell if someone else wants to enter a conversation.,1,0,1,0,,
,,,,,,,,,5c376ea0eecc440001c58889,Spanish,13 or older,"no, only English or Spanish",no,2025-08-12_14h01.53.085,empathy_intonation_perc_control,2024.2.4,Win32,59.88023952,5c376ea0eecc440001c58889,68817205a84113384fffdfe3,689b8158cbb0963fb96aee93,,,,,,,,,,,,,,,,,,,,,,,,,,,2,,,,,,,,,,,,,,,,,,,,,,,,,,,,,,,,,,,,,,,,,,,,827.1685,831.3698,strongly disagree,0,1,1,1,1,I prefer animals to humans.,0,1,0,0,,
,,,,,,,,,5c376ea0eecc440001c58889,Spanish,13 or older,"no, only English or Spanish",no,2025-08-12_14h01.53.085,empathy_intonation_perc_control,2024.2.4,Win32,59.88023952,5c376ea0eecc440001c58889,68817205a84113384fffdfe3,689b8158cbb0963fb96aee93,,,,,,,,,,,,,,,,,,,,,,,,,,,3,,,,,,,,,,,,,,,,,,,,,,,,,,,,,,,,,,,,,,,,,,,,831.3722,834.6365,strongly disagree,0,2,2,2,1,I try to keep up with the current trends and fashions.,0,1,0,0,,
,,,,,,,,,5c376ea0eecc440001c58889,Spanish,13 or older,"no, only English or Spanish",no,2025-08-12_14h01.53.085,empathy_intonation_perc_control,2024.2.4,Win32,59.88023952,5c376ea0eecc440001c58889,68817205a84113384fffdfe3,689b8158cbb0963fb96aee93,,,,,,,,,,,,,,,,,,,,,,,,,,,4,,,,,,,,,,,,,,,,,,,,,,,,,,,,,,,,,,,,,,,,,,,,834.6392,841.4351,strongly disagree,0,3,3,3,1,"I find it difficult to explain to others things that I understand easily,   when they don't understand it first time.",1,0,0,1,,
,,,,,,,,,5c376ea0eecc440001c58889,Spanish,13 or older,"no, only English or Spanish",no,2025-08-12_14h01.53.085,empathy_intonation_perc_control,2024.2.4,Win32,59.88023952,5c376ea0eecc440001c58889,68817205a84113384fffdfe3,689b8158cbb0963fb96aee93,,,,,,,,,,,,,,,,,,,,,,,,,,,5,,,,,,,,,,,,,,,,,,,,,,,,,,,,,,,,,,,,,,,,,,,,841.4364,844.0188,slightly agree,0,4,4,4,1,I dream most nights.,0,1,0,0,,
,,,,,,,,,5c376ea0eecc440001c58889,Spanish,13 or older,"no, only English or Spanish",no,2025-08-12_14h01.53.085,empathy_intonation_perc_control,2024.2.4,Win32,59.88023952,5c376ea0eecc440001c58889,68817205a84113384fffdfe3,689b8158cbb0963fb96aee93,,,,,,,,,,,,,,,,,,,,,,,,,,,6,,,,,,,,,,,,,,,,,,,,,,,,,,,,,,,,,,,,,,,,,,,,844.0211,847.119,strongly agree,0,5,5,5,1,I really enjoy caring for other people.,1,0,1,0,,
,,,,,,,,,5c376ea0eecc440001c58889,Spanish,13 or older,"no, only English or Spanish",no,2025-08-12_14h01.53.085,empathy_intonation_perc_control,2024.2.4,Win32,59.88023952,5c376ea0eecc440001c58889,68817205a84113384fffdfe3,689b8158cbb0963fb96aee93,,,,,,,,,,,,,,,,,,,,,,,,,,,7,,,,,,,,,,,,,,,,,,,,,,,,,,,,,,,,,,,,,,,,,,,,847.1211,849.3186,strongly agree,0,6,6,6,1,I try to solve my own problems rather than discussing them with others.,0,1,0,0,,
,,,,,,,,,5c376ea0eecc440001c58889,Spanish,13 or older,"no, only English or Spanish",no,2025-08-12_14h01.53.085,empathy_intonation_perc_control,2024.2.4,Win32,59.88023952,5c376ea0eecc440001c58889,68817205a84113384fffdfe3,689b8158cbb0963fb96aee93,,,,,,,,,,,,,,,,,,,,,,,,,,,8,,,,,,,,,,,,,,,,,,,,,,,,,,,,,,,,,,,,,,,,,,,,849.3206,852.0852,strongly disagree,0,7,7,7,1,I find it hard to know what to do in a social situation.,1,0,0,1,,
,,,,,,,,,5c376ea0eecc440001c58889,Spanish,13 or older,"no, only English or Spanish",no,2025-08-12_14h01.53.085,empathy_intonation_perc_control,2024.2.4,Win32,59.88023952,5c376ea0eecc440001c58889,68817205a84113384fffdfe3,689b8158cbb0963fb96aee93,,,,,,,,,,,,,,,,,,,,,,,,,,,9,,,,,,,,,,,,,,,,,,,,,,,,,,,,,,,,,,,,,,,,,,,,852.0867,858.1518,strongly disagree,0,8,8,8,1,I am at my best first thing in the morning.,0,1,0,0,,
,,,,,,,,,5c376ea0eecc440001c58889,Spanish,13 or older,"no, only English or Spanish",no,2025-08-12_14h01.53.085,empathy_intonation_perc_control,2024.2.4,Win32,59.88023952,5c376ea0eecc440001c58889,68817205a84113384fffdfe3,689b8158cbb0963fb96aee93,,,,,,,,,,,,,,,,,,,,,,,,,,,10,,,,,,,,,,,,,,,,,,,,,,,,,,,,,,,,,,,,,,,,,,,,858.1539,869.584,strongly disagree,0,9,9,9,1,People often tell me that I went too far in driving my point home in a discussion.,1,0,0,1,,
,,,,,,,,,5c376ea0eecc440001c58889,Spanish,13 or older,"no, only English or Spanish",no,2025-08-12_14h01.53.085,empathy_intonation_perc_control,2024.2.4,Win32,59.88023952,5c376ea0eecc440001c58889,68817205a84113384fffdfe3,689b8158cbb0963fb96aee93,,,,,,,,,,,,,,,,,,,,,,,,,,,11,,,,,,,,,,,,,,,,,,,,,,,,,,,,,,,,,,,,,,,,,,,,869.5857,876.1669,slightly agree,0,10,10,10,1,It doesn't bother me too much if I am late meeting a friend.,1,0,0,1,,
,,,,,,,,,5c376ea0eecc440001c58889,Spanish,13 or older,"no, only English or Spanish",no,2025-08-12_14h01.53.085,empathy_intonation_perc_control,2024.2.4,Win32,59.88023952,5c376ea0eecc440001c58889,68817205a84113384fffdfe3,689b8158cbb0963fb96aee93,,,,,,,,,,,,,,,,,,,,,,,,,,,12,,,,,,,,,,,,,,,,,,,,,,,,,,,,,,,,,,,,,,,,,,,,876.169,879.5834,strongly disagree,0,11,11,11,1,"Friendships and relationships are just too difficult, so I tend not to 
  bother with them.",1,0,0,1,,
,,,,,,,,,5c376ea0eecc440001c58889,Spanish,13 or older,"no, only English or Spanish",no,2025-08-12_14h01.53.085,empathy_intonation_perc_control,2024.2.4,Win32,59.88023952,5c376ea0eecc440001c58889,68817205a84113384fffdfe3,689b8158cbb0963fb96aee93,,,,,,,,,,,,,,,,,,,,,,,,,,,13,,,,,,,,,,,,,,,,,,,,,,,,,,,,,,,,,,,,,,,,,,,,879.5849,882.2991,strongly agree,0,12,12,12,1,"I would never break a law, no matter how minor.",0,1,0,0,,
,,,,,,,,,5c376ea0eecc440001c58889,Spanish,13 or older,"no, only English or Spanish",no,2025-08-12_14h01.53.085,empathy_intonation_perc_control,2024.2.4,Win32,59.88023952,5c376ea0eecc440001c58889,68817205a84113384fffdfe3,689b8158cbb0963fb96aee93,,,,,,,,,,,,,,,,,,,,,,,,,,,14,,,,,,,,,,,,,,,,,,,,,,,,,,,,,,,,,,,,,,,,,,,,882.3006,887.7498,slightly disagree,0,13,13,13,1,I often find it difficult to judge if something is rude or polite.,1,0,0,1,,
,,,,,,,,,5c376ea0eecc440001c58889,Spanish,13 or older,"no, only English or Spanish",no,2025-08-12_14h01.53.085,empathy_intonation_perc_control,2024.2.4,Win32,59.88023952,5c376ea0eecc440001c58889,68817205a84113384fffdfe3,689b8158cbb0963fb96aee93,,,,,,,,,,,,,,,,,,,,,,,,,,,15,,,,,,,,,,,,,,,,,,,,,,,,,,,,,,,,,,,,,,,,,,,,887.7516,893.7825,strongly disagree,0,14,14,14,1,"In a conversation, I tend to focus on my own thoughts rather than on what 
  my listener might be thinking.",1,0,0,1,,
,,,,,,,,,5c376ea0eecc440001c58889,Spanish,13 or older,"no, only English or Spanish",no,2025-08-12_14h01.53.085,empathy_intonation_perc_control,2024.2.4,Win32,59.88023952,5c376ea0eecc440001c58889,68817205a84113384fffdfe3,689b8158cbb0963fb96aee93,,,,,,,,,,,,,,,,,,,,,,,,,,,16,,,,,,,,,,,,,,,,,,,,,,,,,,,,,,,,,,,,,,,,,,,,893.7839,896.1492,strongly disagree,0,15,15,15,1,I prefer practical jokes to verbal humor.,0,1,0,0,,
,,,,,,,,,5c376ea0eecc440001c58889,Spanish,13 or older,"no, only English or Spanish",no,2025-08-12_14h01.53.085,empathy_intonation_perc_control,2024.2.4,Win32,59.88023952,5c376ea0eecc440001c58889,68817205a84113384fffdfe3,689b8158cbb0963fb96aee93,,,,,,,,,,,,,,,,,,,,,,,,,,,17,,,,,,,,,,,,,,,,,,,,,,,,,,,,,,,,,,,,,,,,,,,,896.1513,901.5441,strongly disagree,0,16,16,16,1,I live life for today rather than the future.,0,1,0,0,,
,,,,,,,,,5c376ea0eecc440001c58889,Spanish,13 or older,"no, only English or Spanish",no,2025-08-12_14h01.53.085,empathy_intonation_perc_control,2024.2.4,Win32,59.88023952,5c376ea0eecc440001c58889,68817205a84113384fffdfe3,689b8158cbb0963fb96aee93,,,,,,,,,,,,,,,,,,,,,,,,,,,18,,,,,,,,,,,,,,,,,,,,,,,,,,,,,,,,,,,,,,,,,,,,901.5467,908.2649,strongly disagree,0,17,17,17,1,"When I was a child, I enjoyed cutting up worms to see what would happen.",1,0,0,1,,
,,,,,,,,,5c376ea0eecc440001c58889,Spanish,13 or older,"no, only English or Spanish",no,2025-08-12_14h01.53.085,empathy_intonation_perc_control,2024.2.4,Win32,59.88023952,5c376ea0eecc440001c58889,68817205a84113384fffdfe3,689b8158cbb0963fb96aee93,,,,,,,,,,,,,,,,,,,,,,,,,,,19,,,,,,,,,,,,,,,,,,,,,,,,,,,,,,,,,,,,,,,,,,,,908.2665,914.2647,slightly agree,0,18,18,18,1,I can pick up quickly if someone says one thing but means another.,1,0,1,0,,
,,,,,,,,,5c376ea0eecc440001c58889,Spanish,13 or older,"no, only English or Spanish",no,2025-08-12_14h01.53.085,empathy_intonation_perc_control,2024.2.4,Win32,59.88023952,5c376ea0eecc440001c58889,68817205a84113384fffdfe3,689b8158cbb0963fb96aee93,,,,,,,,,,,,,,,,,,,,,,,,,,,20,,,,,,,,,,,,,,,,,,,,,,,,,,,,,,,,,,,,,,,,,,,,914.2661,918.2143,strongly agree,0,19,19,19,1,I tend to have very strong opinions about morality.,0,1,0,0,,
,,,,,,,,,5c376ea0eecc440001c58889,Spanish,13 or older,"no, only English or Spanish",no,2025-08-12_14h01.53.085,empathy_intonation_perc_control,2024.2.4,Win32,59.88023952,5c376ea0eecc440001c58889,68817205a84113384fffdfe3,689b8158cbb0963fb96aee93,,,,,,,,,,,,,,,,,,,,,,,,,,,21,,,,,,,,,,,,,,,,,,,,,,,,,,,,,,,,,,,,,,,,,,,,918.2158,921.4467,strongly disagree,0,20,20,20,1,It is hard for me to see why some things upset people so much.,1,0,0,1,,
,,,,,,,,,5c376ea0eecc440001c58889,Spanish,13 or older,"no, only English or Spanish",no,2025-08-12_14h01.53.085,empathy_intonation_perc_control,2024.2.4,Win32,59.88023952,5c376ea0eecc440001c58889,68817205a84113384fffdfe3,689b8158cbb0963fb96aee93,,,,,,,,,,,,,,,,,,,,,,,,,,,22,,,,,,,,,,,,,,,,,,,,,,,,,,,,,,,,,,,,,,,,,,,,921.4482,924.5304,slightly disagree,0,21,21,21,1,I find it easy to put myself in somebody else's shoes.,1,0,1,0,,
,,,,,,,,,5c376ea0eecc440001c58889,Spanish,13 or older,"no, only English or Spanish",no,2025-08-12_14h01.53.085,empathy_intonation_perc_control,2024.2.4,Win32,59.88023952,5c376ea0eecc440001c58889,68817205a84113384fffdfe3,689b8158cbb0963fb96aee93,,,,,,,,,,,,,,,,,,,,,,,,,,,23,,,,,,,,,,,,,,,,,,,,,,,,,,,,,,,,,,,,,,,,,,,,924.5321,932.3633,slightly agree,0,22,22,22,1,I think that good manners are the most important thing a parent can teach their child.,0,1,0,0,,
,,,,,,,,,5c376ea0eecc440001c58889,Spanish,13 or older,"no, only English or Spanish",no,2025-08-12_14h01.53.085,empathy_intonation_perc_control,2024.2.4,Win32,59.88023952,5c376ea0eecc440001c58889,68817205a84113384fffdfe3,689b8158cbb0963fb96aee93,,,,,,,,,,,,,,,,,,,,,,,,,,,24,,,,,,,,,,,,,,,,,,,,,,,,,,,,,,,,,,,,,,,,,,,,932.3647,934.5631,strongly disagree,0,23,23,23,1,I like to do things on the spur of the moment.,0,1,0,0,,
,,,,,,,,,5c376ea0eecc440001c58889,Spanish,13 or older,"no, only English or Spanish",no,2025-08-12_14h01.53.085,empathy_intonation_perc_control,2024.2.4,Win32,59.88023952,5c376ea0eecc440001c58889,68817205a84113384fffdfe3,689b8158cbb0963fb96aee93,,,,,,,,,,,,,,,,,,,,,,,,,,,25,,,,,,,,,,,,,,,,,,,,,,,,,,,,,,,,,,,,,,,,,,,,934.5645,937.4135,slightly agree,0,24,24,24,1,I am good at predicting how someone will feel.,1,0,1,0,,
