instructions_2afc.started,instructions_2afc.stopped,instructions_2afc_loop.thisRepN,instructions_2afc_loop.thisTrialN,instructions_2afc_loop.thisN,instructions_2afc_loop.thisIndex,instructions_2afc_loop.ran,instructions_text,continue_text,participant_id,"What variety of Spanish are you most familiar with? (e.g., Peruvian, Spanish, Mexican)",At what age did you begin learning Spanish?,Are you proficient in any languages other than English/Spanish?,"Are you familiar with Caribbean (e.g., Caribbean, Puerto Rican) or Galician Spanish?",date,expName,psychopyVersion,OS,frameRate,id,study_id,session,practice_2afc.started,practice_2afc.stopped,key_resp_2afc_practice.keys,key_resp_2afc_practice.corr,key_resp_2afc_practice.rt,key_resp_2afc_practice.duration,trials_2afc_practice_loop.thisRepN,trials_2afc_practice_loop.thisTrialN,trials_2afc_practice_loop.thisN,trials_2afc_practice_loop.thisIndex,trials_2afc_practice_loop.ran,path,correct_response,check_2afc.started,check_2afc.stopped,trial_2afc.started,trial_2afc.stopped,key_resp_2afc_trial.keys,key_resp_2afc_trial.corr,key_resp_2afc_trial.rt,key_resp_2afc_trial.duration,trials_2afc_loop.thisRepN,trials_2afc_loop.thisTrialN,trials_2afc_loop.thisN,trials_2afc_loop.thisIndex,trials_2afc_loop.ran,item_num,target,variety,instructions_lextale.started,instructions_lextale.stopped,instructions_lextale_loop.thisRepN,instructions_lextale_loop.thisTrialN,instructions_lextale_loop.thisN,instructions_lextale_loop.thisIndex,instructions_lextale_loop.ran,practice_lextale.started,practice_lextale.stopped,key_resp_lextale_practice.keys,key_resp_lextale_practice.corr,key_resp_lextale_practice.rt,key_resp_lextale_practice.duration,practice_feedback_lextale.started,practice_feedback_lextale.stopped,trials_lextale_practice_loop.thisRepN,trials_lextale_practice_loop.thisTrialN,trials_lextale_practice_loop.thisN,trials_lextale_practice_loop.thisIndex,trials_lextale_practice_loop.ran,stim,word,prac_button_real,prac_button_false,check_lextale.started,check_lextale.stopped,trial_lextale.started,trial_lextale.stopped,key_resp_lextale_trial.keys,key_resp_lextale_trial.corr,key_resp_lextale_trial.rt,key_resp_lextale_trial.duration,trials_lextale_loop.thisRepN,trials_lextale_loop.thisTrialN,trials_lextale_loop.thisN,trials_lextale_loop.thisIndex,trials_lextale_loop.ran,button_real,button_false,instructions_eq.started,instructions_eq.stopped,trial_eq.started,trial_eq.stopped,slider_eq_trial.response,trials_eq_loop.thisRepN,trials_eq_loop.thisTrialN,trials_eq_loop.thisN,trials_eq_loop.thisIndex,trials_eq_loop.ran,item,is_test_item,is_distractor,is_agree_score,is_disagree_score,end_exp.started,end_exp.stopped
0.0161,3.732,0,0,0,0,1,"In the following task you are going to hear a series of utterances. 

  You will decide if the utterances sound like questions or not using your keyboard.", (press the spacebar to continue),5c72f069cf5c4b000197cc30,Whatever is on Duolingo,younger than 13,"no, only English or Spanish",click here to respond,2025-08-10_15h57.21.113,empathy_intonation_perc_control,2024.2.4,Win32,60.24096386,5c72f069cf5c4b000197cc30,68817205a84113384fffdfe3,6898f9983e37eaba1d6c0492,,,,,,,,,,,,,,,,,,,,,,,,,,,,,,,,,,,,,,,,,,,,,,,,,,,,,,,,,,,,,,,,,,,,,,,,,,,,,,,,,,,,,
3.7356,7.0309,0,1,1,1,1,"If you believe the utterance is a question, type '1' (for 'yes') and if you do not 
  believe it is a question type '0' (for 'no').

  Let's practice a bit...", (press the spacebar to continue),5c72f069cf5c4b000197cc30,Whatever is on Duolingo,younger than 13,"no, only English or Spanish",click here to respond,2025-08-10_15h57.21.113,empathy_intonation_perc_control,2024.2.4,Win32,60.24096386,5c72f069cf5c4b000197cc30,68817205a84113384fffdfe3,6898f9983e37eaba1d6c0492,,,,,,,,,,,,,,,,,,,,,,,,,,,,,,,,,,,,,,,,,,,,,,,,,,,,,,,,,,,,,,,,,,,,,,,,,,,,,,,,,,,,,
,,,,,,,,,5c72f069cf5c4b000197cc30,Whatever is on Duolingo,younger than 13,"no, only English or Spanish",click here to respond,2025-08-10_15h57.21.113,empathy_intonation_perc_control,2024.2.4,Win32,60.24096386,5c72f069cf5c4b000197cc30,68817205a84113384fffdfe3,6898f9983e37eaba1d6c0492,7.0415,9.7661,0,1,2.1901,,0,0,0,7,1,./stim/wavs/puertorican_statement_filler_La-nina-pinta-con-su-amiga.wav,0,,,,,,,,,,,,,,,,,,,,,,,,,,,,,,,,,,,,,,,,,,,,,,,,,,,,,,,,,,,,,,,,,,,,,,,,
,,,,,,,,,5c72f069cf5c4b000197cc30,Whatever is on Duolingo,younger than 13,"no, only English or Spanish",click here to respond,2025-08-10_15h57.21.113,empathy_intonation_perc_control,2024.2.4,Win32,60.24096386,5c72f069cf5c4b000197cc30,68817205a84113384fffdfe3,6898f9983e37eaba1d6c0492,9.7685,12.8814,0,1,2.5863,,0,1,1,5,1,./stim/wavs/andalusian_statement_filler_Alberto-nunca-se-afeita.wav,0,,,,,,,,,,,,,,,,,,,,,,,,,,,,,,,,,,,,,,,,,,,,,,,,,,,,,,,,,,,,,,,,,,,,,,,,
,,,,,,,,,5c72f069cf5c4b000197cc30,Whatever is on Duolingo,younger than 13,"no, only English or Spanish",click here to respond,2025-08-10_15h57.21.113,empathy_intonation_perc_control,2024.2.4,Win32,60.24096386,5c72f069cf5c4b000197cc30,68817205a84113384fffdfe3,6898f9983e37eaba1d6c0492,12.8825,15.2489,0,0,1.8438,,0,2,2,0,1,./stim/wavs/castilian_question_filler_Mi-esposo-conoce-al-chico.wav,1,,,,,,,,,,,,,,,,,,,,,,,,,,,,,,,,,,,,,,,,,,,,,,,,,,,,,,,,,,,,,,,,,,,,,,,,
,,,,,,,,,5c72f069cf5c4b000197cc30,Whatever is on Duolingo,younger than 13,"no, only English or Spanish",click here to respond,2025-08-10_15h57.21.113,empathy_intonation_perc_control,2024.2.4,Win32,60.24096386,5c72f069cf5c4b000197cc30,68817205a84113384fffdfe3,6898f9983e37eaba1d6c0492,15.2494,17.5325,1,1,1.7618,,0,3,3,2,1,./stim/wavs/chilean_question_filler_Mi-padre-cantaba-bien.wav,1,,,,,,,,,,,,,,,,,,,,,,,,,,,,,,,,,,,,,,,,,,,,,,,,,,,,,,,,,,,,,,,,,,,,,,,,
,,,,,,,,,5c72f069cf5c4b000197cc30,Whatever is on Duolingo,younger than 13,"no, only English or Spanish",click here to respond,2025-08-10_15h57.21.113,empathy_intonation_perc_control,2024.2.4,Win32,60.24096386,5c72f069cf5c4b000197cc30,68817205a84113384fffdfe3,6898f9983e37eaba1d6c0492,17.5332,19.7141,0,1,1.6513,,0,4,4,4,1,./stim/wavs/cuban_statement_filler_Cocinabas-por-la-noche.wav,0,,,,,,,,,,,,,,,,,,,,,,,,,,,,,,,,,,,,,,,,,,,,,,,,,,,,,,,,,,,,,,,,,,,,,,,,
,,,,,,,,,5c72f069cf5c4b000197cc30,Whatever is on Duolingo,younger than 13,"no, only English or Spanish",click here to respond,2025-08-10_15h57.21.113,empathy_intonation_perc_control,2024.2.4,Win32,60.24096386,5c72f069cf5c4b000197cc30,68817205a84113384fffdfe3,6898f9983e37eaba1d6c0492,19.7156,21.998,0,0,1.7514,,0,5,5,3,1,./stim/wavs/mexican_question_filler_Felipe-no-tiene-contrasena.wav,1,,,,,,,,,,,,,,,,,,,,,,,,,,,,,,,,,,,,,,,,,,,,,,,,,,,,,,,,,,,,,,,,,,,,,,,,
,,,,,,,,,5c72f069cf5c4b000197cc30,Whatever is on Duolingo,younger than 13,"no, only English or Spanish",click here to respond,2025-08-10_15h57.21.113,empathy_intonation_perc_control,2024.2.4,Win32,60.24096386,5c72f069cf5c4b000197cc30,68817205a84113384fffdfe3,6898f9983e37eaba1d6c0492,21.9994,24.6646,1,1,2.1385,,0,6,6,1,1,./stim/wavs/argentine_question_filler_Mi-vecino-habla-mucho.wav,1,,,,,,,,,,,,,,,,,,,,,,,,,,,,,,,,,,,,,,,,,,,,,,,,,,,,,,,,,,,,,,,,,,,,,,,,
,,,,,,,,,5c72f069cf5c4b000197cc30,Whatever is on Duolingo,younger than 13,"no, only English or Spanish",click here to respond,2025-08-10_15h57.21.113,empathy_intonation_perc_control,2024.2.4,Win32,60.24096386,5c72f069cf5c4b000197cc30,68817205a84113384fffdfe3,6898f9983e37eaba1d6c0492,24.6657,27.3308,0,1,2.1444,,0,7,7,6,1,./stim/wavs/peruvian_statement_filler_El-nino-habla-con-su-madre.wav,0,,,,,,,,,,,,,,,,,,,,,,,,,,,,,,,,,,,,,,,,,,,,,,,,,,,,,,,,,,,,,,,,,,,,,,,,
,,,,,,,,,5c72f069cf5c4b000197cc30,Whatever is on Duolingo,younger than 13,"no, only English or Spanish",click here to respond,2025-08-10_15h57.21.113,empathy_intonation_perc_control,2024.2.4,Win32,60.24096386,5c72f069cf5c4b000197cc30,68817205a84113384fffdfe3,6898f9983e37eaba1d6c0492,,,,,,,,,,,,,,27.3319,29.3984,,,,,,,,,,,,,,,,,,,,,,,,,,,,,,,,,,,,,,,,,,,,,,,,,,,,,,,,,,,,,,,,,,,,,,
,,,,,,,,,5c72f069cf5c4b000197cc30,Whatever is on Duolingo,younger than 13,"no, only English or Spanish",click here to respond,2025-08-10_15h57.21.113,empathy_intonation_perc_control,2024.2.4,Win32,60.24096386,5c72f069cf5c4b000197cc30,68817205a84113384fffdfe3,6898f9983e37eaba1d6c0492,,,,,,,,,,,,./stim/wavs/mexican_match_declarative-broad-focus_Emilio-ama-la-marcha.wav,0,,,29.4103,31.8496,0,1,1.9284,,0,0,0,59,1,60,0,mexican,,,,,,,,,,,,,,,,,,,,,,,,,,,,,,,,,,,,,,,,,,,,,,,,,,,,,,,,
,,,,,,,,,5c72f069cf5c4b000197cc30,Whatever is on Duolingo,younger than 13,"no, only English or Spanish",click here to respond,2025-08-10_15h57.21.113,empathy_intonation_perc_control,2024.2.4,Win32,60.24096386,5c72f069cf5c4b000197cc30,68817205a84113384fffdfe3,6898f9983e37eaba1d6c0492,,,,,,,,,,,,./stim/wavs/mexican_mismatch_declarative-broad-focus_La-maestra-vive-en-Paris.wav,0,,,31.8501,33.9978,0,1,1.6232,,0,1,1,80,1,81,0,mexican,,,,,,,,,,,,,,,,,,,,,,,,,,,,,,,,,,,,,,,,,,,,,,,,,,,,,,,,
,,,,,,,,,5c72f069cf5c4b000197cc30,Whatever is on Duolingo,younger than 13,"no, only English or Spanish",click here to respond,2025-08-10_15h57.21.113,empathy_intonation_perc_control,2024.2.4,Win32,60.24096386,5c72f069cf5c4b000197cc30,68817205a84113384fffdfe3,6898f9983e37eaba1d6c0492,,,,,,,,,,,,./stim/wavs/castilian_mismatch_interrogative-total-yn_La-maestra-vive-en-Paris.wav,1,,,33.9992,36.7983,1,1,2.2705,,0,2,2,24,1,25,0,castilian,,,,,,,,,,,,,,,,,,,,,,,,,,,,,,,,,,,,,,,,,,,,,,,,,,,,,,,,
,,,,,,,,,5c72f069cf5c4b000197cc30,Whatever is on Duolingo,younger than 13,"no, only English or Spanish",click here to respond,2025-08-10_15h57.21.113,empathy_intonation_perc_control,2024.2.4,Win32,60.24096386,5c72f069cf5c4b000197cc30,68817205a84113384fffdfe3,6898f9983e37eaba1d6c0492,,,,,,,,,,,,./stim/wavs/cuban_match_declarative-broad-focus_Manuela-vende-el-carro.wav,0,,,36.7998,39.215,0,1,1.8854,,0,3,3,52,1,53,0,cuban,,,,,,,,,,,,,,,,,,,,,,,,,,,,,,,,,,,,,,,,,,,,,,,,,,,,,,,,
,,,,,,,,,5c72f069cf5c4b000197cc30,Whatever is on Duolingo,younger than 13,"no, only English or Spanish",click here to respond,2025-08-10_15h57.21.113,empathy_intonation_perc_control,2024.2.4,Win32,60.24096386,5c72f069cf5c4b000197cc30,68817205a84113384fffdfe3,6898f9983e37eaba1d6c0492,,,,,,,,,,,,./stim/wavs/mexican_match_interrogative-total-yn_Mariano-habla-del-tiempo.wav,1,,,39.2162,41.765,1,1,2.0218,,0,4,4,16,1,17,0,mexican,,,,,,,,,,,,,,,,,,,,,,,,,,,,,,,,,,,,,,,,,,,,,,,,,,,,,,,,
,,,,,,,,,5c72f069cf5c4b000197cc30,Whatever is on Duolingo,younger than 13,"no, only English or Spanish",click here to respond,2025-08-10_15h57.21.113,empathy_intonation_perc_control,2024.2.4,Win32,60.24096386,5c72f069cf5c4b000197cc30,68817205a84113384fffdfe3,6898f9983e37eaba1d6c0492,,,,,,,,,,,,./stim/wavs/mexican_mismatch_interrogative-total-yn_La-maestra-vive-en-Paris.wav,1,,,41.7662,44.8313,1,1,2.538,,0,5,5,36,1,37,0,mexican,,,,,,,,,,,,,,,,,,,,,,,,,,,,,,,,,,,,,,,,,,,,,,,,,,,,,,,,
,,,,,,,,,5c72f069cf5c4b000197cc30,Whatever is on Duolingo,younger than 13,"no, only English or Spanish",click here to respond,2025-08-10_15h57.21.113,empathy_intonation_perc_control,2024.2.4,Win32,60.24096386,5c72f069cf5c4b000197cc30,68817205a84113384fffdfe3,6898f9983e37eaba1d6c0492,,,,,,,,,,,,./stim/wavs/mexican_match_interrogative-total-yn_Marta-abre-el-regalo.wav,1,,,44.8325,47.7147,1,1,2.3504,,0,6,6,17,1,18,0,mexican,,,,,,,,,,,,,,,,,,,,,,,,,,,,,,,,,,,,,,,,,,,,,,,,,,,,,,,,
,,,,,,,,,5c72f069cf5c4b000197cc30,Whatever is on Duolingo,younger than 13,"no, only English or Spanish",click here to respond,2025-08-10_15h57.21.113,empathy_intonation_perc_control,2024.2.4,Win32,60.24096386,5c72f069cf5c4b000197cc30,68817205a84113384fffdfe3,6898f9983e37eaba1d6c0492,,,,,,,,,,,,./stim/wavs/mexican_mismatch_interrogative-total-yn_El-hombre-mira-la-luna.wav,1,,,47.7156,49.8315,1,1,1.5934,,0,7,7,34,1,35,0,mexican,,,,,,,,,,,,,,,,,,,,,,,,,,,,,,,,,,,,,,,,,,,,,,,,,,,,,,,,
,,,,,,,,,5c72f069cf5c4b000197cc30,Whatever is on Duolingo,younger than 13,"no, only English or Spanish",click here to respond,2025-08-10_15h57.21.113,empathy_intonation_perc_control,2024.2.4,Win32,60.24096386,5c72f069cf5c4b000197cc30,68817205a84113384fffdfe3,6898f9983e37eaba1d6c0492,,,,,,,,,,,,./stim/wavs/puertorican_match_declarative-broad-focus_Manuela-vende-el-carro.wav,0,,,49.8335,51.8979,0,1,1.5424,,0,8,8,66,1,67,0,puertorican,,,,,,,,,,,,,,,,,,,,,,,,,,,,,,,,,,,,,,,,,,,,,,,,,,,,,,,,
,,,,,,,,,5c72f069cf5c4b000197cc30,Whatever is on Duolingo,younger than 13,"no, only English or Spanish",click here to respond,2025-08-10_15h57.21.113,empathy_intonation_perc_control,2024.2.4,Win32,60.24096386,5c72f069cf5c4b000197cc30,68817205a84113384fffdfe3,6898f9983e37eaba1d6c0492,,,,,,,,,,,,./stim/wavs/cuban_match_interrogative-total-yn_Maria-bebe-el-vino.wav,1,,,51.8987,54.4314,0,0,2.0085,,0,9,9,9,1,10,1,cuban,,,,,,,,,,,,,,,,,,,,,,,,,,,,,,,,,,,,,,,,,,,,,,,,,,,,,,,,
,,,,,,,,,5c72f069cf5c4b000197cc30,Whatever is on Duolingo,younger than 13,"no, only English or Spanish",click here to respond,2025-08-10_15h57.21.113,empathy_intonation_perc_control,2024.2.4,Win32,60.24096386,5c72f069cf5c4b000197cc30,68817205a84113384fffdfe3,6898f9983e37eaba1d6c0492,,,,,,,,,,,,./stim/wavs/mexican_mismatch_declarative-broad-focus_El-hombre-mira-la-luna.wav,0,,,54.4328,56.7818,0,1,1.8224,,0,10,10,79,1,80,0,mexican,,,,,,,,,,,,,,,,,,,,,,,,,,,,,,,,,,,,,,,,,,,,,,,,,,,,,,,,
,,,,,,,,,5c72f069cf5c4b000197cc30,Whatever is on Duolingo,younger than 13,"no, only English or Spanish",click here to respond,2025-08-10_15h57.21.113,empathy_intonation_perc_control,2024.2.4,Win32,60.24096386,5c72f069cf5c4b000197cc30,68817205a84113384fffdfe3,6898f9983e37eaba1d6c0492,,,,,,,,,,,,./stim/wavs/castilian_match_declarative-broad-focus_Manuela-vende-el-carro.wav,0,,,56.7832,59.2658,0,1,1.9512,,0,11,11,46,1,47,0,castilian,,,,,,,,,,,,,,,,,,,,,,,,,,,,,,,,,,,,,,,,,,,,,,,,,,,,,,,,
,,,,,,,,,5c72f069cf5c4b000197cc30,Whatever is on Duolingo,younger than 13,"no, only English or Spanish",click here to respond,2025-08-10_15h57.21.113,empathy_intonation_perc_control,2024.2.4,Win32,60.24096386,5c72f069cf5c4b000197cc30,68817205a84113384fffdfe3,6898f9983e37eaba1d6c0492,,,,,,,,,,,,./stim/wavs/puertorican_mismatch_declarative-broad-focus_El-bebe-comia-muy-bien.wav,0,,,59.2668,61.7319,0,1,1.94,,0,12,12,83,1,84,0,puertorican,,,,,,,,,,,,,,,,,,,,,,,,,,,,,,,,,,,,,,,,,,,,,,,,,,,,,,,,
,,,,,,,,,5c72f069cf5c4b000197cc30,Whatever is on Duolingo,younger than 13,"no, only English or Spanish",click here to respond,2025-08-10_15h57.21.113,empathy_intonation_perc_control,2024.2.4,Win32,60.24096386,5c72f069cf5c4b000197cc30,68817205a84113384fffdfe3,6898f9983e37eaba1d6c0492,,,,,,,,,,,,./stim/wavs/castilian_match_interrogative-total-yn_David-leia-el-libro.wav,1,,,61.7336,64.8324,1,1,2.5767,,0,13,13,0,1,1,0,castilian,,,,,,,,,,,,,,,,,,,,,,,,,,,,,,,,,,,,,,,,,,,,,,,,,,,,,,,,
,,,,,,,,,5c72f069cf5c4b000197cc30,Whatever is on Duolingo,younger than 13,"no, only English or Spanish",click here to respond,2025-08-10_15h57.21.113,empathy_intonation_perc_control,2024.2.4,Win32,60.24096386,5c72f069cf5c4b000197cc30,68817205a84113384fffdfe3,6898f9983e37eaba1d6c0492,,,,,,,,,,,,./stim/wavs/puertorican_match_declarative-broad-focus_Ana-lleva-el-abrigo.wav,0,,,64.8339,66.7649,0,1,1.4095,,0,14,14,62,1,63,0,puertorican,,,,,,,,,,,,,,,,,,,,,,,,,,,,,,,,,,,,,,,,,,,,,,,,,,,,,,,,
,,,,,,,,,5c72f069cf5c4b000197cc30,Whatever is on Duolingo,younger than 13,"no, only English or Spanish",click here to respond,2025-08-10_15h57.21.113,empathy_intonation_perc_control,2024.2.4,Win32,60.24096386,5c72f069cf5c4b000197cc30,68817205a84113384fffdfe3,6898f9983e37eaba1d6c0492,,,,,,,,,,,,./stim/wavs/cuban_mismatch_interrogative-total-yn_El-hombre-mira-la-luna.wav,1,,,66.7668,68.8654,0,0,1.553,,0,15,15,29,1,30,1,cuban,,,,,,,,,,,,,,,,,,,,,,,,,,,,,,,,,,,,,,,,,,,,,,,,,,,,,,,,
,,,,,,,,,5c72f069cf5c4b000197cc30,Whatever is on Duolingo,younger than 13,"no, only English or Spanish",click here to respond,2025-08-10_15h57.21.113,empathy_intonation_perc_control,2024.2.4,Win32,60.24096386,5c72f069cf5c4b000197cc30,68817205a84113384fffdfe3,6898f9983e37eaba1d6c0492,,,,,,,,,,,,./stim/wavs/mexican_match_interrogative-total-yn_Daniel-iba-a-Bolivia.wav,1,,,68.8666,71.5656,1,1,2.1685,,0,16,16,13,1,14,0,mexican,,,,,,,,,,,,,,,,,,,,,,,,,,,,,,,,,,,,,,,,,,,,,,,,,,,,,,,,
,,,,,,,,,5c72f069cf5c4b000197cc30,Whatever is on Duolingo,younger than 13,"no, only English or Spanish",click here to respond,2025-08-10_15h57.21.113,empathy_intonation_perc_control,2024.2.4,Win32,60.24096386,5c72f069cf5c4b000197cc30,68817205a84113384fffdfe3,6898f9983e37eaba1d6c0492,,,,,,,,,,,,./stim/wavs/puertorican_match_interrogative-total-yn_Emilio-ama-la-marcha.wav,1,,,71.5675,75.1329,0,0,3.0374,,0,17,17,21,1,22,1,puertorican,,,,,,,,,,,,,,,,,,,,,,,,,,,,,,,,,,,,,,,,,,,,,,,,,,,,,,,,
,,,,,,,,,5c72f069cf5c4b000197cc30,Whatever is on Duolingo,younger than 13,"no, only English or Spanish",click here to respond,2025-08-10_15h57.21.113,empathy_intonation_perc_control,2024.2.4,Win32,60.24096386,5c72f069cf5c4b000197cc30,68817205a84113384fffdfe3,6898f9983e37eaba1d6c0492,,,,,,,,,,,,./stim/wavs/cuban_mismatch_interrogative-total-yn_Mi-novio-viene-del-lago.wav,1,,,75.1347,77.6191,0,0,1.9639,,0,18,18,32,1,33,1,cuban,,,,,,,,,,,,,,,,,,,,,,,,,,,,,,,,,,,,,,,,,,,,,,,,,,,,,,,,
,,,,,,,,,5c72f069cf5c4b000197cc30,Whatever is on Duolingo,younger than 13,"no, only English or Spanish",click here to respond,2025-08-10_15h57.21.113,empathy_intonation_perc_control,2024.2.4,Win32,60.24096386,5c72f069cf5c4b000197cc30,68817205a84113384fffdfe3,6898f9983e37eaba1d6c0492,,,,,,,,,,,,./stim/wavs/castilian_mismatch_declarative-broad-focus_La-maestra-vive-en-Paris.wav,0,,,77.6201,80.0159,0,1,1.8686,,0,19,19,69,1,70,0,castilian,,,,,,,,,,,,,,,,,,,,,,,,,,,,,,,,,,,,,,,,,,,,,,,,,,,,,,,,
,,,,,,,,,5c72f069cf5c4b000197cc30,Whatever is on Duolingo,younger than 13,"no, only English or Spanish",click here to respond,2025-08-10_15h57.21.113,empathy_intonation_perc_control,2024.2.4,Win32,60.24096386,5c72f069cf5c4b000197cc30,68817205a84113384fffdfe3,6898f9983e37eaba1d6c0492,,,,,,,,,,,,./stim/wavs/mexican_match_interrogative-total-yn_Emilio-ama-la-marcha.wav,1,,,80.0174,83.0497,1,1,2.5056,,0,20,20,15,1,16,0,mexican,,,,,,,,,,,,,,,,,,,,,,,,,,,,,,,,,,,,,,,,,,,,,,,,,,,,,,,,
,,,,,,,,,5c72f069cf5c4b000197cc30,Whatever is on Duolingo,younger than 13,"no, only English or Spanish",click here to respond,2025-08-10_15h57.21.113,empathy_intonation_perc_control,2024.2.4,Win32,60.24096386,5c72f069cf5c4b000197cc30,68817205a84113384fffdfe3,6898f9983e37eaba1d6c0492,,,,,,,,,,,,./stim/wavs/castilian_match_declarative-broad-focus_Marta-abre-el-regalo.wav,0,,,83.0513,85.4328,0,1,1.8558,,0,21,21,49,1,50,0,castilian,,,,,,,,,,,,,,,,,,,,,,,,,,,,,,,,,,,,,,,,,,,,,,,,,,,,,,,,
,,,,,,,,,5c72f069cf5c4b000197cc30,Whatever is on Duolingo,younger than 13,"no, only English or Spanish",click here to respond,2025-08-10_15h57.21.113,empathy_intonation_perc_control,2024.2.4,Win32,60.24096386,5c72f069cf5c4b000197cc30,68817205a84113384fffdfe3,6898f9983e37eaba1d6c0492,,,,,,,,,,,,./stim/wavs/cuban_match_declarative-broad-focus_Ana-lleva-el-abrigo.wav,0,,,85.4342,87.5358,0,1,1.5812,,0,22,22,50,1,51,0,cuban,,,,,,,,,,,,,,,,,,,,,,,,,,,,,,,,,,,,,,,,,,,,,,,,,,,,,,,,
,,,,,,,,,5c72f069cf5c4b000197cc30,Whatever is on Duolingo,younger than 13,"no, only English or Spanish",click here to respond,2025-08-10_15h57.21.113,empathy_intonation_perc_control,2024.2.4,Win32,60.24096386,5c72f069cf5c4b000197cc30,68817205a84113384fffdfe3,6898f9983e37eaba1d6c0492,,,,,,,,,,,,./stim/wavs/puertorican_mismatch_declarative-broad-focus_La-maestra-vive-en-Paris.wav,0,,,87.5363,89.633,0,1,1.5776,,0,23,23,86,1,87,0,puertorican,,,,,,,,,,,,,,,,,,,,,,,,,,,,,,,,,,,,,,,,,,,,,,,,,,,,,,,,
,,,,,,,,,5c72f069cf5c4b000197cc30,Whatever is on Duolingo,younger than 13,"no, only English or Spanish",click here to respond,2025-08-10_15h57.21.113,empathy_intonation_perc_control,2024.2.4,Win32,60.24096386,5c72f069cf5c4b000197cc30,68817205a84113384fffdfe3,6898f9983e37eaba1d6c0492,,,,,,,,,,,,./stim/wavs/castilian_match_declarative-broad-focus_Maria-bebe-el-vino.wav,0,,,89.6344,91.7324,0,1,1.574,,0,24,24,47,1,48,0,castilian,,,,,,,,,,,,,,,,,,,,,,,,,,,,,,,,,,,,,,,,,,,,,,,,,,,,,,,,
,,,,,,,,,5c72f069cf5c4b000197cc30,Whatever is on Duolingo,younger than 13,"no, only English or Spanish",click here to respond,2025-08-10_15h57.21.113,empathy_intonation_perc_control,2024.2.4,Win32,60.24096386,5c72f069cf5c4b000197cc30,68817205a84113384fffdfe3,6898f9983e37eaba1d6c0492,,,,,,,,,,,,./stim/wavs/cuban_match_interrogative-total-yn_Daniel-iba-a-Bolivia.wav,1,,,91.7338,93.8326,0,0,1.5678,,0,25,25,7,1,8,1,cuban,,,,,,,,,,,,,,,,,,,,,,,,,,,,,,,,,,,,,,,,,,,,,,,,,,,,,,,,
,,,,,,,,,5c72f069cf5c4b000197cc30,Whatever is on Duolingo,younger than 13,"no, only English or Spanish",click here to respond,2025-08-10_15h57.21.113,empathy_intonation_perc_control,2024.2.4,Win32,60.24096386,5c72f069cf5c4b000197cc30,68817205a84113384fffdfe3,6898f9983e37eaba1d6c0492,,,,,,,,,,,,./stim/wavs/cuban_mismatch_declarative-broad-focus_El-bebe-comia-muy-bien.wav,0,,,93.8343,95.7163,0,1,1.3556,,0,26,26,73,1,74,0,cuban,,,,,,,,,,,,,,,,,,,,,,,,,,,,,,,,,,,,,,,,,,,,,,,,,,,,,,,,
,,,,,,,,,5c72f069cf5c4b000197cc30,Whatever is on Duolingo,younger than 13,"no, only English or Spanish",click here to respond,2025-08-10_15h57.21.113,empathy_intonation_perc_control,2024.2.4,Win32,60.24096386,5c72f069cf5c4b000197cc30,68817205a84113384fffdfe3,6898f9983e37eaba1d6c0492,,,,,,,,,,,,./stim/wavs/cuban_match_interrogative-total-yn_Manuela-vende-el-carro.wav,1,,,95.7179,98.0994,0,0,1.8568,,0,27,27,8,1,9,1,cuban,,,,,,,,,,,,,,,,,,,,,,,,,,,,,,,,,,,,,,,,,,,,,,,,,,,,,,,,
,,,,,,,,,5c72f069cf5c4b000197cc30,Whatever is on Duolingo,younger than 13,"no, only English or Spanish",click here to respond,2025-08-10_15h57.21.113,empathy_intonation_perc_control,2024.2.4,Win32,60.24096386,5c72f069cf5c4b000197cc30,68817205a84113384fffdfe3,6898f9983e37eaba1d6c0492,,,,,,,,,,,,./stim/wavs/castilian_mismatch_interrogative-total-yn_Mi-novio-viene-del-lago.wav,1,,,98.1013,101.0325,0,0,2.4,,0,28,28,27,1,28,0,castilian,,,,,,,,,,,,,,,,,,,,,,,,,,,,,,,,,,,,,,,,,,,,,,,,,,,,,,,,
,,,,,,,,,5c72f069cf5c4b000197cc30,Whatever is on Duolingo,younger than 13,"no, only English or Spanish",click here to respond,2025-08-10_15h57.21.113,empathy_intonation_perc_control,2024.2.4,Win32,60.24096386,5c72f069cf5c4b000197cc30,68817205a84113384fffdfe3,6898f9983e37eaba1d6c0492,,,,,,,,,,,,./stim/wavs/mexican_match_declarative-broad-focus_Ana-lleva-el-abrigo.wav,0,,,101.0337,102.9827,0,1,1.418,,0,29,29,56,1,57,0,mexican,,,,,,,,,,,,,,,,,,,,,,,,,,,,,,,,,,,,,,,,,,,,,,,,,,,,,,,,
,,,,,,,,,5c72f069cf5c4b000197cc30,Whatever is on Duolingo,younger than 13,"no, only English or Spanish",click here to respond,2025-08-10_15h57.21.113,empathy_intonation_perc_control,2024.2.4,Win32,60.24096386,5c72f069cf5c4b000197cc30,68817205a84113384fffdfe3,6898f9983e37eaba1d6c0492,,,,,,,,,,,,./stim/wavs/cuban_mismatch_declarative-broad-focus_La-nina-lava-el-plato.wav,0,,,102.9839,104.949,0,1,1.4397,,0,30,30,75,1,76,0,cuban,,,,,,,,,,,,,,,,,,,,,,,,,,,,,,,,,,,,,,,,,,,,,,,,,,,,,,,,
,,,,,,,,,5c72f069cf5c4b000197cc30,Whatever is on Duolingo,younger than 13,"no, only English or Spanish",click here to respond,2025-08-10_15h57.21.113,empathy_intonation_perc_control,2024.2.4,Win32,60.24096386,5c72f069cf5c4b000197cc30,68817205a84113384fffdfe3,6898f9983e37eaba1d6c0492,,,,,,,,,,,,./stim/wavs/castilian_match_interrogative-total-yn_Manuela-vende-el-carro.wav,1,,,104.9499,107.3327,1,1,1.858,,0,31,31,2,1,3,0,castilian,,,,,,,,,,,,,,,,,,,,,,,,,,,,,,,,,,,,,,,,,,,,,,,,,,,,,,,,
,,,,,,,,,5c72f069cf5c4b000197cc30,Whatever is on Duolingo,younger than 13,"no, only English or Spanish",click here to respond,2025-08-10_15h57.21.113,empathy_intonation_perc_control,2024.2.4,Win32,60.24096386,5c72f069cf5c4b000197cc30,68817205a84113384fffdfe3,6898f9983e37eaba1d6c0492,,,,,,,,,,,,./stim/wavs/mexican_mismatch_declarative-broad-focus_Mi-tia-odia-la-lluvia.wav,0,,,107.3344,109.4997,0,1,1.6401,,0,32,32,82,1,83,0,mexican,,,,,,,,,,,,,,,,,,,,,,,,,,,,,,,,,,,,,,,,,,,,,,,,,,,,,,,,
,,,,,,,,,5c72f069cf5c4b000197cc30,Whatever is on Duolingo,younger than 13,"no, only English or Spanish",click here to respond,2025-08-10_15h57.21.113,empathy_intonation_perc_control,2024.2.4,Win32,60.24096386,5c72f069cf5c4b000197cc30,68817205a84113384fffdfe3,6898f9983e37eaba1d6c0492,,,,,,,,,,,,./stim/wavs/puertorican_mismatch_declarative-broad-focus_El-hombre-mira-la-luna.wav,0,,,109.5011,111.9228,0,1,1.9011,,0,33,33,84,1,85,0,puertorican,,,,,,,,,,,,,,,,,,,,,,,,,,,,,,,,,,,,,,,,,,,,,,,,,,,,,,,,
,,,,,,,,,5c72f069cf5c4b000197cc30,Whatever is on Duolingo,younger than 13,"no, only English or Spanish",click here to respond,2025-08-10_15h57.21.113,empathy_intonation_perc_control,2024.2.4,Win32,60.24096386,5c72f069cf5c4b000197cc30,68817205a84113384fffdfe3,6898f9983e37eaba1d6c0492,,,,,,,,,,,,./stim/wavs/puertorican_match_declarative-broad-focus_Maria-bebe-el-vino.wav,0,,,111.9233,114.116,0,1,1.6686,,0,34,34,67,1,68,0,puertorican,,,,,,,,,,,,,,,,,,,,,,,,,,,,,,,,,,,,,,,,,,,,,,,,,,,,,,,,
,,,,,,,,,5c72f069cf5c4b000197cc30,Whatever is on Duolingo,younger than 13,"no, only English or Spanish",click here to respond,2025-08-10_15h57.21.113,empathy_intonation_perc_control,2024.2.4,Win32,60.24096386,5c72f069cf5c4b000197cc30,68817205a84113384fffdfe3,6898f9983e37eaba1d6c0492,,,,,,,,,,,,./stim/wavs/mexican_match_declarative-broad-focus_Mariano-habla-del-tiempo.wav,0,,,114.117,116.4496,0,1,1.8081,,0,35,35,60,1,61,0,mexican,,,,,,,,,,,,,,,,,,,,,,,,,,,,,,,,,,,,,,,,,,,,,,,,,,,,,,,,
,,,,,,,,,5c72f069cf5c4b000197cc30,Whatever is on Duolingo,younger than 13,"no, only English or Spanish",click here to respond,2025-08-10_15h57.21.113,empathy_intonation_perc_control,2024.2.4,Win32,60.24096386,5c72f069cf5c4b000197cc30,68817205a84113384fffdfe3,6898f9983e37eaba1d6c0492,,,,,,,,,,,,./stim/wavs/puertorican_mismatch_interrogative-total-yn_Mi-madre-come-la-fruta.wav,1,,,116.4509,119.3002,0,0,2.318,,0,36,36,43,1,44,1,puertorican,,,,,,,,,,,,,,,,,,,,,,,,,,,,,,,,,,,,,,,,,,,,,,,,,,,,,,,,
,,,,,,,,,5c72f069cf5c4b000197cc30,Whatever is on Duolingo,younger than 13,"no, only English or Spanish",click here to respond,2025-08-10_15h57.21.113,empathy_intonation_perc_control,2024.2.4,Win32,60.24096386,5c72f069cf5c4b000197cc30,68817205a84113384fffdfe3,6898f9983e37eaba1d6c0492,,,,,,,,,,,,./stim/wavs/cuban_mismatch_declarative-broad-focus_El-hombre-mira-la-luna.wav,0,,,119.3015,121.2669,0,1,1.4378,,0,37,37,74,1,75,0,cuban,,,,,,,,,,,,,,,,,,,,,,,,,,,,,,,,,,,,,,,,,,,,,,,,,,,,,,,,
,,,,,,,,,5c72f069cf5c4b000197cc30,Whatever is on Duolingo,younger than 13,"no, only English or Spanish",click here to respond,2025-08-10_15h57.21.113,empathy_intonation_perc_control,2024.2.4,Win32,60.24096386,5c72f069cf5c4b000197cc30,68817205a84113384fffdfe3,6898f9983e37eaba1d6c0492,,,,,,,,,,,,./stim/wavs/mexican_match_declarative-broad-focus_David-leia-el-libro.wav,0,,,121.2684,123.4493,0,1,1.66,,0,38,38,58,1,59,0,mexican,,,,,,,,,,,,,,,,,,,,,,,,,,,,,,,,,,,,,,,,,,,,,,,,,,,,,,,,
,,,,,,,,,5c72f069cf5c4b000197cc30,Whatever is on Duolingo,younger than 13,"no, only English or Spanish",click here to respond,2025-08-10_15h57.21.113,empathy_intonation_perc_control,2024.2.4,Win32,60.24096386,5c72f069cf5c4b000197cc30,68817205a84113384fffdfe3,6898f9983e37eaba1d6c0492,,,,,,,,,,,,./stim/wavs/puertorican_match_interrogative-total-yn_Daniel-iba-a-Bolivia.wav,1,,,123.4507,125.5497,0,0,1.5759,,0,39,39,19,1,20,1,puertorican,,,,,,,,,,,,,,,,,,,,,,,,,,,,,,,,,,,,,,,,,,,,,,,,,,,,,,,,
,,,,,,,,,5c72f069cf5c4b000197cc30,Whatever is on Duolingo,younger than 13,"no, only English or Spanish",click here to respond,2025-08-10_15h57.21.113,empathy_intonation_perc_control,2024.2.4,Win32,60.24096386,5c72f069cf5c4b000197cc30,68817205a84113384fffdfe3,6898f9983e37eaba1d6c0492,,,,,,,,,,,,./stim/wavs/castilian_mismatch_declarative-broad-focus_Mi-tia-odia-la-lluvia.wav,0,,,125.5511,127.8331,0,1,1.7568,,0,40,40,72,1,73,0,castilian,,,,,,,,,,,,,,,,,,,,,,,,,,,,,,,,,,,,,,,,,,,,,,,,,,,,,,,,
,,,,,,,,,5c72f069cf5c4b000197cc30,Whatever is on Duolingo,younger than 13,"no, only English or Spanish",click here to respond,2025-08-10_15h57.21.113,empathy_intonation_perc_control,2024.2.4,Win32,60.24096386,5c72f069cf5c4b000197cc30,68817205a84113384fffdfe3,6898f9983e37eaba1d6c0492,,,,,,,,,,,,./stim/wavs/puertorican_match_declarative-broad-focus_Daniel-iba-a-Bolivia.wav,0,,,127.8343,129.8833,0,1,1.5236,,0,41,41,63,1,64,0,puertorican,,,,,,,,,,,,,,,,,,,,,,,,,,,,,,,,,,,,,,,,,,,,,,,,,,,,,,,,
,,,,,,,,,5c72f069cf5c4b000197cc30,Whatever is on Duolingo,younger than 13,"no, only English or Spanish",click here to respond,2025-08-10_15h57.21.113,empathy_intonation_perc_control,2024.2.4,Win32,60.24096386,5c72f069cf5c4b000197cc30,68817205a84113384fffdfe3,6898f9983e37eaba1d6c0492,,,,,,,,,,,,./stim/wavs/puertorican_mismatch_interrogative-total-yn_El-hombre-mira-la-luna.wav,1,,,129.885,132.1832,0,0,1.7757,,0,42,42,39,1,40,1,puertorican,,,,,,,,,,,,,,,,,,,,,,,,,,,,,,,,,,,,,,,,,,,,,,,,,,,,,,,,
,,,,,,,,,5c72f069cf5c4b000197cc30,Whatever is on Duolingo,younger than 13,"no, only English or Spanish",click here to respond,2025-08-10_15h57.21.113,empathy_intonation_perc_control,2024.2.4,Win32,60.24096386,5c72f069cf5c4b000197cc30,68817205a84113384fffdfe3,6898f9983e37eaba1d6c0492,,,,,,,,,,,,./stim/wavs/puertorican_mismatch_interrogative-total-yn_La-nina-lava-el-plato.wav,1,,,132.1846,133.8996,0,0,1.1913,,0,43,43,42,1,43,1,puertorican,,,,,,,,,,,,,,,,,,,,,,,,,,,,,,,,,,,,,,,,,,,,,,,,,,,,,,,,
,,,,,,,,,5c72f069cf5c4b000197cc30,Whatever is on Duolingo,younger than 13,"no, only English or Spanish",click here to respond,2025-08-10_15h57.21.113,empathy_intonation_perc_control,2024.2.4,Win32,60.24096386,5c72f069cf5c4b000197cc30,68817205a84113384fffdfe3,6898f9983e37eaba1d6c0492,,,,,,,,,,,,./stim/wavs/mexican_mismatch_interrogative-total-yn_Mi-tia-odia-la-lluvia.wav,1,,,133.9006,135.7496,0,0,1.3256,,0,44,44,38,1,39,0,mexican,,,,,,,,,,,,,,,,,,,,,,,,,,,,,,,,,,,,,,,,,,,,,,,,,,,,,,,,
,,,,,,,,,5c72f069cf5c4b000197cc30,Whatever is on Duolingo,younger than 13,"no, only English or Spanish",click here to respond,2025-08-10_15h57.21.113,empathy_intonation_perc_control,2024.2.4,Win32,60.24096386,5c72f069cf5c4b000197cc30,68817205a84113384fffdfe3,6898f9983e37eaba1d6c0492,,,,,,,,,,,,./stim/wavs/cuban_match_declarative-broad-focus_Marta-abre-el-regalo.wav,0,,,135.7513,137.75,0,1,1.4716,,0,45,45,55,1,56,0,cuban,,,,,,,,,,,,,,,,,,,,,,,,,,,,,,,,,,,,,,,,,,,,,,,,,,,,,,,,
,,,,,,,,,5c72f069cf5c4b000197cc30,Whatever is on Duolingo,younger than 13,"no, only English or Spanish",click here to respond,2025-08-10_15h57.21.113,empathy_intonation_perc_control,2024.2.4,Win32,60.24096386,5c72f069cf5c4b000197cc30,68817205a84113384fffdfe3,6898f9983e37eaba1d6c0492,,,,,,,,,,,,./stim/wavs/castilian_mismatch_declarative-broad-focus_El-nino-oye-el-rio.wav,0,,,137.7511,140.1165,0,1,1.8373,,0,46,46,68,1,69,0,castilian,,,,,,,,,,,,,,,,,,,,,,,,,,,,,,,,,,,,,,,,,,,,,,,,,,,,,,,,
,,,,,,,,,5c72f069cf5c4b000197cc30,Whatever is on Duolingo,younger than 13,"no, only English or Spanish",click here to respond,2025-08-10_15h57.21.113,empathy_intonation_perc_control,2024.2.4,Win32,60.24096386,5c72f069cf5c4b000197cc30,68817205a84113384fffdfe3,6898f9983e37eaba1d6c0492,,,,,,,,,,,,./stim/wavs/mexican_mismatch_declarative-broad-focus_El-bebe-comia-muy-bien.wav,0,,,140.118,142.876,0,1,2.223,,0,47,47,78,1,79,0,mexican,,,,,,,,,,,,,,,,,,,,,,,,,,,,,,,,,,,,,,,,,,,,,,,,,,,,,,,,
,,,,,,,,,5c72f069cf5c4b000197cc30,Whatever is on Duolingo,younger than 13,"no, only English or Spanish",click here to respond,2025-08-10_15h57.21.113,empathy_intonation_perc_control,2024.2.4,Win32,60.24096386,5c72f069cf5c4b000197cc30,68817205a84113384fffdfe3,6898f9983e37eaba1d6c0492,,,,,,,,,,,,./stim/wavs/cuban_mismatch_declarative-broad-focus_Mi-novio-viene-del-lago.wav,0,,,142.8769,147.4669,0,1,4.0734,,0,48,48,76,1,77,0,cuban,,,,,,,,,,,,,,,,,,,,,,,,,,,,,,,,,,,,,,,,,,,,,,,,,,,,,,,,
,,,,,,,,,5c72f069cf5c4b000197cc30,Whatever is on Duolingo,younger than 13,"no, only English or Spanish",click here to respond,2025-08-10_15h57.21.113,empathy_intonation_perc_control,2024.2.4,Win32,60.24096386,5c72f069cf5c4b000197cc30,68817205a84113384fffdfe3,6898f9983e37eaba1d6c0492,,,,,,,,,,,,./stim/wavs/cuban_match_declarative-broad-focus_Maria-bebe-el-vino.wav,0,,,147.4685,153.1501,0,1,5.1576,,0,49,49,53,1,54,0,cuban,,,,,,,,,,,,,,,,,,,,,,,,,,,,,,,,,,,,,,,,,,,,,,,,,,,,,,,,
,,,,,,,,,5c72f069cf5c4b000197cc30,Whatever is on Duolingo,younger than 13,"no, only English or Spanish",click here to respond,2025-08-10_15h57.21.113,empathy_intonation_perc_control,2024.2.4,Win32,60.24096386,5c72f069cf5c4b000197cc30,68817205a84113384fffdfe3,6898f9983e37eaba1d6c0492,,,,,,,,,,,,./stim/wavs/puertorican_mismatch_declarative-broad-focus_La-nina-lava-el-plato.wav,0,,,153.1506,157.1168,0,1,3.436,,0,50,50,87,1,88,0,puertorican,,,,,,,,,,,,,,,,,,,,,,,,,,,,,,,,,,,,,,,,,,,,,,,,,,,,,,,,
,,,,,,,,,5c72f069cf5c4b000197cc30,Whatever is on Duolingo,younger than 13,"no, only English or Spanish",click here to respond,2025-08-10_15h57.21.113,empathy_intonation_perc_control,2024.2.4,Win32,60.24096386,5c72f069cf5c4b000197cc30,68817205a84113384fffdfe3,6898f9983e37eaba1d6c0492,,,,,,,,,,,,./stim/wavs/cuban_mismatch_interrogative-total-yn_El-nino-oye-el-rio.wav,1,,,157.1171,159.8002,0,0,2.1577,,0,51,51,30,1,31,1,cuban,,,,,,,,,,,,,,,,,,,,,,,,,,,,,,,,,,,,,,,,,,,,,,,,,,,,,,,,
,,,,,,,,,5c72f069cf5c4b000197cc30,Whatever is on Duolingo,younger than 13,"no, only English or Spanish",click here to respond,2025-08-10_15h57.21.113,empathy_intonation_perc_control,2024.2.4,Win32,60.24096386,5c72f069cf5c4b000197cc30,68817205a84113384fffdfe3,6898f9983e37eaba1d6c0492,,,,,,,,,,,,./stim/wavs/castilian_match_declarative-broad-focus_Mariano-habla-del-tiempo.wav,0,,,159.8006,162.3503,0,1,2.0219,,0,52,52,48,1,49,0,castilian,,,,,,,,,,,,,,,,,,,,,,,,,,,,,,,,,,,,,,,,,,,,,,,,,,,,,,,,
,,,,,,,,,5c72f069cf5c4b000197cc30,Whatever is on Duolingo,younger than 13,"no, only English or Spanish",click here to respond,2025-08-10_15h57.21.113,empathy_intonation_perc_control,2024.2.4,Win32,60.24096386,5c72f069cf5c4b000197cc30,68817205a84113384fffdfe3,6898f9983e37eaba1d6c0492,,,,,,,,,,,,./stim/wavs/castilian_match_interrogative-total-yn_Marta-abre-el-regalo.wav,1,,,162.3508,165.7838,1,1,2.9122,,0,53,53,5,1,6,0,castilian,,,,,,,,,,,,,,,,,,,,,,,,,,,,,,,,,,,,,,,,,,,,,,,,,,,,,,,,
,,,,,,,,,5c72f069cf5c4b000197cc30,Whatever is on Duolingo,younger than 13,"no, only English or Spanish",click here to respond,2025-08-10_15h57.21.113,empathy_intonation_perc_control,2024.2.4,Win32,60.24096386,5c72f069cf5c4b000197cc30,68817205a84113384fffdfe3,6898f9983e37eaba1d6c0492,,,,,,,,,,,,./stim/wavs/castilian_mismatch_declarative-broad-focus_Mi-novio-viene-del-lago.wav,0,,,165.7846,168.3502,0,1,2.0388,,0,54,54,71,1,72,0,castilian,,,,,,,,,,,,,,,,,,,,,,,,,,,,,,,,,,,,,,,,,,,,,,,,,,,,,,,,
,,,,,,,,,5c72f069cf5c4b000197cc30,Whatever is on Duolingo,younger than 13,"no, only English or Spanish",click here to respond,2025-08-10_15h57.21.113,empathy_intonation_perc_control,2024.2.4,Win32,60.24096386,5c72f069cf5c4b000197cc30,68817205a84113384fffdfe3,6898f9983e37eaba1d6c0492,,,,,,,,,,,,./stim/wavs/puertorican_mismatch_interrogative-total-yn_El-nino-oye-el-rio.wav,1,,,168.3507,172.4502,1,1,3.5944,,0,55,55,40,1,41,1,puertorican,,,,,,,,,,,,,,,,,,,,,,,,,,,,,,,,,,,,,,,,,,,,,,,,,,,,,,,,
,,,,,,,,,5c72f069cf5c4b000197cc30,Whatever is on Duolingo,younger than 13,"no, only English or Spanish",click here to respond,2025-08-10_15h57.21.113,empathy_intonation_perc_control,2024.2.4,Win32,60.24096386,5c72f069cf5c4b000197cc30,68817205a84113384fffdfe3,6898f9983e37eaba1d6c0492,,,,,,,,,,,,./stim/wavs/castilian_mismatch_interrogative-total-yn_La-nina-lava-el-plato.wav,1,,,172.4507,176.484,0,0,3.5044,,0,56,56,25,1,26,0,castilian,,,,,,,,,,,,,,,,,,,,,,,,,,,,,,,,,,,,,,,,,,,,,,,,,,,,,,,,
,,,,,,,,,5c72f069cf5c4b000197cc30,Whatever is on Duolingo,younger than 13,"no, only English or Spanish",click here to respond,2025-08-10_15h57.21.113,empathy_intonation_perc_control,2024.2.4,Win32,60.24096386,5c72f069cf5c4b000197cc30,68817205a84113384fffdfe3,6898f9983e37eaba1d6c0492,,,,,,,,,,,,./stim/wavs/castilian_match_declarative-broad-focus_David-leia-el-libro.wav,0,,,176.4845,179.4339,0,1,2.4189,,0,57,57,44,1,45,0,castilian,,,,,,,,,,,,,,,,,,,,,,,,,,,,,,,,,,,,,,,,,,,,,,,,,,,,,,,,
,,,,,,,,,5c72f069cf5c4b000197cc30,Whatever is on Duolingo,younger than 13,"no, only English or Spanish",click here to respond,2025-08-10_15h57.21.113,empathy_intonation_perc_control,2024.2.4,Win32,60.24096386,5c72f069cf5c4b000197cc30,68817205a84113384fffdfe3,6898f9983e37eaba1d6c0492,,,,,,,,,,,,./stim/wavs/castilian_match_interrogative-total-yn_Maria-bebe-el-vino.wav,1,,,179.4343,187.5507,1,1,7.5853,,0,58,58,3,1,4,0,castilian,,,,,,,,,,,,,,,,,,,,,,,,,,,,,,,,,,,,,,,,,,,,,,,,,,,,,,,,
,,,,,,,,,5c72f069cf5c4b000197cc30,Whatever is on Duolingo,younger than 13,"no, only English or Spanish",click here to respond,2025-08-10_15h57.21.113,empathy_intonation_perc_control,2024.2.4,Win32,60.24096386,5c72f069cf5c4b000197cc30,68817205a84113384fffdfe3,6898f9983e37eaba1d6c0492,,,,,,,,,,,,./stim/wavs/castilian_mismatch_interrogative-total-yn_Mi-madre-come-la-fruta.wav,1,,,187.5511,193.7675,1,1,5.6887,,0,59,59,26,1,27,0,castilian,,,,,,,,,,,,,,,,,,,,,,,,,,,,,,,,,,,,,,,,,,,,,,,,,,,,,,,,
,,,,,,,,,5c72f069cf5c4b000197cc30,Whatever is on Duolingo,younger than 13,"no, only English or Spanish",click here to respond,2025-08-10_15h57.21.113,empathy_intonation_perc_control,2024.2.4,Win32,60.24096386,5c72f069cf5c4b000197cc30,68817205a84113384fffdfe3,6898f9983e37eaba1d6c0492,,,,,,,,,,,,./stim/wavs/puertorican_match_declarative-broad-focus_David-leia-el-libro.wav,0,,,193.768,196.1845,0,1,1.8868,,0,60,60,64,1,65,0,puertorican,,,,,,,,,,,,,,,,,,,,,,,,,,,,,,,,,,,,,,,,,,,,,,,,,,,,,,,,
,,,,,,,,,5c72f069cf5c4b000197cc30,Whatever is on Duolingo,younger than 13,"no, only English or Spanish",click here to respond,2025-08-10_15h57.21.113,empathy_intonation_perc_control,2024.2.4,Win32,60.24096386,5c72f069cf5c4b000197cc30,68817205a84113384fffdfe3,6898f9983e37eaba1d6c0492,,,,,,,,,,,,./stim/wavs/mexican_mismatch_interrogative-total-yn_Mi-novio-viene-del-lago.wav,1,,,196.1848,199.3174,1,1,2.6103,,0,61,61,37,1,38,0,mexican,,,,,,,,,,,,,,,,,,,,,,,,,,,,,,,,,,,,,,,,,,,,,,,,,,,,,,,,
,,,,,,,,,5c72f069cf5c4b000197cc30,Whatever is on Duolingo,younger than 13,"no, only English or Spanish",click here to respond,2025-08-10_15h57.21.113,empathy_intonation_perc_control,2024.2.4,Win32,60.24096386,5c72f069cf5c4b000197cc30,68817205a84113384fffdfe3,6898f9983e37eaba1d6c0492,,,,,,,,,,,,./stim/wavs/mexican_mismatch_interrogative-total-yn_El-nino-oye-el-rio.wav,1,,,199.3179,204.3346,1,1,4.4867,,0,62,62,35,1,36,0,mexican,,,,,,,,,,,,,,,,,,,,,,,,,,,,,,,,,,,,,,,,,,,,,,,,,,,,,,,,
,,,,,,,,,5c72f069cf5c4b000197cc30,Whatever is on Duolingo,younger than 13,"no, only English or Spanish",click here to respond,2025-08-10_15h57.21.113,empathy_intonation_perc_control,2024.2.4,Win32,60.24096386,5c72f069cf5c4b000197cc30,68817205a84113384fffdfe3,6898f9983e37eaba1d6c0492,,,,,,,,,,,,./stim/wavs/castilian_match_interrogative-total-yn_Emilio-ama-la-marcha.wav,1,,,204.3349,213.0511,1,1,8.1934,,0,63,63,1,1,2,0,castilian,,,,,,,,,,,,,,,,,,,,,,,,,,,,,,,,,,,,,,,,,,,,,,,,,,,,,,,,
,,,,,,,,,5c72f069cf5c4b000197cc30,Whatever is on Duolingo,younger than 13,"no, only English or Spanish",click here to respond,2025-08-10_15h57.21.113,empathy_intonation_perc_control,2024.2.4,Win32,60.24096386,5c72f069cf5c4b000197cc30,68817205a84113384fffdfe3,6898f9983e37eaba1d6c0492,,,,,,,,,,,,./stim/wavs/cuban_mismatch_interrogative-total-yn_Mi-tia-odia-la-lluvia.wav,1,,,213.0524,217.0681,0,0,3.4874,,0,64,64,33,1,34,1,cuban,,,,,,,,,,,,,,,,,,,,,,,,,,,,,,,,,,,,,,,,,,,,,,,,,,,,,,,,
,,,,,,,,,5c72f069cf5c4b000197cc30,Whatever is on Duolingo,younger than 13,"no, only English or Spanish",click here to respond,2025-08-10_15h57.21.113,empathy_intonation_perc_control,2024.2.4,Win32,60.24096386,5c72f069cf5c4b000197cc30,68817205a84113384fffdfe3,6898f9983e37eaba1d6c0492,,,,,,,,,,,,./stim/wavs/cuban_match_interrogative-total-yn_Mariano-habla-del-tiempo.wav,1,,,217.0685,223.5684,1,1,5.9729,,0,65,65,10,1,11,1,cuban,,,,,,,,,,,,,,,,,,,,,,,,,,,,,,,,,,,,,,,,,,,,,,,,,,,,,,,,
,,,,,,,,,5c72f069cf5c4b000197cc30,Whatever is on Duolingo,younger than 13,"no, only English or Spanish",click here to respond,2025-08-10_15h57.21.113,empathy_intonation_perc_control,2024.2.4,Win32,60.24096386,5c72f069cf5c4b000197cc30,68817205a84113384fffdfe3,6898f9983e37eaba1d6c0492,,,,,,,,,,,,./stim/wavs/mexican_match_interrogative-total-yn_Ana-lleva-el-abrigo.wav,1,,,223.5688,226.5514,1,1,2.4561,,0,66,66,12,1,13,0,mexican,,,,,,,,,,,,,,,,,,,,,,,,,,,,,,,,,,,,,,,,,,,,,,,,,,,,,,,,
,,,,,,,,,5c72f069cf5c4b000197cc30,Whatever is on Duolingo,younger than 13,"no, only English or Spanish",click here to respond,2025-08-10_15h57.21.113,empathy_intonation_perc_control,2024.2.4,Win32,60.24096386,5c72f069cf5c4b000197cc30,68817205a84113384fffdfe3,6898f9983e37eaba1d6c0492,,,,,,,,,,,,./stim/wavs/puertorican_match_declarative-broad-focus_Emilio-ama-la-marcha.wav,0,,,226.5519,230.4183,0,1,3.3382,,0,67,67,65,1,66,0,puertorican,,,,,,,,,,,,,,,,,,,,,,,,,,,,,,,,,,,,,,,,,,,,,,,,,,,,,,,,
,,,,,,,,,5c72f069cf5c4b000197cc30,Whatever is on Duolingo,younger than 13,"no, only English or Spanish",click here to respond,2025-08-10_15h57.21.113,empathy_intonation_perc_control,2024.2.4,Win32,60.24096386,5c72f069cf5c4b000197cc30,68817205a84113384fffdfe3,6898f9983e37eaba1d6c0492,,,,,,,,,,,,./stim/wavs/mexican_match_declarative-broad-focus_Marta-abre-el-regalo.wav,0,,,230.4187,233.1183,0,1,2.1696,,0,68,68,61,1,62,0,mexican,,,,,,,,,,,,,,,,,,,,,,,,,,,,,,,,,,,,,,,,,,,,,,,,,,,,,,,,
,,,,,,,,,5c72f069cf5c4b000197cc30,Whatever is on Duolingo,younger than 13,"no, only English or Spanish",click here to respond,2025-08-10_15h57.21.113,empathy_intonation_perc_control,2024.2.4,Win32,60.24096386,5c72f069cf5c4b000197cc30,68817205a84113384fffdfe3,6898f9983e37eaba1d6c0492,,,,,,,,,,,,./stim/wavs/puertorican_mismatch_declarative-broad-focus_El-nino-oye-el-rio.wav,0,,,233.1187,237.1348,0,1,3.4855,,0,69,69,85,1,86,0,puertorican,,,,,,,,,,,,,,,,,,,,,,,,,,,,,,,,,,,,,,,,,,,,,,,,,,,,,,,,
,,,,,,,,,5c72f069cf5c4b000197cc30,Whatever is on Duolingo,younger than 13,"no, only English or Spanish",click here to respond,2025-08-10_15h57.21.113,empathy_intonation_perc_control,2024.2.4,Win32,60.24096386,5c72f069cf5c4b000197cc30,68817205a84113384fffdfe3,6898f9983e37eaba1d6c0492,,,,,,,,,,,,./stim/wavs/castilian_match_interrogative-total-yn_Mariano-habla-del-tiempo.wav,1,,,237.1353,241.1351,1,1,3.4699,,0,70,70,4,1,5,0,castilian,,,,,,,,,,,,,,,,,,,,,,,,,,,,,,,,,,,,,,,,,,,,,,,,,,,,,,,,
,,,,,,,,,5c72f069cf5c4b000197cc30,Whatever is on Duolingo,younger than 13,"no, only English or Spanish",click here to respond,2025-08-10_15h57.21.113,empathy_intonation_perc_control,2024.2.4,Win32,60.24096386,5c72f069cf5c4b000197cc30,68817205a84113384fffdfe3,6898f9983e37eaba1d6c0492,,,,,,,,,,,,./stim/wavs/mexican_match_interrogative-total-yn_David-leia-el-libro.wav,1,,,241.1355,247.6517,1,1,5.9859,,0,71,71,14,1,15,0,mexican,,,,,,,,,,,,,,,,,,,,,,,,,,,,,,,,,,,,,,,,,,,,,,,,,,,,,,,,
,,,,,,,,,5c72f069cf5c4b000197cc30,Whatever is on Duolingo,younger than 13,"no, only English or Spanish",click here to respond,2025-08-10_15h57.21.113,empathy_intonation_perc_control,2024.2.4,Win32,60.24096386,5c72f069cf5c4b000197cc30,68817205a84113384fffdfe3,6898f9983e37eaba1d6c0492,,,,,,,,,,,,./stim/wavs/castilian_mismatch_interrogative-total-yn_Mi-tia-odia-la-lluvia.wav,1,,,247.6522,251.8853,1,1,3.7115,,0,72,72,28,1,29,0,castilian,,,,,,,,,,,,,,,,,,,,,,,,,,,,,,,,,,,,,,,,,,,,,,,,,,,,,,,,
,,,,,,,,,5c72f069cf5c4b000197cc30,Whatever is on Duolingo,younger than 13,"no, only English or Spanish",click here to respond,2025-08-10_15h57.21.113,empathy_intonation_perc_control,2024.2.4,Win32,60.24096386,5c72f069cf5c4b000197cc30,68817205a84113384fffdfe3,6898f9983e37eaba1d6c0492,,,,,,,,,,,,./stim/wavs/cuban_match_interrogative-total-yn_Ana-lleva-el-abrigo.wav,1,,,251.8857,257.3519,1,1,4.9357,,0,73,73,6,1,7,1,cuban,,,,,,,,,,,,,,,,,,,,,,,,,,,,,,,,,,,,,,,,,,,,,,,,,,,,,,,,
,,,,,,,,,5c72f069cf5c4b000197cc30,Whatever is on Duolingo,younger than 13,"no, only English or Spanish",click here to respond,2025-08-10_15h57.21.113,empathy_intonation_perc_control,2024.2.4,Win32,60.24096386,5c72f069cf5c4b000197cc30,68817205a84113384fffdfe3,6898f9983e37eaba1d6c0492,,,,,,,,,,,,./stim/wavs/cuban_match_declarative-broad-focus_Daniel-iba-a-Bolivia.wav,0,,,257.3523,261.0859,1,0,3.2132,,0,74,74,51,1,52,0,cuban,,,,,,,,,,,,,,,,,,,,,,,,,,,,,,,,,,,,,,,,,,,,,,,,,,,,,,,,
,,,,,,,,,5c72f069cf5c4b000197cc30,Whatever is on Duolingo,younger than 13,"no, only English or Spanish",click here to respond,2025-08-10_15h57.21.113,empathy_intonation_perc_control,2024.2.4,Win32,60.24096386,5c72f069cf5c4b000197cc30,68817205a84113384fffdfe3,6898f9983e37eaba1d6c0492,,,,,,,,,,,,./stim/wavs/cuban_mismatch_declarative-broad-focus_Mi-tia-odia-la-lluvia.wav,0,,,261.0863,263.8686,0,1,2.262,,0,75,75,77,1,78,0,cuban,,,,,,,,,,,,,,,,,,,,,,,,,,,,,,,,,,,,,,,,,,,,,,,,,,,,,,,,
,,,,,,,,,5c72f069cf5c4b000197cc30,Whatever is on Duolingo,younger than 13,"no, only English or Spanish",click here to respond,2025-08-10_15h57.21.113,empathy_intonation_perc_control,2024.2.4,Win32,60.24096386,5c72f069cf5c4b000197cc30,68817205a84113384fffdfe3,6898f9983e37eaba1d6c0492,,,,,,,,,,,,./stim/wavs/castilian_mismatch_declarative-broad-focus_La-nina-lava-el-plato.wav,0,,,263.869,270.7023,0,1,6.3036,,0,76,76,70,1,71,0,castilian,,,,,,,,,,,,,,,,,,,,,,,,,,,,,,,,,,,,,,,,,,,,,,,,,,,,,,,,
,,,,,,,,,5c72f069cf5c4b000197cc30,Whatever is on Duolingo,younger than 13,"no, only English or Spanish",click here to respond,2025-08-10_15h57.21.113,empathy_intonation_perc_control,2024.2.4,Win32,60.24096386,5c72f069cf5c4b000197cc30,68817205a84113384fffdfe3,6898f9983e37eaba1d6c0492,,,,,,,,,,,,./stim/wavs/cuban_match_interrogative-total-yn_Marta-abre-el-regalo.wav,1,,,270.7028,283.0023,0,0,11.7773,,0,77,77,11,1,12,1,cuban,,,,,,,,,,,,,,,,,,,,,,,,,,,,,,,,,,,,,,,,,,,,,,,,,,,,,,,,
,,,,,,,,,5c72f069cf5c4b000197cc30,Whatever is on Duolingo,younger than 13,"no, only English or Spanish",click here to respond,2025-08-10_15h57.21.113,empathy_intonation_perc_control,2024.2.4,Win32,60.24096386,5c72f069cf5c4b000197cc30,68817205a84113384fffdfe3,6898f9983e37eaba1d6c0492,,,,,,,,,,,,./stim/wavs/castilian_match_declarative-broad-focus_Emilio-ama-la-marcha.wav,0,,,283.0027,286.5026,0,1,2.9702,,0,78,78,45,1,46,0,castilian,,,,,,,,,,,,,,,,,,,,,,,,,,,,,,,,,,,,,,,,,,,,,,,,,,,,,,,,
,,,,,,,,,5c72f069cf5c4b000197cc30,Whatever is on Duolingo,younger than 13,"no, only English or Spanish",click here to respond,2025-08-10_15h57.21.113,empathy_intonation_perc_control,2024.2.4,Win32,60.24096386,5c72f069cf5c4b000197cc30,68817205a84113384fffdfe3,6898f9983e37eaba1d6c0492,,,,,,,,,,,,./stim/wavs/cuban_match_declarative-broad-focus_Mariano-habla-del-tiempo.wav,0,,,286.503,288.7696,0,1,1.7401,,0,79,79,54,1,55,0,cuban,,,,,,,,,,,,,,,,,,,,,,,,,,,,,,,,,,,,,,,,,,,,,,,,,,,,,,,,
,,,,,,,,,5c72f069cf5c4b000197cc30,Whatever is on Duolingo,younger than 13,"no, only English or Spanish",click here to respond,2025-08-10_15h57.21.113,empathy_intonation_perc_control,2024.2.4,Win32,60.24096386,5c72f069cf5c4b000197cc30,68817205a84113384fffdfe3,6898f9983e37eaba1d6c0492,,,,,,,,,,,,./stim/wavs/puertorican_match_interrogative-total-yn_Maria-bebe-el-vino.wav,1,,,288.7699,291.436,1,1,2.1352,,0,80,80,23,1,24,1,puertorican,,,,,,,,,,,,,,,,,,,,,,,,,,,,,,,,,,,,,,,,,,,,,,,,,,,,,,,,
,,,,,,,,,5c72f069cf5c4b000197cc30,Whatever is on Duolingo,younger than 13,"no, only English or Spanish",click here to respond,2025-08-10_15h57.21.113,empathy_intonation_perc_control,2024.2.4,Win32,60.24096386,5c72f069cf5c4b000197cc30,68817205a84113384fffdfe3,6898f9983e37eaba1d6c0492,,,,,,,,,,,,./stim/wavs/cuban_mismatch_interrogative-total-yn_Mi-madre-come-la-fruta.wav,1,,,291.4365,293.7026,0,0,1.7351,,0,81,81,31,1,32,1,cuban,,,,,,,,,,,,,,,,,,,,,,,,,,,,,,,,,,,,,,,,,,,,,,,,,,,,,,,,
,,,,,,,,,5c72f069cf5c4b000197cc30,Whatever is on Duolingo,younger than 13,"no, only English or Spanish",click here to respond,2025-08-10_15h57.21.113,empathy_intonation_perc_control,2024.2.4,Win32,60.24096386,5c72f069cf5c4b000197cc30,68817205a84113384fffdfe3,6898f9983e37eaba1d6c0492,,,,,,,,,,,,./stim/wavs/puertorican_mismatch_interrogative-total-yn_La-maestra-vive-en-Paris.wav,1,,,293.703,296.1694,0,0,1.9431,,0,82,82,41,1,42,1,puertorican,,,,,,,,,,,,,,,,,,,,,,,,,,,,,,,,,,,,,,,,,,,,,,,,,,,,,,,,
,,,,,,,,,5c72f069cf5c4b000197cc30,Whatever is on Duolingo,younger than 13,"no, only English or Spanish",click here to respond,2025-08-10_15h57.21.113,empathy_intonation_perc_control,2024.2.4,Win32,60.24096386,5c72f069cf5c4b000197cc30,68817205a84113384fffdfe3,6898f9983e37eaba1d6c0492,,,,,,,,,,,,./stim/wavs/mexican_mismatch_declarative-broad-focus_Mi-novio-viene-del-lago.wav,0,,,296.1697,298.4527,0,1,1.7553,,0,83,83,81,1,82,0,mexican,,,,,,,,,,,,,,,,,,,,,,,,,,,,,,,,,,,,,,,,,,,,,,,,,,,,,,,,
,,,,,,,,,5c72f069cf5c4b000197cc30,Whatever is on Duolingo,younger than 13,"no, only English or Spanish",click here to respond,2025-08-10_15h57.21.113,empathy_intonation_perc_control,2024.2.4,Win32,60.24096386,5c72f069cf5c4b000197cc30,68817205a84113384fffdfe3,6898f9983e37eaba1d6c0492,,,,,,,,,,,,./stim/wavs/puertorican_match_interrogative-total-yn_Manuela-vende-el-carro.wav,1,,,298.4531,300.8197,0,0,1.8411,,0,84,84,22,1,23,1,puertorican,,,,,,,,,,,,,,,,,,,,,,,,,,,,,,,,,,,,,,,,,,,,,,,,,,,,,,,,
,,,,,,,,,5c72f069cf5c4b000197cc30,Whatever is on Duolingo,younger than 13,"no, only English or Spanish",click here to respond,2025-08-10_15h57.21.113,empathy_intonation_perc_control,2024.2.4,Win32,60.24096386,5c72f069cf5c4b000197cc30,68817205a84113384fffdfe3,6898f9983e37eaba1d6c0492,,,,,,,,,,,,./stim/wavs/puertorican_match_interrogative-total-yn_Ana-lleva-el-abrigo.wav,1,,,300.8199,302.903,0,0,1.5566,,0,85,85,18,1,19,1,puertorican,,,,,,,,,,,,,,,,,,,,,,,,,,,,,,,,,,,,,,,,,,,,,,,,,,,,,,,,
,,,,,,,,,5c72f069cf5c4b000197cc30,Whatever is on Duolingo,younger than 13,"no, only English or Spanish",click here to respond,2025-08-10_15h57.21.113,empathy_intonation_perc_control,2024.2.4,Win32,60.24096386,5c72f069cf5c4b000197cc30,68817205a84113384fffdfe3,6898f9983e37eaba1d6c0492,,,,,,,,,,,,./stim/wavs/puertorican_match_interrogative-total-yn_David-leia-el-libro.wav,1,,,302.9034,305.1364,0,0,1.7036,,0,86,86,20,1,21,1,puertorican,,,,,,,,,,,,,,,,,,,,,,,,,,,,,,,,,,,,,,,,,,,,,,,,,,,,,,,,
,,,,,,,,,5c72f069cf5c4b000197cc30,Whatever is on Duolingo,younger than 13,"no, only English or Spanish",click here to respond,2025-08-10_15h57.21.113,empathy_intonation_perc_control,2024.2.4,Win32,60.24096386,5c72f069cf5c4b000197cc30,68817205a84113384fffdfe3,6898f9983e37eaba1d6c0492,,,,,,,,,,,,./stim/wavs/mexican_match_declarative-broad-focus_Daniel-iba-a-Bolivia.wav,0,,,305.1369,307.2531,0,1,1.592,,0,87,87,57,1,58,0,mexican,,,,,,,,,,,,,,,,,,,,,,,,,,,,,,,,,,,,,,,,,,,,,,,,,,,,,,,,
,,,,,,,"Great! Now we will move on. The next task consists of about 60 trials, in each of which you will see a string of letters. 
  
  Your task is to decide whether this is a real Spanish word or not.", (press the spacebar to continue),5c72f069cf5c4b000197cc30,Whatever is on Duolingo,younger than 13,"no, only English or Spanish",click here to respond,2025-08-10_15h57.21.113,empathy_intonation_perc_control,2024.2.4,Win32,60.24096386,5c72f069cf5c4b000197cc30,68817205a84113384fffdfe3,6898f9983e37eaba1d6c0492,,,,,,,,,,,,,,,,,,,,,,,,,,,,,,307.2585,312.1865,0,0,0,0,1,,,,,,,,,,,,,,,,,,,,,,,,,,,,,,,,,,,,,,,,,,,,,,,,,
,,,,,,,"If you think it is an existing Spanish word, you type '1' (for 'REAL'), and if you think it is not an existing Spanish word, you type '0' (for 'FAKE').", (press the spacebar to continue),5c72f069cf5c4b000197cc30,Whatever is on Duolingo,younger than 13,"no, only English or Spanish",click here to respond,2025-08-10_15h57.21.113,empathy_intonation_perc_control,2024.2.4,Win32,60.24096386,5c72f069cf5c4b000197cc30,68817205a84113384fffdfe3,6898f9983e37eaba1d6c0492,,,,,,,,,,,,,,,,,,,,,,,,,,,,,,312.189,315.4864,0,1,1,1,1,,,,,,,,,,,,,,,,,,,,,,,,,,,,,,,,,,,,,,,,,,,,,,,,,
,,,,,,,"If you are sure that the word exists, even though you don’t know its exact meaning, you may still respond '1' (REAL). 
  
  But if you are not sure if it is an existing word, you should respond '0' (FAKE).
  
  Let's do a practice round...", (press the spacebar to continue),5c72f069cf5c4b000197cc30,Whatever is on Duolingo,younger than 13,"no, only English or Spanish",click here to respond,2025-08-10_15h57.21.113,empathy_intonation_perc_control,2024.2.4,Win32,60.24096386,5c72f069cf5c4b000197cc30,68817205a84113384fffdfe3,6898f9983e37eaba1d6c0492,,,,,,,,,,,,,,,,,,,,,,,,,,,,,,315.4884,321.1198,0,2,2,2,1,,,,,,,,,,,,,,,,,,,,,,,,,,,,,,,,,,,,,,,,,,,,,,,,,
,,,,,,,,,5c72f069cf5c4b000197cc30,Whatever is on Duolingo,younger than 13,"no, only English or Spanish",click here to respond,2025-08-10_15h57.21.113,empathy_intonation_perc_control,2024.2.4,Win32,60.24096386,5c72f069cf5c4b000197cc30,68817205a84113384fffdfe3,6898f9983e37eaba1d6c0492,,,,,,,,,,,,,0,,,,,,,,,,,,,,,,,,,,,,,,321.1252,324.1534,1,0,2.5016,,324.1536,325.1533,0,0,0,0,1,0,depiste,REAL,FAKE,,,,,,,,,,,,,,,,,,,,,,,,,,,,,,,,
,,,,,,,,,5c72f069cf5c4b000197cc30,Whatever is on Duolingo,younger than 13,"no, only English or Spanish",click here to respond,2025-08-10_15h57.21.113,empathy_intonation_perc_control,2024.2.4,Win32,60.24096386,5c72f069cf5c4b000197cc30,68817205a84113384fffdfe3,6898f9983e37eaba1d6c0492,,,,,,,,,,,,,1,,,,,,,,,,,,,,,,,,,,,,,,325.1545,327.1368,1,1,1.4523,,327.1376,328.1369,0,1,1,1,1,0,sí,REAL,FAKE,,,,,,,,,,,,,,,,,,,,,,,,,,,,,,,,
,,,,,,,,,5c72f069cf5c4b000197cc30,Whatever is on Duolingo,younger than 13,"no, only English or Spanish",click here to respond,2025-08-10_15h57.21.113,empathy_intonation_perc_control,2024.2.4,Win32,60.24096386,5c72f069cf5c4b000197cc30,68817205a84113384fffdfe3,6898f9983e37eaba1d6c0492,,,,,,,,,,,,,0,,,,,,,,,,,,,,,,,,,,,,,,328.1379,330.1205,0,1,1.4497,,330.1205,331.1205,0,2,2,2,1,0,coné,REAL,FAKE,,,,,,,,,,,,,,,,,,,,,,,,,,,,,,,,
,,,,,,,,,5c72f069cf5c4b000197cc30,Whatever is on Duolingo,younger than 13,"no, only English or Spanish",click here to respond,2025-08-10_15h57.21.113,empathy_intonation_perc_control,2024.2.4,Win32,60.24096386,5c72f069cf5c4b000197cc30,68817205a84113384fffdfe3,6898f9983e37eaba1d6c0492,,,,,,,,,,,,,0,,,,,,,,,,,,,,,,,,,,,,,,331.1217,332.7703,0,1,1.1166,,332.7703,333.7703,0,3,3,3,1,0,calpar,REAL,FAKE,,,,,,,,,,,,,,,,,,,,,,,,,,,,,,,,
,,,,,,,,,5c72f069cf5c4b000197cc30,Whatever is on Duolingo,younger than 13,"no, only English or Spanish",click here to respond,2025-08-10_15h57.21.113,empathy_intonation_perc_control,2024.2.4,Win32,60.24096386,5c72f069cf5c4b000197cc30,68817205a84113384fffdfe3,6898f9983e37eaba1d6c0492,,,,,,,,,,,,,0,,,,,,,,,,,,,,,,,,,,,,,,333.7722,335.2543,0,1,0.9594,,335.2543,336.2537,0,4,4,4,1,0,joten,REAL,FAKE,,,,,,,,,,,,,,,,,,,,,,,,,,,,,,,,
,,,,,,,,,5c72f069cf5c4b000197cc30,Whatever is on Duolingo,younger than 13,"no, only English or Spanish",click here to respond,2025-08-10_15h57.21.113,empathy_intonation_perc_control,2024.2.4,Win32,60.24096386,5c72f069cf5c4b000197cc30,68817205a84113384fffdfe3,6898f9983e37eaba1d6c0492,,,,,,,,,,,,,1,,,,,,,,,,,,,,,,,,,,,,,,336.2546,337.8202,0,0,1.0341,,337.8208,338.8203,0,5,5,5,1,0,sacapuntas,REAL,FAKE,,,,,,,,,,,,,,,,,,,,,,,,,,,,,,,,
,,,,,,,,,5c72f069cf5c4b000197cc30,Whatever is on Duolingo,younger than 13,"no, only English or Spanish",click here to respond,2025-08-10_15h57.21.113,empathy_intonation_perc_control,2024.2.4,Win32,60.24096386,5c72f069cf5c4b000197cc30,68817205a84113384fffdfe3,6898f9983e37eaba1d6c0492,,,,,,,,,,,,,0,,,,,,,,,,,,,,,,,,,,,,,,338.8212,340.7703,0,1,1.4232,,340.771,341.7703,0,6,6,6,1,0,priba,REAL,FAKE,,,,,,,,,,,,,,,,,,,,,,,,,,,,,,,,
,,,,,,,,,5c72f069cf5c4b000197cc30,Whatever is on Duolingo,younger than 13,"no, only English or Spanish",click here to respond,2025-08-10_15h57.21.113,empathy_intonation_perc_control,2024.2.4,Win32,60.24096386,5c72f069cf5c4b000197cc30,68817205a84113384fffdfe3,6898f9983e37eaba1d6c0492,,,,,,,,,,,,,0,,,,,,,,,,,,,,,,,,,,,,,,341.7711,343.4371,0,1,1.1362,,343.4371,344.437,0,7,7,7,1,0,pelasula,REAL,FAKE,,,,,,,,,,,,,,,,,,,,,,,,,,,,,,,,
,,,,,,,,,5c72f069cf5c4b000197cc30,Whatever is on Duolingo,younger than 13,"no, only English or Spanish",click here to respond,2025-08-10_15h57.21.113,empathy_intonation_perc_control,2024.2.4,Win32,60.24096386,5c72f069cf5c4b000197cc30,68817205a84113384fffdfe3,6898f9983e37eaba1d6c0492,,,,,,,,,,,,,1,,,,,,,,,,,,,,,,,,,,,,,,344.4379,345.8203,1,1,0.8537,,345.8203,346.8205,0,8,8,8,1,0,bien,REAL,FAKE,,,,,,,,,,,,,,,,,,,,,,,,,,,,,,,,
,,,,,,,,,5c72f069cf5c4b000197cc30,Whatever is on Duolingo,younger than 13,"no, only English or Spanish",click here to respond,2025-08-10_15h57.21.113,empathy_intonation_perc_control,2024.2.4,Win32,60.24096386,5c72f069cf5c4b000197cc30,68817205a84113384fffdfe3,6898f9983e37eaba1d6c0492,,,,,,,,,,,,,1,,,,,,,,,,,,,,,,,,,,,,,,346.8213,348.2704,1,1,0.9196,,348.2705,349.2707,0,9,9,9,1,0,casa,REAL,FAKE,,,,,,,,,,,,,,,,,,,,,,,,,,,,,,,,
,,,,,,,,,5c72f069cf5c4b000197cc30,Whatever is on Duolingo,younger than 13,"no, only English or Spanish",click here to respond,2025-08-10_15h57.21.113,empathy_intonation_perc_control,2024.2.4,Win32,60.24096386,5c72f069cf5c4b000197cc30,68817205a84113384fffdfe3,6898f9983e37eaba1d6c0492,,,,,,,,,,,,,0,,,,,,,,,,,,,,,,,,,,,,,,349.2714,350.6704,1,0,0.8663,,350.671,351.6705,0,10,10,10,1,0,lejo,REAL,FAKE,,,,,,,,,,,,,,,,,,,,,,,,,,,,,,,,
,,,,,,,,,5c72f069cf5c4b000197cc30,Whatever is on Duolingo,younger than 13,"no, only English or Spanish",click here to respond,2025-08-10_15h57.21.113,empathy_intonation_perc_control,2024.2.4,Win32,60.24096386,5c72f069cf5c4b000197cc30,68817205a84113384fffdfe3,6898f9983e37eaba1d6c0492,,,,,,,,,,,,,0,,,,,,,,,,,,,,,,,,,,,,,,351.6713,352.887,0,1,0.6895,,352.8876,353.8873,0,11,11,11,1,0,pretantas,REAL,FAKE,,,,,,,,,,,,,,,,,,,,,,,,,,,,,,,,
,,,,,,,,,5c72f069cf5c4b000197cc30,Whatever is on Duolingo,younger than 13,"no, only English or Spanish",click here to respond,2025-08-10_15h57.21.113,empathy_intonation_perc_control,2024.2.4,Win32,60.24096386,5c72f069cf5c4b000197cc30,68817205a84113384fffdfe3,6898f9983e37eaba1d6c0492,,,,,,,,,,,,,,,,,,,,,,,,,,,,,,,,,,,,,,,,,,,,,,,,,,,,,,353.8874,355.1717,,,,,,,,,,,,,,,,,,,,,,,,,,,,,,
,,,,,,,,,5c72f069cf5c4b000197cc30,Whatever is on Duolingo,younger than 13,"no, only English or Spanish",click here to respond,2025-08-10_15h57.21.113,empathy_intonation_perc_control,2024.2.4,Win32,60.24096386,5c72f069cf5c4b000197cc30,68817205a84113384fffdfe3,6898f9983e37eaba1d6c0492,,,,,,,,,,,,,0,,,,,,,,,,,,,,,,,,,,,,,,,,,,,,,,,,,,,87,grodo,,,,,355.1877,356.7707,0,1,1.0681,,0,0,0,86,1,REAL,FAKE,,,,,,,,,,,,,,,,,
,,,,,,,,,5c72f069cf5c4b000197cc30,Whatever is on Duolingo,younger than 13,"no, only English or Spanish",click here to respond,2025-08-10_15h57.21.113,empathy_intonation_perc_control,2024.2.4,Win32,60.24096386,5c72f069cf5c4b000197cc30,68817205a84113384fffdfe3,6898f9983e37eaba1d6c0492,,,,,,,,,,,,,0,,,,,,,,,,,,,,,,,,,,,,,,,,,,,,,,,,,,,4,batillón,,,,,356.7717,358.4373,1,0,1.1378,,0,1,1,3,1,REAL,FAKE,,,,,,,,,,,,,,,,,
,,,,,,,,,5c72f069cf5c4b000197cc30,Whatever is on Duolingo,younger than 13,"no, only English or Spanish",click here to respond,2025-08-10_15h57.21.113,empathy_intonation_perc_control,2024.2.4,Win32,60.24096386,5c72f069cf5c4b000197cc30,68817205a84113384fffdfe3,6898f9983e37eaba1d6c0492,,,,,,,,,,,,,1,,,,,,,,,,,,,,,,,,,,,,,,,,,,,,,,,,,,,9,hacha,,,,,358.4379,359.7393,1,1,0.7774,,0,2,2,8,1,REAL,FAKE,,,,,,,,,,,,,,,,,
,,,,,,,,,5c72f069cf5c4b000197cc30,Whatever is on Duolingo,younger than 13,"no, only English or Spanish",click here to respond,2025-08-10_15h57.21.113,empathy_intonation_perc_control,2024.2.4,Win32,60.24096386,5c72f069cf5c4b000197cc30,68817205a84113384fffdfe3,6898f9983e37eaba1d6c0492,,,,,,,,,,,,,1,,,,,,,,,,,,,,,,,,,,,,,,,,,,,,,,,,,,,67,cabello,,,,,359.7407,361.1211,1,1,0.8554,,0,3,3,66,1,REAL,FAKE,,,,,,,,,,,,,,,,,
,,,,,,,,,5c72f069cf5c4b000197cc30,Whatever is on Duolingo,younger than 13,"no, only English or Spanish",click here to respond,2025-08-10_15h57.21.113,empathy_intonation_perc_control,2024.2.4,Win32,60.24096386,5c72f069cf5c4b000197cc30,68817205a84113384fffdfe3,6898f9983e37eaba1d6c0492,,,,,,,,,,,,,1,,,,,,,,,,,,,,,,,,,,,,,,,,,,,,,,,,,,,52,camisa,,,,,361.1222,362.4039,1,1,0.751,,0,4,4,51,1,REAL,FAKE,,,,,,,,,,,,,,,,,
,,,,,,,,,5c72f069cf5c4b000197cc30,Whatever is on Duolingo,younger than 13,"no, only English or Spanish",click here to respond,2025-08-10_15h57.21.113,empathy_intonation_perc_control,2024.2.4,Win32,60.24096386,5c72f069cf5c4b000197cc30,68817205a84113384fffdfe3,6898f9983e37eaba1d6c0492,,,,,,,,,,,,,0,,,,,,,,,,,,,,,,,,,,,,,,,,,,,,,,,,,,,70,temblo,,,,,362.4045,363.754,0,1,0.8149,,0,5,5,69,1,REAL,FAKE,,,,,,,,,,,,,,,,,
,,,,,,,,,5c72f069cf5c4b000197cc30,Whatever is on Duolingo,younger than 13,"no, only English or Spanish",click here to respond,2025-08-10_15h57.21.113,empathy_intonation_perc_control,2024.2.4,Win32,60.24096386,5c72f069cf5c4b000197cc30,68817205a84113384fffdfe3,6898f9983e37eaba1d6c0492,,,,,,,,,,,,,1,,,,,,,,,,,,,,,,,,,,,,,,,,,,,,,,,,,,,77,tiburón,,,,,363.7548,365.0374,0,0,0.7492,,0,6,6,76,1,REAL,FAKE,,,,,,,,,,,,,,,,,
,,,,,,,,,5c72f069cf5c4b000197cc30,Whatever is on Duolingo,younger than 13,"no, only English or Spanish",click here to respond,2025-08-10_15h57.21.113,empathy_intonation_perc_control,2024.2.4,Win32,60.24096386,5c72f069cf5c4b000197cc30,68817205a84113384fffdfe3,6898f9983e37eaba1d6c0492,,,,,,,,,,,,,1,,,,,,,,,,,,,,,,,,,,,,,,,,,,,,,,,,,,,2,pellizcar,,,,,365.0383,366.3374,0,0,0.7678,,0,7,7,1,1,REAL,FAKE,,,,,,,,,,,,,,,,,
,,,,,,,,,5c72f069cf5c4b000197cc30,Whatever is on Duolingo,younger than 13,"no, only English or Spanish",click here to respond,2025-08-10_15h57.21.113,empathy_intonation_perc_control,2024.2.4,Win32,60.24096386,5c72f069cf5c4b000197cc30,68817205a84113384fffdfe3,6898f9983e37eaba1d6c0492,,,,,,,,,,,,,1,,,,,,,,,,,,,,,,,,,,,,,,,,,,,,,,,,,,,60,matar,,,,,366.3381,367.6541,1,1,0.7826,,0,8,8,59,1,REAL,FAKE,,,,,,,,,,,,,,,,,
,,,,,,,,,5c72f069cf5c4b000197cc30,Whatever is on Duolingo,younger than 13,"no, only English or Spanish",click here to respond,2025-08-10_15h57.21.113,empathy_intonation_perc_control,2024.2.4,Win32,60.24096386,5c72f069cf5c4b000197cc30,68817205a84113384fffdfe3,6898f9983e37eaba1d6c0492,,,,,,,,,,,,,0,,,,,,,,,,,,,,,,,,,,,,,,,,,,,,,,,,,,,58,plaudir,,,,,367.6547,368.9043,0,1,0.7162,,0,9,9,57,1,REAL,FAKE,,,,,,,,,,,,,,,,,
,,,,,,,,,5c72f069cf5c4b000197cc30,Whatever is on Duolingo,younger than 13,"no, only English or Spanish",click here to respond,2025-08-10_15h57.21.113,empathy_intonation_perc_control,2024.2.4,Win32,60.24096386,5c72f069cf5c4b000197cc30,68817205a84113384fffdfe3,6898f9983e37eaba1d6c0492,,,,,,,,,,,,,1,,,,,,,,,,,,,,,,,,,,,,,,,,,,,,,,,,,,,88,acantilado,,,,,368.9051,370.171,0,0,0.7322,,0,10,10,87,1,REAL,FAKE,,,,,,,,,,,,,,,,,
,,,,,,,,,5c72f069cf5c4b000197cc30,Whatever is on Duolingo,younger than 13,"no, only English or Spanish",click here to respond,2025-08-10_15h57.21.113,empathy_intonation_perc_control,2024.2.4,Win32,60.24096386,5c72f069cf5c4b000197cc30,68817205a84113384fffdfe3,6898f9983e37eaba1d6c0492,,,,,,,,,,,,,1,,,,,,,,,,,,,,,,,,,,,,,,,,,,,,,,,,,,,65,bizcocho,,,,,370.1716,371.254,0,0,0.5486,,0,11,11,64,1,REAL,FAKE,,,,,,,,,,,,,,,,,
,,,,,,,,,5c72f069cf5c4b000197cc30,Whatever is on Duolingo,younger than 13,"no, only English or Spanish",click here to respond,2025-08-10_15h57.21.113,empathy_intonation_perc_control,2024.2.4,Win32,60.24096386,5c72f069cf5c4b000197cc30,68817205a84113384fffdfe3,6898f9983e37eaba1d6c0492,,,,,,,,,,,,,1,,,,,,,,,,,,,,,,,,,,,,,,,,,,,,,,,,,,,62,flaco,,,,,371.2552,372.471,1,1,0.6825,,0,12,12,61,1,REAL,FAKE,,,,,,,,,,,,,,,,,
,,,,,,,,,5c72f069cf5c4b000197cc30,Whatever is on Duolingo,younger than 13,"no, only English or Spanish",click here to respond,2025-08-10_15h57.21.113,empathy_intonation_perc_control,2024.2.4,Win32,60.24096386,5c72f069cf5c4b000197cc30,68817205a84113384fffdfe3,6898f9983e37eaba1d6c0492,,,,,,,,,,,,,1,,,,,,,,,,,,,,,,,,,,,,,,,,,,,,,,,,,,,24,látigo,,,,,372.4719,373.8042,0,0,0.8005,,0,13,13,23,1,REAL,FAKE,,,,,,,,,,,,,,,,,
,,,,,,,,,5c72f069cf5c4b000197cc30,Whatever is on Duolingo,younger than 13,"no, only English or Spanish",click here to respond,2025-08-10_15h57.21.113,empathy_intonation_perc_control,2024.2.4,Win32,60.24096386,5c72f069cf5c4b000197cc30,68817205a84113384fffdfe3,6898f9983e37eaba1d6c0492,,,,,,,,,,,,,1,,,,,,,,,,,,,,,,,,,,,,,,,,,,,,,,,,,,,45,jilguero,,,,,373.8049,374.9376,0,0,0.6066,,0,14,14,44,1,REAL,FAKE,,,,,,,,,,,,,,,,,
,,,,,,,,,5c72f069cf5c4b000197cc30,Whatever is on Duolingo,younger than 13,"no, only English or Spanish",click here to respond,2025-08-10_15h57.21.113,empathy_intonation_perc_control,2024.2.4,Win32,60.24096386,5c72f069cf5c4b000197cc30,68817205a84113384fffdfe3,6898f9983e37eaba1d6c0492,,,,,,,,,,,,,1,,,,,,,,,,,,,,,,,,,,,,,,,,,,,,,,,,,,,40,alfombra,,,,,374.9381,376.1067,0,0,0.6442,,0,15,15,39,1,REAL,FAKE,,,,,,,,,,,,,,,,,
,,,,,,,,,5c72f069cf5c4b000197cc30,Whatever is on Duolingo,younger than 13,"no, only English or Spanish",click here to respond,2025-08-10_15h57.21.113,empathy_intonation_perc_control,2024.2.4,Win32,60.24096386,5c72f069cf5c4b000197cc30,68817205a84113384fffdfe3,6898f9983e37eaba1d6c0492,,,,,,,,,,,,,1,,,,,,,,,,,,,,,,,,,,,,,,,,,,,,,,,,,,,69,engatusar,,,,,376.1075,377.3543,0,0,0.7179,,0,16,16,68,1,REAL,FAKE,,,,,,,,,,,,,,,,,
,,,,,,,,,5c72f069cf5c4b000197cc30,Whatever is on Duolingo,younger than 13,"no, only English or Spanish",click here to respond,2025-08-10_15h57.21.113,empathy_intonation_perc_control,2024.2.4,Win32,60.24096386,5c72f069cf5c4b000197cc30,68817205a84113384fffdfe3,6898f9983e37eaba1d6c0492,,,,,,,,,,,,,1,,,,,,,,,,,,,,,,,,,,,,,,,,,,,,,,,,,,,20,ávido,,,,,377.3554,379.1375,1,1,1.2557,,0,17,17,19,1,REAL,FAKE,,,,,,,,,,,,,,,,,
,,,,,,,,,5c72f069cf5c4b000197cc30,Whatever is on Duolingo,younger than 13,"no, only English or Spanish",click here to respond,2025-08-10_15h57.21.113,empathy_intonation_perc_control,2024.2.4,Win32,60.24096386,5c72f069cf5c4b000197cc30,68817205a84113384fffdfe3,6898f9983e37eaba1d6c0492,,,,,,,,,,,,,1,,,,,,,,,,,,,,,,,,,,,,,,,,,,,,,,,,,,,54,fomentar,,,,,379.1381,380.4377,0,0,0.769,,0,18,18,53,1,REAL,FAKE,,,,,,,,,,,,,,,,,
,,,,,,,,,5c72f069cf5c4b000197cc30,Whatever is on Duolingo,younger than 13,"no, only English or Spanish",click here to respond,2025-08-10_15h57.21.113,empathy_intonation_perc_control,2024.2.4,Win32,60.24096386,5c72f069cf5c4b000197cc30,68817205a84113384fffdfe3,6898f9983e37eaba1d6c0492,,,,,,,,,,,,,0,,,,,,,,,,,,,,,,,,,,,,,,,,,,,,,,,,,,,27,acutación,,,,,380.4386,381.4381,0,1,0.4647,,0,19,19,26,1,REAL,FAKE,,,,,,,,,,,,,,,,,
,,,,,,,,,5c72f069cf5c4b000197cc30,Whatever is on Duolingo,younger than 13,"no, only English or Spanish",click here to respond,2025-08-10_15h57.21.113,empathy_intonation_perc_control,2024.2.4,Win32,60.24096386,5c72f069cf5c4b000197cc30,68817205a84113384fffdfe3,6898f9983e37eaba1d6c0492,,,,,,,,,,,,,1,,,,,,,,,,,,,,,,,,,,,,,,,,,,,,,,,,,,,78,frondoso,,,,,381.4388,382.5043,0,0,0.5346,,0,20,20,77,1,REAL,FAKE,,,,,,,,,,,,,,,,,
,,,,,,,,,5c72f069cf5c4b000197cc30,Whatever is on Duolingo,younger than 13,"no, only English or Spanish",click here to respond,2025-08-10_15h57.21.113,empathy_intonation_perc_control,2024.2.4,Win32,60.24096386,5c72f069cf5c4b000197cc30,68817205a84113384fffdfe3,6898f9983e37eaba1d6c0492,,,,,,,,,,,,,1,,,,,,,,,,,,,,,,,,,,,,,,,,,,,,,,,,,,,89,prisa,,,,,382.5051,383.6403,0,0,0.6096,,0,21,21,88,1,REAL,FAKE,,,,,,,,,,,,,,,,,
,,,,,,,,,5c72f069cf5c4b000197cc30,Whatever is on Duolingo,younger than 13,"no, only English or Spanish",click here to respond,2025-08-10_15h57.21.113,empathy_intonation_perc_control,2024.2.4,Win32,60.24096386,5c72f069cf5c4b000197cc30,68817205a84113384fffdfe3,6898f9983e37eaba1d6c0492,,,,,,,,,,,,,0,,,,,,,,,,,,,,,,,,,,,,,,,,,,,,,,,,,,,32,fatacidad,,,,,383.6413,384.6544,0,1,0.4926,,0,22,22,31,1,REAL,FAKE,,,,,,,,,,,,,,,,,
,,,,,,,,,5c72f069cf5c4b000197cc30,Whatever is on Duolingo,younger than 13,"no, only English or Spanish",click here to respond,2025-08-10_15h57.21.113,empathy_intonation_perc_control,2024.2.4,Win32,60.24096386,5c72f069cf5c4b000197cc30,68817205a84113384fffdfe3,6898f9983e37eaba1d6c0492,,,,,,,,,,,,,1,,,,,,,,,,,,,,,,,,,,,,,,,,,,,,,,,,,,,46,martillo,,,,,384.6553,386.0395,1,1,0.8611,,0,23,23,45,1,REAL,FAKE,,,,,,,,,,,,,,,,,
,,,,,,,,,5c72f069cf5c4b000197cc30,Whatever is on Duolingo,younger than 13,"no, only English or Spanish",click here to respond,2025-08-10_15h57.21.113,empathy_intonation_perc_control,2024.2.4,Win32,60.24096386,5c72f069cf5c4b000197cc30,68817205a84113384fffdfe3,6898f9983e37eaba1d6c0492,,,,,,,,,,,,,0,,,,,,,,,,,,,,,,,,,,,,,,,,,,,,,,,,,,,53,vegada,,,,,386.0414,388.3881,0,1,1.815,,0,24,24,52,1,REAL,FAKE,,,,,,,,,,,,,,,,,
,,,,,,,,,5c72f069cf5c4b000197cc30,Whatever is on Duolingo,younger than 13,"no, only English or Spanish",click here to respond,2025-08-10_15h57.21.113,empathy_intonation_perc_control,2024.2.4,Win32,60.24096386,5c72f069cf5c4b000197cc30,68817205a84113384fffdfe3,6898f9983e37eaba1d6c0492,,,,,,,,,,,,,0,,,,,,,,,,,,,,,,,,,,,,,,,,,,,,,,,,,,,50,flamida,,,,,388.3889,389.5236,0,1,0.611,,0,25,25,49,1,REAL,FAKE,,,,,,,,,,,,,,,,,
,,,,,,,,,5c72f069cf5c4b000197cc30,Whatever is on Duolingo,younger than 13,"no, only English or Spanish",click here to respond,2025-08-10_15h57.21.113,empathy_intonation_perc_control,2024.2.4,Win32,60.24096386,5c72f069cf5c4b000197cc30,68817205a84113384fffdfe3,6898f9983e37eaba1d6c0492,,,,,,,,,,,,,1,,,,,,,,,,,,,,,,,,,,,,,,,,,,,,,,,,,,,91,click the 1 key.,,,,,389.5252,391.0047,1,1,0.9517,,0,26,26,90,1,REAL,FAKE,,,,,,,,,,,,,,,,,
,,,,,,,,,5c72f069cf5c4b000197cc30,Whatever is on Duolingo,younger than 13,"no, only English or Spanish",click here to respond,2025-08-10_15h57.21.113,empathy_intonation_perc_control,2024.2.4,Win32,60.24096386,5c72f069cf5c4b000197cc30,68817205a84113384fffdfe3,6898f9983e37eaba1d6c0492,,,,,,,,,,,,,0,,,,,,,,,,,,,,,,,,,,,,,,,,,,,,,,,,,,,47,cartinar,,,,,391.0054,392.8546,0,1,1.3257,,0,27,27,46,1,REAL,FAKE,,,,,,,,,,,,,,,,,
,,,,,,,,,5c72f069cf5c4b000197cc30,Whatever is on Duolingo,younger than 13,"no, only English or Spanish",click here to respond,2025-08-10_15h57.21.113,empathy_intonation_perc_control,2024.2.4,Win32,60.24096386,5c72f069cf5c4b000197cc30,68817205a84113384fffdfe3,6898f9983e37eaba1d6c0492,,,,,,,,,,,,,1,,,,,,,,,,,,,,,,,,,,,,,,,,,,,,,,,,,,,22,lacayo,,,,,392.8553,393.888,0,0,0.499,,0,28,28,21,1,REAL,FAKE,,,,,,,,,,,,,,,,,
,,,,,,,,,5c72f069cf5c4b000197cc30,Whatever is on Duolingo,younger than 13,"no, only English or Spanish",click here to respond,2025-08-10_15h57.21.113,empathy_intonation_perc_control,2024.2.4,Win32,60.24096386,5c72f069cf5c4b000197cc30,68817205a84113384fffdfe3,6898f9983e37eaba1d6c0492,,,,,,,,,,,,,0,,,,,,,,,,,,,,,,,,,,,,,,,,,,,,,,,,,,,66,hacido,,,,,393.8888,395.0236,0,1,0.6106,,0,29,29,65,1,REAL,FAKE,,,,,,,,,,,,,,,,,
,,,,,,,,,5c72f069cf5c4b000197cc30,Whatever is on Duolingo,younger than 13,"no, only English or Spanish",click here to respond,2025-08-10_15h57.21.113,empathy_intonation_perc_control,2024.2.4,Win32,60.24096386,5c72f069cf5c4b000197cc30,68817205a84113384fffdfe3,6898f9983e37eaba1d6c0492,,,,,,,,,,,,,0,,,,,,,,,,,,,,,,,,,,,,,,,,,,,,,,,,,,,79,tropaje,,,,,395.0243,396.0546,0,1,0.4991,,0,30,30,78,1,REAL,FAKE,,,,,,,,,,,,,,,,,
,,,,,,,,,5c72f069cf5c4b000197cc30,Whatever is on Duolingo,younger than 13,"no, only English or Spanish",click here to respond,2025-08-10_15h57.21.113,empathy_intonation_perc_control,2024.2.4,Win32,60.24096386,5c72f069cf5c4b000197cc30,68817205a84113384fffdfe3,6898f9983e37eaba1d6c0492,,,,,,,,,,,,,1,,,,,,,,,,,,,,,,,,,,,,,,,,,,,,,,,,,,,15,regar,,,,,396.0554,397.3213,0,0,0.7344,,0,31,31,14,1,REAL,FAKE,,,,,,,,,,,,,,,,,
,,,,,,,,,5c72f069cf5c4b000197cc30,Whatever is on Duolingo,younger than 13,"no, only English or Spanish",click here to respond,2025-08-10_15h57.21.113,empathy_intonation_perc_control,2024.2.4,Win32,60.24096386,5c72f069cf5c4b000197cc30,68817205a84113384fffdfe3,6898f9983e37eaba1d6c0492,,,,,,,,,,,,,0,,,,,,,,,,,,,,,,,,,,,,,,,,,,,,,,,,,,,72,pemición,,,,,397.3219,398.8072,0,1,0.9606,,0,32,32,71,1,REAL,FAKE,,,,,,,,,,,,,,,,,
,,,,,,,,,5c72f069cf5c4b000197cc30,Whatever is on Duolingo,younger than 13,"no, only English or Spanish",click here to respond,2025-08-10_15h57.21.113,empathy_intonation_perc_control,2024.2.4,Win32,60.24096386,5c72f069cf5c4b000197cc30,68817205a84113384fffdfe3,6898f9983e37eaba1d6c0492,,,,,,,,,,,,,0,,,,,,,,,,,,,,,,,,,,,,,,,,,,,,,,,,,,,10,antar,,,,,398.8085,400.3714,0,1,1.0377,,0,33,33,9,1,REAL,FAKE,,,,,,,,,,,,,,,,,
,,,,,,,,,5c72f069cf5c4b000197cc30,Whatever is on Duolingo,younger than 13,"no, only English or Spanish",click here to respond,2025-08-10_15h57.21.113,empathy_intonation_perc_control,2024.2.4,Win32,60.24096386,5c72f069cf5c4b000197cc30,68817205a84113384fffdfe3,6898f9983e37eaba1d6c0492,,,,,,,,,,,,,0,,,,,,,,,,,,,,,,,,,,,,,,,,,,,,,,,,,,,74,cintro,,,,,400.372,401.9883,0,1,1.0868,,0,34,34,73,1,REAL,FAKE,,,,,,,,,,,,,,,,,
,,,,,,,,,5c72f069cf5c4b000197cc30,Whatever is on Duolingo,younger than 13,"no, only English or Spanish",click here to respond,2025-08-10_15h57.21.113,empathy_intonation_perc_control,2024.2.4,Win32,60.24096386,5c72f069cf5c4b000197cc30,68817205a84113384fffdfe3,6898f9983e37eaba1d6c0492,,,,,,,,,,,,,0,,,,,,,,,,,,,,,,,,,,,,,,,,,,,,,,,,,,,30,alardio,,,,,401.989,403.088,0,1,0.5674,,0,35,35,29,1,REAL,FAKE,,,,,,,,,,,,,,,,,
,,,,,,,,,5c72f069cf5c4b000197cc30,Whatever is on Duolingo,younger than 13,"no, only English or Spanish",click here to respond,2025-08-10_15h57.21.113,empathy_intonation_perc_control,2024.2.4,Win32,60.24096386,5c72f069cf5c4b000197cc30,68817205a84113384fffdfe3,6898f9983e37eaba1d6c0492,,,,,,,,,,,,,1,,,,,,,,,,,,,,,,,,,,,,,,,,,,,,,,,,,,,13,helar,,,,,403.0887,404.1381,0,0,0.5247,,0,36,36,12,1,REAL,FAKE,,,,,,,,,,,,,,,,,
,,,,,,,,,5c72f069cf5c4b000197cc30,Whatever is on Duolingo,younger than 13,"no, only English or Spanish",click here to respond,2025-08-10_15h57.21.113,empathy_intonation_perc_control,2024.2.4,Win32,60.24096386,5c72f069cf5c4b000197cc30,68817205a84113384fffdfe3,6898f9983e37eaba1d6c0492,,,,,,,,,,,,,0,,,,,,,,,,,,,,,,,,,,,,,,,,,,,,,,,,,,,63,esposante,,,,,404.1389,405.7047,0,1,1.0393,,0,37,37,62,1,REAL,FAKE,,,,,,,,,,,,,,,,,
,,,,,,,,,5c72f069cf5c4b000197cc30,Whatever is on Duolingo,younger than 13,"no, only English or Spanish",click here to respond,2025-08-10_15h57.21.113,empathy_intonation_perc_control,2024.2.4,Win32,60.24096386,5c72f069cf5c4b000197cc30,68817205a84113384fffdfe3,6898f9983e37eaba1d6c0492,,,,,,,,,,,,,1,,,,,,,,,,,,,,,,,,,,,,,,,,,,,,,,,,,,,51,candado,,,,,405.7056,407.0716,1,1,0.8354,,0,38,38,50,1,REAL,FAKE,,,,,,,,,,,,,,,,,
,,,,,,,,,5c72f069cf5c4b000197cc30,Whatever is on Duolingo,younger than 13,"no, only English or Spanish",click here to respond,2025-08-10_15h57.21.113,empathy_intonation_perc_control,2024.2.4,Win32,60.24096386,5c72f069cf5c4b000197cc30,68817205a84113384fffdfe3,6898f9983e37eaba1d6c0492,,,,,,,,,,,,,0,,,,,,,,,,,,,,,,,,,,,,,,,,,,,,,,,,,,,17,floroso,,,,,407.0722,408.5049,0,1,0.9004,,0,39,39,16,1,REAL,FAKE,,,,,,,,,,,,,,,,,
,,,,,,,,,5c72f069cf5c4b000197cc30,Whatever is on Duolingo,younger than 13,"no, only English or Spanish",click here to respond,2025-08-10_15h57.21.113,empathy_intonation_perc_control,2024.2.4,Win32,60.24096386,5c72f069cf5c4b000197cc30,68817205a84113384fffdfe3,6898f9983e37eaba1d6c0492,,,,,,,,,,,,,1,,,,,,,,,,,,,,,,,,,,,,,,,,,,,,,,,,,,,12,asesinato,,,,,408.5056,409.5382,0,0,0.5068,,0,40,40,11,1,REAL,FAKE,,,,,,,,,,,,,,,,,
,,,,,,,,,5c72f069cf5c4b000197cc30,Whatever is on Duolingo,younger than 13,"no, only English or Spanish",click here to respond,2025-08-10_15h57.21.113,empathy_intonation_perc_control,2024.2.4,Win32,60.24096386,5c72f069cf5c4b000197cc30,68817205a84113384fffdfe3,6898f9983e37eaba1d6c0492,,,,,,,,,,,,,1,,,,,,,,,,,,,,,,,,,,,,,,,,,,,,,,,,,,,7,pésimo,,,,,409.539,410.9217,0,0,0.852,,0,41,41,6,1,REAL,FAKE,,,,,,,,,,,,,,,,,
,,,,,,,,,5c72f069cf5c4b000197cc30,Whatever is on Duolingo,younger than 13,"no, only English or Spanish",click here to respond,2025-08-10_15h57.21.113,empathy_intonation_perc_control,2024.2.4,Win32,60.24096386,5c72f069cf5c4b000197cc30,68817205a84113384fffdfe3,6898f9983e37eaba1d6c0492,,,,,,,,,,,,,1,,,,,,,,,,,,,,,,,,,,,,,,,,,,,,,,,,,,,56,musgo,,,,,410.9226,412.0552,0,0,0.6005,,0,42,42,55,1,REAL,FAKE,,,,,,,,,,,,,,,,,
,,,,,,,,,5c72f069cf5c4b000197cc30,Whatever is on Duolingo,younger than 13,"no, only English or Spanish",click here to respond,2025-08-10_15h57.21.113,empathy_intonation_perc_control,2024.2.4,Win32,60.24096386,5c72f069cf5c4b000197cc30,68817205a84113384fffdfe3,6898f9983e37eaba1d6c0492,,,,,,,,,,,,,1,,,,,,,,,,,,,,,,,,,,,,,,,,,,,,,,,,,,,85,laúd,,,,,412.0561,413.6217,0,0,1.0384,,0,43,43,84,1,REAL,FAKE,,,,,,,,,,,,,,,,,
,,,,,,,,,5c72f069cf5c4b000197cc30,Whatever is on Duolingo,younger than 13,"no, only English or Spanish",click here to respond,2025-08-10_15h57.21.113,empathy_intonation_perc_control,2024.2.4,Win32,60.24096386,5c72f069cf5c4b000197cc30,68817205a84113384fffdfe3,6898f9983e37eaba1d6c0492,,,,,,,,,,,,,0,,,,,,,,,,,,,,,,,,,,,,,,,,,,,,,,,,,,,18,arsa,,,,,413.6224,414.9218,0,1,0.769,,0,44,44,17,1,REAL,FAKE,,,,,,,,,,,,,,,,,
,,,,,,,,,5c72f069cf5c4b000197cc30,Whatever is on Duolingo,younger than 13,"no, only English or Spanish",click here to respond,2025-08-10_15h57.21.113,empathy_intonation_perc_control,2024.2.4,Win32,60.24096386,5c72f069cf5c4b000197cc30,68817205a84113384fffdfe3,6898f9983e37eaba1d6c0492,,,,,,,,,,,,,0,,,,,,,,,,,,,,,,,,,,,,,,,,,,,,,,,,,,,16,abracer,,,,,414.9225,416.4052,0,1,0.9546,,0,45,45,15,1,REAL,FAKE,,,,,,,,,,,,,,,,,
,,,,,,,,,5c72f069cf5c4b000197cc30,Whatever is on Duolingo,younger than 13,"no, only English or Spanish",click here to respond,2025-08-10_15h57.21.113,empathy_intonation_perc_control,2024.2.4,Win32,60.24096386,5c72f069cf5c4b000197cc30,68817205a84113384fffdfe3,6898f9983e37eaba1d6c0492,,,,,,,,,,,,,1,,,,,,,,,,,,,,,,,,,,,,,,,,,,,,,,,,,,,48,ladrón,,,,,416.4059,417.655,0,0,0.7235,,0,46,46,47,1,REAL,FAKE,,,,,,,,,,,,,,,,,
,,,,,,,,,5c72f069cf5c4b000197cc30,Whatever is on Duolingo,younger than 13,"no, only English or Spanish",click here to respond,2025-08-10_15h57.21.113,empathy_intonation_perc_control,2024.2.4,Win32,60.24096386,5c72f069cf5c4b000197cc30,68817205a84113384fffdfe3,6898f9983e37eaba1d6c0492,,,,,,,,,,,,,1,,,,,,,,,,,,,,,,,,,,,,,,,,,,,,,,,,,,,39,torpe,,,,,417.6556,419.0716,0,0,0.8829,,0,47,47,38,1,REAL,FAKE,,,,,,,,,,,,,,,,,
,,,,,,,,,5c72f069cf5c4b000197cc30,Whatever is on Duolingo,younger than 13,"no, only English or Spanish",click here to respond,2025-08-10_15h57.21.113,empathy_intonation_perc_control,2024.2.4,Win32,60.24096386,5c72f069cf5c4b000197cc30,68817205a84113384fffdfe3,6898f9983e37eaba1d6c0492,,,,,,,,,,,,,1,,,,,,,,,,,,,,,,,,,,,,,,,,,,,,,,,,,,,43,canela,,,,,419.0723,420.1908,0,0,0.5942,,0,48,48,42,1,REAL,FAKE,,,,,,,,,,,,,,,,,
,,,,,,,,,5c72f069cf5c4b000197cc30,Whatever is on Duolingo,younger than 13,"no, only English or Spanish",click here to respond,2025-08-10_15h57.21.113,empathy_intonation_perc_control,2024.2.4,Win32,60.24096386,5c72f069cf5c4b000197cc30,68817205a84113384fffdfe3,6898f9983e37eaba1d6c0492,,,,,,,,,,,,,1,,,,,,,,,,,,,,,,,,,,,,,,,,,,,,,,,,,,,44,cuchara,,,,,420.1917,421.2217,0,0,0.5003,,0,49,49,43,1,REAL,FAKE,,,,,,,,,,,,,,,,,
,,,,,,,,,5c72f069cf5c4b000197cc30,Whatever is on Duolingo,younger than 13,"no, only English or Spanish",click here to respond,2025-08-10_15h57.21.113,empathy_intonation_perc_control,2024.2.4,Win32,60.24096386,5c72f069cf5c4b000197cc30,68817205a84113384fffdfe3,6898f9983e37eaba1d6c0492,,,,,,,,,,,,,1,,,,,,,,,,,,,,,,,,,,,,,,,,,,,,,,,,,,,71,polvoriento,,,,,421.2224,422.9221,0,0,1.1663,,0,50,50,70,1,REAL,FAKE,,,,,,,,,,,,,,,,,
,,,,,,,,,5c72f069cf5c4b000197cc30,Whatever is on Duolingo,younger than 13,"no, only English or Spanish",click here to respond,2025-08-10_15h57.21.113,empathy_intonation_perc_control,2024.2.4,Win32,60.24096386,5c72f069cf5c4b000197cc30,68817205a84113384fffdfe3,6898f9983e37eaba1d6c0492,,,,,,,,,,,,,1,,,,,,,,,,,,,,,,,,,,,,,,,,,,,,,,,,,,,90,clavel,,,,,422.9228,424.7553,0,0,1.3044,,0,51,51,89,1,REAL,FAKE,,,,,,,,,,,,,,,,,
,,,,,,,,,5c72f069cf5c4b000197cc30,Whatever is on Duolingo,younger than 13,"no, only English or Spanish",click here to respond,2025-08-10_15h57.21.113,empathy_intonation_perc_control,2024.2.4,Win32,60.24096386,5c72f069cf5c4b000197cc30,68817205a84113384fffdfe3,6898f9983e37eaba1d6c0492,,,,,,,,,,,,,1,,,,,,,,,,,,,,,,,,,,,,,,,,,,,,,,,,,,,36,loro,,,,,424.7559,425.9053,1,1,0.6209,,0,52,52,35,1,REAL,FAKE,,,,,,,,,,,,,,,,,
,,,,,,,,,5c72f069cf5c4b000197cc30,Whatever is on Duolingo,younger than 13,"no, only English or Spanish",click here to respond,2025-08-10_15h57.21.113,empathy_intonation_perc_control,2024.2.4,Win32,60.24096386,5c72f069cf5c4b000197cc30,68817205a84113384fffdfe3,6898f9983e37eaba1d6c0492,,,,,,,,,,,,,1,,,,,,,,,,,,,,,,,,,,,,,,,,,,,,,,,,,,,55,nevar,,,,,425.9059,427.0887,0,0,0.6517,,0,53,53,54,1,REAL,FAKE,,,,,,,,,,,,,,,,,
,,,,,,,,,5c72f069cf5c4b000197cc30,Whatever is on Duolingo,younger than 13,"no, only English or Spanish",click here to respond,2025-08-10_15h57.21.113,empathy_intonation_perc_control,2024.2.4,Win32,60.24096386,5c72f069cf5c4b000197cc30,68817205a84113384fffdfe3,6898f9983e37eaba1d6c0492,,,,,,,,,,,,,1,,,,,,,,,,,,,,,,,,,,,,,,,,,,,,,,,,,,,31,pandilla,,,,,427.0894,428.2051,0,0,0.5899,,0,54,54,30,1,REAL,FAKE,,,,,,,,,,,,,,,,,
,,,,,,,,,5c72f069cf5c4b000197cc30,Whatever is on Duolingo,younger than 13,"no, only English or Spanish",click here to respond,2025-08-10_15h57.21.113,empathy_intonation_perc_control,2024.2.4,Win32,60.24096386,5c72f069cf5c4b000197cc30,68817205a84113384fffdfe3,6898f9983e37eaba1d6c0492,,,,,,,,,,,,,1,,,,,,,,,,,,,,,,,,,,,,,,,,,,,,,,,,,,,76,atar,,,,,428.2059,429.3385,0,0,0.6,,0,55,55,75,1,REAL,FAKE,,,,,,,,,,,,,,,,,
,,,,,,,,,5c72f069cf5c4b000197cc30,Whatever is on Duolingo,younger than 13,"no, only English or Spanish",click here to respond,2025-08-10_15h57.21.113,empathy_intonation_perc_control,2024.2.4,Win32,60.24096386,5c72f069cf5c4b000197cc30,68817205a84113384fffdfe3,6898f9983e37eaba1d6c0492,,,,,,,,,,,,,1,,,,,,,,,,,,,,,,,,,,,,,,,,,,,,,,,,,,,5,zapato,,,,,429.3392,430.8886,1,1,1.0166,,0,56,56,4,1,REAL,FAKE,,,,,,,,,,,,,,,,,
,,,,,,,,,5c72f069cf5c4b000197cc30,Whatever is on Duolingo,younger than 13,"no, only English or Spanish",click here to respond,2025-08-10_15h57.21.113,empathy_intonation_perc_control,2024.2.4,Win32,60.24096386,5c72f069cf5c4b000197cc30,68817205a84113384fffdfe3,6898f9983e37eaba1d6c0492,,,,,,,,,,,,,0,,,,,,,,,,,,,,,,,,,,,,,,,,,,,,,,,,,,,21,capillo,,,,,430.8893,432.0901,0,1,0.6927,,0,57,57,20,1,REAL,FAKE,,,,,,,,,,,,,,,,,
,,,,,,,,,5c72f069cf5c4b000197cc30,Whatever is on Duolingo,younger than 13,"no, only English or Spanish",click here to respond,2025-08-10_15h57.21.113,empathy_intonation_perc_control,2024.2.4,Win32,60.24096386,5c72f069cf5c4b000197cc30,68817205a84113384fffdfe3,6898f9983e37eaba1d6c0492,,,,,,,,,,,,,1,,,,,,,,,,,,,,,,,,,,,,,,,,,,,,,,,,,,,81,pozo,,,,,432.0917,433.272,0,0,0.6532,,0,58,58,80,1,REAL,FAKE,,,,,,,,,,,,,,,,,
,,,,,,,,,5c72f069cf5c4b000197cc30,Whatever is on Duolingo,younger than 13,"no, only English or Spanish",click here to respond,2025-08-10_15h57.21.113,empathy_intonation_perc_control,2024.2.4,Win32,60.24096386,5c72f069cf5c4b000197cc30,68817205a84113384fffdfe3,6898f9983e37eaba1d6c0492,,,,,,,,,,,,,1,,,,,,,,,,,,,,,,,,,,,,,,,,,,,,,,,,,,,3,pulmones,,,,,433.2728,434.2725,0,0,0.4704,,0,59,59,2,1,REAL,FAKE,,,,,,,,,,,,,,,,,
,,,,,,,,,5c72f069cf5c4b000197cc30,Whatever is on Duolingo,younger than 13,"no, only English or Spanish",click here to respond,2025-08-10_15h57.21.113,empathy_intonation_perc_control,2024.2.4,Win32,60.24096386,5c72f069cf5c4b000197cc30,68817205a84113384fffdfe3,6898f9983e37eaba1d6c0492,,,,,,,,,,,,,0,,,,,,,,,,,,,,,,,,,,,,,,,,,,,,,,,,,,,84,escuto,,,,,434.2731,435.322,0,1,0.5233,,0,60,60,83,1,REAL,FAKE,,,,,,,,,,,,,,,,,
,,,,,,,,,5c72f069cf5c4b000197cc30,Whatever is on Duolingo,younger than 13,"no, only English or Spanish",click here to respond,2025-08-10_15h57.21.113,empathy_intonation_perc_control,2024.2.4,Win32,60.24096386,5c72f069cf5c4b000197cc30,68817205a84113384fffdfe3,6898f9983e37eaba1d6c0492,,,,,,,,,,,,,1,,,,,,,,,,,,,,,,,,,,,,,,,,,,,,,,,,,,,6,tergiversar,,,,,435.3226,436.3554,0,0,0.5154,,0,61,61,5,1,REAL,FAKE,,,,,,,,,,,,,,,,,
,,,,,,,,,5c72f069cf5c4b000197cc30,Whatever is on Duolingo,younger than 13,"no, only English or Spanish",click here to respond,2025-08-10_15h57.21.113,empathy_intonation_perc_control,2024.2.4,Win32,60.24096386,5c72f069cf5c4b000197cc30,68817205a84113384fffdfe3,6898f9983e37eaba1d6c0492,,,,,,,,,,,,,0,,,,,,,,,,,,,,,,,,,,,,,,,,,,,,,,,,,,,92,click the 0 key.,,,,,436.3561,437.7753,0,1,0.9121,,0,62,62,91,1,REAL,FAKE,,,,,,,,,,,,,,,,,
,,,,,,,,,5c72f069cf5c4b000197cc30,Whatever is on Duolingo,younger than 13,"no, only English or Spanish",click here to respond,2025-08-10_15h57.21.113,empathy_intonation_perc_control,2024.2.4,Win32,60.24096386,5c72f069cf5c4b000197cc30,68817205a84113384fffdfe3,6898f9983e37eaba1d6c0492,,,,,,,,,,,,,1,,,,,,,,,,,,,,,,,,,,,,,,,,,,,,,,,,,,,68,alegre,,,,,437.7761,439.1054,1,1,0.806,,0,63,63,67,1,REAL,FAKE,,,,,,,,,,,,,,,,,
,,,,,,,,,5c72f069cf5c4b000197cc30,Whatever is on Duolingo,younger than 13,"no, only English or Spanish",click here to respond,2025-08-10_15h57.21.113,empathy_intonation_perc_control,2024.2.4,Win32,60.24096386,5c72f069cf5c4b000197cc30,68817205a84113384fffdfe3,6898f9983e37eaba1d6c0492,,,,,,,,,,,,,1,,,,,,,,,,,,,,,,,,,,,,,,,,,,,,,,,,,,,73,hervidor,,,,,439.1061,440.4888,0,0,0.8514,,0,64,64,72,1,REAL,FAKE,,,,,,,,,,,,,,,,,
,,,,,,,,,5c72f069cf5c4b000197cc30,Whatever is on Duolingo,younger than 13,"no, only English or Spanish",click here to respond,2025-08-10_15h57.21.113,empathy_intonation_perc_control,2024.2.4,Win32,60.24096386,5c72f069cf5c4b000197cc30,68817205a84113384fffdfe3,6898f9983e37eaba1d6c0492,,,,,,,,,,,,,1,,,,,,,,,,,,,,,,,,,,,,,,,,,,,,,,,,,,,34,aviso,,,,,440.4895,441.609,0,0,0.5952,,0,65,65,33,1,REAL,FAKE,,,,,,,,,,,,,,,,,
,,,,,,,,,5c72f069cf5c4b000197cc30,Whatever is on Duolingo,younger than 13,"no, only English or Spanish",click here to respond,2025-08-10_15h57.21.113,empathy_intonation_perc_control,2024.2.4,Win32,60.24096386,5c72f069cf5c4b000197cc30,68817205a84113384fffdfe3,6898f9983e37eaba1d6c0492,,,,,,,,,,,,,1,,,,,,,,,,,,,,,,,,,,,,,,,,,,,,,,,,,,,86,barato,,,,,441.6098,442.8889,1,1,0.7497,,0,66,66,85,1,REAL,FAKE,,,,,,,,,,,,,,,,,
,,,,,,,,,5c72f069cf5c4b000197cc30,Whatever is on Duolingo,younger than 13,"no, only English or Spanish",click here to respond,2025-08-10_15h57.21.113,empathy_intonation_perc_control,2024.2.4,Win32,60.24096386,5c72f069cf5c4b000197cc30,68817205a84113384fffdfe3,6898f9983e37eaba1d6c0492,,,,,,,,,,,,,0,,,,,,,,,,,,,,,,,,,,,,,,,,,,,,,,,,,,,33,pauca,,,,,442.8895,443.9557,0,1,0.5336,,0,67,67,32,1,REAL,FAKE,,,,,,,,,,,,,,,,,
,,,,,,,,,5c72f069cf5c4b000197cc30,Whatever is on Duolingo,younger than 13,"no, only English or Spanish",click here to respond,2025-08-10_15h57.21.113,empathy_intonation_perc_control,2024.2.4,Win32,60.24096386,5c72f069cf5c4b000197cc30,68817205a84113384fffdfe3,6898f9983e37eaba1d6c0492,,,,,,,,,,,,,1,,,,,,,,,,,,,,,,,,,,,,,,,,,,,,,,,,,,,59,besar,,,,,443.9564,445.4556,1,1,0.9687,,0,68,68,58,1,REAL,FAKE,,,,,,,,,,,,,,,,,
,,,,,,,,,5c72f069cf5c4b000197cc30,Whatever is on Duolingo,younger than 13,"no, only English or Spanish",click here to respond,2025-08-10_15h57.21.113,empathy_intonation_perc_control,2024.2.4,Win32,60.24096386,5c72f069cf5c4b000197cc30,68817205a84113384fffdfe3,6898f9983e37eaba1d6c0492,,,,,,,,,,,,,1,,,,,,,,,,,,,,,,,,,,,,,,,,,,,,,,,,,,,25,bisagra,,,,,445.4563,446.5888,0,0,0.6236,,0,69,69,24,1,REAL,FAKE,,,,,,,,,,,,,,,,,
,,,,,,,,,5c72f069cf5c4b000197cc30,Whatever is on Duolingo,younger than 13,"no, only English or Spanish",click here to respond,2025-08-10_15h57.21.113,empathy_intonation_perc_control,2024.2.4,Win32,60.24096386,5c72f069cf5c4b000197cc30,68817205a84113384fffdfe3,6898f9983e37eaba1d6c0492,,,,,,,,,,,,,1,,,,,,,,,,,,,,,,,,,,,,,,,,,,,,,,,,,,,83,guante,,,,,446.5895,447.8055,0,0,0.69,,0,70,70,82,1,REAL,FAKE,,,,,,,,,,,,,,,,,
,,,,,,,,,5c72f069cf5c4b000197cc30,Whatever is on Duolingo,younger than 13,"no, only English or Spanish",click here to respond,2025-08-10_15h57.21.113,empathy_intonation_perc_control,2024.2.4,Win32,60.24096386,5c72f069cf5c4b000197cc30,68817205a84113384fffdfe3,6898f9983e37eaba1d6c0492,,,,,,,,,,,,,1,,,,,,,,,,,,,,,,,,,,,,,,,,,,,,,,,,,,,14,yunque,,,,,447.8063,448.8255,0,0,0.4962,,0,71,71,13,1,REAL,FAKE,,,,,,,,,,,,,,,,,
,,,,,,,,,5c72f069cf5c4b000197cc30,Whatever is on Duolingo,younger than 13,"no, only English or Spanish",click here to respond,2025-08-10_15h57.21.113,empathy_intonation_perc_control,2024.2.4,Win32,60.24096386,5c72f069cf5c4b000197cc30,68817205a84113384fffdfe3,6898f9983e37eaba1d6c0492,,,,,,,,,,,,,1,,,,,,,,,,,,,,,,,,,,,,,,,,,,,,,,,,,,,80,hormiga,,,,,448.8263,449.9555,0,0,0.5993,,0,72,72,79,1,REAL,FAKE,,,,,,,,,,,,,,,,,
,,,,,,,,,5c72f069cf5c4b000197cc30,Whatever is on Duolingo,younger than 13,"no, only English or Spanish",click here to respond,2025-08-10_15h57.21.113,empathy_intonation_perc_control,2024.2.4,Win32,60.24096386,5c72f069cf5c4b000197cc30,68817205a84113384fffdfe3,6898f9983e37eaba1d6c0492,,,,,,,,,,,,,0,,,,,,,,,,,,,,,,,,,,,,,,,,,,,,,,,,,,,19,brecedad,,,,,449.9563,451.2889,0,1,0.8237,,0,73,73,18,1,REAL,FAKE,,,,,,,,,,,,,,,,,
,,,,,,,,,5c72f069cf5c4b000197cc30,Whatever is on Duolingo,younger than 13,"no, only English or Spanish",click here to respond,2025-08-10_15h57.21.113,empathy_intonation_perc_control,2024.2.4,Win32,60.24096386,5c72f069cf5c4b000197cc30,68817205a84113384fffdfe3,6898f9983e37eaba1d6c0492,,,,,,,,,,,,,1,,,,,,,,,,,,,,,,,,,,,,,,,,,,,,,,,,,,,64,orgulloso,,,,,451.2895,452.4059,0,0,0.6036,,0,74,74,63,1,REAL,FAKE,,,,,,,,,,,,,,,,,
,,,,,,,,,5c72f069cf5c4b000197cc30,Whatever is on Duolingo,younger than 13,"no, only English or Spanish",click here to respond,2025-08-10_15h57.21.113,empathy_intonation_perc_control,2024.2.4,Win32,60.24096386,5c72f069cf5c4b000197cc30,68817205a84113384fffdfe3,6898f9983e37eaba1d6c0492,,,,,,,,,,,,,1,,,,,,,,,,,,,,,,,,,,,,,,,,,,,,,,,,,,,11,cenefa,,,,,452.4064,454.5725,0,0,1.6431,,0,75,75,10,1,REAL,FAKE,,,,,,,,,,,,,,,,,
,,,,,,,,,5c72f069cf5c4b000197cc30,Whatever is on Duolingo,younger than 13,"no, only English or Spanish",click here to respond,2025-08-10_15h57.21.113,empathy_intonation_perc_control,2024.2.4,Win32,60.24096386,5c72f069cf5c4b000197cc30,68817205a84113384fffdfe3,6898f9983e37eaba1d6c0492,,,,,,,,,,,,,1,,,,,,,,,,,,,,,,,,,,,,,,,,,,,,,,,,,,,26,secuestro,,,,,454.5739,455.8057,0,0,0.7016,,0,76,76,25,1,REAL,FAKE,,,,,,,,,,,,,,,,,
,,,,,,,,,5c72f069cf5c4b000197cc30,Whatever is on Duolingo,younger than 13,"no, only English or Spanish",click here to respond,2025-08-10_15h57.21.113,empathy_intonation_perc_control,2024.2.4,Win32,60.24096386,5c72f069cf5c4b000197cc30,68817205a84113384fffdfe3,6898f9983e37eaba1d6c0492,,,,,,,,,,,,,1,,,,,,,,,,,,,,,,,,,,,,,,,,,,,,,,,,,,,41,rebuscar,,,,,455.8064,457.0226,0,0,0.6846,,0,77,77,40,1,REAL,FAKE,,,,,,,,,,,,,,,,,
,,,,,,,,,5c72f069cf5c4b000197cc30,Whatever is on Duolingo,younger than 13,"no, only English or Spanish",click here to respond,2025-08-10_15h57.21.113,empathy_intonation_perc_control,2024.2.4,Win32,60.24096386,5c72f069cf5c4b000197cc30,68817205a84113384fffdfe3,6898f9983e37eaba1d6c0492,,,,,,,,,,,,,1,,,,,,,,,,,,,,,,,,,,,,,,,,,,,,,,,,,,,57,tacaño,,,,,457.0236,460.5561,1,1,3.0041,,0,78,78,56,1,REAL,FAKE,,,,,,,,,,,,,,,,,
,,,,,,,,,5c72f069cf5c4b000197cc30,Whatever is on Duolingo,younger than 13,"no, only English or Spanish",click here to respond,2025-08-10_15h57.21.113,empathy_intonation_perc_control,2024.2.4,Win32,60.24096386,5c72f069cf5c4b000197cc30,68817205a84113384fffdfe3,6898f9983e37eaba1d6c0492,,,,,,,,,,,,,0,,,,,,,,,,,,,,,,,,,,,,,,,,,,,,,,,,,,,42,cadallo,,,,,460.5568,461.6894,0,1,0.6049,,0,79,79,41,1,REAL,FAKE,,,,,,,,,,,,,,,,,
,,,,,,,,,5c72f069cf5c4b000197cc30,Whatever is on Duolingo,younger than 13,"no, only English or Spanish",click here to respond,2025-08-10_15h57.21.113,empathy_intonation_perc_control,2024.2.4,Win32,60.24096386,5c72f069cf5c4b000197cc30,68817205a84113384fffdfe3,6898f9983e37eaba1d6c0492,,,,,,,,,,,,,1,,,,,,,,,,,,,,,,,,,,,,,,,,,,,,,,,,,,,61,seda,,,,,461.6903,462.9064,1,1,0.6842,,0,80,80,60,1,REAL,FAKE,,,,,,,,,,,,,,,,,
,,,,,,,,,5c72f069cf5c4b000197cc30,Whatever is on Duolingo,younger than 13,"no, only English or Spanish",click here to respond,2025-08-10_15h57.21.113,empathy_intonation_perc_control,2024.2.4,Win32,60.24096386,5c72f069cf5c4b000197cc30,68817205a84113384fffdfe3,6898f9983e37eaba1d6c0492,,,,,,,,,,,,,0,,,,,,,,,,,,,,,,,,,,,,,,,,,,,,,,,,,,,35,rompido,,,,,462.9072,463.956,0,1,0.5173,,0,81,81,34,1,REAL,FAKE,,,,,,,,,,,,,,,,,
,,,,,,,,,5c72f069cf5c4b000197cc30,Whatever is on Duolingo,younger than 13,"no, only English or Spanish",click here to respond,2025-08-10_15h57.21.113,empathy_intonation_perc_control,2024.2.4,Win32,60.24096386,5c72f069cf5c4b000197cc30,68817205a84113384fffdfe3,6898f9983e37eaba1d6c0492,,,,,,,,,,,,,1,,,,,,,,,,,,,,,,,,,,,,,,,,,,,,,,,,,,,37,granuja,,,,,463.9567,465.0062,0,0,0.518,,0,82,82,36,1,REAL,FAKE,,,,,,,,,,,,,,,,,
,,,,,,,,,5c72f069cf5c4b000197cc30,Whatever is on Duolingo,younger than 13,"no, only English or Spanish",click here to respond,2025-08-10_15h57.21.113,empathy_intonation_perc_control,2024.2.4,Win32,60.24096386,5c72f069cf5c4b000197cc30,68817205a84113384fffdfe3,6898f9983e37eaba1d6c0492,,,,,,,,,,,,,0,,,,,,,,,,,,,,,,,,,,,,,,,,,,,,,,,,,,,82,empirador,,,,,465.007,466.2394,0,1,0.7069,,0,83,83,81,1,REAL,FAKE,,,,,,,,,,,,,,,,,
,,,,,,,,,5c72f069cf5c4b000197cc30,Whatever is on Duolingo,younger than 13,"no, only English or Spanish",click here to respond,2025-08-10_15h57.21.113,empathy_intonation_perc_control,2024.2.4,Win32,60.24096386,5c72f069cf5c4b000197cc30,68817205a84113384fffdfe3,6898f9983e37eaba1d6c0492,,,,,,,,,,,,,0,,,,,,,,,,,,,,,,,,,,,,,,,,,,,,,,,,,,,29,decar,,,,,466.24,467.706,0,1,0.9297,,0,84,84,28,1,REAL,FAKE,,,,,,,,,,,,,,,,,
,,,,,,,,,5c72f069cf5c4b000197cc30,Whatever is on Duolingo,younger than 13,"no, only English or Spanish",click here to respond,2025-08-10_15h57.21.113,empathy_intonation_perc_control,2024.2.4,Win32,60.24096386,5c72f069cf5c4b000197cc30,68817205a84113384fffdfe3,6898f9983e37eaba1d6c0492,,,,,,,,,,,,,0,,,,,,,,,,,,,,,,,,,,,,,,,,,,,,,,,,,,,8,cadeña,,,,,467.7067,469.0228,0,1,0.7828,,0,85,85,7,1,REAL,FAKE,,,,,,,,,,,,,,,,,
,,,,,,,,,5c72f069cf5c4b000197cc30,Whatever is on Duolingo,younger than 13,"no, only English or Spanish",click here to respond,2025-08-10_15h57.21.113,empathy_intonation_perc_control,2024.2.4,Win32,60.24096386,5c72f069cf5c4b000197cc30,68817205a84113384fffdfe3,6898f9983e37eaba1d6c0492,,,,,,,,,,,,,1,,,,,,,,,,,,,,,,,,,,,,,,,,,,,,,,,,,,,38,estornudar,,,,,469.0236,470.0061,0,0,0.447,,0,86,86,37,1,REAL,FAKE,,,,,,,,,,,,,,,,,
,,,,,,,,,5c72f069cf5c4b000197cc30,Whatever is on Duolingo,younger than 13,"no, only English or Spanish",click here to respond,2025-08-10_15h57.21.113,empathy_intonation_perc_control,2024.2.4,Win32,60.24096386,5c72f069cf5c4b000197cc30,68817205a84113384fffdfe3,6898f9983e37eaba1d6c0492,,,,,,,,,,,,,0,,,,,,,,,,,,,,,,,,,,,,,,,,,,,,,,,,,,,1,terzo,,,,,470.0068,470.9895,0,1,0.454,,0,87,87,0,1,REAL,FAKE,,,,,,,,,,,,,,,,,
,,,,,,,,,5c72f069cf5c4b000197cc30,Whatever is on Duolingo,younger than 13,"no, only English or Spanish",click here to respond,2025-08-10_15h57.21.113,empathy_intonation_perc_control,2024.2.4,Win32,60.24096386,5c72f069cf5c4b000197cc30,68817205a84113384fffdfe3,6898f9983e37eaba1d6c0492,,,,,,,,,,,,,1,,,,,,,,,,,,,,,,,,,,,,,,,,,,,,,,,,,,,75,yacer,,,,,470.9901,471.9399,0,0,0.4395,,0,88,88,74,1,REAL,FAKE,,,,,,,,,,,,,,,,,
,,,,,,,,,5c72f069cf5c4b000197cc30,Whatever is on Duolingo,younger than 13,"no, only English or Spanish",click here to respond,2025-08-10_15h57.21.113,empathy_intonation_perc_control,2024.2.4,Win32,60.24096386,5c72f069cf5c4b000197cc30,68817205a84113384fffdfe3,6898f9983e37eaba1d6c0492,,,,,,,,,,,,,0,,,,,,,,,,,,,,,,,,,,,,,,,,,,,,,,,,,,,23,lampera,,,,,471.9413,472.9232,0,1,0.4485,,0,89,89,22,1,REAL,FAKE,,,,,,,,,,,,,,,,,
,,,,,,,,,5c72f069cf5c4b000197cc30,Whatever is on Duolingo,younger than 13,"no, only English or Spanish",click here to respond,2025-08-10_15h57.21.113,empathy_intonation_perc_control,2024.2.4,Win32,60.24096386,5c72f069cf5c4b000197cc30,68817205a84113384fffdfe3,6898f9983e37eaba1d6c0492,,,,,,,,,,,,,1,,,,,,,,,,,,,,,,,,,,,,,,,,,,,,,,,,,,,49,ganar,,,,,472.9239,474.0896,0,0,0.64,,0,90,90,48,1,REAL,FAKE,,,,,,,,,,,,,,,,,
,,,,,,,,,5c72f069cf5c4b000197cc30,Whatever is on Duolingo,younger than 13,"no, only English or Spanish",click here to respond,2025-08-10_15h57.21.113,empathy_intonation_perc_control,2024.2.4,Win32,60.24096386,5c72f069cf5c4b000197cc30,68817205a84113384fffdfe3,6898f9983e37eaba1d6c0492,,,,,,,,,,,,,1,,,,,,,,,,,,,,,,,,,,,,,,,,,,,,,,,,,,,28,merodear,,,,,474.0903,475.2062,0,0,0.582,,0,91,91,27,1,REAL,FAKE,,,,,,,,,,,,,,,,,
,,,,,,,,,5c72f069cf5c4b000197cc30,Whatever is on Duolingo,younger than 13,"no, only English or Spanish",click here to respond,2025-08-10_15h57.21.113,empathy_intonation_perc_control,2024.2.4,Win32,60.24096386,5c72f069cf5c4b000197cc30,68817205a84113384fffdfe3,6898f9983e37eaba1d6c0492,,,,,,,,,,,,,,,,,,,,,,,,,,,,,,,,,,,,,,,,,,,,,,,,,,,,,,,,,,,,,,,,,,,,,475.2065,512.0904,,,,,,,,,,,,,,,
,,,,,,,,,5c72f069cf5c4b000197cc30,Whatever is on Duolingo,younger than 13,"no, only English or Spanish",click here to respond,2025-08-10_15h57.21.113,empathy_intonation_perc_control,2024.2.4,Win32,60.24096386,5c72f069cf5c4b000197cc30,68817205a84113384fffdfe3,6898f9983e37eaba1d6c0492,,,,,,,,,,,,,,,,,,,,,,,,,,,1,,,,,,,,,,,,,,,,,,,,,,,,,,,,,,,,,,,,,,,,,,,,512.1013,517.8908,slightly agree,0,0,0,0,1,I can easily tell if someone else wants to enter a conversation.,1,0,1,0,,
,,,,,,,,,5c72f069cf5c4b000197cc30,Whatever is on Duolingo,younger than 13,"no, only English or Spanish",click here to respond,2025-08-10_15h57.21.113,empathy_intonation_perc_control,2024.2.4,Win32,60.24096386,5c72f069cf5c4b000197cc30,68817205a84113384fffdfe3,6898f9983e37eaba1d6c0492,,,,,,,,,,,,,,,,,,,,,,,,,,,2,,,,,,,,,,,,,,,,,,,,,,,,,,,,,,,,,,,,,,,,,,,,517.8935,520.2072,slightly agree,0,1,1,1,1,I prefer animals to humans.,0,1,0,0,,
,,,,,,,,,5c72f069cf5c4b000197cc30,Whatever is on Duolingo,younger than 13,"no, only English or Spanish",click here to respond,2025-08-10_15h57.21.113,empathy_intonation_perc_control,2024.2.4,Win32,60.24096386,5c72f069cf5c4b000197cc30,68817205a84113384fffdfe3,6898f9983e37eaba1d6c0492,,,,,,,,,,,,,,,,,,,,,,,,,,,3,,,,,,,,,,,,,,,,,,,,,,,,,,,,,,,,,,,,,,,,,,,,520.2092,522.4404,slightly disagree,0,2,2,2,1,I try to keep up with the current trends and fashions.,0,1,0,0,,
,,,,,,,,,5c72f069cf5c4b000197cc30,Whatever is on Duolingo,younger than 13,"no, only English or Spanish",click here to respond,2025-08-10_15h57.21.113,empathy_intonation_perc_control,2024.2.4,Win32,60.24096386,5c72f069cf5c4b000197cc30,68817205a84113384fffdfe3,6898f9983e37eaba1d6c0492,,,,,,,,,,,,,,,,,,,,,,,,,,,4,,,,,,,,,,,,,,,,,,,,,,,,,,,,,,,,,,,,,,,,,,,,522.4434,525.6739,slightly agree,0,3,3,3,1,"I find it difficult to explain to others things that I understand easily,   when they don't understand it first time.",1,0,0,1,,
,,,,,,,,,5c72f069cf5c4b000197cc30,Whatever is on Duolingo,younger than 13,"no, only English or Spanish",click here to respond,2025-08-10_15h57.21.113,empathy_intonation_perc_control,2024.2.4,Win32,60.24096386,5c72f069cf5c4b000197cc30,68817205a84113384fffdfe3,6898f9983e37eaba1d6c0492,,,,,,,,,,,,,,,,,,,,,,,,,,,5,,,,,,,,,,,,,,,,,,,,,,,,,,,,,,,,,,,,,,,,,,,,525.6747,528.107,strongly agree,0,4,4,4,1,I dream most nights.,0,1,0,0,,
,,,,,,,,,5c72f069cf5c4b000197cc30,Whatever is on Duolingo,younger than 13,"no, only English or Spanish",click here to respond,2025-08-10_15h57.21.113,empathy_intonation_perc_control,2024.2.4,Win32,60.24096386,5c72f069cf5c4b000197cc30,68817205a84113384fffdfe3,6898f9983e37eaba1d6c0492,,,,,,,,,,,,,,,,,,,,,,,,,,,6,,,,,,,,,,,,,,,,,,,,,,,,,,,,,,,,,,,,,,,,,,,,528.1086,530.1239,slightly agree,0,5,5,5,1,I really enjoy caring for other people.,1,0,1,0,,
