instructions_2afc.started,instructions_2afc.stopped,instructions_2afc_loop.thisRepN,instructions_2afc_loop.thisTrialN,instructions_2afc_loop.thisN,instructions_2afc_loop.thisIndex,instructions_2afc_loop.ran,instructions_text,continue_text,participant_id,"What variety of Spanish are you most familiar with? (e.g., Peruvian, Spanish, Mexican)",At what age did you begin learning Spanish?,Are you proficient in any languages other than English/Spanish?,"Are you familiar with Caribbean (e.g., Caribbean, Puerto Rican) or Galician Spanish?",date,expName,psychopyVersion,OS,frameRate,id,study_id,session,practice_2afc.started,practice_2afc.stopped,key_resp_2afc_practice.keys,key_resp_2afc_practice.corr,key_resp_2afc_practice.rt,key_resp_2afc_practice.duration,trials_2afc_practice_loop.thisRepN,trials_2afc_practice_loop.thisTrialN,trials_2afc_practice_loop.thisN,trials_2afc_practice_loop.thisIndex,trials_2afc_practice_loop.ran,path,correct_response,check_2afc.started,check_2afc.stopped,trial_2afc.started,trial_2afc.stopped,key_resp_2afc_trial.keys,key_resp_2afc_trial.corr,key_resp_2afc_trial.rt,key_resp_2afc_trial.duration,trials_2afc_loop.thisRepN,trials_2afc_loop.thisTrialN,trials_2afc_loop.thisN,trials_2afc_loop.thisIndex,trials_2afc_loop.ran,item_num,target,variety,instructions_lextale.started,instructions_lextale.stopped,instructions_lextale_loop.thisRepN,instructions_lextale_loop.thisTrialN,instructions_lextale_loop.thisN,instructions_lextale_loop.thisIndex,instructions_lextale_loop.ran,practice_lextale.started,practice_lextale.stopped,key_resp_lextale_practice.keys,key_resp_lextale_practice.corr,key_resp_lextale_practice.rt,key_resp_lextale_practice.duration,practice_feedback_lextale.started,practice_feedback_lextale.stopped,trials_lextale_practice_loop.thisRepN,trials_lextale_practice_loop.thisTrialN,trials_lextale_practice_loop.thisN,trials_lextale_practice_loop.thisIndex,trials_lextale_practice_loop.ran,stim,word,prac_button_real,prac_button_false,check_lextale.started,check_lextale.stopped,trial_lextale.started,trial_lextale.stopped,key_resp_lextale_trial.keys,key_resp_lextale_trial.corr,key_resp_lextale_trial.rt,key_resp_lextale_trial.duration,trials_lextale_loop.thisRepN,trials_lextale_loop.thisTrialN,trials_lextale_loop.thisN,trials_lextale_loop.thisIndex,trials_lextale_loop.ran,button_real,button_false,instructions_eq.started,instructions_eq.stopped,trial_eq.started,trial_eq.stopped,slider_eq_trial.response,trials_eq_loop.thisRepN,trials_eq_loop.thisTrialN,trials_eq_loop.thisN,trials_eq_loop.thisIndex,trials_eq_loop.ran,item,is_test_item,is_distractor,is_agree_score,is_disagree_score,end_exp.started,end_exp.stopped
0.0334,3.2736,0,0,0,0,1,"In the following task you are going to hear a series of utterances. 

  You will decide if the utterances sound like questions or not using your keyboard.", (press the spacebar to continue),5c7c73b6f48c6d0001f6f49c,Dominican Republic,younger than 13,"no, only English or Spanish",yes,2026-01-21_15h21.48.655,empathy_intonation_perc_control,2024.2.4,Win32,60.24096386,5c7c73b6f48c6d0001f6f49c,69712dc693a3960bdb483245,697134dcfbd6b5407e3cc5a3,,,,,,,,,,,,,,,,,,,,,,,,,,,,,,,,,,,,,,,,,,,,,,,,,,,,,,,,,,,,,,,,,,,,,,,,,,,,,,,,,,,,,
3.2747,9.3297,0,1,1,1,1,"If you believe the utterance is a question, type '1' (for 'yes') and if you do not 
  believe it is a question type '0' (for 'no').

  Let's practice a bit...", (press the spacebar to continue),5c7c73b6f48c6d0001f6f49c,Dominican Republic,younger than 13,"no, only English or Spanish",yes,2026-01-21_15h21.48.655,empathy_intonation_perc_control,2024.2.4,Win32,60.24096386,5c7c73b6f48c6d0001f6f49c,69712dc693a3960bdb483245,697134dcfbd6b5407e3cc5a3,,,,,,,,,,,,,,,,,,,,,,,,,,,,,,,,,,,,,,,,,,,,,,,,,,,,,,,,,,,,,,,,,,,,,,,,,,,,,,,,,,,,,
,,,,,,,,,5c7c73b6f48c6d0001f6f49c,Dominican Republic,younger than 13,"no, only English or Spanish",yes,2026-01-21_15h21.48.655,empathy_intonation_perc_control,2024.2.4,Win32,60.24096386,5c7c73b6f48c6d0001f6f49c,69712dc693a3960bdb483245,697134dcfbd6b5407e3cc5a3,9.3513,12.976,0,1,3.1007,,0,0,0,7,1,./stim/wavs/puertorican_statement_filler_La-nina-pinta-con-su-amiga.wav,0,,,,,,,,,,,,,,,,,,,,,,,,,,,,,,,,,,,,,,,,,,,,,,,,,,,,,,,,,,,,,,,,,,,,,,,,
,,,,,,,,,5c7c73b6f48c6d0001f6f49c,Dominican Republic,younger than 13,"no, only English or Spanish",yes,2026-01-21_15h21.48.655,empathy_intonation_perc_control,2024.2.4,Win32,60.24096386,5c7c73b6f48c6d0001f6f49c,69712dc693a3960bdb483245,697134dcfbd6b5407e3cc5a3,12.9771,15.8967,1,1,2.3992,,0,1,1,1,1,./stim/wavs/argentine_question_filler_Mi-vecino-habla-mucho.wav,1,,,,,,,,,,,,,,,,,,,,,,,,,,,,,,,,,,,,,,,,,,,,,,,,,,,,,,,,,,,,,,,,,,,,,,,,
,,,,,,,,,5c7c73b6f48c6d0001f6f49c,Dominican Republic,younger than 13,"no, only English or Spanish",yes,2026-01-21_15h21.48.655,empathy_intonation_perc_control,2024.2.4,Win32,60.24096386,5c7c73b6f48c6d0001f6f49c,69712dc693a3960bdb483245,697134dcfbd6b5407e3cc5a3,15.898,18.7916,1,1,2.3678,,0,2,2,0,1,./stim/wavs/castilian_question_filler_Mi-esposo-conoce-al-chico.wav,1,,,,,,,,,,,,,,,,,,,,,,,,,,,,,,,,,,,,,,,,,,,,,,,,,,,,,,,,,,,,,,,,,,,,,,,,
,,,,,,,,,5c7c73b6f48c6d0001f6f49c,Dominican Republic,younger than 13,"no, only English or Spanish",yes,2026-01-21_15h21.48.655,empathy_intonation_perc_control,2024.2.4,Win32,60.24096386,5c7c73b6f48c6d0001f6f49c,69712dc693a3960bdb483245,697134dcfbd6b5407e3cc5a3,18.7928,24.6411,1,1,5.3244,,0,3,3,2,1,./stim/wavs/chilean_question_filler_Mi-padre-cantaba-bien.wav,1,,,,,,,,,,,,,,,,,,,,,,,,,,,,,,,,,,,,,,,,,,,,,,,,,,,,,,,,,,,,,,,,,,,,,,,,
,,,,,,,,,5c7c73b6f48c6d0001f6f49c,Dominican Republic,younger than 13,"no, only English or Spanish",yes,2026-01-21_15h21.48.655,empathy_intonation_perc_control,2024.2.4,Win32,60.24096386,5c7c73b6f48c6d0001f6f49c,69712dc693a3960bdb483245,697134dcfbd6b5407e3cc5a3,24.6424,26.9569,0,1,1.799,,0,4,4,4,1,./stim/wavs/cuban_statement_filler_Cocinabas-por-la-noche.wav,0,,,,,,,,,,,,,,,,,,,,,,,,,,,,,,,,,,,,,,,,,,,,,,,,,,,,,,,,,,,,,,,,,,,,,,,,
,,,,,,,,,5c7c73b6f48c6d0001f6f49c,Dominican Republic,younger than 13,"no, only English or Spanish",yes,2026-01-21_15h21.48.655,empathy_intonation_perc_control,2024.2.4,Win32,60.24096386,5c7c73b6f48c6d0001f6f49c,69712dc693a3960bdb483245,697134dcfbd6b5407e3cc5a3,26.958,29.5233,0,1,2.0365,,0,5,5,5,1,./stim/wavs/andalusian_statement_filler_Alberto-nunca-se-afeita.wav,0,,,,,,,,,,,,,,,,,,,,,,,,,,,,,,,,,,,,,,,,,,,,,,,,,,,,,,,,,,,,,,,,,,,,,,,,
,,,,,,,,,5c7c73b6f48c6d0001f6f49c,Dominican Republic,younger than 13,"no, only English or Spanish",yes,2026-01-21_15h21.48.655,empathy_intonation_perc_control,2024.2.4,Win32,60.24096386,5c7c73b6f48c6d0001f6f49c,69712dc693a3960bdb483245,697134dcfbd6b5407e3cc5a3,29.5242,32.5759,1,1,2.5295,,0,6,6,3,1,./stim/wavs/mexican_question_filler_Felipe-no-tiene-contrasena.wav,1,,,,,,,,,,,,,,,,,,,,,,,,,,,,,,,,,,,,,,,,,,,,,,,,,,,,,,,,,,,,,,,,,,,,,,,,
,,,,,,,,,5c7c73b6f48c6d0001f6f49c,Dominican Republic,younger than 13,"no, only English or Spanish",yes,2026-01-21_15h21.48.655,empathy_intonation_perc_control,2024.2.4,Win32,60.24096386,5c7c73b6f48c6d0001f6f49c,69712dc693a3960bdb483245,697134dcfbd6b5407e3cc5a3,32.577,37.6891,0,1,4.5889,,0,7,7,6,1,./stim/wavs/peruvian_statement_filler_El-nino-habla-con-su-madre.wav,0,,,,,,,,,,,,,,,,,,,,,,,,,,,,,,,,,,,,,,,,,,,,,,,,,,,,,,,,,,,,,,,,,,,,,,,,
,,,,,,,,,5c7c73b6f48c6d0001f6f49c,Dominican Republic,younger than 13,"no, only English or Spanish",yes,2026-01-21_15h21.48.655,empathy_intonation_perc_control,2024.2.4,Win32,60.24096386,5c7c73b6f48c6d0001f6f49c,69712dc693a3960bdb483245,697134dcfbd6b5407e3cc5a3,,,,,,,,,,,,,,37.6896,82.8335,,,,,,,,,,,,,,,,,,,,,,,,,,,,,,,,,,,,,,,,,,,,,,,,,,,,,,,,,,,,,,,,,,,,,,
,,,,,,,,,5c7c73b6f48c6d0001f6f49c,Dominican Republic,younger than 13,"no, only English or Spanish",yes,2026-01-21_15h21.48.655,empathy_intonation_perc_control,2024.2.4,Win32,60.24096386,5c7c73b6f48c6d0001f6f49c,69712dc693a3960bdb483245,697134dcfbd6b5407e3cc5a3,,,,,,,,,,,,./stim/wavs/mexican_mismatch_interrogative-total-yn_Mi-tia-odia-la-lluvia.wav,1,,,82.8555,86.133,1,1,2.7568,,0,0,0,38,1,39,0,mexican,,,,,,,,,,,,,,,,,,,,,,,,,,,,,,,,,,,,,,,,,,,,,,,,,,,,,,,,
,,,,,,,,,5c7c73b6f48c6d0001f6f49c,Dominican Republic,younger than 13,"no, only English or Spanish",yes,2026-01-21_15h21.48.655,empathy_intonation_perc_control,2024.2.4,Win32,60.24096386,5c7c73b6f48c6d0001f6f49c,69712dc693a3960bdb483245,697134dcfbd6b5407e3cc5a3,,,,,,,,,,,,./stim/wavs/cuban_mismatch_declarative-broad-focus_La-nina-lava-el-plato.wav,0,,,86.1342,89.2851,0,1,2.6297,,0,1,1,75,1,76,0,cuban,,,,,,,,,,,,,,,,,,,,,,,,,,,,,,,,,,,,,,,,,,,,,,,,,,,,,,,,
,,,,,,,,,5c7c73b6f48c6d0001f6f49c,Dominican Republic,younger than 13,"no, only English or Spanish",yes,2026-01-21_15h21.48.655,empathy_intonation_perc_control,2024.2.4,Win32,60.24096386,5c7c73b6f48c6d0001f6f49c,69712dc693a3960bdb483245,697134dcfbd6b5407e3cc5a3,,,,,,,,,,,,./stim/wavs/mexican_mismatch_interrogative-total-yn_Mi-novio-viene-del-lago.wav,1,,,89.2862,91.5813,1,1,1.7691,,0,2,2,37,1,38,0,mexican,,,,,,,,,,,,,,,,,,,,,,,,,,,,,,,,,,,,,,,,,,,,,,,,,,,,,,,,
,,,,,,,,,5c7c73b6f48c6d0001f6f49c,Dominican Republic,younger than 13,"no, only English or Spanish",yes,2026-01-21_15h21.48.655,empathy_intonation_perc_control,2024.2.4,Win32,60.24096386,5c7c73b6f48c6d0001f6f49c,69712dc693a3960bdb483245,697134dcfbd6b5407e3cc5a3,,,,,,,,,,,,./stim/wavs/puertorican_mismatch_declarative-broad-focus_El-hombre-mira-la-luna.wav,0,,,91.5822,94.1646,0,1,2.0518,,0,3,3,84,1,85,0,puertorican,,,,,,,,,,,,,,,,,,,,,,,,,,,,,,,,,,,,,,,,,,,,,,,,,,,,,,,,
,,,,,,,,,5c7c73b6f48c6d0001f6f49c,Dominican Republic,younger than 13,"no, only English or Spanish",yes,2026-01-21_15h21.48.655,empathy_intonation_perc_control,2024.2.4,Win32,60.24096386,5c7c73b6f48c6d0001f6f49c,69712dc693a3960bdb483245,697134dcfbd6b5407e3cc5a3,,,,,,,,,,,,./stim/wavs/puertorican_match_declarative-broad-focus_Maria-bebe-el-vino.wav,0,,,94.1658,96.9974,1,0,2.3027,,0,4,4,67,1,68,0,puertorican,,,,,,,,,,,,,,,,,,,,,,,,,,,,,,,,,,,,,,,,,,,,,,,,,,,,,,,,
,,,,,,,,,5c7c73b6f48c6d0001f6f49c,Dominican Republic,younger than 13,"no, only English or Spanish",yes,2026-01-21_15h21.48.655,empathy_intonation_perc_control,2024.2.4,Win32,60.24096386,5c7c73b6f48c6d0001f6f49c,69712dc693a3960bdb483245,697134dcfbd6b5407e3cc5a3,,,,,,,,,,,,./stim/wavs/puertorican_mismatch_interrogative-total-yn_La-maestra-vive-en-Paris.wav,1,,,96.9985,99.7801,1,1,2.2533,,0,5,5,41,1,42,1,puertorican,,,,,,,,,,,,,,,,,,,,,,,,,,,,,,,,,,,,,,,,,,,,,,,,,,,,,,,,
,,,,,,,,,5c7c73b6f48c6d0001f6f49c,Dominican Republic,younger than 13,"no, only English or Spanish",yes,2026-01-21_15h21.48.655,empathy_intonation_perc_control,2024.2.4,Win32,60.24096386,5c7c73b6f48c6d0001f6f49c,69712dc693a3960bdb483245,697134dcfbd6b5407e3cc5a3,,,,,,,,,,,,./stim/wavs/mexican_match_interrogative-total-yn_David-leia-el-libro.wav,1,,,99.7811,104.0545,1,1,3.7515,,0,6,6,14,1,15,0,mexican,,,,,,,,,,,,,,,,,,,,,,,,,,,,,,,,,,,,,,,,,,,,,,,,,,,,,,,,
,,,,,,,,,5c7c73b6f48c6d0001f6f49c,Dominican Republic,younger than 13,"no, only English or Spanish",yes,2026-01-21_15h21.48.655,empathy_intonation_perc_control,2024.2.4,Win32,60.24096386,5c7c73b6f48c6d0001f6f49c,69712dc693a3960bdb483245,697134dcfbd6b5407e3cc5a3,,,,,,,,,,,,./stim/wavs/puertorican_match_interrogative-total-yn_Manuela-vende-el-carro.wav,1,,,104.0555,108.1456,1,1,3.5699,,0,7,7,22,1,23,1,puertorican,,,,,,,,,,,,,,,,,,,,,,,,,,,,,,,,,,,,,,,,,,,,,,,,,,,,,,,,
,,,,,,,,,5c7c73b6f48c6d0001f6f49c,Dominican Republic,younger than 13,"no, only English or Spanish",yes,2026-01-21_15h21.48.655,empathy_intonation_perc_control,2024.2.4,Win32,60.24096386,5c7c73b6f48c6d0001f6f49c,69712dc693a3960bdb483245,697134dcfbd6b5407e3cc5a3,,,,,,,,,,,,./stim/wavs/mexican_match_interrogative-total-yn_Emilio-ama-la-marcha.wav,1,,,108.1487,118.232,1,1,9.5761,,0,8,8,15,1,16,0,mexican,,,,,,,,,,,,,,,,,,,,,,,,,,,,,,,,,,,,,,,,,,,,,,,,,,,,,,,,
,,,,,,,,,5c7c73b6f48c6d0001f6f49c,Dominican Republic,younger than 13,"no, only English or Spanish",yes,2026-01-21_15h21.48.655,empathy_intonation_perc_control,2024.2.4,Win32,60.24096386,5c7c73b6f48c6d0001f6f49c,69712dc693a3960bdb483245,697134dcfbd6b5407e3cc5a3,,,,,,,,,,,,./stim/wavs/castilian_match_interrogative-total-yn_Marta-abre-el-regalo.wav,1,,,118.233,120.8441,1,1,2.0897,,0,9,9,5,1,6,0,castilian,,,,,,,,,,,,,,,,,,,,,,,,,,,,,,,,,,,,,,,,,,,,,,,,,,,,,,,,
,,,,,,,,,5c7c73b6f48c6d0001f6f49c,Dominican Republic,younger than 13,"no, only English or Spanish",yes,2026-01-21_15h21.48.655,empathy_intonation_perc_control,2024.2.4,Win32,60.24096386,5c7c73b6f48c6d0001f6f49c,69712dc693a3960bdb483245,697134dcfbd6b5407e3cc5a3,,,,,,,,,,,,./stim/wavs/castilian_mismatch_declarative-broad-focus_La-nina-lava-el-plato.wav,0,,,120.8455,124.0601,1,0,2.6771,,0,10,10,70,1,71,0,castilian,,,,,,,,,,,,,,,,,,,,,,,,,,,,,,,,,,,,,,,,,,,,,,,,,,,,,,,,
,,,,,,,,,5c7c73b6f48c6d0001f6f49c,Dominican Republic,younger than 13,"no, only English or Spanish",yes,2026-01-21_15h21.48.655,empathy_intonation_perc_control,2024.2.4,Win32,60.24096386,5c7c73b6f48c6d0001f6f49c,69712dc693a3960bdb483245,697134dcfbd6b5407e3cc5a3,,,,,,,,,,,,./stim/wavs/castilian_match_interrogative-total-yn_Manuela-vende-el-carro.wav,1,,,124.0612,127.6781,1,1,3.0916,,0,11,11,2,1,3,0,castilian,,,,,,,,,,,,,,,,,,,,,,,,,,,,,,,,,,,,,,,,,,,,,,,,,,,,,,,,
,,,,,,,,,5c7c73b6f48c6d0001f6f49c,Dominican Republic,younger than 13,"no, only English or Spanish",yes,2026-01-21_15h21.48.655,empathy_intonation_perc_control,2024.2.4,Win32,60.24096386,5c7c73b6f48c6d0001f6f49c,69712dc693a3960bdb483245,697134dcfbd6b5407e3cc5a3,,,,,,,,,,,,./stim/wavs/castilian_mismatch_declarative-broad-focus_El-nino-oye-el-rio.wav,0,,,127.6811,131.4765,0,1,3.2774,,0,12,12,68,1,69,0,castilian,,,,,,,,,,,,,,,,,,,,,,,,,,,,,,,,,,,,,,,,,,,,,,,,,,,,,,,,
,,,,,,,,,5c7c73b6f48c6d0001f6f49c,Dominican Republic,younger than 13,"no, only English or Spanish",yes,2026-01-21_15h21.48.655,empathy_intonation_perc_control,2024.2.4,Win32,60.24096386,5c7c73b6f48c6d0001f6f49c,69712dc693a3960bdb483245,697134dcfbd6b5407e3cc5a3,,,,,,,,,,,,./stim/wavs/puertorican_match_interrogative-total-yn_Ana-lleva-el-abrigo.wav,1,,,131.479,135.2466,1,1,3.2315,,0,13,13,18,1,19,1,puertorican,,,,,,,,,,,,,,,,,,,,,,,,,,,,,,,,,,,,,,,,,,,,,,,,,,,,,,,,
,,,,,,,,,5c7c73b6f48c6d0001f6f49c,Dominican Republic,younger than 13,"no, only English or Spanish",yes,2026-01-21_15h21.48.655,empathy_intonation_perc_control,2024.2.4,Win32,60.24096386,5c7c73b6f48c6d0001f6f49c,69712dc693a3960bdb483245,697134dcfbd6b5407e3cc5a3,,,,,,,,,,,,./stim/wavs/mexican_mismatch_declarative-broad-focus_La-maestra-vive-en-Paris.wav,0,,,135.2478,138.0087,0,1,2.2406,,0,14,14,80,1,81,0,mexican,,,,,,,,,,,,,,,,,,,,,,,,,,,,,,,,,,,,,,,,,,,,,,,,,,,,,,,,
,,,,,,,,,5c7c73b6f48c6d0001f6f49c,Dominican Republic,younger than 13,"no, only English or Spanish",yes,2026-01-21_15h21.48.655,empathy_intonation_perc_control,2024.2.4,Win32,60.24096386,5c7c73b6f48c6d0001f6f49c,69712dc693a3960bdb483245,697134dcfbd6b5407e3cc5a3,,,,,,,,,,,,./stim/wavs/castilian_match_declarative-broad-focus_Emilio-ama-la-marcha.wav,0,,,138.0098,140.5078,0,1,1.9696,,0,15,15,45,1,46,0,castilian,,,,,,,,,,,,,,,,,,,,,,,,,,,,,,,,,,,,,,,,,,,,,,,,,,,,,,,,
,,,,,,,,,5c7c73b6f48c6d0001f6f49c,Dominican Republic,younger than 13,"no, only English or Spanish",yes,2026-01-21_15h21.48.655,empathy_intonation_perc_control,2024.2.4,Win32,60.24096386,5c7c73b6f48c6d0001f6f49c,69712dc693a3960bdb483245,697134dcfbd6b5407e3cc5a3,,,,,,,,,,,,./stim/wavs/puertorican_mismatch_interrogative-total-yn_Mi-madre-come-la-fruta.wav,1,,,140.5088,142.8408,0,0,1.8029,,0,16,16,43,1,44,1,puertorican,,,,,,,,,,,,,,,,,,,,,,,,,,,,,,,,,,,,,,,,,,,,,,,,,,,,,,,,
,,,,,,,,,5c7c73b6f48c6d0001f6f49c,Dominican Republic,younger than 13,"no, only English or Spanish",yes,2026-01-21_15h21.48.655,empathy_intonation_perc_control,2024.2.4,Win32,60.24096386,5c7c73b6f48c6d0001f6f49c,69712dc693a3960bdb483245,697134dcfbd6b5407e3cc5a3,,,,,,,,,,,,./stim/wavs/puertorican_mismatch_interrogative-total-yn_El-nino-oye-el-rio.wav,1,,,142.8421,145.3414,0,0,1.9772,,0,17,17,40,1,41,1,puertorican,,,,,,,,,,,,,,,,,,,,,,,,,,,,,,,,,,,,,,,,,,,,,,,,,,,,,,,,
,,,,,,,,,5c7c73b6f48c6d0001f6f49c,Dominican Republic,younger than 13,"no, only English or Spanish",yes,2026-01-21_15h21.48.655,empathy_intonation_perc_control,2024.2.4,Win32,60.24096386,5c7c73b6f48c6d0001f6f49c,69712dc693a3960bdb483245,697134dcfbd6b5407e3cc5a3,,,,,,,,,,,,./stim/wavs/puertorican_match_interrogative-total-yn_Daniel-iba-a-Bolivia.wav,1,,,145.3427,150.3818,1,1,4.5178,,0,18,18,19,1,20,1,puertorican,,,,,,,,,,,,,,,,,,,,,,,,,,,,,,,,,,,,,,,,,,,,,,,,,,,,,,,,
,,,,,,,,,5c7c73b6f48c6d0001f6f49c,Dominican Republic,younger than 13,"no, only English or Spanish",yes,2026-01-21_15h21.48.655,empathy_intonation_perc_control,2024.2.4,Win32,60.24096386,5c7c73b6f48c6d0001f6f49c,69712dc693a3960bdb483245,697134dcfbd6b5407e3cc5a3,,,,,,,,,,,,./stim/wavs/castilian_mismatch_declarative-broad-focus_Mi-novio-viene-del-lago.wav,0,,,150.3828,154.1058,0,1,3.2031,,0,19,19,71,1,72,0,castilian,,,,,,,,,,,,,,,,,,,,,,,,,,,,,,,,,,,,,,,,,,,,,,,,,,,,,,,,
,,,,,,,,,5c7c73b6f48c6d0001f6f49c,Dominican Republic,younger than 13,"no, only English or Spanish",yes,2026-01-21_15h21.48.655,empathy_intonation_perc_control,2024.2.4,Win32,60.24096386,5c7c73b6f48c6d0001f6f49c,69712dc693a3960bdb483245,697134dcfbd6b5407e3cc5a3,,,,,,,,,,,,./stim/wavs/puertorican_mismatch_declarative-broad-focus_La-maestra-vive-en-Paris.wav,0,,,154.1067,159.0388,0,1,4.407,,0,20,20,86,1,87,0,puertorican,,,,,,,,,,,,,,,,,,,,,,,,,,,,,,,,,,,,,,,,,,,,,,,,,,,,,,,,
,,,,,,,,,5c7c73b6f48c6d0001f6f49c,Dominican Republic,younger than 13,"no, only English or Spanish",yes,2026-01-21_15h21.48.655,empathy_intonation_perc_control,2024.2.4,Win32,60.24096386,5c7c73b6f48c6d0001f6f49c,69712dc693a3960bdb483245,697134dcfbd6b5407e3cc5a3,,,,,,,,,,,,./stim/wavs/castilian_match_interrogative-total-yn_Emilio-ama-la-marcha.wav,1,,,159.04,162.1214,1,1,2.5548,,0,21,21,1,1,2,0,castilian,,,,,,,,,,,,,,,,,,,,,,,,,,,,,,,,,,,,,,,,,,,,,,,,,,,,,,,,
,,,,,,,,,5c7c73b6f48c6d0001f6f49c,Dominican Republic,younger than 13,"no, only English or Spanish",yes,2026-01-21_15h21.48.655,empathy_intonation_perc_control,2024.2.4,Win32,60.24096386,5c7c73b6f48c6d0001f6f49c,69712dc693a3960bdb483245,697134dcfbd6b5407e3cc5a3,,,,,,,,,,,,./stim/wavs/cuban_match_interrogative-total-yn_Ana-lleva-el-abrigo.wav,1,,,162.1223,164.5553,0,0,1.907,,0,22,22,6,1,7,1,cuban,,,,,,,,,,,,,,,,,,,,,,,,,,,,,,,,,,,,,,,,,,,,,,,,,,,,,,,,
,,,,,,,,,5c7c73b6f48c6d0001f6f49c,Dominican Republic,younger than 13,"no, only English or Spanish",yes,2026-01-21_15h21.48.655,empathy_intonation_perc_control,2024.2.4,Win32,60.24096386,5c7c73b6f48c6d0001f6f49c,69712dc693a3960bdb483245,697134dcfbd6b5407e3cc5a3,,,,,,,,,,,,./stim/wavs/castilian_match_interrogative-total-yn_Mariano-habla-del-tiempo.wav,1,,,164.5565,167.4716,1,1,2.377,,0,23,23,4,1,5,0,castilian,,,,,,,,,,,,,,,,,,,,,,,,,,,,,,,,,,,,,,,,,,,,,,,,,,,,,,,,
,,,,,,,,,5c7c73b6f48c6d0001f6f49c,Dominican Republic,younger than 13,"no, only English or Spanish",yes,2026-01-21_15h21.48.655,empathy_intonation_perc_control,2024.2.4,Win32,60.24096386,5c7c73b6f48c6d0001f6f49c,69712dc693a3960bdb483245,697134dcfbd6b5407e3cc5a3,,,,,,,,,,,,./stim/wavs/cuban_match_declarative-broad-focus_Mariano-habla-del-tiempo.wav,0,,,167.4734,172.8864,0,1,4.8869,,0,24,24,54,1,55,0,cuban,,,,,,,,,,,,,,,,,,,,,,,,,,,,,,,,,,,,,,,,,,,,,,,,,,,,,,,,
,,,,,,,,,5c7c73b6f48c6d0001f6f49c,Dominican Republic,younger than 13,"no, only English or Spanish",yes,2026-01-21_15h21.48.655,empathy_intonation_perc_control,2024.2.4,Win32,60.24096386,5c7c73b6f48c6d0001f6f49c,69712dc693a3960bdb483245,697134dcfbd6b5407e3cc5a3,,,,,,,,,,,,./stim/wavs/mexican_mismatch_declarative-broad-focus_Mi-tia-odia-la-lluvia.wav,0,,,172.8873,176.2566,0,1,2.8474,,0,25,25,82,1,83,0,mexican,,,,,,,,,,,,,,,,,,,,,,,,,,,,,,,,,,,,,,,,,,,,,,,,,,,,,,,,
,,,,,,,,,5c7c73b6f48c6d0001f6f49c,Dominican Republic,younger than 13,"no, only English or Spanish",yes,2026-01-21_15h21.48.655,empathy_intonation_perc_control,2024.2.4,Win32,60.24096386,5c7c73b6f48c6d0001f6f49c,69712dc693a3960bdb483245,697134dcfbd6b5407e3cc5a3,,,,,,,,,,,,./stim/wavs/cuban_match_interrogative-total-yn_Marta-abre-el-regalo.wav,1,,,176.2575,179.1523,0,0,2.3726,,0,26,26,11,1,12,1,cuban,,,,,,,,,,,,,,,,,,,,,,,,,,,,,,,,,,,,,,,,,,,,,,,,,,,,,,,,
,,,,,,,,,5c7c73b6f48c6d0001f6f49c,Dominican Republic,younger than 13,"no, only English or Spanish",yes,2026-01-21_15h21.48.655,empathy_intonation_perc_control,2024.2.4,Win32,60.24096386,5c7c73b6f48c6d0001f6f49c,69712dc693a3960bdb483245,697134dcfbd6b5407e3cc5a3,,,,,,,,,,,,./stim/wavs/puertorican_mismatch_declarative-broad-focus_El-bebe-comia-muy-bien.wav,0,,,179.1529,184.7122,0,1,5.0372,,0,27,27,83,1,84,0,puertorican,,,,,,,,,,,,,,,,,,,,,,,,,,,,,,,,,,,,,,,,,,,,,,,,,,,,,,,,
,,,,,,,,,5c7c73b6f48c6d0001f6f49c,Dominican Republic,younger than 13,"no, only English or Spanish",yes,2026-01-21_15h21.48.655,empathy_intonation_perc_control,2024.2.4,Win32,60.24096386,5c7c73b6f48c6d0001f6f49c,69712dc693a3960bdb483245,697134dcfbd6b5407e3cc5a3,,,,,,,,,,,,./stim/wavs/puertorican_mismatch_declarative-broad-focus_El-nino-oye-el-rio.wav,0,,,184.7131,186.735,0,1,1.5006,,0,28,28,85,1,86,0,puertorican,,,,,,,,,,,,,,,,,,,,,,,,,,,,,,,,,,,,,,,,,,,,,,,,,,,,,,,,
,,,,,,,,,5c7c73b6f48c6d0001f6f49c,Dominican Republic,younger than 13,"no, only English or Spanish",yes,2026-01-21_15h21.48.655,empathy_intonation_perc_control,2024.2.4,Win32,60.24096386,5c7c73b6f48c6d0001f6f49c,69712dc693a3960bdb483245,697134dcfbd6b5407e3cc5a3,,,,,,,,,,,,./stim/wavs/puertorican_match_declarative-broad-focus_Daniel-iba-a-Bolivia.wav,0,,,186.7358,189.5012,0,1,2.2431,,0,29,29,63,1,64,0,puertorican,,,,,,,,,,,,,,,,,,,,,,,,,,,,,,,,,,,,,,,,,,,,,,,,,,,,,,,,
,,,,,,,,,5c7c73b6f48c6d0001f6f49c,Dominican Republic,younger than 13,"no, only English or Spanish",yes,2026-01-21_15h21.48.655,empathy_intonation_perc_control,2024.2.4,Win32,60.24096386,5c7c73b6f48c6d0001f6f49c,69712dc693a3960bdb483245,697134dcfbd6b5407e3cc5a3,,,,,,,,,,,,./stim/wavs/puertorican_match_interrogative-total-yn_Emilio-ama-la-marcha.wav,1,,,189.5026,194.3525,0,0,4.3279,,0,30,30,21,1,22,1,puertorican,,,,,,,,,,,,,,,,,,,,,,,,,,,,,,,,,,,,,,,,,,,,,,,,,,,,,,,,
,,,,,,,,,5c7c73b6f48c6d0001f6f49c,Dominican Republic,younger than 13,"no, only English or Spanish",yes,2026-01-21_15h21.48.655,empathy_intonation_perc_control,2024.2.4,Win32,60.24096386,5c7c73b6f48c6d0001f6f49c,69712dc693a3960bdb483245,697134dcfbd6b5407e3cc5a3,,,,,,,,,,,,./stim/wavs/puertorican_mismatch_interrogative-total-yn_El-hombre-mira-la-luna.wav,1,,,194.3539,197.0999,1,1,2.2198,,0,31,31,39,1,40,1,puertorican,,,,,,,,,,,,,,,,,,,,,,,,,,,,,,,,,,,,,,,,,,,,,,,,,,,,,,,,
,,,,,,,,,5c7c73b6f48c6d0001f6f49c,Dominican Republic,younger than 13,"no, only English or Spanish",yes,2026-01-21_15h21.48.655,empathy_intonation_perc_control,2024.2.4,Win32,60.24096386,5c7c73b6f48c6d0001f6f49c,69712dc693a3960bdb483245,697134dcfbd6b5407e3cc5a3,,,,,,,,,,,,./stim/wavs/puertorican_mismatch_declarative-broad-focus_La-nina-lava-el-plato.wav,0,,,197.1012,200.4659,1,0,2.8367,,0,32,32,87,1,88,0,puertorican,,,,,,,,,,,,,,,,,,,,,,,,,,,,,,,,,,,,,,,,,,,,,,,,,,,,,,,,
,,,,,,,,,5c7c73b6f48c6d0001f6f49c,Dominican Republic,younger than 13,"no, only English or Spanish",yes,2026-01-21_15h21.48.655,empathy_intonation_perc_control,2024.2.4,Win32,60.24096386,5c7c73b6f48c6d0001f6f49c,69712dc693a3960bdb483245,697134dcfbd6b5407e3cc5a3,,,,,,,,,,,,./stim/wavs/mexican_mismatch_interrogative-total-yn_El-hombre-mira-la-luna.wav,1,,,200.4668,206.1002,1,1,5.1113,,0,33,33,34,1,35,0,mexican,,,,,,,,,,,,,,,,,,,,,,,,,,,,,,,,,,,,,,,,,,,,,,,,,,,,,,,,
,,,,,,,,,5c7c73b6f48c6d0001f6f49c,Dominican Republic,younger than 13,"no, only English or Spanish",yes,2026-01-21_15h21.48.655,empathy_intonation_perc_control,2024.2.4,Win32,60.24096386,5c7c73b6f48c6d0001f6f49c,69712dc693a3960bdb483245,697134dcfbd6b5407e3cc5a3,,,,,,,,,,,,./stim/wavs/castilian_mismatch_declarative-broad-focus_Mi-tia-odia-la-lluvia.wav,0,,,206.101,212.0309,0,1,5.4025,,0,34,34,72,1,73,0,castilian,,,,,,,,,,,,,,,,,,,,,,,,,,,,,,,,,,,,,,,,,,,,,,,,,,,,,,,,
,,,,,,,,,5c7c73b6f48c6d0001f6f49c,Dominican Republic,younger than 13,"no, only English or Spanish",yes,2026-01-21_15h21.48.655,empathy_intonation_perc_control,2024.2.4,Win32,60.24096386,5c7c73b6f48c6d0001f6f49c,69712dc693a3960bdb483245,697134dcfbd6b5407e3cc5a3,,,,,,,,,,,,./stim/wavs/castilian_match_declarative-broad-focus_Maria-bebe-el-vino.wav,0,,,212.0316,217.4135,0,1,4.854,,0,35,35,47,1,48,0,castilian,,,,,,,,,,,,,,,,,,,,,,,,,,,,,,,,,,,,,,,,,,,,,,,,,,,,,,,,
,,,,,,,,,5c7c73b6f48c6d0001f6f49c,Dominican Republic,younger than 13,"no, only English or Spanish",yes,2026-01-21_15h21.48.655,empathy_intonation_perc_control,2024.2.4,Win32,60.24096386,5c7c73b6f48c6d0001f6f49c,69712dc693a3960bdb483245,697134dcfbd6b5407e3cc5a3,,,,,,,,,,,,./stim/wavs/castilian_match_interrogative-total-yn_David-leia-el-libro.wav,1,,,217.4144,225.4711,1,1,7.5347,,0,36,36,0,1,1,0,castilian,,,,,,,,,,,,,,,,,,,,,,,,,,,,,,,,,,,,,,,,,,,,,,,,,,,,,,,,
,,,,,,,,,5c7c73b6f48c6d0001f6f49c,Dominican Republic,younger than 13,"no, only English or Spanish",yes,2026-01-21_15h21.48.655,empathy_intonation_perc_control,2024.2.4,Win32,60.24096386,5c7c73b6f48c6d0001f6f49c,69712dc693a3960bdb483245,697134dcfbd6b5407e3cc5a3,,,,,,,,,,,,./stim/wavs/cuban_match_declarative-broad-focus_Manuela-vende-el-carro.wav,0,,,225.4721,231.0949,0,1,5.1025,,0,37,37,52,1,53,0,cuban,,,,,,,,,,,,,,,,,,,,,,,,,,,,,,,,,,,,,,,,,,,,,,,,,,,,,,,,
,,,,,,,,,5c7c73b6f48c6d0001f6f49c,Dominican Republic,younger than 13,"no, only English or Spanish",yes,2026-01-21_15h21.48.655,empathy_intonation_perc_control,2024.2.4,Win32,60.24096386,5c7c73b6f48c6d0001f6f49c,69712dc693a3960bdb483245,697134dcfbd6b5407e3cc5a3,,,,,,,,,,,,./stim/wavs/castilian_match_declarative-broad-focus_Mariano-habla-del-tiempo.wav,0,,,231.0958,234.7783,0,1,3.1378,,0,38,38,48,1,49,0,castilian,,,,,,,,,,,,,,,,,,,,,,,,,,,,,,,,,,,,,,,,,,,,,,,,,,,,,,,,
,,,,,,,,,5c7c73b6f48c6d0001f6f49c,Dominican Republic,younger than 13,"no, only English or Spanish",yes,2026-01-21_15h21.48.655,empathy_intonation_perc_control,2024.2.4,Win32,60.24096386,5c7c73b6f48c6d0001f6f49c,69712dc693a3960bdb483245,697134dcfbd6b5407e3cc5a3,,,,,,,,,,,,./stim/wavs/cuban_match_declarative-broad-focus_Ana-lleva-el-abrigo.wav,0,,,234.7791,237.5607,0,1,2.2542,,0,39,39,50,1,51,0,cuban,,,,,,,,,,,,,,,,,,,,,,,,,,,,,,,,,,,,,,,,,,,,,,,,,,,,,,,,
,,,,,,,,,5c7c73b6f48c6d0001f6f49c,Dominican Republic,younger than 13,"no, only English or Spanish",yes,2026-01-21_15h21.48.655,empathy_intonation_perc_control,2024.2.4,Win32,60.24096386,5c7c73b6f48c6d0001f6f49c,69712dc693a3960bdb483245,697134dcfbd6b5407e3cc5a3,,,,,,,,,,,,./stim/wavs/mexican_match_interrogative-total-yn_Marta-abre-el-regalo.wav,1,,,237.5619,241.4105,1,1,3.324,,0,40,40,17,1,18,0,mexican,,,,,,,,,,,,,,,,,,,,,,,,,,,,,,,,,,,,,,,,,,,,,,,,,,,,,,,,
,,,,,,,,,5c7c73b6f48c6d0001f6f49c,Dominican Republic,younger than 13,"no, only English or Spanish",yes,2026-01-21_15h21.48.655,empathy_intonation_perc_control,2024.2.4,Win32,60.24096386,5c7c73b6f48c6d0001f6f49c,69712dc693a3960bdb483245,697134dcfbd6b5407e3cc5a3,,,,,,,,,,,,./stim/wavs/mexican_match_declarative-broad-focus_Ana-lleva-el-abrigo.wav,0,,,241.4117,244.0309,0,1,2.0974,,0,41,41,56,1,57,0,mexican,,,,,,,,,,,,,,,,,,,,,,,,,,,,,,,,,,,,,,,,,,,,,,,,,,,,,,,,
,,,,,,,,,5c7c73b6f48c6d0001f6f49c,Dominican Republic,younger than 13,"no, only English or Spanish",yes,2026-01-21_15h21.48.655,empathy_intonation_perc_control,2024.2.4,Win32,60.24096386,5c7c73b6f48c6d0001f6f49c,69712dc693a3960bdb483245,697134dcfbd6b5407e3cc5a3,,,,,,,,,,,,./stim/wavs/castilian_mismatch_interrogative-total-yn_La-nina-lava-el-plato.wav,1,,,244.0321,246.6104,1,1,2.0598,,0,42,42,25,1,26,0,castilian,,,,,,,,,,,,,,,,,,,,,,,,,,,,,,,,,,,,,,,,,,,,,,,,,,,,,,,,
,,,,,,,,,5c7c73b6f48c6d0001f6f49c,Dominican Republic,younger than 13,"no, only English or Spanish",yes,2026-01-21_15h21.48.655,empathy_intonation_perc_control,2024.2.4,Win32,60.24096386,5c7c73b6f48c6d0001f6f49c,69712dc693a3960bdb483245,697134dcfbd6b5407e3cc5a3,,,,,,,,,,,,./stim/wavs/cuban_mismatch_interrogative-total-yn_El-hombre-mira-la-luna.wav,1,,,246.6117,253.4518,1,1,6.3196,,0,43,43,29,1,30,1,cuban,,,,,,,,,,,,,,,,,,,,,,,,,,,,,,,,,,,,,,,,,,,,,,,,,,,,,,,,
,,,,,,,,,5c7c73b6f48c6d0001f6f49c,Dominican Republic,younger than 13,"no, only English or Spanish",yes,2026-01-21_15h21.48.655,empathy_intonation_perc_control,2024.2.4,Win32,60.24096386,5c7c73b6f48c6d0001f6f49c,69712dc693a3960bdb483245,697134dcfbd6b5407e3cc5a3,,,,,,,,,,,,./stim/wavs/puertorican_mismatch_interrogative-total-yn_La-nina-lava-el-plato.wav,1,,,253.4528,255.7585,0,0,1.7922,,0,44,44,42,1,43,1,puertorican,,,,,,,,,,,,,,,,,,,,,,,,,,,,,,,,,,,,,,,,,,,,,,,,,,,,,,,,
,,,,,,,,,5c7c73b6f48c6d0001f6f49c,Dominican Republic,younger than 13,"no, only English or Spanish",yes,2026-01-21_15h21.48.655,empathy_intonation_perc_control,2024.2.4,Win32,60.24096386,5c7c73b6f48c6d0001f6f49c,69712dc693a3960bdb483245,697134dcfbd6b5407e3cc5a3,,,,,,,,,,,,./stim/wavs/cuban_mismatch_declarative-broad-focus_Mi-novio-viene-del-lago.wav,0,,,255.76,260.808,0,1,4.5239,,0,45,45,76,1,77,0,cuban,,,,,,,,,,,,,,,,,,,,,,,,,,,,,,,,,,,,,,,,,,,,,,,,,,,,,,,,
,,,,,,,,,5c7c73b6f48c6d0001f6f49c,Dominican Republic,younger than 13,"no, only English or Spanish",yes,2026-01-21_15h21.48.655,empathy_intonation_perc_control,2024.2.4,Win32,60.24096386,5c7c73b6f48c6d0001f6f49c,69712dc693a3960bdb483245,697134dcfbd6b5407e3cc5a3,,,,,,,,,,,,./stim/wavs/mexican_match_interrogative-total-yn_Mariano-habla-del-tiempo.wav,1,,,260.8091,262.9905,1,1,1.6531,,0,46,46,16,1,17,0,mexican,,,,,,,,,,,,,,,,,,,,,,,,,,,,,,,,,,,,,,,,,,,,,,,,,,,,,,,,
,,,,,,,,,5c7c73b6f48c6d0001f6f49c,Dominican Republic,younger than 13,"no, only English or Spanish",yes,2026-01-21_15h21.48.655,empathy_intonation_perc_control,2024.2.4,Win32,60.24096386,5c7c73b6f48c6d0001f6f49c,69712dc693a3960bdb483245,697134dcfbd6b5407e3cc5a3,,,,,,,,,,,,./stim/wavs/mexican_match_interrogative-total-yn_Ana-lleva-el-abrigo.wav,1,,,262.9914,265.8402,1,1,2.3332,,0,47,47,12,1,13,0,mexican,,,,,,,,,,,,,,,,,,,,,,,,,,,,,,,,,,,,,,,,,,,,,,,,,,,,,,,,
,,,,,,,,,5c7c73b6f48c6d0001f6f49c,Dominican Republic,younger than 13,"no, only English or Spanish",yes,2026-01-21_15h21.48.655,empathy_intonation_perc_control,2024.2.4,Win32,60.24096386,5c7c73b6f48c6d0001f6f49c,69712dc693a3960bdb483245,697134dcfbd6b5407e3cc5a3,,,,,,,,,,,,./stim/wavs/cuban_mismatch_interrogative-total-yn_Mi-novio-viene-del-lago.wav,1,,,265.8412,270.3564,0,0,3.99,,0,48,48,32,1,33,1,cuban,,,,,,,,,,,,,,,,,,,,,,,,,,,,,,,,,,,,,,,,,,,,,,,,,,,,,,,,
,,,,,,,,,5c7c73b6f48c6d0001f6f49c,Dominican Republic,younger than 13,"no, only English or Spanish",yes,2026-01-21_15h21.48.655,empathy_intonation_perc_control,2024.2.4,Win32,60.24096386,5c7c73b6f48c6d0001f6f49c,69712dc693a3960bdb483245,697134dcfbd6b5407e3cc5a3,,,,,,,,,,,,./stim/wavs/puertorican_match_interrogative-total-yn_Maria-bebe-el-vino.wav,1,,,270.3577,273.2894,0,0,2.4032,,0,49,49,23,1,24,1,puertorican,,,,,,,,,,,,,,,,,,,,,,,,,,,,,,,,,,,,,,,,,,,,,,,,,,,,,,,,
,,,,,,,,,5c7c73b6f48c6d0001f6f49c,Dominican Republic,younger than 13,"no, only English or Spanish",yes,2026-01-21_15h21.48.655,empathy_intonation_perc_control,2024.2.4,Win32,60.24096386,5c7c73b6f48c6d0001f6f49c,69712dc693a3960bdb483245,697134dcfbd6b5407e3cc5a3,,,,,,,,,,,,./stim/wavs/cuban_match_interrogative-total-yn_Manuela-vende-el-carro.wav,1,,,273.2901,276.3389,0,0,2.5206,,0,50,50,8,1,9,1,cuban,,,,,,,,,,,,,,,,,,,,,,,,,,,,,,,,,,,,,,,,,,,,,,,,,,,,,,,,
,,,,,,,,,5c7c73b6f48c6d0001f6f49c,Dominican Republic,younger than 13,"no, only English or Spanish",yes,2026-01-21_15h21.48.655,empathy_intonation_perc_control,2024.2.4,Win32,60.24096386,5c7c73b6f48c6d0001f6f49c,69712dc693a3960bdb483245,697134dcfbd6b5407e3cc5a3,,,,,,,,,,,,./stim/wavs/cuban_mismatch_interrogative-total-yn_El-nino-oye-el-rio.wav,1,,,276.3398,280.625,0,0,3.7635,,0,51,51,30,1,31,1,cuban,,,,,,,,,,,,,,,,,,,,,,,,,,,,,,,,,,,,,,,,,,,,,,,,,,,,,,,,
,,,,,,,,,5c7c73b6f48c6d0001f6f49c,Dominican Republic,younger than 13,"no, only English or Spanish",yes,2026-01-21_15h21.48.655,empathy_intonation_perc_control,2024.2.4,Win32,60.24096386,5c7c73b6f48c6d0001f6f49c,69712dc693a3960bdb483245,697134dcfbd6b5407e3cc5a3,,,,,,,,,,,,./stim/wavs/mexican_mismatch_interrogative-total-yn_El-nino-oye-el-rio.wav,1,,,280.626,282.7053,1,1,1.5611,,0,52,52,35,1,36,0,mexican,,,,,,,,,,,,,,,,,,,,,,,,,,,,,,,,,,,,,,,,,,,,,,,,,,,,,,,,
,,,,,,,,,5c7c73b6f48c6d0001f6f49c,Dominican Republic,younger than 13,"no, only English or Spanish",yes,2026-01-21_15h21.48.655,empathy_intonation_perc_control,2024.2.4,Win32,60.24096386,5c7c73b6f48c6d0001f6f49c,69712dc693a3960bdb483245,697134dcfbd6b5407e3cc5a3,,,,,,,,,,,,./stim/wavs/castilian_match_declarative-broad-focus_Marta-abre-el-regalo.wav,0,,,282.7079,285.8903,0,1,2.6625,,0,53,53,49,1,50,0,castilian,,,,,,,,,,,,,,,,,,,,,,,,,,,,,,,,,,,,,,,,,,,,,,,,,,,,,,,,
,,,,,,,,,5c7c73b6f48c6d0001f6f49c,Dominican Republic,younger than 13,"no, only English or Spanish",yes,2026-01-21_15h21.48.655,empathy_intonation_perc_control,2024.2.4,Win32,60.24096386,5c7c73b6f48c6d0001f6f49c,69712dc693a3960bdb483245,697134dcfbd6b5407e3cc5a3,,,,,,,,,,,,./stim/wavs/castilian_mismatch_interrogative-total-yn_La-maestra-vive-en-Paris.wav,1,,,285.8917,288.6232,1,1,2.2126,,0,54,54,24,1,25,0,castilian,,,,,,,,,,,,,,,,,,,,,,,,,,,,,,,,,,,,,,,,,,,,,,,,,,,,,,,,
,,,,,,,,,5c7c73b6f48c6d0001f6f49c,Dominican Republic,younger than 13,"no, only English or Spanish",yes,2026-01-21_15h21.48.655,empathy_intonation_perc_control,2024.2.4,Win32,60.24096386,5c7c73b6f48c6d0001f6f49c,69712dc693a3960bdb483245,697134dcfbd6b5407e3cc5a3,,,,,,,,,,,,./stim/wavs/puertorican_match_declarative-broad-focus_David-leia-el-libro.wav,0,,,288.6243,292.1707,0,1,3.0234,,0,55,55,64,1,65,0,puertorican,,,,,,,,,,,,,,,,,,,,,,,,,,,,,,,,,,,,,,,,,,,,,,,,,,,,,,,,
,,,,,,,,,5c7c73b6f48c6d0001f6f49c,Dominican Republic,younger than 13,"no, only English or Spanish",yes,2026-01-21_15h21.48.655,empathy_intonation_perc_control,2024.2.4,Win32,60.24096386,5c7c73b6f48c6d0001f6f49c,69712dc693a3960bdb483245,697134dcfbd6b5407e3cc5a3,,,,,,,,,,,,./stim/wavs/mexican_match_declarative-broad-focus_Marta-abre-el-regalo.wav,0,,,292.1717,297.6523,1,0,4.9538,,0,56,56,61,1,62,0,mexican,,,,,,,,,,,,,,,,,,,,,,,,,,,,,,,,,,,,,,,,,,,,,,,,,,,,,,,,
,,,,,,,,,5c7c73b6f48c6d0001f6f49c,Dominican Republic,younger than 13,"no, only English or Spanish",yes,2026-01-21_15h21.48.655,empathy_intonation_perc_control,2024.2.4,Win32,60.24096386,5c7c73b6f48c6d0001f6f49c,69712dc693a3960bdb483245,697134dcfbd6b5407e3cc5a3,,,,,,,,,,,,./stim/wavs/castilian_mismatch_interrogative-total-yn_Mi-novio-viene-del-lago.wav,1,,,297.6532,300.9354,1,1,2.753,,0,57,57,27,1,28,0,castilian,,,,,,,,,,,,,,,,,,,,,,,,,,,,,,,,,,,,,,,,,,,,,,,,,,,,,,,,
,,,,,,,,,5c7c73b6f48c6d0001f6f49c,Dominican Republic,younger than 13,"no, only English or Spanish",yes,2026-01-21_15h21.48.655,empathy_intonation_perc_control,2024.2.4,Win32,60.24096386,5c7c73b6f48c6d0001f6f49c,69712dc693a3960bdb483245,697134dcfbd6b5407e3cc5a3,,,,,,,,,,,,./stim/wavs/cuban_mismatch_declarative-broad-focus_El-hombre-mira-la-luna.wav,0,,,300.9362,304.4851,1,0,3.0254,,0,58,58,74,1,75,0,cuban,,,,,,,,,,,,,,,,,,,,,,,,,,,,,,,,,,,,,,,,,,,,,,,,,,,,,,,,
,,,,,,,,,5c7c73b6f48c6d0001f6f49c,Dominican Republic,younger than 13,"no, only English or Spanish",yes,2026-01-21_15h21.48.655,empathy_intonation_perc_control,2024.2.4,Win32,60.24096386,5c7c73b6f48c6d0001f6f49c,69712dc693a3960bdb483245,697134dcfbd6b5407e3cc5a3,,,,,,,,,,,,./stim/wavs/cuban_match_interrogative-total-yn_Mariano-habla-del-tiempo.wav,1,,,304.4867,311.6171,0,0,6.6025,,0,59,59,10,1,11,1,cuban,,,,,,,,,,,,,,,,,,,,,,,,,,,,,,,,,,,,,,,,,,,,,,,,,,,,,,,,
,,,,,,,,,5c7c73b6f48c6d0001f6f49c,Dominican Republic,younger than 13,"no, only English or Spanish",yes,2026-01-21_15h21.48.655,empathy_intonation_perc_control,2024.2.4,Win32,60.24096386,5c7c73b6f48c6d0001f6f49c,69712dc693a3960bdb483245,697134dcfbd6b5407e3cc5a3,,,,,,,,,,,,./stim/wavs/cuban_match_declarative-broad-focus_Maria-bebe-el-vino.wav,0,,,311.6184,314.5505,0,1,2.4093,,0,60,60,53,1,54,0,cuban,,,,,,,,,,,,,,,,,,,,,,,,,,,,,,,,,,,,,,,,,,,,,,,,,,,,,,,,
,,,,,,,,,5c7c73b6f48c6d0001f6f49c,Dominican Republic,younger than 13,"no, only English or Spanish",yes,2026-01-21_15h21.48.655,empathy_intonation_perc_control,2024.2.4,Win32,60.24096386,5c7c73b6f48c6d0001f6f49c,69712dc693a3960bdb483245,697134dcfbd6b5407e3cc5a3,,,,,,,,,,,,./stim/wavs/cuban_match_interrogative-total-yn_Daniel-iba-a-Bolivia.wav,1,,,314.5517,319.0493,0,0,3.9696,,0,61,61,7,1,8,1,cuban,,,,,,,,,,,,,,,,,,,,,,,,,,,,,,,,,,,,,,,,,,,,,,,,,,,,,,,,
,,,,,,,,,5c7c73b6f48c6d0001f6f49c,Dominican Republic,younger than 13,"no, only English or Spanish",yes,2026-01-21_15h21.48.655,empathy_intonation_perc_control,2024.2.4,Win32,60.24096386,5c7c73b6f48c6d0001f6f49c,69712dc693a3960bdb483245,697134dcfbd6b5407e3cc5a3,,,,,,,,,,,,./stim/wavs/mexican_match_interrogative-total-yn_Daniel-iba-a-Bolivia.wav,1,,,319.0501,324.9506,0,0,5.3786,,0,62,62,13,1,14,0,mexican,,,,,,,,,,,,,,,,,,,,,,,,,,,,,,,,,,,,,,,,,,,,,,,,,,,,,,,,
,,,,,,,,,5c7c73b6f48c6d0001f6f49c,Dominican Republic,younger than 13,"no, only English or Spanish",yes,2026-01-21_15h21.48.655,empathy_intonation_perc_control,2024.2.4,Win32,60.24096386,5c7c73b6f48c6d0001f6f49c,69712dc693a3960bdb483245,697134dcfbd6b5407e3cc5a3,,,,,,,,,,,,./stim/wavs/puertorican_match_interrogative-total-yn_David-leia-el-libro.wav,1,,,324.9521,329.0819,1,1,3.6105,,0,63,63,20,1,21,1,puertorican,,,,,,,,,,,,,,,,,,,,,,,,,,,,,,,,,,,,,,,,,,,,,,,,,,,,,,,,
,,,,,,,,,5c7c73b6f48c6d0001f6f49c,Dominican Republic,younger than 13,"no, only English or Spanish",yes,2026-01-21_15h21.48.655,empathy_intonation_perc_control,2024.2.4,Win32,60.24096386,5c7c73b6f48c6d0001f6f49c,69712dc693a3960bdb483245,697134dcfbd6b5407e3cc5a3,,,,,,,,,,,,./stim/wavs/castilian_match_interrogative-total-yn_Maria-bebe-el-vino.wav,1,,,329.0834,336.3302,1,1,6.7194,,0,64,64,3,1,4,0,castilian,,,,,,,,,,,,,,,,,,,,,,,,,,,,,,,,,,,,,,,,,,,,,,,,,,,,,,,,
,,,,,,,,,5c7c73b6f48c6d0001f6f49c,Dominican Republic,younger than 13,"no, only English or Spanish",yes,2026-01-21_15h21.48.655,empathy_intonation_perc_control,2024.2.4,Win32,60.24096386,5c7c73b6f48c6d0001f6f49c,69712dc693a3960bdb483245,697134dcfbd6b5407e3cc5a3,,,,,,,,,,,,./stim/wavs/mexican_match_declarative-broad-focus_Daniel-iba-a-Bolivia.wav,0,,,336.3311,343.8959,0,1,7.036,,0,65,65,57,1,58,0,mexican,,,,,,,,,,,,,,,,,,,,,,,,,,,,,,,,,,,,,,,,,,,,,,,,,,,,,,,,
,,,,,,,,,5c7c73b6f48c6d0001f6f49c,Dominican Republic,younger than 13,"no, only English or Spanish",yes,2026-01-21_15h21.48.655,empathy_intonation_perc_control,2024.2.4,Win32,60.24096386,5c7c73b6f48c6d0001f6f49c,69712dc693a3960bdb483245,697134dcfbd6b5407e3cc5a3,,,,,,,,,,,,./stim/wavs/cuban_match_declarative-broad-focus_Daniel-iba-a-Bolivia.wav,0,,,343.8967,347.7625,0,1,3.3539,,0,66,66,51,1,52,0,cuban,,,,,,,,,,,,,,,,,,,,,,,,,,,,,,,,,,,,,,,,,,,,,,,,,,,,,,,,
,,,,,,,,,5c7c73b6f48c6d0001f6f49c,Dominican Republic,younger than 13,"no, only English or Spanish",yes,2026-01-21_15h21.48.655,empathy_intonation_perc_control,2024.2.4,Win32,60.24096386,5c7c73b6f48c6d0001f6f49c,69712dc693a3960bdb483245,697134dcfbd6b5407e3cc5a3,,,,,,,,,,,,./stim/wavs/mexican_match_declarative-broad-focus_David-leia-el-libro.wav,0,,,347.7641,355.7614,1,0,7.475,,0,67,67,58,1,59,0,mexican,,,,,,,,,,,,,,,,,,,,,,,,,,,,,,,,,,,,,,,,,,,,,,,,,,,,,,,,
,,,,,,,,,5c7c73b6f48c6d0001f6f49c,Dominican Republic,younger than 13,"no, only English or Spanish",yes,2026-01-21_15h21.48.655,empathy_intonation_perc_control,2024.2.4,Win32,60.24096386,5c7c73b6f48c6d0001f6f49c,69712dc693a3960bdb483245,697134dcfbd6b5407e3cc5a3,,,,,,,,,,,,./stim/wavs/mexican_mismatch_declarative-broad-focus_El-bebe-comia-muy-bien.wav,0,,,355.7625,363.3771,0,1,7.1057,,0,68,68,78,1,79,0,mexican,,,,,,,,,,,,,,,,,,,,,,,,,,,,,,,,,,,,,,,,,,,,,,,,,,,,,,,,
,,,,,,,,,5c7c73b6f48c6d0001f6f49c,Dominican Republic,younger than 13,"no, only English or Spanish",yes,2026-01-21_15h21.48.655,empathy_intonation_perc_control,2024.2.4,Win32,60.24096386,5c7c73b6f48c6d0001f6f49c,69712dc693a3960bdb483245,697134dcfbd6b5407e3cc5a3,,,,,,,,,,,,./stim/wavs/puertorican_match_declarative-broad-focus_Ana-lleva-el-abrigo.wav,0,,,363.3784,368.8801,1,0,4.9812,,0,69,69,62,1,63,0,puertorican,,,,,,,,,,,,,,,,,,,,,,,,,,,,,,,,,,,,,,,,,,,,,,,,,,,,,,,,
,,,,,,,,,5c7c73b6f48c6d0001f6f49c,Dominican Republic,younger than 13,"no, only English or Spanish",yes,2026-01-21_15h21.48.655,empathy_intonation_perc_control,2024.2.4,Win32,60.24096386,5c7c73b6f48c6d0001f6f49c,69712dc693a3960bdb483245,697134dcfbd6b5407e3cc5a3,,,,,,,,,,,,./stim/wavs/cuban_match_declarative-broad-focus_Marta-abre-el-regalo.wav,0,,,368.881,371.2591,1,0,1.8671,,0,70,70,55,1,56,0,cuban,,,,,,,,,,,,,,,,,,,,,,,,,,,,,,,,,,,,,,,,,,,,,,,,,,,,,,,,
,,,,,,,,,5c7c73b6f48c6d0001f6f49c,Dominican Republic,younger than 13,"no, only English or Spanish",yes,2026-01-21_15h21.48.655,empathy_intonation_perc_control,2024.2.4,Win32,60.24096386,5c7c73b6f48c6d0001f6f49c,69712dc693a3960bdb483245,697134dcfbd6b5407e3cc5a3,,,,,,,,,,,,./stim/wavs/puertorican_match_declarative-broad-focus_Emilio-ama-la-marcha.wav,0,,,371.2599,376.3085,1,0,4.5229,,0,71,71,65,1,66,0,puertorican,,,,,,,,,,,,,,,,,,,,,,,,,,,,,,,,,,,,,,,,,,,,,,,,,,,,,,,,
,,,,,,,,,5c7c73b6f48c6d0001f6f49c,Dominican Republic,younger than 13,"no, only English or Spanish",yes,2026-01-21_15h21.48.655,empathy_intonation_perc_control,2024.2.4,Win32,60.24096386,5c7c73b6f48c6d0001f6f49c,69712dc693a3960bdb483245,697134dcfbd6b5407e3cc5a3,,,,,,,,,,,,./stim/wavs/cuban_mismatch_declarative-broad-focus_Mi-tia-odia-la-lluvia.wav,0,,,376.3096,380.8239,0,1,3.9883,,0,72,72,77,1,78,0,cuban,,,,,,,,,,,,,,,,,,,,,,,,,,,,,,,,,,,,,,,,,,,,,,,,,,,,,,,,
,,,,,,,,,5c7c73b6f48c6d0001f6f49c,Dominican Republic,younger than 13,"no, only English or Spanish",yes,2026-01-21_15h21.48.655,empathy_intonation_perc_control,2024.2.4,Win32,60.24096386,5c7c73b6f48c6d0001f6f49c,69712dc693a3960bdb483245,697134dcfbd6b5407e3cc5a3,,,,,,,,,,,,./stim/wavs/cuban_match_interrogative-total-yn_Maria-bebe-el-vino.wav,1,,,380.8244,384.0239,1,1,2.6694,,0,73,73,9,1,10,1,cuban,,,,,,,,,,,,,,,,,,,,,,,,,,,,,,,,,,,,,,,,,,,,,,,,,,,,,,,,
,,,,,,,,,5c7c73b6f48c6d0001f6f49c,Dominican Republic,younger than 13,"no, only English or Spanish",yes,2026-01-21_15h21.48.655,empathy_intonation_perc_control,2024.2.4,Win32,60.24096386,5c7c73b6f48c6d0001f6f49c,69712dc693a3960bdb483245,697134dcfbd6b5407e3cc5a3,,,,,,,,,,,,./stim/wavs/cuban_mismatch_declarative-broad-focus_El-bebe-comia-muy-bien.wav,0,,,384.0249,386.9738,1,0,2.4386,,0,74,74,73,1,74,0,cuban,,,,,,,,,,,,,,,,,,,,,,,,,,,,,,,,,,,,,,,,,,,,,,,,,,,,,,,,
,,,,,,,,,5c7c73b6f48c6d0001f6f49c,Dominican Republic,younger than 13,"no, only English or Spanish",yes,2026-01-21_15h21.48.655,empathy_intonation_perc_control,2024.2.4,Win32,60.24096386,5c7c73b6f48c6d0001f6f49c,69712dc693a3960bdb483245,697134dcfbd6b5407e3cc5a3,,,,,,,,,,,,./stim/wavs/puertorican_match_declarative-broad-focus_Manuela-vende-el-carro.wav,0,,,386.9753,389.723,0,1,2.2192,,0,75,75,66,1,67,0,puertorican,,,,,,,,,,,,,,,,,,,,,,,,,,,,,,,,,,,,,,,,,,,,,,,,,,,,,,,,
,,,,,,,,,5c7c73b6f48c6d0001f6f49c,Dominican Republic,younger than 13,"no, only English or Spanish",yes,2026-01-21_15h21.48.655,empathy_intonation_perc_control,2024.2.4,Win32,60.24096386,5c7c73b6f48c6d0001f6f49c,69712dc693a3960bdb483245,697134dcfbd6b5407e3cc5a3,,,,,,,,,,,,./stim/wavs/cuban_mismatch_interrogative-total-yn_Mi-madre-come-la-fruta.wav,1,,,389.7244,392.1893,0,0,1.9375,,0,76,76,31,1,32,1,cuban,,,,,,,,,,,,,,,,,,,,,,,,,,,,,,,,,,,,,,,,,,,,,,,,,,,,,,,,
,,,,,,,,,5c7c73b6f48c6d0001f6f49c,Dominican Republic,younger than 13,"no, only English or Spanish",yes,2026-01-21_15h21.48.655,empathy_intonation_perc_control,2024.2.4,Win32,60.24096386,5c7c73b6f48c6d0001f6f49c,69712dc693a3960bdb483245,697134dcfbd6b5407e3cc5a3,,,,,,,,,,,,./stim/wavs/mexican_mismatch_interrogative-total-yn_La-maestra-vive-en-Paris.wav,1,,,392.1905,399.2549,1,1,6.5336,,0,77,77,36,1,37,0,mexican,,,,,,,,,,,,,,,,,,,,,,,,,,,,,,,,,,,,,,,,,,,,,,,,,,,,,,,,
,,,,,,,,,5c7c73b6f48c6d0001f6f49c,Dominican Republic,younger than 13,"no, only English or Spanish",yes,2026-01-21_15h21.48.655,empathy_intonation_perc_control,2024.2.4,Win32,60.24096386,5c7c73b6f48c6d0001f6f49c,69712dc693a3960bdb483245,697134dcfbd6b5407e3cc5a3,,,,,,,,,,,,./stim/wavs/mexican_match_declarative-broad-focus_Mariano-habla-del-tiempo.wav,0,,,399.2556,402.8095,0,1,3.032,,0,78,78,60,1,61,0,mexican,,,,,,,,,,,,,,,,,,,,,,,,,,,,,,,,,,,,,,,,,,,,,,,,,,,,,,,,
,,,,,,,,,5c7c73b6f48c6d0001f6f49c,Dominican Republic,younger than 13,"no, only English or Spanish",yes,2026-01-21_15h21.48.655,empathy_intonation_perc_control,2024.2.4,Win32,60.24096386,5c7c73b6f48c6d0001f6f49c,69712dc693a3960bdb483245,697134dcfbd6b5407e3cc5a3,,,,,,,,,,,,./stim/wavs/castilian_match_declarative-broad-focus_Manuela-vende-el-carro.wav,0,,,402.8102,407.0704,0,1,3.736,,0,79,79,46,1,47,0,castilian,,,,,,,,,,,,,,,,,,,,,,,,,,,,,,,,,,,,,,,,,,,,,,,,,,,,,,,,
,,,,,,,,,5c7c73b6f48c6d0001f6f49c,Dominican Republic,younger than 13,"no, only English or Spanish",yes,2026-01-21_15h21.48.655,empathy_intonation_perc_control,2024.2.4,Win32,60.24096386,5c7c73b6f48c6d0001f6f49c,69712dc693a3960bdb483245,697134dcfbd6b5407e3cc5a3,,,,,,,,,,,,./stim/wavs/castilian_mismatch_interrogative-total-yn_Mi-madre-come-la-fruta.wav,1,,,407.0711,417.9856,1,1,10.3848,,0,80,80,26,1,27,0,castilian,,,,,,,,,,,,,,,,,,,,,,,,,,,,,,,,,,,,,,,,,,,,,,,,,,,,,,,,
,,,,,,,,,5c7c73b6f48c6d0001f6f49c,Dominican Republic,younger than 13,"no, only English or Spanish",yes,2026-01-21_15h21.48.655,empathy_intonation_perc_control,2024.2.4,Win32,60.24096386,5c7c73b6f48c6d0001f6f49c,69712dc693a3960bdb483245,697134dcfbd6b5407e3cc5a3,,,,,,,,,,,,./stim/wavs/castilian_match_declarative-broad-focus_David-leia-el-libro.wav,0,,,417.9865,422.104,0,1,3.5955,,0,81,81,44,1,45,0,castilian,,,,,,,,,,,,,,,,,,,,,,,,,,,,,,,,,,,,,,,,,,,,,,,,,,,,,,,,
,,,,,,,,,5c7c73b6f48c6d0001f6f49c,Dominican Republic,younger than 13,"no, only English or Spanish",yes,2026-01-21_15h21.48.655,empathy_intonation_perc_control,2024.2.4,Win32,60.24096386,5c7c73b6f48c6d0001f6f49c,69712dc693a3960bdb483245,697134dcfbd6b5407e3cc5a3,,,,,,,,,,,,./stim/wavs/castilian_mismatch_declarative-broad-focus_La-maestra-vive-en-Paris.wav,0,,,422.1052,426.9677,0,1,4.3201,,0,82,82,69,1,70,0,castilian,,,,,,,,,,,,,,,,,,,,,,,,,,,,,,,,,,,,,,,,,,,,,,,,,,,,,,,,
,,,,,,,,,5c7c73b6f48c6d0001f6f49c,Dominican Republic,younger than 13,"no, only English or Spanish",yes,2026-01-21_15h21.48.655,empathy_intonation_perc_control,2024.2.4,Win32,60.24096386,5c7c73b6f48c6d0001f6f49c,69712dc693a3960bdb483245,697134dcfbd6b5407e3cc5a3,,,,,,,,,,,,./stim/wavs/castilian_mismatch_interrogative-total-yn_Mi-tia-odia-la-lluvia.wav,1,,,426.9686,429.6189,1,1,2.1286,,0,83,83,28,1,29,0,castilian,,,,,,,,,,,,,,,,,,,,,,,,,,,,,,,,,,,,,,,,,,,,,,,,,,,,,,,,
,,,,,,,,,5c7c73b6f48c6d0001f6f49c,Dominican Republic,younger than 13,"no, only English or Spanish",yes,2026-01-21_15h21.48.655,empathy_intonation_perc_control,2024.2.4,Win32,60.24096386,5c7c73b6f48c6d0001f6f49c,69712dc693a3960bdb483245,697134dcfbd6b5407e3cc5a3,,,,,,,,,,,,./stim/wavs/mexican_mismatch_declarative-broad-focus_Mi-novio-viene-del-lago.wav,0,,,429.6202,432.5505,0,1,2.4051,,0,84,84,81,1,82,0,mexican,,,,,,,,,,,,,,,,,,,,,,,,,,,,,,,,,,,,,,,,,,,,,,,,,,,,,,,,
,,,,,,,,,5c7c73b6f48c6d0001f6f49c,Dominican Republic,younger than 13,"no, only English or Spanish",yes,2026-01-21_15h21.48.655,empathy_intonation_perc_control,2024.2.4,Win32,60.24096386,5c7c73b6f48c6d0001f6f49c,69712dc693a3960bdb483245,697134dcfbd6b5407e3cc5a3,,,,,,,,,,,,./stim/wavs/mexican_mismatch_declarative-broad-focus_El-hombre-mira-la-luna.wav,0,,,432.5514,437.1227,0,1,4.0501,,0,85,85,79,1,80,0,mexican,,,,,,,,,,,,,,,,,,,,,,,,,,,,,,,,,,,,,,,,,,,,,,,,,,,,,,,,
,,,,,,,,,5c7c73b6f48c6d0001f6f49c,Dominican Republic,younger than 13,"no, only English or Spanish",yes,2026-01-21_15h21.48.655,empathy_intonation_perc_control,2024.2.4,Win32,60.24096386,5c7c73b6f48c6d0001f6f49c,69712dc693a3960bdb483245,697134dcfbd6b5407e3cc5a3,,,,,,,,,,,,./stim/wavs/cuban_mismatch_interrogative-total-yn_Mi-tia-odia-la-lluvia.wav,1,,,437.1234,441.6171,0,0,3.9783,,0,86,86,33,1,34,1,cuban,,,,,,,,,,,,,,,,,,,,,,,,,,,,,,,,,,,,,,,,,,,,,,,,,,,,,,,,
,,,,,,,,,5c7c73b6f48c6d0001f6f49c,Dominican Republic,younger than 13,"no, only English or Spanish",yes,2026-01-21_15h21.48.655,empathy_intonation_perc_control,2024.2.4,Win32,60.24096386,5c7c73b6f48c6d0001f6f49c,69712dc693a3960bdb483245,697134dcfbd6b5407e3cc5a3,,,,,,,,,,,,./stim/wavs/mexican_match_declarative-broad-focus_Emilio-ama-la-marcha.wav,0,,,441.6183,444.9155,0,1,2.7763,,0,87,87,59,1,60,0,mexican,,,,,,,,,,,,,,,,,,,,,,,,,,,,,,,,,,,,,,,,,,,,,,,,,,,,,,,,
,,,,,,,"Great! Now we will move on. The next task consists of about 60 trials, in each of which you will see a string of letters. 
  
  Your task is to decide whether this is a real Spanish word or not.", (press the spacebar to continue),5c7c73b6f48c6d0001f6f49c,Dominican Republic,younger than 13,"no, only English or Spanish",yes,2026-01-21_15h21.48.655,empathy_intonation_perc_control,2024.2.4,Win32,60.24096386,5c7c73b6f48c6d0001f6f49c,69712dc693a3960bdb483245,697134dcfbd6b5407e3cc5a3,,,,,,,,,,,,,,,,,,,,,,,,,,,,,,444.9278,451.058,0,0,0,0,1,,,,,,,,,,,,,,,,,,,,,,,,,,,,,,,,,,,,,,,,,,,,,,,,,
,,,,,,,"If you think it is an existing Spanish word, you type '1' (for 'REAL'), and if you think it is not an existing Spanish word, you type '0' (for 'FAKE').", (press the spacebar to continue),5c7c73b6f48c6d0001f6f49c,Dominican Republic,younger than 13,"no, only English or Spanish",yes,2026-01-21_15h21.48.655,empathy_intonation_perc_control,2024.2.4,Win32,60.24096386,5c7c73b6f48c6d0001f6f49c,69712dc693a3960bdb483245,697134dcfbd6b5407e3cc5a3,,,,,,,,,,,,,,,,,,,,,,,,,,,,,,451.0656,455.6249,0,1,1,1,1,,,,,,,,,,,,,,,,,,,,,,,,,,,,,,,,,,,,,,,,,,,,,,,,,
,,,,,,,"If you are sure that the word exists, even though you don’t know its exact meaning, you may still respond '1' (REAL). 
  
  But if you are not sure if it is an existing word, you should respond '0' (FAKE).
  
  Let's do a practice round...", (press the spacebar to continue),5c7c73b6f48c6d0001f6f49c,Dominican Republic,younger than 13,"no, only English or Spanish",yes,2026-01-21_15h21.48.655,empathy_intonation_perc_control,2024.2.4,Win32,60.24096386,5c7c73b6f48c6d0001f6f49c,69712dc693a3960bdb483245,697134dcfbd6b5407e3cc5a3,,,,,,,,,,,,,,,,,,,,,,,,,,,,,,455.6304,461.8657,0,2,2,2,1,,,,,,,,,,,,,,,,,,,,,,,,,,,,,,,,,,,,,,,,,,,,,,,,,
,,,,,,,,,5c7c73b6f48c6d0001f6f49c,Dominican Republic,younger than 13,"no, only English or Spanish",yes,2026-01-21_15h21.48.655,empathy_intonation_perc_control,2024.2.4,Win32,60.24096386,5c7c73b6f48c6d0001f6f49c,69712dc693a3960bdb483245,697134dcfbd6b5407e3cc5a3,,,,,,,,,,,,,0,,,,,,,,,,,,,,,,,,,,,,,,461.8791,463.9627,0,1,1.5656,,463.9631,464.9624,0,0,0,0,1,0,depiste,REAL,FAKE,,,,,,,,,,,,,,,,,,,,,,,,,,,,,,,,
,,,,,,,,,5c7c73b6f48c6d0001f6f49c,Dominican Republic,younger than 13,"no, only English or Spanish",yes,2026-01-21_15h21.48.655,empathy_intonation_perc_control,2024.2.4,Win32,60.24096386,5c7c73b6f48c6d0001f6f49c,69712dc693a3960bdb483245,697134dcfbd6b5407e3cc5a3,,,,,,,,,,,,,1,,,,,,,,,,,,,,,,,,,,,,,,464.9647,466.246,1,1,0.7571,,466.2463,467.2455,0,1,1,1,1,0,sí,REAL,FAKE,,,,,,,,,,,,,,,,,,,,,,,,,,,,,,,,
,,,,,,,,,5c7c73b6f48c6d0001f6f49c,Dominican Republic,younger than 13,"no, only English or Spanish",yes,2026-01-21_15h21.48.655,empathy_intonation_perc_control,2024.2.4,Win32,60.24096386,5c7c73b6f48c6d0001f6f49c,69712dc693a3960bdb483245,697134dcfbd6b5407e3cc5a3,,,,,,,,,,,,,0,,,,,,,,,,,,,,,,,,,,,,,,467.2477,468.5452,0,1,0.7695,,468.5453,469.5452,0,2,2,2,1,0,coné,REAL,FAKE,,,,,,,,,,,,,,,,,,,,,,,,,,,,,,,,
,,,,,,,,,5c7c73b6f48c6d0001f6f49c,Dominican Republic,younger than 13,"no, only English or Spanish",yes,2026-01-21_15h21.48.655,empathy_intonation_perc_control,2024.2.4,Win32,60.24096386,5c7c73b6f48c6d0001f6f49c,69712dc693a3960bdb483245,697134dcfbd6b5407e3cc5a3,,,,,,,,,,,,,0,,,,,,,,,,,,,,,,,,,,,,,,469.5474,470.9784,0,1,0.9037,,470.9785,471.9779,0,3,3,3,1,0,calpar,REAL,FAKE,,,,,,,,,,,,,,,,,,,,,,,,,,,,,,,,
,,,,,,,,,5c7c73b6f48c6d0001f6f49c,Dominican Republic,younger than 13,"no, only English or Spanish",yes,2026-01-21_15h21.48.655,empathy_intonation_perc_control,2024.2.4,Win32,60.24096386,5c7c73b6f48c6d0001f6f49c,69712dc693a3960bdb483245,697134dcfbd6b5407e3cc5a3,,,,,,,,,,,,,0,,,,,,,,,,,,,,,,,,,,,,,,471.9799,473.4778,0,1,0.9672,,473.478,474.4775,0,4,4,4,1,0,joten,REAL,FAKE,,,,,,,,,,,,,,,,,,,,,,,,,,,,,,,,
,,,,,,,,,5c7c73b6f48c6d0001f6f49c,Dominican Republic,younger than 13,"no, only English or Spanish",yes,2026-01-21_15h21.48.655,empathy_intonation_perc_control,2024.2.4,Win32,60.24096386,5c7c73b6f48c6d0001f6f49c,69712dc693a3960bdb483245,697134dcfbd6b5407e3cc5a3,,,,,,,,,,,,,1,,,,,,,,,,,,,,,,,,,,,,,,474.4791,475.9441,1,1,0.9314,,475.9442,476.9439,0,5,5,5,1,0,sacapuntas,REAL,FAKE,,,,,,,,,,,,,,,,,,,,,,,,,,,,,,,,
,,,,,,,,,5c7c73b6f48c6d0001f6f49c,Dominican Republic,younger than 13,"no, only English or Spanish",yes,2026-01-21_15h21.48.655,empathy_intonation_perc_control,2024.2.4,Win32,60.24096386,5c7c73b6f48c6d0001f6f49c,69712dc693a3960bdb483245,697134dcfbd6b5407e3cc5a3,,,,,,,,,,,,,0,,,,,,,,,,,,,,,,,,,,,,,,476.9461,478.3275,1,0,0.8547,,478.3298,479.3269,0,6,6,6,1,0,priba,REAL,FAKE,,,,,,,,,,,,,,,,,,,,,,,,,,,,,,,,
,,,,,,,,,5c7c73b6f48c6d0001f6f49c,Dominican Republic,younger than 13,"no, only English or Spanish",yes,2026-01-21_15h21.48.655,empathy_intonation_perc_control,2024.2.4,Win32,60.24096386,5c7c73b6f48c6d0001f6f49c,69712dc693a3960bdb483245,697134dcfbd6b5407e3cc5a3,,,,,,,,,,,,,0,,,,,,,,,,,,,,,,,,,,,,,,479.3288,480.6933,0,1,0.8322,,480.6941,481.6934,0,7,7,7,1,0,pelasula,REAL,FAKE,,,,,,,,,,,,,,,,,,,,,,,,,,,,,,,,
,,,,,,,,,5c7c73b6f48c6d0001f6f49c,Dominican Republic,younger than 13,"no, only English or Spanish",yes,2026-01-21_15h21.48.655,empathy_intonation_perc_control,2024.2.4,Win32,60.24096386,5c7c73b6f48c6d0001f6f49c,69712dc693a3960bdb483245,697134dcfbd6b5407e3cc5a3,,,,,,,,,,,,,1,,,,,,,,,,,,,,,,,,,,,,,,481.6949,482.8448,1,1,0.6256,,482.8449,483.8428,0,8,8,8,1,0,bien,REAL,FAKE,,,,,,,,,,,,,,,,,,,,,,,,,,,,,,,,
,,,,,,,,,5c7c73b6f48c6d0001f6f49c,Dominican Republic,younger than 13,"no, only English or Spanish",yes,2026-01-21_15h21.48.655,empathy_intonation_perc_control,2024.2.4,Win32,60.24096386,5c7c73b6f48c6d0001f6f49c,69712dc693a3960bdb483245,697134dcfbd6b5407e3cc5a3,,,,,,,,,,,,,1,,,,,,,,,,,,,,,,,,,,,,,,483.8445,485.0095,1,1,0.6354,,485.0096,486.0095,0,9,9,9,1,0,casa,REAL,FAKE,,,,,,,,,,,,,,,,,,,,,,,,,,,,,,,,
,,,,,,,,,5c7c73b6f48c6d0001f6f49c,Dominican Republic,younger than 13,"no, only English or Spanish",yes,2026-01-21_15h21.48.655,empathy_intonation_perc_control,2024.2.4,Win32,60.24096386,5c7c73b6f48c6d0001f6f49c,69712dc693a3960bdb483245,697134dcfbd6b5407e3cc5a3,,,,,,,,,,,,,0,,,,,,,,,,,,,,,,,,,,,,,,486.0112,487.7258,1,0,1.1859,,487.7268,488.7256,0,10,10,10,1,0,lejo,REAL,FAKE,,,,,,,,,,,,,,,,,,,,,,,,,,,,,,,,
,,,,,,,,,5c7c73b6f48c6d0001f6f49c,Dominican Republic,younger than 13,"no, only English or Spanish",yes,2026-01-21_15h21.48.655,empathy_intonation_perc_control,2024.2.4,Win32,60.24096386,5c7c73b6f48c6d0001f6f49c,69712dc693a3960bdb483245,697134dcfbd6b5407e3cc5a3,,,,,,,,,,,,,0,,,,,,,,,,,,,,,,,,,,,,,,488.7275,490.292,1,0,1.0315,,490.2921,491.2919,0,11,11,11,1,0,pretantas,REAL,FAKE,,,,,,,,,,,,,,,,,,,,,,,,,,,,,,,,
,,,,,,,,,5c7c73b6f48c6d0001f6f49c,Dominican Republic,younger than 13,"no, only English or Spanish",yes,2026-01-21_15h21.48.655,empathy_intonation_perc_control,2024.2.4,Win32,60.24096386,5c7c73b6f48c6d0001f6f49c,69712dc693a3960bdb483245,697134dcfbd6b5407e3cc5a3,,,,,,,,,,,,,,,,,,,,,,,,,,,,,,,,,,,,,,,,,,,,,,,,,,,,,,491.2923,491.9434,,,,,,,,,,,,,,,,,,,,,,,,,,,,,,
,,,,,,,,,5c7c73b6f48c6d0001f6f49c,Dominican Republic,younger than 13,"no, only English or Spanish",yes,2026-01-21_15h21.48.655,empathy_intonation_perc_control,2024.2.4,Win32,60.24096386,5c7c73b6f48c6d0001f6f49c,69712dc693a3960bdb483245,697134dcfbd6b5407e3cc5a3,,,,,,,,,,,,,1,,,,,,,,,,,,,,,,,,,,,,,,,,,,,,,,,,,,,11,cenefa,,,,,491.964,493.642,0,0,1.1519,,0,0,0,10,1,REAL,FAKE,,,,,,,,,,,,,,,,,
,,,,,,,,,5c7c73b6f48c6d0001f6f49c,Dominican Republic,younger than 13,"no, only English or Spanish",yes,2026-01-21_15h21.48.655,empathy_intonation_perc_control,2024.2.4,Win32,60.24096386,5c7c73b6f48c6d0001f6f49c,69712dc693a3960bdb483245,697134dcfbd6b5407e3cc5a3,,,,,,,,,,,,,0,,,,,,,,,,,,,,,,,,,,,,,,,,,,,,,,,,,,,35,rompido,,,,,493.6439,495.2088,1,0,1.0373,,0,1,1,34,1,REAL,FAKE,,,,,,,,,,,,,,,,,
,,,,,,,,,5c7c73b6f48c6d0001f6f49c,Dominican Republic,younger than 13,"no, only English or Spanish",yes,2026-01-21_15h21.48.655,empathy_intonation_perc_control,2024.2.4,Win32,60.24096386,5c7c73b6f48c6d0001f6f49c,69712dc693a3960bdb483245,697134dcfbd6b5407e3cc5a3,,,,,,,,,,,,,1,,,,,,,,,,,,,,,,,,,,,,,,,,,,,,,,,,,,,54,fomentar,,,,,495.2109,496.5615,0,0,0.8263,,0,2,2,53,1,REAL,FAKE,,,,,,,,,,,,,,,,,
,,,,,,,,,5c7c73b6f48c6d0001f6f49c,Dominican Republic,younger than 13,"no, only English or Spanish",yes,2026-01-21_15h21.48.655,empathy_intonation_perc_control,2024.2.4,Win32,60.24096386,5c7c73b6f48c6d0001f6f49c,69712dc693a3960bdb483245,697134dcfbd6b5407e3cc5a3,,,,,,,,,,,,,0,,,,,,,,,,,,,,,,,,,,,,,,,,,,,,,,,,,,,63,esposante,,,,,496.5633,498.991,1,0,1.8877,,0,3,3,62,1,REAL,FAKE,,,,,,,,,,,,,,,,,
,,,,,,,,,5c7c73b6f48c6d0001f6f49c,Dominican Republic,younger than 13,"no, only English or Spanish",yes,2026-01-21_15h21.48.655,empathy_intonation_perc_control,2024.2.4,Win32,60.24096386,5c7c73b6f48c6d0001f6f49c,69712dc693a3960bdb483245,697134dcfbd6b5407e3cc5a3,,,,,,,,,,,,,1,,,,,,,,,,,,,,,,,,,,,,,,,,,,,,,,,,,,,60,matar,,,,,498.9924,500.3074,1,1,0.7728,,0,4,4,59,1,REAL,FAKE,,,,,,,,,,,,,,,,,
,,,,,,,,,5c7c73b6f48c6d0001f6f49c,Dominican Republic,younger than 13,"no, only English or Spanish",yes,2026-01-21_15h21.48.655,empathy_intonation_perc_control,2024.2.4,Win32,60.24096386,5c7c73b6f48c6d0001f6f49c,69712dc693a3960bdb483245,697134dcfbd6b5407e3cc5a3,,,,,,,,,,,,,1,,,,,,,,,,,,,,,,,,,,,,,,,,,,,,,,,,,,,45,jilguero,,,,,500.3097,502.3071,0,0,1.4537,,0,5,5,44,1,REAL,FAKE,,,,,,,,,,,,,,,,,
,,,,,,,,,5c7c73b6f48c6d0001f6f49c,Dominican Republic,younger than 13,"no, only English or Spanish",yes,2026-01-21_15h21.48.655,empathy_intonation_perc_control,2024.2.4,Win32,60.24096386,5c7c73b6f48c6d0001f6f49c,69712dc693a3960bdb483245,697134dcfbd6b5407e3cc5a3,,,,,,,,,,,,,1,,,,,,,,,,,,,,,,,,,,,,,,,,,,,,,,,,,,,37,granuja,,,,,502.3088,503.7404,1,1,0.8888,,0,6,6,36,1,REAL,FAKE,,,,,,,,,,,,,,,,,
,,,,,,,,,5c7c73b6f48c6d0001f6f49c,Dominican Republic,younger than 13,"no, only English or Spanish",yes,2026-01-21_15h21.48.655,empathy_intonation_perc_control,2024.2.4,Win32,60.24096386,5c7c73b6f48c6d0001f6f49c,69712dc693a3960bdb483245,697134dcfbd6b5407e3cc5a3,,,,,,,,,,,,,1,,,,,,,,,,,,,,,,,,,,,,,,,,,,,,,,,,,,,38,estornudar,,,,,503.7419,506.7401,1,1,2.459,,0,7,7,37,1,REAL,FAKE,,,,,,,,,,,,,,,,,
,,,,,,,,,5c7c73b6f48c6d0001f6f49c,Dominican Republic,younger than 13,"no, only English or Spanish",yes,2026-01-21_15h21.48.655,empathy_intonation_perc_control,2024.2.4,Win32,60.24096386,5c7c73b6f48c6d0001f6f49c,69712dc693a3960bdb483245,697134dcfbd6b5407e3cc5a3,,,,,,,,,,,,,0,,,,,,,,,,,,,,,,,,,,,,,,,,,,,,,,,,,,,30,alardio,,,,,506.7418,509.1741,0,1,1.912,,0,8,8,29,1,REAL,FAKE,,,,,,,,,,,,,,,,,
,,,,,,,,,5c7c73b6f48c6d0001f6f49c,Dominican Republic,younger than 13,"no, only English or Spanish",yes,2026-01-21_15h21.48.655,empathy_intonation_perc_control,2024.2.4,Win32,60.24096386,5c7c73b6f48c6d0001f6f49c,69712dc693a3960bdb483245,697134dcfbd6b5407e3cc5a3,,,,,,,,,,,,,1,,,,,,,,,,,,,,,,,,,,,,,,,,,,,,,,,,,,,85,laúd,,,,,509.1767,510.6895,0,0,0.9734,,0,9,9,84,1,REAL,FAKE,,,,,,,,,,,,,,,,,
,,,,,,,,,5c7c73b6f48c6d0001f6f49c,Dominican Republic,younger than 13,"no, only English or Spanish",yes,2026-01-21_15h21.48.655,empathy_intonation_perc_control,2024.2.4,Win32,60.24096386,5c7c73b6f48c6d0001f6f49c,69712dc693a3960bdb483245,697134dcfbd6b5407e3cc5a3,,,,,,,,,,,,,0,,,,,,,,,,,,,,,,,,,,,,,,,,,,,,,,,,,,,53,vegada,,,,,510.6915,512.6389,0,1,1.4037,,0,10,10,52,1,REAL,FAKE,,,,,,,,,,,,,,,,,
,,,,,,,,,5c7c73b6f48c6d0001f6f49c,Dominican Republic,younger than 13,"no, only English or Spanish",yes,2026-01-21_15h21.48.655,empathy_intonation_perc_control,2024.2.4,Win32,60.24096386,5c7c73b6f48c6d0001f6f49c,69712dc693a3960bdb483245,697134dcfbd6b5407e3cc5a3,,,,,,,,,,,,,1,,,,,,,,,,,,,,,,,,,,,,,,,,,,,,,,,,,,,44,cuchara,,,,,512.6406,514.2315,1,1,1.0534,,0,11,11,43,1,REAL,FAKE,,,,,,,,,,,,,,,,,
,,,,,,,,,5c7c73b6f48c6d0001f6f49c,Dominican Republic,younger than 13,"no, only English or Spanish",yes,2026-01-21_15h21.48.655,empathy_intonation_perc_control,2024.2.4,Win32,60.24096386,5c7c73b6f48c6d0001f6f49c,69712dc693a3960bdb483245,697134dcfbd6b5407e3cc5a3,,,,,,,,,,,,,1,,,,,,,,,,,,,,,,,,,,,,,,,,,,,,,,,,,,,41,rebuscar,,,,,514.233,517.6716,0,0,2.9045,,0,12,12,40,1,REAL,FAKE,,,,,,,,,,,,,,,,,
,,,,,,,,,5c7c73b6f48c6d0001f6f49c,Dominican Republic,younger than 13,"no, only English or Spanish",yes,2026-01-21_15h21.48.655,empathy_intonation_perc_control,2024.2.4,Win32,60.24096386,5c7c73b6f48c6d0001f6f49c,69712dc693a3960bdb483245,697134dcfbd6b5407e3cc5a3,,,,,,,,,,,,,0,,,,,,,,,,,,,,,,,,,,,,,,,,,,,,,,,,,,,10,antar,,,,,517.673,519.2643,1,0,1.0534,,0,13,13,9,1,REAL,FAKE,,,,,,,,,,,,,,,,,
,,,,,,,,,5c7c73b6f48c6d0001f6f49c,Dominican Republic,younger than 13,"no, only English or Spanish",yes,2026-01-21_15h21.48.655,empathy_intonation_perc_control,2024.2.4,Win32,60.24096386,5c7c73b6f48c6d0001f6f49c,69712dc693a3960bdb483245,697134dcfbd6b5407e3cc5a3,,,,,,,,,,,,,0,,,,,,,,,,,,,,,,,,,,,,,,,,,,,,,,,,,,,27,acutación,,,,,519.2667,521.5877,0,1,1.7861,,0,14,14,26,1,REAL,FAKE,,,,,,,,,,,,,,,,,
,,,,,,,,,5c7c73b6f48c6d0001f6f49c,Dominican Republic,younger than 13,"no, only English or Spanish",yes,2026-01-21_15h21.48.655,empathy_intonation_perc_control,2024.2.4,Win32,60.24096386,5c7c73b6f48c6d0001f6f49c,69712dc693a3960bdb483245,697134dcfbd6b5407e3cc5a3,,,,,,,,,,,,,1,,,,,,,,,,,,,,,,,,,,,,,,,,,,,,,,,,,,,22,lacayo,,,,,521.5897,523.2215,0,0,1.0934,,0,15,15,21,1,REAL,FAKE,,,,,,,,,,,,,,,,,
,,,,,,,,,5c7c73b6f48c6d0001f6f49c,Dominican Republic,younger than 13,"no, only English or Spanish",yes,2026-01-21_15h21.48.655,empathy_intonation_perc_control,2024.2.4,Win32,60.24096386,5c7c73b6f48c6d0001f6f49c,69712dc693a3960bdb483245,697134dcfbd6b5407e3cc5a3,,,,,,,,,,,,,0,,,,,,,,,,,,,,,,,,,,,,,,,,,,,,,,,,,,,4,batillón,,,,,523.224,525.0205,1,0,1.253,,0,16,16,3,1,REAL,FAKE,,,,,,,,,,,,,,,,,
,,,,,,,,,5c7c73b6f48c6d0001f6f49c,Dominican Republic,younger than 13,"no, only English or Spanish",yes,2026-01-21_15h21.48.655,empathy_intonation_perc_control,2024.2.4,Win32,60.24096386,5c7c73b6f48c6d0001f6f49c,69712dc693a3960bdb483245,697134dcfbd6b5407e3cc5a3,,,,,,,,,,,,,0,,,,,,,,,,,,,,,,,,,,,,,,,,,,,,,,,,,,,17,floroso,,,,,525.0221,527.2869,1,0,1.7216,,0,17,17,16,1,REAL,FAKE,,,,,,,,,,,,,,,,,
,,,,,,,,,5c7c73b6f48c6d0001f6f49c,Dominican Republic,younger than 13,"no, only English or Spanish",yes,2026-01-21_15h21.48.655,empathy_intonation_perc_control,2024.2.4,Win32,60.24096386,5c7c73b6f48c6d0001f6f49c,69712dc693a3960bdb483245,697134dcfbd6b5407e3cc5a3,,,,,,,,,,,,,1,,,,,,,,,,,,,,,,,,,,,,,,,,,,,,,,,,,,,89,prisa,,,,,527.2884,528.7367,1,1,0.9061,,0,18,18,88,1,REAL,FAKE,,,,,,,,,,,,,,,,,
,,,,,,,,,5c7c73b6f48c6d0001f6f49c,Dominican Republic,younger than 13,"no, only English or Spanish",yes,2026-01-21_15h21.48.655,empathy_intonation_perc_control,2024.2.4,Win32,60.24096386,5c7c73b6f48c6d0001f6f49c,69712dc693a3960bdb483245,697134dcfbd6b5407e3cc5a3,,,,,,,,,,,,,1,,,,,,,,,,,,,,,,,,,,,,,,,,,,,,,,,,,,,83,guante,,,,,528.7382,532.637,0,0,3.3707,,0,19,19,82,1,REAL,FAKE,,,,,,,,,,,,,,,,,
,,,,,,,,,5c7c73b6f48c6d0001f6f49c,Dominican Republic,younger than 13,"no, only English or Spanish",yes,2026-01-21_15h21.48.655,empathy_intonation_perc_control,2024.2.4,Win32,60.24096386,5c7c73b6f48c6d0001f6f49c,69712dc693a3960bdb483245,697134dcfbd6b5407e3cc5a3,,,,,,,,,,,,,0,,,,,,,,,,,,,,,,,,,,,,,,,,,,,,,,,,,,,47,cartinar,,,,,532.6386,535.6289,1,0,2.4699,,0,20,20,46,1,REAL,FAKE,,,,,,,,,,,,,,,,,
,,,,,,,,,5c7c73b6f48c6d0001f6f49c,Dominican Republic,younger than 13,"no, only English or Spanish",yes,2026-01-21_15h21.48.655,empathy_intonation_perc_control,2024.2.4,Win32,60.24096386,5c7c73b6f48c6d0001f6f49c,69712dc693a3960bdb483245,697134dcfbd6b5407e3cc5a3,,,,,,,,,,,,,1,,,,,,,,,,,,,,,,,,,,,,,,,,,,,,,,,,,,,77,tiburón,,,,,535.6303,537.4204,0,0,1.2618,,0,21,21,76,1,REAL,FAKE,,,,,,,,,,,,,,,,,
,,,,,,,,,5c7c73b6f48c6d0001f6f49c,Dominican Republic,younger than 13,"no, only English or Spanish",yes,2026-01-21_15h21.48.655,empathy_intonation_perc_control,2024.2.4,Win32,60.24096386,5c7c73b6f48c6d0001f6f49c,69712dc693a3960bdb483245,697134dcfbd6b5407e3cc5a3,,,,,,,,,,,,,1,,,,,,,,,,,,,,,,,,,,,,,,,,,,,,,,,,,,,59,besar,,,,,537.4226,540.335,1,1,2.3701,,0,22,22,58,1,REAL,FAKE,,,,,,,,,,,,,,,,,
,,,,,,,,,5c7c73b6f48c6d0001f6f49c,Dominican Republic,younger than 13,"no, only English or Spanish",yes,2026-01-21_15h21.48.655,empathy_intonation_perc_control,2024.2.4,Win32,60.24096386,5c7c73b6f48c6d0001f6f49c,69712dc693a3960bdb483245,697134dcfbd6b5407e3cc5a3,,,,,,,,,,,,,1,,,,,,,,,,,,,,,,,,,,,,,,,,,,,,,,,,,,,76,atar,,,,,540.3365,542.3519,1,1,1.4746,,0,23,23,75,1,REAL,FAKE,,,,,,,,,,,,,,,,,
,,,,,,,,,5c7c73b6f48c6d0001f6f49c,Dominican Republic,younger than 13,"no, only English or Spanish",yes,2026-01-21_15h21.48.655,empathy_intonation_perc_control,2024.2.4,Win32,60.24096386,5c7c73b6f48c6d0001f6f49c,69712dc693a3960bdb483245,697134dcfbd6b5407e3cc5a3,,,,,,,,,,,,,1,,,,,,,,,,,,,,,,,,,,,,,,,,,,,,,,,,,,,64,orgulloso,,,,,542.3536,545.6013,0,0,2.7065,,0,24,24,63,1,REAL,FAKE,,,,,,,,,,,,,,,,,
,,,,,,,,,5c7c73b6f48c6d0001f6f49c,Dominican Republic,younger than 13,"no, only English or Spanish",yes,2026-01-21_15h21.48.655,empathy_intonation_perc_control,2024.2.4,Win32,60.24096386,5c7c73b6f48c6d0001f6f49c,69712dc693a3960bdb483245,697134dcfbd6b5407e3cc5a3,,,,,,,,,,,,,1,,,,,,,,,,,,,,,,,,,,,,,,,,,,,,,,,,,,,91,click the 1 key.,,,,,545.6035,546.9842,1,1,0.8365,,0,25,25,90,1,REAL,FAKE,,,,,,,,,,,,,,,,,
,,,,,,,,,5c7c73b6f48c6d0001f6f49c,Dominican Republic,younger than 13,"no, only English or Spanish",yes,2026-01-21_15h21.48.655,empathy_intonation_perc_control,2024.2.4,Win32,60.24096386,5c7c73b6f48c6d0001f6f49c,69712dc693a3960bdb483245,697134dcfbd6b5407e3cc5a3,,,,,,,,,,,,,1,,,,,,,,,,,,,,,,,,,,,,,,,,,,,,,,,,,,,24,látigo,,,,,546.9865,548.984,1,1,1.453,,0,26,26,23,1,REAL,FAKE,,,,,,,,,,,,,,,,,
,,,,,,,,,5c7c73b6f48c6d0001f6f49c,Dominican Republic,younger than 13,"no, only English or Spanish",yes,2026-01-21_15h21.48.655,empathy_intonation_perc_control,2024.2.4,Win32,60.24096386,5c7c73b6f48c6d0001f6f49c,69712dc693a3960bdb483245,697134dcfbd6b5407e3cc5a3,,,,,,,,,,,,,1,,,,,,,,,,,,,,,,,,,,,,,,,,,,,,,,,,,,,71,polvoriento,,,,,548.9862,553.6499,1,1,4.1195,,0,27,27,70,1,REAL,FAKE,,,,,,,,,,,,,,,,,
,,,,,,,,,5c7c73b6f48c6d0001f6f49c,Dominican Republic,younger than 13,"no, only English or Spanish",yes,2026-01-21_15h21.48.655,empathy_intonation_perc_control,2024.2.4,Win32,60.24096386,5c7c73b6f48c6d0001f6f49c,69712dc693a3960bdb483245,697134dcfbd6b5407e3cc5a3,,,,,,,,,,,,,0,,,,,,,,,,,,,,,,,,,,,,,,,,,,,,,,,,,,,50,flamida,,,,,553.6514,555.0164,1,0,0.8221,,0,28,28,49,1,REAL,FAKE,,,,,,,,,,,,,,,,,
,,,,,,,,,5c7c73b6f48c6d0001f6f49c,Dominican Republic,younger than 13,"no, only English or Spanish",yes,2026-01-21_15h21.48.655,empathy_intonation_perc_control,2024.2.4,Win32,60.24096386,5c7c73b6f48c6d0001f6f49c,69712dc693a3960bdb483245,697134dcfbd6b5407e3cc5a3,,,,,,,,,,,,,1,,,,,,,,,,,,,,,,,,,,,,,,,,,,,,,,,,,,,14,yunque,,,,,555.0179,556.4664,0,0,0.907,,0,29,29,13,1,REAL,FAKE,,,,,,,,,,,,,,,,,
,,,,,,,,,5c7c73b6f48c6d0001f6f49c,Dominican Republic,younger than 13,"no, only English or Spanish",yes,2026-01-21_15h21.48.655,empathy_intonation_perc_control,2024.2.4,Win32,60.24096386,5c7c73b6f48c6d0001f6f49c,69712dc693a3960bdb483245,697134dcfbd6b5407e3cc5a3,,,,,,,,,,,,,1,,,,,,,,,,,,,,,,,,,,,,,,,,,,,,,,,,,,,56,musgo,,,,,556.4683,557.9864,0,0,0.9807,,0,30,30,55,1,REAL,FAKE,,,,,,,,,,,,,,,,,
,,,,,,,,,5c7c73b6f48c6d0001f6f49c,Dominican Republic,younger than 13,"no, only English or Spanish",yes,2026-01-21_15h21.48.655,empathy_intonation_perc_control,2024.2.4,Win32,60.24096386,5c7c73b6f48c6d0001f6f49c,69712dc693a3960bdb483245,697134dcfbd6b5407e3cc5a3,,,,,,,,,,,,,0,,,,,,,,,,,,,,,,,,,,,,,,,,,,,,,,,,,,,18,arsa,,,,,557.9878,559.3826,1,0,0.8553,,0,31,31,17,1,REAL,FAKE,,,,,,,,,,,,,,,,,
,,,,,,,,,5c7c73b6f48c6d0001f6f49c,Dominican Republic,younger than 13,"no, only English or Spanish",yes,2026-01-21_15h21.48.655,empathy_intonation_perc_control,2024.2.4,Win32,60.24096386,5c7c73b6f48c6d0001f6f49c,69712dc693a3960bdb483245,697134dcfbd6b5407e3cc5a3,,,,,,,,,,,,,0,,,,,,,,,,,,,,,,,,,,,,,,,,,,,,,,,,,,,92,click the 0 key.,,,,,559.384,560.6322,0,1,0.7041,,0,32,32,91,1,REAL,FAKE,,,,,,,,,,,,,,,,,
,,,,,,,,,5c7c73b6f48c6d0001f6f49c,Dominican Republic,younger than 13,"no, only English or Spanish",yes,2026-01-21_15h21.48.655,empathy_intonation_perc_control,2024.2.4,Win32,60.24096386,5c7c73b6f48c6d0001f6f49c,69712dc693a3960bdb483245,697134dcfbd6b5407e3cc5a3,,,,,,,,,,,,,1,,,,,,,,,,,,,,,,,,,,,,,,,,,,,,,,,,,,,15,regar,,,,,560.6338,563.1913,0,0,2.0199,,0,33,33,14,1,REAL,FAKE,,,,,,,,,,,,,,,,,
,,,,,,,,,5c7c73b6f48c6d0001f6f49c,Dominican Republic,younger than 13,"no, only English or Spanish",yes,2026-01-21_15h21.48.655,empathy_intonation_perc_control,2024.2.4,Win32,60.24096386,5c7c73b6f48c6d0001f6f49c,69712dc693a3960bdb483245,697134dcfbd6b5407e3cc5a3,,,,,,,,,,,,,0,,,,,,,,,,,,,,,,,,,,,,,,,,,,,,,,,,,,,74,cintro,,,,,563.1928,564.5323,1,0,0.8104,,0,34,34,73,1,REAL,FAKE,,,,,,,,,,,,,,,,,
,,,,,,,,,5c7c73b6f48c6d0001f6f49c,Dominican Republic,younger than 13,"no, only English or Spanish",yes,2026-01-21_15h21.48.655,empathy_intonation_perc_control,2024.2.4,Win32,60.24096386,5c7c73b6f48c6d0001f6f49c,69712dc693a3960bdb483245,697134dcfbd6b5407e3cc5a3,,,,,,,,,,,,,1,,,,,,,,,,,,,,,,,,,,,,,,,,,,,,,,,,,,,25,bisagra,,,,,564.5349,567.3479,1,1,2.2869,,0,35,35,24,1,REAL,FAKE,,,,,,,,,,,,,,,,,
,,,,,,,,,5c7c73b6f48c6d0001f6f49c,Dominican Republic,younger than 13,"no, only English or Spanish",yes,2026-01-21_15h21.48.655,empathy_intonation_perc_control,2024.2.4,Win32,60.24096386,5c7c73b6f48c6d0001f6f49c,69712dc693a3960bdb483245,697134dcfbd6b5407e3cc5a3,,,,,,,,,,,,,1,,,,,,,,,,,,,,,,,,,,,,,,,,,,,,,,,,,,,20,ávido,,,,,567.3493,568.7816,1,1,0.8902,,0,36,36,19,1,REAL,FAKE,,,,,,,,,,,,,,,,,
,,,,,,,,,5c7c73b6f48c6d0001f6f49c,Dominican Republic,younger than 13,"no, only English or Spanish",yes,2026-01-21_15h21.48.655,empathy_intonation_perc_control,2024.2.4,Win32,60.24096386,5c7c73b6f48c6d0001f6f49c,69712dc693a3960bdb483245,697134dcfbd6b5407e3cc5a3,,,,,,,,,,,,,1,,,,,,,,,,,,,,,,,,,,,,,,,,,,,,,,,,,,,28,merodear,,,,,568.7832,571.6809,0,0,2.3577,,0,37,37,27,1,REAL,FAKE,,,,,,,,,,,,,,,,,
,,,,,,,,,5c7c73b6f48c6d0001f6f49c,Dominican Republic,younger than 13,"no, only English or Spanish",yes,2026-01-21_15h21.48.655,empathy_intonation_perc_control,2024.2.4,Win32,60.24096386,5c7c73b6f48c6d0001f6f49c,69712dc693a3960bdb483245,697134dcfbd6b5407e3cc5a3,,,,,,,,,,,,,1,,,,,,,,,,,,,,,,,,,,,,,,,,,,,,,,,,,,,48,ladrón,,,,,571.6827,573.0647,1,1,0.8436,,0,38,38,47,1,REAL,FAKE,,,,,,,,,,,,,,,,,
,,,,,,,,,5c7c73b6f48c6d0001f6f49c,Dominican Republic,younger than 13,"no, only English or Spanish",yes,2026-01-21_15h21.48.655,empathy_intonation_perc_control,2024.2.4,Win32,60.24096386,5c7c73b6f48c6d0001f6f49c,69712dc693a3960bdb483245,697134dcfbd6b5407e3cc5a3,,,,,,,,,,,,,1,,,,,,,,,,,,,,,,,,,,,,,,,,,,,,,,,,,,,40,alfombra,,,,,573.067,574.7043,1,1,1.101,,0,39,39,39,1,REAL,FAKE,,,,,,,,,,,,,,,,,
,,,,,,,,,5c7c73b6f48c6d0001f6f49c,Dominican Republic,younger than 13,"no, only English or Spanish",yes,2026-01-21_15h21.48.655,empathy_intonation_perc_control,2024.2.4,Win32,60.24096386,5c7c73b6f48c6d0001f6f49c,69712dc693a3960bdb483245,697134dcfbd6b5407e3cc5a3,,,,,,,,,,,,,1,,,,,,,,,,,,,,,,,,,,,,,,,,,,,,,,,,,,,90,clavel,,,,,574.7057,576.3223,0,0,1.086,,0,40,40,89,1,REAL,FAKE,,,,,,,,,,,,,,,,,
,,,,,,,,,5c7c73b6f48c6d0001f6f49c,Dominican Republic,younger than 13,"no, only English or Spanish",yes,2026-01-21_15h21.48.655,empathy_intonation_perc_control,2024.2.4,Win32,60.24096386,5c7c73b6f48c6d0001f6f49c,69712dc693a3960bdb483245,697134dcfbd6b5407e3cc5a3,,,,,,,,,,,,,1,,,,,,,,,,,,,,,,,,,,,,,,,,,,,,,,,,,,,67,cabello,,,,,576.3236,577.6634,1,1,0.803,,0,41,41,66,1,REAL,FAKE,,,,,,,,,,,,,,,,,
,,,,,,,,,5c7c73b6f48c6d0001f6f49c,Dominican Republic,younger than 13,"no, only English or Spanish",yes,2026-01-21_15h21.48.655,empathy_intonation_perc_control,2024.2.4,Win32,60.24096386,5c7c73b6f48c6d0001f6f49c,69712dc693a3960bdb483245,697134dcfbd6b5407e3cc5a3,,,,,,,,,,,,,1,,,,,,,,,,,,,,,,,,,,,,,,,,,,,,,,,,,,,43,canela,,,,,577.665,578.9964,1,1,0.7881,,0,42,42,42,1,REAL,FAKE,,,,,,,,,,,,,,,,,
,,,,,,,,,5c7c73b6f48c6d0001f6f49c,Dominican Republic,younger than 13,"no, only English or Spanish",yes,2026-01-21_15h21.48.655,empathy_intonation_perc_control,2024.2.4,Win32,60.24096386,5c7c73b6f48c6d0001f6f49c,69712dc693a3960bdb483245,697134dcfbd6b5407e3cc5a3,,,,,,,,,,,,,0,,,,,,,,,,,,,,,,,,,,,,,,,,,,,,,,,,,,,58,plaudir,,,,,578.998,580.9133,0,1,1.3768,,0,43,43,57,1,REAL,FAKE,,,,,,,,,,,,,,,,,
,,,,,,,,,5c7c73b6f48c6d0001f6f49c,Dominican Republic,younger than 13,"no, only English or Spanish",yes,2026-01-21_15h21.48.655,empathy_intonation_perc_control,2024.2.4,Win32,60.24096386,5c7c73b6f48c6d0001f6f49c,69712dc693a3960bdb483245,697134dcfbd6b5407e3cc5a3,,,,,,,,,,,,,0,,,,,,,,,,,,,,,,,,,,,,,,,,,,,,,,,,,,,16,abracer,,,,,580.9152,583.679,1,0,2.2201,,0,44,44,15,1,REAL,FAKE,,,,,,,,,,,,,,,,,
,,,,,,,,,5c7c73b6f48c6d0001f6f49c,Dominican Republic,younger than 13,"no, only English or Spanish",yes,2026-01-21_15h21.48.655,empathy_intonation_perc_control,2024.2.4,Win32,60.24096386,5c7c73b6f48c6d0001f6f49c,69712dc693a3960bdb483245,697134dcfbd6b5407e3cc5a3,,,,,,,,,,,,,1,,,,,,,,,,,,,,,,,,,,,,,,,,,,,,,,,,,,,9,hacha,,,,,583.6806,584.9995,1,1,0.7812,,0,45,45,8,1,REAL,FAKE,,,,,,,,,,,,,,,,,
,,,,,,,,,5c7c73b6f48c6d0001f6f49c,Dominican Republic,younger than 13,"no, only English or Spanish",yes,2026-01-21_15h21.48.655,empathy_intonation_perc_control,2024.2.4,Win32,60.24096386,5c7c73b6f48c6d0001f6f49c,69712dc693a3960bdb483245,697134dcfbd6b5407e3cc5a3,,,,,,,,,,,,,1,,,,,,,,,,,,,,,,,,,,,,,,,,,,,,,,,,,,,36,loro,,,,,585.001,586.3953,1,1,0.853,,0,46,46,35,1,REAL,FAKE,,,,,,,,,,,,,,,,,
,,,,,,,,,5c7c73b6f48c6d0001f6f49c,Dominican Republic,younger than 13,"no, only English or Spanish",yes,2026-01-21_15h21.48.655,empathy_intonation_perc_control,2024.2.4,Win32,60.24096386,5c7c73b6f48c6d0001f6f49c,69712dc693a3960bdb483245,697134dcfbd6b5407e3cc5a3,,,,,,,,,,,,,1,,,,,,,,,,,,,,,,,,,,,,,,,,,,,,,,,,,,,2,pellizcar,,,,,586.3973,588.2322,0,0,1.2977,,0,47,47,1,1,REAL,FAKE,,,,,,,,,,,,,,,,,
,,,,,,,,,5c7c73b6f48c6d0001f6f49c,Dominican Republic,younger than 13,"no, only English or Spanish",yes,2026-01-21_15h21.48.655,empathy_intonation_perc_control,2024.2.4,Win32,60.24096386,5c7c73b6f48c6d0001f6f49c,69712dc693a3960bdb483245,697134dcfbd6b5407e3cc5a3,,,,,,,,,,,,,1,,,,,,,,,,,,,,,,,,,,,,,,,,,,,,,,,,,,,81,pozo,,,,,588.2339,589.3283,1,1,0.5532,,0,48,48,80,1,REAL,FAKE,,,,,,,,,,,,,,,,,
,,,,,,,,,5c7c73b6f48c6d0001f6f49c,Dominican Republic,younger than 13,"no, only English or Spanish",yes,2026-01-21_15h21.48.655,empathy_intonation_perc_control,2024.2.4,Win32,60.24096386,5c7c73b6f48c6d0001f6f49c,69712dc693a3960bdb483245,697134dcfbd6b5407e3cc5a3,,,,,,,,,,,,,0,,,,,,,,,,,,,,,,,,,,,,,,,,,,,,,,,,,,,29,decar,,,,,589.3298,590.9114,1,0,1.0383,,0,49,49,28,1,REAL,FAKE,,,,,,,,,,,,,,,,,
,,,,,,,,,5c7c73b6f48c6d0001f6f49c,Dominican Republic,younger than 13,"no, only English or Spanish",yes,2026-01-21_15h21.48.655,empathy_intonation_perc_control,2024.2.4,Win32,60.24096386,5c7c73b6f48c6d0001f6f49c,69712dc693a3960bdb483245,697134dcfbd6b5407e3cc5a3,,,,,,,,,,,,,0,,,,,,,,,,,,,,,,,,,,,,,,,,,,,,,,,,,,,19,brecedad,,,,,590.9128,593.0327,0,1,1.582,,0,50,50,18,1,REAL,FAKE,,,,,,,,,,,,,,,,,
,,,,,,,,,5c7c73b6f48c6d0001f6f49c,Dominican Republic,younger than 13,"no, only English or Spanish",yes,2026-01-21_15h21.48.655,empathy_intonation_perc_control,2024.2.4,Win32,60.24096386,5c7c73b6f48c6d0001f6f49c,69712dc693a3960bdb483245,697134dcfbd6b5407e3cc5a3,,,,,,,,,,,,,1,,,,,,,,,,,,,,,,,,,,,,,,,,,,,,,,,,,,,7,pésimo,,,,,593.0342,594.6787,1,1,1.1102,,0,51,51,6,1,REAL,FAKE,,,,,,,,,,,,,,,,,
,,,,,,,,,5c7c73b6f48c6d0001f6f49c,Dominican Republic,younger than 13,"no, only English or Spanish",yes,2026-01-21_15h21.48.655,empathy_intonation_perc_control,2024.2.4,Win32,60.24096386,5c7c73b6f48c6d0001f6f49c,69712dc693a3960bdb483245,697134dcfbd6b5407e3cc5a3,,,,,,,,,,,,,1,,,,,,,,,,,,,,,,,,,,,,,,,,,,,,,,,,,,,52,camisa,,,,,594.6806,596.7648,1,1,1.548,,0,52,52,51,1,REAL,FAKE,,,,,,,,,,,,,,,,,
,,,,,,,,,5c7c73b6f48c6d0001f6f49c,Dominican Republic,younger than 13,"no, only English or Spanish",yes,2026-01-21_15h21.48.655,empathy_intonation_perc_control,2024.2.4,Win32,60.24096386,5c7c73b6f48c6d0001f6f49c,69712dc693a3960bdb483245,697134dcfbd6b5407e3cc5a3,,,,,,,,,,,,,1,,,,,,,,,,,,,,,,,,,,,,,,,,,,,,,,,,,,,65,bizcocho,,,,,596.7664,598.0937,0,0,0.7868,,0,53,53,64,1,REAL,FAKE,,,,,,,,,,,,,,,,,
,,,,,,,,,5c7c73b6f48c6d0001f6f49c,Dominican Republic,younger than 13,"no, only English or Spanish",yes,2026-01-21_15h21.48.655,empathy_intonation_perc_control,2024.2.4,Win32,60.24096386,5c7c73b6f48c6d0001f6f49c,69712dc693a3960bdb483245,697134dcfbd6b5407e3cc5a3,,,,,,,,,,,,,0,,,,,,,,,,,,,,,,,,,,,,,,,,,,,,,,,,,,,70,temblo,,,,,598.0952,600.6029,0,1,1.9699,,0,54,54,69,1,REAL,FAKE,,,,,,,,,,,,,,,,,
,,,,,,,,,5c7c73b6f48c6d0001f6f49c,Dominican Republic,younger than 13,"no, only English or Spanish",yes,2026-01-21_15h21.48.655,empathy_intonation_perc_control,2024.2.4,Win32,60.24096386,5c7c73b6f48c6d0001f6f49c,69712dc693a3960bdb483245,697134dcfbd6b5407e3cc5a3,,,,,,,,,,,,,1,,,,,,,,,,,,,,,,,,,,,,,,,,,,,,,,,,,,,26,secuestro,,,,,600.6044,605.1169,1,1,3.9841,,0,55,55,25,1,REAL,FAKE,,,,,,,,,,,,,,,,,
,,,,,,,,,5c7c73b6f48c6d0001f6f49c,Dominican Republic,younger than 13,"no, only English or Spanish",yes,2026-01-21_15h21.48.655,empathy_intonation_perc_control,2024.2.4,Win32,60.24096386,5c7c73b6f48c6d0001f6f49c,69712dc693a3960bdb483245,697134dcfbd6b5407e3cc5a3,,,,,,,,,,,,,0,,,,,,,,,,,,,,,,,,,,,,,,,,,,,,,,,,,,,79,tropaje,,,,,605.1185,606.8425,0,1,1.1864,,0,56,56,78,1,REAL,FAKE,,,,,,,,,,,,,,,,,
,,,,,,,,,5c7c73b6f48c6d0001f6f49c,Dominican Republic,younger than 13,"no, only English or Spanish",yes,2026-01-21_15h21.48.655,empathy_intonation_perc_control,2024.2.4,Win32,60.24096386,5c7c73b6f48c6d0001f6f49c,69712dc693a3960bdb483245,697134dcfbd6b5407e3cc5a3,,,,,,,,,,,,,0,,,,,,,,,,,,,,,,,,,,,,,,,,,,,,,,,,,,,8,cadeña,,,,,606.8444,609.0439,1,0,1.6621,,0,57,57,7,1,REAL,FAKE,,,,,,,,,,,,,,,,,
,,,,,,,,,5c7c73b6f48c6d0001f6f49c,Dominican Republic,younger than 13,"no, only English or Spanish",yes,2026-01-21_15h21.48.655,empathy_intonation_perc_control,2024.2.4,Win32,60.24096386,5c7c73b6f48c6d0001f6f49c,69712dc693a3960bdb483245,697134dcfbd6b5407e3cc5a3,,,,,,,,,,,,,1,,,,,,,,,,,,,,,,,,,,,,,,,,,,,,,,,,,,,39,torpe,,,,,609.0456,610.8252,0,0,1.254,,0,58,58,38,1,REAL,FAKE,,,,,,,,,,,,,,,,,
,,,,,,,,,5c7c73b6f48c6d0001f6f49c,Dominican Republic,younger than 13,"no, only English or Spanish",yes,2026-01-21_15h21.48.655,empathy_intonation_perc_control,2024.2.4,Win32,60.24096386,5c7c73b6f48c6d0001f6f49c,69712dc693a3960bdb483245,697134dcfbd6b5407e3cc5a3,,,,,,,,,,,,,1,,,,,,,,,,,,,,,,,,,,,,,,,,,,,,,,,,,,,34,aviso,,,,,610.827,612.2512,1,1,0.8868,,0,59,59,33,1,REAL,FAKE,,,,,,,,,,,,,,,,,
,,,,,,,,,5c7c73b6f48c6d0001f6f49c,Dominican Republic,younger than 13,"no, only English or Spanish",yes,2026-01-21_15h21.48.655,empathy_intonation_perc_control,2024.2.4,Win32,60.24096386,5c7c73b6f48c6d0001f6f49c,69712dc693a3960bdb483245,697134dcfbd6b5407e3cc5a3,,,,,,,,,,,,,1,,,,,,,,,,,,,,,,,,,,,,,,,,,,,,,,,,,,,73,hervidor,,,,,612.2526,614.4584,0,0,1.6742,,0,60,60,72,1,REAL,FAKE,,,,,,,,,,,,,,,,,
,,,,,,,,,5c7c73b6f48c6d0001f6f49c,Dominican Republic,younger than 13,"no, only English or Spanish",yes,2026-01-21_15h21.48.655,empathy_intonation_perc_control,2024.2.4,Win32,60.24096386,5c7c73b6f48c6d0001f6f49c,69712dc693a3960bdb483245,697134dcfbd6b5407e3cc5a3,,,,,,,,,,,,,1,,,,,,,,,,,,,,,,,,,,,,,,,,,,,,,,,,,,,75,yacer,,,,,614.4602,615.9781,1,1,0.9806,,0,61,61,74,1,REAL,FAKE,,,,,,,,,,,,,,,,,
,,,,,,,,,5c7c73b6f48c6d0001f6f49c,Dominican Republic,younger than 13,"no, only English or Spanish",yes,2026-01-21_15h21.48.655,empathy_intonation_perc_control,2024.2.4,Win32,60.24096386,5c7c73b6f48c6d0001f6f49c,69712dc693a3960bdb483245,697134dcfbd6b5407e3cc5a3,,,,,,,,,,,,,1,,,,,,,,,,,,,,,,,,,,,,,,,,,,,,,,,,,,,55,nevar,,,,,615.9795,619.3573,1,1,2.8367,,0,62,62,54,1,REAL,FAKE,,,,,,,,,,,,,,,,,
,,,,,,,,,5c7c73b6f48c6d0001f6f49c,Dominican Republic,younger than 13,"no, only English or Spanish",yes,2026-01-21_15h21.48.655,empathy_intonation_perc_control,2024.2.4,Win32,60.24096386,5c7c73b6f48c6d0001f6f49c,69712dc693a3960bdb483245,697134dcfbd6b5407e3cc5a3,,,,,,,,,,,,,0,,,,,,,,,,,,,,,,,,,,,,,,,,,,,,,,,,,,,32,fatacidad,,,,,619.3588,622.4737,1,0,2.5714,,0,63,63,31,1,REAL,FAKE,,,,,,,,,,,,,,,,,
,,,,,,,,,5c7c73b6f48c6d0001f6f49c,Dominican Republic,younger than 13,"no, only English or Spanish",yes,2026-01-21_15h21.48.655,empathy_intonation_perc_control,2024.2.4,Win32,60.24096386,5c7c73b6f48c6d0001f6f49c,69712dc693a3960bdb483245,697134dcfbd6b5407e3cc5a3,,,,,,,,,,,,,1,,,,,,,,,,,,,,,,,,,,,,,,,,,,,,,,,,,,,80,hormiga,,,,,622.4751,625.2936,0,0,2.2807,,0,64,64,79,1,REAL,FAKE,,,,,,,,,,,,,,,,,
,,,,,,,,,5c7c73b6f48c6d0001f6f49c,Dominican Republic,younger than 13,"no, only English or Spanish",yes,2026-01-21_15h21.48.655,empathy_intonation_perc_control,2024.2.4,Win32,60.24096386,5c7c73b6f48c6d0001f6f49c,69712dc693a3960bdb483245,697134dcfbd6b5407e3cc5a3,,,,,,,,,,,,,1,,,,,,,,,,,,,,,,,,,,,,,,,,,,,,,,,,,,,86,barato,,,,,625.295,626.6162,1,1,0.7873,,0,65,65,85,1,REAL,FAKE,,,,,,,,,,,,,,,,,
,,,,,,,,,5c7c73b6f48c6d0001f6f49c,Dominican Republic,younger than 13,"no, only English or Spanish",yes,2026-01-21_15h21.48.655,empathy_intonation_perc_control,2024.2.4,Win32,60.24096386,5c7c73b6f48c6d0001f6f49c,69712dc693a3960bdb483245,697134dcfbd6b5407e3cc5a3,,,,,,,,,,,,,1,,,,,,,,,,,,,,,,,,,,,,,,,,,,,,,,,,,,,12,asesinato,,,,,626.6184,630.133,1,1,2.9874,,0,66,66,11,1,REAL,FAKE,,,,,,,,,,,,,,,,,
,,,,,,,,,5c7c73b6f48c6d0001f6f49c,Dominican Republic,younger than 13,"no, only English or Spanish",yes,2026-01-21_15h21.48.655,empathy_intonation_perc_control,2024.2.4,Win32,60.24096386,5c7c73b6f48c6d0001f6f49c,69712dc693a3960bdb483245,697134dcfbd6b5407e3cc5a3,,,,,,,,,,,,,1,,,,,,,,,,,,,,,,,,,,,,,,,,,,,,,,,,,,,5,zapato,,,,,630.1344,631.5558,1,1,0.8869,,0,67,67,4,1,REAL,FAKE,,,,,,,,,,,,,,,,,
,,,,,,,,,5c7c73b6f48c6d0001f6f49c,Dominican Republic,younger than 13,"no, only English or Spanish",yes,2026-01-21_15h21.48.655,empathy_intonation_perc_control,2024.2.4,Win32,60.24096386,5c7c73b6f48c6d0001f6f49c,69712dc693a3960bdb483245,697134dcfbd6b5407e3cc5a3,,,,,,,,,,,,,1,,,,,,,,,,,,,,,,,,,,,,,,,,,,,,,,,,,,,6,tergiversar,,,,,631.5572,635.3884,0,0,3.2875,,0,68,68,5,1,REAL,FAKE,,,,,,,,,,,,,,,,,
,,,,,,,,,5c7c73b6f48c6d0001f6f49c,Dominican Republic,younger than 13,"no, only English or Spanish",yes,2026-01-21_15h21.48.655,empathy_intonation_perc_control,2024.2.4,Win32,60.24096386,5c7c73b6f48c6d0001f6f49c,69712dc693a3960bdb483245,697134dcfbd6b5407e3cc5a3,,,,,,,,,,,,,1,,,,,,,,,,,,,,,,,,,,,,,,,,,,,,,,,,,,,46,martillo,,,,,635.3903,636.9216,1,1,0.9865,,0,69,69,45,1,REAL,FAKE,,,,,,,,,,,,,,,,,
,,,,,,,,,5c7c73b6f48c6d0001f6f49c,Dominican Republic,younger than 13,"no, only English or Spanish",yes,2026-01-21_15h21.48.655,empathy_intonation_perc_control,2024.2.4,Win32,60.24096386,5c7c73b6f48c6d0001f6f49c,69712dc693a3960bdb483245,697134dcfbd6b5407e3cc5a3,,,,,,,,,,,,,0,,,,,,,,,,,,,,,,,,,,,,,,,,,,,,,,,,,,,1,terzo,,,,,636.9229,638.7235,1,0,1.2627,,0,70,70,0,1,REAL,FAKE,,,,,,,,,,,,,,,,,
,,,,,,,,,5c7c73b6f48c6d0001f6f49c,Dominican Republic,younger than 13,"no, only English or Spanish",yes,2026-01-21_15h21.48.655,empathy_intonation_perc_control,2024.2.4,Win32,60.24096386,5c7c73b6f48c6d0001f6f49c,69712dc693a3960bdb483245,697134dcfbd6b5407e3cc5a3,,,,,,,,,,,,,1,,,,,,,,,,,,,,,,,,,,,,,,,,,,,,,,,,,,,61,seda,,,,,638.7253,640.1732,0,0,0.9128,,0,71,71,60,1,REAL,FAKE,,,,,,,,,,,,,,,,,
,,,,,,,,,5c7c73b6f48c6d0001f6f49c,Dominican Republic,younger than 13,"no, only English or Spanish",yes,2026-01-21_15h21.48.655,empathy_intonation_perc_control,2024.2.4,Win32,60.24096386,5c7c73b6f48c6d0001f6f49c,69712dc693a3960bdb483245,697134dcfbd6b5407e3cc5a3,,,,,,,,,,,,,0,,,,,,,,,,,,,,,,,,,,,,,,,,,,,,,,,,,,,66,hacido,,,,,640.1745,641.4542,1,0,0.7402,,0,72,72,65,1,REAL,FAKE,,,,,,,,,,,,,,,,,
,,,,,,,,,5c7c73b6f48c6d0001f6f49c,Dominican Republic,younger than 13,"no, only English or Spanish",yes,2026-01-21_15h21.48.655,empathy_intonation_perc_control,2024.2.4,Win32,60.24096386,5c7c73b6f48c6d0001f6f49c,69712dc693a3960bdb483245,697134dcfbd6b5407e3cc5a3,,,,,,,,,,,,,0,,,,,,,,,,,,,,,,,,,,,,,,,,,,,,,,,,,,,42,cadallo,,,,,641.4556,642.9282,1,0,0.9345,,0,73,73,41,1,REAL,FAKE,,,,,,,,,,,,,,,,,
,,,,,,,,,5c7c73b6f48c6d0001f6f49c,Dominican Republic,younger than 13,"no, only English or Spanish",yes,2026-01-21_15h21.48.655,empathy_intonation_perc_control,2024.2.4,Win32,60.24096386,5c7c73b6f48c6d0001f6f49c,69712dc693a3960bdb483245,697134dcfbd6b5407e3cc5a3,,,,,,,,,,,,,0,,,,,,,,,,,,,,,,,,,,,,,,,,,,,,,,,,,,,33,pauca,,,,,642.9296,644.2209,0,1,0.7568,,0,74,74,32,1,REAL,FAKE,,,,,,,,,,,,,,,,,
,,,,,,,,,5c7c73b6f48c6d0001f6f49c,Dominican Republic,younger than 13,"no, only English or Spanish",yes,2026-01-21_15h21.48.655,empathy_intonation_perc_control,2024.2.4,Win32,60.24096386,5c7c73b6f48c6d0001f6f49c,69712dc693a3960bdb483245,697134dcfbd6b5407e3cc5a3,,,,,,,,,,,,,1,,,,,,,,,,,,,,,,,,,,,,,,,,,,,,,,,,,,,88,acantilado,,,,,644.2224,646.5226,1,1,1.7625,,0,75,75,87,1,REAL,FAKE,,,,,,,,,,,,,,,,,
,,,,,,,,,5c7c73b6f48c6d0001f6f49c,Dominican Republic,younger than 13,"no, only English or Spanish",yes,2026-01-21_15h21.48.655,empathy_intonation_perc_control,2024.2.4,Win32,60.24096386,5c7c73b6f48c6d0001f6f49c,69712dc693a3960bdb483245,697134dcfbd6b5407e3cc5a3,,,,,,,,,,,,,1,,,,,,,,,,,,,,,,,,,,,,,,,,,,,,,,,,,,,68,alegre,,,,,646.5248,647.9367,0,0,0.8697,,0,76,76,67,1,REAL,FAKE,,,,,,,,,,,,,,,,,
,,,,,,,,,5c7c73b6f48c6d0001f6f49c,Dominican Republic,younger than 13,"no, only English or Spanish",yes,2026-01-21_15h21.48.655,empathy_intonation_perc_control,2024.2.4,Win32,60.24096386,5c7c73b6f48c6d0001f6f49c,69712dc693a3960bdb483245,697134dcfbd6b5407e3cc5a3,,,,,,,,,,,,,0,,,,,,,,,,,,,,,,,,,,,,,,,,,,,,,,,,,,,21,capillo,,,,,647.9381,649.5553,1,0,1.0794,,0,77,77,20,1,REAL,FAKE,,,,,,,,,,,,,,,,,
,,,,,,,,,5c7c73b6f48c6d0001f6f49c,Dominican Republic,younger than 13,"no, only English or Spanish",yes,2026-01-21_15h21.48.655,empathy_intonation_perc_control,2024.2.4,Win32,60.24096386,5c7c73b6f48c6d0001f6f49c,69712dc693a3960bdb483245,697134dcfbd6b5407e3cc5a3,,,,,,,,,,,,,0,,,,,,,,,,,,,,,,,,,,,,,,,,,,,,,,,,,,,23,lampera,,,,,649.5573,650.8033,1,0,0.7085,,0,78,78,22,1,REAL,FAKE,,,,,,,,,,,,,,,,,
,,,,,,,,,5c7c73b6f48c6d0001f6f49c,Dominican Republic,younger than 13,"no, only English or Spanish",yes,2026-01-21_15h21.48.655,empathy_intonation_perc_control,2024.2.4,Win32,60.24096386,5c7c73b6f48c6d0001f6f49c,69712dc693a3960bdb483245,697134dcfbd6b5407e3cc5a3,,,,,,,,,,,,,1,,,,,,,,,,,,,,,,,,,,,,,,,,,,,,,,,,,,,49,ganar,,,,,650.8053,652.6958,0,0,1.3535,,0,79,79,48,1,REAL,FAKE,,,,,,,,,,,,,,,,,
,,,,,,,,,5c7c73b6f48c6d0001f6f49c,Dominican Republic,younger than 13,"no, only English or Spanish",yes,2026-01-21_15h21.48.655,empathy_intonation_perc_control,2024.2.4,Win32,60.24096386,5c7c73b6f48c6d0001f6f49c,69712dc693a3960bdb483245,697134dcfbd6b5407e3cc5a3,,,,,,,,,,,,,0,,,,,,,,,,,,,,,,,,,,,,,,,,,,,,,,,,,,,87,grodo,,,,,652.697,654.3192,0,1,1.0886,,0,80,80,86,1,REAL,FAKE,,,,,,,,,,,,,,,,,
,,,,,,,,,5c7c73b6f48c6d0001f6f49c,Dominican Republic,younger than 13,"no, only English or Spanish",yes,2026-01-21_15h21.48.655,empathy_intonation_perc_control,2024.2.4,Win32,60.24096386,5c7c73b6f48c6d0001f6f49c,69712dc693a3960bdb483245,697134dcfbd6b5407e3cc5a3,,,,,,,,,,,,,0,,,,,,,,,,,,,,,,,,,,,,,,,,,,,,,,,,,,,82,empirador,,,,,654.3206,655.569,1,0,0.7032,,0,81,81,81,1,REAL,FAKE,,,,,,,,,,,,,,,,,
,,,,,,,,,5c7c73b6f48c6d0001f6f49c,Dominican Republic,younger than 13,"no, only English or Spanish",yes,2026-01-21_15h21.48.655,empathy_intonation_perc_control,2024.2.4,Win32,60.24096386,5c7c73b6f48c6d0001f6f49c,69712dc693a3960bdb483245,697134dcfbd6b5407e3cc5a3,,,,,,,,,,,,,1,,,,,,,,,,,,,,,,,,,,,,,,,,,,,,,,,,,,,62,flaco,,,,,655.5708,657.2761,1,1,1.1678,,0,82,82,61,1,REAL,FAKE,,,,,,,,,,,,,,,,,
,,,,,,,,,5c7c73b6f48c6d0001f6f49c,Dominican Republic,younger than 13,"no, only English or Spanish",yes,2026-01-21_15h21.48.655,empathy_intonation_perc_control,2024.2.4,Win32,60.24096386,5c7c73b6f48c6d0001f6f49c,69712dc693a3960bdb483245,697134dcfbd6b5407e3cc5a3,,,,,,,,,,,,,1,,,,,,,,,,,,,,,,,,,,,,,,,,,,,,,,,,,,,57,tacaño,,,,,657.2776,658.8187,1,1,1.0059,,0,83,83,56,1,REAL,FAKE,,,,,,,,,,,,,,,,,
,,,,,,,,,5c7c73b6f48c6d0001f6f49c,Dominican Republic,younger than 13,"no, only English or Spanish",yes,2026-01-21_15h21.48.655,empathy_intonation_perc_control,2024.2.4,Win32,60.24096386,5c7c73b6f48c6d0001f6f49c,69712dc693a3960bdb483245,697134dcfbd6b5407e3cc5a3,,,,,,,,,,,,,1,,,,,,,,,,,,,,,,,,,,,,,,,,,,,,,,,,,,,31,pandilla,,,,,658.8203,660.0874,1,1,0.7296,,0,84,84,30,1,REAL,FAKE,,,,,,,,,,,,,,,,,
,,,,,,,,,5c7c73b6f48c6d0001f6f49c,Dominican Republic,younger than 13,"no, only English or Spanish",yes,2026-01-21_15h21.48.655,empathy_intonation_perc_control,2024.2.4,Win32,60.24096386,5c7c73b6f48c6d0001f6f49c,69712dc693a3960bdb483245,697134dcfbd6b5407e3cc5a3,,,,,,,,,,,,,0,,,,,,,,,,,,,,,,,,,,,,,,,,,,,,,,,,,,,84,escuto,,,,,660.0891,662.0183,1,0,1.3924,,0,85,85,83,1,REAL,FAKE,,,,,,,,,,,,,,,,,
,,,,,,,,,5c7c73b6f48c6d0001f6f49c,Dominican Republic,younger than 13,"no, only English or Spanish",yes,2026-01-21_15h21.48.655,empathy_intonation_perc_control,2024.2.4,Win32,60.24096386,5c7c73b6f48c6d0001f6f49c,69712dc693a3960bdb483245,697134dcfbd6b5407e3cc5a3,,,,,,,,,,,,,1,,,,,,,,,,,,,,,,,,,,,,,,,,,,,,,,,,,,,51,candado,,,,,662.0202,664.0344,1,1,1.4703,,0,86,86,50,1,REAL,FAKE,,,,,,,,,,,,,,,,,
,,,,,,,,,5c7c73b6f48c6d0001f6f49c,Dominican Republic,younger than 13,"no, only English or Spanish",yes,2026-01-21_15h21.48.655,empathy_intonation_perc_control,2024.2.4,Win32,60.24096386,5c7c73b6f48c6d0001f6f49c,69712dc693a3960bdb483245,697134dcfbd6b5407e3cc5a3,,,,,,,,,,,,,0,,,,,,,,,,,,,,,,,,,,,,,,,,,,,,,,,,,,,72,pemición,,,,,664.036,668.7672,0,1,4.1859,,0,87,87,71,1,REAL,FAKE,,,,,,,,,,,,,,,,,
,,,,,,,,,5c7c73b6f48c6d0001f6f49c,Dominican Republic,younger than 13,"no, only English or Spanish",yes,2026-01-21_15h21.48.655,empathy_intonation_perc_control,2024.2.4,Win32,60.24096386,5c7c73b6f48c6d0001f6f49c,69712dc693a3960bdb483245,697134dcfbd6b5407e3cc5a3,,,,,,,,,,,,,1,,,,,,,,,,,,,,,,,,,,,,,,,,,,,,,,,,,,,78,frondoso,,,,,668.769,671.5837,0,0,2.2748,,0,88,88,77,1,REAL,FAKE,,,,,,,,,,,,,,,,,
,,,,,,,,,5c7c73b6f48c6d0001f6f49c,Dominican Republic,younger than 13,"no, only English or Spanish",yes,2026-01-21_15h21.48.655,empathy_intonation_perc_control,2024.2.4,Win32,60.24096386,5c7c73b6f48c6d0001f6f49c,69712dc693a3960bdb483245,697134dcfbd6b5407e3cc5a3,,,,,,,,,,,,,1,,,,,,,,,,,,,,,,,,,,,,,,,,,,,,,,,,,,,69,engatusar,,,,,671.5856,674.1916,0,0,2.0692,,0,89,89,68,1,REAL,FAKE,,,,,,,,,,,,,,,,,
,,,,,,,,,5c7c73b6f48c6d0001f6f49c,Dominican Republic,younger than 13,"no, only English or Spanish",yes,2026-01-21_15h21.48.655,empathy_intonation_perc_control,2024.2.4,Win32,60.24096386,5c7c73b6f48c6d0001f6f49c,69712dc693a3960bdb483245,697134dcfbd6b5407e3cc5a3,,,,,,,,,,,,,1,,,,,,,,,,,,,,,,,,,,,,,,,,,,,,,,,,,,,13,helar,,,,,674.1925,675.8589,0,0,1.1365,,0,90,90,12,1,REAL,FAKE,,,,,,,,,,,,,,,,,
,,,,,,,,,5c7c73b6f48c6d0001f6f49c,Dominican Republic,younger than 13,"no, only English or Spanish",yes,2026-01-21_15h21.48.655,empathy_intonation_perc_control,2024.2.4,Win32,60.24096386,5c7c73b6f48c6d0001f6f49c,69712dc693a3960bdb483245,697134dcfbd6b5407e3cc5a3,,,,,,,,,,,,,1,,,,,,,,,,,,,,,,,,,,,,,,,,,,,,,,,,,,,3,pulmones,,,,,675.8604,678.453,1,1,2.0644,,0,91,91,2,1,REAL,FAKE,,,,,,,,,,,,,,,,,
,,,,,,,,,5c7c73b6f48c6d0001f6f49c,Dominican Republic,younger than 13,"no, only English or Spanish",yes,2026-01-21_15h21.48.655,empathy_intonation_perc_control,2024.2.4,Win32,60.24096386,5c7c73b6f48c6d0001f6f49c,69712dc693a3960bdb483245,697134dcfbd6b5407e3cc5a3,,,,,,,,,,,,,,,,,,,,,,,,,,,,,,,,,,,,,,,,,,,,,,,,,,,,,,,,,,,,,,,,,,,,,678.4538,685.9156,,,,,,,,,,,,,,,
,,,,,,,,,5c7c73b6f48c6d0001f6f49c,Dominican Republic,younger than 13,"no, only English or Spanish",yes,2026-01-21_15h21.48.655,empathy_intonation_perc_control,2024.2.4,Win32,60.24096386,5c7c73b6f48c6d0001f6f49c,69712dc693a3960bdb483245,697134dcfbd6b5407e3cc5a3,,,,,,,,,,,,,,,,,,,,,,,,,,,1,,,,,,,,,,,,,,,,,,,,,,,,,,,,,,,,,,,,,,,,,,,,685.937,694.4564,slightly agree,0,0,0,0,1,I can easily tell if someone else wants to enter a conversation.,1,0,1,0,,
,,,,,,,,,5c7c73b6f48c6d0001f6f49c,Dominican Republic,younger than 13,"no, only English or Spanish",yes,2026-01-21_15h21.48.655,empathy_intonation_perc_control,2024.2.4,Win32,60.24096386,5c7c73b6f48c6d0001f6f49c,69712dc693a3960bdb483245,697134dcfbd6b5407e3cc5a3,,,,,,,,,,,,,,,,,,,,,,,,,,,2,,,,,,,,,,,,,,,,,,,,,,,,,,,,,,,,,,,,,,,,,,,,694.4611,698.1663,slightly disagree,0,1,1,1,1,I prefer animals to humans.,0,1,0,0,,
,,,,,,,,,5c7c73b6f48c6d0001f6f49c,Dominican Republic,younger than 13,"no, only English or Spanish",yes,2026-01-21_15h21.48.655,empathy_intonation_perc_control,2024.2.4,Win32,60.24096386,5c7c73b6f48c6d0001f6f49c,69712dc693a3960bdb483245,697134dcfbd6b5407e3cc5a3,,,,,,,,,,,,,,,,,,,,,,,,,,,3,,,,,,,,,,,,,,,,,,,,,,,,,,,,,,,,,,,,,,,,,,,,698.1683,701.1295,slightly disagree,0,2,2,2,1,I try to keep up with the current trends and fashions.,0,1,0,0,,
,,,,,,,,,5c7c73b6f48c6d0001f6f49c,Dominican Republic,younger than 13,"no, only English or Spanish",yes,2026-01-21_15h21.48.655,empathy_intonation_perc_control,2024.2.4,Win32,60.24096386,5c7c73b6f48c6d0001f6f49c,69712dc693a3960bdb483245,697134dcfbd6b5407e3cc5a3,,,,,,,,,,,,,,,,,,,,,,,,,,,4,,,,,,,,,,,,,,,,,,,,,,,,,,,,,,,,,,,,,,,,,,,,701.1329,709.1297,slightly disagree,0,3,3,3,1,"I find it difficult to explain to others things that I understand easily,   when they don't understand it first time.",1,0,0,1,,
,,,,,,,,,5c7c73b6f48c6d0001f6f49c,Dominican Republic,younger than 13,"no, only English or Spanish",yes,2026-01-21_15h21.48.655,empathy_intonation_perc_control,2024.2.4,Win32,60.24096386,5c7c73b6f48c6d0001f6f49c,69712dc693a3960bdb483245,697134dcfbd6b5407e3cc5a3,,,,,,,,,,,,,,,,,,,,,,,,,,,5,,,,,,,,,,,,,,,,,,,,,,,,,,,,,,,,,,,,,,,,,,,,709.1321,711.6958,strongly disagree,0,4,4,4,1,I dream most nights.,0,1,0,0,,
,,,,,,,,,5c7c73b6f48c6d0001f6f49c,Dominican Republic,younger than 13,"no, only English or Spanish",yes,2026-01-21_15h21.48.655,empathy_intonation_perc_control,2024.2.4,Win32,60.24096386,5c7c73b6f48c6d0001f6f49c,69712dc693a3960bdb483245,697134dcfbd6b5407e3cc5a3,,,,,,,,,,,,,,,,,,,,,,,,,,,6,,,,,,,,,,,,,,,,,,,,,,,,,,,,,,,,,,,,,,,,,,,,711.6993,716.5544,strongly agree,0,5,5,5,1,I really enjoy caring for other people.,1,0,1,0,,
,,,,,,,,,5c7c73b6f48c6d0001f6f49c,Dominican Republic,younger than 13,"no, only English or Spanish",yes,2026-01-21_15h21.48.655,empathy_intonation_perc_control,2024.2.4,Win32,60.24096386,5c7c73b6f48c6d0001f6f49c,69712dc693a3960bdb483245,697134dcfbd6b5407e3cc5a3,,,,,,,,,,,,,,,,,,,,,,,,,,,7,,,,,,,,,,,,,,,,,,,,,,,,,,,,,,,,,,,,,,,,,,,,716.5577,718.8132,strongly agree,0,6,6,6,1,I try to solve my own problems rather than discussing them with others.,0,1,0,0,,
,,,,,,,,,5c7c73b6f48c6d0001f6f49c,Dominican Republic,younger than 13,"no, only English or Spanish",yes,2026-01-21_15h21.48.655,empathy_intonation_perc_control,2024.2.4,Win32,60.24096386,5c7c73b6f48c6d0001f6f49c,69712dc693a3960bdb483245,697134dcfbd6b5407e3cc5a3,,,,,,,,,,,,,,,,,,,,,,,,,,,8,,,,,,,,,,,,,,,,,,,,,,,,,,,,,,,,,,,,,,,,,,,,718.8158,725.2473,strongly disagree,0,7,7,7,1,I find it hard to know what to do in a social situation.,1,0,0,1,,
,,,,,,,,,5c7c73b6f48c6d0001f6f49c,Dominican Republic,younger than 13,"no, only English or Spanish",yes,2026-01-21_15h21.48.655,empathy_intonation_perc_control,2024.2.4,Win32,60.24096386,5c7c73b6f48c6d0001f6f49c,69712dc693a3960bdb483245,697134dcfbd6b5407e3cc5a3,,,,,,,,,,,,,,,,,,,,,,,,,,,9,,,,,,,,,,,,,,,,,,,,,,,,,,,,,,,,,,,,,,,,,,,,725.2494,729.315,slightly disagree,0,8,8,8,1,I am at my best first thing in the morning.,0,1,0,0,,
,,,,,,,,,5c7c73b6f48c6d0001f6f49c,Dominican Republic,younger than 13,"no, only English or Spanish",yes,2026-01-21_15h21.48.655,empathy_intonation_perc_control,2024.2.4,Win32,60.24096386,5c7c73b6f48c6d0001f6f49c,69712dc693a3960bdb483245,697134dcfbd6b5407e3cc5a3,,,,,,,,,,,,,,,,,,,,,,,,,,,10,,,,,,,,,,,,,,,,,,,,,,,,,,,,,,,,,,,,,,,,,,,,729.318,734.4123,strongly disagree,0,9,9,9,1,People often tell me that I went too far in driving my point home in a discussion.,1,0,0,1,,
,,,,,,,,,5c7c73b6f48c6d0001f6f49c,Dominican Republic,younger than 13,"no, only English or Spanish",yes,2026-01-21_15h21.48.655,empathy_intonation_perc_control,2024.2.4,Win32,60.24096386,5c7c73b6f48c6d0001f6f49c,69712dc693a3960bdb483245,697134dcfbd6b5407e3cc5a3,,,,,,,,,,,,,,,,,,,,,,,,,,,11,,,,,,,,,,,,,,,,,,,,,,,,,,,,,,,,,,,,,,,,,,,,734.4146,742.3741,strongly disagree,0,10,10,10,1,It doesn't bother me too much if I am late meeting a friend.,1,0,0,1,,
,,,,,,,,,5c7c73b6f48c6d0001f6f49c,Dominican Republic,younger than 13,"no, only English or Spanish",yes,2026-01-21_15h21.48.655,empathy_intonation_perc_control,2024.2.4,Win32,60.24096386,5c7c73b6f48c6d0001f6f49c,69712dc693a3960bdb483245,697134dcfbd6b5407e3cc5a3,,,,,,,,,,,,,,,,,,,,,,,,,,,12,,,,,,,,,,,,,,,,,,,,,,,,,,,,,,,,,,,,,,,,,,,,742.3772,745.6828,strongly disagree,0,11,11,11,1,"Friendships and relationships are just too difficult, so I tend not to 
  bother with them.",1,0,0,1,,
,,,,,,,,,5c7c73b6f48c6d0001f6f49c,Dominican Republic,younger than 13,"no, only English or Spanish",yes,2026-01-21_15h21.48.655,empathy_intonation_perc_control,2024.2.4,Win32,60.24096386,5c7c73b6f48c6d0001f6f49c,69712dc693a3960bdb483245,697134dcfbd6b5407e3cc5a3,,,,,,,,,,,,,,,,,,,,,,,,,,,13,,,,,,,,,,,,,,,,,,,,,,,,,,,,,,,,,,,,,,,,,,,,745.6854,749.2393,strongly disagree,0,12,12,12,1,"I would never break a law, no matter how minor.",0,1,0,0,,
,,,,,,,,,5c7c73b6f48c6d0001f6f49c,Dominican Republic,younger than 13,"no, only English or Spanish",yes,2026-01-21_15h21.48.655,empathy_intonation_perc_control,2024.2.4,Win32,60.24096386,5c7c73b6f48c6d0001f6f49c,69712dc693a3960bdb483245,697134dcfbd6b5407e3cc5a3,,,,,,,,,,,,,,,,,,,,,,,,,,,14,,,,,,,,,,,,,,,,,,,,,,,,,,,,,,,,,,,,,,,,,,,,749.2422,762.3712,slightly disagree,0,13,13,13,1,I often find it difficult to judge if something is rude or polite.,1,0,0,1,,
,,,,,,,,,5c7c73b6f48c6d0001f6f49c,Dominican Republic,younger than 13,"no, only English or Spanish",yes,2026-01-21_15h21.48.655,empathy_intonation_perc_control,2024.2.4,Win32,60.24096386,5c7c73b6f48c6d0001f6f49c,69712dc693a3960bdb483245,697134dcfbd6b5407e3cc5a3,,,,,,,,,,,,,,,,,,,,,,,,,,,15,,,,,,,,,,,,,,,,,,,,,,,,,,,,,,,,,,,,,,,,,,,,762.3735,769.3649,slightly disagree,0,14,14,14,1,"In a conversation, I tend to focus on my own thoughts rather than on what 
  my listener might be thinking.",1,0,0,1,,
,,,,,,,,,5c7c73b6f48c6d0001f6f49c,Dominican Republic,younger than 13,"no, only English or Spanish",yes,2026-01-21_15h21.48.655,empathy_intonation_perc_control,2024.2.4,Win32,60.24096386,5c7c73b6f48c6d0001f6f49c,69712dc693a3960bdb483245,697134dcfbd6b5407e3cc5a3,,,,,,,,,,,,,,,,,,,,,,,,,,,16,,,,,,,,,,,,,,,,,,,,,,,,,,,,,,,,,,,,,,,,,,,,769.3671,778.9793,slightly disagree,0,15,15,15,1,I prefer practical jokes to verbal humor.,0,1,0,0,,
