instructions_2afc.started,instructions_2afc.stopped,instructions_2afc_loop.thisRepN,instructions_2afc_loop.thisTrialN,instructions_2afc_loop.thisN,instructions_2afc_loop.thisIndex,instructions_2afc_loop.ran,instructions_text,continue_text,participant_id,"What variety of Spanish are you most familiar with? (e.g., Peruvian, Spanish, Mexican)",At what age did you begin learning Spanish?,Are you proficient in any languages other than English/Spanish?,"Are you familiar with Caribbean (e.g., Caribbean, Puerto Rican) or Galician Spanish?",date,expName,psychopyVersion,OS,frameRate,id,study_id,session,practice_2afc.started,practice_2afc.stopped,key_resp_2afc_practice.keys,key_resp_2afc_practice.corr,key_resp_2afc_practice.rt,key_resp_2afc_practice.duration,trials_2afc_practice_loop.thisRepN,trials_2afc_practice_loop.thisTrialN,trials_2afc_practice_loop.thisN,trials_2afc_practice_loop.thisIndex,trials_2afc_practice_loop.ran,path,correct_response,check_2afc.started,check_2afc.stopped,trial_2afc.started,trial_2afc.stopped,key_resp_2afc_trial.keys,key_resp_2afc_trial.corr,key_resp_2afc_trial.rt,key_resp_2afc_trial.duration,trials_2afc_loop.thisRepN,trials_2afc_loop.thisTrialN,trials_2afc_loop.thisN,trials_2afc_loop.thisIndex,trials_2afc_loop.ran,item_num,target,variety,instructions_lextale.started,instructions_lextale.stopped,instructions_lextale_loop.thisRepN,instructions_lextale_loop.thisTrialN,instructions_lextale_loop.thisN,instructions_lextale_loop.thisIndex,instructions_lextale_loop.ran,practice_lextale.started,practice_lextale.stopped,key_resp_lextale_practice.keys,key_resp_lextale_practice.corr,key_resp_lextale_practice.rt,key_resp_lextale_practice.duration,practice_feedback_lextale.started,practice_feedback_lextale.stopped,trials_lextale_practice_loop.thisRepN,trials_lextale_practice_loop.thisTrialN,trials_lextale_practice_loop.thisN,trials_lextale_practice_loop.thisIndex,trials_lextale_practice_loop.ran,stim,word,prac_button_real,prac_button_false,check_lextale.started,check_lextale.stopped,trial_lextale.started,trial_lextale.stopped,key_resp_lextale_trial.keys,key_resp_lextale_trial.corr,key_resp_lextale_trial.rt,key_resp_lextale_trial.duration,trials_lextale_loop.thisRepN,trials_lextale_loop.thisTrialN,trials_lextale_loop.thisN,trials_lextale_loop.thisIndex,trials_lextale_loop.ran,button_real,button_false,instructions_eq.started,instructions_eq.stopped,trial_eq.started,trial_eq.stopped,slider_eq_trial.response,trials_eq_loop.thisRepN,trials_eq_loop.thisTrialN,trials_eq_loop.thisN,trials_eq_loop.thisIndex,trials_eq_loop.ran,item,is_test_item,is_distractor,is_agree_score,is_disagree_score,end_exp.started,end_exp.stopped
0.008,19.301,0,0,0,0,1,"In the following task you are going to hear a series of utterances. 

  You will decide if the utterances sound like questions or not using your keyboard.", (press the spacebar to continue),5ced8f96a726ed0015d31452,Mexican,13 or older,"no, only English or Spanish",yes,2025-07-24_09h04.03.542,empathy_intonation_perc_control,2024.2.4,Win32,59.95203837,5ced8f96a726ed0015d31452,68817205a84113384fffdfe3,68822d8bde704a4994d7cbf9,,,,,,,,,,,,,,,,,,,,,,,,,,,,,,,,,,,,,,,,,,,,,,,,,,,,,,,,,,,,,,,,,,,,,,,,,,,,,,,,,,,,,
19.303,35.334,0,1,1,1,1,"If you believe the utterance is a question, type '1' (for 'yes') and if you do not 
  believe it is a question type '0' (for 'no').

  Let's practice a bit...", (press the spacebar to continue),5ced8f96a726ed0015d31452,Mexican,13 or older,"no, only English or Spanish",yes,2025-07-24_09h04.03.542,empathy_intonation_perc_control,2024.2.4,Win32,59.95203837,5ced8f96a726ed0015d31452,68817205a84113384fffdfe3,68822d8bde704a4994d7cbf9,,,,,,,,,,,,,,,,,,,,,,,,,,,,,,,,,,,,,,,,,,,,,,,,,,,,,,,,,,,,,,,,,,,,,,,,,,,,,,,,,,,,,
,,,,,,,,,5ced8f96a726ed0015d31452,Mexican,13 or older,"no, only English or Spanish",yes,2025-07-24_09h04.03.542,empathy_intonation_perc_control,2024.2.4,Win32,59.95203837,5ced8f96a726ed0015d31452,68817205a84113384fffdfe3,68822d8bde704a4994d7cbf9,35.34,48.364,0,1,12.497,,0,0,0,6,1,./stim/wavs/peruvian_statement_filler_El-nino-habla-con-su-madre.wav,0,,,,,,,,,,,,,,,,,,,,,,,,,,,,,,,,,,,,,,,,,,,,,,,,,,,,,,,,,,,,,,,,,,,,,,,,
,,,,,,,,,5ced8f96a726ed0015d31452,Mexican,13 or older,"no, only English or Spanish",yes,2025-07-24_09h04.03.542,empathy_intonation_perc_control,2024.2.4,Win32,59.95203837,5ced8f96a726ed0015d31452,68817205a84113384fffdfe3,68822d8bde704a4994d7cbf9,48.365,54.103,0,0,5.204,,0,1,1,2,1,./stim/wavs/chilean_question_filler_Mi-padre-cantaba-bien.wav,1,,,,,,,,,,,,,,,,,,,,,,,,,,,,,,,,,,,,,,,,,,,,,,,,,,,,,,,,,,,,,,,,,,,,,,,,
,,,,,,,,,5ced8f96a726ed0015d31452,Mexican,13 or older,"no, only English or Spanish",yes,2025-07-24_09h04.03.542,empathy_intonation_perc_control,2024.2.4,Win32,59.95203837,5ced8f96a726ed0015d31452,68817205a84113384fffdfe3,68822d8bde704a4994d7cbf9,54.103,67.883,1,0,13.273,,0,2,2,5,1,./stim/wavs/andalusian_statement_filler_Alberto-nunca-se-afeita.wav,0,,,,,,,,,,,,,,,,,,,,,,,,,,,,,,,,,,,,,,,,,,,,,,,,,,,,,,,,,,,,,,,,,,,,,,,,
,,,,,,,,,5ced8f96a726ed0015d31452,Mexican,13 or older,"no, only English or Spanish",yes,2025-07-24_09h04.03.542,empathy_intonation_perc_control,2024.2.4,Win32,59.95203837,5ced8f96a726ed0015d31452,68817205a84113384fffdfe3,68822d8bde704a4994d7cbf9,67.884,72.171,1,1,3.772,,0,3,3,1,1,./stim/wavs/argentine_question_filler_Mi-vecino-habla-mucho.wav,1,,,,,,,,,,,,,,,,,,,,,,,,,,,,,,,,,,,,,,,,,,,,,,,,,,,,,,,,,,,,,,,,,,,,,,,,
,,,,,,,,,5ced8f96a726ed0015d31452,Mexican,13 or older,"no, only English or Spanish",yes,2025-07-24_09h04.03.542,empathy_intonation_perc_control,2024.2.4,Win32,59.95203837,5ced8f96a726ed0015d31452,68817205a84113384fffdfe3,68822d8bde704a4994d7cbf9,72.171,74.557,0,1,1.87,,0,4,4,7,1,./stim/wavs/puertorican_statement_filler_La-nina-pinta-con-su-amiga.wav,0,,,,,,,,,,,,,,,,,,,,,,,,,,,,,,,,,,,,,,,,,,,,,,,,,,,,,,,,,,,,,,,,,,,,,,,,
,,,,,,,,,5ced8f96a726ed0015d31452,Mexican,13 or older,"no, only English or Spanish",yes,2025-07-24_09h04.03.542,empathy_intonation_perc_control,2024.2.4,Win32,59.95203837,5ced8f96a726ed0015d31452,68817205a84113384fffdfe3,68822d8bde704a4994d7cbf9,74.557,77.526,0,1,2.453,,0,5,5,4,1,./stim/wavs/cuban_statement_filler_Cocinabas-por-la-noche.wav,0,,,,,,,,,,,,,,,,,,,,,,,,,,,,,,,,,,,,,,,,,,,,,,,,,,,,,,,,,,,,,,,,,,,,,,,,
,,,,,,,,,5ced8f96a726ed0015d31452,Mexican,13 or older,"no, only English or Spanish",yes,2025-07-24_09h04.03.542,empathy_intonation_perc_control,2024.2.4,Win32,59.95203837,5ced8f96a726ed0015d31452,68817205a84113384fffdfe3,68822d8bde704a4994d7cbf9,77.526,80.246,1,1,2.203,,0,6,6,3,1,./stim/wavs/mexican_question_filler_Felipe-no-tiene-contrasena.wav,1,,,,,,,,,,,,,,,,,,,,,,,,,,,,,,,,,,,,,,,,,,,,,,,,,,,,,,,,,,,,,,,,,,,,,,,,
,,,,,,,,,5ced8f96a726ed0015d31452,Mexican,13 or older,"no, only English or Spanish",yes,2025-07-24_09h04.03.542,empathy_intonation_perc_control,2024.2.4,Win32,59.95203837,5ced8f96a726ed0015d31452,68817205a84113384fffdfe3,68822d8bde704a4994d7cbf9,80.246,83.049,1,1,2.282,,0,7,7,0,1,./stim/wavs/castilian_question_filler_Mi-esposo-conoce-al-chico.wav,1,,,,,,,,,,,,,,,,,,,,,,,,,,,,,,,,,,,,,,,,,,,,,,,,,,,,,,,,,,,,,,,,,,,,,,,,
,,,,,,,,,5ced8f96a726ed0015d31452,Mexican,13 or older,"no, only English or Spanish",yes,2025-07-24_09h04.03.542,empathy_intonation_perc_control,2024.2.4,Win32,59.95203837,5ced8f96a726ed0015d31452,68817205a84113384fffdfe3,68822d8bde704a4994d7cbf9,,,,,,,,,,,,,,83.049,87.419,,,,,,,,,,,,,,,,,,,,,,,,,,,,,,,,,,,,,,,,,,,,,,,,,,,,,,,,,,,,,,,,,,,,,,
,,,,,,,,,5ced8f96a726ed0015d31452,Mexican,13 or older,"no, only English or Spanish",yes,2025-07-24_09h04.03.542,empathy_intonation_perc_control,2024.2.4,Win32,59.95203837,5ced8f96a726ed0015d31452,68817205a84113384fffdfe3,68822d8bde704a4994d7cbf9,,,,,,,,,,,,./stim/wavs/castilian_mismatch_declarative-broad-focus_La-nina-lava-el-plato.wav,0,,,87.429,90.255,0,1,2.306,,0,0,0,70,1,71,0,castilian,,,,,,,,,,,,,,,,,,,,,,,,,,,,,,,,,,,,,,,,,,,,,,,,,,,,,,,,
,,,,,,,,,5ced8f96a726ed0015d31452,Mexican,13 or older,"no, only English or Spanish",yes,2025-07-24_09h04.03.542,empathy_intonation_perc_control,2024.2.4,Win32,59.95203837,5ced8f96a726ed0015d31452,68817205a84113384fffdfe3,68822d8bde704a4994d7cbf9,,,,,,,,,,,,./stim/wavs/mexican_match_interrogative-total-yn_Ana-lleva-el-abrigo.wav,1,,,90.256,93.175,1,1,2.408,,0,1,1,12,1,13,0,mexican,,,,,,,,,,,,,,,,,,,,,,,,,,,,,,,,,,,,,,,,,,,,,,,,,,,,,,,,
,,,,,,,,,5ced8f96a726ed0015d31452,Mexican,13 or older,"no, only English or Spanish",yes,2025-07-24_09h04.03.542,empathy_intonation_perc_control,2024.2.4,Win32,59.95203837,5ced8f96a726ed0015d31452,68817205a84113384fffdfe3,68822d8bde704a4994d7cbf9,,,,,,,,,,,,./stim/wavs/puertorican_mismatch_interrogative-total-yn_El-nino-oye-el-rio.wav,1,,,93.176,96.061,0,0,2.378,,0,2,2,40,1,41,1,puertorican,,,,,,,,,,,,,,,,,,,,,,,,,,,,,,,,,,,,,,,,,,,,,,,,,,,,,,,,
,,,,,,,,,5ced8f96a726ed0015d31452,Mexican,13 or older,"no, only English or Spanish",yes,2025-07-24_09h04.03.542,empathy_intonation_perc_control,2024.2.4,Win32,59.95203837,5ced8f96a726ed0015d31452,68817205a84113384fffdfe3,68822d8bde704a4994d7cbf9,,,,,,,,,,,,./stim/wavs/castilian_match_declarative-broad-focus_Maria-bebe-el-vino.wav,0,,,96.062,98.764,0,1,2.17,,0,3,3,47,1,48,0,castilian,,,,,,,,,,,,,,,,,,,,,,,,,,,,,,,,,,,,,,,,,,,,,,,,,,,,,,,,
,,,,,,,,,5ced8f96a726ed0015d31452,Mexican,13 or older,"no, only English or Spanish",yes,2025-07-24_09h04.03.542,empathy_intonation_perc_control,2024.2.4,Win32,59.95203837,5ced8f96a726ed0015d31452,68817205a84113384fffdfe3,68822d8bde704a4994d7cbf9,,,,,,,,,,,,./stim/wavs/cuban_mismatch_interrogative-total-yn_Mi-tia-odia-la-lluvia.wav,1,,,98.764,102.484,0,0,3.208,,0,4,4,33,1,34,1,cuban,,,,,,,,,,,,,,,,,,,,,,,,,,,,,,,,,,,,,,,,,,,,,,,,,,,,,,,,
,,,,,,,,,5ced8f96a726ed0015d31452,Mexican,13 or older,"no, only English or Spanish",yes,2025-07-24_09h04.03.542,empathy_intonation_perc_control,2024.2.4,Win32,59.95203837,5ced8f96a726ed0015d31452,68817205a84113384fffdfe3,68822d8bde704a4994d7cbf9,,,,,,,,,,,,./stim/wavs/mexican_match_declarative-broad-focus_Marta-abre-el-regalo.wav,0,,,102.485,105.12,0,1,2.127,,0,5,5,61,1,62,0,mexican,,,,,,,,,,,,,,,,,,,,,,,,,,,,,,,,,,,,,,,,,,,,,,,,,,,,,,,,
,,,,,,,,,5ced8f96a726ed0015d31452,Mexican,13 or older,"no, only English or Spanish",yes,2025-07-24_09h04.03.542,empathy_intonation_perc_control,2024.2.4,Win32,59.95203837,5ced8f96a726ed0015d31452,68817205a84113384fffdfe3,68822d8bde704a4994d7cbf9,,,,,,,,,,,,./stim/wavs/mexican_mismatch_interrogative-total-yn_El-hombre-mira-la-luna.wav,1,,,105.12,107.29,1,1,1.66,,0,6,6,34,1,35,0,mexican,,,,,,,,,,,,,,,,,,,,,,,,,,,,,,,,,,,,,,,,,,,,,,,,,,,,,,,,
,,,,,,,,,5ced8f96a726ed0015d31452,Mexican,13 or older,"no, only English or Spanish",yes,2025-07-24_09h04.03.542,empathy_intonation_perc_control,2024.2.4,Win32,59.95203837,5ced8f96a726ed0015d31452,68817205a84113384fffdfe3,68822d8bde704a4994d7cbf9,,,,,,,,,,,,./stim/wavs/cuban_match_declarative-broad-focus_Ana-lleva-el-abrigo.wav,0,,,107.29,109.842,0,1,2.049,,0,7,7,50,1,51,0,cuban,,,,,,,,,,,,,,,,,,,,,,,,,,,,,,,,,,,,,,,,,,,,,,,,,,,,,,,,
,,,,,,,,,5ced8f96a726ed0015d31452,Mexican,13 or older,"no, only English or Spanish",yes,2025-07-24_09h04.03.542,empathy_intonation_perc_control,2024.2.4,Win32,59.95203837,5ced8f96a726ed0015d31452,68817205a84113384fffdfe3,68822d8bde704a4994d7cbf9,,,,,,,,,,,,./stim/wavs/castilian_match_declarative-broad-focus_Emilio-ama-la-marcha.wav,0,,,109.842,112.461,0,1,2.114,,0,8,8,45,1,46,0,castilian,,,,,,,,,,,,,,,,,,,,,,,,,,,,,,,,,,,,,,,,,,,,,,,,,,,,,,,,
,,,,,,,,,5ced8f96a726ed0015d31452,Mexican,13 or older,"no, only English or Spanish",yes,2025-07-24_09h04.03.542,empathy_intonation_perc_control,2024.2.4,Win32,59.95203837,5ced8f96a726ed0015d31452,68817205a84113384fffdfe3,68822d8bde704a4994d7cbf9,,,,,,,,,,,,./stim/wavs/puertorican_match_interrogative-total-yn_Maria-bebe-el-vino.wav,1,,,112.462,115.782,1,1,2.793,,0,9,9,23,1,24,1,puertorican,,,,,,,,,,,,,,,,,,,,,,,,,,,,,,,,,,,,,,,,,,,,,,,,,,,,,,,,
,,,,,,,,,5ced8f96a726ed0015d31452,Mexican,13 or older,"no, only English or Spanish",yes,2025-07-24_09h04.03.542,empathy_intonation_perc_control,2024.2.4,Win32,59.95203837,5ced8f96a726ed0015d31452,68817205a84113384fffdfe3,68822d8bde704a4994d7cbf9,,,,,,,,,,,,./stim/wavs/castilian_mismatch_declarative-broad-focus_Mi-novio-viene-del-lago.wav,0,,,115.783,118.801,0,1,2.499,,0,10,10,71,1,72,0,castilian,,,,,,,,,,,,,,,,,,,,,,,,,,,,,,,,,,,,,,,,,,,,,,,,,,,,,,,,
,,,,,,,,,5ced8f96a726ed0015d31452,Mexican,13 or older,"no, only English or Spanish",yes,2025-07-24_09h04.03.542,empathy_intonation_perc_control,2024.2.4,Win32,59.95203837,5ced8f96a726ed0015d31452,68817205a84113384fffdfe3,68822d8bde704a4994d7cbf9,,,,,,,,,,,,./stim/wavs/castilian_mismatch_interrogative-total-yn_La-nina-lava-el-plato.wav,1,,,118.802,121.353,1,1,2.028,,0,11,11,25,1,26,0,castilian,,,,,,,,,,,,,,,,,,,,,,,,,,,,,,,,,,,,,,,,,,,,,,,,,,,,,,,,
,,,,,,,,,5ced8f96a726ed0015d31452,Mexican,13 or older,"no, only English or Spanish",yes,2025-07-24_09h04.03.542,empathy_intonation_perc_control,2024.2.4,Win32,59.95203837,5ced8f96a726ed0015d31452,68817205a84113384fffdfe3,68822d8bde704a4994d7cbf9,,,,,,,,,,,,./stim/wavs/cuban_mismatch_declarative-broad-focus_Mi-novio-viene-del-lago.wav,0,,,121.354,124.54,1,0,2.657,,0,12,12,76,1,77,0,cuban,,,,,,,,,,,,,,,,,,,,,,,,,,,,,,,,,,,,,,,,,,,,,,,,,,,,,,,,
,,,,,,,,,5ced8f96a726ed0015d31452,Mexican,13 or older,"no, only English or Spanish",yes,2025-07-24_09h04.03.542,empathy_intonation_perc_control,2024.2.4,Win32,59.95203837,5ced8f96a726ed0015d31452,68817205a84113384fffdfe3,68822d8bde704a4994d7cbf9,,,,,,,,,,,,./stim/wavs/puertorican_mismatch_declarative-broad-focus_La-nina-lava-el-plato.wav,0,,,124.541,129.945,1,0,4.88,,0,13,13,87,1,88,0,puertorican,,,,,,,,,,,,,,,,,,,,,,,,,,,,,,,,,,,,,,,,,,,,,,,,,,,,,,,,
,,,,,,,,,5ced8f96a726ed0015d31452,Mexican,13 or older,"no, only English or Spanish",yes,2025-07-24_09h04.03.542,empathy_intonation_perc_control,2024.2.4,Win32,59.95203837,5ced8f96a726ed0015d31452,68817205a84113384fffdfe3,68822d8bde704a4994d7cbf9,,,,,,,,,,,,./stim/wavs/castilian_match_interrogative-total-yn_Mariano-habla-del-tiempo.wav,1,,,129.946,133.298,1,1,2.846,,0,14,14,4,1,5,0,castilian,,,,,,,,,,,,,,,,,,,,,,,,,,,,,,,,,,,,,,,,,,,,,,,,,,,,,,,,
,,,,,,,,,5ced8f96a726ed0015d31452,Mexican,13 or older,"no, only English or Spanish",yes,2025-07-24_09h04.03.542,empathy_intonation_perc_control,2024.2.4,Win32,59.95203837,5ced8f96a726ed0015d31452,68817205a84113384fffdfe3,68822d8bde704a4994d7cbf9,,,,,,,,,,,,./stim/wavs/castilian_match_declarative-broad-focus_Mariano-habla-del-tiempo.wav,0,,,133.299,136.87,0,1,3.069,,0,15,15,48,1,49,0,castilian,,,,,,,,,,,,,,,,,,,,,,,,,,,,,,,,,,,,,,,,,,,,,,,,,,,,,,,,
,,,,,,,,,5ced8f96a726ed0015d31452,Mexican,13 or older,"no, only English or Spanish",yes,2025-07-24_09h04.03.542,empathy_intonation_perc_control,2024.2.4,Win32,59.95203837,5ced8f96a726ed0015d31452,68817205a84113384fffdfe3,68822d8bde704a4994d7cbf9,,,,,,,,,,,,./stim/wavs/cuban_mismatch_declarative-broad-focus_El-hombre-mira-la-luna.wav,0,,,136.87,139.254,0,1,1.856,,0,16,16,74,1,75,0,cuban,,,,,,,,,,,,,,,,,,,,,,,,,,,,,,,,,,,,,,,,,,,,,,,,,,,,,,,,
,,,,,,,,,5ced8f96a726ed0015d31452,Mexican,13 or older,"no, only English or Spanish",yes,2025-07-24_09h04.03.542,empathy_intonation_perc_control,2024.2.4,Win32,59.95203837,5ced8f96a726ed0015d31452,68817205a84113384fffdfe3,68822d8bde704a4994d7cbf9,,,,,,,,,,,,./stim/wavs/mexican_mismatch_declarative-broad-focus_La-maestra-vive-en-Paris.wav,0,,,139.255,144.076,0,1,4.304,,0,17,17,80,1,81,0,mexican,,,,,,,,,,,,,,,,,,,,,,,,,,,,,,,,,,,,,,,,,,,,,,,,,,,,,,,,
,,,,,,,,,5ced8f96a726ed0015d31452,Mexican,13 or older,"no, only English or Spanish",yes,2025-07-24_09h04.03.542,empathy_intonation_perc_control,2024.2.4,Win32,59.95203837,5ced8f96a726ed0015d31452,68817205a84113384fffdfe3,68822d8bde704a4994d7cbf9,,,,,,,,,,,,./stim/wavs/cuban_mismatch_declarative-broad-focus_Mi-tia-odia-la-lluvia.wav,0,,,144.077,146.963,0,1,2.358,,0,18,18,77,1,78,0,cuban,,,,,,,,,,,,,,,,,,,,,,,,,,,,,,,,,,,,,,,,,,,,,,,,,,,,,,,,
,,,,,,,,,5ced8f96a726ed0015d31452,Mexican,13 or older,"no, only English or Spanish",yes,2025-07-24_09h04.03.542,empathy_intonation_perc_control,2024.2.4,Win32,59.95203837,5ced8f96a726ed0015d31452,68817205a84113384fffdfe3,68822d8bde704a4994d7cbf9,,,,,,,,,,,,./stim/wavs/mexican_mismatch_declarative-broad-focus_El-hombre-mira-la-luna.wav,0,,,146.963,150.633,1,0,3.16,,0,19,19,79,1,80,0,mexican,,,,,,,,,,,,,,,,,,,,,,,,,,,,,,,,,,,,,,,,,,,,,,,,,,,,,,,,
,,,,,,,,,5ced8f96a726ed0015d31452,Mexican,13 or older,"no, only English or Spanish",yes,2025-07-24_09h04.03.542,empathy_intonation_perc_control,2024.2.4,Win32,59.95203837,5ced8f96a726ed0015d31452,68817205a84113384fffdfe3,68822d8bde704a4994d7cbf9,,,,,,,,,,,,./stim/wavs/puertorican_match_declarative-broad-focus_Daniel-iba-a-Bolivia.wav,0,,,150.635,153.052,0,1,1.897,,0,20,20,63,1,64,0,puertorican,,,,,,,,,,,,,,,,,,,,,,,,,,,,,,,,,,,,,,,,,,,,,,,,,,,,,,,,
,,,,,,,,,5ced8f96a726ed0015d31452,Mexican,13 or older,"no, only English or Spanish",yes,2025-07-24_09h04.03.542,empathy_intonation_perc_control,2024.2.4,Win32,59.95203837,5ced8f96a726ed0015d31452,68817205a84113384fffdfe3,68822d8bde704a4994d7cbf9,,,,,,,,,,,,./stim/wavs/cuban_match_interrogative-total-yn_Marta-abre-el-regalo.wav,1,,,153.053,155.655,0,0,2.069,,0,21,21,11,1,12,1,cuban,,,,,,,,,,,,,,,,,,,,,,,,,,,,,,,,,,,,,,,,,,,,,,,,,,,,,,,,
,,,,,,,,,5ced8f96a726ed0015d31452,Mexican,13 or older,"no, only English or Spanish",yes,2025-07-24_09h04.03.542,empathy_intonation_perc_control,2024.2.4,Win32,59.95203837,5ced8f96a726ed0015d31452,68817205a84113384fffdfe3,68822d8bde704a4994d7cbf9,,,,,,,,,,,,./stim/wavs/castilian_match_interrogative-total-yn_David-leia-el-libro.wav,1,,,155.655,158.191,1,1,2.019,,0,22,22,0,1,1,0,castilian,,,,,,,,,,,,,,,,,,,,,,,,,,,,,,,,,,,,,,,,,,,,,,,,,,,,,,,,
,,,,,,,,,5ced8f96a726ed0015d31452,Mexican,13 or older,"no, only English or Spanish",yes,2025-07-24_09h04.03.542,empathy_intonation_perc_control,2024.2.4,Win32,59.95203837,5ced8f96a726ed0015d31452,68817205a84113384fffdfe3,68822d8bde704a4994d7cbf9,,,,,,,,,,,,./stim/wavs/castilian_mismatch_declarative-broad-focus_La-maestra-vive-en-Paris.wav,0,,,158.191,160.826,0,1,2.13,,0,23,23,69,1,70,0,castilian,,,,,,,,,,,,,,,,,,,,,,,,,,,,,,,,,,,,,,,,,,,,,,,,,,,,,,,,
,,,,,,,,,5ced8f96a726ed0015d31452,Mexican,13 or older,"no, only English or Spanish",yes,2025-07-24_09h04.03.542,empathy_intonation_perc_control,2024.2.4,Win32,59.95203837,5ced8f96a726ed0015d31452,68817205a84113384fffdfe3,68822d8bde704a4994d7cbf9,,,,,,,,,,,,./stim/wavs/puertorican_mismatch_declarative-broad-focus_El-bebe-comia-muy-bien.wav,0,,,160.827,163.529,0,1,2.18,,0,24,24,83,1,84,0,puertorican,,,,,,,,,,,,,,,,,,,,,,,,,,,,,,,,,,,,,,,,,,,,,,,,,,,,,,,,
,,,,,,,,,5ced8f96a726ed0015d31452,Mexican,13 or older,"no, only English or Spanish",yes,2025-07-24_09h04.03.542,empathy_intonation_perc_control,2024.2.4,Win32,59.95203837,5ced8f96a726ed0015d31452,68817205a84113384fffdfe3,68822d8bde704a4994d7cbf9,,,,,,,,,,,,./stim/wavs/mexican_mismatch_interrogative-total-yn_La-maestra-vive-en-Paris.wav,1,,,163.529,166.382,1,1,2.349,,0,25,25,36,1,37,0,mexican,,,,,,,,,,,,,,,,,,,,,,,,,,,,,,,,,,,,,,,,,,,,,,,,,,,,,,,,
,,,,,,,,,5ced8f96a726ed0015d31452,Mexican,13 or older,"no, only English or Spanish",yes,2025-07-24_09h04.03.542,empathy_intonation_perc_control,2024.2.4,Win32,59.95203837,5ced8f96a726ed0015d31452,68817205a84113384fffdfe3,68822d8bde704a4994d7cbf9,,,,,,,,,,,,./stim/wavs/puertorican_mismatch_interrogative-total-yn_La-maestra-vive-en-Paris.wav,1,,,166.383,169.102,0,0,2.202,,0,26,26,41,1,42,1,puertorican,,,,,,,,,,,,,,,,,,,,,,,,,,,,,,,,,,,,,,,,,,,,,,,,,,,,,,,,
,,,,,,,,,5ced8f96a726ed0015d31452,Mexican,13 or older,"no, only English or Spanish",yes,2025-07-24_09h04.03.542,empathy_intonation_perc_control,2024.2.4,Win32,59.95203837,5ced8f96a726ed0015d31452,68817205a84113384fffdfe3,68822d8bde704a4994d7cbf9,,,,,,,,,,,,./stim/wavs/mexican_match_declarative-broad-focus_Emilio-ama-la-marcha.wav,0,,,169.102,171.604,0,1,1.985,,0,27,27,59,1,60,0,mexican,,,,,,,,,,,,,,,,,,,,,,,,,,,,,,,,,,,,,,,,,,,,,,,,,,,,,,,,
,,,,,,,,,5ced8f96a726ed0015d31452,Mexican,13 or older,"no, only English or Spanish",yes,2025-07-24_09h04.03.542,empathy_intonation_perc_control,2024.2.4,Win32,59.95203837,5ced8f96a726ed0015d31452,68817205a84113384fffdfe3,68822d8bde704a4994d7cbf9,,,,,,,,,,,,./stim/wavs/puertorican_mismatch_declarative-broad-focus_El-hombre-mira-la-luna.wav,0,,,171.604,175.858,0,1,3.752,,0,28,28,84,1,85,0,puertorican,,,,,,,,,,,,,,,,,,,,,,,,,,,,,,,,,,,,,,,,,,,,,,,,,,,,,,,,
,,,,,,,,,5ced8f96a726ed0015d31452,Mexican,13 or older,"no, only English or Spanish",yes,2025-07-24_09h04.03.542,empathy_intonation_perc_control,2024.2.4,Win32,59.95203837,5ced8f96a726ed0015d31452,68817205a84113384fffdfe3,68822d8bde704a4994d7cbf9,,,,,,,,,,,,./stim/wavs/cuban_match_interrogative-total-yn_Ana-lleva-el-abrigo.wav,1,,,175.858,178.928,0,0,2.563,,0,29,29,6,1,7,1,cuban,,,,,,,,,,,,,,,,,,,,,,,,,,,,,,,,,,,,,,,,,,,,,,,,,,,,,,,,
,,,,,,,,,5ced8f96a726ed0015d31452,Mexican,13 or older,"no, only English or Spanish",yes,2025-07-24_09h04.03.542,empathy_intonation_perc_control,2024.2.4,Win32,59.95203837,5ced8f96a726ed0015d31452,68817205a84113384fffdfe3,68822d8bde704a4994d7cbf9,,,,,,,,,,,,./stim/wavs/castilian_mismatch_interrogative-total-yn_Mi-tia-odia-la-lluvia.wav,1,,,178.928,181.314,1,1,1.882,,0,30,30,28,1,29,0,castilian,,,,,,,,,,,,,,,,,,,,,,,,,,,,,,,,,,,,,,,,,,,,,,,,,,,,,,,,
,,,,,,,,,5ced8f96a726ed0015d31452,Mexican,13 or older,"no, only English or Spanish",yes,2025-07-24_09h04.03.542,empathy_intonation_perc_control,2024.2.4,Win32,59.95203837,5ced8f96a726ed0015d31452,68817205a84113384fffdfe3,68822d8bde704a4994d7cbf9,,,,,,,,,,,,./stim/wavs/mexican_match_interrogative-total-yn_Daniel-iba-a-Bolivia.wav,1,,,181.316,183.75,1,1,1.907,,0,31,31,13,1,14,0,mexican,,,,,,,,,,,,,,,,,,,,,,,,,,,,,,,,,,,,,,,,,,,,,,,,,,,,,,,,
,,,,,,,,,5ced8f96a726ed0015d31452,Mexican,13 or older,"no, only English or Spanish",yes,2025-07-24_09h04.03.542,empathy_intonation_perc_control,2024.2.4,Win32,59.95203837,5ced8f96a726ed0015d31452,68817205a84113384fffdfe3,68822d8bde704a4994d7cbf9,,,,,,,,,,,,./stim/wavs/puertorican_mismatch_interrogative-total-yn_La-nina-lava-el-plato.wav,1,,,183.75,185.851,1,1,1.588,,0,32,32,42,1,43,1,puertorican,,,,,,,,,,,,,,,,,,,,,,,,,,,,,,,,,,,,,,,,,,,,,,,,,,,,,,,,
,,,,,,,,,5ced8f96a726ed0015d31452,Mexican,13 or older,"no, only English or Spanish",yes,2025-07-24_09h04.03.542,empathy_intonation_perc_control,2024.2.4,Win32,59.95203837,5ced8f96a726ed0015d31452,68817205a84113384fffdfe3,68822d8bde704a4994d7cbf9,,,,,,,,,,,,./stim/wavs/puertorican_match_declarative-broad-focus_Maria-bebe-el-vino.wav,0,,,185.852,188.837,0,1,2.478,,0,33,33,67,1,68,0,puertorican,,,,,,,,,,,,,,,,,,,,,,,,,,,,,,,,,,,,,,,,,,,,,,,,,,,,,,,,
,,,,,,,,,5ced8f96a726ed0015d31452,Mexican,13 or older,"no, only English or Spanish",yes,2025-07-24_09h04.03.542,empathy_intonation_perc_control,2024.2.4,Win32,59.95203837,5ced8f96a726ed0015d31452,68817205a84113384fffdfe3,68822d8bde704a4994d7cbf9,,,,,,,,,,,,./stim/wavs/mexican_match_declarative-broad-focus_Ana-lleva-el-abrigo.wav,0,,,188.838,191.174,0,1,1.834,,0,34,34,56,1,57,0,mexican,,,,,,,,,,,,,,,,,,,,,,,,,,,,,,,,,,,,,,,,,,,,,,,,,,,,,,,,
,,,,,,,,,5ced8f96a726ed0015d31452,Mexican,13 or older,"no, only English or Spanish",yes,2025-07-24_09h04.03.542,empathy_intonation_perc_control,2024.2.4,Win32,59.95203837,5ced8f96a726ed0015d31452,68817205a84113384fffdfe3,68822d8bde704a4994d7cbf9,,,,,,,,,,,,./stim/wavs/puertorican_match_interrogative-total-yn_Daniel-iba-a-Bolivia.wav,1,,,191.174,193.726,0,0,2.049,,0,35,35,19,1,20,1,puertorican,,,,,,,,,,,,,,,,,,,,,,,,,,,,,,,,,,,,,,,,,,,,,,,,,,,,,,,,
,,,,,,,,,5ced8f96a726ed0015d31452,Mexican,13 or older,"no, only English or Spanish",yes,2025-07-24_09h04.03.542,empathy_intonation_perc_control,2024.2.4,Win32,59.95203837,5ced8f96a726ed0015d31452,68817205a84113384fffdfe3,68822d8bde704a4994d7cbf9,,,,,,,,,,,,./stim/wavs/cuban_match_interrogative-total-yn_Daniel-iba-a-Bolivia.wav,1,,,193.727,196.963,1,1,2.721,,0,36,36,7,1,8,1,cuban,,,,,,,,,,,,,,,,,,,,,,,,,,,,,,,,,,,,,,,,,,,,,,,,,,,,,,,,
,,,,,,,,,5ced8f96a726ed0015d31452,Mexican,13 or older,"no, only English or Spanish",yes,2025-07-24_09h04.03.542,empathy_intonation_perc_control,2024.2.4,Win32,59.95203837,5ced8f96a726ed0015d31452,68817205a84113384fffdfe3,68822d8bde704a4994d7cbf9,,,,,,,,,,,,./stim/wavs/mexican_match_declarative-broad-focus_David-leia-el-libro.wav,0,,,196.963,199.766,0,1,2.291,,0,37,37,58,1,59,0,mexican,,,,,,,,,,,,,,,,,,,,,,,,,,,,,,,,,,,,,,,,,,,,,,,,,,,,,,,,
,,,,,,,,,5ced8f96a726ed0015d31452,Mexican,13 or older,"no, only English or Spanish",yes,2025-07-24_09h04.03.542,empathy_intonation_perc_control,2024.2.4,Win32,59.95203837,5ced8f96a726ed0015d31452,68817205a84113384fffdfe3,68822d8bde704a4994d7cbf9,,,,,,,,,,,,./stim/wavs/puertorican_mismatch_interrogative-total-yn_Mi-madre-come-la-fruta.wav,1,,,199.766,203.853,0,0,3.569,,0,38,38,43,1,44,1,puertorican,,,,,,,,,,,,,,,,,,,,,,,,,,,,,,,,,,,,,,,,,,,,,,,,,,,,,,,,
,,,,,,,,,5ced8f96a726ed0015d31452,Mexican,13 or older,"no, only English or Spanish",yes,2025-07-24_09h04.03.542,empathy_intonation_perc_control,2024.2.4,Win32,59.95203837,5ced8f96a726ed0015d31452,68817205a84113384fffdfe3,68822d8bde704a4994d7cbf9,,,,,,,,,,,,./stim/wavs/castilian_match_interrogative-total-yn_Manuela-vende-el-carro.wav,1,,,203.854,206.539,1,1,2.172,,0,39,39,2,1,3,0,castilian,,,,,,,,,,,,,,,,,,,,,,,,,,,,,,,,,,,,,,,,,,,,,,,,,,,,,,,,
,,,,,,,,,5ced8f96a726ed0015d31452,Mexican,13 or older,"no, only English or Spanish",yes,2025-07-24_09h04.03.542,empathy_intonation_perc_control,2024.2.4,Win32,59.95203837,5ced8f96a726ed0015d31452,68817205a84113384fffdfe3,68822d8bde704a4994d7cbf9,,,,,,,,,,,,./stim/wavs/cuban_match_declarative-broad-focus_Manuela-vende-el-carro.wav,0,,,206.54,210.493,0,1,3.443,,0,40,40,52,1,53,0,cuban,,,,,,,,,,,,,,,,,,,,,,,,,,,,,,,,,,,,,,,,,,,,,,,,,,,,,,,,
,,,,,,,,,5ced8f96a726ed0015d31452,Mexican,13 or older,"no, only English or Spanish",yes,2025-07-24_09h04.03.542,empathy_intonation_perc_control,2024.2.4,Win32,59.95203837,5ced8f96a726ed0015d31452,68817205a84113384fffdfe3,68822d8bde704a4994d7cbf9,,,,,,,,,,,,./stim/wavs/mexican_match_interrogative-total-yn_Emilio-ama-la-marcha.wav,1,,,210.493,214.731,1,1,3.725,,0,41,41,15,1,16,0,mexican,,,,,,,,,,,,,,,,,,,,,,,,,,,,,,,,,,,,,,,,,,,,,,,,,,,,,,,,
,,,,,,,,,5ced8f96a726ed0015d31452,Mexican,13 or older,"no, only English or Spanish",yes,2025-07-24_09h04.03.542,empathy_intonation_perc_control,2024.2.4,Win32,59.95203837,5ced8f96a726ed0015d31452,68817205a84113384fffdfe3,68822d8bde704a4994d7cbf9,,,,,,,,,,,,./stim/wavs/mexican_match_declarative-broad-focus_Daniel-iba-a-Bolivia.wav,0,,,214.732,218.668,0,1,3.412,,0,42,42,57,1,58,0,mexican,,,,,,,,,,,,,,,,,,,,,,,,,,,,,,,,,,,,,,,,,,,,,,,,,,,,,,,,
,,,,,,,,,5ced8f96a726ed0015d31452,Mexican,13 or older,"no, only English or Spanish",yes,2025-07-24_09h04.03.542,empathy_intonation_perc_control,2024.2.4,Win32,59.95203837,5ced8f96a726ed0015d31452,68817205a84113384fffdfe3,68822d8bde704a4994d7cbf9,,,,,,,,,,,,./stim/wavs/cuban_mismatch_interrogative-total-yn_El-nino-oye-el-rio.wav,1,,,218.669,221.855,1,1,2.653,,0,43,43,30,1,31,1,cuban,,,,,,,,,,,,,,,,,,,,,,,,,,,,,,,,,,,,,,,,,,,,,,,,,,,,,,,,
,,,,,,,,,5ced8f96a726ed0015d31452,Mexican,13 or older,"no, only English or Spanish",yes,2025-07-24_09h04.03.542,empathy_intonation_perc_control,2024.2.4,Win32,59.95203837,5ced8f96a726ed0015d31452,68817205a84113384fffdfe3,68822d8bde704a4994d7cbf9,,,,,,,,,,,,./stim/wavs/cuban_match_declarative-broad-focus_Maria-bebe-el-vino.wav,0,,,221.856,225.008,0,1,2.635,,0,44,44,53,1,54,0,cuban,,,,,,,,,,,,,,,,,,,,,,,,,,,,,,,,,,,,,,,,,,,,,,,,,,,,,,,,
,,,,,,,,,5ced8f96a726ed0015d31452,Mexican,13 or older,"no, only English or Spanish",yes,2025-07-24_09h04.03.542,empathy_intonation_perc_control,2024.2.4,Win32,59.95203837,5ced8f96a726ed0015d31452,68817205a84113384fffdfe3,68822d8bde704a4994d7cbf9,,,,,,,,,,,,./stim/wavs/mexican_match_declarative-broad-focus_Mariano-habla-del-tiempo.wav,0,,,225.008,227.56,0,1,2.036,,0,45,45,60,1,61,0,mexican,,,,,,,,,,,,,,,,,,,,,,,,,,,,,,,,,,,,,,,,,,,,,,,,,,,,,,,,
,,,,,,,,,5ced8f96a726ed0015d31452,Mexican,13 or older,"no, only English or Spanish",yes,2025-07-24_09h04.03.542,empathy_intonation_perc_control,2024.2.4,Win32,59.95203837,5ced8f96a726ed0015d31452,68817205a84113384fffdfe3,68822d8bde704a4994d7cbf9,,,,,,,,,,,,./stim/wavs/mexican_match_interrogative-total-yn_Marta-abre-el-regalo.wav,1,,,227.56,230.864,1,1,2.789,,0,46,46,17,1,18,0,mexican,,,,,,,,,,,,,,,,,,,,,,,,,,,,,,,,,,,,,,,,,,,,,,,,,,,,,,,,
,,,,,,,,,5ced8f96a726ed0015d31452,Mexican,13 or older,"no, only English or Spanish",yes,2025-07-24_09h04.03.542,empathy_intonation_perc_control,2024.2.4,Win32,59.95203837,5ced8f96a726ed0015d31452,68817205a84113384fffdfe3,68822d8bde704a4994d7cbf9,,,,,,,,,,,,./stim/wavs/castilian_mismatch_declarative-broad-focus_Mi-tia-odia-la-lluvia.wav,0,,,230.864,233.332,0,1,1.965,,0,47,47,72,1,73,0,castilian,,,,,,,,,,,,,,,,,,,,,,,,,,,,,,,,,,,,,,,,,,,,,,,,,,,,,,,,
,,,,,,,,,5ced8f96a726ed0015d31452,Mexican,13 or older,"no, only English or Spanish",yes,2025-07-24_09h04.03.542,empathy_intonation_perc_control,2024.2.4,Win32,59.95203837,5ced8f96a726ed0015d31452,68817205a84113384fffdfe3,68822d8bde704a4994d7cbf9,,,,,,,,,,,,./stim/wavs/cuban_mismatch_interrogative-total-yn_Mi-novio-viene-del-lago.wav,1,,,233.333,236.102,1,1,2.253,,0,48,48,32,1,33,1,cuban,,,,,,,,,,,,,,,,,,,,,,,,,,,,,,,,,,,,,,,,,,,,,,,,,,,,,,,,
,,,,,,,,,5ced8f96a726ed0015d31452,Mexican,13 or older,"no, only English or Spanish",yes,2025-07-24_09h04.03.542,empathy_intonation_perc_control,2024.2.4,Win32,59.95203837,5ced8f96a726ed0015d31452,68817205a84113384fffdfe3,68822d8bde704a4994d7cbf9,,,,,,,,,,,,./stim/wavs/castilian_mismatch_interrogative-total-yn_Mi-novio-viene-del-lago.wav,1,,,236.103,238.772,1,1,2.164,,0,49,49,27,1,28,0,castilian,,,,,,,,,,,,,,,,,,,,,,,,,,,,,,,,,,,,,,,,,,,,,,,,,,,,,,,,
,,,,,,,,,5ced8f96a726ed0015d31452,Mexican,13 or older,"no, only English or Spanish",yes,2025-07-24_09h04.03.542,empathy_intonation_perc_control,2024.2.4,Win32,59.95203837,5ced8f96a726ed0015d31452,68817205a84113384fffdfe3,68822d8bde704a4994d7cbf9,,,,,,,,,,,,./stim/wavs/puertorican_match_interrogative-total-yn_David-leia-el-libro.wav,1,,,238.772,240.873,1,1,1.589,,0,50,50,20,1,21,1,puertorican,,,,,,,,,,,,,,,,,,,,,,,,,,,,,,,,,,,,,,,,,,,,,,,,,,,,,,,,
,,,,,,,,,5ced8f96a726ed0015d31452,Mexican,13 or older,"no, only English or Spanish",yes,2025-07-24_09h04.03.542,empathy_intonation_perc_control,2024.2.4,Win32,59.95203837,5ced8f96a726ed0015d31452,68817205a84113384fffdfe3,68822d8bde704a4994d7cbf9,,,,,,,,,,,,./stim/wavs/mexican_mismatch_declarative-broad-focus_Mi-novio-viene-del-lago.wav,0,,,240.874,243.426,0,1,2.035,,0,51,51,81,1,82,0,mexican,,,,,,,,,,,,,,,,,,,,,,,,,,,,,,,,,,,,,,,,,,,,,,,,,,,,,,,,
,,,,,,,,,5ced8f96a726ed0015d31452,Mexican,13 or older,"no, only English or Spanish",yes,2025-07-24_09h04.03.542,empathy_intonation_perc_control,2024.2.4,Win32,59.95203837,5ced8f96a726ed0015d31452,68817205a84113384fffdfe3,68822d8bde704a4994d7cbf9,,,,,,,,,,,,./stim/wavs/mexican_mismatch_interrogative-total-yn_Mi-novio-viene-del-lago.wav,1,,,243.427,246.162,1,1,2.204,,0,52,52,37,1,38,0,mexican,,,,,,,,,,,,,,,,,,,,,,,,,,,,,,,,,,,,,,,,,,,,,,,,,,,,,,,,
,,,,,,,,,5ced8f96a726ed0015d31452,Mexican,13 or older,"no, only English or Spanish",yes,2025-07-24_09h04.03.542,empathy_intonation_perc_control,2024.2.4,Win32,59.95203837,5ced8f96a726ed0015d31452,68817205a84113384fffdfe3,68822d8bde704a4994d7cbf9,,,,,,,,,,,,./stim/wavs/puertorican_match_interrogative-total-yn_Emilio-ama-la-marcha.wav,1,,,246.163,249.649,1,1,2.976,,0,53,53,21,1,22,1,puertorican,,,,,,,,,,,,,,,,,,,,,,,,,,,,,,,,,,,,,,,,,,,,,,,,,,,,,,,,
,,,,,,,,,5ced8f96a726ed0015d31452,Mexican,13 or older,"no, only English or Spanish",yes,2025-07-24_09h04.03.542,empathy_intonation_perc_control,2024.2.4,Win32,59.95203837,5ced8f96a726ed0015d31452,68817205a84113384fffdfe3,68822d8bde704a4994d7cbf9,,,,,,,,,,,,./stim/wavs/castilian_match_interrogative-total-yn_Marta-abre-el-regalo.wav,1,,,249.651,252.369,1,1,2.189,,0,54,54,5,1,6,0,castilian,,,,,,,,,,,,,,,,,,,,,,,,,,,,,,,,,,,,,,,,,,,,,,,,,,,,,,,,
,,,,,,,,,5ced8f96a726ed0015d31452,Mexican,13 or older,"no, only English or Spanish",yes,2025-07-24_09h04.03.542,empathy_intonation_perc_control,2024.2.4,Win32,59.95203837,5ced8f96a726ed0015d31452,68817205a84113384fffdfe3,68822d8bde704a4994d7cbf9,,,,,,,,,,,,./stim/wavs/cuban_mismatch_interrogative-total-yn_El-hombre-mira-la-luna.wav,1,,,252.37,255.188,1,1,2.308,,0,55,55,29,1,30,1,cuban,,,,,,,,,,,,,,,,,,,,,,,,,,,,,,,,,,,,,,,,,,,,,,,,,,,,,,,,
,,,,,,,,,5ced8f96a726ed0015d31452,Mexican,13 or older,"no, only English or Spanish",yes,2025-07-24_09h04.03.542,empathy_intonation_perc_control,2024.2.4,Win32,59.95203837,5ced8f96a726ed0015d31452,68817205a84113384fffdfe3,68822d8bde704a4994d7cbf9,,,,,,,,,,,,./stim/wavs/cuban_match_declarative-broad-focus_Marta-abre-el-regalo.wav,0,,,255.189,257.707,0,1,2.003,,0,56,56,55,1,56,0,cuban,,,,,,,,,,,,,,,,,,,,,,,,,,,,,,,,,,,,,,,,,,,,,,,,,,,,,,,,
,,,,,,,,,5ced8f96a726ed0015d31452,Mexican,13 or older,"no, only English or Spanish",yes,2025-07-24_09h04.03.542,empathy_intonation_perc_control,2024.2.4,Win32,59.95203837,5ced8f96a726ed0015d31452,68817205a84113384fffdfe3,68822d8bde704a4994d7cbf9,,,,,,,,,,,,./stim/wavs/cuban_match_declarative-broad-focus_Daniel-iba-a-Bolivia.wav,0,,,257.708,260.377,0,1,2.152,,0,57,57,51,1,52,0,cuban,,,,,,,,,,,,,,,,,,,,,,,,,,,,,,,,,,,,,,,,,,,,,,,,,,,,,,,,
,,,,,,,,,5ced8f96a726ed0015d31452,Mexican,13 or older,"no, only English or Spanish",yes,2025-07-24_09h04.03.542,empathy_intonation_perc_control,2024.2.4,Win32,59.95203837,5ced8f96a726ed0015d31452,68817205a84113384fffdfe3,68822d8bde704a4994d7cbf9,,,,,,,,,,,,./stim/wavs/cuban_match_interrogative-total-yn_Manuela-vende-el-carro.wav,1,,,260.378,263.53,0,0,2.646,,0,58,58,8,1,9,1,cuban,,,,,,,,,,,,,,,,,,,,,,,,,,,,,,,,,,,,,,,,,,,,,,,,,,,,,,,,
,,,,,,,,,5ced8f96a726ed0015d31452,Mexican,13 or older,"no, only English or Spanish",yes,2025-07-24_09h04.03.542,empathy_intonation_perc_control,2024.2.4,Win32,59.95203837,5ced8f96a726ed0015d31452,68817205a84113384fffdfe3,68822d8bde704a4994d7cbf9,,,,,,,,,,,,./stim/wavs/cuban_match_declarative-broad-focus_Mariano-habla-del-tiempo.wav,0,,,263.53,266.382,0,1,2.344,,0,59,59,54,1,55,0,cuban,,,,,,,,,,,,,,,,,,,,,,,,,,,,,,,,,,,,,,,,,,,,,,,,,,,,,,,,
,,,,,,,,,5ced8f96a726ed0015d31452,Mexican,13 or older,"no, only English or Spanish",yes,2025-07-24_09h04.03.542,empathy_intonation_perc_control,2024.2.4,Win32,59.95203837,5ced8f96a726ed0015d31452,68817205a84113384fffdfe3,68822d8bde704a4994d7cbf9,,,,,,,,,,,,./stim/wavs/cuban_match_interrogative-total-yn_Maria-bebe-el-vino.wav,1,,,266.382,268.718,0,0,1.826,,0,60,60,9,1,10,1,cuban,,,,,,,,,,,,,,,,,,,,,,,,,,,,,,,,,,,,,,,,,,,,,,,,,,,,,,,,
,,,,,,,,,5ced8f96a726ed0015d31452,Mexican,13 or older,"no, only English or Spanish",yes,2025-07-24_09h04.03.542,empathy_intonation_perc_control,2024.2.4,Win32,59.95203837,5ced8f96a726ed0015d31452,68817205a84113384fffdfe3,68822d8bde704a4994d7cbf9,,,,,,,,,,,,./stim/wavs/mexican_mismatch_declarative-broad-focus_El-bebe-comia-muy-bien.wav,0,,,268.719,271.438,0,1,2.199,,0,61,61,78,1,79,0,mexican,,,,,,,,,,,,,,,,,,,,,,,,,,,,,,,,,,,,,,,,,,,,,,,,,,,,,,,,
,,,,,,,,,5ced8f96a726ed0015d31452,Mexican,13 or older,"no, only English or Spanish",yes,2025-07-24_09h04.03.542,empathy_intonation_perc_control,2024.2.4,Win32,59.95203837,5ced8f96a726ed0015d31452,68817205a84113384fffdfe3,68822d8bde704a4994d7cbf9,,,,,,,,,,,,./stim/wavs/cuban_mismatch_declarative-broad-focus_El-bebe-comia-muy-bien.wav,0,,,271.438,273.657,0,1,1.718,,0,62,62,73,1,74,0,cuban,,,,,,,,,,,,,,,,,,,,,,,,,,,,,,,,,,,,,,,,,,,,,,,,,,,,,,,,
,,,,,,,,,5ced8f96a726ed0015d31452,Mexican,13 or older,"no, only English or Spanish",yes,2025-07-24_09h04.03.542,empathy_intonation_perc_control,2024.2.4,Win32,59.95203837,5ced8f96a726ed0015d31452,68817205a84113384fffdfe3,68822d8bde704a4994d7cbf9,,,,,,,,,,,,./stim/wavs/castilian_match_interrogative-total-yn_Emilio-ama-la-marcha.wav,1,,,273.658,276.46,0,0,2.3,,0,63,63,1,1,2,0,castilian,,,,,,,,,,,,,,,,,,,,,,,,,,,,,,,,,,,,,,,,,,,,,,,,,,,,,,,,
,,,,,,,,,5ced8f96a726ed0015d31452,Mexican,13 or older,"no, only English or Spanish",yes,2025-07-24_09h04.03.542,empathy_intonation_perc_control,2024.2.4,Win32,59.95203837,5ced8f96a726ed0015d31452,68817205a84113384fffdfe3,68822d8bde704a4994d7cbf9,,,,,,,,,,,,./stim/wavs/castilian_match_declarative-broad-focus_David-leia-el-libro.wav,0,,,276.46,279.145,0,1,2.183,,0,64,64,44,1,45,0,castilian,,,,,,,,,,,,,,,,,,,,,,,,,,,,,,,,,,,,,,,,,,,,,,,,,,,,,,,,
,,,,,,,,,5ced8f96a726ed0015d31452,Mexican,13 or older,"no, only English or Spanish",yes,2025-07-24_09h04.03.542,empathy_intonation_perc_control,2024.2.4,Win32,59.95203837,5ced8f96a726ed0015d31452,68817205a84113384fffdfe3,68822d8bde704a4994d7cbf9,,,,,,,,,,,,./stim/wavs/castilian_match_interrogative-total-yn_Maria-bebe-el-vino.wav,1,,,279.146,281.297,1,1,1.64,,0,65,65,3,1,4,0,castilian,,,,,,,,,,,,,,,,,,,,,,,,,,,,,,,,,,,,,,,,,,,,,,,,,,,,,,,,
,,,,,,,,,5ced8f96a726ed0015d31452,Mexican,13 or older,"no, only English or Spanish",yes,2025-07-24_09h04.03.542,empathy_intonation_perc_control,2024.2.4,Win32,59.95203837,5ced8f96a726ed0015d31452,68817205a84113384fffdfe3,68822d8bde704a4994d7cbf9,,,,,,,,,,,,./stim/wavs/castilian_mismatch_interrogative-total-yn_Mi-madre-come-la-fruta.wav,1,,,281.3,283.85,1,1,2.03,,0,66,66,26,1,27,0,castilian,,,,,,,,,,,,,,,,,,,,,,,,,,,,,,,,,,,,,,,,,,,,,,,,,,,,,,,,
,,,,,,,,,5ced8f96a726ed0015d31452,Mexican,13 or older,"no, only English or Spanish",yes,2025-07-24_09h04.03.542,empathy_intonation_perc_control,2024.2.4,Win32,59.95203837,5ced8f96a726ed0015d31452,68817205a84113384fffdfe3,68822d8bde704a4994d7cbf9,,,,,,,,,,,,./stim/wavs/puertorican_match_declarative-broad-focus_Emilio-ama-la-marcha.wav,0,,,283.85,287.303,1,0,2.944,,0,67,67,65,1,66,0,puertorican,,,,,,,,,,,,,,,,,,,,,,,,,,,,,,,,,,,,,,,,,,,,,,,,,,,,,,,,
,,,,,,,,,5ced8f96a726ed0015d31452,Mexican,13 or older,"no, only English or Spanish",yes,2025-07-24_09h04.03.542,empathy_intonation_perc_control,2024.2.4,Win32,59.95203837,5ced8f96a726ed0015d31452,68817205a84113384fffdfe3,68822d8bde704a4994d7cbf9,,,,,,,,,,,,./stim/wavs/mexican_match_interrogative-total-yn_David-leia-el-libro.wav,1,,,287.304,289.773,1,1,1.956,,0,68,68,14,1,15,0,mexican,,,,,,,,,,,,,,,,,,,,,,,,,,,,,,,,,,,,,,,,,,,,,,,,,,,,,,,,
,,,,,,,,,5ced8f96a726ed0015d31452,Mexican,13 or older,"no, only English or Spanish",yes,2025-07-24_09h04.03.542,empathy_intonation_perc_control,2024.2.4,Win32,59.95203837,5ced8f96a726ed0015d31452,68817205a84113384fffdfe3,68822d8bde704a4994d7cbf9,,,,,,,,,,,,./stim/wavs/castilian_mismatch_declarative-broad-focus_El-nino-oye-el-rio.wav,0,,,289.773,292.509,1,0,2.229,,0,69,69,68,1,69,0,castilian,,,,,,,,,,,,,,,,,,,,,,,,,,,,,,,,,,,,,,,,,,,,,,,,,,,,,,,,
,,,,,,,,,5ced8f96a726ed0015d31452,Mexican,13 or older,"no, only English or Spanish",yes,2025-07-24_09h04.03.542,empathy_intonation_perc_control,2024.2.4,Win32,59.95203837,5ced8f96a726ed0015d31452,68817205a84113384fffdfe3,68822d8bde704a4994d7cbf9,,,,,,,,,,,,./stim/wavs/castilian_match_declarative-broad-focus_Manuela-vende-el-carro.wav,0,,,292.51,295.312,1,0,2.28,,0,70,70,46,1,47,0,castilian,,,,,,,,,,,,,,,,,,,,,,,,,,,,,,,,,,,,,,,,,,,,,,,,,,,,,,,,
,,,,,,,,,5ced8f96a726ed0015d31452,Mexican,13 or older,"no, only English or Spanish",yes,2025-07-24_09h04.03.542,empathy_intonation_perc_control,2024.2.4,Win32,59.95203837,5ced8f96a726ed0015d31452,68817205a84113384fffdfe3,68822d8bde704a4994d7cbf9,,,,,,,,,,,,./stim/wavs/puertorican_match_interrogative-total-yn_Ana-lleva-el-abrigo.wav,1,,,295.312,298.515,1,1,2.692,,0,71,71,18,1,19,1,puertorican,,,,,,,,,,,,,,,,,,,,,,,,,,,,,,,,,,,,,,,,,,,,,,,,,,,,,,,,
,,,,,,,,,5ced8f96a726ed0015d31452,Mexican,13 or older,"no, only English or Spanish",yes,2025-07-24_09h04.03.542,empathy_intonation_perc_control,2024.2.4,Win32,59.95203837,5ced8f96a726ed0015d31452,68817205a84113384fffdfe3,68822d8bde704a4994d7cbf9,,,,,,,,,,,,./stim/wavs/castilian_match_declarative-broad-focus_Marta-abre-el-regalo.wav,0,,,298.515,301.067,0,1,2.036,,0,72,72,49,1,50,0,castilian,,,,,,,,,,,,,,,,,,,,,,,,,,,,,,,,,,,,,,,,,,,,,,,,,,,,,,,,
,,,,,,,,,5ced8f96a726ed0015d31452,Mexican,13 or older,"no, only English or Spanish",yes,2025-07-24_09h04.03.542,empathy_intonation_perc_control,2024.2.4,Win32,59.95203837,5ced8f96a726ed0015d31452,68817205a84113384fffdfe3,68822d8bde704a4994d7cbf9,,,,,,,,,,,,./stim/wavs/puertorican_mismatch_declarative-broad-focus_El-nino-oye-el-rio.wav,0,,,301.068,303.703,0,1,2.131,,0,73,73,85,1,86,0,puertorican,,,,,,,,,,,,,,,,,,,,,,,,,,,,,,,,,,,,,,,,,,,,,,,,,,,,,,,,
,,,,,,,,,5ced8f96a726ed0015d31452,Mexican,13 or older,"no, only English or Spanish",yes,2025-07-24_09h04.03.542,empathy_intonation_perc_control,2024.2.4,Win32,59.95203837,5ced8f96a726ed0015d31452,68817205a84113384fffdfe3,68822d8bde704a4994d7cbf9,,,,,,,,,,,,./stim/wavs/puertorican_match_declarative-broad-focus_Manuela-vende-el-carro.wav,0,,,303.704,306.339,0,1,2.131,,0,74,74,66,1,67,0,puertorican,,,,,,,,,,,,,,,,,,,,,,,,,,,,,,,,,,,,,,,,,,,,,,,,,,,,,,,,
,,,,,,,,,5ced8f96a726ed0015d31452,Mexican,13 or older,"no, only English or Spanish",yes,2025-07-24_09h04.03.542,empathy_intonation_perc_control,2024.2.4,Win32,59.95203837,5ced8f96a726ed0015d31452,68817205a84113384fffdfe3,68822d8bde704a4994d7cbf9,,,,,,,,,,,,./stim/wavs/puertorican_match_interrogative-total-yn_Manuela-vende-el-carro.wav,1,,,306.34,308.458,1,1,1.615,,0,75,75,22,1,23,1,puertorican,,,,,,,,,,,,,,,,,,,,,,,,,,,,,,,,,,,,,,,,,,,,,,,,,,,,,,,,
,,,,,,,,,5ced8f96a726ed0015d31452,Mexican,13 or older,"no, only English or Spanish",yes,2025-07-24_09h04.03.542,empathy_intonation_perc_control,2024.2.4,Win32,59.95203837,5ced8f96a726ed0015d31452,68817205a84113384fffdfe3,68822d8bde704a4994d7cbf9,,,,,,,,,,,,./stim/wavs/cuban_mismatch_declarative-broad-focus_La-nina-lava-el-plato.wav,0,,,308.459,311.394,1,0,2.429,,0,76,76,75,1,76,0,cuban,,,,,,,,,,,,,,,,,,,,,,,,,,,,,,,,,,,,,,,,,,,,,,,,,,,,,,,,
,,,,,,,,,5ced8f96a726ed0015d31452,Mexican,13 or older,"no, only English or Spanish",yes,2025-07-24_09h04.03.542,empathy_intonation_perc_control,2024.2.4,Win32,59.95203837,5ced8f96a726ed0015d31452,68817205a84113384fffdfe3,68822d8bde704a4994d7cbf9,,,,,,,,,,,,./stim/wavs/cuban_mismatch_interrogative-total-yn_Mi-madre-come-la-fruta.wav,1,,,311.394,314.248,0,0,2.339,,0,77,77,31,1,32,1,cuban,,,,,,,,,,,,,,,,,,,,,,,,,,,,,,,,,,,,,,,,,,,,,,,,,,,,,,,,
,,,,,,,,,5ced8f96a726ed0015d31452,Mexican,13 or older,"no, only English or Spanish",yes,2025-07-24_09h04.03.542,empathy_intonation_perc_control,2024.2.4,Win32,59.95203837,5ced8f96a726ed0015d31452,68817205a84113384fffdfe3,68822d8bde704a4994d7cbf9,,,,,,,,,,,,./stim/wavs/puertorican_mismatch_interrogative-total-yn_El-hombre-mira-la-luna.wav,1,,,314.249,316.482,1,1,1.713,,0,78,78,39,1,40,1,puertorican,,,,,,,,,,,,,,,,,,,,,,,,,,,,,,,,,,,,,,,,,,,,,,,,,,,,,,,,
,,,,,,,,,5ced8f96a726ed0015d31452,Mexican,13 or older,"no, only English or Spanish",yes,2025-07-24_09h04.03.542,empathy_intonation_perc_control,2024.2.4,Win32,59.95203837,5ced8f96a726ed0015d31452,68817205a84113384fffdfe3,68822d8bde704a4994d7cbf9,,,,,,,,,,,,./stim/wavs/mexican_mismatch_declarative-broad-focus_Mi-tia-odia-la-lluvia.wav,0,,,316.484,319.369,1,0,2.354,,0,79,79,82,1,83,0,mexican,,,,,,,,,,,,,,,,,,,,,,,,,,,,,,,,,,,,,,,,,,,,,,,,,,,,,,,,
,,,,,,,,,5ced8f96a726ed0015d31452,Mexican,13 or older,"no, only English or Spanish",yes,2025-07-24_09h04.03.542,empathy_intonation_perc_control,2024.2.4,Win32,59.95203837,5ced8f96a726ed0015d31452,68817205a84113384fffdfe3,68822d8bde704a4994d7cbf9,,,,,,,,,,,,./stim/wavs/mexican_match_interrogative-total-yn_Mariano-habla-del-tiempo.wav,1,,,319.37,321.839,1,1,1.95,,0,80,80,16,1,17,0,mexican,,,,,,,,,,,,,,,,,,,,,,,,,,,,,,,,,,,,,,,,,,,,,,,,,,,,,,,,
,,,,,,,,,5ced8f96a726ed0015d31452,Mexican,13 or older,"no, only English or Spanish",yes,2025-07-24_09h04.03.542,empathy_intonation_perc_control,2024.2.4,Win32,59.95203837,5ced8f96a726ed0015d31452,68817205a84113384fffdfe3,68822d8bde704a4994d7cbf9,,,,,,,,,,,,./stim/wavs/puertorican_mismatch_declarative-broad-focus_La-maestra-vive-en-Paris.wav,0,,,321.84,325.325,0,1,2.973,,0,81,81,86,1,87,0,puertorican,,,,,,,,,,,,,,,,,,,,,,,,,,,,,,,,,,,,,,,,,,,,,,,,,,,,,,,,
,,,,,,,,,5ced8f96a726ed0015d31452,Mexican,13 or older,"no, only English or Spanish",yes,2025-07-24_09h04.03.542,empathy_intonation_perc_control,2024.2.4,Win32,59.95203837,5ced8f96a726ed0015d31452,68817205a84113384fffdfe3,68822d8bde704a4994d7cbf9,,,,,,,,,,,,./stim/wavs/puertorican_match_declarative-broad-focus_Ana-lleva-el-abrigo.wav,0,,,325.326,328.579,0,1,2.738,,0,82,82,62,1,63,0,puertorican,,,,,,,,,,,,,,,,,,,,,,,,,,,,,,,,,,,,,,,,,,,,,,,,,,,,,,,,
,,,,,,,,,5ced8f96a726ed0015d31452,Mexican,13 or older,"no, only English or Spanish",yes,2025-07-24_09h04.03.542,empathy_intonation_perc_control,2024.2.4,Win32,59.95203837,5ced8f96a726ed0015d31452,68817205a84113384fffdfe3,68822d8bde704a4994d7cbf9,,,,,,,,,,,,./stim/wavs/castilian_mismatch_interrogative-total-yn_La-maestra-vive-en-Paris.wav,1,,,328.579,331.515,1,1,2.425,,0,83,83,24,1,25,0,castilian,,,,,,,,,,,,,,,,,,,,,,,,,,,,,,,,,,,,,,,,,,,,,,,,,,,,,,,,
,,,,,,,,,5ced8f96a726ed0015d31452,Mexican,13 or older,"no, only English or Spanish",yes,2025-07-24_09h04.03.542,empathy_intonation_perc_control,2024.2.4,Win32,59.95203837,5ced8f96a726ed0015d31452,68817205a84113384fffdfe3,68822d8bde704a4994d7cbf9,,,,,,,,,,,,./stim/wavs/cuban_match_interrogative-total-yn_Mariano-habla-del-tiempo.wav,1,,,331.515,334.284,1,1,2.256,,0,84,84,10,1,11,1,cuban,,,,,,,,,,,,,,,,,,,,,,,,,,,,,,,,,,,,,,,,,,,,,,,,,,,,,,,,
,,,,,,,,,5ced8f96a726ed0015d31452,Mexican,13 or older,"no, only English or Spanish",yes,2025-07-24_09h04.03.542,empathy_intonation_perc_control,2024.2.4,Win32,59.95203837,5ced8f96a726ed0015d31452,68817205a84113384fffdfe3,68822d8bde704a4994d7cbf9,,,,,,,,,,,,./stim/wavs/mexican_mismatch_interrogative-total-yn_Mi-tia-odia-la-lluvia.wav,1,,,334.285,336.753,1,1,1.962,,0,85,85,38,1,39,0,mexican,,,,,,,,,,,,,,,,,,,,,,,,,,,,,,,,,,,,,,,,,,,,,,,,,,,,,,,,
,,,,,,,,,5ced8f96a726ed0015d31452,Mexican,13 or older,"no, only English or Spanish",yes,2025-07-24_09h04.03.542,empathy_intonation_perc_control,2024.2.4,Win32,59.95203837,5ced8f96a726ed0015d31452,68817205a84113384fffdfe3,68822d8bde704a4994d7cbf9,,,,,,,,,,,,./stim/wavs/mexican_mismatch_interrogative-total-yn_El-nino-oye-el-rio.wav,1,,,336.753,339.389,1,1,2.119,,0,86,86,35,1,36,0,mexican,,,,,,,,,,,,,,,,,,,,,,,,,,,,,,,,,,,,,,,,,,,,,,,,,,,,,,,,
,,,,,,,,,5ced8f96a726ed0015d31452,Mexican,13 or older,"no, only English or Spanish",yes,2025-07-24_09h04.03.542,empathy_intonation_perc_control,2024.2.4,Win32,59.95203837,5ced8f96a726ed0015d31452,68817205a84113384fffdfe3,68822d8bde704a4994d7cbf9,,,,,,,,,,,,./stim/wavs/puertorican_match_declarative-broad-focus_David-leia-el-libro.wav,0,,,339.389,341.642,0,1,1.741,,0,87,87,64,1,65,0,puertorican,,,,,,,,,,,,,,,,,,,,,,,,,,,,,,,,,,,,,,,,,,,,,,,,,,,,,,,,
,,,,,,,"Great! Now we will move on. The next task consists of about 60 trials, in each of which you will see a string of letters. 
  
  Your task is to decide whether this is a real Spanish word or not.", (press the spacebar to continue),5ced8f96a726ed0015d31452,Mexican,13 or older,"no, only English or Spanish",yes,2025-07-24_09h04.03.542,empathy_intonation_perc_control,2024.2.4,Win32,59.95203837,5ced8f96a726ed0015d31452,68817205a84113384fffdfe3,68822d8bde704a4994d7cbf9,,,,,,,,,,,,,,,,,,,,,,,,,,,,,,341.648,357.024,0,0,0,0,1,,,,,,,,,,,,,,,,,,,,,,,,,,,,,,,,,,,,,,,,,,,,,,,,,
,,,,,,,"If you think it is an existing Spanish word, you type '1' (for 'REAL'), and if you think it is not an existing Spanish word, you type '0' (for 'FAKE').", (press the spacebar to continue),5ced8f96a726ed0015d31452,Mexican,13 or older,"no, only English or Spanish",yes,2025-07-24_09h04.03.542,empathy_intonation_perc_control,2024.2.4,Win32,59.95203837,5ced8f96a726ed0015d31452,68817205a84113384fffdfe3,68822d8bde704a4994d7cbf9,,,,,,,,,,,,,,,,,,,,,,,,,,,,,,357.028,368.919,0,1,1,1,1,,,,,,,,,,,,,,,,,,,,,,,,,,,,,,,,,,,,,,,,,,,,,,,,,
,,,,,,,"If you are sure that the word exists, even though you don’t know its exact meaning, you may still respond '1' (REAL). 
  
  But if you are not sure if it is an existing word, you should respond '0' (FAKE).
  
  Let's do a practice round...", (press the spacebar to continue),5ced8f96a726ed0015d31452,Mexican,13 or older,"no, only English or Spanish",yes,2025-07-24_09h04.03.542,empathy_intonation_perc_control,2024.2.4,Win32,59.95203837,5ced8f96a726ed0015d31452,68817205a84113384fffdfe3,68822d8bde704a4994d7cbf9,,,,,,,,,,,,,,,,,,,,,,,,,,,,,,368.92,378.445,0,2,2,2,1,,,,,,,,,,,,,,,,,,,,,,,,,,,,,,,,,,,,,,,,,,,,,,,,,
,,,,,,,,,5ced8f96a726ed0015d31452,Mexican,13 or older,"no, only English or Spanish",yes,2025-07-24_09h04.03.542,empathy_intonation_perc_control,2024.2.4,Win32,59.95203837,5ced8f96a726ed0015d31452,68817205a84113384fffdfe3,68822d8bde704a4994d7cbf9,,,,,,,,,,,,,0,,,,,,,,,,,,,,,,,,,,,,,,378.452,382.967,1,0,3.971,,382.967,383.967,0,0,0,0,1,0,depiste,REAL,FAKE,,,,,,,,,,,,,,,,,,,,,,,,,,,,,,,,
,,,,,,,,,5ced8f96a726ed0015d31452,Mexican,13 or older,"no, only English or Spanish",yes,2025-07-24_09h04.03.542,empathy_intonation_perc_control,2024.2.4,Win32,59.95203837,5ced8f96a726ed0015d31452,68817205a84113384fffdfe3,68822d8bde704a4994d7cbf9,,,,,,,,,,,,,1,,,,,,,,,,,,,,,,,,,,,,,,383.969,385.402,1,1,0.926,,385.402,386.403,0,1,1,1,1,0,sí,REAL,FAKE,,,,,,,,,,,,,,,,,,,,,,,,,,,,,,,,
,,,,,,,,,5ced8f96a726ed0015d31452,Mexican,13 or older,"no, only English or Spanish",yes,2025-07-24_09h04.03.542,empathy_intonation_perc_control,2024.2.4,Win32,59.95203837,5ced8f96a726ed0015d31452,68817205a84113384fffdfe3,68822d8bde704a4994d7cbf9,,,,,,,,,,,,,0,,,,,,,,,,,,,,,,,,,,,,,,386.404,387.939,0,1,1.005,,387.939,388.94,0,2,2,2,1,0,coné,REAL,FAKE,,,,,,,,,,,,,,,,,,,,,,,,,,,,,,,,
,,,,,,,,,5ced8f96a726ed0015d31452,Mexican,13 or older,"no, only English or Spanish",yes,2025-07-24_09h04.03.542,empathy_intonation_perc_control,2024.2.4,Win32,59.95203837,5ced8f96a726ed0015d31452,68817205a84113384fffdfe3,68822d8bde704a4994d7cbf9,,,,,,,,,,,,,0,,,,,,,,,,,,,,,,,,,,,,,,388.94,391.308,1,0,1.841,,391.308,392.309,0,3,3,3,1,0,calpar,REAL,FAKE,,,,,,,,,,,,,,,,,,,,,,,,,,,,,,,,
,,,,,,,,,5ced8f96a726ed0015d31452,Mexican,13 or older,"no, only English or Spanish",yes,2025-07-24_09h04.03.542,empathy_intonation_perc_control,2024.2.4,Win32,59.95203837,5ced8f96a726ed0015d31452,68817205a84113384fffdfe3,68822d8bde704a4994d7cbf9,,,,,,,,,,,,,0,,,,,,,,,,,,,,,,,,,,,,,,392.31,393.66,0,1,0.83,,393.661,394.662,0,4,4,4,1,0,joten,REAL,FAKE,,,,,,,,,,,,,,,,,,,,,,,,,,,,,,,,
,,,,,,,,,5ced8f96a726ed0015d31452,Mexican,13 or older,"no, only English or Spanish",yes,2025-07-24_09h04.03.542,empathy_intonation_perc_control,2024.2.4,Win32,59.95203837,5ced8f96a726ed0015d31452,68817205a84113384fffdfe3,68822d8bde704a4994d7cbf9,,,,,,,,,,,,,1,,,,,,,,,,,,,,,,,,,,,,,,394.663,396.447,0,0,1.272,,396.447,397.448,0,5,5,5,1,0,sacapuntas,REAL,FAKE,,,,,,,,,,,,,,,,,,,,,,,,,,,,,,,,
,,,,,,,,,5ced8f96a726ed0015d31452,Mexican,13 or older,"no, only English or Spanish",yes,2025-07-24_09h04.03.542,empathy_intonation_perc_control,2024.2.4,Win32,59.95203837,5ced8f96a726ed0015d31452,68817205a84113384fffdfe3,68822d8bde704a4994d7cbf9,,,,,,,,,,,,,0,,,,,,,,,,,,,,,,,,,,,,,,397.449,399.083,0,1,1.116,,399.083,400.084,0,6,6,6,1,0,priba,REAL,FAKE,,,,,,,,,,,,,,,,,,,,,,,,,,,,,,,,
,,,,,,,,,5ced8f96a726ed0015d31452,Mexican,13 or older,"no, only English or Spanish",yes,2025-07-24_09h04.03.542,empathy_intonation_perc_control,2024.2.4,Win32,59.95203837,5ced8f96a726ed0015d31452,68817205a84113384fffdfe3,68822d8bde704a4994d7cbf9,,,,,,,,,,,,,0,,,,,,,,,,,,,,,,,,,,,,,,400.085,402.253,0,1,1.641,,402.253,403.254,0,7,7,7,1,0,pelasula,REAL,FAKE,,,,,,,,,,,,,,,,,,,,,,,,,,,,,,,,
,,,,,,,,,5ced8f96a726ed0015d31452,Mexican,13 or older,"no, only English or Spanish",yes,2025-07-24_09h04.03.542,empathy_intonation_perc_control,2024.2.4,Win32,59.95203837,5ced8f96a726ed0015d31452,68817205a84113384fffdfe3,68822d8bde704a4994d7cbf9,,,,,,,,,,,,,1,,,,,,,,,,,,,,,,,,,,,,,,403.254,404.454,1,1,0.685,,404.454,405.456,0,8,8,8,1,0,bien,REAL,FAKE,,,,,,,,,,,,,,,,,,,,,,,,,,,,,,,,
,,,,,,,,,5ced8f96a726ed0015d31452,Mexican,13 or older,"no, only English or Spanish",yes,2025-07-24_09h04.03.542,empathy_intonation_perc_control,2024.2.4,Win32,59.95203837,5ced8f96a726ed0015d31452,68817205a84113384fffdfe3,68822d8bde704a4994d7cbf9,,,,,,,,,,,,,1,,,,,,,,,,,,,,,,,,,,,,,,405.457,407.324,1,1,1.35,,407.325,408.325,0,9,9,9,1,0,casa,REAL,FAKE,,,,,,,,,,,,,,,,,,,,,,,,,,,,,,,,
,,,,,,,,,5ced8f96a726ed0015d31452,Mexican,13 or older,"no, only English or Spanish",yes,2025-07-24_09h04.03.542,empathy_intonation_perc_control,2024.2.4,Win32,59.95203837,5ced8f96a726ed0015d31452,68817205a84113384fffdfe3,68822d8bde704a4994d7cbf9,,,,,,,,,,,,,0,,,,,,,,,,,,,,,,,,,,,,,,408.326,410.01,1,0,1.163,,410.011,411.012,0,10,10,10,1,0,lejo,REAL,FAKE,,,,,,,,,,,,,,,,,,,,,,,,,,,,,,,,
,,,,,,,,,5ced8f96a726ed0015d31452,Mexican,13 or older,"no, only English or Spanish",yes,2025-07-24_09h04.03.542,empathy_intonation_perc_control,2024.2.4,Win32,59.95203837,5ced8f96a726ed0015d31452,68817205a84113384fffdfe3,68822d8bde704a4994d7cbf9,,,,,,,,,,,,,0,,,,,,,,,,,,,,,,,,,,,,,,411.012,412.963,0,1,1.416,,412.965,413.964,0,11,11,11,1,0,pretantas,REAL,FAKE,,,,,,,,,,,,,,,,,,,,,,,,,,,,,,,,
,,,,,,,,,5ced8f96a726ed0015d31452,Mexican,13 or older,"no, only English or Spanish",yes,2025-07-24_09h04.03.542,empathy_intonation_perc_control,2024.2.4,Win32,59.95203837,5ced8f96a726ed0015d31452,68817205a84113384fffdfe3,68822d8bde704a4994d7cbf9,,,,,,,,,,,,,,,,,,,,,,,,,,,,,,,,,,,,,,,,,,,,,,,,,,,,,,413.964,415.182,,,,,,,,,,,,,,,,,,,,,,,,,,,,,,
,,,,,,,,,5ced8f96a726ed0015d31452,Mexican,13 or older,"no, only English or Spanish",yes,2025-07-24_09h04.03.542,empathy_intonation_perc_control,2024.2.4,Win32,59.95203837,5ced8f96a726ed0015d31452,68817205a84113384fffdfe3,68822d8bde704a4994d7cbf9,,,,,,,,,,,,,1,,,,,,,,,,,,,,,,,,,,,,,,,,,,,,,,,,,,,55,nevar,,,,,415.192,416.65,1,1,0.941,,0,0,0,54,1,REAL,FAKE,,,,,,,,,,,,,,,,,
,,,,,,,,,5ced8f96a726ed0015d31452,Mexican,13 or older,"no, only English or Spanish",yes,2025-07-24_09h04.03.542,empathy_intonation_perc_control,2024.2.4,Win32,59.95203837,5ced8f96a726ed0015d31452,68817205a84113384fffdfe3,68822d8bde704a4994d7cbf9,,,,,,,,,,,,,1,,,,,,,,,,,,,,,,,,,,,,,,,,,,,,,,,,,,,15,regar,,,,,416.651,418.885,1,1,1.709,,0,1,1,14,1,REAL,FAKE,,,,,,,,,,,,,,,,,
,,,,,,,,,5ced8f96a726ed0015d31452,Mexican,13 or older,"no, only English or Spanish",yes,2025-07-24_09h04.03.542,empathy_intonation_perc_control,2024.2.4,Win32,59.95203837,5ced8f96a726ed0015d31452,68817205a84113384fffdfe3,68822d8bde704a4994d7cbf9,,,,,,,,,,,,,1,,,,,,,,,,,,,,,,,,,,,,,,,,,,,,,,,,,,,85,laúd,,,,,418.886,420.32,0,0,0.922,,0,2,2,84,1,REAL,FAKE,,,,,,,,,,,,,,,,,
,,,,,,,,,5ced8f96a726ed0015d31452,Mexican,13 or older,"no, only English or Spanish",yes,2025-07-24_09h04.03.542,empathy_intonation_perc_control,2024.2.4,Win32,59.95203837,5ced8f96a726ed0015d31452,68817205a84113384fffdfe3,68822d8bde704a4994d7cbf9,,,,,,,,,,,,,0,,,,,,,,,,,,,,,,,,,,,,,,,,,,,,,,,,,,,58,plaudir,,,,,420.321,421.956,0,1,1.121,,0,3,3,57,1,REAL,FAKE,,,,,,,,,,,,,,,,,
,,,,,,,,,5ced8f96a726ed0015d31452,Mexican,13 or older,"no, only English or Spanish",yes,2025-07-24_09h04.03.542,empathy_intonation_perc_control,2024.2.4,Win32,59.95203837,5ced8f96a726ed0015d31452,68817205a84113384fffdfe3,68822d8bde704a4994d7cbf9,,,,,,,,,,,,,0,,,,,,,,,,,,,,,,,,,,,,,,,,,,,,,,,,,,,74,cintro,,,,,421.957,423.957,0,1,1.483,,0,4,4,73,1,REAL,FAKE,,,,,,,,,,,,,,,,,
,,,,,,,,,5ced8f96a726ed0015d31452,Mexican,13 or older,"no, only English or Spanish",yes,2025-07-24_09h04.03.542,empathy_intonation_perc_control,2024.2.4,Win32,59.95203837,5ced8f96a726ed0015d31452,68817205a84113384fffdfe3,68822d8bde704a4994d7cbf9,,,,,,,,,,,,,1,,,,,,,,,,,,,,,,,,,,,,,,,,,,,,,,,,,,,44,cuchara,,,,,423.958,425.609,1,1,1.133,,0,5,5,43,1,REAL,FAKE,,,,,,,,,,,,,,,,,
,,,,,,,,,5ced8f96a726ed0015d31452,Mexican,13 or older,"no, only English or Spanish",yes,2025-07-24_09h04.03.542,empathy_intonation_perc_control,2024.2.4,Win32,59.95203837,5ced8f96a726ed0015d31452,68817205a84113384fffdfe3,68822d8bde704a4994d7cbf9,,,,,,,,,,,,,0,,,,,,,,,,,,,,,,,,,,,,,,,,,,,,,,,,,,,27,acutación,,,,,425.61,428.196,1,0,2.074,,0,6,6,26,1,REAL,FAKE,,,,,,,,,,,,,,,,,
,,,,,,,,,5ced8f96a726ed0015d31452,Mexican,13 or older,"no, only English or Spanish",yes,2025-07-24_09h04.03.542,empathy_intonation_perc_control,2024.2.4,Win32,59.95203837,5ced8f96a726ed0015d31452,68817205a84113384fffdfe3,68822d8bde704a4994d7cbf9,,,,,,,,,,,,,1,,,,,,,,,,,,,,,,,,,,,,,,,,,,,,,,,,,,,52,camisa,,,,,428.196,429.714,1,1,0.994,,0,7,7,51,1,REAL,FAKE,,,,,,,,,,,,,,,,,
,,,,,,,,,5ced8f96a726ed0015d31452,Mexican,13 or older,"no, only English or Spanish",yes,2025-07-24_09h04.03.542,empathy_intonation_perc_control,2024.2.4,Win32,59.95203837,5ced8f96a726ed0015d31452,68817205a84113384fffdfe3,68822d8bde704a4994d7cbf9,,,,,,,,,,,,,0,,,,,,,,,,,,,,,,,,,,,,,,,,,,,,,,,,,,,33,pauca,,,,,429.714,431.198,0,1,0.954,,0,8,8,32,1,REAL,FAKE,,,,,,,,,,,,,,,,,
,,,,,,,,,5ced8f96a726ed0015d31452,Mexican,13 or older,"no, only English or Spanish",yes,2025-07-24_09h04.03.542,empathy_intonation_perc_control,2024.2.4,Win32,59.95203837,5ced8f96a726ed0015d31452,68817205a84113384fffdfe3,68822d8bde704a4994d7cbf9,,,,,,,,,,,,,1,,,,,,,,,,,,,,,,,,,,,,,,,,,,,,,,,,,,,80,hormiga,,,,,431.199,433.184,0,0,1.467,,0,9,9,79,1,REAL,FAKE,,,,,,,,,,,,,,,,,
,,,,,,,,,5ced8f96a726ed0015d31452,Mexican,13 or older,"no, only English or Spanish",yes,2025-07-24_09h04.03.542,empathy_intonation_perc_control,2024.2.4,Win32,59.95203837,5ced8f96a726ed0015d31452,68817205a84113384fffdfe3,68822d8bde704a4994d7cbf9,,,,,,,,,,,,,1,,,,,,,,,,,,,,,,,,,,,,,,,,,,,,,,,,,,,56,musgo,,,,,433.184,434.601,0,0,0.889,,0,10,10,55,1,REAL,FAKE,,,,,,,,,,,,,,,,,
,,,,,,,,,5ced8f96a726ed0015d31452,Mexican,13 or older,"no, only English or Spanish",yes,2025-07-24_09h04.03.542,empathy_intonation_perc_control,2024.2.4,Win32,59.95203837,5ced8f96a726ed0015d31452,68817205a84113384fffdfe3,68822d8bde704a4994d7cbf9,,,,,,,,,,,,,1,,,,,,,,,,,,,,,,,,,,,,,,,,,,,,,,,,,,,90,clavel,,,,,434.602,436.387,1,1,1.251,,0,11,11,89,1,REAL,FAKE,,,,,,,,,,,,,,,,,
,,,,,,,,,5ced8f96a726ed0015d31452,Mexican,13 or older,"no, only English or Spanish",yes,2025-07-24_09h04.03.542,empathy_intonation_perc_control,2024.2.4,Win32,59.95203837,5ced8f96a726ed0015d31452,68817205a84113384fffdfe3,68822d8bde704a4994d7cbf9,,,,,,,,,,,,,0,,,,,,,,,,,,,,,,,,,,,,,,,,,,,,,,,,,,,42,cadallo,,,,,436.388,437.805,1,0,0.892,,0,12,12,41,1,REAL,FAKE,,,,,,,,,,,,,,,,,
,,,,,,,,,5ced8f96a726ed0015d31452,Mexican,13 or older,"no, only English or Spanish",yes,2025-07-24_09h04.03.542,empathy_intonation_perc_control,2024.2.4,Win32,59.95203837,5ced8f96a726ed0015d31452,68817205a84113384fffdfe3,68822d8bde704a4994d7cbf9,,,,,,,,,,,,,1,,,,,,,,,,,,,,,,,,,,,,,,,,,,,,,,,,,,,12,asesinato,,,,,437.805,441.092,1,1,2.775,,0,13,13,11,1,REAL,FAKE,,,,,,,,,,,,,,,,,
,,,,,,,,,5ced8f96a726ed0015d31452,Mexican,13 or older,"no, only English or Spanish",yes,2025-07-24_09h04.03.542,empathy_intonation_perc_control,2024.2.4,Win32,59.95203837,5ced8f96a726ed0015d31452,68817205a84113384fffdfe3,68822d8bde704a4994d7cbf9,,,,,,,,,,,,,1,,,,,,,,,,,,,,,,,,,,,,,,,,,,,,,,,,,,,2,pellizcar,,,,,441.092,442.56,0,0,0.941,,0,14,14,1,1,REAL,FAKE,,,,,,,,,,,,,,,,,
,,,,,,,,,5ced8f96a726ed0015d31452,Mexican,13 or older,"no, only English or Spanish",yes,2025-07-24_09h04.03.542,empathy_intonation_perc_control,2024.2.4,Win32,59.95203837,5ced8f96a726ed0015d31452,68817205a84113384fffdfe3,68822d8bde704a4994d7cbf9,,,,,,,,,,,,,1,,,,,,,,,,,,,,,,,,,,,,,,,,,,,,,,,,,,,68,alegre,,,,,442.561,444.045,1,1,0.961,,0,15,15,67,1,REAL,FAKE,,,,,,,,,,,,,,,,,
,,,,,,,,,5ced8f96a726ed0015d31452,Mexican,13 or older,"no, only English or Spanish",yes,2025-07-24_09h04.03.542,empathy_intonation_perc_control,2024.2.4,Win32,59.95203837,5ced8f96a726ed0015d31452,68817205a84113384fffdfe3,68822d8bde704a4994d7cbf9,,,,,,,,,,,,,0,,,,,,,,,,,,,,,,,,,,,,,,,,,,,,,,,,,,,50,flamida,,,,,444.045,445.563,0,1,0.989,,0,16,16,49,1,REAL,FAKE,,,,,,,,,,,,,,,,,
,,,,,,,,,5ced8f96a726ed0015d31452,Mexican,13 or older,"no, only English or Spanish",yes,2025-07-24_09h04.03.542,empathy_intonation_perc_control,2024.2.4,Win32,59.95203837,5ced8f96a726ed0015d31452,68817205a84113384fffdfe3,68822d8bde704a4994d7cbf9,,,,,,,,,,,,,0,,,,,,,,,,,,,,,,,,,,,,,,,,,,,,,,,,,,,4,batillón,,,,,445.565,447.548,1,0,1.448,,0,17,17,3,1,REAL,FAKE,,,,,,,,,,,,,,,,,
,,,,,,,,,5ced8f96a726ed0015d31452,Mexican,13 or older,"no, only English or Spanish",yes,2025-07-24_09h04.03.542,empathy_intonation_perc_control,2024.2.4,Win32,59.95203837,5ced8f96a726ed0015d31452,68817205a84113384fffdfe3,68822d8bde704a4994d7cbf9,,,,,,,,,,,,,1,,,,,,,,,,,,,,,,,,,,,,,,,,,,,,,,,,,,,46,martillo,,,,,447.548,449.216,0,0,1.135,,0,18,18,45,1,REAL,FAKE,,,,,,,,,,,,,,,,,
,,,,,,,,,5ced8f96a726ed0015d31452,Mexican,13 or older,"no, only English or Spanish",yes,2025-07-24_09h04.03.542,empathy_intonation_perc_control,2024.2.4,Win32,59.95203837,5ced8f96a726ed0015d31452,68817205a84113384fffdfe3,68822d8bde704a4994d7cbf9,,,,,,,,,,,,,1,,,,,,,,,,,,,,,,,,,,,,,,,,,,,,,,,,,,,89,prisa,,,,,449.217,450.518,0,0,0.786,,0,19,19,88,1,REAL,FAKE,,,,,,,,,,,,,,,,,
,,,,,,,,,5ced8f96a726ed0015d31452,Mexican,13 or older,"no, only English or Spanish",yes,2025-07-24_09h04.03.542,empathy_intonation_perc_control,2024.2.4,Win32,59.95203837,5ced8f96a726ed0015d31452,68817205a84113384fffdfe3,68822d8bde704a4994d7cbf9,,,,,,,,,,,,,0,,,,,,,,,,,,,,,,,,,,,,,,,,,,,,,,,,,,,30,alardio,,,,,450.519,451.986,0,1,0.941,,0,20,20,29,1,REAL,FAKE,,,,,,,,,,,,,,,,,
,,,,,,,,,5ced8f96a726ed0015d31452,Mexican,13 or older,"no, only English or Spanish",yes,2025-07-24_09h04.03.542,empathy_intonation_perc_control,2024.2.4,Win32,59.95203837,5ced8f96a726ed0015d31452,68817205a84113384fffdfe3,68822d8bde704a4994d7cbf9,,,,,,,,,,,,,1,,,,,,,,,,,,,,,,,,,,,,,,,,,,,,,,,,,,,36,loro,,,,,451.987,453.537,0,0,1.01,,0,21,21,35,1,REAL,FAKE,,,,,,,,,,,,,,,,,
,,,,,,,,,5ced8f96a726ed0015d31452,Mexican,13 or older,"no, only English or Spanish",yes,2025-07-24_09h04.03.542,empathy_intonation_perc_control,2024.2.4,Win32,59.95203837,5ced8f96a726ed0015d31452,68817205a84113384fffdfe3,68822d8bde704a4994d7cbf9,,,,,,,,,,,,,0,,,,,,,,,,,,,,,,,,,,,,,,,,,,,,,,,,,,,63,esposante,,,,,453.538,455.99,1,0,1.92,,0,22,22,62,1,REAL,FAKE,,,,,,,,,,,,,,,,,
,,,,,,,,,5ced8f96a726ed0015d31452,Mexican,13 or older,"no, only English or Spanish",yes,2025-07-24_09h04.03.542,empathy_intonation_perc_control,2024.2.4,Win32,59.95203837,5ced8f96a726ed0015d31452,68817205a84113384fffdfe3,68822d8bde704a4994d7cbf9,,,,,,,,,,,,,1,,,,,,,,,,,,,,,,,,,,,,,,,,,,,,,,,,,,,78,frondoso,,,,,455.99,457.658,0,0,1.144,,0,23,23,77,1,REAL,FAKE,,,,,,,,,,,,,,,,,
,,,,,,,,,5ced8f96a726ed0015d31452,Mexican,13 or older,"no, only English or Spanish",yes,2025-07-24_09h04.03.542,empathy_intonation_perc_control,2024.2.4,Win32,59.95203837,5ced8f96a726ed0015d31452,68817205a84113384fffdfe3,68822d8bde704a4994d7cbf9,,,,,,,,,,,,,1,,,,,,,,,,,,,,,,,,,,,,,,,,,,,,,,,,,,,28,merodear,,,,,457.659,458.993,0,0,0.817,,0,24,24,27,1,REAL,FAKE,,,,,,,,,,,,,,,,,
,,,,,,,,,5ced8f96a726ed0015d31452,Mexican,13 or older,"no, only English or Spanish",yes,2025-07-24_09h04.03.542,empathy_intonation_perc_control,2024.2.4,Win32,59.95203837,5ced8f96a726ed0015d31452,68817205a84113384fffdfe3,68822d8bde704a4994d7cbf9,,,,,,,,,,,,,1,,,,,,,,,,,,,,,,,,,,,,,,,,,,,,,,,,,,,43,canela,,,,,458.994,460.427,0,0,0.913,,0,25,25,42,1,REAL,FAKE,,,,,,,,,,,,,,,,,
,,,,,,,,,5ced8f96a726ed0015d31452,Mexican,13 or older,"no, only English or Spanish",yes,2025-07-24_09h04.03.542,empathy_intonation_perc_control,2024.2.4,Win32,59.95203837,5ced8f96a726ed0015d31452,68817205a84113384fffdfe3,68822d8bde704a4994d7cbf9,,,,,,,,,,,,,0,,,,,,,,,,,,,,,,,,,,,,,,,,,,,,,,,,,,,53,vegada,,,,,460.428,461.813,0,1,0.862,,0,26,26,52,1,REAL,FAKE,,,,,,,,,,,,,,,,,
,,,,,,,,,5ced8f96a726ed0015d31452,Mexican,13 or older,"no, only English or Spanish",yes,2025-07-24_09h04.03.542,empathy_intonation_perc_control,2024.2.4,Win32,59.95203837,5ced8f96a726ed0015d31452,68817205a84113384fffdfe3,68822d8bde704a4994d7cbf9,,,,,,,,,,,,,1,,,,,,,,,,,,,,,,,,,,,,,,,,,,,,,,,,,,,48,ladrón,,,,,461.813,463.298,0,0,0.964,,0,27,27,47,1,REAL,FAKE,,,,,,,,,,,,,,,,,
,,,,,,,,,5ced8f96a726ed0015d31452,Mexican,13 or older,"no, only English or Spanish",yes,2025-07-24_09h04.03.542,empathy_intonation_perc_control,2024.2.4,Win32,59.95203837,5ced8f96a726ed0015d31452,68817205a84113384fffdfe3,68822d8bde704a4994d7cbf9,,,,,,,,,,,,,0,,,,,,,,,,,,,,,,,,,,,,,,,,,,,,,,,,,,,10,antar,,,,,463.298,464.665,1,0,0.832,,0,28,28,9,1,REAL,FAKE,,,,,,,,,,,,,,,,,
,,,,,,,,,5ced8f96a726ed0015d31452,Mexican,13 or older,"no, only English or Spanish",yes,2025-07-24_09h04.03.542,empathy_intonation_perc_control,2024.2.4,Win32,59.95203837,5ced8f96a726ed0015d31452,68817205a84113384fffdfe3,68822d8bde704a4994d7cbf9,,,,,,,,,,,,,1,,,,,,,,,,,,,,,,,,,,,,,,,,,,,,,,,,,,,60,matar,,,,,464.666,466.584,1,1,1.393,,0,29,29,59,1,REAL,FAKE,,,,,,,,,,,,,,,,,
,,,,,,,,,5ced8f96a726ed0015d31452,Mexican,13 or older,"no, only English or Spanish",yes,2025-07-24_09h04.03.542,empathy_intonation_perc_control,2024.2.4,Win32,59.95203837,5ced8f96a726ed0015d31452,68817205a84113384fffdfe3,68822d8bde704a4994d7cbf9,,,,,,,,,,,,,1,,,,,,,,,,,,,,,,,,,,,,,,,,,,,,,,,,,,,41,rebuscar,,,,,466.585,468.669,0,0,1.566,,0,30,30,40,1,REAL,FAKE,,,,,,,,,,,,,,,,,
,,,,,,,,,5ced8f96a726ed0015d31452,Mexican,13 or older,"no, only English or Spanish",yes,2025-07-24_09h04.03.542,empathy_intonation_perc_control,2024.2.4,Win32,59.95203837,5ced8f96a726ed0015d31452,68817205a84113384fffdfe3,68822d8bde704a4994d7cbf9,,,,,,,,,,,,,1,,,,,,,,,,,,,,,,,,,,,,,,,,,,,,,,,,,,,24,látigo,,,,,468.67,470.054,0,0,0.863,,0,31,31,23,1,REAL,FAKE,,,,,,,,,,,,,,,,,
,,,,,,,,,5ced8f96a726ed0015d31452,Mexican,13 or older,"no, only English or Spanish",yes,2025-07-24_09h04.03.542,empathy_intonation_perc_control,2024.2.4,Win32,59.95203837,5ced8f96a726ed0015d31452,68817205a84113384fffdfe3,68822d8bde704a4994d7cbf9,,,,,,,,,,,,,0,,,,,,,,,,,,,,,,,,,,,,,,,,,,,,,,,,,,,29,decar,,,,,470.055,471.372,1,0,0.799,,0,32,32,28,1,REAL,FAKE,,,,,,,,,,,,,,,,,
,,,,,,,,,5ced8f96a726ed0015d31452,Mexican,13 or older,"no, only English or Spanish",yes,2025-07-24_09h04.03.542,empathy_intonation_perc_control,2024.2.4,Win32,59.95203837,5ced8f96a726ed0015d31452,68817205a84113384fffdfe3,68822d8bde704a4994d7cbf9,,,,,,,,,,,,,1,,,,,,,,,,,,,,,,,,,,,,,,,,,,,,,,,,,,,6,tergiversar,,,,,471.373,473.157,0,0,1.248,,0,33,33,5,1,REAL,FAKE,,,,,,,,,,,,,,,,,
,,,,,,,,,5ced8f96a726ed0015d31452,Mexican,13 or older,"no, only English or Spanish",yes,2025-07-24_09h04.03.542,empathy_intonation_perc_control,2024.2.4,Win32,59.95203837,5ced8f96a726ed0015d31452,68817205a84113384fffdfe3,68822d8bde704a4994d7cbf9,,,,,,,,,,,,,1,,,,,,,,,,,,,,,,,,,,,,,,,,,,,,,,,,,,,65,bizcocho,,,,,473.158,474.859,0,0,1.172,,0,34,34,64,1,REAL,FAKE,,,,,,,,,,,,,,,,,
,,,,,,,,,5ced8f96a726ed0015d31452,Mexican,13 or older,"no, only English or Spanish",yes,2025-07-24_09h04.03.542,empathy_intonation_perc_control,2024.2.4,Win32,59.95203837,5ced8f96a726ed0015d31452,68817205a84113384fffdfe3,68822d8bde704a4994d7cbf9,,,,,,,,,,,,,1,,,,,,,,,,,,,,,,,,,,,,,,,,,,,,,,,,,,,59,besar,,,,,474.86,476.177,1,1,0.797,,0,35,35,58,1,REAL,FAKE,,,,,,,,,,,,,,,,,
,,,,,,,,,5ced8f96a726ed0015d31452,Mexican,13 or older,"no, only English or Spanish",yes,2025-07-24_09h04.03.542,empathy_intonation_perc_control,2024.2.4,Win32,59.95203837,5ced8f96a726ed0015d31452,68817205a84113384fffdfe3,68822d8bde704a4994d7cbf9,,,,,,,,,,,,,1,,,,,,,,,,,,,,,,,,,,,,,,,,,,,,,,,,,,,81,pozo,,,,,476.177,477.462,0,0,0.764,,0,36,36,80,1,REAL,FAKE,,,,,,,,,,,,,,,,,
,,,,,,,,,5ced8f96a726ed0015d31452,Mexican,13 or older,"no, only English or Spanish",yes,2025-07-24_09h04.03.542,empathy_intonation_perc_control,2024.2.4,Win32,59.95203837,5ced8f96a726ed0015d31452,68817205a84113384fffdfe3,68822d8bde704a4994d7cbf9,,,,,,,,,,,,,1,,,,,,,,,,,,,,,,,,,,,,,,,,,,,,,,,,,,,71,polvoriento,,,,,477.462,478.896,0,0,0.912,,0,37,37,70,1,REAL,FAKE,,,,,,,,,,,,,,,,,
,,,,,,,,,5ced8f96a726ed0015d31452,Mexican,13 or older,"no, only English or Spanish",yes,2025-07-24_09h04.03.542,empathy_intonation_perc_control,2024.2.4,Win32,59.95203837,5ced8f96a726ed0015d31452,68817205a84113384fffdfe3,68822d8bde704a4994d7cbf9,,,,,,,,,,,,,1,,,,,,,,,,,,,,,,,,,,,,,,,,,,,,,,,,,,,26,secuestro,,,,,478.899,481.315,1,1,1.889,,0,38,38,25,1,REAL,FAKE,,,,,,,,,,,,,,,,,
,,,,,,,,,5ced8f96a726ed0015d31452,Mexican,13 or older,"no, only English or Spanish",yes,2025-07-24_09h04.03.542,empathy_intonation_perc_control,2024.2.4,Win32,59.95203837,5ced8f96a726ed0015d31452,68817205a84113384fffdfe3,68822d8bde704a4994d7cbf9,,,,,,,,,,,,,1,,,,,,,,,,,,,,,,,,,,,,,,,,,,,,,,,,,,,20,ávido,,,,,481.316,482.7,1,1,0.871,,0,39,39,19,1,REAL,FAKE,,,,,,,,,,,,,,,,,
,,,,,,,,,5ced8f96a726ed0015d31452,Mexican,13 or older,"no, only English or Spanish",yes,2025-07-24_09h04.03.542,empathy_intonation_perc_control,2024.2.4,Win32,59.95203837,5ced8f96a726ed0015d31452,68817205a84113384fffdfe3,68822d8bde704a4994d7cbf9,,,,,,,,,,,,,0,,,,,,,,,,,,,,,,,,,,,,,,,,,,,,,,,,,,,72,pemición,,,,,482.701,484.385,0,1,1.138,,0,40,40,71,1,REAL,FAKE,,,,,,,,,,,,,,,,,
,,,,,,,,,5ced8f96a726ed0015d31452,Mexican,13 or older,"no, only English or Spanish",yes,2025-07-24_09h04.03.542,empathy_intonation_perc_control,2024.2.4,Win32,59.95203837,5ced8f96a726ed0015d31452,68817205a84113384fffdfe3,68822d8bde704a4994d7cbf9,,,,,,,,,,,,,1,,,,,,,,,,,,,,,,,,,,,,,,,,,,,,,,,,,,,3,pulmones,,,,,484.386,485.92,0,0,1.011,,0,41,41,2,1,REAL,FAKE,,,,,,,,,,,,,,,,,
,,,,,,,,,5ced8f96a726ed0015d31452,Mexican,13 or older,"no, only English or Spanish",yes,2025-07-24_09h04.03.542,empathy_intonation_perc_control,2024.2.4,Win32,59.95203837,5ced8f96a726ed0015d31452,68817205a84113384fffdfe3,68822d8bde704a4994d7cbf9,,,,,,,,,,,,,0,,,,,,,,,,,,,,,,,,,,,,,,,,,,,,,,,,,,,79,tropaje,,,,,485.92,487.238,0,1,0.803,,0,42,42,78,1,REAL,FAKE,,,,,,,,,,,,,,,,,
,,,,,,,,,5ced8f96a726ed0015d31452,Mexican,13 or older,"no, only English or Spanish",yes,2025-07-24_09h04.03.542,empathy_intonation_perc_control,2024.2.4,Win32,59.95203837,5ced8f96a726ed0015d31452,68817205a84113384fffdfe3,68822d8bde704a4994d7cbf9,,,,,,,,,,,,,1,,,,,,,,,,,,,,,,,,,,,,,,,,,,,,,,,,,,,11,cenefa,,,,,487.238,488.606,0,0,0.853,,0,43,43,10,1,REAL,FAKE,,,,,,,,,,,,,,,,,
,,,,,,,,,5ced8f96a726ed0015d31452,Mexican,13 or older,"no, only English or Spanish",yes,2025-07-24_09h04.03.542,empathy_intonation_perc_control,2024.2.4,Win32,59.95203837,5ced8f96a726ed0015d31452,68817205a84113384fffdfe3,68822d8bde704a4994d7cbf9,,,,,,,,,,,,,0,,,,,,,,,,,,,,,,,,,,,,,,,,,,,,,,,,,,,16,abracer,,,,,488.607,489.958,1,0,0.836,,0,44,44,15,1,REAL,FAKE,,,,,,,,,,,,,,,,,
,,,,,,,,,5ced8f96a726ed0015d31452,Mexican,13 or older,"no, only English or Spanish",yes,2025-07-24_09h04.03.542,empathy_intonation_perc_control,2024.2.4,Win32,59.95203837,5ced8f96a726ed0015d31452,68817205a84113384fffdfe3,68822d8bde704a4994d7cbf9,,,,,,,,,,,,,1,,,,,,,,,,,,,,,,,,,,,,,,,,,,,,,,,,,,,31,pandilla,,,,,489.958,491.91,1,1,1.426,,0,45,45,30,1,REAL,FAKE,,,,,,,,,,,,,,,,,
,,,,,,,,,5ced8f96a726ed0015d31452,Mexican,13 or older,"no, only English or Spanish",yes,2025-07-24_09h04.03.542,empathy_intonation_perc_control,2024.2.4,Win32,59.95203837,5ced8f96a726ed0015d31452,68817205a84113384fffdfe3,68822d8bde704a4994d7cbf9,,,,,,,,,,,,,1,,,,,,,,,,,,,,,,,,,,,,,,,,,,,,,,,,,,,69,engatusar,,,,,491.911,494.312,0,0,1.884,,0,46,46,68,1,REAL,FAKE,,,,,,,,,,,,,,,,,
,,,,,,,,,5ced8f96a726ed0015d31452,Mexican,13 or older,"no, only English or Spanish",yes,2025-07-24_09h04.03.542,empathy_intonation_perc_control,2024.2.4,Win32,59.95203837,5ced8f96a726ed0015d31452,68817205a84113384fffdfe3,68822d8bde704a4994d7cbf9,,,,,,,,,,,,,1,,,,,,,,,,,,,,,,,,,,,,,,,,,,,,,,,,,,,83,guante,,,,,494.312,495.864,0,0,1.033,,0,47,47,82,1,REAL,FAKE,,,,,,,,,,,,,,,,,
,,,,,,,,,5ced8f96a726ed0015d31452,Mexican,13 or older,"no, only English or Spanish",yes,2025-07-24_09h04.03.542,empathy_intonation_perc_control,2024.2.4,Win32,59.95203837,5ced8f96a726ed0015d31452,68817205a84113384fffdfe3,68822d8bde704a4994d7cbf9,,,,,,,,,,,,,1,,,,,,,,,,,,,,,,,,,,,,,,,,,,,,,,,,,,,39,torpe,,,,,495.865,497.898,1,1,1.513,,0,48,48,38,1,REAL,FAKE,,,,,,,,,,,,,,,,,
,,,,,,,,,5ced8f96a726ed0015d31452,Mexican,13 or older,"no, only English or Spanish",yes,2025-07-24_09h04.03.542,empathy_intonation_perc_control,2024.2.4,Win32,59.95203837,5ced8f96a726ed0015d31452,68817205a84113384fffdfe3,68822d8bde704a4994d7cbf9,,,,,,,,,,,,,0,,,,,,,,,,,,,,,,,,,,,,,,,,,,,,,,,,,,,18,arsa,,,,,497.899,500.535,0,1,2.122,,0,49,49,17,1,REAL,FAKE,,,,,,,,,,,,,,,,,
,,,,,,,,,5ced8f96a726ed0015d31452,Mexican,13 or older,"no, only English or Spanish",yes,2025-07-24_09h04.03.542,empathy_intonation_perc_control,2024.2.4,Win32,59.95203837,5ced8f96a726ed0015d31452,68817205a84113384fffdfe3,68822d8bde704a4994d7cbf9,,,,,,,,,,,,,0,,,,,,,,,,,,,,,,,,,,,,,,,,,,,,,,,,,,,92,click the 0 key.,,,,,500.536,502.837,0,1,1.784,,0,50,50,91,1,REAL,FAKE,,,,,,,,,,,,,,,,,
,,,,,,,,,5ced8f96a726ed0015d31452,Mexican,13 or older,"no, only English or Spanish",yes,2025-07-24_09h04.03.542,empathy_intonation_perc_control,2024.2.4,Win32,59.95203837,5ced8f96a726ed0015d31452,68817205a84113384fffdfe3,68822d8bde704a4994d7cbf9,,,,,,,,,,,,,1,,,,,,,,,,,,,,,,,,,,,,,,,,,,,,,,,,,,,45,jilguero,,,,,502.837,505.373,0,0,2.003,,0,51,51,44,1,REAL,FAKE,,,,,,,,,,,,,,,,,
,,,,,,,,,5ced8f96a726ed0015d31452,Mexican,13 or older,"no, only English or Spanish",yes,2025-07-24_09h04.03.542,empathy_intonation_perc_control,2024.2.4,Win32,59.95203837,5ced8f96a726ed0015d31452,68817205a84113384fffdfe3,68822d8bde704a4994d7cbf9,,,,,,,,,,,,,1,,,,,,,,,,,,,,,,,,,,,,,,,,,,,,,,,,,,,61,seda,,,,,505.374,507.158,0,0,1.271,,0,52,52,60,1,REAL,FAKE,,,,,,,,,,,,,,,,,
,,,,,,,,,5ced8f96a726ed0015d31452,Mexican,13 or older,"no, only English or Spanish",yes,2025-07-24_09h04.03.542,empathy_intonation_perc_control,2024.2.4,Win32,59.95203837,5ced8f96a726ed0015d31452,68817205a84113384fffdfe3,68822d8bde704a4994d7cbf9,,,,,,,,,,,,,0,,,,,,,,,,,,,,,,,,,,,,,,,,,,,,,,,,,,,8,cadeña,,,,,507.158,508.559,1,0,0.879,,0,53,53,7,1,REAL,FAKE,,,,,,,,,,,,,,,,,
,,,,,,,,,5ced8f96a726ed0015d31452,Mexican,13 or older,"no, only English or Spanish",yes,2025-07-24_09h04.03.542,empathy_intonation_perc_control,2024.2.4,Win32,59.95203837,5ced8f96a726ed0015d31452,68817205a84113384fffdfe3,68822d8bde704a4994d7cbf9,,,,,,,,,,,,,1,,,,,,,,,,,,,,,,,,,,,,,,,,,,,,,,,,,,,37,granuja,,,,,508.56,510.394,0,0,1.309,,0,54,54,36,1,REAL,FAKE,,,,,,,,,,,,,,,,,
,,,,,,,,,5ced8f96a726ed0015d31452,Mexican,13 or older,"no, only English or Spanish",yes,2025-07-24_09h04.03.542,empathy_intonation_perc_control,2024.2.4,Win32,59.95203837,5ced8f96a726ed0015d31452,68817205a84113384fffdfe3,68822d8bde704a4994d7cbf9,,,,,,,,,,,,,0,,,,,,,,,,,,,,,,,,,,,,,,,,,,,,,,,,,,,21,capillo,,,,,510.395,517.336,1,0,6.403,,0,55,55,20,1,REAL,FAKE,,,,,,,,,,,,,,,,,
,,,,,,,,,5ced8f96a726ed0015d31452,Mexican,13 or older,"no, only English or Spanish",yes,2025-07-24_09h04.03.542,empathy_intonation_perc_control,2024.2.4,Win32,59.95203837,5ced8f96a726ed0015d31452,68817205a84113384fffdfe3,68822d8bde704a4994d7cbf9,,,,,,,,,,,,,1,,,,,,,,,,,,,,,,,,,,,,,,,,,,,,,,,,,,,40,alfombra,,,,,517.338,518.82,0,0,0.956,,0,56,56,39,1,REAL,FAKE,,,,,,,,,,,,,,,,,
,,,,,,,,,5ced8f96a726ed0015d31452,Mexican,13 or older,"no, only English or Spanish",yes,2025-07-24_09h04.03.542,empathy_intonation_perc_control,2024.2.4,Win32,59.95203837,5ced8f96a726ed0015d31452,68817205a84113384fffdfe3,68822d8bde704a4994d7cbf9,,,,,,,,,,,,,1,,,,,,,,,,,,,,,,,,,,,,,,,,,,,,,,,,,,,7,pésimo,,,,,518.821,520.738,0,0,1.403,,0,57,57,6,1,REAL,FAKE,,,,,,,,,,,,,,,,,
,,,,,,,,,5ced8f96a726ed0015d31452,Mexican,13 or older,"no, only English or Spanish",yes,2025-07-24_09h04.03.542,empathy_intonation_perc_control,2024.2.4,Win32,59.95203837,5ced8f96a726ed0015d31452,68817205a84113384fffdfe3,68822d8bde704a4994d7cbf9,,,,,,,,,,,,,0,,,,,,,,,,,,,,,,,,,,,,,,,,,,,,,,,,,,,66,hacido,,,,,520.739,522.257,1,0,0.995,,0,58,58,65,1,REAL,FAKE,,,,,,,,,,,,,,,,,
,,,,,,,,,5ced8f96a726ed0015d31452,Mexican,13 or older,"no, only English or Spanish",yes,2025-07-24_09h04.03.542,empathy_intonation_perc_control,2024.2.4,Win32,59.95203837,5ced8f96a726ed0015d31452,68817205a84113384fffdfe3,68822d8bde704a4994d7cbf9,,,,,,,,,,,,,0,,,,,,,,,,,,,,,,,,,,,,,,,,,,,,,,,,,,,23,lampera,,,,,522.258,523.725,0,1,0.951,,0,59,59,22,1,REAL,FAKE,,,,,,,,,,,,,,,,,
,,,,,,,,,5ced8f96a726ed0015d31452,Mexican,13 or older,"no, only English or Spanish",yes,2025-07-24_09h04.03.542,empathy_intonation_perc_control,2024.2.4,Win32,59.95203837,5ced8f96a726ed0015d31452,68817205a84113384fffdfe3,68822d8bde704a4994d7cbf9,,,,,,,,,,,,,0,,,,,,,,,,,,,,,,,,,,,,,,,,,,,,,,,,,,,1,terzo,,,,,523.726,525.01,0,1,0.757,,0,60,60,0,1,REAL,FAKE,,,,,,,,,,,,,,,,,
,,,,,,,,,5ced8f96a726ed0015d31452,Mexican,13 or older,"no, only English or Spanish",yes,2025-07-24_09h04.03.542,empathy_intonation_perc_control,2024.2.4,Win32,59.95203837,5ced8f96a726ed0015d31452,68817205a84113384fffdfe3,68822d8bde704a4994d7cbf9,,,,,,,,,,,,,1,,,,,,,,,,,,,,,,,,,,,,,,,,,,,,,,,,,,,34,aviso,,,,,525.01,526.311,1,1,0.772,,0,61,61,33,1,REAL,FAKE,,,,,,,,,,,,,,,,,
,,,,,,,,,5ced8f96a726ed0015d31452,Mexican,13 or older,"no, only English or Spanish",yes,2025-07-24_09h04.03.542,empathy_intonation_perc_control,2024.2.4,Win32,59.95203837,5ced8f96a726ed0015d31452,68817205a84113384fffdfe3,68822d8bde704a4994d7cbf9,,,,,,,,,,,,,1,,,,,,,,,,,,,,,,,,,,,,,,,,,,,,,,,,,,,91,click the 1 key.,,,,,526.311,527.779,1,1,0.951,,0,62,62,90,1,REAL,FAKE,,,,,,,,,,,,,,,,,
,,,,,,,,,5ced8f96a726ed0015d31452,Mexican,13 or older,"no, only English or Spanish",yes,2025-07-24_09h04.03.542,empathy_intonation_perc_control,2024.2.4,Win32,59.95203837,5ced8f96a726ed0015d31452,68817205a84113384fffdfe3,68822d8bde704a4994d7cbf9,,,,,,,,,,,,,1,,,,,,,,,,,,,,,,,,,,,,,,,,,,,,,,,,,,,9,hacha,,,,,527.779,529.598,1,1,1.301,,0,63,63,8,1,REAL,FAKE,,,,,,,,,,,,,,,,,
,,,,,,,,,5ced8f96a726ed0015d31452,Mexican,13 or older,"no, only English or Spanish",yes,2025-07-24_09h04.03.542,empathy_intonation_perc_control,2024.2.4,Win32,59.95203837,5ced8f96a726ed0015d31452,68817205a84113384fffdfe3,68822d8bde704a4994d7cbf9,,,,,,,,,,,,,1,,,,,,,,,,,,,,,,,,,,,,,,,,,,,,,,,,,,,54,fomentar,,,,,529.598,531.649,1,1,1.508,,0,64,64,53,1,REAL,FAKE,,,,,,,,,,,,,,,,,
,,,,,,,,,5ced8f96a726ed0015d31452,Mexican,13 or older,"no, only English or Spanish",yes,2025-07-24_09h04.03.542,empathy_intonation_perc_control,2024.2.4,Win32,59.95203837,5ced8f96a726ed0015d31452,68817205a84113384fffdfe3,68822d8bde704a4994d7cbf9,,,,,,,,,,,,,0,,,,,,,,,,,,,,,,,,,,,,,,,,,,,,,,,,,,,82,empirador,,,,,531.649,533.384,1,0,1.214,,0,65,65,81,1,REAL,FAKE,,,,,,,,,,,,,,,,,
,,,,,,,,,5ced8f96a726ed0015d31452,Mexican,13 or older,"no, only English or Spanish",yes,2025-07-24_09h04.03.542,empathy_intonation_perc_control,2024.2.4,Win32,59.95203837,5ced8f96a726ed0015d31452,68817205a84113384fffdfe3,68822d8bde704a4994d7cbf9,,,,,,,,,,,,,1,,,,,,,,,,,,,,,,,,,,,,,,,,,,,,,,,,,,,57,tacaño,,,,,533.385,534.702,0,0,0.808,,0,66,66,56,1,REAL,FAKE,,,,,,,,,,,,,,,,,
,,,,,,,,,5ced8f96a726ed0015d31452,Mexican,13 or older,"no, only English or Spanish",yes,2025-07-24_09h04.03.542,empathy_intonation_perc_control,2024.2.4,Win32,59.95203837,5ced8f96a726ed0015d31452,68817205a84113384fffdfe3,68822d8bde704a4994d7cbf9,,,,,,,,,,,,,1,,,,,,,,,,,,,,,,,,,,,,,,,,,,,,,,,,,,,25,bisagra,,,,,534.703,536.087,0,0,0.868,,0,67,67,24,1,REAL,FAKE,,,,,,,,,,,,,,,,,
,,,,,,,,,5ced8f96a726ed0015d31452,Mexican,13 or older,"no, only English or Spanish",yes,2025-07-24_09h04.03.542,empathy_intonation_perc_control,2024.2.4,Win32,59.95203837,5ced8f96a726ed0015d31452,68817205a84113384fffdfe3,68822d8bde704a4994d7cbf9,,,,,,,,,,,,,1,,,,,,,,,,,,,,,,,,,,,,,,,,,,,,,,,,,,,76,atar,,,,,536.088,537.455,0,0,0.83,,0,68,68,75,1,REAL,FAKE,,,,,,,,,,,,,,,,,
,,,,,,,,,5ced8f96a726ed0015d31452,Mexican,13 or older,"no, only English or Spanish",yes,2025-07-24_09h04.03.542,empathy_intonation_perc_control,2024.2.4,Win32,59.95203837,5ced8f96a726ed0015d31452,68817205a84113384fffdfe3,68822d8bde704a4994d7cbf9,,,,,,,,,,,,,1,,,,,,,,,,,,,,,,,,,,,,,,,,,,,,,,,,,,,77,tiburón,,,,,537.456,539.758,0,0,1.778,,0,69,69,76,1,REAL,FAKE,,,,,,,,,,,,,,,,,
,,,,,,,,,5ced8f96a726ed0015d31452,Mexican,13 or older,"no, only English or Spanish",yes,2025-07-24_09h04.03.542,empathy_intonation_perc_control,2024.2.4,Win32,59.95203837,5ced8f96a726ed0015d31452,68817205a84113384fffdfe3,68822d8bde704a4994d7cbf9,,,,,,,,,,,,,1,,,,,,,,,,,,,,,,,,,,,,,,,,,,,,,,,,,,,88,acantilado,,,,,539.759,544.145,0,0,3.856,,0,70,70,87,1,REAL,FAKE,,,,,,,,,,,,,,,,,
,,,,,,,,,5ced8f96a726ed0015d31452,Mexican,13 or older,"no, only English or Spanish",yes,2025-07-24_09h04.03.542,empathy_intonation_perc_control,2024.2.4,Win32,59.95203837,5ced8f96a726ed0015d31452,68817205a84113384fffdfe3,68822d8bde704a4994d7cbf9,,,,,,,,,,,,,0,,,,,,,,,,,,,,,,,,,,,,,,,,,,,,,,,,,,,32,fatacidad,,,,,544.146,545.464,0,1,0.803,,0,71,71,31,1,REAL,FAKE,,,,,,,,,,,,,,,,,
,,,,,,,,,5ced8f96a726ed0015d31452,Mexican,13 or older,"no, only English or Spanish",yes,2025-07-24_09h04.03.542,empathy_intonation_perc_control,2024.2.4,Win32,59.95203837,5ced8f96a726ed0015d31452,68817205a84113384fffdfe3,68822d8bde704a4994d7cbf9,,,,,,,,,,,,,1,,,,,,,,,,,,,,,,,,,,,,,,,,,,,,,,,,,,,64,orgulloso,,,,,545.466,546.881,0,0,0.894,,0,72,72,63,1,REAL,FAKE,,,,,,,,,,,,,,,,,
,,,,,,,,,5ced8f96a726ed0015d31452,Mexican,13 or older,"no, only English or Spanish",yes,2025-07-24_09h04.03.542,empathy_intonation_perc_control,2024.2.4,Win32,59.95203837,5ced8f96a726ed0015d31452,68817205a84113384fffdfe3,68822d8bde704a4994d7cbf9,,,,,,,,,,,,,1,,,,,,,,,,,,,,,,,,,,,,,,,,,,,,,,,,,,,22,lacayo,,,,,546.883,548.266,0,0,0.864,,0,73,73,21,1,REAL,FAKE,,,,,,,,,,,,,,,,,
,,,,,,,,,5ced8f96a726ed0015d31452,Mexican,13 or older,"no, only English or Spanish",yes,2025-07-24_09h04.03.542,empathy_intonation_perc_control,2024.2.4,Win32,59.95203837,5ced8f96a726ed0015d31452,68817205a84113384fffdfe3,68822d8bde704a4994d7cbf9,,,,,,,,,,,,,0,,,,,,,,,,,,,,,,,,,,,,,,,,,,,,,,,,,,,70,temblo,,,,,548.267,549.684,0,1,0.899,,0,74,74,69,1,REAL,FAKE,,,,,,,,,,,,,,,,,
,,,,,,,,,5ced8f96a726ed0015d31452,Mexican,13 or older,"no, only English or Spanish",yes,2025-07-24_09h04.03.542,empathy_intonation_perc_control,2024.2.4,Win32,59.95203837,5ced8f96a726ed0015d31452,68817205a84113384fffdfe3,68822d8bde704a4994d7cbf9,,,,,,,,,,,,,0,,,,,,,,,,,,,,,,,,,,,,,,,,,,,,,,,,,,,17,floroso,,,,,549.686,551.286,0,1,1.077,,0,75,75,16,1,REAL,FAKE,,,,,,,,,,,,,,,,,
,,,,,,,,,5ced8f96a726ed0015d31452,Mexican,13 or older,"no, only English or Spanish",yes,2025-07-24_09h04.03.542,empathy_intonation_perc_control,2024.2.4,Win32,59.95203837,5ced8f96a726ed0015d31452,68817205a84113384fffdfe3,68822d8bde704a4994d7cbf9,,,,,,,,,,,,,0,,,,,,,,,,,,,,,,,,,,,,,,,,,,,,,,,,,,,19,brecedad,,,,,551.287,552.603,0,1,0.799,,0,76,76,18,1,REAL,FAKE,,,,,,,,,,,,,,,,,
,,,,,,,,,5ced8f96a726ed0015d31452,Mexican,13 or older,"no, only English or Spanish",yes,2025-07-24_09h04.03.542,empathy_intonation_perc_control,2024.2.4,Win32,59.95203837,5ced8f96a726ed0015d31452,68817205a84113384fffdfe3,68822d8bde704a4994d7cbf9,,,,,,,,,,,,,1,,,,,,,,,,,,,,,,,,,,,,,,,,,,,,,,,,,,,14,yunque,,,,,552.604,553.905,0,0,0.777,,0,77,77,13,1,REAL,FAKE,,,,,,,,,,,,,,,,,
,,,,,,,,,5ced8f96a726ed0015d31452,Mexican,13 or older,"no, only English or Spanish",yes,2025-07-24_09h04.03.542,empathy_intonation_perc_control,2024.2.4,Win32,59.95203837,5ced8f96a726ed0015d31452,68817205a84113384fffdfe3,68822d8bde704a4994d7cbf9,,,,,,,,,,,,,0,,,,,,,,,,,,,,,,,,,,,,,,,,,,,,,,,,,,,47,cartinar,,,,,553.906,555.49,0,1,1.062,,0,78,78,46,1,REAL,FAKE,,,,,,,,,,,,,,,,,
,,,,,,,,,5ced8f96a726ed0015d31452,Mexican,13 or older,"no, only English or Spanish",yes,2025-07-24_09h04.03.542,empathy_intonation_perc_control,2024.2.4,Win32,59.95203837,5ced8f96a726ed0015d31452,68817205a84113384fffdfe3,68822d8bde704a4994d7cbf9,,,,,,,,,,,,,1,,,,,,,,,,,,,,,,,,,,,,,,,,,,,,,,,,,,,13,helar,,,,,555.491,556.841,0,0,0.824,,0,79,79,12,1,REAL,FAKE,,,,,,,,,,,,,,,,,
,,,,,,,,,5ced8f96a726ed0015d31452,Mexican,13 or older,"no, only English or Spanish",yes,2025-07-24_09h04.03.542,empathy_intonation_perc_control,2024.2.4,Win32,59.95203837,5ced8f96a726ed0015d31452,68817205a84113384fffdfe3,68822d8bde704a4994d7cbf9,,,,,,,,,,,,,1,,,,,,,,,,,,,,,,,,,,,,,,,,,,,,,,,,,,,62,flaco,,,,,556.842,558.025,1,1,0.638,,0,80,80,61,1,REAL,FAKE,,,,,,,,,,,,,,,,,
,,,,,,,,,5ced8f96a726ed0015d31452,Mexican,13 or older,"no, only English or Spanish",yes,2025-07-24_09h04.03.542,empathy_intonation_perc_control,2024.2.4,Win32,59.95203837,5ced8f96a726ed0015d31452,68817205a84113384fffdfe3,68822d8bde704a4994d7cbf9,,,,,,,,,,,,,1,,,,,,,,,,,,,,,,,,,,,,,,,,,,,,,,,,,,,38,estornudar,,,,,558.027,560.061,0,0,1.495,,0,81,81,37,1,REAL,FAKE,,,,,,,,,,,,,,,,,
,,,,,,,,,5ced8f96a726ed0015d31452,Mexican,13 or older,"no, only English or Spanish",yes,2025-07-24_09h04.03.542,empathy_intonation_perc_control,2024.2.4,Win32,59.95203837,5ced8f96a726ed0015d31452,68817205a84113384fffdfe3,68822d8bde704a4994d7cbf9,,,,,,,,,,,,,1,,,,,,,,,,,,,,,,,,,,,,,,,,,,,,,,,,,,,49,ganar,,,,,560.062,561.312,1,1,0.709,,0,82,82,48,1,REAL,FAKE,,,,,,,,,,,,,,,,,
,,,,,,,,,5ced8f96a726ed0015d31452,Mexican,13 or older,"no, only English or Spanish",yes,2025-07-24_09h04.03.542,empathy_intonation_perc_control,2024.2.4,Win32,59.95203837,5ced8f96a726ed0015d31452,68817205a84113384fffdfe3,68822d8bde704a4994d7cbf9,,,,,,,,,,,,,1,,,,,,,,,,,,,,,,,,,,,,,,,,,,,,,,,,,,,75,yacer,,,,,561.313,562.53,0,0,0.696,,0,83,83,74,1,REAL,FAKE,,,,,,,,,,,,,,,,,
,,,,,,,,,5ced8f96a726ed0015d31452,Mexican,13 or older,"no, only English or Spanish",yes,2025-07-24_09h04.03.542,empathy_intonation_perc_control,2024.2.4,Win32,59.95203837,5ced8f96a726ed0015d31452,68817205a84113384fffdfe3,68822d8bde704a4994d7cbf9,,,,,,,,,,,,,1,,,,,,,,,,,,,,,,,,,,,,,,,,,,,,,,,,,,,51,candado,,,,,562.531,563.748,1,1,0.684,,0,84,84,50,1,REAL,FAKE,,,,,,,,,,,,,,,,,
,,,,,,,,,5ced8f96a726ed0015d31452,Mexican,13 or older,"no, only English or Spanish",yes,2025-07-24_09h04.03.542,empathy_intonation_perc_control,2024.2.4,Win32,59.95203837,5ced8f96a726ed0015d31452,68817205a84113384fffdfe3,68822d8bde704a4994d7cbf9,,,,,,,,,,,,,1,,,,,,,,,,,,,,,,,,,,,,,,,,,,,,,,,,,,,5,zapato,,,,,563.749,564.999,1,1,0.71,,0,85,85,4,1,REAL,FAKE,,,,,,,,,,,,,,,,,
,,,,,,,,,5ced8f96a726ed0015d31452,Mexican,13 or older,"no, only English or Spanish",yes,2025-07-24_09h04.03.542,empathy_intonation_perc_control,2024.2.4,Win32,59.95203837,5ced8f96a726ed0015d31452,68817205a84113384fffdfe3,68822d8bde704a4994d7cbf9,,,,,,,,,,,,,0,,,,,,,,,,,,,,,,,,,,,,,,,,,,,,,,,,,,,87,grodo,,,,,565,566.235,0,1,0.711,,0,86,86,86,1,REAL,FAKE,,,,,,,,,,,,,,,,,
,,,,,,,,,5ced8f96a726ed0015d31452,Mexican,13 or older,"no, only English or Spanish",yes,2025-07-24_09h04.03.542,empathy_intonation_perc_control,2024.2.4,Win32,59.95203837,5ced8f96a726ed0015d31452,68817205a84113384fffdfe3,68822d8bde704a4994d7cbf9,,,,,,,,,,,,,1,,,,,,,,,,,,,,,,,,,,,,,,,,,,,,,,,,,,,67,cabello,,,,,566.235,567.502,1,1,0.748,,0,87,87,66,1,REAL,FAKE,,,,,,,,,,,,,,,,,
,,,,,,,,,5ced8f96a726ed0015d31452,Mexican,13 or older,"no, only English or Spanish",yes,2025-07-24_09h04.03.542,empathy_intonation_perc_control,2024.2.4,Win32,59.95203837,5ced8f96a726ed0015d31452,68817205a84113384fffdfe3,68822d8bde704a4994d7cbf9,,,,,,,,,,,,,1,,,,,,,,,,,,,,,,,,,,,,,,,,,,,,,,,,,,,86,barato,,,,,567.503,568.92,1,1,0.891,,0,88,88,85,1,REAL,FAKE,,,,,,,,,,,,,,,,,
,,,,,,,,,5ced8f96a726ed0015d31452,Mexican,13 or older,"no, only English or Spanish",yes,2025-07-24_09h04.03.542,empathy_intonation_perc_control,2024.2.4,Win32,59.95203837,5ced8f96a726ed0015d31452,68817205a84113384fffdfe3,68822d8bde704a4994d7cbf9,,,,,,,,,,,,,0,,,,,,,,,,,,,,,,,,,,,,,,,,,,,,,,,,,,,84,escuto,,,,,568.921,570.572,1,0,1.137,,0,89,89,83,1,REAL,FAKE,,,,,,,,,,,,,,,,,
,,,,,,,,,5ced8f96a726ed0015d31452,Mexican,13 or older,"no, only English or Spanish",yes,2025-07-24_09h04.03.542,empathy_intonation_perc_control,2024.2.4,Win32,59.95203837,5ced8f96a726ed0015d31452,68817205a84113384fffdfe3,68822d8bde704a4994d7cbf9,,,,,,,,,,,,,1,,,,,,,,,,,,,,,,,,,,,,,,,,,,,,,,,,,,,73,hervidor,,,,,570.572,571.823,0,0,0.73,,0,90,90,72,1,REAL,FAKE,,,,,,,,,,,,,,,,,
,,,,,,,,,5ced8f96a726ed0015d31452,Mexican,13 or older,"no, only English or Spanish",yes,2025-07-24_09h04.03.542,empathy_intonation_perc_control,2024.2.4,Win32,59.95203837,5ced8f96a726ed0015d31452,68817205a84113384fffdfe3,68822d8bde704a4994d7cbf9,,,,,,,,,,,,,0,,,,,,,,,,,,,,,,,,,,,,,,,,,,,,,,,,,,,35,rompido,,,,,571.824,573.558,0,1,1.205,,0,91,91,34,1,REAL,FAKE,,,,,,,,,,,,,,,,,
,,,,,,,,,5ced8f96a726ed0015d31452,Mexican,13 or older,"no, only English or Spanish",yes,2025-07-24_09h04.03.542,empathy_intonation_perc_control,2024.2.4,Win32,59.95203837,5ced8f96a726ed0015d31452,68817205a84113384fffdfe3,68822d8bde704a4994d7cbf9,,,,,,,,,,,,,,,,,,,,,,,,,,,,,,,,,,,,,,,,,,,,,,,,,,,,,,,,,,,,,,,,,,,,,573.558,580.131,,,,,,,,,,,,,,,
,,,,,,,,,5ced8f96a726ed0015d31452,Mexican,13 or older,"no, only English or Spanish",yes,2025-07-24_09h04.03.542,empathy_intonation_perc_control,2024.2.4,Win32,59.95203837,5ced8f96a726ed0015d31452,68817205a84113384fffdfe3,68822d8bde704a4994d7cbf9,,,,,,,,,,,,,,,,,,,,,,,,,,,1,,,,,,,,,,,,,,,,,,,,,,,,,,,,,,,,,,,,,,,,,,,,580.141,584.736,slightly agree,0,0,0,0,1,I can easily tell if someone else wants to enter a conversation.,1,0,1,0,,
,,,,,,,,,5ced8f96a726ed0015d31452,Mexican,13 or older,"no, only English or Spanish",yes,2025-07-24_09h04.03.542,empathy_intonation_perc_control,2024.2.4,Win32,59.95203837,5ced8f96a726ed0015d31452,68817205a84113384fffdfe3,68822d8bde704a4994d7cbf9,,,,,,,,,,,,,,,,,,,,,,,,,,,2,,,,,,,,,,,,,,,,,,,,,,,,,,,,,,,,,,,,,,,,,,,,584.737,588.006,strongly disagree,0,1,1,1,1,I prefer animals to humans.,0,1,0,0,,
,,,,,,,,,5ced8f96a726ed0015d31452,Mexican,13 or older,"no, only English or Spanish",yes,2025-07-24_09h04.03.542,empathy_intonation_perc_control,2024.2.4,Win32,59.95203837,5ced8f96a726ed0015d31452,68817205a84113384fffdfe3,68822d8bde704a4994d7cbf9,,,,,,,,,,,,,,,,,,,,,,,,,,,3,,,,,,,,,,,,,,,,,,,,,,,,,,,,,,,,,,,,,,,,,,,,588.007,590.325,strongly disagree,0,2,2,2,1,I try to keep up with the current trends and fashions.,0,1,0,0,,
,,,,,,,,,5ced8f96a726ed0015d31452,Mexican,13 or older,"no, only English or Spanish",yes,2025-07-24_09h04.03.542,empathy_intonation_perc_control,2024.2.4,Win32,59.95203837,5ced8f96a726ed0015d31452,68817205a84113384fffdfe3,68822d8bde704a4994d7cbf9,,,,,,,,,,,,,,,,,,,,,,,,,,,4,,,,,,,,,,,,,,,,,,,,,,,,,,,,,,,,,,,,,,,,,,,,590.326,597.715,slightly disagree,0,3,3,3,1,"I find it difficult to explain to others things that I understand easily,   when they don't understand it first time.",1,0,0,1,,
,,,,,,,,,5ced8f96a726ed0015d31452,Mexican,13 or older,"no, only English or Spanish",yes,2025-07-24_09h04.03.542,empathy_intonation_perc_control,2024.2.4,Win32,59.95203837,5ced8f96a726ed0015d31452,68817205a84113384fffdfe3,68822d8bde704a4994d7cbf9,,,,,,,,,,,,,,,,,,,,,,,,,,,5,,,,,,,,,,,,,,,,,,,,,,,,,,,,,,,,,,,,,,,,,,,,597.717,599.685,slightly agree,0,4,4,4,1,I dream most nights.,0,1,0,0,,
,,,,,,,,,5ced8f96a726ed0015d31452,Mexican,13 or older,"no, only English or Spanish",yes,2025-07-24_09h04.03.542,empathy_intonation_perc_control,2024.2.4,Win32,59.95203837,5ced8f96a726ed0015d31452,68817205a84113384fffdfe3,68822d8bde704a4994d7cbf9,,,,,,,,,,,,,,,,,,,,,,,,,,,6,,,,,,,,,,,,,,,,,,,,,,,,,,,,,,,,,,,,,,,,,,,,599.685,601.653,slightly agree,0,5,5,5,1,I really enjoy caring for other people.,1,0,1,0,,
,,,,,,,,,5ced8f96a726ed0015d31452,Mexican,13 or older,"no, only English or Spanish",yes,2025-07-24_09h04.03.542,empathy_intonation_perc_control,2024.2.4,Win32,59.95203837,5ced8f96a726ed0015d31452,68817205a84113384fffdfe3,68822d8bde704a4994d7cbf9,,,,,,,,,,,,,,,,,,,,,,,,,,,7,,,,,,,,,,,,,,,,,,,,,,,,,,,,,,,,,,,,,,,,,,,,601.654,604.072,strongly agree,0,6,6,6,1,I try to solve my own problems rather than discussing them with others.,0,1,0,0,,
,,,,,,,,,5ced8f96a726ed0015d31452,Mexican,13 or older,"no, only English or Spanish",yes,2025-07-24_09h04.03.542,empathy_intonation_perc_control,2024.2.4,Win32,59.95203837,5ced8f96a726ed0015d31452,68817205a84113384fffdfe3,68822d8bde704a4994d7cbf9,,,,,,,,,,,,,,,,,,,,,,,,,,,8,,,,,,,,,,,,,,,,,,,,,,,,,,,,,,,,,,,,,,,,,,,,604.072,606.442,strongly disagree,0,7,7,7,1,I find it hard to know what to do in a social situation.,1,0,0,1,,
,,,,,,,,,5ced8f96a726ed0015d31452,Mexican,13 or older,"no, only English or Spanish",yes,2025-07-24_09h04.03.542,empathy_intonation_perc_control,2024.2.4,Win32,59.95203837,5ced8f96a726ed0015d31452,68817205a84113384fffdfe3,68822d8bde704a4994d7cbf9,,,,,,,,,,,,,,,,,,,,,,,,,,,9,,,,,,,,,,,,,,,,,,,,,,,,,,,,,,,,,,,,,,,,,,,,606.442,613.348,strongly agree,0,8,8,8,1,I am at my best first thing in the morning.,0,1,0,0,,
,,,,,,,,,5ced8f96a726ed0015d31452,Mexican,13 or older,"no, only English or Spanish",yes,2025-07-24_09h04.03.542,empathy_intonation_perc_control,2024.2.4,Win32,59.95203837,5ced8f96a726ed0015d31452,68817205a84113384fffdfe3,68822d8bde704a4994d7cbf9,,,,,,,,,,,,,,,,,,,,,,,,,,,10,,,,,,,,,,,,,,,,,,,,,,,,,,,,,,,,,,,,,,,,,,,,613.35,619.371,slightly disagree,0,9,9,9,1,People often tell me that I went too far in driving my point home in a discussion.,1,0,0,1,,
,,,,,,,,,5ced8f96a726ed0015d31452,Mexican,13 or older,"no, only English or Spanish",yes,2025-07-24_09h04.03.542,empathy_intonation_perc_control,2024.2.4,Win32,59.95203837,5ced8f96a726ed0015d31452,68817205a84113384fffdfe3,68822d8bde704a4994d7cbf9,,,,,,,,,,,,,,,,,,,,,,,,,,,11,,,,,,,,,,,,,,,,,,,,,,,,,,,,,,,,,,,,,,,,,,,,619.372,623.508,strongly disagree,0,10,10,10,1,It doesn't bother me too much if I am late meeting a friend.,1,0,0,1,,
,,,,,,,,,5ced8f96a726ed0015d31452,Mexican,13 or older,"no, only English or Spanish",yes,2025-07-24_09h04.03.542,empathy_intonation_perc_control,2024.2.4,Win32,59.95203837,5ced8f96a726ed0015d31452,68817205a84113384fffdfe3,68822d8bde704a4994d7cbf9,,,,,,,,,,,,,,,,,,,,,,,,,,,12,,,,,,,,,,,,,,,,,,,,,,,,,,,,,,,,,,,,,,,,,,,,623.509,626.628,strongly disagree,0,11,11,11,1,"Friendships and relationships are just too difficult, so I tend not to 
  bother with them.",1,0,0,1,,
,,,,,,,,,5ced8f96a726ed0015d31452,Mexican,13 or older,"no, only English or Spanish",yes,2025-07-24_09h04.03.542,empathy_intonation_perc_control,2024.2.4,Win32,59.95203837,5ced8f96a726ed0015d31452,68817205a84113384fffdfe3,68822d8bde704a4994d7cbf9,,,,,,,,,,,,,,,,,,,,,,,,,,,13,,,,,,,,,,,,,,,,,,,,,,,,,,,,,,,,,,,,,,,,,,,,626.63,630.583,slightly disagree,0,12,12,12,1,"I would never break a law, no matter how minor.",0,1,0,0,,
,,,,,,,,,5ced8f96a726ed0015d31452,Mexican,13 or older,"no, only English or Spanish",yes,2025-07-24_09h04.03.542,empathy_intonation_perc_control,2024.2.4,Win32,59.95203837,5ced8f96a726ed0015d31452,68817205a84113384fffdfe3,68822d8bde704a4994d7cbf9,,,,,,,,,,,,,,,,,,,,,,,,,,,14,,,,,,,,,,,,,,,,,,,,,,,,,,,,,,,,,,,,,,,,,,,,630.583,637.706,strongly disagree,0,13,13,13,1,I often find it difficult to judge if something is rude or polite.,1,0,0,1,,
,,,,,,,,,5ced8f96a726ed0015d31452,Mexican,13 or older,"no, only English or Spanish",yes,2025-07-24_09h04.03.542,empathy_intonation_perc_control,2024.2.4,Win32,59.95203837,5ced8f96a726ed0015d31452,68817205a84113384fffdfe3,68822d8bde704a4994d7cbf9,,,,,,,,,,,,,,,,,,,,,,,,,,,15,,,,,,,,,,,,,,,,,,,,,,,,,,,,,,,,,,,,,,,,,,,,637.707,643.612,slightly disagree,0,14,14,14,1,"In a conversation, I tend to focus on my own thoughts rather than on what 
  my listener might be thinking.",1,0,0,1,,
,,,,,,,,,5ced8f96a726ed0015d31452,Mexican,13 or older,"no, only English or Spanish",yes,2025-07-24_09h04.03.542,empathy_intonation_perc_control,2024.2.4,Win32,59.95203837,5ced8f96a726ed0015d31452,68817205a84113384fffdfe3,68822d8bde704a4994d7cbf9,,,,,,,,,,,,,,,,,,,,,,,,,,,16,,,,,,,,,,,,,,,,,,,,,,,,,,,,,,,,,,,,,,,,,,,,643.613,647.316,strongly disagree,0,15,15,15,1,I prefer practical jokes to verbal humor.,0,1,0,0,,
,,,,,,,,,5ced8f96a726ed0015d31452,Mexican,13 or older,"no, only English or Spanish",yes,2025-07-24_09h04.03.542,empathy_intonation_perc_control,2024.2.4,Win32,59.95203837,5ced8f96a726ed0015d31452,68817205a84113384fffdfe3,68822d8bde704a4994d7cbf9,,,,,,,,,,,,,,,,,,,,,,,,,,,17,,,,,,,,,,,,,,,,,,,,,,,,,,,,,,,,,,,,,,,,,,,,647.317,649.751,slightly disagree,0,16,16,16,1,I live life for today rather than the future.,0,1,0,0,,
,,,,,,,,,5ced8f96a726ed0015d31452,Mexican,13 or older,"no, only English or Spanish",yes,2025-07-24_09h04.03.542,empathy_intonation_perc_control,2024.2.4,Win32,59.95203837,5ced8f96a726ed0015d31452,68817205a84113384fffdfe3,68822d8bde704a4994d7cbf9,,,,,,,,,,,,,,,,,,,,,,,,,,,18,,,,,,,,,,,,,,,,,,,,,,,,,,,,,,,,,,,,,,,,,,,,649.752,653.339,strongly disagree,0,17,17,17,1,"When I was a child, I enjoyed cutting up worms to see what would happen.",1,0,0,1,,
,,,,,,,,,5ced8f96a726ed0015d31452,Mexican,13 or older,"no, only English or Spanish",yes,2025-07-24_09h04.03.542,empathy_intonation_perc_control,2024.2.4,Win32,59.95203837,5ced8f96a726ed0015d31452,68817205a84113384fffdfe3,68822d8bde704a4994d7cbf9,,,,,,,,,,,,,,,,,,,,,,,,,,,19,,,,,,,,,,,,,,,,,,,,,,,,,,,,,,,,,,,,,,,,,,,,653.339,657.71,slightly agree,0,18,18,18,1,I can pick up quickly if someone says one thing but means another.,1,0,1,0,,
,,,,,,,,,5ced8f96a726ed0015d31452,Mexican,13 or older,"no, only English or Spanish",yes,2025-07-24_09h04.03.542,empathy_intonation_perc_control,2024.2.4,Win32,59.95203837,5ced8f96a726ed0015d31452,68817205a84113384fffdfe3,68822d8bde704a4994d7cbf9,,,,,,,,,,,,,,,,,,,,,,,,,,,20,,,,,,,,,,,,,,,,,,,,,,,,,,,,,,,,,,,,,,,,,,,,657.711,666.118,strongly agree,0,19,19,19,1,I tend to have very strong opinions about morality.,0,1,0,0,,
,,,,,,,,,5ced8f96a726ed0015d31452,Mexican,13 or older,"no, only English or Spanish",yes,2025-07-24_09h04.03.542,empathy_intonation_perc_control,2024.2.4,Win32,59.95203837,5ced8f96a726ed0015d31452,68817205a84113384fffdfe3,68822d8bde704a4994d7cbf9,,,,,,,,,,,,,,,,,,,,,,,,,,,21,,,,,,,,,,,,,,,,,,,,,,,,,,,,,,,,,,,,,,,,,,,,666.119,668.487,strongly agree,0,20,20,20,1,It is hard for me to see why some things upset people so much.,1,0,0,1,,
,,,,,,,,,5ced8f96a726ed0015d31452,Mexican,13 or older,"no, only English or Spanish",yes,2025-07-24_09h04.03.542,empathy_intonation_perc_control,2024.2.4,Win32,59.95203837,5ced8f96a726ed0015d31452,68817205a84113384fffdfe3,68822d8bde704a4994d7cbf9,,,,,,,,,,,,,,,,,,,,,,,,,,,22,,,,,,,,,,,,,,,,,,,,,,,,,,,,,,,,,,,,,,,,,,,,668.488,670.455,slightly agree,0,21,21,21,1,I find it easy to put myself in somebody else's shoes.,1,0,1,0,,
,,,,,,,,,5ced8f96a726ed0015d31452,Mexican,13 or older,"no, only English or Spanish",yes,2025-07-24_09h04.03.542,empathy_intonation_perc_control,2024.2.4,Win32,59.95203837,5ced8f96a726ed0015d31452,68817205a84113384fffdfe3,68822d8bde704a4994d7cbf9,,,,,,,,,,,,,,,,,,,,,,,,,,,23,,,,,,,,,,,,,,,,,,,,,,,,,,,,,,,,,,,,,,,,,,,,670.456,675.878,slightly agree,0,22,22,22,1,I think that good manners are the most important thing a parent can teach their child.,0,1,0,0,,
,,,,,,,,,5ced8f96a726ed0015d31452,Mexican,13 or older,"no, only English or Spanish",yes,2025-07-24_09h04.03.542,empathy_intonation_perc_control,2024.2.4,Win32,59.95203837,5ced8f96a726ed0015d31452,68817205a84113384fffdfe3,68822d8bde704a4994d7cbf9,,,,,,,,,,,,,,,,,,,,,,,,,,,24,,,,,,,,,,,,,,,,,,,,,,,,,,,,,,,,,,,,,,,,,,,,675.879,678.196,slightly disagree,0,23,23,23,1,I like to do things on the spur of the moment.,0,1,0,0,,
,,,,,,,,,5ced8f96a726ed0015d31452,Mexican,13 or older,"no, only English or Spanish",yes,2025-07-24_09h04.03.542,empathy_intonation_perc_control,2024.2.4,Win32,59.95203837,5ced8f96a726ed0015d31452,68817205a84113384fffdfe3,68822d8bde704a4994d7cbf9,,,,,,,,,,,,,,,,,,,,,,,,,,,25,,,,,,,,,,,,,,,,,,,,,,,,,,,,,,,,,,,,,,,,,,,,678.198,680.066,slightly agree,0,24,24,24,1,I am good at predicting how someone will feel.,1,0,1,0,,
,,,,,,,,,5ced8f96a726ed0015d31452,Mexican,13 or older,"no, only English or Spanish",yes,2025-07-24_09h04.03.542,empathy_intonation_perc_control,2024.2.4,Win32,59.95203837,5ced8f96a726ed0015d31452,68817205a84113384fffdfe3,68822d8bde704a4994d7cbf9,,,,,,,,,,,,,,,,,,,,,,,,,,,26,,,,,,,,,,,,,,,,,,,,,,,,,,,,,,,,,,,,,,,,,,,,680.066,683.369,slightly agree,0,25,25,25,1,I am quick to spot when someone in a group is feeling awkward or uncomfortable.,1,0,1,0,,
