instructions_2afc.started,instructions_2afc.stopped,instructions_2afc_loop.thisRepN,instructions_2afc_loop.thisTrialN,instructions_2afc_loop.thisN,instructions_2afc_loop.thisIndex,instructions_2afc_loop.ran,instructions_text,continue_text,participant_id,"What variety of Spanish are you most familiar with? (e.g., Peruvian, Spanish, Mexican)",At what age did you begin learning Spanish?,Are you proficient in any languages other than English/Spanish?,"Are you familiar with Caribbean (e.g., Caribbean, Puerto Rican) or Galician Spanish?",date,expName,psychopyVersion,OS,frameRate,id,study_id,session,practice_2afc.started,practice_2afc.stopped,key_resp_2afc_practice.keys,key_resp_2afc_practice.corr,key_resp_2afc_practice.rt,key_resp_2afc_practice.duration,trials_2afc_practice_loop.thisRepN,trials_2afc_practice_loop.thisTrialN,trials_2afc_practice_loop.thisN,trials_2afc_practice_loop.thisIndex,trials_2afc_practice_loop.ran,path,correct_response,check_2afc.started,check_2afc.stopped,trial_2afc.started,trial_2afc.stopped,key_resp_2afc_trial.keys,key_resp_2afc_trial.corr,key_resp_2afc_trial.rt,key_resp_2afc_trial.duration,trials_2afc_loop.thisRepN,trials_2afc_loop.thisTrialN,trials_2afc_loop.thisN,trials_2afc_loop.thisIndex,trials_2afc_loop.ran,item_num,target,variety,instructions_lextale.started,instructions_lextale.stopped,instructions_lextale_loop.thisRepN,instructions_lextale_loop.thisTrialN,instructions_lextale_loop.thisN,instructions_lextale_loop.thisIndex,instructions_lextale_loop.ran,practice_lextale.started,practice_lextale.stopped,key_resp_lextale_practice.keys,key_resp_lextale_practice.corr,key_resp_lextale_practice.rt,key_resp_lextale_practice.duration,practice_feedback_lextale.started,practice_feedback_lextale.stopped,trials_lextale_practice_loop.thisRepN,trials_lextale_practice_loop.thisTrialN,trials_lextale_practice_loop.thisN,trials_lextale_practice_loop.thisIndex,trials_lextale_practice_loop.ran,stim,word,prac_button_real,prac_button_false,check_lextale.started,check_lextale.stopped,trial_lextale.started,trial_lextale.stopped,key_resp_lextale_trial.keys,key_resp_lextale_trial.corr,key_resp_lextale_trial.rt,key_resp_lextale_trial.duration,trials_lextale_loop.thisRepN,trials_lextale_loop.thisTrialN,trials_lextale_loop.thisN,trials_lextale_loop.thisIndex,trials_lextale_loop.ran,button_real,button_false,instructions_eq.started,instructions_eq.stopped,trial_eq.started,trial_eq.stopped,slider_eq_trial.response,trials_eq_loop.thisRepN,trials_eq_loop.thisTrialN,trials_eq_loop.thisN,trials_eq_loop.thisIndex,trials_eq_loop.ran,item,is_test_item,is_distractor,is_agree_score,is_disagree_score,end_exp.started,end_exp.stopped
0.055,4.847,0,0,0,0,1,"In the following task you are going to hear a series of utterances. 

  You will decide if the utterances sound like questions or not using your keyboard.", (press the spacebar to continue),5d88f2f8cefb52001a83f1b2,spanish,13 or older,"no, only English or Spanish",yes,2025-08-13_17h58.14.698,empathy_intonation_perc_control,2024.2.4,MacIntel,2.624671916,5d88f2f8cefb52001a83f1b2,68817205a84113384fffdfe3,689d0a3ded0071a597c9b317,,,,,,,,,,,,,,,,,,,,,,,,,,,,,,,,,,,,,,,,,,,,,,,,,,,,,,,,,,,,,,,,,,,,,,,,,,,,,,,,,,,,,
4.847,10.579,0,1,1,1,1,"If you believe the utterance is a question, type '1' (for 'yes') and if you do not 
  believe it is a question type '0' (for 'no').

  Let's practice a bit...", (press the spacebar to continue),5d88f2f8cefb52001a83f1b2,spanish,13 or older,"no, only English or Spanish",yes,2025-08-13_17h58.14.698,empathy_intonation_perc_control,2024.2.4,MacIntel,2.624671916,5d88f2f8cefb52001a83f1b2,68817205a84113384fffdfe3,689d0a3ded0071a597c9b317,,,,,,,,,,,,,,,,,,,,,,,,,,,,,,,,,,,,,,,,,,,,,,,,,,,,,,,,,,,,,,,,,,,,,,,,,,,,,,,,,,,,,
,,,,,,,,,5d88f2f8cefb52001a83f1b2,spanish,13 or older,"no, only English or Spanish",yes,2025-08-13_17h58.14.698,empathy_intonation_perc_control,2024.2.4,MacIntel,2.624671916,5d88f2f8cefb52001a83f1b2,68817205a84113384fffdfe3,689d0a3ded0071a597c9b317,10.586,13.348,1,1,2.236,,0,0,0,3,1,./stim/wavs/mexican_question_filler_Felipe-no-tiene-contrasena.wav,1,,,,,,,,,,,,,,,,,,,,,,,,,,,,,,,,,,,,,,,,,,,,,,,,,,,,,,,,,,,,,,,,,,,,,,,,
,,,,,,,,,5d88f2f8cefb52001a83f1b2,spanish,13 or older,"no, only English or Spanish",yes,2025-08-13_17h58.14.698,empathy_intonation_perc_control,2024.2.4,MacIntel,2.624671916,5d88f2f8cefb52001a83f1b2,68817205a84113384fffdfe3,689d0a3ded0071a597c9b317,13.348,15.407,0,0,1.537,,0,1,1,2,1,./stim/wavs/chilean_question_filler_Mi-padre-cantaba-bien.wav,1,,,,,,,,,,,,,,,,,,,,,,,,,,,,,,,,,,,,,,,,,,,,,,,,,,,,,,,,,,,,,,,,,,,,,,,,
,,,,,,,,,5d88f2f8cefb52001a83f1b2,spanish,13 or older,"no, only English or Spanish",yes,2025-08-13_17h58.14.698,empathy_intonation_perc_control,2024.2.4,MacIntel,2.624671916,5d88f2f8cefb52001a83f1b2,68817205a84113384fffdfe3,689d0a3ded0071a597c9b317,15.408,17.751,0,1,1.817,,0,2,2,4,1,./stim/wavs/cuban_statement_filler_Cocinabas-por-la-noche.wav,0,,,,,,,,,,,,,,,,,,,,,,,,,,,,,,,,,,,,,,,,,,,,,,,,,,,,,,,,,,,,,,,,,,,,,,,,
,,,,,,,,,5d88f2f8cefb52001a83f1b2,spanish,13 or older,"no, only English or Spanish",yes,2025-08-13_17h58.14.698,empathy_intonation_perc_control,2024.2.4,MacIntel,2.624671916,5d88f2f8cefb52001a83f1b2,68817205a84113384fffdfe3,689d0a3ded0071a597c9b317,17.751,19.976,1,1,1.69,,0,3,3,1,1,./stim/wavs/argentine_question_filler_Mi-vecino-habla-mucho.wav,1,,,,,,,,,,,,,,,,,,,,,,,,,,,,,,,,,,,,,,,,,,,,,,,,,,,,,,,,,,,,,,,,,,,,,,,,
,,,,,,,,,5d88f2f8cefb52001a83f1b2,spanish,13 or older,"no, only English or Spanish",yes,2025-08-13_17h58.14.698,empathy_intonation_perc_control,2024.2.4,MacIntel,2.624671916,5d88f2f8cefb52001a83f1b2,68817205a84113384fffdfe3,689d0a3ded0071a597c9b317,19.976,22.893,0,1,2.393,,0,4,4,6,1,./stim/wavs/peruvian_statement_filler_El-nino-habla-con-su-madre.wav,0,,,,,,,,,,,,,,,,,,,,,,,,,,,,,,,,,,,,,,,,,,,,,,,,,,,,,,,,,,,,,,,,,,,,,,,,
,,,,,,,,,5d88f2f8cefb52001a83f1b2,spanish,13 or older,"no, only English or Spanish",yes,2025-08-13_17h58.14.698,empathy_intonation_perc_control,2024.2.4,MacIntel,2.624671916,5d88f2f8cefb52001a83f1b2,68817205a84113384fffdfe3,689d0a3ded0071a597c9b317,22.894,25.116,0,1,1.698,,0,5,5,5,1,./stim/wavs/andalusian_statement_filler_Alberto-nunca-se-afeita.wav,0,,,,,,,,,,,,,,,,,,,,,,,,,,,,,,,,,,,,,,,,,,,,,,,,,,,,,,,,,,,,,,,,,,,,,,,,
,,,,,,,,,5d88f2f8cefb52001a83f1b2,spanish,13 or older,"no, only English or Spanish",yes,2025-08-13_17h58.14.698,empathy_intonation_perc_control,2024.2.4,MacIntel,2.624671916,5d88f2f8cefb52001a83f1b2,68817205a84113384fffdfe3,689d0a3ded0071a597c9b317,25.116,27.808,1,1,2.167,,0,6,6,0,1,./stim/wavs/castilian_question_filler_Mi-esposo-conoce-al-chico.wav,1,,,,,,,,,,,,,,,,,,,,,,,,,,,,,,,,,,,,,,,,,,,,,,,,,,,,,,,,,,,,,,,,,,,,,,,,
,,,,,,,,,5d88f2f8cefb52001a83f1b2,spanish,13 or older,"no, only English or Spanish",yes,2025-08-13_17h58.14.698,empathy_intonation_perc_control,2024.2.4,MacIntel,2.624671916,5d88f2f8cefb52001a83f1b2,68817205a84113384fffdfe3,689d0a3ded0071a597c9b317,27.808,30.177,0,1,1.847,,0,7,7,7,1,./stim/wavs/puertorican_statement_filler_La-nina-pinta-con-su-amiga.wav,0,,,,,,,,,,,,,,,,,,,,,,,,,,,,,,,,,,,,,,,,,,,,,,,,,,,,,,,,,,,,,,,,,,,,,,,,
,,,,,,,,,5d88f2f8cefb52001a83f1b2,spanish,13 or older,"no, only English or Spanish",yes,2025-08-13_17h58.14.698,empathy_intonation_perc_control,2024.2.4,MacIntel,2.624671916,5d88f2f8cefb52001a83f1b2,68817205a84113384fffdfe3,689d0a3ded0071a597c9b317,,,,,,,,,,,,,,30.178,35.462,,,,,,,,,,,,,,,,,,,,,,,,,,,,,,,,,,,,,,,,,,,,,,,,,,,,,,,,,,,,,,,,,,,,,,
,,,,,,,,,5d88f2f8cefb52001a83f1b2,spanish,13 or older,"no, only English or Spanish",yes,2025-08-13_17h58.14.698,empathy_intonation_perc_control,2024.2.4,MacIntel,2.624671916,5d88f2f8cefb52001a83f1b2,68817205a84113384fffdfe3,689d0a3ded0071a597c9b317,,,,,,,,,,,,./stim/wavs/mexican_match_declarative-broad-focus_David-leia-el-libro.wav,0,,,35.471,37.657,0,1,1.66,,0,0,0,58,1,59,0,mexican,,,,,,,,,,,,,,,,,,,,,,,,,,,,,,,,,,,,,,,,,,,,,,,,,,,,,,,,
,,,,,,,,,5d88f2f8cefb52001a83f1b2,spanish,13 or older,"no, only English or Spanish",yes,2025-08-13_17h58.14.698,empathy_intonation_perc_control,2024.2.4,MacIntel,2.624671916,5d88f2f8cefb52001a83f1b2,68817205a84113384fffdfe3,689d0a3ded0071a597c9b317,,,,,,,,,,,,./stim/wavs/castilian_match_interrogative-total-yn_Mariano-habla-del-tiempo.wav,1,,,37.657,40.383,1,1,2.198,,0,1,1,4,1,5,0,castilian,,,,,,,,,,,,,,,,,,,,,,,,,,,,,,,,,,,,,,,,,,,,,,,,,,,,,,,,
,,,,,,,,,5d88f2f8cefb52001a83f1b2,spanish,13 or older,"no, only English or Spanish",yes,2025-08-13_17h58.14.698,empathy_intonation_perc_control,2024.2.4,MacIntel,2.624671916,5d88f2f8cefb52001a83f1b2,68817205a84113384fffdfe3,689d0a3ded0071a597c9b317,,,,,,,,,,,,./stim/wavs/castilian_match_interrogative-total-yn_Maria-bebe-el-vino.wav,1,,,40.383,42.471,0,0,1.567,,0,2,2,3,1,4,0,castilian,,,,,,,,,,,,,,,,,,,,,,,,,,,,,,,,,,,,,,,,,,,,,,,,,,,,,,,,
,,,,,,,,,5d88f2f8cefb52001a83f1b2,spanish,13 or older,"no, only English or Spanish",yes,2025-08-13_17h58.14.698,empathy_intonation_perc_control,2024.2.4,MacIntel,2.624671916,5d88f2f8cefb52001a83f1b2,68817205a84113384fffdfe3,689d0a3ded0071a597c9b317,,,,,,,,,,,,./stim/wavs/mexican_match_interrogative-total-yn_Marta-abre-el-regalo.wav,1,,,42.471,44.712,1,1,1.719,,0,3,3,17,1,18,0,mexican,,,,,,,,,,,,,,,,,,,,,,,,,,,,,,,,,,,,,,,,,,,,,,,,,,,,,,,,
,,,,,,,,,5d88f2f8cefb52001a83f1b2,spanish,13 or older,"no, only English or Spanish",yes,2025-08-13_17h58.14.698,empathy_intonation_perc_control,2024.2.4,MacIntel,2.624671916,5d88f2f8cefb52001a83f1b2,68817205a84113384fffdfe3,689d0a3ded0071a597c9b317,,,,,,,,,,,,./stim/wavs/puertorican_match_declarative-broad-focus_Daniel-iba-a-Bolivia.wav,0,,,44.713,46.918,0,1,1.663,,0,4,4,63,1,64,0,puertorican,,,,,,,,,,,,,,,,,,,,,,,,,,,,,,,,,,,,,,,,,,,,,,,,,,,,,,,,
,,,,,,,,,5d88f2f8cefb52001a83f1b2,spanish,13 or older,"no, only English or Spanish",yes,2025-08-13_17h58.14.698,empathy_intonation_perc_control,2024.2.4,MacIntel,2.624671916,5d88f2f8cefb52001a83f1b2,68817205a84113384fffdfe3,689d0a3ded0071a597c9b317,,,,,,,,,,,,./stim/wavs/mexican_match_interrogative-total-yn_Daniel-iba-a-Bolivia.wav,1,,,46.918,49.41,1,1,1.969,,0,5,5,13,1,14,0,mexican,,,,,,,,,,,,,,,,,,,,,,,,,,,,,,,,,,,,,,,,,,,,,,,,,,,,,,,,
,,,,,,,,,5d88f2f8cefb52001a83f1b2,spanish,13 or older,"no, only English or Spanish",yes,2025-08-13_17h58.14.698,empathy_intonation_perc_control,2024.2.4,MacIntel,2.624671916,5d88f2f8cefb52001a83f1b2,68817205a84113384fffdfe3,689d0a3ded0071a597c9b317,,,,,,,,,,,,./stim/wavs/cuban_match_interrogative-total-yn_Maria-bebe-el-vino.wav,1,,,49.41,51.738,0,0,1.791,,0,6,6,9,1,10,1,cuban,,,,,,,,,,,,,,,,,,,,,,,,,,,,,,,,,,,,,,,,,,,,,,,,,,,,,,,,
,,,,,,,,,5d88f2f8cefb52001a83f1b2,spanish,13 or older,"no, only English or Spanish",yes,2025-08-13_17h58.14.698,empathy_intonation_perc_control,2024.2.4,MacIntel,2.624671916,5d88f2f8cefb52001a83f1b2,68817205a84113384fffdfe3,689d0a3ded0071a597c9b317,,,,,,,,,,,,./stim/wavs/mexican_match_interrogative-total-yn_David-leia-el-libro.wav,1,,,51.738,54.059,1,1,1.783,,0,7,7,14,1,15,0,mexican,,,,,,,,,,,,,,,,,,,,,,,,,,,,,,,,,,,,,,,,,,,,,,,,,,,,,,,,
,,,,,,,,,5d88f2f8cefb52001a83f1b2,spanish,13 or older,"no, only English or Spanish",yes,2025-08-13_17h58.14.698,empathy_intonation_perc_control,2024.2.4,MacIntel,2.624671916,5d88f2f8cefb52001a83f1b2,68817205a84113384fffdfe3,689d0a3ded0071a597c9b317,,,,,,,,,,,,./stim/wavs/cuban_mismatch_interrogative-total-yn_Mi-madre-come-la-fruta.wav,1,,,54.06,56.427,0,0,1.832,,0,8,8,31,1,32,1,cuban,,,,,,,,,,,,,,,,,,,,,,,,,,,,,,,,,,,,,,,,,,,,,,,,,,,,,,,,
,,,,,,,,,5d88f2f8cefb52001a83f1b2,spanish,13 or older,"no, only English or Spanish",yes,2025-08-13_17h58.14.698,empathy_intonation_perc_control,2024.2.4,MacIntel,2.624671916,5d88f2f8cefb52001a83f1b2,68817205a84113384fffdfe3,689d0a3ded0071a597c9b317,,,,,,,,,,,,./stim/wavs/puertorican_mismatch_interrogative-total-yn_Mi-madre-come-la-fruta.wav,1,,,56.428,58.667,0,0,1.721,,0,9,9,43,1,44,1,puertorican,,,,,,,,,,,,,,,,,,,,,,,,,,,,,,,,,,,,,,,,,,,,,,,,,,,,,,,,
,,,,,,,,,5d88f2f8cefb52001a83f1b2,spanish,13 or older,"no, only English or Spanish",yes,2025-08-13_17h58.14.698,empathy_intonation_perc_control,2024.2.4,MacIntel,2.624671916,5d88f2f8cefb52001a83f1b2,68817205a84113384fffdfe3,689d0a3ded0071a597c9b317,,,,,,,,,,,,./stim/wavs/cuban_mismatch_declarative-broad-focus_El-bebe-comia-muy-bien.wav,0,,,58.668,60.866,0,1,1.664,,0,10,10,73,1,74,0,cuban,,,,,,,,,,,,,,,,,,,,,,,,,,,,,,,,,,,,,,,,,,,,,,,,,,,,,,,,
,,,,,,,,,5d88f2f8cefb52001a83f1b2,spanish,13 or older,"no, only English or Spanish",yes,2025-08-13_17h58.14.698,empathy_intonation_perc_control,2024.2.4,MacIntel,2.624671916,5d88f2f8cefb52001a83f1b2,68817205a84113384fffdfe3,689d0a3ded0071a597c9b317,,,,,,,,,,,,./stim/wavs/castilian_mismatch_declarative-broad-focus_Mi-tia-odia-la-lluvia.wav,0,,,60.866,63.089,0,1,1.703,,0,11,11,72,1,73,0,castilian,,,,,,,,,,,,,,,,,,,,,,,,,,,,,,,,,,,,,,,,,,,,,,,,,,,,,,,,
,,,,,,,,,5d88f2f8cefb52001a83f1b2,spanish,13 or older,"no, only English or Spanish",yes,2025-08-13_17h58.14.698,empathy_intonation_perc_control,2024.2.4,MacIntel,2.624671916,5d88f2f8cefb52001a83f1b2,68817205a84113384fffdfe3,689d0a3ded0071a597c9b317,,,,,,,,,,,,./stim/wavs/cuban_mismatch_declarative-broad-focus_Mi-novio-viene-del-lago.wav,0,,,63.089,65.393,0,1,1.762,,0,12,12,76,1,77,0,cuban,,,,,,,,,,,,,,,,,,,,,,,,,,,,,,,,,,,,,,,,,,,,,,,,,,,,,,,,
,,,,,,,,,5d88f2f8cefb52001a83f1b2,spanish,13 or older,"no, only English or Spanish",yes,2025-08-13_17h58.14.698,empathy_intonation_perc_control,2024.2.4,MacIntel,2.624671916,5d88f2f8cefb52001a83f1b2,68817205a84113384fffdfe3,689d0a3ded0071a597c9b317,,,,,,,,,,,,./stim/wavs/cuban_mismatch_interrogative-total-yn_Mi-tia-odia-la-lluvia.wav,1,,,65.393,67.516,0,0,1.581,,0,13,13,33,1,34,1,cuban,,,,,,,,,,,,,,,,,,,,,,,,,,,,,,,,,,,,,,,,,,,,,,,,,,,,,,,,
,,,,,,,,,5d88f2f8cefb52001a83f1b2,spanish,13 or older,"no, only English or Spanish",yes,2025-08-13_17h58.14.698,empathy_intonation_perc_control,2024.2.4,MacIntel,2.624671916,5d88f2f8cefb52001a83f1b2,68817205a84113384fffdfe3,689d0a3ded0071a597c9b317,,,,,,,,,,,,./stim/wavs/castilian_mismatch_declarative-broad-focus_Mi-novio-viene-del-lago.wav,0,,,67.516,70.019,0,1,1.967,,0,14,14,71,1,72,0,castilian,,,,,,,,,,,,,,,,,,,,,,,,,,,,,,,,,,,,,,,,,,,,,,,,,,,,,,,,
,,,,,,,,,5d88f2f8cefb52001a83f1b2,spanish,13 or older,"no, only English or Spanish",yes,2025-08-13_17h58.14.698,empathy_intonation_perc_control,2024.2.4,MacIntel,2.624671916,5d88f2f8cefb52001a83f1b2,68817205a84113384fffdfe3,689d0a3ded0071a597c9b317,,,,,,,,,,,,./stim/wavs/mexican_mismatch_declarative-broad-focus_Mi-novio-viene-del-lago.wav,0,,,70.02,72.07,0,1,1.515,,0,15,15,81,1,82,0,mexican,,,,,,,,,,,,,,,,,,,,,,,,,,,,,,,,,,,,,,,,,,,,,,,,,,,,,,,,
,,,,,,,,,5d88f2f8cefb52001a83f1b2,spanish,13 or older,"no, only English or Spanish",yes,2025-08-13_17h58.14.698,empathy_intonation_perc_control,2024.2.4,MacIntel,2.624671916,5d88f2f8cefb52001a83f1b2,68817205a84113384fffdfe3,689d0a3ded0071a597c9b317,,,,,,,,,,,,./stim/wavs/castilian_mismatch_interrogative-total-yn_Mi-novio-viene-del-lago.wav,1,,,72.071,74.833,1,1,2.24,,0,16,16,27,1,28,0,castilian,,,,,,,,,,,,,,,,,,,,,,,,,,,,,,,,,,,,,,,,,,,,,,,,,,,,,,,,
,,,,,,,,,5d88f2f8cefb52001a83f1b2,spanish,13 or older,"no, only English or Spanish",yes,2025-08-13_17h58.14.698,empathy_intonation_perc_control,2024.2.4,MacIntel,2.624671916,5d88f2f8cefb52001a83f1b2,68817205a84113384fffdfe3,689d0a3ded0071a597c9b317,,,,,,,,,,,,./stim/wavs/mexican_match_declarative-broad-focus_Daniel-iba-a-Bolivia.wav,0,,,74.833,77.247,0,1,1.89,,0,17,17,57,1,58,0,mexican,,,,,,,,,,,,,,,,,,,,,,,,,,,,,,,,,,,,,,,,,,,,,,,,,,,,,,,,
,,,,,,,,,5d88f2f8cefb52001a83f1b2,spanish,13 or older,"no, only English or Spanish",yes,2025-08-13_17h58.14.698,empathy_intonation_perc_control,2024.2.4,MacIntel,2.624671916,5d88f2f8cefb52001a83f1b2,68817205a84113384fffdfe3,689d0a3ded0071a597c9b317,,,,,,,,,,,,./stim/wavs/cuban_mismatch_interrogative-total-yn_El-hombre-mira-la-luna.wav,1,,,77.247,79.196,1,1,1.408,,0,18,18,29,1,30,1,cuban,,,,,,,,,,,,,,,,,,,,,,,,,,,,,,,,,,,,,,,,,,,,,,,,,,,,,,,,
,,,,,,,,,5d88f2f8cefb52001a83f1b2,spanish,13 or older,"no, only English or Spanish",yes,2025-08-13_17h58.14.698,empathy_intonation_perc_control,2024.2.4,MacIntel,2.624671916,5d88f2f8cefb52001a83f1b2,68817205a84113384fffdfe3,689d0a3ded0071a597c9b317,,,,,,,,,,,,./stim/wavs/puertorican_match_interrogative-total-yn_Daniel-iba-a-Bolivia.wav,1,,,79.197,81.226,1,1,1.492,,0,19,19,19,1,20,1,puertorican,,,,,,,,,,,,,,,,,,,,,,,,,,,,,,,,,,,,,,,,,,,,,,,,,,,,,,,,
,,,,,,,,,5d88f2f8cefb52001a83f1b2,spanish,13 or older,"no, only English or Spanish",yes,2025-08-13_17h58.14.698,empathy_intonation_perc_control,2024.2.4,MacIntel,2.624671916,5d88f2f8cefb52001a83f1b2,68817205a84113384fffdfe3,689d0a3ded0071a597c9b317,,,,,,,,,,,,./stim/wavs/mexican_match_interrogative-total-yn_Ana-lleva-el-abrigo.wav,1,,,81.226,83.213,0,0,1.449,,0,20,20,12,1,13,0,mexican,,,,,,,,,,,,,,,,,,,,,,,,,,,,,,,,,,,,,,,,,,,,,,,,,,,,,,,,
,,,,,,,,,5d88f2f8cefb52001a83f1b2,spanish,13 or older,"no, only English or Spanish",yes,2025-08-13_17h58.14.698,empathy_intonation_perc_control,2024.2.4,MacIntel,2.624671916,5d88f2f8cefb52001a83f1b2,68817205a84113384fffdfe3,689d0a3ded0071a597c9b317,,,,,,,,,,,,./stim/wavs/mexican_match_declarative-broad-focus_Marta-abre-el-regalo.wav,0,,,83.214,85.17,1,0,1.438,,0,21,21,61,1,62,0,mexican,,,,,,,,,,,,,,,,,,,,,,,,,,,,,,,,,,,,,,,,,,,,,,,,,,,,,,,,
,,,,,,,,,5d88f2f8cefb52001a83f1b2,spanish,13 or older,"no, only English or Spanish",yes,2025-08-13_17h58.14.698,empathy_intonation_perc_control,2024.2.4,MacIntel,2.624671916,5d88f2f8cefb52001a83f1b2,68817205a84113384fffdfe3,689d0a3ded0071a597c9b317,,,,,,,,,,,,./stim/wavs/puertorican_match_declarative-broad-focus_Ana-lleva-el-abrigo.wav,0,,,85.17,87.062,0,1,1.367,,0,22,22,62,1,63,0,puertorican,,,,,,,,,,,,,,,,,,,,,,,,,,,,,,,,,,,,,,,,,,,,,,,,,,,,,,,,
,,,,,,,,,5d88f2f8cefb52001a83f1b2,spanish,13 or older,"no, only English or Spanish",yes,2025-08-13_17h58.14.698,empathy_intonation_perc_control,2024.2.4,MacIntel,2.624671916,5d88f2f8cefb52001a83f1b2,68817205a84113384fffdfe3,689d0a3ded0071a597c9b317,,,,,,,,,,,,./stim/wavs/castilian_match_declarative-broad-focus_Manuela-vende-el-carro.wav,0,,,87.063,89.657,0,1,2.057,,0,23,23,46,1,47,0,castilian,,,,,,,,,,,,,,,,,,,,,,,,,,,,,,,,,,,,,,,,,,,,,,,,,,,,,,,,
,,,,,,,,,5d88f2f8cefb52001a83f1b2,spanish,13 or older,"no, only English or Spanish",yes,2025-08-13_17h58.14.698,empathy_intonation_perc_control,2024.2.4,MacIntel,2.624671916,5d88f2f8cefb52001a83f1b2,68817205a84113384fffdfe3,689d0a3ded0071a597c9b317,,,,,,,,,,,,./stim/wavs/castilian_match_declarative-broad-focus_Marta-abre-el-regalo.wav,0,,,89.657,92.134,0,1,1.937,,0,24,24,49,1,50,0,castilian,,,,,,,,,,,,,,,,,,,,,,,,,,,,,,,,,,,,,,,,,,,,,,,,,,,,,,,,
,,,,,,,,,5d88f2f8cefb52001a83f1b2,spanish,13 or older,"no, only English or Spanish",yes,2025-08-13_17h58.14.698,empathy_intonation_perc_control,2024.2.4,MacIntel,2.624671916,5d88f2f8cefb52001a83f1b2,68817205a84113384fffdfe3,689d0a3ded0071a597c9b317,,,,,,,,,,,,./stim/wavs/puertorican_mismatch_declarative-broad-focus_El-hombre-mira-la-luna.wav,0,,,92.135,94.575,1,0,1.902,,0,25,25,84,1,85,0,puertorican,,,,,,,,,,,,,,,,,,,,,,,,,,,,,,,,,,,,,,,,,,,,,,,,,,,,,,,,
,,,,,,,,,5d88f2f8cefb52001a83f1b2,spanish,13 or older,"no, only English or Spanish",yes,2025-08-13_17h58.14.698,empathy_intonation_perc_control,2024.2.4,MacIntel,2.624671916,5d88f2f8cefb52001a83f1b2,68817205a84113384fffdfe3,689d0a3ded0071a597c9b317,,,,,,,,,,,,./stim/wavs/mexican_match_declarative-broad-focus_Mariano-habla-del-tiempo.wav,0,,,94.575,96.819,1,0,1.707,,0,26,26,60,1,61,0,mexican,,,,,,,,,,,,,,,,,,,,,,,,,,,,,,,,,,,,,,,,,,,,,,,,,,,,,,,,
,,,,,,,,,5d88f2f8cefb52001a83f1b2,spanish,13 or older,"no, only English or Spanish",yes,2025-08-13_17h58.14.698,empathy_intonation_perc_control,2024.2.4,MacIntel,2.624671916,5d88f2f8cefb52001a83f1b2,68817205a84113384fffdfe3,689d0a3ded0071a597c9b317,,,,,,,,,,,,./stim/wavs/castilian_match_interrogative-total-yn_Marta-abre-el-regalo.wav,1,,,96.82,99.281,1,1,1.923,,0,27,27,5,1,6,0,castilian,,,,,,,,,,,,,,,,,,,,,,,,,,,,,,,,,,,,,,,,,,,,,,,,,,,,,,,,
,,,,,,,,,5d88f2f8cefb52001a83f1b2,spanish,13 or older,"no, only English or Spanish",yes,2025-08-13_17h58.14.698,empathy_intonation_perc_control,2024.2.4,MacIntel,2.624671916,5d88f2f8cefb52001a83f1b2,68817205a84113384fffdfe3,689d0a3ded0071a597c9b317,,,,,,,,,,,,./stim/wavs/puertorican_mismatch_interrogative-total-yn_La-maestra-vive-en-Paris.wav,1,,,99.282,101.498,0,0,1.675,,0,28,28,41,1,42,1,puertorican,,,,,,,,,,,,,,,,,,,,,,,,,,,,,,,,,,,,,,,,,,,,,,,,,,,,,,,,
,,,,,,,,,5d88f2f8cefb52001a83f1b2,spanish,13 or older,"no, only English or Spanish",yes,2025-08-13_17h58.14.698,empathy_intonation_perc_control,2024.2.4,MacIntel,2.624671916,5d88f2f8cefb52001a83f1b2,68817205a84113384fffdfe3,689d0a3ded0071a597c9b317,,,,,,,,,,,,./stim/wavs/castilian_match_interrogative-total-yn_Manuela-vende-el-carro.wav,1,,,101.499,103.987,1,1,1.947,,0,29,29,2,1,3,0,castilian,,,,,,,,,,,,,,,,,,,,,,,,,,,,,,,,,,,,,,,,,,,,,,,,,,,,,,,,
,,,,,,,,,5d88f2f8cefb52001a83f1b2,spanish,13 or older,"no, only English or Spanish",yes,2025-08-13_17h58.14.698,empathy_intonation_perc_control,2024.2.4,MacIntel,2.624671916,5d88f2f8cefb52001a83f1b2,68817205a84113384fffdfe3,689d0a3ded0071a597c9b317,,,,,,,,,,,,./stim/wavs/cuban_match_interrogative-total-yn_Mariano-habla-del-tiempo.wav,1,,,103.987,106.619,0,0,2.093,,0,30,30,10,1,11,1,cuban,,,,,,,,,,,,,,,,,,,,,,,,,,,,,,,,,,,,,,,,,,,,,,,,,,,,,,,,
,,,,,,,,,5d88f2f8cefb52001a83f1b2,spanish,13 or older,"no, only English or Spanish",yes,2025-08-13_17h58.14.698,empathy_intonation_perc_control,2024.2.4,MacIntel,2.624671916,5d88f2f8cefb52001a83f1b2,68817205a84113384fffdfe3,689d0a3ded0071a597c9b317,,,,,,,,,,,,./stim/wavs/cuban_match_declarative-broad-focus_Maria-bebe-el-vino.wav,0,,,106.62,109.05,1,0,1.891,,0,31,31,53,1,54,0,cuban,,,,,,,,,,,,,,,,,,,,,,,,,,,,,,,,,,,,,,,,,,,,,,,,,,,,,,,,
,,,,,,,,,5d88f2f8cefb52001a83f1b2,spanish,13 or older,"no, only English or Spanish",yes,2025-08-13_17h58.14.698,empathy_intonation_perc_control,2024.2.4,MacIntel,2.624671916,5d88f2f8cefb52001a83f1b2,68817205a84113384fffdfe3,689d0a3ded0071a597c9b317,,,,,,,,,,,,./stim/wavs/puertorican_mismatch_declarative-broad-focus_La-nina-lava-el-plato.wav,0,,,109.05,110.959,0,1,1.389,,0,32,32,87,1,88,0,puertorican,,,,,,,,,,,,,,,,,,,,,,,,,,,,,,,,,,,,,,,,,,,,,,,,,,,,,,,,
,,,,,,,,,5d88f2f8cefb52001a83f1b2,spanish,13 or older,"no, only English or Spanish",yes,2025-08-13_17h58.14.698,empathy_intonation_perc_control,2024.2.4,MacIntel,2.624671916,5d88f2f8cefb52001a83f1b2,68817205a84113384fffdfe3,689d0a3ded0071a597c9b317,,,,,,,,,,,,./stim/wavs/mexican_mismatch_declarative-broad-focus_El-hombre-mira-la-luna.wav,0,,,110.959,113.466,0,1,1.983,,0,33,33,79,1,80,0,mexican,,,,,,,,,,,,,,,,,,,,,,,,,,,,,,,,,,,,,,,,,,,,,,,,,,,,,,,,
,,,,,,,,,5d88f2f8cefb52001a83f1b2,spanish,13 or older,"no, only English or Spanish",yes,2025-08-13_17h58.14.698,empathy_intonation_perc_control,2024.2.4,MacIntel,2.624671916,5d88f2f8cefb52001a83f1b2,68817205a84113384fffdfe3,689d0a3ded0071a597c9b317,,,,,,,,,,,,./stim/wavs/mexican_mismatch_declarative-broad-focus_La-maestra-vive-en-Paris.wav,0,,,113.466,115.686,0,1,1.681,,0,34,34,80,1,81,0,mexican,,,,,,,,,,,,,,,,,,,,,,,,,,,,,,,,,,,,,,,,,,,,,,,,,,,,,,,,
,,,,,,,,,5d88f2f8cefb52001a83f1b2,spanish,13 or older,"no, only English or Spanish",yes,2025-08-13_17h58.14.698,empathy_intonation_perc_control,2024.2.4,MacIntel,2.624671916,5d88f2f8cefb52001a83f1b2,68817205a84113384fffdfe3,689d0a3ded0071a597c9b317,,,,,,,,,,,,./stim/wavs/mexican_match_declarative-broad-focus_Ana-lleva-el-abrigo.wav,0,,,115.686,117.601,0,1,1.376,,0,35,35,56,1,57,0,mexican,,,,,,,,,,,,,,,,,,,,,,,,,,,,,,,,,,,,,,,,,,,,,,,,,,,,,,,,
,,,,,,,,,5d88f2f8cefb52001a83f1b2,spanish,13 or older,"no, only English or Spanish",yes,2025-08-13_17h58.14.698,empathy_intonation_perc_control,2024.2.4,MacIntel,2.624671916,5d88f2f8cefb52001a83f1b2,68817205a84113384fffdfe3,689d0a3ded0071a597c9b317,,,,,,,,,,,,./stim/wavs/mexican_match_interrogative-total-yn_Mariano-habla-del-tiempo.wav,1,,,117.601,119.847,1,1,1.711,,0,36,36,16,1,17,0,mexican,,,,,,,,,,,,,,,,,,,,,,,,,,,,,,,,,,,,,,,,,,,,,,,,,,,,,,,,
,,,,,,,,,5d88f2f8cefb52001a83f1b2,spanish,13 or older,"no, only English or Spanish",yes,2025-08-13_17h58.14.698,empathy_intonation_perc_control,2024.2.4,MacIntel,2.624671916,5d88f2f8cefb52001a83f1b2,68817205a84113384fffdfe3,689d0a3ded0071a597c9b317,,,,,,,,,,,,./stim/wavs/mexican_match_interrogative-total-yn_Emilio-ama-la-marcha.wav,1,,,119.847,121.903,1,1,1.533,,0,37,37,15,1,16,0,mexican,,,,,,,,,,,,,,,,,,,,,,,,,,,,,,,,,,,,,,,,,,,,,,,,,,,,,,,,
,,,,,,,,,5d88f2f8cefb52001a83f1b2,spanish,13 or older,"no, only English or Spanish",yes,2025-08-13_17h58.14.698,empathy_intonation_perc_control,2024.2.4,MacIntel,2.624671916,5d88f2f8cefb52001a83f1b2,68817205a84113384fffdfe3,689d0a3ded0071a597c9b317,,,,,,,,,,,,./stim/wavs/cuban_match_interrogative-total-yn_Marta-abre-el-regalo.wav,1,,,121.903,124.082,0,0,1.641,,0,38,38,11,1,12,1,cuban,,,,,,,,,,,,,,,,,,,,,,,,,,,,,,,,,,,,,,,,,,,,,,,,,,,,,,,,
,,,,,,,,,5d88f2f8cefb52001a83f1b2,spanish,13 or older,"no, only English or Spanish",yes,2025-08-13_17h58.14.698,empathy_intonation_perc_control,2024.2.4,MacIntel,2.624671916,5d88f2f8cefb52001a83f1b2,68817205a84113384fffdfe3,689d0a3ded0071a597c9b317,,,,,,,,,,,,./stim/wavs/puertorican_mismatch_interrogative-total-yn_El-hombre-mira-la-luna.wav,1,,,124.082,126.067,1,1,1.445,,0,39,39,39,1,40,1,puertorican,,,,,,,,,,,,,,,,,,,,,,,,,,,,,,,,,,,,,,,,,,,,,,,,,,,,,,,,
,,,,,,,,,5d88f2f8cefb52001a83f1b2,spanish,13 or older,"no, only English or Spanish",yes,2025-08-13_17h58.14.698,empathy_intonation_perc_control,2024.2.4,MacIntel,2.624671916,5d88f2f8cefb52001a83f1b2,68817205a84113384fffdfe3,689d0a3ded0071a597c9b317,,,,,,,,,,,,./stim/wavs/mexican_match_declarative-broad-focus_Emilio-ama-la-marcha.wav,0,,,126.067,128.347,1,0,1.742,,0,40,40,59,1,60,0,mexican,,,,,,,,,,,,,,,,,,,,,,,,,,,,,,,,,,,,,,,,,,,,,,,,,,,,,,,,
,,,,,,,,,5d88f2f8cefb52001a83f1b2,spanish,13 or older,"no, only English or Spanish",yes,2025-08-13_17h58.14.698,empathy_intonation_perc_control,2024.2.4,MacIntel,2.624671916,5d88f2f8cefb52001a83f1b2,68817205a84113384fffdfe3,689d0a3ded0071a597c9b317,,,,,,,,,,,,./stim/wavs/cuban_match_declarative-broad-focus_Ana-lleva-el-abrigo.wav,0,,,128.348,130.419,0,1,1.537,,0,41,41,50,1,51,0,cuban,,,,,,,,,,,,,,,,,,,,,,,,,,,,,,,,,,,,,,,,,,,,,,,,,,,,,,,,
,,,,,,,,,5d88f2f8cefb52001a83f1b2,spanish,13 or older,"no, only English or Spanish",yes,2025-08-13_17h58.14.698,empathy_intonation_perc_control,2024.2.4,MacIntel,2.624671916,5d88f2f8cefb52001a83f1b2,68817205a84113384fffdfe3,689d0a3ded0071a597c9b317,,,,,,,,,,,,./stim/wavs/castilian_mismatch_declarative-broad-focus_La-maestra-vive-en-Paris.wav,0,,,130.42,132.93,0,1,1.97,,0,42,42,69,1,70,0,castilian,,,,,,,,,,,,,,,,,,,,,,,,,,,,,,,,,,,,,,,,,,,,,,,,,,,,,,,,
,,,,,,,,,5d88f2f8cefb52001a83f1b2,spanish,13 or older,"no, only English or Spanish",yes,2025-08-13_17h58.14.698,empathy_intonation_perc_control,2024.2.4,MacIntel,2.624671916,5d88f2f8cefb52001a83f1b2,68817205a84113384fffdfe3,689d0a3ded0071a597c9b317,,,,,,,,,,,,./stim/wavs/mexican_mismatch_declarative-broad-focus_Mi-tia-odia-la-lluvia.wav,0,,,132.93,135.038,0,1,1.574,,0,43,43,82,1,83,0,mexican,,,,,,,,,,,,,,,,,,,,,,,,,,,,,,,,,,,,,,,,,,,,,,,,,,,,,,,,
,,,,,,,,,5d88f2f8cefb52001a83f1b2,spanish,13 or older,"no, only English or Spanish",yes,2025-08-13_17h58.14.698,empathy_intonation_perc_control,2024.2.4,MacIntel,2.624671916,5d88f2f8cefb52001a83f1b2,68817205a84113384fffdfe3,689d0a3ded0071a597c9b317,,,,,,,,,,,,./stim/wavs/puertorican_mismatch_declarative-broad-focus_El-bebe-comia-muy-bien.wav,0,,,135.038,137.358,0,1,1.783,,0,44,44,83,1,84,0,puertorican,,,,,,,,,,,,,,,,,,,,,,,,,,,,,,,,,,,,,,,,,,,,,,,,,,,,,,,,
,,,,,,,,,5d88f2f8cefb52001a83f1b2,spanish,13 or older,"no, only English or Spanish",yes,2025-08-13_17h58.14.698,empathy_intonation_perc_control,2024.2.4,MacIntel,2.624671916,5d88f2f8cefb52001a83f1b2,68817205a84113384fffdfe3,689d0a3ded0071a597c9b317,,,,,,,,,,,,./stim/wavs/mexican_mismatch_interrogative-total-yn_Mi-novio-viene-del-lago.wav,1,,,137.358,139.519,1,1,1.621,,0,45,45,37,1,38,0,mexican,,,,,,,,,,,,,,,,,,,,,,,,,,,,,,,,,,,,,,,,,,,,,,,,,,,,,,,,
,,,,,,,,,5d88f2f8cefb52001a83f1b2,spanish,13 or older,"no, only English or Spanish",yes,2025-08-13_17h58.14.698,empathy_intonation_perc_control,2024.2.4,MacIntel,2.624671916,5d88f2f8cefb52001a83f1b2,68817205a84113384fffdfe3,689d0a3ded0071a597c9b317,,,,,,,,,,,,./stim/wavs/cuban_mismatch_declarative-broad-focus_La-nina-lava-el-plato.wav,0,,,139.519,141.612,0,1,1.553,,0,46,46,75,1,76,0,cuban,,,,,,,,,,,,,,,,,,,,,,,,,,,,,,,,,,,,,,,,,,,,,,,,,,,,,,,,
,,,,,,,,,5d88f2f8cefb52001a83f1b2,spanish,13 or older,"no, only English or Spanish",yes,2025-08-13_17h58.14.698,empathy_intonation_perc_control,2024.2.4,MacIntel,2.624671916,5d88f2f8cefb52001a83f1b2,68817205a84113384fffdfe3,689d0a3ded0071a597c9b317,,,,,,,,,,,,./stim/wavs/puertorican_mismatch_interrogative-total-yn_El-nino-oye-el-rio.wav,1,,,141.613,143.524,0,0,1.387,,0,47,47,40,1,41,1,puertorican,,,,,,,,,,,,,,,,,,,,,,,,,,,,,,,,,,,,,,,,,,,,,,,,,,,,,,,,
,,,,,,,,,5d88f2f8cefb52001a83f1b2,spanish,13 or older,"no, only English or Spanish",yes,2025-08-13_17h58.14.698,empathy_intonation_perc_control,2024.2.4,MacIntel,2.624671916,5d88f2f8cefb52001a83f1b2,68817205a84113384fffdfe3,689d0a3ded0071a597c9b317,,,,,,,,,,,,./stim/wavs/puertorican_match_declarative-broad-focus_Emilio-ama-la-marcha.wav,0,,,143.524,145.319,0,1,1.263,,0,48,48,65,1,66,0,puertorican,,,,,,,,,,,,,,,,,,,,,,,,,,,,,,,,,,,,,,,,,,,,,,,,,,,,,,,,
,,,,,,,,,5d88f2f8cefb52001a83f1b2,spanish,13 or older,"no, only English or Spanish",yes,2025-08-13_17h58.14.698,empathy_intonation_perc_control,2024.2.4,MacIntel,2.624671916,5d88f2f8cefb52001a83f1b2,68817205a84113384fffdfe3,689d0a3ded0071a597c9b317,,,,,,,,,,,,./stim/wavs/puertorican_match_interrogative-total-yn_Emilio-ama-la-marcha.wav,1,,,145.319,147.387,0,0,1.535,,0,49,49,21,1,22,1,puertorican,,,,,,,,,,,,,,,,,,,,,,,,,,,,,,,,,,,,,,,,,,,,,,,,,,,,,,,,
,,,,,,,,,5d88f2f8cefb52001a83f1b2,spanish,13 or older,"no, only English or Spanish",yes,2025-08-13_17h58.14.698,empathy_intonation_perc_control,2024.2.4,MacIntel,2.624671916,5d88f2f8cefb52001a83f1b2,68817205a84113384fffdfe3,689d0a3ded0071a597c9b317,,,,,,,,,,,,./stim/wavs/cuban_mismatch_declarative-broad-focus_Mi-tia-odia-la-lluvia.wav,0,,,147.387,149.814,1,0,1.89,,0,50,50,77,1,78,0,cuban,,,,,,,,,,,,,,,,,,,,,,,,,,,,,,,,,,,,,,,,,,,,,,,,,,,,,,,,
,,,,,,,,,5d88f2f8cefb52001a83f1b2,spanish,13 or older,"no, only English or Spanish",yes,2025-08-13_17h58.14.698,empathy_intonation_perc_control,2024.2.4,MacIntel,2.624671916,5d88f2f8cefb52001a83f1b2,68817205a84113384fffdfe3,689d0a3ded0071a597c9b317,,,,,,,,,,,,./stim/wavs/castilian_match_interrogative-total-yn_Emilio-ama-la-marcha.wav,1,,,149.815,152.017,1,1,1.678,,0,51,51,1,1,2,0,castilian,,,,,,,,,,,,,,,,,,,,,,,,,,,,,,,,,,,,,,,,,,,,,,,,,,,,,,,,
,,,,,,,,,5d88f2f8cefb52001a83f1b2,spanish,13 or older,"no, only English or Spanish",yes,2025-08-13_17h58.14.698,empathy_intonation_perc_control,2024.2.4,MacIntel,2.624671916,5d88f2f8cefb52001a83f1b2,68817205a84113384fffdfe3,689d0a3ded0071a597c9b317,,,,,,,,,,,,./stim/wavs/cuban_match_interrogative-total-yn_Daniel-iba-a-Bolivia.wav,1,,,152.018,154.244,0,0,1.686,,0,52,52,7,1,8,1,cuban,,,,,,,,,,,,,,,,,,,,,,,,,,,,,,,,,,,,,,,,,,,,,,,,,,,,,,,,
,,,,,,,,,5d88f2f8cefb52001a83f1b2,spanish,13 or older,"no, only English or Spanish",yes,2025-08-13_17h58.14.698,empathy_intonation_perc_control,2024.2.4,MacIntel,2.624671916,5d88f2f8cefb52001a83f1b2,68817205a84113384fffdfe3,689d0a3ded0071a597c9b317,,,,,,,,,,,,./stim/wavs/puertorican_match_declarative-broad-focus_Manuela-vende-el-carro.wav,0,,,154.244,156.28,0,1,1.516,,0,53,53,66,1,67,0,puertorican,,,,,,,,,,,,,,,,,,,,,,,,,,,,,,,,,,,,,,,,,,,,,,,,,,,,,,,,
,,,,,,,,,5d88f2f8cefb52001a83f1b2,spanish,13 or older,"no, only English or Spanish",yes,2025-08-13_17h58.14.698,empathy_intonation_perc_control,2024.2.4,MacIntel,2.624671916,5d88f2f8cefb52001a83f1b2,68817205a84113384fffdfe3,689d0a3ded0071a597c9b317,,,,,,,,,,,,./stim/wavs/castilian_mismatch_interrogative-total-yn_Mi-madre-come-la-fruta.wav,1,,,156.28,158.536,1,1,1.718,,0,54,54,26,1,27,0,castilian,,,,,,,,,,,,,,,,,,,,,,,,,,,,,,,,,,,,,,,,,,,,,,,,,,,,,,,,
,,,,,,,,,5d88f2f8cefb52001a83f1b2,spanish,13 or older,"no, only English or Spanish",yes,2025-08-13_17h58.14.698,empathy_intonation_perc_control,2024.2.4,MacIntel,2.624671916,5d88f2f8cefb52001a83f1b2,68817205a84113384fffdfe3,689d0a3ded0071a597c9b317,,,,,,,,,,,,./stim/wavs/puertorican_match_interrogative-total-yn_David-leia-el-libro.wav,1,,,158.536,160.513,0,0,1.443,,0,55,55,20,1,21,1,puertorican,,,,,,,,,,,,,,,,,,,,,,,,,,,,,,,,,,,,,,,,,,,,,,,,,,,,,,,,
,,,,,,,,,5d88f2f8cefb52001a83f1b2,spanish,13 or older,"no, only English or Spanish",yes,2025-08-13_17h58.14.698,empathy_intonation_perc_control,2024.2.4,MacIntel,2.624671916,5d88f2f8cefb52001a83f1b2,68817205a84113384fffdfe3,689d0a3ded0071a597c9b317,,,,,,,,,,,,./stim/wavs/puertorican_match_declarative-broad-focus_David-leia-el-libro.wav,0,,,160.513,162.55,0,1,1.499,,0,56,56,64,1,65,0,puertorican,,,,,,,,,,,,,,,,,,,,,,,,,,,,,,,,,,,,,,,,,,,,,,,,,,,,,,,,
,,,,,,,,,5d88f2f8cefb52001a83f1b2,spanish,13 or older,"no, only English or Spanish",yes,2025-08-13_17h58.14.698,empathy_intonation_perc_control,2024.2.4,MacIntel,2.624671916,5d88f2f8cefb52001a83f1b2,68817205a84113384fffdfe3,689d0a3ded0071a597c9b317,,,,,,,,,,,,./stim/wavs/mexican_mismatch_interrogative-total-yn_La-maestra-vive-en-Paris.wav,1,,,162.55,164.767,1,1,1.68,,0,57,57,36,1,37,0,mexican,,,,,,,,,,,,,,,,,,,,,,,,,,,,,,,,,,,,,,,,,,,,,,,,,,,,,,,,
,,,,,,,,,5d88f2f8cefb52001a83f1b2,spanish,13 or older,"no, only English or Spanish",yes,2025-08-13_17h58.14.698,empathy_intonation_perc_control,2024.2.4,MacIntel,2.624671916,5d88f2f8cefb52001a83f1b2,68817205a84113384fffdfe3,689d0a3ded0071a597c9b317,,,,,,,,,,,,./stim/wavs/puertorican_match_declarative-broad-focus_Maria-bebe-el-vino.wav,0,,,164.767,166.919,1,0,1.616,,0,58,58,67,1,68,0,puertorican,,,,,,,,,,,,,,,,,,,,,,,,,,,,,,,,,,,,,,,,,,,,,,,,,,,,,,,,
,,,,,,,,,5d88f2f8cefb52001a83f1b2,spanish,13 or older,"no, only English or Spanish",yes,2025-08-13_17h58.14.698,empathy_intonation_perc_control,2024.2.4,MacIntel,2.624671916,5d88f2f8cefb52001a83f1b2,68817205a84113384fffdfe3,689d0a3ded0071a597c9b317,,,,,,,,,,,,./stim/wavs/cuban_match_interrogative-total-yn_Manuela-vende-el-carro.wav,1,,,166.919,168.926,1,1,1.488,,0,59,59,8,1,9,1,cuban,,,,,,,,,,,,,,,,,,,,,,,,,,,,,,,,,,,,,,,,,,,,,,,,,,,,,,,,
,,,,,,,,,5d88f2f8cefb52001a83f1b2,spanish,13 or older,"no, only English or Spanish",yes,2025-08-13_17h58.14.698,empathy_intonation_perc_control,2024.2.4,MacIntel,2.624671916,5d88f2f8cefb52001a83f1b2,68817205a84113384fffdfe3,689d0a3ded0071a597c9b317,,,,,,,,,,,,./stim/wavs/puertorican_match_interrogative-total-yn_Ana-lleva-el-abrigo.wav,1,,,168.926,170.758,1,1,1.305,,0,60,60,18,1,19,1,puertorican,,,,,,,,,,,,,,,,,,,,,,,,,,,,,,,,,,,,,,,,,,,,,,,,,,,,,,,,
,,,,,,,,,5d88f2f8cefb52001a83f1b2,spanish,13 or older,"no, only English or Spanish",yes,2025-08-13_17h58.14.698,empathy_intonation_perc_control,2024.2.4,MacIntel,2.624671916,5d88f2f8cefb52001a83f1b2,68817205a84113384fffdfe3,689d0a3ded0071a597c9b317,,,,,,,,,,,,./stim/wavs/mexican_mismatch_interrogative-total-yn_El-hombre-mira-la-luna.wav,1,,,170.758,172.954,1,1,1.677,,0,61,61,34,1,35,0,mexican,,,,,,,,,,,,,,,,,,,,,,,,,,,,,,,,,,,,,,,,,,,,,,,,,,,,,,,,
,,,,,,,,,5d88f2f8cefb52001a83f1b2,spanish,13 or older,"no, only English or Spanish",yes,2025-08-13_17h58.14.698,empathy_intonation_perc_control,2024.2.4,MacIntel,2.624671916,5d88f2f8cefb52001a83f1b2,68817205a84113384fffdfe3,689d0a3ded0071a597c9b317,,,,,,,,,,,,./stim/wavs/castilian_mismatch_interrogative-total-yn_Mi-tia-odia-la-lluvia.wav,1,,,172.954,175.195,1,1,1.702,,0,62,62,28,1,29,0,castilian,,,,,,,,,,,,,,,,,,,,,,,,,,,,,,,,,,,,,,,,,,,,,,,,,,,,,,,,
,,,,,,,,,5d88f2f8cefb52001a83f1b2,spanish,13 or older,"no, only English or Spanish",yes,2025-08-13_17h58.14.698,empathy_intonation_perc_control,2024.2.4,MacIntel,2.624671916,5d88f2f8cefb52001a83f1b2,68817205a84113384fffdfe3,689d0a3ded0071a597c9b317,,,,,,,,,,,,./stim/wavs/castilian_match_declarative-broad-focus_Mariano-habla-del-tiempo.wav,0,,,175.196,177.774,0,1,2.042,,0,63,63,48,1,49,0,castilian,,,,,,,,,,,,,,,,,,,,,,,,,,,,,,,,,,,,,,,,,,,,,,,,,,,,,,,,
,,,,,,,,,5d88f2f8cefb52001a83f1b2,spanish,13 or older,"no, only English or Spanish",yes,2025-08-13_17h58.14.698,empathy_intonation_perc_control,2024.2.4,MacIntel,2.624671916,5d88f2f8cefb52001a83f1b2,68817205a84113384fffdfe3,689d0a3ded0071a597c9b317,,,,,,,,,,,,./stim/wavs/castilian_match_declarative-broad-focus_David-leia-el-libro.wav,0,,,177.775,180.16,0,1,1.848,,0,64,64,44,1,45,0,castilian,,,,,,,,,,,,,,,,,,,,,,,,,,,,,,,,,,,,,,,,,,,,,,,,,,,,,,,,
,,,,,,,,,5d88f2f8cefb52001a83f1b2,spanish,13 or older,"no, only English or Spanish",yes,2025-08-13_17h58.14.698,empathy_intonation_perc_control,2024.2.4,MacIntel,2.624671916,5d88f2f8cefb52001a83f1b2,68817205a84113384fffdfe3,689d0a3ded0071a597c9b317,,,,,,,,,,,,./stim/wavs/cuban_match_declarative-broad-focus_Manuela-vende-el-carro.wav,0,,,180.16,182.38,0,1,1.681,,0,65,65,52,1,53,0,cuban,,,,,,,,,,,,,,,,,,,,,,,,,,,,,,,,,,,,,,,,,,,,,,,,,,,,,,,,
,,,,,,,,,5d88f2f8cefb52001a83f1b2,spanish,13 or older,"no, only English or Spanish",yes,2025-08-13_17h58.14.698,empathy_intonation_perc_control,2024.2.4,MacIntel,2.624671916,5d88f2f8cefb52001a83f1b2,68817205a84113384fffdfe3,689d0a3ded0071a597c9b317,,,,,,,,,,,,./stim/wavs/castilian_mismatch_interrogative-total-yn_La-maestra-vive-en-Paris.wav,1,,,182.38,185.036,1,1,2.119,,0,66,66,24,1,25,0,castilian,,,,,,,,,,,,,,,,,,,,,,,,,,,,,,,,,,,,,,,,,,,,,,,,,,,,,,,,
,,,,,,,,,5d88f2f8cefb52001a83f1b2,spanish,13 or older,"no, only English or Spanish",yes,2025-08-13_17h58.14.698,empathy_intonation_perc_control,2024.2.4,MacIntel,2.624671916,5d88f2f8cefb52001a83f1b2,68817205a84113384fffdfe3,689d0a3ded0071a597c9b317,,,,,,,,,,,,./stim/wavs/cuban_match_declarative-broad-focus_Marta-abre-el-regalo.wav,0,,,185.036,187.284,0,1,1.728,,0,67,67,55,1,56,0,cuban,,,,,,,,,,,,,,,,,,,,,,,,,,,,,,,,,,,,,,,,,,,,,,,,,,,,,,,,
,,,,,,,,,5d88f2f8cefb52001a83f1b2,spanish,13 or older,"no, only English or Spanish",yes,2025-08-13_17h58.14.698,empathy_intonation_perc_control,2024.2.4,MacIntel,2.624671916,5d88f2f8cefb52001a83f1b2,68817205a84113384fffdfe3,689d0a3ded0071a597c9b317,,,,,,,,,,,,./stim/wavs/cuban_match_declarative-broad-focus_Mariano-habla-del-tiempo.wav,0,,,187.284,189.689,1,0,1.867,,0,68,68,54,1,55,0,cuban,,,,,,,,,,,,,,,,,,,,,,,,,,,,,,,,,,,,,,,,,,,,,,,,,,,,,,,,
,,,,,,,,,5d88f2f8cefb52001a83f1b2,spanish,13 or older,"no, only English or Spanish",yes,2025-08-13_17h58.14.698,empathy_intonation_perc_control,2024.2.4,MacIntel,2.624671916,5d88f2f8cefb52001a83f1b2,68817205a84113384fffdfe3,689d0a3ded0071a597c9b317,,,,,,,,,,,,./stim/wavs/castilian_mismatch_declarative-broad-focus_El-nino-oye-el-rio.wav,0,,,189.689,191.909,0,1,1.699,,0,69,69,68,1,69,0,castilian,,,,,,,,,,,,,,,,,,,,,,,,,,,,,,,,,,,,,,,,,,,,,,,,,,,,,,,,
,,,,,,,,,5d88f2f8cefb52001a83f1b2,spanish,13 or older,"no, only English or Spanish",yes,2025-08-13_17h58.14.698,empathy_intonation_perc_control,2024.2.4,MacIntel,2.624671916,5d88f2f8cefb52001a83f1b2,68817205a84113384fffdfe3,689d0a3ded0071a597c9b317,,,,,,,,,,,,./stim/wavs/cuban_match_declarative-broad-focus_Daniel-iba-a-Bolivia.wav,0,,,191.909,194.222,0,1,1.788,,0,70,70,51,1,52,0,cuban,,,,,,,,,,,,,,,,,,,,,,,,,,,,,,,,,,,,,,,,,,,,,,,,,,,,,,,,
,,,,,,,,,5d88f2f8cefb52001a83f1b2,spanish,13 or older,"no, only English or Spanish",yes,2025-08-13_17h58.14.698,empathy_intonation_perc_control,2024.2.4,MacIntel,2.624671916,5d88f2f8cefb52001a83f1b2,68817205a84113384fffdfe3,689d0a3ded0071a597c9b317,,,,,,,,,,,,./stim/wavs/puertorican_mismatch_declarative-broad-focus_El-nino-oye-el-rio.wav,0,,,194.223,196.049,0,1,1.306,,0,71,71,85,1,86,0,puertorican,,,,,,,,,,,,,,,,,,,,,,,,,,,,,,,,,,,,,,,,,,,,,,,,,,,,,,,,
,,,,,,,,,5d88f2f8cefb52001a83f1b2,spanish,13 or older,"no, only English or Spanish",yes,2025-08-13_17h58.14.698,empathy_intonation_perc_control,2024.2.4,MacIntel,2.624671916,5d88f2f8cefb52001a83f1b2,68817205a84113384fffdfe3,689d0a3ded0071a597c9b317,,,,,,,,,,,,./stim/wavs/puertorican_mismatch_declarative-broad-focus_La-maestra-vive-en-Paris.wav,0,,,196.05,198.089,0,1,1.515,,0,72,72,86,1,87,0,puertorican,,,,,,,,,,,,,,,,,,,,,,,,,,,,,,,,,,,,,,,,,,,,,,,,,,,,,,,,
,,,,,,,,,5d88f2f8cefb52001a83f1b2,spanish,13 or older,"no, only English or Spanish",yes,2025-08-13_17h58.14.698,empathy_intonation_perc_control,2024.2.4,MacIntel,2.624671916,5d88f2f8cefb52001a83f1b2,68817205a84113384fffdfe3,689d0a3ded0071a597c9b317,,,,,,,,,,,,./stim/wavs/cuban_match_interrogative-total-yn_Ana-lleva-el-abrigo.wav,1,,,198.089,200.074,1,1,1.448,,0,73,73,6,1,7,1,cuban,,,,,,,,,,,,,,,,,,,,,,,,,,,,,,,,,,,,,,,,,,,,,,,,,,,,,,,,
,,,,,,,,,5d88f2f8cefb52001a83f1b2,spanish,13 or older,"no, only English or Spanish",yes,2025-08-13_17h58.14.698,empathy_intonation_perc_control,2024.2.4,MacIntel,2.624671916,5d88f2f8cefb52001a83f1b2,68817205a84113384fffdfe3,689d0a3ded0071a597c9b317,,,,,,,,,,,,./stim/wavs/castilian_match_declarative-broad-focus_Maria-bebe-el-vino.wav,0,,,200.074,202.292,1,0,1.696,,0,74,74,47,1,48,0,castilian,,,,,,,,,,,,,,,,,,,,,,,,,,,,,,,,,,,,,,,,,,,,,,,,,,,,,,,,
,,,,,,,,,5d88f2f8cefb52001a83f1b2,spanish,13 or older,"no, only English or Spanish",yes,2025-08-13_17h58.14.698,empathy_intonation_perc_control,2024.2.4,MacIntel,2.624671916,5d88f2f8cefb52001a83f1b2,68817205a84113384fffdfe3,689d0a3ded0071a597c9b317,,,,,,,,,,,,./stim/wavs/puertorican_match_interrogative-total-yn_Maria-bebe-el-vino.wav,1,,,202.292,204.461,0,0,1.634,,0,75,75,23,1,24,1,puertorican,,,,,,,,,,,,,,,,,,,,,,,,,,,,,,,,,,,,,,,,,,,,,,,,,,,,,,,,
,,,,,,,,,5d88f2f8cefb52001a83f1b2,spanish,13 or older,"no, only English or Spanish",yes,2025-08-13_17h58.14.698,empathy_intonation_perc_control,2024.2.4,MacIntel,2.624671916,5d88f2f8cefb52001a83f1b2,68817205a84113384fffdfe3,689d0a3ded0071a597c9b317,,,,,,,,,,,,./stim/wavs/castilian_match_interrogative-total-yn_David-leia-el-libro.wav,1,,,204.462,206.665,1,1,1.665,,0,76,76,0,1,1,0,castilian,,,,,,,,,,,,,,,,,,,,,,,,,,,,,,,,,,,,,,,,,,,,,,,,,,,,,,,,
,,,,,,,,,5d88f2f8cefb52001a83f1b2,spanish,13 or older,"no, only English or Spanish",yes,2025-08-13_17h58.14.698,empathy_intonation_perc_control,2024.2.4,MacIntel,2.624671916,5d88f2f8cefb52001a83f1b2,68817205a84113384fffdfe3,689d0a3ded0071a597c9b317,,,,,,,,,,,,./stim/wavs/castilian_match_declarative-broad-focus_Emilio-ama-la-marcha.wav,0,,,206.666,208.9,1,0,1.698,,0,77,77,45,1,46,0,castilian,,,,,,,,,,,,,,,,,,,,,,,,,,,,,,,,,,,,,,,,,,,,,,,,,,,,,,,,
,,,,,,,,,5d88f2f8cefb52001a83f1b2,spanish,13 or older,"no, only English or Spanish",yes,2025-08-13_17h58.14.698,empathy_intonation_perc_control,2024.2.4,MacIntel,2.624671916,5d88f2f8cefb52001a83f1b2,68817205a84113384fffdfe3,689d0a3ded0071a597c9b317,,,,,,,,,,,,./stim/wavs/mexican_mismatch_interrogative-total-yn_Mi-tia-odia-la-lluvia.wav,1,,,208.9,210.847,0,0,1.41,,0,78,78,38,1,39,0,mexican,,,,,,,,,,,,,,,,,,,,,,,,,,,,,,,,,,,,,,,,,,,,,,,,,,,,,,,,
,,,,,,,,,5d88f2f8cefb52001a83f1b2,spanish,13 or older,"no, only English or Spanish",yes,2025-08-13_17h58.14.698,empathy_intonation_perc_control,2024.2.4,MacIntel,2.624671916,5d88f2f8cefb52001a83f1b2,68817205a84113384fffdfe3,689d0a3ded0071a597c9b317,,,,,,,,,,,,./stim/wavs/castilian_mismatch_declarative-broad-focus_La-nina-lava-el-plato.wav,0,,,210.848,213.316,0,1,1.93,,0,79,79,70,1,71,0,castilian,,,,,,,,,,,,,,,,,,,,,,,,,,,,,,,,,,,,,,,,,,,,,,,,,,,,,,,,
,,,,,,,,,5d88f2f8cefb52001a83f1b2,spanish,13 or older,"no, only English or Spanish",yes,2025-08-13_17h58.14.698,empathy_intonation_perc_control,2024.2.4,MacIntel,2.624671916,5d88f2f8cefb52001a83f1b2,68817205a84113384fffdfe3,689d0a3ded0071a597c9b317,,,,,,,,,,,,./stim/wavs/puertorican_match_interrogative-total-yn_Manuela-vende-el-carro.wav,1,,,213.317,215.243,0,0,1.406,,0,80,80,22,1,23,1,puertorican,,,,,,,,,,,,,,,,,,,,,,,,,,,,,,,,,,,,,,,,,,,,,,,,,,,,,,,,
,,,,,,,,,5d88f2f8cefb52001a83f1b2,spanish,13 or older,"no, only English or Spanish",yes,2025-08-13_17h58.14.698,empathy_intonation_perc_control,2024.2.4,MacIntel,2.624671916,5d88f2f8cefb52001a83f1b2,68817205a84113384fffdfe3,689d0a3ded0071a597c9b317,,,,,,,,,,,,./stim/wavs/cuban_mismatch_interrogative-total-yn_El-nino-oye-el-rio.wav,1,,,215.244,217.089,0,0,1.322,,0,81,81,30,1,31,1,cuban,,,,,,,,,,,,,,,,,,,,,,,,,,,,,,,,,,,,,,,,,,,,,,,,,,,,,,,,
,,,,,,,,,5d88f2f8cefb52001a83f1b2,spanish,13 or older,"no, only English or Spanish",yes,2025-08-13_17h58.14.698,empathy_intonation_perc_control,2024.2.4,MacIntel,2.624671916,5d88f2f8cefb52001a83f1b2,68817205a84113384fffdfe3,689d0a3ded0071a597c9b317,,,,,,,,,,,,./stim/wavs/castilian_mismatch_interrogative-total-yn_La-nina-lava-el-plato.wav,1,,,217.089,219.309,1,1,1.683,,0,82,82,25,1,26,0,castilian,,,,,,,,,,,,,,,,,,,,,,,,,,,,,,,,,,,,,,,,,,,,,,,,,,,,,,,,
,,,,,,,,,5d88f2f8cefb52001a83f1b2,spanish,13 or older,"no, only English or Spanish",yes,2025-08-13_17h58.14.698,empathy_intonation_perc_control,2024.2.4,MacIntel,2.624671916,5d88f2f8cefb52001a83f1b2,68817205a84113384fffdfe3,689d0a3ded0071a597c9b317,,,,,,,,,,,,./stim/wavs/cuban_mismatch_interrogative-total-yn_Mi-novio-viene-del-lago.wav,1,,,219.31,221.597,0,0,1.753,,0,83,83,32,1,33,1,cuban,,,,,,,,,,,,,,,,,,,,,,,,,,,,,,,,,,,,,,,,,,,,,,,,,,,,,,,,
,,,,,,,,,5d88f2f8cefb52001a83f1b2,spanish,13 or older,"no, only English or Spanish",yes,2025-08-13_17h58.14.698,empathy_intonation_perc_control,2024.2.4,MacIntel,2.624671916,5d88f2f8cefb52001a83f1b2,68817205a84113384fffdfe3,689d0a3ded0071a597c9b317,,,,,,,,,,,,./stim/wavs/mexican_mismatch_declarative-broad-focus_El-bebe-comia-muy-bien.wav,0,,,221.597,223.716,0,1,1.596,,0,84,84,78,1,79,0,mexican,,,,,,,,,,,,,,,,,,,,,,,,,,,,,,,,,,,,,,,,,,,,,,,,,,,,,,,,
,,,,,,,,,5d88f2f8cefb52001a83f1b2,spanish,13 or older,"no, only English or Spanish",yes,2025-08-13_17h58.14.698,empathy_intonation_perc_control,2024.2.4,MacIntel,2.624671916,5d88f2f8cefb52001a83f1b2,68817205a84113384fffdfe3,689d0a3ded0071a597c9b317,,,,,,,,,,,,./stim/wavs/cuban_mismatch_declarative-broad-focus_El-hombre-mira-la-luna.wav,0,,,223.716,225.603,0,1,1.363,,0,85,85,74,1,75,0,cuban,,,,,,,,,,,,,,,,,,,,,,,,,,,,,,,,,,,,,,,,,,,,,,,,,,,,,,,,
,,,,,,,,,5d88f2f8cefb52001a83f1b2,spanish,13 or older,"no, only English or Spanish",yes,2025-08-13_17h58.14.698,empathy_intonation_perc_control,2024.2.4,MacIntel,2.624671916,5d88f2f8cefb52001a83f1b2,68817205a84113384fffdfe3,689d0a3ded0071a597c9b317,,,,,,,,,,,,./stim/wavs/puertorican_mismatch_interrogative-total-yn_La-nina-lava-el-plato.wav,1,,,225.603,227.845,0,0,1.702,,0,86,86,42,1,43,1,puertorican,,,,,,,,,,,,,,,,,,,,,,,,,,,,,,,,,,,,,,,,,,,,,,,,,,,,,,,,
,,,,,,,,,5d88f2f8cefb52001a83f1b2,spanish,13 or older,"no, only English or Spanish",yes,2025-08-13_17h58.14.698,empathy_intonation_perc_control,2024.2.4,MacIntel,2.624671916,5d88f2f8cefb52001a83f1b2,68817205a84113384fffdfe3,689d0a3ded0071a597c9b317,,,,,,,,,,,,./stim/wavs/mexican_mismatch_interrogative-total-yn_El-nino-oye-el-rio.wav,1,,,227.845,229.628,0,0,1.246,,0,87,87,35,1,36,0,mexican,,,,,,,,,,,,,,,,,,,,,,,,,,,,,,,,,,,,,,,,,,,,,,,,,,,,,,,,
,,,,,,,"Great! Now we will move on. The next task consists of about 60 trials, in each of which you will see a string of letters. 
  
  Your task is to decide whether this is a real Spanish word or not.", (press the spacebar to continue),5d88f2f8cefb52001a83f1b2,spanish,13 or older,"no, only English or Spanish",yes,2025-08-13_17h58.14.698,empathy_intonation_perc_control,2024.2.4,MacIntel,2.624671916,5d88f2f8cefb52001a83f1b2,68817205a84113384fffdfe3,689d0a3ded0071a597c9b317,,,,,,,,,,,,,,,,,,,,,,,,,,,,,,229.633,234.2,0,0,0,0,1,,,,,,,,,,,,,,,,,,,,,,,,,,,,,,,,,,,,,,,,,,,,,,,,,
,,,,,,,"If you think it is an existing Spanish word, you type '1' (for 'REAL'), and if you think it is not an existing Spanish word, you type '0' (for 'FAKE').", (press the spacebar to continue),5d88f2f8cefb52001a83f1b2,spanish,13 or older,"no, only English or Spanish",yes,2025-08-13_17h58.14.698,empathy_intonation_perc_control,2024.2.4,MacIntel,2.624671916,5d88f2f8cefb52001a83f1b2,68817205a84113384fffdfe3,689d0a3ded0071a597c9b317,,,,,,,,,,,,,,,,,,,,,,,,,,,,,,234.201,237.122,0,1,1,1,1,,,,,,,,,,,,,,,,,,,,,,,,,,,,,,,,,,,,,,,,,,,,,,,,,
,,,,,,,"If you are sure that the word exists, even though you don’t know its exact meaning, you may still respond '1' (REAL). 
  
  But if you are not sure if it is an existing word, you should respond '0' (FAKE).
  
  Let's do a practice round...", (press the spacebar to continue),5d88f2f8cefb52001a83f1b2,spanish,13 or older,"no, only English or Spanish",yes,2025-08-13_17h58.14.698,empathy_intonation_perc_control,2024.2.4,MacIntel,2.624671916,5d88f2f8cefb52001a83f1b2,68817205a84113384fffdfe3,689d0a3ded0071a597c9b317,,,,,,,,,,,,,,,,,,,,,,,,,,,,,,237.123,242.228,0,2,2,2,1,,,,,,,,,,,,,,,,,,,,,,,,,,,,,,,,,,,,,,,,,,,,,,,,,
,,,,,,,,,5d88f2f8cefb52001a83f1b2,spanish,13 or older,"no, only English or Spanish",yes,2025-08-13_17h58.14.698,empathy_intonation_perc_control,2024.2.4,MacIntel,2.624671916,5d88f2f8cefb52001a83f1b2,68817205a84113384fffdfe3,689d0a3ded0071a597c9b317,,,,,,,,,,,,,0,,,,,,,,,,,,,,,,,,,,,,,,242.233,244.656,0,1,1.875,,244.659,245.658,0,0,0,0,1,0,depiste,REAL,FAKE,,,,,,,,,,,,,,,,,,,,,,,,,,,,,,,,
,,,,,,,,,5d88f2f8cefb52001a83f1b2,spanish,13 or older,"no, only English or Spanish",yes,2025-08-13_17h58.14.698,empathy_intonation_perc_control,2024.2.4,MacIntel,2.624671916,5d88f2f8cefb52001a83f1b2,68817205a84113384fffdfe3,689d0a3ded0071a597c9b317,,,,,,,,,,,,,1,,,,,,,,,,,,,,,,,,,,,,,,245.659,247.33,1,1,1.131,,247.33,248.318,0,1,1,1,1,0,sí,REAL,FAKE,,,,,,,,,,,,,,,,,,,,,,,,,,,,,,,,
,,,,,,,,,5d88f2f8cefb52001a83f1b2,spanish,13 or older,"no, only English or Spanish",yes,2025-08-13_17h58.14.698,empathy_intonation_perc_control,2024.2.4,MacIntel,2.624671916,5d88f2f8cefb52001a83f1b2,68817205a84113384fffdfe3,689d0a3ded0071a597c9b317,,,,,,,,,,,,,0,,,,,,,,,,,,,,,,,,,,,,,,248.319,250.115,0,1,1.252,,250.115,251.12,0,2,2,2,1,0,coné,REAL,FAKE,,,,,,,,,,,,,,,,,,,,,,,,,,,,,,,,
,,,,,,,,,5d88f2f8cefb52001a83f1b2,spanish,13 or older,"no, only English or Spanish",yes,2025-08-13_17h58.14.698,empathy_intonation_perc_control,2024.2.4,MacIntel,2.624671916,5d88f2f8cefb52001a83f1b2,68817205a84113384fffdfe3,689d0a3ded0071a597c9b317,,,,,,,,,,,,,0,,,,,,,,,,,,,,,,,,,,,,,,251.12,252.503,0,1,0.842,,252.503,253.488,0,3,3,3,1,0,calpar,REAL,FAKE,,,,,,,,,,,,,,,,,,,,,,,,,,,,,,,,
,,,,,,,,,5d88f2f8cefb52001a83f1b2,spanish,13 or older,"no, only English or Spanish",yes,2025-08-13_17h58.14.698,empathy_intonation_perc_control,2024.2.4,MacIntel,2.624671916,5d88f2f8cefb52001a83f1b2,68817205a84113384fffdfe3,689d0a3ded0071a597c9b317,,,,,,,,,,,,,0,,,,,,,,,,,,,,,,,,,,,,,,253.489,254.736,0,1,0.702,,254.736,255.728,0,4,4,4,1,0,joten,REAL,FAKE,,,,,,,,,,,,,,,,,,,,,,,,,,,,,,,,
,,,,,,,,,5d88f2f8cefb52001a83f1b2,spanish,13 or older,"no, only English or Spanish",yes,2025-08-13_17h58.14.698,empathy_intonation_perc_control,2024.2.4,MacIntel,2.624671916,5d88f2f8cefb52001a83f1b2,68817205a84113384fffdfe3,689d0a3ded0071a597c9b317,,,,,,,,,,,,,1,,,,,,,,,,,,,,,,,,,,,,,,255.729,257.552,1,1,1.286,,257.552,258.538,0,5,5,5,1,0,sacapuntas,REAL,FAKE,,,,,,,,,,,,,,,,,,,,,,,,,,,,,,,,
,,,,,,,,,5d88f2f8cefb52001a83f1b2,spanish,13 or older,"no, only English or Spanish",yes,2025-08-13_17h58.14.698,empathy_intonation_perc_control,2024.2.4,MacIntel,2.624671916,5d88f2f8cefb52001a83f1b2,68817205a84113384fffdfe3,689d0a3ded0071a597c9b317,,,,,,,,,,,,,0,,,,,,,,,,,,,,,,,,,,,,,,258.538,260.05,0,1,0.969,,260.05,261.039,0,6,6,6,1,0,priba,REAL,FAKE,,,,,,,,,,,,,,,,,,,,,,,,,,,,,,,,
,,,,,,,,,5d88f2f8cefb52001a83f1b2,spanish,13 or older,"no, only English or Spanish",yes,2025-08-13_17h58.14.698,empathy_intonation_perc_control,2024.2.4,MacIntel,2.624671916,5d88f2f8cefb52001a83f1b2,68817205a84113384fffdfe3,689d0a3ded0071a597c9b317,,,,,,,,,,,,,0,,,,,,,,,,,,,,,,,,,,,,,,261.039,262.74,0,1,1.157,,262.74,263.726,0,7,7,7,1,0,pelasula,REAL,FAKE,,,,,,,,,,,,,,,,,,,,,,,,,,,,,,,,
,,,,,,,,,5d88f2f8cefb52001a83f1b2,spanish,13 or older,"no, only English or Spanish",yes,2025-08-13_17h58.14.698,empathy_intonation_perc_control,2024.2.4,MacIntel,2.624671916,5d88f2f8cefb52001a83f1b2,68817205a84113384fffdfe3,689d0a3ded0071a597c9b317,,,,,,,,,,,,,1,,,,,,,,,,,,,,,,,,,,,,,,263.727,264.953,1,1,0.684,,264.953,265.941,0,8,8,8,1,0,bien,REAL,FAKE,,,,,,,,,,,,,,,,,,,,,,,,,,,,,,,,
,,,,,,,,,5d88f2f8cefb52001a83f1b2,spanish,13 or older,"no, only English or Spanish",yes,2025-08-13_17h58.14.698,empathy_intonation_perc_control,2024.2.4,MacIntel,2.624671916,5d88f2f8cefb52001a83f1b2,68817205a84113384fffdfe3,689d0a3ded0071a597c9b317,,,,,,,,,,,,,1,,,,,,,,,,,,,,,,,,,,,,,,265.941,267.023,1,1,0.543,,267.023,268.009,0,9,9,9,1,0,casa,REAL,FAKE,,,,,,,,,,,,,,,,,,,,,,,,,,,,,,,,
,,,,,,,,,5d88f2f8cefb52001a83f1b2,spanish,13 or older,"no, only English or Spanish",yes,2025-08-13_17h58.14.698,empathy_intonation_perc_control,2024.2.4,MacIntel,2.624671916,5d88f2f8cefb52001a83f1b2,68817205a84113384fffdfe3,689d0a3ded0071a597c9b317,,,,,,,,,,,,,0,,,,,,,,,,,,,,,,,,,,,,,,268.009,269.272,0,1,0.725,,269.272,270.26,0,10,10,10,1,0,lejo,REAL,FAKE,,,,,,,,,,,,,,,,,,,,,,,,,,,,,,,,
,,,,,,,,,5d88f2f8cefb52001a83f1b2,spanish,13 or older,"no, only English or Spanish",yes,2025-08-13_17h58.14.698,empathy_intonation_perc_control,2024.2.4,MacIntel,2.624671916,5d88f2f8cefb52001a83f1b2,68817205a84113384fffdfe3,689d0a3ded0071a597c9b317,,,,,,,,,,,,,0,,,,,,,,,,,,,,,,,,,,,,,,270.261,271.763,0,1,0.956,,271.763,272.75,0,11,11,11,1,0,pretantas,REAL,FAKE,,,,,,,,,,,,,,,,,,,,,,,,,,,,,,,,
,,,,,,,,,5d88f2f8cefb52001a83f1b2,spanish,13 or older,"no, only English or Spanish",yes,2025-08-13_17h58.14.698,empathy_intonation_perc_control,2024.2.4,MacIntel,2.624671916,5d88f2f8cefb52001a83f1b2,68817205a84113384fffdfe3,689d0a3ded0071a597c9b317,,,,,,,,,,,,,,,,,,,,,,,,,,,,,,,,,,,,,,,,,,,,,,,,,,,,,,272.751,273.531,,,,,,,,,,,,,,,,,,,,,,,,,,,,,,
,,,,,,,,,5d88f2f8cefb52001a83f1b2,spanish,13 or older,"no, only English or Spanish",yes,2025-08-13_17h58.14.698,empathy_intonation_perc_control,2024.2.4,MacIntel,2.624671916,5d88f2f8cefb52001a83f1b2,68817205a84113384fffdfe3,689d0a3ded0071a597c9b317,,,,,,,,,,,,,1,,,,,,,,,,,,,,,,,,,,,,,,,,,,,,,,,,,,,90,clavel,,,,,273.538,274.816,0,0,0.747,,0,0,0,89,1,REAL,FAKE,,,,,,,,,,,,,,,,,
,,,,,,,,,5d88f2f8cefb52001a83f1b2,spanish,13 or older,"no, only English or Spanish",yes,2025-08-13_17h58.14.698,empathy_intonation_perc_control,2024.2.4,MacIntel,2.624671916,5d88f2f8cefb52001a83f1b2,68817205a84113384fffdfe3,689d0a3ded0071a597c9b317,,,,,,,,,,,,,1,,,,,,,,,,,,,,,,,,,,,,,,,,,,,,,,,,,,,89,prisa,,,,,274.816,275.931,0,0,0.573,,0,1,1,88,1,REAL,FAKE,,,,,,,,,,,,,,,,,
,,,,,,,,,5d88f2f8cefb52001a83f1b2,spanish,13 or older,"no, only English or Spanish",yes,2025-08-13_17h58.14.698,empathy_intonation_perc_control,2024.2.4,MacIntel,2.624671916,5d88f2f8cefb52001a83f1b2,68817205a84113384fffdfe3,689d0a3ded0071a597c9b317,,,,,,,,,,,,,0,,,,,,,,,,,,,,,,,,,,,,,,,,,,,,,,,,,,,30,alardio,,,,,275.932,277.072,0,1,0.596,,0,2,2,29,1,REAL,FAKE,,,,,,,,,,,,,,,,,
,,,,,,,,,5d88f2f8cefb52001a83f1b2,spanish,13 or older,"no, only English or Spanish",yes,2025-08-13_17h58.14.698,empathy_intonation_perc_control,2024.2.4,MacIntel,2.624671916,5d88f2f8cefb52001a83f1b2,68817205a84113384fffdfe3,689d0a3ded0071a597c9b317,,,,,,,,,,,,,0,,,,,,,,,,,,,,,,,,,,,,,,,,,,,,,,,,,,,21,capillo,,,,,277.072,278.594,1,0,0.975,,0,3,3,20,1,REAL,FAKE,,,,,,,,,,,,,,,,,
,,,,,,,,,5d88f2f8cefb52001a83f1b2,spanish,13 or older,"no, only English or Spanish",yes,2025-08-13_17h58.14.698,empathy_intonation_perc_control,2024.2.4,MacIntel,2.624671916,5d88f2f8cefb52001a83f1b2,68817205a84113384fffdfe3,689d0a3ded0071a597c9b317,,,,,,,,,,,,,0,,,,,,,,,,,,,,,,,,,,,,,,,,,,,,,,,,,,,42,cadallo,,,,,278.594,280.029,0,1,0.892,,0,4,4,41,1,REAL,FAKE,,,,,,,,,,,,,,,,,
,,,,,,,,,5d88f2f8cefb52001a83f1b2,spanish,13 or older,"no, only English or Spanish",yes,2025-08-13_17h58.14.698,empathy_intonation_perc_control,2024.2.4,MacIntel,2.624671916,5d88f2f8cefb52001a83f1b2,68817205a84113384fffdfe3,689d0a3ded0071a597c9b317,,,,,,,,,,,,,0,,,,,,,,,,,,,,,,,,,,,,,,,,,,,,,,,,,,,33,pauca,,,,,280.03,281.154,0,1,0.599,,0,5,5,32,1,REAL,FAKE,,,,,,,,,,,,,,,,,
,,,,,,,,,5d88f2f8cefb52001a83f1b2,spanish,13 or older,"no, only English or Spanish",yes,2025-08-13_17h58.14.698,empathy_intonation_perc_control,2024.2.4,MacIntel,2.624671916,5d88f2f8cefb52001a83f1b2,68817205a84113384fffdfe3,689d0a3ded0071a597c9b317,,,,,,,,,,,,,0,,,,,,,,,,,,,,,,,,,,,,,,,,,,,,,,,,,,,53,vegada,,,,,281.154,282.38,0,1,0.682,,0,6,6,52,1,REAL,FAKE,,,,,,,,,,,,,,,,,
,,,,,,,,,5d88f2f8cefb52001a83f1b2,spanish,13 or older,"no, only English or Spanish",yes,2025-08-13_17h58.14.698,empathy_intonation_perc_control,2024.2.4,MacIntel,2.624671916,5d88f2f8cefb52001a83f1b2,68817205a84113384fffdfe3,689d0a3ded0071a597c9b317,,,,,,,,,,,,,0,,,,,,,,,,,,,,,,,,,,,,,,,,,,,,,,,,,,,35,rompido,,,,,282.381,283.503,0,1,0.579,,0,7,7,34,1,REAL,FAKE,,,,,,,,,,,,,,,,,
,,,,,,,,,5d88f2f8cefb52001a83f1b2,spanish,13 or older,"no, only English or Spanish",yes,2025-08-13_17h58.14.698,empathy_intonation_perc_control,2024.2.4,MacIntel,2.624671916,5d88f2f8cefb52001a83f1b2,68817205a84113384fffdfe3,689d0a3ded0071a597c9b317,,,,,,,,,,,,,1,,,,,,,,,,,,,,,,,,,,,,,,,,,,,,,,,,,,,20,ávido,,,,,283.504,284.935,1,1,0.887,,0,8,8,19,1,REAL,FAKE,,,,,,,,,,,,,,,,,
,,,,,,,,,5d88f2f8cefb52001a83f1b2,spanish,13 or older,"no, only English or Spanish",yes,2025-08-13_17h58.14.698,empathy_intonation_perc_control,2024.2.4,MacIntel,2.624671916,5d88f2f8cefb52001a83f1b2,68817205a84113384fffdfe3,689d0a3ded0071a597c9b317,,,,,,,,,,,,,1,,,,,,,,,,,,,,,,,,,,,,,,,,,,,,,,,,,,,55,nevar,,,,,284.936,286.367,0,0,0.891,,0,9,9,54,1,REAL,FAKE,,,,,,,,,,,,,,,,,
,,,,,,,,,5d88f2f8cefb52001a83f1b2,spanish,13 or older,"no, only English or Spanish",yes,2025-08-13_17h58.14.698,empathy_intonation_perc_control,2024.2.4,MacIntel,2.624671916,5d88f2f8cefb52001a83f1b2,68817205a84113384fffdfe3,689d0a3ded0071a597c9b317,,,,,,,,,,,,,0,,,,,,,,,,,,,,,,,,,,,,,,,,,,,,,,,,,,,47,cartinar,,,,,286.367,287.673,0,1,0.767,,0,10,10,46,1,REAL,FAKE,,,,,,,,,,,,,,,,,
,,,,,,,,,5d88f2f8cefb52001a83f1b2,spanish,13 or older,"no, only English or Spanish",yes,2025-08-13_17h58.14.698,empathy_intonation_perc_control,2024.2.4,MacIntel,2.624671916,5d88f2f8cefb52001a83f1b2,68817205a84113384fffdfe3,689d0a3ded0071a597c9b317,,,,,,,,,,,,,1,,,,,,,,,,,,,,,,,,,,,,,,,,,,,,,,,,,,,38,estornudar,,,,,287.674,288.886,0,0,0.664,,0,11,11,37,1,REAL,FAKE,,,,,,,,,,,,,,,,,
,,,,,,,,,5d88f2f8cefb52001a83f1b2,spanish,13 or older,"no, only English or Spanish",yes,2025-08-13_17h58.14.698,empathy_intonation_perc_control,2024.2.4,MacIntel,2.624671916,5d88f2f8cefb52001a83f1b2,68817205a84113384fffdfe3,689d0a3ded0071a597c9b317,,,,,,,,,,,,,1,,,,,,,,,,,,,,,,,,,,,,,,,,,,,,,,,,,,,36,loro,,,,,288.886,290.112,0,0,0.685,,0,12,12,35,1,REAL,FAKE,,,,,,,,,,,,,,,,,
,,,,,,,,,5d88f2f8cefb52001a83f1b2,spanish,13 or older,"no, only English or Spanish",yes,2025-08-13_17h58.14.698,empathy_intonation_perc_control,2024.2.4,MacIntel,2.624671916,5d88f2f8cefb52001a83f1b2,68817205a84113384fffdfe3,689d0a3ded0071a597c9b317,,,,,,,,,,,,,1,,,,,,,,,,,,,,,,,,,,,,,,,,,,,,,,,,,,,40,alfombra,,,,,290.112,291.262,0,0,0.6,,0,13,13,39,1,REAL,FAKE,,,,,,,,,,,,,,,,,
,,,,,,,,,5d88f2f8cefb52001a83f1b2,spanish,13 or older,"no, only English or Spanish",yes,2025-08-13_17h58.14.698,empathy_intonation_perc_control,2024.2.4,MacIntel,2.624671916,5d88f2f8cefb52001a83f1b2,68817205a84113384fffdfe3,689d0a3ded0071a597c9b317,,,,,,,,,,,,,0,,,,,,,,,,,,,,,,,,,,,,,,,,,,,,,,,,,,,72,pemición,,,,,291.262,292.452,0,1,0.646,,0,14,14,71,1,REAL,FAKE,,,,,,,,,,,,,,,,,
,,,,,,,,,5d88f2f8cefb52001a83f1b2,spanish,13 or older,"no, only English or Spanish",yes,2025-08-13_17h58.14.698,empathy_intonation_perc_control,2024.2.4,MacIntel,2.624671916,5d88f2f8cefb52001a83f1b2,68817205a84113384fffdfe3,689d0a3ded0071a597c9b317,,,,,,,,,,,,,1,,,,,,,,,,,,,,,,,,,,,,,,,,,,,,,,,,,,,2,pellizcar,,,,,292.453,293.944,0,0,0.953,,0,15,15,1,1,REAL,FAKE,,,,,,,,,,,,,,,,,
,,,,,,,,,5d88f2f8cefb52001a83f1b2,spanish,13 or older,"no, only English or Spanish",yes,2025-08-13_17h58.14.698,empathy_intonation_perc_control,2024.2.4,MacIntel,2.624671916,5d88f2f8cefb52001a83f1b2,68817205a84113384fffdfe3,689d0a3ded0071a597c9b317,,,,,,,,,,,,,1,,,,,,,,,,,,,,,,,,,,,,,,,,,,,,,,,,,,,69,engatusar,,,,,293.944,295.128,0,0,0.64,,0,16,16,68,1,REAL,FAKE,,,,,,,,,,,,,,,,,
,,,,,,,,,5d88f2f8cefb52001a83f1b2,spanish,13 or older,"no, only English or Spanish",yes,2025-08-13_17h58.14.698,empathy_intonation_perc_control,2024.2.4,MacIntel,2.624671916,5d88f2f8cefb52001a83f1b2,68817205a84113384fffdfe3,689d0a3ded0071a597c9b317,,,,,,,,,,,,,1,,,,,,,,,,,,,,,,,,,,,,,,,,,,,,,,,,,,,83,guante,,,,,295.129,296.432,0,0,0.76,,0,17,17,82,1,REAL,FAKE,,,,,,,,,,,,,,,,,
,,,,,,,,,5d88f2f8cefb52001a83f1b2,spanish,13 or older,"no, only English or Spanish",yes,2025-08-13_17h58.14.698,empathy_intonation_perc_control,2024.2.4,MacIntel,2.624671916,5d88f2f8cefb52001a83f1b2,68817205a84113384fffdfe3,689d0a3ded0071a597c9b317,,,,,,,,,,,,,1,,,,,,,,,,,,,,,,,,,,,,,,,,,,,,,,,,,,,15,regar,,,,,296.433,297.542,0,0,0.562,,0,18,18,14,1,REAL,FAKE,,,,,,,,,,,,,,,,,
,,,,,,,,,5d88f2f8cefb52001a83f1b2,spanish,13 or older,"no, only English or Spanish",yes,2025-08-13_17h58.14.698,empathy_intonation_perc_control,2024.2.4,MacIntel,2.624671916,5d88f2f8cefb52001a83f1b2,68817205a84113384fffdfe3,689d0a3ded0071a597c9b317,,,,,,,,,,,,,1,,,,,,,,,,,,,,,,,,,,,,,,,,,,,,,,,,,,,45,jilguero,,,,,297.542,298.727,0,0,0.642,,0,19,19,44,1,REAL,FAKE,,,,,,,,,,,,,,,,,
,,,,,,,,,5d88f2f8cefb52001a83f1b2,spanish,13 or older,"no, only English or Spanish",yes,2025-08-13_17h58.14.698,empathy_intonation_perc_control,2024.2.4,MacIntel,2.624671916,5d88f2f8cefb52001a83f1b2,68817205a84113384fffdfe3,689d0a3ded0071a597c9b317,,,,,,,,,,,,,1,,,,,,,,,,,,,,,,,,,,,,,,,,,,,,,,,,,,,75,yacer,,,,,298.727,299.766,0,0,0.499,,0,20,20,74,1,REAL,FAKE,,,,,,,,,,,,,,,,,
,,,,,,,,,5d88f2f8cefb52001a83f1b2,spanish,13 or older,"no, only English or Spanish",yes,2025-08-13_17h58.14.698,empathy_intonation_perc_control,2024.2.4,MacIntel,2.624671916,5d88f2f8cefb52001a83f1b2,68817205a84113384fffdfe3,689d0a3ded0071a597c9b317,,,,,,,,,,,,,1,,,,,,,,,,,,,,,,,,,,,,,,,,,,,,,,,,,,,28,merodear,,,,,299.767,300.971,0,0,0.66,,0,21,21,27,1,REAL,FAKE,,,,,,,,,,,,,,,,,
,,,,,,,,,5d88f2f8cefb52001a83f1b2,spanish,13 or older,"no, only English or Spanish",yes,2025-08-13_17h58.14.698,empathy_intonation_perc_control,2024.2.4,MacIntel,2.624671916,5d88f2f8cefb52001a83f1b2,68817205a84113384fffdfe3,689d0a3ded0071a597c9b317,,,,,,,,,,,,,1,,,,,,,,,,,,,,,,,,,,,,,,,,,,,,,,,,,,,81,pozo,,,,,300.971,302.036,0,0,0.52,,0,22,22,80,1,REAL,FAKE,,,,,,,,,,,,,,,,,
,,,,,,,,,5d88f2f8cefb52001a83f1b2,spanish,13 or older,"no, only English or Spanish",yes,2025-08-13_17h58.14.698,empathy_intonation_perc_control,2024.2.4,MacIntel,2.624671916,5d88f2f8cefb52001a83f1b2,68817205a84113384fffdfe3,689d0a3ded0071a597c9b317,,,,,,,,,,,,,1,,,,,,,,,,,,,,,,,,,,,,,,,,,,,,,,,,,,,22,lacayo,,,,,302.036,303.082,0,0,0.503,,0,23,23,21,1,REAL,FAKE,,,,,,,,,,,,,,,,,
,,,,,,,,,5d88f2f8cefb52001a83f1b2,spanish,13 or older,"no, only English or Spanish",yes,2025-08-13_17h58.14.698,empathy_intonation_perc_control,2024.2.4,MacIntel,2.624671916,5d88f2f8cefb52001a83f1b2,68817205a84113384fffdfe3,689d0a3ded0071a597c9b317,,,,,,,,,,,,,0,,,,,,,,,,,,,,,,,,,,,,,,,,,,,,,,,,,,,70,temblo,,,,,303.082,304.59,0,1,0.969,,0,24,24,69,1,REAL,FAKE,,,,,,,,,,,,,,,,,
,,,,,,,,,5d88f2f8cefb52001a83f1b2,spanish,13 or older,"no, only English or Spanish",yes,2025-08-13_17h58.14.698,empathy_intonation_perc_control,2024.2.4,MacIntel,2.624671916,5d88f2f8cefb52001a83f1b2,68817205a84113384fffdfe3,689d0a3ded0071a597c9b317,,,,,,,,,,,,,1,,,,,,,,,,,,,,,,,,,,,,,,,,,,,,,,,,,,,25,bisagra,,,,,304.591,305.672,0,0,0.537,,0,25,25,24,1,REAL,FAKE,,,,,,,,,,,,,,,,,
,,,,,,,,,5d88f2f8cefb52001a83f1b2,spanish,13 or older,"no, only English or Spanish",yes,2025-08-13_17h58.14.698,empathy_intonation_perc_control,2024.2.4,MacIntel,2.624671916,5d88f2f8cefb52001a83f1b2,68817205a84113384fffdfe3,689d0a3ded0071a597c9b317,,,,,,,,,,,,,0,,,,,,,,,,,,,,,,,,,,,,,,,,,,,,,,,,,,,82,empirador,,,,,305.673,306.92,1,0,0.702,,0,26,26,81,1,REAL,FAKE,,,,,,,,,,,,,,,,,
,,,,,,,,,5d88f2f8cefb52001a83f1b2,spanish,13 or older,"no, only English or Spanish",yes,2025-08-13_17h58.14.698,empathy_intonation_perc_control,2024.2.4,MacIntel,2.624671916,5d88f2f8cefb52001a83f1b2,68817205a84113384fffdfe3,689d0a3ded0071a597c9b317,,,,,,,,,,,,,1,,,,,,,,,,,,,,,,,,,,,,,,,,,,,,,,,,,,,77,tiburón,,,,,306.92,307.903,0,0,0.456,,0,27,27,76,1,REAL,FAKE,,,,,,,,,,,,,,,,,
,,,,,,,,,5d88f2f8cefb52001a83f1b2,spanish,13 or older,"no, only English or Spanish",yes,2025-08-13_17h58.14.698,empathy_intonation_perc_control,2024.2.4,MacIntel,2.624671916,5d88f2f8cefb52001a83f1b2,68817205a84113384fffdfe3,689d0a3ded0071a597c9b317,,,,,,,,,,,,,1,,,,,,,,,,,,,,,,,,,,,,,,,,,,,,,,,,,,,73,hervidor,,,,,307.903,309.07,0,0,0.621,,0,28,28,72,1,REAL,FAKE,,,,,,,,,,,,,,,,,
,,,,,,,,,5d88f2f8cefb52001a83f1b2,spanish,13 or older,"no, only English or Spanish",yes,2025-08-13_17h58.14.698,empathy_intonation_perc_control,2024.2.4,MacIntel,2.624671916,5d88f2f8cefb52001a83f1b2,68817205a84113384fffdfe3,689d0a3ded0071a597c9b317,,,,,,,,,,,,,1,,,,,,,,,,,,,,,,,,,,,,,,,,,,,,,,,,,,,57,tacaño,,,,,309.07,310.708,1,1,1.097,,0,29,29,56,1,REAL,FAKE,,,,,,,,,,,,,,,,,
,,,,,,,,,5d88f2f8cefb52001a83f1b2,spanish,13 or older,"no, only English or Spanish",yes,2025-08-13_17h58.14.698,empathy_intonation_perc_control,2024.2.4,MacIntel,2.624671916,5d88f2f8cefb52001a83f1b2,68817205a84113384fffdfe3,689d0a3ded0071a597c9b317,,,,,,,,,,,,,1,,,,,,,,,,,,,,,,,,,,,,,,,,,,,,,,,,,,,5,zapato,,,,,310.708,311.959,1,1,0.705,,0,30,30,4,1,REAL,FAKE,,,,,,,,,,,,,,,,,
,,,,,,,,,5d88f2f8cefb52001a83f1b2,spanish,13 or older,"no, only English or Spanish",yes,2025-08-13_17h58.14.698,empathy_intonation_perc_control,2024.2.4,MacIntel,2.624671916,5d88f2f8cefb52001a83f1b2,68817205a84113384fffdfe3,689d0a3ded0071a597c9b317,,,,,,,,,,,,,1,,,,,,,,,,,,,,,,,,,,,,,,,,,,,,,,,,,,,26,secuestro,,,,,311.959,313.207,1,1,0.703,,0,31,31,25,1,REAL,FAKE,,,,,,,,,,,,,,,,,
,,,,,,,,,5d88f2f8cefb52001a83f1b2,spanish,13 or older,"no, only English or Spanish",yes,2025-08-13_17h58.14.698,empathy_intonation_perc_control,2024.2.4,MacIntel,2.624671916,5d88f2f8cefb52001a83f1b2,68817205a84113384fffdfe3,689d0a3ded0071a597c9b317,,,,,,,,,,,,,0,,,,,,,,,,,,,,,,,,,,,,,,,,,,,,,,,,,,,74,cintro,,,,,313.208,314.228,1,0,0.497,,0,32,32,73,1,REAL,FAKE,,,,,,,,,,,,,,,,,
,,,,,,,,,5d88f2f8cefb52001a83f1b2,spanish,13 or older,"no, only English or Spanish",yes,2025-08-13_17h58.14.698,empathy_intonation_perc_control,2024.2.4,MacIntel,2.624671916,5d88f2f8cefb52001a83f1b2,68817205a84113384fffdfe3,689d0a3ded0071a597c9b317,,,,,,,,,,,,,0,,,,,,,,,,,,,,,,,,,,,,,,,,,,,,,,,,,,,1,terzo,,,,,314.229,315.498,0,1,0.744,,0,33,33,0,1,REAL,FAKE,,,,,,,,,,,,,,,,,
,,,,,,,,,5d88f2f8cefb52001a83f1b2,spanish,13 or older,"no, only English or Spanish",yes,2025-08-13_17h58.14.698,empathy_intonation_perc_control,2024.2.4,MacIntel,2.624671916,5d88f2f8cefb52001a83f1b2,68817205a84113384fffdfe3,689d0a3ded0071a597c9b317,,,,,,,,,,,,,1,,,,,,,,,,,,,,,,,,,,,,,,,,,,,,,,,,,,,67,cabello,,,,,315.499,317.161,0,0,1.119,,0,34,34,66,1,REAL,FAKE,,,,,,,,,,,,,,,,,
,,,,,,,,,5d88f2f8cefb52001a83f1b2,spanish,13 or older,"no, only English or Spanish",yes,2025-08-13_17h58.14.698,empathy_intonation_perc_control,2024.2.4,MacIntel,2.624671916,5d88f2f8cefb52001a83f1b2,68817205a84113384fffdfe3,689d0a3ded0071a597c9b317,,,,,,,,,,,,,1,,,,,,,,,,,,,,,,,,,,,,,,,,,,,,,,,,,,,60,matar,,,,,317.161,318.491,0,0,0.787,,0,35,35,59,1,REAL,FAKE,,,,,,,,,,,,,,,,,
,,,,,,,,,5d88f2f8cefb52001a83f1b2,spanish,13 or older,"no, only English or Spanish",yes,2025-08-13_17h58.14.698,empathy_intonation_perc_control,2024.2.4,MacIntel,2.624671916,5d88f2f8cefb52001a83f1b2,68817205a84113384fffdfe3,689d0a3ded0071a597c9b317,,,,,,,,,,,,,0,,,,,,,,,,,,,,,,,,,,,,,,,,,,,,,,,,,,,16,abracer,,,,,318.491,319.512,0,1,0.48,,0,36,36,15,1,REAL,FAKE,,,,,,,,,,,,,,,,,
,,,,,,,,,5d88f2f8cefb52001a83f1b2,spanish,13 or older,"no, only English or Spanish",yes,2025-08-13_17h58.14.698,empathy_intonation_perc_control,2024.2.4,MacIntel,2.624671916,5d88f2f8cefb52001a83f1b2,68817205a84113384fffdfe3,689d0a3ded0071a597c9b317,,,,,,,,,,,,,0,,,,,,,,,,,,,,,,,,,,,,,,,,,,,,,,,,,,,92,click the 0 key.,,,,,319.513,321.03,0,1,0.973,,0,37,37,91,1,REAL,FAKE,,,,,,,,,,,,,,,,,
,,,,,,,,,5d88f2f8cefb52001a83f1b2,spanish,13 or older,"no, only English or Spanish",yes,2025-08-13_17h58.14.698,empathy_intonation_perc_control,2024.2.4,MacIntel,2.624671916,5d88f2f8cefb52001a83f1b2,68817205a84113384fffdfe3,689d0a3ded0071a597c9b317,,,,,,,,,,,,,1,,,,,,,,,,,,,,,,,,,,,,,,,,,,,,,,,,,,,54,fomentar,,,,,321.031,323.241,1,1,1.681,,0,38,38,53,1,REAL,FAKE,,,,,,,,,,,,,,,,,
,,,,,,,,,5d88f2f8cefb52001a83f1b2,spanish,13 or older,"no, only English or Spanish",yes,2025-08-13_17h58.14.698,empathy_intonation_perc_control,2024.2.4,MacIntel,2.624671916,5d88f2f8cefb52001a83f1b2,68817205a84113384fffdfe3,689d0a3ded0071a597c9b317,,,,,,,,,,,,,1,,,,,,,,,,,,,,,,,,,,,,,,,,,,,,,,,,,,,13,helar,,,,,323.242,324.364,0,0,0.583,,0,39,39,12,1,REAL,FAKE,,,,,,,,,,,,,,,,,
,,,,,,,,,5d88f2f8cefb52001a83f1b2,spanish,13 or older,"no, only English or Spanish",yes,2025-08-13_17h58.14.698,empathy_intonation_perc_control,2024.2.4,MacIntel,2.624671916,5d88f2f8cefb52001a83f1b2,68817205a84113384fffdfe3,689d0a3ded0071a597c9b317,,,,,,,,,,,,,1,,,,,,,,,,,,,,,,,,,,,,,,,,,,,,,,,,,,,64,orgulloso,,,,,324.364,325.447,0,0,0.537,,0,40,40,63,1,REAL,FAKE,,,,,,,,,,,,,,,,,
,,,,,,,,,5d88f2f8cefb52001a83f1b2,spanish,13 or older,"no, only English or Spanish",yes,2025-08-13_17h58.14.698,empathy_intonation_perc_control,2024.2.4,MacIntel,2.624671916,5d88f2f8cefb52001a83f1b2,68817205a84113384fffdfe3,689d0a3ded0071a597c9b317,,,,,,,,,,,,,0,,,,,,,,,,,,,,,,,,,,,,,,,,,,,,,,,,,,,50,flamida,,,,,325.448,326.572,0,1,0.595,,0,41,41,49,1,REAL,FAKE,,,,,,,,,,,,,,,,,
,,,,,,,,,5d88f2f8cefb52001a83f1b2,spanish,13 or older,"no, only English or Spanish",yes,2025-08-13_17h58.14.698,empathy_intonation_perc_control,2024.2.4,MacIntel,2.624671916,5d88f2f8cefb52001a83f1b2,68817205a84113384fffdfe3,689d0a3ded0071a597c9b317,,,,,,,,,,,,,0,,,,,,,,,,,,,,,,,,,,,,,,,,,,,,,,,,,,,66,hacido,,,,,326.572,327.962,0,1,0.848,,0,42,42,65,1,REAL,FAKE,,,,,,,,,,,,,,,,,
,,,,,,,,,5d88f2f8cefb52001a83f1b2,spanish,13 or older,"no, only English or Spanish",yes,2025-08-13_17h58.14.698,empathy_intonation_perc_control,2024.2.4,MacIntel,2.624671916,5d88f2f8cefb52001a83f1b2,68817205a84113384fffdfe3,689d0a3ded0071a597c9b317,,,,,,,,,,,,,1,,,,,,,,,,,,,,,,,,,,,,,,,,,,,,,,,,,,,80,hormiga,,,,,327.962,329.166,0,0,0.666,,0,43,43,79,1,REAL,FAKE,,,,,,,,,,,,,,,,,
,,,,,,,,,5d88f2f8cefb52001a83f1b2,spanish,13 or older,"no, only English or Spanish",yes,2025-08-13_17h58.14.698,empathy_intonation_perc_control,2024.2.4,MacIntel,2.624671916,5d88f2f8cefb52001a83f1b2,68817205a84113384fffdfe3,689d0a3ded0071a597c9b317,,,,,,,,,,,,,1,,,,,,,,,,,,,,,,,,,,,,,,,,,,,,,,,,,,,48,ladrón,,,,,329.167,330.186,0,0,0.48,,0,44,44,47,1,REAL,FAKE,,,,,,,,,,,,,,,,,
,,,,,,,,,5d88f2f8cefb52001a83f1b2,spanish,13 or older,"no, only English or Spanish",yes,2025-08-13_17h58.14.698,empathy_intonation_perc_control,2024.2.4,MacIntel,2.624671916,5d88f2f8cefb52001a83f1b2,68817205a84113384fffdfe3,689d0a3ded0071a597c9b317,,,,,,,,,,,,,1,,,,,,,,,,,,,,,,,,,,,,,,,,,,,,,,,,,,,31,pandilla,,,,,330.187,331.266,0,0,0.535,,0,45,45,30,1,REAL,FAKE,,,,,,,,,,,,,,,,,
,,,,,,,,,5d88f2f8cefb52001a83f1b2,spanish,13 or older,"no, only English or Spanish",yes,2025-08-13_17h58.14.698,empathy_intonation_perc_control,2024.2.4,MacIntel,2.624671916,5d88f2f8cefb52001a83f1b2,68817205a84113384fffdfe3,689d0a3ded0071a597c9b317,,,,,,,,,,,,,1,,,,,,,,,,,,,,,,,,,,,,,,,,,,,,,,,,,,,61,seda,,,,,331.266,332.3,0,0,0.494,,0,46,46,60,1,REAL,FAKE,,,,,,,,,,,,,,,,,
,,,,,,,,,5d88f2f8cefb52001a83f1b2,spanish,13 or older,"no, only English or Spanish",yes,2025-08-13_17h58.14.698,empathy_intonation_perc_control,2024.2.4,MacIntel,2.624671916,5d88f2f8cefb52001a83f1b2,68817205a84113384fffdfe3,689d0a3ded0071a597c9b317,,,,,,,,,,,,,1,,,,,,,,,,,,,,,,,,,,,,,,,,,,,,,,,,,,,88,acantilado,,,,,332.3,333.505,0,0,0.663,,0,47,47,87,1,REAL,FAKE,,,,,,,,,,,,,,,,,
,,,,,,,,,5d88f2f8cefb52001a83f1b2,spanish,13 or older,"no, only English or Spanish",yes,2025-08-13_17h58.14.698,empathy_intonation_perc_control,2024.2.4,MacIntel,2.624671916,5d88f2f8cefb52001a83f1b2,68817205a84113384fffdfe3,689d0a3ded0071a597c9b317,,,,,,,,,,,,,0,,,,,,,,,,,,,,,,,,,,,,,,,,,,,,,,,,,,,63,esposante,,,,,333.506,334.506,0,1,0.473,,0,48,48,62,1,REAL,FAKE,,,,,,,,,,,,,,,,,
,,,,,,,,,5d88f2f8cefb52001a83f1b2,spanish,13 or older,"no, only English or Spanish",yes,2025-08-13_17h58.14.698,empathy_intonation_perc_control,2024.2.4,MacIntel,2.624671916,5d88f2f8cefb52001a83f1b2,68817205a84113384fffdfe3,689d0a3ded0071a597c9b317,,,,,,,,,,,,,1,,,,,,,,,,,,,,,,,,,,,,,,,,,,,,,,,,,,,46,martillo,,,,,334.507,336.006,0,0,0.953,,0,49,49,45,1,REAL,FAKE,,,,,,,,,,,,,,,,,
,,,,,,,,,5d88f2f8cefb52001a83f1b2,spanish,13 or older,"no, only English or Spanish",yes,2025-08-13_17h58.14.698,empathy_intonation_perc_control,2024.2.4,MacIntel,2.624671916,5d88f2f8cefb52001a83f1b2,68817205a84113384fffdfe3,689d0a3ded0071a597c9b317,,,,,,,,,,,,,1,,,,,,,,,,,,,,,,,,,,,,,,,,,,,,,,,,,,,12,asesinato,,,,,336.007,337.07,0,0,0.52,,0,50,50,11,1,REAL,FAKE,,,,,,,,,,,,,,,,,
,,,,,,,,,5d88f2f8cefb52001a83f1b2,spanish,13 or older,"no, only English or Spanish",yes,2025-08-13_17h58.14.698,empathy_intonation_perc_control,2024.2.4,MacIntel,2.624671916,5d88f2f8cefb52001a83f1b2,68817205a84113384fffdfe3,689d0a3ded0071a597c9b317,,,,,,,,,,,,,1,,,,,,,,,,,,,,,,,,,,,,,,,,,,,,,,,,,,,6,tergiversar,,,,,337.071,338.112,0,0,0.499,,0,51,51,5,1,REAL,FAKE,,,,,,,,,,,,,,,,,
,,,,,,,,,5d88f2f8cefb52001a83f1b2,spanish,13 or older,"no, only English or Spanish",yes,2025-08-13_17h58.14.698,empathy_intonation_perc_control,2024.2.4,MacIntel,2.624671916,5d88f2f8cefb52001a83f1b2,68817205a84113384fffdfe3,689d0a3ded0071a597c9b317,,,,,,,,,,,,,0,,,,,,,,,,,,,,,,,,,,,,,,,,,,,,,,,,,,,8,cadeña,,,,,338.113,339.397,0,1,0.744,,0,52,52,7,1,REAL,FAKE,,,,,,,,,,,,,,,,,
,,,,,,,,,5d88f2f8cefb52001a83f1b2,spanish,13 or older,"no, only English or Spanish",yes,2025-08-13_17h58.14.698,empathy_intonation_perc_control,2024.2.4,MacIntel,2.624671916,5d88f2f8cefb52001a83f1b2,68817205a84113384fffdfe3,689d0a3ded0071a597c9b317,,,,,,,,,,,,,1,,,,,,,,,,,,,,,,,,,,,,,,,,,,,,,,,,,,,76,atar,,,,,339.397,340.461,0,0,0.521,,0,53,53,75,1,REAL,FAKE,,,,,,,,,,,,,,,,,
,,,,,,,,,5d88f2f8cefb52001a83f1b2,spanish,13 or older,"no, only English or Spanish",yes,2025-08-13_17h58.14.698,empathy_intonation_perc_control,2024.2.4,MacIntel,2.624671916,5d88f2f8cefb52001a83f1b2,68817205a84113384fffdfe3,689d0a3ded0071a597c9b317,,,,,,,,,,,,,0,,,,,,,,,,,,,,,,,,,,,,,,,,,,,,,,,,,,,84,escuto,,,,,340.462,341.921,0,1,0.917,,0,54,54,83,1,REAL,FAKE,,,,,,,,,,,,,,,,,
,,,,,,,,,5d88f2f8cefb52001a83f1b2,spanish,13 or older,"no, only English or Spanish",yes,2025-08-13_17h58.14.698,empathy_intonation_perc_control,2024.2.4,MacIntel,2.624671916,5d88f2f8cefb52001a83f1b2,68817205a84113384fffdfe3,689d0a3ded0071a597c9b317,,,,,,,,,,,,,1,,,,,,,,,,,,,,,,,,,,,,,,,,,,,,,,,,,,,51,candado,,,,,341.921,343.193,0,0,0.739,,0,55,55,50,1,REAL,FAKE,,,,,,,,,,,,,,,,,
,,,,,,,,,5d88f2f8cefb52001a83f1b2,spanish,13 or older,"no, only English or Spanish",yes,2025-08-13_17h58.14.698,empathy_intonation_perc_control,2024.2.4,MacIntel,2.624671916,5d88f2f8cefb52001a83f1b2,68817205a84113384fffdfe3,689d0a3ded0071a597c9b317,,,,,,,,,,,,,1,,,,,,,,,,,,,,,,,,,,,,,,,,,,,,,,,,,,,39,torpe,,,,,343.194,344.297,0,0,0.559,,0,56,56,38,1,REAL,FAKE,,,,,,,,,,,,,,,,,
,,,,,,,,,5d88f2f8cefb52001a83f1b2,spanish,13 or older,"no, only English or Spanish",yes,2025-08-13_17h58.14.698,empathy_intonation_perc_control,2024.2.4,MacIntel,2.624671916,5d88f2f8cefb52001a83f1b2,68817205a84113384fffdfe3,689d0a3ded0071a597c9b317,,,,,,,,,,,,,0,,,,,,,,,,,,,,,,,,,,,,,,,,,,,,,,,,,,,18,arsa,,,,,344.297,345.393,0,1,0.553,,0,57,57,17,1,REAL,FAKE,,,,,,,,,,,,,,,,,
,,,,,,,,,5d88f2f8cefb52001a83f1b2,spanish,13 or older,"no, only English or Spanish",yes,2025-08-13_17h58.14.698,empathy_intonation_perc_control,2024.2.4,MacIntel,2.624671916,5d88f2f8cefb52001a83f1b2,68817205a84113384fffdfe3,689d0a3ded0071a597c9b317,,,,,,,,,,,,,1,,,,,,,,,,,,,,,,,,,,,,,,,,,,,,,,,,,,,86,barato,,,,,345.394,346.49,0,0,0.559,,0,58,58,85,1,REAL,FAKE,,,,,,,,,,,,,,,,,
,,,,,,,,,5d88f2f8cefb52001a83f1b2,spanish,13 or older,"no, only English or Spanish",yes,2025-08-13_17h58.14.698,empathy_intonation_perc_control,2024.2.4,MacIntel,2.624671916,5d88f2f8cefb52001a83f1b2,68817205a84113384fffdfe3,689d0a3ded0071a597c9b317,,,,,,,,,,,,,1,,,,,,,,,,,,,,,,,,,,,,,,,,,,,,,,,,,,,52,camisa,,,,,346.491,347.627,0,0,0.599,,0,59,59,51,1,REAL,FAKE,,,,,,,,,,,,,,,,,
,,,,,,,,,5d88f2f8cefb52001a83f1b2,spanish,13 or older,"no, only English or Spanish",yes,2025-08-13_17h58.14.698,empathy_intonation_perc_control,2024.2.4,MacIntel,2.624671916,5d88f2f8cefb52001a83f1b2,68817205a84113384fffdfe3,689d0a3ded0071a597c9b317,,,,,,,,,,,,,1,,,,,,,,,,,,,,,,,,,,,,,,,,,,,,,,,,,,,68,alegre,,,,,347.628,348.724,0,0,0.557,,0,60,60,67,1,REAL,FAKE,,,,,,,,,,,,,,,,,
,,,,,,,,,5d88f2f8cefb52001a83f1b2,spanish,13 or older,"no, only English or Spanish",yes,2025-08-13_17h58.14.698,empathy_intonation_perc_control,2024.2.4,MacIntel,2.624671916,5d88f2f8cefb52001a83f1b2,68817205a84113384fffdfe3,689d0a3ded0071a597c9b317,,,,,,,,,,,,,1,,,,,,,,,,,,,,,,,,,,,,,,,,,,,,,,,,,,,65,bizcocho,,,,,348.724,349.826,0,0,0.563,,0,61,61,64,1,REAL,FAKE,,,,,,,,,,,,,,,,,
,,,,,,,,,5d88f2f8cefb52001a83f1b2,spanish,13 or older,"no, only English or Spanish",yes,2025-08-13_17h58.14.698,empathy_intonation_perc_control,2024.2.4,MacIntel,2.624671916,5d88f2f8cefb52001a83f1b2,68817205a84113384fffdfe3,689d0a3ded0071a597c9b317,,,,,,,,,,,,,0,,,,,,,,,,,,,,,,,,,,,,,,,,,,,,,,,,,,,17,floroso,,,,,349.827,350.904,0,1,0.537,,0,62,62,16,1,REAL,FAKE,,,,,,,,,,,,,,,,,
,,,,,,,,,5d88f2f8cefb52001a83f1b2,spanish,13 or older,"no, only English or Spanish",yes,2025-08-13_17h58.14.698,empathy_intonation_perc_control,2024.2.4,MacIntel,2.624671916,5d88f2f8cefb52001a83f1b2,68817205a84113384fffdfe3,689d0a3ded0071a597c9b317,,,,,,,,,,,,,1,,,,,,,,,,,,,,,,,,,,,,,,,,,,,,,,,,,,,71,polvoriento,,,,,350.904,351.981,0,0,0.536,,0,63,63,70,1,REAL,FAKE,,,,,,,,,,,,,,,,,
,,,,,,,,,5d88f2f8cefb52001a83f1b2,spanish,13 or older,"no, only English or Spanish",yes,2025-08-13_17h58.14.698,empathy_intonation_perc_control,2024.2.4,MacIntel,2.624671916,5d88f2f8cefb52001a83f1b2,68817205a84113384fffdfe3,689d0a3ded0071a597c9b317,,,,,,,,,,,,,0,,,,,,,,,,,,,,,,,,,,,,,,,,,,,,,,,,,,,29,decar,,,,,351.981,353.062,0,1,0.542,,0,64,64,28,1,REAL,FAKE,,,,,,,,,,,,,,,,,
,,,,,,,,,5d88f2f8cefb52001a83f1b2,spanish,13 or older,"no, only English or Spanish",yes,2025-08-13_17h58.14.698,empathy_intonation_perc_control,2024.2.4,MacIntel,2.624671916,5d88f2f8cefb52001a83f1b2,68817205a84113384fffdfe3,689d0a3ded0071a597c9b317,,,,,,,,,,,,,1,,,,,,,,,,,,,,,,,,,,,,,,,,,,,,,,,,,,,9,hacha,,,,,353.062,354.036,0,0,0.436,,0,65,65,8,1,REAL,FAKE,,,,,,,,,,,,,,,,,
,,,,,,,,,5d88f2f8cefb52001a83f1b2,spanish,13 or older,"no, only English or Spanish",yes,2025-08-13_17h58.14.698,empathy_intonation_perc_control,2024.2.4,MacIntel,2.624671916,5d88f2f8cefb52001a83f1b2,68817205a84113384fffdfe3,689d0a3ded0071a597c9b317,,,,,,,,,,,,,0,,,,,,,,,,,,,,,,,,,,,,,,,,,,,,,,,,,,,58,plaudir,,,,,354.037,355.033,0,1,0.457,,0,66,66,57,1,REAL,FAKE,,,,,,,,,,,,,,,,,
,,,,,,,,,5d88f2f8cefb52001a83f1b2,spanish,13 or older,"no, only English or Spanish",yes,2025-08-13_17h58.14.698,empathy_intonation_perc_control,2024.2.4,MacIntel,2.624671916,5d88f2f8cefb52001a83f1b2,68817205a84113384fffdfe3,689d0a3ded0071a597c9b317,,,,,,,,,,,,,0,,,,,,,,,,,,,,,,,,,,,,,,,,,,,,,,,,,,,79,tropaje,,,,,355.033,356.434,0,1,0.866,,0,67,67,78,1,REAL,FAKE,,,,,,,,,,,,,,,,,
,,,,,,,,,5d88f2f8cefb52001a83f1b2,spanish,13 or older,"no, only English or Spanish",yes,2025-08-13_17h58.14.698,empathy_intonation_perc_control,2024.2.4,MacIntel,2.624671916,5d88f2f8cefb52001a83f1b2,68817205a84113384fffdfe3,689d0a3ded0071a597c9b317,,,,,,,,,,,,,1,,,,,,,,,,,,,,,,,,,,,,,,,,,,,,,,,,,,,78,frondoso,,,,,356.434,357.597,0,0,0.625,,0,68,68,77,1,REAL,FAKE,,,,,,,,,,,,,,,,,
,,,,,,,,,5d88f2f8cefb52001a83f1b2,spanish,13 or older,"no, only English or Spanish",yes,2025-08-13_17h58.14.698,empathy_intonation_perc_control,2024.2.4,MacIntel,2.624671916,5d88f2f8cefb52001a83f1b2,68817205a84113384fffdfe3,689d0a3ded0071a597c9b317,,,,,,,,,,,,,1,,,,,,,,,,,,,,,,,,,,,,,,,,,,,,,,,,,,,56,musgo,,,,,357.598,358.718,0,0,0.582,,0,69,69,55,1,REAL,FAKE,,,,,,,,,,,,,,,,,
,,,,,,,,,5d88f2f8cefb52001a83f1b2,spanish,13 or older,"no, only English or Spanish",yes,2025-08-13_17h58.14.698,empathy_intonation_perc_control,2024.2.4,MacIntel,2.624671916,5d88f2f8cefb52001a83f1b2,68817205a84113384fffdfe3,689d0a3ded0071a597c9b317,,,,,,,,,,,,,1,,,,,,,,,,,,,,,,,,,,,,,,,,,,,,,,,,,,,44,cuchara,,,,,358.718,360.023,1,1,0.764,,0,70,70,43,1,REAL,FAKE,,,,,,,,,,,,,,,,,
,,,,,,,,,5d88f2f8cefb52001a83f1b2,spanish,13 or older,"no, only English or Spanish",yes,2025-08-13_17h58.14.698,empathy_intonation_perc_control,2024.2.4,MacIntel,2.624671916,5d88f2f8cefb52001a83f1b2,68817205a84113384fffdfe3,689d0a3ded0071a597c9b317,,,,,,,,,,,,,0,,,,,,,,,,,,,,,,,,,,,,,,,,,,,,,,,,,,,4,batillón,,,,,360.023,361.157,1,0,0.595,,0,71,71,3,1,REAL,FAKE,,,,,,,,,,,,,,,,,
,,,,,,,,,5d88f2f8cefb52001a83f1b2,spanish,13 or older,"no, only English or Spanish",yes,2025-08-13_17h58.14.698,empathy_intonation_perc_control,2024.2.4,MacIntel,2.624671916,5d88f2f8cefb52001a83f1b2,68817205a84113384fffdfe3,689d0a3ded0071a597c9b317,,,,,,,,,,,,,0,,,,,,,,,,,,,,,,,,,,,,,,,,,,,,,,,,,,,10,antar,,,,,361.157,362.54,0,1,0.84,,0,72,72,9,1,REAL,FAKE,,,,,,,,,,,,,,,,,
,,,,,,,,,5d88f2f8cefb52001a83f1b2,spanish,13 or older,"no, only English or Spanish",yes,2025-08-13_17h58.14.698,empathy_intonation_perc_control,2024.2.4,MacIntel,2.624671916,5d88f2f8cefb52001a83f1b2,68817205a84113384fffdfe3,689d0a3ded0071a597c9b317,,,,,,,,,,,,,0,,,,,,,,,,,,,,,,,,,,,,,,,,,,,,,,,,,,,27,acutación,,,,,362.541,363.836,0,1,0.751,,0,73,73,26,1,REAL,FAKE,,,,,,,,,,,,,,,,,
,,,,,,,,,5d88f2f8cefb52001a83f1b2,spanish,13 or older,"no, only English or Spanish",yes,2025-08-13_17h58.14.698,empathy_intonation_perc_control,2024.2.4,MacIntel,2.624671916,5d88f2f8cefb52001a83f1b2,68817205a84113384fffdfe3,689d0a3ded0071a597c9b317,,,,,,,,,,,,,1,,,,,,,,,,,,,,,,,,,,,,,,,,,,,,,,,,,,,3,pulmones,,,,,363.836,365.159,1,1,0.783,,0,74,74,2,1,REAL,FAKE,,,,,,,,,,,,,,,,,
,,,,,,,,,5d88f2f8cefb52001a83f1b2,spanish,13 or older,"no, only English or Spanish",yes,2025-08-13_17h58.14.698,empathy_intonation_perc_control,2024.2.4,MacIntel,2.624671916,5d88f2f8cefb52001a83f1b2,68817205a84113384fffdfe3,689d0a3ded0071a597c9b317,,,,,,,,,,,,,1,,,,,,,,,,,,,,,,,,,,,,,,,,,,,,,,,,,,,85,laúd,,,,,365.159,366.279,0,0,0.574,,0,75,75,84,1,REAL,FAKE,,,,,,,,,,,,,,,,,
,,,,,,,,,5d88f2f8cefb52001a83f1b2,spanish,13 or older,"no, only English or Spanish",yes,2025-08-13_17h58.14.698,empathy_intonation_perc_control,2024.2.4,MacIntel,2.624671916,5d88f2f8cefb52001a83f1b2,68817205a84113384fffdfe3,689d0a3ded0071a597c9b317,,,,,,,,,,,,,1,,,,,,,,,,,,,,,,,,,,,,,,,,,,,,,,,,,,,37,granuja,,,,,366.279,367.321,0,0,0.496,,0,76,76,36,1,REAL,FAKE,,,,,,,,,,,,,,,,,
,,,,,,,,,5d88f2f8cefb52001a83f1b2,spanish,13 or older,"no, only English or Spanish",yes,2025-08-13_17h58.14.698,empathy_intonation_perc_control,2024.2.4,MacIntel,2.624671916,5d88f2f8cefb52001a83f1b2,68817205a84113384fffdfe3,689d0a3ded0071a597c9b317,,,,,,,,,,,,,1,,,,,,,,,,,,,,,,,,,,,,,,,,,,,,,,,,,,,59,besar,,,,,367.322,368.543,1,1,0.682,,0,77,77,58,1,REAL,FAKE,,,,,,,,,,,,,,,,,
,,,,,,,,,5d88f2f8cefb52001a83f1b2,spanish,13 or older,"no, only English or Spanish",yes,2025-08-13_17h58.14.698,empathy_intonation_perc_control,2024.2.4,MacIntel,2.624671916,5d88f2f8cefb52001a83f1b2,68817205a84113384fffdfe3,689d0a3ded0071a597c9b317,,,,,,,,,,,,,1,,,,,,,,,,,,,,,,,,,,,,,,,,,,,,,,,,,,,11,cenefa,,,,,368.544,369.699,0,0,0.609,,0,78,78,10,1,REAL,FAKE,,,,,,,,,,,,,,,,,
,,,,,,,,,5d88f2f8cefb52001a83f1b2,spanish,13 or older,"no, only English or Spanish",yes,2025-08-13_17h58.14.698,empathy_intonation_perc_control,2024.2.4,MacIntel,2.624671916,5d88f2f8cefb52001a83f1b2,68817205a84113384fffdfe3,689d0a3ded0071a597c9b317,,,,,,,,,,,,,0,,,,,,,,,,,,,,,,,,,,,,,,,,,,,,,,,,,,,19,brecedad,,,,,369.699,370.741,0,1,0.498,,0,79,79,18,1,REAL,FAKE,,,,,,,,,,,,,,,,,
,,,,,,,,,5d88f2f8cefb52001a83f1b2,spanish,13 or older,"no, only English or Spanish",yes,2025-08-13_17h58.14.698,empathy_intonation_perc_control,2024.2.4,MacIntel,2.624671916,5d88f2f8cefb52001a83f1b2,68817205a84113384fffdfe3,689d0a3ded0071a597c9b317,,,,,,,,,,,,,0,,,,,,,,,,,,,,,,,,,,,,,,,,,,,,,,,,,,,32,fatacidad,,,,,370.741,371.964,0,1,0.68,,0,80,80,31,1,REAL,FAKE,,,,,,,,,,,,,,,,,
,,,,,,,,,5d88f2f8cefb52001a83f1b2,spanish,13 or older,"no, only English or Spanish",yes,2025-08-13_17h58.14.698,empathy_intonation_perc_control,2024.2.4,MacIntel,2.624671916,5d88f2f8cefb52001a83f1b2,68817205a84113384fffdfe3,689d0a3ded0071a597c9b317,,,,,,,,,,,,,1,,,,,,,,,,,,,,,,,,,,,,,,,,,,,,,,,,,,,49,ganar,,,,,371.964,373.079,0,0,0.578,,0,81,81,48,1,REAL,FAKE,,,,,,,,,,,,,,,,,
,,,,,,,,,5d88f2f8cefb52001a83f1b2,spanish,13 or older,"no, only English or Spanish",yes,2025-08-13_17h58.14.698,empathy_intonation_perc_control,2024.2.4,MacIntel,2.624671916,5d88f2f8cefb52001a83f1b2,68817205a84113384fffdfe3,689d0a3ded0071a597c9b317,,,,,,,,,,,,,1,,,,,,,,,,,,,,,,,,,,,,,,,,,,,,,,,,,,,41,rebuscar,,,,,373.079,374.154,0,0,0.535,,0,82,82,40,1,REAL,FAKE,,,,,,,,,,,,,,,,,
,,,,,,,,,5d88f2f8cefb52001a83f1b2,spanish,13 or older,"no, only English or Spanish",yes,2025-08-13_17h58.14.698,empathy_intonation_perc_control,2024.2.4,MacIntel,2.624671916,5d88f2f8cefb52001a83f1b2,68817205a84113384fffdfe3,689d0a3ded0071a597c9b317,,,,,,,,,,,,,1,,,,,,,,,,,,,,,,,,,,,,,,,,,,,,,,,,,,,91,click the 1 key.,,,,,374.155,375.482,1,1,0.783,,0,83,83,90,1,REAL,FAKE,,,,,,,,,,,,,,,,,
,,,,,,,,,5d88f2f8cefb52001a83f1b2,spanish,13 or older,"no, only English or Spanish",yes,2025-08-13_17h58.14.698,empathy_intonation_perc_control,2024.2.4,MacIntel,2.624671916,5d88f2f8cefb52001a83f1b2,68817205a84113384fffdfe3,689d0a3ded0071a597c9b317,,,,,,,,,,,,,1,,,,,,,,,,,,,,,,,,,,,,,,,,,,,,,,,,,,,7,pésimo,,,,,375.482,376.766,1,1,0.744,,0,84,84,6,1,REAL,FAKE,,,,,,,,,,,,,,,,,
,,,,,,,,,5d88f2f8cefb52001a83f1b2,spanish,13 or older,"no, only English or Spanish",yes,2025-08-13_17h58.14.698,empathy_intonation_perc_control,2024.2.4,MacIntel,2.624671916,5d88f2f8cefb52001a83f1b2,68817205a84113384fffdfe3,689d0a3ded0071a597c9b317,,,,,,,,,,,,,0,,,,,,,,,,,,,,,,,,,,,,,,,,,,,,,,,,,,,87,grodo,,,,,376.767,377.801,0,1,0.491,,0,85,85,86,1,REAL,FAKE,,,,,,,,,,,,,,,,,
,,,,,,,,,5d88f2f8cefb52001a83f1b2,spanish,13 or older,"no, only English or Spanish",yes,2025-08-13_17h58.14.698,empathy_intonation_perc_control,2024.2.4,MacIntel,2.624671916,5d88f2f8cefb52001a83f1b2,68817205a84113384fffdfe3,689d0a3ded0071a597c9b317,,,,,,,,,,,,,0,,,,,,,,,,,,,,,,,,,,,,,,,,,,,,,,,,,,,23,lampera,,,,,377.801,378.874,0,1,0.529,,0,86,86,22,1,REAL,FAKE,,,,,,,,,,,,,,,,,
,,,,,,,,,5d88f2f8cefb52001a83f1b2,spanish,13 or older,"no, only English or Spanish",yes,2025-08-13_17h58.14.698,empathy_intonation_perc_control,2024.2.4,MacIntel,2.624671916,5d88f2f8cefb52001a83f1b2,68817205a84113384fffdfe3,689d0a3ded0071a597c9b317,,,,,,,,,,,,,1,,,,,,,,,,,,,,,,,,,,,,,,,,,,,,,,,,,,,34,aviso,,,,,378.874,379.992,1,1,0.575,,0,87,87,33,1,REAL,FAKE,,,,,,,,,,,,,,,,,
,,,,,,,,,5d88f2f8cefb52001a83f1b2,spanish,13 or older,"no, only English or Spanish",yes,2025-08-13_17h58.14.698,empathy_intonation_perc_control,2024.2.4,MacIntel,2.624671916,5d88f2f8cefb52001a83f1b2,68817205a84113384fffdfe3,689d0a3ded0071a597c9b317,,,,,,,,,,,,,1,,,,,,,,,,,,,,,,,,,,,,,,,,,,,,,,,,,,,14,yunque,,,,,379.992,381.036,0,0,0.5,,0,88,88,13,1,REAL,FAKE,,,,,,,,,,,,,,,,,
,,,,,,,,,5d88f2f8cefb52001a83f1b2,spanish,13 or older,"no, only English or Spanish",yes,2025-08-13_17h58.14.698,empathy_intonation_perc_control,2024.2.4,MacIntel,2.624671916,5d88f2f8cefb52001a83f1b2,68817205a84113384fffdfe3,689d0a3ded0071a597c9b317,,,,,,,,,,,,,1,,,,,,,,,,,,,,,,,,,,,,,,,,,,,,,,,,,,,43,canela,,,,,381.036,382.338,0,0,0.764,,0,89,89,42,1,REAL,FAKE,,,,,,,,,,,,,,,,,
,,,,,,,,,5d88f2f8cefb52001a83f1b2,spanish,13 or older,"no, only English or Spanish",yes,2025-08-13_17h58.14.698,empathy_intonation_perc_control,2024.2.4,MacIntel,2.624671916,5d88f2f8cefb52001a83f1b2,68817205a84113384fffdfe3,689d0a3ded0071a597c9b317,,,,,,,,,,,,,1,,,,,,,,,,,,,,,,,,,,,,,,,,,,,,,,,,,,,24,látigo,,,,,382.338,383.705,0,0,0.828,,0,90,90,23,1,REAL,FAKE,,,,,,,,,,,,,,,,,
,,,,,,,,,5d88f2f8cefb52001a83f1b2,spanish,13 or older,"no, only English or Spanish",yes,2025-08-13_17h58.14.698,empathy_intonation_perc_control,2024.2.4,MacIntel,2.624671916,5d88f2f8cefb52001a83f1b2,68817205a84113384fffdfe3,689d0a3ded0071a597c9b317,,,,,,,,,,,,,1,,,,,,,,,,,,,,,,,,,,,,,,,,,,,,,,,,,,,62,flaco,,,,,383.705,384.743,0,0,0.51,,0,91,91,61,1,REAL,FAKE,,,,,,,,,,,,,,,,,
,,,,,,,,,5d88f2f8cefb52001a83f1b2,spanish,13 or older,"no, only English or Spanish",yes,2025-08-13_17h58.14.698,empathy_intonation_perc_control,2024.2.4,MacIntel,2.624671916,5d88f2f8cefb52001a83f1b2,68817205a84113384fffdfe3,689d0a3ded0071a597c9b317,,,,,,,,,,,,,,,,,,,,,,,,,,,,,,,,,,,,,,,,,,,,,,,,,,,,,,,,,,,,,,,,,,,,,384.743,388.103,,,,,,,,,,,,,,,
,,,,,,,,,5d88f2f8cefb52001a83f1b2,spanish,13 or older,"no, only English or Spanish",yes,2025-08-13_17h58.14.698,empathy_intonation_perc_control,2024.2.4,MacIntel,2.624671916,5d88f2f8cefb52001a83f1b2,68817205a84113384fffdfe3,689d0a3ded0071a597c9b317,,,,,,,,,,,,,,,,,,,,,,,,,,,1,,,,,,,,,,,,,,,,,,,,,,,,,,,,,,,,,,,,,,,,,,,,388.113,393.24,strongly agree,0,0,0,0,1,I can easily tell if someone else wants to enter a conversation.,1,0,1,0,,
,,,,,,,,,5d88f2f8cefb52001a83f1b2,spanish,13 or older,"no, only English or Spanish",yes,2025-08-13_17h58.14.698,empathy_intonation_perc_control,2024.2.4,MacIntel,2.624671916,5d88f2f8cefb52001a83f1b2,68817205a84113384fffdfe3,689d0a3ded0071a597c9b317,,,,,,,,,,,,,,,,,,,,,,,,,,,2,,,,,,,,,,,,,,,,,,,,,,,,,,,,,,,,,,,,,,,,,,,,393.241,396.666,slightly disagree,0,1,1,1,1,I prefer animals to humans.,0,1,0,0,,
,,,,,,,,,5d88f2f8cefb52001a83f1b2,spanish,13 or older,"no, only English or Spanish",yes,2025-08-13_17h58.14.698,empathy_intonation_perc_control,2024.2.4,MacIntel,2.624671916,5d88f2f8cefb52001a83f1b2,68817205a84113384fffdfe3,689d0a3ded0071a597c9b317,,,,,,,,,,,,,,,,,,,,,,,,,,,3,,,,,,,,,,,,,,,,,,,,,,,,,,,,,,,,,,,,,,,,,,,,396.667,399.171,slightly agree,0,2,2,2,1,I try to keep up with the current trends and fashions.,0,1,0,0,,
,,,,,,,,,5d88f2f8cefb52001a83f1b2,spanish,13 or older,"no, only English or Spanish",yes,2025-08-13_17h58.14.698,empathy_intonation_perc_control,2024.2.4,MacIntel,2.624671916,5d88f2f8cefb52001a83f1b2,68817205a84113384fffdfe3,689d0a3ded0071a597c9b317,,,,,,,,,,,,,,,,,,,,,,,,,,,4,,,,,,,,,,,,,,,,,,,,,,,,,,,,,,,,,,,,,,,,,,,,399.172,408.293,strongly disagree,0,3,3,3,1,"I find it difficult to explain to others things that I understand easily,   when they don't understand it first time.",1,0,0,1,,
,,,,,,,,,5d88f2f8cefb52001a83f1b2,spanish,13 or older,"no, only English or Spanish",yes,2025-08-13_17h58.14.698,empathy_intonation_perc_control,2024.2.4,MacIntel,2.624671916,5d88f2f8cefb52001a83f1b2,68817205a84113384fffdfe3,689d0a3ded0071a597c9b317,,,,,,,,,,,,,,,,,,,,,,,,,,,5,,,,,,,,,,,,,,,,,,,,,,,,,,,,,,,,,,,,,,,,,,,,408.293,411.358,slightly disagree,0,4,4,4,1,I dream most nights.,0,1,0,0,,
,,,,,,,,,5d88f2f8cefb52001a83f1b2,spanish,13 or older,"no, only English or Spanish",yes,2025-08-13_17h58.14.698,empathy_intonation_perc_control,2024.2.4,MacIntel,2.624671916,5d88f2f8cefb52001a83f1b2,68817205a84113384fffdfe3,689d0a3ded0071a597c9b317,,,,,,,,,,,,,,,,,,,,,,,,,,,6,,,,,,,,,,,,,,,,,,,,,,,,,,,,,,,,,,,,,,,,,,,,411.359,413.303,strongly agree,0,5,5,5,1,I really enjoy caring for other people.,1,0,1,0,,
,,,,,,,,,5d88f2f8cefb52001a83f1b2,spanish,13 or older,"no, only English or Spanish",yes,2025-08-13_17h58.14.698,empathy_intonation_perc_control,2024.2.4,MacIntel,2.624671916,5d88f2f8cefb52001a83f1b2,68817205a84113384fffdfe3,689d0a3ded0071a597c9b317,,,,,,,,,,,,,,,,,,,,,,,,,,,7,,,,,,,,,,,,,,,,,,,,,,,,,,,,,,,,,,,,,,,,,,,,413.304,415.407,strongly agree,0,6,6,6,1,I try to solve my own problems rather than discussing them with others.,0,1,0,0,,
,,,,,,,,,5d88f2f8cefb52001a83f1b2,spanish,13 or older,"no, only English or Spanish",yes,2025-08-13_17h58.14.698,empathy_intonation_perc_control,2024.2.4,MacIntel,2.624671916,5d88f2f8cefb52001a83f1b2,68817205a84113384fffdfe3,689d0a3ded0071a597c9b317,,,,,,,,,,,,,,,,,,,,,,,,,,,8,,,,,,,,,,,,,,,,,,,,,,,,,,,,,,,,,,,,,,,,,,,,415.408,418.58,slightly disagree,0,7,7,7,1,I find it hard to know what to do in a social situation.,1,0,0,1,,
,,,,,,,,,5d88f2f8cefb52001a83f1b2,spanish,13 or older,"no, only English or Spanish",yes,2025-08-13_17h58.14.698,empathy_intonation_perc_control,2024.2.4,MacIntel,2.624671916,5d88f2f8cefb52001a83f1b2,68817205a84113384fffdfe3,689d0a3ded0071a597c9b317,,,,,,,,,,,,,,,,,,,,,,,,,,,9,,,,,,,,,,,,,,,,,,,,,,,,,,,,,,,,,,,,,,,,,,,,418.581,420.916,slightly disagree,0,8,8,8,1,I am at my best first thing in the morning.,0,1,0,0,,
,,,,,,,,,5d88f2f8cefb52001a83f1b2,spanish,13 or older,"no, only English or Spanish",yes,2025-08-13_17h58.14.698,empathy_intonation_perc_control,2024.2.4,MacIntel,2.624671916,5d88f2f8cefb52001a83f1b2,68817205a84113384fffdfe3,689d0a3ded0071a597c9b317,,,,,,,,,,,,,,,,,,,,,,,,,,,10,,,,,,,,,,,,,,,,,,,,,,,,,,,,,,,,,,,,,,,,,,,,420.917,425.095,strongly disagree,0,9,9,9,1,People often tell me that I went too far in driving my point home in a discussion.,1,0,0,1,,
,,,,,,,,,5d88f2f8cefb52001a83f1b2,spanish,13 or older,"no, only English or Spanish",yes,2025-08-13_17h58.14.698,empathy_intonation_perc_control,2024.2.4,MacIntel,2.624671916,5d88f2f8cefb52001a83f1b2,68817205a84113384fffdfe3,689d0a3ded0071a597c9b317,,,,,,,,,,,,,,,,,,,,,,,,,,,11,,,,,,,,,,,,,,,,,,,,,,,,,,,,,,,,,,,,,,,,,,,,425.096,429.485,strongly disagree,0,10,10,10,1,It doesn't bother me too much if I am late meeting a friend.,1,0,0,1,,
,,,,,,,,,5d88f2f8cefb52001a83f1b2,spanish,13 or older,"no, only English or Spanish",yes,2025-08-13_17h58.14.698,empathy_intonation_perc_control,2024.2.4,MacIntel,2.624671916,5d88f2f8cefb52001a83f1b2,68817205a84113384fffdfe3,689d0a3ded0071a597c9b317,,,,,,,,,,,,,,,,,,,,,,,,,,,12,,,,,,,,,,,,,,,,,,,,,,,,,,,,,,,,,,,,,,,,,,,,429.486,432.406,strongly disagree,0,11,11,11,1,"Friendships and relationships are just too difficult, so I tend not to 
  bother with them.",1,0,0,1,,
,,,,,,,,,5d88f2f8cefb52001a83f1b2,spanish,13 or older,"no, only English or Spanish",yes,2025-08-13_17h58.14.698,empathy_intonation_perc_control,2024.2.4,MacIntel,2.624671916,5d88f2f8cefb52001a83f1b2,68817205a84113384fffdfe3,689d0a3ded0071a597c9b317,,,,,,,,,,,,,,,,,,,,,,,,,,,13,,,,,,,,,,,,,,,,,,,,,,,,,,,,,,,,,,,,,,,,,,,,432.406,436.325,strongly agree,0,12,12,12,1,"I would never break a law, no matter how minor.",0,1,0,0,,
,,,,,,,,,5d88f2f8cefb52001a83f1b2,spanish,13 or older,"no, only English or Spanish",yes,2025-08-13_17h58.14.698,empathy_intonation_perc_control,2024.2.4,MacIntel,2.624671916,5d88f2f8cefb52001a83f1b2,68817205a84113384fffdfe3,689d0a3ded0071a597c9b317,,,,,,,,,,,,,,,,,,,,,,,,,,,14,,,,,,,,,,,,,,,,,,,,,,,,,,,,,,,,,,,,,,,,,,,,436.326,441.792,slightly disagree,0,13,13,13,1,I often find it difficult to judge if something is rude or polite.,1,0,0,1,,
,,,,,,,,,5d88f2f8cefb52001a83f1b2,spanish,13 or older,"no, only English or Spanish",yes,2025-08-13_17h58.14.698,empathy_intonation_perc_control,2024.2.4,MacIntel,2.624671916,5d88f2f8cefb52001a83f1b2,68817205a84113384fffdfe3,689d0a3ded0071a597c9b317,,,,,,,,,,,,,,,,,,,,,,,,,,,15,,,,,,,,,,,,,,,,,,,,,,,,,,,,,,,,,,,,,,,,,,,,441.792,445.478,slightly disagree,0,14,14,14,1,"In a conversation, I tend to focus on my own thoughts rather than on what 
  my listener might be thinking.",1,0,0,1,,
,,,,,,,,,5d88f2f8cefb52001a83f1b2,spanish,13 or older,"no, only English or Spanish",yes,2025-08-13_17h58.14.698,empathy_intonation_perc_control,2024.2.4,MacIntel,2.624671916,5d88f2f8cefb52001a83f1b2,68817205a84113384fffdfe3,689d0a3ded0071a597c9b317,,,,,,,,,,,,,,,,,,,,,,,,,,,16,,,,,,,,,,,,,,,,,,,,,,,,,,,,,,,,,,,,,,,,,,,,445.479,450.335,slightly disagree,0,15,15,15,1,I prefer practical jokes to verbal humor.,0,1,0,0,,
,,,,,,,,,5d88f2f8cefb52001a83f1b2,spanish,13 or older,"no, only English or Spanish",yes,2025-08-13_17h58.14.698,empathy_intonation_perc_control,2024.2.4,MacIntel,2.624671916,5d88f2f8cefb52001a83f1b2,68817205a84113384fffdfe3,689d0a3ded0071a597c9b317,,,,,,,,,,,,,,,,,,,,,,,,,,,17,,,,,,,,,,,,,,,,,,,,,,,,,,,,,,,,,,,,,,,,,,,,450.336,453.017,slightly disagree,0,16,16,16,1,I live life for today rather than the future.,0,1,0,0,,
,,,,,,,,,5d88f2f8cefb52001a83f1b2,spanish,13 or older,"no, only English or Spanish",yes,2025-08-13_17h58.14.698,empathy_intonation_perc_control,2024.2.4,MacIntel,2.624671916,5d88f2f8cefb52001a83f1b2,68817205a84113384fffdfe3,689d0a3ded0071a597c9b317,,,,,,,,,,,,,,,,,,,,,,,,,,,18,,,,,,,,,,,,,,,,,,,,,,,,,,,,,,,,,,,,,,,,,,,,453.018,455.951,strongly disagree,0,17,17,17,1,"When I was a child, I enjoyed cutting up worms to see what would happen.",1,0,0,1,,
,,,,,,,,,5d88f2f8cefb52001a83f1b2,spanish,13 or older,"no, only English or Spanish",yes,2025-08-13_17h58.14.698,empathy_intonation_perc_control,2024.2.4,MacIntel,2.624671916,5d88f2f8cefb52001a83f1b2,68817205a84113384fffdfe3,689d0a3ded0071a597c9b317,,,,,,,,,,,,,,,,,,,,,,,,,,,19,,,,,,,,,,,,,,,,,,,,,,,,,,,,,,,,,,,,,,,,,,,,455.951,460.37,slightly disagree,0,18,18,18,1,I can pick up quickly if someone says one thing but means another.,1,0,1,0,,
,,,,,,,,,5d88f2f8cefb52001a83f1b2,spanish,13 or older,"no, only English or Spanish",yes,2025-08-13_17h58.14.698,empathy_intonation_perc_control,2024.2.4,MacIntel,2.624671916,5d88f2f8cefb52001a83f1b2,68817205a84113384fffdfe3,689d0a3ded0071a597c9b317,,,,,,,,,,,,,,,,,,,,,,,,,,,20,,,,,,,,,,,,,,,,,,,,,,,,,,,,,,,,,,,,,,,,,,,,460.371,463.33,slightly agree,0,19,19,19,1,I tend to have very strong opinions about morality.,0,1,0,0,,
,,,,,,,,,5d88f2f8cefb52001a83f1b2,spanish,13 or older,"no, only English or Spanish",yes,2025-08-13_17h58.14.698,empathy_intonation_perc_control,2024.2.4,MacIntel,2.624671916,5d88f2f8cefb52001a83f1b2,68817205a84113384fffdfe3,689d0a3ded0071a597c9b317,,,,,,,,,,,,,,,,,,,,,,,,,,,21,,,,,,,,,,,,,,,,,,,,,,,,,,,,,,,,,,,,,,,,,,,,463.331,466.473,slightly disagree,0,20,20,20,1,It is hard for me to see why some things upset people so much.,1,0,0,1,,
,,,,,,,,,5d88f2f8cefb52001a83f1b2,spanish,13 or older,"no, only English or Spanish",yes,2025-08-13_17h58.14.698,empathy_intonation_perc_control,2024.2.4,MacIntel,2.624671916,5d88f2f8cefb52001a83f1b2,68817205a84113384fffdfe3,689d0a3ded0071a597c9b317,,,,,,,,,,,,,,,,,,,,,,,,,,,22,,,,,,,,,,,,,,,,,,,,,,,,,,,,,,,,,,,,,,,,,,,,466.474,469.026,strongly agree,0,21,21,21,1,I find it easy to put myself in somebody else's shoes.,1,0,1,0,,
,,,,,,,,,5d88f2f8cefb52001a83f1b2,spanish,13 or older,"no, only English or Spanish",yes,2025-08-13_17h58.14.698,empathy_intonation_perc_control,2024.2.4,MacIntel,2.624671916,5d88f2f8cefb52001a83f1b2,68817205a84113384fffdfe3,689d0a3ded0071a597c9b317,,,,,,,,,,,,,,,,,,,,,,,,,,,23,,,,,,,,,,,,,,,,,,,,,,,,,,,,,,,,,,,,,,,,,,,,469.026,472.697,strongly agree,0,22,22,22,1,I think that good manners are the most important thing a parent can teach their child.,0,1,0,0,,
,,,,,,,,,5d88f2f8cefb52001a83f1b2,spanish,13 or older,"no, only English or Spanish",yes,2025-08-13_17h58.14.698,empathy_intonation_perc_control,2024.2.4,MacIntel,2.624671916,5d88f2f8cefb52001a83f1b2,68817205a84113384fffdfe3,689d0a3ded0071a597c9b317,,,,,,,,,,,,,,,,,,,,,,,,,,,24,,,,,,,,,,,,,,,,,,,,,,,,,,,,,,,,,,,,,,,,,,,,472.698,475.283,strongly disagree,0,23,23,23,1,I like to do things on the spur of the moment.,0,1,0,0,,
