instructions_2afc.started,instructions_2afc.stopped,instructions_2afc_loop.thisRepN,instructions_2afc_loop.thisTrialN,instructions_2afc_loop.thisN,instructions_2afc_loop.thisIndex,instructions_2afc_loop.ran,instructions_text,continue_text,participant_id,"What variety of Spanish are you most familiar with? (e.g., Peruvian, Spanish, Mexican)",At what age did you begin learning Spanish?,Are you proficient in any languages other than English/Spanish?,"Are you familiar with Caribbean (e.g., Caribbean, Puerto Rican) or Galician Spanish?",date,expName,psychopyVersion,OS,frameRate,id,study_id,session,practice_2afc.started,practice_2afc.stopped,key_resp_2afc_practice.keys,key_resp_2afc_practice.corr,key_resp_2afc_practice.rt,key_resp_2afc_practice.duration,trials_2afc_practice_loop.thisRepN,trials_2afc_practice_loop.thisTrialN,trials_2afc_practice_loop.thisN,trials_2afc_practice_loop.thisIndex,trials_2afc_practice_loop.ran,path,correct_response,check_2afc.started,check_2afc.stopped,trial_2afc.started,trial_2afc.stopped,key_resp_2afc_trial.keys,key_resp_2afc_trial.corr,key_resp_2afc_trial.rt,key_resp_2afc_trial.duration,trials_2afc_loop.thisRepN,trials_2afc_loop.thisTrialN,trials_2afc_loop.thisN,trials_2afc_loop.thisIndex,trials_2afc_loop.ran,item_num,target,variety,instructions_lextale.started,instructions_lextale.stopped,instructions_lextale_loop.thisRepN,instructions_lextale_loop.thisTrialN,instructions_lextale_loop.thisN,instructions_lextale_loop.thisIndex,instructions_lextale_loop.ran,practice_lextale.started,practice_lextale.stopped,key_resp_lextale_practice.keys,key_resp_lextale_practice.corr,key_resp_lextale_practice.rt,key_resp_lextale_practice.duration,practice_feedback_lextale.started,practice_feedback_lextale.stopped,trials_lextale_practice_loop.thisRepN,trials_lextale_practice_loop.thisTrialN,trials_lextale_practice_loop.thisN,trials_lextale_practice_loop.thisIndex,trials_lextale_practice_loop.ran,stim,word,prac_button_real,prac_button_false,check_lextale.started,check_lextale.stopped,trial_lextale.started,trial_lextale.stopped,key_resp_lextale_trial.keys,key_resp_lextale_trial.corr,key_resp_lextale_trial.rt,key_resp_lextale_trial.duration,trials_lextale_loop.thisRepN,trials_lextale_loop.thisTrialN,trials_lextale_loop.thisN,trials_lextale_loop.thisIndex,trials_lextale_loop.ran,button_real,button_false,instructions_eq.started,instructions_eq.stopped,trial_eq.started,trial_eq.stopped,slider_eq_trial.response,trials_eq_loop.thisRepN,trials_eq_loop.thisTrialN,trials_eq_loop.thisN,trials_eq_loop.thisIndex,trials_eq_loop.ran,item,is_test_item,is_distractor,is_agree_score,is_disagree_score,end_exp.started,end_exp.stopped
0.0067,4.7789,0,0,0,0,1,"In the following task you are going to hear a series of utterances. 

  You will decide if the utterances sound like questions or not using your keyboard.", (press the spacebar to continue),5dad4c34b3446a0015e3de93,Spanish,13 or older,"no, only English or Spanish",no,2025-08-12_16h06.59.435,empathy_intonation_perc_control,2024.2.4,Win32,144.9275362,5dad4c34b3446a0015e3de93,68817205a84113384fffdfe3,689b9ec0afeb1cc867891d21,,,,,,,,,,,,,,,,,,,,,,,,,,,,,,,,,,,,,,,,,,,,,,,,,,,,,,,,,,,,,,,,,,,,,,,,,,,,,,,,,,,,,
4.7814,9.4877,0,1,1,1,1,"If you believe the utterance is a question, type '1' (for 'yes') and if you do not 
  believe it is a question type '0' (for 'no').

  Let's practice a bit...", (press the spacebar to continue),5dad4c34b3446a0015e3de93,Spanish,13 or older,"no, only English or Spanish",no,2025-08-12_16h06.59.435,empathy_intonation_perc_control,2024.2.4,Win32,144.9275362,5dad4c34b3446a0015e3de93,68817205a84113384fffdfe3,689b9ec0afeb1cc867891d21,,,,,,,,,,,,,,,,,,,,,,,,,,,,,,,,,,,,,,,,,,,,,,,,,,,,,,,,,,,,,,,,,,,,,,,,,,,,,,,,,,,,,
,,,,,,,,,5dad4c34b3446a0015e3de93,Spanish,13 or older,"no, only English or Spanish",no,2025-08-12_16h06.59.435,empathy_intonation_perc_control,2024.2.4,Win32,144.9275362,5dad4c34b3446a0015e3de93,68817205a84113384fffdfe3,689b9ec0afeb1cc867891d21,9.4937,12.6411,1,1,2.6401,,0,0,0,1,1,./stim/wavs/argentine_question_filler_Mi-vecino-habla-mucho.wav,1,,,,,,,,,,,,,,,,,,,,,,,,,,,,,,,,,,,,,,,,,,,,,,,,,,,,,,,,,,,,,,,,,,,,,,,,
,,,,,,,,,5dad4c34b3446a0015e3de93,Spanish,13 or older,"no, only English or Spanish",no,2025-08-12_16h06.59.435,empathy_intonation_perc_control,2024.2.4,Win32,144.9275362,5dad4c34b3446a0015e3de93,68817205a84113384fffdfe3,689b9ec0afeb1cc867891d21,12.6413,15.1828,0,1,2.0303,,0,1,1,7,1,./stim/wavs/puertorican_statement_filler_La-nina-pinta-con-su-amiga.wav,0,,,,,,,,,,,,,,,,,,,,,,,,,,,,,,,,,,,,,,,,,,,,,,,,,,,,,,,,,,,,,,,,,,,,,,,,
,,,,,,,,,5dad4c34b3446a0015e3de93,Spanish,13 or older,"no, only English or Spanish",no,2025-08-12_16h06.59.435,empathy_intonation_perc_control,2024.2.4,Win32,144.9275362,5dad4c34b3446a0015e3de93,68817205a84113384fffdfe3,689b9ec0afeb1cc867891d21,15.1831,18.1624,0,0,2.4673,,0,2,2,2,1,./stim/wavs/chilean_question_filler_Mi-padre-cantaba-bien.wav,1,,,,,,,,,,,,,,,,,,,,,,,,,,,,,,,,,,,,,,,,,,,,,,,,,,,,,,,,,,,,,,,,,,,,,,,,
,,,,,,,,,5dad4c34b3446a0015e3de93,Spanish,13 or older,"no, only English or Spanish",no,2025-08-12_16h06.59.435,empathy_intonation_perc_control,2024.2.4,Win32,144.9275362,5dad4c34b3446a0015e3de93,68817205a84113384fffdfe3,689b9ec0afeb1cc867891d21,18.1627,21.4478,0,1,2.7727,,0,3,3,6,1,./stim/wavs/peruvian_statement_filler_El-nino-habla-con-su-madre.wav,0,,,,,,,,,,,,,,,,,,,,,,,,,,,,,,,,,,,,,,,,,,,,,,,,,,,,,,,,,,,,,,,,,,,,,,,,
,,,,,,,,,5dad4c34b3446a0015e3de93,Spanish,13 or older,"no, only English or Spanish",no,2025-08-12_16h06.59.435,empathy_intonation_perc_control,2024.2.4,Win32,144.9275362,5dad4c34b3446a0015e3de93,68817205a84113384fffdfe3,689b9ec0afeb1cc867891d21,21.4483,23.9062,1,1,1.947,,0,4,4,3,1,./stim/wavs/mexican_question_filler_Felipe-no-tiene-contrasena.wav,1,,,,,,,,,,,,,,,,,,,,,,,,,,,,,,,,,,,,,,,,,,,,,,,,,,,,,,,,,,,,,,,,,,,,,,,,
,,,,,,,,,5dad4c34b3446a0015e3de93,Spanish,13 or older,"no, only English or Spanish",no,2025-08-12_16h06.59.435,empathy_intonation_perc_control,2024.2.4,Win32,144.9275362,5dad4c34b3446a0015e3de93,68817205a84113384fffdfe3,689b9ec0afeb1cc867891d21,23.9065,26.4485,0,1,2.0373,,0,5,5,4,1,./stim/wavs/cuban_statement_filler_Cocinabas-por-la-noche.wav,0,,,,,,,,,,,,,,,,,,,,,,,,,,,,,,,,,,,,,,,,,,,,,,,,,,,,,,,,,,,,,,,,,,,,,,,,
,,,,,,,,,5dad4c34b3446a0015e3de93,Spanish,13 or older,"no, only English or Spanish",no,2025-08-12_16h06.59.435,empathy_intonation_perc_control,2024.2.4,Win32,144.9275362,5dad4c34b3446a0015e3de93,68817205a84113384fffdfe3,689b9ec0afeb1cc867891d21,26.4488,29.0322,0,1,2.0711,,0,6,6,5,1,./stim/wavs/andalusian_statement_filler_Alberto-nunca-se-afeita.wav,0,,,,,,,,,,,,,,,,,,,,,,,,,,,,,,,,,,,,,,,,,,,,,,,,,,,,,,,,,,,,,,,,,,,,,,,,
,,,,,,,,,5dad4c34b3446a0015e3de93,Spanish,13 or older,"no, only English or Spanish",no,2025-08-12_16h06.59.435,empathy_intonation_perc_control,2024.2.4,Win32,144.9275362,5dad4c34b3446a0015e3de93,68817205a84113384fffdfe3,689b9ec0afeb1cc867891d21,29.0328,33.7133,1,1,4.1707,,0,7,7,0,1,./stim/wavs/castilian_question_filler_Mi-esposo-conoce-al-chico.wav,1,,,,,,,,,,,,,,,,,,,,,,,,,,,,,,,,,,,,,,,,,,,,,,,,,,,,,,,,,,,,,,,,,,,,,,,,
,,,,,,,,,5dad4c34b3446a0015e3de93,Spanish,13 or older,"no, only English or Spanish",no,2025-08-12_16h06.59.435,empathy_intonation_perc_control,2024.2.4,Win32,144.9275362,5dad4c34b3446a0015e3de93,68817205a84113384fffdfe3,689b9ec0afeb1cc867891d21,,,,,,,,,,,,,,33.7134,37.9501,,,,,,,,,,,,,,,,,,,,,,,,,,,,,,,,,,,,,,,,,,,,,,,,,,,,,,,,,,,,,,,,,,,,,,
,,,,,,,,,5dad4c34b3446a0015e3de93,Spanish,13 or older,"no, only English or Spanish",no,2025-08-12_16h06.59.435,empathy_intonation_perc_control,2024.2.4,Win32,144.9275362,5dad4c34b3446a0015e3de93,68817205a84113384fffdfe3,689b9ec0afeb1cc867891d21,,,,,,,,,,,,./stim/wavs/puertorican_mismatch_declarative-broad-focus_El-hombre-mira-la-luna.wav,0,,,37.9535,40.0825,0,1,1.6198,,0,0,0,84,1,85,0,puertorican,,,,,,,,,,,,,,,,,,,,,,,,,,,,,,,,,,,,,,,,,,,,,,,,,,,,,,,,
,,,,,,,,,5dad4c34b3446a0015e3de93,Spanish,13 or older,"no, only English or Spanish",no,2025-08-12_16h06.59.435,empathy_intonation_perc_control,2024.2.4,Win32,144.9275362,5dad4c34b3446a0015e3de93,68817205a84113384fffdfe3,689b9ec0afeb1cc867891d21,,,,,,,,,,,,./stim/wavs/castilian_mismatch_declarative-broad-focus_El-nino-oye-el-rio.wav,0,,,40.0829,42.3256,0,1,1.7324,,0,1,1,68,1,69,0,castilian,,,,,,,,,,,,,,,,,,,,,,,,,,,,,,,,,,,,,,,,,,,,,,,,,,,,,,,,
,,,,,,,,,5dad4c34b3446a0015e3de93,Spanish,13 or older,"no, only English or Spanish",no,2025-08-12_16h06.59.435,empathy_intonation_perc_control,2024.2.4,Win32,144.9275362,5dad4c34b3446a0015e3de93,68817205a84113384fffdfe3,689b9ec0afeb1cc867891d21,,,,,,,,,,,,./stim/wavs/mexican_mismatch_interrogative-total-yn_El-hombre-mira-la-luna.wav,1,,,42.3258,44.5831,1,1,1.7431,,0,2,2,34,1,35,0,mexican,,,,,,,,,,,,,,,,,,,,,,,,,,,,,,,,,,,,,,,,,,,,,,,,,,,,,,,,
,,,,,,,,,5dad4c34b3446a0015e3de93,Spanish,13 or older,"no, only English or Spanish",no,2025-08-12_16h06.59.435,empathy_intonation_perc_control,2024.2.4,Win32,144.9275362,5dad4c34b3446a0015e3de93,68817205a84113384fffdfe3,689b9ec0afeb1cc867891d21,,,,,,,,,,,,./stim/wavs/cuban_mismatch_interrogative-total-yn_Mi-tia-odia-la-lluvia.wav,1,,,44.5835,46.8541,0,0,1.7614,,0,3,3,33,1,34,1,cuban,,,,,,,,,,,,,,,,,,,,,,,,,,,,,,,,,,,,,,,,,,,,,,,,,,,,,,,,
,,,,,,,,,5dad4c34b3446a0015e3de93,Spanish,13 or older,"no, only English or Spanish",no,2025-08-12_16h06.59.435,empathy_intonation_perc_control,2024.2.4,Win32,144.9275362,5dad4c34b3446a0015e3de93,68817205a84113384fffdfe3,689b9ec0afeb1cc867891d21,,,,,,,,,,,,./stim/wavs/mexican_match_declarative-broad-focus_David-leia-el-libro.wav,0,,,46.8542,48.8405,0,1,1.4726,,0,4,4,58,1,59,0,mexican,,,,,,,,,,,,,,,,,,,,,,,,,,,,,,,,,,,,,,,,,,,,,,,,,,,,,,,,
,,,,,,,,,5dad4c34b3446a0015e3de93,Spanish,13 or older,"no, only English or Spanish",no,2025-08-12_16h06.59.435,empathy_intonation_perc_control,2024.2.4,Win32,144.9275362,5dad4c34b3446a0015e3de93,68817205a84113384fffdfe3,689b9ec0afeb1cc867891d21,,,,,,,,,,,,./stim/wavs/mexican_match_interrogative-total-yn_Mariano-habla-del-tiempo.wav,1,,,48.8406,51.1882,1,1,1.8424,,0,5,5,16,1,17,0,mexican,,,,,,,,,,,,,,,,,,,,,,,,,,,,,,,,,,,,,,,,,,,,,,,,,,,,,,,,
,,,,,,,,,5dad4c34b3446a0015e3de93,Spanish,13 or older,"no, only English or Spanish",no,2025-08-12_16h06.59.435,empathy_intonation_perc_control,2024.2.4,Win32,144.9275362,5dad4c34b3446a0015e3de93,68817205a84113384fffdfe3,689b9ec0afeb1cc867891d21,,,,,,,,,,,,./stim/wavs/castilian_match_declarative-broad-focus_Maria-bebe-el-vino.wav,0,,,51.1884,53.494,0,1,1.7932,,0,6,6,47,1,48,0,castilian,,,,,,,,,,,,,,,,,,,,,,,,,,,,,,,,,,,,,,,,,,,,,,,,,,,,,,,,
,,,,,,,,,5dad4c34b3446a0015e3de93,Spanish,13 or older,"no, only English or Spanish",no,2025-08-12_16h06.59.435,empathy_intonation_perc_control,2024.2.4,Win32,144.9275362,5dad4c34b3446a0015e3de93,68817205a84113384fffdfe3,689b9ec0afeb1cc867891d21,,,,,,,,,,,,./stim/wavs/cuban_match_interrogative-total-yn_Ana-lleva-el-abrigo.wav,1,,,53.4942,55.4598,0,0,1.4551,,0,7,7,6,1,7,1,cuban,,,,,,,,,,,,,,,,,,,,,,,,,,,,,,,,,,,,,,,,,,,,,,,,,,,,,,,,
,,,,,,,,,5dad4c34b3446a0015e3de93,Spanish,13 or older,"no, only English or Spanish",no,2025-08-12_16h06.59.435,empathy_intonation_perc_control,2024.2.4,Win32,144.9275362,5dad4c34b3446a0015e3de93,68817205a84113384fffdfe3,689b9ec0afeb1cc867891d21,,,,,,,,,,,,./stim/wavs/puertorican_match_declarative-broad-focus_Maria-bebe-el-vino.wav,0,,,55.4602,57.5361,0,1,1.5671,,0,8,8,67,1,68,0,puertorican,,,,,,,,,,,,,,,,,,,,,,,,,,,,,,,,,,,,,,,,,,,,,,,,,,,,,,,,
,,,,,,,,,5dad4c34b3446a0015e3de93,Spanish,13 or older,"no, only English or Spanish",no,2025-08-12_16h06.59.435,empathy_intonation_perc_control,2024.2.4,Win32,144.9275362,5dad4c34b3446a0015e3de93,68817205a84113384fffdfe3,689b9ec0afeb1cc867891d21,,,,,,,,,,,,./stim/wavs/puertorican_mismatch_interrogative-total-yn_La-maestra-vive-en-Paris.wav,1,,,57.5363,60.0365,0,0,1.9968,,0,9,9,41,1,42,1,puertorican,,,,,,,,,,,,,,,,,,,,,,,,,,,,,,,,,,,,,,,,,,,,,,,,,,,,,,,,
,,,,,,,,,5dad4c34b3446a0015e3de93,Spanish,13 or older,"no, only English or Spanish",no,2025-08-12_16h06.59.435,empathy_intonation_perc_control,2024.2.4,Win32,144.9275362,5dad4c34b3446a0015e3de93,68817205a84113384fffdfe3,689b9ec0afeb1cc867891d21,,,,,,,,,,,,./stim/wavs/cuban_match_interrogative-total-yn_Marta-abre-el-regalo.wav,1,,,60.0367,62.1618,0,0,1.6184,,0,10,10,11,1,12,1,cuban,,,,,,,,,,,,,,,,,,,,,,,,,,,,,,,,,,,,,,,,,,,,,,,,,,,,,,,,
,,,,,,,,,5dad4c34b3446a0015e3de93,Spanish,13 or older,"no, only English or Spanish",no,2025-08-12_16h06.59.435,empathy_intonation_perc_control,2024.2.4,Win32,144.9275362,5dad4c34b3446a0015e3de93,68817205a84113384fffdfe3,689b9ec0afeb1cc867891d21,,,,,,,,,,,,./stim/wavs/puertorican_mismatch_declarative-broad-focus_La-nina-lava-el-plato.wav,0,,,62.162,64.0789,0,1,1.4071,,0,11,11,87,1,88,0,puertorican,,,,,,,,,,,,,,,,,,,,,,,,,,,,,,,,,,,,,,,,,,,,,,,,,,,,,,,,
,,,,,,,,,5dad4c34b3446a0015e3de93,Spanish,13 or older,"no, only English or Spanish",no,2025-08-12_16h06.59.435,empathy_intonation_perc_control,2024.2.4,Win32,144.9275362,5dad4c34b3446a0015e3de93,68817205a84113384fffdfe3,689b9ec0afeb1cc867891d21,,,,,,,,,,,,./stim/wavs/cuban_match_declarative-broad-focus_Marta-abre-el-regalo.wav,0,,,64.0794,66.2181,0,1,1.6273,,0,12,12,55,1,56,0,cuban,,,,,,,,,,,,,,,,,,,,,,,,,,,,,,,,,,,,,,,,,,,,,,,,,,,,,,,,
,,,,,,,,,5dad4c34b3446a0015e3de93,Spanish,13 or older,"no, only English or Spanish",no,2025-08-12_16h06.59.435,empathy_intonation_perc_control,2024.2.4,Win32,144.9275362,5dad4c34b3446a0015e3de93,68817205a84113384fffdfe3,689b9ec0afeb1cc867891d21,,,,,,,,,,,,./stim/wavs/puertorican_match_interrogative-total-yn_Emilio-ama-la-marcha.wav,1,,,66.2185,68.2183,0,0,1.4892,,0,13,13,21,1,22,1,puertorican,,,,,,,,,,,,,,,,,,,,,,,,,,,,,,,,,,,,,,,,,,,,,,,,,,,,,,,,
,,,,,,,,,5dad4c34b3446a0015e3de93,Spanish,13 or older,"no, only English or Spanish",no,2025-08-12_16h06.59.435,empathy_intonation_perc_control,2024.2.4,Win32,144.9275362,5dad4c34b3446a0015e3de93,68817205a84113384fffdfe3,689b9ec0afeb1cc867891d21,,,,,,,,,,,,./stim/wavs/puertorican_match_declarative-broad-focus_Daniel-iba-a-Bolivia.wav,0,,,68.2186,70.5241,0,1,1.7921,,0,14,14,63,1,64,0,puertorican,,,,,,,,,,,,,,,,,,,,,,,,,,,,,,,,,,,,,,,,,,,,,,,,,,,,,,,,
,,,,,,,,,5dad4c34b3446a0015e3de93,Spanish,13 or older,"no, only English or Spanish",no,2025-08-12_16h06.59.435,empathy_intonation_perc_control,2024.2.4,Win32,144.9275362,5dad4c34b3446a0015e3de93,68817205a84113384fffdfe3,689b9ec0afeb1cc867891d21,,,,,,,,,,,,./stim/wavs/puertorican_match_interrogative-total-yn_Daniel-iba-a-Bolivia.wav,1,,,70.5245,72.5941,0,0,1.5613,,0,15,15,19,1,20,1,puertorican,,,,,,,,,,,,,,,,,,,,,,,,,,,,,,,,,,,,,,,,,,,,,,,,,,,,,,,,
,,,,,,,,,5dad4c34b3446a0015e3de93,Spanish,13 or older,"no, only English or Spanish",no,2025-08-12_16h06.59.435,empathy_intonation_perc_control,2024.2.4,Win32,144.9275362,5dad4c34b3446a0015e3de93,68817205a84113384fffdfe3,689b9ec0afeb1cc867891d21,,,,,,,,,,,,./stim/wavs/mexican_mismatch_declarative-broad-focus_El-hombre-mira-la-luna.wav,0,,,72.5943,74.8998,0,1,1.7927,,0,16,16,79,1,80,0,mexican,,,,,,,,,,,,,,,,,,,,,,,,,,,,,,,,,,,,,,,,,,,,,,,,,,,,,,,,
,,,,,,,,,5dad4c34b3446a0015e3de93,Spanish,13 or older,"no, only English or Spanish",no,2025-08-12_16h06.59.435,empathy_intonation_perc_control,2024.2.4,Win32,144.9275362,5dad4c34b3446a0015e3de93,68817205a84113384fffdfe3,689b9ec0afeb1cc867891d21,,,,,,,,,,,,./stim/wavs/cuban_mismatch_interrogative-total-yn_El-nino-oye-el-rio.wav,1,,,74.8999,76.921,0,0,1.5185,,0,17,17,30,1,31,1,cuban,,,,,,,,,,,,,,,,,,,,,,,,,,,,,,,,,,,,,,,,,,,,,,,,,,,,,,,,
,,,,,,,,,5dad4c34b3446a0015e3de93,Spanish,13 or older,"no, only English or Spanish",no,2025-08-12_16h06.59.435,empathy_intonation_perc_control,2024.2.4,Win32,144.9275362,5dad4c34b3446a0015e3de93,68817205a84113384fffdfe3,689b9ec0afeb1cc867891d21,,,,,,,,,,,,./stim/wavs/castilian_mismatch_declarative-broad-focus_La-maestra-vive-en-Paris.wav,0,,,76.9213,79.5186,0,1,2.0854,,0,18,18,69,1,70,0,castilian,,,,,,,,,,,,,,,,,,,,,,,,,,,,,,,,,,,,,,,,,,,,,,,,,,,,,,,,
,,,,,,,,,5dad4c34b3446a0015e3de93,Spanish,13 or older,"no, only English or Spanish",no,2025-08-12_16h06.59.435,empathy_intonation_perc_control,2024.2.4,Win32,144.9275362,5dad4c34b3446a0015e3de93,68817205a84113384fffdfe3,689b9ec0afeb1cc867891d21,,,,,,,,,,,,./stim/wavs/puertorican_mismatch_declarative-broad-focus_La-maestra-vive-en-Paris.wav,0,,,79.5189,81.88,0,1,1.849,,0,19,19,86,1,87,0,puertorican,,,,,,,,,,,,,,,,,,,,,,,,,,,,,,,,,,,,,,,,,,,,,,,,,,,,,,,,
,,,,,,,,,5dad4c34b3446a0015e3de93,Spanish,13 or older,"no, only English or Spanish",no,2025-08-12_16h06.59.435,empathy_intonation_perc_control,2024.2.4,Win32,144.9275362,5dad4c34b3446a0015e3de93,68817205a84113384fffdfe3,689b9ec0afeb1cc867891d21,,,,,,,,,,,,./stim/wavs/mexican_mismatch_interrogative-total-yn_Mi-tia-odia-la-lluvia.wav,1,,,81.8801,84.0539,1,1,1.6618,,0,20,20,38,1,39,0,mexican,,,,,,,,,,,,,,,,,,,,,,,,,,,,,,,,,,,,,,,,,,,,,,,,,,,,,,,,
,,,,,,,,,5dad4c34b3446a0015e3de93,Spanish,13 or older,"no, only English or Spanish",no,2025-08-12_16h06.59.435,empathy_intonation_perc_control,2024.2.4,Win32,144.9275362,5dad4c34b3446a0015e3de93,68817205a84113384fffdfe3,689b9ec0afeb1cc867891d21,,,,,,,,,,,,./stim/wavs/cuban_mismatch_interrogative-total-yn_Mi-novio-viene-del-lago.wav,1,,,84.0541,86.3751,0,0,1.8192,,0,21,21,32,1,33,1,cuban,,,,,,,,,,,,,,,,,,,,,,,,,,,,,,,,,,,,,,,,,,,,,,,,,,,,,,,,
,,,,,,,,,5dad4c34b3446a0015e3de93,Spanish,13 or older,"no, only English or Spanish",no,2025-08-12_16h06.59.435,empathy_intonation_perc_control,2024.2.4,Win32,144.9275362,5dad4c34b3446a0015e3de93,68817205a84113384fffdfe3,689b9ec0afeb1cc867891d21,,,,,,,,,,,,./stim/wavs/puertorican_match_declarative-broad-focus_Manuela-vende-el-carro.wav,0,,,86.3753,88.5477,0,1,1.6658,,0,22,22,66,1,67,0,puertorican,,,,,,,,,,,,,,,,,,,,,,,,,,,,,,,,,,,,,,,,,,,,,,,,,,,,,,,,
,,,,,,,,,5dad4c34b3446a0015e3de93,Spanish,13 or older,"no, only English or Spanish",no,2025-08-12_16h06.59.435,empathy_intonation_perc_control,2024.2.4,Win32,144.9275362,5dad4c34b3446a0015e3de93,68817205a84113384fffdfe3,689b9ec0afeb1cc867891d21,,,,,,,,,,,,./stim/wavs/castilian_match_interrogative-total-yn_Emilio-ama-la-marcha.wav,1,,,88.5481,90.923,1,1,1.8638,,0,23,23,1,1,2,0,castilian,,,,,,,,,,,,,,,,,,,,,,,,,,,,,,,,,,,,,,,,,,,,,,,,,,,,,,,,
,,,,,,,,,5dad4c34b3446a0015e3de93,Spanish,13 or older,"no, only English or Spanish",no,2025-08-12_16h06.59.435,empathy_intonation_perc_control,2024.2.4,Win32,144.9275362,5dad4c34b3446a0015e3de93,68817205a84113384fffdfe3,689b9ec0afeb1cc867891d21,,,,,,,,,,,,./stim/wavs/cuban_match_interrogative-total-yn_Manuela-vende-el-carro.wav,1,,,90.9232,93.1118,0,0,1.6759,,0,24,24,8,1,9,1,cuban,,,,,,,,,,,,,,,,,,,,,,,,,,,,,,,,,,,,,,,,,,,,,,,,,,,,,,,,
,,,,,,,,,5dad4c34b3446a0015e3de93,Spanish,13 or older,"no, only English or Spanish",no,2025-08-12_16h06.59.435,empathy_intonation_perc_control,2024.2.4,Win32,144.9275362,5dad4c34b3446a0015e3de93,68817205a84113384fffdfe3,689b9ec0afeb1cc867891d21,,,,,,,,,,,,./stim/wavs/cuban_mismatch_declarative-broad-focus_Mi-tia-odia-la-lluvia.wav,0,,,93.1121,95.5289,0,1,1.909,,0,25,25,77,1,78,0,cuban,,,,,,,,,,,,,,,,,,,,,,,,,,,,,,,,,,,,,,,,,,,,,,,,,,,,,,,,
,,,,,,,,,5dad4c34b3446a0015e3de93,Spanish,13 or older,"no, only English or Spanish",no,2025-08-12_16h06.59.435,empathy_intonation_perc_control,2024.2.4,Win32,144.9275362,5dad4c34b3446a0015e3de93,68817205a84113384fffdfe3,689b9ec0afeb1cc867891d21,,,,,,,,,,,,./stim/wavs/puertorican_mismatch_declarative-broad-focus_El-bebe-comia-muy-bien.wav,0,,,95.5291,97.7017,0,1,1.6617,,0,26,26,83,1,84,0,puertorican,,,,,,,,,,,,,,,,,,,,,,,,,,,,,,,,,,,,,,,,,,,,,,,,,,,,,,,,
,,,,,,,,,5dad4c34b3446a0015e3de93,Spanish,13 or older,"no, only English or Spanish",no,2025-08-12_16h06.59.435,empathy_intonation_perc_control,2024.2.4,Win32,144.9275362,5dad4c34b3446a0015e3de93,68817205a84113384fffdfe3,689b9ec0afeb1cc867891d21,,,,,,,,,,,,./stim/wavs/puertorican_match_interrogative-total-yn_Maria-bebe-el-vino.wav,1,,,97.7018,99.8757,0,0,1.6672,,0,27,27,23,1,24,1,puertorican,,,,,,,,,,,,,,,,,,,,,,,,,,,,,,,,,,,,,,,,,,,,,,,,,,,,,,,,
,,,,,,,,,5dad4c34b3446a0015e3de93,Spanish,13 or older,"no, only English or Spanish",no,2025-08-12_16h06.59.435,empathy_intonation_perc_control,2024.2.4,Win32,144.9275362,5dad4c34b3446a0015e3de93,68817205a84113384fffdfe3,689b9ec0afeb1cc867891d21,,,,,,,,,,,,./stim/wavs/mexican_match_declarative-broad-focus_Daniel-iba-a-Bolivia.wav,0,,,99.8759,101.8412,0,1,1.4529,,0,28,28,57,1,58,0,mexican,,,,,,,,,,,,,,,,,,,,,,,,,,,,,,,,,,,,,,,,,,,,,,,,,,,,,,,,
,,,,,,,,,5dad4c34b3446a0015e3de93,Spanish,13 or older,"no, only English or Spanish",no,2025-08-12_16h06.59.435,empathy_intonation_perc_control,2024.2.4,Win32,144.9275362,5dad4c34b3446a0015e3de93,68817205a84113384fffdfe3,689b9ec0afeb1cc867891d21,,,,,,,,,,,,./stim/wavs/castilian_mismatch_declarative-broad-focus_Mi-novio-viene-del-lago.wav,0,,,101.8415,104.168,0,1,1.8179,,0,29,29,71,1,72,0,castilian,,,,,,,,,,,,,,,,,,,,,,,,,,,,,,,,,,,,,,,,,,,,,,,,,,,,,,,,
,,,,,,,,,5dad4c34b3446a0015e3de93,Spanish,13 or older,"no, only English or Spanish",no,2025-08-12_16h06.59.435,empathy_intonation_perc_control,2024.2.4,Win32,144.9275362,5dad4c34b3446a0015e3de93,68817205a84113384fffdfe3,689b9ec0afeb1cc867891d21,,,,,,,,,,,,./stim/wavs/castilian_match_declarative-broad-focus_Manuela-vende-el-carro.wav,0,,,104.1682,106.4808,0,1,1.8019,,0,30,30,46,1,47,0,castilian,,,,,,,,,,,,,,,,,,,,,,,,,,,,,,,,,,,,,,,,,,,,,,,,,,,,,,,,
,,,,,,,,,5dad4c34b3446a0015e3de93,Spanish,13 or older,"no, only English or Spanish",no,2025-08-12_16h06.59.435,empathy_intonation_perc_control,2024.2.4,Win32,144.9275362,5dad4c34b3446a0015e3de93,68817205a84113384fffdfe3,689b9ec0afeb1cc867891d21,,,,,,,,,,,,./stim/wavs/cuban_match_declarative-broad-focus_Manuela-vende-el-carro.wav,0,,,106.481,108.5782,0,1,1.5911,,0,31,31,52,1,53,0,cuban,,,,,,,,,,,,,,,,,,,,,,,,,,,,,,,,,,,,,,,,,,,,,,,,,,,,,,,,
,,,,,,,,,5dad4c34b3446a0015e3de93,Spanish,13 or older,"no, only English or Spanish",no,2025-08-12_16h06.59.435,empathy_intonation_perc_control,2024.2.4,Win32,144.9275362,5dad4c34b3446a0015e3de93,68817205a84113384fffdfe3,689b9ec0afeb1cc867891d21,,,,,,,,,,,,./stim/wavs/castilian_match_interrogative-total-yn_David-leia-el-libro.wav,1,,,108.5785,110.8147,1,1,1.7316,,0,32,32,0,1,1,0,castilian,,,,,,,,,,,,,,,,,,,,,,,,,,,,,,,,,,,,,,,,,,,,,,,,,,,,,,,,
,,,,,,,,,5dad4c34b3446a0015e3de93,Spanish,13 or older,"no, only English or Spanish",no,2025-08-12_16h06.59.435,empathy_intonation_perc_control,2024.2.4,Win32,144.9275362,5dad4c34b3446a0015e3de93,68817205a84113384fffdfe3,689b9ec0afeb1cc867891d21,,,,,,,,,,,,./stim/wavs/cuban_mismatch_declarative-broad-focus_El-hombre-mira-la-luna.wav,0,,,110.8149,112.6345,0,1,1.3082,,0,33,33,74,1,75,0,cuban,,,,,,,,,,,,,,,,,,,,,,,,,,,,,,,,,,,,,,,,,,,,,,,,,,,,,,,,
,,,,,,,,,5dad4c34b3446a0015e3de93,Spanish,13 or older,"no, only English or Spanish",no,2025-08-12_16h06.59.435,empathy_intonation_perc_control,2024.2.4,Win32,144.9275362,5dad4c34b3446a0015e3de93,68817205a84113384fffdfe3,689b9ec0afeb1cc867891d21,,,,,,,,,,,,./stim/wavs/castilian_match_declarative-broad-focus_Emilio-ama-la-marcha.wav,0,,,112.6346,114.8501,0,1,1.7041,,0,34,34,45,1,46,0,castilian,,,,,,,,,,,,,,,,,,,,,,,,,,,,,,,,,,,,,,,,,,,,,,,,,,,,,,,,
,,,,,,,,,5dad4c34b3446a0015e3de93,Spanish,13 or older,"no, only English or Spanish",no,2025-08-12_16h06.59.435,empathy_intonation_perc_control,2024.2.4,Win32,144.9275362,5dad4c34b3446a0015e3de93,68817205a84113384fffdfe3,689b9ec0afeb1cc867891d21,,,,,,,,,,,,./stim/wavs/puertorican_match_interrogative-total-yn_Ana-lleva-el-abrigo.wav,1,,,114.8504,116.8294,0,0,1.4681,,0,35,35,18,1,19,1,puertorican,,,,,,,,,,,,,,,,,,,,,,,,,,,,,,,,,,,,,,,,,,,,,,,,,,,,,,,,
,,,,,,,,,5dad4c34b3446a0015e3de93,Spanish,13 or older,"no, only English or Spanish",no,2025-08-12_16h06.59.435,empathy_intonation_perc_control,2024.2.4,Win32,144.9275362,5dad4c34b3446a0015e3de93,68817205a84113384fffdfe3,689b9ec0afeb1cc867891d21,,,,,,,,,,,,./stim/wavs/puertorican_match_declarative-broad-focus_Ana-lleva-el-abrigo.wav,0,,,116.8296,118.6908,0,1,1.3484,,0,36,36,62,1,63,0,puertorican,,,,,,,,,,,,,,,,,,,,,,,,,,,,,,,,,,,,,,,,,,,,,,,,,,,,,,,,
,,,,,,,,,5dad4c34b3446a0015e3de93,Spanish,13 or older,"no, only English or Spanish",no,2025-08-12_16h06.59.435,empathy_intonation_perc_control,2024.2.4,Win32,144.9275362,5dad4c34b3446a0015e3de93,68817205a84113384fffdfe3,689b9ec0afeb1cc867891d21,,,,,,,,,,,,./stim/wavs/castilian_mismatch_interrogative-total-yn_Mi-tia-odia-la-lluvia.wav,1,,,118.691,120.9551,1,1,1.7588,,0,37,37,28,1,29,0,castilian,,,,,,,,,,,,,,,,,,,,,,,,,,,,,,,,,,,,,,,,,,,,,,,,,,,,,,,,
,,,,,,,,,5dad4c34b3446a0015e3de93,Spanish,13 or older,"no, only English or Spanish",no,2025-08-12_16h06.59.435,empathy_intonation_perc_control,2024.2.4,Win32,144.9275362,5dad4c34b3446a0015e3de93,68817205a84113384fffdfe3,689b9ec0afeb1cc867891d21,,,,,,,,,,,,./stim/wavs/mexican_match_interrogative-total-yn_David-leia-el-libro.wav,1,,,120.9553,123.2704,0,0,1.8064,,0,38,38,14,1,15,0,mexican,,,,,,,,,,,,,,,,,,,,,,,,,,,,,,,,,,,,,,,,,,,,,,,,,,,,,,,,
,,,,,,,,,5dad4c34b3446a0015e3de93,Spanish,13 or older,"no, only English or Spanish",no,2025-08-12_16h06.59.435,empathy_intonation_perc_control,2024.2.4,Win32,144.9275362,5dad4c34b3446a0015e3de93,68817205a84113384fffdfe3,689b9ec0afeb1cc867891d21,,,,,,,,,,,,./stim/wavs/mexican_mismatch_declarative-broad-focus_Mi-novio-viene-del-lago.wav,0,,,123.2706,125.2776,0,1,1.4985,,0,39,39,81,1,82,0,mexican,,,,,,,,,,,,,,,,,,,,,,,,,,,,,,,,,,,,,,,,,,,,,,,,,,,,,,,,
,,,,,,,,,5dad4c34b3446a0015e3de93,Spanish,13 or older,"no, only English or Spanish",no,2025-08-12_16h06.59.435,empathy_intonation_perc_control,2024.2.4,Win32,144.9275362,5dad4c34b3446a0015e3de93,68817205a84113384fffdfe3,689b9ec0afeb1cc867891d21,,,,,,,,,,,,./stim/wavs/castilian_match_interrogative-total-yn_Mariano-habla-del-tiempo.wav,1,,,125.2778,127.7476,1,1,1.9596,,0,40,40,4,1,5,0,castilian,,,,,,,,,,,,,,,,,,,,,,,,,,,,,,,,,,,,,,,,,,,,,,,,,,,,,,,,
,,,,,,,,,5dad4c34b3446a0015e3de93,Spanish,13 or older,"no, only English or Spanish",no,2025-08-12_16h06.59.435,empathy_intonation_perc_control,2024.2.4,Win32,144.9275362,5dad4c34b3446a0015e3de93,68817205a84113384fffdfe3,689b9ec0afeb1cc867891d21,,,,,,,,,,,,./stim/wavs/mexican_mismatch_declarative-broad-focus_Mi-tia-odia-la-lluvia.wav,0,,,127.7478,129.7132,0,1,1.4499,,0,41,41,82,1,83,0,mexican,,,,,,,,,,,,,,,,,,,,,,,,,,,,,,,,,,,,,,,,,,,,,,,,,,,,,,,,
,,,,,,,,,5dad4c34b3446a0015e3de93,Spanish,13 or older,"no, only English or Spanish",no,2025-08-12_16h06.59.435,empathy_intonation_perc_control,2024.2.4,Win32,144.9275362,5dad4c34b3446a0015e3de93,68817205a84113384fffdfe3,689b9ec0afeb1cc867891d21,,,,,,,,,,,,./stim/wavs/mexican_mismatch_interrogative-total-yn_Mi-novio-viene-del-lago.wav,1,,,129.7134,132.0401,1,1,1.8138,,0,42,42,37,1,38,0,mexican,,,,,,,,,,,,,,,,,,,,,,,,,,,,,,,,,,,,,,,,,,,,,,,,,,,,,,,,
,,,,,,,,,5dad4c34b3446a0015e3de93,Spanish,13 or older,"no, only English or Spanish",no,2025-08-12_16h06.59.435,empathy_intonation_perc_control,2024.2.4,Win32,144.9275362,5dad4c34b3446a0015e3de93,68817205a84113384fffdfe3,689b9ec0afeb1cc867891d21,,,,,,,,,,,,./stim/wavs/puertorican_match_interrogative-total-yn_Manuela-vende-el-carro.wav,1,,,132.0404,134.4155,0,0,1.8616,,0,43,43,22,1,23,1,puertorican,,,,,,,,,,,,,,,,,,,,,,,,,,,,,,,,,,,,,,,,,,,,,,,,,,,,,,,,
,,,,,,,,,5dad4c34b3446a0015e3de93,Spanish,13 or older,"no, only English or Spanish",no,2025-08-12_16h06.59.435,empathy_intonation_perc_control,2024.2.4,Win32,144.9275362,5dad4c34b3446a0015e3de93,68817205a84113384fffdfe3,689b9ec0afeb1cc867891d21,,,,,,,,,,,,./stim/wavs/castilian_mismatch_interrogative-total-yn_La-nina-lava-el-plato.wav,1,,,134.4158,136.7073,1,1,1.7813,,0,44,44,25,1,26,0,castilian,,,,,,,,,,,,,,,,,,,,,,,,,,,,,,,,,,,,,,,,,,,,,,,,,,,,,,,,
,,,,,,,,,5dad4c34b3446a0015e3de93,Spanish,13 or older,"no, only English or Spanish",no,2025-08-12_16h06.59.435,empathy_intonation_perc_control,2024.2.4,Win32,144.9275362,5dad4c34b3446a0015e3de93,68817205a84113384fffdfe3,689b9ec0afeb1cc867891d21,,,,,,,,,,,,./stim/wavs/mexican_match_declarative-broad-focus_Emilio-ama-la-marcha.wav,0,,,136.7076,138.9021,0,1,1.6808,,0,45,45,59,1,60,0,mexican,,,,,,,,,,,,,,,,,,,,,,,,,,,,,,,,,,,,,,,,,,,,,,,,,,,,,,,,
,,,,,,,,,5dad4c34b3446a0015e3de93,Spanish,13 or older,"no, only English or Spanish",no,2025-08-12_16h06.59.435,empathy_intonation_perc_control,2024.2.4,Win32,144.9275362,5dad4c34b3446a0015e3de93,68817205a84113384fffdfe3,689b9ec0afeb1cc867891d21,,,,,,,,,,,,./stim/wavs/cuban_match_declarative-broad-focus_Ana-lleva-el-abrigo.wav,0,,,138.9024,141.5206,0,1,2.1099,,0,46,46,50,1,51,0,cuban,,,,,,,,,,,,,,,,,,,,,,,,,,,,,,,,,,,,,,,,,,,,,,,,,,,,,,,,
,,,,,,,,,5dad4c34b3446a0015e3de93,Spanish,13 or older,"no, only English or Spanish",no,2025-08-12_16h06.59.435,empathy_intonation_perc_control,2024.2.4,Win32,144.9275362,5dad4c34b3446a0015e3de93,68817205a84113384fffdfe3,689b9ec0afeb1cc867891d21,,,,,,,,,,,,./stim/wavs/puertorican_mismatch_declarative-broad-focus_El-nino-oye-el-rio.wav,0,,,141.5209,143.5972,0,1,1.5652,,0,47,47,85,1,86,0,puertorican,,,,,,,,,,,,,,,,,,,,,,,,,,,,,,,,,,,,,,,,,,,,,,,,,,,,,,,,
,,,,,,,,,5dad4c34b3446a0015e3de93,Spanish,13 or older,"no, only English or Spanish",no,2025-08-12_16h06.59.435,empathy_intonation_perc_control,2024.2.4,Win32,144.9275362,5dad4c34b3446a0015e3de93,68817205a84113384fffdfe3,689b9ec0afeb1cc867891d21,,,,,,,,,,,,./stim/wavs/cuban_match_interrogative-total-yn_Daniel-iba-a-Bolivia.wav,1,,,143.5974,145.8266,0,0,1.7128,,0,48,48,7,1,8,1,cuban,,,,,,,,,,,,,,,,,,,,,,,,,,,,,,,,,,,,,,,,,,,,,,,,,,,,,,,,
,,,,,,,,,5dad4c34b3446a0015e3de93,Spanish,13 or older,"no, only English or Spanish",no,2025-08-12_16h06.59.435,empathy_intonation_perc_control,2024.2.4,Win32,144.9275362,5dad4c34b3446a0015e3de93,68817205a84113384fffdfe3,689b9ec0afeb1cc867891d21,,,,,,,,,,,,./stim/wavs/castilian_mismatch_declarative-broad-focus_Mi-tia-odia-la-lluvia.wav,0,,,145.8268,148.0076,0,1,1.6769,,0,49,49,72,1,73,0,castilian,,,,,,,,,,,,,,,,,,,,,,,,,,,,,,,,,,,,,,,,,,,,,,,,,,,,,,,,
,,,,,,,,,5dad4c34b3446a0015e3de93,Spanish,13 or older,"no, only English or Spanish",no,2025-08-12_16h06.59.435,empathy_intonation_perc_control,2024.2.4,Win32,144.9275362,5dad4c34b3446a0015e3de93,68817205a84113384fffdfe3,689b9ec0afeb1cc867891d21,,,,,,,,,,,,./stim/wavs/castilian_mismatch_interrogative-total-yn_Mi-madre-come-la-fruta.wav,1,,,148.0078,150.2579,1,1,1.7445,,0,50,50,26,1,27,0,castilian,,,,,,,,,,,,,,,,,,,,,,,,,,,,,,,,,,,,,,,,,,,,,,,,,,,,,,,,
,,,,,,,,,5dad4c34b3446a0015e3de93,Spanish,13 or older,"no, only English or Spanish",no,2025-08-12_16h06.59.435,empathy_intonation_perc_control,2024.2.4,Win32,144.9275362,5dad4c34b3446a0015e3de93,68817205a84113384fffdfe3,689b9ec0afeb1cc867891d21,,,,,,,,,,,,./stim/wavs/mexican_match_declarative-broad-focus_Marta-abre-el-regalo.wav,0,,,150.2581,152.1957,0,1,1.4307,,0,51,51,61,1,62,0,mexican,,,,,,,,,,,,,,,,,,,,,,,,,,,,,,,,,,,,,,,,,,,,,,,,,,,,,,,,
,,,,,,,,,5dad4c34b3446a0015e3de93,Spanish,13 or older,"no, only English or Spanish",no,2025-08-12_16h06.59.435,empathy_intonation_perc_control,2024.2.4,Win32,144.9275362,5dad4c34b3446a0015e3de93,68817205a84113384fffdfe3,689b9ec0afeb1cc867891d21,,,,,,,,,,,,./stim/wavs/puertorican_mismatch_interrogative-total-yn_La-nina-lava-el-plato.wav,1,,,152.196,154.3489,0,0,1.6405,,0,52,52,42,1,43,1,puertorican,,,,,,,,,,,,,,,,,,,,,,,,,,,,,,,,,,,,,,,,,,,,,,,,,,,,,,,,
,,,,,,,,,5dad4c34b3446a0015e3de93,Spanish,13 or older,"no, only English or Spanish",no,2025-08-12_16h06.59.435,empathy_intonation_perc_control,2024.2.4,Win32,144.9275362,5dad4c34b3446a0015e3de93,68817205a84113384fffdfe3,689b9ec0afeb1cc867891d21,,,,,,,,,,,,./stim/wavs/cuban_match_declarative-broad-focus_Mariano-habla-del-tiempo.wav,0,,,154.3491,156.5713,0,1,1.7141,,0,53,53,54,1,55,0,cuban,,,,,,,,,,,,,,,,,,,,,,,,,,,,,,,,,,,,,,,,,,,,,,,,,,,,,,,,
,,,,,,,,,5dad4c34b3446a0015e3de93,Spanish,13 or older,"no, only English or Spanish",no,2025-08-12_16h06.59.435,empathy_intonation_perc_control,2024.2.4,Win32,144.9275362,5dad4c34b3446a0015e3de93,68817205a84113384fffdfe3,689b9ec0afeb1cc867891d21,,,,,,,,,,,,./stim/wavs/mexican_match_declarative-broad-focus_Mariano-habla-del-tiempo.wav,0,,,156.5715,158.551,0,1,1.4726,,0,54,54,60,1,61,0,mexican,,,,,,,,,,,,,,,,,,,,,,,,,,,,,,,,,,,,,,,,,,,,,,,,,,,,,,,,
,,,,,,,,,5dad4c34b3446a0015e3de93,Spanish,13 or older,"no, only English or Spanish",no,2025-08-12_16h06.59.435,empathy_intonation_perc_control,2024.2.4,Win32,144.9275362,5dad4c34b3446a0015e3de93,68817205a84113384fffdfe3,689b9ec0afeb1cc867891d21,,,,,,,,,,,,./stim/wavs/puertorican_mismatch_interrogative-total-yn_El-hombre-mira-la-luna.wav,1,,,158.5515,160.6067,1,1,1.5431,,0,55,55,39,1,40,1,puertorican,,,,,,,,,,,,,,,,,,,,,,,,,,,,,,,,,,,,,,,,,,,,,,,,,,,,,,,,
,,,,,,,,,5dad4c34b3446a0015e3de93,Spanish,13 or older,"no, only English or Spanish",no,2025-08-12_16h06.59.435,empathy_intonation_perc_control,2024.2.4,Win32,144.9275362,5dad4c34b3446a0015e3de93,68817205a84113384fffdfe3,689b9ec0afeb1cc867891d21,,,,,,,,,,,,./stim/wavs/castilian_match_declarative-broad-focus_Mariano-habla-del-tiempo.wav,0,,,160.6071,162.9888,0,1,1.868,,0,56,56,48,1,49,0,castilian,,,,,,,,,,,,,,,,,,,,,,,,,,,,,,,,,,,,,,,,,,,,,,,,,,,,,,,,
,,,,,,,,,5dad4c34b3446a0015e3de93,Spanish,13 or older,"no, only English or Spanish",no,2025-08-12_16h06.59.435,empathy_intonation_perc_control,2024.2.4,Win32,144.9275362,5dad4c34b3446a0015e3de93,68817205a84113384fffdfe3,689b9ec0afeb1cc867891d21,,,,,,,,,,,,./stim/wavs/cuban_match_interrogative-total-yn_Mariano-habla-del-tiempo.wav,1,,,162.9891,165.2532,0,0,1.762,,0,57,57,10,1,11,1,cuban,,,,,,,,,,,,,,,,,,,,,,,,,,,,,,,,,,,,,,,,,,,,,,,,,,,,,,,,
,,,,,,,,,5dad4c34b3446a0015e3de93,Spanish,13 or older,"no, only English or Spanish",no,2025-08-12_16h06.59.435,empathy_intonation_perc_control,2024.2.4,Win32,144.9275362,5dad4c34b3446a0015e3de93,68817205a84113384fffdfe3,689b9ec0afeb1cc867891d21,,,,,,,,,,,,./stim/wavs/cuban_mismatch_interrogative-total-yn_El-hombre-mira-la-luna.wav,1,,,165.2534,167.3927,0,0,1.6341,,0,58,58,29,1,30,1,cuban,,,,,,,,,,,,,,,,,,,,,,,,,,,,,,,,,,,,,,,,,,,,,,,,,,,,,,,,
,,,,,,,,,5dad4c34b3446a0015e3de93,Spanish,13 or older,"no, only English or Spanish",no,2025-08-12_16h06.59.435,empathy_intonation_perc_control,2024.2.4,Win32,144.9275362,5dad4c34b3446a0015e3de93,68817205a84113384fffdfe3,689b9ec0afeb1cc867891d21,,,,,,,,,,,,./stim/wavs/cuban_mismatch_declarative-broad-focus_El-bebe-comia-muy-bien.wav,0,,,167.3929,169.5316,0,1,1.6233,,0,59,59,73,1,74,0,cuban,,,,,,,,,,,,,,,,,,,,,,,,,,,,,,,,,,,,,,,,,,,,,,,,,,,,,,,,
,,,,,,,,,5dad4c34b3446a0015e3de93,Spanish,13 or older,"no, only English or Spanish",no,2025-08-12_16h06.59.435,empathy_intonation_perc_control,2024.2.4,Win32,144.9275362,5dad4c34b3446a0015e3de93,68817205a84113384fffdfe3,689b9ec0afeb1cc867891d21,,,,,,,,,,,,./stim/wavs/mexican_match_interrogative-total-yn_Ana-lleva-el-abrigo.wav,1,,,169.5317,171.6777,1,1,1.6353,,0,60,60,12,1,13,0,mexican,,,,,,,,,,,,,,,,,,,,,,,,,,,,,,,,,,,,,,,,,,,,,,,,,,,,,,,,
,,,,,,,,,5dad4c34b3446a0015e3de93,Spanish,13 or older,"no, only English or Spanish",no,2025-08-12_16h06.59.435,empathy_intonation_perc_control,2024.2.4,Win32,144.9275362,5dad4c34b3446a0015e3de93,68817205a84113384fffdfe3,689b9ec0afeb1cc867891d21,,,,,,,,,,,,./stim/wavs/mexican_match_interrogative-total-yn_Daniel-iba-a-Bolivia.wav,1,,,171.6779,174.0113,1,1,1.8198,,0,61,61,13,1,14,0,mexican,,,,,,,,,,,,,,,,,,,,,,,,,,,,,,,,,,,,,,,,,,,,,,,,,,,,,,,,
,,,,,,,,,5dad4c34b3446a0015e3de93,Spanish,13 or older,"no, only English or Spanish",no,2025-08-12_16h06.59.435,empathy_intonation_perc_control,2024.2.4,Win32,144.9275362,5dad4c34b3446a0015e3de93,68817205a84113384fffdfe3,689b9ec0afeb1cc867891d21,,,,,,,,,,,,./stim/wavs/puertorican_match_interrogative-total-yn_David-leia-el-libro.wav,1,,,174.0115,176.0297,0,0,1.5095,,0,62,62,20,1,21,1,puertorican,,,,,,,,,,,,,,,,,,,,,,,,,,,,,,,,,,,,,,,,,,,,,,,,,,,,,,,,
,,,,,,,,,5dad4c34b3446a0015e3de93,Spanish,13 or older,"no, only English or Spanish",no,2025-08-12_16h06.59.435,empathy_intonation_perc_control,2024.2.4,Win32,144.9275362,5dad4c34b3446a0015e3de93,68817205a84113384fffdfe3,689b9ec0afeb1cc867891d21,,,,,,,,,,,,./stim/wavs/mexican_mismatch_declarative-broad-focus_La-maestra-vive-en-Paris.wav,0,,,176.0299,178.4406,0,1,1.9058,,0,63,63,80,1,81,0,mexican,,,,,,,,,,,,,,,,,,,,,,,,,,,,,,,,,,,,,,,,,,,,,,,,,,,,,,,,
,,,,,,,,,5dad4c34b3446a0015e3de93,Spanish,13 or older,"no, only English or Spanish",no,2025-08-12_16h06.59.435,empathy_intonation_perc_control,2024.2.4,Win32,144.9275362,5dad4c34b3446a0015e3de93,68817205a84113384fffdfe3,689b9ec0afeb1cc867891d21,,,,,,,,,,,,./stim/wavs/puertorican_mismatch_interrogative-total-yn_El-nino-oye-el-rio.wav,1,,,178.4408,180.3528,0,0,1.4076,,0,64,64,40,1,41,1,puertorican,,,,,,,,,,,,,,,,,,,,,,,,,,,,,,,,,,,,,,,,,,,,,,,,,,,,,,,,
,,,,,,,,,5dad4c34b3446a0015e3de93,Spanish,13 or older,"no, only English or Spanish",no,2025-08-12_16h06.59.435,empathy_intonation_perc_control,2024.2.4,Win32,144.9275362,5dad4c34b3446a0015e3de93,68817205a84113384fffdfe3,689b9ec0afeb1cc867891d21,,,,,,,,,,,,./stim/wavs/mexican_mismatch_declarative-broad-focus_El-bebe-comia-muy-bien.wav,0,,,180.3531,182.471,0,1,1.6067,,0,65,65,78,1,79,0,mexican,,,,,,,,,,,,,,,,,,,,,,,,,,,,,,,,,,,,,,,,,,,,,,,,,,,,,,,,
,,,,,,,,,5dad4c34b3446a0015e3de93,Spanish,13 or older,"no, only English or Spanish",no,2025-08-12_16h06.59.435,empathy_intonation_perc_control,2024.2.4,Win32,144.9275362,5dad4c34b3446a0015e3de93,68817205a84113384fffdfe3,689b9ec0afeb1cc867891d21,,,,,,,,,,,,./stim/wavs/mexican_mismatch_interrogative-total-yn_La-maestra-vive-en-Paris.wav,1,,,182.4712,184.91,1,1,1.9298,,0,66,66,36,1,37,0,mexican,,,,,,,,,,,,,,,,,,,,,,,,,,,,,,,,,,,,,,,,,,,,,,,,,,,,,,,,
,,,,,,,,,5dad4c34b3446a0015e3de93,Spanish,13 or older,"no, only English or Spanish",no,2025-08-12_16h06.59.435,empathy_intonation_perc_control,2024.2.4,Win32,144.9275362,5dad4c34b3446a0015e3de93,68817205a84113384fffdfe3,689b9ec0afeb1cc867891d21,,,,,,,,,,,,./stim/wavs/cuban_mismatch_declarative-broad-focus_La-nina-lava-el-plato.wav,0,,,184.9102,186.9531,0,1,1.5354,,0,67,67,75,1,76,0,cuban,,,,,,,,,,,,,,,,,,,,,,,,,,,,,,,,,,,,,,,,,,,,,,,,,,,,,,,,
,,,,,,,,,5dad4c34b3446a0015e3de93,Spanish,13 or older,"no, only English or Spanish",no,2025-08-12_16h06.59.435,empathy_intonation_perc_control,2024.2.4,Win32,144.9275362,5dad4c34b3446a0015e3de93,68817205a84113384fffdfe3,689b9ec0afeb1cc867891d21,,,,,,,,,,,,./stim/wavs/castilian_match_interrogative-total-yn_Maria-bebe-el-vino.wav,1,,,186.9533,189.1315,1,1,1.666,,0,68,68,3,1,4,0,castilian,,,,,,,,,,,,,,,,,,,,,,,,,,,,,,,,,,,,,,,,,,,,,,,,,,,,,,,,
,,,,,,,,,5dad4c34b3446a0015e3de93,Spanish,13 or older,"no, only English or Spanish",no,2025-08-12_16h06.59.435,empathy_intonation_perc_control,2024.2.4,Win32,144.9275362,5dad4c34b3446a0015e3de93,68817205a84113384fffdfe3,689b9ec0afeb1cc867891d21,,,,,,,,,,,,./stim/wavs/cuban_match_declarative-broad-focus_Maria-bebe-el-vino.wav,0,,,189.1317,191.2222,0,1,1.5883,,0,69,69,53,1,54,0,cuban,,,,,,,,,,,,,,,,,,,,,,,,,,,,,,,,,,,,,,,,,,,,,,,,,,,,,,,,
,,,,,,,,,5dad4c34b3446a0015e3de93,Spanish,13 or older,"no, only English or Spanish",no,2025-08-12_16h06.59.435,empathy_intonation_perc_control,2024.2.4,Win32,144.9275362,5dad4c34b3446a0015e3de93,68817205a84113384fffdfe3,689b9ec0afeb1cc867891d21,,,,,,,,,,,,./stim/wavs/mexican_match_interrogative-total-yn_Marta-abre-el-regalo.wav,1,,,191.2224,193.2017,1,1,1.4682,,0,70,70,17,1,18,0,mexican,,,,,,,,,,,,,,,,,,,,,,,,,,,,,,,,,,,,,,,,,,,,,,,,,,,,,,,,
,,,,,,,,,5dad4c34b3446a0015e3de93,Spanish,13 or older,"no, only English or Spanish",no,2025-08-12_16h06.59.435,empathy_intonation_perc_control,2024.2.4,Win32,144.9275362,5dad4c34b3446a0015e3de93,68817205a84113384fffdfe3,689b9ec0afeb1cc867891d21,,,,,,,,,,,,./stim/wavs/cuban_mismatch_declarative-broad-focus_Mi-novio-viene-del-lago.wav,0,,,193.202,195.5006,0,1,1.7862,,0,71,71,76,1,77,0,cuban,,,,,,,,,,,,,,,,,,,,,,,,,,,,,,,,,,,,,,,,,,,,,,,,,,,,,,,,
,,,,,,,,,5dad4c34b3446a0015e3de93,Spanish,13 or older,"no, only English or Spanish",no,2025-08-12_16h06.59.435,empathy_intonation_perc_control,2024.2.4,Win32,144.9275362,5dad4c34b3446a0015e3de93,68817205a84113384fffdfe3,689b9ec0afeb1cc867891d21,,,,,,,,,,,,./stim/wavs/cuban_match_declarative-broad-focus_Daniel-iba-a-Bolivia.wav,0,,,195.5008,197.7995,0,1,1.7921,,0,72,72,51,1,52,0,cuban,,,,,,,,,,,,,,,,,,,,,,,,,,,,,,,,,,,,,,,,,,,,,,,,,,,,,,,,
,,,,,,,,,5dad4c34b3446a0015e3de93,Spanish,13 or older,"no, only English or Spanish",no,2025-08-12_16h06.59.435,empathy_intonation_perc_control,2024.2.4,Win32,144.9275362,5dad4c34b3446a0015e3de93,68817205a84113384fffdfe3,689b9ec0afeb1cc867891d21,,,,,,,,,,,,./stim/wavs/castilian_mismatch_interrogative-total-yn_La-maestra-vive-en-Paris.wav,1,,,197.7997,200.2861,1,1,1.9755,,0,73,73,24,1,25,0,castilian,,,,,,,,,,,,,,,,,,,,,,,,,,,,,,,,,,,,,,,,,,,,,,,,,,,,,,,,
,,,,,,,,,5dad4c34b3446a0015e3de93,Spanish,13 or older,"no, only English or Spanish",no,2025-08-12_16h06.59.435,empathy_intonation_perc_control,2024.2.4,Win32,144.9275362,5dad4c34b3446a0015e3de93,68817205a84113384fffdfe3,689b9ec0afeb1cc867891d21,,,,,,,,,,,,./stim/wavs/mexican_mismatch_interrogative-total-yn_El-nino-oye-el-rio.wav,1,,,200.2862,202.8002,1,1,2.0012,,0,74,74,35,1,36,0,mexican,,,,,,,,,,,,,,,,,,,,,,,,,,,,,,,,,,,,,,,,,,,,,,,,,,,,,,,,
,,,,,,,,,5dad4c34b3446a0015e3de93,Spanish,13 or older,"no, only English or Spanish",no,2025-08-12_16h06.59.435,empathy_intonation_perc_control,2024.2.4,Win32,144.9275362,5dad4c34b3446a0015e3de93,68817205a84113384fffdfe3,689b9ec0afeb1cc867891d21,,,,,,,,,,,,./stim/wavs/cuban_match_interrogative-total-yn_Maria-bebe-el-vino.wav,1,,,202.8003,205.0367,0,0,1.7226,,0,75,75,9,1,10,1,cuban,,,,,,,,,,,,,,,,,,,,,,,,,,,,,,,,,,,,,,,,,,,,,,,,,,,,,,,,
,,,,,,,,,5dad4c34b3446a0015e3de93,Spanish,13 or older,"no, only English or Spanish",no,2025-08-12_16h06.59.435,empathy_intonation_perc_control,2024.2.4,Win32,144.9275362,5dad4c34b3446a0015e3de93,68817205a84113384fffdfe3,689b9ec0afeb1cc867891d21,,,,,,,,,,,,./stim/wavs/castilian_match_interrogative-total-yn_Marta-abre-el-regalo.wav,1,,,205.0368,207.3427,1,1,1.7817,,0,76,76,5,1,6,0,castilian,,,,,,,,,,,,,,,,,,,,,,,,,,,,,,,,,,,,,,,,,,,,,,,,,,,,,,,,
,,,,,,,,,5dad4c34b3446a0015e3de93,Spanish,13 or older,"no, only English or Spanish",no,2025-08-12_16h06.59.435,empathy_intonation_perc_control,2024.2.4,Win32,144.9275362,5dad4c34b3446a0015e3de93,68817205a84113384fffdfe3,689b9ec0afeb1cc867891d21,,,,,,,,,,,,./stim/wavs/cuban_mismatch_interrogative-total-yn_Mi-madre-come-la-fruta.wav,1,,,207.343,209.5374,0,0,1.6809,,0,77,77,31,1,32,1,cuban,,,,,,,,,,,,,,,,,,,,,,,,,,,,,,,,,,,,,,,,,,,,,,,,,,,,,,,,
,,,,,,,,,5dad4c34b3446a0015e3de93,Spanish,13 or older,"no, only English or Spanish",no,2025-08-12_16h06.59.435,empathy_intonation_perc_control,2024.2.4,Win32,144.9275362,5dad4c34b3446a0015e3de93,68817205a84113384fffdfe3,689b9ec0afeb1cc867891d21,,,,,,,,,,,,./stim/wavs/castilian_match_declarative-broad-focus_David-leia-el-libro.wav,0,,,209.5376,211.7668,0,1,1.7174,,0,78,78,44,1,45,0,castilian,,,,,,,,,,,,,,,,,,,,,,,,,,,,,,,,,,,,,,,,,,,,,,,,,,,,,,,,
,,,,,,,,,5dad4c34b3446a0015e3de93,Spanish,13 or older,"no, only English or Spanish",no,2025-08-12_16h06.59.435,empathy_intonation_perc_control,2024.2.4,Win32,144.9275362,5dad4c34b3446a0015e3de93,68817205a84113384fffdfe3,689b9ec0afeb1cc867891d21,,,,,,,,,,,,./stim/wavs/castilian_match_interrogative-total-yn_Manuela-vende-el-carro.wav,1,,,211.767,213.9894,1,1,1.7088,,0,79,79,2,1,3,0,castilian,,,,,,,,,,,,,,,,,,,,,,,,,,,,,,,,,,,,,,,,,,,,,,,,,,,,,,,,
,,,,,,,,,5dad4c34b3446a0015e3de93,Spanish,13 or older,"no, only English or Spanish",no,2025-08-12_16h06.59.435,empathy_intonation_perc_control,2024.2.4,Win32,144.9275362,5dad4c34b3446a0015e3de93,68817205a84113384fffdfe3,689b9ec0afeb1cc867891d21,,,,,,,,,,,,./stim/wavs/mexican_match_interrogative-total-yn_Emilio-ama-la-marcha.wav,1,,,213.9897,216.58,1,1,2.0764,,0,80,80,15,1,16,0,mexican,,,,,,,,,,,,,,,,,,,,,,,,,,,,,,,,,,,,,,,,,,,,,,,,,,,,,,,,
,,,,,,,,,5dad4c34b3446a0015e3de93,Spanish,13 or older,"no, only English or Spanish",no,2025-08-12_16h06.59.435,empathy_intonation_perc_control,2024.2.4,Win32,144.9275362,5dad4c34b3446a0015e3de93,68817205a84113384fffdfe3,689b9ec0afeb1cc867891d21,,,,,,,,,,,,./stim/wavs/castilian_mismatch_interrogative-total-yn_Mi-novio-viene-del-lago.wav,1,,,216.5803,218.9993,1,1,1.9093,,0,81,81,27,1,28,0,castilian,,,,,,,,,,,,,,,,,,,,,,,,,,,,,,,,,,,,,,,,,,,,,,,,,,,,,,,,
,,,,,,,,,5dad4c34b3446a0015e3de93,Spanish,13 or older,"no, only English or Spanish",no,2025-08-12_16h06.59.435,empathy_intonation_perc_control,2024.2.4,Win32,144.9275362,5dad4c34b3446a0015e3de93,68817205a84113384fffdfe3,689b9ec0afeb1cc867891d21,,,,,,,,,,,,./stim/wavs/castilian_match_declarative-broad-focus_Marta-abre-el-regalo.wav,0,,,218.9995,221.4071,0,1,1.8981,,0,82,82,49,1,50,0,castilian,,,,,,,,,,,,,,,,,,,,,,,,,,,,,,,,,,,,,,,,,,,,,,,,,,,,,,,,
,,,,,,,,,5dad4c34b3446a0015e3de93,Spanish,13 or older,"no, only English or Spanish",no,2025-08-12_16h06.59.435,empathy_intonation_perc_control,2024.2.4,Win32,144.9275362,5dad4c34b3446a0015e3de93,68817205a84113384fffdfe3,689b9ec0afeb1cc867891d21,,,,,,,,,,,,./stim/wavs/puertorican_mismatch_interrogative-total-yn_Mi-madre-come-la-fruta.wav,1,,,221.4073,223.7269,0,0,1.8078,,0,83,83,43,1,44,1,puertorican,,,,,,,,,,,,,,,,,,,,,,,,,,,,,,,,,,,,,,,,,,,,,,,,,,,,,,,,
,,,,,,,,,5dad4c34b3446a0015e3de93,Spanish,13 or older,"no, only English or Spanish",no,2025-08-12_16h06.59.435,empathy_intonation_perc_control,2024.2.4,Win32,144.9275362,5dad4c34b3446a0015e3de93,68817205a84113384fffdfe3,689b9ec0afeb1cc867891d21,,,,,,,,,,,,./stim/wavs/puertorican_match_declarative-broad-focus_Emilio-ama-la-marcha.wav,0,,,223.7271,225.873,0,1,1.6349,,0,84,84,65,1,66,0,puertorican,,,,,,,,,,,,,,,,,,,,,,,,,,,,,,,,,,,,,,,,,,,,,,,,,,,,,,,,
,,,,,,,,,5dad4c34b3446a0015e3de93,Spanish,13 or older,"no, only English or Spanish",no,2025-08-12_16h06.59.435,empathy_intonation_perc_control,2024.2.4,Win32,144.9275362,5dad4c34b3446a0015e3de93,68817205a84113384fffdfe3,689b9ec0afeb1cc867891d21,,,,,,,,,,,,./stim/wavs/puertorican_match_declarative-broad-focus_David-leia-el-libro.wav,0,,,225.8733,227.9661,0,1,1.5841,,0,85,85,64,1,65,0,puertorican,,,,,,,,,,,,,,,,,,,,,,,,,,,,,,,,,,,,,,,,,,,,,,,,,,,,,,,,
,,,,,,,,,5dad4c34b3446a0015e3de93,Spanish,13 or older,"no, only English or Spanish",no,2025-08-12_16h06.59.435,empathy_intonation_perc_control,2024.2.4,Win32,144.9275362,5dad4c34b3446a0015e3de93,68817205a84113384fffdfe3,689b9ec0afeb1cc867891d21,,,,,,,,,,,,./stim/wavs/castilian_mismatch_declarative-broad-focus_La-nina-lava-el-plato.wav,0,,,227.9662,230.3463,0,1,1.8661,,0,86,86,70,1,71,0,castilian,,,,,,,,,,,,,,,,,,,,,,,,,,,,,,,,,,,,,,,,,,,,,,,,,,,,,,,,
,,,,,,,,,5dad4c34b3446a0015e3de93,Spanish,13 or older,"no, only English or Spanish",no,2025-08-12_16h06.59.435,empathy_intonation_perc_control,2024.2.4,Win32,144.9275362,5dad4c34b3446a0015e3de93,68817205a84113384fffdfe3,689b9ec0afeb1cc867891d21,,,,,,,,,,,,./stim/wavs/mexican_match_declarative-broad-focus_Ana-lleva-el-abrigo.wav,0,,,230.3467,232.2649,0,1,1.408,,0,87,87,56,1,57,0,mexican,,,,,,,,,,,,,,,,,,,,,,,,,,,,,,,,,,,,,,,,,,,,,,,,,,,,,,,,
,,,,,,,"Great! Now we will move on. The next task consists of about 60 trials, in each of which you will see a string of letters. 
  
  Your task is to decide whether this is a real Spanish word or not.", (press the spacebar to continue),5dad4c34b3446a0015e3de93,Spanish,13 or older,"no, only English or Spanish",no,2025-08-12_16h06.59.435,empathy_intonation_perc_control,2024.2.4,Win32,144.9275362,5dad4c34b3446a0015e3de93,68817205a84113384fffdfe3,689b9ec0afeb1cc867891d21,,,,,,,,,,,,,,,,,,,,,,,,,,,,,,232.267,237.8912,0,0,0,0,1,,,,,,,,,,,,,,,,,,,,,,,,,,,,,,,,,,,,,,,,,,,,,,,,,
,,,,,,,"If you think it is an existing Spanish word, you type '1' (for 'REAL'), and if you think it is not an existing Spanish word, you type '0' (for 'FAKE').", (press the spacebar to continue),5dad4c34b3446a0015e3de93,Spanish,13 or older,"no, only English or Spanish",no,2025-08-12_16h06.59.435,empathy_intonation_perc_control,2024.2.4,Win32,144.9275362,5dad4c34b3446a0015e3de93,68817205a84113384fffdfe3,689b9ec0afeb1cc867891d21,,,,,,,,,,,,,,,,,,,,,,,,,,,,,,237.8921,241.4031,0,1,1,1,1,,,,,,,,,,,,,,,,,,,,,,,,,,,,,,,,,,,,,,,,,,,,,,,,,
,,,,,,,"If you are sure that the word exists, even though you don’t know its exact meaning, you may still respond '1' (REAL). 
  
  But if you are not sure if it is an existing word, you should respond '0' (FAKE).
  
  Let's do a practice round...", (press the spacebar to continue),5dad4c34b3446a0015e3de93,Spanish,13 or older,"no, only English or Spanish",no,2025-08-12_16h06.59.435,empathy_intonation_perc_control,2024.2.4,Win32,144.9275362,5dad4c34b3446a0015e3de93,68817205a84113384fffdfe3,689b9ec0afeb1cc867891d21,,,,,,,,,,,,,,,,,,,,,,,,,,,,,,241.4037,247.3138,0,2,2,2,1,,,,,,,,,,,,,,,,,,,,,,,,,,,,,,,,,,,,,,,,,,,,,,,,,
,,,,,,,,,5dad4c34b3446a0015e3de93,Spanish,13 or older,"no, only English or Spanish",no,2025-08-12_16h06.59.435,empathy_intonation_perc_control,2024.2.4,Win32,144.9275362,5dad4c34b3446a0015e3de93,68817205a84113384fffdfe3,689b9ec0afeb1cc867891d21,,,,,,,,,,,,,0,,,,,,,,,,,,,,,,,,,,,,,,247.3174,249.7099,0,1,1.8781,,249.71,250.71,0,0,0,0,1,0,depiste,REAL,FAKE,,,,,,,,,,,,,,,,,,,,,,,,,,,,,,,,
,,,,,,,,,5dad4c34b3446a0015e3de93,Spanish,13 or older,"no, only English or Spanish",no,2025-08-12_16h06.59.435,empathy_intonation_perc_control,2024.2.4,Win32,144.9275362,5dad4c34b3446a0015e3de93,68817205a84113384fffdfe3,689b9ec0afeb1cc867891d21,,,,,,,,,,,,,1,,,,,,,,,,,,,,,,,,,,,,,,250.7105,251.8977,1,1,0.6742,,251.8977,252.8977,0,1,1,1,1,0,sí,REAL,FAKE,,,,,,,,,,,,,,,,,,,,,,,,,,,,,,,,
,,,,,,,,,5dad4c34b3446a0015e3de93,Spanish,13 or older,"no, only English or Spanish",no,2025-08-12_16h06.59.435,empathy_intonation_perc_control,2024.2.4,Win32,144.9275362,5dad4c34b3446a0015e3de93,68817205a84113384fffdfe3,689b9ec0afeb1cc867891d21,,,,,,,,,,,,,0,,,,,,,,,,,,,,,,,,,,,,,,252.8983,254.4604,1,0,1.0526,,254.461,255.4607,0,2,2,2,1,0,coné,REAL,FAKE,,,,,,,,,,,,,,,,,,,,,,,,,,,,,,,,
,,,,,,,,,5dad4c34b3446a0015e3de93,Spanish,13 or older,"no, only English or Spanish",no,2025-08-12_16h06.59.435,empathy_intonation_perc_control,2024.2.4,Win32,144.9275362,5dad4c34b3446a0015e3de93,68817205a84113384fffdfe3,689b9ec0afeb1cc867891d21,,,,,,,,,,,,,0,,,,,,,,,,,,,,,,,,,,,,,,255.4611,257.2388,0,1,1.2649,,257.2391,258.2428,0,3,3,3,1,0,calpar,REAL,FAKE,,,,,,,,,,,,,,,,,,,,,,,,,,,,,,,,
,,,,,,,,,5dad4c34b3446a0015e3de93,Spanish,13 or older,"no, only English or Spanish",no,2025-08-12_16h06.59.435,empathy_intonation_perc_control,2024.2.4,Win32,144.9275362,5dad4c34b3446a0015e3de93,68817205a84113384fffdfe3,689b9ec0afeb1cc867891d21,,,,,,,,,,,,,0,,,,,,,,,,,,,,,,,,,,,,,,258.2433,259.4057,0,1,0.6489,,259.4057,260.4058,0,4,4,4,1,0,joten,REAL,FAKE,,,,,,,,,,,,,,,,,,,,,,,,,,,,,,,,
,,,,,,,,,5dad4c34b3446a0015e3de93,Spanish,13 or older,"no, only English or Spanish",no,2025-08-12_16h06.59.435,empathy_intonation_perc_control,2024.2.4,Win32,144.9275362,5dad4c34b3446a0015e3de93,68817205a84113384fffdfe3,689b9ec0afeb1cc867891d21,,,,,,,,,,,,,1,,,,,,,,,,,,,,,,,,,,,,,,260.4062,261.9546,1,1,1.0315,,261.9546,262.9548,0,5,5,5,1,0,sacapuntas,REAL,FAKE,,,,,,,,,,,,,,,,,,,,,,,,,,,,,,,,
,,,,,,,,,5dad4c34b3446a0015e3de93,Spanish,13 or older,"no, only English or Spanish",no,2025-08-12_16h06.59.435,empathy_intonation_perc_control,2024.2.4,Win32,144.9275362,5dad4c34b3446a0015e3de93,68817205a84113384fffdfe3,689b9ec0afeb1cc867891d21,,,,,,,,,,,,,0,,,,,,,,,,,,,,,,,,,,,,,,262.9553,264.2466,0,1,0.7784,,264.2466,265.247,0,6,6,6,1,0,priba,REAL,FAKE,,,,,,,,,,,,,,,,,,,,,,,,,,,,,,,,
,,,,,,,,,5dad4c34b3446a0015e3de93,Spanish,13 or older,"no, only English or Spanish",no,2025-08-12_16h06.59.435,empathy_intonation_perc_control,2024.2.4,Win32,144.9275362,5dad4c34b3446a0015e3de93,68817205a84113384fffdfe3,689b9ec0afeb1cc867891d21,,,,,,,,,,,,,0,,,,,,,,,,,,,,,,,,,,,,,,265.2482,266.7956,0,1,1.0277,,266.7957,267.7912,0,7,7,7,1,0,pelasula,REAL,FAKE,,,,,,,,,,,,,,,,,,,,,,,,,,,,,,,,
,,,,,,,,,5dad4c34b3446a0015e3de93,Spanish,13 or older,"no, only English or Spanish",no,2025-08-12_16h06.59.435,empathy_intonation_perc_control,2024.2.4,Win32,144.9275362,5dad4c34b3446a0015e3de93,68817205a84113384fffdfe3,689b9ec0afeb1cc867891d21,,,,,,,,,,,,,1,,,,,,,,,,,,,,,,,,,,,,,,267.7917,268.9209,1,1,0.6144,,268.9209,269.9209,0,8,8,8,1,0,bien,REAL,FAKE,,,,,,,,,,,,,,,,,,,,,,,,,,,,,,,,
,,,,,,,,,5dad4c34b3446a0015e3de93,Spanish,13 or older,"no, only English or Spanish",no,2025-08-12_16h06.59.435,empathy_intonation_perc_control,2024.2.4,Win32,144.9275362,5dad4c34b3446a0015e3de93,68817205a84113384fffdfe3,689b9ec0afeb1cc867891d21,,,,,,,,,,,,,1,,,,,,,,,,,,,,,,,,,,,,,,269.9213,271.095,1,1,0.6615,,271.095,272.0949,0,9,9,9,1,0,casa,REAL,FAKE,,,,,,,,,,,,,,,,,,,,,,,,,,,,,,,,
,,,,,,,,,5dad4c34b3446a0015e3de93,Spanish,13 or older,"no, only English or Spanish",no,2025-08-12_16h06.59.435,empathy_intonation_perc_control,2024.2.4,Win32,144.9275362,5dad4c34b3446a0015e3de93,68817205a84113384fffdfe3,689b9ec0afeb1cc867891d21,,,,,,,,,,,,,0,,,,,,,,,,,,,,,,,,,,,,,,272.0953,273.153,0,1,0.5486,,273.153,274.153,0,10,10,10,1,0,lejo,REAL,FAKE,,,,,,,,,,,,,,,,,,,,,,,,,,,,,,,,
,,,,,,,,,5dad4c34b3446a0015e3de93,Spanish,13 or older,"no, only English or Spanish",no,2025-08-12_16h06.59.435,empathy_intonation_perc_control,2024.2.4,Win32,144.9275362,5dad4c34b3446a0015e3de93,68817205a84113384fffdfe3,689b9ec0afeb1cc867891d21,,,,,,,,,,,,,0,,,,,,,,,,,,,,,,,,,,,,,,274.1533,275.8479,0,1,1.1801,,275.8479,276.8479,0,11,11,11,1,0,pretantas,REAL,FAKE,,,,,,,,,,,,,,,,,,,,,,,,,,,,,,,,
,,,,,,,,,5dad4c34b3446a0015e3de93,Spanish,13 or older,"no, only English or Spanish",no,2025-08-12_16h06.59.435,empathy_intonation_perc_control,2024.2.4,Win32,144.9275362,5dad4c34b3446a0015e3de93,68817205a84113384fffdfe3,689b9ec0afeb1cc867891d21,,,,,,,,,,,,,,,,,,,,,,,,,,,,,,,,,,,,,,,,,,,,,,,,,,,,,,276.848,277.9918,,,,,,,,,,,,,,,,,,,,,,,,,,,,,,
,,,,,,,,,5dad4c34b3446a0015e3de93,Spanish,13 or older,"no, only English or Spanish",no,2025-08-12_16h06.59.435,empathy_intonation_perc_control,2024.2.4,Win32,144.9275362,5dad4c34b3446a0015e3de93,68817205a84113384fffdfe3,689b9ec0afeb1cc867891d21,,,,,,,,,,,,,1,,,,,,,,,,,,,,,,,,,,,,,,,,,,,,,,,,,,,6,tergiversar,,,,,277.9946,279.6795,0,0,1.1667,,0,0,0,5,1,REAL,FAKE,,,,,,,,,,,,,,,,,
,,,,,,,,,5dad4c34b3446a0015e3de93,Spanish,13 or older,"no, only English or Spanish",no,2025-08-12_16h06.59.435,empathy_intonation_perc_control,2024.2.4,Win32,144.9275362,5dad4c34b3446a0015e3de93,68817205a84113384fffdfe3,689b9ec0afeb1cc867891d21,,,,,,,,,,,,,1,,,,,,,,,,,,,,,,,,,,,,,,,,,,,,,,,,,,,45,jilguero,,,,,279.6798,281.3001,0,0,1.1043,,0,1,1,44,1,REAL,FAKE,,,,,,,,,,,,,,,,,
,,,,,,,,,5dad4c34b3446a0015e3de93,Spanish,13 or older,"no, only English or Spanish",no,2025-08-12_16h06.59.435,empathy_intonation_perc_control,2024.2.4,Win32,144.9275362,5dad4c34b3446a0015e3de93,68817205a84113384fffdfe3,689b9ec0afeb1cc867891d21,,,,,,,,,,,,,1,,,,,,,,,,,,,,,,,,,,,,,,,,,,,,,,,,,,,81,pozo,,,,,281.3005,282.7215,0,0,0.9029,,0,2,2,80,1,REAL,FAKE,,,,,,,,,,,,,,,,,
,,,,,,,,,5dad4c34b3446a0015e3de93,Spanish,13 or older,"no, only English or Spanish",no,2025-08-12_16h06.59.435,empathy_intonation_perc_control,2024.2.4,Win32,144.9275362,5dad4c34b3446a0015e3de93,68817205a84113384fffdfe3,689b9ec0afeb1cc867891d21,,,,,,,,,,,,,1,,,,,,,,,,,,,,,,,,,,,,,,,,,,,,,,,,,,,41,rebuscar,,,,,282.7218,284.5204,0,0,1.2847,,0,3,3,40,1,REAL,FAKE,,,,,,,,,,,,,,,,,
,,,,,,,,,5dad4c34b3446a0015e3de93,Spanish,13 or older,"no, only English or Spanish",no,2025-08-12_16h06.59.435,empathy_intonation_perc_control,2024.2.4,Win32,144.9275362,5dad4c34b3446a0015e3de93,68817205a84113384fffdfe3,689b9ec0afeb1cc867891d21,,,,,,,,,,,,,1,,,,,,,,,,,,,,,,,,,,,,,,,,,,,,,,,,,,,37,granuja,,,,,284.5207,286.3124,0,0,1.2788,,0,4,4,36,1,REAL,FAKE,,,,,,,,,,,,,,,,,
,,,,,,,,,5dad4c34b3446a0015e3de93,Spanish,13 or older,"no, only English or Spanish",no,2025-08-12_16h06.59.435,empathy_intonation_perc_control,2024.2.4,Win32,144.9275362,5dad4c34b3446a0015e3de93,68817205a84113384fffdfe3,689b9ec0afeb1cc867891d21,,,,,,,,,,,,,0,,,,,,,,,,,,,,,,,,,,,,,,,,,,,,,,,,,,,92,click the 0 key.,,,,,286.314,288.035,0,1,1.2063,,0,5,5,91,1,REAL,FAKE,,,,,,,,,,,,,,,,,
,,,,,,,,,5dad4c34b3446a0015e3de93,Spanish,13 or older,"no, only English or Spanish",no,2025-08-12_16h06.59.435,empathy_intonation_perc_control,2024.2.4,Win32,144.9275362,5dad4c34b3446a0015e3de93,68817205a84113384fffdfe3,689b9ec0afeb1cc867891d21,,,,,,,,,,,,,0,,,,,,,,,,,,,,,,,,,,,,,,,,,,,,,,,,,,,35,rompido,,,,,288.0355,289.6902,0,1,1.139,,0,6,6,34,1,REAL,FAKE,,,,,,,,,,,,,,,,,
,,,,,,,,,5dad4c34b3446a0015e3de93,Spanish,13 or older,"no, only English or Spanish",no,2025-08-12_16h06.59.435,empathy_intonation_perc_control,2024.2.4,Win32,144.9275362,5dad4c34b3446a0015e3de93,68817205a84113384fffdfe3,689b9ec0afeb1cc867891d21,,,,,,,,,,,,,0,,,,,,,,,,,,,,,,,,,,,,,,,,,,,,,,,,,,,66,hacido,,,,,289.6905,291.1255,0,1,0.9177,,0,7,7,65,1,REAL,FAKE,,,,,,,,,,,,,,,,,
,,,,,,,,,5dad4c34b3446a0015e3de93,Spanish,13 or older,"no, only English or Spanish",no,2025-08-12_16h06.59.435,empathy_intonation_perc_control,2024.2.4,Win32,144.9275362,5dad4c34b3446a0015e3de93,68817205a84113384fffdfe3,689b9ec0afeb1cc867891d21,,,,,,,,,,,,,1,,,,,,,,,,,,,,,,,,,,,,,,,,,,,,,,,,,,,64,orgulloso,,,,,291.1257,292.6952,0,0,1.0575,,0,8,8,63,1,REAL,FAKE,,,,,,,,,,,,,,,,,
,,,,,,,,,5dad4c34b3446a0015e3de93,Spanish,13 or older,"no, only English or Spanish",no,2025-08-12_16h06.59.435,empathy_intonation_perc_control,2024.2.4,Win32,144.9275362,5dad4c34b3446a0015e3de93,68817205a84113384fffdfe3,689b9ec0afeb1cc867891d21,,,,,,,,,,,,,1,,,,,,,,,,,,,,,,,,,,,,,,,,,,,,,,,,,,,91,click the 1 key.,,,,,292.6956,293.92,1,1,0.7153,,0,9,9,90,1,REAL,FAKE,,,,,,,,,,,,,,,,,
,,,,,,,,,5dad4c34b3446a0015e3de93,Spanish,13 or older,"no, only English or Spanish",no,2025-08-12_16h06.59.435,empathy_intonation_perc_control,2024.2.4,Win32,144.9275362,5dad4c34b3446a0015e3de93,68817205a84113384fffdfe3,689b9ec0afeb1cc867891d21,,,,,,,,,,,,,1,,,,,,,,,,,,,,,,,,,,,,,,,,,,,,,,,,,,,85,laúd,,,,,293.9205,295.0983,0,0,0.6623,,0,10,10,84,1,REAL,FAKE,,,,,,,,,,,,,,,,,
,,,,,,,,,5dad4c34b3446a0015e3de93,Spanish,13 or older,"no, only English or Spanish",no,2025-08-12_16h06.59.435,empathy_intonation_perc_control,2024.2.4,Win32,144.9275362,5dad4c34b3446a0015e3de93,68817205a84113384fffdfe3,689b9ec0afeb1cc867891d21,,,,,,,,,,,,,0,,,,,,,,,,,,,,,,,,,,,,,,,,,,,,,,,,,,,23,lampera,,,,,295.0987,297.0363,0,1,1.4286,,0,11,11,22,1,REAL,FAKE,,,,,,,,,,,,,,,,,
,,,,,,,,,5dad4c34b3446a0015e3de93,Spanish,13 or older,"no, only English or Spanish",no,2025-08-12_16h06.59.435,empathy_intonation_perc_control,2024.2.4,Win32,144.9275362,5dad4c34b3446a0015e3de93,68817205a84113384fffdfe3,689b9ec0afeb1cc867891d21,,,,,,,,,,,,,1,,,,,,,,,,,,,,,,,,,,,,,,,,,,,,,,,,,,,52,camisa,,,,,297.037,298.1959,1,1,0.6377,,0,12,12,51,1,REAL,FAKE,,,,,,,,,,,,,,,,,
,,,,,,,,,5dad4c34b3446a0015e3de93,Spanish,13 or older,"no, only English or Spanish",no,2025-08-12_16h06.59.435,empathy_intonation_perc_control,2024.2.4,Win32,144.9275362,5dad4c34b3446a0015e3de93,68817205a84113384fffdfe3,689b9ec0afeb1cc867891d21,,,,,,,,,,,,,0,,,,,,,,,,,,,,,,,,,,,,,,,,,,,,,,,,,,,10,antar,,,,,298.1963,299.849,0,1,1.1435,,0,13,13,9,1,REAL,FAKE,,,,,,,,,,,,,,,,,
,,,,,,,,,5dad4c34b3446a0015e3de93,Spanish,13 or older,"no, only English or Spanish",no,2025-08-12_16h06.59.435,empathy_intonation_perc_control,2024.2.4,Win32,144.9275362,5dad4c34b3446a0015e3de93,68817205a84113384fffdfe3,689b9ec0afeb1cc867891d21,,,,,,,,,,,,,1,,,,,,,,,,,,,,,,,,,,,,,,,,,,,,,,,,,,,28,merodear,,,,,299.8493,301.5576,0,0,1.1953,,0,14,14,27,1,REAL,FAKE,,,,,,,,,,,,,,,,,
,,,,,,,,,5dad4c34b3446a0015e3de93,Spanish,13 or older,"no, only English or Spanish",no,2025-08-12_16h06.59.435,empathy_intonation_perc_control,2024.2.4,Win32,144.9275362,5dad4c34b3446a0015e3de93,68817205a84113384fffdfe3,689b9ec0afeb1cc867891d21,,,,,,,,,,,,,1,,,,,,,,,,,,,,,,,,,,,,,,,,,,,,,,,,,,,73,hervidor,,,,,301.5579,303.1552,0,0,1.0851,,0,15,15,72,1,REAL,FAKE,,,,,,,,,,,,,,,,,
,,,,,,,,,5dad4c34b3446a0015e3de93,Spanish,13 or older,"no, only English or Spanish",no,2025-08-12_16h06.59.435,empathy_intonation_perc_control,2024.2.4,Win32,144.9275362,5dad4c34b3446a0015e3de93,68817205a84113384fffdfe3,689b9ec0afeb1cc867891d21,,,,,,,,,,,,,0,,,,,,,,,,,,,,,,,,,,,,,,,,,,,,,,,,,,,72,pemición,,,,,303.1556,304.4768,0,1,0.8054,,0,16,16,71,1,REAL,FAKE,,,,,,,,,,,,,,,,,
,,,,,,,,,5dad4c34b3446a0015e3de93,Spanish,13 or older,"no, only English or Spanish",no,2025-08-12_16h06.59.435,empathy_intonation_perc_control,2024.2.4,Win32,144.9275362,5dad4c34b3446a0015e3de93,68817205a84113384fffdfe3,689b9ec0afeb1cc867891d21,,,,,,,,,,,,,1,,,,,,,,,,,,,,,,,,,,,,,,,,,,,,,,,,,,,44,cuchara,,,,,304.4771,306.5097,0,0,1.5141,,0,17,17,43,1,REAL,FAKE,,,,,,,,,,,,,,,,,
,,,,,,,,,5dad4c34b3446a0015e3de93,Spanish,13 or older,"no, only English or Spanish",no,2025-08-12_16h06.59.435,empathy_intonation_perc_control,2024.2.4,Win32,144.9275362,5dad4c34b3446a0015e3de93,68817205a84113384fffdfe3,689b9ec0afeb1cc867891d21,,,,,,,,,,,,,1,,,,,,,,,,,,,,,,,,,,,,,,,,,,,,,,,,,,,86,barato,,,,,306.5101,308.121,0,0,1.0911,,0,18,18,85,1,REAL,FAKE,,,,,,,,,,,,,,,,,
,,,,,,,,,5dad4c34b3446a0015e3de93,Spanish,13 or older,"no, only English or Spanish",no,2025-08-12_16h06.59.435,empathy_intonation_perc_control,2024.2.4,Win32,144.9275362,5dad4c34b3446a0015e3de93,68817205a84113384fffdfe3,689b9ec0afeb1cc867891d21,,,,,,,,,,,,,0,,,,,,,,,,,,,,,,,,,,,,,,,,,,,,,,,,,,,16,abracer,,,,,308.1213,309.3366,0,1,0.7038,,0,19,19,15,1,REAL,FAKE,,,,,,,,,,,,,,,,,
,,,,,,,,,5dad4c34b3446a0015e3de93,Spanish,13 or older,"no, only English or Spanish",no,2025-08-12_16h06.59.435,empathy_intonation_perc_control,2024.2.4,Win32,144.9275362,5dad4c34b3446a0015e3de93,68817205a84113384fffdfe3,689b9ec0afeb1cc867891d21,,,,,,,,,,,,,1,,,,,,,,,,,,,,,,,,,,,,,,,,,,,,,,,,,,,34,aviso,,,,,309.3371,310.6075,0,0,0.7487,,0,20,20,33,1,REAL,FAKE,,,,,,,,,,,,,,,,,
,,,,,,,,,5dad4c34b3446a0015e3de93,Spanish,13 or older,"no, only English or Spanish",no,2025-08-12_16h06.59.435,empathy_intonation_perc_control,2024.2.4,Win32,144.9275362,5dad4c34b3446a0015e3de93,68817205a84113384fffdfe3,689b9ec0afeb1cc867891d21,,,,,,,,,,,,,0,,,,,,,,,,,,,,,,,,,,,,,,,,,,,,,,,,,,,27,acutación,,,,,310.6079,312.4897,0,1,1.3714,,0,21,21,26,1,REAL,FAKE,,,,,,,,,,,,,,,,,
,,,,,,,,,5dad4c34b3446a0015e3de93,Spanish,13 or older,"no, only English or Spanish",no,2025-08-12_16h06.59.435,empathy_intonation_perc_control,2024.2.4,Win32,144.9275362,5dad4c34b3446a0015e3de93,68817205a84113384fffdfe3,689b9ec0afeb1cc867891d21,,,,,,,,,,,,,1,,,,,,,,,,,,,,,,,,,,,,,,,,,,,,,,,,,,,48,ladrón,,,,,312.4901,313.9067,0,0,0.8976,,0,22,22,47,1,REAL,FAKE,,,,,,,,,,,,,,,,,
,,,,,,,,,5dad4c34b3446a0015e3de93,Spanish,13 or older,"no, only English or Spanish",no,2025-08-12_16h06.59.435,empathy_intonation_perc_control,2024.2.4,Win32,144.9275362,5dad4c34b3446a0015e3de93,68817205a84113384fffdfe3,689b9ec0afeb1cc867891d21,,,,,,,,,,,,,0,,,,,,,,,,,,,,,,,,,,,,,,,,,,,,,,,,,,,17,floroso,,,,,313.9072,316.1236,1,0,1.7007,,0,23,23,16,1,REAL,FAKE,,,,,,,,,,,,,,,,,
,,,,,,,,,5dad4c34b3446a0015e3de93,Spanish,13 or older,"no, only English or Spanish",no,2025-08-12_16h06.59.435,empathy_intonation_perc_control,2024.2.4,Win32,144.9275362,5dad4c34b3446a0015e3de93,68817205a84113384fffdfe3,689b9ec0afeb1cc867891d21,,,,,,,,,,,,,0,,,,,,,,,,,,,,,,,,,,,,,,,,,,,,,,,,,,,33,pauca,,,,,316.1238,317.4698,0,1,0.8332,,0,24,24,32,1,REAL,FAKE,,,,,,,,,,,,,,,,,
,,,,,,,,,5dad4c34b3446a0015e3de93,Spanish,13 or older,"no, only English or Spanish",no,2025-08-12_16h06.59.435,empathy_intonation_perc_control,2024.2.4,Win32,144.9275362,5dad4c34b3446a0015e3de93,68817205a84113384fffdfe3,689b9ec0afeb1cc867891d21,,,,,,,,,,,,,0,,,,,,,,,,,,,,,,,,,,,,,,,,,,,,,,,,,,,8,cadeña,,,,,317.4711,319.081,0,1,1.0938,,0,25,25,7,1,REAL,FAKE,,,,,,,,,,,,,,,,,
,,,,,,,,,5dad4c34b3446a0015e3de93,Spanish,13 or older,"no, only English or Spanish",no,2025-08-12_16h06.59.435,empathy_intonation_perc_control,2024.2.4,Win32,144.9275362,5dad4c34b3446a0015e3de93,68817205a84113384fffdfe3,689b9ec0afeb1cc867891d21,,,,,,,,,,,,,1,,,,,,,,,,,,,,,,,,,,,,,,,,,,,,,,,,,,,83,guante,,,,,319.0814,320.3728,0,0,0.7794,,0,26,26,82,1,REAL,FAKE,,,,,,,,,,,,,,,,,
,,,,,,,,,5dad4c34b3446a0015e3de93,Spanish,13 or older,"no, only English or Spanish",no,2025-08-12_16h06.59.435,empathy_intonation_perc_control,2024.2.4,Win32,144.9275362,5dad4c34b3446a0015e3de93,68817205a84113384fffdfe3,689b9ec0afeb1cc867891d21,,,,,,,,,,,,,0,,,,,,,,,,,,,,,,,,,,,,,,,,,,,,,,,,,,,4,batillón,,,,,320.3733,321.9842,0,1,1.0915,,0,27,27,3,1,REAL,FAKE,,,,,,,,,,,,,,,,,
,,,,,,,,,5dad4c34b3446a0015e3de93,Spanish,13 or older,"no, only English or Spanish",no,2025-08-12_16h06.59.435,empathy_intonation_perc_control,2024.2.4,Win32,144.9275362,5dad4c34b3446a0015e3de93,68817205a84113384fffdfe3,689b9ec0afeb1cc867891d21,,,,,,,,,,,,,1,,,,,,,,,,,,,,,,,,,,,,,,,,,,,,,,,,,,,54,fomentar,,,,,321.9846,323.7691,0,0,1.2722,,0,28,28,53,1,REAL,FAKE,,,,,,,,,,,,,,,,,
,,,,,,,,,5dad4c34b3446a0015e3de93,Spanish,13 or older,"no, only English or Spanish",no,2025-08-12_16h06.59.435,empathy_intonation_perc_control,2024.2.4,Win32,144.9275362,5dad4c34b3446a0015e3de93,68817205a84113384fffdfe3,689b9ec0afeb1cc867891d21,,,,,,,,,,,,,0,,,,,,,,,,,,,,,,,,,,,,,,,,,,,,,,,,,,,18,arsa,,,,,323.7695,324.9362,0,1,0.6563,,0,29,29,17,1,REAL,FAKE,,,,,,,,,,,,,,,,,
,,,,,,,,,5dad4c34b3446a0015e3de93,Spanish,13 or older,"no, only English or Spanish",no,2025-08-12_16h06.59.435,empathy_intonation_perc_control,2024.2.4,Win32,144.9275362,5dad4c34b3446a0015e3de93,68817205a84113384fffdfe3,689b9ec0afeb1cc867891d21,,,,,,,,,,,,,0,,,,,,,,,,,,,,,,,,,,,,,,,,,,,,,,,,,,,63,esposante,,,,,324.9367,327.5683,0,1,2.1137,,0,30,30,62,1,REAL,FAKE,,,,,,,,,,,,,,,,,
,,,,,,,,,5dad4c34b3446a0015e3de93,Spanish,13 or older,"no, only English or Spanish",no,2025-08-12_16h06.59.435,empathy_intonation_perc_control,2024.2.4,Win32,144.9275362,5dad4c34b3446a0015e3de93,68817205a84113384fffdfe3,689b9ec0afeb1cc867891d21,,,,,,,,,,,,,1,,,,,,,,,,,,,,,,,,,,,,,,,,,,,,,,,,,,,25,bisagra,,,,,327.5687,329.1032,0,0,1.0135,,0,31,31,24,1,REAL,FAKE,,,,,,,,,,,,,,,,,
,,,,,,,,,5dad4c34b3446a0015e3de93,Spanish,13 or older,"no, only English or Spanish",no,2025-08-12_16h06.59.435,empathy_intonation_perc_control,2024.2.4,Win32,144.9275362,5dad4c34b3446a0015e3de93,68817205a84113384fffdfe3,689b9ec0afeb1cc867891d21,,,,,,,,,,,,,1,,,,,,,,,,,,,,,,,,,,,,,,,,,,,,,,,,,,,14,yunque,,,,,329.1036,330.3812,0,0,0.7569,,0,32,32,13,1,REAL,FAKE,,,,,,,,,,,,,,,,,
,,,,,,,,,5dad4c34b3446a0015e3de93,Spanish,13 or older,"no, only English or Spanish",no,2025-08-12_16h06.59.435,empathy_intonation_perc_control,2024.2.4,Win32,144.9275362,5dad4c34b3446a0015e3de93,68817205a84113384fffdfe3,689b9ec0afeb1cc867891d21,,,,,,,,,,,,,1,,,,,,,,,,,,,,,,,,,,,,,,,,,,,,,,,,,,,24,látigo,,,,,330.3823,331.7633,0,0,0.87,,0,33,33,23,1,REAL,FAKE,,,,,,,,,,,,,,,,,
,,,,,,,,,5dad4c34b3446a0015e3de93,Spanish,13 or older,"no, only English or Spanish",no,2025-08-12_16h06.59.435,empathy_intonation_perc_control,2024.2.4,Win32,144.9275362,5dad4c34b3446a0015e3de93,68817205a84113384fffdfe3,689b9ec0afeb1cc867891d21,,,,,,,,,,,,,1,,,,,,,,,,,,,,,,,,,,,,,,,,,,,,,,,,,,,75,yacer,,,,,331.7636,332.9162,0,0,0.6429,,0,34,34,74,1,REAL,FAKE,,,,,,,,,,,,,,,,,
,,,,,,,,,5dad4c34b3446a0015e3de93,Spanish,13 or older,"no, only English or Spanish",no,2025-08-12_16h06.59.435,empathy_intonation_perc_control,2024.2.4,Win32,144.9275362,5dad4c34b3446a0015e3de93,68817205a84113384fffdfe3,689b9ec0afeb1cc867891d21,,,,,,,,,,,,,1,,,,,,,,,,,,,,,,,,,,,,,,,,,,,,,,,,,,,65,bizcocho,,,,,332.9166,334.1734,0,0,0.744,,0,35,35,64,1,REAL,FAKE,,,,,,,,,,,,,,,,,
,,,,,,,,,5dad4c34b3446a0015e3de93,Spanish,13 or older,"no, only English or Spanish",no,2025-08-12_16h06.59.435,empathy_intonation_perc_control,2024.2.4,Win32,144.9275362,5dad4c34b3446a0015e3de93,68817205a84113384fffdfe3,689b9ec0afeb1cc867891d21,,,,,,,,,,,,,1,,,,,,,,,,,,,,,,,,,,,,,,,,,,,,,,,,,,,26,secuestro,,,,,334.1736,336.5558,0,0,1.868,,0,36,36,25,1,REAL,FAKE,,,,,,,,,,,,,,,,,
,,,,,,,,,5dad4c34b3446a0015e3de93,Spanish,13 or older,"no, only English or Spanish",no,2025-08-12_16h06.59.435,empathy_intonation_perc_control,2024.2.4,Win32,144.9275362,5dad4c34b3446a0015e3de93,68817205a84113384fffdfe3,689b9ec0afeb1cc867891d21,,,,,,,,,,,,,0,,,,,,,,,,,,,,,,,,,,,,,,,,,,,,,,,,,,,53,vegada,,,,,336.5564,338.0651,0,1,0.9932,,0,37,37,52,1,REAL,FAKE,,,,,,,,,,,,,,,,,
,,,,,,,,,5dad4c34b3446a0015e3de93,Spanish,13 or older,"no, only English or Spanish",no,2025-08-12_16h06.59.435,empathy_intonation_perc_control,2024.2.4,Win32,144.9275362,5dad4c34b3446a0015e3de93,68817205a84113384fffdfe3,689b9ec0afeb1cc867891d21,,,,,,,,,,,,,1,,,,,,,,,,,,,,,,,,,,,,,,,,,,,,,,,,,,,71,polvoriento,,,,,338.0655,339.6286,0,0,1.0494,,0,38,38,70,1,REAL,FAKE,,,,,,,,,,,,,,,,,
,,,,,,,,,5dad4c34b3446a0015e3de93,Spanish,13 or older,"no, only English or Spanish",no,2025-08-12_16h06.59.435,empathy_intonation_perc_control,2024.2.4,Win32,144.9275362,5dad4c34b3446a0015e3de93,68817205a84113384fffdfe3,689b9ec0afeb1cc867891d21,,,,,,,,,,,,,1,,,,,,,,,,,,,,,,,,,,,,,,,,,,,,,,,,,,,12,asesinato,,,,,339.6289,341.251,0,0,1.1118,,0,39,39,11,1,REAL,FAKE,,,,,,,,,,,,,,,,,
,,,,,,,,,5dad4c34b3446a0015e3de93,Spanish,13 or older,"no, only English or Spanish",no,2025-08-12_16h06.59.435,empathy_intonation_perc_control,2024.2.4,Win32,144.9275362,5dad4c34b3446a0015e3de93,68817205a84113384fffdfe3,689b9ec0afeb1cc867891d21,,,,,,,,,,,,,0,,,,,,,,,,,,,,,,,,,,,,,,,,,,,,,,,,,,,47,cartinar,,,,,341.2515,342.7927,0,1,1.0264,,0,40,40,46,1,REAL,FAKE,,,,,,,,,,,,,,,,,
,,,,,,,,,5dad4c34b3446a0015e3de93,Spanish,13 or older,"no, only English or Spanish",no,2025-08-12_16h06.59.435,empathy_intonation_perc_control,2024.2.4,Win32,144.9275362,5dad4c34b3446a0015e3de93,68817205a84113384fffdfe3,689b9ec0afeb1cc867891d21,,,,,,,,,,,,,0,,,,,,,,,,,,,,,,,,,,,,,,,,,,,,,,,,,,,1,terzo,,,,,342.7931,344.1402,0,1,0.8403,,0,41,41,0,1,REAL,FAKE,,,,,,,,,,,,,,,,,
,,,,,,,,,5dad4c34b3446a0015e3de93,Spanish,13 or older,"no, only English or Spanish",no,2025-08-12_16h06.59.435,empathy_intonation_perc_control,2024.2.4,Win32,144.9275362,5dad4c34b3446a0015e3de93,68817205a84113384fffdfe3,689b9ec0afeb1cc867891d21,,,,,,,,,,,,,1,,,,,,,,,,,,,,,,,,,,,,,,,,,,,,,,,,,,,69,engatusar,,,,,344.1405,345.8418,0,0,1.19,,0,42,42,68,1,REAL,FAKE,,,,,,,,,,,,,,,,,
,,,,,,,,,5dad4c34b3446a0015e3de93,Spanish,13 or older,"no, only English or Spanish",no,2025-08-12_16h06.59.435,empathy_intonation_perc_control,2024.2.4,Win32,144.9275362,5dad4c34b3446a0015e3de93,68817205a84113384fffdfe3,689b9ec0afeb1cc867891d21,,,,,,,,,,,,,1,,,,,,,,,,,,,,,,,,,,,,,,,,,,,,,,,,,,,3,pulmones,,,,,345.8422,347.0781,0,0,0.722,,0,43,43,2,1,REAL,FAKE,,,,,,,,,,,,,,,,,
,,,,,,,,,5dad4c34b3446a0015e3de93,Spanish,13 or older,"no, only English or Spanish",no,2025-08-12_16h06.59.435,empathy_intonation_perc_control,2024.2.4,Win32,144.9275362,5dad4c34b3446a0015e3de93,68817205a84113384fffdfe3,689b9ec0afeb1cc867891d21,,,,,,,,,,,,,0,,,,,,,,,,,,,,,,,,,,,,,,,,,,,,,,,,,,,74,cintro,,,,,347.0787,348.5227,0,1,0.9358,,0,44,44,73,1,REAL,FAKE,,,,,,,,,,,,,,,,,
,,,,,,,,,5dad4c34b3446a0015e3de93,Spanish,13 or older,"no, only English or Spanish",no,2025-08-12_16h06.59.435,empathy_intonation_perc_control,2024.2.4,Win32,144.9275362,5dad4c34b3446a0015e3de93,68817205a84113384fffdfe3,689b9ec0afeb1cc867891d21,,,,,,,,,,,,,1,,,,,,,,,,,,,,,,,,,,,,,,,,,,,,,,,,,,,5,zapato,,,,,348.5231,350.1618,1,1,1.1345,,0,45,45,4,1,REAL,FAKE,,,,,,,,,,,,,,,,,
,,,,,,,,,5dad4c34b3446a0015e3de93,Spanish,13 or older,"no, only English or Spanish",no,2025-08-12_16h06.59.435,empathy_intonation_perc_control,2024.2.4,Win32,144.9275362,5dad4c34b3446a0015e3de93,68817205a84113384fffdfe3,689b9ec0afeb1cc867891d21,,,,,,,,,,,,,1,,,,,,,,,,,,,,,,,,,,,,,,,,,,,,,,,,,,,22,lacayo,,,,,350.1622,351.4816,0,0,0.8082,,0,46,46,21,1,REAL,FAKE,,,,,,,,,,,,,,,,,
,,,,,,,,,5dad4c34b3446a0015e3de93,Spanish,13 or older,"no, only English or Spanish",no,2025-08-12_16h06.59.435,empathy_intonation_perc_control,2024.2.4,Win32,144.9275362,5dad4c34b3446a0015e3de93,68817205a84113384fffdfe3,689b9ec0afeb1cc867891d21,,,,,,,,,,,,,1,,,,,,,,,,,,,,,,,,,,,,,,,,,,,,,,,,,,,78,frondoso,,,,,351.482,352.7942,0,0,0.8007,,0,47,47,77,1,REAL,FAKE,,,,,,,,,,,,,,,,,
,,,,,,,,,5dad4c34b3446a0015e3de93,Spanish,13 or older,"no, only English or Spanish",no,2025-08-12_16h06.59.435,empathy_intonation_perc_control,2024.2.4,Win32,144.9275362,5dad4c34b3446a0015e3de93,68817205a84113384fffdfe3,689b9ec0afeb1cc867891d21,,,,,,,,,,,,,1,,,,,,,,,,,,,,,,,,,,,,,,,,,,,,,,,,,,,61,seda,,,,,352.7945,353.9332,0,0,0.6328,,0,48,48,60,1,REAL,FAKE,,,,,,,,,,,,,,,,,
,,,,,,,,,5dad4c34b3446a0015e3de93,Spanish,13 or older,"no, only English or Spanish",no,2025-08-12_16h06.59.435,empathy_intonation_perc_control,2024.2.4,Win32,144.9275362,5dad4c34b3446a0015e3de93,68817205a84113384fffdfe3,689b9ec0afeb1cc867891d21,,,,,,,,,,,,,0,,,,,,,,,,,,,,,,,,,,,,,,,,,,,,,,,,,,,50,flamida,,,,,353.9335,355.1209,0,1,0.6739,,0,49,49,49,1,REAL,FAKE,,,,,,,,,,,,,,,,,
,,,,,,,,,5dad4c34b3446a0015e3de93,Spanish,13 or older,"no, only English or Spanish",no,2025-08-12_16h06.59.435,empathy_intonation_perc_control,2024.2.4,Win32,144.9275362,5dad4c34b3446a0015e3de93,68817205a84113384fffdfe3,689b9ec0afeb1cc867891d21,,,,,,,,,,,,,0,,,,,,,,,,,,,,,,,,,,,,,,,,,,,,,,,,,,,79,tropaje,,,,,355.1212,356.5657,0,1,0.9368,,0,50,50,78,1,REAL,FAKE,,,,,,,,,,,,,,,,,
,,,,,,,,,5dad4c34b3446a0015e3de93,Spanish,13 or older,"no, only English or Spanish",no,2025-08-12_16h06.59.435,empathy_intonation_perc_control,2024.2.4,Win32,144.9275362,5dad4c34b3446a0015e3de93,68817205a84113384fffdfe3,689b9ec0afeb1cc867891d21,,,,,,,,,,,,,1,,,,,,,,,,,,,,,,,,,,,,,,,,,,,,,,,,,,,60,matar,,,,,356.5663,357.781,0,0,0.7054,,0,51,51,59,1,REAL,FAKE,,,,,,,,,,,,,,,,,
,,,,,,,,,5dad4c34b3446a0015e3de93,Spanish,13 or older,"no, only English or Spanish",no,2025-08-12_16h06.59.435,empathy_intonation_perc_control,2024.2.4,Win32,144.9275362,5dad4c34b3446a0015e3de93,68817205a84113384fffdfe3,689b9ec0afeb1cc867891d21,,,,,,,,,,,,,1,,,,,,,,,,,,,,,,,,,,,,,,,,,,,,,,,,,,,15,regar,,,,,357.7814,358.8853,0,0,0.5966,,0,52,52,14,1,REAL,FAKE,,,,,,,,,,,,,,,,,
,,,,,,,,,5dad4c34b3446a0015e3de93,Spanish,13 or older,"no, only English or Spanish",no,2025-08-12_16h06.59.435,empathy_intonation_perc_control,2024.2.4,Win32,144.9275362,5dad4c34b3446a0015e3de93,68817205a84113384fffdfe3,689b9ec0afeb1cc867891d21,,,,,,,,,,,,,0,,,,,,,,,,,,,,,,,,,,,,,,,,,,,,,,,,,,,82,empirador,,,,,358.8856,360.8788,0,1,1.4863,,0,53,53,81,1,REAL,FAKE,,,,,,,,,,,,,,,,,
,,,,,,,,,5dad4c34b3446a0015e3de93,Spanish,13 or older,"no, only English or Spanish",no,2025-08-12_16h06.59.435,empathy_intonation_perc_control,2024.2.4,Win32,144.9275362,5dad4c34b3446a0015e3de93,68817205a84113384fffdfe3,689b9ec0afeb1cc867891d21,,,,,,,,,,,,,1,,,,,,,,,,,,,,,,,,,,,,,,,,,,,,,,,,,,,36,loro,,,,,360.8793,362.1844,0,0,0.7929,,0,54,54,35,1,REAL,FAKE,,,,,,,,,,,,,,,,,
,,,,,,,,,5dad4c34b3446a0015e3de93,Spanish,13 or older,"no, only English or Spanish",no,2025-08-12_16h06.59.435,empathy_intonation_perc_control,2024.2.4,Win32,144.9275362,5dad4c34b3446a0015e3de93,68817205a84113384fffdfe3,689b9ec0afeb1cc867891d21,,,,,,,,,,,,,1,,,,,,,,,,,,,,,,,,,,,,,,,,,,,,,,,,,,,40,alfombra,,,,,362.1847,363.8305,0,0,1.1339,,0,55,55,39,1,REAL,FAKE,,,,,,,,,,,,,,,,,
,,,,,,,,,5dad4c34b3446a0015e3de93,Spanish,13 or older,"no, only English or Spanish",no,2025-08-12_16h06.59.435,empathy_intonation_perc_control,2024.2.4,Win32,144.9275362,5dad4c34b3446a0015e3de93,68817205a84113384fffdfe3,689b9ec0afeb1cc867891d21,,,,,,,,,,,,,1,,,,,,,,,,,,,,,,,,,,,,,,,,,,,,,,,,,,,67,cabello,,,,,363.8308,365.4003,0,0,1.0624,,0,56,56,66,1,REAL,FAKE,,,,,,,,,,,,,,,,,
,,,,,,,,,5dad4c34b3446a0015e3de93,Spanish,13 or older,"no, only English or Spanish",no,2025-08-12_16h06.59.435,empathy_intonation_perc_control,2024.2.4,Win32,144.9275362,5dad4c34b3446a0015e3de93,68817205a84113384fffdfe3,689b9ec0afeb1cc867891d21,,,,,,,,,,,,,1,,,,,,,,,,,,,,,,,,,,,,,,,,,,,,,,,,,,,39,torpe,,,,,365.4007,367.074,0,0,1.1627,,0,57,57,38,1,REAL,FAKE,,,,,,,,,,,,,,,,,
,,,,,,,,,5dad4c34b3446a0015e3de93,Spanish,13 or older,"no, only English or Spanish",no,2025-08-12_16h06.59.435,empathy_intonation_perc_control,2024.2.4,Win32,144.9275362,5dad4c34b3446a0015e3de93,68817205a84113384fffdfe3,689b9ec0afeb1cc867891d21,,,,,,,,,,,,,0,,,,,,,,,,,,,,,,,,,,,,,,,,,,,,,,,,,,,21,capillo,,,,,367.0743,368.3941,0,1,0.8113,,0,58,58,20,1,REAL,FAKE,,,,,,,,,,,,,,,,,
,,,,,,,,,5dad4c34b3446a0015e3de93,Spanish,13 or older,"no, only English or Spanish",no,2025-08-12_16h06.59.435,empathy_intonation_perc_control,2024.2.4,Win32,144.9275362,5dad4c34b3446a0015e3de93,68817205a84113384fffdfe3,689b9ec0afeb1cc867891d21,,,,,,,,,,,,,1,,,,,,,,,,,,,,,,,,,,,,,,,,,,,,,,,,,,,51,candado,,,,,368.3949,370.7064,0,0,1.7981,,0,59,59,50,1,REAL,FAKE,,,,,,,,,,,,,,,,,
,,,,,,,,,5dad4c34b3446a0015e3de93,Spanish,13 or older,"no, only English or Spanish",no,2025-08-12_16h06.59.435,empathy_intonation_perc_control,2024.2.4,Win32,144.9275362,5dad4c34b3446a0015e3de93,68817205a84113384fffdfe3,689b9ec0afeb1cc867891d21,,,,,,,,,,,,,1,,,,,,,,,,,,,,,,,,,,,,,,,,,,,,,,,,,,,13,helar,,,,,370.7067,372.0469,0,0,0.8336,,0,60,60,12,1,REAL,FAKE,,,,,,,,,,,,,,,,,
,,,,,,,,,5dad4c34b3446a0015e3de93,Spanish,13 or older,"no, only English or Spanish",no,2025-08-12_16h06.59.435,empathy_intonation_perc_control,2024.2.4,Win32,144.9275362,5dad4c34b3446a0015e3de93,68817205a84113384fffdfe3,689b9ec0afeb1cc867891d21,,,,,,,,,,,,,1,,,,,,,,,,,,,,,,,,,,,,,,,,,,,,,,,,,,,77,tiburón,,,,,372.0474,373.2625,0,0,0.7087,,0,61,61,76,1,REAL,FAKE,,,,,,,,,,,,,,,,,
,,,,,,,,,5dad4c34b3446a0015e3de93,Spanish,13 or older,"no, only English or Spanish",no,2025-08-12_16h06.59.435,empathy_intonation_perc_control,2024.2.4,Win32,144.9275362,5dad4c34b3446a0015e3de93,68817205a84113384fffdfe3,689b9ec0afeb1cc867891d21,,,,,,,,,,,,,1,,,,,,,,,,,,,,,,,,,,,,,,,,,,,,,,,,,,,38,estornudar,,,,,373.263,375.4017,0,0,1.6236,,0,62,62,37,1,REAL,FAKE,,,,,,,,,,,,,,,,,
,,,,,,,,,5dad4c34b3446a0015e3de93,Spanish,13 or older,"no, only English or Spanish",no,2025-08-12_16h06.59.435,empathy_intonation_perc_control,2024.2.4,Win32,144.9275362,5dad4c34b3446a0015e3de93,68817205a84113384fffdfe3,689b9ec0afeb1cc867891d21,,,,,,,,,,,,,0,,,,,,,,,,,,,,,,,,,,,,,,,,,,,,,,,,,,,42,cadallo,,,,,375.4022,376.8532,0,1,0.9372,,0,63,63,41,1,REAL,FAKE,,,,,,,,,,,,,,,,,
,,,,,,,,,5dad4c34b3446a0015e3de93,Spanish,13 or older,"no, only English or Spanish",no,2025-08-12_16h06.59.435,empathy_intonation_perc_control,2024.2.4,Win32,144.9275362,5dad4c34b3446a0015e3de93,68817205a84113384fffdfe3,689b9ec0afeb1cc867891d21,,,,,,,,,,,,,0,,,,,,,,,,,,,,,,,,,,,,,,,,,,,,,,,,,,,70,temblo,,,,,376.8535,378.3534,0,1,0.9942,,0,64,64,69,1,REAL,FAKE,,,,,,,,,,,,,,,,,
,,,,,,,,,5dad4c34b3446a0015e3de93,Spanish,13 or older,"no, only English or Spanish",no,2025-08-12_16h06.59.435,empathy_intonation_perc_control,2024.2.4,Win32,144.9275362,5dad4c34b3446a0015e3de93,68817205a84113384fffdfe3,689b9ec0afeb1cc867891d21,,,,,,,,,,,,,1,,,,,,,,,,,,,,,,,,,,,,,,,,,,,,,,,,,,,7,pésimo,,,,,378.3537,379.7426,0,0,0.8745,,0,65,65,6,1,REAL,FAKE,,,,,,,,,,,,,,,,,
,,,,,,,,,5dad4c34b3446a0015e3de93,Spanish,13 or older,"no, only English or Spanish",no,2025-08-12_16h06.59.435,empathy_intonation_perc_control,2024.2.4,Win32,144.9275362,5dad4c34b3446a0015e3de93,68817205a84113384fffdfe3,689b9ec0afeb1cc867891d21,,,,,,,,,,,,,1,,,,,,,,,,,,,,,,,,,,,,,,,,,,,,,,,,,,,88,acantilado,,,,,379.7431,381.3748,0,0,1.1201,,0,66,66,87,1,REAL,FAKE,,,,,,,,,,,,,,,,,
,,,,,,,,,5dad4c34b3446a0015e3de93,Spanish,13 or older,"no, only English or Spanish",no,2025-08-12_16h06.59.435,empathy_intonation_perc_control,2024.2.4,Win32,144.9275362,5dad4c34b3446a0015e3de93,68817205a84113384fffdfe3,689b9ec0afeb1cc867891d21,,,,,,,,,,,,,1,,,,,,,,,,,,,,,,,,,,,,,,,,,,,,,,,,,,,20,ávido,,,,,381.3754,383.0485,0,0,1.1591,,0,67,67,19,1,REAL,FAKE,,,,,,,,,,,,,,,,,
,,,,,,,,,5dad4c34b3446a0015e3de93,Spanish,13 or older,"no, only English or Spanish",no,2025-08-12_16h06.59.435,empathy_intonation_perc_control,2024.2.4,Win32,144.9275362,5dad4c34b3446a0015e3de93,68817205a84113384fffdfe3,689b9ec0afeb1cc867891d21,,,,,,,,,,,,,1,,,,,,,,,,,,,,,,,,,,,,,,,,,,,,,,,,,,,90,clavel,,,,,383.0489,384.7573,0,0,1.1946,,0,68,68,89,1,REAL,FAKE,,,,,,,,,,,,,,,,,
,,,,,,,,,5dad4c34b3446a0015e3de93,Spanish,13 or older,"no, only English or Spanish",no,2025-08-12_16h06.59.435,empathy_intonation_perc_control,2024.2.4,Win32,144.9275362,5dad4c34b3446a0015e3de93,68817205a84113384fffdfe3,689b9ec0afeb1cc867891d21,,,,,,,,,,,,,0,,,,,,,,,,,,,,,,,,,,,,,,,,,,,,,,,,,,,19,brecedad,,,,,384.7576,386.4658,0,1,1.1925,,0,69,69,18,1,REAL,FAKE,,,,,,,,,,,,,,,,,
,,,,,,,,,5dad4c34b3446a0015e3de93,Spanish,13 or older,"no, only English or Spanish",no,2025-08-12_16h06.59.435,empathy_intonation_perc_control,2024.2.4,Win32,144.9275362,5dad4c34b3446a0015e3de93,68817205a84113384fffdfe3,689b9ec0afeb1cc867891d21,,,,,,,,,,,,,1,,,,,,,,,,,,,,,,,,,,,,,,,,,,,,,,,,,,,57,tacaño,,,,,386.4663,388.1673,0,0,1.193,,0,70,70,56,1,REAL,FAKE,,,,,,,,,,,,,,,,,
,,,,,,,,,5dad4c34b3446a0015e3de93,Spanish,13 or older,"no, only English or Spanish",no,2025-08-12_16h06.59.435,empathy_intonation_perc_control,2024.2.4,Win32,144.9275362,5dad4c34b3446a0015e3de93,68817205a84113384fffdfe3,689b9ec0afeb1cc867891d21,,,,,,,,,,,,,1,,,,,,,,,,,,,,,,,,,,,,,,,,,,,,,,,,,,,55,nevar,,,,,388.1676,389.737,0,0,1.0599,,0,71,71,54,1,REAL,FAKE,,,,,,,,,,,,,,,,,
,,,,,,,,,5dad4c34b3446a0015e3de93,Spanish,13 or older,"no, only English or Spanish",no,2025-08-12_16h06.59.435,empathy_intonation_perc_control,2024.2.4,Win32,144.9275362,5dad4c34b3446a0015e3de93,68817205a84113384fffdfe3,689b9ec0afeb1cc867891d21,,,,,,,,,,,,,1,,,,,,,,,,,,,,,,,,,,,,,,,,,,,,,,,,,,,89,prisa,,,,,389.7375,391.0013,0,0,0.7477,,0,72,72,88,1,REAL,FAKE,,,,,,,,,,,,,,,,,
,,,,,,,,,5dad4c34b3446a0015e3de93,Spanish,13 or older,"no, only English or Spanish",no,2025-08-12_16h06.59.435,empathy_intonation_perc_control,2024.2.4,Win32,144.9275362,5dad4c34b3446a0015e3de93,68817205a84113384fffdfe3,689b9ec0afeb1cc867891d21,,,,,,,,,,,,,1,,,,,,,,,,,,,,,,,,,,,,,,,,,,,,,,,,,,,11,cenefa,,,,,391.0019,392.3555,0,0,0.8405,,0,73,73,10,1,REAL,FAKE,,,,,,,,,,,,,,,,,
,,,,,,,,,5dad4c34b3446a0015e3de93,Spanish,13 or older,"no, only English or Spanish",no,2025-08-12_16h06.59.435,empathy_intonation_perc_control,2024.2.4,Win32,144.9275362,5dad4c34b3446a0015e3de93,68817205a84113384fffdfe3,689b9ec0afeb1cc867891d21,,,,,,,,,,,,,1,,,,,,,,,,,,,,,,,,,,,,,,,,,,,,,,,,,,,62,flaco,,,,,392.3559,394.5363,0,0,1.6685,,0,74,74,61,1,REAL,FAKE,,,,,,,,,,,,,,,,,
,,,,,,,,,5dad4c34b3446a0015e3de93,Spanish,13 or older,"no, only English or Spanish",no,2025-08-12_16h06.59.435,empathy_intonation_perc_control,2024.2.4,Win32,144.9275362,5dad4c34b3446a0015e3de93,68817205a84113384fffdfe3,689b9ec0afeb1cc867891d21,,,,,,,,,,,,,1,,,,,,,,,,,,,,,,,,,,,,,,,,,,,,,,,,,,,68,alegre,,,,,394.5367,396.1547,0,0,1.1086,,0,75,75,67,1,REAL,FAKE,,,,,,,,,,,,,,,,,
,,,,,,,,,5dad4c34b3446a0015e3de93,Spanish,13 or older,"no, only English or Spanish",no,2025-08-12_16h06.59.435,empathy_intonation_perc_control,2024.2.4,Win32,144.9275362,5dad4c34b3446a0015e3de93,68817205a84113384fffdfe3,689b9ec0afeb1cc867891d21,,,,,,,,,,,,,0,,,,,,,,,,,,,,,,,,,,,,,,,,,,,,,,,,,,,87,grodo,,,,,396.155,397.8354,0,1,1.1731,,0,76,76,86,1,REAL,FAKE,,,,,,,,,,,,,,,,,
,,,,,,,,,5dad4c34b3446a0015e3de93,Spanish,13 or older,"no, only English or Spanish",no,2025-08-12_16h06.59.435,empathy_intonation_perc_control,2024.2.4,Win32,144.9275362,5dad4c34b3446a0015e3de93,68817205a84113384fffdfe3,689b9ec0afeb1cc867891d21,,,,,,,,,,,,,1,,,,,,,,,,,,,,,,,,,,,,,,,,,,,,,,,,,,,56,musgo,,,,,397.8357,399.0926,0,0,0.7485,,0,77,77,55,1,REAL,FAKE,,,,,,,,,,,,,,,,,
,,,,,,,,,5dad4c34b3446a0015e3de93,Spanish,13 or older,"no, only English or Spanish",no,2025-08-12_16h06.59.435,empathy_intonation_perc_control,2024.2.4,Win32,144.9275362,5dad4c34b3446a0015e3de93,68817205a84113384fffdfe3,689b9ec0afeb1cc867891d21,,,,,,,,,,,,,0,,,,,,,,,,,,,,,,,,,,,,,,,,,,,,,,,,,,,29,decar,,,,,399.093,400.7038,0,1,1.0994,,0,78,78,28,1,REAL,FAKE,,,,,,,,,,,,,,,,,
,,,,,,,,,5dad4c34b3446a0015e3de93,Spanish,13 or older,"no, only English or Spanish",no,2025-08-12_16h06.59.435,empathy_intonation_perc_control,2024.2.4,Win32,144.9275362,5dad4c34b3446a0015e3de93,68817205a84113384fffdfe3,689b9ec0afeb1cc867891d21,,,,,,,,,,,,,0,,,,,,,,,,,,,,,,,,,,,,,,,,,,,,,,,,,,,30,alardio,,,,,400.704,402.5655,0,1,1.3576,,0,79,79,29,1,REAL,FAKE,,,,,,,,,,,,,,,,,
,,,,,,,,,5dad4c34b3446a0015e3de93,Spanish,13 or older,"no, only English or Spanish",no,2025-08-12_16h06.59.435,empathy_intonation_perc_control,2024.2.4,Win32,144.9275362,5dad4c34b3446a0015e3de93,68817205a84113384fffdfe3,689b9ec0afeb1cc867891d21,,,,,,,,,,,,,1,,,,,,,,,,,,,,,,,,,,,,,,,,,,,,,,,,,,,43,canela,,,,,402.5661,404.0932,0,0,1.0132,,0,80,80,42,1,REAL,FAKE,,,,,,,,,,,,,,,,,
,,,,,,,,,5dad4c34b3446a0015e3de93,Spanish,13 or older,"no, only English or Spanish",no,2025-08-12_16h06.59.435,empathy_intonation_perc_control,2024.2.4,Win32,144.9275362,5dad4c34b3446a0015e3de93,68817205a84113384fffdfe3,689b9ec0afeb1cc867891d21,,,,,,,,,,,,,1,,,,,,,,,,,,,,,,,,,,,,,,,,,,,,,,,,,,,9,hacha,,,,,404.0935,405.545,0,0,0.9491,,0,81,81,8,1,REAL,FAKE,,,,,,,,,,,,,,,,,
,,,,,,,,,5dad4c34b3446a0015e3de93,Spanish,13 or older,"no, only English or Spanish",no,2025-08-12_16h06.59.435,empathy_intonation_perc_control,2024.2.4,Win32,144.9275362,5dad4c34b3446a0015e3de93,68817205a84113384fffdfe3,689b9ec0afeb1cc867891d21,,,,,,,,,,,,,0,,,,,,,,,,,,,,,,,,,,,,,,,,,,,,,,,,,,,32,fatacidad,,,,,405.5455,407.2673,0,1,1.2083,,0,82,82,31,1,REAL,FAKE,,,,,,,,,,,,,,,,,
,,,,,,,,,5dad4c34b3446a0015e3de93,Spanish,13 or older,"no, only English or Spanish",no,2025-08-12_16h06.59.435,empathy_intonation_perc_control,2024.2.4,Win32,144.9275362,5dad4c34b3446a0015e3de93,68817205a84113384fffdfe3,689b9ec0afeb1cc867891d21,,,,,,,,,,,,,1,,,,,,,,,,,,,,,,,,,,,,,,,,,,,,,,,,,,,31,pandilla,,,,,407.268,408.6979,0,0,0.916,,0,83,83,30,1,REAL,FAKE,,,,,,,,,,,,,,,,,
,,,,,,,,,5dad4c34b3446a0015e3de93,Spanish,13 or older,"no, only English or Spanish",no,2025-08-12_16h06.59.435,empathy_intonation_perc_control,2024.2.4,Win32,144.9275362,5dad4c34b3446a0015e3de93,68817205a84113384fffdfe3,689b9ec0afeb1cc867891d21,,,,,,,,,,,,,1,,,,,,,,,,,,,,,,,,,,,,,,,,,,,,,,,,,,,2,pellizcar,,,,,408.6983,410.2332,0,0,1.0275,,0,84,84,1,1,REAL,FAKE,,,,,,,,,,,,,,,,,
,,,,,,,,,5dad4c34b3446a0015e3de93,Spanish,13 or older,"no, only English or Spanish",no,2025-08-12_16h06.59.435,empathy_intonation_perc_control,2024.2.4,Win32,144.9275362,5dad4c34b3446a0015e3de93,68817205a84113384fffdfe3,689b9ec0afeb1cc867891d21,,,,,,,,,,,,,1,,,,,,,,,,,,,,,,,,,,,,,,,,,,,,,,,,,,,49,ganar,,,,,410.2338,411.5248,0,0,0.7767,,0,85,85,48,1,REAL,FAKE,,,,,,,,,,,,,,,,,
,,,,,,,,,5dad4c34b3446a0015e3de93,Spanish,13 or older,"no, only English or Spanish",no,2025-08-12_16h06.59.435,empathy_intonation_perc_control,2024.2.4,Win32,144.9275362,5dad4c34b3446a0015e3de93,68817205a84113384fffdfe3,689b9ec0afeb1cc867891d21,,,,,,,,,,,,,1,,,,,,,,,,,,,,,,,,,,,,,,,,,,,,,,,,,,,46,martillo,,,,,411.5251,412.907,0,0,0.8735,,0,86,86,45,1,REAL,FAKE,,,,,,,,,,,,,,,,,
,,,,,,,,,5dad4c34b3446a0015e3de93,Spanish,13 or older,"no, only English or Spanish",no,2025-08-12_16h06.59.435,empathy_intonation_perc_control,2024.2.4,Win32,144.9275362,5dad4c34b3446a0015e3de93,68817205a84113384fffdfe3,689b9ec0afeb1cc867891d21,,,,,,,,,,,,,1,,,,,,,,,,,,,,,,,,,,,,,,,,,,,,,,,,,,,59,besar,,,,,412.9073,414.0738,0,0,0.6607,,0,87,87,58,1,REAL,FAKE,,,,,,,,,,,,,,,,,
,,,,,,,,,5dad4c34b3446a0015e3de93,Spanish,13 or older,"no, only English or Spanish",no,2025-08-12_16h06.59.435,empathy_intonation_perc_control,2024.2.4,Win32,144.9275362,5dad4c34b3446a0015e3de93,68817205a84113384fffdfe3,689b9ec0afeb1cc867891d21,,,,,,,,,,,,,1,,,,,,,,,,,,,,,,,,,,,,,,,,,,,,,,,,,,,76,atar,,,,,414.0742,415.2754,0,0,0.6885,,0,88,88,75,1,REAL,FAKE,,,,,,,,,,,,,,,,,
,,,,,,,,,5dad4c34b3446a0015e3de93,Spanish,13 or older,"no, only English or Spanish",no,2025-08-12_16h06.59.435,empathy_intonation_perc_control,2024.2.4,Win32,144.9275362,5dad4c34b3446a0015e3de93,68817205a84113384fffdfe3,689b9ec0afeb1cc867891d21,,,,,,,,,,,,,0,,,,,,,,,,,,,,,,,,,,,,,,,,,,,,,,,,,,,58,plaudir,,,,,415.2757,416.755,0,1,0.9746,,0,89,89,57,1,REAL,FAKE,,,,,,,,,,,,,,,,,
,,,,,,,,,5dad4c34b3446a0015e3de93,Spanish,13 or older,"no, only English or Spanish",no,2025-08-12_16h06.59.435,empathy_intonation_perc_control,2024.2.4,Win32,144.9275362,5dad4c34b3446a0015e3de93,68817205a84113384fffdfe3,689b9ec0afeb1cc867891d21,,,,,,,,,,,,,1,,,,,,,,,,,,,,,,,,,,,,,,,,,,,,,,,,,,,80,hormiga,,,,,416.7554,417.9634,0,0,0.6921,,0,90,90,79,1,REAL,FAKE,,,,,,,,,,,,,,,,,
,,,,,,,,,5dad4c34b3446a0015e3de93,Spanish,13 or older,"no, only English or Spanish",no,2025-08-12_16h06.59.435,empathy_intonation_perc_control,2024.2.4,Win32,144.9275362,5dad4c34b3446a0015e3de93,68817205a84113384fffdfe3,689b9ec0afeb1cc867891d21,,,,,,,,,,,,,0,,,,,,,,,,,,,,,,,,,,,,,,,,,,,,,,,,,,,84,escuto,,,,,417.9638,419.1857,0,1,0.7172,,0,91,91,83,1,REAL,FAKE,,,,,,,,,,,,,,,,,
,,,,,,,,,5dad4c34b3446a0015e3de93,Spanish,13 or older,"no, only English or Spanish",no,2025-08-12_16h06.59.435,empathy_intonation_perc_control,2024.2.4,Win32,144.9275362,5dad4c34b3446a0015e3de93,68817205a84113384fffdfe3,689b9ec0afeb1cc867891d21,,,,,,,,,,,,,,,,,,,,,,,,,,,,,,,,,,,,,,,,,,,,,,,,,,,,,,,,,,,,,,,,,,,,,419.1859,431.653,,,,,,,,,,,,,,,
,,,,,,,,,5dad4c34b3446a0015e3de93,Spanish,13 or older,"no, only English or Spanish",no,2025-08-12_16h06.59.435,empathy_intonation_perc_control,2024.2.4,Win32,144.9275362,5dad4c34b3446a0015e3de93,68817205a84113384fffdfe3,689b9ec0afeb1cc867891d21,,,,,,,,,,,,,,,,,,,,,,,,,,,1,,,,,,,,,,,,,,,,,,,,,,,,,,,,,,,,,,,,,,,,,,,,431.6563,435.7019,slightly agree,0,0,0,0,1,I can easily tell if someone else wants to enter a conversation.,1,0,1,0,,
,,,,,,,,,5dad4c34b3446a0015e3de93,Spanish,13 or older,"no, only English or Spanish",no,2025-08-12_16h06.59.435,empathy_intonation_perc_control,2024.2.4,Win32,144.9275362,5dad4c34b3446a0015e3de93,68817205a84113384fffdfe3,689b9ec0afeb1cc867891d21,,,,,,,,,,,,,,,,,,,,,,,,,,,2,,,,,,,,,,,,,,,,,,,,,,,,,,,,,,,,,,,,,,,,,,,,435.7026,439.0706,slightly disagree,0,1,1,1,1,I prefer animals to humans.,0,1,0,0,,
,,,,,,,,,5dad4c34b3446a0015e3de93,Spanish,13 or older,"no, only English or Spanish",no,2025-08-12_16h06.59.435,empathy_intonation_perc_control,2024.2.4,Win32,144.9275362,5dad4c34b3446a0015e3de93,68817205a84113384fffdfe3,689b9ec0afeb1cc867891d21,,,,,,,,,,,,,,,,,,,,,,,,,,,3,,,,,,,,,,,,,,,,,,,,,,,,,,,,,,,,,,,,,,,,,,,,439.0715,442.314,slightly disagree,0,2,2,2,1,I try to keep up with the current trends and fashions.,0,1,0,0,,
,,,,,,,,,5dad4c34b3446a0015e3de93,Spanish,13 or older,"no, only English or Spanish",no,2025-08-12_16h06.59.435,empathy_intonation_perc_control,2024.2.4,Win32,144.9275362,5dad4c34b3446a0015e3de93,68817205a84113384fffdfe3,689b9ec0afeb1cc867891d21,,,,,,,,,,,,,,,,,,,,,,,,,,,4,,,,,,,,,,,,,,,,,,,,,,,,,,,,,,,,,,,,,,,,,,,,442.315,447.6411,slightly agree,0,3,3,3,1,"I find it difficult to explain to others things that I understand easily,   when they don't understand it first time.",1,0,0,1,,
,,,,,,,,,5dad4c34b3446a0015e3de93,Spanish,13 or older,"no, only English or Spanish",no,2025-08-12_16h06.59.435,empathy_intonation_perc_control,2024.2.4,Win32,144.9275362,5dad4c34b3446a0015e3de93,68817205a84113384fffdfe3,689b9ec0afeb1cc867891d21,,,,,,,,,,,,,,,,,,,,,,,,,,,5,,,,,,,,,,,,,,,,,,,,,,,,,,,,,,,,,,,,,,,,,,,,447.6416,450.1832,strongly disagree,0,4,4,4,1,I dream most nights.,0,1,0,0,,
,,,,,,,,,5dad4c34b3446a0015e3de93,Spanish,13 or older,"no, only English or Spanish",no,2025-08-12_16h06.59.435,empathy_intonation_perc_control,2024.2.4,Win32,144.9275362,5dad4c34b3446a0015e3de93,68817205a84113384fffdfe3,689b9ec0afeb1cc867891d21,,,,,,,,,,,,,,,,,,,,,,,,,,,6,,,,,,,,,,,,,,,,,,,,,,,,,,,,,,,,,,,,,,,,,,,,450.1837,453.9685,slightly agree,0,5,5,5,1,I really enjoy caring for other people.,1,0,1,0,,
,,,,,,,,,5dad4c34b3446a0015e3de93,Spanish,13 or older,"no, only English or Spanish",no,2025-08-12_16h06.59.435,empathy_intonation_perc_control,2024.2.4,Win32,144.9275362,5dad4c34b3446a0015e3de93,68817205a84113384fffdfe3,689b9ec0afeb1cc867891d21,,,,,,,,,,,,,,,,,,,,,,,,,,,7,,,,,,,,,,,,,,,,,,,,,,,,,,,,,,,,,,,,,,,,,,,,453.9691,457.0247,strongly agree,0,6,6,6,1,I try to solve my own problems rather than discussing them with others.,0,1,0,0,,
,,,,,,,,,5dad4c34b3446a0015e3de93,Spanish,13 or older,"no, only English or Spanish",no,2025-08-12_16h06.59.435,empathy_intonation_perc_control,2024.2.4,Win32,144.9275362,5dad4c34b3446a0015e3de93,68817205a84113384fffdfe3,689b9ec0afeb1cc867891d21,,,,,,,,,,,,,,,,,,,,,,,,,,,8,,,,,,,,,,,,,,,,,,,,,,,,,,,,,,,,,,,,,,,,,,,,457.0253,459.8999,slightly agree,0,7,7,7,1,I find it hard to know what to do in a social situation.,1,0,0,1,,
,,,,,,,,,5dad4c34b3446a0015e3de93,Spanish,13 or older,"no, only English or Spanish",no,2025-08-12_16h06.59.435,empathy_intonation_perc_control,2024.2.4,Win32,144.9275362,5dad4c34b3446a0015e3de93,68817205a84113384fffdfe3,689b9ec0afeb1cc867891d21,,,,,,,,,,,,,,,,,,,,,,,,,,,9,,,,,,,,,,,,,,,,,,,,,,,,,,,,,,,,,,,,,,,,,,,,459.9004,462.8053,strongly disagree,0,8,8,8,1,I am at my best first thing in the morning.,0,1,0,0,,
,,,,,,,,,5dad4c34b3446a0015e3de93,Spanish,13 or older,"no, only English or Spanish",no,2025-08-12_16h06.59.435,empathy_intonation_perc_control,2024.2.4,Win32,144.9275362,5dad4c34b3446a0015e3de93,68817205a84113384fffdfe3,689b9ec0afeb1cc867891d21,,,,,,,,,,,,,,,,,,,,,,,,,,,10,,,,,,,,,,,,,,,,,,,,,,,,,,,,,,,,,,,,,,,,,,,,462.8058,467.8246,strongly disagree,0,9,9,9,1,People often tell me that I went too far in driving my point home in a discussion.,1,0,0,1,,
,,,,,,,,,5dad4c34b3446a0015e3de93,Spanish,13 or older,"no, only English or Spanish",no,2025-08-12_16h06.59.435,empathy_intonation_perc_control,2024.2.4,Win32,144.9275362,5dad4c34b3446a0015e3de93,68817205a84113384fffdfe3,689b9ec0afeb1cc867891d21,,,,,,,,,,,,,,,,,,,,,,,,,,,11,,,,,,,,,,,,,,,,,,,,,,,,,,,,,,,,,,,,,,,,,,,,467.8251,471.1517,strongly disagree,0,10,10,10,1,It doesn't bother me too much if I am late meeting a friend.,1,0,0,1,,
,,,,,,,,,5dad4c34b3446a0015e3de93,Spanish,13 or older,"no, only English or Spanish",no,2025-08-12_16h06.59.435,empathy_intonation_perc_control,2024.2.4,Win32,144.9275362,5dad4c34b3446a0015e3de93,68817205a84113384fffdfe3,689b9ec0afeb1cc867891d21,,,,,,,,,,,,,,,,,,,,,,,,,,,12,,,,,,,,,,,,,,,,,,,,,,,,,,,,,,,,,,,,,,,,,,,,471.1522,475.3119,strongly disagree,0,11,11,11,1,"Friendships and relationships are just too difficult, so I tend not to 
  bother with them.",1,0,0,1,,
,,,,,,,,,5dad4c34b3446a0015e3de93,Spanish,13 or older,"no, only English or Spanish",no,2025-08-12_16h06.59.435,empathy_intonation_perc_control,2024.2.4,Win32,144.9275362,5dad4c34b3446a0015e3de93,68817205a84113384fffdfe3,689b9ec0afeb1cc867891d21,,,,,,,,,,,,,,,,,,,,,,,,,,,13,,,,,,,,,,,,,,,,,,,,,,,,,,,,,,,,,,,,,,,,,,,,475.3123,478.1619,slightly disagree,0,12,12,12,1,"I would never break a law, no matter how minor.",0,1,0,0,,
,,,,,,,,,5dad4c34b3446a0015e3de93,Spanish,13 or older,"no, only English or Spanish",no,2025-08-12_16h06.59.435,empathy_intonation_perc_control,2024.2.4,Win32,144.9275362,5dad4c34b3446a0015e3de93,68817205a84113384fffdfe3,689b9ec0afeb1cc867891d21,,,,,,,,,,,,,,,,,,,,,,,,,,,14,,,,,,,,,,,,,,,,,,,,,,,,,,,,,,,,,,,,,,,,,,,,478.1623,482.7252,strongly disagree,0,13,13,13,1,I often find it difficult to judge if something is rude or polite.,1,0,0,1,,
,,,,,,,,,5dad4c34b3446a0015e3de93,Spanish,13 or older,"no, only English or Spanish",no,2025-08-12_16h06.59.435,empathy_intonation_perc_control,2024.2.4,Win32,144.9275362,5dad4c34b3446a0015e3de93,68817205a84113384fffdfe3,689b9ec0afeb1cc867891d21,,,,,,,,,,,,,,,,,,,,,,,,,,,15,,,,,,,,,,,,,,,,,,,,,,,,,,,,,,,,,,,,,,,,,,,,482.7257,487.4968,slightly disagree,0,14,14,14,1,"In a conversation, I tend to focus on my own thoughts rather than on what 
  my listener might be thinking.",1,0,0,1,,
,,,,,,,,,5dad4c34b3446a0015e3de93,Spanish,13 or older,"no, only English or Spanish",no,2025-08-12_16h06.59.435,empathy_intonation_perc_control,2024.2.4,Win32,144.9275362,5dad4c34b3446a0015e3de93,68817205a84113384fffdfe3,689b9ec0afeb1cc867891d21,,,,,,,,,,,,,,,,,,,,,,,,,,,16,,,,,,,,,,,,,,,,,,,,,,,,,,,,,,,,,,,,,,,,,,,,487.4971,491.6128,strongly disagree,0,15,15,15,1,I prefer practical jokes to verbal humor.,0,1,0,0,,
,,,,,,,,,5dad4c34b3446a0015e3de93,Spanish,13 or older,"no, only English or Spanish",no,2025-08-12_16h06.59.435,empathy_intonation_perc_control,2024.2.4,Win32,144.9275362,5dad4c34b3446a0015e3de93,68817205a84113384fffdfe3,689b9ec0afeb1cc867891d21,,,,,,,,,,,,,,,,,,,,,,,,,,,17,,,,,,,,,,,,,,,,,,,,,,,,,,,,,,,,,,,,,,,,,,,,491.6131,495.3009,slightly agree,0,16,16,16,1,I live life for today rather than the future.,0,1,0,0,,
,,,,,,,,,5dad4c34b3446a0015e3de93,Spanish,13 or older,"no, only English or Spanish",no,2025-08-12_16h06.59.435,empathy_intonation_perc_control,2024.2.4,Win32,144.9275362,5dad4c34b3446a0015e3de93,68817205a84113384fffdfe3,689b9ec0afeb1cc867891d21,,,,,,,,,,,,,,,,,,,,,,,,,,,18,,,,,,,,,,,,,,,,,,,,,,,,,,,,,,,,,,,,,,,,,,,,495.3018,498.4402,strongly disagree,0,17,17,17,1,"When I was a child, I enjoyed cutting up worms to see what would happen.",1,0,0,1,,
,,,,,,,,,5dad4c34b3446a0015e3de93,Spanish,13 or older,"no, only English or Spanish",no,2025-08-12_16h06.59.435,empathy_intonation_perc_control,2024.2.4,Win32,144.9275362,5dad4c34b3446a0015e3de93,68817205a84113384fffdfe3,689b9ec0afeb1cc867891d21,,,,,,,,,,,,,,,,,,,,,,,,,,,19,,,,,,,,,,,,,,,,,,,,,,,,,,,,,,,,,,,,,,,,,,,,498.4406,505.0477,slightly agree,0,18,18,18,1,I can pick up quickly if someone says one thing but means another.,1,0,1,0,,
,,,,,,,,,5dad4c34b3446a0015e3de93,Spanish,13 or older,"no, only English or Spanish",no,2025-08-12_16h06.59.435,empathy_intonation_perc_control,2024.2.4,Win32,144.9275362,5dad4c34b3446a0015e3de93,68817205a84113384fffdfe3,689b9ec0afeb1cc867891d21,,,,,,,,,,,,,,,,,,,,,,,,,,,20,,,,,,,,,,,,,,,,,,,,,,,,,,,,,,,,,,,,,,,,,,,,505.048,509.8307,strongly agree,0,19,19,19,1,I tend to have very strong opinions about morality.,0,1,0,0,,
,,,,,,,,,5dad4c34b3446a0015e3de93,Spanish,13 or older,"no, only English or Spanish",no,2025-08-12_16h06.59.435,empathy_intonation_perc_control,2024.2.4,Win32,144.9275362,5dad4c34b3446a0015e3de93,68817205a84113384fffdfe3,689b9ec0afeb1cc867891d21,,,,,,,,,,,,,,,,,,,,,,,,,,,21,,,,,,,,,,,,,,,,,,,,,,,,,,,,,,,,,,,,,,,,,,,,509.8312,512.9701,slightly disagree,0,20,20,20,1,It is hard for me to see why some things upset people so much.,1,0,0,1,,
,,,,,,,,,5dad4c34b3446a0015e3de93,Spanish,13 or older,"no, only English or Spanish",no,2025-08-12_16h06.59.435,empathy_intonation_perc_control,2024.2.4,Win32,144.9275362,5dad4c34b3446a0015e3de93,68817205a84113384fffdfe3,689b9ec0afeb1cc867891d21,,,,,,,,,,,,,,,,,,,,,,,,,,,22,,,,,,,,,,,,,,,,,,,,,,,,,,,,,,,,,,,,,,,,,,,,512.9705,516.0678,slightly agree,0,21,21,21,1,I find it easy to put myself in somebody else's shoes.,1,0,1,0,,
,,,,,,,,,5dad4c34b3446a0015e3de93,Spanish,13 or older,"no, only English or Spanish",no,2025-08-12_16h06.59.435,empathy_intonation_perc_control,2024.2.4,Win32,144.9275362,5dad4c34b3446a0015e3de93,68817205a84113384fffdfe3,689b9ec0afeb1cc867891d21,,,,,,,,,,,,,,,,,,,,,,,,,,,23,,,,,,,,,,,,,,,,,,,,,,,,,,,,,,,,,,,,,,,,,,,,516.0681,521.265,slightly agree,0,22,22,22,1,I think that good manners are the most important thing a parent can teach their child.,0,1,0,0,,
,,,,,,,,,5dad4c34b3446a0015e3de93,Spanish,13 or older,"no, only English or Spanish",no,2025-08-12_16h06.59.435,empathy_intonation_perc_control,2024.2.4,Win32,144.9275362,5dad4c34b3446a0015e3de93,68817205a84113384fffdfe3,689b9ec0afeb1cc867891d21,,,,,,,,,,,,,,,,,,,,,,,,,,,24,,,,,,,,,,,,,,,,,,,,,,,,,,,,,,,,,,,,,,,,,,,,521.2654,524.0758,strongly disagree,0,23,23,23,1,I like to do things on the spur of the moment.,0,1,0,0,,
,,,,,,,,,5dad4c34b3446a0015e3de93,Spanish,13 or older,"no, only English or Spanish",no,2025-08-12_16h06.59.435,empathy_intonation_perc_control,2024.2.4,Win32,144.9275362,5dad4c34b3446a0015e3de93,68817205a84113384fffdfe3,689b9ec0afeb1cc867891d21,,,,,,,,,,,,,,,,,,,,,,,,,,,25,,,,,,,,,,,,,,,,,,,,,,,,,,,,,,,,,,,,,,,,,,,,524.0761,528.6693,slightly disagree,0,24,24,24,1,I am good at predicting how someone will feel.,1,0,1,0,,
