instructions_2afc.started,instructions_2afc.stopped,instructions_2afc_loop.thisRepN,instructions_2afc_loop.thisTrialN,instructions_2afc_loop.thisN,instructions_2afc_loop.thisIndex,instructions_2afc_loop.ran,instructions_text,continue_text,participant_id,"What variety of Spanish are you most familiar with? (e.g., Peruvian, Spanish, Mexican)",At what age did you begin learning Spanish?,Are you proficient in any languages other than English/Spanish?,"Are you familiar with Caribbean (e.g., Caribbean, Puerto Rican) or Galician Spanish?",date,expName,psychopyVersion,OS,frameRate,id,study_id,session,practice_2afc.started,practice_2afc.stopped,key_resp_2afc_practice.keys,key_resp_2afc_practice.corr,key_resp_2afc_practice.rt,key_resp_2afc_practice.duration,trials_2afc_practice_loop.thisRepN,trials_2afc_practice_loop.thisTrialN,trials_2afc_practice_loop.thisN,trials_2afc_practice_loop.thisIndex,trials_2afc_practice_loop.ran,path,correct_response,check_2afc.started,check_2afc.stopped,trial_2afc.started,trial_2afc.stopped,key_resp_2afc_trial.keys,key_resp_2afc_trial.corr,key_resp_2afc_trial.rt,key_resp_2afc_trial.duration,trials_2afc_loop.thisRepN,trials_2afc_loop.thisTrialN,trials_2afc_loop.thisN,trials_2afc_loop.thisIndex,trials_2afc_loop.ran,item_num,target,variety,instructions_lextale.started,instructions_lextale.stopped,instructions_lextale_loop.thisRepN,instructions_lextale_loop.thisTrialN,instructions_lextale_loop.thisN,instructions_lextale_loop.thisIndex,instructions_lextale_loop.ran,practice_lextale.started,practice_lextale.stopped,key_resp_lextale_practice.keys,key_resp_lextale_practice.corr,key_resp_lextale_practice.rt,key_resp_lextale_practice.duration,practice_feedback_lextale.started,practice_feedback_lextale.stopped,trials_lextale_practice_loop.thisRepN,trials_lextale_practice_loop.thisTrialN,trials_lextale_practice_loop.thisN,trials_lextale_practice_loop.thisIndex,trials_lextale_practice_loop.ran,stim,word,prac_button_real,prac_button_false,check_lextale.started,check_lextale.stopped,trial_lextale.started,trial_lextale.stopped,key_resp_lextale_trial.keys,key_resp_lextale_trial.corr,key_resp_lextale_trial.rt,key_resp_lextale_trial.duration,trials_lextale_loop.thisRepN,trials_lextale_loop.thisTrialN,trials_lextale_loop.thisN,trials_lextale_loop.thisIndex,trials_lextale_loop.ran,button_real,button_false,instructions_eq.started,instructions_eq.stopped,trial_eq.started,trial_eq.stopped,slider_eq_trial.response,trials_eq_loop.thisRepN,trials_eq_loop.thisTrialN,trials_eq_loop.thisN,trials_eq_loop.thisIndex,trials_eq_loop.ran,item,is_test_item,is_distractor,is_agree_score,is_disagree_score,end_exp.started,end_exp.stopped
0.0119,11.9621,0,0,0,0,1,"In the following task you are going to hear a series of utterances. 

  You will decide if the utterances sound like questions or not using your keyboard.", (press the spacebar to continue),5dedbcdb63c57946d82c27e8,Mexican,13 or older,"yes, I am fluent in another language",no,2025-07-24_09h07.28.227,empathy_intonation_perc_control,2024.2.4,MacIntel,60.60606061,5dedbcdb63c57946d82c27e8,68817205a84113384fffdfe3,68822fbd891632a18c6cb8ce,,,,,,,,,,,,,,,,,,,,,,,,,,,,,,,,,,,,,,,,,,,,,,,,,,,,,,,,,,,,,,,,,,,,,,,,,,,,,,,,,,,,,
11.964,18.6115,0,1,1,1,1,"If you believe the utterance is a question, type '1' (for 'yes') and if you do not 
  believe it is a question type '0' (for 'no').

  Let's practice a bit...", (press the spacebar to continue),5dedbcdb63c57946d82c27e8,Mexican,13 or older,"yes, I am fluent in another language",no,2025-07-24_09h07.28.227,empathy_intonation_perc_control,2024.2.4,MacIntel,60.60606061,5dedbcdb63c57946d82c27e8,68817205a84113384fffdfe3,68822fbd891632a18c6cb8ce,,,,,,,,,,,,,,,,,,,,,,,,,,,,,,,,,,,,,,,,,,,,,,,,,,,,,,,,,,,,,,,,,,,,,,,,,,,,,,,,,,,,,
,,,,,,,,,5dedbcdb63c57946d82c27e8,Mexican,13 or older,"yes, I am fluent in another language",no,2025-07-24_09h07.28.227,empathy_intonation_perc_control,2024.2.4,MacIntel,60.60606061,5dedbcdb63c57946d82c27e8,68817205a84113384fffdfe3,68822fbd891632a18c6cb8ce,18.6269,21.9623,0,1,2.8156,,0,0,0,4,1,./stim/wavs/cuban_statement_filler_Cocinabas-por-la-noche.wav,0,,,,,,,,,,,,,,,,,,,,,,,,,,,,,,,,,,,,,,,,,,,,,,,,,,,,,,,,,,,,,,,,,,,,,,,,
,,,,,,,,,5dedbcdb63c57946d82c27e8,Mexican,13 or older,"yes, I am fluent in another language",no,2025-07-24_09h07.28.227,empathy_intonation_perc_control,2024.2.4,MacIntel,60.60606061,5dedbcdb63c57946d82c27e8,68817205a84113384fffdfe3,68822fbd891632a18c6cb8ce,21.9634,25.1611,0,1,2.6686,,0,1,1,6,1,./stim/wavs/peruvian_statement_filler_El-nino-habla-con-su-madre.wav,0,,,,,,,,,,,,,,,,,,,,,,,,,,,,,,,,,,,,,,,,,,,,,,,,,,,,,,,,,,,,,,,,,,,,,,,,
,,,,,,,,,5dedbcdb63c57946d82c27e8,Mexican,13 or older,"yes, I am fluent in another language",no,2025-07-24_09h07.28.227,empathy_intonation_perc_control,2024.2.4,MacIntel,60.60606061,5dedbcdb63c57946d82c27e8,68817205a84113384fffdfe3,68822fbd891632a18c6cb8ce,25.162,27.8954,1,1,2.2006,,0,2,2,0,1,./stim/wavs/castilian_question_filler_Mi-esposo-conoce-al-chico.wav,1,,,,,,,,,,,,,,,,,,,,,,,,,,,,,,,,,,,,,,,,,,,,,,,,,,,,,,,,,,,,,,,,,,,,,,,,
,,,,,,,,,5dedbcdb63c57946d82c27e8,Mexican,13 or older,"yes, I am fluent in another language",no,2025-07-24_09h07.28.227,empathy_intonation_perc_control,2024.2.4,MacIntel,60.60606061,5dedbcdb63c57946d82c27e8,68817205a84113384fffdfe3,68822fbd891632a18c6cb8ce,27.8965,30.7622,1,1,2.3455,,0,3,3,3,1,./stim/wavs/mexican_question_filler_Felipe-no-tiene-contrasena.wav,1,,,,,,,,,,,,,,,,,,,,,,,,,,,,,,,,,,,,,,,,,,,,,,,,,,,,,,,,,,,,,,,,,,,,,,,,
,,,,,,,,,5dedbcdb63c57946d82c27e8,Mexican,13 or older,"yes, I am fluent in another language",no,2025-07-24_09h07.28.227,empathy_intonation_perc_control,2024.2.4,MacIntel,60.60606061,5dedbcdb63c57946d82c27e8,68817205a84113384fffdfe3,68822fbd891632a18c6cb8ce,30.7629,37.3626,0,0,6.079,,0,4,4,2,1,./stim/wavs/chilean_question_filler_Mi-padre-cantaba-bien.wav,1,,,,,,,,,,,,,,,,,,,,,,,,,,,,,,,,,,,,,,,,,,,,,,,,,,,,,,,,,,,,,,,,,,,,,,,,
,,,,,,,,,5dedbcdb63c57946d82c27e8,Mexican,13 or older,"yes, I am fluent in another language",no,2025-07-24_09h07.28.227,empathy_intonation_perc_control,2024.2.4,MacIntel,60.60606061,5dedbcdb63c57946d82c27e8,68817205a84113384fffdfe3,68822fbd891632a18c6cb8ce,37.3633,40.3792,0,1,2.4947,,0,5,5,5,1,./stim/wavs/andalusian_statement_filler_Alberto-nunca-se-afeita.wav,0,,,,,,,,,,,,,,,,,,,,,,,,,,,,,,,,,,,,,,,,,,,,,,,,,,,,,,,,,,,,,,,,,,,,,,,,
,,,,,,,,,5dedbcdb63c57946d82c27e8,Mexican,13 or older,"yes, I am fluent in another language",no,2025-07-24_09h07.28.227,empathy_intonation_perc_control,2024.2.4,MacIntel,60.60606061,5dedbcdb63c57946d82c27e8,68817205a84113384fffdfe3,68822fbd891632a18c6cb8ce,40.3799,42.745,1,1,1.8329,,0,6,6,1,1,./stim/wavs/argentine_question_filler_Mi-vecino-habla-mucho.wav,1,,,,,,,,,,,,,,,,,,,,,,,,,,,,,,,,,,,,,,,,,,,,,,,,,,,,,,,,,,,,,,,,,,,,,,,,
,,,,,,,,,5dedbcdb63c57946d82c27e8,Mexican,13 or older,"yes, I am fluent in another language",no,2025-07-24_09h07.28.227,empathy_intonation_perc_control,2024.2.4,MacIntel,60.60606061,5dedbcdb63c57946d82c27e8,68817205a84113384fffdfe3,68822fbd891632a18c6cb8ce,42.7457,45.6958,0,1,2.4187,,0,7,7,7,1,./stim/wavs/puertorican_statement_filler_La-nina-pinta-con-su-amiga.wav,0,,,,,,,,,,,,,,,,,,,,,,,,,,,,,,,,,,,,,,,,,,,,,,,,,,,,,,,,,,,,,,,,,,,,,,,,
,,,,,,,,,5dedbcdb63c57946d82c27e8,Mexican,13 or older,"yes, I am fluent in another language",no,2025-07-24_09h07.28.227,empathy_intonation_perc_control,2024.2.4,MacIntel,60.60606061,5dedbcdb63c57946d82c27e8,68817205a84113384fffdfe3,68822fbd891632a18c6cb8ce,,,,,,,,,,,,,,45.6962,50.163,,,,,,,,,,,,,,,,,,,,,,,,,,,,,,,,,,,,,,,,,,,,,,,,,,,,,,,,,,,,,,,,,,,,,,
,,,,,,,,,5dedbcdb63c57946d82c27e8,Mexican,13 or older,"yes, I am fluent in another language",no,2025-07-24_09h07.28.227,empathy_intonation_perc_control,2024.2.4,MacIntel,60.60606061,5dedbcdb63c57946d82c27e8,68817205a84113384fffdfe3,68822fbd891632a18c6cb8ce,,,,,,,,,,,,./stim/wavs/cuban_match_declarative-broad-focus_Marta-abre-el-regalo.wav,0,,,50.1733,52.7296,0,1,2.0445,,0,0,0,55,1,56,0,cuban,,,,,,,,,,,,,,,,,,,,,,,,,,,,,,,,,,,,,,,,,,,,,,,,,,,,,,,,
,,,,,,,,,5dedbcdb63c57946d82c27e8,Mexican,13 or older,"yes, I am fluent in another language",no,2025-07-24_09h07.28.227,empathy_intonation_perc_control,2024.2.4,MacIntel,60.60606061,5dedbcdb63c57946d82c27e8,68817205a84113384fffdfe3,68822fbd891632a18c6cb8ce,,,,,,,,,,,,./stim/wavs/cuban_match_interrogative-total-yn_Marta-abre-el-regalo.wav,1,,,52.7303,55.1461,1,1,1.8843,,0,1,1,11,1,12,1,cuban,,,,,,,,,,,,,,,,,,,,,,,,,,,,,,,,,,,,,,,,,,,,,,,,,,,,,,,,
,,,,,,,,,5dedbcdb63c57946d82c27e8,Mexican,13 or older,"yes, I am fluent in another language",no,2025-07-24_09h07.28.227,empathy_intonation_perc_control,2024.2.4,MacIntel,60.60606061,5dedbcdb63c57946d82c27e8,68817205a84113384fffdfe3,68822fbd891632a18c6cb8ce,,,,,,,,,,,,./stim/wavs/puertorican_match_interrogative-total-yn_Maria-bebe-el-vino.wav,1,,,55.1469,58.4131,1,1,2.7341,,0,2,2,23,1,24,1,puertorican,,,,,,,,,,,,,,,,,,,,,,,,,,,,,,,,,,,,,,,,,,,,,,,,,,,,,,,,
,,,,,,,,,5dedbcdb63c57946d82c27e8,Mexican,13 or older,"yes, I am fluent in another language",no,2025-07-24_09h07.28.227,empathy_intonation_perc_control,2024.2.4,MacIntel,60.60606061,5dedbcdb63c57946d82c27e8,68817205a84113384fffdfe3,68822fbd891632a18c6cb8ce,,,,,,,,,,,,./stim/wavs/mexican_mismatch_declarative-broad-focus_El-bebe-comia-muy-bien.wav,0,,,58.4137,61.3965,0,1,2.4512,,0,3,3,78,1,79,0,mexican,,,,,,,,,,,,,,,,,,,,,,,,,,,,,,,,,,,,,,,,,,,,,,,,,,,,,,,,
,,,,,,,,,5dedbcdb63c57946d82c27e8,Mexican,13 or older,"yes, I am fluent in another language",no,2025-07-24_09h07.28.227,empathy_intonation_perc_control,2024.2.4,MacIntel,60.60606061,5dedbcdb63c57946d82c27e8,68817205a84113384fffdfe3,68822fbd891632a18c6cb8ce,,,,,,,,,,,,./stim/wavs/castilian_match_interrogative-total-yn_Mariano-habla-del-tiempo.wav,1,,,61.3971,64.1799,1,1,2.2504,,0,4,4,4,1,5,0,castilian,,,,,,,,,,,,,,,,,,,,,,,,,,,,,,,,,,,,,,,,,,,,,,,,,,,,,,,,
,,,,,,,,,5dedbcdb63c57946d82c27e8,Mexican,13 or older,"yes, I am fluent in another language",no,2025-07-24_09h07.28.227,empathy_intonation_perc_control,2024.2.4,MacIntel,60.60606061,5dedbcdb63c57946d82c27e8,68817205a84113384fffdfe3,68822fbd891632a18c6cb8ce,,,,,,,,,,,,./stim/wavs/puertorican_match_declarative-broad-focus_David-leia-el-libro.wav,0,,,64.1807,66.5966,0,1,1.8853,,0,5,5,64,1,65,0,puertorican,,,,,,,,,,,,,,,,,,,,,,,,,,,,,,,,,,,,,,,,,,,,,,,,,,,,,,,,
,,,,,,,,,5dedbcdb63c57946d82c27e8,Mexican,13 or older,"yes, I am fluent in another language",no,2025-07-24_09h07.28.227,empathy_intonation_perc_control,2024.2.4,MacIntel,60.60606061,5dedbcdb63c57946d82c27e8,68817205a84113384fffdfe3,68822fbd891632a18c6cb8ce,,,,,,,,,,,,./stim/wavs/cuban_mismatch_interrogative-total-yn_Mi-madre-come-la-fruta.wav,1,,,66.5974,69.5625,0,0,2.4328,,0,6,6,31,1,32,1,cuban,,,,,,,,,,,,,,,,,,,,,,,,,,,,,,,,,,,,,,,,,,,,,,,,,,,,,,,,
,,,,,,,,,5dedbcdb63c57946d82c27e8,Mexican,13 or older,"yes, I am fluent in another language",no,2025-07-24_09h07.28.227,empathy_intonation_perc_control,2024.2.4,MacIntel,60.60606061,5dedbcdb63c57946d82c27e8,68817205a84113384fffdfe3,68822fbd891632a18c6cb8ce,,,,,,,,,,,,./stim/wavs/mexican_mismatch_declarative-broad-focus_Mi-tia-odia-la-lluvia.wav,0,,,69.5631,72.0968,0,1,2.012,,0,7,7,82,1,83,0,mexican,,,,,,,,,,,,,,,,,,,,,,,,,,,,,,,,,,,,,,,,,,,,,,,,,,,,,,,,
,,,,,,,,,5dedbcdb63c57946d82c27e8,Mexican,13 or older,"yes, I am fluent in another language",no,2025-07-24_09h07.28.227,empathy_intonation_perc_control,2024.2.4,MacIntel,60.60606061,5dedbcdb63c57946d82c27e8,68817205a84113384fffdfe3,68822fbd891632a18c6cb8ce,,,,,,,,,,,,./stim/wavs/cuban_match_declarative-broad-focus_Manuela-vende-el-carro.wav,0,,,72.0975,74.9636,0,1,2.3353,,0,8,8,52,1,53,0,cuban,,,,,,,,,,,,,,,,,,,,,,,,,,,,,,,,,,,,,,,,,,,,,,,,,,,,,,,,
,,,,,,,,,5dedbcdb63c57946d82c27e8,Mexican,13 or older,"yes, I am fluent in another language",no,2025-07-24_09h07.28.227,empathy_intonation_perc_control,2024.2.4,MacIntel,60.60606061,5dedbcdb63c57946d82c27e8,68817205a84113384fffdfe3,68822fbd891632a18c6cb8ce,,,,,,,,,,,,./stim/wavs/castilian_match_declarative-broad-focus_Manuela-vende-el-carro.wav,0,,,74.9641,78.6137,0,1,3.1159,,0,9,9,46,1,47,0,castilian,,,,,,,,,,,,,,,,,,,,,,,,,,,,,,,,,,,,,,,,,,,,,,,,,,,,,,,,
,,,,,,,,,5dedbcdb63c57946d82c27e8,Mexican,13 or older,"yes, I am fluent in another language",no,2025-07-24_09h07.28.227,empathy_intonation_perc_control,2024.2.4,MacIntel,60.60606061,5dedbcdb63c57946d82c27e8,68817205a84113384fffdfe3,68822fbd891632a18c6cb8ce,,,,,,,,,,,,./stim/wavs/puertorican_match_declarative-broad-focus_Manuela-vende-el-carro.wav,0,,,78.6142,81.3128,0,1,2.1669,,0,10,10,66,1,67,0,puertorican,,,,,,,,,,,,,,,,,,,,,,,,,,,,,,,,,,,,,,,,,,,,,,,,,,,,,,,,
,,,,,,,,,5dedbcdb63c57946d82c27e8,Mexican,13 or older,"yes, I am fluent in another language",no,2025-07-24_09h07.28.227,empathy_intonation_perc_control,2024.2.4,MacIntel,60.60606061,5dedbcdb63c57946d82c27e8,68817205a84113384fffdfe3,68822fbd891632a18c6cb8ce,,,,,,,,,,,,./stim/wavs/castilian_match_interrogative-total-yn_Marta-abre-el-regalo.wav,1,,,81.3134,84.1137,1,1,2.2826,,0,11,11,5,1,6,0,castilian,,,,,,,,,,,,,,,,,,,,,,,,,,,,,,,,,,,,,,,,,,,,,,,,,,,,,,,,
,,,,,,,,,5dedbcdb63c57946d82c27e8,Mexican,13 or older,"yes, I am fluent in another language",no,2025-07-24_09h07.28.227,empathy_intonation_perc_control,2024.2.4,MacIntel,60.60606061,5dedbcdb63c57946d82c27e8,68817205a84113384fffdfe3,68822fbd891632a18c6cb8ce,,,,,,,,,,,,./stim/wavs/mexican_match_interrogative-total-yn_Mariano-habla-del-tiempo.wav,1,,,84.1144,86.5639,1,1,1.9196,,0,12,12,16,1,17,0,mexican,,,,,,,,,,,,,,,,,,,,,,,,,,,,,,,,,,,,,,,,,,,,,,,,,,,,,,,,
,,,,,,,,,5dedbcdb63c57946d82c27e8,Mexican,13 or older,"yes, I am fluent in another language",no,2025-07-24_09h07.28.227,empathy_intonation_perc_control,2024.2.4,MacIntel,60.60606061,5dedbcdb63c57946d82c27e8,68817205a84113384fffdfe3,68822fbd891632a18c6cb8ce,,,,,,,,,,,,./stim/wavs/castilian_mismatch_interrogative-total-yn_Mi-madre-come-la-fruta.wav,1,,,86.5646,89.3465,1,1,2.2508,,0,13,13,26,1,27,0,castilian,,,,,,,,,,,,,,,,,,,,,,,,,,,,,,,,,,,,,,,,,,,,,,,,,,,,,,,,
,,,,,,,,,5dedbcdb63c57946d82c27e8,Mexican,13 or older,"yes, I am fluent in another language",no,2025-07-24_09h07.28.227,empathy_intonation_perc_control,2024.2.4,MacIntel,60.60606061,5dedbcdb63c57946d82c27e8,68817205a84113384fffdfe3,68822fbd891632a18c6cb8ce,,,,,,,,,,,,./stim/wavs/cuban_mismatch_declarative-broad-focus_Mi-novio-viene-del-lago.wav,0,,,89.3471,92.1806,0,1,2.3292,,0,14,14,76,1,77,0,cuban,,,,,,,,,,,,,,,,,,,,,,,,,,,,,,,,,,,,,,,,,,,,,,,,,,,,,,,,
,,,,,,,,,5dedbcdb63c57946d82c27e8,Mexican,13 or older,"yes, I am fluent in another language",no,2025-07-24_09h07.28.227,empathy_intonation_perc_control,2024.2.4,MacIntel,60.60606061,5dedbcdb63c57946d82c27e8,68817205a84113384fffdfe3,68822fbd891632a18c6cb8ce,,,,,,,,,,,,./stim/wavs/puertorican_mismatch_interrogative-total-yn_El-hombre-mira-la-luna.wav,1,,,92.1813,96.2643,0,0,3.5627,,0,15,15,39,1,40,1,puertorican,,,,,,,,,,,,,,,,,,,,,,,,,,,,,,,,,,,,,,,,,,,,,,,,,,,,,,,,
,,,,,,,,,5dedbcdb63c57946d82c27e8,Mexican,13 or older,"yes, I am fluent in another language",no,2025-07-24_09h07.28.227,empathy_intonation_perc_control,2024.2.4,MacIntel,60.60606061,5dedbcdb63c57946d82c27e8,68817205a84113384fffdfe3,68822fbd891632a18c6cb8ce,,,,,,,,,,,,./stim/wavs/mexican_match_interrogative-total-yn_David-leia-el-libro.wav,1,,,96.2648,98.8144,1,1,2.0169,,0,16,16,14,1,15,0,mexican,,,,,,,,,,,,,,,,,,,,,,,,,,,,,,,,,,,,,,,,,,,,,,,,,,,,,,,,
,,,,,,,,,5dedbcdb63c57946d82c27e8,Mexican,13 or older,"yes, I am fluent in another language",no,2025-07-24_09h07.28.227,empathy_intonation_perc_control,2024.2.4,MacIntel,60.60606061,5dedbcdb63c57946d82c27e8,68817205a84113384fffdfe3,68822fbd891632a18c6cb8ce,,,,,,,,,,,,./stim/wavs/mexican_mismatch_declarative-broad-focus_El-hombre-mira-la-luna.wav,0,,,98.815,101.2139,0,1,1.8779,,0,17,17,79,1,80,0,mexican,,,,,,,,,,,,,,,,,,,,,,,,,,,,,,,,,,,,,,,,,,,,,,,,,,,,,,,,
,,,,,,,,,5dedbcdb63c57946d82c27e8,Mexican,13 or older,"yes, I am fluent in another language",no,2025-07-24_09h07.28.227,empathy_intonation_perc_control,2024.2.4,MacIntel,60.60606061,5dedbcdb63c57946d82c27e8,68817205a84113384fffdfe3,68822fbd891632a18c6cb8ce,,,,,,,,,,,,./stim/wavs/mexican_mismatch_interrogative-total-yn_La-maestra-vive-en-Paris.wav,1,,,101.2145,103.8312,1,1,2.0834,,0,18,18,36,1,37,0,mexican,,,,,,,,,,,,,,,,,,,,,,,,,,,,,,,,,,,,,,,,,,,,,,,,,,,,,,,,
,,,,,,,,,5dedbcdb63c57946d82c27e8,Mexican,13 or older,"yes, I am fluent in another language",no,2025-07-24_09h07.28.227,empathy_intonation_perc_control,2024.2.4,MacIntel,60.60606061,5dedbcdb63c57946d82c27e8,68817205a84113384fffdfe3,68822fbd891632a18c6cb8ce,,,,,,,,,,,,./stim/wavs/castilian_match_declarative-broad-focus_Marta-abre-el-regalo.wav,0,,,103.8318,106.4819,0,1,2.1294,,0,19,19,49,1,50,0,castilian,,,,,,,,,,,,,,,,,,,,,,,,,,,,,,,,,,,,,,,,,,,,,,,,,,,,,,,,
,,,,,,,,,5dedbcdb63c57946d82c27e8,Mexican,13 or older,"yes, I am fluent in another language",no,2025-07-24_09h07.28.227,empathy_intonation_perc_control,2024.2.4,MacIntel,60.60606061,5dedbcdb63c57946d82c27e8,68817205a84113384fffdfe3,68822fbd891632a18c6cb8ce,,,,,,,,,,,,./stim/wavs/cuban_match_interrogative-total-yn_Daniel-iba-a-Bolivia.wav,1,,,106.4824,110.2813,0,0,3.2786,,0,20,20,7,1,8,1,cuban,,,,,,,,,,,,,,,,,,,,,,,,,,,,,,,,,,,,,,,,,,,,,,,,,,,,,,,,
,,,,,,,,,5dedbcdb63c57946d82c27e8,Mexican,13 or older,"yes, I am fluent in another language",no,2025-07-24_09h07.28.227,empathy_intonation_perc_control,2024.2.4,MacIntel,60.60606061,5dedbcdb63c57946d82c27e8,68817205a84113384fffdfe3,68822fbd891632a18c6cb8ce,,,,,,,,,,,,./stim/wavs/castilian_mismatch_interrogative-total-yn_La-maestra-vive-en-Paris.wav,1,,,110.2819,112.9481,1,1,2.1459,,0,21,21,24,1,25,0,castilian,,,,,,,,,,,,,,,,,,,,,,,,,,,,,,,,,,,,,,,,,,,,,,,,,,,,,,,,
,,,,,,,,,5dedbcdb63c57946d82c27e8,Mexican,13 or older,"yes, I am fluent in another language",no,2025-07-24_09h07.28.227,empathy_intonation_perc_control,2024.2.4,MacIntel,60.60606061,5dedbcdb63c57946d82c27e8,68817205a84113384fffdfe3,68822fbd891632a18c6cb8ce,,,,,,,,,,,,./stim/wavs/mexican_mismatch_interrogative-total-yn_Mi-tia-odia-la-lluvia.wav,1,,,112.9489,115.2815,1,1,1.8041,,0,22,22,38,1,39,0,mexican,,,,,,,,,,,,,,,,,,,,,,,,,,,,,,,,,,,,,,,,,,,,,,,,,,,,,,,,
,,,,,,,,,5dedbcdb63c57946d82c27e8,Mexican,13 or older,"yes, I am fluent in another language",no,2025-07-24_09h07.28.227,empathy_intonation_perc_control,2024.2.4,MacIntel,60.60606061,5dedbcdb63c57946d82c27e8,68817205a84113384fffdfe3,68822fbd891632a18c6cb8ce,,,,,,,,,,,,./stim/wavs/mexican_mismatch_declarative-broad-focus_La-maestra-vive-en-Paris.wav,0,,,115.2822,118.5155,0,1,2.7131,,0,23,23,80,1,81,0,mexican,,,,,,,,,,,,,,,,,,,,,,,,,,,,,,,,,,,,,,,,,,,,,,,,,,,,,,,,
,,,,,,,,,5dedbcdb63c57946d82c27e8,Mexican,13 or older,"yes, I am fluent in another language",no,2025-07-24_09h07.28.227,empathy_intonation_perc_control,2024.2.4,MacIntel,60.60606061,5dedbcdb63c57946d82c27e8,68817205a84113384fffdfe3,68822fbd891632a18c6cb8ce,,,,,,,,,,,,./stim/wavs/castilian_mismatch_interrogative-total-yn_Mi-novio-viene-del-lago.wav,1,,,118.516,121.0984,1,1,2.0615,,0,24,24,27,1,28,0,castilian,,,,,,,,,,,,,,,,,,,,,,,,,,,,,,,,,,,,,,,,,,,,,,,,,,,,,,,,
,,,,,,,,,5dedbcdb63c57946d82c27e8,Mexican,13 or older,"yes, I am fluent in another language",no,2025-07-24_09h07.28.227,empathy_intonation_perc_control,2024.2.4,MacIntel,60.60606061,5dedbcdb63c57946d82c27e8,68817205a84113384fffdfe3,68822fbd891632a18c6cb8ce,,,,,,,,,,,,./stim/wavs/cuban_match_declarative-broad-focus_Daniel-iba-a-Bolivia.wav,0,,,121.0989,123.9151,0,1,2.2837,,0,25,25,51,1,52,0,cuban,,,,,,,,,,,,,,,,,,,,,,,,,,,,,,,,,,,,,,,,,,,,,,,,,,,,,,,,
,,,,,,,,,5dedbcdb63c57946d82c27e8,Mexican,13 or older,"yes, I am fluent in another language",no,2025-07-24_09h07.28.227,empathy_intonation_perc_control,2024.2.4,MacIntel,60.60606061,5dedbcdb63c57946d82c27e8,68817205a84113384fffdfe3,68822fbd891632a18c6cb8ce,,,,,,,,,,,,./stim/wavs/puertorican_match_interrogative-total-yn_Manuela-vende-el-carro.wav,1,,,123.9158,127.0153,0,0,2.5671,,0,26,26,22,1,23,1,puertorican,,,,,,,,,,,,,,,,,,,,,,,,,,,,,,,,,,,,,,,,,,,,,,,,,,,,,,,,
,,,,,,,,,5dedbcdb63c57946d82c27e8,Mexican,13 or older,"yes, I am fluent in another language",no,2025-07-24_09h07.28.227,empathy_intonation_perc_control,2024.2.4,MacIntel,60.60606061,5dedbcdb63c57946d82c27e8,68817205a84113384fffdfe3,68822fbd891632a18c6cb8ce,,,,,,,,,,,,./stim/wavs/puertorican_match_declarative-broad-focus_Ana-lleva-el-abrigo.wav,0,,,127.016,129.3493,0,1,1.8123,,0,27,27,62,1,63,0,puertorican,,,,,,,,,,,,,,,,,,,,,,,,,,,,,,,,,,,,,,,,,,,,,,,,,,,,,,,,
,,,,,,,,,5dedbcdb63c57946d82c27e8,Mexican,13 or older,"yes, I am fluent in another language",no,2025-07-24_09h07.28.227,empathy_intonation_perc_control,2024.2.4,MacIntel,60.60606061,5dedbcdb63c57946d82c27e8,68817205a84113384fffdfe3,68822fbd891632a18c6cb8ce,,,,,,,,,,,,./stim/wavs/castilian_mismatch_declarative-broad-focus_Mi-novio-viene-del-lago.wav,0,,,129.3499,132.0327,0,1,2.1628,,0,28,28,71,1,72,0,castilian,,,,,,,,,,,,,,,,,,,,,,,,,,,,,,,,,,,,,,,,,,,,,,,,,,,,,,,,
,,,,,,,,,5dedbcdb63c57946d82c27e8,Mexican,13 or older,"yes, I am fluent in another language",no,2025-07-24_09h07.28.227,empathy_intonation_perc_control,2024.2.4,MacIntel,60.60606061,5dedbcdb63c57946d82c27e8,68817205a84113384fffdfe3,68822fbd891632a18c6cb8ce,,,,,,,,,,,,./stim/wavs/castilian_match_declarative-broad-focus_Mariano-habla-del-tiempo.wav,0,,,132.0333,134.9656,0,1,2.4018,,0,29,29,48,1,49,0,castilian,,,,,,,,,,,,,,,,,,,,,,,,,,,,,,,,,,,,,,,,,,,,,,,,,,,,,,,,
,,,,,,,,,5dedbcdb63c57946d82c27e8,Mexican,13 or older,"yes, I am fluent in another language",no,2025-07-24_09h07.28.227,empathy_intonation_perc_control,2024.2.4,MacIntel,60.60606061,5dedbcdb63c57946d82c27e8,68817205a84113384fffdfe3,68822fbd891632a18c6cb8ce,,,,,,,,,,,,./stim/wavs/castilian_match_declarative-broad-focus_David-leia-el-libro.wav,0,,,134.9661,137.3982,0,1,1.8999,,0,30,30,44,1,45,0,castilian,,,,,,,,,,,,,,,,,,,,,,,,,,,,,,,,,,,,,,,,,,,,,,,,,,,,,,,,
,,,,,,,,,5dedbcdb63c57946d82c27e8,Mexican,13 or older,"yes, I am fluent in another language",no,2025-07-24_09h07.28.227,empathy_intonation_perc_control,2024.2.4,MacIntel,60.60606061,5dedbcdb63c57946d82c27e8,68817205a84113384fffdfe3,68822fbd891632a18c6cb8ce,,,,,,,,,,,,./stim/wavs/mexican_mismatch_declarative-broad-focus_Mi-novio-viene-del-lago.wav,0,,,137.3988,139.5823,0,1,1.6782,,0,31,31,81,1,82,0,mexican,,,,,,,,,,,,,,,,,,,,,,,,,,,,,,,,,,,,,,,,,,,,,,,,,,,,,,,,
,,,,,,,,,5dedbcdb63c57946d82c27e8,Mexican,13 or older,"yes, I am fluent in another language",no,2025-07-24_09h07.28.227,empathy_intonation_perc_control,2024.2.4,MacIntel,60.60606061,5dedbcdb63c57946d82c27e8,68817205a84113384fffdfe3,68822fbd891632a18c6cb8ce,,,,,,,,,,,,./stim/wavs/cuban_match_interrogative-total-yn_Ana-lleva-el-abrigo.wav,1,,,139.583,141.916,0,0,1.8125,,0,32,32,6,1,7,1,cuban,,,,,,,,,,,,,,,,,,,,,,,,,,,,,,,,,,,,,,,,,,,,,,,,,,,,,,,,
,,,,,,,,,5dedbcdb63c57946d82c27e8,Mexican,13 or older,"yes, I am fluent in another language",no,2025-07-24_09h07.28.227,empathy_intonation_perc_control,2024.2.4,MacIntel,60.60606061,5dedbcdb63c57946d82c27e8,68817205a84113384fffdfe3,68822fbd891632a18c6cb8ce,,,,,,,,,,,,./stim/wavs/cuban_mismatch_interrogative-total-yn_Mi-novio-viene-del-lago.wav,1,,,141.9167,144.2656,0,0,1.8295,,0,33,33,32,1,33,1,cuban,,,,,,,,,,,,,,,,,,,,,,,,,,,,,,,,,,,,,,,,,,,,,,,,,,,,,,,,
,,,,,,,,,5dedbcdb63c57946d82c27e8,Mexican,13 or older,"yes, I am fluent in another language",no,2025-07-24_09h07.28.227,empathy_intonation_perc_control,2024.2.4,MacIntel,60.60606061,5dedbcdb63c57946d82c27e8,68817205a84113384fffdfe3,68822fbd891632a18c6cb8ce,,,,,,,,,,,,./stim/wavs/cuban_match_interrogative-total-yn_Manuela-vende-el-carro.wav,1,,,144.2662,146.5491,0,0,1.7526,,0,34,34,8,1,9,1,cuban,,,,,,,,,,,,,,,,,,,,,,,,,,,,,,,,,,,,,,,,,,,,,,,,,,,,,,,,
,,,,,,,,,5dedbcdb63c57946d82c27e8,Mexican,13 or older,"yes, I am fluent in another language",no,2025-07-24_09h07.28.227,empathy_intonation_perc_control,2024.2.4,MacIntel,60.60606061,5dedbcdb63c57946d82c27e8,68817205a84113384fffdfe3,68822fbd891632a18c6cb8ce,,,,,,,,,,,,./stim/wavs/cuban_mismatch_declarative-broad-focus_La-nina-lava-el-plato.wav,0,,,146.5498,148.8494,0,1,1.7712,,0,35,35,75,1,76,0,cuban,,,,,,,,,,,,,,,,,,,,,,,,,,,,,,,,,,,,,,,,,,,,,,,,,,,,,,,,
,,,,,,,,,5dedbcdb63c57946d82c27e8,Mexican,13 or older,"yes, I am fluent in another language",no,2025-07-24_09h07.28.227,empathy_intonation_perc_control,2024.2.4,MacIntel,60.60606061,5dedbcdb63c57946d82c27e8,68817205a84113384fffdfe3,68822fbd891632a18c6cb8ce,,,,,,,,,,,,./stim/wavs/castilian_match_declarative-broad-focus_Emilio-ama-la-marcha.wav,0,,,148.85,151.4995,0,1,2.1207,,0,36,36,45,1,46,0,castilian,,,,,,,,,,,,,,,,,,,,,,,,,,,,,,,,,,,,,,,,,,,,,,,,,,,,,,,,
,,,,,,,,,5dedbcdb63c57946d82c27e8,Mexican,13 or older,"yes, I am fluent in another language",no,2025-07-24_09h07.28.227,empathy_intonation_perc_control,2024.2.4,MacIntel,60.60606061,5dedbcdb63c57946d82c27e8,68817205a84113384fffdfe3,68822fbd891632a18c6cb8ce,,,,,,,,,,,,./stim/wavs/cuban_match_declarative-broad-focus_Mariano-habla-del-tiempo.wav,0,,,151.5001,154.1826,0,1,2.1496,,0,37,37,54,1,55,0,cuban,,,,,,,,,,,,,,,,,,,,,,,,,,,,,,,,,,,,,,,,,,,,,,,,,,,,,,,,
,,,,,,,,,5dedbcdb63c57946d82c27e8,Mexican,13 or older,"yes, I am fluent in another language",no,2025-07-24_09h07.28.227,empathy_intonation_perc_control,2024.2.4,MacIntel,60.60606061,5dedbcdb63c57946d82c27e8,68817205a84113384fffdfe3,68822fbd891632a18c6cb8ce,,,,,,,,,,,,./stim/wavs/mexican_match_declarative-broad-focus_David-leia-el-libro.wav,0,,,154.1831,156.4998,0,1,1.7843,,0,38,38,58,1,59,0,mexican,,,,,,,,,,,,,,,,,,,,,,,,,,,,,,,,,,,,,,,,,,,,,,,,,,,,,,,,
,,,,,,,,,5dedbcdb63c57946d82c27e8,Mexican,13 or older,"yes, I am fluent in another language",no,2025-07-24_09h07.28.227,empathy_intonation_perc_control,2024.2.4,MacIntel,60.60606061,5dedbcdb63c57946d82c27e8,68817205a84113384fffdfe3,68822fbd891632a18c6cb8ce,,,,,,,,,,,,./stim/wavs/castilian_match_interrogative-total-yn_Maria-bebe-el-vino.wav,1,,,156.5003,158.9832,1,1,1.9509,,0,39,39,3,1,4,0,castilian,,,,,,,,,,,,,,,,,,,,,,,,,,,,,,,,,,,,,,,,,,,,,,,,,,,,,,,,
,,,,,,,,,5dedbcdb63c57946d82c27e8,Mexican,13 or older,"yes, I am fluent in another language",no,2025-07-24_09h07.28.227,empathy_intonation_perc_control,2024.2.4,MacIntel,60.60606061,5dedbcdb63c57946d82c27e8,68817205a84113384fffdfe3,68822fbd891632a18c6cb8ce,,,,,,,,,,,,./stim/wavs/cuban_match_interrogative-total-yn_Mariano-habla-del-tiempo.wav,1,,,158.9838,161.3496,0,0,1.8336,,0,40,40,10,1,11,1,cuban,,,,,,,,,,,,,,,,,,,,,,,,,,,,,,,,,,,,,,,,,,,,,,,,,,,,,,,,
,,,,,,,,,5dedbcdb63c57946d82c27e8,Mexican,13 or older,"yes, I am fluent in another language",no,2025-07-24_09h07.28.227,empathy_intonation_perc_control,2024.2.4,MacIntel,60.60606061,5dedbcdb63c57946d82c27e8,68817205a84113384fffdfe3,68822fbd891632a18c6cb8ce,,,,,,,,,,,,./stim/wavs/puertorican_mismatch_interrogative-total-yn_Mi-madre-come-la-fruta.wav,1,,,161.3502,163.9499,0,0,2.0674,,0,41,41,43,1,44,1,puertorican,,,,,,,,,,,,,,,,,,,,,,,,,,,,,,,,,,,,,,,,,,,,,,,,,,,,,,,,
,,,,,,,,,5dedbcdb63c57946d82c27e8,Mexican,13 or older,"yes, I am fluent in another language",no,2025-07-24_09h07.28.227,empathy_intonation_perc_control,2024.2.4,MacIntel,60.60606061,5dedbcdb63c57946d82c27e8,68817205a84113384fffdfe3,68822fbd891632a18c6cb8ce,,,,,,,,,,,,./stim/wavs/puertorican_mismatch_declarative-broad-focus_La-nina-lava-el-plato.wav,0,,,163.9504,166.1833,0,1,1.7124,,0,42,42,87,1,88,0,puertorican,,,,,,,,,,,,,,,,,,,,,,,,,,,,,,,,,,,,,,,,,,,,,,,,,,,,,,,,
,,,,,,,,,5dedbcdb63c57946d82c27e8,Mexican,13 or older,"yes, I am fluent in another language",no,2025-07-24_09h07.28.227,empathy_intonation_perc_control,2024.2.4,MacIntel,60.60606061,5dedbcdb63c57946d82c27e8,68817205a84113384fffdfe3,68822fbd891632a18c6cb8ce,,,,,,,,,,,,./stim/wavs/mexican_mismatch_interrogative-total-yn_Mi-novio-viene-del-lago.wav,1,,,166.184,168.7333,1,1,2.0162,,0,43,43,37,1,38,0,mexican,,,,,,,,,,,,,,,,,,,,,,,,,,,,,,,,,,,,,,,,,,,,,,,,,,,,,,,,
,,,,,,,,,5dedbcdb63c57946d82c27e8,Mexican,13 or older,"yes, I am fluent in another language",no,2025-07-24_09h07.28.227,empathy_intonation_perc_control,2024.2.4,MacIntel,60.60606061,5dedbcdb63c57946d82c27e8,68817205a84113384fffdfe3,68822fbd891632a18c6cb8ce,,,,,,,,,,,,./stim/wavs/cuban_mismatch_declarative-broad-focus_El-hombre-mira-la-luna.wav,0,,,168.734,170.9669,0,1,1.7115,,0,44,44,74,1,75,0,cuban,,,,,,,,,,,,,,,,,,,,,,,,,,,,,,,,,,,,,,,,,,,,,,,,,,,,,,,,
,,,,,,,,,5dedbcdb63c57946d82c27e8,Mexican,13 or older,"yes, I am fluent in another language",no,2025-07-24_09h07.28.227,empathy_intonation_perc_control,2024.2.4,MacIntel,60.60606061,5dedbcdb63c57946d82c27e8,68817205a84113384fffdfe3,68822fbd891632a18c6cb8ce,,,,,,,,,,,,./stim/wavs/mexican_match_interrogative-total-yn_Ana-lleva-el-abrigo.wav,1,,,170.9674,173.5001,1,1,2.0112,,0,45,45,12,1,13,0,mexican,,,,,,,,,,,,,,,,,,,,,,,,,,,,,,,,,,,,,,,,,,,,,,,,,,,,,,,,
,,,,,,,,,5dedbcdb63c57946d82c27e8,Mexican,13 or older,"yes, I am fluent in another language",no,2025-07-24_09h07.28.227,empathy_intonation_perc_control,2024.2.4,MacIntel,60.60606061,5dedbcdb63c57946d82c27e8,68817205a84113384fffdfe3,68822fbd891632a18c6cb8ce,,,,,,,,,,,,./stim/wavs/mexican_mismatch_interrogative-total-yn_El-hombre-mira-la-luna.wav,1,,,173.5007,175.7668,1,1,1.7457,,0,46,46,34,1,35,0,mexican,,,,,,,,,,,,,,,,,,,,,,,,,,,,,,,,,,,,,,,,,,,,,,,,,,,,,,,,
,,,,,,,,,5dedbcdb63c57946d82c27e8,Mexican,13 or older,"yes, I am fluent in another language",no,2025-07-24_09h07.28.227,empathy_intonation_perc_control,2024.2.4,MacIntel,60.60606061,5dedbcdb63c57946d82c27e8,68817205a84113384fffdfe3,68822fbd891632a18c6cb8ce,,,,,,,,,,,,./stim/wavs/castilian_mismatch_declarative-broad-focus_El-nino-oye-el-rio.wav,0,,,175.7675,178.2669,0,1,1.9789,,0,47,47,68,1,69,0,castilian,,,,,,,,,,,,,,,,,,,,,,,,,,,,,,,,,,,,,,,,,,,,,,,,,,,,,,,,
,,,,,,,,,5dedbcdb63c57946d82c27e8,Mexican,13 or older,"yes, I am fluent in another language",no,2025-07-24_09h07.28.227,empathy_intonation_perc_control,2024.2.4,MacIntel,60.60606061,5dedbcdb63c57946d82c27e8,68817205a84113384fffdfe3,68822fbd891632a18c6cb8ce,,,,,,,,,,,,./stim/wavs/mexican_match_declarative-broad-focus_Mariano-habla-del-tiempo.wav,0,,,178.2676,180.917,0,1,2.116,,0,48,48,60,1,61,0,mexican,,,,,,,,,,,,,,,,,,,,,,,,,,,,,,,,,,,,,,,,,,,,,,,,,,,,,,,,
,,,,,,,,,5dedbcdb63c57946d82c27e8,Mexican,13 or older,"yes, I am fluent in another language",no,2025-07-24_09h07.28.227,empathy_intonation_perc_control,2024.2.4,MacIntel,60.60606061,5dedbcdb63c57946d82c27e8,68817205a84113384fffdfe3,68822fbd891632a18c6cb8ce,,,,,,,,,,,,./stim/wavs/castilian_mismatch_declarative-broad-focus_La-maestra-vive-en-Paris.wav,0,,,180.9177,183.6172,0,1,2.1682,,0,49,49,69,1,70,0,castilian,,,,,,,,,,,,,,,,,,,,,,,,,,,,,,,,,,,,,,,,,,,,,,,,,,,,,,,,
,,,,,,,,,5dedbcdb63c57946d82c27e8,Mexican,13 or older,"yes, I am fluent in another language",no,2025-07-24_09h07.28.227,empathy_intonation_perc_control,2024.2.4,MacIntel,60.60606061,5dedbcdb63c57946d82c27e8,68817205a84113384fffdfe3,68822fbd891632a18c6cb8ce,,,,,,,,,,,,./stim/wavs/castilian_match_declarative-broad-focus_Maria-bebe-el-vino.wav,0,,,183.618,186.1508,0,1,2.0122,,0,50,50,47,1,48,0,castilian,,,,,,,,,,,,,,,,,,,,,,,,,,,,,,,,,,,,,,,,,,,,,,,,,,,,,,,,
,,,,,,,,,5dedbcdb63c57946d82c27e8,Mexican,13 or older,"yes, I am fluent in another language",no,2025-07-24_09h07.28.227,empathy_intonation_perc_control,2024.2.4,MacIntel,60.60606061,5dedbcdb63c57946d82c27e8,68817205a84113384fffdfe3,68822fbd891632a18c6cb8ce,,,,,,,,,,,,./stim/wavs/cuban_mismatch_interrogative-total-yn_El-nino-oye-el-rio.wav,1,,,186.1512,188.3173,0,0,1.634,,0,51,51,30,1,31,1,cuban,,,,,,,,,,,,,,,,,,,,,,,,,,,,,,,,,,,,,,,,,,,,,,,,,,,,,,,,
,,,,,,,,,5dedbcdb63c57946d82c27e8,Mexican,13 or older,"yes, I am fluent in another language",no,2025-07-24_09h07.28.227,empathy_intonation_perc_control,2024.2.4,MacIntel,60.60606061,5dedbcdb63c57946d82c27e8,68817205a84113384fffdfe3,68822fbd891632a18c6cb8ce,,,,,,,,,,,,./stim/wavs/castilian_mismatch_declarative-broad-focus_Mi-tia-odia-la-lluvia.wav,0,,,188.318,190.7174,0,1,1.8684,,0,52,52,72,1,73,0,castilian,,,,,,,,,,,,,,,,,,,,,,,,,,,,,,,,,,,,,,,,,,,,,,,,,,,,,,,,
,,,,,,,,,5dedbcdb63c57946d82c27e8,Mexican,13 or older,"yes, I am fluent in another language",no,2025-07-24_09h07.28.227,empathy_intonation_perc_control,2024.2.4,MacIntel,60.60606061,5dedbcdb63c57946d82c27e8,68817205a84113384fffdfe3,68822fbd891632a18c6cb8ce,,,,,,,,,,,,./stim/wavs/mexican_match_interrogative-total-yn_Emilio-ama-la-marcha.wav,1,,,190.7182,193.0674,1,1,1.8171,,0,53,53,15,1,16,0,mexican,,,,,,,,,,,,,,,,,,,,,,,,,,,,,,,,,,,,,,,,,,,,,,,,,,,,,,,,
,,,,,,,,,5dedbcdb63c57946d82c27e8,Mexican,13 or older,"yes, I am fluent in another language",no,2025-07-24_09h07.28.227,empathy_intonation_perc_control,2024.2.4,MacIntel,60.60606061,5dedbcdb63c57946d82c27e8,68817205a84113384fffdfe3,68822fbd891632a18c6cb8ce,,,,,,,,,,,,./stim/wavs/mexican_match_declarative-broad-focus_Marta-abre-el-regalo.wav,0,,,193.068,195.3842,0,1,1.7884,,0,54,54,61,1,62,0,mexican,,,,,,,,,,,,,,,,,,,,,,,,,,,,,,,,,,,,,,,,,,,,,,,,,,,,,,,,
,,,,,,,,,5dedbcdb63c57946d82c27e8,Mexican,13 or older,"yes, I am fluent in another language",no,2025-07-24_09h07.28.227,empathy_intonation_perc_control,2024.2.4,MacIntel,60.60606061,5dedbcdb63c57946d82c27e8,68817205a84113384fffdfe3,68822fbd891632a18c6cb8ce,,,,,,,,,,,,./stim/wavs/castilian_mismatch_interrogative-total-yn_La-nina-lava-el-plato.wav,1,,,195.3847,198.051,1,1,2.134,,0,55,55,25,1,26,0,castilian,,,,,,,,,,,,,,,,,,,,,,,,,,,,,,,,,,,,,,,,,,,,,,,,,,,,,,,,
,,,,,,,,,5dedbcdb63c57946d82c27e8,Mexican,13 or older,"yes, I am fluent in another language",no,2025-07-24_09h07.28.227,empathy_intonation_perc_control,2024.2.4,MacIntel,60.60606061,5dedbcdb63c57946d82c27e8,68817205a84113384fffdfe3,68822fbd891632a18c6cb8ce,,,,,,,,,,,,./stim/wavs/puertorican_match_interrogative-total-yn_Daniel-iba-a-Bolivia.wav,1,,,198.0516,200.4681,0,0,1.8845,,0,56,56,19,1,20,1,puertorican,,,,,,,,,,,,,,,,,,,,,,,,,,,,,,,,,,,,,,,,,,,,,,,,,,,,,,,,
,,,,,,,,,5dedbcdb63c57946d82c27e8,Mexican,13 or older,"yes, I am fluent in another language",no,2025-07-24_09h07.28.227,empathy_intonation_perc_control,2024.2.4,MacIntel,60.60606061,5dedbcdb63c57946d82c27e8,68817205a84113384fffdfe3,68822fbd891632a18c6cb8ce,,,,,,,,,,,,./stim/wavs/puertorican_mismatch_declarative-broad-focus_La-maestra-vive-en-Paris.wav,0,,,200.4689,202.8007,0,1,1.8122,,0,57,57,86,1,87,0,puertorican,,,,,,,,,,,,,,,,,,,,,,,,,,,,,,,,,,,,,,,,,,,,,,,,,,,,,,,,
,,,,,,,,,5dedbcdb63c57946d82c27e8,Mexican,13 or older,"yes, I am fluent in another language",no,2025-07-24_09h07.28.227,empathy_intonation_perc_control,2024.2.4,MacIntel,60.60606061,5dedbcdb63c57946d82c27e8,68817205a84113384fffdfe3,68822fbd891632a18c6cb8ce,,,,,,,,,,,,./stim/wavs/castilian_match_interrogative-total-yn_Manuela-vende-el-carro.wav,1,,,202.8012,205.351,1,1,2.0291,,0,58,58,2,1,3,0,castilian,,,,,,,,,,,,,,,,,,,,,,,,,,,,,,,,,,,,,,,,,,,,,,,,,,,,,,,,
,,,,,,,,,5dedbcdb63c57946d82c27e8,Mexican,13 or older,"yes, I am fluent in another language",no,2025-07-24_09h07.28.227,empathy_intonation_perc_control,2024.2.4,MacIntel,60.60606061,5dedbcdb63c57946d82c27e8,68817205a84113384fffdfe3,68822fbd891632a18c6cb8ce,,,,,,,,,,,,./stim/wavs/puertorican_match_interrogative-total-yn_Ana-lleva-el-abrigo.wav,1,,,205.3516,207.7513,0,0,1.8659,,0,59,59,18,1,19,1,puertorican,,,,,,,,,,,,,,,,,,,,,,,,,,,,,,,,,,,,,,,,,,,,,,,,,,,,,,,,
,,,,,,,,,5dedbcdb63c57946d82c27e8,Mexican,13 or older,"yes, I am fluent in another language",no,2025-07-24_09h07.28.227,empathy_intonation_perc_control,2024.2.4,MacIntel,60.60606061,5dedbcdb63c57946d82c27e8,68817205a84113384fffdfe3,68822fbd891632a18c6cb8ce,,,,,,,,,,,,./stim/wavs/puertorican_match_interrogative-total-yn_Emilio-ama-la-marcha.wav,1,,,207.7519,210.4348,0,0,2.1614,,0,60,60,21,1,22,1,puertorican,,,,,,,,,,,,,,,,,,,,,,,,,,,,,,,,,,,,,,,,,,,,,,,,,,,,,,,,
,,,,,,,,,5dedbcdb63c57946d82c27e8,Mexican,13 or older,"yes, I am fluent in another language",no,2025-07-24_09h07.28.227,empathy_intonation_perc_control,2024.2.4,MacIntel,60.60606061,5dedbcdb63c57946d82c27e8,68817205a84113384fffdfe3,68822fbd891632a18c6cb8ce,,,,,,,,,,,,./stim/wavs/puertorican_mismatch_interrogative-total-yn_La-nina-lava-el-plato.wav,1,,,210.4353,212.7514,0,0,1.7948,,0,61,61,42,1,43,1,puertorican,,,,,,,,,,,,,,,,,,,,,,,,,,,,,,,,,,,,,,,,,,,,,,,,,,,,,,,,
,,,,,,,,,5dedbcdb63c57946d82c27e8,Mexican,13 or older,"yes, I am fluent in another language",no,2025-07-24_09h07.28.227,empathy_intonation_perc_control,2024.2.4,MacIntel,60.60606061,5dedbcdb63c57946d82c27e8,68817205a84113384fffdfe3,68822fbd891632a18c6cb8ce,,,,,,,,,,,,./stim/wavs/puertorican_match_interrogative-total-yn_David-leia-el-libro.wav,1,,,212.7519,215.0348,0,0,1.7504,,0,62,62,20,1,21,1,puertorican,,,,,,,,,,,,,,,,,,,,,,,,,,,,,,,,,,,,,,,,,,,,,,,,,,,,,,,,
,,,,,,,,,5dedbcdb63c57946d82c27e8,Mexican,13 or older,"yes, I am fluent in another language",no,2025-07-24_09h07.28.227,empathy_intonation_perc_control,2024.2.4,MacIntel,60.60606061,5dedbcdb63c57946d82c27e8,68817205a84113384fffdfe3,68822fbd891632a18c6cb8ce,,,,,,,,,,,,./stim/wavs/cuban_match_interrogative-total-yn_Maria-bebe-el-vino.wav,1,,,215.0353,217.5682,0,0,2.0122,,0,63,63,9,1,10,1,cuban,,,,,,,,,,,,,,,,,,,,,,,,,,,,,,,,,,,,,,,,,,,,,,,,,,,,,,,,
,,,,,,,,,5dedbcdb63c57946d82c27e8,Mexican,13 or older,"yes, I am fluent in another language",no,2025-07-24_09h07.28.227,empathy_intonation_perc_control,2024.2.4,MacIntel,60.60606061,5dedbcdb63c57946d82c27e8,68817205a84113384fffdfe3,68822fbd891632a18c6cb8ce,,,,,,,,,,,,./stim/wavs/cuban_mismatch_declarative-broad-focus_El-bebe-comia-muy-bien.wav,0,,,217.5689,219.918,0,1,1.8178,,0,64,64,73,1,74,0,cuban,,,,,,,,,,,,,,,,,,,,,,,,,,,,,,,,,,,,,,,,,,,,,,,,,,,,,,,,
,,,,,,,,,5dedbcdb63c57946d82c27e8,Mexican,13 or older,"yes, I am fluent in another language",no,2025-07-24_09h07.28.227,empathy_intonation_perc_control,2024.2.4,MacIntel,60.60606061,5dedbcdb63c57946d82c27e8,68817205a84113384fffdfe3,68822fbd891632a18c6cb8ce,,,,,,,,,,,,./stim/wavs/mexican_match_declarative-broad-focus_Daniel-iba-a-Bolivia.wav,0,,,219.9185,222.5185,0,1,2.0885,,0,65,65,57,1,58,0,mexican,,,,,,,,,,,,,,,,,,,,,,,,,,,,,,,,,,,,,,,,,,,,,,,,,,,,,,,,
,,,,,,,,,5dedbcdb63c57946d82c27e8,Mexican,13 or older,"yes, I am fluent in another language",no,2025-07-24_09h07.28.227,empathy_intonation_perc_control,2024.2.4,MacIntel,60.60606061,5dedbcdb63c57946d82c27e8,68817205a84113384fffdfe3,68822fbd891632a18c6cb8ce,,,,,,,,,,,,./stim/wavs/puertorican_mismatch_interrogative-total-yn_La-maestra-vive-en-Paris.wav,1,,,222.5192,225.3523,0,0,2.3128,,0,66,66,41,1,42,1,puertorican,,,,,,,,,,,,,,,,,,,,,,,,,,,,,,,,,,,,,,,,,,,,,,,,,,,,,,,,
,,,,,,,,,5dedbcdb63c57946d82c27e8,Mexican,13 or older,"yes, I am fluent in another language",no,2025-07-24_09h07.28.227,empathy_intonation_perc_control,2024.2.4,MacIntel,60.60606061,5dedbcdb63c57946d82c27e8,68817205a84113384fffdfe3,68822fbd891632a18c6cb8ce,,,,,,,,,,,,./stim/wavs/mexican_match_interrogative-total-yn_Daniel-iba-a-Bolivia.wav,1,,,225.3529,227.7519,1,1,1.8777,,0,67,67,13,1,14,0,mexican,,,,,,,,,,,,,,,,,,,,,,,,,,,,,,,,,,,,,,,,,,,,,,,,,,,,,,,,
,,,,,,,,,5dedbcdb63c57946d82c27e8,Mexican,13 or older,"yes, I am fluent in another language",no,2025-07-24_09h07.28.227,empathy_intonation_perc_control,2024.2.4,MacIntel,60.60606061,5dedbcdb63c57946d82c27e8,68817205a84113384fffdfe3,68822fbd891632a18c6cb8ce,,,,,,,,,,,,./stim/wavs/cuban_match_declarative-broad-focus_Maria-bebe-el-vino.wav,0,,,227.7524,230.0187,0,1,1.7325,,0,68,68,53,1,54,0,cuban,,,,,,,,,,,,,,,,,,,,,,,,,,,,,,,,,,,,,,,,,,,,,,,,,,,,,,,,
,,,,,,,,,5dedbcdb63c57946d82c27e8,Mexican,13 or older,"yes, I am fluent in another language",no,2025-07-24_09h07.28.227,empathy_intonation_perc_control,2024.2.4,MacIntel,60.60606061,5dedbcdb63c57946d82c27e8,68817205a84113384fffdfe3,68822fbd891632a18c6cb8ce,,,,,,,,,,,,./stim/wavs/cuban_mismatch_declarative-broad-focus_Mi-tia-odia-la-lluvia.wav,0,,,230.0193,232.7354,0,1,2.184,,0,69,69,77,1,78,0,cuban,,,,,,,,,,,,,,,,,,,,,,,,,,,,,,,,,,,,,,,,,,,,,,,,,,,,,,,,
,,,,,,,,,5dedbcdb63c57946d82c27e8,Mexican,13 or older,"yes, I am fluent in another language",no,2025-07-24_09h07.28.227,empathy_intonation_perc_control,2024.2.4,MacIntel,60.60606061,5dedbcdb63c57946d82c27e8,68817205a84113384fffdfe3,68822fbd891632a18c6cb8ce,,,,,,,,,,,,./stim/wavs/castilian_match_interrogative-total-yn_Emilio-ama-la-marcha.wav,1,,,232.7361,235.0855,1,1,1.8222,,0,70,70,1,1,2,0,castilian,,,,,,,,,,,,,,,,,,,,,,,,,,,,,,,,,,,,,,,,,,,,,,,,,,,,,,,,
,,,,,,,,,5dedbcdb63c57946d82c27e8,Mexican,13 or older,"yes, I am fluent in another language",no,2025-07-24_09h07.28.227,empathy_intonation_perc_control,2024.2.4,MacIntel,60.60606061,5dedbcdb63c57946d82c27e8,68817205a84113384fffdfe3,68822fbd891632a18c6cb8ce,,,,,,,,,,,,./stim/wavs/mexican_match_declarative-broad-focus_Ana-lleva-el-abrigo.wav,0,,,235.086,237.4689,0,1,1.8616,,0,71,71,56,1,57,0,mexican,,,,,,,,,,,,,,,,,,,,,,,,,,,,,,,,,,,,,,,,,,,,,,,,,,,,,,,,
,,,,,,,,,5dedbcdb63c57946d82c27e8,Mexican,13 or older,"yes, I am fluent in another language",no,2025-07-24_09h07.28.227,empathy_intonation_perc_control,2024.2.4,MacIntel,60.60606061,5dedbcdb63c57946d82c27e8,68817205a84113384fffdfe3,68822fbd891632a18c6cb8ce,,,,,,,,,,,,./stim/wavs/puertorican_match_declarative-broad-focus_Maria-bebe-el-vino.wav,0,,,237.4694,239.8523,0,1,1.8508,,0,72,72,67,1,68,0,puertorican,,,,,,,,,,,,,,,,,,,,,,,,,,,,,,,,,,,,,,,,,,,,,,,,,,,,,,,,
,,,,,,,,,5dedbcdb63c57946d82c27e8,Mexican,13 or older,"yes, I am fluent in another language",no,2025-07-24_09h07.28.227,empathy_intonation_perc_control,2024.2.4,MacIntel,60.60606061,5dedbcdb63c57946d82c27e8,68817205a84113384fffdfe3,68822fbd891632a18c6cb8ce,,,,,,,,,,,,./stim/wavs/mexican_match_interrogative-total-yn_Marta-abre-el-regalo.wav,1,,,239.853,242.2189,1,1,1.8453,,0,73,73,17,1,18,0,mexican,,,,,,,,,,,,,,,,,,,,,,,,,,,,,,,,,,,,,,,,,,,,,,,,,,,,,,,,
,,,,,,,,,5dedbcdb63c57946d82c27e8,Mexican,13 or older,"yes, I am fluent in another language",no,2025-07-24_09h07.28.227,empathy_intonation_perc_control,2024.2.4,MacIntel,60.60606061,5dedbcdb63c57946d82c27e8,68817205a84113384fffdfe3,68822fbd891632a18c6cb8ce,,,,,,,,,,,,./stim/wavs/puertorican_match_declarative-broad-focus_Emilio-ama-la-marcha.wav,0,,,242.2196,244.7358,0,1,1.9889,,0,74,74,65,1,66,0,puertorican,,,,,,,,,,,,,,,,,,,,,,,,,,,,,,,,,,,,,,,,,,,,,,,,,,,,,,,,
,,,,,,,,,5dedbcdb63c57946d82c27e8,Mexican,13 or older,"yes, I am fluent in another language",no,2025-07-24_09h07.28.227,empathy_intonation_perc_control,2024.2.4,MacIntel,60.60606061,5dedbcdb63c57946d82c27e8,68817205a84113384fffdfe3,68822fbd891632a18c6cb8ce,,,,,,,,,,,,./stim/wavs/castilian_match_interrogative-total-yn_David-leia-el-libro.wav,1,,,244.7363,247.0691,1,1,1.811,,0,75,75,0,1,1,0,castilian,,,,,,,,,,,,,,,,,,,,,,,,,,,,,,,,,,,,,,,,,,,,,,,,,,,,,,,,
,,,,,,,,,5dedbcdb63c57946d82c27e8,Mexican,13 or older,"yes, I am fluent in another language",no,2025-07-24_09h07.28.227,empathy_intonation_perc_control,2024.2.4,MacIntel,60.60606061,5dedbcdb63c57946d82c27e8,68817205a84113384fffdfe3,68822fbd891632a18c6cb8ce,,,,,,,,,,,,./stim/wavs/puertorican_mismatch_declarative-broad-focus_El-hombre-mira-la-luna.wav,0,,,247.0696,249.4192,0,1,1.8293,,0,76,76,84,1,85,0,puertorican,,,,,,,,,,,,,,,,,,,,,,,,,,,,,,,,,,,,,,,,,,,,,,,,,,,,,,,,
,,,,,,,,,5dedbcdb63c57946d82c27e8,Mexican,13 or older,"yes, I am fluent in another language",no,2025-07-24_09h07.28.227,empathy_intonation_perc_control,2024.2.4,MacIntel,60.60606061,5dedbcdb63c57946d82c27e8,68817205a84113384fffdfe3,68822fbd891632a18c6cb8ce,,,,,,,,,,,,./stim/wavs/cuban_match_declarative-broad-focus_Ana-lleva-el-abrigo.wav,0,,,249.4198,251.7361,0,1,1.7841,,0,77,77,50,1,51,0,cuban,,,,,,,,,,,,,,,,,,,,,,,,,,,,,,,,,,,,,,,,,,,,,,,,,,,,,,,,
,,,,,,,,,5dedbcdb63c57946d82c27e8,Mexican,13 or older,"yes, I am fluent in another language",no,2025-07-24_09h07.28.227,empathy_intonation_perc_control,2024.2.4,MacIntel,60.60606061,5dedbcdb63c57946d82c27e8,68817205a84113384fffdfe3,68822fbd891632a18c6cb8ce,,,,,,,,,,,,./stim/wavs/puertorican_match_declarative-broad-focus_Daniel-iba-a-Bolivia.wav,0,,,251.7367,254.2362,0,1,1.9692,,0,78,78,63,1,64,0,puertorican,,,,,,,,,,,,,,,,,,,,,,,,,,,,,,,,,,,,,,,,,,,,,,,,,,,,,,,,
,,,,,,,,,5dedbcdb63c57946d82c27e8,Mexican,13 or older,"yes, I am fluent in another language",no,2025-07-24_09h07.28.227,empathy_intonation_perc_control,2024.2.4,MacIntel,60.60606061,5dedbcdb63c57946d82c27e8,68817205a84113384fffdfe3,68822fbd891632a18c6cb8ce,,,,,,,,,,,,./stim/wavs/puertorican_mismatch_declarative-broad-focus_El-bebe-comia-muy-bien.wav,0,,,254.2368,257.7861,0,1,3.0288,,0,79,79,83,1,84,0,puertorican,,,,,,,,,,,,,,,,,,,,,,,,,,,,,,,,,,,,,,,,,,,,,,,,,,,,,,,,
,,,,,,,,,5dedbcdb63c57946d82c27e8,Mexican,13 or older,"yes, I am fluent in another language",no,2025-07-24_09h07.28.227,empathy_intonation_perc_control,2024.2.4,MacIntel,60.60606061,5dedbcdb63c57946d82c27e8,68817205a84113384fffdfe3,68822fbd891632a18c6cb8ce,,,,,,,,,,,,./stim/wavs/castilian_mismatch_declarative-broad-focus_La-nina-lava-el-plato.wav,0,,,257.7866,260.5197,0,1,2.2024,,0,80,80,70,1,71,0,castilian,,,,,,,,,,,,,,,,,,,,,,,,,,,,,,,,,,,,,,,,,,,,,,,,,,,,,,,,
,,,,,,,,,5dedbcdb63c57946d82c27e8,Mexican,13 or older,"yes, I am fluent in another language",no,2025-07-24_09h07.28.227,empathy_intonation_perc_control,2024.2.4,MacIntel,60.60606061,5dedbcdb63c57946d82c27e8,68817205a84113384fffdfe3,68822fbd891632a18c6cb8ce,,,,,,,,,,,,./stim/wavs/cuban_mismatch_interrogative-total-yn_Mi-tia-odia-la-lluvia.wav,1,,,260.5203,263.2031,0,0,2.1507,,0,81,81,33,1,34,1,cuban,,,,,,,,,,,,,,,,,,,,,,,,,,,,,,,,,,,,,,,,,,,,,,,,,,,,,,,,
,,,,,,,,,5dedbcdb63c57946d82c27e8,Mexican,13 or older,"yes, I am fluent in another language",no,2025-07-24_09h07.28.227,empathy_intonation_perc_control,2024.2.4,MacIntel,60.60606061,5dedbcdb63c57946d82c27e8,68817205a84113384fffdfe3,68822fbd891632a18c6cb8ce,,,,,,,,,,,,./stim/wavs/puertorican_mismatch_interrogative-total-yn_El-nino-oye-el-rio.wav,1,,,263.2039,265.6531,0,0,1.9184,,0,82,82,40,1,41,1,puertorican,,,,,,,,,,,,,,,,,,,,,,,,,,,,,,,,,,,,,,,,,,,,,,,,,,,,,,,,
,,,,,,,,,5dedbcdb63c57946d82c27e8,Mexican,13 or older,"yes, I am fluent in another language",no,2025-07-24_09h07.28.227,empathy_intonation_perc_control,2024.2.4,MacIntel,60.60606061,5dedbcdb63c57946d82c27e8,68817205a84113384fffdfe3,68822fbd891632a18c6cb8ce,,,,,,,,,,,,./stim/wavs/puertorican_mismatch_declarative-broad-focus_El-nino-oye-el-rio.wav,0,,,265.6537,267.8366,0,1,1.6505,,0,83,83,85,1,86,0,puertorican,,,,,,,,,,,,,,,,,,,,,,,,,,,,,,,,,,,,,,,,,,,,,,,,,,,,,,,,
,,,,,,,,,5dedbcdb63c57946d82c27e8,Mexican,13 or older,"yes, I am fluent in another language",no,2025-07-24_09h07.28.227,empathy_intonation_perc_control,2024.2.4,MacIntel,60.60606061,5dedbcdb63c57946d82c27e8,68817205a84113384fffdfe3,68822fbd891632a18c6cb8ce,,,,,,,,,,,,./stim/wavs/mexican_mismatch_interrogative-total-yn_El-nino-oye-el-rio.wav,1,,,267.8373,269.9201,1,1,1.562,,0,84,84,35,1,36,0,mexican,,,,,,,,,,,,,,,,,,,,,,,,,,,,,,,,,,,,,,,,,,,,,,,,,,,,,,,,
,,,,,,,,,5dedbcdb63c57946d82c27e8,Mexican,13 or older,"yes, I am fluent in another language",no,2025-07-24_09h07.28.227,empathy_intonation_perc_control,2024.2.4,MacIntel,60.60606061,5dedbcdb63c57946d82c27e8,68817205a84113384fffdfe3,68822fbd891632a18c6cb8ce,,,,,,,,,,,,./stim/wavs/mexican_match_declarative-broad-focus_Emilio-ama-la-marcha.wav,0,,,269.9208,272.4201,0,1,1.969,,0,85,85,59,1,60,0,mexican,,,,,,,,,,,,,,,,,,,,,,,,,,,,,,,,,,,,,,,,,,,,,,,,,,,,,,,,
,,,,,,,,,5dedbcdb63c57946d82c27e8,Mexican,13 or older,"yes, I am fluent in another language",no,2025-07-24_09h07.28.227,empathy_intonation_perc_control,2024.2.4,MacIntel,60.60606061,5dedbcdb63c57946d82c27e8,68817205a84113384fffdfe3,68822fbd891632a18c6cb8ce,,,,,,,,,,,,./stim/wavs/castilian_mismatch_interrogative-total-yn_Mi-tia-odia-la-lluvia.wav,1,,,272.4206,274.8702,1,1,1.9289,,0,86,86,28,1,29,0,castilian,,,,,,,,,,,,,,,,,,,,,,,,,,,,,,,,,,,,,,,,,,,,,,,,,,,,,,,,
,,,,,,,,,5dedbcdb63c57946d82c27e8,Mexican,13 or older,"yes, I am fluent in another language",no,2025-07-24_09h07.28.227,empathy_intonation_perc_control,2024.2.4,MacIntel,60.60606061,5dedbcdb63c57946d82c27e8,68817205a84113384fffdfe3,68822fbd891632a18c6cb8ce,,,,,,,,,,,,./stim/wavs/cuban_mismatch_interrogative-total-yn_El-hombre-mira-la-luna.wav,1,,,274.8708,277.187,0,0,1.7875,,0,87,87,29,1,30,1,cuban,,,,,,,,,,,,,,,,,,,,,,,,,,,,,,,,,,,,,,,,,,,,,,,,,,,,,,,,
,,,,,,,"Great! Now we will move on. The next task consists of about 60 trials, in each of which you will see a string of letters. 
  
  Your task is to decide whether this is a real Spanish word or not.", (press the spacebar to continue),5dedbcdb63c57946d82c27e8,Mexican,13 or older,"yes, I am fluent in another language",no,2025-07-24_09h07.28.227,empathy_intonation_perc_control,2024.2.4,MacIntel,60.60606061,5dedbcdb63c57946d82c27e8,68817205a84113384fffdfe3,68822fbd891632a18c6cb8ce,,,,,,,,,,,,,,,,,,,,,,,,,,,,,,277.195,284.4545,0,0,0,0,1,,,,,,,,,,,,,,,,,,,,,,,,,,,,,,,,,,,,,,,,,,,,,,,,,
,,,,,,,"If you think it is an existing Spanish word, you type '1' (for 'REAL'), and if you think it is not an existing Spanish word, you type '0' (for 'FAKE').", (press the spacebar to continue),5dedbcdb63c57946d82c27e8,Mexican,13 or older,"yes, I am fluent in another language",no,2025-07-24_09h07.28.227,empathy_intonation_perc_control,2024.2.4,MacIntel,60.60606061,5dedbcdb63c57946d82c27e8,68817205a84113384fffdfe3,68822fbd891632a18c6cb8ce,,,,,,,,,,,,,,,,,,,,,,,,,,,,,,284.4568,289.4874,0,1,1,1,1,,,,,,,,,,,,,,,,,,,,,,,,,,,,,,,,,,,,,,,,,,,,,,,,,
,,,,,,,"If you are sure that the word exists, even though you don’t know its exact meaning, you may still respond '1' (REAL). 
  
  But if you are not sure if it is an existing word, you should respond '0' (FAKE).
  
  Let's do a practice round...", (press the spacebar to continue),5dedbcdb63c57946d82c27e8,Mexican,13 or older,"yes, I am fluent in another language",no,2025-07-24_09h07.28.227,empathy_intonation_perc_control,2024.2.4,MacIntel,60.60606061,5dedbcdb63c57946d82c27e8,68817205a84113384fffdfe3,68822fbd891632a18c6cb8ce,,,,,,,,,,,,,,,,,,,,,,,,,,,,,,289.49,297.0544,0,2,2,2,1,,,,,,,,,,,,,,,,,,,,,,,,,,,,,,,,,,,,,,,,,,,,,,,,,
,,,,,,,,,5dedbcdb63c57946d82c27e8,Mexican,13 or older,"yes, I am fluent in another language",no,2025-07-24_09h07.28.227,empathy_intonation_perc_control,2024.2.4,MacIntel,60.60606061,5dedbcdb63c57946d82c27e8,68817205a84113384fffdfe3,68822fbd891632a18c6cb8ce,,,,,,,,,,,,,0,,,,,,,,,,,,,,,,,,,,,,,,297.0617,299.0879,0,1,1.4924,,299.0882,300.0881,0,0,0,0,1,0,depiste,REAL,FAKE,,,,,,,,,,,,,,,,,,,,,,,,,,,,,,,,
,,,,,,,,,5dedbcdb63c57946d82c27e8,Mexican,13 or older,"yes, I am fluent in another language",no,2025-07-24_09h07.28.227,empathy_intonation_perc_control,2024.2.4,MacIntel,60.60606061,5dedbcdb63c57946d82c27e8,68817205a84113384fffdfe3,68822fbd891632a18c6cb8ce,,,,,,,,,,,,,1,,,,,,,,,,,,,,,,,,,,,,,,300.0895,301.5875,1,1,0.956,,301.5877,302.5877,0,1,1,1,1,0,sí,REAL,FAKE,,,,,,,,,,,,,,,,,,,,,,,,,,,,,,,,
,,,,,,,,,5dedbcdb63c57946d82c27e8,Mexican,13 or older,"yes, I am fluent in another language",no,2025-07-24_09h07.28.227,empathy_intonation_perc_control,2024.2.4,MacIntel,60.60606061,5dedbcdb63c57946d82c27e8,68817205a84113384fffdfe3,68822fbd891632a18c6cb8ce,,,,,,,,,,,,,0,,,,,,,,,,,,,,,,,,,,,,,,302.589,304.0212,1,0,0.8975,,304.0221,305.0211,0,2,2,2,1,0,coné,REAL,FAKE,,,,,,,,,,,,,,,,,,,,,,,,,,,,,,,,
,,,,,,,,,5dedbcdb63c57946d82c27e8,Mexican,13 or older,"yes, I am fluent in another language",no,2025-07-24_09h07.28.227,empathy_intonation_perc_control,2024.2.4,MacIntel,60.60606061,5dedbcdb63c57946d82c27e8,68817205a84113384fffdfe3,68822fbd891632a18c6cb8ce,,,,,,,,,,,,,0,,,,,,,,,,,,,,,,,,,,,,,,305.0225,306.3545,1,0,0.7891,,306.3545,307.3546,0,3,3,3,1,0,calpar,REAL,FAKE,,,,,,,,,,,,,,,,,,,,,,,,,,,,,,,,
,,,,,,,,,5dedbcdb63c57946d82c27e8,Mexican,13 or older,"yes, I am fluent in another language",no,2025-07-24_09h07.28.227,empathy_intonation_perc_control,2024.2.4,MacIntel,60.60606061,5dedbcdb63c57946d82c27e8,68817205a84113384fffdfe3,68822fbd891632a18c6cb8ce,,,,,,,,,,,,,0,,,,,,,,,,,,,,,,,,,,,,,,307.3563,309.0545,1,0,1.1678,,309.0546,310.0546,0,4,4,4,1,0,joten,REAL,FAKE,,,,,,,,,,,,,,,,,,,,,,,,,,,,,,,,
,,,,,,,,,5dedbcdb63c57946d82c27e8,Mexican,13 or older,"yes, I am fluent in another language",no,2025-07-24_09h07.28.227,empathy_intonation_perc_control,2024.2.4,MacIntel,60.60606061,5dedbcdb63c57946d82c27e8,68817205a84113384fffdfe3,68822fbd891632a18c6cb8ce,,,,,,,,,,,,,1,,,,,,,,,,,,,,,,,,,,,,,,310.0559,311.8374,0,0,1.2439,,311.8375,312.8381,0,5,5,5,1,0,sacapuntas,REAL,FAKE,,,,,,,,,,,,,,,,,,,,,,,,,,,,,,,,
,,,,,,,,,5dedbcdb63c57946d82c27e8,Mexican,13 or older,"yes, I am fluent in another language",no,2025-07-24_09h07.28.227,empathy_intonation_perc_control,2024.2.4,MacIntel,60.60606061,5dedbcdb63c57946d82c27e8,68817205a84113384fffdfe3,68822fbd891632a18c6cb8ce,,,,,,,,,,,,,0,,,,,,,,,,,,,,,,,,,,,,,,312.8394,314.188,1,0,0.8049,,314.1881,315.1882,0,6,6,6,1,0,priba,REAL,FAKE,,,,,,,,,,,,,,,,,,,,,,,,,,,,,,,,
,,,,,,,,,5dedbcdb63c57946d82c27e8,Mexican,13 or older,"yes, I am fluent in another language",no,2025-07-24_09h07.28.227,empathy_intonation_perc_control,2024.2.4,MacIntel,60.60606061,5dedbcdb63c57946d82c27e8,68817205a84113384fffdfe3,68822fbd891632a18c6cb8ce,,,,,,,,,,,,,0,,,,,,,,,,,,,,,,,,,,,,,,315.1893,317.0547,0,1,1.3397,,317.0555,318.0548,0,7,7,7,1,0,pelasula,REAL,FAKE,,,,,,,,,,,,,,,,,,,,,,,,,,,,,,,,
,,,,,,,,,5dedbcdb63c57946d82c27e8,Mexican,13 or older,"yes, I am fluent in another language",no,2025-07-24_09h07.28.227,empathy_intonation_perc_control,2024.2.4,MacIntel,60.60606061,5dedbcdb63c57946d82c27e8,68817205a84113384fffdfe3,68822fbd891632a18c6cb8ce,,,,,,,,,,,,,1,,,,,,,,,,,,,,,,,,,,,,,,318.0559,319.3377,1,1,0.7447,,319.3378,320.3382,0,8,8,8,1,0,bien,REAL,FAKE,,,,,,,,,,,,,,,,,,,,,,,,,,,,,,,,
,,,,,,,,,5dedbcdb63c57946d82c27e8,Mexican,13 or older,"yes, I am fluent in another language",no,2025-07-24_09h07.28.227,empathy_intonation_perc_control,2024.2.4,MacIntel,60.60606061,5dedbcdb63c57946d82c27e8,68817205a84113384fffdfe3,68822fbd891632a18c6cb8ce,,,,,,,,,,,,,1,,,,,,,,,,,,,,,,,,,,,,,,320.3393,321.5547,1,1,0.689,,321.5548,322.5551,0,9,9,9,1,0,casa,REAL,FAKE,,,,,,,,,,,,,,,,,,,,,,,,,,,,,,,,
,,,,,,,,,5dedbcdb63c57946d82c27e8,Mexican,13 or older,"yes, I am fluent in another language",no,2025-07-24_09h07.28.227,empathy_intonation_perc_control,2024.2.4,MacIntel,60.60606061,5dedbcdb63c57946d82c27e8,68817205a84113384fffdfe3,68822fbd891632a18c6cb8ce,,,,,,,,,,,,,0,,,,,,,,,,,,,,,,,,,,,,,,322.5562,323.9385,1,0,0.8445,,323.9393,324.9383,0,10,10,10,1,0,lejo,REAL,FAKE,,,,,,,,,,,,,,,,,,,,,,,,,,,,,,,,
,,,,,,,,,5dedbcdb63c57946d82c27e8,Mexican,13 or older,"yes, I am fluent in another language",no,2025-07-24_09h07.28.227,empathy_intonation_perc_control,2024.2.4,MacIntel,60.60606061,5dedbcdb63c57946d82c27e8,68817205a84113384fffdfe3,68822fbd891632a18c6cb8ce,,,,,,,,,,,,,0,,,,,,,,,,,,,,,,,,,,,,,,324.9395,326.6552,0,1,1.1774,,326.6559,327.6552,0,11,11,11,1,0,pretantas,REAL,FAKE,,,,,,,,,,,,,,,,,,,,,,,,,,,,,,,,
,,,,,,,,,5dedbcdb63c57946d82c27e8,Mexican,13 or older,"yes, I am fluent in another language",no,2025-07-24_09h07.28.227,empathy_intonation_perc_control,2024.2.4,MacIntel,60.60606061,5dedbcdb63c57946d82c27e8,68817205a84113384fffdfe3,68822fbd891632a18c6cb8ce,,,,,,,,,,,,,,,,,,,,,,,,,,,,,,,,,,,,,,,,,,,,,,,,,,,,,,327.6557,328.4724,,,,,,,,,,,,,,,,,,,,,,,,,,,,,,
,,,,,,,,,5dedbcdb63c57946d82c27e8,Mexican,13 or older,"yes, I am fluent in another language",no,2025-07-24_09h07.28.227,empathy_intonation_perc_control,2024.2.4,MacIntel,60.60606061,5dedbcdb63c57946d82c27e8,68817205a84113384fffdfe3,68822fbd891632a18c6cb8ce,,,,,,,,,,,,,1,,,,,,,,,,,,,,,,,,,,,,,,,,,,,,,,,,,,,43,canela,,,,,328.4839,330.0057,1,1,1.0089,,0,0,0,42,1,REAL,FAKE,,,,,,,,,,,,,,,,,
,,,,,,,,,5dedbcdb63c57946d82c27e8,Mexican,13 or older,"yes, I am fluent in another language",no,2025-07-24_09h07.28.227,empathy_intonation_perc_control,2024.2.4,MacIntel,60.60606061,5dedbcdb63c57946d82c27e8,68817205a84113384fffdfe3,68822fbd891632a18c6cb8ce,,,,,,,,,,,,,1,,,,,,,,,,,,,,,,,,,,,,,,,,,,,,,,,,,,,45,jilguero,,,,,330.007,331.6052,0,0,1.0597,,0,1,1,44,1,REAL,FAKE,,,,,,,,,,,,,,,,,
,,,,,,,,,5dedbcdb63c57946d82c27e8,Mexican,13 or older,"yes, I am fluent in another language",no,2025-07-24_09h07.28.227,empathy_intonation_perc_control,2024.2.4,MacIntel,60.60606061,5dedbcdb63c57946d82c27e8,68817205a84113384fffdfe3,68822fbd891632a18c6cb8ce,,,,,,,,,,,,,1,,,,,,,,,,,,,,,,,,,,,,,,,,,,,,,,,,,,,31,pandilla,,,,,331.6063,333.0386,1,1,0.8955,,0,2,2,30,1,REAL,FAKE,,,,,,,,,,,,,,,,,
,,,,,,,,,5dedbcdb63c57946d82c27e8,Mexican,13 or older,"yes, I am fluent in another language",no,2025-07-24_09h07.28.227,empathy_intonation_perc_control,2024.2.4,MacIntel,60.60606061,5dedbcdb63c57946d82c27e8,68817205a84113384fffdfe3,68822fbd891632a18c6cb8ce,,,,,,,,,,,,,1,,,,,,,,,,,,,,,,,,,,,,,,,,,,,,,,,,,,,78,frondoso,,,,,333.0399,334.5054,0,0,0.9262,,0,3,3,77,1,REAL,FAKE,,,,,,,,,,,,,,,,,
,,,,,,,,,5dedbcdb63c57946d82c27e8,Mexican,13 or older,"yes, I am fluent in another language",no,2025-07-24_09h07.28.227,empathy_intonation_perc_control,2024.2.4,MacIntel,60.60606061,5dedbcdb63c57946d82c27e8,68817205a84113384fffdfe3,68822fbd891632a18c6cb8ce,,,,,,,,,,,,,0,,,,,,,,,,,,,,,,,,,,,,,,,,,,,,,,,,,,,58,plaudir,,,,,334.5064,336.1055,1,0,1.0625,,0,4,4,57,1,REAL,FAKE,,,,,,,,,,,,,,,,,
,,,,,,,,,5dedbcdb63c57946d82c27e8,Mexican,13 or older,"yes, I am fluent in another language",no,2025-07-24_09h07.28.227,empathy_intonation_perc_control,2024.2.4,MacIntel,60.60606061,5dedbcdb63c57946d82c27e8,68817205a84113384fffdfe3,68822fbd891632a18c6cb8ce,,,,,,,,,,,,,0,,,,,,,,,,,,,,,,,,,,,,,,,,,,,,,,,,,,,1,terzo,,,,,336.1071,337.8054,0,1,1.1577,,0,5,5,0,1,REAL,FAKE,,,,,,,,,,,,,,,,,
,,,,,,,,,5dedbcdb63c57946d82c27e8,Mexican,13 or older,"yes, I am fluent in another language",no,2025-07-24_09h07.28.227,empathy_intonation_perc_control,2024.2.4,MacIntel,60.60606061,5dedbcdb63c57946d82c27e8,68817205a84113384fffdfe3,68822fbd891632a18c6cb8ce,,,,,,,,,,,,,1,,,,,,,,,,,,,,,,,,,,,,,,,,,,,,,,,,,,,9,hacha,,,,,337.8065,339.1056,1,1,0.7634,,0,6,6,8,1,REAL,FAKE,,,,,,,,,,,,,,,,,
,,,,,,,,,5dedbcdb63c57946d82c27e8,Mexican,13 or older,"yes, I am fluent in another language",no,2025-07-24_09h07.28.227,empathy_intonation_perc_control,2024.2.4,MacIntel,60.60606061,5dedbcdb63c57946d82c27e8,68817205a84113384fffdfe3,68822fbd891632a18c6cb8ce,,,,,,,,,,,,,1,,,,,,,,,,,,,,,,,,,,,,,,,,,,,,,,,,,,,3,pulmones,,,,,339.1066,340.7722,1,1,1.1334,,0,7,7,2,1,REAL,FAKE,,,,,,,,,,,,,,,,,
,,,,,,,,,5dedbcdb63c57946d82c27e8,Mexican,13 or older,"yes, I am fluent in another language",no,2025-07-24_09h07.28.227,empathy_intonation_perc_control,2024.2.4,MacIntel,60.60606061,5dedbcdb63c57946d82c27e8,68817205a84113384fffdfe3,68822fbd891632a18c6cb8ce,,,,,,,,,,,,,1,,,,,,,,,,,,,,,,,,,,,,,,,,,,,,,,,,,,,54,fomentar,,,,,340.7732,342.2722,1,1,0.9757,,0,8,8,53,1,REAL,FAKE,,,,,,,,,,,,,,,,,
,,,,,,,,,5dedbcdb63c57946d82c27e8,Mexican,13 or older,"yes, I am fluent in another language",no,2025-07-24_09h07.28.227,empathy_intonation_perc_control,2024.2.4,MacIntel,60.60606061,5dedbcdb63c57946d82c27e8,68817205a84113384fffdfe3,68822fbd891632a18c6cb8ce,,,,,,,,,,,,,1,,,,,,,,,,,,,,,,,,,,,,,,,,,,,,,,,,,,,6,tergiversar,,,,,342.2733,344.5058,0,0,1.6879,,0,9,9,5,1,REAL,FAKE,,,,,,,,,,,,,,,,,
,,,,,,,,,5dedbcdb63c57946d82c27e8,Mexican,13 or older,"yes, I am fluent in another language",no,2025-07-24_09h07.28.227,empathy_intonation_perc_control,2024.2.4,MacIntel,60.60606061,5dedbcdb63c57946d82c27e8,68817205a84113384fffdfe3,68822fbd891632a18c6cb8ce,,,,,,,,,,,,,0,,,,,,,,,,,,,,,,,,,,,,,,,,,,,,,,,,,,,82,empirador,,,,,344.5068,346.1891,1,0,1.1423,,0,10,10,81,1,REAL,FAKE,,,,,,,,,,,,,,,,,
,,,,,,,,,5dedbcdb63c57946d82c27e8,Mexican,13 or older,"yes, I am fluent in another language",no,2025-07-24_09h07.28.227,empathy_intonation_perc_control,2024.2.4,MacIntel,60.60606061,5dedbcdb63c57946d82c27e8,68817205a84113384fffdfe3,68822fbd891632a18c6cb8ce,,,,,,,,,,,,,1,,,,,,,,,,,,,,,,,,,,,,,,,,,,,,,,,,,,,39,torpe,,,,,346.1901,347.6725,1,1,0.9467,,0,11,11,38,1,REAL,FAKE,,,,,,,,,,,,,,,,,
,,,,,,,,,5dedbcdb63c57946d82c27e8,Mexican,13 or older,"yes, I am fluent in another language",no,2025-07-24_09h07.28.227,empathy_intonation_perc_control,2024.2.4,MacIntel,60.60606061,5dedbcdb63c57946d82c27e8,68817205a84113384fffdfe3,68822fbd891632a18c6cb8ce,,,,,,,,,,,,,1,,,,,,,,,,,,,,,,,,,,,,,,,,,,,,,,,,,,,60,matar,,,,,347.6734,349.5063,0,0,1.3055,,0,12,12,59,1,REAL,FAKE,,,,,,,,,,,,,,,,,
,,,,,,,,,5dedbcdb63c57946d82c27e8,Mexican,13 or older,"yes, I am fluent in another language",no,2025-07-24_09h07.28.227,empathy_intonation_perc_control,2024.2.4,MacIntel,60.60606061,5dedbcdb63c57946d82c27e8,68817205a84113384fffdfe3,68822fbd891632a18c6cb8ce,,,,,,,,,,,,,0,,,,,,,,,,,,,,,,,,,,,,,,,,,,,,,,,,,,,30,alardio,,,,,349.5073,352.2893,0,1,2.2447,,0,13,13,29,1,REAL,FAKE,,,,,,,,,,,,,,,,,
,,,,,,,,,5dedbcdb63c57946d82c27e8,Mexican,13 or older,"yes, I am fluent in another language",no,2025-07-24_09h07.28.227,empathy_intonation_perc_control,2024.2.4,MacIntel,60.60606061,5dedbcdb63c57946d82c27e8,68817205a84113384fffdfe3,68822fbd891632a18c6cb8ce,,,,,,,,,,,,,1,,,,,,,,,,,,,,,,,,,,,,,,,,,,,,,,,,,,,76,atar,,,,,352.2904,353.8394,0,0,1.0144,,0,14,14,75,1,REAL,FAKE,,,,,,,,,,,,,,,,,
,,,,,,,,,5dedbcdb63c57946d82c27e8,Mexican,13 or older,"yes, I am fluent in another language",no,2025-07-24_09h07.28.227,empathy_intonation_perc_control,2024.2.4,MacIntel,60.60606061,5dedbcdb63c57946d82c27e8,68817205a84113384fffdfe3,68822fbd891632a18c6cb8ce,,,,,,,,,,,,,1,,,,,,,,,,,,,,,,,,,,,,,,,,,,,,,,,,,,,83,guante,,,,,353.8406,356.2895,1,1,1.9113,,0,15,15,82,1,REAL,FAKE,,,,,,,,,,,,,,,,,
,,,,,,,,,5dedbcdb63c57946d82c27e8,Mexican,13 or older,"yes, I am fluent in another language",no,2025-07-24_09h07.28.227,empathy_intonation_perc_control,2024.2.4,MacIntel,60.60606061,5dedbcdb63c57946d82c27e8,68817205a84113384fffdfe3,68822fbd891632a18c6cb8ce,,,,,,,,,,,,,1,,,,,,,,,,,,,,,,,,,,,,,,,,,,,,,,,,,,,57,tacaño,,,,,356.2906,357.9895,1,1,1.1548,,0,16,16,56,1,REAL,FAKE,,,,,,,,,,,,,,,,,
,,,,,,,,,5dedbcdb63c57946d82c27e8,Mexican,13 or older,"yes, I am fluent in another language",no,2025-07-24_09h07.28.227,empathy_intonation_perc_control,2024.2.4,MacIntel,60.60606061,5dedbcdb63c57946d82c27e8,68817205a84113384fffdfe3,68822fbd891632a18c6cb8ce,,,,,,,,,,,,,1,,,,,,,,,,,,,,,,,,,,,,,,,,,,,,,,,,,,,11,cenefa,,,,,357.9905,359.4894,0,0,0.9735,,0,17,17,10,1,REAL,FAKE,,,,,,,,,,,,,,,,,
,,,,,,,,,5dedbcdb63c57946d82c27e8,Mexican,13 or older,"yes, I am fluent in another language",no,2025-07-24_09h07.28.227,empathy_intonation_perc_control,2024.2.4,MacIntel,60.60606061,5dedbcdb63c57946d82c27e8,68817205a84113384fffdfe3,68822fbd891632a18c6cb8ce,,,,,,,,,,,,,1,,,,,,,,,,,,,,,,,,,,,,,,,,,,,,,,,,,,,24,látigo,,,,,359.4905,361.2061,0,0,1.1834,,0,18,18,23,1,REAL,FAKE,,,,,,,,,,,,,,,,,
,,,,,,,,,5dedbcdb63c57946d82c27e8,Mexican,13 or older,"yes, I am fluent in another language",no,2025-07-24_09h07.28.227,empathy_intonation_perc_control,2024.2.4,MacIntel,60.60606061,5dedbcdb63c57946d82c27e8,68817205a84113384fffdfe3,68822fbd891632a18c6cb8ce,,,,,,,,,,,,,1,,,,,,,,,,,,,,,,,,,,,,,,,,,,,,,,,,,,,85,laúd,,,,,361.2072,362.7896,1,1,1.045,,0,19,19,84,1,REAL,FAKE,,,,,,,,,,,,,,,,,
,,,,,,,,,5dedbcdb63c57946d82c27e8,Mexican,13 or older,"yes, I am fluent in another language",no,2025-07-24_09h07.28.227,empathy_intonation_perc_control,2024.2.4,MacIntel,60.60606061,5dedbcdb63c57946d82c27e8,68817205a84113384fffdfe3,68822fbd891632a18c6cb8ce,,,,,,,,,,,,,0,,,,,,,,,,,,,,,,,,,,,,,,,,,,,,,,,,,,,33,pauca,,,,,362.7908,364.2564,1,0,0.9343,,0,20,20,32,1,REAL,FAKE,,,,,,,,,,,,,,,,,
,,,,,,,,,5dedbcdb63c57946d82c27e8,Mexican,13 or older,"yes, I am fluent in another language",no,2025-07-24_09h07.28.227,empathy_intonation_perc_control,2024.2.4,MacIntel,60.60606061,5dedbcdb63c57946d82c27e8,68817205a84113384fffdfe3,68822fbd891632a18c6cb8ce,,,,,,,,,,,,,0,,,,,,,,,,,,,,,,,,,,,,,,,,,,,,,,,,,,,42,cadallo,,,,,364.2575,366.2565,1,0,1.4667,,0,21,21,41,1,REAL,FAKE,,,,,,,,,,,,,,,,,
,,,,,,,,,5dedbcdb63c57946d82c27e8,Mexican,13 or older,"yes, I am fluent in another language",no,2025-07-24_09h07.28.227,empathy_intonation_perc_control,2024.2.4,MacIntel,60.60606061,5dedbcdb63c57946d82c27e8,68817205a84113384fffdfe3,68822fbd891632a18c6cb8ce,,,,,,,,,,,,,1,,,,,,,,,,,,,,,,,,,,,,,,,,,,,,,,,,,,,37,granuja,,,,,366.2577,367.7231,0,0,0.928,,0,22,22,36,1,REAL,FAKE,,,,,,,,,,,,,,,,,
,,,,,,,,,5dedbcdb63c57946d82c27e8,Mexican,13 or older,"yes, I am fluent in another language",no,2025-07-24_09h07.28.227,empathy_intonation_perc_control,2024.2.4,MacIntel,60.60606061,5dedbcdb63c57946d82c27e8,68817205a84113384fffdfe3,68822fbd891632a18c6cb8ce,,,,,,,,,,,,,1,,,,,,,,,,,,,,,,,,,,,,,,,,,,,,,,,,,,,46,martillo,,,,,367.7242,369.2731,0,0,1.0231,,0,23,23,45,1,REAL,FAKE,,,,,,,,,,,,,,,,,
,,,,,,,,,5dedbcdb63c57946d82c27e8,Mexican,13 or older,"yes, I am fluent in another language",no,2025-07-24_09h07.28.227,empathy_intonation_perc_control,2024.2.4,MacIntel,60.60606061,5dedbcdb63c57946d82c27e8,68817205a84113384fffdfe3,68822fbd891632a18c6cb8ce,,,,,,,,,,,,,0,,,,,,,,,,,,,,,,,,,,,,,,,,,,,,,,,,,,,53,vegada,,,,,369.2741,371.3898,0,1,1.5783,,0,24,24,52,1,REAL,FAKE,,,,,,,,,,,,,,,,,
,,,,,,,,,5dedbcdb63c57946d82c27e8,Mexican,13 or older,"yes, I am fluent in another language",no,2025-07-24_09h07.28.227,empathy_intonation_perc_control,2024.2.4,MacIntel,60.60606061,5dedbcdb63c57946d82c27e8,68817205a84113384fffdfe3,68822fbd891632a18c6cb8ce,,,,,,,,,,,,,1,,,,,,,,,,,,,,,,,,,,,,,,,,,,,,,,,,,,,5,zapato,,,,,371.3911,372.6733,1,1,0.7455,,0,25,25,4,1,REAL,FAKE,,,,,,,,,,,,,,,,,
,,,,,,,,,5dedbcdb63c57946d82c27e8,Mexican,13 or older,"yes, I am fluent in another language",no,2025-07-24_09h07.28.227,empathy_intonation_perc_control,2024.2.4,MacIntel,60.60606061,5dedbcdb63c57946d82c27e8,68817205a84113384fffdfe3,68822fbd891632a18c6cb8ce,,,,,,,,,,,,,0,,,,,,,,,,,,,,,,,,,,,,,,,,,,,,,,,,,,,87,grodo,,,,,372.6745,374.4733,0,1,1.2646,,0,26,26,86,1,REAL,FAKE,,,,,,,,,,,,,,,,,
,,,,,,,,,5dedbcdb63c57946d82c27e8,Mexican,13 or older,"yes, I am fluent in another language",no,2025-07-24_09h07.28.227,empathy_intonation_perc_control,2024.2.4,MacIntel,60.60606061,5dedbcdb63c57946d82c27e8,68817205a84113384fffdfe3,68822fbd891632a18c6cb8ce,,,,,,,,,,,,,0,,,,,,,,,,,,,,,,,,,,,,,,,,,,,,,,,,,,,84,escuto,,,,,374.4745,376.2235,0,1,1.216,,0,27,27,83,1,REAL,FAKE,,,,,,,,,,,,,,,,,
,,,,,,,,,5dedbcdb63c57946d82c27e8,Mexican,13 or older,"yes, I am fluent in another language",no,2025-07-24_09h07.28.227,empathy_intonation_perc_control,2024.2.4,MacIntel,60.60606061,5dedbcdb63c57946d82c27e8,68817205a84113384fffdfe3,68822fbd891632a18c6cb8ce,,,,,,,,,,,,,0,,,,,,,,,,,,,,,,,,,,,,,,,,,,,,,,,,,,,66,hacido,,,,,376.2246,378.6734,1,0,1.9258,,0,28,28,65,1,REAL,FAKE,,,,,,,,,,,,,,,,,
,,,,,,,,,5dedbcdb63c57946d82c27e8,Mexican,13 or older,"yes, I am fluent in another language",no,2025-07-24_09h07.28.227,empathy_intonation_perc_control,2024.2.4,MacIntel,60.60606061,5dedbcdb63c57946d82c27e8,68817205a84113384fffdfe3,68822fbd891632a18c6cb8ce,,,,,,,,,,,,,1,,,,,,,,,,,,,,,,,,,,,,,,,,,,,,,,,,,,,51,candado,,,,,378.6745,380.1406,0,0,0.9402,,0,29,29,50,1,REAL,FAKE,,,,,,,,,,,,,,,,,
,,,,,,,,,5dedbcdb63c57946d82c27e8,Mexican,13 or older,"yes, I am fluent in another language",no,2025-07-24_09h07.28.227,empathy_intonation_perc_control,2024.2.4,MacIntel,60.60606061,5dedbcdb63c57946d82c27e8,68817205a84113384fffdfe3,68822fbd891632a18c6cb8ce,,,,,,,,,,,,,0,,,,,,,,,,,,,,,,,,,,,,,,,,,,,,,,,,,,,17,floroso,,,,,380.1418,381.8404,0,1,1.1667,,0,30,30,16,1,REAL,FAKE,,,,,,,,,,,,,,,,,
,,,,,,,,,5dedbcdb63c57946d82c27e8,Mexican,13 or older,"yes, I am fluent in another language",no,2025-07-24_09h07.28.227,empathy_intonation_perc_control,2024.2.4,MacIntel,60.60606061,5dedbcdb63c57946d82c27e8,68817205a84113384fffdfe3,68822fbd891632a18c6cb8ce,,,,,,,,,,,,,1,,,,,,,,,,,,,,,,,,,,,,,,,,,,,,,,,,,,,48,ladrón,,,,,381.8416,383.5236,0,0,1.1396,,0,31,31,47,1,REAL,FAKE,,,,,,,,,,,,,,,,,
,,,,,,,,,5dedbcdb63c57946d82c27e8,Mexican,13 or older,"yes, I am fluent in another language",no,2025-07-24_09h07.28.227,empathy_intonation_perc_control,2024.2.4,MacIntel,60.60606061,5dedbcdb63c57946d82c27e8,68817205a84113384fffdfe3,68822fbd891632a18c6cb8ce,,,,,,,,,,,,,1,,,,,,,,,,,,,,,,,,,,,,,,,,,,,,,,,,,,,49,ganar,,,,,383.5246,385.2403,0,0,1.1792,,0,32,32,48,1,REAL,FAKE,,,,,,,,,,,,,,,,,
,,,,,,,,,5dedbcdb63c57946d82c27e8,Mexican,13 or older,"yes, I am fluent in another language",no,2025-07-24_09h07.28.227,empathy_intonation_perc_control,2024.2.4,MacIntel,60.60606061,5dedbcdb63c57946d82c27e8,68817205a84113384fffdfe3,68822fbd891632a18c6cb8ce,,,,,,,,,,,,,0,,,,,,,,,,,,,,,,,,,,,,,,,,,,,,,,,,,,,16,abracer,,,,,385.2413,386.5237,1,0,0.7445,,0,33,33,15,1,REAL,FAKE,,,,,,,,,,,,,,,,,
,,,,,,,,,5dedbcdb63c57946d82c27e8,Mexican,13 or older,"yes, I am fluent in another language",no,2025-07-24_09h07.28.227,empathy_intonation_perc_control,2024.2.4,MacIntel,60.60606061,5dedbcdb63c57946d82c27e8,68817205a84113384fffdfe3,68822fbd891632a18c6cb8ce,,,,,,,,,,,,,1,,,,,,,,,,,,,,,,,,,,,,,,,,,,,,,,,,,,,28,merodear,,,,,386.5247,388.2571,0,0,1.1996,,0,34,34,27,1,REAL,FAKE,,,,,,,,,,,,,,,,,
,,,,,,,,,5dedbcdb63c57946d82c27e8,Mexican,13 or older,"yes, I am fluent in another language",no,2025-07-24_09h07.28.227,empathy_intonation_perc_control,2024.2.4,MacIntel,60.60606061,5dedbcdb63c57946d82c27e8,68817205a84113384fffdfe3,68822fbd891632a18c6cb8ce,,,,,,,,,,,,,0,,,,,,,,,,,,,,,,,,,,,,,,,,,,,,,,,,,,,10,antar,,,,,388.2583,389.7739,0,1,0.9733,,0,35,35,9,1,REAL,FAKE,,,,,,,,,,,,,,,,,
,,,,,,,,,5dedbcdb63c57946d82c27e8,Mexican,13 or older,"yes, I am fluent in another language",no,2025-07-24_09h07.28.227,empathy_intonation_perc_control,2024.2.4,MacIntel,60.60606061,5dedbcdb63c57946d82c27e8,68817205a84113384fffdfe3,68822fbd891632a18c6cb8ce,,,,,,,,,,,,,1,,,,,,,,,,,,,,,,,,,,,,,,,,,,,,,,,,,,,67,cabello,,,,,389.7751,391.2239,1,1,0.9114,,0,36,36,66,1,REAL,FAKE,,,,,,,,,,,,,,,,,
,,,,,,,,,5dedbcdb63c57946d82c27e8,Mexican,13 or older,"yes, I am fluent in another language",no,2025-07-24_09h07.28.227,empathy_intonation_perc_control,2024.2.4,MacIntel,60.60606061,5dedbcdb63c57946d82c27e8,68817205a84113384fffdfe3,68822fbd891632a18c6cb8ce,,,,,,,,,,,,,1,,,,,,,,,,,,,,,,,,,,,,,,,,,,,,,,,,,,,52,camisa,,,,,391.2252,392.5245,1,1,0.7747,,0,37,37,51,1,REAL,FAKE,,,,,,,,,,,,,,,,,
,,,,,,,,,5dedbcdb63c57946d82c27e8,Mexican,13 or older,"yes, I am fluent in another language",no,2025-07-24_09h07.28.227,empathy_intonation_perc_control,2024.2.4,MacIntel,60.60606061,5dedbcdb63c57946d82c27e8,68817205a84113384fffdfe3,68822fbd891632a18c6cb8ce,,,,,,,,,,,,,1,,,,,,,,,,,,,,,,,,,,,,,,,,,,,,,,,,,,,22,lacayo,,,,,392.5256,393.8572,0,0,0.7873,,0,38,38,21,1,REAL,FAKE,,,,,,,,,,,,,,,,,
,,,,,,,,,5dedbcdb63c57946d82c27e8,Mexican,13 or older,"yes, I am fluent in another language",no,2025-07-24_09h07.28.227,empathy_intonation_perc_control,2024.2.4,MacIntel,60.60606061,5dedbcdb63c57946d82c27e8,68817205a84113384fffdfe3,68822fbd891632a18c6cb8ce,,,,,,,,,,,,,1,,,,,,,,,,,,,,,,,,,,,,,,,,,,,,,,,,,,,15,regar,,,,,393.8583,395.5908,0,0,1.1967,,0,39,39,14,1,REAL,FAKE,,,,,,,,,,,,,,,,,
,,,,,,,,,5dedbcdb63c57946d82c27e8,Mexican,13 or older,"yes, I am fluent in another language",no,2025-07-24_09h07.28.227,empathy_intonation_perc_control,2024.2.4,MacIntel,60.60606061,5dedbcdb63c57946d82c27e8,68817205a84113384fffdfe3,68822fbd891632a18c6cb8ce,,,,,,,,,,,,,1,,,,,,,,,,,,,,,,,,,,,,,,,,,,,,,,,,,,,80,hormiga,,,,,395.5919,397.357,0,0,1.2321,,0,40,40,79,1,REAL,FAKE,,,,,,,,,,,,,,,,,
,,,,,,,,,5dedbcdb63c57946d82c27e8,Mexican,13 or older,"yes, I am fluent in another language",no,2025-07-24_09h07.28.227,empathy_intonation_perc_control,2024.2.4,MacIntel,60.60606061,5dedbcdb63c57946d82c27e8,68817205a84113384fffdfe3,68822fbd891632a18c6cb8ce,,,,,,,,,,,,,0,,,,,,,,,,,,,,,,,,,,,,,,,,,,,,,,,,,,,92,click the 0 key.,,,,,397.3581,399.3906,0,1,1.5,,0,41,41,91,1,REAL,FAKE,,,,,,,,,,,,,,,,,
,,,,,,,,,5dedbcdb63c57946d82c27e8,Mexican,13 or older,"yes, I am fluent in another language",no,2025-07-24_09h07.28.227,empathy_intonation_perc_control,2024.2.4,MacIntel,60.60606061,5dedbcdb63c57946d82c27e8,68817205a84113384fffdfe3,68822fbd891632a18c6cb8ce,,,,,,,,,,,,,1,,,,,,,,,,,,,,,,,,,,,,,,,,,,,,,,,,,,,81,pozo,,,,,399.3916,400.8076,0,0,0.8714,,0,42,42,80,1,REAL,FAKE,,,,,,,,,,,,,,,,,
,,,,,,,,,5dedbcdb63c57946d82c27e8,Mexican,13 or older,"yes, I am fluent in another language",no,2025-07-24_09h07.28.227,empathy_intonation_perc_control,2024.2.4,MacIntel,60.60606061,5dedbcdb63c57946d82c27e8,68817205a84113384fffdfe3,68822fbd891632a18c6cb8ce,,,,,,,,,,,,,1,,,,,,,,,,,,,,,,,,,,,,,,,,,,,,,,,,,,,26,secuestro,,,,,400.8086,403.1409,1,1,1.7963,,0,43,43,25,1,REAL,FAKE,,,,,,,,,,,,,,,,,
,,,,,,,,,5dedbcdb63c57946d82c27e8,Mexican,13 or older,"yes, I am fluent in another language",no,2025-07-24_09h07.28.227,empathy_intonation_perc_control,2024.2.4,MacIntel,60.60606061,5dedbcdb63c57946d82c27e8,68817205a84113384fffdfe3,68822fbd891632a18c6cb8ce,,,,,,,,,,,,,1,,,,,,,,,,,,,,,,,,,,,,,,,,,,,,,,,,,,,41,rebuscar,,,,,403.1419,405.0243,0,0,1.3471,,0,44,44,40,1,REAL,FAKE,,,,,,,,,,,,,,,,,
,,,,,,,,,5dedbcdb63c57946d82c27e8,Mexican,13 or older,"yes, I am fluent in another language",no,2025-07-24_09h07.28.227,empathy_intonation_perc_control,2024.2.4,MacIntel,60.60606061,5dedbcdb63c57946d82c27e8,68817205a84113384fffdfe3,68822fbd891632a18c6cb8ce,,,,,,,,,,,,,0,,,,,,,,,,,,,,,,,,,,,,,,,,,,,,,,,,,,,19,brecedad,,,,,405.0252,406.4741,0,1,0.9112,,0,45,45,18,1,REAL,FAKE,,,,,,,,,,,,,,,,,
,,,,,,,,,5dedbcdb63c57946d82c27e8,Mexican,13 or older,"yes, I am fluent in another language",no,2025-07-24_09h07.28.227,empathy_intonation_perc_control,2024.2.4,MacIntel,60.60606061,5dedbcdb63c57946d82c27e8,68817205a84113384fffdfe3,68822fbd891632a18c6cb8ce,,,,,,,,,,,,,0,,,,,,,,,,,,,,,,,,,,,,,,,,,,,,,,,,,,,8,cadeña,,,,,406.4753,408.6077,0,1,1.5946,,0,46,46,7,1,REAL,FAKE,,,,,,,,,,,,,,,,,
,,,,,,,,,5dedbcdb63c57946d82c27e8,Mexican,13 or older,"yes, I am fluent in another language",no,2025-07-24_09h07.28.227,empathy_intonation_perc_control,2024.2.4,MacIntel,60.60606061,5dedbcdb63c57946d82c27e8,68817205a84113384fffdfe3,68822fbd891632a18c6cb8ce,,,,,,,,,,,,,0,,,,,,,,,,,,,,,,,,,,,,,,,,,,,,,,,,,,,47,cartinar,,,,,408.6088,411.7245,1,0,2.5743,,0,47,47,46,1,REAL,FAKE,,,,,,,,,,,,,,,,,
,,,,,,,,,5dedbcdb63c57946d82c27e8,Mexican,13 or older,"yes, I am fluent in another language",no,2025-07-24_09h07.28.227,empathy_intonation_perc_control,2024.2.4,MacIntel,60.60606061,5dedbcdb63c57946d82c27e8,68817205a84113384fffdfe3,68822fbd891632a18c6cb8ce,,,,,,,,,,,,,0,,,,,,,,,,,,,,,,,,,,,,,,,,,,,,,,,,,,,4,batillón,,,,,411.7256,413.0912,1,0,0.8383,,0,48,48,3,1,REAL,FAKE,,,,,,,,,,,,,,,,,
,,,,,,,,,5dedbcdb63c57946d82c27e8,Mexican,13 or older,"yes, I am fluent in another language",no,2025-07-24_09h07.28.227,empathy_intonation_perc_control,2024.2.4,MacIntel,60.60606061,5dedbcdb63c57946d82c27e8,68817205a84113384fffdfe3,68822fbd891632a18c6cb8ce,,,,,,,,,,,,,1,,,,,,,,,,,,,,,,,,,,,,,,,,,,,,,,,,,,,75,yacer,,,,,413.0923,414.8913,0,0,1.2612,,0,49,49,74,1,REAL,FAKE,,,,,,,,,,,,,,,,,
,,,,,,,,,5dedbcdb63c57946d82c27e8,Mexican,13 or older,"yes, I am fluent in another language",no,2025-07-24_09h07.28.227,empathy_intonation_perc_control,2024.2.4,MacIntel,60.60606061,5dedbcdb63c57946d82c27e8,68817205a84113384fffdfe3,68822fbd891632a18c6cb8ce,,,,,,,,,,,,,1,,,,,,,,,,,,,,,,,,,,,,,,,,,,,,,,,,,,,36,loro,,,,,414.8927,416.5914,0,0,1.1625,,0,50,50,35,1,REAL,FAKE,,,,,,,,,,,,,,,,,
,,,,,,,,,5dedbcdb63c57946d82c27e8,Mexican,13 or older,"yes, I am fluent in another language",no,2025-07-24_09h07.28.227,empathy_intonation_perc_control,2024.2.4,MacIntel,60.60606061,5dedbcdb63c57946d82c27e8,68817205a84113384fffdfe3,68822fbd891632a18c6cb8ce,,,,,,,,,,,,,0,,,,,,,,,,,,,,,,,,,,,,,,,,,,,,,,,,,,,21,capillo,,,,,416.5926,418.1081,0,1,0.9804,,0,51,51,20,1,REAL,FAKE,,,,,,,,,,,,,,,,,
,,,,,,,,,5dedbcdb63c57946d82c27e8,Mexican,13 or older,"yes, I am fluent in another language",no,2025-07-24_09h07.28.227,empathy_intonation_perc_control,2024.2.4,MacIntel,60.60606061,5dedbcdb63c57946d82c27e8,68817205a84113384fffdfe3,68822fbd891632a18c6cb8ce,,,,,,,,,,,,,1,,,,,,,,,,,,,,,,,,,,,,,,,,,,,,,,,,,,,34,aviso,,,,,418.1092,419.6414,1,1,0.9917,,0,52,52,33,1,REAL,FAKE,,,,,,,,,,,,,,,,,
,,,,,,,,,5dedbcdb63c57946d82c27e8,Mexican,13 or older,"yes, I am fluent in another language",no,2025-07-24_09h07.28.227,empathy_intonation_perc_control,2024.2.4,MacIntel,60.60606061,5dedbcdb63c57946d82c27e8,68817205a84113384fffdfe3,68822fbd891632a18c6cb8ce,,,,,,,,,,,,,1,,,,,,,,,,,,,,,,,,,,,,,,,,,,,,,,,,,,,55,nevar,,,,,419.6426,421.6083,0,0,1.4321,,0,53,53,54,1,REAL,FAKE,,,,,,,,,,,,,,,,,
,,,,,,,,,5dedbcdb63c57946d82c27e8,Mexican,13 or older,"yes, I am fluent in another language",no,2025-07-24_09h07.28.227,empathy_intonation_perc_control,2024.2.4,MacIntel,60.60606061,5dedbcdb63c57946d82c27e8,68817205a84113384fffdfe3,68822fbd891632a18c6cb8ce,,,,,,,,,,,,,1,,,,,,,,,,,,,,,,,,,,,,,,,,,,,,,,,,,,,12,asesinato,,,,,421.6094,423.0917,0,0,0.9441,,0,54,54,11,1,REAL,FAKE,,,,,,,,,,,,,,,,,
,,,,,,,,,5dedbcdb63c57946d82c27e8,Mexican,13 or older,"yes, I am fluent in another language",no,2025-07-24_09h07.28.227,empathy_intonation_perc_control,2024.2.4,MacIntel,60.60606061,5dedbcdb63c57946d82c27e8,68817205a84113384fffdfe3,68822fbd891632a18c6cb8ce,,,,,,,,,,,,,1,,,,,,,,,,,,,,,,,,,,,,,,,,,,,,,,,,,,,65,bizcocho,,,,,423.0929,424.8417,0,0,1.2065,,0,55,55,64,1,REAL,FAKE,,,,,,,,,,,,,,,,,
,,,,,,,,,5dedbcdb63c57946d82c27e8,Mexican,13 or older,"yes, I am fluent in another language",no,2025-07-24_09h07.28.227,empathy_intonation_perc_control,2024.2.4,MacIntel,60.60606061,5dedbcdb63c57946d82c27e8,68817205a84113384fffdfe3,68822fbd891632a18c6cb8ce,,,,,,,,,,,,,0,,,,,,,,,,,,,,,,,,,,,,,,,,,,,,,,,,,,,74,cintro,,,,,424.8429,426.5583,1,0,1.1882,,0,56,56,73,1,REAL,FAKE,,,,,,,,,,,,,,,,,
,,,,,,,,,5dedbcdb63c57946d82c27e8,Mexican,13 or older,"yes, I am fluent in another language",no,2025-07-24_09h07.28.227,empathy_intonation_perc_control,2024.2.4,MacIntel,60.60606061,5dedbcdb63c57946d82c27e8,68817205a84113384fffdfe3,68822fbd891632a18c6cb8ce,,,,,,,,,,,,,0,,,,,,,,,,,,,,,,,,,,,,,,,,,,,,,,,,,,,32,fatacidad,,,,,426.5595,428.7419,0,1,1.6496,,0,57,57,31,1,REAL,FAKE,,,,,,,,,,,,,,,,,
,,,,,,,,,5dedbcdb63c57946d82c27e8,Mexican,13 or older,"yes, I am fluent in another language",no,2025-07-24_09h07.28.227,empathy_intonation_perc_control,2024.2.4,MacIntel,60.60606061,5dedbcdb63c57946d82c27e8,68817205a84113384fffdfe3,68822fbd891632a18c6cb8ce,,,,,,,,,,,,,1,,,,,,,,,,,,,,,,,,,,,,,,,,,,,,,,,,,,,88,acantilado,,,,,428.743,430.3085,0,0,1.0276,,0,58,58,87,1,REAL,FAKE,,,,,,,,,,,,,,,,,
,,,,,,,,,5dedbcdb63c57946d82c27e8,Mexican,13 or older,"yes, I am fluent in another language",no,2025-07-24_09h07.28.227,empathy_intonation_perc_control,2024.2.4,MacIntel,60.60606061,5dedbcdb63c57946d82c27e8,68817205a84113384fffdfe3,68822fbd891632a18c6cb8ce,,,,,,,,,,,,,1,,,,,,,,,,,,,,,,,,,,,,,,,,,,,,,,,,,,,25,bisagra,,,,,430.3095,431.8584,0,0,1.0175,,0,59,59,24,1,REAL,FAKE,,,,,,,,,,,,,,,,,
,,,,,,,,,5dedbcdb63c57946d82c27e8,Mexican,13 or older,"yes, I am fluent in another language",no,2025-07-24_09h07.28.227,empathy_intonation_perc_control,2024.2.4,MacIntel,60.60606061,5dedbcdb63c57946d82c27e8,68817205a84113384fffdfe3,68822fbd891632a18c6cb8ce,,,,,,,,,,,,,1,,,,,,,,,,,,,,,,,,,,,,,,,,,,,,,,,,,,,69,engatusar,,,,,431.8594,433.5085,0,0,1.1237,,0,60,60,68,1,REAL,FAKE,,,,,,,,,,,,,,,,,
,,,,,,,,,5dedbcdb63c57946d82c27e8,Mexican,13 or older,"yes, I am fluent in another language",no,2025-07-24_09h07.28.227,empathy_intonation_perc_control,2024.2.4,MacIntel,60.60606061,5dedbcdb63c57946d82c27e8,68817205a84113384fffdfe3,68822fbd891632a18c6cb8ce,,,,,,,,,,,,,1,,,,,,,,,,,,,,,,,,,,,,,,,,,,,,,,,,,,,90,clavel,,,,,433.5095,434.8253,0,0,0.7843,,0,61,61,89,1,REAL,FAKE,,,,,,,,,,,,,,,,,
,,,,,,,,,5dedbcdb63c57946d82c27e8,Mexican,13 or older,"yes, I am fluent in another language",no,2025-07-24_09h07.28.227,empathy_intonation_perc_control,2024.2.4,MacIntel,60.60606061,5dedbcdb63c57946d82c27e8,68817205a84113384fffdfe3,68822fbd891632a18c6cb8ce,,,,,,,,,,,,,1,,,,,,,,,,,,,,,,,,,,,,,,,,,,,,,,,,,,,7,pésimo,,,,,434.8266,436.1921,1,1,0.8391,,0,62,62,6,1,REAL,FAKE,,,,,,,,,,,,,,,,,
,,,,,,,,,5dedbcdb63c57946d82c27e8,Mexican,13 or older,"yes, I am fluent in another language",no,2025-07-24_09h07.28.227,empathy_intonation_perc_control,2024.2.4,MacIntel,60.60606061,5dedbcdb63c57946d82c27e8,68817205a84113384fffdfe3,68822fbd891632a18c6cb8ce,,,,,,,,,,,,,0,,,,,,,,,,,,,,,,,,,,,,,,,,,,,,,,,,,,,50,flamida,,,,,436.1932,437.9756,1,0,1.2575,,0,63,63,49,1,REAL,FAKE,,,,,,,,,,,,,,,,,
,,,,,,,,,5dedbcdb63c57946d82c27e8,Mexican,13 or older,"yes, I am fluent in another language",no,2025-07-24_09h07.28.227,empathy_intonation_perc_control,2024.2.4,MacIntel,60.60606061,5dedbcdb63c57946d82c27e8,68817205a84113384fffdfe3,68822fbd891632a18c6cb8ce,,,,,,,,,,,,,0,,,,,,,,,,,,,,,,,,,,,,,,,,,,,,,,,,,,,63,esposante,,,,,437.9768,440.4421,0,1,1.9289,,0,64,64,62,1,REAL,FAKE,,,,,,,,,,,,,,,,,
,,,,,,,,,5dedbcdb63c57946d82c27e8,Mexican,13 or older,"yes, I am fluent in another language",no,2025-07-24_09h07.28.227,empathy_intonation_perc_control,2024.2.4,MacIntel,60.60606061,5dedbcdb63c57946d82c27e8,68817205a84113384fffdfe3,68822fbd891632a18c6cb8ce,,,,,,,,,,,,,0,,,,,,,,,,,,,,,,,,,,,,,,,,,,,,,,,,,,,27,acutación,,,,,440.4432,443.2258,1,0,2.2568,,0,65,65,26,1,REAL,FAKE,,,,,,,,,,,,,,,,,
,,,,,,,,,5dedbcdb63c57946d82c27e8,Mexican,13 or older,"yes, I am fluent in another language",no,2025-07-24_09h07.28.227,empathy_intonation_perc_control,2024.2.4,MacIntel,60.60606061,5dedbcdb63c57946d82c27e8,68817205a84113384fffdfe3,68822fbd891632a18c6cb8ce,,,,,,,,,,,,,0,,,,,,,,,,,,,,,,,,,,,,,,,,,,,,,,,,,,,72,pemición,,,,,443.227,444.8256,0,1,1.0613,,0,66,66,71,1,REAL,FAKE,,,,,,,,,,,,,,,,,
,,,,,,,,,5dedbcdb63c57946d82c27e8,Mexican,13 or older,"yes, I am fluent in another language",no,2025-07-24_09h07.28.227,empathy_intonation_perc_control,2024.2.4,MacIntel,60.60606061,5dedbcdb63c57946d82c27e8,68817205a84113384fffdfe3,68822fbd891632a18c6cb8ce,,,,,,,,,,,,,0,,,,,,,,,,,,,,,,,,,,,,,,,,,,,,,,,,,,,29,decar,,,,,444.8266,446.5416,1,0,1.1797,,0,67,67,28,1,REAL,FAKE,,,,,,,,,,,,,,,,,
,,,,,,,,,5dedbcdb63c57946d82c27e8,Mexican,13 or older,"yes, I am fluent in another language",no,2025-07-24_09h07.28.227,empathy_intonation_perc_control,2024.2.4,MacIntel,60.60606061,5dedbcdb63c57946d82c27e8,68817205a84113384fffdfe3,68822fbd891632a18c6cb8ce,,,,,,,,,,,,,1,,,,,,,,,,,,,,,,,,,,,,,,,,,,,,,,,,,,,86,barato,,,,,446.5425,448.059,0,0,0.9937,,0,68,68,85,1,REAL,FAKE,,,,,,,,,,,,,,,,,
,,,,,,,,,5dedbcdb63c57946d82c27e8,Mexican,13 or older,"yes, I am fluent in another language",no,2025-07-24_09h07.28.227,empathy_intonation_perc_control,2024.2.4,MacIntel,60.60606061,5dedbcdb63c57946d82c27e8,68817205a84113384fffdfe3,68822fbd891632a18c6cb8ce,,,,,,,,,,,,,1,,,,,,,,,,,,,,,,,,,,,,,,,,,,,,,,,,,,,73,hervidor,,,,,448.0602,449.5258,0,0,0.9292,,0,69,69,72,1,REAL,FAKE,,,,,,,,,,,,,,,,,
,,,,,,,,,5dedbcdb63c57946d82c27e8,Mexican,13 or older,"yes, I am fluent in another language",no,2025-07-24_09h07.28.227,empathy_intonation_perc_control,2024.2.4,MacIntel,60.60606061,5dedbcdb63c57946d82c27e8,68817205a84113384fffdfe3,68822fbd891632a18c6cb8ce,,,,,,,,,,,,,1,,,,,,,,,,,,,,,,,,,,,,,,,,,,,,,,,,,,,20,ávido,,,,,449.527,451.0584,1,1,0.9892,,0,70,70,19,1,REAL,FAKE,,,,,,,,,,,,,,,,,
,,,,,,,,,5dedbcdb63c57946d82c27e8,Mexican,13 or older,"yes, I am fluent in another language",no,2025-07-24_09h07.28.227,empathy_intonation_perc_control,2024.2.4,MacIntel,60.60606061,5dedbcdb63c57946d82c27e8,68817205a84113384fffdfe3,68822fbd891632a18c6cb8ce,,,,,,,,,,,,,0,,,,,,,,,,,,,,,,,,,,,,,,,,,,,,,,,,,,,35,rompido,,,,,451.0594,453.6927,1,0,2.1252,,0,71,71,34,1,REAL,FAKE,,,,,,,,,,,,,,,,,
,,,,,,,,,5dedbcdb63c57946d82c27e8,Mexican,13 or older,"yes, I am fluent in another language",no,2025-07-24_09h07.28.227,empathy_intonation_perc_control,2024.2.4,MacIntel,60.60606061,5dedbcdb63c57946d82c27e8,68817205a84113384fffdfe3,68822fbd891632a18c6cb8ce,,,,,,,,,,,,,1,,,,,,,,,,,,,,,,,,,,,,,,,,,,,,,,,,,,,59,besar,,,,,453.6939,455.0758,1,1,0.8557,,0,72,72,58,1,REAL,FAKE,,,,,,,,,,,,,,,,,
,,,,,,,,,5dedbcdb63c57946d82c27e8,Mexican,13 or older,"yes, I am fluent in another language",no,2025-07-24_09h07.28.227,empathy_intonation_perc_control,2024.2.4,MacIntel,60.60606061,5dedbcdb63c57946d82c27e8,68817205a84113384fffdfe3,68822fbd891632a18c6cb8ce,,,,,,,,,,,,,1,,,,,,,,,,,,,,,,,,,,,,,,,,,,,,,,,,,,,62,flaco,,,,,455.0766,456.3431,0,0,0.7408,,0,73,73,61,1,REAL,FAKE,,,,,,,,,,,,,,,,,
,,,,,,,,,5dedbcdb63c57946d82c27e8,Mexican,13 or older,"yes, I am fluent in another language",no,2025-07-24_09h07.28.227,empathy_intonation_perc_control,2024.2.4,MacIntel,60.60606061,5dedbcdb63c57946d82c27e8,68817205a84113384fffdfe3,68822fbd891632a18c6cb8ce,,,,,,,,,,,,,1,,,,,,,,,,,,,,,,,,,,,,,,,,,,,,,,,,,,,2,pellizcar,,,,,456.3441,457.6428,0,0,0.7621,,0,74,74,1,1,REAL,FAKE,,,,,,,,,,,,,,,,,
,,,,,,,,,5dedbcdb63c57946d82c27e8,Mexican,13 or older,"yes, I am fluent in another language",no,2025-07-24_09h07.28.227,empathy_intonation_perc_control,2024.2.4,MacIntel,60.60606061,5dedbcdb63c57946d82c27e8,68817205a84113384fffdfe3,68822fbd891632a18c6cb8ce,,,,,,,,,,,,,1,,,,,,,,,,,,,,,,,,,,,,,,,,,,,,,,,,,,,40,alfombra,,,,,457.6439,460.0595,0,0,1.8805,,0,75,75,39,1,REAL,FAKE,,,,,,,,,,,,,,,,,
,,,,,,,,,5dedbcdb63c57946d82c27e8,Mexican,13 or older,"yes, I am fluent in another language",no,2025-07-24_09h07.28.227,empathy_intonation_perc_control,2024.2.4,MacIntel,60.60606061,5dedbcdb63c57946d82c27e8,68817205a84113384fffdfe3,68822fbd891632a18c6cb8ce,,,,,,,,,,,,,0,,,,,,,,,,,,,,,,,,,,,,,,,,,,,,,,,,,,,79,tropaje,,,,,460.0606,462.0763,0,1,1.4716,,0,76,76,78,1,REAL,FAKE,,,,,,,,,,,,,,,,,
,,,,,,,,,5dedbcdb63c57946d82c27e8,Mexican,13 or older,"yes, I am fluent in another language",no,2025-07-24_09h07.28.227,empathy_intonation_perc_control,2024.2.4,MacIntel,60.60606061,5dedbcdb63c57946d82c27e8,68817205a84113384fffdfe3,68822fbd891632a18c6cb8ce,,,,,,,,,,,,,1,,,,,,,,,,,,,,,,,,,,,,,,,,,,,,,,,,,,,13,helar,,,,,462.0774,464.1428,0,0,1.5406,,0,77,77,12,1,REAL,FAKE,,,,,,,,,,,,,,,,,
,,,,,,,,,5dedbcdb63c57946d82c27e8,Mexican,13 or older,"yes, I am fluent in another language",no,2025-07-24_09h07.28.227,empathy_intonation_perc_control,2024.2.4,MacIntel,60.60606061,5dedbcdb63c57946d82c27e8,68817205a84113384fffdfe3,68822fbd891632a18c6cb8ce,,,,,,,,,,,,,1,,,,,,,,,,,,,,,,,,,,,,,,,,,,,,,,,,,,,14,yunque,,,,,464.144,465.4266,0,0,0.7511,,0,78,78,13,1,REAL,FAKE,,,,,,,,,,,,,,,,,
,,,,,,,,,5dedbcdb63c57946d82c27e8,Mexican,13 or older,"yes, I am fluent in another language",no,2025-07-24_09h07.28.227,empathy_intonation_perc_control,2024.2.4,MacIntel,60.60606061,5dedbcdb63c57946d82c27e8,68817205a84113384fffdfe3,68822fbd891632a18c6cb8ce,,,,,,,,,,,,,1,,,,,,,,,,,,,,,,,,,,,,,,,,,,,,,,,,,,,89,prisa,,,,,465.4276,467.3598,0,0,1.3961,,0,79,79,88,1,REAL,FAKE,,,,,,,,,,,,,,,,,
,,,,,,,,,5dedbcdb63c57946d82c27e8,Mexican,13 or older,"yes, I am fluent in another language",no,2025-07-24_09h07.28.227,empathy_intonation_perc_control,2024.2.4,MacIntel,60.60606061,5dedbcdb63c57946d82c27e8,68817205a84113384fffdfe3,68822fbd891632a18c6cb8ce,,,,,,,,,,,,,0,,,,,,,,,,,,,,,,,,,,,,,,,,,,,,,,,,,,,23,lampera,,,,,467.3609,468.6763,1,0,0.7891,,0,80,80,22,1,REAL,FAKE,,,,,,,,,,,,,,,,,
,,,,,,,,,5dedbcdb63c57946d82c27e8,Mexican,13 or older,"yes, I am fluent in another language",no,2025-07-24_09h07.28.227,empathy_intonation_perc_control,2024.2.4,MacIntel,60.60606061,5dedbcdb63c57946d82c27e8,68817205a84113384fffdfe3,68822fbd891632a18c6cb8ce,,,,,,,,,,,,,1,,,,,,,,,,,,,,,,,,,,,,,,,,,,,,,,,,,,,61,seda,,,,,468.6773,470.7765,0,0,1.5758,,0,81,81,60,1,REAL,FAKE,,,,,,,,,,,,,,,,,
,,,,,,,,,5dedbcdb63c57946d82c27e8,Mexican,13 or older,"yes, I am fluent in another language",no,2025-07-24_09h07.28.227,empathy_intonation_perc_control,2024.2.4,MacIntel,60.60606061,5dedbcdb63c57946d82c27e8,68817205a84113384fffdfe3,68822fbd891632a18c6cb8ce,,,,,,,,,,,,,1,,,,,,,,,,,,,,,,,,,,,,,,,,,,,,,,,,,,,77,tiburón,,,,,470.7776,472.6932,1,1,1.3829,,0,82,82,76,1,REAL,FAKE,,,,,,,,,,,,,,,,,
,,,,,,,,,5dedbcdb63c57946d82c27e8,Mexican,13 or older,"yes, I am fluent in another language",no,2025-07-24_09h07.28.227,empathy_intonation_perc_control,2024.2.4,MacIntel,60.60606061,5dedbcdb63c57946d82c27e8,68817205a84113384fffdfe3,68822fbd891632a18c6cb8ce,,,,,,,,,,,,,1,,,,,,,,,,,,,,,,,,,,,,,,,,,,,,,,,,,,,38,estornudar,,,,,472.6943,474.8098,1,1,1.5901,,0,83,83,37,1,REAL,FAKE,,,,,,,,,,,,,,,,,
,,,,,,,,,5dedbcdb63c57946d82c27e8,Mexican,13 or older,"yes, I am fluent in another language",no,2025-07-24_09h07.28.227,empathy_intonation_perc_control,2024.2.4,MacIntel,60.60606061,5dedbcdb63c57946d82c27e8,68817205a84113384fffdfe3,68822fbd891632a18c6cb8ce,,,,,,,,,,,,,0,,,,,,,,,,,,,,,,,,,,,,,,,,,,,,,,,,,,,18,arsa,,,,,474.8109,476.71,0,1,1.3612,,0,84,84,17,1,REAL,FAKE,,,,,,,,,,,,,,,,,
,,,,,,,,,5dedbcdb63c57946d82c27e8,Mexican,13 or older,"yes, I am fluent in another language",no,2025-07-24_09h07.28.227,empathy_intonation_perc_control,2024.2.4,MacIntel,60.60606061,5dedbcdb63c57946d82c27e8,68817205a84113384fffdfe3,68822fbd891632a18c6cb8ce,,,,,,,,,,,,,1,,,,,,,,,,,,,,,,,,,,,,,,,,,,,,,,,,,,,91,click the 1 key.,,,,,476.7112,478.1101,1,1,0.8666,,0,85,85,90,1,REAL,FAKE,,,,,,,,,,,,,,,,,
,,,,,,,,,5dedbcdb63c57946d82c27e8,Mexican,13 or older,"yes, I am fluent in another language",no,2025-07-24_09h07.28.227,empathy_intonation_perc_control,2024.2.4,MacIntel,60.60606061,5dedbcdb63c57946d82c27e8,68817205a84113384fffdfe3,68822fbd891632a18c6cb8ce,,,,,,,,,,,,,1,,,,,,,,,,,,,,,,,,,,,,,,,,,,,,,,,,,,,64,orgulloso,,,,,478.1114,479.5933,0,0,0.9439,,0,86,86,63,1,REAL,FAKE,,,,,,,,,,,,,,,,,
,,,,,,,,,5dedbcdb63c57946d82c27e8,Mexican,13 or older,"yes, I am fluent in another language",no,2025-07-24_09h07.28.227,empathy_intonation_perc_control,2024.2.4,MacIntel,60.60606061,5dedbcdb63c57946d82c27e8,68817205a84113384fffdfe3,68822fbd891632a18c6cb8ce,,,,,,,,,,,,,1,,,,,,,,,,,,,,,,,,,,,,,,,,,,,,,,,,,,,68,alegre,,,,,479.5945,482.5102,0,0,2.3785,,0,87,87,67,1,REAL,FAKE,,,,,,,,,,,,,,,,,
,,,,,,,,,5dedbcdb63c57946d82c27e8,Mexican,13 or older,"yes, I am fluent in another language",no,2025-07-24_09h07.28.227,empathy_intonation_perc_control,2024.2.4,MacIntel,60.60606061,5dedbcdb63c57946d82c27e8,68817205a84113384fffdfe3,68822fbd891632a18c6cb8ce,,,,,,,,,,,,,1,,,,,,,,,,,,,,,,,,,,,,,,,,,,,,,,,,,,,44,cuchara,,,,,482.5111,485.2103,0,0,2.161,,0,88,88,43,1,REAL,FAKE,,,,,,,,,,,,,,,,,
,,,,,,,,,5dedbcdb63c57946d82c27e8,Mexican,13 or older,"yes, I am fluent in another language",no,2025-07-24_09h07.28.227,empathy_intonation_perc_control,2024.2.4,MacIntel,60.60606061,5dedbcdb63c57946d82c27e8,68817205a84113384fffdfe3,68822fbd891632a18c6cb8ce,,,,,,,,,,,,,1,,,,,,,,,,,,,,,,,,,,,,,,,,,,,,,,,,,,,71,polvoriento,,,,,485.2115,487.8097,0,0,2.0709,,0,89,89,70,1,REAL,FAKE,,,,,,,,,,,,,,,,,
,,,,,,,,,5dedbcdb63c57946d82c27e8,Mexican,13 or older,"yes, I am fluent in another language",no,2025-07-24_09h07.28.227,empathy_intonation_perc_control,2024.2.4,MacIntel,60.60606061,5dedbcdb63c57946d82c27e8,68817205a84113384fffdfe3,68822fbd891632a18c6cb8ce,,,,,,,,,,,,,0,,,,,,,,,,,,,,,,,,,,,,,,,,,,,,,,,,,,,70,temblo,,,,,487.8108,489.527,0,1,1.2015,,0,90,90,69,1,REAL,FAKE,,,,,,,,,,,,,,,,,
,,,,,,,,,5dedbcdb63c57946d82c27e8,Mexican,13 or older,"yes, I am fluent in another language",no,2025-07-24_09h07.28.227,empathy_intonation_perc_control,2024.2.4,MacIntel,60.60606061,5dedbcdb63c57946d82c27e8,68817205a84113384fffdfe3,68822fbd891632a18c6cb8ce,,,,,,,,,,,,,1,,,,,,,,,,,,,,,,,,,,,,,,,,,,,,,,,,,,,56,musgo,,,,,489.5282,490.9604,0,0,0.8995,,0,91,91,55,1,REAL,FAKE,,,,,,,,,,,,,,,,,
,,,,,,,,,5dedbcdb63c57946d82c27e8,Mexican,13 or older,"yes, I am fluent in another language",no,2025-07-24_09h07.28.227,empathy_intonation_perc_control,2024.2.4,MacIntel,60.60606061,5dedbcdb63c57946d82c27e8,68817205a84113384fffdfe3,68822fbd891632a18c6cb8ce,,,,,,,,,,,,,,,,,,,,,,,,,,,,,,,,,,,,,,,,,,,,,,,,,,,,,,,,,,,,,,,,,,,,,490.9609,497.9278,,,,,,,,,,,,,,,
,,,,,,,,,5dedbcdb63c57946d82c27e8,Mexican,13 or older,"yes, I am fluent in another language",no,2025-07-24_09h07.28.227,empathy_intonation_perc_control,2024.2.4,MacIntel,60.60606061,5dedbcdb63c57946d82c27e8,68817205a84113384fffdfe3,68822fbd891632a18c6cb8ce,,,,,,,,,,,,,,,,,,,,,,,,,,,1,,,,,,,,,,,,,,,,,,,,,,,,,,,,,,,,,,,,,,,,,,,,497.9392,505.4942,slightly agree,0,0,0,0,1,I can easily tell if someone else wants to enter a conversation.,1,0,1,0,,
,,,,,,,,,5dedbcdb63c57946d82c27e8,Mexican,13 or older,"yes, I am fluent in another language",no,2025-07-24_09h07.28.227,empathy_intonation_perc_control,2024.2.4,MacIntel,60.60606061,5dedbcdb63c57946d82c27e8,68817205a84113384fffdfe3,68822fbd891632a18c6cb8ce,,,,,,,,,,,,,,,,,,,,,,,,,,,2,,,,,,,,,,,,,,,,,,,,,,,,,,,,,,,,,,,,,,,,,,,,505.4955,512.7278,slightly agree,0,1,1,1,1,I prefer animals to humans.,0,1,0,0,,
,,,,,,,,,5dedbcdb63c57946d82c27e8,Mexican,13 or older,"yes, I am fluent in another language",no,2025-07-24_09h07.28.227,empathy_intonation_perc_control,2024.2.4,MacIntel,60.60606061,5dedbcdb63c57946d82c27e8,68817205a84113384fffdfe3,68822fbd891632a18c6cb8ce,,,,,,,,,,,,,,,,,,,,,,,,,,,3,,,,,,,,,,,,,,,,,,,,,,,,,,,,,,,,,,,,,,,,,,,,512.7292,516.5778,slightly agree,0,2,2,2,1,I try to keep up with the current trends and fashions.,0,1,0,0,,
,,,,,,,,,5dedbcdb63c57946d82c27e8,Mexican,13 or older,"yes, I am fluent in another language",no,2025-07-24_09h07.28.227,empathy_intonation_perc_control,2024.2.4,MacIntel,60.60606061,5dedbcdb63c57946d82c27e8,68817205a84113384fffdfe3,68822fbd891632a18c6cb8ce,,,,,,,,,,,,,,,,,,,,,,,,,,,4,,,,,,,,,,,,,,,,,,,,,,,,,,,,,,,,,,,,,,,,,,,,516.5793,523.1275,strongly agree,0,3,3,3,1,"I find it difficult to explain to others things that I understand easily,   when they don't understand it first time.",1,0,0,1,,
,,,,,,,,,5dedbcdb63c57946d82c27e8,Mexican,13 or older,"yes, I am fluent in another language",no,2025-07-24_09h07.28.227,empathy_intonation_perc_control,2024.2.4,MacIntel,60.60606061,5dedbcdb63c57946d82c27e8,68817205a84113384fffdfe3,68822fbd891632a18c6cb8ce,,,,,,,,,,,,,,,,,,,,,,,,,,,5,,,,,,,,,,,,,,,,,,,,,,,,,,,,,,,,,,,,,,,,,,,,523.1288,528.3283,strongly disagree,0,4,4,4,1,I dream most nights.,0,1,0,0,,
,,,,,,,,,5dedbcdb63c57946d82c27e8,Mexican,13 or older,"yes, I am fluent in another language",no,2025-07-24_09h07.28.227,empathy_intonation_perc_control,2024.2.4,MacIntel,60.60606061,5dedbcdb63c57946d82c27e8,68817205a84113384fffdfe3,68822fbd891632a18c6cb8ce,,,,,,,,,,,,,,,,,,,,,,,,,,,6,,,,,,,,,,,,,,,,,,,,,,,,,,,,,,,,,,,,,,,,,,,,528.3297,532.0444,slightly agree,0,5,5,5,1,I really enjoy caring for other people.,1,0,1,0,,
,,,,,,,,,5dedbcdb63c57946d82c27e8,Mexican,13 or older,"yes, I am fluent in another language",no,2025-07-24_09h07.28.227,empathy_intonation_perc_control,2024.2.4,MacIntel,60.60606061,5dedbcdb63c57946d82c27e8,68817205a84113384fffdfe3,68822fbd891632a18c6cb8ce,,,,,,,,,,,,,,,,,,,,,,,,,,,7,,,,,,,,,,,,,,,,,,,,,,,,,,,,,,,,,,,,,,,,,,,,532.0458,536.4119,strongly agree,0,6,6,6,1,I try to solve my own problems rather than discussing them with others.,0,1,0,0,,
,,,,,,,,,5dedbcdb63c57946d82c27e8,Mexican,13 or older,"yes, I am fluent in another language",no,2025-07-24_09h07.28.227,empathy_intonation_perc_control,2024.2.4,MacIntel,60.60606061,5dedbcdb63c57946d82c27e8,68817205a84113384fffdfe3,68822fbd891632a18c6cb8ce,,,,,,,,,,,,,,,,,,,,,,,,,,,8,,,,,,,,,,,,,,,,,,,,,,,,,,,,,,,,,,,,,,,,,,,,536.4133,540.2619,slightly agree,0,7,7,7,1,I find it hard to know what to do in a social situation.,1,0,0,1,,
,,,,,,,,,5dedbcdb63c57946d82c27e8,Mexican,13 or older,"yes, I am fluent in another language",no,2025-07-24_09h07.28.227,empathy_intonation_perc_control,2024.2.4,MacIntel,60.60606061,5dedbcdb63c57946d82c27e8,68817205a84113384fffdfe3,68822fbd891632a18c6cb8ce,,,,,,,,,,,,,,,,,,,,,,,,,,,9,,,,,,,,,,,,,,,,,,,,,,,,,,,,,,,,,,,,,,,,,,,,540.2629,543.9453,slightly disagree,0,8,8,8,1,I am at my best first thing in the morning.,0,1,0,0,,
,,,,,,,,,5dedbcdb63c57946d82c27e8,Mexican,13 or older,"yes, I am fluent in another language",no,2025-07-24_09h07.28.227,empathy_intonation_perc_control,2024.2.4,MacIntel,60.60606061,5dedbcdb63c57946d82c27e8,68817205a84113384fffdfe3,68822fbd891632a18c6cb8ce,,,,,,,,,,,,,,,,,,,,,,,,,,,10,,,,,,,,,,,,,,,,,,,,,,,,,,,,,,,,,,,,,,,,,,,,543.9466,565.3127,slightly disagree,0,9,9,9,1,People often tell me that I went too far in driving my point home in a discussion.,1,0,0,1,,
,,,,,,,,,5dedbcdb63c57946d82c27e8,Mexican,13 or older,"yes, I am fluent in another language",no,2025-07-24_09h07.28.227,empathy_intonation_perc_control,2024.2.4,MacIntel,60.60606061,5dedbcdb63c57946d82c27e8,68817205a84113384fffdfe3,68822fbd891632a18c6cb8ce,,,,,,,,,,,,,,,,,,,,,,,,,,,11,,,,,,,,,,,,,,,,,,,,,,,,,,,,,,,,,,,,,,,,,,,,565.3138,571.9295,slightly agree,0,10,10,10,1,It doesn't bother me too much if I am late meeting a friend.,1,0,0,1,,
,,,,,,,,,5dedbcdb63c57946d82c27e8,Mexican,13 or older,"yes, I am fluent in another language",no,2025-07-24_09h07.28.227,empathy_intonation_perc_control,2024.2.4,MacIntel,60.60606061,5dedbcdb63c57946d82c27e8,68817205a84113384fffdfe3,68822fbd891632a18c6cb8ce,,,,,,,,,,,,,,,,,,,,,,,,,,,12,,,,,,,,,,,,,,,,,,,,,,,,,,,,,,,,,,,,,,,,,,,,571.9308,576.0465,strongly disagree,0,11,11,11,1,"Friendships and relationships are just too difficult, so I tend not to 
  bother with them.",1,0,0,1,,
,,,,,,,,,5dedbcdb63c57946d82c27e8,Mexican,13 or older,"yes, I am fluent in another language",no,2025-07-24_09h07.28.227,empathy_intonation_perc_control,2024.2.4,MacIntel,60.60606061,5dedbcdb63c57946d82c27e8,68817205a84113384fffdfe3,68822fbd891632a18c6cb8ce,,,,,,,,,,,,,,,,,,,,,,,,,,,13,,,,,,,,,,,,,,,,,,,,,,,,,,,,,,,,,,,,,,,,,,,,576.0483,579.6799,slightly agree,0,12,12,12,1,"I would never break a law, no matter how minor.",0,1,0,0,,
,,,,,,,,,5dedbcdb63c57946d82c27e8,Mexican,13 or older,"yes, I am fluent in another language",no,2025-07-24_09h07.28.227,empathy_intonation_perc_control,2024.2.4,MacIntel,60.60606061,5dedbcdb63c57946d82c27e8,68817205a84113384fffdfe3,68822fbd891632a18c6cb8ce,,,,,,,,,,,,,,,,,,,,,,,,,,,14,,,,,,,,,,,,,,,,,,,,,,,,,,,,,,,,,,,,,,,,,,,,579.6811,586.4965,slightly disagree,0,13,13,13,1,I often find it difficult to judge if something is rude or polite.,1,0,0,1,,
,,,,,,,,,5dedbcdb63c57946d82c27e8,Mexican,13 or older,"yes, I am fluent in another language",no,2025-07-24_09h07.28.227,empathy_intonation_perc_control,2024.2.4,MacIntel,60.60606061,5dedbcdb63c57946d82c27e8,68817205a84113384fffdfe3,68822fbd891632a18c6cb8ce,,,,,,,,,,,,,,,,,,,,,,,,,,,15,,,,,,,,,,,,,,,,,,,,,,,,,,,,,,,,,,,,,,,,,,,,586.4977,596.197,slightly agree,0,14,14,14,1,"In a conversation, I tend to focus on my own thoughts rather than on what 
  my listener might be thinking.",1,0,0,1,,
,,,,,,,,,5dedbcdb63c57946d82c27e8,Mexican,13 or older,"yes, I am fluent in another language",no,2025-07-24_09h07.28.227,empathy_intonation_perc_control,2024.2.4,MacIntel,60.60606061,5dedbcdb63c57946d82c27e8,68817205a84113384fffdfe3,68822fbd891632a18c6cb8ce,,,,,,,,,,,,,,,,,,,,,,,,,,,16,,,,,,,,,,,,,,,,,,,,,,,,,,,,,,,,,,,,,,,,,,,,596.1985,602.6472,strongly disagree,0,15,15,15,1,I prefer practical jokes to verbal humor.,0,1,0,0,,
,,,,,,,,,5dedbcdb63c57946d82c27e8,Mexican,13 or older,"yes, I am fluent in another language",no,2025-07-24_09h07.28.227,empathy_intonation_perc_control,2024.2.4,MacIntel,60.60606061,5dedbcdb63c57946d82c27e8,68817205a84113384fffdfe3,68822fbd891632a18c6cb8ce,,,,,,,,,,,,,,,,,,,,,,,,,,,17,,,,,,,,,,,,,,,,,,,,,,,,,,,,,,,,,,,,,,,,,,,,602.6482,607.3972,slightly disagree,0,16,16,16,1,I live life for today rather than the future.,0,1,0,0,,
,,,,,,,,,5dedbcdb63c57946d82c27e8,Mexican,13 or older,"yes, I am fluent in another language",no,2025-07-24_09h07.28.227,empathy_intonation_perc_control,2024.2.4,MacIntel,60.60606061,5dedbcdb63c57946d82c27e8,68817205a84113384fffdfe3,68822fbd891632a18c6cb8ce,,,,,,,,,,,,,,,,,,,,,,,,,,,18,,,,,,,,,,,,,,,,,,,,,,,,,,,,,,,,,,,,,,,,,,,,607.3982,611.3473,strongly disagree,0,17,17,17,1,"When I was a child, I enjoyed cutting up worms to see what would happen.",1,0,0,1,,
