instructions_2afc.started,instructions_2afc.stopped,instructions_2afc_loop.thisRepN,instructions_2afc_loop.thisTrialN,instructions_2afc_loop.thisN,instructions_2afc_loop.thisIndex,instructions_2afc_loop.ran,instructions_text,continue_text,participant_id,"What variety of Spanish are you most familiar with? (e.g., Peruvian, Spanish, Mexican)",At what age did you begin learning Spanish?,Are you proficient in any languages other than English/Spanish?,"Are you familiar with Caribbean (e.g., Caribbean, Puerto Rican) or Galician Spanish?",date,expName,psychopyVersion,OS,frameRate,id,study_id,session,practice_2afc.started,practice_2afc.stopped,key_resp_2afc_practice.keys,key_resp_2afc_practice.corr,key_resp_2afc_practice.rt,key_resp_2afc_practice.duration,trials_2afc_practice_loop.thisRepN,trials_2afc_practice_loop.thisTrialN,trials_2afc_practice_loop.thisN,trials_2afc_practice_loop.thisIndex,trials_2afc_practice_loop.ran,path,correct_response,check_2afc.started,check_2afc.stopped,trial_2afc.started,trial_2afc.stopped,key_resp_2afc_trial.keys,key_resp_2afc_trial.corr,key_resp_2afc_trial.rt,key_resp_2afc_trial.duration,trials_2afc_loop.thisRepN,trials_2afc_loop.thisTrialN,trials_2afc_loop.thisN,trials_2afc_loop.thisIndex,trials_2afc_loop.ran,item_num,target,variety,instructions_lextale.started,instructions_lextale.stopped,instructions_lextale_loop.thisRepN,instructions_lextale_loop.thisTrialN,instructions_lextale_loop.thisN,instructions_lextale_loop.thisIndex,instructions_lextale_loop.ran,practice_lextale.started,practice_lextale.stopped,key_resp_lextale_practice.keys,key_resp_lextale_practice.corr,key_resp_lextale_practice.rt,key_resp_lextale_practice.duration,practice_feedback_lextale.started,practice_feedback_lextale.stopped,trials_lextale_practice_loop.thisRepN,trials_lextale_practice_loop.thisTrialN,trials_lextale_practice_loop.thisN,trials_lextale_practice_loop.thisIndex,trials_lextale_practice_loop.ran,stim,word,prac_button_real,prac_button_false,check_lextale.started,check_lextale.stopped,trial_lextale.started,trial_lextale.stopped,key_resp_lextale_trial.keys,key_resp_lextale_trial.corr,key_resp_lextale_trial.rt,key_resp_lextale_trial.duration,trials_lextale_loop.thisRepN,trials_lextale_loop.thisTrialN,trials_lextale_loop.thisN,trials_lextale_loop.thisIndex,trials_lextale_loop.ran,button_real,button_false,instructions_eq.started,instructions_eq.stopped,trial_eq.started,trial_eq.stopped,slider_eq_trial.response,trials_eq_loop.thisRepN,trials_eq_loop.thisTrialN,trials_eq_loop.thisN,trials_eq_loop.thisIndex,trials_eq_loop.ran,item,is_test_item,is_distractor,is_agree_score,is_disagree_score,end_exp.started,end_exp.stopped
0.012,6.0909,0,0,0,0,1,"In the following task you are going to hear a series of utterances. 

  You will decide if the utterances sound like questions or not using your keyboard.", (press the spacebar to continue),5e3dec90ce522506a9045e17,spanish,13 or older,"no, only English or Spanish",click here to respond,2025-08-13_19h35.56.878,empathy_intonation_perc_control,2024.2.4,Win32,238.0952381,5e3dec90ce522506a9045e17,68817205a84113384fffdfe3,689d213c9fbb7adf2f454abc,,,,,,,,,,,,,,,,,,,,,,,,,,,,,,,,,,,,,,,,,,,,,,,,,,,,,,,,,,,,,,,,,,,,,,,,,,,,,,,,,,,,,
6.0913,10.8292,0,1,1,1,1,"If you believe the utterance is a question, type '1' (for 'yes') and if you do not 
  believe it is a question type '0' (for 'no').

  Let's practice a bit...", (press the spacebar to continue),5e3dec90ce522506a9045e17,spanish,13 or older,"no, only English or Spanish",click here to respond,2025-08-13_19h35.56.878,empathy_intonation_perc_control,2024.2.4,Win32,238.0952381,5e3dec90ce522506a9045e17,68817205a84113384fffdfe3,689d213c9fbb7adf2f454abc,,,,,,,,,,,,,,,,,,,,,,,,,,,,,,,,,,,,,,,,,,,,,,,,,,,,,,,,,,,,,,,,,,,,,,,,,,,,,,,,,,,,,
,,,,,,,,,5e3dec90ce522506a9045e17,spanish,13 or older,"no, only English or Spanish",click here to respond,2025-08-13_19h35.56.878,empathy_intonation_perc_control,2024.2.4,Win32,238.0952381,5e3dec90ce522506a9045e17,68817205a84113384fffdfe3,689d213c9fbb7adf2f454abc,10.8358,14.5941,1,1,3.2541,,0,0,0,0,1,./stim/wavs/castilian_question_filler_Mi-esposo-conoce-al-chico.wav,1,,,,,,,,,,,,,,,,,,,,,,,,,,,,,,,,,,,,,,,,,,,,,,,,,,,,,,,,,,,,,,,,,,,,,,,,
,,,,,,,,,5e3dec90ce522506a9045e17,spanish,13 or older,"no, only English or Spanish",click here to respond,2025-08-13_19h35.56.878,empathy_intonation_perc_control,2024.2.4,Win32,238.0952381,5e3dec90ce522506a9045e17,68817205a84113384fffdfe3,689d213c9fbb7adf2f454abc,14.5948,17.7713,0,1,2.6706,,0,1,1,6,1,./stim/wavs/peruvian_statement_filler_El-nino-habla-con-su-madre.wav,0,,,,,,,,,,,,,,,,,,,,,,,,,,,,,,,,,,,,,,,,,,,,,,,,,,,,,,,,,,,,,,,,,,,,,,,,
,,,,,,,,,5e3dec90ce522506a9045e17,spanish,13 or older,"no, only English or Spanish",click here to respond,2025-08-13_19h35.56.878,empathy_intonation_perc_control,2024.2.4,Win32,238.0952381,5e3dec90ce522506a9045e17,68817205a84113384fffdfe3,689d213c9fbb7adf2f454abc,17.7722,20.3655,0,1,2.0871,,0,2,2,5,1,./stim/wavs/andalusian_statement_filler_Alberto-nunca-se-afeita.wav,0,,,,,,,,,,,,,,,,,,,,,,,,,,,,,,,,,,,,,,,,,,,,,,,,,,,,,,,,,,,,,,,,,,,,,,,,
,,,,,,,,,5e3dec90ce522506a9045e17,spanish,13 or older,"no, only English or Spanish",click here to respond,2025-08-13_19h35.56.878,empathy_intonation_perc_control,2024.2.4,Win32,238.0952381,5e3dec90ce522506a9045e17,68817205a84113384fffdfe3,689d213c9fbb7adf2f454abc,20.3661,22.3606,1,1,1.4874,,0,3,3,1,1,./stim/wavs/argentine_question_filler_Mi-vecino-habla-mucho.wav,1,,,,,,,,,,,,,,,,,,,,,,,,,,,,,,,,,,,,,,,,,,,,,,,,,,,,,,,,,,,,,,,,,,,,,,,,
,,,,,,,,,5e3dec90ce522506a9045e17,spanish,13 or older,"no, only English or Spanish",click here to respond,2025-08-13_19h35.56.878,empathy_intonation_perc_control,2024.2.4,Win32,238.0952381,5e3dec90ce522506a9045e17,68817205a84113384fffdfe3,689d213c9fbb7adf2f454abc,22.361,24.7885,0,1,1.9197,,0,4,4,7,1,./stim/wavs/puertorican_statement_filler_La-nina-pinta-con-su-amiga.wav,0,,,,,,,,,,,,,,,,,,,,,,,,,,,,,,,,,,,,,,,,,,,,,,,,,,,,,,,,,,,,,,,,,,,,,,,,
,,,,,,,,,5e3dec90ce522506a9045e17,spanish,13 or older,"no, only English or Spanish",click here to respond,2025-08-13_19h35.56.878,empathy_intonation_perc_control,2024.2.4,Win32,238.0952381,5e3dec90ce522506a9045e17,68817205a84113384fffdfe3,689d213c9fbb7adf2f454abc,24.7891,27.1081,0,0,1.8117,,0,5,5,2,1,./stim/wavs/chilean_question_filler_Mi-padre-cantaba-bien.wav,1,,,,,,,,,,,,,,,,,,,,,,,,,,,,,,,,,,,,,,,,,,,,,,,,,,,,,,,,,,,,,,,,,,,,,,,,
,,,,,,,,,5e3dec90ce522506a9045e17,spanish,13 or older,"no, only English or Spanish",click here to respond,2025-08-13_19h35.56.878,empathy_intonation_perc_control,2024.2.4,Win32,238.0952381,5e3dec90ce522506a9045e17,68817205a84113384fffdfe3,689d213c9fbb7adf2f454abc,27.1087,29.536,1,1,1.9206,,0,6,6,3,1,./stim/wavs/mexican_question_filler_Felipe-no-tiene-contrasena.wav,1,,,,,,,,,,,,,,,,,,,,,,,,,,,,,,,,,,,,,,,,,,,,,,,,,,,,,,,,,,,,,,,,,,,,,,,,
,,,,,,,,,5e3dec90ce522506a9045e17,spanish,13 or older,"no, only English or Spanish",click here to respond,2025-08-13_19h35.56.878,empathy_intonation_perc_control,2024.2.4,Win32,238.0952381,5e3dec90ce522506a9045e17,68817205a84113384fffdfe3,689d213c9fbb7adf2f454abc,29.5366,31.8808,0,1,1.8371,,0,7,7,4,1,./stim/wavs/cuban_statement_filler_Cocinabas-por-la-noche.wav,0,,,,,,,,,,,,,,,,,,,,,,,,,,,,,,,,,,,,,,,,,,,,,,,,,,,,,,,,,,,,,,,,,,,,,,,,
,,,,,,,,,5e3dec90ce522506a9045e17,spanish,13 or older,"no, only English or Spanish",click here to respond,2025-08-13_19h35.56.878,empathy_intonation_perc_control,2024.2.4,Win32,238.0952381,5e3dec90ce522506a9045e17,68817205a84113384fffdfe3,689d213c9fbb7adf2f454abc,,,,,,,,,,,,,,31.881,34.1339,,,,,,,,,,,,,,,,,,,,,,,,,,,,,,,,,,,,,,,,,,,,,,,,,,,,,,,,,,,,,,,,,,,,,,
,,,,,,,,,5e3dec90ce522506a9045e17,spanish,13 or older,"no, only English or Spanish",click here to respond,2025-08-13_19h35.56.878,empathy_intonation_perc_control,2024.2.4,Win32,238.0952381,5e3dec90ce522506a9045e17,68817205a84113384fffdfe3,689d213c9fbb7adf2f454abc,,,,,,,,,,,,./stim/wavs/castilian_mismatch_declarative-broad-focus_La-nina-lava-el-plato.wav,0,,,34.1394,36.5536,0,1,1.908,,0,0,0,70,1,71,0,castilian,,,,,,,,,,,,,,,,,,,,,,,,,,,,,,,,,,,,,,,,,,,,,,,,,,,,,,,,
,,,,,,,,,5e3dec90ce522506a9045e17,spanish,13 or older,"no, only English or Spanish",click here to respond,2025-08-13_19h35.56.878,empathy_intonation_perc_control,2024.2.4,Win32,238.0952381,5e3dec90ce522506a9045e17,68817205a84113384fffdfe3,689d213c9fbb7adf2f454abc,,,,,,,,,,,,./stim/wavs/mexican_mismatch_declarative-broad-focus_El-hombre-mira-la-luna.wav,0,,,36.554,38.6148,0,1,1.5545,,0,1,1,79,1,80,0,mexican,,,,,,,,,,,,,,,,,,,,,,,,,,,,,,,,,,,,,,,,,,,,,,,,,,,,,,,,
,,,,,,,,,5e3dec90ce522506a9045e17,spanish,13 or older,"no, only English or Spanish",click here to respond,2025-08-13_19h35.56.878,empathy_intonation_perc_control,2024.2.4,Win32,238.0952381,5e3dec90ce522506a9045e17,68817205a84113384fffdfe3,689d213c9fbb7adf2f454abc,,,,,,,,,,,,./stim/wavs/puertorican_mismatch_interrogative-total-yn_La-maestra-vive-en-Paris.wav,1,,,38.6152,41.0392,0,0,1.9155,,0,2,2,41,1,42,1,puertorican,,,,,,,,,,,,,,,,,,,,,,,,,,,,,,,,,,,,,,,,,,,,,,,,,,,,,,,,
,,,,,,,,,5e3dec90ce522506a9045e17,spanish,13 or older,"no, only English or Spanish",click here to respond,2025-08-13_19h35.56.878,empathy_intonation_perc_control,2024.2.4,Win32,238.0952381,5e3dec90ce522506a9045e17,68817205a84113384fffdfe3,689d213c9fbb7adf2f454abc,,,,,,,,,,,,./stim/wavs/castilian_match_interrogative-total-yn_Emilio-ama-la-marcha.wav,1,,,41.0396,43.3376,1,1,1.7903,,0,3,3,1,1,2,0,castilian,,,,,,,,,,,,,,,,,,,,,,,,,,,,,,,,,,,,,,,,,,,,,,,,,,,,,,,,
,,,,,,,,,5e3dec90ce522506a9045e17,spanish,13 or older,"no, only English or Spanish",click here to respond,2025-08-13_19h35.56.878,empathy_intonation_perc_control,2024.2.4,Win32,238.0952381,5e3dec90ce522506a9045e17,68817205a84113384fffdfe3,689d213c9fbb7adf2f454abc,,,,,,,,,,,,./stim/wavs/mexican_match_declarative-broad-focus_Ana-lleva-el-abrigo.wav,0,,,43.3379,45.7199,0,1,1.8745,,0,4,4,56,1,57,0,mexican,,,,,,,,,,,,,,,,,,,,,,,,,,,,,,,,,,,,,,,,,,,,,,,,,,,,,,,,
,,,,,,,,,5e3dec90ce522506a9045e17,spanish,13 or older,"no, only English or Spanish",click here to respond,2025-08-13_19h35.56.878,empathy_intonation_perc_control,2024.2.4,Win32,238.0952381,5e3dec90ce522506a9045e17,68817205a84113384fffdfe3,689d213c9fbb7adf2f454abc,,,,,,,,,,,,./stim/wavs/cuban_mismatch_declarative-broad-focus_La-nina-lava-el-plato.wav,0,,,45.7205,47.9603,1,0,1.7332,,0,5,5,75,1,76,0,cuban,,,,,,,,,,,,,,,,,,,,,,,,,,,,,,,,,,,,,,,,,,,,,,,,,,,,,,,,
,,,,,,,,,5e3dec90ce522506a9045e17,spanish,13 or older,"no, only English or Spanish",click here to respond,2025-08-13_19h35.56.878,empathy_intonation_perc_control,2024.2.4,Win32,238.0952381,5e3dec90ce522506a9045e17,68817205a84113384fffdfe3,689d213c9fbb7adf2f454abc,,,,,,,,,,,,./stim/wavs/mexican_match_declarative-broad-focus_Marta-abre-el-regalo.wav,0,,,47.9607,49.9509,0,1,1.4824,,0,6,6,61,1,62,0,mexican,,,,,,,,,,,,,,,,,,,,,,,,,,,,,,,,,,,,,,,,,,,,,,,,,,,,,,,,
,,,,,,,,,5e3dec90ce522506a9045e17,spanish,13 or older,"no, only English or Spanish",click here to respond,2025-08-13_19h35.56.878,empathy_intonation_perc_control,2024.2.4,Win32,238.0952381,5e3dec90ce522506a9045e17,68817205a84113384fffdfe3,689d213c9fbb7adf2f454abc,,,,,,,,,,,,./stim/wavs/puertorican_match_declarative-broad-focus_Emilio-ama-la-marcha.wav,0,,,49.9513,52.2583,0,1,1.8006,,0,7,7,65,1,66,0,puertorican,,,,,,,,,,,,,,,,,,,,,,,,,,,,,,,,,,,,,,,,,,,,,,,,,,,,,,,,
,,,,,,,,,5e3dec90ce522506a9045e17,spanish,13 or older,"no, only English or Spanish",click here to respond,2025-08-13_19h35.56.878,empathy_intonation_perc_control,2024.2.4,Win32,238.0952381,5e3dec90ce522506a9045e17,68817205a84113384fffdfe3,689d213c9fbb7adf2f454abc,,,,,,,,,,,,./stim/wavs/puertorican_match_declarative-broad-focus_Manuela-vende-el-carro.wav,0,,,52.2586,54.7194,0,1,1.953,,0,8,8,66,1,67,0,puertorican,,,,,,,,,,,,,,,,,,,,,,,,,,,,,,,,,,,,,,,,,,,,,,,,,,,,,,,,
,,,,,,,,,5e3dec90ce522506a9045e17,spanish,13 or older,"no, only English or Spanish",click here to respond,2025-08-13_19h35.56.878,empathy_intonation_perc_control,2024.2.4,Win32,238.0952381,5e3dec90ce522506a9045e17,68817205a84113384fffdfe3,689d213c9fbb7adf2f454abc,,,,,,,,,,,,./stim/wavs/cuban_mismatch_interrogative-total-yn_Mi-tia-odia-la-lluvia.wav,1,,,54.7198,57.0224,0,0,1.7945,,0,9,9,33,1,34,1,cuban,,,,,,,,,,,,,,,,,,,,,,,,,,,,,,,,,,,,,,,,,,,,,,,,,,,,,,,,
,,,,,,,,,5e3dec90ce522506a9045e17,spanish,13 or older,"no, only English or Spanish",click here to respond,2025-08-13_19h35.56.878,empathy_intonation_perc_control,2024.2.4,Win32,238.0952381,5e3dec90ce522506a9045e17,68817205a84113384fffdfe3,689d213c9fbb7adf2f454abc,,,,,,,,,,,,./stim/wavs/castilian_mismatch_interrogative-total-yn_Mi-tia-odia-la-lluvia.wav,1,,,57.0227,59.2546,1,1,1.7261,,0,10,10,28,1,29,0,castilian,,,,,,,,,,,,,,,,,,,,,,,,,,,,,,,,,,,,,,,,,,,,,,,,,,,,,,,,
,,,,,,,,,5e3dec90ce522506a9045e17,spanish,13 or older,"no, only English or Spanish",click here to respond,2025-08-13_19h35.56.878,empathy_intonation_perc_control,2024.2.4,Win32,238.0952381,5e3dec90ce522506a9045e17,68817205a84113384fffdfe3,689d213c9fbb7adf2f454abc,,,,,,,,,,,,./stim/wavs/puertorican_match_interrogative-total-yn_David-leia-el-libro.wav,1,,,59.2549,61.2329,1,1,1.4699,,0,11,11,20,1,21,1,puertorican,,,,,,,,,,,,,,,,,,,,,,,,,,,,,,,,,,,,,,,,,,,,,,,,,,,,,,,,
,,,,,,,,,5e3dec90ce522506a9045e17,spanish,13 or older,"no, only English or Spanish",click here to respond,2025-08-13_19h35.56.878,empathy_intonation_perc_control,2024.2.4,Win32,238.0952381,5e3dec90ce522506a9045e17,68817205a84113384fffdfe3,689d213c9fbb7adf2f454abc,,,,,,,,,,,,./stim/wavs/castilian_match_declarative-broad-focus_Manuela-vende-el-carro.wav,0,,,61.2331,63.8064,0,1,2.0662,,0,12,12,46,1,47,0,castilian,,,,,,,,,,,,,,,,,,,,,,,,,,,,,,,,,,,,,,,,,,,,,,,,,,,,,,,,
,,,,,,,,,5e3dec90ce522506a9045e17,spanish,13 or older,"no, only English or Spanish",click here to respond,2025-08-13_19h35.56.878,empathy_intonation_perc_control,2024.2.4,Win32,238.0952381,5e3dec90ce522506a9045e17,68817205a84113384fffdfe3,689d213c9fbb7adf2f454abc,,,,,,,,,,,,./stim/wavs/cuban_match_declarative-broad-focus_Mariano-habla-del-tiempo.wav,0,,,63.8069,66.1094,0,1,1.7946,,0,13,13,54,1,55,0,cuban,,,,,,,,,,,,,,,,,,,,,,,,,,,,,,,,,,,,,,,,,,,,,,,,,,,,,,,,
,,,,,,,,,5e3dec90ce522506a9045e17,spanish,13 or older,"no, only English or Spanish",click here to respond,2025-08-13_19h35.56.878,empathy_intonation_perc_control,2024.2.4,Win32,238.0952381,5e3dec90ce522506a9045e17,68817205a84113384fffdfe3,689d213c9fbb7adf2f454abc,,,,,,,,,,,,./stim/wavs/mexican_mismatch_interrogative-total-yn_La-maestra-vive-en-Paris.wav,1,,,66.1098,68.3459,1,1,1.7304,,0,14,14,36,1,37,0,mexican,,,,,,,,,,,,,,,,,,,,,,,,,,,,,,,,,,,,,,,,,,,,,,,,,,,,,,,,
,,,,,,,,,5e3dec90ce522506a9045e17,spanish,13 or older,"no, only English or Spanish",click here to respond,2025-08-13_19h35.56.878,empathy_intonation_perc_control,2024.2.4,Win32,238.0952381,5e3dec90ce522506a9045e17,68817205a84113384fffdfe3,689d213c9fbb7adf2f454abc,,,,,,,,,,,,./stim/wavs/castilian_match_interrogative-total-yn_Mariano-habla-del-tiempo.wav,1,,,68.3462,70.774,1,1,1.9208,,0,15,15,4,1,5,0,castilian,,,,,,,,,,,,,,,,,,,,,,,,,,,,,,,,,,,,,,,,,,,,,,,,,,,,,,,,
,,,,,,,,,5e3dec90ce522506a9045e17,spanish,13 or older,"no, only English or Spanish",click here to respond,2025-08-13_19h35.56.878,empathy_intonation_perc_control,2024.2.4,Win32,238.0952381,5e3dec90ce522506a9045e17,68817205a84113384fffdfe3,689d213c9fbb7adf2f454abc,,,,,,,,,,,,./stim/wavs/puertorican_mismatch_declarative-broad-focus_La-nina-lava-el-plato.wav,0,,,70.7742,73.1435,1,0,1.8612,,0,16,16,87,1,88,0,puertorican,,,,,,,,,,,,,,,,,,,,,,,,,,,,,,,,,,,,,,,,,,,,,,,,,,,,,,,,
,,,,,,,,,5e3dec90ce522506a9045e17,spanish,13 or older,"no, only English or Spanish",click here to respond,2025-08-13_19h35.56.878,empathy_intonation_perc_control,2024.2.4,Win32,238.0952381,5e3dec90ce522506a9045e17,68817205a84113384fffdfe3,689d213c9fbb7adf2f454abc,,,,,,,,,,,,./stim/wavs/puertorican_match_declarative-broad-focus_Ana-lleva-el-abrigo.wav,0,,,73.1438,75.0925,0,1,1.4416,,0,17,17,62,1,63,0,puertorican,,,,,,,,,,,,,,,,,,,,,,,,,,,,,,,,,,,,,,,,,,,,,,,,,,,,,,,,
,,,,,,,,,5e3dec90ce522506a9045e17,spanish,13 or older,"no, only English or Spanish",click here to respond,2025-08-13_19h35.56.878,empathy_intonation_perc_control,2024.2.4,Win32,238.0952381,5e3dec90ce522506a9045e17,68817205a84113384fffdfe3,689d213c9fbb7adf2f454abc,,,,,,,,,,,,./stim/wavs/puertorican_match_interrogative-total-yn_Emilio-ama-la-marcha.wav,1,,,75.0928,77.2331,0,0,1.6322,,0,18,18,21,1,22,1,puertorican,,,,,,,,,,,,,,,,,,,,,,,,,,,,,,,,,,,,,,,,,,,,,,,,,,,,,,,,
,,,,,,,,,5e3dec90ce522506a9045e17,spanish,13 or older,"no, only English or Spanish",click here to respond,2025-08-13_19h35.56.878,empathy_intonation_perc_control,2024.2.4,Win32,238.0952381,5e3dec90ce522506a9045e17,68817205a84113384fffdfe3,689d213c9fbb7adf2f454abc,,,,,,,,,,,,./stim/wavs/castilian_match_interrogative-total-yn_Maria-bebe-el-vino.wav,1,,,77.2333,79.2072,1,1,1.4678,,0,19,19,3,1,4,0,castilian,,,,,,,,,,,,,,,,,,,,,,,,,,,,,,,,,,,,,,,,,,,,,,,,,,,,,,,,
,,,,,,,,,5e3dec90ce522506a9045e17,spanish,13 or older,"no, only English or Spanish",click here to respond,2025-08-13_19h35.56.878,empathy_intonation_perc_control,2024.2.4,Win32,238.0952381,5e3dec90ce522506a9045e17,68817205a84113384fffdfe3,689d213c9fbb7adf2f454abc,,,,,,,,,,,,./stim/wavs/castilian_mismatch_interrogative-total-yn_Mi-madre-come-la-fruta.wav,1,,,79.2076,81.6393,1,1,1.9256,,0,20,20,26,1,27,0,castilian,,,,,,,,,,,,,,,,,,,,,,,,,,,,,,,,,,,,,,,,,,,,,,,,,,,,,,,,
,,,,,,,,,5e3dec90ce522506a9045e17,spanish,13 or older,"no, only English or Spanish",click here to respond,2025-08-13_19h35.56.878,empathy_intonation_perc_control,2024.2.4,Win32,238.0952381,5e3dec90ce522506a9045e17,68817205a84113384fffdfe3,689d213c9fbb7adf2f454abc,,,,,,,,,,,,./stim/wavs/puertorican_match_interrogative-total-yn_Maria-bebe-el-vino.wav,1,,,81.6396,84.1962,0,0,2.0504,,0,21,21,23,1,24,1,puertorican,,,,,,,,,,,,,,,,,,,,,,,,,,,,,,,,,,,,,,,,,,,,,,,,,,,,,,,,
,,,,,,,,,5e3dec90ce522506a9045e17,spanish,13 or older,"no, only English or Spanish",click here to respond,2025-08-13_19h35.56.878,empathy_intonation_perc_control,2024.2.4,Win32,238.0952381,5e3dec90ce522506a9045e17,68817205a84113384fffdfe3,689d213c9fbb7adf2f454abc,,,,,,,,,,,,./stim/wavs/mexican_match_interrogative-total-yn_Mariano-habla-del-tiempo.wav,1,,,84.1965,86.5244,1,1,1.8201,,0,22,22,16,1,17,0,mexican,,,,,,,,,,,,,,,,,,,,,,,,,,,,,,,,,,,,,,,,,,,,,,,,,,,,,,,,
,,,,,,,,,5e3dec90ce522506a9045e17,spanish,13 or older,"no, only English or Spanish",click here to respond,2025-08-13_19h35.56.878,empathy_intonation_perc_control,2024.2.4,Win32,238.0952381,5e3dec90ce522506a9045e17,68817205a84113384fffdfe3,689d213c9fbb7adf2f454abc,,,,,,,,,,,,./stim/wavs/mexican_mismatch_declarative-broad-focus_Mi-novio-viene-del-lago.wav,0,,,86.5247,88.7816,0,1,1.7491,,0,23,23,81,1,82,0,mexican,,,,,,,,,,,,,,,,,,,,,,,,,,,,,,,,,,,,,,,,,,,,,,,,,,,,,,,,
,,,,,,,,,5e3dec90ce522506a9045e17,spanish,13 or older,"no, only English or Spanish",click here to respond,2025-08-13_19h35.56.878,empathy_intonation_perc_control,2024.2.4,Win32,238.0952381,5e3dec90ce522506a9045e17,68817205a84113384fffdfe3,689d213c9fbb7adf2f454abc,,,,,,,,,,,,./stim/wavs/mexican_mismatch_interrogative-total-yn_Mi-novio-viene-del-lago.wav,1,,,88.7819,91.0679,1,1,1.7782,,0,24,24,37,1,38,0,mexican,,,,,,,,,,,,,,,,,,,,,,,,,,,,,,,,,,,,,,,,,,,,,,,,,,,,,,,,
,,,,,,,,,5e3dec90ce522506a9045e17,spanish,13 or older,"no, only English or Spanish",click here to respond,2025-08-13_19h35.56.878,empathy_intonation_perc_control,2024.2.4,Win32,238.0952381,5e3dec90ce522506a9045e17,68817205a84113384fffdfe3,689d213c9fbb7adf2f454abc,,,,,,,,,,,,./stim/wavs/castilian_mismatch_declarative-broad-focus_La-maestra-vive-en-Paris.wav,0,,,91.0682,93.4918,0,1,1.9158,,0,25,25,69,1,70,0,castilian,,,,,,,,,,,,,,,,,,,,,,,,,,,,,,,,,,,,,,,,,,,,,,,,,,,,,,,,
,,,,,,,,,5e3dec90ce522506a9045e17,spanish,13 or older,"no, only English or Spanish",click here to respond,2025-08-13_19h35.56.878,empathy_intonation_perc_control,2024.2.4,Win32,238.0952381,5e3dec90ce522506a9045e17,68817205a84113384fffdfe3,689d213c9fbb7adf2f454abc,,,,,,,,,,,,./stim/wavs/puertorican_match_interrogative-total-yn_Daniel-iba-a-Bolivia.wav,1,,,93.492,95.8698,0,0,1.8705,,0,26,26,19,1,20,1,puertorican,,,,,,,,,,,,,,,,,,,,,,,,,,,,,,,,,,,,,,,,,,,,,,,,,,,,,,,,
,,,,,,,,,5e3dec90ce522506a9045e17,spanish,13 or older,"no, only English or Spanish",click here to respond,2025-08-13_19h35.56.878,empathy_intonation_perc_control,2024.2.4,Win32,238.0952381,5e3dec90ce522506a9045e17,68817205a84113384fffdfe3,689d213c9fbb7adf2f454abc,,,,,,,,,,,,./stim/wavs/cuban_match_declarative-broad-focus_Marta-abre-el-regalo.wav,0,,,95.8701,98.1185,0,1,1.7421,,0,27,27,55,1,56,0,cuban,,,,,,,,,,,,,,,,,,,,,,,,,,,,,,,,,,,,,,,,,,,,,,,,,,,,,,,,
,,,,,,,,,5e3dec90ce522506a9045e17,spanish,13 or older,"no, only English or Spanish",click here to respond,2025-08-13_19h35.56.878,empathy_intonation_perc_control,2024.2.4,Win32,238.0952381,5e3dec90ce522506a9045e17,68817205a84113384fffdfe3,689d213c9fbb7adf2f454abc,,,,,,,,,,,,./stim/wavs/castilian_match_declarative-broad-focus_Mariano-habla-del-tiempo.wav,0,,,98.1187,100.8046,0,1,2.1796,,0,28,28,48,1,49,0,castilian,,,,,,,,,,,,,,,,,,,,,,,,,,,,,,,,,,,,,,,,,,,,,,,,,,,,,,,,
,,,,,,,,,5e3dec90ce522506a9045e17,spanish,13 or older,"no, only English or Spanish",click here to respond,2025-08-13_19h35.56.878,empathy_intonation_perc_control,2024.2.4,Win32,238.0952381,5e3dec90ce522506a9045e17,68817205a84113384fffdfe3,689d213c9fbb7adf2f454abc,,,,,,,,,,,,./stim/wavs/puertorican_mismatch_declarative-broad-focus_El-hombre-mira-la-luna.wav,0,,,100.805,102.9494,0,1,1.6389,,0,29,29,84,1,85,0,puertorican,,,,,,,,,,,,,,,,,,,,,,,,,,,,,,,,,,,,,,,,,,,,,,,,,,,,,,,,
,,,,,,,,,5e3dec90ce522506a9045e17,spanish,13 or older,"no, only English or Spanish",click here to respond,2025-08-13_19h35.56.878,empathy_intonation_perc_control,2024.2.4,Win32,238.0952381,5e3dec90ce522506a9045e17,68817205a84113384fffdfe3,689d213c9fbb7adf2f454abc,,,,,,,,,,,,./stim/wavs/puertorican_match_declarative-broad-focus_Maria-bebe-el-vino.wav,0,,,102.9497,104.9943,1,0,1.5369,,0,30,30,67,1,68,0,puertorican,,,,,,,,,,,,,,,,,,,,,,,,,,,,,,,,,,,,,,,,,,,,,,,,,,,,,,,,
,,,,,,,,,5e3dec90ce522506a9045e17,spanish,13 or older,"no, only English or Spanish",click here to respond,2025-08-13_19h35.56.878,empathy_intonation_perc_control,2024.2.4,Win32,238.0952381,5e3dec90ce522506a9045e17,68817205a84113384fffdfe3,689d213c9fbb7adf2f454abc,,,,,,,,,,,,./stim/wavs/castilian_match_interrogative-total-yn_David-leia-el-libro.wav,1,,,104.9947,107.1931,1,1,1.6913,,0,31,31,0,1,1,0,castilian,,,,,,,,,,,,,,,,,,,,,,,,,,,,,,,,,,,,,,,,,,,,,,,,,,,,,,,,
,,,,,,,,,5e3dec90ce522506a9045e17,spanish,13 or older,"no, only English or Spanish",click here to respond,2025-08-13_19h35.56.878,empathy_intonation_perc_control,2024.2.4,Win32,238.0952381,5e3dec90ce522506a9045e17,68817205a84113384fffdfe3,689d213c9fbb7adf2f454abc,,,,,,,,,,,,./stim/wavs/mexican_match_interrogative-total-yn_Emilio-ama-la-marcha.wav,1,,,107.1933,109.3879,1,1,1.6863,,0,32,32,15,1,16,0,mexican,,,,,,,,,,,,,,,,,,,,,,,,,,,,,,,,,,,,,,,,,,,,,,,,,,,,,,,,
,,,,,,,,,5e3dec90ce522506a9045e17,spanish,13 or older,"no, only English or Spanish",click here to respond,2025-08-13_19h35.56.878,empathy_intonation_perc_control,2024.2.4,Win32,238.0952381,5e3dec90ce522506a9045e17,68817205a84113384fffdfe3,689d213c9fbb7adf2f454abc,,,,,,,,,,,,./stim/wavs/mexican_match_declarative-broad-focus_Mariano-habla-del-tiempo.wav,0,,,109.3882,111.6993,0,1,1.8034,,0,33,33,60,1,61,0,mexican,,,,,,,,,,,,,,,,,,,,,,,,,,,,,,,,,,,,,,,,,,,,,,,,,,,,,,,,
,,,,,,,,,5e3dec90ce522506a9045e17,spanish,13 or older,"no, only English or Spanish",click here to respond,2025-08-13_19h35.56.878,empathy_intonation_perc_control,2024.2.4,Win32,238.0952381,5e3dec90ce522506a9045e17,68817205a84113384fffdfe3,689d213c9fbb7adf2f454abc,,,,,,,,,,,,./stim/wavs/mexican_match_declarative-broad-focus_Daniel-iba-a-Bolivia.wav,0,,,111.6995,113.8607,0,1,1.6544,,0,34,34,57,1,58,0,mexican,,,,,,,,,,,,,,,,,,,,,,,,,,,,,,,,,,,,,,,,,,,,,,,,,,,,,,,,
,,,,,,,,,5e3dec90ce522506a9045e17,spanish,13 or older,"no, only English or Spanish",click here to respond,2025-08-13_19h35.56.878,empathy_intonation_perc_control,2024.2.4,Win32,238.0952381,5e3dec90ce522506a9045e17,68817205a84113384fffdfe3,689d213c9fbb7adf2f454abc,,,,,,,,,,,,./stim/wavs/castilian_match_declarative-broad-focus_David-leia-el-libro.wav,0,,,113.8611,116.322,0,1,1.9538,,0,35,35,44,1,45,0,castilian,,,,,,,,,,,,,,,,,,,,,,,,,,,,,,,,,,,,,,,,,,,,,,,,,,,,,,,,
,,,,,,,,,5e3dec90ce522506a9045e17,spanish,13 or older,"no, only English or Spanish",click here to respond,2025-08-13_19h35.56.878,empathy_intonation_perc_control,2024.2.4,Win32,238.0952381,5e3dec90ce522506a9045e17,68817205a84113384fffdfe3,689d213c9fbb7adf2f454abc,,,,,,,,,,,,./stim/wavs/puertorican_mismatch_interrogative-total-yn_El-nino-oye-el-rio.wav,1,,,116.3222,119.2622,0,0,2.4324,,0,36,36,40,1,41,1,puertorican,,,,,,,,,,,,,,,,,,,,,,,,,,,,,,,,,,,,,,,,,,,,,,,,,,,,,,,,
,,,,,,,,,5e3dec90ce522506a9045e17,spanish,13 or older,"no, only English or Spanish",click here to respond,2025-08-13_19h35.56.878,empathy_intonation_perc_control,2024.2.4,Win32,238.0952381,5e3dec90ce522506a9045e17,68817205a84113384fffdfe3,689d213c9fbb7adf2f454abc,,,,,,,,,,,,./stim/wavs/castilian_match_declarative-broad-focus_Marta-abre-el-regalo.wav,0,,,119.2624,123.1727,1,0,3.4026,,0,37,37,49,1,50,0,castilian,,,,,,,,,,,,,,,,,,,,,,,,,,,,,,,,,,,,,,,,,,,,,,,,,,,,,,,,
,,,,,,,,,5e3dec90ce522506a9045e17,spanish,13 or older,"no, only English or Spanish",click here to respond,2025-08-13_19h35.56.878,empathy_intonation_perc_control,2024.2.4,Win32,238.0952381,5e3dec90ce522506a9045e17,68817205a84113384fffdfe3,689d213c9fbb7adf2f454abc,,,,,,,,,,,,./stim/wavs/castilian_mismatch_declarative-broad-focus_El-nino-oye-el-rio.wav,0,,,123.1729,125.7964,0,1,2.1157,,0,38,38,68,1,69,0,castilian,,,,,,,,,,,,,,,,,,,,,,,,,,,,,,,,,,,,,,,,,,,,,,,,,,,,,,,,
,,,,,,,,,5e3dec90ce522506a9045e17,spanish,13 or older,"no, only English or Spanish",click here to respond,2025-08-13_19h35.56.878,empathy_intonation_perc_control,2024.2.4,Win32,238.0952381,5e3dec90ce522506a9045e17,68817205a84113384fffdfe3,689d213c9fbb7adf2f454abc,,,,,,,,,,,,./stim/wavs/cuban_match_declarative-broad-focus_Ana-lleva-el-abrigo.wav,0,,,125.7966,137.396,0,1,11.0932,,0,39,39,50,1,51,0,cuban,,,,,,,,,,,,,,,,,,,,,,,,,,,,,,,,,,,,,,,,,,,,,,,,,,,,,,,,
,,,,,,,,,5e3dec90ce522506a9045e17,spanish,13 or older,"no, only English or Spanish",click here to respond,2025-08-13_19h35.56.878,empathy_intonation_perc_control,2024.2.4,Win32,238.0952381,5e3dec90ce522506a9045e17,68817205a84113384fffdfe3,689d213c9fbb7adf2f454abc,,,,,,,,,,,,./stim/wavs/mexican_mismatch_interrogative-total-yn_El-hombre-mira-la-luna.wav,1,,,137.3965,139.532,1,1,1.6287,,0,40,40,34,1,35,0,mexican,,,,,,,,,,,,,,,,,,,,,,,,,,,,,,,,,,,,,,,,,,,,,,,,,,,,,,,,
,,,,,,,,,5e3dec90ce522506a9045e17,spanish,13 or older,"no, only English or Spanish",click here to respond,2025-08-13_19h35.56.878,empathy_intonation_perc_control,2024.2.4,Win32,238.0952381,5e3dec90ce522506a9045e17,68817205a84113384fffdfe3,689d213c9fbb7adf2f454abc,,,,,,,,,,,,./stim/wavs/puertorican_mismatch_interrogative-total-yn_La-nina-lava-el-plato.wav,1,,,139.5323,142.1048,0,0,2.0653,,0,41,41,42,1,43,1,puertorican,,,,,,,,,,,,,,,,,,,,,,,,,,,,,,,,,,,,,,,,,,,,,,,,,,,,,,,,
,,,,,,,,,5e3dec90ce522506a9045e17,spanish,13 or older,"no, only English or Spanish",click here to respond,2025-08-13_19h35.56.878,empathy_intonation_perc_control,2024.2.4,Win32,238.0952381,5e3dec90ce522506a9045e17,68817205a84113384fffdfe3,689d213c9fbb7adf2f454abc,,,,,,,,,,,,./stim/wavs/cuban_mismatch_declarative-broad-focus_El-hombre-mira-la-luna.wav,0,,,142.1052,156.7527,1,0,14.1392,,0,42,42,74,1,75,0,cuban,,,,,,,,,,,,,,,,,,,,,,,,,,,,,,,,,,,,,,,,,,,,,,,,,,,,,,,,
,,,,,,,,,5e3dec90ce522506a9045e17,spanish,13 or older,"no, only English or Spanish",click here to respond,2025-08-13_19h35.56.878,empathy_intonation_perc_control,2024.2.4,Win32,238.0952381,5e3dec90ce522506a9045e17,68817205a84113384fffdfe3,689d213c9fbb7adf2f454abc,,,,,,,,,,,,./stim/wavs/mexican_mismatch_interrogative-total-yn_Mi-tia-odia-la-lluvia.wav,1,,,156.7531,159.043,1,1,1.7822,,0,43,43,38,1,39,0,mexican,,,,,,,,,,,,,,,,,,,,,,,,,,,,,,,,,,,,,,,,,,,,,,,,,,,,,,,,
,,,,,,,,,5e3dec90ce522506a9045e17,spanish,13 or older,"no, only English or Spanish",click here to respond,2025-08-13_19h35.56.878,empathy_intonation_perc_control,2024.2.4,Win32,238.0952381,5e3dec90ce522506a9045e17,68817205a84113384fffdfe3,689d213c9fbb7adf2f454abc,,,,,,,,,,,,./stim/wavs/castilian_match_declarative-broad-focus_Emilio-ama-la-marcha.wav,0,,,159.0434,192.8524,0,1,33.3013,,0,44,44,45,1,46,0,castilian,,,,,,,,,,,,,,,,,,,,,,,,,,,,,,,,,,,,,,,,,,,,,,,,,,,,,,,,
,,,,,,,,,5e3dec90ce522506a9045e17,spanish,13 or older,"no, only English or Spanish",click here to respond,2025-08-13_19h35.56.878,empathy_intonation_perc_control,2024.2.4,Win32,238.0952381,5e3dec90ce522506a9045e17,68817205a84113384fffdfe3,689d213c9fbb7adf2f454abc,,,,,,,,,,,,./stim/wavs/cuban_mismatch_interrogative-total-yn_El-nino-oye-el-rio.wav,1,,,192.8532,195.7803,0,0,2.4208,,0,45,45,30,1,31,1,cuban,,,,,,,,,,,,,,,,,,,,,,,,,,,,,,,,,,,,,,,,,,,,,,,,,,,,,,,,
,,,,,,,,,5e3dec90ce522506a9045e17,spanish,13 or older,"no, only English or Spanish",click here to respond,2025-08-13_19h35.56.878,empathy_intonation_perc_control,2024.2.4,Win32,238.0952381,5e3dec90ce522506a9045e17,68817205a84113384fffdfe3,689d213c9fbb7adf2f454abc,,,,,,,,,,,,./stim/wavs/puertorican_mismatch_interrogative-total-yn_El-hombre-mira-la-luna.wav,1,,,195.7811,198.6775,1,1,2.39,,0,46,46,39,1,40,1,puertorican,,,,,,,,,,,,,,,,,,,,,,,,,,,,,,,,,,,,,,,,,,,,,,,,,,,,,,,,
,,,,,,,,,5e3dec90ce522506a9045e17,spanish,13 or older,"no, only English or Spanish",click here to respond,2025-08-13_19h35.56.878,empathy_intonation_perc_control,2024.2.4,Win32,238.0952381,5e3dec90ce522506a9045e17,68817205a84113384fffdfe3,689d213c9fbb7adf2f454abc,,,,,,,,,,,,./stim/wavs/puertorican_match_declarative-broad-focus_David-leia-el-libro.wav,0,,,198.6779,201.7519,0,1,2.5656,,0,47,47,64,1,65,0,puertorican,,,,,,,,,,,,,,,,,,,,,,,,,,,,,,,,,,,,,,,,,,,,,,,,,,,,,,,,
,,,,,,,,,5e3dec90ce522506a9045e17,spanish,13 or older,"no, only English or Spanish",click here to respond,2025-08-13_19h35.56.878,empathy_intonation_perc_control,2024.2.4,Win32,238.0952381,5e3dec90ce522506a9045e17,68817205a84113384fffdfe3,689d213c9fbb7adf2f454abc,,,,,,,,,,,,./stim/wavs/cuban_match_interrogative-total-yn_Maria-bebe-el-vino.wav,1,,,201.7527,207.7522,0,0,5.4933,,0,48,48,9,1,10,1,cuban,,,,,,,,,,,,,,,,,,,,,,,,,,,,,,,,,,,,,,,,,,,,,,,,,,,,,,,,
,,,,,,,,,5e3dec90ce522506a9045e17,spanish,13 or older,"no, only English or Spanish",click here to respond,2025-08-13_19h35.56.878,empathy_intonation_perc_control,2024.2.4,Win32,238.0952381,5e3dec90ce522506a9045e17,68817205a84113384fffdfe3,689d213c9fbb7adf2f454abc,,,,,,,,,,,,./stim/wavs/mexican_mismatch_interrogative-total-yn_El-nino-oye-el-rio.wav,1,,,207.7526,210.5055,1,1,2.2443,,0,49,49,35,1,36,0,mexican,,,,,,,,,,,,,,,,,,,,,,,,,,,,,,,,,,,,,,,,,,,,,,,,,,,,,,,,
,,,,,,,,,5e3dec90ce522506a9045e17,spanish,13 or older,"no, only English or Spanish",click here to respond,2025-08-13_19h35.56.878,empathy_intonation_perc_control,2024.2.4,Win32,238.0952381,5e3dec90ce522506a9045e17,68817205a84113384fffdfe3,689d213c9fbb7adf2f454abc,,,,,,,,,,,,./stim/wavs/cuban_mismatch_declarative-broad-focus_El-bebe-comia-muy-bien.wav,0,,,210.5062,217.9095,0,1,6.8962,,0,50,50,73,1,74,0,cuban,,,,,,,,,,,,,,,,,,,,,,,,,,,,,,,,,,,,,,,,,,,,,,,,,,,,,,,,
,,,,,,,,,5e3dec90ce522506a9045e17,spanish,13 or older,"no, only English or Spanish",click here to respond,2025-08-13_19h35.56.878,empathy_intonation_perc_control,2024.2.4,Win32,238.0952381,5e3dec90ce522506a9045e17,68817205a84113384fffdfe3,689d213c9fbb7adf2f454abc,,,,,,,,,,,,./stim/wavs/mexican_match_declarative-broad-focus_Emilio-ama-la-marcha.wav,0,,,217.91,220.2876,0,1,1.8701,,0,51,51,59,1,60,0,mexican,,,,,,,,,,,,,,,,,,,,,,,,,,,,,,,,,,,,,,,,,,,,,,,,,,,,,,,,
,,,,,,,,,5e3dec90ce522506a9045e17,spanish,13 or older,"no, only English or Spanish",click here to respond,2025-08-13_19h35.56.878,empathy_intonation_perc_control,2024.2.4,Win32,238.0952381,5e3dec90ce522506a9045e17,68817205a84113384fffdfe3,689d213c9fbb7adf2f454abc,,,,,,,,,,,,./stim/wavs/castilian_mismatch_interrogative-total-yn_Mi-novio-viene-del-lago.wav,1,,,220.2878,223.3661,1,1,2.5728,,0,52,52,27,1,28,0,castilian,,,,,,,,,,,,,,,,,,,,,,,,,,,,,,,,,,,,,,,,,,,,,,,,,,,,,,,,
,,,,,,,,,5e3dec90ce522506a9045e17,spanish,13 or older,"no, only English or Spanish",click here to respond,2025-08-13_19h35.56.878,empathy_intonation_perc_control,2024.2.4,Win32,238.0952381,5e3dec90ce522506a9045e17,68817205a84113384fffdfe3,689d213c9fbb7adf2f454abc,,,,,,,,,,,,./stim/wavs/cuban_match_interrogative-total-yn_Marta-abre-el-regalo.wav,1,,,223.3666,230.1877,0,0,6.3144,,0,53,53,11,1,12,1,cuban,,,,,,,,,,,,,,,,,,,,,,,,,,,,,,,,,,,,,,,,,,,,,,,,,,,,,,,,
,,,,,,,,,5e3dec90ce522506a9045e17,spanish,13 or older,"no, only English or Spanish",click here to respond,2025-08-13_19h35.56.878,empathy_intonation_perc_control,2024.2.4,Win32,238.0952381,5e3dec90ce522506a9045e17,68817205a84113384fffdfe3,689d213c9fbb7adf2f454abc,,,,,,,,,,,,./stim/wavs/puertorican_match_interrogative-total-yn_Manuela-vende-el-carro.wav,1,,,230.1882,232.8352,0,0,2.1404,,0,54,54,22,1,23,1,puertorican,,,,,,,,,,,,,,,,,,,,,,,,,,,,,,,,,,,,,,,,,,,,,,,,,,,,,,,,
,,,,,,,,,5e3dec90ce522506a9045e17,spanish,13 or older,"no, only English or Spanish",click here to respond,2025-08-13_19h35.56.878,empathy_intonation_perc_control,2024.2.4,Win32,238.0952381,5e3dec90ce522506a9045e17,68817205a84113384fffdfe3,689d213c9fbb7adf2f454abc,,,,,,,,,,,,./stim/wavs/castilian_match_interrogative-total-yn_Manuela-vende-el-carro.wav,1,,,232.8355,235.1216,1,1,1.7818,,0,55,55,2,1,3,0,castilian,,,,,,,,,,,,,,,,,,,,,,,,,,,,,,,,,,,,,,,,,,,,,,,,,,,,,,,,
,,,,,,,,,5e3dec90ce522506a9045e17,spanish,13 or older,"no, only English or Spanish",click here to respond,2025-08-13_19h35.56.878,empathy_intonation_perc_control,2024.2.4,Win32,238.0952381,5e3dec90ce522506a9045e17,68817205a84113384fffdfe3,689d213c9fbb7adf2f454abc,,,,,,,,,,,,./stim/wavs/cuban_match_interrogative-total-yn_Manuela-vende-el-carro.wav,1,,,235.122,237.2672,0,0,1.6409,,0,56,56,8,1,9,1,cuban,,,,,,,,,,,,,,,,,,,,,,,,,,,,,,,,,,,,,,,,,,,,,,,,,,,,,,,,
,,,,,,,,,5e3dec90ce522506a9045e17,spanish,13 or older,"no, only English or Spanish",click here to respond,2025-08-13_19h35.56.878,empathy_intonation_perc_control,2024.2.4,Win32,238.0952381,5e3dec90ce522506a9045e17,68817205a84113384fffdfe3,689d213c9fbb7adf2f454abc,,,,,,,,,,,,./stim/wavs/mexican_match_declarative-broad-focus_David-leia-el-libro.wav,0,,,237.2678,239.3589,0,1,1.5846,,0,57,57,58,1,59,0,mexican,,,,,,,,,,,,,,,,,,,,,,,,,,,,,,,,,,,,,,,,,,,,,,,,,,,,,,,,
,,,,,,,,,5e3dec90ce522506a9045e17,spanish,13 or older,"no, only English or Spanish",click here to respond,2025-08-13_19h35.56.878,empathy_intonation_perc_control,2024.2.4,Win32,238.0952381,5e3dec90ce522506a9045e17,68817205a84113384fffdfe3,689d213c9fbb7adf2f454abc,,,,,,,,,,,,./stim/wavs/puertorican_mismatch_declarative-broad-focus_El-nino-oye-el-rio.wav,0,,,239.3592,241.6605,0,1,1.7953,,0,58,58,85,1,86,0,puertorican,,,,,,,,,,,,,,,,,,,,,,,,,,,,,,,,,,,,,,,,,,,,,,,,,,,,,,,,
,,,,,,,,,5e3dec90ce522506a9045e17,spanish,13 or older,"no, only English or Spanish",click here to respond,2025-08-13_19h35.56.878,empathy_intonation_perc_control,2024.2.4,Win32,238.0952381,5e3dec90ce522506a9045e17,68817205a84113384fffdfe3,689d213c9fbb7adf2f454abc,,,,,,,,,,,,./stim/wavs/mexican_match_interrogative-total-yn_Daniel-iba-a-Bolivia.wav,1,,,241.6611,243.8343,1,1,1.6658,,0,59,59,13,1,14,0,mexican,,,,,,,,,,,,,,,,,,,,,,,,,,,,,,,,,,,,,,,,,,,,,,,,,,,,,,,,
,,,,,,,,,5e3dec90ce522506a9045e17,spanish,13 or older,"no, only English or Spanish",click here to respond,2025-08-13_19h35.56.878,empathy_intonation_perc_control,2024.2.4,Win32,238.0952381,5e3dec90ce522506a9045e17,68817205a84113384fffdfe3,689d213c9fbb7adf2f454abc,,,,,,,,,,,,./stim/wavs/mexican_match_interrogative-total-yn_Ana-lleva-el-abrigo.wav,1,,,243.8347,245.9127,1,1,1.5704,,0,60,60,12,1,13,0,mexican,,,,,,,,,,,,,,,,,,,,,,,,,,,,,,,,,,,,,,,,,,,,,,,,,,,,,,,,
,,,,,,,,,5e3dec90ce522506a9045e17,spanish,13 or older,"no, only English or Spanish",click here to respond,2025-08-13_19h35.56.878,empathy_intonation_perc_control,2024.2.4,Win32,238.0952381,5e3dec90ce522506a9045e17,68817205a84113384fffdfe3,689d213c9fbb7adf2f454abc,,,,,,,,,,,,./stim/wavs/castilian_mismatch_declarative-broad-focus_Mi-tia-odia-la-lluvia.wav,0,,,245.9133,248.0156,0,1,1.5951,,0,61,61,72,1,73,0,castilian,,,,,,,,,,,,,,,,,,,,,,,,,,,,,,,,,,,,,,,,,,,,,,,,,,,,,,,,
,,,,,,,,,5e3dec90ce522506a9045e17,spanish,13 or older,"no, only English or Spanish",click here to respond,2025-08-13_19h35.56.878,empathy_intonation_perc_control,2024.2.4,Win32,238.0952381,5e3dec90ce522506a9045e17,68817205a84113384fffdfe3,689d213c9fbb7adf2f454abc,,,,,,,,,,,,./stim/wavs/castilian_mismatch_declarative-broad-focus_Mi-novio-viene-del-lago.wav,0,,,248.0162,250.3976,1,0,1.8745,,0,62,62,71,1,72,0,castilian,,,,,,,,,,,,,,,,,,,,,,,,,,,,,,,,,,,,,,,,,,,,,,,,,,,,,,,,
,,,,,,,,,5e3dec90ce522506a9045e17,spanish,13 or older,"no, only English or Spanish",click here to respond,2025-08-13_19h35.56.878,empathy_intonation_perc_control,2024.2.4,Win32,238.0952381,5e3dec90ce522506a9045e17,68817205a84113384fffdfe3,689d213c9fbb7adf2f454abc,,,,,,,,,,,,./stim/wavs/puertorican_mismatch_declarative-broad-focus_El-bebe-comia-muy-bien.wav,0,,,250.3982,252.5011,0,1,1.5956,,0,63,63,83,1,84,0,puertorican,,,,,,,,,,,,,,,,,,,,,,,,,,,,,,,,,,,,,,,,,,,,,,,,,,,,,,,,
,,,,,,,,,5e3dec90ce522506a9045e17,spanish,13 or older,"no, only English or Spanish",click here to respond,2025-08-13_19h35.56.878,empathy_intonation_perc_control,2024.2.4,Win32,238.0952381,5e3dec90ce522506a9045e17,68817205a84113384fffdfe3,689d213c9fbb7adf2f454abc,,,,,,,,,,,,./stim/wavs/puertorican_mismatch_declarative-broad-focus_La-maestra-vive-en-Paris.wav,0,,,252.5018,254.6257,0,1,1.6164,,0,64,64,86,1,87,0,puertorican,,,,,,,,,,,,,,,,,,,,,,,,,,,,,,,,,,,,,,,,,,,,,,,,,,,,,,,,
,,,,,,,,,5e3dec90ce522506a9045e17,spanish,13 or older,"no, only English or Spanish",click here to respond,2025-08-13_19h35.56.878,empathy_intonation_perc_control,2024.2.4,Win32,238.0952381,5e3dec90ce522506a9045e17,68817205a84113384fffdfe3,689d213c9fbb7adf2f454abc,,,,,,,,,,,,./stim/wavs/puertorican_mismatch_interrogative-total-yn_Mi-madre-come-la-fruta.wav,1,,,254.6264,256.7321,0,0,1.5996,,0,65,65,43,1,44,1,puertorican,,,,,,,,,,,,,,,,,,,,,,,,,,,,,,,,,,,,,,,,,,,,,,,,,,,,,,,,
,,,,,,,,,5e3dec90ce522506a9045e17,spanish,13 or older,"no, only English or Spanish",click here to respond,2025-08-13_19h35.56.878,empathy_intonation_perc_control,2024.2.4,Win32,238.0952381,5e3dec90ce522506a9045e17,68817205a84113384fffdfe3,689d213c9fbb7adf2f454abc,,,,,,,,,,,,./stim/wavs/cuban_mismatch_interrogative-total-yn_El-hombre-mira-la-luna.wav,1,,,256.7325,258.6766,0,0,1.4384,,0,66,66,29,1,30,1,cuban,,,,,,,,,,,,,,,,,,,,,,,,,,,,,,,,,,,,,,,,,,,,,,,,,,,,,,,,
,,,,,,,,,5e3dec90ce522506a9045e17,spanish,13 or older,"no, only English or Spanish",click here to respond,2025-08-13_19h35.56.878,empathy_intonation_perc_control,2024.2.4,Win32,238.0952381,5e3dec90ce522506a9045e17,68817205a84113384fffdfe3,689d213c9fbb7adf2f454abc,,,,,,,,,,,,./stim/wavs/cuban_mismatch_interrogative-total-yn_Mi-novio-viene-del-lago.wav,1,,,258.6769,260.797,0,0,1.6118,,0,67,67,32,1,33,1,cuban,,,,,,,,,,,,,,,,,,,,,,,,,,,,,,,,,,,,,,,,,,,,,,,,,,,,,,,,
,,,,,,,,,5e3dec90ce522506a9045e17,spanish,13 or older,"no, only English or Spanish",click here to respond,2025-08-13_19h35.56.878,empathy_intonation_perc_control,2024.2.4,Win32,238.0952381,5e3dec90ce522506a9045e17,68817205a84113384fffdfe3,689d213c9fbb7adf2f454abc,,,,,,,,,,,,./stim/wavs/castilian_match_declarative-broad-focus_Maria-bebe-el-vino.wav,0,,,260.7972,263.1869,0,1,1.8825,,0,68,68,47,1,48,0,castilian,,,,,,,,,,,,,,,,,,,,,,,,,,,,,,,,,,,,,,,,,,,,,,,,,,,,,,,,
,,,,,,,,,5e3dec90ce522506a9045e17,spanish,13 or older,"no, only English or Spanish",click here to respond,2025-08-13_19h35.56.878,empathy_intonation_perc_control,2024.2.4,Win32,238.0952381,5e3dec90ce522506a9045e17,68817205a84113384fffdfe3,689d213c9fbb7adf2f454abc,,,,,,,,,,,,./stim/wavs/cuban_match_interrogative-total-yn_Mariano-habla-del-tiempo.wav,1,,,263.1872,265.4872,0,0,1.7923,,0,69,69,10,1,11,1,cuban,,,,,,,,,,,,,,,,,,,,,,,,,,,,,,,,,,,,,,,,,,,,,,,,,,,,,,,,
,,,,,,,,,5e3dec90ce522506a9045e17,spanish,13 or older,"no, only English or Spanish",click here to respond,2025-08-13_19h35.56.878,empathy_intonation_perc_control,2024.2.4,Win32,238.0952381,5e3dec90ce522506a9045e17,68817205a84113384fffdfe3,689d213c9fbb7adf2f454abc,,,,,,,,,,,,./stim/wavs/cuban_mismatch_interrogative-total-yn_Mi-madre-come-la-fruta.wav,1,,,265.4875,268.4931,0,0,2.4986,,0,70,70,31,1,32,1,cuban,,,,,,,,,,,,,,,,,,,,,,,,,,,,,,,,,,,,,,,,,,,,,,,,,,,,,,,,
,,,,,,,,,5e3dec90ce522506a9045e17,spanish,13 or older,"no, only English or Spanish",click here to respond,2025-08-13_19h35.56.878,empathy_intonation_perc_control,2024.2.4,Win32,238.0952381,5e3dec90ce522506a9045e17,68817205a84113384fffdfe3,689d213c9fbb7adf2f454abc,,,,,,,,,,,,./stim/wavs/puertorican_match_interrogative-total-yn_Ana-lleva-el-abrigo.wav,1,,,268.4938,270.5494,0,0,1.5485,,0,71,71,18,1,19,1,puertorican,,,,,,,,,,,,,,,,,,,,,,,,,,,,,,,,,,,,,,,,,,,,,,,,,,,,,,,,
,,,,,,,,,5e3dec90ce522506a9045e17,spanish,13 or older,"no, only English or Spanish",click here to respond,2025-08-13_19h35.56.878,empathy_intonation_perc_control,2024.2.4,Win32,238.0952381,5e3dec90ce522506a9045e17,68817205a84113384fffdfe3,689d213c9fbb7adf2f454abc,,,,,,,,,,,,./stim/wavs/mexican_match_interrogative-total-yn_David-leia-el-libro.wav,1,,,270.5497,272.5208,1,1,1.4667,,0,72,72,14,1,15,0,mexican,,,,,,,,,,,,,,,,,,,,,,,,,,,,,,,,,,,,,,,,,,,,,,,,,,,,,,,,
,,,,,,,,,5e3dec90ce522506a9045e17,spanish,13 or older,"no, only English or Spanish",click here to respond,2025-08-13_19h35.56.878,empathy_intonation_perc_control,2024.2.4,Win32,238.0952381,5e3dec90ce522506a9045e17,68817205a84113384fffdfe3,689d213c9fbb7adf2f454abc,,,,,,,,,,,,./stim/wavs/cuban_match_declarative-broad-focus_Daniel-iba-a-Bolivia.wav,0,,,272.5215,274.8602,0,1,1.8322,,0,73,73,51,1,52,0,cuban,,,,,,,,,,,,,,,,,,,,,,,,,,,,,,,,,,,,,,,,,,,,,,,,,,,,,,,,
,,,,,,,,,5e3dec90ce522506a9045e17,spanish,13 or older,"no, only English or Spanish",click here to respond,2025-08-13_19h35.56.878,empathy_intonation_perc_control,2024.2.4,Win32,238.0952381,5e3dec90ce522506a9045e17,68817205a84113384fffdfe3,689d213c9fbb7adf2f454abc,,,,,,,,,,,,./stim/wavs/puertorican_match_declarative-broad-focus_Daniel-iba-a-Bolivia.wav,0,,,274.8607,277.188,0,1,1.8194,,0,74,74,63,1,64,0,puertorican,,,,,,,,,,,,,,,,,,,,,,,,,,,,,,,,,,,,,,,,,,,,,,,,,,,,,,,,
,,,,,,,,,5e3dec90ce522506a9045e17,spanish,13 or older,"no, only English or Spanish",click here to respond,2025-08-13_19h35.56.878,empathy_intonation_perc_control,2024.2.4,Win32,238.0952381,5e3dec90ce522506a9045e17,68817205a84113384fffdfe3,689d213c9fbb7adf2f454abc,,,,,,,,,,,,./stim/wavs/mexican_match_interrogative-total-yn_Marta-abre-el-regalo.wav,1,,,277.1884,304.9711,1,1,27.2744,,0,75,75,17,1,18,0,mexican,,,,,,,,,,,,,,,,,,,,,,,,,,,,,,,,,,,,,,,,,,,,,,,,,,,,,,,,
,,,,,,,,,5e3dec90ce522506a9045e17,spanish,13 or older,"no, only English or Spanish",click here to respond,2025-08-13_19h35.56.878,empathy_intonation_perc_control,2024.2.4,Win32,238.0952381,5e3dec90ce522506a9045e17,68817205a84113384fffdfe3,689d213c9fbb7adf2f454abc,,,,,,,,,,,,./stim/wavs/castilian_mismatch_interrogative-total-yn_La-maestra-vive-en-Paris.wav,1,,,304.972,307.366,1,1,1.8873,,0,76,76,24,1,25,0,castilian,,,,,,,,,,,,,,,,,,,,,,,,,,,,,,,,,,,,,,,,,,,,,,,,,,,,,,,,
,,,,,,,,,5e3dec90ce522506a9045e17,spanish,13 or older,"no, only English or Spanish",click here to respond,2025-08-13_19h35.56.878,empathy_intonation_perc_control,2024.2.4,Win32,238.0952381,5e3dec90ce522506a9045e17,68817205a84113384fffdfe3,689d213c9fbb7adf2f454abc,,,,,,,,,,,,./stim/wavs/mexican_mismatch_declarative-broad-focus_El-bebe-comia-muy-bien.wav,0,,,307.3665,309.5059,0,1,1.6322,,0,77,77,78,1,79,0,mexican,,,,,,,,,,,,,,,,,,,,,,,,,,,,,,,,,,,,,,,,,,,,,,,,,,,,,,,,
,,,,,,,,,5e3dec90ce522506a9045e17,spanish,13 or older,"no, only English or Spanish",click here to respond,2025-08-13_19h35.56.878,empathy_intonation_perc_control,2024.2.4,Win32,238.0952381,5e3dec90ce522506a9045e17,68817205a84113384fffdfe3,689d213c9fbb7adf2f454abc,,,,,,,,,,,,./stim/wavs/castilian_match_interrogative-total-yn_Marta-abre-el-regalo.wav,1,,,309.5065,311.863,1,1,1.8493,,0,78,78,5,1,6,0,castilian,,,,,,,,,,,,,,,,,,,,,,,,,,,,,,,,,,,,,,,,,,,,,,,,,,,,,,,,
,,,,,,,,,5e3dec90ce522506a9045e17,spanish,13 or older,"no, only English or Spanish",click here to respond,2025-08-13_19h35.56.878,empathy_intonation_perc_control,2024.2.4,Win32,238.0952381,5e3dec90ce522506a9045e17,68817205a84113384fffdfe3,689d213c9fbb7adf2f454abc,,,,,,,,,,,,./stim/wavs/castilian_mismatch_interrogative-total-yn_La-nina-lava-el-plato.wav,1,,,311.8634,314.0076,1,1,1.6369,,0,79,79,25,1,26,0,castilian,,,,,,,,,,,,,,,,,,,,,,,,,,,,,,,,,,,,,,,,,,,,,,,,,,,,,,,,
,,,,,,,,,5e3dec90ce522506a9045e17,spanish,13 or older,"no, only English or Spanish",click here to respond,2025-08-13_19h35.56.878,empathy_intonation_perc_control,2024.2.4,Win32,238.0952381,5e3dec90ce522506a9045e17,68817205a84113384fffdfe3,689d213c9fbb7adf2f454abc,,,,,,,,,,,,./stim/wavs/cuban_match_interrogative-total-yn_Ana-lleva-el-abrigo.wav,1,,,314.0078,315.9867,0,0,1.4712,,0,80,80,6,1,7,1,cuban,,,,,,,,,,,,,,,,,,,,,,,,,,,,,,,,,,,,,,,,,,,,,,,,,,,,,,,,
,,,,,,,,,5e3dec90ce522506a9045e17,spanish,13 or older,"no, only English or Spanish",click here to respond,2025-08-13_19h35.56.878,empathy_intonation_perc_control,2024.2.4,Win32,238.0952381,5e3dec90ce522506a9045e17,68817205a84113384fffdfe3,689d213c9fbb7adf2f454abc,,,,,,,,,,,,./stim/wavs/cuban_mismatch_declarative-broad-focus_Mi-novio-viene-del-lago.wav,0,,,315.9873,318.3437,0,1,1.8491,,0,81,81,76,1,77,0,cuban,,,,,,,,,,,,,,,,,,,,,,,,,,,,,,,,,,,,,,,,,,,,,,,,,,,,,,,,
,,,,,,,,,5e3dec90ce522506a9045e17,spanish,13 or older,"no, only English or Spanish",click here to respond,2025-08-13_19h35.56.878,empathy_intonation_perc_control,2024.2.4,Win32,238.0952381,5e3dec90ce522506a9045e17,68817205a84113384fffdfe3,689d213c9fbb7adf2f454abc,,,,,,,,,,,,./stim/wavs/mexican_mismatch_declarative-broad-focus_Mi-tia-odia-la-lluvia.wav,0,,,318.3444,320.5004,0,1,1.6493,,0,82,82,82,1,83,0,mexican,,,,,,,,,,,,,,,,,,,,,,,,,,,,,,,,,,,,,,,,,,,,,,,,,,,,,,,,
,,,,,,,,,5e3dec90ce522506a9045e17,spanish,13 or older,"no, only English or Spanish",click here to respond,2025-08-13_19h35.56.878,empathy_intonation_perc_control,2024.2.4,Win32,238.0952381,5e3dec90ce522506a9045e17,68817205a84113384fffdfe3,689d213c9fbb7adf2f454abc,,,,,,,,,,,,./stim/wavs/cuban_mismatch_declarative-broad-focus_Mi-tia-odia-la-lluvia.wav,0,,,320.5006,322.625,0,1,1.6172,,0,83,83,77,1,78,0,cuban,,,,,,,,,,,,,,,,,,,,,,,,,,,,,,,,,,,,,,,,,,,,,,,,,,,,,,,,
,,,,,,,,,5e3dec90ce522506a9045e17,spanish,13 or older,"no, only English or Spanish",click here to respond,2025-08-13_19h35.56.878,empathy_intonation_perc_control,2024.2.4,Win32,238.0952381,5e3dec90ce522506a9045e17,68817205a84113384fffdfe3,689d213c9fbb7adf2f454abc,,,,,,,,,,,,./stim/wavs/mexican_mismatch_declarative-broad-focus_La-maestra-vive-en-Paris.wav,0,,,322.6253,325.0028,0,1,1.8703,,0,84,84,80,1,81,0,mexican,,,,,,,,,,,,,,,,,,,,,,,,,,,,,,,,,,,,,,,,,,,,,,,,,,,,,,,,
,,,,,,,,,5e3dec90ce522506a9045e17,spanish,13 or older,"no, only English or Spanish",click here to respond,2025-08-13_19h35.56.878,empathy_intonation_perc_control,2024.2.4,Win32,238.0952381,5e3dec90ce522506a9045e17,68817205a84113384fffdfe3,689d213c9fbb7adf2f454abc,,,,,,,,,,,,./stim/wavs/cuban_match_interrogative-total-yn_Daniel-iba-a-Bolivia.wav,1,,,325.0034,327.1626,0,0,1.6523,,0,85,85,7,1,8,1,cuban,,,,,,,,,,,,,,,,,,,,,,,,,,,,,,,,,,,,,,,,,,,,,,,,,,,,,,,,
,,,,,,,,,5e3dec90ce522506a9045e17,spanish,13 or older,"no, only English or Spanish",click here to respond,2025-08-13_19h35.56.878,empathy_intonation_perc_control,2024.2.4,Win32,238.0952381,5e3dec90ce522506a9045e17,68817205a84113384fffdfe3,689d213c9fbb7adf2f454abc,,,,,,,,,,,,./stim/wavs/cuban_match_declarative-broad-focus_Manuela-vende-el-carro.wav,0,,,327.1631,329.9099,0,1,2.2386,,0,86,86,52,1,53,0,cuban,,,,,,,,,,,,,,,,,,,,,,,,,,,,,,,,,,,,,,,,,,,,,,,,,,,,,,,,
,,,,,,,,,5e3dec90ce522506a9045e17,spanish,13 or older,"no, only English or Spanish",click here to respond,2025-08-13_19h35.56.878,empathy_intonation_perc_control,2024.2.4,Win32,238.0952381,5e3dec90ce522506a9045e17,68817205a84113384fffdfe3,689d213c9fbb7adf2f454abc,,,,,,,,,,,,./stim/wavs/cuban_match_declarative-broad-focus_Maria-bebe-el-vino.wav,0,,,329.9101,331.9537,0,1,1.5379,,0,87,87,53,1,54,0,cuban,,,,,,,,,,,,,,,,,,,,,,,,,,,,,,,,,,,,,,,,,,,,,,,,,,,,,,,,
,,,,,,,"Great! Now we will move on. The next task consists of about 60 trials, in each of which you will see a string of letters. 
  
  Your task is to decide whether this is a real Spanish word or not.", (press the spacebar to continue),5e3dec90ce522506a9045e17,spanish,13 or older,"no, only English or Spanish",click here to respond,2025-08-13_19h35.56.878,empathy_intonation_perc_control,2024.2.4,Win32,238.0952381,5e3dec90ce522506a9045e17,68817205a84113384fffdfe3,689d213c9fbb7adf2f454abc,,,,,,,,,,,,,,,,,,,,,,,,,,,,,,331.9746,336.1102,0,0,0,0,1,,,,,,,,,,,,,,,,,,,,,,,,,,,,,,,,,,,,,,,,,,,,,,,,,
,,,,,,,"If you think it is an existing Spanish word, you type '1' (for 'REAL'), and if you think it is not an existing Spanish word, you type '0' (for 'FAKE').", (press the spacebar to continue),5e3dec90ce522506a9045e17,spanish,13 or older,"no, only English or Spanish",click here to respond,2025-08-13_19h35.56.878,empathy_intonation_perc_control,2024.2.4,Win32,238.0952381,5e3dec90ce522506a9045e17,68817205a84113384fffdfe3,689d213c9fbb7adf2f454abc,,,,,,,,,,,,,,,,,,,,,,,,,,,,,,336.1134,338.9947,0,1,1,1,1,,,,,,,,,,,,,,,,,,,,,,,,,,,,,,,,,,,,,,,,,,,,,,,,,
,,,,,,,"If you are sure that the word exists, even though you don’t know its exact meaning, you may still respond '1' (REAL). 
  
  But if you are not sure if it is an existing word, you should respond '0' (FAKE).
  
  Let's do a practice round...", (press the spacebar to continue),5e3dec90ce522506a9045e17,spanish,13 or older,"no, only English or Spanish",click here to respond,2025-08-13_19h35.56.878,empathy_intonation_perc_control,2024.2.4,Win32,238.0952381,5e3dec90ce522506a9045e17,68817205a84113384fffdfe3,689d213c9fbb7adf2f454abc,,,,,,,,,,,,,,,,,,,,,,,,,,,,,,338.9956,344.6135,0,2,2,2,1,,,,,,,,,,,,,,,,,,,,,,,,,,,,,,,,,,,,,,,,,,,,,,,,,
,,,,,,,,,5e3dec90ce522506a9045e17,spanish,13 or older,"no, only English or Spanish",click here to respond,2025-08-13_19h35.56.878,empathy_intonation_perc_control,2024.2.4,Win32,238.0952381,5e3dec90ce522506a9045e17,68817205a84113384fffdfe3,689d213c9fbb7adf2f454abc,,,,,,,,,,,,,0,,,,,,,,,,,,,,,,,,,,,,,,344.6209,347.1464,0,1,2.0124,,347.1467,348.1444,0,0,0,0,1,0,depiste,REAL,FAKE,,,,,,,,,,,,,,,,,,,,,,,,,,,,,,,,
,,,,,,,,,5e3dec90ce522506a9045e17,spanish,13 or older,"no, only English or Spanish",click here to respond,2025-08-13_19h35.56.878,empathy_intonation_perc_control,2024.2.4,Win32,238.0952381,5e3dec90ce522506a9045e17,68817205a84113384fffdfe3,689d213c9fbb7adf2f454abc,,,,,,,,,,,,,1,,,,,,,,,,,,,,,,,,,,,,,,348.1453,349.3079,1,1,0.6526,,349.308,350.3065,0,1,1,1,1,0,sí,REAL,FAKE,,,,,,,,,,,,,,,,,,,,,,,,,,,,,,,,
,,,,,,,,,5e3dec90ce522506a9045e17,spanish,13 or older,"no, only English or Spanish",click here to respond,2025-08-13_19h35.56.878,empathy_intonation_perc_control,2024.2.4,Win32,238.0952381,5e3dec90ce522506a9045e17,68817205a84113384fffdfe3,689d213c9fbb7adf2f454abc,,,,,,,,,,,,,0,,,,,,,,,,,,,,,,,,,,,,,,350.3083,351.4267,0,1,0.6074,,351.4267,352.4255,0,2,2,2,1,0,coné,REAL,FAKE,,,,,,,,,,,,,,,,,,,,,,,,,,,,,,,,
,,,,,,,,,5e3dec90ce522506a9045e17,spanish,13 or older,"no, only English or Spanish",click here to respond,2025-08-13_19h35.56.878,empathy_intonation_perc_control,2024.2.4,Win32,238.0952381,5e3dec90ce522506a9045e17,68817205a84113384fffdfe3,689d213c9fbb7adf2f454abc,,,,,,,,,,,,,0,,,,,,,,,,,,,,,,,,,,,,,,352.4261,353.8935,1,0,0.9568,,353.8941,354.8916,0,3,3,3,1,0,calpar,REAL,FAKE,,,,,,,,,,,,,,,,,,,,,,,,,,,,,,,,
,,,,,,,,,5e3dec90ce522506a9045e17,spanish,13 or older,"no, only English or Spanish",click here to respond,2025-08-13_19h35.56.878,empathy_intonation_perc_control,2024.2.4,Win32,238.0952381,5e3dec90ce522506a9045e17,68817205a84113384fffdfe3,689d213c9fbb7adf2f454abc,,,,,,,,,,,,,0,,,,,,,,,,,,,,,,,,,,,,,,354.8928,356.0327,0,1,0.6289,,356.0333,357.0323,0,4,4,4,1,0,joten,REAL,FAKE,,,,,,,,,,,,,,,,,,,,,,,,,,,,,,,,
,,,,,,,,,5e3dec90ce522506a9045e17,spanish,13 or older,"no, only English or Spanish",click here to respond,2025-08-13_19h35.56.878,empathy_intonation_perc_control,2024.2.4,Win32,238.0952381,5e3dec90ce522506a9045e17,68817205a84113384fffdfe3,689d213c9fbb7adf2f454abc,,,,,,,,,,,,,1,,,,,,,,,,,,,,,,,,,,,,,,357.0333,358.556,0,0,1.0137,,358.5564,359.5551,0,5,5,5,1,0,sacapuntas,REAL,FAKE,,,,,,,,,,,,,,,,,,,,,,,,,,,,,,,,
,,,,,,,,,5e3dec90ce522506a9045e17,spanish,13 or older,"no, only English or Spanish",click here to respond,2025-08-13_19h35.56.878,empathy_intonation_perc_control,2024.2.4,Win32,238.0952381,5e3dec90ce522506a9045e17,68817205a84113384fffdfe3,689d213c9fbb7adf2f454abc,,,,,,,,,,,,,0,,,,,,,,,,,,,,,,,,,,,,,,359.5557,360.8591,0,1,0.7956,,360.8597,361.8591,0,6,6,6,1,0,priba,REAL,FAKE,,,,,,,,,,,,,,,,,,,,,,,,,,,,,,,,
,,,,,,,,,5e3dec90ce522506a9045e17,spanish,13 or older,"no, only English or Spanish",click here to respond,2025-08-13_19h35.56.878,empathy_intonation_perc_control,2024.2.4,Win32,238.0952381,5e3dec90ce522506a9045e17,68817205a84113384fffdfe3,689d213c9fbb7adf2f454abc,,,,,,,,,,,,,0,,,,,,,,,,,,,,,,,,,,,,,,361.8602,362.988,1,0,0.6181,,362.9889,363.9871,0,7,7,7,1,0,pelasula,REAL,FAKE,,,,,,,,,,,,,,,,,,,,,,,,,,,,,,,,
,,,,,,,,,5e3dec90ce522506a9045e17,spanish,13 or older,"no, only English or Spanish",click here to respond,2025-08-13_19h35.56.878,empathy_intonation_perc_control,2024.2.4,Win32,238.0952381,5e3dec90ce522506a9045e17,68817205a84113384fffdfe3,689d213c9fbb7adf2f454abc,,,,,,,,,,,,,1,,,,,,,,,,,,,,,,,,,,,,,,363.9884,365.0614,1,1,0.5636,,365.0618,366.0609,0,8,8,8,1,0,bien,REAL,FAKE,,,,,,,,,,,,,,,,,,,,,,,,,,,,,,,,
,,,,,,,,,5e3dec90ce522506a9045e17,spanish,13 or older,"no, only English or Spanish",click here to respond,2025-08-13_19h35.56.878,empathy_intonation_perc_control,2024.2.4,Win32,238.0952381,5e3dec90ce522506a9045e17,68817205a84113384fffdfe3,689d213c9fbb7adf2f454abc,,,,,,,,,,,,,1,,,,,,,,,,,,,,,,,,,,,,,,366.0621,367.14,1,1,0.5675,,367.1401,368.139,0,9,9,9,1,0,casa,REAL,FAKE,,,,,,,,,,,,,,,,,,,,,,,,,,,,,,,,
,,,,,,,,,5e3dec90ce522506a9045e17,spanish,13 or older,"no, only English or Spanish",click here to respond,2025-08-13_19h35.56.878,empathy_intonation_perc_control,2024.2.4,Win32,238.0952381,5e3dec90ce522506a9045e17,68817205a84113384fffdfe3,689d213c9fbb7adf2f454abc,,,,,,,,,,,,,0,,,,,,,,,,,,,,,,,,,,,,,,368.1399,369.317,0,1,0.6678,,369.3171,370.3164,0,10,10,10,1,0,lejo,REAL,FAKE,,,,,,,,,,,,,,,,,,,,,,,,,,,,,,,,
,,,,,,,,,5e3dec90ce522506a9045e17,spanish,13 or older,"no, only English or Spanish",click here to respond,2025-08-13_19h35.56.878,empathy_intonation_perc_control,2024.2.4,Win32,238.0952381,5e3dec90ce522506a9045e17,68817205a84113384fffdfe3,689d213c9fbb7adf2f454abc,,,,,,,,,,,,,0,,,,,,,,,,,,,,,,,,,,,,,,370.3171,372.0459,0,1,1.218,,372.0459,373.0443,0,11,11,11,1,0,pretantas,REAL,FAKE,,,,,,,,,,,,,,,,,,,,,,,,,,,,,,,,
,,,,,,,,,5e3dec90ce522506a9045e17,spanish,13 or older,"no, only English or Spanish",click here to respond,2025-08-13_19h35.56.878,empathy_intonation_perc_control,2024.2.4,Win32,238.0952381,5e3dec90ce522506a9045e17,68817205a84113384fffdfe3,689d213c9fbb7adf2f454abc,,,,,,,,,,,,,,,,,,,,,,,,,,,,,,,,,,,,,,,,,,,,,,,,,,,,,,373.0446,375.22,,,,,,,,,,,,,,,,,,,,,,,,,,,,,,
,,,,,,,,,5e3dec90ce522506a9045e17,spanish,13 or older,"no, only English or Spanish",click here to respond,2025-08-13_19h35.56.878,empathy_intonation_perc_control,2024.2.4,Win32,238.0952381,5e3dec90ce522506a9045e17,68817205a84113384fffdfe3,689d213c9fbb7adf2f454abc,,,,,,,,,,,,,1,,,,,,,,,,,,,,,,,,,,,,,,,,,,,,,,,,,,,48,ladrón,,,,,375.239,377.0099,0,0,1.2623,,0,0,0,47,1,REAL,FAKE,,,,,,,,,,,,,,,,,
,,,,,,,,,5e3dec90ce522506a9045e17,spanish,13 or older,"no, only English or Spanish",click here to respond,2025-08-13_19h35.56.878,empathy_intonation_perc_control,2024.2.4,Win32,238.0952381,5e3dec90ce522506a9045e17,68817205a84113384fffdfe3,689d213c9fbb7adf2f454abc,,,,,,,,,,,,,1,,,,,,,,,,,,,,,,,,,,,,,,,,,,,,,,,,,,,2,pellizcar,,,,,377.0113,379.4298,0,0,1.9097,,0,1,1,1,1,REAL,FAKE,,,,,,,,,,,,,,,,,
,,,,,,,,,5e3dec90ce522506a9045e17,spanish,13 or older,"no, only English or Spanish",click here to respond,2025-08-13_19h35.56.878,empathy_intonation_perc_control,2024.2.4,Win32,238.0952381,5e3dec90ce522506a9045e17,68817205a84113384fffdfe3,689d213c9fbb7adf2f454abc,,,,,,,,,,,,,1,,,,,,,,,,,,,,,,,,,,,,,,,,,,,,,,,,,,,38,estornudar,,,,,379.431,381.6246,0,0,1.685,,0,2,2,37,1,REAL,FAKE,,,,,,,,,,,,,,,,,
,,,,,,,,,5e3dec90ce522506a9045e17,spanish,13 or older,"no, only English or Spanish",click here to respond,2025-08-13_19h35.56.878,empathy_intonation_perc_control,2024.2.4,Win32,238.0952381,5e3dec90ce522506a9045e17,68817205a84113384fffdfe3,689d213c9fbb7adf2f454abc,,,,,,,,,,,,,1,,,,,,,,,,,,,,,,,,,,,,,,,,,,,,,,,,,,,90,clavel,,,,,381.626,382.8651,0,0,0.7333,,0,3,3,89,1,REAL,FAKE,,,,,,,,,,,,,,,,,
,,,,,,,,,5e3dec90ce522506a9045e17,spanish,13 or older,"no, only English or Spanish",click here to respond,2025-08-13_19h35.56.878,empathy_intonation_perc_control,2024.2.4,Win32,238.0952381,5e3dec90ce522506a9045e17,68817205a84113384fffdfe3,689d213c9fbb7adf2f454abc,,,,,,,,,,,,,1,,,,,,,,,,,,,,,,,,,,,,,,,,,,,,,,,,,,,14,yunque,,,,,382.8659,384.1146,0,0,0.738,,0,4,4,13,1,REAL,FAKE,,,,,,,,,,,,,,,,,
,,,,,,,,,5e3dec90ce522506a9045e17,spanish,13 or older,"no, only English or Spanish",click here to respond,2025-08-13_19h35.56.878,empathy_intonation_perc_control,2024.2.4,Win32,238.0952381,5e3dec90ce522506a9045e17,68817205a84113384fffdfe3,689d213c9fbb7adf2f454abc,,,,,,,,,,,,,1,,,,,,,,,,,,,,,,,,,,,,,,,,,,,,,,,,,,,77,tiburón,,,,,384.1158,385.3768,1,1,0.7518,,0,5,5,76,1,REAL,FAKE,,,,,,,,,,,,,,,,,
,,,,,,,,,5e3dec90ce522506a9045e17,spanish,13 or older,"no, only English or Spanish",click here to respond,2025-08-13_19h35.56.878,empathy_intonation_perc_control,2024.2.4,Win32,238.0952381,5e3dec90ce522506a9045e17,68817205a84113384fffdfe3,689d213c9fbb7adf2f454abc,,,,,,,,,,,,,1,,,,,,,,,,,,,,,,,,,,,,,,,,,,,,,,,,,,,78,frondoso,,,,,385.3782,386.971,0,0,1.0829,,0,6,6,77,1,REAL,FAKE,,,,,,,,,,,,,,,,,
,,,,,,,,,5e3dec90ce522506a9045e17,spanish,13 or older,"no, only English or Spanish",click here to respond,2025-08-13_19h35.56.878,empathy_intonation_perc_control,2024.2.4,Win32,238.0952381,5e3dec90ce522506a9045e17,68817205a84113384fffdfe3,689d213c9fbb7adf2f454abc,,,,,,,,,,,,,0,,,,,,,,,,,,,,,,,,,,,,,,,,,,,,,,,,,,,53,vegada,,,,,386.9721,388.2126,1,0,0.7304,,0,7,7,52,1,REAL,FAKE,,,,,,,,,,,,,,,,,
,,,,,,,,,5e3dec90ce522506a9045e17,spanish,13 or older,"no, only English or Spanish",click here to respond,2025-08-13_19h35.56.878,empathy_intonation_perc_control,2024.2.4,Win32,238.0952381,5e3dec90ce522506a9045e17,68817205a84113384fffdfe3,689d213c9fbb7adf2f454abc,,,,,,,,,,,,,0,,,,,,,,,,,,,,,,,,,,,,,,,,,,,,,,,,,,,32,fatacidad,,,,,388.213,390.4936,0,1,1.7737,,0,8,8,31,1,REAL,FAKE,,,,,,,,,,,,,,,,,
,,,,,,,,,5e3dec90ce522506a9045e17,spanish,13 or older,"no, only English or Spanish",click here to respond,2025-08-13_19h35.56.878,empathy_intonation_perc_control,2024.2.4,Win32,238.0952381,5e3dec90ce522506a9045e17,68817205a84113384fffdfe3,689d213c9fbb7adf2f454abc,,,,,,,,,,,,,1,,,,,,,,,,,,,,,,,,,,,,,,,,,,,,,,,,,,,43,canela,,,,,390.4943,391.8355,1,1,0.8333,,0,9,9,42,1,REAL,FAKE,,,,,,,,,,,,,,,,,
,,,,,,,,,5e3dec90ce522506a9045e17,spanish,13 or older,"no, only English or Spanish",click here to respond,2025-08-13_19h35.56.878,empathy_intonation_perc_control,2024.2.4,Win32,238.0952381,5e3dec90ce522506a9045e17,68817205a84113384fffdfe3,689d213c9fbb7adf2f454abc,,,,,,,,,,,,,1,,,,,,,,,,,,,,,,,,,,,,,,,,,,,,,,,,,,,34,aviso,,,,,391.8365,393.0844,1,1,0.7371,,0,10,10,33,1,REAL,FAKE,,,,,,,,,,,,,,,,,
,,,,,,,,,5e3dec90ce522506a9045e17,spanish,13 or older,"no, only English or Spanish",click here to respond,2025-08-13_19h35.56.878,empathy_intonation_perc_control,2024.2.4,Win32,238.0952381,5e3dec90ce522506a9045e17,68817205a84113384fffdfe3,689d213c9fbb7adf2f454abc,,,,,,,,,,,,,0,,,,,,,,,,,,,,,,,,,,,,,,,,,,,,,,,,,,,79,tropaje,,,,,393.0849,394.4548,0,1,0.8622,,0,11,11,78,1,REAL,FAKE,,,,,,,,,,,,,,,,,
,,,,,,,,,5e3dec90ce522506a9045e17,spanish,13 or older,"no, only English or Spanish",click here to respond,2025-08-13_19h35.56.878,empathy_intonation_perc_control,2024.2.4,Win32,238.0952381,5e3dec90ce522506a9045e17,68817205a84113384fffdfe3,689d213c9fbb7adf2f454abc,,,,,,,,,,,,,1,,,,,,,,,,,,,,,,,,,,,,,,,,,,,,,,,,,,,51,candado,,,,,394.4552,395.8621,1,1,0.9003,,0,12,12,50,1,REAL,FAKE,,,,,,,,,,,,,,,,,
,,,,,,,,,5e3dec90ce522506a9045e17,spanish,13 or older,"no, only English or Spanish",click here to respond,2025-08-13_19h35.56.878,empathy_intonation_perc_control,2024.2.4,Win32,238.0952381,5e3dec90ce522506a9045e17,68817205a84113384fffdfe3,689d213c9fbb7adf2f454abc,,,,,,,,,,,,,1,,,,,,,,,,,,,,,,,,,,,,,,,,,,,,,,,,,,,55,nevar,,,,,395.8626,397.0986,0,0,0.7293,,0,13,13,54,1,REAL,FAKE,,,,,,,,,,,,,,,,,
,,,,,,,,,5e3dec90ce522506a9045e17,spanish,13 or older,"no, only English or Spanish",click here to respond,2025-08-13_19h35.56.878,empathy_intonation_perc_control,2024.2.4,Win32,238.0952381,5e3dec90ce522506a9045e17,68817205a84113384fffdfe3,689d213c9fbb7adf2f454abc,,,,,,,,,,,,,0,,,,,,,,,,,,,,,,,,,,,,,,,,,,,,,,,,,,,1,terzo,,,,,397.0991,398.2117,0,1,0.6055,,0,14,14,0,1,REAL,FAKE,,,,,,,,,,,,,,,,,
,,,,,,,,,5e3dec90ce522506a9045e17,spanish,13 or older,"no, only English or Spanish",click here to respond,2025-08-13_19h35.56.878,empathy_intonation_perc_control,2024.2.4,Win32,238.0952381,5e3dec90ce522506a9045e17,68817205a84113384fffdfe3,689d213c9fbb7adf2f454abc,,,,,,,,,,,,,1,,,,,,,,,,,,,,,,,,,,,,,,,,,,,,,,,,,,,85,laúd,,,,,398.2133,400.0073,0,0,1.2854,,0,15,15,84,1,REAL,FAKE,,,,,,,,,,,,,,,,,
,,,,,,,,,5e3dec90ce522506a9045e17,spanish,13 or older,"no, only English or Spanish",click here to respond,2025-08-13_19h35.56.878,empathy_intonation_perc_control,2024.2.4,Win32,238.0952381,5e3dec90ce522506a9045e17,68817205a84113384fffdfe3,689d213c9fbb7adf2f454abc,,,,,,,,,,,,,0,,,,,,,,,,,,,,,,,,,,,,,,,,,,,,,,,,,,,82,empirador,,,,,400.0089,401.3305,1,0,0.8116,,0,16,16,81,1,REAL,FAKE,,,,,,,,,,,,,,,,,
,,,,,,,,,5e3dec90ce522506a9045e17,spanish,13 or older,"no, only English or Spanish",click here to respond,2025-08-13_19h35.56.878,empathy_intonation_perc_control,2024.2.4,Win32,238.0952381,5e3dec90ce522506a9045e17,68817205a84113384fffdfe3,689d213c9fbb7adf2f454abc,,,,,,,,,,,,,1,,,,,,,,,,,,,,,,,,,,,,,,,,,,,,,,,,,,,71,polvoriento,,,,,401.331,402.7047,0,0,0.8631,,0,17,17,70,1,REAL,FAKE,,,,,,,,,,,,,,,,,
,,,,,,,,,5e3dec90ce522506a9045e17,spanish,13 or older,"no, only English or Spanish",click here to respond,2025-08-13_19h35.56.878,empathy_intonation_perc_control,2024.2.4,Win32,238.0952381,5e3dec90ce522506a9045e17,68817205a84113384fffdfe3,689d213c9fbb7adf2f454abc,,,,,,,,,,,,,0,,,,,,,,,,,,,,,,,,,,,,,,,,,,,,,,,,,,,35,rompido,,,,,402.7054,403.7969,0,1,0.581,,0,18,18,34,1,REAL,FAKE,,,,,,,,,,,,,,,,,
,,,,,,,,,5e3dec90ce522506a9045e17,spanish,13 or older,"no, only English or Spanish",click here to respond,2025-08-13_19h35.56.878,empathy_intonation_perc_control,2024.2.4,Win32,238.0952381,5e3dec90ce522506a9045e17,68817205a84113384fffdfe3,689d213c9fbb7adf2f454abc,,,,,,,,,,,,,1,,,,,,,,,,,,,,,,,,,,,,,,,,,,,,,,,,,,,20,ávido,,,,,403.7989,404.7664,1,1,0.4599,,0,19,19,19,1,REAL,FAKE,,,,,,,,,,,,,,,,,
,,,,,,,,,5e3dec90ce522506a9045e17,spanish,13 or older,"no, only English or Spanish",click here to respond,2025-08-13_19h35.56.878,empathy_intonation_perc_control,2024.2.4,Win32,238.0952381,5e3dec90ce522506a9045e17,68817205a84113384fffdfe3,689d213c9fbb7adf2f454abc,,,,,,,,,,,,,1,,,,,,,,,,,,,,,,,,,,,,,,,,,,,,,,,,,,,22,lacayo,,,,,404.7668,406.4872,1,1,1.2096,,0,20,20,21,1,REAL,FAKE,,,,,,,,,,,,,,,,,
,,,,,,,,,5e3dec90ce522506a9045e17,spanish,13 or older,"no, only English or Spanish",click here to respond,2025-08-13_19h35.56.878,empathy_intonation_perc_control,2024.2.4,Win32,238.0952381,5e3dec90ce522506a9045e17,68817205a84113384fffdfe3,689d213c9fbb7adf2f454abc,,,,,,,,,,,,,1,,,,,,,,,,,,,,,,,,,,,,,,,,,,,,,,,,,,,49,ganar,,,,,406.4884,407.8446,1,1,0.8477,,0,21,21,48,1,REAL,FAKE,,,,,,,,,,,,,,,,,
,,,,,,,,,5e3dec90ce522506a9045e17,spanish,13 or older,"no, only English or Spanish",click here to respond,2025-08-13_19h35.56.878,empathy_intonation_perc_control,2024.2.4,Win32,238.0952381,5e3dec90ce522506a9045e17,68817205a84113384fffdfe3,689d213c9fbb7adf2f454abc,,,,,,,,,,,,,1,,,,,,,,,,,,,,,,,,,,,,,,,,,,,,,,,,,,,41,rebuscar,,,,,407.8458,409.1317,1,1,0.7766,,0,22,22,40,1,REAL,FAKE,,,,,,,,,,,,,,,,,
,,,,,,,,,5e3dec90ce522506a9045e17,spanish,13 or older,"no, only English or Spanish",click here to respond,2025-08-13_19h35.56.878,empathy_intonation_perc_control,2024.2.4,Win32,238.0952381,5e3dec90ce522506a9045e17,68817205a84113384fffdfe3,689d213c9fbb7adf2f454abc,,,,,,,,,,,,,0,,,,,,,,,,,,,,,,,,,,,,,,,,,,,,,,,,,,,47,cartinar,,,,,409.1329,410.3345,1,0,0.693,,0,23,23,46,1,REAL,FAKE,,,,,,,,,,,,,,,,,
,,,,,,,,,5e3dec90ce522506a9045e17,spanish,13 or older,"no, only English or Spanish",click here to respond,2025-08-13_19h35.56.878,empathy_intonation_perc_control,2024.2.4,Win32,238.0952381,5e3dec90ce522506a9045e17,68817205a84113384fffdfe3,689d213c9fbb7adf2f454abc,,,,,,,,,,,,,1,,,,,,,,,,,,,,,,,,,,,,,,,,,,,,,,,,,,,9,hacha,,,,,410.3351,411.3595,0,0,0.5172,,0,24,24,8,1,REAL,FAKE,,,,,,,,,,,,,,,,,
,,,,,,,,,5e3dec90ce522506a9045e17,spanish,13 or older,"no, only English or Spanish",click here to respond,2025-08-13_19h35.56.878,empathy_intonation_perc_control,2024.2.4,Win32,238.0952381,5e3dec90ce522506a9045e17,68817205a84113384fffdfe3,689d213c9fbb7adf2f454abc,,,,,,,,,,,,,0,,,,,,,,,,,,,,,,,,,,,,,,,,,,,,,,,,,,,50,flamida,,,,,411.3607,412.3877,0,1,0.5178,,0,25,25,49,1,REAL,FAKE,,,,,,,,,,,,,,,,,
,,,,,,,,,5e3dec90ce522506a9045e17,spanish,13 or older,"no, only English or Spanish",click here to respond,2025-08-13_19h35.56.878,empathy_intonation_perc_control,2024.2.4,Win32,238.0952381,5e3dec90ce522506a9045e17,68817205a84113384fffdfe3,689d213c9fbb7adf2f454abc,,,,,,,,,,,,,0,,,,,,,,,,,,,,,,,,,,,,,,,,,,,,,,,,,,,17,floroso,,,,,412.3887,413.5798,0,1,0.6813,,0,26,26,16,1,REAL,FAKE,,,,,,,,,,,,,,,,,
,,,,,,,,,5e3dec90ce522506a9045e17,spanish,13 or older,"no, only English or Spanish",click here to respond,2025-08-13_19h35.56.878,empathy_intonation_perc_control,2024.2.4,Win32,238.0952381,5e3dec90ce522506a9045e17,68817205a84113384fffdfe3,689d213c9fbb7adf2f454abc,,,,,,,,,,,,,0,,,,,,,,,,,,,,,,,,,,,,,,,,,,,,,,,,,,,74,cintro,,,,,413.5802,414.6613,1,0,0.5708,,0,27,27,73,1,REAL,FAKE,,,,,,,,,,,,,,,,,
,,,,,,,,,5e3dec90ce522506a9045e17,spanish,13 or older,"no, only English or Spanish",click here to respond,2025-08-13_19h35.56.878,empathy_intonation_perc_control,2024.2.4,Win32,238.0952381,5e3dec90ce522506a9045e17,68817205a84113384fffdfe3,689d213c9fbb7adf2f454abc,,,,,,,,,,,,,1,,,,,,,,,,,,,,,,,,,,,,,,,,,,,,,,,,,,,25,bisagra,,,,,414.6619,416.1407,0,0,0.9714,,0,28,28,24,1,REAL,FAKE,,,,,,,,,,,,,,,,,
,,,,,,,,,5e3dec90ce522506a9045e17,spanish,13 or older,"no, only English or Spanish",click here to respond,2025-08-13_19h35.56.878,empathy_intonation_perc_control,2024.2.4,Win32,238.0952381,5e3dec90ce522506a9045e17,68817205a84113384fffdfe3,689d213c9fbb7adf2f454abc,,,,,,,,,,,,,0,,,,,,,,,,,,,,,,,,,,,,,,,,,,,,,,,,,,,10,antar,,,,,416.1418,417.2061,1,0,0.5556,,0,29,29,9,1,REAL,FAKE,,,,,,,,,,,,,,,,,
,,,,,,,,,5e3dec90ce522506a9045e17,spanish,13 or older,"no, only English or Spanish",click here to respond,2025-08-13_19h35.56.878,empathy_intonation_perc_control,2024.2.4,Win32,238.0952381,5e3dec90ce522506a9045e17,68817205a84113384fffdfe3,689d213c9fbb7adf2f454abc,,,,,,,,,,,,,1,,,,,,,,,,,,,,,,,,,,,,,,,,,,,,,,,,,,,56,musgo,,,,,417.2066,418.3182,0,0,0.6011,,0,30,30,55,1,REAL,FAKE,,,,,,,,,,,,,,,,,
,,,,,,,,,5e3dec90ce522506a9045e17,spanish,13 or older,"no, only English or Spanish",click here to respond,2025-08-13_19h35.56.878,empathy_intonation_perc_control,2024.2.4,Win32,238.0952381,5e3dec90ce522506a9045e17,68817205a84113384fffdfe3,689d213c9fbb7adf2f454abc,,,,,,,,,,,,,0,,,,,,,,,,,,,,,,,,,,,,,,,,,,,,,,,,,,,87,grodo,,,,,418.3189,419.4188,0,1,0.5896,,0,31,31,86,1,REAL,FAKE,,,,,,,,,,,,,,,,,
,,,,,,,,,5e3dec90ce522506a9045e17,spanish,13 or older,"no, only English or Spanish",click here to respond,2025-08-13_19h35.56.878,empathy_intonation_perc_control,2024.2.4,Win32,238.0952381,5e3dec90ce522506a9045e17,68817205a84113384fffdfe3,689d213c9fbb7adf2f454abc,,,,,,,,,,,,,1,,,,,,,,,,,,,,,,,,,,,,,,,,,,,,,,,,,,,45,jilguero,,,,,419.42,420.6211,0,0,0.6923,,0,32,32,44,1,REAL,FAKE,,,,,,,,,,,,,,,,,
,,,,,,,,,5e3dec90ce522506a9045e17,spanish,13 or older,"no, only English or Spanish",click here to respond,2025-08-13_19h35.56.878,empathy_intonation_perc_control,2024.2.4,Win32,238.0952381,5e3dec90ce522506a9045e17,68817205a84113384fffdfe3,689d213c9fbb7adf2f454abc,,,,,,,,,,,,,1,,,,,,,,,,,,,,,,,,,,,,,,,,,,,,,,,,,,,31,pandilla,,,,,420.6217,421.7426,1,1,0.6146,,0,33,33,30,1,REAL,FAKE,,,,,,,,,,,,,,,,,
,,,,,,,,,5e3dec90ce522506a9045e17,spanish,13 or older,"no, only English or Spanish",click here to respond,2025-08-13_19h35.56.878,empathy_intonation_perc_control,2024.2.4,Win32,238.0952381,5e3dec90ce522506a9045e17,68817205a84113384fffdfe3,689d213c9fbb7adf2f454abc,,,,,,,,,,,,,1,,,,,,,,,,,,,,,,,,,,,,,,,,,,,,,,,,,,,65,bizcocho,,,,,421.7431,422.9411,0,0,0.6918,,0,34,34,64,1,REAL,FAKE,,,,,,,,,,,,,,,,,
,,,,,,,,,5e3dec90ce522506a9045e17,spanish,13 or older,"no, only English or Spanish",click here to respond,2025-08-13_19h35.56.878,empathy_intonation_perc_control,2024.2.4,Win32,238.0952381,5e3dec90ce522506a9045e17,68817205a84113384fffdfe3,689d213c9fbb7adf2f454abc,,,,,,,,,,,,,0,,,,,,,,,,,,,,,,,,,,,,,,,,,,,,,,,,,,,4,batillón,,,,,422.9422,424.0075,0,1,0.5556,,0,35,35,3,1,REAL,FAKE,,,,,,,,,,,,,,,,,
,,,,,,,,,5e3dec90ce522506a9045e17,spanish,13 or older,"no, only English or Spanish",click here to respond,2025-08-13_19h35.56.878,empathy_intonation_perc_control,2024.2.4,Win32,238.0952381,5e3dec90ce522506a9045e17,68817205a84113384fffdfe3,689d213c9fbb7adf2f454abc,,,,,,,,,,,,,1,,,,,,,,,,,,,,,,,,,,,,,,,,,,,,,,,,,,,40,alfombra,,,,,424.0086,425.1398,1,1,0.6221,,0,36,36,39,1,REAL,FAKE,,,,,,,,,,,,,,,,,
,,,,,,,,,5e3dec90ce522506a9045e17,spanish,13 or older,"no, only English or Spanish",click here to respond,2025-08-13_19h35.56.878,empathy_intonation_perc_control,2024.2.4,Win32,238.0952381,5e3dec90ce522506a9045e17,68817205a84113384fffdfe3,689d213c9fbb7adf2f454abc,,,,,,,,,,,,,0,,,,,,,,,,,,,,,,,,,,,,,,,,,,,,,,,,,,,21,capillo,,,,,425.1407,426.2267,1,0,0.5785,,0,37,37,20,1,REAL,FAKE,,,,,,,,,,,,,,,,,
,,,,,,,,,5e3dec90ce522506a9045e17,spanish,13 or older,"no, only English or Spanish",click here to respond,2025-08-13_19h35.56.878,empathy_intonation_perc_control,2024.2.4,Win32,238.0952381,5e3dec90ce522506a9045e17,68817205a84113384fffdfe3,689d213c9fbb7adf2f454abc,,,,,,,,,,,,,1,,,,,,,,,,,,,,,,,,,,,,,,,,,,,,,,,,,,,62,flaco,,,,,426.2271,427.371,1,1,0.6333,,0,38,38,61,1,REAL,FAKE,,,,,,,,,,,,,,,,,
,,,,,,,,,5e3dec90ce522506a9045e17,spanish,13 or older,"no, only English or Spanish",click here to respond,2025-08-13_19h35.56.878,empathy_intonation_perc_control,2024.2.4,Win32,238.0952381,5e3dec90ce522506a9045e17,68817205a84113384fffdfe3,689d213c9fbb7adf2f454abc,,,,,,,,,,,,,1,,,,,,,,,,,,,,,,,,,,,,,,,,,,,,,,,,,,,12,asesinato,,,,,427.3716,428.6586,0,0,0.7762,,0,39,39,11,1,REAL,FAKE,,,,,,,,,,,,,,,,,
,,,,,,,,,5e3dec90ce522506a9045e17,spanish,13 or older,"no, only English or Spanish",click here to respond,2025-08-13_19h35.56.878,empathy_intonation_perc_control,2024.2.4,Win32,238.0952381,5e3dec90ce522506a9045e17,68817205a84113384fffdfe3,689d213c9fbb7adf2f454abc,,,,,,,,,,,,,0,,,,,,,,,,,,,,,,,,,,,,,,,,,,,,,,,,,,,16,abracer,,,,,428.6591,429.8672,1,0,0.6977,,0,40,40,15,1,REAL,FAKE,,,,,,,,,,,,,,,,,
,,,,,,,,,5e3dec90ce522506a9045e17,spanish,13 or older,"no, only English or Spanish",click here to respond,2025-08-13_19h35.56.878,empathy_intonation_perc_control,2024.2.4,Win32,238.0952381,5e3dec90ce522506a9045e17,68817205a84113384fffdfe3,689d213c9fbb7adf2f454abc,,,,,,,,,,,,,0,,,,,,,,,,,,,,,,,,,,,,,,,,,,,,,,,,,,,70,temblo,,,,,429.8683,431.1204,0,1,0.7433,,0,41,41,69,1,REAL,FAKE,,,,,,,,,,,,,,,,,
,,,,,,,,,5e3dec90ce522506a9045e17,spanish,13 or older,"no, only English or Spanish",click here to respond,2025-08-13_19h35.56.878,empathy_intonation_perc_control,2024.2.4,Win32,238.0952381,5e3dec90ce522506a9045e17,68817205a84113384fffdfe3,689d213c9fbb7adf2f454abc,,,,,,,,,,,,,1,,,,,,,,,,,,,,,,,,,,,,,,,,,,,,,,,,,,,86,barato,,,,,431.1211,432.4619,0,0,0.831,,0,42,42,85,1,REAL,FAKE,,,,,,,,,,,,,,,,,
,,,,,,,,,5e3dec90ce522506a9045e17,spanish,13 or older,"no, only English or Spanish",click here to respond,2025-08-13_19h35.56.878,empathy_intonation_perc_control,2024.2.4,Win32,238.0952381,5e3dec90ce522506a9045e17,68817205a84113384fffdfe3,689d213c9fbb7adf2f454abc,,,,,,,,,,,,,1,,,,,,,,,,,,,,,,,,,,,,,,,,,,,,,,,,,,,11,cenefa,,,,,432.4631,433.5557,0,0,0.5841,,0,43,43,10,1,REAL,FAKE,,,,,,,,,,,,,,,,,
,,,,,,,,,5e3dec90ce522506a9045e17,spanish,13 or older,"no, only English or Spanish",click here to respond,2025-08-13_19h35.56.878,empathy_intonation_perc_control,2024.2.4,Win32,238.0952381,5e3dec90ce522506a9045e17,68817205a84113384fffdfe3,689d213c9fbb7adf2f454abc,,,,,,,,,,,,,1,,,,,,,,,,,,,,,,,,,,,,,,,,,,,,,,,,,,,44,cuchara,,,,,433.5563,434.6577,1,1,0.5945,,0,44,44,43,1,REAL,FAKE,,,,,,,,,,,,,,,,,
,,,,,,,,,5e3dec90ce522506a9045e17,spanish,13 or older,"no, only English or Spanish",click here to respond,2025-08-13_19h35.56.878,empathy_intonation_perc_control,2024.2.4,Win32,238.0952381,5e3dec90ce522506a9045e17,68817205a84113384fffdfe3,689d213c9fbb7adf2f454abc,,,,,,,,,,,,,0,,,,,,,,,,,,,,,,,,,,,,,,,,,,,,,,,,,,,66,hacido,,,,,434.6582,435.7388,1,0,0.5716,,0,45,45,65,1,REAL,FAKE,,,,,,,,,,,,,,,,,
,,,,,,,,,5e3dec90ce522506a9045e17,spanish,13 or older,"no, only English or Spanish",click here to respond,2025-08-13_19h35.56.878,empathy_intonation_perc_control,2024.2.4,Win32,238.0952381,5e3dec90ce522506a9045e17,68817205a84113384fffdfe3,689d213c9fbb7adf2f454abc,,,,,,,,,,,,,1,,,,,,,,,,,,,,,,,,,,,,,,,,,,,,,,,,,,,89,prisa,,,,,435.7398,437.0706,0,0,0.8213,,0,46,46,88,1,REAL,FAKE,,,,,,,,,,,,,,,,,
,,,,,,,,,5e3dec90ce522506a9045e17,spanish,13 or older,"no, only English or Spanish",click here to respond,2025-08-13_19h35.56.878,empathy_intonation_perc_control,2024.2.4,Win32,238.0952381,5e3dec90ce522506a9045e17,68817205a84113384fffdfe3,689d213c9fbb7adf2f454abc,,,,,,,,,,,,,1,,,,,,,,,,,,,,,,,,,,,,,,,,,,,,,,,,,,,39,torpe,,,,,437.0712,438.3371,0,0,0.7588,,0,47,47,38,1,REAL,FAKE,,,,,,,,,,,,,,,,,
,,,,,,,,,5e3dec90ce522506a9045e17,spanish,13 or older,"no, only English or Spanish",click here to respond,2025-08-13_19h35.56.878,empathy_intonation_perc_control,2024.2.4,Win32,238.0952381,5e3dec90ce522506a9045e17,68817205a84113384fffdfe3,689d213c9fbb7adf2f454abc,,,,,,,,,,,,,1,,,,,,,,,,,,,,,,,,,,,,,,,,,,,,,,,,,,,6,tergiversar,,,,,438.3374,439.5371,1,1,0.6895,,0,48,48,5,1,REAL,FAKE,,,,,,,,,,,,,,,,,
,,,,,,,,,5e3dec90ce522506a9045e17,spanish,13 or older,"no, only English or Spanish",click here to respond,2025-08-13_19h35.56.878,empathy_intonation_perc_control,2024.2.4,Win32,238.0952381,5e3dec90ce522506a9045e17,68817205a84113384fffdfe3,689d213c9fbb7adf2f454abc,,,,,,,,,,,,,0,,,,,,,,,,,,,,,,,,,,,,,,,,,,,,,,,,,,,84,escuto,,,,,439.5381,440.7701,1,0,0.7228,,0,49,49,83,1,REAL,FAKE,,,,,,,,,,,,,,,,,
,,,,,,,,,5e3dec90ce522506a9045e17,spanish,13 or older,"no, only English or Spanish",click here to respond,2025-08-13_19h35.56.878,empathy_intonation_perc_control,2024.2.4,Win32,238.0952381,5e3dec90ce522506a9045e17,68817205a84113384fffdfe3,689d213c9fbb7adf2f454abc,,,,,,,,,,,,,0,,,,,,,,,,,,,,,,,,,,,,,,,,,,,,,,,,,,,58,plaudir,,,,,440.7712,442.3651,0,1,1.0846,,0,50,50,57,1,REAL,FAKE,,,,,,,,,,,,,,,,,
,,,,,,,,,5e3dec90ce522506a9045e17,spanish,13 or older,"no, only English or Spanish",click here to respond,2025-08-13_19h35.56.878,empathy_intonation_perc_control,2024.2.4,Win32,238.0952381,5e3dec90ce522506a9045e17,68817205a84113384fffdfe3,689d213c9fbb7adf2f454abc,,,,,,,,,,,,,1,,,,,,,,,,,,,,,,,,,,,,,,,,,,,,,,,,,,,81,pozo,,,,,442.3662,443.4813,0,0,0.606,,0,51,51,80,1,REAL,FAKE,,,,,,,,,,,,,,,,,
,,,,,,,,,5e3dec90ce522506a9045e17,spanish,13 or older,"no, only English or Spanish",click here to respond,2025-08-13_19h35.56.878,empathy_intonation_perc_control,2024.2.4,Win32,238.0952381,5e3dec90ce522506a9045e17,68817205a84113384fffdfe3,689d213c9fbb7adf2f454abc,,,,,,,,,,,,,1,,,,,,,,,,,,,,,,,,,,,,,,,,,,,,,,,,,,,83,guante,,,,,443.4822,444.8639,1,1,0.8756,,0,52,52,82,1,REAL,FAKE,,,,,,,,,,,,,,,,,
,,,,,,,,,5e3dec90ce522506a9045e17,spanish,13 or older,"no, only English or Spanish",click here to respond,2025-08-13_19h35.56.878,empathy_intonation_perc_control,2024.2.4,Win32,238.0952381,5e3dec90ce522506a9045e17,68817205a84113384fffdfe3,689d213c9fbb7adf2f454abc,,,,,,,,,,,,,1,,,,,,,,,,,,,,,,,,,,,,,,,,,,,,,,,,,,,64,orgulloso,,,,,444.865,446.1336,0,0,0.76,,0,53,53,63,1,REAL,FAKE,,,,,,,,,,,,,,,,,
,,,,,,,,,5e3dec90ce522506a9045e17,spanish,13 or older,"no, only English or Spanish",click here to respond,2025-08-13_19h35.56.878,empathy_intonation_perc_control,2024.2.4,Win32,238.0952381,5e3dec90ce522506a9045e17,68817205a84113384fffdfe3,689d213c9fbb7adf2f454abc,,,,,,,,,,,,,0,,,,,,,,,,,,,,,,,,,,,,,,,,,,,,,,,,,,,27,acutación,,,,,446.1345,447.3837,1,0,0.7393,,0,54,54,26,1,REAL,FAKE,,,,,,,,,,,,,,,,,
,,,,,,,,,5e3dec90ce522506a9045e17,spanish,13 or older,"no, only English or Spanish",click here to respond,2025-08-13_19h35.56.878,empathy_intonation_perc_control,2024.2.4,Win32,238.0952381,5e3dec90ce522506a9045e17,68817205a84113384fffdfe3,689d213c9fbb7adf2f454abc,,,,,,,,,,,,,1,,,,,,,,,,,,,,,,,,,,,,,,,,,,,,,,,,,,,26,secuestro,,,,,447.3848,448.9538,1,1,1.0602,,0,55,55,25,1,REAL,FAKE,,,,,,,,,,,,,,,,,
,,,,,,,,,5e3dec90ce522506a9045e17,spanish,13 or older,"no, only English or Spanish",click here to respond,2025-08-13_19h35.56.878,empathy_intonation_perc_control,2024.2.4,Win32,238.0952381,5e3dec90ce522506a9045e17,68817205a84113384fffdfe3,689d213c9fbb7adf2f454abc,,,,,,,,,,,,,1,,,,,,,,,,,,,,,,,,,,,,,,,,,,,,,,,,,,,75,yacer,,,,,448.9544,450.1071,0,0,0.6445,,0,56,56,74,1,REAL,FAKE,,,,,,,,,,,,,,,,,
,,,,,,,,,5e3dec90ce522506a9045e17,spanish,13 or older,"no, only English or Spanish",click here to respond,2025-08-13_19h35.56.878,empathy_intonation_perc_control,2024.2.4,Win32,238.0952381,5e3dec90ce522506a9045e17,68817205a84113384fffdfe3,689d213c9fbb7adf2f454abc,,,,,,,,,,,,,1,,,,,,,,,,,,,,,,,,,,,,,,,,,,,,,,,,,,,54,fomentar,,,,,450.1082,451.5391,1,1,0.9215,,0,57,57,53,1,REAL,FAKE,,,,,,,,,,,,,,,,,
,,,,,,,,,5e3dec90ce522506a9045e17,spanish,13 or older,"no, only English or Spanish",click here to respond,2025-08-13_19h35.56.878,empathy_intonation_perc_control,2024.2.4,Win32,238.0952381,5e3dec90ce522506a9045e17,68817205a84113384fffdfe3,689d213c9fbb7adf2f454abc,,,,,,,,,,,,,1,,,,,,,,,,,,,,,,,,,,,,,,,,,,,,,,,,,,,7,pésimo,,,,,451.5401,452.6888,1,1,0.6424,,0,58,58,6,1,REAL,FAKE,,,,,,,,,,,,,,,,,
,,,,,,,,,5e3dec90ce522506a9045e17,spanish,13 or older,"no, only English or Spanish",click here to respond,2025-08-13_19h35.56.878,empathy_intonation_perc_control,2024.2.4,Win32,238.0952381,5e3dec90ce522506a9045e17,68817205a84113384fffdfe3,689d213c9fbb7adf2f454abc,,,,,,,,,,,,,1,,,,,,,,,,,,,,,,,,,,,,,,,,,,,,,,,,,,,76,atar,,,,,452.6898,453.9916,1,1,0.7925,,0,59,59,75,1,REAL,FAKE,,,,,,,,,,,,,,,,,
,,,,,,,,,5e3dec90ce522506a9045e17,spanish,13 or older,"no, only English or Spanish",click here to respond,2025-08-13_19h35.56.878,empathy_intonation_perc_control,2024.2.4,Win32,238.0952381,5e3dec90ce522506a9045e17,68817205a84113384fffdfe3,689d213c9fbb7adf2f454abc,,,,,,,,,,,,,0,,,,,,,,,,,,,,,,,,,,,,,,,,,,,,,,,,,,,29,decar,,,,,453.9921,455.1505,1,0,0.6503,,0,60,60,28,1,REAL,FAKE,,,,,,,,,,,,,,,,,
,,,,,,,,,5e3dec90ce522506a9045e17,spanish,13 or older,"no, only English or Spanish",click here to respond,2025-08-13_19h35.56.878,empathy_intonation_perc_control,2024.2.4,Win32,238.0952381,5e3dec90ce522506a9045e17,68817205a84113384fffdfe3,689d213c9fbb7adf2f454abc,,,,,,,,,,,,,1,,,,,,,,,,,,,,,,,,,,,,,,,,,,,,,,,,,,,52,camisa,,,,,455.1516,456.174,0,0,0.5137,,0,61,61,51,1,REAL,FAKE,,,,,,,,,,,,,,,,,
,,,,,,,,,5e3dec90ce522506a9045e17,spanish,13 or older,"no, only English or Spanish",click here to respond,2025-08-13_19h35.56.878,empathy_intonation_perc_control,2024.2.4,Win32,238.0952381,5e3dec90ce522506a9045e17,68817205a84113384fffdfe3,689d213c9fbb7adf2f454abc,,,,,,,,,,,,,1,,,,,,,,,,,,,,,,,,,,,,,,,,,,,,,,,,,,,59,besar,,,,,456.1743,457.6399,0,0,0.9553,,0,62,62,58,1,REAL,FAKE,,,,,,,,,,,,,,,,,
,,,,,,,,,5e3dec90ce522506a9045e17,spanish,13 or older,"no, only English or Spanish",click here to respond,2025-08-13_19h35.56.878,empathy_intonation_perc_control,2024.2.4,Win32,238.0952381,5e3dec90ce522506a9045e17,68817205a84113384fffdfe3,689d213c9fbb7adf2f454abc,,,,,,,,,,,,,0,,,,,,,,,,,,,,,,,,,,,,,,,,,,,,,,,,,,,63,esposante,,,,,457.6405,458.994,1,0,0.8437,,0,63,63,62,1,REAL,FAKE,,,,,,,,,,,,,,,,,
,,,,,,,,,5e3dec90ce522506a9045e17,spanish,13 or older,"no, only English or Spanish",click here to respond,2025-08-13_19h35.56.878,empathy_intonation_perc_control,2024.2.4,Win32,238.0952381,5e3dec90ce522506a9045e17,68817205a84113384fffdfe3,689d213c9fbb7adf2f454abc,,,,,,,,,,,,,0,,,,,,,,,,,,,,,,,,,,,,,,,,,,,,,,,,,,,23,lampera,,,,,458.9945,460.4687,1,0,0.9637,,0,64,64,22,1,REAL,FAKE,,,,,,,,,,,,,,,,,
,,,,,,,,,5e3dec90ce522506a9045e17,spanish,13 or older,"no, only English or Spanish",click here to respond,2025-08-13_19h35.56.878,empathy_intonation_perc_control,2024.2.4,Win32,238.0952381,5e3dec90ce522506a9045e17,68817205a84113384fffdfe3,689d213c9fbb7adf2f454abc,,,,,,,,,,,,,1,,,,,,,,,,,,,,,,,,,,,,,,,,,,,,,,,,,,,5,zapato,,,,,460.4698,461.7261,1,1,0.7465,,0,65,65,4,1,REAL,FAKE,,,,,,,,,,,,,,,,,
,,,,,,,,,5e3dec90ce522506a9045e17,spanish,13 or older,"no, only English or Spanish",click here to respond,2025-08-13_19h35.56.878,empathy_intonation_perc_control,2024.2.4,Win32,238.0952381,5e3dec90ce522506a9045e17,68817205a84113384fffdfe3,689d213c9fbb7adf2f454abc,,,,,,,,,,,,,1,,,,,,,,,,,,,,,,,,,,,,,,,,,,,,,,,,,,,37,granuja,,,,,461.7272,463.2095,1,1,0.976,,0,66,66,36,1,REAL,FAKE,,,,,,,,,,,,,,,,,
,,,,,,,,,5e3dec90ce522506a9045e17,spanish,13 or older,"no, only English or Spanish",click here to respond,2025-08-13_19h35.56.878,empathy_intonation_perc_control,2024.2.4,Win32,238.0952381,5e3dec90ce522506a9045e17,68817205a84113384fffdfe3,689d213c9fbb7adf2f454abc,,,,,,,,,,,,,0,,,,,,,,,,,,,,,,,,,,,,,,,,,,,,,,,,,,,72,pemición,,,,,463.2099,464.2961,0,1,0.5769,,0,67,67,71,1,REAL,FAKE,,,,,,,,,,,,,,,,,
,,,,,,,,,5e3dec90ce522506a9045e17,spanish,13 or older,"no, only English or Spanish",click here to respond,2025-08-13_19h35.56.878,empathy_intonation_perc_control,2024.2.4,Win32,238.0952381,5e3dec90ce522506a9045e17,68817205a84113384fffdfe3,689d213c9fbb7adf2f454abc,,,,,,,,,,,,,1,,,,,,,,,,,,,,,,,,,,,,,,,,,,,,,,,,,,,67,cabello,,,,,464.2971,465.7119,1,1,0.9052,,0,68,68,66,1,REAL,FAKE,,,,,,,,,,,,,,,,,
,,,,,,,,,5e3dec90ce522506a9045e17,spanish,13 or older,"no, only English or Spanish",click here to respond,2025-08-13_19h35.56.878,empathy_intonation_perc_control,2024.2.4,Win32,238.0952381,5e3dec90ce522506a9045e17,68817205a84113384fffdfe3,689d213c9fbb7adf2f454abc,,,,,,,,,,,,,1,,,,,,,,,,,,,,,,,,,,,,,,,,,,,,,,,,,,,3,pulmones,,,,,465.7129,466.9727,1,1,0.7503,,0,69,69,2,1,REAL,FAKE,,,,,,,,,,,,,,,,,
,,,,,,,,,5e3dec90ce522506a9045e17,spanish,13 or older,"no, only English or Spanish",click here to respond,2025-08-13_19h35.56.878,empathy_intonation_perc_control,2024.2.4,Win32,238.0952381,5e3dec90ce522506a9045e17,68817205a84113384fffdfe3,689d213c9fbb7adf2f454abc,,,,,,,,,,,,,1,,,,,,,,,,,,,,,,,,,,,,,,,,,,,,,,,,,,,60,matar,,,,,466.9731,468.1275,1,1,0.6479,,0,70,70,59,1,REAL,FAKE,,,,,,,,,,,,,,,,,
,,,,,,,,,5e3dec90ce522506a9045e17,spanish,13 or older,"no, only English or Spanish",click here to respond,2025-08-13_19h35.56.878,empathy_intonation_perc_control,2024.2.4,Win32,238.0952381,5e3dec90ce522506a9045e17,68817205a84113384fffdfe3,689d213c9fbb7adf2f454abc,,,,,,,,,,,,,0,,,,,,,,,,,,,,,,,,,,,,,,,,,,,,,,,,,,,42,cadallo,,,,,468.1286,469.2815,0,1,0.6438,,0,71,71,41,1,REAL,FAKE,,,,,,,,,,,,,,,,,
,,,,,,,,,5e3dec90ce522506a9045e17,spanish,13 or older,"no, only English or Spanish",click here to respond,2025-08-13_19h35.56.878,empathy_intonation_perc_control,2024.2.4,Win32,238.0952381,5e3dec90ce522506a9045e17,68817205a84113384fffdfe3,689d213c9fbb7adf2f454abc,,,,,,,,,,,,,1,,,,,,,,,,,,,,,,,,,,,,,,,,,,,,,,,,,,,57,tacaño,,,,,469.282,470.5812,0,0,0.7904,,0,72,72,56,1,REAL,FAKE,,,,,,,,,,,,,,,,,
,,,,,,,,,5e3dec90ce522506a9045e17,spanish,13 or older,"no, only English or Spanish",click here to respond,2025-08-13_19h35.56.878,empathy_intonation_perc_control,2024.2.4,Win32,238.0952381,5e3dec90ce522506a9045e17,68817205a84113384fffdfe3,689d213c9fbb7adf2f454abc,,,,,,,,,,,,,0,,,,,,,,,,,,,,,,,,,,,,,,,,,,,,,,,,,,,18,arsa,,,,,470.5824,471.7259,0,1,0.6356,,0,73,73,17,1,REAL,FAKE,,,,,,,,,,,,,,,,,
,,,,,,,,,5e3dec90ce522506a9045e17,spanish,13 or older,"no, only English or Spanish",click here to respond,2025-08-13_19h35.56.878,empathy_intonation_perc_control,2024.2.4,Win32,238.0952381,5e3dec90ce522506a9045e17,68817205a84113384fffdfe3,689d213c9fbb7adf2f454abc,,,,,,,,,,,,,1,,,,,,,,,,,,,,,,,,,,,,,,,,,,,,,,,,,,,24,látigo,,,,,471.7269,473.1494,0,0,0.9134,,0,74,74,23,1,REAL,FAKE,,,,,,,,,,,,,,,,,
,,,,,,,,,5e3dec90ce522506a9045e17,spanish,13 or older,"no, only English or Spanish",click here to respond,2025-08-13_19h35.56.878,empathy_intonation_perc_control,2024.2.4,Win32,238.0952381,5e3dec90ce522506a9045e17,68817205a84113384fffdfe3,689d213c9fbb7adf2f454abc,,,,,,,,,,,,,1,,,,,,,,,,,,,,,,,,,,,,,,,,,,,,,,,,,,,91,click the 1 key.,,,,,473.1514,475.0813,1,1,1.4203,,0,75,75,90,1,REAL,FAKE,,,,,,,,,,,,,,,,,
,,,,,,,,,5e3dec90ce522506a9045e17,spanish,13 or older,"no, only English or Spanish",click here to respond,2025-08-13_19h35.56.878,empathy_intonation_perc_control,2024.2.4,Win32,238.0952381,5e3dec90ce522506a9045e17,68817205a84113384fffdfe3,689d213c9fbb7adf2f454abc,,,,,,,,,,,,,1,,,,,,,,,,,,,,,,,,,,,,,,,,,,,,,,,,,,,13,helar,,,,,475.0818,477.7841,1,1,2.1914,,0,76,76,12,1,REAL,FAKE,,,,,,,,,,,,,,,,,
,,,,,,,,,5e3dec90ce522506a9045e17,spanish,13 or older,"no, only English or Spanish",click here to respond,2025-08-13_19h35.56.878,empathy_intonation_perc_control,2024.2.4,Win32,238.0952381,5e3dec90ce522506a9045e17,68817205a84113384fffdfe3,689d213c9fbb7adf2f454abc,,,,,,,,,,,,,1,,,,,,,,,,,,,,,,,,,,,,,,,,,,,,,,,,,,,15,regar,,,,,477.7847,478.8633,1,1,0.5687,,0,77,77,14,1,REAL,FAKE,,,,,,,,,,,,,,,,,
,,,,,,,,,5e3dec90ce522506a9045e17,spanish,13 or older,"no, only English or Spanish",click here to respond,2025-08-13_19h35.56.878,empathy_intonation_perc_control,2024.2.4,Win32,238.0952381,5e3dec90ce522506a9045e17,68817205a84113384fffdfe3,689d213c9fbb7adf2f454abc,,,,,,,,,,,,,0,,,,,,,,,,,,,,,,,,,,,,,,,,,,,,,,,,,,,30,alardio,,,,,478.8645,480.1537,1,0,0.7805,,0,78,78,29,1,REAL,FAKE,,,,,,,,,,,,,,,,,
,,,,,,,,,5e3dec90ce522506a9045e17,spanish,13 or older,"no, only English or Spanish",click here to respond,2025-08-13_19h35.56.878,empathy_intonation_perc_control,2024.2.4,Win32,238.0952381,5e3dec90ce522506a9045e17,68817205a84113384fffdfe3,689d213c9fbb7adf2f454abc,,,,,,,,,,,,,0,,,,,,,,,,,,,,,,,,,,,,,,,,,,,,,,,,,,,19,brecedad,,,,,480.1542,481.4042,0,1,0.7396,,0,79,79,18,1,REAL,FAKE,,,,,,,,,,,,,,,,,
,,,,,,,,,5e3dec90ce522506a9045e17,spanish,13 or older,"no, only English or Spanish",click here to respond,2025-08-13_19h35.56.878,empathy_intonation_perc_control,2024.2.4,Win32,238.0952381,5e3dec90ce522506a9045e17,68817205a84113384fffdfe3,689d213c9fbb7adf2f454abc,,,,,,,,,,,,,1,,,,,,,,,,,,,,,,,,,,,,,,,,,,,,,,,,,,,69,engatusar,,,,,481.4052,482.6689,0,0,0.7544,,0,80,80,68,1,REAL,FAKE,,,,,,,,,,,,,,,,,
,,,,,,,,,5e3dec90ce522506a9045e17,spanish,13 or older,"no, only English or Spanish",click here to respond,2025-08-13_19h35.56.878,empathy_intonation_perc_control,2024.2.4,Win32,238.0952381,5e3dec90ce522506a9045e17,68817205a84113384fffdfe3,689d213c9fbb7adf2f454abc,,,,,,,,,,,,,0,,,,,,,,,,,,,,,,,,,,,,,,,,,,,,,,,,,,,33,pauca,,,,,482.6695,484.1774,0,1,0.9972,,0,81,81,32,1,REAL,FAKE,,,,,,,,,,,,,,,,,
,,,,,,,,,5e3dec90ce522506a9045e17,spanish,13 or older,"no, only English or Spanish",click here to respond,2025-08-13_19h35.56.878,empathy_intonation_perc_control,2024.2.4,Win32,238.0952381,5e3dec90ce522506a9045e17,68817205a84113384fffdfe3,689d213c9fbb7adf2f454abc,,,,,,,,,,,,,1,,,,,,,,,,,,,,,,,,,,,,,,,,,,,,,,,,,,,36,loro,,,,,484.1783,485.5357,0,0,0.848,,0,82,82,35,1,REAL,FAKE,,,,,,,,,,,,,,,,,
,,,,,,,,,5e3dec90ce522506a9045e17,spanish,13 or older,"no, only English or Spanish",click here to respond,2025-08-13_19h35.56.878,empathy_intonation_perc_control,2024.2.4,Win32,238.0952381,5e3dec90ce522506a9045e17,68817205a84113384fffdfe3,689d213c9fbb7adf2f454abc,,,,,,,,,,,,,0,,,,,,,,,,,,,,,,,,,,,,,,,,,,,,,,,,,,,92,click the 0 key.,,,,,485.5362,486.8639,0,1,0.8212,,0,83,83,91,1,REAL,FAKE,,,,,,,,,,,,,,,,,
,,,,,,,,,5e3dec90ce522506a9045e17,spanish,13 or older,"no, only English or Spanish",click here to respond,2025-08-13_19h35.56.878,empathy_intonation_perc_control,2024.2.4,Win32,238.0952381,5e3dec90ce522506a9045e17,68817205a84113384fffdfe3,689d213c9fbb7adf2f454abc,,,,,,,,,,,,,1,,,,,,,,,,,,,,,,,,,,,,,,,,,,,,,,,,,,,88,acantilado,,,,,486.8649,488.1846,1,1,0.8139,,0,84,84,87,1,REAL,FAKE,,,,,,,,,,,,,,,,,
,,,,,,,,,5e3dec90ce522506a9045e17,spanish,13 or older,"no, only English or Spanish",click here to respond,2025-08-13_19h35.56.878,empathy_intonation_perc_control,2024.2.4,Win32,238.0952381,5e3dec90ce522506a9045e17,68817205a84113384fffdfe3,689d213c9fbb7adf2f454abc,,,,,,,,,,,,,1,,,,,,,,,,,,,,,,,,,,,,,,,,,,,,,,,,,,,68,alegre,,,,,488.1851,489.5125,1,1,0.8189,,0,85,85,67,1,REAL,FAKE,,,,,,,,,,,,,,,,,
,,,,,,,,,5e3dec90ce522506a9045e17,spanish,13 or older,"no, only English or Spanish",click here to respond,2025-08-13_19h35.56.878,empathy_intonation_perc_control,2024.2.4,Win32,238.0952381,5e3dec90ce522506a9045e17,68817205a84113384fffdfe3,689d213c9fbb7adf2f454abc,,,,,,,,,,,,,1,,,,,,,,,,,,,,,,,,,,,,,,,,,,,,,,,,,,,61,seda,,,,,489.5136,490.5943,1,1,0.5714,,0,86,86,60,1,REAL,FAKE,,,,,,,,,,,,,,,,,
,,,,,,,,,5e3dec90ce522506a9045e17,spanish,13 or older,"no, only English or Spanish",click here to respond,2025-08-13_19h35.56.878,empathy_intonation_perc_control,2024.2.4,Win32,238.0952381,5e3dec90ce522506a9045e17,68817205a84113384fffdfe3,689d213c9fbb7adf2f454abc,,,,,,,,,,,,,1,,,,,,,,,,,,,,,,,,,,,,,,,,,,,,,,,,,,,80,hormiga,,,,,490.5948,491.92,0,0,0.818,,0,87,87,79,1,REAL,FAKE,,,,,,,,,,,,,,,,,
,,,,,,,,,5e3dec90ce522506a9045e17,spanish,13 or older,"no, only English or Spanish",click here to respond,2025-08-13_19h35.56.878,empathy_intonation_perc_control,2024.2.4,Win32,238.0952381,5e3dec90ce522506a9045e17,68817205a84113384fffdfe3,689d213c9fbb7adf2f454abc,,,,,,,,,,,,,0,,,,,,,,,,,,,,,,,,,,,,,,,,,,,,,,,,,,,8,cadeña,,,,,491.9204,493.4775,1,0,1.0478,,0,88,88,7,1,REAL,FAKE,,,,,,,,,,,,,,,,,
,,,,,,,,,5e3dec90ce522506a9045e17,spanish,13 or older,"no, only English or Spanish",click here to respond,2025-08-13_19h35.56.878,empathy_intonation_perc_control,2024.2.4,Win32,238.0952381,5e3dec90ce522506a9045e17,68817205a84113384fffdfe3,689d213c9fbb7adf2f454abc,,,,,,,,,,,,,1,,,,,,,,,,,,,,,,,,,,,,,,,,,,,,,,,,,,,28,merodear,,,,,493.4786,494.8843,0,0,0.896,,0,89,89,27,1,REAL,FAKE,,,,,,,,,,,,,,,,,
,,,,,,,,,5e3dec90ce522506a9045e17,spanish,13 or older,"no, only English or Spanish",click here to respond,2025-08-13_19h35.56.878,empathy_intonation_perc_control,2024.2.4,Win32,238.0952381,5e3dec90ce522506a9045e17,68817205a84113384fffdfe3,689d213c9fbb7adf2f454abc,,,,,,,,,,,,,1,,,,,,,,,,,,,,,,,,,,,,,,,,,,,,,,,,,,,46,martillo,,,,,494.8851,496.0355,1,1,0.6402,,0,90,90,45,1,REAL,FAKE,,,,,,,,,,,,,,,,,
,,,,,,,,,5e3dec90ce522506a9045e17,spanish,13 or older,"no, only English or Spanish",click here to respond,2025-08-13_19h35.56.878,empathy_intonation_perc_control,2024.2.4,Win32,238.0952381,5e3dec90ce522506a9045e17,68817205a84113384fffdfe3,689d213c9fbb7adf2f454abc,,,,,,,,,,,,,1,,,,,,,,,,,,,,,,,,,,,,,,,,,,,,,,,,,,,73,hervidor,,,,,496.0366,497.1915,0,0,0.649,,0,91,91,72,1,REAL,FAKE,,,,,,,,,,,,,,,,,
,,,,,,,,,5e3dec90ce522506a9045e17,spanish,13 or older,"no, only English or Spanish",click here to respond,2025-08-13_19h35.56.878,empathy_intonation_perc_control,2024.2.4,Win32,238.0952381,5e3dec90ce522506a9045e17,68817205a84113384fffdfe3,689d213c9fbb7adf2f454abc,,,,,,,,,,,,,,,,,,,,,,,,,,,,,,,,,,,,,,,,,,,,,,,,,,,,,,,,,,,,,,,,,,,,,497.192,500.9324,,,,,,,,,,,,,,,
,,,,,,,,,5e3dec90ce522506a9045e17,spanish,13 or older,"no, only English or Spanish",click here to respond,2025-08-13_19h35.56.878,empathy_intonation_perc_control,2024.2.4,Win32,238.0952381,5e3dec90ce522506a9045e17,68817205a84113384fffdfe3,689d213c9fbb7adf2f454abc,,,,,,,,,,,,,,,,,,,,,,,,,,,1,,,,,,,,,,,,,,,,,,,,,,,,,,,,,,,,,,,,,,,,,,,,500.9529,503.7903,slightly agree,0,0,0,0,1,I can easily tell if someone else wants to enter a conversation.,1,0,1,0,,
,,,,,,,,,5e3dec90ce522506a9045e17,spanish,13 or older,"no, only English or Spanish",click here to respond,2025-08-13_19h35.56.878,empathy_intonation_perc_control,2024.2.4,Win32,238.0952381,5e3dec90ce522506a9045e17,68817205a84113384fffdfe3,689d213c9fbb7adf2f454abc,,,,,,,,,,,,,,,,,,,,,,,,,,,2,,,,,,,,,,,,,,,,,,,,,,,,,,,,,,,,,,,,,,,,,,,,503.7911,506.251,strongly agree,0,1,1,1,1,I prefer animals to humans.,0,1,0,0,,
,,,,,,,,,5e3dec90ce522506a9045e17,spanish,13 or older,"no, only English or Spanish",click here to respond,2025-08-13_19h35.56.878,empathy_intonation_perc_control,2024.2.4,Win32,238.0952381,5e3dec90ce522506a9045e17,68817205a84113384fffdfe3,689d213c9fbb7adf2f454abc,,,,,,,,,,,,,,,,,,,,,,,,,,,3,,,,,,,,,,,,,,,,,,,,,,,,,,,,,,,,,,,,,,,,,,,,506.2522,508.3629,slightly agree,0,2,2,2,1,I try to keep up with the current trends and fashions.,0,1,0,0,,
,,,,,,,,,5e3dec90ce522506a9045e17,spanish,13 or older,"no, only English or Spanish",click here to respond,2025-08-13_19h35.56.878,empathy_intonation_perc_control,2024.2.4,Win32,238.0952381,5e3dec90ce522506a9045e17,68817205a84113384fffdfe3,689d213c9fbb7adf2f454abc,,,,,,,,,,,,,,,,,,,,,,,,,,,4,,,,,,,,,,,,,,,,,,,,,,,,,,,,,,,,,,,,,,,,,,,,508.3642,510.9304,slightly disagree,0,3,3,3,1,"I find it difficult to explain to others things that I understand easily,   when they don't understand it first time.",1,0,0,1,,
,,,,,,,,,5e3dec90ce522506a9045e17,spanish,13 or older,"no, only English or Spanish",click here to respond,2025-08-13_19h35.56.878,empathy_intonation_perc_control,2024.2.4,Win32,238.0952381,5e3dec90ce522506a9045e17,68817205a84113384fffdfe3,689d213c9fbb7adf2f454abc,,,,,,,,,,,,,,,,,,,,,,,,,,,5,,,,,,,,,,,,,,,,,,,,,,,,,,,,,,,,,,,,,,,,,,,,510.9309,513.828,slightly disagree,0,4,4,4,1,I dream most nights.,0,1,0,0,,
,,,,,,,,,5e3dec90ce522506a9045e17,spanish,13 or older,"no, only English or Spanish",click here to respond,2025-08-13_19h35.56.878,empathy_intonation_perc_control,2024.2.4,Win32,238.0952381,5e3dec90ce522506a9045e17,68817205a84113384fffdfe3,689d213c9fbb7adf2f454abc,,,,,,,,,,,,,,,,,,,,,,,,,,,6,,,,,,,,,,,,,,,,,,,,,,,,,,,,,,,,,,,,,,,,,,,,513.8289,515.1467,slightly agree,0,5,5,5,1,I really enjoy caring for other people.,1,0,1,0,,
,,,,,,,,,5e3dec90ce522506a9045e17,spanish,13 or older,"no, only English or Spanish",click here to respond,2025-08-13_19h35.56.878,empathy_intonation_perc_control,2024.2.4,Win32,238.0952381,5e3dec90ce522506a9045e17,68817205a84113384fffdfe3,689d213c9fbb7adf2f454abc,,,,,,,,,,,,,,,,,,,,,,,,,,,7,,,,,,,,,,,,,,,,,,,,,,,,,,,,,,,,,,,,,,,,,,,,515.1472,517.4437,strongly agree,0,6,6,6,1,I try to solve my own problems rather than discussing them with others.,0,1,0,0,,
,,,,,,,,,5e3dec90ce522506a9045e17,spanish,13 or older,"no, only English or Spanish",click here to respond,2025-08-13_19h35.56.878,empathy_intonation_perc_control,2024.2.4,Win32,238.0952381,5e3dec90ce522506a9045e17,68817205a84113384fffdfe3,689d213c9fbb7adf2f454abc,,,,,,,,,,,,,,,,,,,,,,,,,,,8,,,,,,,,,,,,,,,,,,,,,,,,,,,,,,,,,,,,,,,,,,,,517.4443,519.271,slightly disagree,0,7,7,7,1,I find it hard to know what to do in a social situation.,1,0,0,1,,
,,,,,,,,,5e3dec90ce522506a9045e17,spanish,13 or older,"no, only English or Spanish",click here to respond,2025-08-13_19h35.56.878,empathy_intonation_perc_control,2024.2.4,Win32,238.0952381,5e3dec90ce522506a9045e17,68817205a84113384fffdfe3,689d213c9fbb7adf2f454abc,,,,,,,,,,,,,,,,,,,,,,,,,,,9,,,,,,,,,,,,,,,,,,,,,,,,,,,,,,,,,,,,,,,,,,,,519.2719,521.2562,strongly disagree,0,8,8,8,1,I am at my best first thing in the morning.,0,1,0,0,,
,,,,,,,,,5e3dec90ce522506a9045e17,spanish,13 or older,"no, only English or Spanish",click here to respond,2025-08-13_19h35.56.878,empathy_intonation_perc_control,2024.2.4,Win32,238.0952381,5e3dec90ce522506a9045e17,68817205a84113384fffdfe3,689d213c9fbb7adf2f454abc,,,,,,,,,,,,,,,,,,,,,,,,,,,10,,,,,,,,,,,,,,,,,,,,,,,,,,,,,,,,,,,,,,,,,,,,521.2568,524.9859,slightly disagree,0,9,9,9,1,People often tell me that I went too far in driving my point home in a discussion.,1,0,0,1,,
,,,,,,,,,5e3dec90ce522506a9045e17,spanish,13 or older,"no, only English or Spanish",click here to respond,2025-08-13_19h35.56.878,empathy_intonation_perc_control,2024.2.4,Win32,238.0952381,5e3dec90ce522506a9045e17,68817205a84113384fffdfe3,689d213c9fbb7adf2f454abc,,,,,,,,,,,,,,,,,,,,,,,,,,,11,,,,,,,,,,,,,,,,,,,,,,,,,,,,,,,,,,,,,,,,,,,,524.9865,528.0521,strongly disagree,0,10,10,10,1,It doesn't bother me too much if I am late meeting a friend.,1,0,0,1,,
,,,,,,,,,5e3dec90ce522506a9045e17,spanish,13 or older,"no, only English or Spanish",click here to respond,2025-08-13_19h35.56.878,empathy_intonation_perc_control,2024.2.4,Win32,238.0952381,5e3dec90ce522506a9045e17,68817205a84113384fffdfe3,689d213c9fbb7adf2f454abc,,,,,,,,,,,,,,,,,,,,,,,,,,,12,,,,,,,,,,,,,,,,,,,,,,,,,,,,,,,,,,,,,,,,,,,,528.0528,531.7874,slightly disagree,0,11,11,11,1,"Friendships and relationships are just too difficult, so I tend not to 
  bother with them.",1,0,0,1,,
,,,,,,,,,5e3dec90ce522506a9045e17,spanish,13 or older,"no, only English or Spanish",click here to respond,2025-08-13_19h35.56.878,empathy_intonation_perc_control,2024.2.4,Win32,238.0952381,5e3dec90ce522506a9045e17,68817205a84113384fffdfe3,689d213c9fbb7adf2f454abc,,,,,,,,,,,,,,,,,,,,,,,,,,,13,,,,,,,,,,,,,,,,,,,,,,,,,,,,,,,,,,,,,,,,,,,,531.7882,533.8309,strongly agree,0,12,12,12,1,"I would never break a law, no matter how minor.",0,1,0,0,,
,,,,,,,,,5e3dec90ce522506a9045e17,spanish,13 or older,"no, only English or Spanish",click here to respond,2025-08-13_19h35.56.878,empathy_intonation_perc_control,2024.2.4,Win32,238.0952381,5e3dec90ce522506a9045e17,68817205a84113384fffdfe3,689d213c9fbb7adf2f454abc,,,,,,,,,,,,,,,,,,,,,,,,,,,14,,,,,,,,,,,,,,,,,,,,,,,,,,,,,,,,,,,,,,,,,,,,533.8314,538.109,slightly disagree,0,13,13,13,1,I often find it difficult to judge if something is rude or polite.,1,0,0,1,,
,,,,,,,,,5e3dec90ce522506a9045e17,spanish,13 or older,"no, only English or Spanish",click here to respond,2025-08-13_19h35.56.878,empathy_intonation_perc_control,2024.2.4,Win32,238.0952381,5e3dec90ce522506a9045e17,68817205a84113384fffdfe3,689d213c9fbb7adf2f454abc,,,,,,,,,,,,,,,,,,,,,,,,,,,15,,,,,,,,,,,,,,,,,,,,,,,,,,,,,,,,,,,,,,,,,,,,538.1099,540.8378,strongly disagree,0,14,14,14,1,"In a conversation, I tend to focus on my own thoughts rather than on what 
  my listener might be thinking.",1,0,0,1,,
