instructions_2afc.started,instructions_2afc.stopped,instructions_2afc_loop.thisRepN,instructions_2afc_loop.thisTrialN,instructions_2afc_loop.thisN,instructions_2afc_loop.thisIndex,instructions_2afc_loop.ran,instructions_text,continue_text,participant_id,"What variety of Spanish are you most familiar with? (e.g., Peruvian, Spanish, Mexican)",At what age did you begin learning Spanish?,Are you proficient in any languages other than English/Spanish?,"Are you familiar with Caribbean (e.g., Caribbean, Puerto Rican) or Galician Spanish?",date,expName,psychopyVersion,OS,frameRate,id,study_id,session,practice_2afc.started,practice_2afc.stopped,key_resp_2afc_practice.keys,key_resp_2afc_practice.corr,key_resp_2afc_practice.rt,key_resp_2afc_practice.duration,trials_2afc_practice_loop.thisRepN,trials_2afc_practice_loop.thisTrialN,trials_2afc_practice_loop.thisN,trials_2afc_practice_loop.thisIndex,trials_2afc_practice_loop.ran,path,correct_response,check_2afc.started,check_2afc.stopped,trial_2afc.started,trial_2afc.stopped,key_resp_2afc_trial.keys,key_resp_2afc_trial.corr,key_resp_2afc_trial.rt,key_resp_2afc_trial.duration,trials_2afc_loop.thisRepN,trials_2afc_loop.thisTrialN,trials_2afc_loop.thisN,trials_2afc_loop.thisIndex,trials_2afc_loop.ran,item_num,target,variety,instructions_lextale.started,instructions_lextale.stopped,instructions_lextale_loop.thisRepN,instructions_lextale_loop.thisTrialN,instructions_lextale_loop.thisN,instructions_lextale_loop.thisIndex,instructions_lextale_loop.ran,practice_lextale.started,practice_lextale.stopped,key_resp_lextale_practice.keys,key_resp_lextale_practice.corr,key_resp_lextale_practice.rt,key_resp_lextale_practice.duration,practice_feedback_lextale.started,practice_feedback_lextale.stopped,trials_lextale_practice_loop.thisRepN,trials_lextale_practice_loop.thisTrialN,trials_lextale_practice_loop.thisN,trials_lextale_practice_loop.thisIndex,trials_lextale_practice_loop.ran,stim,word,prac_button_real,prac_button_false,check_lextale.started,check_lextale.stopped,trial_lextale.started,trial_lextale.stopped,key_resp_lextale_trial.keys,key_resp_lextale_trial.corr,key_resp_lextale_trial.rt,key_resp_lextale_trial.duration,trials_lextale_loop.thisRepN,trials_lextale_loop.thisTrialN,trials_lextale_loop.thisN,trials_lextale_loop.thisIndex,trials_lextale_loop.ran,button_real,button_false,instructions_eq.started,instructions_eq.stopped,trial_eq.started,trial_eq.stopped,slider_eq_trial.response,trials_eq_loop.thisRepN,trials_eq_loop.thisTrialN,trials_eq_loop.thisN,trials_eq_loop.thisIndex,trials_eq_loop.ran,item,is_test_item,is_distractor,is_agree_score,is_disagree_score,end_exp.started,end_exp.stopped
0.056,58.178,0,0,0,0,1,"In the following task you are going to hear a series of utterances. 

  You will decide if the utterances sound like questions or not using your keyboard.", (press the spacebar to continue),5e6fd3293c76d25a3ca8b384,Spanish,13 or older,"no, only English or Spanish",no,2025-07-24_11h19.18.311,empathy_intonation_perc_control,2024.2.4,Win32,6.854009596,5e6fd3293c76d25a3ca8b384,68817205a84113384fffdfe3,68824da2767f56a88fd375cf,,,,,,,,,,,,,,,,,,,,,,,,,,,,,,,,,,,,,,,,,,,,,,,,,,,,,,,,,,,,,,,,,,,,,,,,,,,,,,,,,,,,,
58.184,128.067,0,1,1,1,1,"If you believe the utterance is a question, type '1' (for 'yes') and if you do not 
  believe it is a question type '0' (for 'no').

  Let's practice a bit...", (press the spacebar to continue),5e6fd3293c76d25a3ca8b384,Spanish,13 or older,"no, only English or Spanish",no,2025-07-24_11h19.18.311,empathy_intonation_perc_control,2024.2.4,Win32,6.854009596,5e6fd3293c76d25a3ca8b384,68817205a84113384fffdfe3,68824da2767f56a88fd375cf,,,,,,,,,,,,,,,,,,,,,,,,,,,,,,,,,,,,,,,,,,,,,,,,,,,,,,,,,,,,,,,,,,,,,,,,,,,,,,,,,,,,,
,,,,,,,,,5e6fd3293c76d25a3ca8b384,Spanish,13 or older,"no, only English or Spanish",no,2025-07-24_11h19.18.311,empathy_intonation_perc_control,2024.2.4,Win32,6.854009596,5e6fd3293c76d25a3ca8b384,68817205a84113384fffdfe3,68824da2767f56a88fd375cf,128.114,139.927,1,1,11.063,,0,0,0,1,1,./stim/wavs/argentine_question_filler_Mi-vecino-habla-mucho.wav,1,,,,,,,,,,,,,,,,,,,,,,,,,,,,,,,,,,,,,,,,,,,,,,,,,,,,,,,,,,,,,,,,,,,,,,,,
,,,,,,,,,5e6fd3293c76d25a3ca8b384,Spanish,13 or older,"no, only English or Spanish",no,2025-07-24_11h19.18.311,empathy_intonation_perc_control,2024.2.4,Win32,6.854009596,5e6fd3293c76d25a3ca8b384,68817205a84113384fffdfe3,68824da2767f56a88fd375cf,139.932,143.964,1,0,3.267,,0,1,1,5,1,./stim/wavs/andalusian_statement_filler_Alberto-nunca-se-afeita.wav,0,,,,,,,,,,,,,,,,,,,,,,,,,,,,,,,,,,,,,,,,,,,,,,,,,,,,,,,,,,,,,,,,,,,,,,,,
,,,,,,,,,5e6fd3293c76d25a3ca8b384,Spanish,13 or older,"no, only English or Spanish",no,2025-07-24_11h19.18.311,empathy_intonation_perc_control,2024.2.4,Win32,6.854009596,5e6fd3293c76d25a3ca8b384,68817205a84113384fffdfe3,68824da2767f56a88fd375cf,143.966,190.048,1,0,45.276,,0,2,2,7,1,./stim/wavs/puertorican_statement_filler_La-nina-pinta-con-su-amiga.wav,0,,,,,,,,,,,,,,,,,,,,,,,,,,,,,,,,,,,,,,,,,,,,,,,,,,,,,,,,,,,,,,,,,,,,,,,,
,,,,,,,,,5e6fd3293c76d25a3ca8b384,Spanish,13 or older,"no, only English or Spanish",no,2025-07-24_11h19.18.311,empathy_intonation_perc_control,2024.2.4,Win32,6.854009596,5e6fd3293c76d25a3ca8b384,68817205a84113384fffdfe3,68824da2767f56a88fd375cf,190.054,193.59,1,1,2.77,,0,3,3,3,1,./stim/wavs/mexican_question_filler_Felipe-no-tiene-contrasena.wav,1,,,,,,,,,,,,,,,,,,,,,,,,,,,,,,,,,,,,,,,,,,,,,,,,,,,,,,,,,,,,,,,,,,,,,,,,
,,,,,,,,,5e6fd3293c76d25a3ca8b384,Spanish,13 or older,"no, only English or Spanish",no,2025-07-24_11h19.18.311,empathy_intonation_perc_control,2024.2.4,Win32,6.854009596,5e6fd3293c76d25a3ca8b384,68817205a84113384fffdfe3,68824da2767f56a88fd375cf,193.595,197.081,1,0,2.83,,0,4,4,4,1,./stim/wavs/cuban_statement_filler_Cocinabas-por-la-noche.wav,0,,,,,,,,,,,,,,,,,,,,,,,,,,,,,,,,,,,,,,,,,,,,,,,,,,,,,,,,,,,,,,,,,,,,,,,,
,,,,,,,,,5e6fd3293c76d25a3ca8b384,Spanish,13 or older,"no, only English or Spanish",no,2025-07-24_11h19.18.311,empathy_intonation_perc_control,2024.2.4,Win32,6.854009596,5e6fd3293c76d25a3ca8b384,68817205a84113384fffdfe3,68824da2767f56a88fd375cf,197.082,203.185,1,1,5.35,0.002,0,5,5,2,1,./stim/wavs/chilean_question_filler_Mi-padre-cantaba-bien.wav,1,,,,,,,,,,,,,,,,,,,,,,,,,,,,,,,,,,,,,,,,,,,,,,,,,,,,,,,,,,,,,,,,,,,,,,,,
,,,,,,,,,5e6fd3293c76d25a3ca8b384,Spanish,13 or older,"no, only English or Spanish",no,2025-07-24_11h19.18.311,empathy_intonation_perc_control,2024.2.4,Win32,6.854009596,5e6fd3293c76d25a3ca8b384,68817205a84113384fffdfe3,68824da2767f56a88fd375cf,203.186,210.459,1,1,6.508,,0,6,6,0,1,./stim/wavs/castilian_question_filler_Mi-esposo-conoce-al-chico.wav,1,,,,,,,,,,,,,,,,,,,,,,,,,,,,,,,,,,,,,,,,,,,,,,,,,,,,,,,,,,,,,,,,,,,,,,,,
,,,,,,,,,5e6fd3293c76d25a3ca8b384,Spanish,13 or older,"no, only English or Spanish",no,2025-07-24_11h19.18.311,empathy_intonation_perc_control,2024.2.4,Win32,6.854009596,5e6fd3293c76d25a3ca8b384,68817205a84113384fffdfe3,68824da2767f56a88fd375cf,210.467,681.693,0,1,470.46,0.001,0,7,7,6,1,./stim/wavs/peruvian_statement_filler_El-nino-habla-con-su-madre.wav,0,,,,,,,,,,,,,,,,,,,,,,,,,,,,,,,,,,,,,,,,,,,,,,,,,,,,,,,,,,,,,,,,,,,,,,,,
,,,,,,,,,5e6fd3293c76d25a3ca8b384,Spanish,13 or older,"no, only English or Spanish",no,2025-07-24_11h19.18.311,empathy_intonation_perc_control,2024.2.4,Win32,6.854009596,5e6fd3293c76d25a3ca8b384,68817205a84113384fffdfe3,68824da2767f56a88fd375cf,,,,,,,,,,,,,,681.702,743.489,,,,,,,,,,,,,,,,,,,,,,,,,,,,,,,,,,,,,,,,,,,,,,,,,,,,,,,,,,,,,,,,,,,,,,
,,,,,,,,,5e6fd3293c76d25a3ca8b384,Spanish,13 or older,"no, only English or Spanish",no,2025-07-24_11h19.18.311,empathy_intonation_perc_control,2024.2.4,Win32,6.854009596,5e6fd3293c76d25a3ca8b384,68817205a84113384fffdfe3,68824da2767f56a88fd375cf,,,,,,,,,,,,./stim/wavs/cuban_mismatch_interrogative-total-yn_Mi-tia-odia-la-lluvia.wav,1,,,743.579,749.547,0,0,5.24,,0,0,0,33,1,34,1,cuban,,,,,,,,,,,,,,,,,,,,,,,,,,,,,,,,,,,,,,,,,,,,,,,,,,,,,,,,
,,,,,,,,,5e6fd3293c76d25a3ca8b384,Spanish,13 or older,"no, only English or Spanish",no,2025-07-24_11h19.18.311,empathy_intonation_perc_control,2024.2.4,Win32,6.854009596,5e6fd3293c76d25a3ca8b384,68817205a84113384fffdfe3,68824da2767f56a88fd375cf,,,,,,,,,,,,./stim/wavs/mexican_mismatch_interrogative-total-yn_El-hombre-mira-la-luna.wav,1,,,749.55,754.87,1,1,4.572,,0,1,1,34,1,35,0,mexican,,,,,,,,,,,,,,,,,,,,,,,,,,,,,,,,,,,,,,,,,,,,,,,,,,,,,,,,
,,,,,,,,,5e6fd3293c76d25a3ca8b384,Spanish,13 or older,"no, only English or Spanish",no,2025-07-24_11h19.18.311,empathy_intonation_perc_control,2024.2.4,Win32,6.854009596,5e6fd3293c76d25a3ca8b384,68817205a84113384fffdfe3,68824da2767f56a88fd375cf,,,,,,,,,,,,./stim/wavs/castilian_match_interrogative-total-yn_Marta-abre-el-regalo.wav,1,,,754.877,760.377,0,0,4.743,,0,2,2,5,1,6,0,castilian,,,,,,,,,,,,,,,,,,,,,,,,,,,,,,,,,,,,,,,,,,,,,,,,,,,,,,,,
,,,,,,,,,5e6fd3293c76d25a3ca8b384,Spanish,13 or older,"no, only English or Spanish",no,2025-07-24_11h19.18.311,empathy_intonation_perc_control,2024.2.4,Win32,6.854009596,5e6fd3293c76d25a3ca8b384,68817205a84113384fffdfe3,68824da2767f56a88fd375cf,,,,,,,,,,,,./stim/wavs/puertorican_mismatch_declarative-broad-focus_La-maestra-vive-en-Paris.wav,0,,,760.38,765.521,0,1,4.375,,0,3,3,86,1,87,0,puertorican,,,,,,,,,,,,,,,,,,,,,,,,,,,,,,,,,,,,,,,,,,,,,,,,,,,,,,,,
,,,,,,,,,5e6fd3293c76d25a3ca8b384,Spanish,13 or older,"no, only English or Spanish",no,2025-07-24_11h19.18.311,empathy_intonation_perc_control,2024.2.4,Win32,6.854009596,5e6fd3293c76d25a3ca8b384,68817205a84113384fffdfe3,68824da2767f56a88fd375cf,,,,,,,,,,,,./stim/wavs/castilian_match_declarative-broad-focus_Manuela-vende-el-carro.wav,0,,,765.523,770.769,0,1,4.608,,0,4,4,46,1,47,0,castilian,,,,,,,,,,,,,,,,,,,,,,,,,,,,,,,,,,,,,,,,,,,,,,,,,,,,,,,,
,,,,,,,,,5e6fd3293c76d25a3ca8b384,Spanish,13 or older,"no, only English or Spanish",no,2025-07-24_11h19.18.311,empathy_intonation_perc_control,2024.2.4,Win32,6.854009596,5e6fd3293c76d25a3ca8b384,68817205a84113384fffdfe3,68824da2767f56a88fd375cf,,,,,,,,,,,,./stim/wavs/mexican_match_declarative-broad-focus_David-leia-el-libro.wav,0,,,770.771,777.023,1,0,5.593,0,0,5,5,58,1,59,0,mexican,,,,,,,,,,,,,,,,,,,,,,,,,,,,,,,,,,,,,,,,,,,,,,,,,,,,,,,,
,,,,,,,,,5e6fd3293c76d25a3ca8b384,Spanish,13 or older,"no, only English or Spanish",no,2025-07-24_11h19.18.311,empathy_intonation_perc_control,2024.2.4,Win32,6.854009596,5e6fd3293c76d25a3ca8b384,68817205a84113384fffdfe3,68824da2767f56a88fd375cf,,,,,,,,,,,,./stim/wavs/cuban_mismatch_interrogative-total-yn_Mi-madre-come-la-fruta.wav,1,,,777.024,782.182,0,0,4.416,0.001,0,6,6,31,1,32,1,cuban,,,,,,,,,,,,,,,,,,,,,,,,,,,,,,,,,,,,,,,,,,,,,,,,,,,,,,,,
,,,,,,,,,5e6fd3293c76d25a3ca8b384,Spanish,13 or older,"no, only English or Spanish",no,2025-07-24_11h19.18.311,empathy_intonation_perc_control,2024.2.4,Win32,6.854009596,5e6fd3293c76d25a3ca8b384,68817205a84113384fffdfe3,68824da2767f56a88fd375cf,,,,,,,,,,,,./stim/wavs/puertorican_match_interrogative-total-yn_David-leia-el-libro.wav,1,,,782.185,786.47,0,0,3.548,,0,7,7,20,1,21,1,puertorican,,,,,,,,,,,,,,,,,,,,,,,,,,,,,,,,,,,,,,,,,,,,,,,,,,,,,,,,
,,,,,,,,,5e6fd3293c76d25a3ca8b384,Spanish,13 or older,"no, only English or Spanish",no,2025-07-24_11h19.18.311,empathy_intonation_perc_control,2024.2.4,Win32,6.854009596,5e6fd3293c76d25a3ca8b384,68817205a84113384fffdfe3,68824da2767f56a88fd375cf,,,,,,,,,,,,./stim/wavs/castilian_mismatch_declarative-broad-focus_El-nino-oye-el-rio.wav,0,,,786.471,791.14,0,1,3.957,0,0,8,8,68,1,69,0,castilian,,,,,,,,,,,,,,,,,,,,,,,,,,,,,,,,,,,,,,,,,,,,,,,,,,,,,,,,
,,,,,,,,,5e6fd3293c76d25a3ca8b384,Spanish,13 or older,"no, only English or Spanish",no,2025-07-24_11h19.18.311,empathy_intonation_perc_control,2024.2.4,Win32,6.854009596,5e6fd3293c76d25a3ca8b384,68817205a84113384fffdfe3,68824da2767f56a88fd375cf,,,,,,,,,,,,./stim/wavs/castilian_mismatch_declarative-broad-focus_Mi-novio-viene-del-lago.wav,0,,,791.141,795.696,1,0,3.804,,0,9,9,71,1,72,0,castilian,,,,,,,,,,,,,,,,,,,,,,,,,,,,,,,,,,,,,,,,,,,,,,,,,,,,,,,,
,,,,,,,,,5e6fd3293c76d25a3ca8b384,Spanish,13 or older,"no, only English or Spanish",no,2025-07-24_11h19.18.311,empathy_intonation_perc_control,2024.2.4,Win32,6.854009596,5e6fd3293c76d25a3ca8b384,68817205a84113384fffdfe3,68824da2767f56a88fd375cf,,,,,,,,,,,,./stim/wavs/puertorican_mismatch_declarative-broad-focus_El-hombre-mira-la-luna.wav,0,,,795.698,799.756,0,1,3.406,,0,10,10,84,1,85,0,puertorican,,,,,,,,,,,,,,,,,,,,,,,,,,,,,,,,,,,,,,,,,,,,,,,,,,,,,,,,
,,,,,,,,,5e6fd3293c76d25a3ca8b384,Spanish,13 or older,"no, only English or Spanish",no,2025-07-24_11h19.18.311,empathy_intonation_perc_control,2024.2.4,Win32,6.854009596,5e6fd3293c76d25a3ca8b384,68817205a84113384fffdfe3,68824da2767f56a88fd375cf,,,,,,,,,,,,./stim/wavs/mexican_mismatch_declarative-broad-focus_Mi-tia-odia-la-lluvia.wav,0,,,799.764,803.589,0,1,3.081,,0,11,11,82,1,83,0,mexican,,,,,,,,,,,,,,,,,,,,,,,,,,,,,,,,,,,,,,,,,,,,,,,,,,,,,,,,
,,,,,,,,,5e6fd3293c76d25a3ca8b384,Spanish,13 or older,"no, only English or Spanish",no,2025-07-24_11h19.18.311,empathy_intonation_perc_control,2024.2.4,Win32,6.854009596,5e6fd3293c76d25a3ca8b384,68817205a84113384fffdfe3,68824da2767f56a88fd375cf,,,,,,,,,,,,./stim/wavs/puertorican_match_declarative-broad-focus_Emilio-ama-la-marcha.wav,0,,,803.593,807.14,0,1,2.817,,0,12,12,65,1,66,0,puertorican,,,,,,,,,,,,,,,,,,,,,,,,,,,,,,,,,,,,,,,,,,,,,,,,,,,,,,,,
,,,,,,,,,5e6fd3293c76d25a3ca8b384,Spanish,13 or older,"no, only English or Spanish",no,2025-07-24_11h19.18.311,empathy_intonation_perc_control,2024.2.4,Win32,6.854009596,5e6fd3293c76d25a3ca8b384,68817205a84113384fffdfe3,68824da2767f56a88fd375cf,,,,,,,,,,,,./stim/wavs/puertorican_mismatch_interrogative-total-yn_Mi-madre-come-la-fruta.wav,1,,,807.142,810.858,0,0,2.894,,0,13,13,43,1,44,1,puertorican,,,,,,,,,,,,,,,,,,,,,,,,,,,,,,,,,,,,,,,,,,,,,,,,,,,,,,,,
,,,,,,,,,5e6fd3293c76d25a3ca8b384,Spanish,13 or older,"no, only English or Spanish",no,2025-07-24_11h19.18.311,empathy_intonation_perc_control,2024.2.4,Win32,6.854009596,5e6fd3293c76d25a3ca8b384,68817205a84113384fffdfe3,68824da2767f56a88fd375cf,,,,,,,,,,,,./stim/wavs/mexican_match_declarative-broad-focus_Ana-lleva-el-abrigo.wav,0,,,810.86,814.217,0,1,2.607,,0,14,14,56,1,57,0,mexican,,,,,,,,,,,,,,,,,,,,,,,,,,,,,,,,,,,,,,,,,,,,,,,,,,,,,,,,
,,,,,,,,,5e6fd3293c76d25a3ca8b384,Spanish,13 or older,"no, only English or Spanish",no,2025-07-24_11h19.18.311,empathy_intonation_perc_control,2024.2.4,Win32,6.854009596,5e6fd3293c76d25a3ca8b384,68817205a84113384fffdfe3,68824da2767f56a88fd375cf,,,,,,,,,,,,./stim/wavs/castilian_match_interrogative-total-yn_Manuela-vende-el-carro.wav,1,,,814.219,818.046,1,1,3.072,,0,15,15,2,1,3,0,castilian,,,,,,,,,,,,,,,,,,,,,,,,,,,,,,,,,,,,,,,,,,,,,,,,,,,,,,,,
,,,,,,,,,5e6fd3293c76d25a3ca8b384,Spanish,13 or older,"no, only English or Spanish",no,2025-07-24_11h19.18.311,empathy_intonation_perc_control,2024.2.4,Win32,6.854009596,5e6fd3293c76d25a3ca8b384,68817205a84113384fffdfe3,68824da2767f56a88fd375cf,,,,,,,,,,,,./stim/wavs/cuban_match_declarative-broad-focus_Mariano-habla-del-tiempo.wav,0,,,818.047,1139.03,1,0,320.201,,0,16,16,54,1,55,0,cuban,,,,,,,,,,,,,,,,,,,,,,,,,,,,,,,,,,,,,,,,,,,,,,,,,,,,,,,,
,,,,,,,,,5e6fd3293c76d25a3ca8b384,Spanish,13 or older,"no, only English or Spanish",no,2025-07-24_11h19.18.311,empathy_intonation_perc_control,2024.2.4,Win32,6.854009596,5e6fd3293c76d25a3ca8b384,68817205a84113384fffdfe3,68824da2767f56a88fd375cf,,,,,,,,,,,,./stim/wavs/cuban_match_declarative-broad-focus_Marta-abre-el-regalo.wav,0,,,1139.039,1152.479,1,0,12.686,,0,17,17,55,1,56,0,cuban,,,,,,,,,,,,,,,,,,,,,,,,,,,,,,,,,,,,,,,,,,,,,,,,,,,,,,,,
,,,,,,,,,5e6fd3293c76d25a3ca8b384,Spanish,13 or older,"no, only English or Spanish",no,2025-07-24_11h19.18.311,empathy_intonation_perc_control,2024.2.4,Win32,6.854009596,5e6fd3293c76d25a3ca8b384,68817205a84113384fffdfe3,68824da2767f56a88fd375cf,,,,,,,,,,,,./stim/wavs/cuban_match_interrogative-total-yn_Ana-lleva-el-abrigo.wav,1,,,1152.481,1175.164,0,0,21.938,,0,18,18,6,1,7,1,cuban,,,,,,,,,,,,,,,,,,,,,,,,,,,,,,,,,,,,,,,,,,,,,,,,,,,,,,,,
,,,,,,,,,5e6fd3293c76d25a3ca8b384,Spanish,13 or older,"no, only English or Spanish",no,2025-07-24_11h19.18.311,empathy_intonation_perc_control,2024.2.4,Win32,6.854009596,5e6fd3293c76d25a3ca8b384,68817205a84113384fffdfe3,68824da2767f56a88fd375cf,,,,,,,,,,,,./stim/wavs/cuban_match_interrogative-total-yn_Marta-abre-el-regalo.wav,1,,,1175.169,1175.877,0,0,0.004,0.001,0,19,19,11,1,12,1,cuban,,,,,,,,,,,,,,,,,,,,,,,,,,,,,,,,,,,,,,,,,,,,,,,,,,,,,,,,
,,,,,,,,,5e6fd3293c76d25a3ca8b384,Spanish,13 or older,"no, only English or Spanish",no,2025-07-24_11h19.18.311,empathy_intonation_perc_control,2024.2.4,Win32,6.854009596,5e6fd3293c76d25a3ca8b384,68817205a84113384fffdfe3,68824da2767f56a88fd375cf,,,,,,,,,,,,./stim/wavs/castilian_mismatch_interrogative-total-yn_La-maestra-vive-en-Paris.wav,1,,,1175.878,1180.656,0,0,4.064,0.001,0,20,20,24,1,25,0,castilian,,,,,,,,,,,,,,,,,,,,,,,,,,,,,,,,,,,,,,,,,,,,,,,,,,,,,,,,
,,,,,,,,,5e6fd3293c76d25a3ca8b384,Spanish,13 or older,"no, only English or Spanish",no,2025-07-24_11h19.18.311,empathy_intonation_perc_control,2024.2.4,Win32,6.854009596,5e6fd3293c76d25a3ca8b384,68817205a84113384fffdfe3,68824da2767f56a88fd375cf,,,,,,,,,,,,./stim/wavs/cuban_match_interrogative-total-yn_Maria-bebe-el-vino.wav,1,,,1180.66,1191.262,1,1,9.841,0.001,0,21,21,9,1,10,1,cuban,,,,,,,,,,,,,,,,,,,,,,,,,,,,,,,,,,,,,,,,,,,,,,,,,,,,,,,,
,,,,,,,,,5e6fd3293c76d25a3ca8b384,Spanish,13 or older,"no, only English or Spanish",no,2025-07-24_11h19.18.311,empathy_intonation_perc_control,2024.2.4,Win32,6.854009596,5e6fd3293c76d25a3ca8b384,68817205a84113384fffdfe3,68824da2767f56a88fd375cf,,,,,,,,,,,,./stim/wavs/cuban_mismatch_declarative-broad-focus_La-nina-lava-el-plato.wav,0,,,1191.266,1193.16,1,0,1.151,,0,22,22,75,1,76,0,cuban,,,,,,,,,,,,,,,,,,,,,,,,,,,,,,,,,,,,,,,,,,,,,,,,,,,,,,,,
,,,,,,,,,5e6fd3293c76d25a3ca8b384,Spanish,13 or older,"no, only English or Spanish",no,2025-07-24_11h19.18.311,empathy_intonation_perc_control,2024.2.4,Win32,6.854009596,5e6fd3293c76d25a3ca8b384,68817205a84113384fffdfe3,68824da2767f56a88fd375cf,,,,,,,,,,,,./stim/wavs/puertorican_match_declarative-broad-focus_David-leia-el-libro.wav,0,,,1193.161,1210.795,0,1,16.891,0.001,0,23,23,64,1,65,0,puertorican,,,,,,,,,,,,,,,,,,,,,,,,,,,,,,,,,,,,,,,,,,,,,,,,,,,,,,,,
,,,,,,,,,5e6fd3293c76d25a3ca8b384,Spanish,13 or older,"no, only English or Spanish",no,2025-07-24_11h19.18.311,empathy_intonation_perc_control,2024.2.4,Win32,6.854009596,5e6fd3293c76d25a3ca8b384,68817205a84113384fffdfe3,68824da2767f56a88fd375cf,,,,,,,,,,,,./stim/wavs/puertorican_mismatch_declarative-broad-focus_El-nino-oye-el-rio.wav,0,,,1210.811,1212.582,0,1,0.919,0.001,0,24,24,85,1,86,0,puertorican,,,,,,,,,,,,,,,,,,,,,,,,,,,,,,,,,,,,,,,,,,,,,,,,,,,,,,,,
,,,,,,,,,5e6fd3293c76d25a3ca8b384,Spanish,13 or older,"no, only English or Spanish",no,2025-07-24_11h19.18.311,empathy_intonation_perc_control,2024.2.4,Win32,6.854009596,5e6fd3293c76d25a3ca8b384,68817205a84113384fffdfe3,68824da2767f56a88fd375cf,,,,,,,,,,,,./stim/wavs/cuban_match_interrogative-total-yn_Mariano-habla-del-tiempo.wav,1,,,1212.584,1217.047,0,0,3.72,,0,25,25,10,1,11,1,cuban,,,,,,,,,,,,,,,,,,,,,,,,,,,,,,,,,,,,,,,,,,,,,,,,,,,,,,,,
,,,,,,,,,5e6fd3293c76d25a3ca8b384,Spanish,13 or older,"no, only English or Spanish",no,2025-07-24_11h19.18.311,empathy_intonation_perc_control,2024.2.4,Win32,6.854009596,5e6fd3293c76d25a3ca8b384,68817205a84113384fffdfe3,68824da2767f56a88fd375cf,,,,,,,,,,,,./stim/wavs/castilian_match_declarative-broad-focus_Marta-abre-el-regalo.wav,0,,,1217.048,1221.671,0,1,3.843,0,0,26,26,49,1,50,0,castilian,,,,,,,,,,,,,,,,,,,,,,,,,,,,,,,,,,,,,,,,,,,,,,,,,,,,,,,,
,,,,,,,,,5e6fd3293c76d25a3ca8b384,Spanish,13 or older,"no, only English or Spanish",no,2025-07-24_11h19.18.311,empathy_intonation_perc_control,2024.2.4,Win32,6.854009596,5e6fd3293c76d25a3ca8b384,68817205a84113384fffdfe3,68824da2767f56a88fd375cf,,,,,,,,,,,,./stim/wavs/cuban_mismatch_interrogative-total-yn_El-nino-oye-el-rio.wav,1,,,1221.673,1226.757,1,1,4.331,0.002,0,27,27,30,1,31,1,cuban,,,,,,,,,,,,,,,,,,,,,,,,,,,,,,,,,,,,,,,,,,,,,,,,,,,,,,,,
,,,,,,,,,5e6fd3293c76d25a3ca8b384,Spanish,13 or older,"no, only English or Spanish",no,2025-07-24_11h19.18.311,empathy_intonation_perc_control,2024.2.4,Win32,6.854009596,5e6fd3293c76d25a3ca8b384,68817205a84113384fffdfe3,68824da2767f56a88fd375cf,,,,,,,,,,,,./stim/wavs/mexican_mismatch_declarative-broad-focus_Mi-novio-viene-del-lago.wav,0,,,1226.758,1237.794,0,1,10.277,0,0,28,28,81,1,82,0,mexican,,,,,,,,,,,,,,,,,,,,,,,,,,,,,,,,,,,,,,,,,,,,,,,,,,,,,,,,
,,,,,,,,,5e6fd3293c76d25a3ca8b384,Spanish,13 or older,"no, only English or Spanish",no,2025-07-24_11h19.18.311,empathy_intonation_perc_control,2024.2.4,Win32,6.854009596,5e6fd3293c76d25a3ca8b384,68817205a84113384fffdfe3,68824da2767f56a88fd375cf,,,,,,,,,,,,./stim/wavs/puertorican_match_declarative-broad-focus_Daniel-iba-a-Bolivia.wav,0,,,1237.815,1238.529,0,1,0.017,,0,29,29,63,1,64,0,puertorican,,,,,,,,,,,,,,,,,,,,,,,,,,,,,,,,,,,,,,,,,,,,,,,,,,,,,,,,
,,,,,,,,,5e6fd3293c76d25a3ca8b384,Spanish,13 or older,"no, only English or Spanish",no,2025-07-24_11h19.18.311,empathy_intonation_perc_control,2024.2.4,Win32,6.854009596,5e6fd3293c76d25a3ca8b384,68817205a84113384fffdfe3,68824da2767f56a88fd375cf,,,,,,,,,,,,./stim/wavs/cuban_mismatch_interrogative-total-yn_Mi-novio-viene-del-lago.wav,1,,,1238.53,1239.792,1,1,0.601,0,0,30,30,32,1,33,1,cuban,,,,,,,,,,,,,,,,,,,,,,,,,,,,,,,,,,,,,,,,,,,,,,,,,,,,,,,,
,,,,,,,,,5e6fd3293c76d25a3ca8b384,Spanish,13 or older,"no, only English or Spanish",no,2025-07-24_11h19.18.311,empathy_intonation_perc_control,2024.2.4,Win32,6.854009596,5e6fd3293c76d25a3ca8b384,68817205a84113384fffdfe3,68824da2767f56a88fd375cf,,,,,,,,,,,,./stim/wavs/castilian_match_interrogative-total-yn_Emilio-ama-la-marcha.wav,1,,,1239.793,1240.726,1,1,0.147,0.001,0,31,31,1,1,2,0,castilian,,,,,,,,,,,,,,,,,,,,,,,,,,,,,,,,,,,,,,,,,,,,,,,,,,,,,,,,
,,,,,,,,,5e6fd3293c76d25a3ca8b384,Spanish,13 or older,"no, only English or Spanish",no,2025-07-24_11h19.18.311,empathy_intonation_perc_control,2024.2.4,Win32,6.854009596,5e6fd3293c76d25a3ca8b384,68817205a84113384fffdfe3,68824da2767f56a88fd375cf,,,,,,,,,,,,./stim/wavs/castilian_mismatch_declarative-broad-focus_La-maestra-vive-en-Paris.wav,0,,,1240.727,1242.336,1,0,0.775,0,0,32,32,69,1,70,0,castilian,,,,,,,,,,,,,,,,,,,,,,,,,,,,,,,,,,,,,,,,,,,,,,,,,,,,,,,,
,,,,,,,,,5e6fd3293c76d25a3ca8b384,Spanish,13 or older,"no, only English or Spanish",no,2025-07-24_11h19.18.311,empathy_intonation_perc_control,2024.2.4,Win32,6.854009596,5e6fd3293c76d25a3ca8b384,68817205a84113384fffdfe3,68824da2767f56a88fd375cf,,,,,,,,,,,,./stim/wavs/mexican_mismatch_declarative-broad-focus_El-hombre-mira-la-luna.wav,0,,,1242.337,1243.107,0,1,0.003,,0,33,33,79,1,80,0,mexican,,,,,,,,,,,,,,,,,,,,,,,,,,,,,,,,,,,,,,,,,,,,,,,,,,,,,,,,
,,,,,,,,,5e6fd3293c76d25a3ca8b384,Spanish,13 or older,"no, only English or Spanish",no,2025-07-24_11h19.18.311,empathy_intonation_perc_control,2024.2.4,Win32,6.854009596,5e6fd3293c76d25a3ca8b384,68817205a84113384fffdfe3,68824da2767f56a88fd375cf,,,,,,,,,,,,./stim/wavs/mexican_match_interrogative-total-yn_David-leia-el-libro.wav,1,,,1243.108,1243.95,0,0,0.144,,0,34,34,14,1,15,0,mexican,,,,,,,,,,,,,,,,,,,,,,,,,,,,,,,,,,,,,,,,,,,,,,,,,,,,,,,,
,,,,,,,,,5e6fd3293c76d25a3ca8b384,Spanish,13 or older,"no, only English or Spanish",no,2025-07-24_11h19.18.311,empathy_intonation_perc_control,2024.2.4,Win32,6.854009596,5e6fd3293c76d25a3ca8b384,68817205a84113384fffdfe3,68824da2767f56a88fd375cf,,,,,,,,,,,,./stim/wavs/puertorican_mismatch_declarative-broad-focus_El-bebe-comia-muy-bien.wav,0,,,1243.953,1244.682,1,0,0.005,0.003,0,35,35,83,1,84,0,puertorican,,,,,,,,,,,,,,,,,,,,,,,,,,,,,,,,,,,,,,,,,,,,,,,,,,,,,,,,
,,,,,,,,,5e6fd3293c76d25a3ca8b384,Spanish,13 or older,"no, only English or Spanish",no,2025-07-24_11h19.18.311,empathy_intonation_perc_control,2024.2.4,Win32,6.854009596,5e6fd3293c76d25a3ca8b384,68817205a84113384fffdfe3,68824da2767f56a88fd375cf,,,,,,,,,,,,./stim/wavs/mexican_match_interrogative-total-yn_Daniel-iba-a-Bolivia.wav,1,,,1244.683,1250.957,0,0,5.489,,0,36,36,13,1,14,0,mexican,,,,,,,,,,,,,,,,,,,,,,,,,,,,,,,,,,,,,,,,,,,,,,,,,,,,,,,,
,,,,,,,,,5e6fd3293c76d25a3ca8b384,Spanish,13 or older,"no, only English or Spanish",no,2025-07-24_11h19.18.311,empathy_intonation_perc_control,2024.2.4,Win32,6.854009596,5e6fd3293c76d25a3ca8b384,68817205a84113384fffdfe3,68824da2767f56a88fd375cf,,,,,,,,,,,,./stim/wavs/castilian_mismatch_interrogative-total-yn_Mi-novio-viene-del-lago.wav,1,,,1250.958,1251.592,0,0,0.003,,0,37,37,27,1,28,0,castilian,,,,,,,,,,,,,,,,,,,,,,,,,,,,,,,,,,,,,,,,,,,,,,,,,,,,,,,,
,,,,,,,,,5e6fd3293c76d25a3ca8b384,Spanish,13 or older,"no, only English or Spanish",no,2025-07-24_11h19.18.311,empathy_intonation_perc_control,2024.2.4,Win32,6.854009596,5e6fd3293c76d25a3ca8b384,68817205a84113384fffdfe3,68824da2767f56a88fd375cf,,,,,,,,,,,,./stim/wavs/mexican_mismatch_declarative-broad-focus_La-maestra-vive-en-Paris.wav,0,,,1251.595,1252.375,1,0,0.01,,0,38,38,80,1,81,0,mexican,,,,,,,,,,,,,,,,,,,,,,,,,,,,,,,,,,,,,,,,,,,,,,,,,,,,,,,,
,,,,,,,,,5e6fd3293c76d25a3ca8b384,Spanish,13 or older,"no, only English or Spanish",no,2025-07-24_11h19.18.311,empathy_intonation_perc_control,2024.2.4,Win32,6.854009596,5e6fd3293c76d25a3ca8b384,68817205a84113384fffdfe3,68824da2767f56a88fd375cf,,,,,,,,,,,,./stim/wavs/mexican_match_declarative-broad-focus_Marta-abre-el-regalo.wav,0,,,1252.376,1253.283,0,1,0.156,0,0,39,39,61,1,62,0,mexican,,,,,,,,,,,,,,,,,,,,,,,,,,,,,,,,,,,,,,,,,,,,,,,,,,,,,,,,
,,,,,,,,,5e6fd3293c76d25a3ca8b384,Spanish,13 or older,"no, only English or Spanish",no,2025-07-24_11h19.18.311,empathy_intonation_perc_control,2024.2.4,Win32,6.854009596,5e6fd3293c76d25a3ca8b384,68817205a84113384fffdfe3,68824da2767f56a88fd375cf,,,,,,,,,,,,./stim/wavs/puertorican_match_declarative-broad-focus_Ana-lleva-el-abrigo.wav,0,,,1253.284,1253.949,1,0,0.004,,0,40,40,62,1,63,0,puertorican,,,,,,,,,,,,,,,,,,,,,,,,,,,,,,,,,,,,,,,,,,,,,,,,,,,,,,,,
,,,,,,,,,5e6fd3293c76d25a3ca8b384,Spanish,13 or older,"no, only English or Spanish",no,2025-07-24_11h19.18.311,empathy_intonation_perc_control,2024.2.4,Win32,6.854009596,5e6fd3293c76d25a3ca8b384,68817205a84113384fffdfe3,68824da2767f56a88fd375cf,,,,,,,,,,,,./stim/wavs/castilian_match_interrogative-total-yn_David-leia-el-libro.wav,1,,,1253.952,1254.695,0,0,0.006,0.002,0,41,41,0,1,1,0,castilian,,,,,,,,,,,,,,,,,,,,,,,,,,,,,,,,,,,,,,,,,,,,,,,,,,,,,,,,
,,,,,,,,,5e6fd3293c76d25a3ca8b384,Spanish,13 or older,"no, only English or Spanish",no,2025-07-24_11h19.18.311,empathy_intonation_perc_control,2024.2.4,Win32,6.854009596,5e6fd3293c76d25a3ca8b384,68817205a84113384fffdfe3,68824da2767f56a88fd375cf,,,,,,,,,,,,./stim/wavs/cuban_match_declarative-broad-focus_Daniel-iba-a-Bolivia.wav,0,,,1254.699,1259.731,0,1,4.396,0.001,0,42,42,51,1,52,0,cuban,,,,,,,,,,,,,,,,,,,,,,,,,,,,,,,,,,,,,,,,,,,,,,,,,,,,,,,,
,,,,,,,,,5e6fd3293c76d25a3ca8b384,Spanish,13 or older,"no, only English or Spanish",no,2025-07-24_11h19.18.311,empathy_intonation_perc_control,2024.2.4,Win32,6.854009596,5e6fd3293c76d25a3ca8b384,68817205a84113384fffdfe3,68824da2767f56a88fd375cf,,,,,,,,,,,,./stim/wavs/cuban_match_declarative-broad-focus_Ana-lleva-el-abrigo.wav,0,,,1259.732,1263.606,0,1,3.235,0.001,0,43,43,50,1,51,0,cuban,,,,,,,,,,,,,,,,,,,,,,,,,,,,,,,,,,,,,,,,,,,,,,,,,,,,,,,,
,,,,,,,,,5e6fd3293c76d25a3ca8b384,Spanish,13 or older,"no, only English or Spanish",no,2025-07-24_11h19.18.311,empathy_intonation_perc_control,2024.2.4,Win32,6.854009596,5e6fd3293c76d25a3ca8b384,68817205a84113384fffdfe3,68824da2767f56a88fd375cf,,,,,,,,,,,,./stim/wavs/mexican_mismatch_interrogative-total-yn_La-maestra-vive-en-Paris.wav,1,,,1263.606,1267.752,1,1,3.437,,0,44,44,36,1,37,0,mexican,,,,,,,,,,,,,,,,,,,,,,,,,,,,,,,,,,,,,,,,,,,,,,,,,,,,,,,,
,,,,,,,,,5e6fd3293c76d25a3ca8b384,Spanish,13 or older,"no, only English or Spanish",no,2025-07-24_11h19.18.311,empathy_intonation_perc_control,2024.2.4,Win32,6.854009596,5e6fd3293c76d25a3ca8b384,68817205a84113384fffdfe3,68824da2767f56a88fd375cf,,,,,,,,,,,,./stim/wavs/castilian_match_declarative-broad-focus_Mariano-habla-del-tiempo.wav,0,,,1267.757,1272.263,0,1,3.741,0.003,0,45,45,48,1,49,0,castilian,,,,,,,,,,,,,,,,,,,,,,,,,,,,,,,,,,,,,,,,,,,,,,,,,,,,,,,,
,,,,,,,,,5e6fd3293c76d25a3ca8b384,Spanish,13 or older,"no, only English or Spanish",no,2025-07-24_11h19.18.311,empathy_intonation_perc_control,2024.2.4,Win32,6.854009596,5e6fd3293c76d25a3ca8b384,68817205a84113384fffdfe3,68824da2767f56a88fd375cf,,,,,,,,,,,,./stim/wavs/castilian_mismatch_declarative-broad-focus_Mi-tia-odia-la-lluvia.wav,0,,,1272.264,1276.359,0,1,3.395,0,0,46,46,72,1,73,0,castilian,,,,,,,,,,,,,,,,,,,,,,,,,,,,,,,,,,,,,,,,,,,,,,,,,,,,,,,,
,,,,,,,,,5e6fd3293c76d25a3ca8b384,Spanish,13 or older,"no, only English or Spanish",no,2025-07-24_11h19.18.311,empathy_intonation_perc_control,2024.2.4,Win32,6.854009596,5e6fd3293c76d25a3ca8b384,68817205a84113384fffdfe3,68824da2767f56a88fd375cf,,,,,,,,,,,,./stim/wavs/cuban_mismatch_declarative-broad-focus_El-bebe-comia-muy-bien.wav,0,,,1276.361,1279.952,0,1,2.872,0.001,0,47,47,73,1,74,0,cuban,,,,,,,,,,,,,,,,,,,,,,,,,,,,,,,,,,,,,,,,,,,,,,,,,,,,,,,,
,,,,,,,,,5e6fd3293c76d25a3ca8b384,Spanish,13 or older,"no, only English or Spanish",no,2025-07-24_11h19.18.311,empathy_intonation_perc_control,2024.2.4,Win32,6.854009596,5e6fd3293c76d25a3ca8b384,68817205a84113384fffdfe3,68824da2767f56a88fd375cf,,,,,,,,,,,,./stim/wavs/puertorican_match_declarative-broad-focus_Maria-bebe-el-vino.wav,0,,,1279.954,1284.127,0,1,3.417,,0,48,48,67,1,68,0,puertorican,,,,,,,,,,,,,,,,,,,,,,,,,,,,,,,,,,,,,,,,,,,,,,,,,,,,,,,,
,,,,,,,,,5e6fd3293c76d25a3ca8b384,Spanish,13 or older,"no, only English or Spanish",no,2025-07-24_11h19.18.311,empathy_intonation_perc_control,2024.2.4,Win32,6.854009596,5e6fd3293c76d25a3ca8b384,68817205a84113384fffdfe3,68824da2767f56a88fd375cf,,,,,,,,,,,,./stim/wavs/castilian_match_declarative-broad-focus_Maria-bebe-el-vino.wav,0,,,1284.129,1288.057,0,1,3.208,,0,49,49,47,1,48,0,castilian,,,,,,,,,,,,,,,,,,,,,,,,,,,,,,,,,,,,,,,,,,,,,,,,,,,,,,,,
,,,,,,,,,5e6fd3293c76d25a3ca8b384,Spanish,13 or older,"no, only English or Spanish",no,2025-07-24_11h19.18.311,empathy_intonation_perc_control,2024.2.4,Win32,6.854009596,5e6fd3293c76d25a3ca8b384,68817205a84113384fffdfe3,68824da2767f56a88fd375cf,,,,,,,,,,,,./stim/wavs/cuban_mismatch_declarative-broad-focus_El-hombre-mira-la-luna.wav,0,,,1288.058,1292.747,0,1,3.951,,0,50,50,74,1,75,0,cuban,,,,,,,,,,,,,,,,,,,,,,,,,,,,,,,,,,,,,,,,,,,,,,,,,,,,,,,,
,,,,,,,,,5e6fd3293c76d25a3ca8b384,Spanish,13 or older,"no, only English or Spanish",no,2025-07-24_11h19.18.311,empathy_intonation_perc_control,2024.2.4,Win32,6.854009596,5e6fd3293c76d25a3ca8b384,68817205a84113384fffdfe3,68824da2767f56a88fd375cf,,,,,,,,,,,,./stim/wavs/cuban_mismatch_declarative-broad-focus_Mi-tia-odia-la-lluvia.wav,0,,,1292.748,1297.021,0,1,3.527,0.001,0,51,51,77,1,78,0,cuban,,,,,,,,,,,,,,,,,,,,,,,,,,,,,,,,,,,,,,,,,,,,,,,,,,,,,,,,
,,,,,,,,,5e6fd3293c76d25a3ca8b384,Spanish,13 or older,"no, only English or Spanish",no,2025-07-24_11h19.18.311,empathy_intonation_perc_control,2024.2.4,Win32,6.854009596,5e6fd3293c76d25a3ca8b384,68817205a84113384fffdfe3,68824da2767f56a88fd375cf,,,,,,,,,,,,./stim/wavs/puertorican_mismatch_declarative-broad-focus_La-nina-lava-el-plato.wav,0,,,1297.023,1300.272,0,1,2.505,,0,52,52,87,1,88,0,puertorican,,,,,,,,,,,,,,,,,,,,,,,,,,,,,,,,,,,,,,,,,,,,,,,,,,,,,,,,
,,,,,,,,,5e6fd3293c76d25a3ca8b384,Spanish,13 or older,"no, only English or Spanish",no,2025-07-24_11h19.18.311,empathy_intonation_perc_control,2024.2.4,Win32,6.854009596,5e6fd3293c76d25a3ca8b384,68817205a84113384fffdfe3,68824da2767f56a88fd375cf,,,,,,,,,,,,./stim/wavs/mexican_match_interrogative-total-yn_Emilio-ama-la-marcha.wav,1,,,1300.273,1304.544,1,1,3.53,,0,53,53,15,1,16,0,mexican,,,,,,,,,,,,,,,,,,,,,,,,,,,,,,,,,,,,,,,,,,,,,,,,,,,,,,,,
,,,,,,,,,5e6fd3293c76d25a3ca8b384,Spanish,13 or older,"no, only English or Spanish",no,2025-07-24_11h19.18.311,empathy_intonation_perc_control,2024.2.4,Win32,6.854009596,5e6fd3293c76d25a3ca8b384,68817205a84113384fffdfe3,68824da2767f56a88fd375cf,,,,,,,,,,,,./stim/wavs/puertorican_mismatch_interrogative-total-yn_La-nina-lava-el-plato.wav,1,,,1304.545,1308.615,0,0,3.312,0.001,0,54,54,42,1,43,1,puertorican,,,,,,,,,,,,,,,,,,,,,,,,,,,,,,,,,,,,,,,,,,,,,,,,,,,,,,,,
,,,,,,,,,5e6fd3293c76d25a3ca8b384,Spanish,13 or older,"no, only English or Spanish",no,2025-07-24_11h19.18.311,empathy_intonation_perc_control,2024.2.4,Win32,6.854009596,5e6fd3293c76d25a3ca8b384,68817205a84113384fffdfe3,68824da2767f56a88fd375cf,,,,,,,,,,,,./stim/wavs/cuban_mismatch_declarative-broad-focus_Mi-novio-viene-del-lago.wav,0,,,1308.618,1312.163,0,1,2.764,,0,55,55,76,1,77,0,cuban,,,,,,,,,,,,,,,,,,,,,,,,,,,,,,,,,,,,,,,,,,,,,,,,,,,,,,,,
,,,,,,,,,5e6fd3293c76d25a3ca8b384,Spanish,13 or older,"no, only English or Spanish",no,2025-07-24_11h19.18.311,empathy_intonation_perc_control,2024.2.4,Win32,6.854009596,5e6fd3293c76d25a3ca8b384,68817205a84113384fffdfe3,68824da2767f56a88fd375cf,,,,,,,,,,,,./stim/wavs/castilian_mismatch_interrogative-total-yn_Mi-madre-come-la-fruta.wav,1,,,1312.164,1317.115,1,1,4.127,0.001,0,56,56,26,1,27,0,castilian,,,,,,,,,,,,,,,,,,,,,,,,,,,,,,,,,,,,,,,,,,,,,,,,,,,,,,,,
,,,,,,,,,5e6fd3293c76d25a3ca8b384,Spanish,13 or older,"no, only English or Spanish",no,2025-07-24_11h19.18.311,empathy_intonation_perc_control,2024.2.4,Win32,6.854009596,5e6fd3293c76d25a3ca8b384,68817205a84113384fffdfe3,68824da2767f56a88fd375cf,,,,,,,,,,,,./stim/wavs/cuban_match_interrogative-total-yn_Manuela-vende-el-carro.wav,1,,,1317.12,1320.503,0,0,2.647,0,0,57,57,8,1,9,1,cuban,,,,,,,,,,,,,,,,,,,,,,,,,,,,,,,,,,,,,,,,,,,,,,,,,,,,,,,,
,,,,,,,,,5e6fd3293c76d25a3ca8b384,Spanish,13 or older,"no, only English or Spanish",no,2025-07-24_11h19.18.311,empathy_intonation_perc_control,2024.2.4,Win32,6.854009596,5e6fd3293c76d25a3ca8b384,68817205a84113384fffdfe3,68824da2767f56a88fd375cf,,,,,,,,,,,,./stim/wavs/castilian_mismatch_declarative-broad-focus_La-nina-lava-el-plato.wav,0,,,1320.505,1325.879,0,1,4.596,0.001,0,58,58,70,1,71,0,castilian,,,,,,,,,,,,,,,,,,,,,,,,,,,,,,,,,,,,,,,,,,,,,,,,,,,,,,,,
,,,,,,,,,5e6fd3293c76d25a3ca8b384,Spanish,13 or older,"no, only English or Spanish",no,2025-07-24_11h19.18.311,empathy_intonation_perc_control,2024.2.4,Win32,6.854009596,5e6fd3293c76d25a3ca8b384,68817205a84113384fffdfe3,68824da2767f56a88fd375cf,,,,,,,,,,,,./stim/wavs/castilian_match_interrogative-total-yn_Maria-bebe-el-vino.wav,1,,,1325.881,1329.373,1,1,2.754,,0,59,59,3,1,4,0,castilian,,,,,,,,,,,,,,,,,,,,,,,,,,,,,,,,,,,,,,,,,,,,,,,,,,,,,,,,
,,,,,,,,,5e6fd3293c76d25a3ca8b384,Spanish,13 or older,"no, only English or Spanish",no,2025-07-24_11h19.18.311,empathy_intonation_perc_control,2024.2.4,Win32,6.854009596,5e6fd3293c76d25a3ca8b384,68817205a84113384fffdfe3,68824da2767f56a88fd375cf,,,,,,,,,,,,./stim/wavs/mexican_mismatch_interrogative-total-yn_Mi-novio-viene-del-lago.wav,1,,,1329.377,1332.565,0,0,2.438,,0,60,60,37,1,38,0,mexican,,,,,,,,,,,,,,,,,,,,,,,,,,,,,,,,,,,,,,,,,,,,,,,,,,,,,,,,
,,,,,,,,,5e6fd3293c76d25a3ca8b384,Spanish,13 or older,"no, only English or Spanish",no,2025-07-24_11h19.18.311,empathy_intonation_perc_control,2024.2.4,Win32,6.854009596,5e6fd3293c76d25a3ca8b384,68817205a84113384fffdfe3,68824da2767f56a88fd375cf,,,,,,,,,,,,./stim/wavs/castilian_mismatch_interrogative-total-yn_La-nina-lava-el-plato.wav,1,,,1332.566,1335.997,1,1,2.677,,0,61,61,25,1,26,0,castilian,,,,,,,,,,,,,,,,,,,,,,,,,,,,,,,,,,,,,,,,,,,,,,,,,,,,,,,,
,,,,,,,,,5e6fd3293c76d25a3ca8b384,Spanish,13 or older,"no, only English or Spanish",no,2025-07-24_11h19.18.311,empathy_intonation_perc_control,2024.2.4,Win32,6.854009596,5e6fd3293c76d25a3ca8b384,68817205a84113384fffdfe3,68824da2767f56a88fd375cf,,,,,,,,,,,,./stim/wavs/puertorican_match_interrogative-total-yn_Daniel-iba-a-Bolivia.wav,1,,,1335.999,1339.658,0,0,2.865,0.001,0,62,62,19,1,20,1,puertorican,,,,,,,,,,,,,,,,,,,,,,,,,,,,,,,,,,,,,,,,,,,,,,,,,,,,,,,,
,,,,,,,,,5e6fd3293c76d25a3ca8b384,Spanish,13 or older,"no, only English or Spanish",no,2025-07-24_11h19.18.311,empathy_intonation_perc_control,2024.2.4,Win32,6.854009596,5e6fd3293c76d25a3ca8b384,68817205a84113384fffdfe3,68824da2767f56a88fd375cf,,,,,,,,,,,,./stim/wavs/mexican_mismatch_interrogative-total-yn_Mi-tia-odia-la-lluvia.wav,1,,,1339.659,1342.881,1,1,2.521,,0,63,63,38,1,39,0,mexican,,,,,,,,,,,,,,,,,,,,,,,,,,,,,,,,,,,,,,,,,,,,,,,,,,,,,,,,
,,,,,,,,,5e6fd3293c76d25a3ca8b384,Spanish,13 or older,"no, only English or Spanish",no,2025-07-24_11h19.18.311,empathy_intonation_perc_control,2024.2.4,Win32,6.854009596,5e6fd3293c76d25a3ca8b384,68817205a84113384fffdfe3,68824da2767f56a88fd375cf,,,,,,,,,,,,./stim/wavs/mexican_match_declarative-broad-focus_Emilio-ama-la-marcha.wav,0,,,1342.882,1346.571,0,1,2.906,,0,64,64,59,1,60,0,mexican,,,,,,,,,,,,,,,,,,,,,,,,,,,,,,,,,,,,,,,,,,,,,,,,,,,,,,,,
,,,,,,,,,5e6fd3293c76d25a3ca8b384,Spanish,13 or older,"no, only English or Spanish",no,2025-07-24_11h19.18.311,empathy_intonation_perc_control,2024.2.4,Win32,6.854009596,5e6fd3293c76d25a3ca8b384,68817205a84113384fffdfe3,68824da2767f56a88fd375cf,,,,,,,,,,,,./stim/wavs/puertorican_match_declarative-broad-focus_Manuela-vende-el-carro.wav,0,,,1346.571,1349.936,0,1,2.576,,0,65,65,66,1,67,0,puertorican,,,,,,,,,,,,,,,,,,,,,,,,,,,,,,,,,,,,,,,,,,,,,,,,,,,,,,,,
,,,,,,,,,5e6fd3293c76d25a3ca8b384,Spanish,13 or older,"no, only English or Spanish",no,2025-07-24_11h19.18.311,empathy_intonation_perc_control,2024.2.4,Win32,6.854009596,5e6fd3293c76d25a3ca8b384,68817205a84113384fffdfe3,68824da2767f56a88fd375cf,,,,,,,,,,,,./stim/wavs/mexican_match_interrogative-total-yn_Marta-abre-el-regalo.wav,1,,,1349.937,1353.294,1,1,2.61,,0,66,66,17,1,18,0,mexican,,,,,,,,,,,,,,,,,,,,,,,,,,,,,,,,,,,,,,,,,,,,,,,,,,,,,,,,
,,,,,,,,,5e6fd3293c76d25a3ca8b384,Spanish,13 or older,"no, only English or Spanish",no,2025-07-24_11h19.18.311,empathy_intonation_perc_control,2024.2.4,Win32,6.854009596,5e6fd3293c76d25a3ca8b384,68817205a84113384fffdfe3,68824da2767f56a88fd375cf,,,,,,,,,,,,./stim/wavs/mexican_mismatch_declarative-broad-focus_El-bebe-comia-muy-bien.wav,0,,,1353.295,1356.965,0,1,2.911,0.002,0,67,67,78,1,79,0,mexican,,,,,,,,,,,,,,,,,,,,,,,,,,,,,,,,,,,,,,,,,,,,,,,,,,,,,,,,
,,,,,,,,,5e6fd3293c76d25a3ca8b384,Spanish,13 or older,"no, only English or Spanish",no,2025-07-24_11h19.18.311,empathy_intonation_perc_control,2024.2.4,Win32,6.854009596,5e6fd3293c76d25a3ca8b384,68817205a84113384fffdfe3,68824da2767f56a88fd375cf,,,,,,,,,,,,./stim/wavs/puertorican_match_interrogative-total-yn_Maria-bebe-el-vino.wav,1,,,1356.978,1360.466,1,1,2.752,,0,68,68,23,1,24,1,puertorican,,,,,,,,,,,,,,,,,,,,,,,,,,,,,,,,,,,,,,,,,,,,,,,,,,,,,,,,
,,,,,,,,,5e6fd3293c76d25a3ca8b384,Spanish,13 or older,"no, only English or Spanish",no,2025-07-24_11h19.18.311,empathy_intonation_perc_control,2024.2.4,Win32,6.854009596,5e6fd3293c76d25a3ca8b384,68817205a84113384fffdfe3,68824da2767f56a88fd375cf,,,,,,,,,,,,./stim/wavs/mexican_mismatch_interrogative-total-yn_El-nino-oye-el-rio.wav,1,,,1360.468,1363.824,1,1,2.618,,0,69,69,35,1,36,0,mexican,,,,,,,,,,,,,,,,,,,,,,,,,,,,,,,,,,,,,,,,,,,,,,,,,,,,,,,,
,,,,,,,,,5e6fd3293c76d25a3ca8b384,Spanish,13 or older,"no, only English or Spanish",no,2025-07-24_11h19.18.311,empathy_intonation_perc_control,2024.2.4,Win32,6.854009596,5e6fd3293c76d25a3ca8b384,68817205a84113384fffdfe3,68824da2767f56a88fd375cf,,,,,,,,,,,,./stim/wavs/castilian_match_declarative-broad-focus_David-leia-el-libro.wav,0,,,1363.827,1367.125,0,1,2.46,,0,70,70,44,1,45,0,castilian,,,,,,,,,,,,,,,,,,,,,,,,,,,,,,,,,,,,,,,,,,,,,,,,,,,,,,,,
,,,,,,,,,5e6fd3293c76d25a3ca8b384,Spanish,13 or older,"no, only English or Spanish",no,2025-07-24_11h19.18.311,empathy_intonation_perc_control,2024.2.4,Win32,6.854009596,5e6fd3293c76d25a3ca8b384,68817205a84113384fffdfe3,68824da2767f56a88fd375cf,,,,,,,,,,,,./stim/wavs/puertorican_match_interrogative-total-yn_Manuela-vende-el-carro.wav,1,,,1367.126,1370.966,1,1,3.092,0.001,0,71,71,22,1,23,1,puertorican,,,,,,,,,,,,,,,,,,,,,,,,,,,,,,,,,,,,,,,,,,,,,,,,,,,,,,,,
,,,,,,,,,5e6fd3293c76d25a3ca8b384,Spanish,13 or older,"no, only English or Spanish",no,2025-07-24_11h19.18.311,empathy_intonation_perc_control,2024.2.4,Win32,6.854009596,5e6fd3293c76d25a3ca8b384,68817205a84113384fffdfe3,68824da2767f56a88fd375cf,,,,,,,,,,,,./stim/wavs/cuban_match_interrogative-total-yn_Daniel-iba-a-Bolivia.wav,1,,,1370.97,1374.774,1,1,3.114,0.001,0,72,72,7,1,8,1,cuban,,,,,,,,,,,,,,,,,,,,,,,,,,,,,,,,,,,,,,,,,,,,,,,,,,,,,,,,
,,,,,,,,,5e6fd3293c76d25a3ca8b384,Spanish,13 or older,"no, only English or Spanish",no,2025-07-24_11h19.18.311,empathy_intonation_perc_control,2024.2.4,Win32,6.854009596,5e6fd3293c76d25a3ca8b384,68817205a84113384fffdfe3,68824da2767f56a88fd375cf,,,,,,,,,,,,./stim/wavs/cuban_match_declarative-broad-focus_Manuela-vende-el-carro.wav,0,,,1374.776,1378.69,0,1,3.165,0,0,73,73,52,1,53,0,cuban,,,,,,,,,,,,,,,,,,,,,,,,,,,,,,,,,,,,,,,,,,,,,,,,,,,,,,,,
,,,,,,,,,5e6fd3293c76d25a3ca8b384,Spanish,13 or older,"no, only English or Spanish",no,2025-07-24_11h19.18.311,empathy_intonation_perc_control,2024.2.4,Win32,6.854009596,5e6fd3293c76d25a3ca8b384,68817205a84113384fffdfe3,68824da2767f56a88fd375cf,,,,,,,,,,,,./stim/wavs/mexican_match_declarative-broad-focus_Mariano-habla-del-tiempo.wav,0,,,1378.691,1383.816,0,1,4.388,0.001,0,74,74,60,1,61,0,mexican,,,,,,,,,,,,,,,,,,,,,,,,,,,,,,,,,,,,,,,,,,,,,,,,,,,,,,,,
,,,,,,,,,5e6fd3293c76d25a3ca8b384,Spanish,13 or older,"no, only English or Spanish",no,2025-07-24_11h19.18.311,empathy_intonation_perc_control,2024.2.4,Win32,6.854009596,5e6fd3293c76d25a3ca8b384,68817205a84113384fffdfe3,68824da2767f56a88fd375cf,,,,,,,,,,,,./stim/wavs/castilian_mismatch_interrogative-total-yn_Mi-tia-odia-la-lluvia.wav,1,,,1383.818,1390.757,0,0,6.198,,0,75,75,28,1,29,0,castilian,,,,,,,,,,,,,,,,,,,,,,,,,,,,,,,,,,,,,,,,,,,,,,,,,,,,,,,,
,,,,,,,,,5e6fd3293c76d25a3ca8b384,Spanish,13 or older,"no, only English or Spanish",no,2025-07-24_11h19.18.311,empathy_intonation_perc_control,2024.2.4,Win32,6.854009596,5e6fd3293c76d25a3ca8b384,68817205a84113384fffdfe3,68824da2767f56a88fd375cf,,,,,,,,,,,,./stim/wavs/puertorican_mismatch_interrogative-total-yn_La-maestra-vive-en-Paris.wav,1,,,1390.758,1397.39,0,0,5.822,0,0,76,76,41,1,42,1,puertorican,,,,,,,,,,,,,,,,,,,,,,,,,,,,,,,,,,,,,,,,,,,,,,,,,,,,,,,,
,,,,,,,,,5e6fd3293c76d25a3ca8b384,Spanish,13 or older,"no, only English or Spanish",no,2025-07-24_11h19.18.311,empathy_intonation_perc_control,2024.2.4,Win32,6.854009596,5e6fd3293c76d25a3ca8b384,68817205a84113384fffdfe3,68824da2767f56a88fd375cf,,,,,,,,,,,,./stim/wavs/cuban_match_declarative-broad-focus_Maria-bebe-el-vino.wav,0,,,1397.391,1398.493,0,1,0.471,0.001,0,77,77,53,1,54,0,cuban,,,,,,,,,,,,,,,,,,,,,,,,,,,,,,,,,,,,,,,,,,,,,,,,,,,,,,,,
,,,,,,,,,5e6fd3293c76d25a3ca8b384,Spanish,13 or older,"no, only English or Spanish",no,2025-07-24_11h19.18.311,empathy_intonation_perc_control,2024.2.4,Win32,6.854009596,5e6fd3293c76d25a3ca8b384,68817205a84113384fffdfe3,68824da2767f56a88fd375cf,,,,,,,,,,,,./stim/wavs/puertorican_mismatch_interrogative-total-yn_El-hombre-mira-la-luna.wav,1,,,1398.495,1404.567,0,0,5.342,,0,78,78,39,1,40,1,puertorican,,,,,,,,,,,,,,,,,,,,,,,,,,,,,,,,,,,,,,,,,,,,,,,,,,,,,,,,
,,,,,,,,,5e6fd3293c76d25a3ca8b384,Spanish,13 or older,"no, only English or Spanish",no,2025-07-24_11h19.18.311,empathy_intonation_perc_control,2024.2.4,Win32,6.854009596,5e6fd3293c76d25a3ca8b384,68817205a84113384fffdfe3,68824da2767f56a88fd375cf,,,,,,,,,,,,./stim/wavs/puertorican_mismatch_interrogative-total-yn_El-nino-oye-el-rio.wav,1,,,1404.576,1415.597,1,1,10.254,,0,79,79,40,1,41,1,puertorican,,,,,,,,,,,,,,,,,,,,,,,,,,,,,,,,,,,,,,,,,,,,,,,,,,,,,,,,
,,,,,,,,,5e6fd3293c76d25a3ca8b384,Spanish,13 or older,"no, only English or Spanish",no,2025-07-24_11h19.18.311,empathy_intonation_perc_control,2024.2.4,Win32,6.854009596,5e6fd3293c76d25a3ca8b384,68817205a84113384fffdfe3,68824da2767f56a88fd375cf,,,,,,,,,,,,./stim/wavs/castilian_match_interrogative-total-yn_Mariano-habla-del-tiempo.wav,1,,,1415.599,1430.835,0,0,14.492,,0,80,80,4,1,5,0,castilian,,,,,,,,,,,,,,,,,,,,,,,,,,,,,,,,,,,,,,,,,,,,,,,,,,,,,,,,
,,,,,,,,,5e6fd3293c76d25a3ca8b384,Spanish,13 or older,"no, only English or Spanish",no,2025-07-24_11h19.18.311,empathy_intonation_perc_control,2024.2.4,Win32,6.854009596,5e6fd3293c76d25a3ca8b384,68817205a84113384fffdfe3,68824da2767f56a88fd375cf,,,,,,,,,,,,./stim/wavs/castilian_match_declarative-broad-focus_Emilio-ama-la-marcha.wav,0,,,1430.836,1438.865,1,0,7.248,0,0,81,81,45,1,46,0,castilian,,,,,,,,,,,,,,,,,,,,,,,,,,,,,,,,,,,,,,,,,,,,,,,,,,,,,,,,
,,,,,,,,,5e6fd3293c76d25a3ca8b384,Spanish,13 or older,"no, only English or Spanish",no,2025-07-24_11h19.18.311,empathy_intonation_perc_control,2024.2.4,Win32,6.854009596,5e6fd3293c76d25a3ca8b384,68817205a84113384fffdfe3,68824da2767f56a88fd375cf,,,,,,,,,,,,./stim/wavs/mexican_match_declarative-broad-focus_Daniel-iba-a-Bolivia.wav,0,,,1438.866,1444.444,0,1,4.81,0.001,0,82,82,57,1,58,0,mexican,,,,,,,,,,,,,,,,,,,,,,,,,,,,,,,,,,,,,,,,,,,,,,,,,,,,,,,,
,,,,,,,,,5e6fd3293c76d25a3ca8b384,Spanish,13 or older,"no, only English or Spanish",no,2025-07-24_11h19.18.311,empathy_intonation_perc_control,2024.2.4,Win32,6.854009596,5e6fd3293c76d25a3ca8b384,68817205a84113384fffdfe3,68824da2767f56a88fd375cf,,,,,,,,,,,,./stim/wavs/cuban_mismatch_interrogative-total-yn_El-hombre-mira-la-luna.wav,1,,,1444.449,1463.789,1,1,18.696,0.002,0,83,83,29,1,30,1,cuban,,,,,,,,,,,,,,,,,,,,,,,,,,,,,,,,,,,,,,,,,,,,,,,,,,,,,,,,
,,,,,,,,,5e6fd3293c76d25a3ca8b384,Spanish,13 or older,"no, only English or Spanish",no,2025-07-24_11h19.18.311,empathy_intonation_perc_control,2024.2.4,Win32,6.854009596,5e6fd3293c76d25a3ca8b384,68817205a84113384fffdfe3,68824da2767f56a88fd375cf,,,,,,,,,,,,./stim/wavs/puertorican_match_interrogative-total-yn_Emilio-ama-la-marcha.wav,1,,,1463.79,1467.324,0,0,2.777,,0,84,84,21,1,22,1,puertorican,,,,,,,,,,,,,,,,,,,,,,,,,,,,,,,,,,,,,,,,,,,,,,,,,,,,,,,,
,,,,,,,,,5e6fd3293c76d25a3ca8b384,Spanish,13 or older,"no, only English or Spanish",no,2025-07-24_11h19.18.311,empathy_intonation_perc_control,2024.2.4,Win32,6.854009596,5e6fd3293c76d25a3ca8b384,68817205a84113384fffdfe3,68824da2767f56a88fd375cf,,,,,,,,,,,,./stim/wavs/puertorican_match_interrogative-total-yn_Ana-lleva-el-abrigo.wav,1,,,1467.326,1484.657,0,0,16.518,0.001,0,85,85,18,1,19,1,puertorican,,,,,,,,,,,,,,,,,,,,,,,,,,,,,,,,,,,,,,,,,,,,,,,,,,,,,,,,
,,,,,,,,,5e6fd3293c76d25a3ca8b384,Spanish,13 or older,"no, only English or Spanish",no,2025-07-24_11h19.18.311,empathy_intonation_perc_control,2024.2.4,Win32,6.854009596,5e6fd3293c76d25a3ca8b384,68817205a84113384fffdfe3,68824da2767f56a88fd375cf,,,,,,,,,,,,./stim/wavs/mexican_match_interrogative-total-yn_Ana-lleva-el-abrigo.wav,1,,,1484.665,1496.221,1,1,10.799,0.001,0,86,86,12,1,13,0,mexican,,,,,,,,,,,,,,,,,,,,,,,,,,,,,,,,,,,,,,,,,,,,,,,,,,,,,,,,
,,,,,,,,,5e6fd3293c76d25a3ca8b384,Spanish,13 or older,"no, only English or Spanish",no,2025-07-24_11h19.18.311,empathy_intonation_perc_control,2024.2.4,Win32,6.854009596,5e6fd3293c76d25a3ca8b384,68817205a84113384fffdfe3,68824da2767f56a88fd375cf,,,,,,,,,,,,./stim/wavs/mexican_match_interrogative-total-yn_Mariano-habla-del-tiempo.wav,1,,,1496.222,1497.571,0,0,0.603,0,0,87,87,16,1,17,0,mexican,,,,,,,,,,,,,,,,,,,,,,,,,,,,,,,,,,,,,,,,,,,,,,,,,,,,,,,,
,,,,,,,"Great! Now we will move on. The next task consists of about 60 trials, in each of which you will see a string of letters. 
  
  Your task is to decide whether this is a real Spanish word or not.", (press the spacebar to continue),5e6fd3293c76d25a3ca8b384,Spanish,13 or older,"no, only English or Spanish",no,2025-07-24_11h19.18.311,empathy_intonation_perc_control,2024.2.4,Win32,6.854009596,5e6fd3293c76d25a3ca8b384,68817205a84113384fffdfe3,68824da2767f56a88fd375cf,,,,,,,,,,,,,,,,,,,,,,,,,,,,,,1497.604,1538.484,0,0,0,0,1,,,,,,,,,,,,,,,,,,,,,,,,,,,,,,,,,,,,,,,,,,,,,,,,,
,,,,,,,"If you think it is an existing Spanish word, you type '1' (for 'REAL'), and if you think it is not an existing Spanish word, you type '0' (for 'FAKE').", (press the spacebar to continue),5e6fd3293c76d25a3ca8b384,Spanish,13 or older,"no, only English or Spanish",no,2025-07-24_11h19.18.311,empathy_intonation_perc_control,2024.2.4,Win32,6.854009596,5e6fd3293c76d25a3ca8b384,68817205a84113384fffdfe3,68824da2767f56a88fd375cf,,,,,,,,,,,,,,,,,,,,,,,,,,,,,,1538.494,1600.335,0,1,1,1,1,,,,,,,,,,,,,,,,,,,,,,,,,,,,,,,,,,,,,,,,,,,,,,,,,
,,,,,,,"If you are sure that the word exists, even though you don’t know its exact meaning, you may still respond '1' (REAL). 
  
  But if you are not sure if it is an existing word, you should respond '0' (FAKE).
  
  Let's do a practice round...", (press the spacebar to continue),5e6fd3293c76d25a3ca8b384,Spanish,13 or older,"no, only English or Spanish",no,2025-07-24_11h19.18.311,empathy_intonation_perc_control,2024.2.4,Win32,6.854009596,5e6fd3293c76d25a3ca8b384,68817205a84113384fffdfe3,68824da2767f56a88fd375cf,,,,,,,,,,,,,,,,,,,,,,,,,,,,,,1600.357,1612.419,0,2,2,2,1,,,,,,,,,,,,,,,,,,,,,,,,,,,,,,,,,,,,,,,,,,,,,,,,,
,,,,,,,,,5e6fd3293c76d25a3ca8b384,Spanish,13 or older,"no, only English or Spanish",no,2025-07-24_11h19.18.311,empathy_intonation_perc_control,2024.2.4,Win32,6.854009596,5e6fd3293c76d25a3ca8b384,68817205a84113384fffdfe3,68824da2767f56a88fd375cf,,,,,,,,,,,,,0,,,,,,,,,,,,,,,,,,,,,,,,1612.461,1634.92,0,1,21.639,0.003,1634.921,1635.856,0,0,0,0,1,0,depiste,REAL,FAKE,,,,,,,,,,,,,,,,,,,,,,,,,,,,,,,,
,,,,,,,,,5e6fd3293c76d25a3ca8b384,Spanish,13 or older,"no, only English or Spanish",no,2025-07-24_11h19.18.311,empathy_intonation_perc_control,2024.2.4,Win32,6.854009596,5e6fd3293c76d25a3ca8b384,68817205a84113384fffdfe3,68824da2767f56a88fd375cf,,,,,,,,,,,,,1,,,,,,,,,,,,,,,,,,,,,,,,1635.869,1648.405,1,1,11.743,,1648.405,1649.375,0,1,1,1,1,0,sí,REAL,FAKE,,,,,,,,,,,,,,,,,,,,,,,,,,,,,,,,
,,,,,,,,,5e6fd3293c76d25a3ca8b384,Spanish,13 or older,"no, only English or Spanish",no,2025-07-24_11h19.18.311,empathy_intonation_perc_control,2024.2.4,Win32,6.854009596,5e6fd3293c76d25a3ca8b384,68817205a84113384fffdfe3,68824da2767f56a88fd375cf,,,,,,,,,,,,,0,,,,,,,,,,,,,,,,,,,,,,,,1649.381,1653.914,1,0,3.768,,1653.917,1654.879,0,2,2,2,1,0,coné,REAL,FAKE,,,,,,,,,,,,,,,,,,,,,,,,,,,,,,,,
,,,,,,,,,5e6fd3293c76d25a3ca8b384,Spanish,13 or older,"no, only English or Spanish",no,2025-07-24_11h19.18.311,empathy_intonation_perc_control,2024.2.4,Win32,6.854009596,5e6fd3293c76d25a3ca8b384,68817205a84113384fffdfe3,68824da2767f56a88fd375cf,,,,,,,,,,,,,0,,,,,,,,,,,,,,,,,,,,,,,,1654.881,1659.197,1,0,3.557,0,1659.197,1660.229,0,3,3,3,1,0,calpar,REAL,FAKE,,,,,,,,,,,,,,,,,,,,,,,,,,,,,,,,
,,,,,,,,,5e6fd3293c76d25a3ca8b384,Spanish,13 or older,"no, only English or Spanish",no,2025-07-24_11h19.18.311,empathy_intonation_perc_control,2024.2.4,Win32,6.854009596,5e6fd3293c76d25a3ca8b384,68817205a84113384fffdfe3,68824da2767f56a88fd375cf,,,,,,,,,,,,,0,,,,,,,,,,,,,,,,,,,,,,,,1660.233,1664.737,0,1,3.774,,1664.738,1665.586,0,4,4,4,1,0,joten,REAL,FAKE,,,,,,,,,,,,,,,,,,,,,,,,,,,,,,,,
,,,,,,,,,5e6fd3293c76d25a3ca8b384,Spanish,13 or older,"no, only English or Spanish",no,2025-07-24_11h19.18.311,empathy_intonation_perc_control,2024.2.4,Win32,6.854009596,5e6fd3293c76d25a3ca8b384,68817205a84113384fffdfe3,68824da2767f56a88fd375cf,,,,,,,,,,,,,1,,,,,,,,,,,,,,,,,,,,,,,,1665.587,1670.767,0,0,4.346,0,1670.768,1671.76,0,5,5,5,1,0,sacapuntas,REAL,FAKE,,,,,,,,,,,,,,,,,,,,,,,,,,,,,,,,
,,,,,,,,,5e6fd3293c76d25a3ca8b384,Spanish,13 or older,"no, only English or Spanish",no,2025-07-24_11h19.18.311,empathy_intonation_perc_control,2024.2.4,Win32,6.854009596,5e6fd3293c76d25a3ca8b384,68817205a84113384fffdfe3,68824da2767f56a88fd375cf,,,,,,,,,,,,,0,,,,,,,,,,,,,,,,,,,,,,,,1671.763,1688.413,0,1,15.92,,1688.415,1689.339,0,6,6,6,1,0,priba,REAL,FAKE,,,,,,,,,,,,,,,,,,,,,,,,,,,,,,,,
,,,,,,,,,5e6fd3293c76d25a3ca8b384,Spanish,13 or older,"no, only English or Spanish",no,2025-07-24_11h19.18.311,empathy_intonation_perc_control,2024.2.4,Win32,6.854009596,5e6fd3293c76d25a3ca8b384,68817205a84113384fffdfe3,68824da2767f56a88fd375cf,,,,,,,,,,,,,0,,,,,,,,,,,,,,,,,,,,,,,,1689.34,1694.946,0,1,4.867,0.002,1694.946,1695.819,0,7,7,7,1,0,pelasula,REAL,FAKE,,,,,,,,,,,,,,,,,,,,,,,,,,,,,,,,
,,,,,,,,,5e6fd3293c76d25a3ca8b384,Spanish,13 or older,"no, only English or Spanish",no,2025-07-24_11h19.18.311,empathy_intonation_perc_control,2024.2.4,Win32,6.854009596,5e6fd3293c76d25a3ca8b384,68817205a84113384fffdfe3,68824da2767f56a88fd375cf,,,,,,,,,,,,,1,,,,,,,,,,,,,,,,,,,,,,,,1695.864,1716.757,1,1,20.262,0,1716.757,1717.788,0,8,8,8,1,0,bien,REAL,FAKE,,,,,,,,,,,,,,,,,,,,,,,,,,,,,,,,
,,,,,,,,,5e6fd3293c76d25a3ca8b384,Spanish,13 or older,"no, only English or Spanish",no,2025-07-24_11h19.18.311,empathy_intonation_perc_control,2024.2.4,Win32,6.854009596,5e6fd3293c76d25a3ca8b384,68817205a84113384fffdfe3,68824da2767f56a88fd375cf,,,,,,,,,,,,,1,,,,,,,,,,,,,,,,,,,,,,,,1717.79,1728.169,1,1,9.611,0.001,1728.171,1729.118,0,9,9,9,1,0,casa,REAL,FAKE,,,,,,,,,,,,,,,,,,,,,,,,,,,,,,,,
,,,,,,,,,5e6fd3293c76d25a3ca8b384,Spanish,13 or older,"no, only English or Spanish",no,2025-07-24_11h19.18.311,empathy_intonation_perc_control,2024.2.4,Win32,6.854009596,5e6fd3293c76d25a3ca8b384,68817205a84113384fffdfe3,68824da2767f56a88fd375cf,,,,,,,,,,,,,0,,,,,,,,,,,,,,,,,,,,,,,,1729.127,1741.329,0,1,11.366,0,1741.329,1742.352,0,10,10,10,1,0,lejo,REAL,FAKE,,,,,,,,,,,,,,,,,,,,,,,,,,,,,,,,
,,,,,,,,,5e6fd3293c76d25a3ca8b384,Spanish,13 or older,"no, only English or Spanish",no,2025-07-24_11h19.18.311,empathy_intonation_perc_control,2024.2.4,Win32,6.854009596,5e6fd3293c76d25a3ca8b384,68817205a84113384fffdfe3,68824da2767f56a88fd375cf,,,,,,,,,,,,,0,,,,,,,,,,,,,,,,,,,,,,,,1742.355,1763.106,0,1,20.018,0,1763.106,1764.092,0,11,11,11,1,0,pretantas,REAL,FAKE,,,,,,,,,,,,,,,,,,,,,,,,,,,,,,,,
,,,,,,,,,5e6fd3293c76d25a3ca8b384,Spanish,13 or older,"no, only English or Spanish",no,2025-07-24_11h19.18.311,empathy_intonation_perc_control,2024.2.4,Win32,6.854009596,5e6fd3293c76d25a3ca8b384,68817205a84113384fffdfe3,68824da2767f56a88fd375cf,,,,,,,,,,,,,,,,,,,,,,,,,,,,,,,,,,,,,,,,,,,,,,,,,,,,,,1764.092,1784.206,,,,,,,,,,,,,,,,,,,,,,,,,,,,,,
,,,,,,,,,5e6fd3293c76d25a3ca8b384,Spanish,13 or older,"no, only English or Spanish",no,2025-07-24_11h19.18.311,empathy_intonation_perc_control,2024.2.4,Win32,6.854009596,5e6fd3293c76d25a3ca8b384,68817205a84113384fffdfe3,68824da2767f56a88fd375cf,,,,,,,,,,,,,1,,,,,,,,,,,,,,,,,,,,,,,,,,,,,,,,,,,,,41,rebuscar,,,,,1784.273,1820.654,1,1,35.737,,0,0,0,40,1,REAL,FAKE,,,,,,,,,,,,,,,,,
,,,,,,,,,5e6fd3293c76d25a3ca8b384,Spanish,13 or older,"no, only English or Spanish",no,2025-07-24_11h19.18.311,empathy_intonation_perc_control,2024.2.4,Win32,6.854009596,5e6fd3293c76d25a3ca8b384,68817205a84113384fffdfe3,68824da2767f56a88fd375cf,,,,,,,,,,,,,1,,,,,,,,,,,,,,,,,,,,,,,,,,,,,,,,,,,,,37,granuja,,,,,1820.664,1833.419,0,0,12.104,,0,1,1,36,1,REAL,FAKE,,,,,,,,,,,,,,,,,
,,,,,,,,,5e6fd3293c76d25a3ca8b384,Spanish,13 or older,"no, only English or Spanish",no,2025-07-24_11h19.18.311,empathy_intonation_perc_control,2024.2.4,Win32,6.854009596,5e6fd3293c76d25a3ca8b384,68817205a84113384fffdfe3,68824da2767f56a88fd375cf,,,,,,,,,,,,,0,,,,,,,,,,,,,,,,,,,,,,,,,,,,,,,,,,,,,27,acutación,,,,,1833.422,1837.576,1,0,3.519,0,0,2,2,26,1,REAL,FAKE,,,,,,,,,,,,,,,,,
,,,,,,,,,5e6fd3293c76d25a3ca8b384,Spanish,13 or older,"no, only English or Spanish",no,2025-07-24_11h19.18.311,empathy_intonation_perc_control,2024.2.4,Win32,6.854009596,5e6fd3293c76d25a3ca8b384,68817205a84113384fffdfe3,68824da2767f56a88fd375cf,,,,,,,,,,,,,0,,,,,,,,,,,,,,,,,,,,,,,,,,,,,,,,,,,,,29,decar,,,,,1837.585,1840.436,1,0,2.075,,0,3,3,28,1,REAL,FAKE,,,,,,,,,,,,,,,,,
,,,,,,,,,5e6fd3293c76d25a3ca8b384,Spanish,13 or older,"no, only English or Spanish",no,2025-07-24_11h19.18.311,empathy_intonation_perc_control,2024.2.4,Win32,6.854009596,5e6fd3293c76d25a3ca8b384,68817205a84113384fffdfe3,68824da2767f56a88fd375cf,,,,,,,,,,,,,1,,,,,,,,,,,,,,,,,,,,,,,,,,,,,,,,,,,,,59,besar,,,,,1840.44,1843.794,0,0,2.689,,0,4,4,58,1,REAL,FAKE,,,,,,,,,,,,,,,,,
,,,,,,,,,5e6fd3293c76d25a3ca8b384,Spanish,13 or older,"no, only English or Spanish",no,2025-07-24_11h19.18.311,empathy_intonation_perc_control,2024.2.4,Win32,6.854009596,5e6fd3293c76d25a3ca8b384,68817205a84113384fffdfe3,68824da2767f56a88fd375cf,,,,,,,,,,,,,0,,,,,,,,,,,,,,,,,,,,,,,,,,,,,,,,,,,,,19,brecedad,,,,,1843.798,1846.95,0,1,2.466,,0,5,5,18,1,REAL,FAKE,,,,,,,,,,,,,,,,,
,,,,,,,,,5e6fd3293c76d25a3ca8b384,Spanish,13 or older,"no, only English or Spanish",no,2025-07-24_11h19.18.311,empathy_intonation_perc_control,2024.2.4,Win32,6.854009596,5e6fd3293c76d25a3ca8b384,68817205a84113384fffdfe3,68824da2767f56a88fd375cf,,,,,,,,,,,,,1,,,,,,,,,,,,,,,,,,,,,,,,,,,,,,,,,,,,,78,frondoso,,,,,1846.956,1850.839,1,1,3.205,,0,6,6,77,1,REAL,FAKE,,,,,,,,,,,,,,,,,
,,,,,,,,,5e6fd3293c76d25a3ca8b384,Spanish,13 or older,"no, only English or Spanish",no,2025-07-24_11h19.18.311,empathy_intonation_perc_control,2024.2.4,Win32,6.854009596,5e6fd3293c76d25a3ca8b384,68817205a84113384fffdfe3,68824da2767f56a88fd375cf,,,,,,,,,,,,,1,,,,,,,,,,,,,,,,,,,,,,,,,,,,,,,,,,,,,46,martillo,,,,,1850.841,1855.176,1,1,3.611,0,0,7,7,45,1,REAL,FAKE,,,,,,,,,,,,,,,,,
,,,,,,,,,5e6fd3293c76d25a3ca8b384,Spanish,13 or older,"no, only English or Spanish",no,2025-07-24_11h19.18.311,empathy_intonation_perc_control,2024.2.4,Win32,6.854009596,5e6fd3293c76d25a3ca8b384,68817205a84113384fffdfe3,68824da2767f56a88fd375cf,,,,,,,,,,,,,1,,,,,,,,,,,,,,,,,,,,,,,,,,,,,,,,,,,,,71,polvoriento,,,,,1855.178,1859.615,1,1,3.741,0.001,0,8,8,70,1,REAL,FAKE,,,,,,,,,,,,,,,,,
,,,,,,,,,5e6fd3293c76d25a3ca8b384,Spanish,13 or older,"no, only English or Spanish",no,2025-07-24_11h19.18.311,empathy_intonation_perc_control,2024.2.4,Win32,6.854009596,5e6fd3293c76d25a3ca8b384,68817205a84113384fffdfe3,68824da2767f56a88fd375cf,,,,,,,,,,,,,1,,,,,,,,,,,,,,,,,,,,,,,,,,,,,,,,,,,,,61,seda,,,,,1859.617,1895.168,1,1,34.836,,0,9,9,60,1,REAL,FAKE,,,,,,,,,,,,,,,,,
,,,,,,,,,5e6fd3293c76d25a3ca8b384,Spanish,13 or older,"no, only English or Spanish",no,2025-07-24_11h19.18.311,empathy_intonation_perc_control,2024.2.4,Win32,6.854009596,5e6fd3293c76d25a3ca8b384,68817205a84113384fffdfe3,68824da2767f56a88fd375cf,,,,,,,,,,,,,1,,,,,,,,,,,,,,,,,,,,,,,,,,,,,,,,,,,,,5,zapato,,,,,1895.177,1900.729,0,0,4.92,0,0,10,10,4,1,REAL,FAKE,,,,,,,,,,,,,,,,,
,,,,,,,,,5e6fd3293c76d25a3ca8b384,Spanish,13 or older,"no, only English or Spanish",no,2025-07-24_11h19.18.311,empathy_intonation_perc_control,2024.2.4,Win32,6.854009596,5e6fd3293c76d25a3ca8b384,68817205a84113384fffdfe3,68824da2767f56a88fd375cf,,,,,,,,,,,,,0,,,,,,,,,,,,,,,,,,,,,,,,,,,,,,,,,,,,,79,tropaje,,,,,1900.734,1932.976,0,1,31.513,0.002,0,11,11,78,1,REAL,FAKE,,,,,,,,,,,,,,,,,
,,,,,,,,,5e6fd3293c76d25a3ca8b384,Spanish,13 or older,"no, only English or Spanish",no,2025-07-24_11h19.18.311,empathy_intonation_perc_control,2024.2.4,Win32,6.854009596,5e6fd3293c76d25a3ca8b384,68817205a84113384fffdfe3,68824da2767f56a88fd375cf,,,,,,,,,,,,,1,,,,,,,,,,,,,,,,,,,,,,,,,,,,,,,,,,,,,73,hervidor,,,,,1932.986,2075.344,1,1,141.659,0.001,0,12,12,72,1,REAL,FAKE,,,,,,,,,,,,,,,,,
,,,,,,,,,5e6fd3293c76d25a3ca8b384,Spanish,13 or older,"no, only English or Spanish",no,2025-07-24_11h19.18.311,empathy_intonation_perc_control,2024.2.4,Win32,6.854009596,5e6fd3293c76d25a3ca8b384,68817205a84113384fffdfe3,68824da2767f56a88fd375cf,,,,,,,,,,,,,1,,,,,,,,,,,,,,,,,,,,,,,,,,,,,,,,,,,,,15,regar,,,,,2075.369,2084.047,1,1,8.012,0.001,0,13,13,14,1,REAL,FAKE,,,,,,,,,,,,,,,,,
,,,,,,,,,5e6fd3293c76d25a3ca8b384,Spanish,13 or older,"no, only English or Spanish",no,2025-07-24_11h19.18.311,empathy_intonation_perc_control,2024.2.4,Win32,6.854009596,5e6fd3293c76d25a3ca8b384,68817205a84113384fffdfe3,68824da2767f56a88fd375cf,,,,,,,,,,,,,1,,,,,,,,,,,,,,,,,,,,,,,,,,,,,,,,,,,,,69,engatusar,,,,,2084.049,2091.35,1,1,6.557,,0,14,14,68,1,REAL,FAKE,,,,,,,,,,,,,,,,,
,,,,,,,,,5e6fd3293c76d25a3ca8b384,Spanish,13 or older,"no, only English or Spanish",no,2025-07-24_11h19.18.311,empathy_intonation_perc_control,2024.2.4,Win32,6.854009596,5e6fd3293c76d25a3ca8b384,68817205a84113384fffdfe3,68824da2767f56a88fd375cf,,,,,,,,,,,,,1,,,,,,,,,,,,,,,,,,,,,,,,,,,,,,,,,,,,,80,hormiga,,,,,2091.354,2098.222,1,1,6.197,0.002,0,15,15,79,1,REAL,FAKE,,,,,,,,,,,,,,,,,
,,,,,,,,,5e6fd3293c76d25a3ca8b384,Spanish,13 or older,"no, only English or Spanish",no,2025-07-24_11h19.18.311,empathy_intonation_perc_control,2024.2.4,Win32,6.854009596,5e6fd3293c76d25a3ca8b384,68817205a84113384fffdfe3,68824da2767f56a88fd375cf,,,,,,,,,,,,,1,,,,,,,,,,,,,,,,,,,,,,,,,,,,,,,,,,,,,31,pandilla,,,,,2098.224,2104.191,1,1,5.269,,0,16,16,30,1,REAL,FAKE,,,,,,,,,,,,,,,,,
,,,,,,,,,5e6fd3293c76d25a3ca8b384,Spanish,13 or older,"no, only English or Spanish",no,2025-07-24_11h19.18.311,empathy_intonation_perc_control,2024.2.4,Win32,6.854009596,5e6fd3293c76d25a3ca8b384,68817205a84113384fffdfe3,68824da2767f56a88fd375cf,,,,,,,,,,,,,1,,,,,,,,,,,,,,,,,,,,,,,,,,,,,,,,,,,,,75,yacer,,,,,2104.196,2109.67,1,1,4.8,,0,17,17,74,1,REAL,FAKE,,,,,,,,,,,,,,,,,
,,,,,,,,,5e6fd3293c76d25a3ca8b384,Spanish,13 or older,"no, only English or Spanish",no,2025-07-24_11h19.18.311,empathy_intonation_perc_control,2024.2.4,Win32,6.854009596,5e6fd3293c76d25a3ca8b384,68817205a84113384fffdfe3,68824da2767f56a88fd375cf,,,,,,,,,,,,,1,,,,,,,,,,,,,,,,,,,,,,,,,,,,,,,,,,,,,43,canela,,,,,2109.671,2115.304,1,1,4.985,,0,18,18,42,1,REAL,FAKE,,,,,,,,,,,,,,,,,
,,,,,,,,,5e6fd3293c76d25a3ca8b384,Spanish,13 or older,"no, only English or Spanish",no,2025-07-24_11h19.18.311,empathy_intonation_perc_control,2024.2.4,Win32,6.854009596,5e6fd3293c76d25a3ca8b384,68817205a84113384fffdfe3,68824da2767f56a88fd375cf,,,,,,,,,,,,,1,,,,,,,,,,,,,,,,,,,,,,,,,,,,,,,,,,,,,22,lacayo,,,,,2115.308,2121.931,1,1,5.951,0.002,0,19,19,21,1,REAL,FAKE,,,,,,,,,,,,,,,,,
,,,,,,,,,5e6fd3293c76d25a3ca8b384,Spanish,13 or older,"no, only English or Spanish",no,2025-07-24_11h19.18.311,empathy_intonation_perc_control,2024.2.4,Win32,6.854009596,5e6fd3293c76d25a3ca8b384,68817205a84113384fffdfe3,68824da2767f56a88fd375cf,,,,,,,,,,,,,1,,,,,,,,,,,,,,,,,,,,,,,,,,,,,,,,,,,,,12,asesinato,,,,,2121.934,2127.614,1,1,5.025,,0,20,20,11,1,REAL,FAKE,,,,,,,,,,,,,,,,,
,,,,,,,,,5e6fd3293c76d25a3ca8b384,Spanish,13 or older,"no, only English or Spanish",no,2025-07-24_11h19.18.311,empathy_intonation_perc_control,2024.2.4,Win32,6.854009596,5e6fd3293c76d25a3ca8b384,68817205a84113384fffdfe3,68824da2767f56a88fd375cf,,,,,,,,,,,,,1,,,,,,,,,,,,,,,,,,,,,,,,,,,,,,,,,,,,,13,helar,,,,,2127.616,2134.046,1,1,5.752,,0,21,21,12,1,REAL,FAKE,,,,,,,,,,,,,,,,,
,,,,,,,,,5e6fd3293c76d25a3ca8b384,Spanish,13 or older,"no, only English or Spanish",no,2025-07-24_11h19.18.311,empathy_intonation_perc_control,2024.2.4,Win32,6.854009596,5e6fd3293c76d25a3ca8b384,68817205a84113384fffdfe3,68824da2767f56a88fd375cf,,,,,,,,,,,,,1,,,,,,,,,,,,,,,,,,,,,,,,,,,,,,,,,,,,,38,estornudar,,,,,2134.056,2139.934,1,1,5.25,0.001,0,22,22,37,1,REAL,FAKE,,,,,,,,,,,,,,,,,
,,,,,,,,,5e6fd3293c76d25a3ca8b384,Spanish,13 or older,"no, only English or Spanish",no,2025-07-24_11h19.18.311,empathy_intonation_perc_control,2024.2.4,Win32,6.854009596,5e6fd3293c76d25a3ca8b384,68817205a84113384fffdfe3,68824da2767f56a88fd375cf,,,,,,,,,,,,,1,,,,,,,,,,,,,,,,,,,,,,,,,,,,,,,,,,,,,52,camisa,,,,,2139.941,2148.643,1,1,7.978,0.001,0,23,23,51,1,REAL,FAKE,,,,,,,,,,,,,,,,,
,,,,,,,,,5e6fd3293c76d25a3ca8b384,Spanish,13 or older,"no, only English or Spanish",no,2025-07-24_11h19.18.311,empathy_intonation_perc_control,2024.2.4,Win32,6.854009596,5e6fd3293c76d25a3ca8b384,68817205a84113384fffdfe3,68824da2767f56a88fd375cf,,,,,,,,,,,,,0,,,,,,,,,,,,,,,,,,,,,,,,,,,,,,,,,,,,,32,fatacidad,,,,,2148.648,2161.638,1,0,12.305,,0,24,24,31,1,REAL,FAKE,,,,,,,,,,,,,,,,,
,,,,,,,,,5e6fd3293c76d25a3ca8b384,Spanish,13 or older,"no, only English or Spanish",no,2025-07-24_11h19.18.311,empathy_intonation_perc_control,2024.2.4,Win32,6.854009596,5e6fd3293c76d25a3ca8b384,68817205a84113384fffdfe3,68824da2767f56a88fd375cf,,,,,,,,,,,,,1,,,,,,,,,,,,,,,,,,,,,,,,,,,,,,,,,,,,,62,flaco,,,,,2161.644,2168.399,1,1,6.035,,0,25,25,61,1,REAL,FAKE,,,,,,,,,,,,,,,,,
,,,,,,,,,5e6fd3293c76d25a3ca8b384,Spanish,13 or older,"no, only English or Spanish",no,2025-07-24_11h19.18.311,empathy_intonation_perc_control,2024.2.4,Win32,6.854009596,5e6fd3293c76d25a3ca8b384,68817205a84113384fffdfe3,68824da2767f56a88fd375cf,,,,,,,,,,,,,1,,,,,,,,,,,,,,,,,,,,,,,,,,,,,,,,,,,,,68,alegre,,,,,2168.402,2175.611,1,1,6.448,,0,26,26,67,1,REAL,FAKE,,,,,,,,,,,,,,,,,
,,,,,,,,,5e6fd3293c76d25a3ca8b384,Spanish,13 or older,"no, only English or Spanish",no,2025-07-24_11h19.18.311,empathy_intonation_perc_control,2024.2.4,Win32,6.854009596,5e6fd3293c76d25a3ca8b384,68817205a84113384fffdfe3,68824da2767f56a88fd375cf,,,,,,,,,,,,,0,,,,,,,,,,,,,,,,,,,,,,,,,,,,,,,,,,,,,18,arsa,,,,,2175.615,2182.421,0,1,6.139,,0,27,27,17,1,REAL,FAKE,,,,,,,,,,,,,,,,,
,,,,,,,,,5e6fd3293c76d25a3ca8b384,Spanish,13 or older,"no, only English or Spanish",no,2025-07-24_11h19.18.311,empathy_intonation_perc_control,2024.2.4,Win32,6.854009596,5e6fd3293c76d25a3ca8b384,68817205a84113384fffdfe3,68824da2767f56a88fd375cf,,,,,,,,,,,,,1,,,,,,,,,,,,,,,,,,,,,,,,,,,,,,,,,,,,,85,laúd,,,,,2182.427,2188.887,1,1,5.811,,0,28,28,84,1,REAL,FAKE,,,,,,,,,,,,,,,,,
,,,,,,,,,5e6fd3293c76d25a3ca8b384,Spanish,13 or older,"no, only English or Spanish",no,2025-07-24_11h19.18.311,empathy_intonation_perc_control,2024.2.4,Win32,6.854009596,5e6fd3293c76d25a3ca8b384,68817205a84113384fffdfe3,68824da2767f56a88fd375cf,,,,,,,,,,,,,1,,,,,,,,,,,,,,,,,,,,,,,,,,,,,,,,,,,,,25,bisagra,,,,,2188.888,2196.067,1,1,6.514,0,0,29,29,24,1,REAL,FAKE,,,,,,,,,,,,,,,,,
,,,,,,,,,5e6fd3293c76d25a3ca8b384,Spanish,13 or older,"no, only English or Spanish",no,2025-07-24_11h19.18.311,empathy_intonation_perc_control,2024.2.4,Win32,6.854009596,5e6fd3293c76d25a3ca8b384,68817205a84113384fffdfe3,68824da2767f56a88fd375cf,,,,,,,,,,,,,1,,,,,,,,,,,,,,,,,,,,,,,,,,,,,,,,,,,,,48,ladrón,,,,,2196.07,2202.724,1,1,5.922,,0,30,30,47,1,REAL,FAKE,,,,,,,,,,,,,,,,,
,,,,,,,,,5e6fd3293c76d25a3ca8b384,Spanish,13 or older,"no, only English or Spanish",no,2025-07-24_11h19.18.311,empathy_intonation_perc_control,2024.2.4,Win32,6.854009596,5e6fd3293c76d25a3ca8b384,68817205a84113384fffdfe3,68824da2767f56a88fd375cf,,,,,,,,,,,,,1,,,,,,,,,,,,,,,,,,,,,,,,,,,,,,,,,,,,,51,candado,,,,,2202.725,2211.43,1,1,7.903,0.061,0,31,31,50,1,REAL,FAKE,,,,,,,,,,,,,,,,,
,,,,,,,,,5e6fd3293c76d25a3ca8b384,Spanish,13 or older,"no, only English or Spanish",no,2025-07-24_11h19.18.311,empathy_intonation_perc_control,2024.2.4,Win32,6.854009596,5e6fd3293c76d25a3ca8b384,68817205a84113384fffdfe3,68824da2767f56a88fd375cf,,,,,,,,,,,,,1,,,,,,,,,,,,,,,,,,,,,,,,,,,,,,,,,,,,,20,ávido,,,,,2211.432,2213.404,1,1,1.271,,0,32,32,19,1,REAL,FAKE,,,,,,,,,,,,,,,,,
,,,,,,,,,5e6fd3293c76d25a3ca8b384,Spanish,13 or older,"no, only English or Spanish",no,2025-07-24_11h19.18.311,empathy_intonation_perc_control,2024.2.4,Win32,6.854009596,5e6fd3293c76d25a3ca8b384,68817205a84113384fffdfe3,68824da2767f56a88fd375cf,,,,,,,,,,,,,1,,,,,,,,,,,,,,,,,,,,,,,,,,,,,,,,,,,,,11,cenefa,,,,,2213.41,2216.241,0,0,2.119,,0,33,33,10,1,REAL,FAKE,,,,,,,,,,,,,,,,,
,,,,,,,,,5e6fd3293c76d25a3ca8b384,Spanish,13 or older,"no, only English or Spanish",no,2025-07-24_11h19.18.311,empathy_intonation_perc_control,2024.2.4,Win32,6.854009596,5e6fd3293c76d25a3ca8b384,68817205a84113384fffdfe3,68824da2767f56a88fd375cf,,,,,,,,,,,,,0,,,,,,,,,,,,,,,,,,,,,,,,,,,,,,,,,,,,,58,plaudir,,,,,2216.245,2218.245,1,0,1.308,0,0,34,34,57,1,REAL,FAKE,,,,,,,,,,,,,,,,,
,,,,,,,,,5e6fd3293c76d25a3ca8b384,Spanish,13 or older,"no, only English or Spanish",no,2025-07-24_11h19.18.311,empathy_intonation_perc_control,2024.2.4,Win32,6.854009596,5e6fd3293c76d25a3ca8b384,68817205a84113384fffdfe3,68824da2767f56a88fd375cf,,,,,,,,,,,,,0,,,,,,,,,,,,,,,,,,,,,,,,,,,,,,,,,,,,,92,click the 0 key.,,,,,2218.249,2219.623,1,0,0.699,,0,35,35,91,1,REAL,FAKE,,,,,,,,,,,,,,,,,
,,,,,,,,,5e6fd3293c76d25a3ca8b384,Spanish,13 or older,"no, only English or Spanish",no,2025-07-24_11h19.18.311,empathy_intonation_perc_control,2024.2.4,Win32,6.854009596,5e6fd3293c76d25a3ca8b384,68817205a84113384fffdfe3,68824da2767f56a88fd375cf,,,,,,,,,,,,,1,,,,,,,,,,,,,,,,,,,,,,,,,,,,,,,,,,,,,14,yunque,,,,,2219.627,2229.01,0,0,8.721,,0,36,36,13,1,REAL,FAKE,,,,,,,,,,,,,,,,,
,,,,,,,,,5e6fd3293c76d25a3ca8b384,Spanish,13 or older,"no, only English or Spanish",no,2025-07-24_11h19.18.311,empathy_intonation_perc_control,2024.2.4,Win32,6.854009596,5e6fd3293c76d25a3ca8b384,68817205a84113384fffdfe3,68824da2767f56a88fd375cf,,,,,,,,,,,,,0,,,,,,,,,,,,,,,,,,,,,,,,,,,,,,,,,,,,,33,pauca,,,,,2229.012,2238.719,0,1,8.996,,0,37,37,32,1,REAL,FAKE,,,,,,,,,,,,,,,,,
,,,,,,,,,5e6fd3293c76d25a3ca8b384,Spanish,13 or older,"no, only English or Spanish",no,2025-07-24_11h19.18.311,empathy_intonation_perc_control,2024.2.4,Win32,6.854009596,5e6fd3293c76d25a3ca8b384,68817205a84113384fffdfe3,68824da2767f56a88fd375cf,,,,,,,,,,,,,0,,,,,,,,,,,,,,,,,,,,,,,,,,,,,,,,,,,,,10,antar,,,,,2238.723,2245.177,0,1,5.77,,0,38,38,9,1,REAL,FAKE,,,,,,,,,,,,,,,,,
,,,,,,,,,5e6fd3293c76d25a3ca8b384,Spanish,13 or older,"no, only English or Spanish",no,2025-07-24_11h19.18.311,empathy_intonation_perc_control,2024.2.4,Win32,6.854009596,5e6fd3293c76d25a3ca8b384,68817205a84113384fffdfe3,68824da2767f56a88fd375cf,,,,,,,,,,,,,0,,,,,,,,,,,,,,,,,,,,,,,,,,,,,,,,,,,,,82,empirador,,,,,2245.18,2253.052,1,0,7.147,,0,39,39,81,1,REAL,FAKE,,,,,,,,,,,,,,,,,
,,,,,,,,,5e6fd3293c76d25a3ca8b384,Spanish,13 or older,"no, only English or Spanish",no,2025-07-24_11h19.18.311,empathy_intonation_perc_control,2024.2.4,Win32,6.854009596,5e6fd3293c76d25a3ca8b384,68817205a84113384fffdfe3,68824da2767f56a88fd375cf,,,,,,,,,,,,,0,,,,,,,,,,,,,,,,,,,,,,,,,,,,,,,,,,,,,66,hacido,,,,,2253.063,2260.075,1,0,6.363,,0,40,40,65,1,REAL,FAKE,,,,,,,,,,,,,,,,,
,,,,,,,,,5e6fd3293c76d25a3ca8b384,Spanish,13 or older,"no, only English or Spanish",no,2025-07-24_11h19.18.311,empathy_intonation_perc_control,2024.2.4,Win32,6.854009596,5e6fd3293c76d25a3ca8b384,68817205a84113384fffdfe3,68824da2767f56a88fd375cf,,,,,,,,,,,,,1,,,,,,,,,,,,,,,,,,,,,,,,,,,,,,,,,,,,,76,atar,,,,,2260.077,2263.71,1,1,2.898,,0,41,41,75,1,REAL,FAKE,,,,,,,,,,,,,,,,,
,,,,,,,,,5e6fd3293c76d25a3ca8b384,Spanish,13 or older,"no, only English or Spanish",no,2025-07-24_11h19.18.311,empathy_intonation_perc_control,2024.2.4,Win32,6.854009596,5e6fd3293c76d25a3ca8b384,68817205a84113384fffdfe3,68824da2767f56a88fd375cf,,,,,,,,,,,,,1,,,,,,,,,,,,,,,,,,,,,,,,,,,,,,,,,,,,,65,bizcocho,,,,,2263.714,2272.634,1,1,8.253,,0,42,42,64,1,REAL,FAKE,,,,,,,,,,,,,,,,,
,,,,,,,,,5e6fd3293c76d25a3ca8b384,Spanish,13 or older,"no, only English or Spanish",no,2025-07-24_11h19.18.311,empathy_intonation_perc_control,2024.2.4,Win32,6.854009596,5e6fd3293c76d25a3ca8b384,68817205a84113384fffdfe3,68824da2767f56a88fd375cf,,,,,,,,,,,,,0,,,,,,,,,,,,,,,,,,,,,,,,,,,,,,,,,,,,,53,vegada,,,,,2272.639,2274.189,1,0,0.855,,0,43,43,52,1,REAL,FAKE,,,,,,,,,,,,,,,,,
,,,,,,,,,5e6fd3293c76d25a3ca8b384,Spanish,13 or older,"no, only English or Spanish",no,2025-07-24_11h19.18.311,empathy_intonation_perc_control,2024.2.4,Win32,6.854009596,5e6fd3293c76d25a3ca8b384,68817205a84113384fffdfe3,68824da2767f56a88fd375cf,,,,,,,,,,,,,1,,,,,,,,,,,,,,,,,,,,,,,,,,,,,,,,,,,,,26,secuestro,,,,,2274.191,2275.145,1,1,0.274,,0,44,44,25,1,REAL,FAKE,,,,,,,,,,,,,,,,,
,,,,,,,,,5e6fd3293c76d25a3ca8b384,Spanish,13 or older,"no, only English or Spanish",no,2025-07-24_11h19.18.311,empathy_intonation_perc_control,2024.2.4,Win32,6.854009596,5e6fd3293c76d25a3ca8b384,68817205a84113384fffdfe3,68824da2767f56a88fd375cf,,,,,,,,,,,,,1,,,,,,,,,,,,,,,,,,,,,,,,,,,,,,,,,,,,,60,matar,,,,,2275.147,2275.836,1,1,0.018,,0,45,45,59,1,REAL,FAKE,,,,,,,,,,,,,,,,,
,,,,,,,,,5e6fd3293c76d25a3ca8b384,Spanish,13 or older,"no, only English or Spanish",no,2025-07-24_11h19.18.311,empathy_intonation_perc_control,2024.2.4,Win32,6.854009596,5e6fd3293c76d25a3ca8b384,68817205a84113384fffdfe3,68824da2767f56a88fd375cf,,,,,,,,,,,,,0,,,,,,,,,,,,,,,,,,,,,,,,,,,,,,,,,,,,,21,capillo,,,,,2275.838,2278.14,1,0,1.635,,0,46,46,20,1,REAL,FAKE,,,,,,,,,,,,,,,,,
,,,,,,,,,5e6fd3293c76d25a3ca8b384,Spanish,13 or older,"no, only English or Spanish",no,2025-07-24_11h19.18.311,empathy_intonation_perc_control,2024.2.4,Win32,6.854009596,5e6fd3293c76d25a3ca8b384,68817205a84113384fffdfe3,68824da2767f56a88fd375cf,,,,,,,,,,,,,1,,,,,,,,,,,,,,,,,,,,,,,,,,,,,,,,,,,,,3,pulmones,,,,,2278.142,2278.811,1,1,0.003,,0,47,47,2,1,REAL,FAKE,,,,,,,,,,,,,,,,,
,,,,,,,,,5e6fd3293c76d25a3ca8b384,Spanish,13 or older,"no, only English or Spanish",no,2025-07-24_11h19.18.311,empathy_intonation_perc_control,2024.2.4,Win32,6.854009596,5e6fd3293c76d25a3ca8b384,68817205a84113384fffdfe3,68824da2767f56a88fd375cf,,,,,,,,,,,,,1,,,,,,,,,,,,,,,,,,,,,,,,,,,,,,,,,,,,,91,click the 1 key.,,,,,2278.815,2279.549,1,1,0.003,,0,48,48,90,1,REAL,FAKE,,,,,,,,,,,,,,,,,
,,,,,,,,,5e6fd3293c76d25a3ca8b384,Spanish,13 or older,"no, only English or Spanish",no,2025-07-24_11h19.18.311,empathy_intonation_perc_control,2024.2.4,Win32,6.854009596,5e6fd3293c76d25a3ca8b384,68817205a84113384fffdfe3,68824da2767f56a88fd375cf,,,,,,,,,,,,,0,,,,,,,,,,,,,,,,,,,,,,,,,,,,,,,,,,,,,16,abracer,,,,,2279.555,2394.542,1,0,114.267,,0,49,49,15,1,REAL,FAKE,,,,,,,,,,,,,,,,,
,,,,,,,,,5e6fd3293c76d25a3ca8b384,Spanish,13 or older,"no, only English or Spanish",no,2025-07-24_11h19.18.311,empathy_intonation_perc_control,2024.2.4,Win32,6.854009596,5e6fd3293c76d25a3ca8b384,68817205a84113384fffdfe3,68824da2767f56a88fd375cf,,,,,,,,,,,,,0,,,,,,,,,,,,,,,,,,,,,,,,,,,,,,,,,,,,,23,lampera,,,,,2394.547,2399.948,1,0,4.605,0,0,50,50,22,1,REAL,FAKE,,,,,,,,,,,,,,,,,
,,,,,,,,,5e6fd3293c76d25a3ca8b384,Spanish,13 or older,"no, only English or Spanish",no,2025-07-24_11h19.18.311,empathy_intonation_perc_control,2024.2.4,Win32,6.854009596,5e6fd3293c76d25a3ca8b384,68817205a84113384fffdfe3,68824da2767f56a88fd375cf,,,,,,,,,,,,,1,,,,,,,,,,,,,,,,,,,,,,,,,,,,,,,,,,,,,55,nevar,,,,,2399.954,2407.137,1,1,6.482,0.001,0,51,51,54,1,REAL,FAKE,,,,,,,,,,,,,,,,,
,,,,,,,,,5e6fd3293c76d25a3ca8b384,Spanish,13 or older,"no, only English or Spanish",no,2025-07-24_11h19.18.311,empathy_intonation_perc_control,2024.2.4,Win32,6.854009596,5e6fd3293c76d25a3ca8b384,68817205a84113384fffdfe3,68824da2767f56a88fd375cf,,,,,,,,,,,,,1,,,,,,,,,,,,,,,,,,,,,,,,,,,,,,,,,,,,,45,jilguero,,,,,2407.141,2415.207,1,1,7.405,,0,52,52,44,1,REAL,FAKE,,,,,,,,,,,,,,,,,
,,,,,,,,,5e6fd3293c76d25a3ca8b384,Spanish,13 or older,"no, only English or Spanish",no,2025-07-24_11h19.18.311,empathy_intonation_perc_control,2024.2.4,Win32,6.854009596,5e6fd3293c76d25a3ca8b384,68817205a84113384fffdfe3,68824da2767f56a88fd375cf,,,,,,,,,,,,,0,,,,,,,,,,,,,,,,,,,,,,,,,,,,,,,,,,,,,63,esposante,,,,,2415.209,2421.957,1,0,6.066,,0,53,53,62,1,REAL,FAKE,,,,,,,,,,,,,,,,,
,,,,,,,,,5e6fd3293c76d25a3ca8b384,Spanish,13 or older,"no, only English or Spanish",no,2025-07-24_11h19.18.311,empathy_intonation_perc_control,2024.2.4,Win32,6.854009596,5e6fd3293c76d25a3ca8b384,68817205a84113384fffdfe3,68824da2767f56a88fd375cf,,,,,,,,,,,,,1,,,,,,,,,,,,,,,,,,,,,,,,,,,,,,,,,,,,,36,loro,,,,,2421.967,2429.061,1,1,6.448,0.001,0,54,54,35,1,REAL,FAKE,,,,,,,,,,,,,,,,,
,,,,,,,,,5e6fd3293c76d25a3ca8b384,Spanish,13 or older,"no, only English or Spanish",no,2025-07-24_11h19.18.311,empathy_intonation_perc_control,2024.2.4,Win32,6.854009596,5e6fd3293c76d25a3ca8b384,68817205a84113384fffdfe3,68824da2767f56a88fd375cf,,,,,,,,,,,,,1,,,,,,,,,,,,,,,,,,,,,,,,,,,,,,,,,,,,,64,orgulloso,,,,,2429.065,2435.72,1,1,5.949,0,0,55,55,63,1,REAL,FAKE,,,,,,,,,,,,,,,,,
,,,,,,,,,5e6fd3293c76d25a3ca8b384,Spanish,13 or older,"no, only English or Spanish",no,2025-07-24_11h19.18.311,empathy_intonation_perc_control,2024.2.4,Win32,6.854009596,5e6fd3293c76d25a3ca8b384,68817205a84113384fffdfe3,68824da2767f56a88fd375cf,,,,,,,,,,,,,0,,,,,,,,,,,,,,,,,,,,,,,,,,,,,,,,,,,,,74,cintro,,,,,2435.722,2440.942,1,0,4.433,,0,56,56,73,1,REAL,FAKE,,,,,,,,,,,,,,,,,
,,,,,,,,,5e6fd3293c76d25a3ca8b384,Spanish,13 or older,"no, only English or Spanish",no,2025-07-24_11h19.18.311,empathy_intonation_perc_control,2024.2.4,Win32,6.854009596,5e6fd3293c76d25a3ca8b384,68817205a84113384fffdfe3,68824da2767f56a88fd375cf,,,,,,,,,,,,,1,,,,,,,,,,,,,,,,,,,,,,,,,,,,,,,,,,,,,39,torpe,,,,,2440.946,2447.982,1,1,6.374,0.001,0,57,57,38,1,REAL,FAKE,,,,,,,,,,,,,,,,,
,,,,,,,,,5e6fd3293c76d25a3ca8b384,Spanish,13 or older,"no, only English or Spanish",no,2025-07-24_11h19.18.311,empathy_intonation_perc_control,2024.2.4,Win32,6.854009596,5e6fd3293c76d25a3ca8b384,68817205a84113384fffdfe3,68824da2767f56a88fd375cf,,,,,,,,,,,,,1,,,,,,,,,,,,,,,,,,,,,,,,,,,,,,,,,,,,,34,aviso,,,,,2447.986,2453.111,1,1,4.483,,0,58,58,33,1,REAL,FAKE,,,,,,,,,,,,,,,,,
,,,,,,,,,5e6fd3293c76d25a3ca8b384,Spanish,13 or older,"no, only English or Spanish",no,2025-07-24_11h19.18.311,empathy_intonation_perc_control,2024.2.4,Win32,6.854009596,5e6fd3293c76d25a3ca8b384,68817205a84113384fffdfe3,68824da2767f56a88fd375cf,,,,,,,,,,,,,1,,,,,,,,,,,,,,,,,,,,,,,,,,,,,,,,,,,,,24,látigo,,,,,2453.112,2459.75,1,1,5.968,,0,59,59,23,1,REAL,FAKE,,,,,,,,,,,,,,,,,
,,,,,,,,,5e6fd3293c76d25a3ca8b384,Spanish,13 or older,"no, only English or Spanish",no,2025-07-24_11h19.18.311,empathy_intonation_perc_control,2024.2.4,Win32,6.854009596,5e6fd3293c76d25a3ca8b384,68817205a84113384fffdfe3,68824da2767f56a88fd375cf,,,,,,,,,,,,,1,,,,,,,,,,,,,,,,,,,,,,,,,,,,,,,,,,,,,89,prisa,,,,,2459.756,2466.054,1,1,5.667,0,0,60,60,88,1,REAL,FAKE,,,,,,,,,,,,,,,,,
,,,,,,,,,5e6fd3293c76d25a3ca8b384,Spanish,13 or older,"no, only English or Spanish",no,2025-07-24_11h19.18.311,empathy_intonation_perc_control,2024.2.4,Win32,6.854009596,5e6fd3293c76d25a3ca8b384,68817205a84113384fffdfe3,68824da2767f56a88fd375cf,,,,,,,,,,,,,0,,,,,,,,,,,,,,,,,,,,,,,,,,,,,,,,,,,,,84,escuto,,,,,2466.058,2472.151,1,0,5.379,,0,61,61,83,1,REAL,FAKE,,,,,,,,,,,,,,,,,
,,,,,,,,,5e6fd3293c76d25a3ca8b384,Spanish,13 or older,"no, only English or Spanish",no,2025-07-24_11h19.18.311,empathy_intonation_perc_control,2024.2.4,Win32,6.854009596,5e6fd3293c76d25a3ca8b384,68817205a84113384fffdfe3,68824da2767f56a88fd375cf,,,,,,,,,,,,,0,,,,,,,,,,,,,,,,,,,,,,,,,,,,,,,,,,,,,87,grodo,,,,,2472.155,2477.786,1,0,4.905,,0,62,62,86,1,REAL,FAKE,,,,,,,,,,,,,,,,,
,,,,,,,,,5e6fd3293c76d25a3ca8b384,Spanish,13 or older,"no, only English or Spanish",no,2025-07-24_11h19.18.311,empathy_intonation_perc_control,2024.2.4,Win32,6.854009596,5e6fd3293c76d25a3ca8b384,68817205a84113384fffdfe3,68824da2767f56a88fd375cf,,,,,,,,,,,,,1,,,,,,,,,,,,,,,,,,,,,,,,,,,,,,,,,,,,,6,tergiversar,,,,,2477.793,2485.07,1,1,6.645,,0,63,63,5,1,REAL,FAKE,,,,,,,,,,,,,,,,,
,,,,,,,,,5e6fd3293c76d25a3ca8b384,Spanish,13 or older,"no, only English or Spanish",no,2025-07-24_11h19.18.311,empathy_intonation_perc_control,2024.2.4,Win32,6.854009596,5e6fd3293c76d25a3ca8b384,68817205a84113384fffdfe3,68824da2767f56a88fd375cf,,,,,,,,,,,,,0,,,,,,,,,,,,,,,,,,,,,,,,,,,,,,,,,,,,,30,alardio,,,,,2485.072,2490.062,1,0,4.272,,0,64,64,29,1,REAL,FAKE,,,,,,,,,,,,,,,,,
,,,,,,,,,5e6fd3293c76d25a3ca8b384,Spanish,13 or older,"no, only English or Spanish",no,2025-07-24_11h19.18.311,empathy_intonation_perc_control,2024.2.4,Win32,6.854009596,5e6fd3293c76d25a3ca8b384,68817205a84113384fffdfe3,68824da2767f56a88fd375cf,,,,,,,,,,,,,1,,,,,,,,,,,,,,,,,,,,,,,,,,,,,,,,,,,,,77,tiburón,,,,,2490.064,2496.07,1,1,5.35,,0,65,65,76,1,REAL,FAKE,,,,,,,,,,,,,,,,,
,,,,,,,,,5e6fd3293c76d25a3ca8b384,Spanish,13 or older,"no, only English or Spanish",no,2025-07-24_11h19.18.311,empathy_intonation_perc_control,2024.2.4,Win32,6.854009596,5e6fd3293c76d25a3ca8b384,68817205a84113384fffdfe3,68824da2767f56a88fd375cf,,,,,,,,,,,,,1,,,,,,,,,,,,,,,,,,,,,,,,,,,,,,,,,,,,,56,musgo,,,,,2496.072,2502.394,1,1,5.518,0,0,66,66,55,1,REAL,FAKE,,,,,,,,,,,,,,,,,
,,,,,,,,,5e6fd3293c76d25a3ca8b384,Spanish,13 or older,"no, only English or Spanish",no,2025-07-24_11h19.18.311,empathy_intonation_perc_control,2024.2.4,Win32,6.854009596,5e6fd3293c76d25a3ca8b384,68817205a84113384fffdfe3,68824da2767f56a88fd375cf,,,,,,,,,,,,,0,,,,,,,,,,,,,,,,,,,,,,,,,,,,,,,,,,,,,8,cadeña,,,,,2502.405,2508.405,1,0,5.366,,0,67,67,7,1,REAL,FAKE,,,,,,,,,,,,,,,,,
,,,,,,,,,5e6fd3293c76d25a3ca8b384,Spanish,13 or older,"no, only English or Spanish",no,2025-07-24_11h19.18.311,empathy_intonation_perc_control,2024.2.4,Win32,6.854009596,5e6fd3293c76d25a3ca8b384,68817205a84113384fffdfe3,68824da2767f56a88fd375cf,,,,,,,,,,,,,1,,,,,,,,,,,,,,,,,,,,,,,,,,,,,,,,,,,,,44,cuchara,,,,,2508.407,2515.954,1,1,6.837,,0,68,68,43,1,REAL,FAKE,,,,,,,,,,,,,,,,,
,,,,,,,,,5e6fd3293c76d25a3ca8b384,Spanish,13 or older,"no, only English or Spanish",no,2025-07-24_11h19.18.311,empathy_intonation_perc_control,2024.2.4,Win32,6.854009596,5e6fd3293c76d25a3ca8b384,68817205a84113384fffdfe3,68824da2767f56a88fd375cf,,,,,,,,,,,,,1,,,,,,,,,,,,,,,,,,,,,,,,,,,,,,,,,,,,,2,pellizcar,,,,,2515.956,2522.856,1,1,6.17,,0,69,69,1,1,REAL,FAKE,,,,,,,,,,,,,,,,,
,,,,,,,,,5e6fd3293c76d25a3ca8b384,Spanish,13 or older,"no, only English or Spanish",no,2025-07-24_11h19.18.311,empathy_intonation_perc_control,2024.2.4,Win32,6.854009596,5e6fd3293c76d25a3ca8b384,68817205a84113384fffdfe3,68824da2767f56a88fd375cf,,,,,,,,,,,,,1,,,,,,,,,,,,,,,,,,,,,,,,,,,,,,,,,,,,,90,clavel,,,,,2522.862,2529.298,1,1,5.789,,0,70,70,89,1,REAL,FAKE,,,,,,,,,,,,,,,,,
,,,,,,,,,5e6fd3293c76d25a3ca8b384,Spanish,13 or older,"no, only English or Spanish",no,2025-07-24_11h19.18.311,empathy_intonation_perc_control,2024.2.4,Win32,6.854009596,5e6fd3293c76d25a3ca8b384,68817205a84113384fffdfe3,68824da2767f56a88fd375cf,,,,,,,,,,,,,1,,,,,,,,,,,,,,,,,,,,,,,,,,,,,,,,,,,,,40,alfombra,,,,,2529.301,2535.174,1,1,5.201,,0,71,71,39,1,REAL,FAKE,,,,,,,,,,,,,,,,,
,,,,,,,,,5e6fd3293c76d25a3ca8b384,Spanish,13 or older,"no, only English or Spanish",no,2025-07-24_11h19.18.311,empathy_intonation_perc_control,2024.2.4,Win32,6.854009596,5e6fd3293c76d25a3ca8b384,68817205a84113384fffdfe3,68824da2767f56a88fd375cf,,,,,,,,,,,,,1,,,,,,,,,,,,,,,,,,,,,,,,,,,,,,,,,,,,,67,cabello,,,,,2535.176,2541.364,1,1,5.465,,0,72,72,66,1,REAL,FAKE,,,,,,,,,,,,,,,,,
,,,,,,,,,5e6fd3293c76d25a3ca8b384,Spanish,13 or older,"no, only English or Spanish",no,2025-07-24_11h19.18.311,empathy_intonation_perc_control,2024.2.4,Win32,6.854009596,5e6fd3293c76d25a3ca8b384,68817205a84113384fffdfe3,68824da2767f56a88fd375cf,,,,,,,,,,,,,1,,,,,,,,,,,,,,,,,,,,,,,,,,,,,,,,,,,,,7,pésimo,,,,,2541.368,2547.195,1,1,5.039,,0,73,73,6,1,REAL,FAKE,,,,,,,,,,,,,,,,,
,,,,,,,,,5e6fd3293c76d25a3ca8b384,Spanish,13 or older,"no, only English or Spanish",no,2025-07-24_11h19.18.311,empathy_intonation_perc_control,2024.2.4,Win32,6.854009596,5e6fd3293c76d25a3ca8b384,68817205a84113384fffdfe3,68824da2767f56a88fd375cf,,,,,,,,,,,,,0,,,,,,,,,,,,,,,,,,,,,,,,,,,,,,,,,,,,,50,flamida,,,,,2547.198,2552.576,0,1,4.71,,0,74,74,49,1,REAL,FAKE,,,,,,,,,,,,,,,,,
,,,,,,,,,5e6fd3293c76d25a3ca8b384,Spanish,13 or older,"no, only English or Spanish",no,2025-07-24_11h19.18.311,empathy_intonation_perc_control,2024.2.4,Win32,6.854009596,5e6fd3293c76d25a3ca8b384,68817205a84113384fffdfe3,68824da2767f56a88fd375cf,,,,,,,,,,,,,0,,,,,,,,,,,,,,,,,,,,,,,,,,,,,,,,,,,,,47,cartinar,,,,,2552.578,2560.111,1,0,6.854,,0,75,75,46,1,REAL,FAKE,,,,,,,,,,,,,,,,,
,,,,,,,,,5e6fd3293c76d25a3ca8b384,Spanish,13 or older,"no, only English or Spanish",no,2025-07-24_11h19.18.311,empathy_intonation_perc_control,2024.2.4,Win32,6.854009596,5e6fd3293c76d25a3ca8b384,68817205a84113384fffdfe3,68824da2767f56a88fd375cf,,,,,,,,,,,,,1,,,,,,,,,,,,,,,,,,,,,,,,,,,,,,,,,,,,,81,pozo,,,,,2560.122,2565.487,1,1,4.695,,0,76,76,80,1,REAL,FAKE,,,,,,,,,,,,,,,,,
,,,,,,,,,5e6fd3293c76d25a3ca8b384,Spanish,13 or older,"no, only English or Spanish",no,2025-07-24_11h19.18.311,empathy_intonation_perc_control,2024.2.4,Win32,6.854009596,5e6fd3293c76d25a3ca8b384,68817205a84113384fffdfe3,68824da2767f56a88fd375cf,,,,,,,,,,,,,0,,,,,,,,,,,,,,,,,,,,,,,,,,,,,,,,,,,,,70,temblo,,,,,2565.489,2569.935,1,0,3.745,,0,77,77,69,1,REAL,FAKE,,,,,,,,,,,,,,,,,
,,,,,,,,,5e6fd3293c76d25a3ca8b384,Spanish,13 or older,"no, only English or Spanish",no,2025-07-24_11h19.18.311,empathy_intonation_perc_control,2024.2.4,Win32,6.854009596,5e6fd3293c76d25a3ca8b384,68817205a84113384fffdfe3,68824da2767f56a88fd375cf,,,,,,,,,,,,,1,,,,,,,,,,,,,,,,,,,,,,,,,,,,,,,,,,,,,54,fomentar,,,,,2569.939,2574.857,1,1,4.286,,0,78,78,53,1,REAL,FAKE,,,,,,,,,,,,,,,,,
,,,,,,,,,5e6fd3293c76d25a3ca8b384,Spanish,13 or older,"no, only English or Spanish",no,2025-07-24_11h19.18.311,empathy_intonation_perc_control,2024.2.4,Win32,6.854009596,5e6fd3293c76d25a3ca8b384,68817205a84113384fffdfe3,68824da2767f56a88fd375cf,,,,,,,,,,,,,1,,,,,,,,,,,,,,,,,,,,,,,,,,,,,,,,,,,,,49,ganar,,,,,2574.861,2580.5,1,1,4.996,,0,79,79,48,1,REAL,FAKE,,,,,,,,,,,,,,,,,
,,,,,,,,,5e6fd3293c76d25a3ca8b384,Spanish,13 or older,"no, only English or Spanish",no,2025-07-24_11h19.18.311,empathy_intonation_perc_control,2024.2.4,Win32,6.854009596,5e6fd3293c76d25a3ca8b384,68817205a84113384fffdfe3,68824da2767f56a88fd375cf,,,,,,,,,,,,,1,,,,,,,,,,,,,,,,,,,,,,,,,,,,,,,,,,,,,86,barato,,,,,2580.502,2584.579,1,1,3.404,,0,80,80,85,1,REAL,FAKE,,,,,,,,,,,,,,,,,
,,,,,,,,,5e6fd3293c76d25a3ca8b384,Spanish,13 or older,"no, only English or Spanish",no,2025-07-24_11h19.18.311,empathy_intonation_perc_control,2024.2.4,Win32,6.854009596,5e6fd3293c76d25a3ca8b384,68817205a84113384fffdfe3,68824da2767f56a88fd375cf,,,,,,,,,,,,,1,,,,,,,,,,,,,,,,,,,,,,,,,,,,,,,,,,,,,9,hacha,,,,,2584.591,2589.265,1,1,3.992,,0,81,81,8,1,REAL,FAKE,,,,,,,,,,,,,,,,,
,,,,,,,,,5e6fd3293c76d25a3ca8b384,Spanish,13 or older,"no, only English or Spanish",no,2025-07-24_11h19.18.311,empathy_intonation_perc_control,2024.2.4,Win32,6.854009596,5e6fd3293c76d25a3ca8b384,68817205a84113384fffdfe3,68824da2767f56a88fd375cf,,,,,,,,,,,,,0,,,,,,,,,,,,,,,,,,,,,,,,,,,,,,,,,,,,,35,rompido,,,,,2589.266,2594.363,1,0,4.425,,0,82,82,34,1,REAL,FAKE,,,,,,,,,,,,,,,,,
,,,,,,,,,5e6fd3293c76d25a3ca8b384,Spanish,13 or older,"no, only English or Spanish",no,2025-07-24_11h19.18.311,empathy_intonation_perc_control,2024.2.4,Win32,6.854009596,5e6fd3293c76d25a3ca8b384,68817205a84113384fffdfe3,68824da2767f56a88fd375cf,,,,,,,,,,,,,1,,,,,,,,,,,,,,,,,,,,,,,,,,,,,,,,,,,,,83,guante,,,,,2594.367,2599.459,1,1,4.452,0,0,83,83,82,1,REAL,FAKE,,,,,,,,,,,,,,,,,
,,,,,,,,,5e6fd3293c76d25a3ca8b384,Spanish,13 or older,"no, only English or Spanish",no,2025-07-24_11h19.18.311,empathy_intonation_perc_control,2024.2.4,Win32,6.854009596,5e6fd3293c76d25a3ca8b384,68817205a84113384fffdfe3,68824da2767f56a88fd375cf,,,,,,,,,,,,,0,,,,,,,,,,,,,,,,,,,,,,,,,,,,,,,,,,,,,4,batillón,,,,,2599.463,2604.45,1,0,4.343,,0,84,84,3,1,REAL,FAKE,,,,,,,,,,,,,,,,,
,,,,,,,,,5e6fd3293c76d25a3ca8b384,Spanish,13 or older,"no, only English or Spanish",no,2025-07-24_11h19.18.311,empathy_intonation_perc_control,2024.2.4,Win32,6.854009596,5e6fd3293c76d25a3ca8b384,68817205a84113384fffdfe3,68824da2767f56a88fd375cf,,,,,,,,,,,,,1,,,,,,,,,,,,,,,,,,,,,,,,,,,,,,,,,,,,,57,tacaño,,,,,2604.464,2610.555,1,1,5.437,0,0,85,85,56,1,REAL,FAKE,,,,,,,,,,,,,,,,,
,,,,,,,,,5e6fd3293c76d25a3ca8b384,Spanish,13 or older,"no, only English or Spanish",no,2025-07-24_11h19.18.311,empathy_intonation_perc_control,2024.2.4,Win32,6.854009596,5e6fd3293c76d25a3ca8b384,68817205a84113384fffdfe3,68824da2767f56a88fd375cf,,,,,,,,,,,,,0,,,,,,,,,,,,,,,,,,,,,,,,,,,,,,,,,,,,,72,pemición,,,,,2610.559,2623.652,1,0,12.467,0.001,0,86,86,71,1,REAL,FAKE,,,,,,,,,,,,,,,,,
,,,,,,,,,5e6fd3293c76d25a3ca8b384,Spanish,13 or older,"no, only English or Spanish",no,2025-07-24_11h19.18.311,empathy_intonation_perc_control,2024.2.4,Win32,6.854009596,5e6fd3293c76d25a3ca8b384,68817205a84113384fffdfe3,68824da2767f56a88fd375cf,,,,,,,,,,,,,0,,,,,,,,,,,,,,,,,,,,,,,,,,,,,,,,,,,,,42,cadallo,,,,,2623.657,2629.707,1,0,5.363,0,0,87,87,41,1,REAL,FAKE,,,,,,,,,,,,,,,,,
,,,,,,,,,5e6fd3293c76d25a3ca8b384,Spanish,13 or older,"no, only English or Spanish",no,2025-07-24_11h19.18.311,empathy_intonation_perc_control,2024.2.4,Win32,6.854009596,5e6fd3293c76d25a3ca8b384,68817205a84113384fffdfe3,68824da2767f56a88fd375cf,,,,,,,,,,,,,0,,,,,,,,,,,,,,,,,,,,,,,,,,,,,,,,,,,,,1,terzo,,,,,2629.712,2635.045,1,0,4.707,,0,88,88,0,1,REAL,FAKE,,,,,,,,,,,,,,,,,
,,,,,,,,,5e6fd3293c76d25a3ca8b384,Spanish,13 or older,"no, only English or Spanish",no,2025-07-24_11h19.18.311,empathy_intonation_perc_control,2024.2.4,Win32,6.854009596,5e6fd3293c76d25a3ca8b384,68817205a84113384fffdfe3,68824da2767f56a88fd375cf,,,,,,,,,,,,,0,,,,,,,,,,,,,,,,,,,,,,,,,,,,,,,,,,,,,17,floroso,,,,,2635.048,2642.938,1,0,7.229,,0,89,89,16,1,REAL,FAKE,,,,,,,,,,,,,,,,,
,,,,,,,,,5e6fd3293c76d25a3ca8b384,Spanish,13 or older,"no, only English or Spanish",no,2025-07-24_11h19.18.311,empathy_intonation_perc_control,2024.2.4,Win32,6.854009596,5e6fd3293c76d25a3ca8b384,68817205a84113384fffdfe3,68824da2767f56a88fd375cf,,,,,,,,,,,,,1,,,,,,,,,,,,,,,,,,,,,,,,,,,,,,,,,,,,,28,merodear,,,,,2642.941,2651.265,1,1,7.643,,0,90,90,27,1,REAL,FAKE,,,,,,,,,,,,,,,,,
,,,,,,,,,5e6fd3293c76d25a3ca8b384,Spanish,13 or older,"no, only English or Spanish",no,2025-07-24_11h19.18.311,empathy_intonation_perc_control,2024.2.4,Win32,6.854009596,5e6fd3293c76d25a3ca8b384,68817205a84113384fffdfe3,68824da2767f56a88fd375cf,,,,,,,,,,,,,1,,,,,,,,,,,,,,,,,,,,,,,,,,,,,,,,,,,,,88,acantilado,,,,,2651.273,2653.858,1,1,1.847,0.002,0,91,91,87,1,REAL,FAKE,,,,,,,,,,,,,,,,,
,,,,,,,,,5e6fd3293c76d25a3ca8b384,Spanish,13 or older,"no, only English or Spanish",no,2025-07-24_11h19.18.311,empathy_intonation_perc_control,2024.2.4,Win32,6.854009596,5e6fd3293c76d25a3ca8b384,68817205a84113384fffdfe3,68824da2767f56a88fd375cf,,,,,,,,,,,,,,,,,,,,,,,,,,,,,,,,,,,,,,,,,,,,,,,,,,,,,,,,,,,,,,,,,,,,,2653.858,2660.319,,,,,,,,,,,,,,,
,,,,,,,,,5e6fd3293c76d25a3ca8b384,Spanish,13 or older,"no, only English or Spanish",no,2025-07-24_11h19.18.311,empathy_intonation_perc_control,2024.2.4,Win32,6.854009596,5e6fd3293c76d25a3ca8b384,68817205a84113384fffdfe3,68824da2767f56a88fd375cf,,,,,,,,,,,,,,,,,,,,,,,,,,,1,,,,,,,,,,,,,,,,,,,,,,,,,,,,,,,,,,,,,,,,,,,,2660.44,2670.906,slightly agree,0,0,0,0,1,I can easily tell if someone else wants to enter a conversation.,1,0,1,0,,
,,,,,,,,,5e6fd3293c76d25a3ca8b384,Spanish,13 or older,"no, only English or Spanish",no,2025-07-24_11h19.18.311,empathy_intonation_perc_control,2024.2.4,Win32,6.854009596,5e6fd3293c76d25a3ca8b384,68817205a84113384fffdfe3,68824da2767f56a88fd375cf,,,,,,,,,,,,,,,,,,,,,,,,,,,2,,,,,,,,,,,,,,,,,,,,,,,,,,,,,,,,,,,,,,,,,,,,2670.912,2672.367,strongly agree,0,1,1,1,1,I prefer animals to humans.,0,1,0,0,,
,,,,,,,,,5e6fd3293c76d25a3ca8b384,Spanish,13 or older,"no, only English or Spanish",no,2025-07-24_11h19.18.311,empathy_intonation_perc_control,2024.2.4,Win32,6.854009596,5e6fd3293c76d25a3ca8b384,68817205a84113384fffdfe3,68824da2767f56a88fd375cf,,,,,,,,,,,,,,,,,,,,,,,,,,,3,,,,,,,,,,,,,,,,,,,,,,,,,,,,,,,,,,,,,,,,,,,,2672.372,2685.667,slightly agree,0,2,2,2,1,I try to keep up with the current trends and fashions.,0,1,0,0,,
,,,,,,,,,5e6fd3293c76d25a3ca8b384,Spanish,13 or older,"no, only English or Spanish",no,2025-07-24_11h19.18.311,empathy_intonation_perc_control,2024.2.4,Win32,6.854009596,5e6fd3293c76d25a3ca8b384,68817205a84113384fffdfe3,68824da2767f56a88fd375cf,,,,,,,,,,,,,,,,,,,,,,,,,,,4,,,,,,,,,,,,,,,,,,,,,,,,,,,,,,,,,,,,,,,,,,,,2685.671,2692.183,slightly disagree,0,3,3,3,1,"I find it difficult to explain to others things that I understand easily,   when they don't understand it first time.",1,0,0,1,,
,,,,,,,,,5e6fd3293c76d25a3ca8b384,Spanish,13 or older,"no, only English or Spanish",no,2025-07-24_11h19.18.311,empathy_intonation_perc_control,2024.2.4,Win32,6.854009596,5e6fd3293c76d25a3ca8b384,68817205a84113384fffdfe3,68824da2767f56a88fd375cf,,,,,,,,,,,,,,,,,,,,,,,,,,,5,,,,,,,,,,,,,,,,,,,,,,,,,,,,,,,,,,,,,,,,,,,,2692.185,2697.172,strongly disagree,0,4,4,4,1,I dream most nights.,0,1,0,0,,
,,,,,,,,,5e6fd3293c76d25a3ca8b384,Spanish,13 or older,"no, only English or Spanish",no,2025-07-24_11h19.18.311,empathy_intonation_perc_control,2024.2.4,Win32,6.854009596,5e6fd3293c76d25a3ca8b384,68817205a84113384fffdfe3,68824da2767f56a88fd375cf,,,,,,,,,,,,,,,,,,,,,,,,,,,6,,,,,,,,,,,,,,,,,,,,,,,,,,,,,,,,,,,,,,,,,,,,2697.175,2702.409,strongly agree,0,5,5,5,1,I really enjoy caring for other people.,1,0,1,0,,
,,,,,,,,,5e6fd3293c76d25a3ca8b384,Spanish,13 or older,"no, only English or Spanish",no,2025-07-24_11h19.18.311,empathy_intonation_perc_control,2024.2.4,Win32,6.854009596,5e6fd3293c76d25a3ca8b384,68817205a84113384fffdfe3,68824da2767f56a88fd375cf,,,,,,,,,,,,,,,,,,,,,,,,,,,7,,,,,,,,,,,,,,,,,,,,,,,,,,,,,,,,,,,,,,,,,,,,2702.412,2711.32,strongly agree,0,6,6,6,1,I try to solve my own problems rather than discussing them with others.,0,1,0,0,,
,,,,,,,,,5e6fd3293c76d25a3ca8b384,Spanish,13 or older,"no, only English or Spanish",no,2025-07-24_11h19.18.311,empathy_intonation_perc_control,2024.2.4,Win32,6.854009596,5e6fd3293c76d25a3ca8b384,68817205a84113384fffdfe3,68824da2767f56a88fd375cf,,,,,,,,,,,,,,,,,,,,,,,,,,,8,,,,,,,,,,,,,,,,,,,,,,,,,,,,,,,,,,,,,,,,,,,,2711.333,2717.886,slightly disagree,0,7,7,7,1,I find it hard to know what to do in a social situation.,1,0,0,1,,
,,,,,,,,,5e6fd3293c76d25a3ca8b384,Spanish,13 or older,"no, only English or Spanish",no,2025-07-24_11h19.18.311,empathy_intonation_perc_control,2024.2.4,Win32,6.854009596,5e6fd3293c76d25a3ca8b384,68817205a84113384fffdfe3,68824da2767f56a88fd375cf,,,,,,,,,,,,,,,,,,,,,,,,,,,9,,,,,,,,,,,,,,,,,,,,,,,,,,,,,,,,,,,,,,,,,,,,2717.889,2721.692,strongly agree,0,8,8,8,1,I am at my best first thing in the morning.,0,1,0,0,,
,,,,,,,,,5e6fd3293c76d25a3ca8b384,Spanish,13 or older,"no, only English or Spanish",no,2025-07-24_11h19.18.311,empathy_intonation_perc_control,2024.2.4,Win32,6.854009596,5e6fd3293c76d25a3ca8b384,68817205a84113384fffdfe3,68824da2767f56a88fd375cf,,,,,,,,,,,,,,,,,,,,,,,,,,,10,,,,,,,,,,,,,,,,,,,,,,,,,,,,,,,,,,,,,,,,,,,,2721.701,2725.404,slightly agree,0,9,9,9,1,People often tell me that I went too far in driving my point home in a discussion.,1,0,0,1,,
,,,,,,,,,5e6fd3293c76d25a3ca8b384,Spanish,13 or older,"no, only English or Spanish",no,2025-07-24_11h19.18.311,empathy_intonation_perc_control,2024.2.4,Win32,6.854009596,5e6fd3293c76d25a3ca8b384,68817205a84113384fffdfe3,68824da2767f56a88fd375cf,,,,,,,,,,,,,,,,,,,,,,,,,,,11,,,,,,,,,,,,,,,,,,,,,,,,,,,,,,,,,,,,,,,,,,,,2725.407,2735.426,slightly disagree,0,10,10,10,1,It doesn't bother me too much if I am late meeting a friend.,1,0,0,1,,
,,,,,,,,,5e6fd3293c76d25a3ca8b384,Spanish,13 or older,"no, only English or Spanish",no,2025-07-24_11h19.18.311,empathy_intonation_perc_control,2024.2.4,Win32,6.854009596,5e6fd3293c76d25a3ca8b384,68817205a84113384fffdfe3,68824da2767f56a88fd375cf,,,,,,,,,,,,,,,,,,,,,,,,,,,12,,,,,,,,,,,,,,,,,,,,,,,,,,,,,,,,,,,,,,,,,,,,2735.428,2741.022,strongly disagree,0,11,11,11,1,"Friendships and relationships are just too difficult, so I tend not to 
  bother with them.",1,0,0,1,,
,,,,,,,,,5e6fd3293c76d25a3ca8b384,Spanish,13 or older,"no, only English or Spanish",no,2025-07-24_11h19.18.311,empathy_intonation_perc_control,2024.2.4,Win32,6.854009596,5e6fd3293c76d25a3ca8b384,68817205a84113384fffdfe3,68824da2767f56a88fd375cf,,,,,,,,,,,,,,,,,,,,,,,,,,,13,,,,,,,,,,,,,,,,,,,,,,,,,,,,,,,,,,,,,,,,,,,,2741.025,2747.344,strongly agree,0,12,12,12,1,"I would never break a law, no matter how minor.",0,1,0,0,,
,,,,,,,,,5e6fd3293c76d25a3ca8b384,Spanish,13 or older,"no, only English or Spanish",no,2025-07-24_11h19.18.311,empathy_intonation_perc_control,2024.2.4,Win32,6.854009596,5e6fd3293c76d25a3ca8b384,68817205a84113384fffdfe3,68824da2767f56a88fd375cf,,,,,,,,,,,,,,,,,,,,,,,,,,,14,,,,,,,,,,,,,,,,,,,,,,,,,,,,,,,,,,,,,,,,,,,,2747.347,2751.218,slightly disagree,0,13,13,13,1,I often find it difficult to judge if something is rude or polite.,1,0,0,1,,
,,,,,,,,,5e6fd3293c76d25a3ca8b384,Spanish,13 or older,"no, only English or Spanish",no,2025-07-24_11h19.18.311,empathy_intonation_perc_control,2024.2.4,Win32,6.854009596,5e6fd3293c76d25a3ca8b384,68817205a84113384fffdfe3,68824da2767f56a88fd375cf,,,,,,,,,,,,,,,,,,,,,,,,,,,15,,,,,,,,,,,,,,,,,,,,,,,,,,,,,,,,,,,,,,,,,,,,2751.22,2755.467,slightly agree,0,14,14,14,1,"In a conversation, I tend to focus on my own thoughts rather than on what 
  my listener might be thinking.",1,0,0,1,,
,,,,,,,,,5e6fd3293c76d25a3ca8b384,Spanish,13 or older,"no, only English or Spanish",no,2025-07-24_11h19.18.311,empathy_intonation_perc_control,2024.2.4,Win32,6.854009596,5e6fd3293c76d25a3ca8b384,68817205a84113384fffdfe3,68824da2767f56a88fd375cf,,,,,,,,,,,,,,,,,,,,,,,,,,,16,,,,,,,,,,,,,,,,,,,,,,,,,,,,,,,,,,,,,,,,,,,,2755.469,2763.055,slightly agree,0,15,15,15,1,I prefer practical jokes to verbal humor.,0,1,0,0,,
,,,,,,,,,5e6fd3293c76d25a3ca8b384,Spanish,13 or older,"no, only English or Spanish",no,2025-07-24_11h19.18.311,empathy_intonation_perc_control,2024.2.4,Win32,6.854009596,5e6fd3293c76d25a3ca8b384,68817205a84113384fffdfe3,68824da2767f56a88fd375cf,,,,,,,,,,,,,,,,,,,,,,,,,,,17,,,,,,,,,,,,,,,,,,,,,,,,,,,,,,,,,,,,,,,,,,,,2763.057,2768.157,strongly agree,0,16,16,16,1,I live life for today rather than the future.,0,1,0,0,,
,,,,,,,,,5e6fd3293c76d25a3ca8b384,Spanish,13 or older,"no, only English or Spanish",no,2025-07-24_11h19.18.311,empathy_intonation_perc_control,2024.2.4,Win32,6.854009596,5e6fd3293c76d25a3ca8b384,68817205a84113384fffdfe3,68824da2767f56a88fd375cf,,,,,,,,,,,,,,,,,,,,,,,,,,,18,,,,,,,,,,,,,,,,,,,,,,,,,,,,,,,,,,,,,,,,,,,,2768.16,2772.288,strongly agree,0,17,17,17,1,"When I was a child, I enjoyed cutting up worms to see what would happen.",1,0,0,1,,
,,,,,,,,,5e6fd3293c76d25a3ca8b384,Spanish,13 or older,"no, only English or Spanish",no,2025-07-24_11h19.18.311,empathy_intonation_perc_control,2024.2.4,Win32,6.854009596,5e6fd3293c76d25a3ca8b384,68817205a84113384fffdfe3,68824da2767f56a88fd375cf,,,,,,,,,,,,,,,,,,,,,,,,,,,19,,,,,,,,,,,,,,,,,,,,,,,,,,,,,,,,,,,,,,,,,,,,2772.293,2778.647,slightly agree,0,18,18,18,1,I can pick up quickly if someone says one thing but means another.,1,0,1,0,,
,,,,,,,,,5e6fd3293c76d25a3ca8b384,Spanish,13 or older,"no, only English or Spanish",no,2025-07-24_11h19.18.311,empathy_intonation_perc_control,2024.2.4,Win32,6.854009596,5e6fd3293c76d25a3ca8b384,68817205a84113384fffdfe3,68824da2767f56a88fd375cf,,,,,,,,,,,,,,,,,,,,,,,,,,,20,,,,,,,,,,,,,,,,,,,,,,,,,,,,,,,,,,,,,,,,,,,,2778.65,2782.335,strongly agree,0,19,19,19,1,I tend to have very strong opinions about morality.,0,1,0,0,,
,,,,,,,,,5e6fd3293c76d25a3ca8b384,Spanish,13 or older,"no, only English or Spanish",no,2025-07-24_11h19.18.311,empathy_intonation_perc_control,2024.2.4,Win32,6.854009596,5e6fd3293c76d25a3ca8b384,68817205a84113384fffdfe3,68824da2767f56a88fd375cf,,,,,,,,,,,,,,,,,,,,,,,,,,,21,,,,,,,,,,,,,,,,,,,,,,,,,,,,,,,,,,,,,,,,,,,,2782.339,2786.348,slightly disagree,0,20,20,20,1,It is hard for me to see why some things upset people so much.,1,0,0,1,,
,,,,,,,,,5e6fd3293c76d25a3ca8b384,Spanish,13 or older,"no, only English or Spanish",no,2025-07-24_11h19.18.311,empathy_intonation_perc_control,2024.2.4,Win32,6.854009596,5e6fd3293c76d25a3ca8b384,68817205a84113384fffdfe3,68824da2767f56a88fd375cf,,,,,,,,,,,,,,,,,,,,,,,,,,,22,,,,,,,,,,,,,,,,,,,,,,,,,,,,,,,,,,,,,,,,,,,,2786.399,2795.797,slightly agree,0,21,21,21,1,I find it easy to put myself in somebody else's shoes.,1,0,1,0,,
,,,,,,,,,5e6fd3293c76d25a3ca8b384,Spanish,13 or older,"no, only English or Spanish",no,2025-07-24_11h19.18.311,empathy_intonation_perc_control,2024.2.4,Win32,6.854009596,5e6fd3293c76d25a3ca8b384,68817205a84113384fffdfe3,68824da2767f56a88fd375cf,,,,,,,,,,,,,,,,,,,,,,,,,,,23,,,,,,,,,,,,,,,,,,,,,,,,,,,,,,,,,,,,,,,,,,,,2795.802,2801.312,strongly agree,0,22,22,22,1,I think that good manners are the most important thing a parent can teach their child.,0,1,0,0,,
,,,,,,,,,5e6fd3293c76d25a3ca8b384,Spanish,13 or older,"no, only English or Spanish",no,2025-07-24_11h19.18.311,empathy_intonation_perc_control,2024.2.4,Win32,6.854009596,5e6fd3293c76d25a3ca8b384,68817205a84113384fffdfe3,68824da2767f56a88fd375cf,,,,,,,,,,,,,,,,,,,,,,,,,,,24,,,,,,,,,,,,,,,,,,,,,,,,,,,,,,,,,,,,,,,,,,,,2801.314,2805.525,strongly disagree,0,23,23,23,1,I like to do things on the spur of the moment.,0,1,0,0,,
,,,,,,,,,5e6fd3293c76d25a3ca8b384,Spanish,13 or older,"no, only English or Spanish",no,2025-07-24_11h19.18.311,empathy_intonation_perc_control,2024.2.4,Win32,6.854009596,5e6fd3293c76d25a3ca8b384,68817205a84113384fffdfe3,68824da2767f56a88fd375cf,,,,,,,,,,,,,,,,,,,,,,,,,,,25,,,,,,,,,,,,,,,,,,,,,,,,,,,,,,,,,,,,,,,,,,,,2805.528,2809.252,slightly agree,0,24,24,24,1,I am good at predicting how someone will feel.,1,0,1,0,,
