instructions_2afc.started,instructions_2afc.stopped,instructions_2afc_loop.thisRepN,instructions_2afc_loop.thisTrialN,instructions_2afc_loop.thisN,instructions_2afc_loop.thisIndex,instructions_2afc_loop.ran,instructions_text,continue_text,participant_id,"What variety of Spanish are you most familiar with? (e.g., Peruvian, Spanish, Mexican)",At what age did you begin learning Spanish?,Are you proficient in any languages other than English/Spanish?,"Are you familiar with Caribbean (e.g., Caribbean, Puerto Rican) or Galician Spanish?",date,expName,psychopyVersion,OS,frameRate,id,study_id,session,practice_2afc.started,practice_2afc.stopped,key_resp_2afc_practice.keys,key_resp_2afc_practice.corr,key_resp_2afc_practice.rt,key_resp_2afc_practice.duration,trials_2afc_practice_loop.thisRepN,trials_2afc_practice_loop.thisTrialN,trials_2afc_practice_loop.thisN,trials_2afc_practice_loop.thisIndex,trials_2afc_practice_loop.ran,path,correct_response,check_2afc.started,check_2afc.stopped,trial_2afc.started,trial_2afc.stopped,key_resp_2afc_trial.keys,key_resp_2afc_trial.corr,key_resp_2afc_trial.rt,key_resp_2afc_trial.duration,trials_2afc_loop.thisRepN,trials_2afc_loop.thisTrialN,trials_2afc_loop.thisN,trials_2afc_loop.thisIndex,trials_2afc_loop.ran,item_num,target,variety,instructions_lextale.started,instructions_lextale.stopped,instructions_lextale_loop.thisRepN,instructions_lextale_loop.thisTrialN,instructions_lextale_loop.thisN,instructions_lextale_loop.thisIndex,instructions_lextale_loop.ran,practice_lextale.started,practice_lextale.stopped,key_resp_lextale_practice.keys,key_resp_lextale_practice.corr,key_resp_lextale_practice.rt,key_resp_lextale_practice.duration,practice_feedback_lextale.started,practice_feedback_lextale.stopped,trials_lextale_practice_loop.thisRepN,trials_lextale_practice_loop.thisTrialN,trials_lextale_practice_loop.thisN,trials_lextale_practice_loop.thisIndex,trials_lextale_practice_loop.ran,stim,word,prac_button_real,prac_button_false,check_lextale.started,check_lextale.stopped,trial_lextale.started,trial_lextale.stopped,key_resp_lextale_trial.keys,key_resp_lextale_trial.corr,key_resp_lextale_trial.rt,key_resp_lextale_trial.duration,trials_lextale_loop.thisRepN,trials_lextale_loop.thisTrialN,trials_lextale_loop.thisN,trials_lextale_loop.thisIndex,trials_lextale_loop.ran,button_real,button_false,instructions_eq.started,instructions_eq.stopped,trial_eq.started,trial_eq.stopped,slider_eq_trial.response,trials_eq_loop.thisRepN,trials_eq_loop.thisTrialN,trials_eq_loop.thisN,trials_eq_loop.thisIndex,trials_eq_loop.ran,item,is_test_item,is_distractor,is_agree_score,is_disagree_score,end_exp.started,end_exp.stopped
0.0323,2.4198,0,0,0,0,1,"In the following task you are going to hear a series of utterances. 

  You will decide if the utterances sound like questions or not using your keyboard.", (press the spacebar to continue),5e7f4d2ad29f7560f032abb9,Spanish,13 or older,click here to respond,click here to respond,2025-07-24_06h33.57.991,empathy_intonation_perc_control,2024.2.4,Win32,60.24096386,5e7f4d2ad29f7560f032abb9,68817205a84113384fffdfe3,68820bbf60bb09d464f4cf8b,,,,,,,,,,,,,,,,,,,,,,,,,,,,,,,,,,,,,,,,,,,,,,,,,,,,,,,,,,,,,,,,,,,,,,,,,,,,,,,,,,,,,
2.4224,8.5425,0,1,1,1,1,"If you believe the utterance is a question, type '1' (for 'yes') and if you do not 
  believe it is a question type '0' (for 'no').

  Let's practice a bit...", (press the spacebar to continue),5e7f4d2ad29f7560f032abb9,Spanish,13 or older,click here to respond,click here to respond,2025-07-24_06h33.57.991,empathy_intonation_perc_control,2024.2.4,Win32,60.24096386,5e7f4d2ad29f7560f032abb9,68817205a84113384fffdfe3,68820bbf60bb09d464f4cf8b,,,,,,,,,,,,,,,,,,,,,,,,,,,,,,,,,,,,,,,,,,,,,,,,,,,,,,,,,,,,,,,,,,,,,,,,,,,,,,,,,,,,,
,,,,,,,,,5e7f4d2ad29f7560f032abb9,Spanish,13 or older,click here to respond,click here to respond,2025-07-24_06h33.57.991,empathy_intonation_perc_control,2024.2.4,Win32,60.24096386,5e7f4d2ad29f7560f032abb9,68817205a84113384fffdfe3,68820bbf60bb09d464f4cf8b,8.5721,11.9885,0,1,2.8738,,0,0,0,5,1,./stim/wavs/andalusian_statement_filler_Alberto-nunca-se-afeita.wav,0,,,,,,,,,,,,,,,,,,,,,,,,,,,,,,,,,,,,,,,,,,,,,,,,,,,,,,,,,,,,,,,,,,,,,,,,
,,,,,,,,,5e7f4d2ad29f7560f032abb9,Spanish,13 or older,click here to respond,click here to respond,2025-07-24_06h33.57.991,empathy_intonation_perc_control,2024.2.4,Win32,60.24096386,5e7f4d2ad29f7560f032abb9,68817205a84113384fffdfe3,68820bbf60bb09d464f4cf8b,11.9916,14.9326,1,0,2.4192,,0,1,1,6,1,./stim/wavs/peruvian_statement_filler_El-nino-habla-con-su-madre.wav,0,,,,,,,,,,,,,,,,,,,,,,,,,,,,,,,,,,,,,,,,,,,,,,,,,,,,,,,,,,,,,,,,,,,,,,,,
,,,,,,,,,5e7f4d2ad29f7560f032abb9,Spanish,13 or older,click here to respond,click here to respond,2025-07-24_06h33.57.991,empathy_intonation_perc_control,2024.2.4,Win32,60.24096386,5e7f4d2ad29f7560f032abb9,68817205a84113384fffdfe3,68820bbf60bb09d464f4cf8b,14.9343,17.3351,1,0,1.8843,,0,2,2,7,1,./stim/wavs/puertorican_statement_filler_La-nina-pinta-con-su-amiga.wav,0,,,,,,,,,,,,,,,,,,,,,,,,,,,,,,,,,,,,,,,,,,,,,,,,,,,,,,,,,,,,,,,,,,,,,,,,
,,,,,,,,,5e7f4d2ad29f7560f032abb9,Spanish,13 or older,click here to respond,click here to respond,2025-07-24_06h33.57.991,empathy_intonation_perc_control,2024.2.4,Win32,60.24096386,5e7f4d2ad29f7560f032abb9,68817205a84113384fffdfe3,68820bbf60bb09d464f4cf8b,17.337,19.7331,0,0,1.8523,,0,3,3,0,1,./stim/wavs/castilian_question_filler_Mi-esposo-conoce-al-chico.wav,1,,,,,,,,,,,,,,,,,,,,,,,,,,,,,,,,,,,,,,,,,,,,,,,,,,,,,,,,,,,,,,,,,,,,,,,,
,,,,,,,,,5e7f4d2ad29f7560f032abb9,Spanish,13 or older,click here to respond,click here to respond,2025-07-24_06h33.57.991,empathy_intonation_perc_control,2024.2.4,Win32,60.24096386,5e7f4d2ad29f7560f032abb9,68817205a84113384fffdfe3,68820bbf60bb09d464f4cf8b,19.7353,21.5581,1,1,1.3084,,0,4,4,1,1,./stim/wavs/argentine_question_filler_Mi-vecino-habla-mucho.wav,1,,,,,,,,,,,,,,,,,,,,,,,,,,,,,,,,,,,,,,,,,,,,,,,,,,,,,,,,,,,,,,,,,,,,,,,,
,,,,,,,,,5e7f4d2ad29f7560f032abb9,Spanish,13 or older,click here to respond,click here to respond,2025-07-24_06h33.57.991,empathy_intonation_perc_control,2024.2.4,Win32,60.24096386,5e7f4d2ad29f7560f032abb9,68817205a84113384fffdfe3,68820bbf60bb09d464f4cf8b,21.559,24.2429,0,1,2.167,,0,5,5,4,1,./stim/wavs/cuban_statement_filler_Cocinabas-por-la-noche.wav,0,,,,,,,,,,,,,,,,,,,,,,,,,,,,,,,,,,,,,,,,,,,,,,,,,,,,,,,,,,,,,,,,,,,,,,,,
,,,,,,,,,5e7f4d2ad29f7560f032abb9,Spanish,13 or older,click here to respond,click here to respond,2025-07-24_06h33.57.991,empathy_intonation_perc_control,2024.2.4,Win32,60.24096386,5e7f4d2ad29f7560f032abb9,68817205a84113384fffdfe3,68820bbf60bb09d464f4cf8b,24.2436,27.2537,1,1,2.4852,,0,6,6,2,1,./stim/wavs/chilean_question_filler_Mi-padre-cantaba-bien.wav,1,,,,,,,,,,,,,,,,,,,,,,,,,,,,,,,,,,,,,,,,,,,,,,,,,,,,,,,,,,,,,,,,,,,,,,,,
,,,,,,,,,5e7f4d2ad29f7560f032abb9,Spanish,13 or older,click here to respond,click here to respond,2025-07-24_06h33.57.991,empathy_intonation_perc_control,2024.2.4,Win32,60.24096386,5e7f4d2ad29f7560f032abb9,68817205a84113384fffdfe3,68820bbf60bb09d464f4cf8b,27.2546,29.8569,1,1,2.0766,,0,7,7,3,1,./stim/wavs/mexican_question_filler_Felipe-no-tiene-contrasena.wav,1,,,,,,,,,,,,,,,,,,,,,,,,,,,,,,,,,,,,,,,,,,,,,,,,,,,,,,,,,,,,,,,,,,,,,,,,
,,,,,,,,,5e7f4d2ad29f7560f032abb9,Spanish,13 or older,click here to respond,click here to respond,2025-07-24_06h33.57.991,empathy_intonation_perc_control,2024.2.4,Win32,60.24096386,5e7f4d2ad29f7560f032abb9,68817205a84113384fffdfe3,68820bbf60bb09d464f4cf8b,,,,,,,,,,,,,,29.8573,32.2162,,,,,,,,,,,,,,,,,,,,,,,,,,,,,,,,,,,,,,,,,,,,,,,,,,,,,,,,,,,,,,,,,,,,,,
,,,,,,,,,5e7f4d2ad29f7560f032abb9,Spanish,13 or older,click here to respond,click here to respond,2025-07-24_06h33.57.991,empathy_intonation_perc_control,2024.2.4,Win32,60.24096386,5e7f4d2ad29f7560f032abb9,68817205a84113384fffdfe3,68820bbf60bb09d464f4cf8b,,,,,,,,,,,,./stim/wavs/puertorican_match_interrogative-total-yn_Maria-bebe-el-vino.wav,1,,,32.235,35.2967,0,0,2.536,,0,0,0,23,1,24,1,puertorican,,,,,,,,,,,,,,,,,,,,,,,,,,,,,,,,,,,,,,,,,,,,,,,,,,,,,,,,
,,,,,,,,,5e7f4d2ad29f7560f032abb9,Spanish,13 or older,click here to respond,click here to respond,2025-07-24_06h33.57.991,empathy_intonation_perc_control,2024.2.4,Win32,60.24096386,5e7f4d2ad29f7560f032abb9,68817205a84113384fffdfe3,68820bbf60bb09d464f4cf8b,,,,,,,,,,,,./stim/wavs/mexican_match_declarative-broad-focus_Marta-abre-el-regalo.wav,0,,,35.2979,37.5793,0,1,1.7542,,0,1,1,61,1,62,0,mexican,,,,,,,,,,,,,,,,,,,,,,,,,,,,,,,,,,,,,,,,,,,,,,,,,,,,,,,,
,,,,,,,,,5e7f4d2ad29f7560f032abb9,Spanish,13 or older,click here to respond,click here to respond,2025-07-24_06h33.57.991,empathy_intonation_perc_control,2024.2.4,Win32,60.24096386,5e7f4d2ad29f7560f032abb9,68817205a84113384fffdfe3,68820bbf60bb09d464f4cf8b,,,,,,,,,,,,./stim/wavs/puertorican_match_declarative-broad-focus_Maria-bebe-el-vino.wav,0,,,37.5803,39.8625,1,0,1.7495,,0,2,2,67,1,68,0,puertorican,,,,,,,,,,,,,,,,,,,,,,,,,,,,,,,,,,,,,,,,,,,,,,,,,,,,,,,,
,,,,,,,,,5e7f4d2ad29f7560f032abb9,Spanish,13 or older,click here to respond,click here to respond,2025-07-24_06h33.57.991,empathy_intonation_perc_control,2024.2.4,Win32,60.24096386,5e7f4d2ad29f7560f032abb9,68817205a84113384fffdfe3,68820bbf60bb09d464f4cf8b,,,,,,,,,,,,./stim/wavs/puertorican_mismatch_declarative-broad-focus_La-maestra-vive-en-Paris.wav,0,,,39.8636,42.4123,0,1,2.0141,,0,3,3,86,1,87,0,puertorican,,,,,,,,,,,,,,,,,,,,,,,,,,,,,,,,,,,,,,,,,,,,,,,,,,,,,,,,
,,,,,,,,,5e7f4d2ad29f7560f032abb9,Spanish,13 or older,click here to respond,click here to respond,2025-07-24_06h33.57.991,empathy_intonation_perc_control,2024.2.4,Win32,60.24096386,5e7f4d2ad29f7560f032abb9,68817205a84113384fffdfe3,68820bbf60bb09d464f4cf8b,,,,,,,,,,,,./stim/wavs/puertorican_match_interrogative-total-yn_Emilio-ama-la-marcha.wav,1,,,42.4134,44.5787,1,1,1.6394,,0,4,4,21,1,22,1,puertorican,,,,,,,,,,,,,,,,,,,,,,,,,,,,,,,,,,,,,,,,,,,,,,,,,,,,,,,,
,,,,,,,,,5e7f4d2ad29f7560f032abb9,Spanish,13 or older,click here to respond,click here to respond,2025-07-24_06h33.57.991,empathy_intonation_perc_control,2024.2.4,Win32,60.24096386,5e7f4d2ad29f7560f032abb9,68817205a84113384fffdfe3,68820bbf60bb09d464f4cf8b,,,,,,,,,,,,./stim/wavs/cuban_mismatch_interrogative-total-yn_Mi-madre-come-la-fruta.wav,1,,,44.5797,47.5166,0,0,2.412,,0,5,5,31,1,32,1,cuban,,,,,,,,,,,,,,,,,,,,,,,,,,,,,,,,,,,,,,,,,,,,,,,,,,,,,,,,
,,,,,,,,,5e7f4d2ad29f7560f032abb9,Spanish,13 or older,click here to respond,click here to respond,2025-07-24_06h33.57.991,empathy_intonation_perc_control,2024.2.4,Win32,60.24096386,5e7f4d2ad29f7560f032abb9,68817205a84113384fffdfe3,68820bbf60bb09d464f4cf8b,,,,,,,,,,,,./stim/wavs/castilian_match_interrogative-total-yn_Manuela-vende-el-carro.wav,1,,,47.5184,49.6949,1,1,1.6586,,0,6,6,2,1,3,0,castilian,,,,,,,,,,,,,,,,,,,,,,,,,,,,,,,,,,,,,,,,,,,,,,,,,,,,,,,,
,,,,,,,,,5e7f4d2ad29f7560f032abb9,Spanish,13 or older,click here to respond,click here to respond,2025-07-24_06h33.57.991,empathy_intonation_perc_control,2024.2.4,Win32,60.24096386,5e7f4d2ad29f7560f032abb9,68817205a84113384fffdfe3,68820bbf60bb09d464f4cf8b,,,,,,,,,,,,./stim/wavs/mexican_mismatch_interrogative-total-yn_La-maestra-vive-en-Paris.wav,1,,,49.6972,52.1656,1,1,1.9253,,0,7,7,36,1,37,0,mexican,,,,,,,,,,,,,,,,,,,,,,,,,,,,,,,,,,,,,,,,,,,,,,,,,,,,,,,,
,,,,,,,,,5e7f4d2ad29f7560f032abb9,Spanish,13 or older,click here to respond,click here to respond,2025-07-24_06h33.57.991,empathy_intonation_perc_control,2024.2.4,Win32,60.24096386,5e7f4d2ad29f7560f032abb9,68817205a84113384fffdfe3,68820bbf60bb09d464f4cf8b,,,,,,,,,,,,./stim/wavs/mexican_match_interrogative-total-yn_Mariano-habla-del-tiempo.wav,1,,,52.1666,54.3001,1,1,1.6218,,0,8,8,16,1,17,0,mexican,,,,,,,,,,,,,,,,,,,,,,,,,,,,,,,,,,,,,,,,,,,,,,,,,,,,,,,,
,,,,,,,,,5e7f4d2ad29f7560f032abb9,Spanish,13 or older,click here to respond,click here to respond,2025-07-24_06h33.57.991,empathy_intonation_perc_control,2024.2.4,Win32,60.24096386,5e7f4d2ad29f7560f032abb9,68817205a84113384fffdfe3,68820bbf60bb09d464f4cf8b,,,,,,,,,,,,./stim/wavs/mexican_mismatch_declarative-broad-focus_Mi-novio-viene-del-lago.wav,0,,,54.3008,56.2954,0,1,1.4668,,0,9,9,81,1,82,0,mexican,,,,,,,,,,,,,,,,,,,,,,,,,,,,,,,,,,,,,,,,,,,,,,,,,,,,,,,,
,,,,,,,,,5e7f4d2ad29f7560f032abb9,Spanish,13 or older,click here to respond,click here to respond,2025-07-24_06h33.57.991,empathy_intonation_perc_control,2024.2.4,Win32,60.24096386,5e7f4d2ad29f7560f032abb9,68817205a84113384fffdfe3,68820bbf60bb09d464f4cf8b,,,,,,,,,,,,./stim/wavs/puertorican_match_declarative-broad-focus_Manuela-vende-el-carro.wav,0,,,56.2976,59.0368,0,1,2.1983,,0,10,10,66,1,67,0,puertorican,,,,,,,,,,,,,,,,,,,,,,,,,,,,,,,,,,,,,,,,,,,,,,,,,,,,,,,,
,,,,,,,,,5e7f4d2ad29f7560f032abb9,Spanish,13 or older,click here to respond,click here to respond,2025-07-24_06h33.57.991,empathy_intonation_perc_control,2024.2.4,Win32,60.24096386,5e7f4d2ad29f7560f032abb9,68817205a84113384fffdfe3,68820bbf60bb09d464f4cf8b,,,,,,,,,,,,./stim/wavs/puertorican_mismatch_declarative-broad-focus_El-hombre-mira-la-luna.wav,0,,,59.0374,61.1267,0,1,1.5517,,0,11,11,84,1,85,0,puertorican,,,,,,,,,,,,,,,,,,,,,,,,,,,,,,,,,,,,,,,,,,,,,,,,,,,,,,,,
,,,,,,,,,5e7f4d2ad29f7560f032abb9,Spanish,13 or older,click here to respond,click here to respond,2025-07-24_06h33.57.991,empathy_intonation_perc_control,2024.2.4,Win32,60.24096386,5e7f4d2ad29f7560f032abb9,68817205a84113384fffdfe3,68820bbf60bb09d464f4cf8b,,,,,,,,,,,,./stim/wavs/cuban_mismatch_declarative-broad-focus_Mi-tia-odia-la-lluvia.wav,0,,,61.1297,63.623,0,1,1.9702,,0,12,12,77,1,78,0,cuban,,,,,,,,,,,,,,,,,,,,,,,,,,,,,,,,,,,,,,,,,,,,,,,,,,,,,,,,
,,,,,,,,,5e7f4d2ad29f7560f032abb9,Spanish,13 or older,click here to respond,click here to respond,2025-07-24_06h33.57.991,empathy_intonation_perc_control,2024.2.4,Win32,60.24096386,5e7f4d2ad29f7560f032abb9,68817205a84113384fffdfe3,68820bbf60bb09d464f4cf8b,,,,,,,,,,,,./stim/wavs/cuban_match_declarative-broad-focus_Manuela-vende-el-carro.wav,0,,,63.6236,66.2116,0,1,2.0592,,0,13,13,52,1,53,0,cuban,,,,,,,,,,,,,,,,,,,,,,,,,,,,,,,,,,,,,,,,,,,,,,,,,,,,,,,,
,,,,,,,,,5e7f4d2ad29f7560f032abb9,Spanish,13 or older,click here to respond,click here to respond,2025-07-24_06h33.57.991,empathy_intonation_perc_control,2024.2.4,Win32,60.24096386,5e7f4d2ad29f7560f032abb9,68817205a84113384fffdfe3,68820bbf60bb09d464f4cf8b,,,,,,,,,,,,./stim/wavs/castilian_mismatch_interrogative-total-yn_La-nina-lava-el-plato.wav,1,,,66.2138,68.3373,1,1,1.5928,,0,14,14,25,1,26,0,castilian,,,,,,,,,,,,,,,,,,,,,,,,,,,,,,,,,,,,,,,,,,,,,,,,,,,,,,,,
,,,,,,,,,5e7f4d2ad29f7560f032abb9,Spanish,13 or older,click here to respond,click here to respond,2025-07-24_06h33.57.991,empathy_intonation_perc_control,2024.2.4,Win32,60.24096386,5e7f4d2ad29f7560f032abb9,68817205a84113384fffdfe3,68820bbf60bb09d464f4cf8b,,,,,,,,,,,,./stim/wavs/puertorican_mismatch_declarative-broad-focus_El-nino-oye-el-rio.wav,0,,,68.3386,70.5856,0,1,1.7128,,0,15,15,85,1,86,0,puertorican,,,,,,,,,,,,,,,,,,,,,,,,,,,,,,,,,,,,,,,,,,,,,,,,,,,,,,,,
,,,,,,,,,5e7f4d2ad29f7560f032abb9,Spanish,13 or older,click here to respond,click here to respond,2025-07-24_06h33.57.991,empathy_intonation_perc_control,2024.2.4,Win32,60.24096386,5e7f4d2ad29f7560f032abb9,68817205a84113384fffdfe3,68820bbf60bb09d464f4cf8b,,,,,,,,,,,,./stim/wavs/castilian_match_declarative-broad-focus_Mariano-habla-del-tiempo.wav,0,,,70.5863,73.5799,0,1,2.4749,,0,16,16,48,1,49,0,castilian,,,,,,,,,,,,,,,,,,,,,,,,,,,,,,,,,,,,,,,,,,,,,,,,,,,,,,,,
,,,,,,,,,5e7f4d2ad29f7560f032abb9,Spanish,13 or older,click here to respond,click here to respond,2025-07-24_06h33.57.991,empathy_intonation_perc_control,2024.2.4,Win32,60.24096386,5e7f4d2ad29f7560f032abb9,68817205a84113384fffdfe3,68820bbf60bb09d464f4cf8b,,,,,,,,,,,,./stim/wavs/mexican_mismatch_interrogative-total-yn_Mi-tia-odia-la-lluvia.wav,1,,,73.5817,75.5682,1,1,1.464,,0,17,17,38,1,39,0,mexican,,,,,,,,,,,,,,,,,,,,,,,,,,,,,,,,,,,,,,,,,,,,,,,,,,,,,,,,
,,,,,,,,,5e7f4d2ad29f7560f032abb9,Spanish,13 or older,click here to respond,click here to respond,2025-07-24_06h33.57.991,empathy_intonation_perc_control,2024.2.4,Win32,60.24096386,5e7f4d2ad29f7560f032abb9,68817205a84113384fffdfe3,68820bbf60bb09d464f4cf8b,,,,,,,,,,,,./stim/wavs/castilian_match_interrogative-total-yn_David-leia-el-libro.wav,1,,,75.5691,77.7581,1,1,1.6679,,0,18,18,0,1,1,0,castilian,,,,,,,,,,,,,,,,,,,,,,,,,,,,,,,,,,,,,,,,,,,,,,,,,,,,,,,,
,,,,,,,,,5e7f4d2ad29f7560f032abb9,Spanish,13 or older,click here to respond,click here to respond,2025-07-24_06h33.57.991,empathy_intonation_perc_control,2024.2.4,Win32,60.24096386,5e7f4d2ad29f7560f032abb9,68817205a84113384fffdfe3,68820bbf60bb09d464f4cf8b,,,,,,,,,,,,./stim/wavs/puertorican_match_interrogative-total-yn_David-leia-el-libro.wav,1,,,77.7608,79.897,0,0,1.6093,,0,19,19,20,1,21,1,puertorican,,,,,,,,,,,,,,,,,,,,,,,,,,,,,,,,,,,,,,,,,,,,,,,,,,,,,,,,
,,,,,,,,,5e7f4d2ad29f7560f032abb9,Spanish,13 or older,click here to respond,click here to respond,2025-07-24_06h33.57.991,empathy_intonation_perc_control,2024.2.4,Win32,60.24096386,5e7f4d2ad29f7560f032abb9,68817205a84113384fffdfe3,68820bbf60bb09d464f4cf8b,,,,,,,,,,,,./stim/wavs/castilian_mismatch_declarative-broad-focus_Mi-tia-odia-la-lluvia.wav,0,,,79.8978,82.4536,0,1,2.0193,,0,20,20,72,1,73,0,castilian,,,,,,,,,,,,,,,,,,,,,,,,,,,,,,,,,,,,,,,,,,,,,,,,,,,,,,,,
,,,,,,,,,5e7f4d2ad29f7560f032abb9,Spanish,13 or older,click here to respond,click here to respond,2025-07-24_06h33.57.991,empathy_intonation_perc_control,2024.2.4,Win32,60.24096386,5e7f4d2ad29f7560f032abb9,68817205a84113384fffdfe3,68820bbf60bb09d464f4cf8b,,,,,,,,,,,,./stim/wavs/puertorican_mismatch_declarative-broad-focus_El-bebe-comia-muy-bien.wav,0,,,82.4543,84.6099,0,1,1.639,,0,21,21,83,1,84,0,puertorican,,,,,,,,,,,,,,,,,,,,,,,,,,,,,,,,,,,,,,,,,,,,,,,,,,,,,,,,
,,,,,,,,,5e7f4d2ad29f7560f032abb9,Spanish,13 or older,click here to respond,click here to respond,2025-07-24_06h33.57.991,empathy_intonation_perc_control,2024.2.4,Win32,60.24096386,5e7f4d2ad29f7560f032abb9,68817205a84113384fffdfe3,68820bbf60bb09d464f4cf8b,,,,,,,,,,,,./stim/wavs/cuban_match_interrogative-total-yn_Marta-abre-el-regalo.wav,1,,,84.6111,87.0667,0,0,1.9401,,0,22,22,11,1,12,1,cuban,,,,,,,,,,,,,,,,,,,,,,,,,,,,,,,,,,,,,,,,,,,,,,,,,,,,,,,,
,,,,,,,,,5e7f4d2ad29f7560f032abb9,Spanish,13 or older,click here to respond,click here to respond,2025-07-24_06h33.57.991,empathy_intonation_perc_control,2024.2.4,Win32,60.24096386,5e7f4d2ad29f7560f032abb9,68817205a84113384fffdfe3,68820bbf60bb09d464f4cf8b,,,,,,,,,,,,./stim/wavs/castilian_match_declarative-broad-focus_Emilio-ama-la-marcha.wav,0,,,87.0675,90.0096,0,1,2.4152,,0,23,23,45,1,46,0,castilian,,,,,,,,,,,,,,,,,,,,,,,,,,,,,,,,,,,,,,,,,,,,,,,,,,,,,,,,
,,,,,,,,,5e7f4d2ad29f7560f032abb9,Spanish,13 or older,click here to respond,click here to respond,2025-07-24_06h33.57.991,empathy_intonation_perc_control,2024.2.4,Win32,60.24096386,5e7f4d2ad29f7560f032abb9,68817205a84113384fffdfe3,68820bbf60bb09d464f4cf8b,,,,,,,,,,,,./stim/wavs/puertorican_mismatch_interrogative-total-yn_La-maestra-vive-en-Paris.wav,1,,,90.0105,92.5997,1,1,2.0746,,0,24,24,41,1,42,1,puertorican,,,,,,,,,,,,,,,,,,,,,,,,,,,,,,,,,,,,,,,,,,,,,,,,,,,,,,,,
,,,,,,,,,5e7f4d2ad29f7560f032abb9,Spanish,13 or older,click here to respond,click here to respond,2025-07-24_06h33.57.991,empathy_intonation_perc_control,2024.2.4,Win32,60.24096386,5e7f4d2ad29f7560f032abb9,68817205a84113384fffdfe3,68820bbf60bb09d464f4cf8b,,,,,,,,,,,,./stim/wavs/cuban_match_declarative-broad-focus_Mariano-habla-del-tiempo.wav,0,,,92.6003,95.2242,0,1,2.0949,,0,25,25,54,1,55,0,cuban,,,,,,,,,,,,,,,,,,,,,,,,,,,,,,,,,,,,,,,,,,,,,,,,,,,,,,,,
,,,,,,,,,5e7f4d2ad29f7560f032abb9,Spanish,13 or older,click here to respond,click here to respond,2025-07-24_06h33.57.991,empathy_intonation_perc_control,2024.2.4,Win32,60.24096386,5e7f4d2ad29f7560f032abb9,68817205a84113384fffdfe3,68820bbf60bb09d464f4cf8b,,,,,,,,,,,,./stim/wavs/mexican_mismatch_interrogative-total-yn_El-hombre-mira-la-luna.wav,1,,,95.2263,97.1239,1,1,1.3683,,0,26,26,34,1,35,0,mexican,,,,,,,,,,,,,,,,,,,,,,,,,,,,,,,,,,,,,,,,,,,,,,,,,,,,,,,,
,,,,,,,,,5e7f4d2ad29f7560f032abb9,Spanish,13 or older,click here to respond,click here to respond,2025-07-24_06h33.57.991,empathy_intonation_perc_control,2024.2.4,Win32,60.24096386,5e7f4d2ad29f7560f032abb9,68817205a84113384fffdfe3,68820bbf60bb09d464f4cf8b,,,,,,,,,,,,./stim/wavs/cuban_mismatch_interrogative-total-yn_El-nino-oye-el-rio.wav,1,,,97.1262,99.6497,0,0,1.9834,,0,27,27,30,1,31,1,cuban,,,,,,,,,,,,,,,,,,,,,,,,,,,,,,,,,,,,,,,,,,,,,,,,,,,,,,,,
,,,,,,,,,5e7f4d2ad29f7560f032abb9,Spanish,13 or older,click here to respond,click here to respond,2025-07-24_06h33.57.991,empathy_intonation_perc_control,2024.2.4,Win32,60.24096386,5e7f4d2ad29f7560f032abb9,68817205a84113384fffdfe3,68820bbf60bb09d464f4cf8b,,,,,,,,,,,,./stim/wavs/mexican_mismatch_declarative-broad-focus_El-hombre-mira-la-luna.wav,0,,,99.6504,101.5897,1,0,1.4108,,0,28,28,79,1,80,0,mexican,,,,,,,,,,,,,,,,,,,,,,,,,,,,,,,,,,,,,,,,,,,,,,,,,,,,,,,,
,,,,,,,,,5e7f4d2ad29f7560f032abb9,Spanish,13 or older,click here to respond,click here to respond,2025-07-24_06h33.57.991,empathy_intonation_perc_control,2024.2.4,Win32,60.24096386,5e7f4d2ad29f7560f032abb9,68817205a84113384fffdfe3,68820bbf60bb09d464f4cf8b,,,,,,,,,,,,./stim/wavs/cuban_mismatch_declarative-broad-focus_Mi-novio-viene-del-lago.wav,0,,,101.5926,104.5384,1,0,2.4274,,0,29,29,76,1,77,0,cuban,,,,,,,,,,,,,,,,,,,,,,,,,,,,,,,,,,,,,,,,,,,,,,,,,,,,,,,,
,,,,,,,,,5e7f4d2ad29f7560f032abb9,Spanish,13 or older,click here to respond,click here to respond,2025-07-24_06h33.57.991,empathy_intonation_perc_control,2024.2.4,Win32,60.24096386,5e7f4d2ad29f7560f032abb9,68817205a84113384fffdfe3,68820bbf60bb09d464f4cf8b,,,,,,,,,,,,./stim/wavs/castilian_mismatch_declarative-broad-focus_El-nino-oye-el-rio.wav,0,,,104.5407,106.9329,0,1,1.859,,0,30,30,68,1,69,0,castilian,,,,,,,,,,,,,,,,,,,,,,,,,,,,,,,,,,,,,,,,,,,,,,,,,,,,,,,,
,,,,,,,,,5e7f4d2ad29f7560f032abb9,Spanish,13 or older,click here to respond,click here to respond,2025-07-24_06h33.57.991,empathy_intonation_perc_control,2024.2.4,Win32,60.24096386,5e7f4d2ad29f7560f032abb9,68817205a84113384fffdfe3,68820bbf60bb09d464f4cf8b,,,,,,,,,,,,./stim/wavs/puertorican_mismatch_interrogative-total-yn_La-nina-lava-el-plato.wav,1,,,106.9338,108.9076,1,1,1.4427,,0,31,31,42,1,43,1,puertorican,,,,,,,,,,,,,,,,,,,,,,,,,,,,,,,,,,,,,,,,,,,,,,,,,,,,,,,,
,,,,,,,,,5e7f4d2ad29f7560f032abb9,Spanish,13 or older,click here to respond,click here to respond,2025-07-24_06h33.57.991,empathy_intonation_perc_control,2024.2.4,Win32,60.24096386,5e7f4d2ad29f7560f032abb9,68817205a84113384fffdfe3,68820bbf60bb09d464f4cf8b,,,,,,,,,,,,./stim/wavs/puertorican_match_interrogative-total-yn_Daniel-iba-a-Bolivia.wav,1,,,108.9088,110.9993,0,0,1.5522,,0,32,32,19,1,20,1,puertorican,,,,,,,,,,,,,,,,,,,,,,,,,,,,,,,,,,,,,,,,,,,,,,,,,,,,,,,,
,,,,,,,,,5e7f4d2ad29f7560f032abb9,Spanish,13 or older,click here to respond,click here to respond,2025-07-24_06h33.57.991,empathy_intonation_perc_control,2024.2.4,Win32,60.24096386,5e7f4d2ad29f7560f032abb9,68817205a84113384fffdfe3,68820bbf60bb09d464f4cf8b,,,,,,,,,,,,./stim/wavs/puertorican_match_declarative-broad-focus_Ana-lleva-el-abrigo.wav,0,,,110.9999,112.8415,0,1,1.3236,,0,33,33,62,1,63,0,puertorican,,,,,,,,,,,,,,,,,,,,,,,,,,,,,,,,,,,,,,,,,,,,,,,,,,,,,,,,
,,,,,,,,,5e7f4d2ad29f7560f032abb9,Spanish,13 or older,click here to respond,click here to respond,2025-07-24_06h33.57.991,empathy_intonation_perc_control,2024.2.4,Win32,60.24096386,5e7f4d2ad29f7560f032abb9,68817205a84113384fffdfe3,68820bbf60bb09d464f4cf8b,,,,,,,,,,,,./stim/wavs/castilian_mismatch_declarative-broad-focus_Mi-novio-viene-del-lago.wav,0,,,112.8425,116.0974,1,0,2.7436,,0,34,34,71,1,72,0,castilian,,,,,,,,,,,,,,,,,,,,,,,,,,,,,,,,,,,,,,,,,,,,,,,,,,,,,,,,
,,,,,,,,,5e7f4d2ad29f7560f032abb9,Spanish,13 or older,click here to respond,click here to respond,2025-07-24_06h33.57.991,empathy_intonation_perc_control,2024.2.4,Win32,60.24096386,5e7f4d2ad29f7560f032abb9,68817205a84113384fffdfe3,68820bbf60bb09d464f4cf8b,,,,,,,,,,,,./stim/wavs/cuban_match_interrogative-total-yn_Mariano-habla-del-tiempo.wav,1,,,116.0981,118.3591,0,0,1.7276,,0,35,35,10,1,11,1,cuban,,,,,,,,,,,,,,,,,,,,,,,,,,,,,,,,,,,,,,,,,,,,,,,,,,,,,,,,
,,,,,,,,,5e7f4d2ad29f7560f032abb9,Spanish,13 or older,click here to respond,click here to respond,2025-07-24_06h33.57.991,empathy_intonation_perc_control,2024.2.4,Win32,60.24096386,5e7f4d2ad29f7560f032abb9,68817205a84113384fffdfe3,68820bbf60bb09d464f4cf8b,,,,,,,,,,,,./stim/wavs/puertorican_match_interrogative-total-yn_Manuela-vende-el-carro.wav,1,,,118.3598,121.0644,0,0,2.182,,0,36,36,22,1,23,1,puertorican,,,,,,,,,,,,,,,,,,,,,,,,,,,,,,,,,,,,,,,,,,,,,,,,,,,,,,,,
,,,,,,,,,5e7f4d2ad29f7560f032abb9,Spanish,13 or older,click here to respond,click here to respond,2025-07-24_06h33.57.991,empathy_intonation_perc_control,2024.2.4,Win32,60.24096386,5e7f4d2ad29f7560f032abb9,68817205a84113384fffdfe3,68820bbf60bb09d464f4cf8b,,,,,,,,,,,,./stim/wavs/castilian_mismatch_interrogative-total-yn_Mi-madre-come-la-fruta.wav,1,,,121.0651,123.2045,1,1,1.6083,,0,37,37,26,1,27,0,castilian,,,,,,,,,,,,,,,,,,,,,,,,,,,,,,,,,,,,,,,,,,,,,,,,,,,,,,,,
,,,,,,,,,5e7f4d2ad29f7560f032abb9,Spanish,13 or older,click here to respond,click here to respond,2025-07-24_06h33.57.991,empathy_intonation_perc_control,2024.2.4,Win32,60.24096386,5e7f4d2ad29f7560f032abb9,68817205a84113384fffdfe3,68820bbf60bb09d464f4cf8b,,,,,,,,,,,,./stim/wavs/cuban_match_interrogative-total-yn_Daniel-iba-a-Bolivia.wav,1,,,123.2067,126.6957,0,0,2.9628,,0,38,38,7,1,8,1,cuban,,,,,,,,,,,,,,,,,,,,,,,,,,,,,,,,,,,,,,,,,,,,,,,,,,,,,,,,
,,,,,,,,,5e7f4d2ad29f7560f032abb9,Spanish,13 or older,click here to respond,click here to respond,2025-07-24_06h33.57.991,empathy_intonation_perc_control,2024.2.4,Win32,60.24096386,5e7f4d2ad29f7560f032abb9,68817205a84113384fffdfe3,68820bbf60bb09d464f4cf8b,,,,,,,,,,,,./stim/wavs/mexican_match_interrogative-total-yn_David-leia-el-libro.wav,1,,,126.6966,129.6738,1,1,2.4542,,0,39,39,14,1,15,0,mexican,,,,,,,,,,,,,,,,,,,,,,,,,,,,,,,,,,,,,,,,,,,,,,,,,,,,,,,,
,,,,,,,,,5e7f4d2ad29f7560f032abb9,Spanish,13 or older,click here to respond,click here to respond,2025-07-24_06h33.57.991,empathy_intonation_perc_control,2024.2.4,Win32,60.24096386,5e7f4d2ad29f7560f032abb9,68817205a84113384fffdfe3,68820bbf60bb09d464f4cf8b,,,,,,,,,,,,./stim/wavs/mexican_match_interrogative-total-yn_Ana-lleva-el-abrigo.wav,1,,,129.6746,132.6401,1,1,2.4418,,0,40,40,12,1,13,0,mexican,,,,,,,,,,,,,,,,,,,,,,,,,,,,,,,,,,,,,,,,,,,,,,,,,,,,,,,,
,,,,,,,,,5e7f4d2ad29f7560f032abb9,Spanish,13 or older,click here to respond,click here to respond,2025-07-24_06h33.57.991,empathy_intonation_perc_control,2024.2.4,Win32,60.24096386,5e7f4d2ad29f7560f032abb9,68817205a84113384fffdfe3,68820bbf60bb09d464f4cf8b,,,,,,,,,,,,./stim/wavs/cuban_match_interrogative-total-yn_Ana-lleva-el-abrigo.wav,1,,,132.6408,135.5455,0,0,2.3822,,0,41,41,6,1,7,1,cuban,,,,,,,,,,,,,,,,,,,,,,,,,,,,,,,,,,,,,,,,,,,,,,,,,,,,,,,,
,,,,,,,,,5e7f4d2ad29f7560f032abb9,Spanish,13 or older,click here to respond,click here to respond,2025-07-24_06h33.57.991,empathy_intonation_perc_control,2024.2.4,Win32,60.24096386,5e7f4d2ad29f7560f032abb9,68817205a84113384fffdfe3,68820bbf60bb09d464f4cf8b,,,,,,,,,,,,./stim/wavs/cuban_match_declarative-broad-focus_Marta-abre-el-regalo.wav,0,,,135.5463,138.3354,1,0,2.2668,,0,42,42,55,1,56,0,cuban,,,,,,,,,,,,,,,,,,,,,,,,,,,,,,,,,,,,,,,,,,,,,,,,,,,,,,,,
,,,,,,,,,5e7f4d2ad29f7560f032abb9,Spanish,13 or older,click here to respond,click here to respond,2025-07-24_06h33.57.991,empathy_intonation_perc_control,2024.2.4,Win32,60.24096386,5e7f4d2ad29f7560f032abb9,68817205a84113384fffdfe3,68820bbf60bb09d464f4cf8b,,,,,,,,,,,,./stim/wavs/puertorican_mismatch_interrogative-total-yn_El-hombre-mira-la-luna.wav,1,,,138.338,141.618,1,1,2.7371,,0,43,43,39,1,40,1,puertorican,,,,,,,,,,,,,,,,,,,,,,,,,,,,,,,,,,,,,,,,,,,,,,,,,,,,,,,,
,,,,,,,,,5e7f4d2ad29f7560f032abb9,Spanish,13 or older,click here to respond,click here to respond,2025-07-24_06h33.57.991,empathy_intonation_perc_control,2024.2.4,Win32,60.24096386,5e7f4d2ad29f7560f032abb9,68817205a84113384fffdfe3,68820bbf60bb09d464f4cf8b,,,,,,,,,,,,./stim/wavs/cuban_mismatch_interrogative-total-yn_Mi-tia-odia-la-lluvia.wav,1,,,141.6211,144.2724,0,0,2.1211,,0,44,44,33,1,34,1,cuban,,,,,,,,,,,,,,,,,,,,,,,,,,,,,,,,,,,,,,,,,,,,,,,,,,,,,,,,
,,,,,,,,,5e7f4d2ad29f7560f032abb9,Spanish,13 or older,click here to respond,click here to respond,2025-07-24_06h33.57.991,empathy_intonation_perc_control,2024.2.4,Win32,60.24096386,5e7f4d2ad29f7560f032abb9,68817205a84113384fffdfe3,68820bbf60bb09d464f4cf8b,,,,,,,,,,,,./stim/wavs/cuban_match_interrogative-total-yn_Maria-bebe-el-vino.wav,1,,,144.2735,147.0269,0,0,2.2259,,0,45,45,9,1,10,1,cuban,,,,,,,,,,,,,,,,,,,,,,,,,,,,,,,,,,,,,,,,,,,,,,,,,,,,,,,,
,,,,,,,,,5e7f4d2ad29f7560f032abb9,Spanish,13 or older,click here to respond,click here to respond,2025-07-24_06h33.57.991,empathy_intonation_perc_control,2024.2.4,Win32,60.24096386,5e7f4d2ad29f7560f032abb9,68817205a84113384fffdfe3,68820bbf60bb09d464f4cf8b,,,,,,,,,,,,./stim/wavs/castilian_match_declarative-broad-focus_Maria-bebe-el-vino.wav,0,,,147.0277,158.9709,1,0,11.4253,,0,46,46,47,1,48,0,castilian,,,,,,,,,,,,,,,,,,,,,,,,,,,,,,,,,,,,,,,,,,,,,,,,,,,,,,,,
,,,,,,,,,5e7f4d2ad29f7560f032abb9,Spanish,13 or older,click here to respond,click here to respond,2025-07-24_06h33.57.991,empathy_intonation_perc_control,2024.2.4,Win32,60.24096386,5e7f4d2ad29f7560f032abb9,68817205a84113384fffdfe3,68820bbf60bb09d464f4cf8b,,,,,,,,,,,,./stim/wavs/mexican_match_declarative-broad-focus_Emilio-ama-la-marcha.wav,0,,,158.9724,163.0426,0,1,3.5467,,0,47,47,59,1,60,0,mexican,,,,,,,,,,,,,,,,,,,,,,,,,,,,,,,,,,,,,,,,,,,,,,,,,,,,,,,,
,,,,,,,,,5e7f4d2ad29f7560f032abb9,Spanish,13 or older,click here to respond,click here to respond,2025-07-24_06h33.57.991,empathy_intonation_perc_control,2024.2.4,Win32,60.24096386,5e7f4d2ad29f7560f032abb9,68817205a84113384fffdfe3,68820bbf60bb09d464f4cf8b,,,,,,,,,,,,./stim/wavs/cuban_mismatch_declarative-broad-focus_La-nina-lava-el-plato.wav,0,,,163.0435,165.4505,0,1,1.8899,,0,48,48,75,1,76,0,cuban,,,,,,,,,,,,,,,,,,,,,,,,,,,,,,,,,,,,,,,,,,,,,,,,,,,,,,,,
,,,,,,,,,5e7f4d2ad29f7560f032abb9,Spanish,13 or older,click here to respond,click here to respond,2025-07-24_06h33.57.991,empathy_intonation_perc_control,2024.2.4,Win32,60.24096386,5e7f4d2ad29f7560f032abb9,68817205a84113384fffdfe3,68820bbf60bb09d464f4cf8b,,,,,,,,,,,,./stim/wavs/castilian_match_interrogative-total-yn_Maria-bebe-el-vino.wav,1,,,165.4513,167.3816,1,1,1.3819,,0,49,49,3,1,4,0,castilian,,,,,,,,,,,,,,,,,,,,,,,,,,,,,,,,,,,,,,,,,,,,,,,,,,,,,,,,
,,,,,,,,,5e7f4d2ad29f7560f032abb9,Spanish,13 or older,click here to respond,click here to respond,2025-07-24_06h33.57.991,empathy_intonation_perc_control,2024.2.4,Win32,60.24096386,5e7f4d2ad29f7560f032abb9,68817205a84113384fffdfe3,68820bbf60bb09d464f4cf8b,,,,,,,,,,,,./stim/wavs/castilian_mismatch_interrogative-total-yn_La-maestra-vive-en-Paris.wav,1,,,167.384,169.6249,1,1,1.717,,0,50,50,24,1,25,0,castilian,,,,,,,,,,,,,,,,,,,,,,,,,,,,,,,,,,,,,,,,,,,,,,,,,,,,,,,,
,,,,,,,,,5e7f4d2ad29f7560f032abb9,Spanish,13 or older,click here to respond,click here to respond,2025-07-24_06h33.57.991,empathy_intonation_perc_control,2024.2.4,Win32,60.24096386,5e7f4d2ad29f7560f032abb9,68817205a84113384fffdfe3,68820bbf60bb09d464f4cf8b,,,,,,,,,,,,./stim/wavs/castilian_match_interrogative-total-yn_Mariano-habla-del-tiempo.wav,1,,,169.6262,172.3492,1,1,2.1928,,0,51,51,4,1,5,0,castilian,,,,,,,,,,,,,,,,,,,,,,,,,,,,,,,,,,,,,,,,,,,,,,,,,,,,,,,,
,,,,,,,,,5e7f4d2ad29f7560f032abb9,Spanish,13 or older,click here to respond,click here to respond,2025-07-24_06h33.57.991,empathy_intonation_perc_control,2024.2.4,Win32,60.24096386,5e7f4d2ad29f7560f032abb9,68817205a84113384fffdfe3,68820bbf60bb09d464f4cf8b,,,,,,,,,,,,./stim/wavs/puertorican_mismatch_declarative-broad-focus_La-nina-lava-el-plato.wav,0,,,172.3511,174.6007,0,1,1.7108,,0,52,52,87,1,88,0,puertorican,,,,,,,,,,,,,,,,,,,,,,,,,,,,,,,,,,,,,,,,,,,,,,,,,,,,,,,,
,,,,,,,,,5e7f4d2ad29f7560f032abb9,Spanish,13 or older,click here to respond,click here to respond,2025-07-24_06h33.57.991,empathy_intonation_perc_control,2024.2.4,Win32,60.24096386,5e7f4d2ad29f7560f032abb9,68817205a84113384fffdfe3,68820bbf60bb09d464f4cf8b,,,,,,,,,,,,./stim/wavs/castilian_match_declarative-broad-focus_David-leia-el-libro.wav,0,,,174.6021,177.0479,0,1,1.9126,,0,53,53,44,1,45,0,castilian,,,,,,,,,,,,,,,,,,,,,,,,,,,,,,,,,,,,,,,,,,,,,,,,,,,,,,,,
,,,,,,,,,5e7f4d2ad29f7560f032abb9,Spanish,13 or older,click here to respond,click here to respond,2025-07-24_06h33.57.991,empathy_intonation_perc_control,2024.2.4,Win32,60.24096386,5e7f4d2ad29f7560f032abb9,68817205a84113384fffdfe3,68820bbf60bb09d464f4cf8b,,,,,,,,,,,,./stim/wavs/puertorican_mismatch_interrogative-total-yn_Mi-madre-come-la-fruta.wav,1,,,177.0503,179.3318,0,0,1.7633,,0,54,54,43,1,44,1,puertorican,,,,,,,,,,,,,,,,,,,,,,,,,,,,,,,,,,,,,,,,,,,,,,,,,,,,,,,,
,,,,,,,,,5e7f4d2ad29f7560f032abb9,Spanish,13 or older,click here to respond,click here to respond,2025-07-24_06h33.57.991,empathy_intonation_perc_control,2024.2.4,Win32,60.24096386,5e7f4d2ad29f7560f032abb9,68817205a84113384fffdfe3,68820bbf60bb09d464f4cf8b,,,,,,,,,,,,./stim/wavs/puertorican_match_declarative-broad-focus_Emilio-ama-la-marcha.wav,0,,,179.3334,181.5145,0,1,1.6438,,0,55,55,65,1,66,0,puertorican,,,,,,,,,,,,,,,,,,,,,,,,,,,,,,,,,,,,,,,,,,,,,,,,,,,,,,,,
,,,,,,,,,5e7f4d2ad29f7560f032abb9,Spanish,13 or older,click here to respond,click here to respond,2025-07-24_06h33.57.991,empathy_intonation_perc_control,2024.2.4,Win32,60.24096386,5e7f4d2ad29f7560f032abb9,68817205a84113384fffdfe3,68820bbf60bb09d464f4cf8b,,,,,,,,,,,,./stim/wavs/cuban_match_declarative-broad-focus_Daniel-iba-a-Bolivia.wav,0,,,181.5167,184.9908,0,1,2.9521,,0,56,56,51,1,52,0,cuban,,,,,,,,,,,,,,,,,,,,,,,,,,,,,,,,,,,,,,,,,,,,,,,,,,,,,,,,
,,,,,,,,,5e7f4d2ad29f7560f032abb9,Spanish,13 or older,click here to respond,click here to respond,2025-07-24_06h33.57.991,empathy_intonation_perc_control,2024.2.4,Win32,60.24096386,5e7f4d2ad29f7560f032abb9,68817205a84113384fffdfe3,68820bbf60bb09d464f4cf8b,,,,,,,,,,,,./stim/wavs/castilian_mismatch_declarative-broad-focus_La-nina-lava-el-plato.wav,0,,,184.9917,187.7551,1,0,2.2475,,0,57,57,70,1,71,0,castilian,,,,,,,,,,,,,,,,,,,,,,,,,,,,,,,,,,,,,,,,,,,,,,,,,,,,,,,,
,,,,,,,,,5e7f4d2ad29f7560f032abb9,Spanish,13 or older,click here to respond,click here to respond,2025-07-24_06h33.57.991,empathy_intonation_perc_control,2024.2.4,Win32,60.24096386,5e7f4d2ad29f7560f032abb9,68817205a84113384fffdfe3,68820bbf60bb09d464f4cf8b,,,,,,,,,,,,./stim/wavs/mexican_match_declarative-broad-focus_Daniel-iba-a-Bolivia.wav,0,,,187.7556,190.5578,0,1,2.2849,,0,58,58,57,1,58,0,mexican,,,,,,,,,,,,,,,,,,,,,,,,,,,,,,,,,,,,,,,,,,,,,,,,,,,,,,,,
,,,,,,,,,5e7f4d2ad29f7560f032abb9,Spanish,13 or older,click here to respond,click here to respond,2025-07-24_06h33.57.991,empathy_intonation_perc_control,2024.2.4,Win32,60.24096386,5e7f4d2ad29f7560f032abb9,68817205a84113384fffdfe3,68820bbf60bb09d464f4cf8b,,,,,,,,,,,,./stim/wavs/mexican_mismatch_declarative-broad-focus_El-bebe-comia-muy-bien.wav,0,,,190.5584,203.8698,0,1,12.7826,,0,59,59,78,1,79,0,mexican,,,,,,,,,,,,,,,,,,,,,,,,,,,,,,,,,,,,,,,,,,,,,,,,,,,,,,,,
,,,,,,,,,5e7f4d2ad29f7560f032abb9,Spanish,13 or older,click here to respond,click here to respond,2025-07-24_06h33.57.991,empathy_intonation_perc_control,2024.2.4,Win32,60.24096386,5e7f4d2ad29f7560f032abb9,68817205a84113384fffdfe3,68820bbf60bb09d464f4cf8b,,,,,,,,,,,,./stim/wavs/castilian_mismatch_interrogative-total-yn_Mi-novio-viene-del-lago.wav,1,,,203.8704,207.2779,1,1,2.8782,,0,60,60,27,1,28,0,castilian,,,,,,,,,,,,,,,,,,,,,,,,,,,,,,,,,,,,,,,,,,,,,,,,,,,,,,,,
,,,,,,,,,5e7f4d2ad29f7560f032abb9,Spanish,13 or older,click here to respond,click here to respond,2025-07-24_06h33.57.991,empathy_intonation_perc_control,2024.2.4,Win32,60.24096386,5e7f4d2ad29f7560f032abb9,68817205a84113384fffdfe3,68820bbf60bb09d464f4cf8b,,,,,,,,,,,,./stim/wavs/mexican_mismatch_declarative-broad-focus_Mi-tia-odia-la-lluvia.wav,0,,,207.2804,213.2094,1,0,5.3949,,0,61,61,82,1,83,0,mexican,,,,,,,,,,,,,,,,,,,,,,,,,,,,,,,,,,,,,,,,,,,,,,,,,,,,,,,,
,,,,,,,,,5e7f4d2ad29f7560f032abb9,Spanish,13 or older,click here to respond,click here to respond,2025-07-24_06h33.57.991,empathy_intonation_perc_control,2024.2.4,Win32,60.24096386,5e7f4d2ad29f7560f032abb9,68817205a84113384fffdfe3,68820bbf60bb09d464f4cf8b,,,,,,,,,,,,./stim/wavs/mexican_mismatch_declarative-broad-focus_La-maestra-vive-en-Paris.wav,0,,,213.2122,216.2537,0,1,2.5188,,0,62,62,80,1,81,0,mexican,,,,,,,,,,,,,,,,,,,,,,,,,,,,,,,,,,,,,,,,,,,,,,,,,,,,,,,,
,,,,,,,,,5e7f4d2ad29f7560f032abb9,Spanish,13 or older,click here to respond,click here to respond,2025-07-24_06h33.57.991,empathy_intonation_perc_control,2024.2.4,Win32,60.24096386,5e7f4d2ad29f7560f032abb9,68817205a84113384fffdfe3,68820bbf60bb09d464f4cf8b,,,,,,,,,,,,./stim/wavs/castilian_mismatch_declarative-broad-focus_La-maestra-vive-en-Paris.wav,0,,,216.2543,223.5095,0,1,6.7348,,0,63,63,69,1,70,0,castilian,,,,,,,,,,,,,,,,,,,,,,,,,,,,,,,,,,,,,,,,,,,,,,,,,,,,,,,,
,,,,,,,,,5e7f4d2ad29f7560f032abb9,Spanish,13 or older,click here to respond,click here to respond,2025-07-24_06h33.57.991,empathy_intonation_perc_control,2024.2.4,Win32,60.24096386,5e7f4d2ad29f7560f032abb9,68817205a84113384fffdfe3,68820bbf60bb09d464f4cf8b,,,,,,,,,,,,./stim/wavs/cuban_match_declarative-broad-focus_Maria-bebe-el-vino.wav,0,,,223.5117,226.6353,0,1,2.6118,,0,64,64,53,1,54,0,cuban,,,,,,,,,,,,,,,,,,,,,,,,,,,,,,,,,,,,,,,,,,,,,,,,,,,,,,,,
,,,,,,,,,5e7f4d2ad29f7560f032abb9,Spanish,13 or older,click here to respond,click here to respond,2025-07-24_06h33.57.991,empathy_intonation_perc_control,2024.2.4,Win32,60.24096386,5e7f4d2ad29f7560f032abb9,68817205a84113384fffdfe3,68820bbf60bb09d464f4cf8b,,,,,,,,,,,,./stim/wavs/mexican_mismatch_interrogative-total-yn_Mi-novio-viene-del-lago.wav,1,,,226.6359,229.237,1,1,2.0851,,0,65,65,37,1,38,0,mexican,,,,,,,,,,,,,,,,,,,,,,,,,,,,,,,,,,,,,,,,,,,,,,,,,,,,,,,,
,,,,,,,,,5e7f4d2ad29f7560f032abb9,Spanish,13 or older,click here to respond,click here to respond,2025-07-24_06h33.57.991,empathy_intonation_perc_control,2024.2.4,Win32,60.24096386,5e7f4d2ad29f7560f032abb9,68817205a84113384fffdfe3,68820bbf60bb09d464f4cf8b,,,,,,,,,,,,./stim/wavs/mexican_match_interrogative-total-yn_Emilio-ama-la-marcha.wav,1,,,229.2377,232.0162,1,1,2.2496,,0,66,66,15,1,16,0,mexican,,,,,,,,,,,,,,,,,,,,,,,,,,,,,,,,,,,,,,,,,,,,,,,,,,,,,,,,
,,,,,,,,,5e7f4d2ad29f7560f032abb9,Spanish,13 or older,click here to respond,click here to respond,2025-07-24_06h33.57.991,empathy_intonation_perc_control,2024.2.4,Win32,60.24096386,5e7f4d2ad29f7560f032abb9,68817205a84113384fffdfe3,68820bbf60bb09d464f4cf8b,,,,,,,,,,,,./stim/wavs/castilian_match_declarative-broad-focus_Marta-abre-el-regalo.wav,0,,,232.0168,237.3088,0,1,4.7777,,0,67,67,49,1,50,0,castilian,,,,,,,,,,,,,,,,,,,,,,,,,,,,,,,,,,,,,,,,,,,,,,,,,,,,,,,,
,,,,,,,,,5e7f4d2ad29f7560f032abb9,Spanish,13 or older,click here to respond,click here to respond,2025-07-24_06h33.57.991,empathy_intonation_perc_control,2024.2.4,Win32,60.24096386,5e7f4d2ad29f7560f032abb9,68817205a84113384fffdfe3,68820bbf60bb09d464f4cf8b,,,,,,,,,,,,./stim/wavs/cuban_mismatch_interrogative-total-yn_Mi-novio-viene-del-lago.wav,1,,,237.3109,240.1576,1,1,2.3217,,0,68,68,32,1,33,1,cuban,,,,,,,,,,,,,,,,,,,,,,,,,,,,,,,,,,,,,,,,,,,,,,,,,,,,,,,,
,,,,,,,,,5e7f4d2ad29f7560f032abb9,Spanish,13 or older,click here to respond,click here to respond,2025-07-24_06h33.57.991,empathy_intonation_perc_control,2024.2.4,Win32,60.24096386,5e7f4d2ad29f7560f032abb9,68817205a84113384fffdfe3,68820bbf60bb09d464f4cf8b,,,,,,,,,,,,./stim/wavs/mexican_match_declarative-broad-focus_Mariano-habla-del-tiempo.wav,0,,,240.1597,243.416,0,1,2.7177,,0,69,69,60,1,61,0,mexican,,,,,,,,,,,,,,,,,,,,,,,,,,,,,,,,,,,,,,,,,,,,,,,,,,,,,,,,
,,,,,,,,,5e7f4d2ad29f7560f032abb9,Spanish,13 or older,click here to respond,click here to respond,2025-07-24_06h33.57.991,empathy_intonation_perc_control,2024.2.4,Win32,60.24096386,5e7f4d2ad29f7560f032abb9,68817205a84113384fffdfe3,68820bbf60bb09d464f4cf8b,,,,,,,,,,,,./stim/wavs/castilian_mismatch_interrogative-total-yn_Mi-tia-odia-la-lluvia.wav,1,,,243.4166,256.1056,1,1,12.175,,0,70,70,28,1,29,0,castilian,,,,,,,,,,,,,,,,,,,,,,,,,,,,,,,,,,,,,,,,,,,,,,,,,,,,,,,,
,,,,,,,,,5e7f4d2ad29f7560f032abb9,Spanish,13 or older,click here to respond,click here to respond,2025-07-24_06h33.57.991,empathy_intonation_perc_control,2024.2.4,Win32,60.24096386,5e7f4d2ad29f7560f032abb9,68817205a84113384fffdfe3,68820bbf60bb09d464f4cf8b,,,,,,,,,,,,./stim/wavs/puertorican_mismatch_interrogative-total-yn_El-nino-oye-el-rio.wav,1,,,256.108,266.4649,0,0,9.8451,,0,71,71,40,1,41,1,puertorican,,,,,,,,,,,,,,,,,,,,,,,,,,,,,,,,,,,,,,,,,,,,,,,,,,,,,,,,
,,,,,,,,,5e7f4d2ad29f7560f032abb9,Spanish,13 or older,click here to respond,click here to respond,2025-07-24_06h33.57.991,empathy_intonation_perc_control,2024.2.4,Win32,60.24096386,5e7f4d2ad29f7560f032abb9,68817205a84113384fffdfe3,68820bbf60bb09d464f4cf8b,,,,,,,,,,,,./stim/wavs/castilian_match_declarative-broad-focus_Manuela-vende-el-carro.wav,0,,,266.4655,278.7461,0,1,11.7644,,0,72,72,46,1,47,0,castilian,,,,,,,,,,,,,,,,,,,,,,,,,,,,,,,,,,,,,,,,,,,,,,,,,,,,,,,,
,,,,,,,,,5e7f4d2ad29f7560f032abb9,Spanish,13 or older,click here to respond,click here to respond,2025-07-24_06h33.57.991,empathy_intonation_perc_control,2024.2.4,Win32,60.24096386,5e7f4d2ad29f7560f032abb9,68817205a84113384fffdfe3,68820bbf60bb09d464f4cf8b,,,,,,,,,,,,./stim/wavs/cuban_mismatch_declarative-broad-focus_El-bebe-comia-muy-bien.wav,0,,,278.7467,288.8248,0,1,9.5474,,0,73,73,73,1,74,0,cuban,,,,,,,,,,,,,,,,,,,,,,,,,,,,,,,,,,,,,,,,,,,,,,,,,,,,,,,,
,,,,,,,,,5e7f4d2ad29f7560f032abb9,Spanish,13 or older,click here to respond,click here to respond,2025-07-24_06h33.57.991,empathy_intonation_perc_control,2024.2.4,Win32,60.24096386,5e7f4d2ad29f7560f032abb9,68817205a84113384fffdfe3,68820bbf60bb09d464f4cf8b,,,,,,,,,,,,./stim/wavs/puertorican_match_declarative-broad-focus_Daniel-iba-a-Bolivia.wav,0,,,288.8259,291.9337,0,1,2.5692,,0,74,74,63,1,64,0,puertorican,,,,,,,,,,,,,,,,,,,,,,,,,,,,,,,,,,,,,,,,,,,,,,,,,,,,,,,,
,,,,,,,,,5e7f4d2ad29f7560f032abb9,Spanish,13 or older,click here to respond,click here to respond,2025-07-24_06h33.57.991,empathy_intonation_perc_control,2024.2.4,Win32,60.24096386,5e7f4d2ad29f7560f032abb9,68817205a84113384fffdfe3,68820bbf60bb09d464f4cf8b,,,,,,,,,,,,./stim/wavs/cuban_match_declarative-broad-focus_Ana-lleva-el-abrigo.wav,0,,,291.9366,294.6774,0,1,2.2094,,0,75,75,50,1,51,0,cuban,,,,,,,,,,,,,,,,,,,,,,,,,,,,,,,,,,,,,,,,,,,,,,,,,,,,,,,,
,,,,,,,,,5e7f4d2ad29f7560f032abb9,Spanish,13 or older,click here to respond,click here to respond,2025-07-24_06h33.57.991,empathy_intonation_perc_control,2024.2.4,Win32,60.24096386,5e7f4d2ad29f7560f032abb9,68817205a84113384fffdfe3,68820bbf60bb09d464f4cf8b,,,,,,,,,,,,./stim/wavs/castilian_match_interrogative-total-yn_Emilio-ama-la-marcha.wav,1,,,294.678,297.1052,1,1,1.9041,,0,76,76,1,1,2,0,castilian,,,,,,,,,,,,,,,,,,,,,,,,,,,,,,,,,,,,,,,,,,,,,,,,,,,,,,,,
,,,,,,,,,5e7f4d2ad29f7560f032abb9,Spanish,13 or older,click here to respond,click here to respond,2025-07-24_06h33.57.991,empathy_intonation_perc_control,2024.2.4,Win32,60.24096386,5e7f4d2ad29f7560f032abb9,68817205a84113384fffdfe3,68820bbf60bb09d464f4cf8b,,,,,,,,,,,,./stim/wavs/mexican_mismatch_interrogative-total-yn_El-nino-oye-el-rio.wav,1,,,297.106,300.9601,1,1,3.3309,,0,77,77,35,1,36,0,mexican,,,,,,,,,,,,,,,,,,,,,,,,,,,,,,,,,,,,,,,,,,,,,,,,,,,,,,,,
,,,,,,,,,5e7f4d2ad29f7560f032abb9,Spanish,13 or older,click here to respond,click here to respond,2025-07-24_06h33.57.991,empathy_intonation_perc_control,2024.2.4,Win32,60.24096386,5e7f4d2ad29f7560f032abb9,68817205a84113384fffdfe3,68820bbf60bb09d464f4cf8b,,,,,,,,,,,,./stim/wavs/puertorican_match_interrogative-total-yn_Ana-lleva-el-abrigo.wav,1,,,300.9608,304.3155,1,1,2.8335,,0,78,78,18,1,19,1,puertorican,,,,,,,,,,,,,,,,,,,,,,,,,,,,,,,,,,,,,,,,,,,,,,,,,,,,,,,,
,,,,,,,,,5e7f4d2ad29f7560f032abb9,Spanish,13 or older,click here to respond,click here to respond,2025-07-24_06h33.57.991,empathy_intonation_perc_control,2024.2.4,Win32,60.24096386,5e7f4d2ad29f7560f032abb9,68817205a84113384fffdfe3,68820bbf60bb09d464f4cf8b,,,,,,,,,,,,./stim/wavs/mexican_match_declarative-broad-focus_David-leia-el-libro.wav,0,,,304.3171,306.8841,0,1,2.0226,,0,79,79,58,1,59,0,mexican,,,,,,,,,,,,,,,,,,,,,,,,,,,,,,,,,,,,,,,,,,,,,,,,,,,,,,,,
,,,,,,,,,5e7f4d2ad29f7560f032abb9,Spanish,13 or older,click here to respond,click here to respond,2025-07-24_06h33.57.991,empathy_intonation_perc_control,2024.2.4,Win32,60.24096386,5e7f4d2ad29f7560f032abb9,68817205a84113384fffdfe3,68820bbf60bb09d464f4cf8b,,,,,,,,,,,,./stim/wavs/puertorican_match_declarative-broad-focus_David-leia-el-libro.wav,0,,,306.8856,310.1147,0,1,2.6863,,0,80,80,64,1,65,0,puertorican,,,,,,,,,,,,,,,,,,,,,,,,,,,,,,,,,,,,,,,,,,,,,,,,,,,,,,,,
,,,,,,,,,5e7f4d2ad29f7560f032abb9,Spanish,13 or older,click here to respond,click here to respond,2025-07-24_06h33.57.991,empathy_intonation_perc_control,2024.2.4,Win32,60.24096386,5e7f4d2ad29f7560f032abb9,68817205a84113384fffdfe3,68820bbf60bb09d464f4cf8b,,,,,,,,,,,,./stim/wavs/mexican_match_interrogative-total-yn_Marta-abre-el-regalo.wav,1,,,310.1174,312.6583,1,1,2.0235,,0,81,81,17,1,18,0,mexican,,,,,,,,,,,,,,,,,,,,,,,,,,,,,,,,,,,,,,,,,,,,,,,,,,,,,,,,
,,,,,,,,,5e7f4d2ad29f7560f032abb9,Spanish,13 or older,click here to respond,click here to respond,2025-07-24_06h33.57.991,empathy_intonation_perc_control,2024.2.4,Win32,60.24096386,5e7f4d2ad29f7560f032abb9,68817205a84113384fffdfe3,68820bbf60bb09d464f4cf8b,,,,,,,,,,,,./stim/wavs/cuban_match_interrogative-total-yn_Manuela-vende-el-carro.wav,1,,,312.6591,316.4485,0,0,3.2699,,0,82,82,8,1,9,1,cuban,,,,,,,,,,,,,,,,,,,,,,,,,,,,,,,,,,,,,,,,,,,,,,,,,,,,,,,,
,,,,,,,,,5e7f4d2ad29f7560f032abb9,Spanish,13 or older,click here to respond,click here to respond,2025-07-24_06h33.57.991,empathy_intonation_perc_control,2024.2.4,Win32,60.24096386,5e7f4d2ad29f7560f032abb9,68817205a84113384fffdfe3,68820bbf60bb09d464f4cf8b,,,,,,,,,,,,./stim/wavs/cuban_mismatch_interrogative-total-yn_El-hombre-mira-la-luna.wav,1,,,316.4509,318.9419,0,0,1.9663,,0,83,83,29,1,30,1,cuban,,,,,,,,,,,,,,,,,,,,,,,,,,,,,,,,,,,,,,,,,,,,,,,,,,,,,,,,
,,,,,,,,,5e7f4d2ad29f7560f032abb9,Spanish,13 or older,click here to respond,click here to respond,2025-07-24_06h33.57.991,empathy_intonation_perc_control,2024.2.4,Win32,60.24096386,5e7f4d2ad29f7560f032abb9,68817205a84113384fffdfe3,68820bbf60bb09d464f4cf8b,,,,,,,,,,,,./stim/wavs/mexican_match_interrogative-total-yn_Daniel-iba-a-Bolivia.wav,1,,,318.9425,321.6239,1,1,2.1609,,0,84,84,13,1,14,0,mexican,,,,,,,,,,,,,,,,,,,,,,,,,,,,,,,,,,,,,,,,,,,,,,,,,,,,,,,,
,,,,,,,,,5e7f4d2ad29f7560f032abb9,Spanish,13 or older,click here to respond,click here to respond,2025-07-24_06h33.57.991,empathy_intonation_perc_control,2024.2.4,Win32,60.24096386,5e7f4d2ad29f7560f032abb9,68817205a84113384fffdfe3,68820bbf60bb09d464f4cf8b,,,,,,,,,,,,./stim/wavs/castilian_match_interrogative-total-yn_Marta-abre-el-regalo.wav,1,,,321.6246,324.3306,1,1,2.1879,,0,85,85,5,1,6,0,castilian,,,,,,,,,,,,,,,,,,,,,,,,,,,,,,,,,,,,,,,,,,,,,,,,,,,,,,,,
,,,,,,,,,5e7f4d2ad29f7560f032abb9,Spanish,13 or older,click here to respond,click here to respond,2025-07-24_06h33.57.991,empathy_intonation_perc_control,2024.2.4,Win32,60.24096386,5e7f4d2ad29f7560f032abb9,68817205a84113384fffdfe3,68820bbf60bb09d464f4cf8b,,,,,,,,,,,,./stim/wavs/mexican_match_declarative-broad-focus_Ana-lleva-el-abrigo.wav,0,,,324.3335,326.6637,0,1,1.8198,,0,86,86,56,1,57,0,mexican,,,,,,,,,,,,,,,,,,,,,,,,,,,,,,,,,,,,,,,,,,,,,,,,,,,,,,,,
,,,,,,,,,5e7f4d2ad29f7560f032abb9,Spanish,13 or older,click here to respond,click here to respond,2025-07-24_06h33.57.991,empathy_intonation_perc_control,2024.2.4,Win32,60.24096386,5e7f4d2ad29f7560f032abb9,68817205a84113384fffdfe3,68820bbf60bb09d464f4cf8b,,,,,,,,,,,,./stim/wavs/cuban_mismatch_declarative-broad-focus_El-hombre-mira-la-luna.wav,0,,,326.6664,330.0963,0,1,2.9037,,0,87,87,74,1,75,0,cuban,,,,,,,,,,,,,,,,,,,,,,,,,,,,,,,,,,,,,,,,,,,,,,,,,,,,,,,,
,,,,,,,"Great! Now we will move on. The next task consists of about 60 trials, in each of which you will see a string of letters. 
  
  Your task is to decide whether this is a real Spanish word or not.", (press the spacebar to continue),5e7f4d2ad29f7560f032abb9,Spanish,13 or older,click here to respond,click here to respond,2025-07-24_06h33.57.991,empathy_intonation_perc_control,2024.2.4,Win32,60.24096386,5e7f4d2ad29f7560f032abb9,68817205a84113384fffdfe3,68820bbf60bb09d464f4cf8b,,,,,,,,,,,,,,,,,,,,,,,,,,,,,,330.1091,368.2447,0,0,0,0,1,,,,,,,,,,,,,,,,,,,,,,,,,,,,,,,,,,,,,,,,,,,,,,,,,
,,,,,,,"If you think it is an existing Spanish word, you type '1' (for 'REAL'), and if you think it is not an existing Spanish word, you type '0' (for 'FAKE').", (press the spacebar to continue),5e7f4d2ad29f7560f032abb9,Spanish,13 or older,click here to respond,click here to respond,2025-07-24_06h33.57.991,empathy_intonation_perc_control,2024.2.4,Win32,60.24096386,5e7f4d2ad29f7560f032abb9,68817205a84113384fffdfe3,68820bbf60bb09d464f4cf8b,,,,,,,,,,,,,,,,,,,,,,,,,,,,,,368.2501,370.4182,0,1,1,1,1,,,,,,,,,,,,,,,,,,,,,,,,,,,,,,,,,,,,,,,,,,,,,,,,,
,,,,,,,"If you are sure that the word exists, even though you don’t know its exact meaning, you may still respond '1' (REAL). 
  
  But if you are not sure if it is an existing word, you should respond '0' (FAKE).
  
  Let's do a practice round...", (press the spacebar to continue),5e7f4d2ad29f7560f032abb9,Spanish,13 or older,click here to respond,click here to respond,2025-07-24_06h33.57.991,empathy_intonation_perc_control,2024.2.4,Win32,60.24096386,5e7f4d2ad29f7560f032abb9,68817205a84113384fffdfe3,68820bbf60bb09d464f4cf8b,,,,,,,,,,,,,,,,,,,,,,,,,,,,,,370.4211,371.5413,0,2,2,2,1,,,,,,,,,,,,,,,,,,,,,,,,,,,,,,,,,,,,,,,,,,,,,,,,,
,,,,,,,,,5e7f4d2ad29f7560f032abb9,Spanish,13 or older,click here to respond,click here to respond,2025-07-24_06h33.57.991,empathy_intonation_perc_control,2024.2.4,Win32,60.24096386,5e7f4d2ad29f7560f032abb9,68817205a84113384fffdfe3,68820bbf60bb09d464f4cf8b,,,,,,,,,,,,,0,,,,,,,,,,,,,,,,,,,,,,,,371.5515,375.1929,0,1,3.1048,,375.1942,376.1834,0,0,0,0,1,0,depiste,REAL,FAKE,,,,,,,,,,,,,,,,,,,,,,,,,,,,,,,,
,,,,,,,,,5e7f4d2ad29f7560f032abb9,Spanish,13 or older,click here to respond,click here to respond,2025-07-24_06h33.57.991,empathy_intonation_perc_control,2024.2.4,Win32,60.24096386,5e7f4d2ad29f7560f032abb9,68817205a84113384fffdfe3,68820bbf60bb09d464f4cf8b,,,,,,,,,,,,,1,,,,,,,,,,,,,,,,,,,,,,,,376.1852,378.1405,1,1,1.4092,,378.1407,379.1403,0,1,1,1,1,0,sí,REAL,FAKE,,,,,,,,,,,,,,,,,,,,,,,,,,,,,,,,
,,,,,,,,,5e7f4d2ad29f7560f032abb9,Spanish,13 or older,click here to respond,click here to respond,2025-07-24_06h33.57.991,empathy_intonation_perc_control,2024.2.4,Win32,60.24096386,5e7f4d2ad29f7560f032abb9,68817205a84113384fffdfe3,68820bbf60bb09d464f4cf8b,,,,,,,,,,,,,0,,,,,,,,,,,,,,,,,,,,,,,,379.1431,380.5069,0,1,0.8311,,380.5071,381.5067,0,2,2,2,1,0,coné,REAL,FAKE,,,,,,,,,,,,,,,,,,,,,,,,,,,,,,,,
,,,,,,,,,5e7f4d2ad29f7560f032abb9,Spanish,13 or older,click here to respond,click here to respond,2025-07-24_06h33.57.991,empathy_intonation_perc_control,2024.2.4,Win32,60.24096386,5e7f4d2ad29f7560f032abb9,68817205a84113384fffdfe3,68820bbf60bb09d464f4cf8b,,,,,,,,,,,,,0,,,,,,,,,,,,,,,,,,,,,,,,381.509,382.8063,0,1,0.7672,,382.8066,383.8062,0,3,3,3,1,0,calpar,REAL,FAKE,,,,,,,,,,,,,,,,,,,,,,,,,,,,,,,,
,,,,,,,,,5e7f4d2ad29f7560f032abb9,Spanish,13 or older,click here to respond,click here to respond,2025-07-24_06h33.57.991,empathy_intonation_perc_control,2024.2.4,Win32,60.24096386,5e7f4d2ad29f7560f032abb9,68817205a84113384fffdfe3,68820bbf60bb09d464f4cf8b,,,,,,,,,,,,,0,,,,,,,,,,,,,,,,,,,,,,,,383.8089,385.2896,1,0,0.9484,,385.2923,386.2893,0,4,4,4,1,0,joten,REAL,FAKE,,,,,,,,,,,,,,,,,,,,,,,,,,,,,,,,
,,,,,,,,,5e7f4d2ad29f7560f032abb9,Spanish,13 or older,click here to respond,click here to respond,2025-07-24_06h33.57.991,empathy_intonation_perc_control,2024.2.4,Win32,60.24096386,5e7f4d2ad29f7560f032abb9,68817205a84113384fffdfe3,68820bbf60bb09d464f4cf8b,,,,,,,,,,,,,1,,,,,,,,,,,,,,,,,,,,,,,,386.2913,387.6227,1,1,0.7989,,387.6237,388.6223,0,5,5,5,1,0,sacapuntas,REAL,FAKE,,,,,,,,,,,,,,,,,,,,,,,,,,,,,,,,
,,,,,,,,,5e7f4d2ad29f7560f032abb9,Spanish,13 or older,click here to respond,click here to respond,2025-07-24_06h33.57.991,empathy_intonation_perc_control,2024.2.4,Win32,60.24096386,5e7f4d2ad29f7560f032abb9,68817205a84113384fffdfe3,68820bbf60bb09d464f4cf8b,,,,,,,,,,,,,0,,,,,,,,,,,,,,,,,,,,,,,,388.6247,390.5895,1,0,1.4275,,390.5914,391.5903,0,6,6,6,1,0,priba,REAL,FAKE,,,,,,,,,,,,,,,,,,,,,,,,,,,,,,,,
,,,,,,,,,5e7f4d2ad29f7560f032abb9,Spanish,13 or older,click here to respond,click here to respond,2025-07-24_06h33.57.991,empathy_intonation_perc_control,2024.2.4,Win32,60.24096386,5e7f4d2ad29f7560f032abb9,68817205a84113384fffdfe3,68820bbf60bb09d464f4cf8b,,,,,,,,,,,,,0,,,,,,,,,,,,,,,,,,,,,,,,391.5931,392.8554,1,0,0.7062,,392.8556,393.8551,0,7,7,7,1,0,pelasula,REAL,FAKE,,,,,,,,,,,,,,,,,,,,,,,,,,,,,,,,
,,,,,,,,,5e7f4d2ad29f7560f032abb9,Spanish,13 or older,click here to respond,click here to respond,2025-07-24_06h33.57.991,empathy_intonation_perc_control,2024.2.4,Win32,60.24096386,5e7f4d2ad29f7560f032abb9,68817205a84113384fffdfe3,68820bbf60bb09d464f4cf8b,,,,,,,,,,,,,1,,,,,,,,,,,,,,,,,,,,,,,,393.8573,394.9717,1,1,0.5861,,394.9729,395.9714,0,8,8,8,1,0,bien,REAL,FAKE,,,,,,,,,,,,,,,,,,,,,,,,,,,,,,,,
,,,,,,,,,5e7f4d2ad29f7560f032abb9,Spanish,13 or older,click here to respond,click here to respond,2025-07-24_06h33.57.991,empathy_intonation_perc_control,2024.2.4,Win32,60.24096386,5e7f4d2ad29f7560f032abb9,68817205a84113384fffdfe3,68820bbf60bb09d464f4cf8b,,,,,,,,,,,,,1,,,,,,,,,,,,,,,,,,,,,,,,395.9737,396.9383,0,0,0.4328,,396.9398,397.9396,0,9,9,9,1,0,casa,REAL,FAKE,,,,,,,,,,,,,,,,,,,,,,,,,,,,,,,,
,,,,,,,,,5e7f4d2ad29f7560f032abb9,Spanish,13 or older,click here to respond,click here to respond,2025-07-24_06h33.57.991,empathy_intonation_perc_control,2024.2.4,Win32,60.24096386,5e7f4d2ad29f7560f032abb9,68817205a84113384fffdfe3,68820bbf60bb09d464f4cf8b,,,,,,,,,,,,,0,,,,,,,,,,,,,,,,,,,,,,,,397.9425,399.3977,1,0,0.9057,,399.3979,400.3891,0,10,10,10,1,0,lejo,REAL,FAKE,,,,,,,,,,,,,,,,,,,,,,,,,,,,,,,,
,,,,,,,,,5e7f4d2ad29f7560f032abb9,Spanish,13 or older,click here to respond,click here to respond,2025-07-24_06h33.57.991,empathy_intonation_perc_control,2024.2.4,Win32,60.24096386,5e7f4d2ad29f7560f032abb9,68817205a84113384fffdfe3,68820bbf60bb09d464f4cf8b,,,,,,,,,,,,,0,,,,,,,,,,,,,,,,,,,,,,,,400.3918,401.4881,1,0,0.5665,,401.4883,402.4819,0,11,11,11,1,0,pretantas,REAL,FAKE,,,,,,,,,,,,,,,,,,,,,,,,,,,,,,,,
,,,,,,,,,5e7f4d2ad29f7560f032abb9,Spanish,13 or older,click here to respond,click here to respond,2025-07-24_06h33.57.991,empathy_intonation_perc_control,2024.2.4,Win32,60.24096386,5e7f4d2ad29f7560f032abb9,68817205a84113384fffdfe3,68820bbf60bb09d464f4cf8b,,,,,,,,,,,,,,,,,,,,,,,,,,,,,,,,,,,,,,,,,,,,,,,,,,,,,,402.4822,403.7212,,,,,,,,,,,,,,,,,,,,,,,,,,,,,,
,,,,,,,,,5e7f4d2ad29f7560f032abb9,Spanish,13 or older,click here to respond,click here to respond,2025-07-24_06h33.57.991,empathy_intonation_perc_control,2024.2.4,Win32,60.24096386,5e7f4d2ad29f7560f032abb9,68817205a84113384fffdfe3,68820bbf60bb09d464f4cf8b,,,,,,,,,,,,,1,,,,,,,,,,,,,,,,,,,,,,,,,,,,,,,,,,,,,2,pellizcar,,,,,403.7433,405.2096,1,1,0.9309,,0,0,0,1,1,REAL,FAKE,,,,,,,,,,,,,,,,,
,,,,,,,,,5e7f4d2ad29f7560f032abb9,Spanish,13 or older,click here to respond,click here to respond,2025-07-24_06h33.57.991,empathy_intonation_perc_control,2024.2.4,Win32,60.24096386,5e7f4d2ad29f7560f032abb9,68817205a84113384fffdfe3,68820bbf60bb09d464f4cf8b,,,,,,,,,,,,,0,,,,,,,,,,,,,,,,,,,,,,,,,,,,,,,,,,,,,79,tropaje,,,,,405.2116,407.7328,0,1,1.9986,,0,1,1,78,1,REAL,FAKE,,,,,,,,,,,,,,,,,
,,,,,,,,,5e7f4d2ad29f7560f032abb9,Spanish,13 or older,click here to respond,click here to respond,2025-07-24_06h33.57.991,empathy_intonation_perc_control,2024.2.4,Win32,60.24096386,5e7f4d2ad29f7560f032abb9,68817205a84113384fffdfe3,68820bbf60bb09d464f4cf8b,,,,,,,,,,,,,1,,,,,,,,,,,,,,,,,,,,,,,,,,,,,,,,,,,,,85,laúd,,,,,407.7345,409.0648,1,1,0.8023,,0,2,2,84,1,REAL,FAKE,,,,,,,,,,,,,,,,,
,,,,,,,,,5e7f4d2ad29f7560f032abb9,Spanish,13 or older,click here to respond,click here to respond,2025-07-24_06h33.57.991,empathy_intonation_perc_control,2024.2.4,Win32,60.24096386,5e7f4d2ad29f7560f032abb9,68817205a84113384fffdfe3,68820bbf60bb09d464f4cf8b,,,,,,,,,,,,,1,,,,,,,,,,,,,,,,,,,,,,,,,,,,,,,,,,,,,86,barato,,,,,409.066,410.32,1,1,0.7095,,0,3,3,85,1,REAL,FAKE,,,,,,,,,,,,,,,,,
,,,,,,,,,5e7f4d2ad29f7560f032abb9,Spanish,13 or older,click here to respond,click here to respond,2025-07-24_06h33.57.991,empathy_intonation_perc_control,2024.2.4,Win32,60.24096386,5e7f4d2ad29f7560f032abb9,68817205a84113384fffdfe3,68820bbf60bb09d464f4cf8b,,,,,,,,,,,,,0,,,,,,,,,,,,,,,,,,,,,,,,,,,,,,,,,,,,,8,cadeña,,,,,410.3225,411.5709,1,0,0.7023,,0,4,4,7,1,REAL,FAKE,,,,,,,,,,,,,,,,,
,,,,,,,,,5e7f4d2ad29f7560f032abb9,Spanish,13 or older,click here to respond,click here to respond,2025-07-24_06h33.57.991,empathy_intonation_perc_control,2024.2.4,Win32,60.24096386,5e7f4d2ad29f7560f032abb9,68817205a84113384fffdfe3,68820bbf60bb09d464f4cf8b,,,,,,,,,,,,,1,,,,,,,,,,,,,,,,,,,,,,,,,,,,,,,,,,,,,62,flaco,,,,,411.5745,412.7656,0,0,0.6516,,0,5,5,61,1,REAL,FAKE,,,,,,,,,,,,,,,,,
,,,,,,,,,5e7f4d2ad29f7560f032abb9,Spanish,13 or older,click here to respond,click here to respond,2025-07-24_06h33.57.991,empathy_intonation_perc_control,2024.2.4,Win32,60.24096386,5e7f4d2ad29f7560f032abb9,68817205a84113384fffdfe3,68820bbf60bb09d464f4cf8b,,,,,,,,,,,,,0,,,,,,,,,,,,,,,,,,,,,,,,,,,,,,,,,,,,,72,pemición,,,,,412.7681,414.7129,0,1,1.4155,,0,6,6,71,1,REAL,FAKE,,,,,,,,,,,,,,,,,
,,,,,,,,,5e7f4d2ad29f7560f032abb9,Spanish,13 or older,click here to respond,click here to respond,2025-07-24_06h33.57.991,empathy_intonation_perc_control,2024.2.4,Win32,60.24096386,5e7f4d2ad29f7560f032abb9,68817205a84113384fffdfe3,68820bbf60bb09d464f4cf8b,,,,,,,,,,,,,0,,,,,,,,,,,,,,,,,,,,,,,,,,,,,,,,,,,,,47,cartinar,,,,,414.714,417.8649,0,1,2.6087,,0,7,7,46,1,REAL,FAKE,,,,,,,,,,,,,,,,,
,,,,,,,,,5e7f4d2ad29f7560f032abb9,Spanish,13 or older,click here to respond,click here to respond,2025-07-24_06h33.57.991,empathy_intonation_perc_control,2024.2.4,Win32,60.24096386,5e7f4d2ad29f7560f032abb9,68817205a84113384fffdfe3,68820bbf60bb09d464f4cf8b,,,,,,,,,,,,,1,,,,,,,,,,,,,,,,,,,,,,,,,,,,,,,,,,,,,45,jilguero,,,,,417.867,419.9528,1,1,1.5535,,0,8,8,44,1,REAL,FAKE,,,,,,,,,,,,,,,,,
,,,,,,,,,5e7f4d2ad29f7560f032abb9,Spanish,13 or older,click here to respond,click here to respond,2025-07-24_06h33.57.991,empathy_intonation_perc_control,2024.2.4,Win32,60.24096386,5e7f4d2ad29f7560f032abb9,68817205a84113384fffdfe3,68820bbf60bb09d464f4cf8b,,,,,,,,,,,,,1,,,,,,,,,,,,,,,,,,,,,,,,,,,,,,,,,,,,,46,martillo,,,,,419.9563,421.1871,1,1,0.7049,,0,9,9,45,1,REAL,FAKE,,,,,,,,,,,,,,,,,
,,,,,,,,,5e7f4d2ad29f7560f032abb9,Spanish,13 or older,click here to respond,click here to respond,2025-07-24_06h33.57.991,empathy_intonation_perc_control,2024.2.4,Win32,60.24096386,5e7f4d2ad29f7560f032abb9,68817205a84113384fffdfe3,68820bbf60bb09d464f4cf8b,,,,,,,,,,,,,0,,,,,,,,,,,,,,,,,,,,,,,,,,,,,,,,,,,,,21,capillo,,,,,421.1897,422.1685,0,1,0.4435,,0,10,10,20,1,REAL,FAKE,,,,,,,,,,,,,,,,,
,,,,,,,,,5e7f4d2ad29f7560f032abb9,Spanish,13 or older,click here to respond,click here to respond,2025-07-24_06h33.57.991,empathy_intonation_perc_control,2024.2.4,Win32,60.24096386,5e7f4d2ad29f7560f032abb9,68817205a84113384fffdfe3,68820bbf60bb09d464f4cf8b,,,,,,,,,,,,,1,,,,,,,,,,,,,,,,,,,,,,,,,,,,,,,,,,,,,39,torpe,,,,,422.1702,423.5186,1,1,0.8078,,0,11,11,38,1,REAL,FAKE,,,,,,,,,,,,,,,,,
,,,,,,,,,5e7f4d2ad29f7560f032abb9,Spanish,13 or older,click here to respond,click here to respond,2025-07-24_06h33.57.991,empathy_intonation_perc_control,2024.2.4,Win32,60.24096386,5e7f4d2ad29f7560f032abb9,68817205a84113384fffdfe3,68820bbf60bb09d464f4cf8b,,,,,,,,,,,,,1,,,,,,,,,,,,,,,,,,,,,,,,,,,,,,,,,,,,,3,pulmones,,,,,423.5208,424.7684,0,0,0.7143,,0,12,12,2,1,REAL,FAKE,,,,,,,,,,,,,,,,,
,,,,,,,,,5e7f4d2ad29f7560f032abb9,Spanish,13 or older,click here to respond,click here to respond,2025-07-24_06h33.57.991,empathy_intonation_perc_control,2024.2.4,Win32,60.24096386,5e7f4d2ad29f7560f032abb9,68817205a84113384fffdfe3,68820bbf60bb09d464f4cf8b,,,,,,,,,,,,,0,,,,,,,,,,,,,,,,,,,,,,,,,,,,,,,,,,,,,92,click the 0 key.,,,,,424.7741,427.3013,0,1,1.9966,,0,13,13,91,1,REAL,FAKE,,,,,,,,,,,,,,,,,
,,,,,,,,,5e7f4d2ad29f7560f032abb9,Spanish,13 or older,click here to respond,click here to respond,2025-07-24_06h33.57.991,empathy_intonation_perc_control,2024.2.4,Win32,60.24096386,5e7f4d2ad29f7560f032abb9,68817205a84113384fffdfe3,68820bbf60bb09d464f4cf8b,,,,,,,,,,,,,1,,,,,,,,,,,,,,,,,,,,,,,,,,,,,,,,,,,,,7,pésimo,,,,,427.3037,429.0676,1,1,1.231,,0,14,14,6,1,REAL,FAKE,,,,,,,,,,,,,,,,,
,,,,,,,,,5e7f4d2ad29f7560f032abb9,Spanish,13 or older,click here to respond,click here to respond,2025-07-24_06h33.57.991,empathy_intonation_perc_control,2024.2.4,Win32,60.24096386,5e7f4d2ad29f7560f032abb9,68817205a84113384fffdfe3,68820bbf60bb09d464f4cf8b,,,,,,,,,,,,,1,,,,,,,,,,,,,,,,,,,,,,,,,,,,,,,,,,,,,40,alfombra,,,,,429.0697,430.7509,0,0,1.1395,,0,15,15,39,1,REAL,FAKE,,,,,,,,,,,,,,,,,
,,,,,,,,,5e7f4d2ad29f7560f032abb9,Spanish,13 or older,click here to respond,click here to respond,2025-07-24_06h33.57.991,empathy_intonation_perc_control,2024.2.4,Win32,60.24096386,5e7f4d2ad29f7560f032abb9,68817205a84113384fffdfe3,68820bbf60bb09d464f4cf8b,,,,,,,,,,,,,0,,,,,,,,,,,,,,,,,,,,,,,,,,,,,,,,,,,,,10,antar,,,,,430.7528,432.4341,0,1,1.1501,,0,16,16,9,1,REAL,FAKE,,,,,,,,,,,,,,,,,
,,,,,,,,,5e7f4d2ad29f7560f032abb9,Spanish,13 or older,click here to respond,click here to respond,2025-07-24_06h33.57.991,empathy_intonation_perc_control,2024.2.4,Win32,60.24096386,5e7f4d2ad29f7560f032abb9,68817205a84113384fffdfe3,68820bbf60bb09d464f4cf8b,,,,,,,,,,,,,1,,,,,,,,,,,,,,,,,,,,,,,,,,,,,,,,,,,,,75,yacer,,,,,432.436,434.1838,0,0,1.207,,0,17,17,74,1,REAL,FAKE,,,,,,,,,,,,,,,,,
,,,,,,,,,5e7f4d2ad29f7560f032abb9,Spanish,13 or older,click here to respond,click here to respond,2025-07-24_06h33.57.991,empathy_intonation_perc_control,2024.2.4,Win32,60.24096386,5e7f4d2ad29f7560f032abb9,68817205a84113384fffdfe3,68820bbf60bb09d464f4cf8b,,,,,,,,,,,,,1,,,,,,,,,,,,,,,,,,,,,,,,,,,,,,,,,,,,,43,canela,,,,,434.1856,435.4672,1,1,0.7604,,0,18,18,42,1,REAL,FAKE,,,,,,,,,,,,,,,,,
,,,,,,,,,5e7f4d2ad29f7560f032abb9,Spanish,13 or older,click here to respond,click here to respond,2025-07-24_06h33.57.991,empathy_intonation_perc_control,2024.2.4,Win32,60.24096386,5e7f4d2ad29f7560f032abb9,68817205a84113384fffdfe3,68820bbf60bb09d464f4cf8b,,,,,,,,,,,,,1,,,,,,,,,,,,,,,,,,,,,,,,,,,,,,,,,,,,,71,polvoriento,,,,,435.4696,437.0838,1,1,1.0713,,0,19,19,70,1,REAL,FAKE,,,,,,,,,,,,,,,,,
,,,,,,,,,5e7f4d2ad29f7560f032abb9,Spanish,13 or older,click here to respond,click here to respond,2025-07-24_06h33.57.991,empathy_intonation_perc_control,2024.2.4,Win32,60.24096386,5e7f4d2ad29f7560f032abb9,68817205a84113384fffdfe3,68820bbf60bb09d464f4cf8b,,,,,,,,,,,,,0,,,,,,,,,,,,,,,,,,,,,,,,,,,,,,,,,,,,,18,arsa,,,,,437.0876,438.3,1,0,0.6571,,0,20,20,17,1,REAL,FAKE,,,,,,,,,,,,,,,,,
,,,,,,,,,5e7f4d2ad29f7560f032abb9,Spanish,13 or older,click here to respond,click here to respond,2025-07-24_06h33.57.991,empathy_intonation_perc_control,2024.2.4,Win32,60.24096386,5e7f4d2ad29f7560f032abb9,68817205a84113384fffdfe3,68820bbf60bb09d464f4cf8b,,,,,,,,,,,,,0,,,,,,,,,,,,,,,,,,,,,,,,,,,,,,,,,,,,,27,acutación,,,,,438.302,439.4667,1,0,0.6302,,0,21,21,26,1,REAL,FAKE,,,,,,,,,,,,,,,,,
,,,,,,,,,5e7f4d2ad29f7560f032abb9,Spanish,13 or older,click here to respond,click here to respond,2025-07-24_06h33.57.991,empathy_intonation_perc_control,2024.2.4,Win32,60.24096386,5e7f4d2ad29f7560f032abb9,68817205a84113384fffdfe3,68820bbf60bb09d464f4cf8b,,,,,,,,,,,,,1,,,,,,,,,,,,,,,,,,,,,,,,,,,,,,,,,,,,,88,acantilado,,,,,439.4687,440.4167,0,0,0.4086,,0,22,22,87,1,REAL,FAKE,,,,,,,,,,,,,,,,,
,,,,,,,,,5e7f4d2ad29f7560f032abb9,Spanish,13 or older,click here to respond,click here to respond,2025-07-24_06h33.57.991,empathy_intonation_perc_control,2024.2.4,Win32,60.24096386,5e7f4d2ad29f7560f032abb9,68817205a84113384fffdfe3,68820bbf60bb09d464f4cf8b,,,,,,,,,,,,,0,,,,,,,,,,,,,,,,,,,,,,,,,,,,,,,,,,,,,66,hacido,,,,,440.4184,441.6665,1,0,0.7095,,0,23,23,65,1,REAL,FAKE,,,,,,,,,,,,,,,,,
,,,,,,,,,5e7f4d2ad29f7560f032abb9,Spanish,13 or older,click here to respond,click here to respond,2025-07-24_06h33.57.991,empathy_intonation_perc_control,2024.2.4,Win32,60.24096386,5e7f4d2ad29f7560f032abb9,68817205a84113384fffdfe3,68820bbf60bb09d464f4cf8b,,,,,,,,,,,,,1,,,,,,,,,,,,,,,,,,,,,,,,,,,,,,,,,,,,,59,besar,,,,,441.6683,443.1829,0,0,0.9803,,0,24,24,58,1,REAL,FAKE,,,,,,,,,,,,,,,,,
,,,,,,,,,5e7f4d2ad29f7560f032abb9,Spanish,13 or older,click here to respond,click here to respond,2025-07-24_06h33.57.991,empathy_intonation_perc_control,2024.2.4,Win32,60.24096386,5e7f4d2ad29f7560f032abb9,68817205a84113384fffdfe3,68820bbf60bb09d464f4cf8b,,,,,,,,,,,,,1,,,,,,,,,,,,,,,,,,,,,,,,,,,,,,,,,,,,,38,estornudar,,,,,443.1848,444.9492,1,1,1.2345,,0,25,25,37,1,REAL,FAKE,,,,,,,,,,,,,,,,,
,,,,,,,,,5e7f4d2ad29f7560f032abb9,Spanish,13 or older,click here to respond,click here to respond,2025-07-24_06h33.57.991,empathy_intonation_perc_control,2024.2.4,Win32,60.24096386,5e7f4d2ad29f7560f032abb9,68817205a84113384fffdfe3,68820bbf60bb09d464f4cf8b,,,,,,,,,,,,,1,,,,,,,,,,,,,,,,,,,,,,,,,,,,,,,,,,,,,80,hormiga,,,,,444.9511,449.0322,0,0,3.5489,,0,26,26,79,1,REAL,FAKE,,,,,,,,,,,,,,,,,
,,,,,,,,,5e7f4d2ad29f7560f032abb9,Spanish,13 or older,click here to respond,click here to respond,2025-07-24_06h33.57.991,empathy_intonation_perc_control,2024.2.4,Win32,60.24096386,5e7f4d2ad29f7560f032abb9,68817205a84113384fffdfe3,68820bbf60bb09d464f4cf8b,,,,,,,,,,,,,0,,,,,,,,,,,,,,,,,,,,,,,,,,,,,,,,,,,,,58,plaudir,,,,,449.034,451.4652,1,0,1.8971,,0,27,27,57,1,REAL,FAKE,,,,,,,,,,,,,,,,,
,,,,,,,,,5e7f4d2ad29f7560f032abb9,Spanish,13 or older,click here to respond,click here to respond,2025-07-24_06h33.57.991,empathy_intonation_perc_control,2024.2.4,Win32,60.24096386,5e7f4d2ad29f7560f032abb9,68817205a84113384fffdfe3,68820bbf60bb09d464f4cf8b,,,,,,,,,,,,,1,,,,,,,,,,,,,,,,,,,,,,,,,,,,,,,,,,,,,51,candado,,,,,451.4671,454.4648,1,1,2.462,,0,28,28,50,1,REAL,FAKE,,,,,,,,,,,,,,,,,
,,,,,,,,,5e7f4d2ad29f7560f032abb9,Spanish,13 or older,click here to respond,click here to respond,2025-07-24_06h33.57.991,empathy_intonation_perc_control,2024.2.4,Win32,60.24096386,5e7f4d2ad29f7560f032abb9,68817205a84113384fffdfe3,68820bbf60bb09d464f4cf8b,,,,,,,,,,,,,1,,,,,,,,,,,,,,,,,,,,,,,,,,,,,,,,,,,,,57,tacaño,,,,,454.4674,457.1145,1,1,2.1145,,0,29,29,56,1,REAL,FAKE,,,,,,,,,,,,,,,,,
,,,,,,,,,5e7f4d2ad29f7560f032abb9,Spanish,13 or older,click here to respond,click here to respond,2025-07-24_06h33.57.991,empathy_intonation_perc_control,2024.2.4,Win32,60.24096386,5e7f4d2ad29f7560f032abb9,68817205a84113384fffdfe3,68820bbf60bb09d464f4cf8b,,,,,,,,,,,,,1,,,,,,,,,,,,,,,,,,,,,,,,,,,,,,,,,,,,,89,prisa,,,,,457.1165,459.6309,0,0,1.9821,,0,30,30,88,1,REAL,FAKE,,,,,,,,,,,,,,,,,
,,,,,,,,,5e7f4d2ad29f7560f032abb9,Spanish,13 or older,click here to respond,click here to respond,2025-07-24_06h33.57.991,empathy_intonation_perc_control,2024.2.4,Win32,60.24096386,5e7f4d2ad29f7560f032abb9,68817205a84113384fffdfe3,68820bbf60bb09d464f4cf8b,,,,,,,,,,,,,0,,,,,,,,,,,,,,,,,,,,,,,,,,,,,,,,,,,,,87,grodo,,,,,459.6327,460.9807,1,0,0.8167,,0,31,31,86,1,REAL,FAKE,,,,,,,,,,,,,,,,,
,,,,,,,,,5e7f4d2ad29f7560f032abb9,Spanish,13 or older,click here to respond,click here to respond,2025-07-24_06h33.57.991,empathy_intonation_perc_control,2024.2.4,Win32,60.24096386,5e7f4d2ad29f7560f032abb9,68817205a84113384fffdfe3,68820bbf60bb09d464f4cf8b,,,,,,,,,,,,,1,,,,,,,,,,,,,,,,,,,,,,,,,,,,,,,,,,,,,83,guante,,,,,460.983,463.4573,1,1,1.9345,,0,32,32,82,1,REAL,FAKE,,,,,,,,,,,,,,,,,
,,,,,,,,,5e7f4d2ad29f7560f032abb9,Spanish,13 or older,click here to respond,click here to respond,2025-07-24_06h33.57.991,empathy_intonation_perc_control,2024.2.4,Win32,60.24096386,5e7f4d2ad29f7560f032abb9,68817205a84113384fffdfe3,68820bbf60bb09d464f4cf8b,,,,,,,,,,,,,1,,,,,,,,,,,,,,,,,,,,,,,,,,,,,,,,,,,,,49,ganar,,,,,463.4585,464.6815,0,0,0.687,,0,33,33,48,1,REAL,FAKE,,,,,,,,,,,,,,,,,
,,,,,,,,,5e7f4d2ad29f7560f032abb9,Spanish,13 or older,click here to respond,click here to respond,2025-07-24_06h33.57.991,empathy_intonation_perc_control,2024.2.4,Win32,60.24096386,5e7f4d2ad29f7560f032abb9,68817205a84113384fffdfe3,68820bbf60bb09d464f4cf8b,,,,,,,,,,,,,1,,,,,,,,,,,,,,,,,,,,,,,,,,,,,,,,,,,,,81,pozo,,,,,464.6842,465.8969,0,0,0.6766,,0,34,34,80,1,REAL,FAKE,,,,,,,,,,,,,,,,,
,,,,,,,,,5e7f4d2ad29f7560f032abb9,Spanish,13 or older,click here to respond,click here to respond,2025-07-24_06h33.57.991,empathy_intonation_perc_control,2024.2.4,Win32,60.24096386,5e7f4d2ad29f7560f032abb9,68817205a84113384fffdfe3,68820bbf60bb09d464f4cf8b,,,,,,,,,,,,,1,,,,,,,,,,,,,,,,,,,,,,,,,,,,,,,,,,,,,65,bizcocho,,,,,465.8988,467.2081,0,0,0.7719,,0,35,35,64,1,REAL,FAKE,,,,,,,,,,,,,,,,,
,,,,,,,,,5e7f4d2ad29f7560f032abb9,Spanish,13 or older,click here to respond,click here to respond,2025-07-24_06h33.57.991,empathy_intonation_perc_control,2024.2.4,Win32,60.24096386,5e7f4d2ad29f7560f032abb9,68817205a84113384fffdfe3,68820bbf60bb09d464f4cf8b,,,,,,,,,,,,,0,,,,,,,,,,,,,,,,,,,,,,,,,,,,,,,,,,,,,84,escuto,,,,,467.2089,469.531,1,0,1.7847,,0,36,36,83,1,REAL,FAKE,,,,,,,,,,,,,,,,,
,,,,,,,,,5e7f4d2ad29f7560f032abb9,Spanish,13 or older,click here to respond,click here to respond,2025-07-24_06h33.57.991,empathy_intonation_perc_control,2024.2.4,Win32,60.24096386,5e7f4d2ad29f7560f032abb9,68817205a84113384fffdfe3,68820bbf60bb09d464f4cf8b,,,,,,,,,,,,,1,,,,,,,,,,,,,,,,,,,,,,,,,,,,,,,,,,,,,24,látigo,,,,,469.5353,470.6665,1,1,0.5945,,0,37,37,23,1,REAL,FAKE,,,,,,,,,,,,,,,,,
,,,,,,,,,5e7f4d2ad29f7560f032abb9,Spanish,13 or older,click here to respond,click here to respond,2025-07-24_06h33.57.991,empathy_intonation_perc_control,2024.2.4,Win32,60.24096386,5e7f4d2ad29f7560f032abb9,68817205a84113384fffdfe3,68820bbf60bb09d464f4cf8b,,,,,,,,,,,,,0,,,,,,,,,,,,,,,,,,,,,,,,,,,,,,,,,,,,,42,cadallo,,,,,470.6679,472.0463,0,1,0.8419,,0,38,38,41,1,REAL,FAKE,,,,,,,,,,,,,,,,,
,,,,,,,,,5e7f4d2ad29f7560f032abb9,Spanish,13 or older,click here to respond,click here to respond,2025-07-24_06h33.57.991,empathy_intonation_perc_control,2024.2.4,Win32,60.24096386,5e7f4d2ad29f7560f032abb9,68817205a84113384fffdfe3,68820bbf60bb09d464f4cf8b,,,,,,,,,,,,,1,,,,,,,,,,,,,,,,,,,,,,,,,,,,,,,,,,,,,64,orgulloso,,,,,472.0481,473.6626,1,1,1.0739,,0,39,39,63,1,REAL,FAKE,,,,,,,,,,,,,,,,,
,,,,,,,,,5e7f4d2ad29f7560f032abb9,Spanish,13 or older,click here to respond,click here to respond,2025-07-24_06h33.57.991,empathy_intonation_perc_control,2024.2.4,Win32,60.24096386,5e7f4d2ad29f7560f032abb9,68817205a84113384fffdfe3,68820bbf60bb09d464f4cf8b,,,,,,,,,,,,,0,,,,,,,,,,,,,,,,,,,,,,,,,,,,,,,,,,,,,74,cintro,,,,,473.6645,474.8956,1,0,0.6997,,0,40,40,73,1,REAL,FAKE,,,,,,,,,,,,,,,,,
,,,,,,,,,5e7f4d2ad29f7560f032abb9,Spanish,13 or older,click here to respond,click here to respond,2025-07-24_06h33.57.991,empathy_intonation_perc_control,2024.2.4,Win32,60.24096386,5e7f4d2ad29f7560f032abb9,68817205a84113384fffdfe3,68820bbf60bb09d464f4cf8b,,,,,,,,,,,,,1,,,,,,,,,,,,,,,,,,,,,,,,,,,,,,,,,,,,,26,secuestro,,,,,474.8976,476.3789,0,0,0.942,,0,41,41,25,1,REAL,FAKE,,,,,,,,,,,,,,,,,
,,,,,,,,,5e7f4d2ad29f7560f032abb9,Spanish,13 or older,click here to respond,click here to respond,2025-07-24_06h33.57.991,empathy_intonation_perc_control,2024.2.4,Win32,60.24096386,5e7f4d2ad29f7560f032abb9,68817205a84113384fffdfe3,68820bbf60bb09d464f4cf8b,,,,,,,,,,,,,1,,,,,,,,,,,,,,,,,,,,,,,,,,,,,,,,,,,,,60,matar,,,,,476.3808,477.7133,0,0,0.7845,,0,42,42,59,1,REAL,FAKE,,,,,,,,,,,,,,,,,
,,,,,,,,,5e7f4d2ad29f7560f032abb9,Spanish,13 or older,click here to respond,click here to respond,2025-07-24_06h33.57.991,empathy_intonation_perc_control,2024.2.4,Win32,60.24096386,5e7f4d2ad29f7560f032abb9,68817205a84113384fffdfe3,68820bbf60bb09d464f4cf8b,,,,,,,,,,,,,0,,,,,,,,,,,,,,,,,,,,,,,,,,,,,,,,,,,,,35,rompido,,,,,477.7166,478.9081,0,1,0.6528,,0,43,43,34,1,REAL,FAKE,,,,,,,,,,,,,,,,,
,,,,,,,,,5e7f4d2ad29f7560f032abb9,Spanish,13 or older,click here to respond,click here to respond,2025-07-24_06h33.57.991,empathy_intonation_perc_control,2024.2.4,Win32,60.24096386,5e7f4d2ad29f7560f032abb9,68817205a84113384fffdfe3,68820bbf60bb09d464f4cf8b,,,,,,,,,,,,,0,,,,,,,,,,,,,,,,,,,,,,,,,,,,,,,,,,,,,4,batillón,,,,,478.9093,480.2453,1,0,0.7924,,0,44,44,3,1,REAL,FAKE,,,,,,,,,,,,,,,,,
,,,,,,,,,5e7f4d2ad29f7560f032abb9,Spanish,13 or older,click here to respond,click here to respond,2025-07-24_06h33.57.991,empathy_intonation_perc_control,2024.2.4,Win32,60.24096386,5e7f4d2ad29f7560f032abb9,68817205a84113384fffdfe3,68820bbf60bb09d464f4cf8b,,,,,,,,,,,,,1,,,,,,,,,,,,,,,,,,,,,,,,,,,,,,,,,,,,,9,hacha,,,,,480.2473,482.1284,0,0,1.3415,,0,45,45,8,1,REAL,FAKE,,,,,,,,,,,,,,,,,
,,,,,,,,,5e7f4d2ad29f7560f032abb9,Spanish,13 or older,click here to respond,click here to respond,2025-07-24_06h33.57.991,empathy_intonation_perc_control,2024.2.4,Win32,60.24096386,5e7f4d2ad29f7560f032abb9,68817205a84113384fffdfe3,68820bbf60bb09d464f4cf8b,,,,,,,,,,,,,1,,,,,,,,,,,,,,,,,,,,,,,,,,,,,,,,,,,,,14,yunque,,,,,482.1304,483.4784,0,0,0.8127,,0,46,46,13,1,REAL,FAKE,,,,,,,,,,,,,,,,,
,,,,,,,,,5e7f4d2ad29f7560f032abb9,Spanish,13 or older,click here to respond,click here to respond,2025-07-24_06h33.57.991,empathy_intonation_perc_control,2024.2.4,Win32,60.24096386,5e7f4d2ad29f7560f032abb9,68817205a84113384fffdfe3,68820bbf60bb09d464f4cf8b,,,,,,,,,,,,,1,,,,,,,,,,,,,,,,,,,,,,,,,,,,,,,,,,,,,20,ávido,,,,,483.4807,484.5446,1,1,0.524,,0,47,47,19,1,REAL,FAKE,,,,,,,,,,,,,,,,,
,,,,,,,,,5e7f4d2ad29f7560f032abb9,Spanish,13 or older,click here to respond,click here to respond,2025-07-24_06h33.57.991,empathy_intonation_perc_control,2024.2.4,Win32,60.24096386,5e7f4d2ad29f7560f032abb9,68817205a84113384fffdfe3,68820bbf60bb09d464f4cf8b,,,,,,,,,,,,,1,,,,,,,,,,,,,,,,,,,,,,,,,,,,,,,,,,,,,25,bisagra,,,,,484.5465,486.005,0,0,0.9211,,0,48,48,24,1,REAL,FAKE,,,,,,,,,,,,,,,,,
,,,,,,,,,5e7f4d2ad29f7560f032abb9,Spanish,13 or older,click here to respond,click here to respond,2025-07-24_06h33.57.991,empathy_intonation_perc_control,2024.2.4,Win32,60.24096386,5e7f4d2ad29f7560f032abb9,68817205a84113384fffdfe3,68820bbf60bb09d464f4cf8b,,,,,,,,,,,,,1,,,,,,,,,,,,,,,,,,,,,,,,,,,,,,,,,,,,,12,asesinato,,,,,486.006,487.4649,1,1,0.9273,,0,49,49,11,1,REAL,FAKE,,,,,,,,,,,,,,,,,
,,,,,,,,,5e7f4d2ad29f7560f032abb9,Spanish,13 or older,click here to respond,click here to respond,2025-07-24_06h33.57.991,empathy_intonation_perc_control,2024.2.4,Win32,60.24096386,5e7f4d2ad29f7560f032abb9,68817205a84113384fffdfe3,68820bbf60bb09d464f4cf8b,,,,,,,,,,,,,1,,,,,,,,,,,,,,,,,,,,,,,,,,,,,,,,,,,,,34,aviso,,,,,487.4666,488.6127,1,1,0.6046,,0,50,50,33,1,REAL,FAKE,,,,,,,,,,,,,,,,,
,,,,,,,,,5e7f4d2ad29f7560f032abb9,Spanish,13 or older,click here to respond,click here to respond,2025-07-24_06h33.57.991,empathy_intonation_perc_control,2024.2.4,Win32,60.24096386,5e7f4d2ad29f7560f032abb9,68817205a84113384fffdfe3,68820bbf60bb09d464f4cf8b,,,,,,,,,,,,,1,,,,,,,,,,,,,,,,,,,,,,,,,,,,,,,,,,,,,54,fomentar,,,,,488.6154,489.9113,0,0,0.7432,,0,51,51,53,1,REAL,FAKE,,,,,,,,,,,,,,,,,
,,,,,,,,,5e7f4d2ad29f7560f032abb9,Spanish,13 or older,click here to respond,click here to respond,2025-07-24_06h33.57.991,empathy_intonation_perc_control,2024.2.4,Win32,60.24096386,5e7f4d2ad29f7560f032abb9,68817205a84113384fffdfe3,68820bbf60bb09d464f4cf8b,,,,,,,,,,,,,1,,,,,,,,,,,,,,,,,,,,,,,,,,,,,,,,,,,,,91,click the 1 key.,,,,,489.9147,491.3608,1,1,0.9092,,0,52,52,90,1,REAL,FAKE,,,,,,,,,,,,,,,,,
,,,,,,,,,5e7f4d2ad29f7560f032abb9,Spanish,13 or older,click here to respond,click here to respond,2025-07-24_06h33.57.991,empathy_intonation_perc_control,2024.2.4,Win32,60.24096386,5e7f4d2ad29f7560f032abb9,68817205a84113384fffdfe3,68820bbf60bb09d464f4cf8b,,,,,,,,,,,,,1,,,,,,,,,,,,,,,,,,,,,,,,,,,,,,,,,,,,,28,merodear,,,,,491.3631,493.0104,1,1,1.1126,,0,53,53,27,1,REAL,FAKE,,,,,,,,,,,,,,,,,
,,,,,,,,,5e7f4d2ad29f7560f032abb9,Spanish,13 or older,click here to respond,click here to respond,2025-07-24_06h33.57.991,empathy_intonation_perc_control,2024.2.4,Win32,60.24096386,5e7f4d2ad29f7560f032abb9,68817205a84113384fffdfe3,68820bbf60bb09d464f4cf8b,,,,,,,,,,,,,1,,,,,,,,,,,,,,,,,,,,,,,,,,,,,,,,,,,,,77,tiburón,,,,,493.0131,494.1269,1,1,0.582,,0,54,54,76,1,REAL,FAKE,,,,,,,,,,,,,,,,,
,,,,,,,,,5e7f4d2ad29f7560f032abb9,Spanish,13 or older,click here to respond,click here to respond,2025-07-24_06h33.57.991,empathy_intonation_perc_control,2024.2.4,Win32,60.24096386,5e7f4d2ad29f7560f032abb9,68817205a84113384fffdfe3,68820bbf60bb09d464f4cf8b,,,,,,,,,,,,,0,,,,,,,,,,,,,,,,,,,,,,,,,,,,,,,,,,,,,70,temblo,,,,,494.129,495.1603,0,1,0.4904,,0,55,55,69,1,REAL,FAKE,,,,,,,,,,,,,,,,,
,,,,,,,,,5e7f4d2ad29f7560f032abb9,Spanish,13 or older,click here to respond,click here to respond,2025-07-24_06h33.57.991,empathy_intonation_perc_control,2024.2.4,Win32,60.24096386,5e7f4d2ad29f7560f032abb9,68817205a84113384fffdfe3,68820bbf60bb09d464f4cf8b,,,,,,,,,,,,,0,,,,,,,,,,,,,,,,,,,,,,,,,,,,,,,,,,,,,33,pauca,,,,,495.1627,496.387,1,0,0.6846,,0,56,56,32,1,REAL,FAKE,,,,,,,,,,,,,,,,,
,,,,,,,,,5e7f4d2ad29f7560f032abb9,Spanish,13 or older,click here to respond,click here to respond,2025-07-24_06h33.57.991,empathy_intonation_perc_control,2024.2.4,Win32,60.24096386,5e7f4d2ad29f7560f032abb9,68817205a84113384fffdfe3,68820bbf60bb09d464f4cf8b,,,,,,,,,,,,,0,,,,,,,,,,,,,,,,,,,,,,,,,,,,,,,,,,,,,1,terzo,,,,,496.3888,497.6619,1,0,0.7355,,0,57,57,0,1,REAL,FAKE,,,,,,,,,,,,,,,,,
,,,,,,,,,5e7f4d2ad29f7560f032abb9,Spanish,13 or older,click here to respond,click here to respond,2025-07-24_06h33.57.991,empathy_intonation_perc_control,2024.2.4,Win32,60.24096386,5e7f4d2ad29f7560f032abb9,68817205a84113384fffdfe3,68820bbf60bb09d464f4cf8b,,,,,,,,,,,,,1,,,,,,,,,,,,,,,,,,,,,,,,,,,,,,,,,,,,,73,hervidor,,,,,497.6651,498.7714,0,0,0.5855,,0,58,58,72,1,REAL,FAKE,,,,,,,,,,,,,,,,,
,,,,,,,,,5e7f4d2ad29f7560f032abb9,Spanish,13 or older,click here to respond,click here to respond,2025-07-24_06h33.57.991,empathy_intonation_perc_control,2024.2.4,Win32,60.24096386,5e7f4d2ad29f7560f032abb9,68817205a84113384fffdfe3,68820bbf60bb09d464f4cf8b,,,,,,,,,,,,,0,,,,,,,,,,,,,,,,,,,,,,,,,,,,,,,,,,,,,23,lampera,,,,,498.7726,500.014,1,0,0.7097,,0,59,59,22,1,REAL,FAKE,,,,,,,,,,,,,,,,,
,,,,,,,,,5e7f4d2ad29f7560f032abb9,Spanish,13 or older,click here to respond,click here to respond,2025-07-24_06h33.57.991,empathy_intonation_perc_control,2024.2.4,Win32,60.24096386,5e7f4d2ad29f7560f032abb9,68817205a84113384fffdfe3,68820bbf60bb09d464f4cf8b,,,,,,,,,,,,,1,,,,,,,,,,,,,,,,,,,,,,,,,,,,,,,,,,,,,67,cabello,,,,,500.0159,501.6953,0,0,1.1566,,0,60,60,66,1,REAL,FAKE,,,,,,,,,,,,,,,,,
,,,,,,,,,5e7f4d2ad29f7560f032abb9,Spanish,13 or older,click here to respond,click here to respond,2025-07-24_06h33.57.991,empathy_intonation_perc_control,2024.2.4,Win32,60.24096386,5e7f4d2ad29f7560f032abb9,68817205a84113384fffdfe3,68820bbf60bb09d464f4cf8b,,,,,,,,,,,,,1,,,,,,,,,,,,,,,,,,,,,,,,,,,,,,,,,,,,,36,loro,,,,,501.6978,503.4874,0,0,1.2506,,0,61,61,35,1,REAL,FAKE,,,,,,,,,,,,,,,,,
,,,,,,,,,5e7f4d2ad29f7560f032abb9,Spanish,13 or older,click here to respond,click here to respond,2025-07-24_06h33.57.991,empathy_intonation_perc_control,2024.2.4,Win32,60.24096386,5e7f4d2ad29f7560f032abb9,68817205a84113384fffdfe3,68820bbf60bb09d464f4cf8b,,,,,,,,,,,,,0,,,,,,,,,,,,,,,,,,,,,,,,,,,,,,,,,,,,,19,brecedad,,,,,503.4887,504.6756,0,1,0.64,,0,62,62,18,1,REAL,FAKE,,,,,,,,,,,,,,,,,
,,,,,,,,,5e7f4d2ad29f7560f032abb9,Spanish,13 or older,click here to respond,click here to respond,2025-07-24_06h33.57.991,empathy_intonation_perc_control,2024.2.4,Win32,60.24096386,5e7f4d2ad29f7560f032abb9,68817205a84113384fffdfe3,68820bbf60bb09d464f4cf8b,,,,,,,,,,,,,1,,,,,,,,,,,,,,,,,,,,,,,,,,,,,,,,,,,,,37,granuja,,,,,504.6776,505.7256,1,1,0.5077,,0,63,63,36,1,REAL,FAKE,,,,,,,,,,,,,,,,,
,,,,,,,,,5e7f4d2ad29f7560f032abb9,Spanish,13 or older,click here to respond,click here to respond,2025-07-24_06h33.57.991,empathy_intonation_perc_control,2024.2.4,Win32,60.24096386,5e7f4d2ad29f7560f032abb9,68817205a84113384fffdfe3,68820bbf60bb09d464f4cf8b,,,,,,,,,,,,,1,,,,,,,,,,,,,,,,,,,,,,,,,,,,,,,,,,,,,76,atar,,,,,505.7283,507.2589,0,0,0.9982,,0,64,64,75,1,REAL,FAKE,,,,,,,,,,,,,,,,,
,,,,,,,,,5e7f4d2ad29f7560f032abb9,Spanish,13 or older,click here to respond,click here to respond,2025-07-24_06h33.57.991,empathy_intonation_perc_control,2024.2.4,Win32,60.24096386,5e7f4d2ad29f7560f032abb9,68817205a84113384fffdfe3,68820bbf60bb09d464f4cf8b,,,,,,,,,,,,,1,,,,,,,,,,,,,,,,,,,,,,,,,,,,,,,,,,,,,6,tergiversar,,,,,507.2606,508.4087,1,1,0.6068,,0,65,65,5,1,REAL,FAKE,,,,,,,,,,,,,,,,,
,,,,,,,,,5e7f4d2ad29f7560f032abb9,Spanish,13 or older,click here to respond,click here to respond,2025-07-24_06h33.57.991,empathy_intonation_perc_control,2024.2.4,Win32,60.24096386,5e7f4d2ad29f7560f032abb9,68817205a84113384fffdfe3,68820bbf60bb09d464f4cf8b,,,,,,,,,,,,,0,,,,,,,,,,,,,,,,,,,,,,,,,,,,,,,,,,,,,17,floroso,,,,,508.4111,509.8384,0,1,0.8902,,0,66,66,16,1,REAL,FAKE,,,,,,,,,,,,,,,,,
,,,,,,,,,5e7f4d2ad29f7560f032abb9,Spanish,13 or older,click here to respond,click here to respond,2025-07-24_06h33.57.991,empathy_intonation_perc_control,2024.2.4,Win32,60.24096386,5e7f4d2ad29f7560f032abb9,68817205a84113384fffdfe3,68820bbf60bb09d464f4cf8b,,,,,,,,,,,,,1,,,,,,,,,,,,,,,,,,,,,,,,,,,,,,,,,,,,,13,helar,,,,,509.8395,510.9602,0,0,0.5851,,0,67,67,12,1,REAL,FAKE,,,,,,,,,,,,,,,,,
,,,,,,,,,5e7f4d2ad29f7560f032abb9,Spanish,13 or older,click here to respond,click here to respond,2025-07-24_06h33.57.991,empathy_intonation_perc_control,2024.2.4,Win32,60.24096386,5e7f4d2ad29f7560f032abb9,68817205a84113384fffdfe3,68820bbf60bb09d464f4cf8b,,,,,,,,,,,,,0,,,,,,,,,,,,,,,,,,,,,,,,,,,,,,,,,,,,,32,fatacidad,,,,,510.9628,512.175,0,1,0.66,,0,68,68,31,1,REAL,FAKE,,,,,,,,,,,,,,,,,
,,,,,,,,,5e7f4d2ad29f7560f032abb9,Spanish,13 or older,click here to respond,click here to respond,2025-07-24_06h33.57.991,empathy_intonation_perc_control,2024.2.4,Win32,60.24096386,5e7f4d2ad29f7560f032abb9,68817205a84113384fffdfe3,68820bbf60bb09d464f4cf8b,,,,,,,,,,,,,0,,,,,,,,,,,,,,,,,,,,,,,,,,,,,,,,,,,,,16,abracer,,,,,512.1768,513.8537,1,0,1.14,,0,69,69,15,1,REAL,FAKE,,,,,,,,,,,,,,,,,
,,,,,,,,,5e7f4d2ad29f7560f032abb9,Spanish,13 or older,click here to respond,click here to respond,2025-07-24_06h33.57.991,empathy_intonation_perc_control,2024.2.4,Win32,60.24096386,5e7f4d2ad29f7560f032abb9,68817205a84113384fffdfe3,68820bbf60bb09d464f4cf8b,,,,,,,,,,,,,1,,,,,,,,,,,,,,,,,,,,,,,,,,,,,,,,,,,,,44,cuchara,,,,,513.8548,515.2508,0,0,0.867,,0,70,70,43,1,REAL,FAKE,,,,,,,,,,,,,,,,,
,,,,,,,,,5e7f4d2ad29f7560f032abb9,Spanish,13 or older,click here to respond,click here to respond,2025-07-24_06h33.57.991,empathy_intonation_perc_control,2024.2.4,Win32,60.24096386,5e7f4d2ad29f7560f032abb9,68817205a84113384fffdfe3,68820bbf60bb09d464f4cf8b,,,,,,,,,,,,,0,,,,,,,,,,,,,,,,,,,,,,,,,,,,,,,,,,,,,30,alardio,,,,,515.2518,516.508,1,0,0.7126,,0,71,71,29,1,REAL,FAKE,,,,,,,,,,,,,,,,,
,,,,,,,,,5e7f4d2ad29f7560f032abb9,Spanish,13 or older,click here to respond,click here to respond,2025-07-24_06h33.57.991,empathy_intonation_perc_control,2024.2.4,Win32,60.24096386,5e7f4d2ad29f7560f032abb9,68817205a84113384fffdfe3,68820bbf60bb09d464f4cf8b,,,,,,,,,,,,,1,,,,,,,,,,,,,,,,,,,,,,,,,,,,,,,,,,,,,56,musgo,,,,,516.511,518.1696,0,0,1.1227,,0,72,72,55,1,REAL,FAKE,,,,,,,,,,,,,,,,,
,,,,,,,,,5e7f4d2ad29f7560f032abb9,Spanish,13 or older,click here to respond,click here to respond,2025-07-24_06h33.57.991,empathy_intonation_perc_control,2024.2.4,Win32,60.24096386,5e7f4d2ad29f7560f032abb9,68817205a84113384fffdfe3,68820bbf60bb09d464f4cf8b,,,,,,,,,,,,,1,,,,,,,,,,,,,,,,,,,,,,,,,,,,,,,,,,,,,68,alegre,,,,,518.1708,519.9525,0,0,1.2526,,0,73,73,67,1,REAL,FAKE,,,,,,,,,,,,,,,,,
,,,,,,,,,5e7f4d2ad29f7560f032abb9,Spanish,13 or older,click here to respond,click here to respond,2025-07-24_06h33.57.991,empathy_intonation_perc_control,2024.2.4,Win32,60.24096386,5e7f4d2ad29f7560f032abb9,68817205a84113384fffdfe3,68820bbf60bb09d464f4cf8b,,,,,,,,,,,,,0,,,,,,,,,,,,,,,,,,,,,,,,,,,,,,,,,,,,,53,vegada,,,,,519.9537,521.1907,1,0,0.6929,,0,74,74,52,1,REAL,FAKE,,,,,,,,,,,,,,,,,
,,,,,,,,,5e7f4d2ad29f7560f032abb9,Spanish,13 or older,click here to respond,click here to respond,2025-07-24_06h33.57.991,empathy_intonation_perc_control,2024.2.4,Win32,60.24096386,5e7f4d2ad29f7560f032abb9,68817205a84113384fffdfe3,68820bbf60bb09d464f4cf8b,,,,,,,,,,,,,1,,,,,,,,,,,,,,,,,,,,,,,,,,,,,,,,,,,,,55,nevar,,,,,521.1927,522.3737,1,1,0.6496,,0,75,75,54,1,REAL,FAKE,,,,,,,,,,,,,,,,,
,,,,,,,,,5e7f4d2ad29f7560f032abb9,Spanish,13 or older,click here to respond,click here to respond,2025-07-24_06h33.57.991,empathy_intonation_perc_control,2024.2.4,Win32,60.24096386,5e7f4d2ad29f7560f032abb9,68817205a84113384fffdfe3,68820bbf60bb09d464f4cf8b,,,,,,,,,,,,,0,,,,,,,,,,,,,,,,,,,,,,,,,,,,,,,,,,,,,82,empirador,,,,,522.3757,523.3245,0,1,0.4095,,0,76,76,81,1,REAL,FAKE,,,,,,,,,,,,,,,,,
,,,,,,,,,5e7f4d2ad29f7560f032abb9,Spanish,13 or older,click here to respond,click here to respond,2025-07-24_06h33.57.991,empathy_intonation_perc_control,2024.2.4,Win32,60.24096386,5e7f4d2ad29f7560f032abb9,68817205a84113384fffdfe3,68820bbf60bb09d464f4cf8b,,,,,,,,,,,,,0,,,,,,,,,,,,,,,,,,,,,,,,,,,,,,,,,,,,,50,flamida,,,,,523.3284,524.3676,1,0,0.4889,,0,77,77,49,1,REAL,FAKE,,,,,,,,,,,,,,,,,
,,,,,,,,,5e7f4d2ad29f7560f032abb9,Spanish,13 or older,click here to respond,click here to respond,2025-07-24_06h33.57.991,empathy_intonation_perc_control,2024.2.4,Win32,60.24096386,5e7f4d2ad29f7560f032abb9,68817205a84113384fffdfe3,68820bbf60bb09d464f4cf8b,,,,,,,,,,,,,1,,,,,,,,,,,,,,,,,,,,,,,,,,,,,,,,,,,,,15,regar,,,,,524.3685,525.4418,0,0,0.5367,,0,78,78,14,1,REAL,FAKE,,,,,,,,,,,,,,,,,
,,,,,,,,,5e7f4d2ad29f7560f032abb9,Spanish,13 or older,click here to respond,click here to respond,2025-07-24_06h33.57.991,empathy_intonation_perc_control,2024.2.4,Win32,60.24096386,5e7f4d2ad29f7560f032abb9,68817205a84113384fffdfe3,68820bbf60bb09d464f4cf8b,,,,,,,,,,,,,1,,,,,,,,,,,,,,,,,,,,,,,,,,,,,,,,,,,,,11,cenefa,,,,,525.4446,526.7505,0,0,0.766,,0,79,79,10,1,REAL,FAKE,,,,,,,,,,,,,,,,,
,,,,,,,,,5e7f4d2ad29f7560f032abb9,Spanish,13 or older,click here to respond,click here to respond,2025-07-24_06h33.57.991,empathy_intonation_perc_control,2024.2.4,Win32,60.24096386,5e7f4d2ad29f7560f032abb9,68817205a84113384fffdfe3,68820bbf60bb09d464f4cf8b,,,,,,,,,,,,,1,,,,,,,,,,,,,,,,,,,,,,,,,,,,,,,,,,,,,69,engatusar,,,,,526.7523,528.1407,0,0,0.8551,,0,80,80,68,1,REAL,FAKE,,,,,,,,,,,,,,,,,
,,,,,,,,,5e7f4d2ad29f7560f032abb9,Spanish,13 or older,click here to respond,click here to respond,2025-07-24_06h33.57.991,empathy_intonation_perc_control,2024.2.4,Win32,60.24096386,5e7f4d2ad29f7560f032abb9,68817205a84113384fffdfe3,68820bbf60bb09d464f4cf8b,,,,,,,,,,,,,1,,,,,,,,,,,,,,,,,,,,,,,,,,,,,,,,,,,,,41,rebuscar,,,,,528.1437,529.4232,0,0,0.735,,0,81,81,40,1,REAL,FAKE,,,,,,,,,,,,,,,,,
,,,,,,,,,5e7f4d2ad29f7560f032abb9,Spanish,13 or older,click here to respond,click here to respond,2025-07-24_06h33.57.991,empathy_intonation_perc_control,2024.2.4,Win32,60.24096386,5e7f4d2ad29f7560f032abb9,68817205a84113384fffdfe3,68820bbf60bb09d464f4cf8b,,,,,,,,,,,,,1,,,,,,,,,,,,,,,,,,,,,,,,,,,,,,,,,,,,,61,seda,,,,,529.4268,530.7825,1,1,0.8333,,0,82,82,60,1,REAL,FAKE,,,,,,,,,,,,,,,,,
,,,,,,,,,5e7f4d2ad29f7560f032abb9,Spanish,13 or older,click here to respond,click here to respond,2025-07-24_06h33.57.991,empathy_intonation_perc_control,2024.2.4,Win32,60.24096386,5e7f4d2ad29f7560f032abb9,68817205a84113384fffdfe3,68820bbf60bb09d464f4cf8b,,,,,,,,,,,,,1,,,,,,,,,,,,,,,,,,,,,,,,,,,,,,,,,,,,,90,clavel,,,,,530.7837,532.1059,0,0,0.7787,,0,83,83,89,1,REAL,FAKE,,,,,,,,,,,,,,,,,
,,,,,,,,,5e7f4d2ad29f7560f032abb9,Spanish,13 or older,click here to respond,click here to respond,2025-07-24_06h33.57.991,empathy_intonation_perc_control,2024.2.4,Win32,60.24096386,5e7f4d2ad29f7560f032abb9,68817205a84113384fffdfe3,68820bbf60bb09d464f4cf8b,,,,,,,,,,,,,1,,,,,,,,,,,,,,,,,,,,,,,,,,,,,,,,,,,,,52,camisa,,,,,532.1078,533.456,1,1,0.8097,,0,84,84,51,1,REAL,FAKE,,,,,,,,,,,,,,,,,
,,,,,,,,,5e7f4d2ad29f7560f032abb9,Spanish,13 or older,click here to respond,click here to respond,2025-07-24_06h33.57.991,empathy_intonation_perc_control,2024.2.4,Win32,60.24096386,5e7f4d2ad29f7560f032abb9,68817205a84113384fffdfe3,68820bbf60bb09d464f4cf8b,,,,,,,,,,,,,1,,,,,,,,,,,,,,,,,,,,,,,,,,,,,,,,,,,,,22,lacayo,,,,,533.4585,534.9726,1,1,0.9823,,0,85,85,21,1,REAL,FAKE,,,,,,,,,,,,,,,,,
,,,,,,,,,5e7f4d2ad29f7560f032abb9,Spanish,13 or older,click here to respond,click here to respond,2025-07-24_06h33.57.991,empathy_intonation_perc_control,2024.2.4,Win32,60.24096386,5e7f4d2ad29f7560f032abb9,68817205a84113384fffdfe3,68820bbf60bb09d464f4cf8b,,,,,,,,,,,,,1,,,,,,,,,,,,,,,,,,,,,,,,,,,,,,,,,,,,,5,zapato,,,,,534.9749,536.2722,0,0,0.758,,0,86,86,4,1,REAL,FAKE,,,,,,,,,,,,,,,,,
,,,,,,,,,5e7f4d2ad29f7560f032abb9,Spanish,13 or older,click here to respond,click here to respond,2025-07-24_06h33.57.991,empathy_intonation_perc_control,2024.2.4,Win32,60.24096386,5e7f4d2ad29f7560f032abb9,68817205a84113384fffdfe3,68820bbf60bb09d464f4cf8b,,,,,,,,,,,,,0,,,,,,,,,,,,,,,,,,,,,,,,,,,,,,,,,,,,,63,esposante,,,,,536.2745,538.3587,1,0,1.5451,,0,87,87,62,1,REAL,FAKE,,,,,,,,,,,,,,,,,
,,,,,,,,,5e7f4d2ad29f7560f032abb9,Spanish,13 or older,click here to respond,click here to respond,2025-07-24_06h33.57.991,empathy_intonation_perc_control,2024.2.4,Win32,60.24096386,5e7f4d2ad29f7560f032abb9,68817205a84113384fffdfe3,68820bbf60bb09d464f4cf8b,,,,,,,,,,,,,0,,,,,,,,,,,,,,,,,,,,,,,,,,,,,,,,,,,,,29,decar,,,,,538.3605,539.7167,0,1,0.8351,,0,88,88,28,1,REAL,FAKE,,,,,,,,,,,,,,,,,
,,,,,,,,,5e7f4d2ad29f7560f032abb9,Spanish,13 or older,click here to respond,click here to respond,2025-07-24_06h33.57.991,empathy_intonation_perc_control,2024.2.4,Win32,60.24096386,5e7f4d2ad29f7560f032abb9,68817205a84113384fffdfe3,68820bbf60bb09d464f4cf8b,,,,,,,,,,,,,1,,,,,,,,,,,,,,,,,,,,,,,,,,,,,,,,,,,,,78,frondoso,,,,,539.718,540.9716,0,0,0.71,,0,89,89,77,1,REAL,FAKE,,,,,,,,,,,,,,,,,
,,,,,,,,,5e7f4d2ad29f7560f032abb9,Spanish,13 or older,click here to respond,click here to respond,2025-07-24_06h33.57.991,empathy_intonation_perc_control,2024.2.4,Win32,60.24096386,5e7f4d2ad29f7560f032abb9,68817205a84113384fffdfe3,68820bbf60bb09d464f4cf8b,,,,,,,,,,,,,1,,,,,,,,,,,,,,,,,,,,,,,,,,,,,,,,,,,,,48,ladrón,,,,,540.9736,542.1547,1,1,0.6415,,0,90,90,47,1,REAL,FAKE,,,,,,,,,,,,,,,,,
,,,,,,,,,5e7f4d2ad29f7560f032abb9,Spanish,13 or older,click here to respond,click here to respond,2025-07-24_06h33.57.991,empathy_intonation_perc_control,2024.2.4,Win32,60.24096386,5e7f4d2ad29f7560f032abb9,68817205a84113384fffdfe3,68820bbf60bb09d464f4cf8b,,,,,,,,,,,,,1,,,,,,,,,,,,,,,,,,,,,,,,,,,,,,,,,,,,,31,pandilla,,,,,542.1567,543.9048,0,0,1.219,,0,91,91,30,1,REAL,FAKE,,,,,,,,,,,,,,,,,
,,,,,,,,,5e7f4d2ad29f7560f032abb9,Spanish,13 or older,click here to respond,click here to respond,2025-07-24_06h33.57.991,empathy_intonation_perc_control,2024.2.4,Win32,60.24096386,5e7f4d2ad29f7560f032abb9,68817205a84113384fffdfe3,68820bbf60bb09d464f4cf8b,,,,,,,,,,,,,,,,,,,,,,,,,,,,,,,,,,,,,,,,,,,,,,,,,,,,,,,,,,,,,,,,,,,,,543.9054,556.4318,,,,,,,,,,,,,,,
,,,,,,,,,5e7f4d2ad29f7560f032abb9,Spanish,13 or older,click here to respond,click here to respond,2025-07-24_06h33.57.991,empathy_intonation_perc_control,2024.2.4,Win32,60.24096386,5e7f4d2ad29f7560f032abb9,68817205a84113384fffdfe3,68820bbf60bb09d464f4cf8b,,,,,,,,,,,,,,,,,,,,,,,,,,,1,,,,,,,,,,,,,,,,,,,,,,,,,,,,,,,,,,,,,,,,,,,,556.4574,569.419,slightly agree,0,0,0,0,1,I can easily tell if someone else wants to enter a conversation.,1,0,1,0,,
,,,,,,,,,5e7f4d2ad29f7560f032abb9,Spanish,13 or older,click here to respond,click here to respond,2025-07-24_06h33.57.991,empathy_intonation_perc_control,2024.2.4,Win32,60.24096386,5e7f4d2ad29f7560f032abb9,68817205a84113384fffdfe3,68820bbf60bb09d464f4cf8b,,,,,,,,,,,,,,,,,,,,,,,,,,,2,,,,,,,,,,,,,,,,,,,,,,,,,,,,,,,,,,,,,,,,,,,,569.4252,575.4545,slightly agree,0,1,1,1,1,I prefer animals to humans.,0,1,0,0,,
,,,,,,,,,5e7f4d2ad29f7560f032abb9,Spanish,13 or older,click here to respond,click here to respond,2025-07-24_06h33.57.991,empathy_intonation_perc_control,2024.2.4,Win32,60.24096386,5e7f4d2ad29f7560f032abb9,68817205a84113384fffdfe3,68820bbf60bb09d464f4cf8b,,,,,,,,,,,,,,,,,,,,,,,,,,,3,,,,,,,,,,,,,,,,,,,,,,,,,,,,,,,,,,,,,,,,,,,,575.4595,581.1851,strongly disagree,0,2,2,2,1,I try to keep up with the current trends and fashions.,0,1,0,0,,
,,,,,,,,,5e7f4d2ad29f7560f032abb9,Spanish,13 or older,click here to respond,click here to respond,2025-07-24_06h33.57.991,empathy_intonation_perc_control,2024.2.4,Win32,60.24096386,5e7f4d2ad29f7560f032abb9,68817205a84113384fffdfe3,68820bbf60bb09d464f4cf8b,,,,,,,,,,,,,,,,,,,,,,,,,,,4,,,,,,,,,,,,,,,,,,,,,,,,,,,,,,,,,,,,,,,,,,,,581.1909,586.7168,slightly agree,0,3,3,3,1,"I find it difficult to explain to others things that I understand easily,   when they don't understand it first time.",1,0,0,1,,
,,,,,,,,,5e7f4d2ad29f7560f032abb9,Spanish,13 or older,click here to respond,click here to respond,2025-07-24_06h33.57.991,empathy_intonation_perc_control,2024.2.4,Win32,60.24096386,5e7f4d2ad29f7560f032abb9,68817205a84113384fffdfe3,68820bbf60bb09d464f4cf8b,,,,,,,,,,,,,,,,,,,,,,,,,,,5,,,,,,,,,,,,,,,,,,,,,,,,,,,,,,,,,,,,,,,,,,,,586.7201,590.8757,slightly disagree,0,4,4,4,1,I dream most nights.,0,1,0,0,,
,,,,,,,,,5e7f4d2ad29f7560f032abb9,Spanish,13 or older,click here to respond,click here to respond,2025-07-24_06h33.57.991,empathy_intonation_perc_control,2024.2.4,Win32,60.24096386,5e7f4d2ad29f7560f032abb9,68817205a84113384fffdfe3,68820bbf60bb09d464f4cf8b,,,,,,,,,,,,,,,,,,,,,,,,,,,6,,,,,,,,,,,,,,,,,,,,,,,,,,,,,,,,,,,,,,,,,,,,590.8778,596.8662,slightly agree,0,5,5,5,1,I really enjoy caring for other people.,1,0,1,0,,
,,,,,,,,,5e7f4d2ad29f7560f032abb9,Spanish,13 or older,click here to respond,click here to respond,2025-07-24_06h33.57.991,empathy_intonation_perc_control,2024.2.4,Win32,60.24096386,5e7f4d2ad29f7560f032abb9,68817205a84113384fffdfe3,68820bbf60bb09d464f4cf8b,,,,,,,,,,,,,,,,,,,,,,,,,,,7,,,,,,,,,,,,,,,,,,,,,,,,,,,,,,,,,,,,,,,,,,,,596.8723,603.6651,slightly agree,0,6,6,6,1,I try to solve my own problems rather than discussing them with others.,0,1,0,0,,
,,,,,,,,,5e7f4d2ad29f7560f032abb9,Spanish,13 or older,click here to respond,click here to respond,2025-07-24_06h33.57.991,empathy_intonation_perc_control,2024.2.4,Win32,60.24096386,5e7f4d2ad29f7560f032abb9,68817205a84113384fffdfe3,68820bbf60bb09d464f4cf8b,,,,,,,,,,,,,,,,,,,,,,,,,,,8,,,,,,,,,,,,,,,,,,,,,,,,,,,,,,,,,,,,,,,,,,,,603.6677,609.1196,slightly agree,0,7,7,7,1,I find it hard to know what to do in a social situation.,1,0,0,1,,
,,,,,,,,,5e7f4d2ad29f7560f032abb9,Spanish,13 or older,click here to respond,click here to respond,2025-07-24_06h33.57.991,empathy_intonation_perc_control,2024.2.4,Win32,60.24096386,5e7f4d2ad29f7560f032abb9,68817205a84113384fffdfe3,68820bbf60bb09d464f4cf8b,,,,,,,,,,,,,,,,,,,,,,,,,,,9,,,,,,,,,,,,,,,,,,,,,,,,,,,,,,,,,,,,,,,,,,,,609.1218,617.0127,strongly disagree,0,8,8,8,1,I am at my best first thing in the morning.,0,1,0,0,,
,,,,,,,,,5e7f4d2ad29f7560f032abb9,Spanish,13 or older,click here to respond,click here to respond,2025-07-24_06h33.57.991,empathy_intonation_perc_control,2024.2.4,Win32,60.24096386,5e7f4d2ad29f7560f032abb9,68817205a84113384fffdfe3,68820bbf60bb09d464f4cf8b,,,,,,,,,,,,,,,,,,,,,,,,,,,10,,,,,,,,,,,,,,,,,,,,,,,,,,,,,,,,,,,,,,,,,,,,617.0173,627.8034,slightly disagree,0,9,9,9,1,People often tell me that I went too far in driving my point home in a discussion.,1,0,0,1,,
,,,,,,,,,5e7f4d2ad29f7560f032abb9,Spanish,13 or older,click here to respond,click here to respond,2025-07-24_06h33.57.991,empathy_intonation_perc_control,2024.2.4,Win32,60.24096386,5e7f4d2ad29f7560f032abb9,68817205a84113384fffdfe3,68820bbf60bb09d464f4cf8b,,,,,,,,,,,,,,,,,,,,,,,,,,,11,,,,,,,,,,,,,,,,,,,,,,,,,,,,,,,,,,,,,,,,,,,,627.8058,642.552,slightly disagree,0,10,10,10,1,It doesn't bother me too much if I am late meeting a friend.,1,0,0,1,,
,,,,,,,,,5e7f4d2ad29f7560f032abb9,Spanish,13 or older,click here to respond,click here to respond,2025-07-24_06h33.57.991,empathy_intonation_perc_control,2024.2.4,Win32,60.24096386,5e7f4d2ad29f7560f032abb9,68817205a84113384fffdfe3,68820bbf60bb09d464f4cf8b,,,,,,,,,,,,,,,,,,,,,,,,,,,12,,,,,,,,,,,,,,,,,,,,,,,,,,,,,,,,,,,,,,,,,,,,642.5548,649.993,slightly disagree,0,11,11,11,1,"Friendships and relationships are just too difficult, so I tend not to 
  bother with them.",1,0,0,1,,
,,,,,,,,,5e7f4d2ad29f7560f032abb9,Spanish,13 or older,click here to respond,click here to respond,2025-07-24_06h33.57.991,empathy_intonation_perc_control,2024.2.4,Win32,60.24096386,5e7f4d2ad29f7560f032abb9,68817205a84113384fffdfe3,68820bbf60bb09d464f4cf8b,,,,,,,,,,,,,,,,,,,,,,,,,,,13,,,,,,,,,,,,,,,,,,,,,,,,,,,,,,,,,,,,,,,,,,,,649.9968,660.2411,strongly agree,0,12,12,12,1,"I would never break a law, no matter how minor.",0,1,0,0,,
,,,,,,,,,5e7f4d2ad29f7560f032abb9,Spanish,13 or older,click here to respond,click here to respond,2025-07-24_06h33.57.991,empathy_intonation_perc_control,2024.2.4,Win32,60.24096386,5e7f4d2ad29f7560f032abb9,68817205a84113384fffdfe3,68820bbf60bb09d464f4cf8b,,,,,,,,,,,,,,,,,,,,,,,,,,,14,,,,,,,,,,,,,,,,,,,,,,,,,,,,,,,,,,,,,,,,,,,,660.2441,670.0617,slightly disagree,0,13,13,13,1,I often find it difficult to judge if something is rude or polite.,1,0,0,1,,
,,,,,,,,,5e7f4d2ad29f7560f032abb9,Spanish,13 or older,click here to respond,click here to respond,2025-07-24_06h33.57.991,empathy_intonation_perc_control,2024.2.4,Win32,60.24096386,5e7f4d2ad29f7560f032abb9,68817205a84113384fffdfe3,68820bbf60bb09d464f4cf8b,,,,,,,,,,,,,,,,,,,,,,,,,,,15,,,,,,,,,,,,,,,,,,,,,,,,,,,,,,,,,,,,,,,,,,,,670.0646,675.0764,slightly agree,0,14,14,14,1,"In a conversation, I tend to focus on my own thoughts rather than on what 
  my listener might be thinking.",1,0,0,1,,
,,,,,,,,,5e7f4d2ad29f7560f032abb9,Spanish,13 or older,click here to respond,click here to respond,2025-07-24_06h33.57.991,empathy_intonation_perc_control,2024.2.4,Win32,60.24096386,5e7f4d2ad29f7560f032abb9,68817205a84113384fffdfe3,68820bbf60bb09d464f4cf8b,,,,,,,,,,,,,,,,,,,,,,,,,,,16,,,,,,,,,,,,,,,,,,,,,,,,,,,,,,,,,,,,,,,,,,,,675.0792,680.6398,strongly disagree,0,15,15,15,1,I prefer practical jokes to verbal humor.,0,1,0,0,,
,,,,,,,,,5e7f4d2ad29f7560f032abb9,Spanish,13 or older,click here to respond,click here to respond,2025-07-24_06h33.57.991,empathy_intonation_perc_control,2024.2.4,Win32,60.24096386,5e7f4d2ad29f7560f032abb9,68817205a84113384fffdfe3,68820bbf60bb09d464f4cf8b,,,,,,,,,,,,,,,,,,,,,,,,,,,17,,,,,,,,,,,,,,,,,,,,,,,,,,,,,,,,,,,,,,,,,,,,680.6431,690.5103,slightly agree,0,16,16,16,1,I live life for today rather than the future.,0,1,0,0,,
,,,,,,,,,5e7f4d2ad29f7560f032abb9,Spanish,13 or older,click here to respond,click here to respond,2025-07-24_06h33.57.991,empathy_intonation_perc_control,2024.2.4,Win32,60.24096386,5e7f4d2ad29f7560f032abb9,68817205a84113384fffdfe3,68820bbf60bb09d464f4cf8b,,,,,,,,,,,,,,,,,,,,,,,,,,,18,,,,,,,,,,,,,,,,,,,,,,,,,,,,,,,,,,,,,,,,,,,,690.5125,698.2544,strongly disagree,0,17,17,17,1,"When I was a child, I enjoyed cutting up worms to see what would happen.",1,0,0,1,,
,,,,,,,,,5e7f4d2ad29f7560f032abb9,Spanish,13 or older,click here to respond,click here to respond,2025-07-24_06h33.57.991,empathy_intonation_perc_control,2024.2.4,Win32,60.24096386,5e7f4d2ad29f7560f032abb9,68817205a84113384fffdfe3,68820bbf60bb09d464f4cf8b,,,,,,,,,,,,,,,,,,,,,,,,,,,19,,,,,,,,,,,,,,,,,,,,,,,,,,,,,,,,,,,,,,,,,,,,698.2586,705.1028,slightly agree,0,18,18,18,1,I can pick up quickly if someone says one thing but means another.,1,0,1,0,,
