instructions_2afc.started,instructions_2afc.stopped,instructions_2afc_loop.thisRepN,instructions_2afc_loop.thisTrialN,instructions_2afc_loop.thisN,instructions_2afc_loop.thisIndex,instructions_2afc_loop.ran,instructions_text,continue_text,participant_id,"What variety of Spanish are you most familiar with? (e.g., Peruvian, Spanish, Mexican)",At what age did you begin learning Spanish?,Are you proficient in any languages other than English/Spanish?,"Are you familiar with Caribbean (e.g., Caribbean, Puerto Rican) or Galician Spanish?",date,expName,psychopyVersion,OS,frameRate,id,study_id,session,practice_2afc.started,practice_2afc.stopped,key_resp_2afc_practice.keys,key_resp_2afc_practice.corr,key_resp_2afc_practice.rt,key_resp_2afc_practice.duration,trials_2afc_practice_loop.thisRepN,trials_2afc_practice_loop.thisTrialN,trials_2afc_practice_loop.thisN,trials_2afc_practice_loop.thisIndex,trials_2afc_practice_loop.ran,path,correct_response,check_2afc.started,check_2afc.stopped,trial_2afc.started,trial_2afc.stopped,key_resp_2afc_trial.keys,key_resp_2afc_trial.corr,key_resp_2afc_trial.rt,key_resp_2afc_trial.duration,trials_2afc_loop.thisRepN,trials_2afc_loop.thisTrialN,trials_2afc_loop.thisN,trials_2afc_loop.thisIndex,trials_2afc_loop.ran,item_num,target,variety,instructions_lextale.started,instructions_lextale.stopped,instructions_lextale_loop.thisRepN,instructions_lextale_loop.thisTrialN,instructions_lextale_loop.thisN,instructions_lextale_loop.thisIndex,instructions_lextale_loop.ran,practice_lextale.started,practice_lextale.stopped,key_resp_lextale_practice.keys,key_resp_lextale_practice.corr,key_resp_lextale_practice.rt,key_resp_lextale_practice.duration,practice_feedback_lextale.started,practice_feedback_lextale.stopped,trials_lextale_practice_loop.thisRepN,trials_lextale_practice_loop.thisTrialN,trials_lextale_practice_loop.thisN,trials_lextale_practice_loop.thisIndex,trials_lextale_practice_loop.ran,stim,word,prac_button_real,prac_button_false,check_lextale.started,check_lextale.stopped,trial_lextale.started,trial_lextale.stopped,key_resp_lextale_trial.keys,key_resp_lextale_trial.corr,key_resp_lextale_trial.rt,key_resp_lextale_trial.duration,trials_lextale_loop.thisRepN,trials_lextale_loop.thisTrialN,trials_lextale_loop.thisN,trials_lextale_loop.thisIndex,trials_lextale_loop.ran,button_real,button_false,instructions_eq.started,instructions_eq.stopped,trial_eq.started,trial_eq.stopped,slider_eq_trial.response,trials_eq_loop.thisRepN,trials_eq_loop.thisTrialN,trials_eq_loop.thisN,trials_eq_loop.thisIndex,trials_eq_loop.ran,item,is_test_item,is_distractor,is_agree_score,is_disagree_score,end_exp.started,end_exp.stopped
0.0079,3.6841,0,0,0,0,1,"In the following task you are going to hear a series of utterances. 

  You will decide if the utterances sound like questions or not using your keyboard.", (press the spacebar to continue),5ed1f281a0e7a4000ae547ce,Spanish,13 or older,"no, only English or Spanish",no,2026-01-21_19h01.31.253,empathy_intonation_perc_control,2024.2.4,Win32,120.4819277,5ed1f281a0e7a4000ae547ce,69712dc693a3960bdb483245,697168b7d37416972779a885,,,,,,,,,,,,,,,,,,,,,,,,,,,,,,,,,,,,,,,,,,,,,,,,,,,,,,,,,,,,,,,,,,,,,,,,,,,,,,,,,,,,,
3.6853,11.7006,0,1,1,1,1,"If you believe the utterance is a question, type '1' (for 'yes') and if you do not 
  believe it is a question type '0' (for 'no').

  Let's practice a bit...", (press the spacebar to continue),5ed1f281a0e7a4000ae547ce,Spanish,13 or older,"no, only English or Spanish",no,2026-01-21_19h01.31.253,empathy_intonation_perc_control,2024.2.4,Win32,120.4819277,5ed1f281a0e7a4000ae547ce,69712dc693a3960bdb483245,697168b7d37416972779a885,,,,,,,,,,,,,,,,,,,,,,,,,,,,,,,,,,,,,,,,,,,,,,,,,,,,,,,,,,,,,,,,,,,,,,,,,,,,,,,,,,,,,
,,,,,,,,,5ed1f281a0e7a4000ae547ce,Spanish,13 or older,"no, only English or Spanish",no,2026-01-21_19h01.31.253,empathy_intonation_perc_control,2024.2.4,Win32,120.4819277,5ed1f281a0e7a4000ae547ce,69712dc693a3960bdb483245,697168b7d37416972779a885,11.7045,14.3924,0,1,2.1741,,0,0,0,4,1,./stim/wavs/cuban_statement_filler_Cocinabas-por-la-noche.wav,0,,,,,,,,,,,,,,,,,,,,,,,,,,,,,,,,,,,,,,,,,,,,,,,,,,,,,,,,,,,,,,,,,,,,,,,,
,,,,,,,,,5ed1f281a0e7a4000ae547ce,Spanish,13 or older,"no, only English or Spanish",no,2026-01-21_19h01.31.253,empathy_intonation_perc_control,2024.2.4,Win32,120.4819277,5ed1f281a0e7a4000ae547ce,69712dc693a3960bdb483245,697168b7d37416972779a885,14.3928,16.3006,1,1,1.3922,,0,1,1,2,1,./stim/wavs/chilean_question_filler_Mi-padre-cantaba-bien.wav,1,,,,,,,,,,,,,,,,,,,,,,,,,,,,,,,,,,,,,,,,,,,,,,,,,,,,,,,,,,,,,,,,,,,,,,,,
,,,,,,,,,5ed1f281a0e7a4000ae547ce,Spanish,13 or older,"no, only English or Spanish",no,2026-01-21_19h01.31.253,empathy_intonation_perc_control,2024.2.4,Win32,120.4819277,5ed1f281a0e7a4000ae547ce,69712dc693a3960bdb483245,697168b7d37416972779a885,16.3009,18.5425,0,1,1.7278,,0,2,2,7,1,./stim/wavs/puertorican_statement_filler_La-nina-pinta-con-su-amiga.wav,0,,,,,,,,,,,,,,,,,,,,,,,,,,,,,,,,,,,,,,,,,,,,,,,,,,,,,,,,,,,,,,,,,,,,,,,,
,,,,,,,,,5ed1f281a0e7a4000ae547ce,Spanish,13 or older,"no, only English or Spanish",no,2026-01-21_19h01.31.253,empathy_intonation_perc_control,2024.2.4,Win32,120.4819277,5ed1f281a0e7a4000ae547ce,69712dc693a3960bdb483245,697168b7d37416972779a885,18.5427,20.7341,1,1,1.6815,,0,3,3,3,1,./stim/wavs/mexican_question_filler_Felipe-no-tiene-contrasena.wav,1,,,,,,,,,,,,,,,,,,,,,,,,,,,,,,,,,,,,,,,,,,,,,,,,,,,,,,,,,,,,,,,,,,,,,,,,
,,,,,,,,,5ed1f281a0e7a4000ae547ce,Spanish,13 or older,"no, only English or Spanish",no,2026-01-21_19h01.31.253,empathy_intonation_perc_control,2024.2.4,Win32,120.4819277,5ed1f281a0e7a4000ae547ce,69712dc693a3960bdb483245,697168b7d37416972779a885,20.7343,22.6508,1,1,1.4029,,0,4,4,1,1,./stim/wavs/argentine_question_filler_Mi-vecino-habla-mucho.wav,1,,,,,,,,,,,,,,,,,,,,,,,,,,,,,,,,,,,,,,,,,,,,,,,,,,,,,,,,,,,,,,,,,,,,,,,,
,,,,,,,,,5ed1f281a0e7a4000ae547ce,Spanish,13 or older,"no, only English or Spanish",no,2026-01-21_19h01.31.253,empathy_intonation_perc_control,2024.2.4,Win32,120.4819277,5ed1f281a0e7a4000ae547ce,69712dc693a3960bdb483245,697168b7d37416972779a885,22.6513,24.8008,1,0,1.6317,,0,5,5,5,1,./stim/wavs/andalusian_statement_filler_Alberto-nunca-se-afeita.wav,0,,,,,,,,,,,,,,,,,,,,,,,,,,,,,,,,,,,,,,,,,,,,,,,,,,,,,,,,,,,,,,,,,,,,,,,,
,,,,,,,,,5ed1f281a0e7a4000ae547ce,Spanish,13 or older,"no, only English or Spanish",no,2026-01-21_19h01.31.253,empathy_intonation_perc_control,2024.2.4,Win32,120.4819277,5ed1f281a0e7a4000ae547ce,69712dc693a3960bdb483245,697168b7d37416972779a885,24.8011,27.051,1,1,1.7345,,0,6,6,0,1,./stim/wavs/castilian_question_filler_Mi-esposo-conoce-al-chico.wav,1,,,,,,,,,,,,,,,,,,,,,,,,,,,,,,,,,,,,,,,,,,,,,,,,,,,,,,,,,,,,,,,,,,,,,,,,
,,,,,,,,,5ed1f281a0e7a4000ae547ce,Spanish,13 or older,"no, only English or Spanish",no,2026-01-21_19h01.31.253,empathy_intonation_perc_control,2024.2.4,Win32,120.4819277,5ed1f281a0e7a4000ae547ce,69712dc693a3960bdb483245,697168b7d37416972779a885,27.0513,29.5675,0,1,2.0035,,0,7,7,6,1,./stim/wavs/peruvian_statement_filler_El-nino-habla-con-su-madre.wav,0,,,,,,,,,,,,,,,,,,,,,,,,,,,,,,,,,,,,,,,,,,,,,,,,,,,,,,,,,,,,,,,,,,,,,,,,
,,,,,,,,,5ed1f281a0e7a4000ae547ce,Spanish,13 or older,"no, only English or Spanish",no,2026-01-21_19h01.31.253,empathy_intonation_perc_control,2024.2.4,Win32,120.4819277,5ed1f281a0e7a4000ae547ce,69712dc693a3960bdb483245,697168b7d37416972779a885,,,,,,,,,,,,,,29.5677,32.9427,,,,,,,,,,,,,,,,,,,,,,,,,,,,,,,,,,,,,,,,,,,,,,,,,,,,,,,,,,,,,,,,,,,,,,
,,,,,,,,,5ed1f281a0e7a4000ae547ce,Spanish,13 or older,"no, only English or Spanish",no,2026-01-21_19h01.31.253,empathy_intonation_perc_control,2024.2.4,Win32,120.4819277,5ed1f281a0e7a4000ae547ce,69712dc693a3960bdb483245,697168b7d37416972779a885,,,,,,,,,,,,./stim/wavs/puertorican_mismatch_declarative-broad-focus_El-hombre-mira-la-luna.wav,0,,,32.946,34.8927,0,1,1.4363,,0,0,0,84,1,85,0,puertorican,,,,,,,,,,,,,,,,,,,,,,,,,,,,,,,,,,,,,,,,,,,,,,,,,,,,,,,,
,,,,,,,,,5ed1f281a0e7a4000ae547ce,Spanish,13 or older,"no, only English or Spanish",no,2026-01-21_19h01.31.253,empathy_intonation_perc_control,2024.2.4,Win32,120.4819277,5ed1f281a0e7a4000ae547ce,69712dc693a3960bdb483245,697168b7d37416972779a885,,,,,,,,,,,,./stim/wavs/cuban_match_declarative-broad-focus_Maria-bebe-el-vino.wav,0,,,34.8929,36.926,0,1,1.515,,0,1,1,53,1,54,0,cuban,,,,,,,,,,,,,,,,,,,,,,,,,,,,,,,,,,,,,,,,,,,,,,,,,,,,,,,,
,,,,,,,,,5ed1f281a0e7a4000ae547ce,Spanish,13 or older,"no, only English or Spanish",no,2026-01-21_19h01.31.253,empathy_intonation_perc_control,2024.2.4,Win32,120.4819277,5ed1f281a0e7a4000ae547ce,69712dc693a3960bdb483245,697168b7d37416972779a885,,,,,,,,,,,,./stim/wavs/puertorican_mismatch_interrogative-total-yn_El-nino-oye-el-rio.wav,1,,,36.9263,38.851,0,0,1.4095,,0,2,2,40,1,41,1,puertorican,,,,,,,,,,,,,,,,,,,,,,,,,,,,,,,,,,,,,,,,,,,,,,,,,,,,,,,,
,,,,,,,,,5ed1f281a0e7a4000ae547ce,Spanish,13 or older,"no, only English or Spanish",no,2026-01-21_19h01.31.253,empathy_intonation_perc_control,2024.2.4,Win32,120.4819277,5ed1f281a0e7a4000ae547ce,69712dc693a3960bdb483245,697168b7d37416972779a885,,,,,,,,,,,,./stim/wavs/mexican_match_interrogative-total-yn_Mariano-habla-del-tiempo.wav,1,,,38.8513,41.2094,1,1,1.846,,0,3,3,16,1,17,0,mexican,,,,,,,,,,,,,,,,,,,,,,,,,,,,,,,,,,,,,,,,,,,,,,,,,,,,,,,,
,,,,,,,,,5ed1f281a0e7a4000ae547ce,Spanish,13 or older,"no, only English or Spanish",no,2026-01-21_19h01.31.253,empathy_intonation_perc_control,2024.2.4,Win32,120.4819277,5ed1f281a0e7a4000ae547ce,69712dc693a3960bdb483245,697168b7d37416972779a885,,,,,,,,,,,,./stim/wavs/mexican_mismatch_declarative-broad-focus_El-bebe-comia-muy-bien.wav,0,,,41.2096,43.3843,1,0,1.657,,0,4,4,78,1,79,0,mexican,,,,,,,,,,,,,,,,,,,,,,,,,,,,,,,,,,,,,,,,,,,,,,,,,,,,,,,,
,,,,,,,,,5ed1f281a0e7a4000ae547ce,Spanish,13 or older,"no, only English or Spanish",no,2026-01-21_19h01.31.253,empathy_intonation_perc_control,2024.2.4,Win32,120.4819277,5ed1f281a0e7a4000ae547ce,69712dc693a3960bdb483245,697168b7d37416972779a885,,,,,,,,,,,,./stim/wavs/puertorican_match_declarative-broad-focus_Daniel-iba-a-Bolivia.wav,0,,,43.3846,45.251,0,1,1.3506,,0,5,5,63,1,64,0,puertorican,,,,,,,,,,,,,,,,,,,,,,,,,,,,,,,,,,,,,,,,,,,,,,,,,,,,,,,,
,,,,,,,,,5ed1f281a0e7a4000ae547ce,Spanish,13 or older,"no, only English or Spanish",no,2026-01-21_19h01.31.253,empathy_intonation_perc_control,2024.2.4,Win32,120.4819277,5ed1f281a0e7a4000ae547ce,69712dc693a3960bdb483245,697168b7d37416972779a885,,,,,,,,,,,,./stim/wavs/puertorican_mismatch_interrogative-total-yn_La-nina-lava-el-plato.wav,1,,,45.2513,47.3594,0,0,1.5938,,0,6,6,42,1,43,1,puertorican,,,,,,,,,,,,,,,,,,,,,,,,,,,,,,,,,,,,,,,,,,,,,,,,,,,,,,,,
,,,,,,,,,5ed1f281a0e7a4000ae547ce,Spanish,13 or older,"no, only English or Spanish",no,2026-01-21_19h01.31.253,empathy_intonation_perc_control,2024.2.4,Win32,120.4819277,5ed1f281a0e7a4000ae547ce,69712dc693a3960bdb483245,697168b7d37416972779a885,,,,,,,,,,,,./stim/wavs/castilian_match_declarative-broad-focus_Emilio-ama-la-marcha.wav,0,,,47.3598,49.5094,0,1,1.6352,,0,7,7,45,1,46,0,castilian,,,,,,,,,,,,,,,,,,,,,,,,,,,,,,,,,,,,,,,,,,,,,,,,,,,,,,,,
,,,,,,,,,5ed1f281a0e7a4000ae547ce,Spanish,13 or older,"no, only English or Spanish",no,2026-01-21_19h01.31.253,empathy_intonation_perc_control,2024.2.4,Win32,120.4819277,5ed1f281a0e7a4000ae547ce,69712dc693a3960bdb483245,697168b7d37416972779a885,,,,,,,,,,,,./stim/wavs/mexican_match_interrogative-total-yn_Ana-lleva-el-abrigo.wav,1,,,49.5097,51.5179,1,1,1.4946,,0,8,8,12,1,13,0,mexican,,,,,,,,,,,,,,,,,,,,,,,,,,,,,,,,,,,,,,,,,,,,,,,,,,,,,,,,
,,,,,,,,,5ed1f281a0e7a4000ae547ce,Spanish,13 or older,"no, only English or Spanish",no,2026-01-21_19h01.31.253,empathy_intonation_perc_control,2024.2.4,Win32,120.4819277,5ed1f281a0e7a4000ae547ce,69712dc693a3960bdb483245,697168b7d37416972779a885,,,,,,,,,,,,./stim/wavs/cuban_match_interrogative-total-yn_Mariano-habla-del-tiempo.wav,1,,,51.5183,53.8011,0,0,1.7681,,0,9,9,10,1,11,1,cuban,,,,,,,,,,,,,,,,,,,,,,,,,,,,,,,,,,,,,,,,,,,,,,,,,,,,,,,,
,,,,,,,,,5ed1f281a0e7a4000ae547ce,Spanish,13 or older,"no, only English or Spanish",no,2026-01-21_19h01.31.253,empathy_intonation_perc_control,2024.2.4,Win32,120.4819277,5ed1f281a0e7a4000ae547ce,69712dc693a3960bdb483245,697168b7d37416972779a885,,,,,,,,,,,,./stim/wavs/puertorican_match_declarative-broad-focus_Ana-lleva-el-abrigo.wav,0,,,53.8013,55.5595,0,1,1.2563,,0,10,10,62,1,63,0,puertorican,,,,,,,,,,,,,,,,,,,,,,,,,,,,,,,,,,,,,,,,,,,,,,,,,,,,,,,,
,,,,,,,,,5ed1f281a0e7a4000ae547ce,Spanish,13 or older,"no, only English or Spanish",no,2026-01-21_19h01.31.253,empathy_intonation_perc_control,2024.2.4,Win32,120.4819277,5ed1f281a0e7a4000ae547ce,69712dc693a3960bdb483245,697168b7d37416972779a885,,,,,,,,,,,,./stim/wavs/mexican_match_interrogative-total-yn_Marta-abre-el-regalo.wav,1,,,55.5598,57.5012,1,1,1.427,,0,11,11,17,1,18,0,mexican,,,,,,,,,,,,,,,,,,,,,,,,,,,,,,,,,,,,,,,,,,,,,,,,,,,,,,,,
,,,,,,,,,5ed1f281a0e7a4000ae547ce,Spanish,13 or older,"no, only English or Spanish",no,2026-01-21_19h01.31.253,empathy_intonation_perc_control,2024.2.4,Win32,120.4819277,5ed1f281a0e7a4000ae547ce,69712dc693a3960bdb483245,697168b7d37416972779a885,,,,,,,,,,,,./stim/wavs/mexican_mismatch_interrogative-total-yn_El-nino-oye-el-rio.wav,1,,,57.5015,59.3846,1,1,1.3699,,0,12,12,35,1,36,0,mexican,,,,,,,,,,,,,,,,,,,,,,,,,,,,,,,,,,,,,,,,,,,,,,,,,,,,,,,,
,,,,,,,,,5ed1f281a0e7a4000ae547ce,Spanish,13 or older,"no, only English or Spanish",no,2026-01-21_19h01.31.253,empathy_intonation_perc_control,2024.2.4,Win32,120.4819277,5ed1f281a0e7a4000ae547ce,69712dc693a3960bdb483245,697168b7d37416972779a885,,,,,,,,,,,,./stim/wavs/puertorican_mismatch_interrogative-total-yn_Mi-madre-come-la-fruta.wav,1,,,59.3849,61.4347,0,0,1.5361,,0,13,13,43,1,44,1,puertorican,,,,,,,,,,,,,,,,,,,,,,,,,,,,,,,,,,,,,,,,,,,,,,,,,,,,,,,,
,,,,,,,,,5ed1f281a0e7a4000ae547ce,Spanish,13 or older,"no, only English or Spanish",no,2026-01-21_19h01.31.253,empathy_intonation_perc_control,2024.2.4,Win32,120.4819277,5ed1f281a0e7a4000ae547ce,69712dc693a3960bdb483245,697168b7d37416972779a885,,,,,,,,,,,,./stim/wavs/castilian_mismatch_declarative-broad-focus_El-nino-oye-el-rio.wav,0,,,61.4349,63.6012,0,1,1.6503,,0,14,14,68,1,69,0,castilian,,,,,,,,,,,,,,,,,,,,,,,,,,,,,,,,,,,,,,,,,,,,,,,,,,,,,,,,
,,,,,,,,,5ed1f281a0e7a4000ae547ce,Spanish,13 or older,"no, only English or Spanish",no,2026-01-21_19h01.31.253,empathy_intonation_perc_control,2024.2.4,Win32,120.4819277,5ed1f281a0e7a4000ae547ce,69712dc693a3960bdb483245,697168b7d37416972779a885,,,,,,,,,,,,./stim/wavs/mexican_mismatch_interrogative-total-yn_Mi-novio-viene-del-lago.wav,1,,,63.6016,65.6097,1,1,1.489,,0,15,15,37,1,38,0,mexican,,,,,,,,,,,,,,,,,,,,,,,,,,,,,,,,,,,,,,,,,,,,,,,,,,,,,,,,
,,,,,,,,,5ed1f281a0e7a4000ae547ce,Spanish,13 or older,"no, only English or Spanish",no,2026-01-21_19h01.31.253,empathy_intonation_perc_control,2024.2.4,Win32,120.4819277,5ed1f281a0e7a4000ae547ce,69712dc693a3960bdb483245,697168b7d37416972779a885,,,,,,,,,,,,./stim/wavs/puertorican_match_interrogative-total-yn_Manuela-vende-el-carro.wav,1,,,65.6099,67.6431,0,0,1.5193,,0,16,16,22,1,23,1,puertorican,,,,,,,,,,,,,,,,,,,,,,,,,,,,,,,,,,,,,,,,,,,,,,,,,,,,,,,,
,,,,,,,,,5ed1f281a0e7a4000ae547ce,Spanish,13 or older,"no, only English or Spanish",no,2026-01-21_19h01.31.253,empathy_intonation_perc_control,2024.2.4,Win32,120.4819277,5ed1f281a0e7a4000ae547ce,69712dc693a3960bdb483245,697168b7d37416972779a885,,,,,,,,,,,,./stim/wavs/cuban_mismatch_interrogative-total-yn_El-hombre-mira-la-luna.wav,1,,,67.6432,69.5264,0,0,1.3652,,0,17,17,29,1,30,1,cuban,,,,,,,,,,,,,,,,,,,,,,,,,,,,,,,,,,,,,,,,,,,,,,,,,,,,,,,,
,,,,,,,,,5ed1f281a0e7a4000ae547ce,Spanish,13 or older,"no, only English or Spanish",no,2026-01-21_19h01.31.253,empathy_intonation_perc_control,2024.2.4,Win32,120.4819277,5ed1f281a0e7a4000ae547ce,69712dc693a3960bdb483245,697168b7d37416972779a885,,,,,,,,,,,,./stim/wavs/castilian_mismatch_declarative-broad-focus_La-nina-lava-el-plato.wav,0,,,69.5266,71.7265,1,0,1.6825,,0,18,18,70,1,71,0,castilian,,,,,,,,,,,,,,,,,,,,,,,,,,,,,,,,,,,,,,,,,,,,,,,,,,,,,,,,
,,,,,,,,,5ed1f281a0e7a4000ae547ce,Spanish,13 or older,"no, only English or Spanish",no,2026-01-21_19h01.31.253,empathy_intonation_perc_control,2024.2.4,Win32,120.4819277,5ed1f281a0e7a4000ae547ce,69712dc693a3960bdb483245,697168b7d37416972779a885,,,,,,,,,,,,./stim/wavs/puertorican_match_declarative-broad-focus_David-leia-el-libro.wav,0,,,71.7268,73.5431,0,1,1.3024,,0,19,19,64,1,65,0,puertorican,,,,,,,,,,,,,,,,,,,,,,,,,,,,,,,,,,,,,,,,,,,,,,,,,,,,,,,,
,,,,,,,,,5ed1f281a0e7a4000ae547ce,Spanish,13 or older,"no, only English or Spanish",no,2026-01-21_19h01.31.253,empathy_intonation_perc_control,2024.2.4,Win32,120.4819277,5ed1f281a0e7a4000ae547ce,69712dc693a3960bdb483245,697168b7d37416972779a885,,,,,,,,,,,,./stim/wavs/cuban_match_interrogative-total-yn_Daniel-iba-a-Bolivia.wav,1,,,73.5433,75.4849,0,0,1.431,,0,20,20,7,1,8,1,cuban,,,,,,,,,,,,,,,,,,,,,,,,,,,,,,,,,,,,,,,,,,,,,,,,,,,,,,,,
,,,,,,,,,5ed1f281a0e7a4000ae547ce,Spanish,13 or older,"no, only English or Spanish",no,2026-01-21_19h01.31.253,empathy_intonation_perc_control,2024.2.4,Win32,120.4819277,5ed1f281a0e7a4000ae547ce,69712dc693a3960bdb483245,697168b7d37416972779a885,,,,,,,,,,,,./stim/wavs/mexican_mismatch_interrogative-total-yn_La-maestra-vive-en-Paris.wav,1,,,75.4851,77.7599,1,1,1.7554,,0,21,21,36,1,37,0,mexican,,,,,,,,,,,,,,,,,,,,,,,,,,,,,,,,,,,,,,,,,,,,,,,,,,,,,,,,
,,,,,,,,,5ed1f281a0e7a4000ae547ce,Spanish,13 or older,"no, only English or Spanish",no,2026-01-21_19h01.31.253,empathy_intonation_perc_control,2024.2.4,Win32,120.4819277,5ed1f281a0e7a4000ae547ce,69712dc693a3960bdb483245,697168b7d37416972779a885,,,,,,,,,,,,./stim/wavs/mexican_match_interrogative-total-yn_David-leia-el-libro.wav,1,,,77.76,79.935,1,1,1.6653,,0,22,22,14,1,15,0,mexican,,,,,,,,,,,,,,,,,,,,,,,,,,,,,,,,,,,,,,,,,,,,,,,,,,,,,,,,
,,,,,,,,,5ed1f281a0e7a4000ae547ce,Spanish,13 or older,"no, only English or Spanish",no,2026-01-21_19h01.31.253,empathy_intonation_perc_control,2024.2.4,Win32,120.4819277,5ed1f281a0e7a4000ae547ce,69712dc693a3960bdb483245,697168b7d37416972779a885,,,,,,,,,,,,./stim/wavs/puertorican_match_declarative-broad-focus_Manuela-vende-el-carro.wav,0,,,79.9353,81.9849,0,1,1.5325,,0,23,23,66,1,67,0,puertorican,,,,,,,,,,,,,,,,,,,,,,,,,,,,,,,,,,,,,,,,,,,,,,,,,,,,,,,,
,,,,,,,,,5ed1f281a0e7a4000ae547ce,Spanish,13 or older,"no, only English or Spanish",no,2026-01-21_19h01.31.253,empathy_intonation_perc_control,2024.2.4,Win32,120.4819277,5ed1f281a0e7a4000ae547ce,69712dc693a3960bdb483245,697168b7d37416972779a885,,,,,,,,,,,,./stim/wavs/puertorican_mismatch_declarative-broad-focus_La-maestra-vive-en-Paris.wav,0,,,81.9851,83.9683,0,1,1.4703,,0,24,24,86,1,87,0,puertorican,,,,,,,,,,,,,,,,,,,,,,,,,,,,,,,,,,,,,,,,,,,,,,,,,,,,,,,,
,,,,,,,,,5ed1f281a0e7a4000ae547ce,Spanish,13 or older,"no, only English or Spanish",no,2026-01-21_19h01.31.253,empathy_intonation_perc_control,2024.2.4,Win32,120.4819277,5ed1f281a0e7a4000ae547ce,69712dc693a3960bdb483245,697168b7d37416972779a885,,,,,,,,,,,,./stim/wavs/castilian_mismatch_interrogative-total-yn_La-nina-lava-el-plato.wav,1,,,83.9685,86.0933,1,1,1.6075,,0,25,25,25,1,26,0,castilian,,,,,,,,,,,,,,,,,,,,,,,,,,,,,,,,,,,,,,,,,,,,,,,,,,,,,,,,
,,,,,,,,,5ed1f281a0e7a4000ae547ce,Spanish,13 or older,"no, only English or Spanish",no,2026-01-21_19h01.31.253,empathy_intonation_perc_control,2024.2.4,Win32,120.4819277,5ed1f281a0e7a4000ae547ce,69712dc693a3960bdb483245,697168b7d37416972779a885,,,,,,,,,,,,./stim/wavs/castilian_match_interrogative-total-yn_Mariano-habla-del-tiempo.wav,1,,,86.0936,88.285,1,1,1.6756,,0,26,26,4,1,5,0,castilian,,,,,,,,,,,,,,,,,,,,,,,,,,,,,,,,,,,,,,,,,,,,,,,,,,,,,,,,
,,,,,,,,,5ed1f281a0e7a4000ae547ce,Spanish,13 or older,"no, only English or Spanish",no,2026-01-21_19h01.31.253,empathy_intonation_perc_control,2024.2.4,Win32,120.4819277,5ed1f281a0e7a4000ae547ce,69712dc693a3960bdb483245,697168b7d37416972779a885,,,,,,,,,,,,./stim/wavs/castilian_mismatch_interrogative-total-yn_Mi-tia-odia-la-lluvia.wav,1,,,88.2853,90.4183,1,1,1.622,,0,27,27,28,1,29,0,castilian,,,,,,,,,,,,,,,,,,,,,,,,,,,,,,,,,,,,,,,,,,,,,,,,,,,,,,,,
,,,,,,,,,5ed1f281a0e7a4000ae547ce,Spanish,13 or older,"no, only English or Spanish",no,2026-01-21_19h01.31.253,empathy_intonation_perc_control,2024.2.4,Win32,120.4819277,5ed1f281a0e7a4000ae547ce,69712dc693a3960bdb483245,697168b7d37416972779a885,,,,,,,,,,,,./stim/wavs/castilian_match_declarative-broad-focus_Mariano-habla-del-tiempo.wav,0,,,90.4185,92.885,1,0,1.9542,,0,28,28,48,1,49,0,castilian,,,,,,,,,,,,,,,,,,,,,,,,,,,,,,,,,,,,,,,,,,,,,,,,,,,,,,,,
,,,,,,,,,5ed1f281a0e7a4000ae547ce,Spanish,13 or older,"no, only English or Spanish",no,2026-01-21_19h01.31.253,empathy_intonation_perc_control,2024.2.4,Win32,120.4819277,5ed1f281a0e7a4000ae547ce,69712dc693a3960bdb483245,697168b7d37416972779a885,,,,,,,,,,,,./stim/wavs/mexican_match_declarative-broad-focus_Daniel-iba-a-Bolivia.wav,0,,,92.8853,95.0601,0,1,1.6586,,0,29,29,57,1,58,0,mexican,,,,,,,,,,,,,,,,,,,,,,,,,,,,,,,,,,,,,,,,,,,,,,,,,,,,,,,,
,,,,,,,,,5ed1f281a0e7a4000ae547ce,Spanish,13 or older,"no, only English or Spanish",no,2026-01-21_19h01.31.253,empathy_intonation_perc_control,2024.2.4,Win32,120.4819277,5ed1f281a0e7a4000ae547ce,69712dc693a3960bdb483245,697168b7d37416972779a885,,,,,,,,,,,,./stim/wavs/puertorican_match_interrogative-total-yn_Ana-lleva-el-abrigo.wav,1,,,95.0604,96.8769,0,0,1.3033,,0,30,30,18,1,19,1,puertorican,,,,,,,,,,,,,,,,,,,,,,,,,,,,,,,,,,,,,,,,,,,,,,,,,,,,,,,,
,,,,,,,,,5ed1f281a0e7a4000ae547ce,Spanish,13 or older,"no, only English or Spanish",no,2026-01-21_19h01.31.253,empathy_intonation_perc_control,2024.2.4,Win32,120.4819277,5ed1f281a0e7a4000ae547ce,69712dc693a3960bdb483245,697168b7d37416972779a885,,,,,,,,,,,,./stim/wavs/castilian_mismatch_declarative-broad-focus_La-maestra-vive-en-Paris.wav,0,,,96.8771,99.2185,0,1,1.8252,,0,31,31,69,1,70,0,castilian,,,,,,,,,,,,,,,,,,,,,,,,,,,,,,,,,,,,,,,,,,,,,,,,,,,,,,,,
,,,,,,,,,5ed1f281a0e7a4000ae547ce,Spanish,13 or older,"no, only English or Spanish",no,2026-01-21_19h01.31.253,empathy_intonation_perc_control,2024.2.4,Win32,120.4819277,5ed1f281a0e7a4000ae547ce,69712dc693a3960bdb483245,697168b7d37416972779a885,,,,,,,,,,,,./stim/wavs/cuban_match_interrogative-total-yn_Maria-bebe-el-vino.wav,1,,,99.2188,101.1769,0,0,1.4454,,0,32,32,9,1,10,1,cuban,,,,,,,,,,,,,,,,,,,,,,,,,,,,,,,,,,,,,,,,,,,,,,,,,,,,,,,,
,,,,,,,,,5ed1f281a0e7a4000ae547ce,Spanish,13 or older,"no, only English or Spanish",no,2026-01-21_19h01.31.253,empathy_intonation_perc_control,2024.2.4,Win32,120.4819277,5ed1f281a0e7a4000ae547ce,69712dc693a3960bdb483245,697168b7d37416972779a885,,,,,,,,,,,,./stim/wavs/puertorican_mismatch_declarative-broad-focus_La-nina-lava-el-plato.wav,0,,,101.1771,102.9852,0,1,1.2938,,0,33,33,87,1,88,0,puertorican,,,,,,,,,,,,,,,,,,,,,,,,,,,,,,,,,,,,,,,,,,,,,,,,,,,,,,,,
,,,,,,,,,5ed1f281a0e7a4000ae547ce,Spanish,13 or older,"no, only English or Spanish",no,2026-01-21_19h01.31.253,empathy_intonation_perc_control,2024.2.4,Win32,120.4819277,5ed1f281a0e7a4000ae547ce,69712dc693a3960bdb483245,697168b7d37416972779a885,,,,,,,,,,,,./stim/wavs/puertorican_match_declarative-broad-focus_Maria-bebe-el-vino.wav,0,,,102.9855,104.7436,0,1,1.2437,,0,34,34,67,1,68,0,puertorican,,,,,,,,,,,,,,,,,,,,,,,,,,,,,,,,,,,,,,,,,,,,,,,,,,,,,,,,
,,,,,,,,,5ed1f281a0e7a4000ae547ce,Spanish,13 or older,"no, only English or Spanish",no,2026-01-21_19h01.31.253,empathy_intonation_perc_control,2024.2.4,Win32,120.4819277,5ed1f281a0e7a4000ae547ce,69712dc693a3960bdb483245,697168b7d37416972779a885,,,,,,,,,,,,./stim/wavs/mexican_match_declarative-broad-focus_Ana-lleva-el-abrigo.wav,0,,,104.7439,106.4686,0,1,1.2138,,0,35,35,56,1,57,0,mexican,,,,,,,,,,,,,,,,,,,,,,,,,,,,,,,,,,,,,,,,,,,,,,,,,,,,,,,,
,,,,,,,,,5ed1f281a0e7a4000ae547ce,Spanish,13 or older,"no, only English or Spanish",no,2026-01-21_19h01.31.253,empathy_intonation_perc_control,2024.2.4,Win32,120.4819277,5ed1f281a0e7a4000ae547ce,69712dc693a3960bdb483245,697168b7d37416972779a885,,,,,,,,,,,,./stim/wavs/puertorican_mismatch_interrogative-total-yn_El-hombre-mira-la-luna.wav,1,,,106.4689,108.5854,1,1,1.6002,,0,36,36,39,1,40,1,puertorican,,,,,,,,,,,,,,,,,,,,,,,,,,,,,,,,,,,,,,,,,,,,,,,,,,,,,,,,
,,,,,,,,,5ed1f281a0e7a4000ae547ce,Spanish,13 or older,"no, only English or Spanish",no,2026-01-21_19h01.31.253,empathy_intonation_perc_control,2024.2.4,Win32,120.4819277,5ed1f281a0e7a4000ae547ce,69712dc693a3960bdb483245,697168b7d37416972779a885,,,,,,,,,,,,./stim/wavs/cuban_mismatch_declarative-broad-focus_El-bebe-comia-muy-bien.wav,0,,,108.5856,110.4353,0,1,1.3345,,0,37,37,73,1,74,0,cuban,,,,,,,,,,,,,,,,,,,,,,,,,,,,,,,,,,,,,,,,,,,,,,,,,,,,,,,,
,,,,,,,,,5ed1f281a0e7a4000ae547ce,Spanish,13 or older,"no, only English or Spanish",no,2026-01-21_19h01.31.253,empathy_intonation_perc_control,2024.2.4,Win32,120.4819277,5ed1f281a0e7a4000ae547ce,69712dc693a3960bdb483245,697168b7d37416972779a885,,,,,,,,,,,,./stim/wavs/cuban_match_declarative-broad-focus_Ana-lleva-el-abrigo.wav,0,,,110.4356,112.3103,0,1,1.3647,,0,38,38,50,1,51,0,cuban,,,,,,,,,,,,,,,,,,,,,,,,,,,,,,,,,,,,,,,,,,,,,,,,,,,,,,,,
,,,,,,,,,5ed1f281a0e7a4000ae547ce,Spanish,13 or older,"no, only English or Spanish",no,2026-01-21_19h01.31.253,empathy_intonation_perc_control,2024.2.4,Win32,120.4819277,5ed1f281a0e7a4000ae547ce,69712dc693a3960bdb483245,697168b7d37416972779a885,,,,,,,,,,,,./stim/wavs/mexican_match_declarative-broad-focus_Emilio-ama-la-marcha.wav,0,,,112.3106,114.4354,0,1,1.6088,,0,39,39,59,1,60,0,mexican,,,,,,,,,,,,,,,,,,,,,,,,,,,,,,,,,,,,,,,,,,,,,,,,,,,,,,,,
,,,,,,,,,5ed1f281a0e7a4000ae547ce,Spanish,13 or older,"no, only English or Spanish",no,2026-01-21_19h01.31.253,empathy_intonation_perc_control,2024.2.4,Win32,120.4819277,5ed1f281a0e7a4000ae547ce,69712dc693a3960bdb483245,697168b7d37416972779a885,,,,,,,,,,,,./stim/wavs/castilian_match_interrogative-total-yn_Marta-abre-el-regalo.wav,1,,,114.4356,116.5604,1,1,1.6098,,0,40,40,5,1,6,0,castilian,,,,,,,,,,,,,,,,,,,,,,,,,,,,,,,,,,,,,,,,,,,,,,,,,,,,,,,,
,,,,,,,,,5ed1f281a0e7a4000ae547ce,Spanish,13 or older,"no, only English or Spanish",no,2026-01-21_19h01.31.253,empathy_intonation_perc_control,2024.2.4,Win32,120.4819277,5ed1f281a0e7a4000ae547ce,69712dc693a3960bdb483245,697168b7d37416972779a885,,,,,,,,,,,,./stim/wavs/mexican_match_declarative-broad-focus_Marta-abre-el-regalo.wav,0,,,116.5606,118.3772,0,1,1.305,,0,41,41,61,1,62,0,mexican,,,,,,,,,,,,,,,,,,,,,,,,,,,,,,,,,,,,,,,,,,,,,,,,,,,,,,,,
,,,,,,,,,5ed1f281a0e7a4000ae547ce,Spanish,13 or older,"no, only English or Spanish",no,2026-01-21_19h01.31.253,empathy_intonation_perc_control,2024.2.4,Win32,120.4819277,5ed1f281a0e7a4000ae547ce,69712dc693a3960bdb483245,697168b7d37416972779a885,,,,,,,,,,,,./stim/wavs/cuban_match_interrogative-total-yn_Ana-lleva-el-abrigo.wav,1,,,118.3774,120.1688,0,0,1.2723,,0,42,42,6,1,7,1,cuban,,,,,,,,,,,,,,,,,,,,,,,,,,,,,,,,,,,,,,,,,,,,,,,,,,,,,,,,
,,,,,,,,,5ed1f281a0e7a4000ae547ce,Spanish,13 or older,"no, only English or Spanish",no,2026-01-21_19h01.31.253,empathy_intonation_perc_control,2024.2.4,Win32,120.4819277,5ed1f281a0e7a4000ae547ce,69712dc693a3960bdb483245,697168b7d37416972779a885,,,,,,,,,,,,./stim/wavs/mexican_mismatch_interrogative-total-yn_Mi-tia-odia-la-lluvia.wav,1,,,120.1691,122.2855,1,1,1.6019,,0,43,43,38,1,39,0,mexican,,,,,,,,,,,,,,,,,,,,,,,,,,,,,,,,,,,,,,,,,,,,,,,,,,,,,,,,
,,,,,,,,,5ed1f281a0e7a4000ae547ce,Spanish,13 or older,"no, only English or Spanish",no,2026-01-21_19h01.31.253,empathy_intonation_perc_control,2024.2.4,Win32,120.4819277,5ed1f281a0e7a4000ae547ce,69712dc693a3960bdb483245,697168b7d37416972779a885,,,,,,,,,,,,./stim/wavs/castilian_match_interrogative-total-yn_Emilio-ama-la-marcha.wav,1,,,122.2857,124.3689,1,1,1.5708,,0,44,44,1,1,2,0,castilian,,,,,,,,,,,,,,,,,,,,,,,,,,,,,,,,,,,,,,,,,,,,,,,,,,,,,,,,
,,,,,,,,,5ed1f281a0e7a4000ae547ce,Spanish,13 or older,"no, only English or Spanish",no,2026-01-21_19h01.31.253,empathy_intonation_perc_control,2024.2.4,Win32,120.4819277,5ed1f281a0e7a4000ae547ce,69712dc693a3960bdb483245,697168b7d37416972779a885,,,,,,,,,,,,./stim/wavs/mexican_mismatch_declarative-broad-focus_La-maestra-vive-en-Paris.wav,0,,,124.369,126.5438,0,1,1.6615,,0,45,45,80,1,81,0,mexican,,,,,,,,,,,,,,,,,,,,,,,,,,,,,,,,,,,,,,,,,,,,,,,,,,,,,,,,
,,,,,,,,,5ed1f281a0e7a4000ae547ce,Spanish,13 or older,"no, only English or Spanish",no,2026-01-21_19h01.31.253,empathy_intonation_perc_control,2024.2.4,Win32,120.4819277,5ed1f281a0e7a4000ae547ce,69712dc693a3960bdb483245,697168b7d37416972779a885,,,,,,,,,,,,./stim/wavs/mexican_mismatch_declarative-broad-focus_Mi-novio-viene-del-lago.wav,0,,,126.544,128.6523,0,1,1.5891,,0,46,46,81,1,82,0,mexican,,,,,,,,,,,,,,,,,,,,,,,,,,,,,,,,,,,,,,,,,,,,,,,,,,,,,,,,
,,,,,,,,,5ed1f281a0e7a4000ae547ce,Spanish,13 or older,"no, only English or Spanish",no,2026-01-21_19h01.31.253,empathy_intonation_perc_control,2024.2.4,Win32,120.4819277,5ed1f281a0e7a4000ae547ce,69712dc693a3960bdb483245,697168b7d37416972779a885,,,,,,,,,,,,./stim/wavs/puertorican_match_interrogative-total-yn_Daniel-iba-a-Bolivia.wav,1,,,128.6527,130.7605,0,0,1.589,,0,47,47,19,1,20,1,puertorican,,,,,,,,,,,,,,,,,,,,,,,,,,,,,,,,,,,,,,,,,,,,,,,,,,,,,,,,
,,,,,,,,,5ed1f281a0e7a4000ae547ce,Spanish,13 or older,"no, only English or Spanish",no,2026-01-21_19h01.31.253,empathy_intonation_perc_control,2024.2.4,Win32,120.4819277,5ed1f281a0e7a4000ae547ce,69712dc693a3960bdb483245,697168b7d37416972779a885,,,,,,,,,,,,./stim/wavs/cuban_mismatch_declarative-broad-focus_La-nina-lava-el-plato.wav,0,,,130.7608,132.6689,0,1,1.3915,,0,48,48,75,1,76,0,cuban,,,,,,,,,,,,,,,,,,,,,,,,,,,,,,,,,,,,,,,,,,,,,,,,,,,,,,,,
,,,,,,,,,5ed1f281a0e7a4000ae547ce,Spanish,13 or older,"no, only English or Spanish",no,2026-01-21_19h01.31.253,empathy_intonation_perc_control,2024.2.4,Win32,120.4819277,5ed1f281a0e7a4000ae547ce,69712dc693a3960bdb483245,697168b7d37416972779a885,,,,,,,,,,,,./stim/wavs/cuban_mismatch_declarative-broad-focus_Mi-tia-odia-la-lluvia.wav,0,,,132.6691,134.5939,0,1,1.4058,,0,49,49,77,1,78,0,cuban,,,,,,,,,,,,,,,,,,,,,,,,,,,,,,,,,,,,,,,,,,,,,,,,,,,,,,,,
,,,,,,,,,5ed1f281a0e7a4000ae547ce,Spanish,13 or older,"no, only English or Spanish",no,2026-01-21_19h01.31.253,empathy_intonation_perc_control,2024.2.4,Win32,120.4819277,5ed1f281a0e7a4000ae547ce,69712dc693a3960bdb483245,697168b7d37416972779a885,,,,,,,,,,,,./stim/wavs/cuban_mismatch_interrogative-total-yn_Mi-tia-odia-la-lluvia.wav,1,,,134.5943,136.769,0,0,1.6614,,0,50,50,33,1,34,1,cuban,,,,,,,,,,,,,,,,,,,,,,,,,,,,,,,,,,,,,,,,,,,,,,,,,,,,,,,,
,,,,,,,,,5ed1f281a0e7a4000ae547ce,Spanish,13 or older,"no, only English or Spanish",no,2026-01-21_19h01.31.253,empathy_intonation_perc_control,2024.2.4,Win32,120.4819277,5ed1f281a0e7a4000ae547ce,69712dc693a3960bdb483245,697168b7d37416972779a885,,,,,,,,,,,,./stim/wavs/castilian_match_declarative-broad-focus_Manuela-vende-el-carro.wav,0,,,136.7693,138.9274,1,0,1.6446,,0,51,51,46,1,47,0,castilian,,,,,,,,,,,,,,,,,,,,,,,,,,,,,,,,,,,,,,,,,,,,,,,,,,,,,,,,
,,,,,,,,,5ed1f281a0e7a4000ae547ce,Spanish,13 or older,"no, only English or Spanish",no,2026-01-21_19h01.31.253,empathy_intonation_perc_control,2024.2.4,Win32,120.4819277,5ed1f281a0e7a4000ae547ce,69712dc693a3960bdb483245,697168b7d37416972779a885,,,,,,,,,,,,./stim/wavs/mexican_match_declarative-broad-focus_Mariano-habla-del-tiempo.wav,0,,,138.9276,141.0941,0,1,1.6569,,0,52,52,60,1,61,0,mexican,,,,,,,,,,,,,,,,,,,,,,,,,,,,,,,,,,,,,,,,,,,,,,,,,,,,,,,,
,,,,,,,,,5ed1f281a0e7a4000ae547ce,Spanish,13 or older,"no, only English or Spanish",no,2026-01-21_19h01.31.253,empathy_intonation_perc_control,2024.2.4,Win32,120.4819277,5ed1f281a0e7a4000ae547ce,69712dc693a3960bdb483245,697168b7d37416972779a885,,,,,,,,,,,,./stim/wavs/castilian_mismatch_interrogative-total-yn_La-maestra-vive-en-Paris.wav,1,,,141.0943,143.394,1,1,1.7891,,0,53,53,24,1,25,0,castilian,,,,,,,,,,,,,,,,,,,,,,,,,,,,,,,,,,,,,,,,,,,,,,,,,,,,,,,,
,,,,,,,,,5ed1f281a0e7a4000ae547ce,Spanish,13 or older,"no, only English or Spanish",no,2026-01-21_19h01.31.253,empathy_intonation_perc_control,2024.2.4,Win32,120.4819277,5ed1f281a0e7a4000ae547ce,69712dc693a3960bdb483245,697168b7d37416972779a885,,,,,,,,,,,,./stim/wavs/mexican_match_interrogative-total-yn_Daniel-iba-a-Bolivia.wav,1,,,143.3942,145.6524,1,1,1.7449,,0,54,54,13,1,14,0,mexican,,,,,,,,,,,,,,,,,,,,,,,,,,,,,,,,,,,,,,,,,,,,,,,,,,,,,,,,
,,,,,,,,,5ed1f281a0e7a4000ae547ce,Spanish,13 or older,"no, only English or Spanish",no,2026-01-21_19h01.31.253,empathy_intonation_perc_control,2024.2.4,Win32,120.4819277,5ed1f281a0e7a4000ae547ce,69712dc693a3960bdb483245,697168b7d37416972779a885,,,,,,,,,,,,./stim/wavs/cuban_match_interrogative-total-yn_Manuela-vende-el-carro.wav,1,,,145.6526,147.4357,0,0,1.2714,,0,55,55,8,1,9,1,cuban,,,,,,,,,,,,,,,,,,,,,,,,,,,,,,,,,,,,,,,,,,,,,,,,,,,,,,,,
,,,,,,,,,5ed1f281a0e7a4000ae547ce,Spanish,13 or older,"no, only English or Spanish",no,2026-01-21_19h01.31.253,empathy_intonation_perc_control,2024.2.4,Win32,120.4819277,5ed1f281a0e7a4000ae547ce,69712dc693a3960bdb483245,697168b7d37416972779a885,,,,,,,,,,,,./stim/wavs/castilian_mismatch_declarative-broad-focus_Mi-tia-odia-la-lluvia.wav,0,,,147.436,149.6693,0,1,1.7211,,0,56,56,72,1,73,0,castilian,,,,,,,,,,,,,,,,,,,,,,,,,,,,,,,,,,,,,,,,,,,,,,,,,,,,,,,,
,,,,,,,,,5ed1f281a0e7a4000ae547ce,Spanish,13 or older,"no, only English or Spanish",no,2026-01-21_19h01.31.253,empathy_intonation_perc_control,2024.2.4,Win32,120.4819277,5ed1f281a0e7a4000ae547ce,69712dc693a3960bdb483245,697168b7d37416972779a885,,,,,,,,,,,,./stim/wavs/mexican_mismatch_declarative-broad-focus_Mi-tia-odia-la-lluvia.wav,0,,,149.6695,151.6108,0,1,1.4309,,0,57,57,82,1,83,0,mexican,,,,,,,,,,,,,,,,,,,,,,,,,,,,,,,,,,,,,,,,,,,,,,,,,,,,,,,,
,,,,,,,,,5ed1f281a0e7a4000ae547ce,Spanish,13 or older,"no, only English or Spanish",no,2026-01-21_19h01.31.253,empathy_intonation_perc_control,2024.2.4,Win32,120.4819277,5ed1f281a0e7a4000ae547ce,69712dc693a3960bdb483245,697168b7d37416972779a885,,,,,,,,,,,,./stim/wavs/castilian_match_declarative-broad-focus_Maria-bebe-el-vino.wav,0,,,151.6111,153.7441,0,1,1.6171,,0,58,58,47,1,48,0,castilian,,,,,,,,,,,,,,,,,,,,,,,,,,,,,,,,,,,,,,,,,,,,,,,,,,,,,,,,
,,,,,,,,,5ed1f281a0e7a4000ae547ce,Spanish,13 or older,"no, only English or Spanish",no,2026-01-21_19h01.31.253,empathy_intonation_perc_control,2024.2.4,Win32,120.4819277,5ed1f281a0e7a4000ae547ce,69712dc693a3960bdb483245,697168b7d37416972779a885,,,,,,,,,,,,./stim/wavs/castilian_match_interrogative-total-yn_Manuela-vende-el-carro.wav,1,,,153.7444,155.8692,0,0,1.6119,,0,59,59,2,1,3,0,castilian,,,,,,,,,,,,,,,,,,,,,,,,,,,,,,,,,,,,,,,,,,,,,,,,,,,,,,,,
,,,,,,,,,5ed1f281a0e7a4000ae547ce,Spanish,13 or older,"no, only English or Spanish",no,2026-01-21_19h01.31.253,empathy_intonation_perc_control,2024.2.4,Win32,120.4819277,5ed1f281a0e7a4000ae547ce,69712dc693a3960bdb483245,697168b7d37416972779a885,,,,,,,,,,,,./stim/wavs/cuban_mismatch_declarative-broad-focus_El-hombre-mira-la-luna.wav,0,,,155.8695,157.6525,0,1,1.2673,,0,60,60,74,1,75,0,cuban,,,,,,,,,,,,,,,,,,,,,,,,,,,,,,,,,,,,,,,,,,,,,,,,,,,,,,,,
,,,,,,,,,5ed1f281a0e7a4000ae547ce,Spanish,13 or older,"no, only English or Spanish",no,2026-01-21_19h01.31.253,empathy_intonation_perc_control,2024.2.4,Win32,120.4819277,5ed1f281a0e7a4000ae547ce,69712dc693a3960bdb483245,697168b7d37416972779a885,,,,,,,,,,,,./stim/wavs/mexican_mismatch_interrogative-total-yn_El-hombre-mira-la-luna.wav,1,,,157.6528,159.5776,0,0,1.4131,,0,61,61,34,1,35,0,mexican,,,,,,,,,,,,,,,,,,,,,,,,,,,,,,,,,,,,,,,,,,,,,,,,,,,,,,,,
,,,,,,,,,5ed1f281a0e7a4000ae547ce,Spanish,13 or older,"no, only English or Spanish",no,2026-01-21_19h01.31.253,empathy_intonation_perc_control,2024.2.4,Win32,120.4819277,5ed1f281a0e7a4000ae547ce,69712dc693a3960bdb483245,697168b7d37416972779a885,,,,,,,,,,,,./stim/wavs/castilian_mismatch_interrogative-total-yn_Mi-madre-come-la-fruta.wav,1,,,159.5778,161.761,1,1,1.6669,,0,62,62,26,1,27,0,castilian,,,,,,,,,,,,,,,,,,,,,,,,,,,,,,,,,,,,,,,,,,,,,,,,,,,,,,,,
,,,,,,,,,5ed1f281a0e7a4000ae547ce,Spanish,13 or older,"no, only English or Spanish",no,2026-01-21_19h01.31.253,empathy_intonation_perc_control,2024.2.4,Win32,120.4819277,5ed1f281a0e7a4000ae547ce,69712dc693a3960bdb483245,697168b7d37416972779a885,,,,,,,,,,,,./stim/wavs/cuban_mismatch_interrogative-total-yn_Mi-madre-come-la-fruta.wav,1,,,161.7612,163.711,0,0,1.4361,,0,63,63,31,1,32,1,cuban,,,,,,,,,,,,,,,,,,,,,,,,,,,,,,,,,,,,,,,,,,,,,,,,,,,,,,,,
,,,,,,,,,5ed1f281a0e7a4000ae547ce,Spanish,13 or older,"no, only English or Spanish",no,2026-01-21_19h01.31.253,empathy_intonation_perc_control,2024.2.4,Win32,120.4819277,5ed1f281a0e7a4000ae547ce,69712dc693a3960bdb483245,697168b7d37416972779a885,,,,,,,,,,,,./stim/wavs/cuban_match_interrogative-total-yn_Marta-abre-el-regalo.wav,1,,,163.7112,165.5279,0,0,1.3039,,0,64,64,11,1,12,1,cuban,,,,,,,,,,,,,,,,,,,,,,,,,,,,,,,,,,,,,,,,,,,,,,,,,,,,,,,,
,,,,,,,,,5ed1f281a0e7a4000ae547ce,Spanish,13 or older,"no, only English or Spanish",no,2026-01-21_19h01.31.253,empathy_intonation_perc_control,2024.2.4,Win32,120.4819277,5ed1f281a0e7a4000ae547ce,69712dc693a3960bdb483245,697168b7d37416972779a885,,,,,,,,,,,,./stim/wavs/puertorican_mismatch_declarative-broad-focus_El-nino-oye-el-rio.wav,0,,,165.5281,167.4611,0,1,1.4188,,0,65,65,85,1,86,0,puertorican,,,,,,,,,,,,,,,,,,,,,,,,,,,,,,,,,,,,,,,,,,,,,,,,,,,,,,,,
,,,,,,,,,5ed1f281a0e7a4000ae547ce,Spanish,13 or older,"no, only English or Spanish",no,2026-01-21_19h01.31.253,empathy_intonation_perc_control,2024.2.4,Win32,120.4819277,5ed1f281a0e7a4000ae547ce,69712dc693a3960bdb483245,697168b7d37416972779a885,,,,,,,,,,,,./stim/wavs/cuban_mismatch_interrogative-total-yn_El-nino-oye-el-rio.wav,1,,,167.4613,169.3445,0,0,1.3707,,0,66,66,30,1,31,1,cuban,,,,,,,,,,,,,,,,,,,,,,,,,,,,,,,,,,,,,,,,,,,,,,,,,,,,,,,,
,,,,,,,,,5ed1f281a0e7a4000ae547ce,Spanish,13 or older,"no, only English or Spanish",no,2026-01-21_19h01.31.253,empathy_intonation_perc_control,2024.2.4,Win32,120.4819277,5ed1f281a0e7a4000ae547ce,69712dc693a3960bdb483245,697168b7d37416972779a885,,,,,,,,,,,,./stim/wavs/castilian_mismatch_interrogative-total-yn_Mi-novio-viene-del-lago.wav,1,,,169.3447,171.4278,1,1,1.5726,,0,67,67,27,1,28,0,castilian,,,,,,,,,,,,,,,,,,,,,,,,,,,,,,,,,,,,,,,,,,,,,,,,,,,,,,,,
,,,,,,,,,5ed1f281a0e7a4000ae547ce,Spanish,13 or older,"no, only English or Spanish",no,2026-01-21_19h01.31.253,empathy_intonation_perc_control,2024.2.4,Win32,120.4819277,5ed1f281a0e7a4000ae547ce,69712dc693a3960bdb483245,697168b7d37416972779a885,,,,,,,,,,,,./stim/wavs/cuban_mismatch_declarative-broad-focus_Mi-novio-viene-del-lago.wav,0,,,171.428,173.5445,0,1,1.5999,,0,68,68,76,1,77,0,cuban,,,,,,,,,,,,,,,,,,,,,,,,,,,,,,,,,,,,,,,,,,,,,,,,,,,,,,,,
,,,,,,,,,5ed1f281a0e7a4000ae547ce,Spanish,13 or older,"no, only English or Spanish",no,2026-01-21_19h01.31.253,empathy_intonation_perc_control,2024.2.4,Win32,120.4819277,5ed1f281a0e7a4000ae547ce,69712dc693a3960bdb483245,697168b7d37416972779a885,,,,,,,,,,,,./stim/wavs/castilian_match_interrogative-total-yn_Maria-bebe-el-vino.wav,1,,,173.5447,175.4195,1,1,1.3623,,0,69,69,3,1,4,0,castilian,,,,,,,,,,,,,,,,,,,,,,,,,,,,,,,,,,,,,,,,,,,,,,,,,,,,,,,,
,,,,,,,,,5ed1f281a0e7a4000ae547ce,Spanish,13 or older,"no, only English or Spanish",no,2026-01-21_19h01.31.253,empathy_intonation_perc_control,2024.2.4,Win32,120.4819277,5ed1f281a0e7a4000ae547ce,69712dc693a3960bdb483245,697168b7d37416972779a885,,,,,,,,,,,,./stim/wavs/mexican_mismatch_declarative-broad-focus_El-hombre-mira-la-luna.wav,0,,,175.4197,177.2361,0,1,1.3028,,0,70,70,79,1,80,0,mexican,,,,,,,,,,,,,,,,,,,,,,,,,,,,,,,,,,,,,,,,,,,,,,,,,,,,,,,,
,,,,,,,,,5ed1f281a0e7a4000ae547ce,Spanish,13 or older,"no, only English or Spanish",no,2026-01-21_19h01.31.253,empathy_intonation_perc_control,2024.2.4,Win32,120.4819277,5ed1f281a0e7a4000ae547ce,69712dc693a3960bdb483245,697168b7d37416972779a885,,,,,,,,,,,,./stim/wavs/cuban_match_declarative-broad-focus_Daniel-iba-a-Bolivia.wav,0,,,177.2364,179.5529,0,1,1.8063,,0,71,71,51,1,52,0,cuban,,,,,,,,,,,,,,,,,,,,,,,,,,,,,,,,,,,,,,,,,,,,,,,,,,,,,,,,
,,,,,,,,,5ed1f281a0e7a4000ae547ce,Spanish,13 or older,"no, only English or Spanish",no,2026-01-21_19h01.31.253,empathy_intonation_perc_control,2024.2.4,Win32,120.4819277,5ed1f281a0e7a4000ae547ce,69712dc693a3960bdb483245,697168b7d37416972779a885,,,,,,,,,,,,./stim/wavs/castilian_match_declarative-broad-focus_David-leia-el-libro.wav,0,,,179.5531,182.4197,0,1,2.3476,,0,72,72,44,1,45,0,castilian,,,,,,,,,,,,,,,,,,,,,,,,,,,,,,,,,,,,,,,,,,,,,,,,,,,,,,,,
,,,,,,,,,5ed1f281a0e7a4000ae547ce,Spanish,13 or older,"no, only English or Spanish",no,2026-01-21_19h01.31.253,empathy_intonation_perc_control,2024.2.4,Win32,120.4819277,5ed1f281a0e7a4000ae547ce,69712dc693a3960bdb483245,697168b7d37416972779a885,,,,,,,,,,,,./stim/wavs/puertorican_mismatch_declarative-broad-focus_El-bebe-comia-muy-bien.wav,0,,,182.4202,185.3365,0,1,2.4002,,0,73,73,83,1,84,0,puertorican,,,,,,,,,,,,,,,,,,,,,,,,,,,,,,,,,,,,,,,,,,,,,,,,,,,,,,,,
,,,,,,,,,5ed1f281a0e7a4000ae547ce,Spanish,13 or older,"no, only English or Spanish",no,2026-01-21_19h01.31.253,empathy_intonation_perc_control,2024.2.4,Win32,120.4819277,5ed1f281a0e7a4000ae547ce,69712dc693a3960bdb483245,697168b7d37416972779a885,,,,,,,,,,,,./stim/wavs/mexican_match_interrogative-total-yn_Emilio-ama-la-marcha.wav,1,,,185.337,187.3531,1,1,1.5046,,0,74,74,15,1,16,0,mexican,,,,,,,,,,,,,,,,,,,,,,,,,,,,,,,,,,,,,,,,,,,,,,,,,,,,,,,,
,,,,,,,,,5ed1f281a0e7a4000ae547ce,Spanish,13 or older,"no, only English or Spanish",no,2026-01-21_19h01.31.253,empathy_intonation_perc_control,2024.2.4,Win32,120.4819277,5ed1f281a0e7a4000ae547ce,69712dc693a3960bdb483245,697168b7d37416972779a885,,,,,,,,,,,,./stim/wavs/puertorican_match_declarative-broad-focus_Emilio-ama-la-marcha.wav,0,,,187.3534,189.5031,0,1,1.6344,,0,75,75,65,1,66,0,puertorican,,,,,,,,,,,,,,,,,,,,,,,,,,,,,,,,,,,,,,,,,,,,,,,,,,,,,,,,
,,,,,,,,,5ed1f281a0e7a4000ae547ce,Spanish,13 or older,"no, only English or Spanish",no,2026-01-21_19h01.31.253,empathy_intonation_perc_control,2024.2.4,Win32,120.4819277,5ed1f281a0e7a4000ae547ce,69712dc693a3960bdb483245,697168b7d37416972779a885,,,,,,,,,,,,./stim/wavs/mexican_match_declarative-broad-focus_David-leia-el-libro.wav,0,,,189.5035,192.2031,0,1,2.1879,,0,76,76,58,1,59,0,mexican,,,,,,,,,,,,,,,,,,,,,,,,,,,,,,,,,,,,,,,,,,,,,,,,,,,,,,,,
,,,,,,,,,5ed1f281a0e7a4000ae547ce,Spanish,13 or older,"no, only English or Spanish",no,2026-01-21_19h01.31.253,empathy_intonation_perc_control,2024.2.4,Win32,120.4819277,5ed1f281a0e7a4000ae547ce,69712dc693a3960bdb483245,697168b7d37416972779a885,,,,,,,,,,,,./stim/wavs/cuban_match_declarative-broad-focus_Manuela-vende-el-carro.wav,0,,,192.2033,194.5698,0,1,1.8562,,0,77,77,52,1,53,0,cuban,,,,,,,,,,,,,,,,,,,,,,,,,,,,,,,,,,,,,,,,,,,,,,,,,,,,,,,,
,,,,,,,,,5ed1f281a0e7a4000ae547ce,Spanish,13 or older,"no, only English or Spanish",no,2026-01-21_19h01.31.253,empathy_intonation_perc_control,2024.2.4,Win32,120.4819277,5ed1f281a0e7a4000ae547ce,69712dc693a3960bdb483245,697168b7d37416972779a885,,,,,,,,,,,,./stim/wavs/castilian_match_declarative-broad-focus_Marta-abre-el-regalo.wav,0,,,194.5701,197.0532,0,1,1.9634,,0,78,78,49,1,50,0,castilian,,,,,,,,,,,,,,,,,,,,,,,,,,,,,,,,,,,,,,,,,,,,,,,,,,,,,,,,
,,,,,,,,,5ed1f281a0e7a4000ae547ce,Spanish,13 or older,"no, only English or Spanish",no,2026-01-21_19h01.31.253,empathy_intonation_perc_control,2024.2.4,Win32,120.4819277,5ed1f281a0e7a4000ae547ce,69712dc693a3960bdb483245,697168b7d37416972779a885,,,,,,,,,,,,./stim/wavs/puertorican_match_interrogative-total-yn_Maria-bebe-el-vino.wav,1,,,197.0533,198.9282,1,1,1.3636,,0,79,79,23,1,24,1,puertorican,,,,,,,,,,,,,,,,,,,,,,,,,,,,,,,,,,,,,,,,,,,,,,,,,,,,,,,,
,,,,,,,,,5ed1f281a0e7a4000ae547ce,Spanish,13 or older,"no, only English or Spanish",no,2026-01-21_19h01.31.253,empathy_intonation_perc_control,2024.2.4,Win32,120.4819277,5ed1f281a0e7a4000ae547ce,69712dc693a3960bdb483245,697168b7d37416972779a885,,,,,,,,,,,,./stim/wavs/puertorican_match_interrogative-total-yn_David-leia-el-libro.wav,1,,,198.9285,201.1033,1,1,1.6612,,0,80,80,20,1,21,1,puertorican,,,,,,,,,,,,,,,,,,,,,,,,,,,,,,,,,,,,,,,,,,,,,,,,,,,,,,,,
,,,,,,,,,5ed1f281a0e7a4000ae547ce,Spanish,13 or older,"no, only English or Spanish",no,2026-01-21_19h01.31.253,empathy_intonation_perc_control,2024.2.4,Win32,120.4819277,5ed1f281a0e7a4000ae547ce,69712dc693a3960bdb483245,697168b7d37416972779a885,,,,,,,,,,,,./stim/wavs/castilian_match_interrogative-total-yn_David-leia-el-libro.wav,1,,,201.1035,203.1866,1,1,1.57,,0,81,81,0,1,1,0,castilian,,,,,,,,,,,,,,,,,,,,,,,,,,,,,,,,,,,,,,,,,,,,,,,,,,,,,,,,
,,,,,,,,,5ed1f281a0e7a4000ae547ce,Spanish,13 or older,"no, only English or Spanish",no,2026-01-21_19h01.31.253,empathy_intonation_perc_control,2024.2.4,Win32,120.4819277,5ed1f281a0e7a4000ae547ce,69712dc693a3960bdb483245,697168b7d37416972779a885,,,,,,,,,,,,./stim/wavs/cuban_match_declarative-broad-focus_Mariano-habla-del-tiempo.wav,0,,,203.1869,205.645,0,1,1.9442,,0,82,82,54,1,55,0,cuban,,,,,,,,,,,,,,,,,,,,,,,,,,,,,,,,,,,,,,,,,,,,,,,,,,,,,,,,
,,,,,,,,,5ed1f281a0e7a4000ae547ce,Spanish,13 or older,"no, only English or Spanish",no,2026-01-21_19h01.31.253,empathy_intonation_perc_control,2024.2.4,Win32,120.4819277,5ed1f281a0e7a4000ae547ce,69712dc693a3960bdb483245,697168b7d37416972779a885,,,,,,,,,,,,./stim/wavs/castilian_mismatch_declarative-broad-focus_Mi-novio-viene-del-lago.wav,0,,,205.6454,207.9533,0,1,1.7962,,0,83,83,71,1,72,0,castilian,,,,,,,,,,,,,,,,,,,,,,,,,,,,,,,,,,,,,,,,,,,,,,,,,,,,,,,,
,,,,,,,,,5ed1f281a0e7a4000ae547ce,Spanish,13 or older,"no, only English or Spanish",no,2026-01-21_19h01.31.253,empathy_intonation_perc_control,2024.2.4,Win32,120.4819277,5ed1f281a0e7a4000ae547ce,69712dc693a3960bdb483245,697168b7d37416972779a885,,,,,,,,,,,,./stim/wavs/cuban_match_declarative-broad-focus_Marta-abre-el-regalo.wav,0,,,207.9536,209.8449,0,1,1.3737,,0,84,84,55,1,56,0,cuban,,,,,,,,,,,,,,,,,,,,,,,,,,,,,,,,,,,,,,,,,,,,,,,,,,,,,,,,
,,,,,,,,,5ed1f281a0e7a4000ae547ce,Spanish,13 or older,"no, only English or Spanish",no,2026-01-21_19h01.31.253,empathy_intonation_perc_control,2024.2.4,Win32,120.4819277,5ed1f281a0e7a4000ae547ce,69712dc693a3960bdb483245,697168b7d37416972779a885,,,,,,,,,,,,./stim/wavs/puertorican_match_interrogative-total-yn_Emilio-ama-la-marcha.wav,1,,,209.8452,212.0118,0,0,1.653,,0,85,85,21,1,22,1,puertorican,,,,,,,,,,,,,,,,,,,,,,,,,,,,,,,,,,,,,,,,,,,,,,,,,,,,,,,,
,,,,,,,,,5ed1f281a0e7a4000ae547ce,Spanish,13 or older,"no, only English or Spanish",no,2026-01-21_19h01.31.253,empathy_intonation_perc_control,2024.2.4,Win32,120.4819277,5ed1f281a0e7a4000ae547ce,69712dc693a3960bdb483245,697168b7d37416972779a885,,,,,,,,,,,,./stim/wavs/cuban_mismatch_interrogative-total-yn_Mi-novio-viene-del-lago.wav,1,,,212.012,214.7868,1,1,2.2611,,0,86,86,32,1,33,1,cuban,,,,,,,,,,,,,,,,,,,,,,,,,,,,,,,,,,,,,,,,,,,,,,,,,,,,,,,,
,,,,,,,,,5ed1f281a0e7a4000ae547ce,Spanish,13 or older,"no, only English or Spanish",no,2026-01-21_19h01.31.253,empathy_intonation_perc_control,2024.2.4,Win32,120.4819277,5ed1f281a0e7a4000ae547ce,69712dc693a3960bdb483245,697168b7d37416972779a885,,,,,,,,,,,,./stim/wavs/puertorican_mismatch_interrogative-total-yn_La-maestra-vive-en-Paris.wav,1,,,214.787,217.62,0,0,2.3186,,0,87,87,41,1,42,1,puertorican,,,,,,,,,,,,,,,,,,,,,,,,,,,,,,,,,,,,,,,,,,,,,,,,,,,,,,,,
,,,,,,,"Great! Now we will move on. The next task consists of about 60 trials, in each of which you will see a string of letters. 
  
  Your task is to decide whether this is a real Spanish word or not.", (press the spacebar to continue),5ed1f281a0e7a4000ae547ce,Spanish,13 or older,"no, only English or Spanish",no,2026-01-21_19h01.31.253,empathy_intonation_perc_control,2024.2.4,Win32,120.4819277,5ed1f281a0e7a4000ae547ce,69712dc693a3960bdb483245,697168b7d37416972779a885,,,,,,,,,,,,,,,,,,,,,,,,,,,,,,217.6226,283.213,0,0,0,0,1,,,,,,,,,,,,,,,,,,,,,,,,,,,,,,,,,,,,,,,,,,,,,,,,,
,,,,,,,"If you think it is an existing Spanish word, you type '1' (for 'REAL'), and if you think it is not an existing Spanish word, you type '0' (for 'FAKE').", (press the spacebar to continue),5ed1f281a0e7a4000ae547ce,Spanish,13 or older,"no, only English or Spanish",no,2026-01-21_19h01.31.253,empathy_intonation_perc_control,2024.2.4,Win32,120.4819277,5ed1f281a0e7a4000ae547ce,69712dc693a3960bdb483245,697168b7d37416972779a885,,,,,,,,,,,,,,,,,,,,,,,,,,,,,,283.2139,285.7712,0,1,1,1,1,,,,,,,,,,,,,,,,,,,,,,,,,,,,,,,,,,,,,,,,,,,,,,,,,
,,,,,,,"If you are sure that the word exists, even though you don’t know its exact meaning, you may still respond '1' (REAL). 
  
  But if you are not sure if it is an existing word, you should respond '0' (FAKE).
  
  Let's do a practice round...", (press the spacebar to continue),5ed1f281a0e7a4000ae547ce,Spanish,13 or older,"no, only English or Spanish",no,2026-01-21_19h01.31.253,empathy_intonation_perc_control,2024.2.4,Win32,120.4819277,5ed1f281a0e7a4000ae547ce,69712dc693a3960bdb483245,697168b7d37416972779a885,,,,,,,,,,,,,,,,,,,,,,,,,,,,,,285.772,291.4545,0,2,2,2,1,,,,,,,,,,,,,,,,,,,,,,,,,,,,,,,,,,,,,,,,,,,,,,,,,
,,,,,,,,,5ed1f281a0e7a4000ae547ce,Spanish,13 or older,"no, only English or Spanish",no,2026-01-21_19h01.31.253,empathy_intonation_perc_control,2024.2.4,Win32,120.4819277,5ed1f281a0e7a4000ae547ce,69712dc693a3960bdb483245,697168b7d37416972779a885,,,,,,,,,,,,,0,,,,,,,,,,,,,,,,,,,,,,,,291.4565,294.2047,1,0,2.2332,,294.2048,295.2046,0,0,0,0,1,0,depiste,REAL,FAKE,,,,,,,,,,,,,,,,,,,,,,,,,,,,,,,,
,,,,,,,,,5ed1f281a0e7a4000ae547ce,Spanish,13 or older,"no, only English or Spanish",no,2026-01-21_19h01.31.253,empathy_intonation_perc_control,2024.2.4,Win32,120.4819277,5ed1f281a0e7a4000ae547ce,69712dc693a3960bdb483245,697168b7d37416972779a885,,,,,,,,,,,,,1,,,,,,,,,,,,,,,,,,,,,,,,295.2052,296.5629,1,1,0.841,,296.5635,297.563,0,1,1,1,1,0,sí,REAL,FAKE,,,,,,,,,,,,,,,,,,,,,,,,,,,,,,,,
,,,,,,,,,5ed1f281a0e7a4000ae547ce,Spanish,13 or older,"no, only English or Spanish",no,2026-01-21_19h01.31.253,empathy_intonation_perc_control,2024.2.4,Win32,120.4819277,5ed1f281a0e7a4000ae547ce,69712dc693a3960bdb483245,697168b7d37416972779a885,,,,,,,,,,,,,0,,,,,,,,,,,,,,,,,,,,,,,,297.5636,298.813,1,0,0.7338,,298.8132,299.813,0,2,2,2,1,0,coné,REAL,FAKE,,,,,,,,,,,,,,,,,,,,,,,,,,,,,,,,
,,,,,,,,,5ed1f281a0e7a4000ae547ce,Spanish,13 or older,"no, only English or Spanish",no,2026-01-21_19h01.31.253,empathy_intonation_perc_control,2024.2.4,Win32,120.4819277,5ed1f281a0e7a4000ae547ce,69712dc693a3960bdb483245,697168b7d37416972779a885,,,,,,,,,,,,,0,,,,,,,,,,,,,,,,,,,,,,,,299.8136,301.0213,1,0,0.6919,,301.0213,302.0214,0,3,3,3,1,0,calpar,REAL,FAKE,,,,,,,,,,,,,,,,,,,,,,,,,,,,,,,,
,,,,,,,,,5ed1f281a0e7a4000ae547ce,Spanish,13 or older,"no, only English or Spanish",no,2026-01-21_19h01.31.253,empathy_intonation_perc_control,2024.2.4,Win32,120.4819277,5ed1f281a0e7a4000ae547ce,69712dc693a3960bdb483245,697168b7d37416972779a885,,,,,,,,,,,,,0,,,,,,,,,,,,,,,,,,,,,,,,302.0219,303.1132,0,1,0.5736,,303.1134,304.1131,0,4,4,4,1,0,joten,REAL,FAKE,,,,,,,,,,,,,,,,,,,,,,,,,,,,,,,,
,,,,,,,,,5ed1f281a0e7a4000ae547ce,Spanish,13 or older,"no, only English or Spanish",no,2026-01-21_19h01.31.253,empathy_intonation_perc_control,2024.2.4,Win32,120.4819277,5ed1f281a0e7a4000ae547ce,69712dc693a3960bdb483245,697168b7d37416972779a885,,,,,,,,,,,,,1,,,,,,,,,,,,,,,,,,,,,,,,304.1136,305.9464,1,1,1.3181,,305.9464,306.9463,0,5,5,5,1,0,sacapuntas,REAL,FAKE,,,,,,,,,,,,,,,,,,,,,,,,,,,,,,,,
,,,,,,,,,5ed1f281a0e7a4000ae547ce,Spanish,13 or older,"no, only English or Spanish",no,2026-01-21_19h01.31.253,empathy_intonation_perc_control,2024.2.4,Win32,120.4819277,5ed1f281a0e7a4000ae547ce,69712dc693a3960bdb483245,697168b7d37416972779a885,,,,,,,,,,,,,0,,,,,,,,,,,,,,,,,,,,,,,,306.9469,308.1965,0,1,0.7334,,308.1965,309.1964,0,6,6,6,1,0,priba,REAL,FAKE,,,,,,,,,,,,,,,,,,,,,,,,,,,,,,,,
,,,,,,,,,5ed1f281a0e7a4000ae547ce,Spanish,13 or older,"no, only English or Spanish",no,2026-01-21_19h01.31.253,empathy_intonation_perc_control,2024.2.4,Win32,120.4819277,5ed1f281a0e7a4000ae547ce,69712dc693a3960bdb483245,697168b7d37416972779a885,,,,,,,,,,,,,0,,,,,,,,,,,,,,,,,,,,,,,,309.1969,310.5132,1,0,0.8013,,310.5137,311.5131,0,7,7,7,1,0,pelasula,REAL,FAKE,,,,,,,,,,,,,,,,,,,,,,,,,,,,,,,,
,,,,,,,,,5ed1f281a0e7a4000ae547ce,Spanish,13 or older,"no, only English or Spanish",no,2026-01-21_19h01.31.253,empathy_intonation_perc_control,2024.2.4,Win32,120.4819277,5ed1f281a0e7a4000ae547ce,69712dc693a3960bdb483245,697168b7d37416972779a885,,,,,,,,,,,,,1,,,,,,,,,,,,,,,,,,,,,,,,311.5135,312.8798,0,0,0.846,,312.8798,313.8798,0,8,8,8,1,0,bien,REAL,FAKE,,,,,,,,,,,,,,,,,,,,,,,,,,,,,,,,
,,,,,,,,,5ed1f281a0e7a4000ae547ce,Spanish,13 or older,"no, only English or Spanish",no,2026-01-21_19h01.31.253,empathy_intonation_perc_control,2024.2.4,Win32,120.4819277,5ed1f281a0e7a4000ae547ce,69712dc693a3960bdb483245,697168b7d37416972779a885,,,,,,,,,,,,,1,,,,,,,,,,,,,,,,,,,,,,,,313.8803,314.8882,1,1,0.4888,,314.8884,315.8881,0,9,9,9,1,0,casa,REAL,FAKE,,,,,,,,,,,,,,,,,,,,,,,,,,,,,,,,
,,,,,,,,,5ed1f281a0e7a4000ae547ce,Spanish,13 or older,"no, only English or Spanish",no,2026-01-21_19h01.31.253,empathy_intonation_perc_control,2024.2.4,Win32,120.4819277,5ed1f281a0e7a4000ae547ce,69712dc693a3960bdb483245,697168b7d37416972779a885,,,,,,,,,,,,,0,,,,,,,,,,,,,,,,,,,,,,,,315.8885,317.1466,1,0,0.7409,,317.1468,318.1466,0,10,10,10,1,0,lejo,REAL,FAKE,,,,,,,,,,,,,,,,,,,,,,,,,,,,,,,,
,,,,,,,,,5ed1f281a0e7a4000ae547ce,Spanish,13 or older,"no, only English or Spanish",no,2026-01-21_19h01.31.253,empathy_intonation_perc_control,2024.2.4,Win32,120.4819277,5ed1f281a0e7a4000ae547ce,69712dc693a3960bdb483245,697168b7d37416972779a885,,,,,,,,,,,,,0,,,,,,,,,,,,,,,,,,,,,,,,318.147,319.3382,0,1,0.6733,,319.3384,320.3383,0,11,11,11,1,0,pretantas,REAL,FAKE,,,,,,,,,,,,,,,,,,,,,,,,,,,,,,,,
,,,,,,,,,5ed1f281a0e7a4000ae547ce,Spanish,13 or older,"no, only English or Spanish",no,2026-01-21_19h01.31.253,empathy_intonation_perc_control,2024.2.4,Win32,120.4819277,5ed1f281a0e7a4000ae547ce,69712dc693a3960bdb483245,697168b7d37416972779a885,,,,,,,,,,,,,,,,,,,,,,,,,,,,,,,,,,,,,,,,,,,,,,,,,,,,,,320.3385,320.9884,,,,,,,,,,,,,,,,,,,,,,,,,,,,,,
,,,,,,,,,5ed1f281a0e7a4000ae547ce,Spanish,13 or older,"no, only English or Spanish",no,2026-01-21_19h01.31.253,empathy_intonation_perc_control,2024.2.4,Win32,120.4819277,5ed1f281a0e7a4000ae547ce,69712dc693a3960bdb483245,697168b7d37416972779a885,,,,,,,,,,,,,1,,,,,,,,,,,,,,,,,,,,,,,,,,,,,,,,,,,,,37,granuja,,,,,320.9915,322.1468,0,0,0.6447,,0,0,0,36,1,REAL,FAKE,,,,,,,,,,,,,,,,,
,,,,,,,,,5ed1f281a0e7a4000ae547ce,Spanish,13 or older,"no, only English or Spanish",no,2026-01-21_19h01.31.253,empathy_intonation_perc_control,2024.2.4,Win32,120.4819277,5ed1f281a0e7a4000ae547ce,69712dc693a3960bdb483245,697168b7d37416972779a885,,,,,,,,,,,,,1,,,,,,,,,,,,,,,,,,,,,,,,,,,,,,,,,,,,,88,acantilado,,,,,322.1472,323.4552,1,1,0.7909,,0,1,1,87,1,REAL,FAKE,,,,,,,,,,,,,,,,,
,,,,,,,,,5ed1f281a0e7a4000ae547ce,Spanish,13 or older,"no, only English or Spanish",no,2026-01-21_19h01.31.253,empathy_intonation_perc_control,2024.2.4,Win32,120.4819277,5ed1f281a0e7a4000ae547ce,69712dc693a3960bdb483245,697168b7d37416972779a885,,,,,,,,,,,,,1,,,,,,,,,,,,,,,,,,,,,,,,,,,,,,,,,,,,,76,atar,,,,,323.4556,324.6968,1,1,0.7239,,0,2,2,75,1,REAL,FAKE,,,,,,,,,,,,,,,,,
,,,,,,,,,5ed1f281a0e7a4000ae547ce,Spanish,13 or older,"no, only English or Spanish",no,2026-01-21_19h01.31.253,empathy_intonation_perc_control,2024.2.4,Win32,120.4819277,5ed1f281a0e7a4000ae547ce,69712dc693a3960bdb483245,697168b7d37416972779a885,,,,,,,,,,,,,1,,,,,,,,,,,,,,,,,,,,,,,,,,,,,,,,,,,,,57,tacaño,,,,,324.6976,325.9468,1,1,0.7345,,0,3,3,56,1,REAL,FAKE,,,,,,,,,,,,,,,,,
,,,,,,,,,5ed1f281a0e7a4000ae547ce,Spanish,13 or older,"no, only English or Spanish",no,2026-01-21_19h01.31.253,empathy_intonation_perc_control,2024.2.4,Win32,120.4819277,5ed1f281a0e7a4000ae547ce,69712dc693a3960bdb483245,697168b7d37416972779a885,,,,,,,,,,,,,0,,,,,,,,,,,,,,,,,,,,,,,,,,,,,,,,,,,,,35,rompido,,,,,325.9472,326.98,0,1,0.5126,,0,4,4,34,1,REAL,FAKE,,,,,,,,,,,,,,,,,
,,,,,,,,,5ed1f281a0e7a4000ae547ce,Spanish,13 or older,"no, only English or Spanish",no,2026-01-21_19h01.31.253,empathy_intonation_perc_control,2024.2.4,Win32,120.4819277,5ed1f281a0e7a4000ae547ce,69712dc693a3960bdb483245,697168b7d37416972779a885,,,,,,,,,,,,,0,,,,,,,,,,,,,,,,,,,,,,,,,,,,,,,,,,,,,29,decar,,,,,326.9804,328.1967,1,0,0.7,,0,5,5,28,1,REAL,FAKE,,,,,,,,,,,,,,,,,
,,,,,,,,,5ed1f281a0e7a4000ae547ce,Spanish,13 or older,"no, only English or Spanish",no,2026-01-21_19h01.31.253,empathy_intonation_perc_control,2024.2.4,Win32,120.4819277,5ed1f281a0e7a4000ae547ce,69712dc693a3960bdb483245,697168b7d37416972779a885,,,,,,,,,,,,,0,,,,,,,,,,,,,,,,,,,,,,,,,,,,,,,,,,,,,1,terzo,,,,,328.1972,329.4133,1,0,0.6983,,0,6,6,0,1,REAL,FAKE,,,,,,,,,,,,,,,,,
,,,,,,,,,5ed1f281a0e7a4000ae547ce,Spanish,13 or older,"no, only English or Spanish",no,2026-01-21_19h01.31.253,empathy_intonation_perc_control,2024.2.4,Win32,120.4819277,5ed1f281a0e7a4000ae547ce,69712dc693a3960bdb483245,697168b7d37416972779a885,,,,,,,,,,,,,0,,,,,,,,,,,,,,,,,,,,,,,,,,,,,,,,,,,,,17,floroso,,,,,329.4139,330.3634,0,1,0.4338,,0,7,7,16,1,REAL,FAKE,,,,,,,,,,,,,,,,,
,,,,,,,,,5ed1f281a0e7a4000ae547ce,Spanish,13 or older,"no, only English or Spanish",no,2026-01-21_19h01.31.253,empathy_intonation_perc_control,2024.2.4,Win32,120.4819277,5ed1f281a0e7a4000ae547ce,69712dc693a3960bdb483245,697168b7d37416972779a885,,,,,,,,,,,,,1,,,,,,,,,,,,,,,,,,,,,,,,,,,,,,,,,,,,,26,secuestro,,,,,330.3637,331.4383,0,0,0.5553,,0,8,8,25,1,REAL,FAKE,,,,,,,,,,,,,,,,,
,,,,,,,,,5ed1f281a0e7a4000ae547ce,Spanish,13 or older,"no, only English or Spanish",no,2026-01-21_19h01.31.253,empathy_intonation_perc_control,2024.2.4,Win32,120.4819277,5ed1f281a0e7a4000ae547ce,69712dc693a3960bdb483245,697168b7d37416972779a885,,,,,,,,,,,,,0,,,,,,,,,,,,,,,,,,,,,,,,,,,,,,,,,,,,,8,cadeña,,,,,331.4388,332.5051,0,1,0.5572,,0,9,9,7,1,REAL,FAKE,,,,,,,,,,,,,,,,,
,,,,,,,,,5ed1f281a0e7a4000ae547ce,Spanish,13 or older,"no, only English or Spanish",no,2026-01-21_19h01.31.253,empathy_intonation_perc_control,2024.2.4,Win32,120.4819277,5ed1f281a0e7a4000ae547ce,69712dc693a3960bdb483245,697168b7d37416972779a885,,,,,,,,,,,,,0,,,,,,,,,,,,,,,,,,,,,,,,,,,,,,,,,,,,,10,antar,,,,,332.5054,333.5634,0,1,0.5399,,0,10,10,9,1,REAL,FAKE,,,,,,,,,,,,,,,,,
,,,,,,,,,5ed1f281a0e7a4000ae547ce,Spanish,13 or older,"no, only English or Spanish",no,2026-01-21_19h01.31.253,empathy_intonation_perc_control,2024.2.4,Win32,120.4819277,5ed1f281a0e7a4000ae547ce,69712dc693a3960bdb483245,697168b7d37416972779a885,,,,,,,,,,,,,0,,,,,,,,,,,,,,,,,,,,,,,,,,,,,,,,,,,,,72,pemición,,,,,333.5639,334.8803,1,0,0.7961,,0,11,11,71,1,REAL,FAKE,,,,,,,,,,,,,,,,,
,,,,,,,,,5ed1f281a0e7a4000ae547ce,Spanish,13 or older,"no, only English or Spanish",no,2026-01-21_19h01.31.253,empathy_intonation_perc_control,2024.2.4,Win32,120.4819277,5ed1f281a0e7a4000ae547ce,69712dc693a3960bdb483245,697168b7d37416972779a885,,,,,,,,,,,,,0,,,,,,,,,,,,,,,,,,,,,,,,,,,,,,,,,,,,,42,cadallo,,,,,334.8809,335.9301,1,0,0.531,,0,12,12,41,1,REAL,FAKE,,,,,,,,,,,,,,,,,
,,,,,,,,,5ed1f281a0e7a4000ae547ce,Spanish,13 or older,"no, only English or Spanish",no,2026-01-21_19h01.31.253,empathy_intonation_perc_control,2024.2.4,Win32,120.4819277,5ed1f281a0e7a4000ae547ce,69712dc693a3960bdb483245,697168b7d37416972779a885,,,,,,,,,,,,,0,,,,,,,,,,,,,,,,,,,,,,,,,,,,,,,,,,,,,92,click the 0 key.,,,,,335.9312,337.2051,0,1,0.7587,,0,13,13,91,1,REAL,FAKE,,,,,,,,,,,,,,,,,
,,,,,,,,,5ed1f281a0e7a4000ae547ce,Spanish,13 or older,"no, only English or Spanish",no,2026-01-21_19h01.31.253,empathy_intonation_perc_control,2024.2.4,Win32,120.4819277,5ed1f281a0e7a4000ae547ce,69712dc693a3960bdb483245,697168b7d37416972779a885,,,,,,,,,,,,,1,,,,,,,,,,,,,,,,,,,,,,,,,,,,,,,,,,,,,65,bizcocho,,,,,337.2055,338.2884,0,0,0.5668,,0,14,14,64,1,REAL,FAKE,,,,,,,,,,,,,,,,,
,,,,,,,,,5ed1f281a0e7a4000ae547ce,Spanish,13 or older,"no, only English or Spanish",no,2026-01-21_19h01.31.253,empathy_intonation_perc_control,2024.2.4,Win32,120.4819277,5ed1f281a0e7a4000ae547ce,69712dc693a3960bdb483245,697168b7d37416972779a885,,,,,,,,,,,,,0,,,,,,,,,,,,,,,,,,,,,,,,,,,,,,,,,,,,,50,flamida,,,,,338.2888,339.3053,0,1,0.495,,0,15,15,49,1,REAL,FAKE,,,,,,,,,,,,,,,,,
,,,,,,,,,5ed1f281a0e7a4000ae547ce,Spanish,13 or older,"no, only English or Spanish",no,2026-01-21_19h01.31.253,empathy_intonation_perc_control,2024.2.4,Win32,120.4819277,5ed1f281a0e7a4000ae547ce,69712dc693a3960bdb483245,697168b7d37416972779a885,,,,,,,,,,,,,1,,,,,,,,,,,,,,,,,,,,,,,,,,,,,,,,,,,,,15,regar,,,,,339.3056,340.4469,1,1,0.6273,,0,16,16,14,1,REAL,FAKE,,,,,,,,,,,,,,,,,
,,,,,,,,,5ed1f281a0e7a4000ae547ce,Spanish,13 or older,"no, only English or Spanish",no,2026-01-21_19h01.31.253,empathy_intonation_perc_control,2024.2.4,Win32,120.4819277,5ed1f281a0e7a4000ae547ce,69712dc693a3960bdb483245,697168b7d37416972779a885,,,,,,,,,,,,,1,,,,,,,,,,,,,,,,,,,,,,,,,,,,,,,,,,,,,40,alfombra,,,,,340.4477,341.7969,1,1,0.83,,0,17,17,39,1,REAL,FAKE,,,,,,,,,,,,,,,,,
,,,,,,,,,5ed1f281a0e7a4000ae547ce,Spanish,13 or older,"no, only English or Spanish",no,2026-01-21_19h01.31.253,empathy_intonation_perc_control,2024.2.4,Win32,120.4819277,5ed1f281a0e7a4000ae547ce,69712dc693a3960bdb483245,697168b7d37416972779a885,,,,,,,,,,,,,1,,,,,,,,,,,,,,,,,,,,,,,,,,,,,,,,,,,,,49,ganar,,,,,341.7972,343.1219,0,0,0.8077,,0,18,18,48,1,REAL,FAKE,,,,,,,,,,,,,,,,,
,,,,,,,,,5ed1f281a0e7a4000ae547ce,Spanish,13 or older,"no, only English or Spanish",no,2026-01-21_19h01.31.253,empathy_intonation_perc_control,2024.2.4,Win32,120.4819277,5ed1f281a0e7a4000ae547ce,69712dc693a3960bdb483245,697168b7d37416972779a885,,,,,,,,,,,,,1,,,,,,,,,,,,,,,,,,,,,,,,,,,,,,,,,,,,,14,yunque,,,,,343.1224,344.2136,0,0,0.5763,,0,19,19,13,1,REAL,FAKE,,,,,,,,,,,,,,,,,
,,,,,,,,,5ed1f281a0e7a4000ae547ce,Spanish,13 or older,"no, only English or Spanish",no,2026-01-21_19h01.31.253,empathy_intonation_perc_control,2024.2.4,Win32,120.4819277,5ed1f281a0e7a4000ae547ce,69712dc693a3960bdb483245,697168b7d37416972779a885,,,,,,,,,,,,,1,,,,,,,,,,,,,,,,,,,,,,,,,,,,,,,,,,,,,31,pandilla,,,,,344.2139,345.797,0,0,1.0671,,0,20,20,30,1,REAL,FAKE,,,,,,,,,,,,,,,,,
,,,,,,,,,5ed1f281a0e7a4000ae547ce,Spanish,13 or older,"no, only English or Spanish",no,2026-01-21_19h01.31.253,empathy_intonation_perc_control,2024.2.4,Win32,120.4819277,5ed1f281a0e7a4000ae547ce,69712dc693a3960bdb483245,697168b7d37416972779a885,,,,,,,,,,,,,1,,,,,,,,,,,,,,,,,,,,,,,,,,,,,,,,,,,,,89,prisa,,,,,345.7974,347.0969,1,1,0.7841,,0,21,21,88,1,REAL,FAKE,,,,,,,,,,,,,,,,,
,,,,,,,,,5ed1f281a0e7a4000ae547ce,Spanish,13 or older,"no, only English or Spanish",no,2026-01-21_19h01.31.253,empathy_intonation_perc_control,2024.2.4,Win32,120.4819277,5ed1f281a0e7a4000ae547ce,69712dc693a3960bdb483245,697168b7d37416972779a885,,,,,,,,,,,,,1,,,,,,,,,,,,,,,,,,,,,,,,,,,,,,,,,,,,,59,besar,,,,,347.0974,348.3303,1,1,0.7174,,0,22,22,58,1,REAL,FAKE,,,,,,,,,,,,,,,,,
,,,,,,,,,5ed1f281a0e7a4000ae547ce,Spanish,13 or older,"no, only English or Spanish",no,2026-01-21_19h01.31.253,empathy_intonation_perc_control,2024.2.4,Win32,120.4819277,5ed1f281a0e7a4000ae547ce,69712dc693a3960bdb483245,697168b7d37416972779a885,,,,,,,,,,,,,1,,,,,,,,,,,,,,,,,,,,,,,,,,,,,,,,,,,,,81,pozo,,,,,348.3307,349.4387,1,1,0.5972,,0,23,23,80,1,REAL,FAKE,,,,,,,,,,,,,,,,,
,,,,,,,,,5ed1f281a0e7a4000ae547ce,Spanish,13 or older,"no, only English or Spanish",no,2026-01-21_19h01.31.253,empathy_intonation_perc_control,2024.2.4,Win32,120.4819277,5ed1f281a0e7a4000ae547ce,69712dc693a3960bdb483245,697168b7d37416972779a885,,,,,,,,,,,,,1,,,,,,,,,,,,,,,,,,,,,,,,,,,,,,,,,,,,,69,engatusar,,,,,349.4391,350.6888,0,0,0.733,,0,24,24,68,1,REAL,FAKE,,,,,,,,,,,,,,,,,
,,,,,,,,,5ed1f281a0e7a4000ae547ce,Spanish,13 or older,"no, only English or Spanish",no,2026-01-21_19h01.31.253,empathy_intonation_perc_control,2024.2.4,Win32,120.4819277,5ed1f281a0e7a4000ae547ce,69712dc693a3960bdb483245,697168b7d37416972779a885,,,,,,,,,,,,,1,,,,,,,,,,,,,,,,,,,,,,,,,,,,,,,,,,,,,28,merodear,,,,,350.6892,351.7886,0,0,0.5853,,0,25,25,27,1,REAL,FAKE,,,,,,,,,,,,,,,,,
,,,,,,,,,5ed1f281a0e7a4000ae547ce,Spanish,13 or older,"no, only English or Spanish",no,2026-01-21_19h01.31.253,empathy_intonation_perc_control,2024.2.4,Win32,120.4819277,5ed1f281a0e7a4000ae547ce,69712dc693a3960bdb483245,697168b7d37416972779a885,,,,,,,,,,,,,1,,,,,,,,,,,,,,,,,,,,,,,,,,,,,,,,,,,,,20,ávido,,,,,351.7895,353.1554,0,0,0.8484,,0,26,26,19,1,REAL,FAKE,,,,,,,,,,,,,,,,,
,,,,,,,,,5ed1f281a0e7a4000ae547ce,Spanish,13 or older,"no, only English or Spanish",no,2026-01-21_19h01.31.253,empathy_intonation_perc_control,2024.2.4,Win32,120.4819277,5ed1f281a0e7a4000ae547ce,69712dc693a3960bdb483245,697168b7d37416972779a885,,,,,,,,,,,,,0,,,,,,,,,,,,,,,,,,,,,,,,,,,,,,,,,,,,,79,tropaje,,,,,353.1557,354.3721,1,0,0.7004,,0,27,27,78,1,REAL,FAKE,,,,,,,,,,,,,,,,,
,,,,,,,,,5ed1f281a0e7a4000ae547ce,Spanish,13 or older,"no, only English or Spanish",no,2026-01-21_19h01.31.253,empathy_intonation_perc_control,2024.2.4,Win32,120.4819277,5ed1f281a0e7a4000ae547ce,69712dc693a3960bdb483245,697168b7d37416972779a885,,,,,,,,,,,,,1,,,,,,,,,,,,,,,,,,,,,,,,,,,,,,,,,,,,,46,martillo,,,,,354.3725,355.5304,1,1,0.6449,,0,28,28,45,1,REAL,FAKE,,,,,,,,,,,,,,,,,
,,,,,,,,,5ed1f281a0e7a4000ae547ce,Spanish,13 or older,"no, only English or Spanish",no,2026-01-21_19h01.31.253,empathy_intonation_perc_control,2024.2.4,Win32,120.4819277,5ed1f281a0e7a4000ae547ce,69712dc693a3960bdb483245,697168b7d37416972779a885,,,,,,,,,,,,,0,,,,,,,,,,,,,,,,,,,,,,,,,,,,,,,,,,,,,66,hacido,,,,,355.5309,356.472,0,1,0.4276,,0,29,29,65,1,REAL,FAKE,,,,,,,,,,,,,,,,,
,,,,,,,,,5ed1f281a0e7a4000ae547ce,Spanish,13 or older,"no, only English or Spanish",no,2026-01-21_19h01.31.253,empathy_intonation_perc_control,2024.2.4,Win32,120.4819277,5ed1f281a0e7a4000ae547ce,69712dc693a3960bdb483245,697168b7d37416972779a885,,,,,,,,,,,,,1,,,,,,,,,,,,,,,,,,,,,,,,,,,,,,,,,,,,,85,laúd,,,,,356.4726,357.5721,0,0,0.5854,,0,30,30,84,1,REAL,FAKE,,,,,,,,,,,,,,,,,
,,,,,,,,,5ed1f281a0e7a4000ae547ce,Spanish,13 or older,"no, only English or Spanish",no,2026-01-21_19h01.31.253,empathy_intonation_perc_control,2024.2.4,Win32,120.4819277,5ed1f281a0e7a4000ae547ce,69712dc693a3960bdb483245,697168b7d37416972779a885,,,,,,,,,,,,,1,,,,,,,,,,,,,,,,,,,,,,,,,,,,,,,,,,,,,67,cabello,,,,,357.5725,359.2054,1,1,1.12,,0,31,31,66,1,REAL,FAKE,,,,,,,,,,,,,,,,,
,,,,,,,,,5ed1f281a0e7a4000ae547ce,Spanish,13 or older,"no, only English or Spanish",no,2026-01-21_19h01.31.253,empathy_intonation_perc_control,2024.2.4,Win32,120.4819277,5ed1f281a0e7a4000ae547ce,69712dc693a3960bdb483245,697168b7d37416972779a885,,,,,,,,,,,,,1,,,,,,,,,,,,,,,,,,,,,,,,,,,,,,,,,,,,,44,cuchara,,,,,359.2058,360.2471,0,0,0.525,,0,32,32,43,1,REAL,FAKE,,,,,,,,,,,,,,,,,
,,,,,,,,,5ed1f281a0e7a4000ae547ce,Spanish,13 or older,"no, only English or Spanish",no,2026-01-21_19h01.31.253,empathy_intonation_perc_control,2024.2.4,Win32,120.4819277,5ed1f281a0e7a4000ae547ce,69712dc693a3960bdb483245,697168b7d37416972779a885,,,,,,,,,,,,,1,,,,,,,,,,,,,,,,,,,,,,,,,,,,,,,,,,,,,91,click the 1 key.,,,,,360.2476,361.6305,1,1,0.8628,,0,33,33,90,1,REAL,FAKE,,,,,,,,,,,,,,,,,
,,,,,,,,,5ed1f281a0e7a4000ae547ce,Spanish,13 or older,"no, only English or Spanish",no,2026-01-21_19h01.31.253,empathy_intonation_perc_control,2024.2.4,Win32,120.4819277,5ed1f281a0e7a4000ae547ce,69712dc693a3960bdb483245,697168b7d37416972779a885,,,,,,,,,,,,,0,,,,,,,,,,,,,,,,,,,,,,,,,,,,,,,,,,,,,74,cintro,,,,,361.6309,362.6139,0,1,0.4671,,0,34,34,73,1,REAL,FAKE,,,,,,,,,,,,,,,,,
,,,,,,,,,5ed1f281a0e7a4000ae547ce,Spanish,13 or older,"no, only English or Spanish",no,2026-01-21_19h01.31.253,empathy_intonation_perc_control,2024.2.4,Win32,120.4819277,5ed1f281a0e7a4000ae547ce,69712dc693a3960bdb483245,697168b7d37416972779a885,,,,,,,,,,,,,1,,,,,,,,,,,,,,,,,,,,,,,,,,,,,,,,,,,,,7,pésimo,,,,,362.6142,364.1138,1,1,0.9824,,0,35,35,6,1,REAL,FAKE,,,,,,,,,,,,,,,,,
,,,,,,,,,5ed1f281a0e7a4000ae547ce,Spanish,13 or older,"no, only English or Spanish",no,2026-01-21_19h01.31.253,empathy_intonation_perc_control,2024.2.4,Win32,120.4819277,5ed1f281a0e7a4000ae547ce,69712dc693a3960bdb483245,697168b7d37416972779a885,,,,,,,,,,,,,0,,,,,,,,,,,,,,,,,,,,,,,,,,,,,,,,,,,,,27,acutación,,,,,364.1143,365.3306,1,0,0.7022,,0,36,36,26,1,REAL,FAKE,,,,,,,,,,,,,,,,,
,,,,,,,,,5ed1f281a0e7a4000ae547ce,Spanish,13 or older,"no, only English or Spanish",no,2026-01-21_19h01.31.253,empathy_intonation_perc_control,2024.2.4,Win32,120.4819277,5ed1f281a0e7a4000ae547ce,69712dc693a3960bdb483245,697168b7d37416972779a885,,,,,,,,,,,,,1,,,,,,,,,,,,,,,,,,,,,,,,,,,,,,,,,,,,,78,frondoso,,,,,365.3309,366.4555,0,0,0.6066,,0,37,37,77,1,REAL,FAKE,,,,,,,,,,,,,,,,,
,,,,,,,,,5ed1f281a0e7a4000ae547ce,Spanish,13 or older,"no, only English or Spanish",no,2026-01-21_19h01.31.253,empathy_intonation_perc_control,2024.2.4,Win32,120.4819277,5ed1f281a0e7a4000ae547ce,69712dc693a3960bdb483245,697168b7d37416972779a885,,,,,,,,,,,,,1,,,,,,,,,,,,,,,,,,,,,,,,,,,,,,,,,,,,,80,hormiga,,,,,366.456,367.5972,0,0,0.6268,,0,38,38,79,1,REAL,FAKE,,,,,,,,,,,,,,,,,
,,,,,,,,,5ed1f281a0e7a4000ae547ce,Spanish,13 or older,"no, only English or Spanish",no,2026-01-21_19h01.31.253,empathy_intonation_perc_control,2024.2.4,Win32,120.4819277,5ed1f281a0e7a4000ae547ce,69712dc693a3960bdb483245,697168b7d37416972779a885,,,,,,,,,,,,,1,,,,,,,,,,,,,,,,,,,,,,,,,,,,,,,,,,,,,54,fomentar,,,,,367.5976,368.6472,0,0,0.5365,,0,39,39,53,1,REAL,FAKE,,,,,,,,,,,,,,,,,
,,,,,,,,,5ed1f281a0e7a4000ae547ce,Spanish,13 or older,"no, only English or Spanish",no,2026-01-21_19h01.31.253,empathy_intonation_perc_control,2024.2.4,Win32,120.4819277,5ed1f281a0e7a4000ae547ce,69712dc693a3960bdb483245,697168b7d37416972779a885,,,,,,,,,,,,,1,,,,,,,,,,,,,,,,,,,,,,,,,,,,,,,,,,,,,90,clavel,,,,,368.6476,369.6222,0,0,0.4559,,0,40,40,89,1,REAL,FAKE,,,,,,,,,,,,,,,,,
,,,,,,,,,5ed1f281a0e7a4000ae547ce,Spanish,13 or older,"no, only English or Spanish",no,2026-01-21_19h01.31.253,empathy_intonation_perc_control,2024.2.4,Win32,120.4819277,5ed1f281a0e7a4000ae547ce,69712dc693a3960bdb483245,697168b7d37416972779a885,,,,,,,,,,,,,0,,,,,,,,,,,,,,,,,,,,,,,,,,,,,,,,,,,,,84,escuto,,,,,369.6227,371.0139,0,1,0.8695,,0,41,41,83,1,REAL,FAKE,,,,,,,,,,,,,,,,,
,,,,,,,,,5ed1f281a0e7a4000ae547ce,Spanish,13 or older,"no, only English or Spanish",no,2026-01-21_19h01.31.253,empathy_intonation_perc_control,2024.2.4,Win32,120.4819277,5ed1f281a0e7a4000ae547ce,69712dc693a3960bdb483245,697168b7d37416972779a885,,,,,,,,,,,,,1,,,,,,,,,,,,,,,,,,,,,,,,,,,,,,,,,,,,,41,rebuscar,,,,,371.0143,372.4723,0,0,0.943,,0,42,42,40,1,REAL,FAKE,,,,,,,,,,,,,,,,,
,,,,,,,,,5ed1f281a0e7a4000ae547ce,Spanish,13 or older,"no, only English or Spanish",no,2026-01-21_19h01.31.253,empathy_intonation_perc_control,2024.2.4,Win32,120.4819277,5ed1f281a0e7a4000ae547ce,69712dc693a3960bdb483245,697168b7d37416972779a885,,,,,,,,,,,,,1,,,,,,,,,,,,,,,,,,,,,,,,,,,,,,,,,,,,,43,canela,,,,,372.4727,373.5723,1,1,0.5806,,0,43,43,42,1,REAL,FAKE,,,,,,,,,,,,,,,,,
,,,,,,,,,5ed1f281a0e7a4000ae547ce,Spanish,13 or older,"no, only English or Spanish",no,2026-01-21_19h01.31.253,empathy_intonation_perc_control,2024.2.4,Win32,120.4819277,5ed1f281a0e7a4000ae547ce,69712dc693a3960bdb483245,697168b7d37416972779a885,,,,,,,,,,,,,1,,,,,,,,,,,,,,,,,,,,,,,,,,,,,,,,,,,,,60,matar,,,,,373.5727,374.8057,1,1,0.7166,,0,44,44,59,1,REAL,FAKE,,,,,,,,,,,,,,,,,
,,,,,,,,,5ed1f281a0e7a4000ae547ce,Spanish,13 or older,"no, only English or Spanish",no,2026-01-21_19h01.31.253,empathy_intonation_perc_control,2024.2.4,Win32,120.4819277,5ed1f281a0e7a4000ae547ce,69712dc693a3960bdb483245,697168b7d37416972779a885,,,,,,,,,,,,,1,,,,,,,,,,,,,,,,,,,,,,,,,,,,,,,,,,,,,34,aviso,,,,,374.8062,375.9056,0,0,0.5802,,0,45,45,33,1,REAL,FAKE,,,,,,,,,,,,,,,,,
,,,,,,,,,5ed1f281a0e7a4000ae547ce,Spanish,13 or older,"no, only English or Spanish",no,2026-01-21_19h01.31.253,empathy_intonation_perc_control,2024.2.4,Win32,120.4819277,5ed1f281a0e7a4000ae547ce,69712dc693a3960bdb483245,697168b7d37416972779a885,,,,,,,,,,,,,1,,,,,,,,,,,,,,,,,,,,,,,,,,,,,,,,,,,,,2,pellizcar,,,,,375.9061,377.3306,0,0,0.908,,0,46,46,1,1,REAL,FAKE,,,,,,,,,,,,,,,,,
,,,,,,,,,5ed1f281a0e7a4000ae547ce,Spanish,13 or older,"no, only English or Spanish",no,2026-01-21_19h01.31.253,empathy_intonation_perc_control,2024.2.4,Win32,120.4819277,5ed1f281a0e7a4000ae547ce,69712dc693a3960bdb483245,697168b7d37416972779a885,,,,,,,,,,,,,1,,,,,,,,,,,,,,,,,,,,,,,,,,,,,,,,,,,,,3,pulmones,,,,,377.3313,378.4308,0,0,0.5791,,0,47,47,2,1,REAL,FAKE,,,,,,,,,,,,,,,,,
,,,,,,,,,5ed1f281a0e7a4000ae547ce,Spanish,13 or older,"no, only English or Spanish",no,2026-01-21_19h01.31.253,empathy_intonation_perc_control,2024.2.4,Win32,120.4819277,5ed1f281a0e7a4000ae547ce,69712dc693a3960bdb483245,697168b7d37416972779a885,,,,,,,,,,,,,0,,,,,,,,,,,,,,,,,,,,,,,,,,,,,,,,,,,,,33,pauca,,,,,378.4312,379.5808,0,1,0.6337,,0,48,48,32,1,REAL,FAKE,,,,,,,,,,,,,,,,,
,,,,,,,,,5ed1f281a0e7a4000ae547ce,Spanish,13 or older,"no, only English or Spanish",no,2026-01-21_19h01.31.253,empathy_intonation_perc_control,2024.2.4,Win32,120.4819277,5ed1f281a0e7a4000ae547ce,69712dc693a3960bdb483245,697168b7d37416972779a885,,,,,,,,,,,,,0,,,,,,,,,,,,,,,,,,,,,,,,,,,,,,,,,,,,,32,fatacidad,,,,,379.5813,380.8225,0,1,0.7246,,0,49,49,31,1,REAL,FAKE,,,,,,,,,,,,,,,,,
,,,,,,,,,5ed1f281a0e7a4000ae547ce,Spanish,13 or older,"no, only English or Spanish",no,2026-01-21_19h01.31.253,empathy_intonation_perc_control,2024.2.4,Win32,120.4819277,5ed1f281a0e7a4000ae547ce,69712dc693a3960bdb483245,697168b7d37416972779a885,,,,,,,,,,,,,1,,,,,,,,,,,,,,,,,,,,,,,,,,,,,,,,,,,,,83,guante,,,,,380.8228,382.2558,0,0,0.9193,,0,50,50,82,1,REAL,FAKE,,,,,,,,,,,,,,,,,
,,,,,,,,,5ed1f281a0e7a4000ae547ce,Spanish,13 or older,"no, only English or Spanish",no,2026-01-21_19h01.31.253,empathy_intonation_perc_control,2024.2.4,Win32,120.4819277,5ed1f281a0e7a4000ae547ce,69712dc693a3960bdb483245,697168b7d37416972779a885,,,,,,,,,,,,,1,,,,,,,,,,,,,,,,,,,,,,,,,,,,,,,,,,,,,39,torpe,,,,,382.2563,383.4225,0,0,0.6505,,0,51,51,38,1,REAL,FAKE,,,,,,,,,,,,,,,,,
,,,,,,,,,5ed1f281a0e7a4000ae547ce,Spanish,13 or older,"no, only English or Spanish",no,2026-01-21_19h01.31.253,empathy_intonation_perc_control,2024.2.4,Win32,120.4819277,5ed1f281a0e7a4000ae547ce,69712dc693a3960bdb483245,697168b7d37416972779a885,,,,,,,,,,,,,1,,,,,,,,,,,,,,,,,,,,,,,,,,,,,,,,,,,,,12,asesinato,,,,,383.4229,384.6642,1,1,0.7248,,0,52,52,11,1,REAL,FAKE,,,,,,,,,,,,,,,,,
,,,,,,,,,5ed1f281a0e7a4000ae547ce,Spanish,13 or older,"no, only English or Spanish",no,2026-01-21_19h01.31.253,empathy_intonation_perc_control,2024.2.4,Win32,120.4819277,5ed1f281a0e7a4000ae547ce,69712dc693a3960bdb483245,697168b7d37416972779a885,,,,,,,,,,,,,1,,,,,,,,,,,,,,,,,,,,,,,,,,,,,,,,,,,,,62,flaco,,,,,384.6645,385.7891,0,0,0.6061,,0,53,53,61,1,REAL,FAKE,,,,,,,,,,,,,,,,,
,,,,,,,,,5ed1f281a0e7a4000ae547ce,Spanish,13 or older,"no, only English or Spanish",no,2026-01-21_19h01.31.253,empathy_intonation_perc_control,2024.2.4,Win32,120.4819277,5ed1f281a0e7a4000ae547ce,69712dc693a3960bdb483245,697168b7d37416972779a885,,,,,,,,,,,,,1,,,,,,,,,,,,,,,,,,,,,,,,,,,,,,,,,,,,,52,camisa,,,,,385.7895,387.5141,1,1,1.211,,0,54,54,51,1,REAL,FAKE,,,,,,,,,,,,,,,,,
,,,,,,,,,5ed1f281a0e7a4000ae547ce,Spanish,13 or older,"no, only English or Spanish",no,2026-01-21_19h01.31.253,empathy_intonation_perc_control,2024.2.4,Win32,120.4819277,5ed1f281a0e7a4000ae547ce,69712dc693a3960bdb483245,697168b7d37416972779a885,,,,,,,,,,,,,1,,,,,,,,,,,,,,,,,,,,,,,,,,,,,,,,,,,,,51,candado,,,,,387.5145,388.4309,0,0,0.4002,,0,55,55,50,1,REAL,FAKE,,,,,,,,,,,,,,,,,
,,,,,,,,,5ed1f281a0e7a4000ae547ce,Spanish,13 or older,"no, only English or Spanish",no,2026-01-21_19h01.31.253,empathy_intonation_perc_control,2024.2.4,Win32,120.4819277,5ed1f281a0e7a4000ae547ce,69712dc693a3960bdb483245,697168b7d37416972779a885,,,,,,,,,,,,,0,,,,,,,,,,,,,,,,,,,,,,,,,,,,,,,,,,,,,19,brecedad,,,,,388.4313,389.5392,0,1,0.5945,,0,56,56,18,1,REAL,FAKE,,,,,,,,,,,,,,,,,
,,,,,,,,,5ed1f281a0e7a4000ae547ce,Spanish,13 or older,"no, only English or Spanish",no,2026-01-21_19h01.31.253,empathy_intonation_perc_control,2024.2.4,Win32,120.4819277,5ed1f281a0e7a4000ae547ce,69712dc693a3960bdb483245,697168b7d37416972779a885,,,,,,,,,,,,,1,,,,,,,,,,,,,,,,,,,,,,,,,,,,,,,,,,,,,11,cenefa,,,,,389.5396,390.5808,0,0,0.5266,,0,57,57,10,1,REAL,FAKE,,,,,,,,,,,,,,,,,
,,,,,,,,,5ed1f281a0e7a4000ae547ce,Spanish,13 or older,"no, only English or Spanish",no,2026-01-21_19h01.31.253,empathy_intonation_perc_control,2024.2.4,Win32,120.4819277,5ed1f281a0e7a4000ae547ce,69712dc693a3960bdb483245,697168b7d37416972779a885,,,,,,,,,,,,,1,,,,,,,,,,,,,,,,,,,,,,,,,,,,,,,,,,,,,64,orgulloso,,,,,390.5813,391.7893,0,0,0.6876,,0,58,58,63,1,REAL,FAKE,,,,,,,,,,,,,,,,,
,,,,,,,,,5ed1f281a0e7a4000ae547ce,Spanish,13 or older,"no, only English or Spanish",no,2026-01-21_19h01.31.253,empathy_intonation_perc_control,2024.2.4,Win32,120.4819277,5ed1f281a0e7a4000ae547ce,69712dc693a3960bdb483245,697168b7d37416972779a885,,,,,,,,,,,,,0,,,,,,,,,,,,,,,,,,,,,,,,,,,,,,,,,,,,,58,plaudir,,,,,391.7897,392.8809,0,1,0.5738,,0,59,59,57,1,REAL,FAKE,,,,,,,,,,,,,,,,,
,,,,,,,,,5ed1f281a0e7a4000ae547ce,Spanish,13 or older,"no, only English or Spanish",no,2026-01-21_19h01.31.253,empathy_intonation_perc_control,2024.2.4,Win32,120.4819277,5ed1f281a0e7a4000ae547ce,69712dc693a3960bdb483245,697168b7d37416972779a885,,,,,,,,,,,,,1,,,,,,,,,,,,,,,,,,,,,,,,,,,,,,,,,,,,,9,hacha,,,,,392.8813,394.306,1,1,0.9082,,0,60,60,8,1,REAL,FAKE,,,,,,,,,,,,,,,,,
,,,,,,,,,5ed1f281a0e7a4000ae547ce,Spanish,13 or older,"no, only English or Spanish",no,2026-01-21_19h01.31.253,empathy_intonation_perc_control,2024.2.4,Win32,120.4819277,5ed1f281a0e7a4000ae547ce,69712dc693a3960bdb483245,697168b7d37416972779a885,,,,,,,,,,,,,1,,,,,,,,,,,,,,,,,,,,,,,,,,,,,,,,,,,,,56,musgo,,,,,394.3066,395.381,1,1,0.56,,0,61,61,55,1,REAL,FAKE,,,,,,,,,,,,,,,,,
,,,,,,,,,5ed1f281a0e7a4000ae547ce,Spanish,13 or older,"no, only English or Spanish",no,2026-01-21_19h01.31.253,empathy_intonation_perc_control,2024.2.4,Win32,120.4819277,5ed1f281a0e7a4000ae547ce,69712dc693a3960bdb483245,697168b7d37416972779a885,,,,,,,,,,,,,0,,,,,,,,,,,,,,,,,,,,,,,,,,,,,,,,,,,,,21,capillo,,,,,395.3814,396.3976,0,1,0.5004,,0,62,62,20,1,REAL,FAKE,,,,,,,,,,,,,,,,,
,,,,,,,,,5ed1f281a0e7a4000ae547ce,Spanish,13 or older,"no, only English or Spanish",no,2026-01-21_19h01.31.253,empathy_intonation_perc_control,2024.2.4,Win32,120.4819277,5ed1f281a0e7a4000ae547ce,69712dc693a3960bdb483245,697168b7d37416972779a885,,,,,,,,,,,,,0,,,,,,,,,,,,,,,,,,,,,,,,,,,,,,,,,,,,,16,abracer,,,,,396.398,397.6476,0,1,0.7351,,0,63,63,15,1,REAL,FAKE,,,,,,,,,,,,,,,,,
,,,,,,,,,5ed1f281a0e7a4000ae547ce,Spanish,13 or older,"no, only English or Spanish",no,2026-01-21_19h01.31.253,empathy_intonation_perc_control,2024.2.4,Win32,120.4819277,5ed1f281a0e7a4000ae547ce,69712dc693a3960bdb483245,697168b7d37416972779a885,,,,,,,,,,,,,1,,,,,,,,,,,,,,,,,,,,,,,,,,,,,,,,,,,,,73,hervidor,,,,,397.648,398.656,1,1,0.4906,,0,64,64,72,1,REAL,FAKE,,,,,,,,,,,,,,,,,
,,,,,,,,,5ed1f281a0e7a4000ae547ce,Spanish,13 or older,"no, only English or Spanish",no,2026-01-21_19h01.31.253,empathy_intonation_perc_control,2024.2.4,Win32,120.4819277,5ed1f281a0e7a4000ae547ce,69712dc693a3960bdb483245,697168b7d37416972779a885,,,,,,,,,,,,,1,,,,,,,,,,,,,,,,,,,,,,,,,,,,,,,,,,,,,24,látigo,,,,,398.6564,399.8476,1,1,0.6751,,0,65,65,23,1,REAL,FAKE,,,,,,,,,,,,,,,,,
,,,,,,,,,5ed1f281a0e7a4000ae547ce,Spanish,13 or older,"no, only English or Spanish",no,2026-01-21_19h01.31.253,empathy_intonation_perc_control,2024.2.4,Win32,120.4819277,5ed1f281a0e7a4000ae547ce,69712dc693a3960bdb483245,697168b7d37416972779a885,,,,,,,,,,,,,0,,,,,,,,,,,,,,,,,,,,,,,,,,,,,,,,,,,,,47,cartinar,,,,,399.848,400.8644,0,1,0.5102,,0,66,66,46,1,REAL,FAKE,,,,,,,,,,,,,,,,,
,,,,,,,,,5ed1f281a0e7a4000ae547ce,Spanish,13 or older,"no, only English or Spanish",no,2026-01-21_19h01.31.253,empathy_intonation_perc_control,2024.2.4,Win32,120.4819277,5ed1f281a0e7a4000ae547ce,69712dc693a3960bdb483245,697168b7d37416972779a885,,,,,,,,,,,,,1,,,,,,,,,,,,,,,,,,,,,,,,,,,,,,,,,,,,,38,estornudar,,,,,400.8649,401.9976,0,0,0.6193,,0,67,67,37,1,REAL,FAKE,,,,,,,,,,,,,,,,,
,,,,,,,,,5ed1f281a0e7a4000ae547ce,Spanish,13 or older,"no, only English or Spanish",no,2026-01-21_19h01.31.253,empathy_intonation_perc_control,2024.2.4,Win32,120.4819277,5ed1f281a0e7a4000ae547ce,69712dc693a3960bdb483245,697168b7d37416972779a885,,,,,,,,,,,,,1,,,,,,,,,,,,,,,,,,,,,,,,,,,,,,,,,,,,,71,polvoriento,,,,,401.998,403.1477,0,0,0.6339,,0,68,68,70,1,REAL,FAKE,,,,,,,,,,,,,,,,,
,,,,,,,,,5ed1f281a0e7a4000ae547ce,Spanish,13 or older,"no, only English or Spanish",no,2026-01-21_19h01.31.253,empathy_intonation_perc_control,2024.2.4,Win32,120.4819277,5ed1f281a0e7a4000ae547ce,69712dc693a3960bdb483245,697168b7d37416972779a885,,,,,,,,,,,,,0,,,,,,,,,,,,,,,,,,,,,,,,,,,,,,,,,,,,,23,lampera,,,,,403.148,405.1645,1,0,1.5021,,0,69,69,22,1,REAL,FAKE,,,,,,,,,,,,,,,,,
,,,,,,,,,5ed1f281a0e7a4000ae547ce,Spanish,13 or older,"no, only English or Spanish",no,2026-01-21_19h01.31.253,empathy_intonation_perc_control,2024.2.4,Win32,120.4819277,5ed1f281a0e7a4000ae547ce,69712dc693a3960bdb483245,697168b7d37416972779a885,,,,,,,,,,,,,0,,,,,,,,,,,,,,,,,,,,,,,,,,,,,,,,,,,,,4,batillón,,,,,405.1648,406.2478,0,1,0.5621,,0,70,70,3,1,REAL,FAKE,,,,,,,,,,,,,,,,,
,,,,,,,,,5ed1f281a0e7a4000ae547ce,Spanish,13 or older,"no, only English or Spanish",no,2026-01-21_19h01.31.253,empathy_intonation_perc_control,2024.2.4,Win32,120.4819277,5ed1f281a0e7a4000ae547ce,69712dc693a3960bdb483245,697168b7d37416972779a885,,,,,,,,,,,,,1,,,,,,,,,,,,,,,,,,,,,,,,,,,,,,,,,,,,,45,jilguero,,,,,406.2483,407.5144,0,0,0.7455,,0,71,71,44,1,REAL,FAKE,,,,,,,,,,,,,,,,,
,,,,,,,,,5ed1f281a0e7a4000ae547ce,Spanish,13 or older,"no, only English or Spanish",no,2026-01-21_19h01.31.253,empathy_intonation_perc_control,2024.2.4,Win32,120.4819277,5ed1f281a0e7a4000ae547ce,69712dc693a3960bdb483245,697168b7d37416972779a885,,,,,,,,,,,,,0,,,,,,,,,,,,,,,,,,,,,,,,,,,,,,,,,,,,,70,temblo,,,,,407.5148,408.6478,0,1,0.6196,,0,72,72,69,1,REAL,FAKE,,,,,,,,,,,,,,,,,
,,,,,,,,,5ed1f281a0e7a4000ae547ce,Spanish,13 or older,"no, only English or Spanish",no,2026-01-21_19h01.31.253,empathy_intonation_perc_control,2024.2.4,Win32,120.4819277,5ed1f281a0e7a4000ae547ce,69712dc693a3960bdb483245,697168b7d37416972779a885,,,,,,,,,,,,,1,,,,,,,,,,,,,,,,,,,,,,,,,,,,,,,,,,,,,48,ladrón,,,,,408.6482,410.1728,1,1,1.0027,,0,73,73,47,1,REAL,FAKE,,,,,,,,,,,,,,,,,
,,,,,,,,,5ed1f281a0e7a4000ae547ce,Spanish,13 or older,"no, only English or Spanish",no,2026-01-21_19h01.31.253,empathy_intonation_perc_control,2024.2.4,Win32,120.4819277,5ed1f281a0e7a4000ae547ce,69712dc693a3960bdb483245,697168b7d37416972779a885,,,,,,,,,,,,,1,,,,,,,,,,,,,,,,,,,,,,,,,,,,,,,,,,,,,68,alegre,,,,,410.1731,411.1562,0,0,0.4641,,0,74,74,67,1,REAL,FAKE,,,,,,,,,,,,,,,,,
,,,,,,,,,5ed1f281a0e7a4000ae547ce,Spanish,13 or older,"no, only English or Spanish",no,2026-01-21_19h01.31.253,empathy_intonation_perc_control,2024.2.4,Win32,120.4819277,5ed1f281a0e7a4000ae547ce,69712dc693a3960bdb483245,697168b7d37416972779a885,,,,,,,,,,,,,1,,,,,,,,,,,,,,,,,,,,,,,,,,,,,,,,,,,,,6,tergiversar,,,,,411.1566,412.2146,0,0,0.5448,,0,75,75,5,1,REAL,FAKE,,,,,,,,,,,,,,,,,
,,,,,,,,,5ed1f281a0e7a4000ae547ce,Spanish,13 or older,"no, only English or Spanish",no,2026-01-21_19h01.31.253,empathy_intonation_perc_control,2024.2.4,Win32,120.4819277,5ed1f281a0e7a4000ae547ce,69712dc693a3960bdb483245,697168b7d37416972779a885,,,,,,,,,,,,,0,,,,,,,,,,,,,,,,,,,,,,,,,,,,,,,,,,,,,82,empirador,,,,,412.215,413.6895,0,1,0.957,,0,76,76,81,1,REAL,FAKE,,,,,,,,,,,,,,,,,
,,,,,,,,,5ed1f281a0e7a4000ae547ce,Spanish,13 or older,"no, only English or Spanish",no,2026-01-21_19h01.31.253,empathy_intonation_perc_control,2024.2.4,Win32,120.4819277,5ed1f281a0e7a4000ae547ce,69712dc693a3960bdb483245,697168b7d37416972779a885,,,,,,,,,,,,,1,,,,,,,,,,,,,,,,,,,,,,,,,,,,,,,,,,,,,55,nevar,,,,,413.69,414.7145,1,1,0.5061,,0,77,77,54,1,REAL,FAKE,,,,,,,,,,,,,,,,,
,,,,,,,,,5ed1f281a0e7a4000ae547ce,Spanish,13 or older,"no, only English or Spanish",no,2026-01-21_19h01.31.253,empathy_intonation_perc_control,2024.2.4,Win32,120.4819277,5ed1f281a0e7a4000ae547ce,69712dc693a3960bdb483245,697168b7d37416972779a885,,,,,,,,,,,,,1,,,,,,,,,,,,,,,,,,,,,,,,,,,,,,,,,,,,,13,helar,,,,,414.715,416.2232,1,1,0.9924,,0,78,78,12,1,REAL,FAKE,,,,,,,,,,,,,,,,,
,,,,,,,,,5ed1f281a0e7a4000ae547ce,Spanish,13 or older,"no, only English or Spanish",no,2026-01-21_19h01.31.253,empathy_intonation_perc_control,2024.2.4,Win32,120.4819277,5ed1f281a0e7a4000ae547ce,69712dc693a3960bdb483245,697168b7d37416972779a885,,,,,,,,,,,,,0,,,,,,,,,,,,,,,,,,,,,,,,,,,,,,,,,,,,,63,esposante,,,,,416.2237,417.3646,1,0,0.6257,,0,79,79,62,1,REAL,FAKE,,,,,,,,,,,,,,,,,
,,,,,,,,,5ed1f281a0e7a4000ae547ce,Spanish,13 or older,"no, only English or Spanish",no,2026-01-21_19h01.31.253,empathy_intonation_perc_control,2024.2.4,Win32,120.4819277,5ed1f281a0e7a4000ae547ce,69712dc693a3960bdb483245,697168b7d37416972779a885,,,,,,,,,,,,,1,,,,,,,,,,,,,,,,,,,,,,,,,,,,,,,,,,,,,77,tiburón,,,,,417.3649,418.4979,0,0,0.6136,,0,80,80,76,1,REAL,FAKE,,,,,,,,,,,,,,,,,
,,,,,,,,,5ed1f281a0e7a4000ae547ce,Spanish,13 or older,"no, only English or Spanish",no,2026-01-21_19h01.31.253,empathy_intonation_perc_control,2024.2.4,Win32,120.4819277,5ed1f281a0e7a4000ae547ce,69712dc693a3960bdb483245,697168b7d37416972779a885,,,,,,,,,,,,,1,,,,,,,,,,,,,,,,,,,,,,,,,,,,,,,,,,,,,25,bisagra,,,,,418.4982,419.5395,0,0,0.5242,,0,81,81,24,1,REAL,FAKE,,,,,,,,,,,,,,,,,
,,,,,,,,,5ed1f281a0e7a4000ae547ce,Spanish,13 or older,"no, only English or Spanish",no,2026-01-21_19h01.31.253,empathy_intonation_perc_control,2024.2.4,Win32,120.4819277,5ed1f281a0e7a4000ae547ce,69712dc693a3960bdb483245,697168b7d37416972779a885,,,,,,,,,,,,,0,,,,,,,,,,,,,,,,,,,,,,,,,,,,,,,,,,,,,18,arsa,,,,,419.5399,420.5646,0,1,0.5077,,0,82,82,17,1,REAL,FAKE,,,,,,,,,,,,,,,,,
,,,,,,,,,5ed1f281a0e7a4000ae547ce,Spanish,13 or older,"no, only English or Spanish",no,2026-01-21_19h01.31.253,empathy_intonation_perc_control,2024.2.4,Win32,120.4819277,5ed1f281a0e7a4000ae547ce,69712dc693a3960bdb483245,697168b7d37416972779a885,,,,,,,,,,,,,1,,,,,,,,,,,,,,,,,,,,,,,,,,,,,,,,,,,,,61,seda,,,,,420.565,422.0313,1,1,0.9492,,0,83,83,60,1,REAL,FAKE,,,,,,,,,,,,,,,,,
,,,,,,,,,5ed1f281a0e7a4000ae547ce,Spanish,13 or older,"no, only English or Spanish",no,2026-01-21_19h01.31.253,empathy_intonation_perc_control,2024.2.4,Win32,120.4819277,5ed1f281a0e7a4000ae547ce,69712dc693a3960bdb483245,697168b7d37416972779a885,,,,,,,,,,,,,1,,,,,,,,,,,,,,,,,,,,,,,,,,,,,,,,,,,,,5,zapato,,,,,422.0317,422.9814,0,0,0.4339,,0,84,84,4,1,REAL,FAKE,,,,,,,,,,,,,,,,,
,,,,,,,,,5ed1f281a0e7a4000ae547ce,Spanish,13 or older,"no, only English or Spanish",no,2026-01-21_19h01.31.253,empathy_intonation_perc_control,2024.2.4,Win32,120.4819277,5ed1f281a0e7a4000ae547ce,69712dc693a3960bdb483245,697168b7d37416972779a885,,,,,,,,,,,,,1,,,,,,,,,,,,,,,,,,,,,,,,,,,,,,,,,,,,,75,yacer,,,,,422.9818,424.0148,0,0,0.5129,,0,85,85,74,1,REAL,FAKE,,,,,,,,,,,,,,,,,
,,,,,,,,,5ed1f281a0e7a4000ae547ce,Spanish,13 or older,"no, only English or Spanish",no,2026-01-21_19h01.31.253,empathy_intonation_perc_control,2024.2.4,Win32,120.4819277,5ed1f281a0e7a4000ae547ce,69712dc693a3960bdb483245,697168b7d37416972779a885,,,,,,,,,,,,,0,,,,,,,,,,,,,,,,,,,,,,,,,,,,,,,,,,,,,87,grodo,,,,,424.0153,424.9396,1,0,0.4064,,0,86,86,86,1,REAL,FAKE,,,,,,,,,,,,,,,,,
,,,,,,,,,5ed1f281a0e7a4000ae547ce,Spanish,13 or older,"no, only English or Spanish",no,2026-01-21_19h01.31.253,empathy_intonation_perc_control,2024.2.4,Win32,120.4819277,5ed1f281a0e7a4000ae547ce,69712dc693a3960bdb483245,697168b7d37416972779a885,,,,,,,,,,,,,0,,,,,,,,,,,,,,,,,,,,,,,,,,,,,,,,,,,,,53,vegada,,,,,424.9401,425.8813,1,0,0.4314,,0,87,87,52,1,REAL,FAKE,,,,,,,,,,,,,,,,,
,,,,,,,,,5ed1f281a0e7a4000ae547ce,Spanish,13 or older,"no, only English or Spanish",no,2026-01-21_19h01.31.253,empathy_intonation_perc_control,2024.2.4,Win32,120.4819277,5ed1f281a0e7a4000ae547ce,69712dc693a3960bdb483245,697168b7d37416972779a885,,,,,,,,,,,,,1,,,,,,,,,,,,,,,,,,,,,,,,,,,,,,,,,,,,,36,loro,,,,,425.8817,426.9647,0,0,0.5638,,0,88,88,35,1,REAL,FAKE,,,,,,,,,,,,,,,,,
,,,,,,,,,5ed1f281a0e7a4000ae547ce,Spanish,13 or older,"no, only English or Spanish",no,2026-01-21_19h01.31.253,empathy_intonation_perc_control,2024.2.4,Win32,120.4819277,5ed1f281a0e7a4000ae547ce,69712dc693a3960bdb483245,697168b7d37416972779a885,,,,,,,,,,,,,0,,,,,,,,,,,,,,,,,,,,,,,,,,,,,,,,,,,,,30,alardio,,,,,426.9651,427.8813,0,1,0.3986,,0,89,89,29,1,REAL,FAKE,,,,,,,,,,,,,,,,,
,,,,,,,,,5ed1f281a0e7a4000ae547ce,Spanish,13 or older,"no, only English or Spanish",no,2026-01-21_19h01.31.253,empathy_intonation_perc_control,2024.2.4,Win32,120.4819277,5ed1f281a0e7a4000ae547ce,69712dc693a3960bdb483245,697168b7d37416972779a885,,,,,,,,,,,,,1,,,,,,,,,,,,,,,,,,,,,,,,,,,,,,,,,,,,,22,lacayo,,,,,427.8817,428.7482,1,1,0.3486,,0,90,90,21,1,REAL,FAKE,,,,,,,,,,,,,,,,,
,,,,,,,,,5ed1f281a0e7a4000ae547ce,Spanish,13 or older,"no, only English or Spanish",no,2026-01-21_19h01.31.253,empathy_intonation_perc_control,2024.2.4,Win32,120.4819277,5ed1f281a0e7a4000ae547ce,69712dc693a3960bdb483245,697168b7d37416972779a885,,,,,,,,,,,,,1,,,,,,,,,,,,,,,,,,,,,,,,,,,,,,,,,,,,,86,barato,,,,,428.7486,429.773,0,0,0.5084,,0,91,91,85,1,REAL,FAKE,,,,,,,,,,,,,,,,,
,,,,,,,,,5ed1f281a0e7a4000ae547ce,Spanish,13 or older,"no, only English or Spanish",no,2026-01-21_19h01.31.253,empathy_intonation_perc_control,2024.2.4,Win32,120.4819277,5ed1f281a0e7a4000ae547ce,69712dc693a3960bdb483245,697168b7d37416972779a885,,,,,,,,,,,,,,,,,,,,,,,,,,,,,,,,,,,,,,,,,,,,,,,,,,,,,,,,,,,,,,,,,,,,,429.7732,434.1399,,,,,,,,,,,,,,,
,,,,,,,,,5ed1f281a0e7a4000ae547ce,Spanish,13 or older,"no, only English or Spanish",no,2026-01-21_19h01.31.253,empathy_intonation_perc_control,2024.2.4,Win32,120.4819277,5ed1f281a0e7a4000ae547ce,69712dc693a3960bdb483245,697168b7d37416972779a885,,,,,,,,,,,,,,,,,,,,,,,,,,,1,,,,,,,,,,,,,,,,,,,,,,,,,,,,,,,,,,,,,,,,,,,,434.1437,442.9233,slightly agree,0,0,0,0,1,I can easily tell if someone else wants to enter a conversation.,1,0,1,0,,
,,,,,,,,,5ed1f281a0e7a4000ae547ce,Spanish,13 or older,"no, only English or Spanish",no,2026-01-21_19h01.31.253,empathy_intonation_perc_control,2024.2.4,Win32,120.4819277,5ed1f281a0e7a4000ae547ce,69712dc693a3960bdb483245,697168b7d37416972779a885,,,,,,,,,,,,,,,,,,,,,,,,,,,2,,,,,,,,,,,,,,,,,,,,,,,,,,,,,,,,,,,,,,,,,,,,442.924,446.3733,slightly agree,0,1,1,1,1,I prefer animals to humans.,0,1,0,0,,
,,,,,,,,,5ed1f281a0e7a4000ae547ce,Spanish,13 or older,"no, only English or Spanish",no,2026-01-21_19h01.31.253,empathy_intonation_perc_control,2024.2.4,Win32,120.4819277,5ed1f281a0e7a4000ae547ce,69712dc693a3960bdb483245,697168b7d37416972779a885,,,,,,,,,,,,,,,,,,,,,,,,,,,3,,,,,,,,,,,,,,,,,,,,,,,,,,,,,,,,,,,,,,,,,,,,446.374,448.1816,slightly agree,0,2,2,2,1,I try to keep up with the current trends and fashions.,0,1,0,0,,
,,,,,,,,,5ed1f281a0e7a4000ae547ce,Spanish,13 or older,"no, only English or Spanish",no,2026-01-21_19h01.31.253,empathy_intonation_perc_control,2024.2.4,Win32,120.4819277,5ed1f281a0e7a4000ae547ce,69712dc693a3960bdb483245,697168b7d37416972779a885,,,,,,,,,,,,,,,,,,,,,,,,,,,4,,,,,,,,,,,,,,,,,,,,,,,,,,,,,,,,,,,,,,,,,,,,448.1824,451.3983,slightly agree,0,3,3,3,1,"I find it difficult to explain to others things that I understand easily,   when they don't understand it first time.",1,0,0,1,,
,,,,,,,,,5ed1f281a0e7a4000ae547ce,Spanish,13 or older,"no, only English or Spanish",no,2026-01-21_19h01.31.253,empathy_intonation_perc_control,2024.2.4,Win32,120.4819277,5ed1f281a0e7a4000ae547ce,69712dc693a3960bdb483245,697168b7d37416972779a885,,,,,,,,,,,,,,,,,,,,,,,,,,,5,,,,,,,,,,,,,,,,,,,,,,,,,,,,,,,,,,,,,,,,,,,,451.3987,453.3817,slightly disagree,0,4,4,4,1,I dream most nights.,0,1,0,0,,
,,,,,,,,,5ed1f281a0e7a4000ae547ce,Spanish,13 or older,"no, only English or Spanish",no,2026-01-21_19h01.31.253,empathy_intonation_perc_control,2024.2.4,Win32,120.4819277,5ed1f281a0e7a4000ae547ce,69712dc693a3960bdb483245,697168b7d37416972779a885,,,,,,,,,,,,,,,,,,,,,,,,,,,6,,,,,,,,,,,,,,,,,,,,,,,,,,,,,,,,,,,,,,,,,,,,453.3822,454.9234,slightly disagree,0,5,5,5,1,I really enjoy caring for other people.,1,0,1,0,,
,,,,,,,,,5ed1f281a0e7a4000ae547ce,Spanish,13 or older,"no, only English or Spanish",no,2026-01-21_19h01.31.253,empathy_intonation_perc_control,2024.2.4,Win32,120.4819277,5ed1f281a0e7a4000ae547ce,69712dc693a3960bdb483245,697168b7d37416972779a885,,,,,,,,,,,,,,,,,,,,,,,,,,,7,,,,,,,,,,,,,,,,,,,,,,,,,,,,,,,,,,,,,,,,,,,,454.924,457.1234,slightly agree,0,6,6,6,1,I try to solve my own problems rather than discussing them with others.,0,1,0,0,,
,,,,,,,,,5ed1f281a0e7a4000ae547ce,Spanish,13 or older,"no, only English or Spanish",no,2026-01-21_19h01.31.253,empathy_intonation_perc_control,2024.2.4,Win32,120.4819277,5ed1f281a0e7a4000ae547ce,69712dc693a3960bdb483245,697168b7d37416972779a885,,,,,,,,,,,,,,,,,,,,,,,,,,,8,,,,,,,,,,,,,,,,,,,,,,,,,,,,,,,,,,,,,,,,,,,,457.1239,458.5401,slightly agree,0,7,7,7,1,I find it hard to know what to do in a social situation.,1,0,0,1,,
,,,,,,,,,5ed1f281a0e7a4000ae547ce,Spanish,13 or older,"no, only English or Spanish",no,2026-01-21_19h01.31.253,empathy_intonation_perc_control,2024.2.4,Win32,120.4819277,5ed1f281a0e7a4000ae547ce,69712dc693a3960bdb483245,697168b7d37416972779a885,,,,,,,,,,,,,,,,,,,,,,,,,,,9,,,,,,,,,,,,,,,,,,,,,,,,,,,,,,,,,,,,,,,,,,,,458.5405,460.4985,strongly disagree,0,8,8,8,1,I am at my best first thing in the morning.,0,1,0,0,,
,,,,,,,,,5ed1f281a0e7a4000ae547ce,Spanish,13 or older,"no, only English or Spanish",no,2026-01-21_19h01.31.253,empathy_intonation_perc_control,2024.2.4,Win32,120.4819277,5ed1f281a0e7a4000ae547ce,69712dc693a3960bdb483245,697168b7d37416972779a885,,,,,,,,,,,,,,,,,,,,,,,,,,,10,,,,,,,,,,,,,,,,,,,,,,,,,,,,,,,,,,,,,,,,,,,,460.4992,463.5568,strongly disagree,0,9,9,9,1,People often tell me that I went too far in driving my point home in a discussion.,1,0,0,1,,
,,,,,,,,,5ed1f281a0e7a4000ae547ce,Spanish,13 or older,"no, only English or Spanish",no,2026-01-21_19h01.31.253,empathy_intonation_perc_control,2024.2.4,Win32,120.4819277,5ed1f281a0e7a4000ae547ce,69712dc693a3960bdb483245,697168b7d37416972779a885,,,,,,,,,,,,,,,,,,,,,,,,,,,11,,,,,,,,,,,,,,,,,,,,,,,,,,,,,,,,,,,,,,,,,,,,463.5574,465.8986,slightly agree,0,10,10,10,1,It doesn't bother me too much if I am late meeting a friend.,1,0,0,1,,
,,,,,,,,,5ed1f281a0e7a4000ae547ce,Spanish,13 or older,"no, only English or Spanish",no,2026-01-21_19h01.31.253,empathy_intonation_perc_control,2024.2.4,Win32,120.4819277,5ed1f281a0e7a4000ae547ce,69712dc693a3960bdb483245,697168b7d37416972779a885,,,,,,,,,,,,,,,,,,,,,,,,,,,12,,,,,,,,,,,,,,,,,,,,,,,,,,,,,,,,,,,,,,,,,,,,465.8992,468.8735,slightly disagree,0,11,11,11,1,"Friendships and relationships are just too difficult, so I tend not to 
  bother with them.",1,0,0,1,,
,,,,,,,,,5ed1f281a0e7a4000ae547ce,Spanish,13 or older,"no, only English or Spanish",no,2026-01-21_19h01.31.253,empathy_intonation_perc_control,2024.2.4,Win32,120.4819277,5ed1f281a0e7a4000ae547ce,69712dc693a3960bdb483245,697168b7d37416972779a885,,,,,,,,,,,,,,,,,,,,,,,,,,,13,,,,,,,,,,,,,,,,,,,,,,,,,,,,,,,,,,,,,,,,,,,,468.874,471.432,strongly disagree,0,12,12,12,1,"I would never break a law, no matter how minor.",0,1,0,0,,
,,,,,,,,,5ed1f281a0e7a4000ae547ce,Spanish,13 or older,"no, only English or Spanish",no,2026-01-21_19h01.31.253,empathy_intonation_perc_control,2024.2.4,Win32,120.4819277,5ed1f281a0e7a4000ae547ce,69712dc693a3960bdb483245,697168b7d37416972779a885,,,,,,,,,,,,,,,,,,,,,,,,,,,14,,,,,,,,,,,,,,,,,,,,,,,,,,,,,,,,,,,,,,,,,,,,471.4326,473.3736,slightly agree,0,13,13,13,1,I often find it difficult to judge if something is rude or polite.,1,0,0,1,,
,,,,,,,,,5ed1f281a0e7a4000ae547ce,Spanish,13 or older,"no, only English or Spanish",no,2026-01-21_19h01.31.253,empathy_intonation_perc_control,2024.2.4,Win32,120.4819277,5ed1f281a0e7a4000ae547ce,69712dc693a3960bdb483245,697168b7d37416972779a885,,,,,,,,,,,,,,,,,,,,,,,,,,,15,,,,,,,,,,,,,,,,,,,,,,,,,,,,,,,,,,,,,,,,,,,,473.3741,475.2486,slightly disagree,0,14,14,14,1,"In a conversation, I tend to focus on my own thoughts rather than on what 
  my listener might be thinking.",1,0,0,1,,
,,,,,,,,,5ed1f281a0e7a4000ae547ce,Spanish,13 or older,"no, only English or Spanish",no,2026-01-21_19h01.31.253,empathy_intonation_perc_control,2024.2.4,Win32,120.4819277,5ed1f281a0e7a4000ae547ce,69712dc693a3960bdb483245,697168b7d37416972779a885,,,,,,,,,,,,,,,,,,,,,,,,,,,16,,,,,,,,,,,,,,,,,,,,,,,,,,,,,,,,,,,,,,,,,,,,475.2491,477.1737,slightly agree,0,15,15,15,1,I prefer practical jokes to verbal humor.,0,1,0,0,,
,,,,,,,,,5ed1f281a0e7a4000ae547ce,Spanish,13 or older,"no, only English or Spanish",no,2026-01-21_19h01.31.253,empathy_intonation_perc_control,2024.2.4,Win32,120.4819277,5ed1f281a0e7a4000ae547ce,69712dc693a3960bdb483245,697168b7d37416972779a885,,,,,,,,,,,,,,,,,,,,,,,,,,,17,,,,,,,,,,,,,,,,,,,,,,,,,,,,,,,,,,,,,,,,,,,,477.1742,483.1821,slightly disagree,0,16,16,16,1,I live life for today rather than the future.,0,1,0,0,,
,,,,,,,,,5ed1f281a0e7a4000ae547ce,Spanish,13 or older,"no, only English or Spanish",no,2026-01-21_19h01.31.253,empathy_intonation_perc_control,2024.2.4,Win32,120.4819277,5ed1f281a0e7a4000ae547ce,69712dc693a3960bdb483245,697168b7d37416972779a885,,,,,,,,,,,,,,,,,,,,,,,,,,,18,,,,,,,,,,,,,,,,,,,,,,,,,,,,,,,,,,,,,,,,,,,,483.1828,485.6405,strongly disagree,0,17,17,17,1,"When I was a child, I enjoyed cutting up worms to see what would happen.",1,0,0,1,,
,,,,,,,,,5ed1f281a0e7a4000ae547ce,Spanish,13 or older,"no, only English or Spanish",no,2026-01-21_19h01.31.253,empathy_intonation_perc_control,2024.2.4,Win32,120.4819277,5ed1f281a0e7a4000ae547ce,69712dc693a3960bdb483245,697168b7d37416972779a885,,,,,,,,,,,,,,,,,,,,,,,,,,,19,,,,,,,,,,,,,,,,,,,,,,,,,,,,,,,,,,,,,,,,,,,,485.6409,487.7655,slightly agree,0,18,18,18,1,I can pick up quickly if someone says one thing but means another.,1,0,1,0,,
,,,,,,,,,5ed1f281a0e7a4000ae547ce,Spanish,13 or older,"no, only English or Spanish",no,2026-01-21_19h01.31.253,empathy_intonation_perc_control,2024.2.4,Win32,120.4819277,5ed1f281a0e7a4000ae547ce,69712dc693a3960bdb483245,697168b7d37416972779a885,,,,,,,,,,,,,,,,,,,,,,,,,,,20,,,,,,,,,,,,,,,,,,,,,,,,,,,,,,,,,,,,,,,,,,,,487.7659,489.8655,slightly disagree,0,19,19,19,1,I tend to have very strong opinions about morality.,0,1,0,0,,
,,,,,,,,,5ed1f281a0e7a4000ae547ce,Spanish,13 or older,"no, only English or Spanish",no,2026-01-21_19h01.31.253,empathy_intonation_perc_control,2024.2.4,Win32,120.4819277,5ed1f281a0e7a4000ae547ce,69712dc693a3960bdb483245,697168b7d37416972779a885,,,,,,,,,,,,,,,,,,,,,,,,,,,21,,,,,,,,,,,,,,,,,,,,,,,,,,,,,,,,,,,,,,,,,,,,489.8659,494.549,strongly agree,0,20,20,20,1,It is hard for me to see why some things upset people so much.,1,0,0,1,,
,,,,,,,,,5ed1f281a0e7a4000ae547ce,Spanish,13 or older,"no, only English or Spanish",no,2026-01-21_19h01.31.253,empathy_intonation_perc_control,2024.2.4,Win32,120.4819277,5ed1f281a0e7a4000ae547ce,69712dc693a3960bdb483245,697168b7d37416972779a885,,,,,,,,,,,,,,,,,,,,,,,,,,,22,,,,,,,,,,,,,,,,,,,,,,,,,,,,,,,,,,,,,,,,,,,,494.5494,497.374,slightly disagree,0,21,21,21,1,I find it easy to put myself in somebody else's shoes.,1,0,1,0,,
,,,,,,,,,5ed1f281a0e7a4000ae547ce,Spanish,13 or older,"no, only English or Spanish",no,2026-01-21_19h01.31.253,empathy_intonation_perc_control,2024.2.4,Win32,120.4819277,5ed1f281a0e7a4000ae547ce,69712dc693a3960bdb483245,697168b7d37416972779a885,,,,,,,,,,,,,,,,,,,,,,,,,,,23,,,,,,,,,,,,,,,,,,,,,,,,,,,,,,,,,,,,,,,,,,,,497.3745,500.0657,strongly agree,0,22,22,22,1,I think that good manners are the most important thing a parent can teach their child.,0,1,0,0,,
,,,,,,,,,5ed1f281a0e7a4000ae547ce,Spanish,13 or older,"no, only English or Spanish",no,2026-01-21_19h01.31.253,empathy_intonation_perc_control,2024.2.4,Win32,120.4819277,5ed1f281a0e7a4000ae547ce,69712dc693a3960bdb483245,697168b7d37416972779a885,,,,,,,,,,,,,,,,,,,,,,,,,,,24,,,,,,,,,,,,,,,,,,,,,,,,,,,,,,,,,,,,,,,,,,,,500.0661,502.7574,slightly disagree,0,23,23,23,1,I like to do things on the spur of the moment.,0,1,0,0,,
,,,,,,,,,5ed1f281a0e7a4000ae547ce,Spanish,13 or older,"no, only English or Spanish",no,2026-01-21_19h01.31.253,empathy_intonation_perc_control,2024.2.4,Win32,120.4819277,5ed1f281a0e7a4000ae547ce,69712dc693a3960bdb483245,697168b7d37416972779a885,,,,,,,,,,,,,,,,,,,,,,,,,,,25,,,,,,,,,,,,,,,,,,,,,,,,,,,,,,,,,,,,,,,,,,,,502.7579,504.0657,slightly disagree,0,24,24,24,1,I am good at predicting how someone will feel.,1,0,1,0,,
