instructions_2afc.started,instructions_2afc.stopped,instructions_2afc_loop.thisRepN,instructions_2afc_loop.thisTrialN,instructions_2afc_loop.thisN,instructions_2afc_loop.thisIndex,instructions_2afc_loop.ran,instructions_text,continue_text,participant_id,"What variety of Spanish are you most familiar with? (e.g., Peruvian, Spanish, Mexican)",At what age did you begin learning Spanish?,Are you proficient in any languages other than English/Spanish?,"Are you familiar with Caribbean (e.g., Caribbean, Puerto Rican) or Galician Spanish?",date,expName,psychopyVersion,OS,frameRate,id,study_id,session,practice_2afc.started,practice_2afc.stopped,key_resp_2afc_practice.keys,key_resp_2afc_practice.corr,key_resp_2afc_practice.rt,key_resp_2afc_practice.duration,trials_2afc_practice_loop.thisRepN,trials_2afc_practice_loop.thisTrialN,trials_2afc_practice_loop.thisN,trials_2afc_practice_loop.thisIndex,trials_2afc_practice_loop.ran,path,correct_response,check_2afc.started,check_2afc.stopped,trial_2afc.started,trial_2afc.stopped,key_resp_2afc_trial.keys,key_resp_2afc_trial.corr,key_resp_2afc_trial.rt,key_resp_2afc_trial.duration,trials_2afc_loop.thisRepN,trials_2afc_loop.thisTrialN,trials_2afc_loop.thisN,trials_2afc_loop.thisIndex,trials_2afc_loop.ran,item_num,target,variety,instructions_lextale.started,instructions_lextale.stopped,instructions_lextale_loop.thisRepN,instructions_lextale_loop.thisTrialN,instructions_lextale_loop.thisN,instructions_lextale_loop.thisIndex,instructions_lextale_loop.ran,practice_lextale.started,practice_lextale.stopped,key_resp_lextale_practice.keys,key_resp_lextale_practice.corr,key_resp_lextale_practice.rt,key_resp_lextale_practice.duration,practice_feedback_lextale.started,practice_feedback_lextale.stopped,trials_lextale_practice_loop.thisRepN,trials_lextale_practice_loop.thisTrialN,trials_lextale_practice_loop.thisN,trials_lextale_practice_loop.thisIndex,trials_lextale_practice_loop.ran,stim,word,prac_button_real,prac_button_false,check_lextale.started,check_lextale.stopped,trial_lextale.started,trial_lextale.stopped,key_resp_lextale_trial.keys,key_resp_lextale_trial.corr,key_resp_lextale_trial.rt,key_resp_lextale_trial.duration,trials_lextale_loop.thisRepN,trials_lextale_loop.thisTrialN,trials_lextale_loop.thisN,trials_lextale_loop.thisIndex,trials_lextale_loop.ran,button_real,button_false,instructions_eq.started,instructions_eq.stopped,trial_eq.started,trial_eq.stopped,slider_eq_trial.response,trials_eq_loop.thisRepN,trials_eq_loop.thisTrialN,trials_eq_loop.thisN,trials_eq_loop.thisIndex,trials_eq_loop.ran,item,is_test_item,is_distractor,is_agree_score,is_disagree_score,end_exp.started,end_exp.stopped
0.017,4.7621,0,0,0,0,1,"In the following task you are going to hear a series of utterances. 

  You will decide if the utterances sound like questions or not using your keyboard.", (press the spacebar to continue),5ee8f92c564e6212704b2315,Mexican,13 or older,"no, only English or Spanish",no,2025-08-15_01h34.30.604,empathy_intonation_perc_control,2024.2.4,Win32,59.88023952,5ee8f92c564e6212704b2315,68817205a84113384fffdfe3,689ec6b752da82cf5a0b509a,,,,,,,,,,,,,,,,,,,,,,,,,,,,,,,,,,,,,,,,,,,,,,,,,,,,,,,,,,,,,,,,,,,,,,,,,,,,,,,,,,,,,
4.7628,11.6958,0,1,1,1,1,"If you believe the utterance is a question, type '1' (for 'yes') and if you do not 
  believe it is a question type '0' (for 'no').

  Let's practice a bit...", (press the spacebar to continue),5ee8f92c564e6212704b2315,Mexican,13 or older,"no, only English or Spanish",no,2025-08-15_01h34.30.604,empathy_intonation_perc_control,2024.2.4,Win32,59.88023952,5ee8f92c564e6212704b2315,68817205a84113384fffdfe3,689ec6b752da82cf5a0b509a,,,,,,,,,,,,,,,,,,,,,,,,,,,,,,,,,,,,,,,,,,,,,,,,,,,,,,,,,,,,,,,,,,,,,,,,,,,,,,,,,,,,,
,,,,,,,,,5ee8f92c564e6212704b2315,Mexican,13 or older,"no, only English or Spanish",no,2025-08-15_01h34.30.604,empathy_intonation_perc_control,2024.2.4,Win32,59.88023952,5ee8f92c564e6212704b2315,68817205a84113384fffdfe3,689ec6b752da82cf5a0b509a,11.7083,14.8026,1,1,2.5659,,0,0,0,3,1,./stim/wavs/mexican_question_filler_Felipe-no-tiene-contrasena.wav,1,,,,,,,,,,,,,,,,,,,,,,,,,,,,,,,,,,,,,,,,,,,,,,,,,,,,,,,,,,,,,,,,,,,,,,,,
,,,,,,,,,5ee8f92c564e6212704b2315,Mexican,13 or older,"no, only English or Spanish",no,2025-08-15_01h34.30.604,empathy_intonation_perc_control,2024.2.4,Win32,59.88023952,5ee8f92c564e6212704b2315,68817205a84113384fffdfe3,689ec6b752da82cf5a0b509a,14.804,17.5026,1,1,2.1669,,0,1,1,1,1,./stim/wavs/argentine_question_filler_Mi-vecino-habla-mucho.wav,1,,,,,,,,,,,,,,,,,,,,,,,,,,,,,,,,,,,,,,,,,,,,,,,,,,,,,,,,,,,,,,,,,,,,,,,,
,,,,,,,,,5ee8f92c564e6212704b2315,Mexican,13 or older,"no, only English or Spanish",no,2025-08-15_01h34.30.604,empathy_intonation_perc_control,2024.2.4,Win32,59.88023952,5ee8f92c564e6212704b2315,68817205a84113384fffdfe3,689ec6b752da82cf5a0b509a,17.5038,19.9022,0,1,1.867,,0,2,2,4,1,./stim/wavs/cuban_statement_filler_Cocinabas-por-la-noche.wav,0,,,,,,,,,,,,,,,,,,,,,,,,,,,,,,,,,,,,,,,,,,,,,,,,,,,,,,,,,,,,,,,,,,,,,,,,
,,,,,,,,,5ee8f92c564e6212704b2315,Mexican,13 or older,"no, only English or Spanish",no,2025-08-15_01h34.30.604,empathy_intonation_perc_control,2024.2.4,Win32,59.88023952,5ee8f92c564e6212704b2315,68817205a84113384fffdfe3,689ec6b752da82cf5a0b509a,19.9028,21.9855,0,0,1.5502,,0,3,3,2,1,./stim/wavs/chilean_question_filler_Mi-padre-cantaba-bien.wav,1,,,,,,,,,,,,,,,,,,,,,,,,,,,,,,,,,,,,,,,,,,,,,,,,,,,,,,,,,,,,,,,,,,,,,,,,
,,,,,,,,,5ee8f92c564e6212704b2315,Mexican,13 or older,"no, only English or Spanish",no,2025-08-15_01h34.30.604,empathy_intonation_perc_control,2024.2.4,Win32,59.88023952,5ee8f92c564e6212704b2315,68817205a84113384fffdfe3,689ec6b752da82cf5a0b509a,21.986,24.7022,0,1,2.1837,,0,4,4,7,1,./stim/wavs/puertorican_statement_filler_La-nina-pinta-con-su-amiga.wav,0,,,,,,,,,,,,,,,,,,,,,,,,,,,,,,,,,,,,,,,,,,,,,,,,,,,,,,,,,,,,,,,,,,,,,,,,
,,,,,,,,,5ee8f92c564e6212704b2315,Mexican,13 or older,"no, only English or Spanish",no,2025-08-15_01h34.30.604,empathy_intonation_perc_control,2024.2.4,Win32,59.88023952,5ee8f92c564e6212704b2315,68817205a84113384fffdfe3,689ec6b752da82cf5a0b509a,24.7027,28.7853,0,1,3.5503,,0,5,5,6,1,./stim/wavs/peruvian_statement_filler_El-nino-habla-con-su-madre.wav,0,,,,,,,,,,,,,,,,,,,,,,,,,,,,,,,,,,,,,,,,,,,,,,,,,,,,,,,,,,,,,,,,,,,,,,,,
,,,,,,,,,5ee8f92c564e6212704b2315,Mexican,13 or older,"no, only English or Spanish",no,2025-08-15_01h34.30.604,empathy_intonation_perc_control,2024.2.4,Win32,59.88023952,5ee8f92c564e6212704b2315,68817205a84113384fffdfe3,689ec6b752da82cf5a0b509a,28.7859,32.7189,0,1,3.4005,,0,6,6,5,1,./stim/wavs/andalusian_statement_filler_Alberto-nunca-se-afeita.wav,0,,,,,,,,,,,,,,,,,,,,,,,,,,,,,,,,,,,,,,,,,,,,,,,,,,,,,,,,,,,,,,,,,,,,,,,,
,,,,,,,,,5ee8f92c564e6212704b2315,Mexican,13 or older,"no, only English or Spanish",no,2025-08-15_01h34.30.604,empathy_intonation_perc_control,2024.2.4,Win32,59.88023952,5ee8f92c564e6212704b2315,68817205a84113384fffdfe3,689ec6b752da82cf5a0b509a,32.7194,35.1021,1,1,1.8501,,0,7,7,0,1,./stim/wavs/castilian_question_filler_Mi-esposo-conoce-al-chico.wav,1,,,,,,,,,,,,,,,,,,,,,,,,,,,,,,,,,,,,,,,,,,,,,,,,,,,,,,,,,,,,,,,,,,,,,,,,
,,,,,,,,,5ee8f92c564e6212704b2315,Mexican,13 or older,"no, only English or Spanish",no,2025-08-15_01h34.30.604,empathy_intonation_perc_control,2024.2.4,Win32,59.88023952,5ee8f92c564e6212704b2315,68817205a84113384fffdfe3,689ec6b752da82cf5a0b509a,,,,,,,,,,,,,,35.1023,37.1356,,,,,,,,,,,,,,,,,,,,,,,,,,,,,,,,,,,,,,,,,,,,,,,,,,,,,,,,,,,,,,,,,,,,,,
,,,,,,,,,5ee8f92c564e6212704b2315,Mexican,13 or older,"no, only English or Spanish",no,2025-08-15_01h34.30.604,empathy_intonation_perc_control,2024.2.4,Win32,59.88023952,5ee8f92c564e6212704b2315,68817205a84113384fffdfe3,689ec6b752da82cf5a0b509a,,,,,,,,,,,,./stim/wavs/mexican_match_interrogative-total-yn_David-leia-el-libro.wav,1,,,37.146,39.4615,1,1,1.7907,,0,0,0,14,1,15,0,mexican,,,,,,,,,,,,,,,,,,,,,,,,,,,,,,,,,,,,,,,,,,,,,,,,,,,,,,,,
,,,,,,,,,5ee8f92c564e6212704b2315,Mexican,13 or older,"no, only English or Spanish",no,2025-08-15_01h34.30.604,empathy_intonation_perc_control,2024.2.4,Win32,59.88023952,5ee8f92c564e6212704b2315,68817205a84113384fffdfe3,689ec6b752da82cf5a0b509a,,,,,,,,,,,,./stim/wavs/cuban_match_declarative-broad-focus_Maria-bebe-el-vino.wav,0,,,39.4625,42.4447,0,1,2.4504,,0,1,1,53,1,54,0,cuban,,,,,,,,,,,,,,,,,,,,,,,,,,,,,,,,,,,,,,,,,,,,,,,,,,,,,,,,
,,,,,,,,,5ee8f92c564e6212704b2315,Mexican,13 or older,"no, only English or Spanish",no,2025-08-15_01h34.30.604,empathy_intonation_perc_control,2024.2.4,Win32,59.88023952,5ee8f92c564e6212704b2315,68817205a84113384fffdfe3,689ec6b752da82cf5a0b509a,,,,,,,,,,,,./stim/wavs/castilian_match_interrogative-total-yn_Mariano-habla-del-tiempo.wav,1,,,42.4458,44.9949,1,1,2.0258,,0,2,2,4,1,5,0,castilian,,,,,,,,,,,,,,,,,,,,,,,,,,,,,,,,,,,,,,,,,,,,,,,,,,,,,,,,
,,,,,,,,,5ee8f92c564e6212704b2315,Mexican,13 or older,"no, only English or Spanish",no,2025-08-15_01h34.30.604,empathy_intonation_perc_control,2024.2.4,Win32,59.88023952,5ee8f92c564e6212704b2315,68817205a84113384fffdfe3,689ec6b752da82cf5a0b509a,,,,,,,,,,,,./stim/wavs/mexican_mismatch_interrogative-total-yn_El-nino-oye-el-rio.wav,1,,,44.9959,47.078,1,1,1.5558,,0,3,3,35,1,36,0,mexican,,,,,,,,,,,,,,,,,,,,,,,,,,,,,,,,,,,,,,,,,,,,,,,,,,,,,,,,
,,,,,,,,,5ee8f92c564e6212704b2315,Mexican,13 or older,"no, only English or Spanish",no,2025-08-15_01h34.30.604,empathy_intonation_perc_control,2024.2.4,Win32,59.88023952,5ee8f92c564e6212704b2315,68817205a84113384fffdfe3,689ec6b752da82cf5a0b509a,,,,,,,,,,,,./stim/wavs/mexican_mismatch_interrogative-total-yn_El-hombre-mira-la-luna.wav,1,,,47.0787,49.728,1,1,2.1231,,0,4,4,34,1,35,0,mexican,,,,,,,,,,,,,,,,,,,,,,,,,,,,,,,,,,,,,,,,,,,,,,,,,,,,,,,,
,,,,,,,,,5ee8f92c564e6212704b2315,Mexican,13 or older,"no, only English or Spanish",no,2025-08-15_01h34.30.604,empathy_intonation_perc_control,2024.2.4,Win32,59.88023952,5ee8f92c564e6212704b2315,68817205a84113384fffdfe3,689ec6b752da82cf5a0b509a,,,,,,,,,,,,./stim/wavs/puertorican_mismatch_declarative-broad-focus_El-nino-oye-el-rio.wav,0,,,49.7288,52.0945,0,1,1.8334,,0,5,5,85,1,86,0,puertorican,,,,,,,,,,,,,,,,,,,,,,,,,,,,,,,,,,,,,,,,,,,,,,,,,,,,,,,,
,,,,,,,,,5ee8f92c564e6212704b2315,Mexican,13 or older,"no, only English or Spanish",no,2025-08-15_01h34.30.604,empathy_intonation_perc_control,2024.2.4,Win32,59.88023952,5ee8f92c564e6212704b2315,68817205a84113384fffdfe3,689ec6b752da82cf5a0b509a,,,,,,,,,,,,./stim/wavs/puertorican_mismatch_declarative-broad-focus_El-hombre-mira-la-luna.wav,0,,,52.095,54.5152,0,1,1.8969,,0,6,6,84,1,85,0,puertorican,,,,,,,,,,,,,,,,,,,,,,,,,,,,,,,,,,,,,,,,,,,,,,,,,,,,,,,,
,,,,,,,,,5ee8f92c564e6212704b2315,Mexican,13 or older,"no, only English or Spanish",no,2025-08-15_01h34.30.604,empathy_intonation_perc_control,2024.2.4,Win32,59.88023952,5ee8f92c564e6212704b2315,68817205a84113384fffdfe3,689ec6b752da82cf5a0b509a,,,,,,,,,,,,./stim/wavs/castilian_match_interrogative-total-yn_Manuela-vende-el-carro.wav,1,,,54.516,57.0111,1,1,1.9691,,0,7,7,2,1,3,0,castilian,,,,,,,,,,,,,,,,,,,,,,,,,,,,,,,,,,,,,,,,,,,,,,,,,,,,,,,,
,,,,,,,,,5ee8f92c564e6212704b2315,Mexican,13 or older,"no, only English or Spanish",no,2025-08-15_01h34.30.604,empathy_intonation_perc_control,2024.2.4,Win32,59.88023952,5ee8f92c564e6212704b2315,68817205a84113384fffdfe3,689ec6b752da82cf5a0b509a,,,,,,,,,,,,./stim/wavs/cuban_mismatch_declarative-broad-focus_El-hombre-mira-la-luna.wav,0,,,57.0119,59.1779,0,1,1.6367,,0,8,8,74,1,75,0,cuban,,,,,,,,,,,,,,,,,,,,,,,,,,,,,,,,,,,,,,,,,,,,,,,,,,,,,,,,
,,,,,,,,,5ee8f92c564e6212704b2315,Mexican,13 or older,"no, only English or Spanish",no,2025-08-15_01h34.30.604,empathy_intonation_perc_control,2024.2.4,Win32,59.88023952,5ee8f92c564e6212704b2315,68817205a84113384fffdfe3,689ec6b752da82cf5a0b509a,,,,,,,,,,,,./stim/wavs/mexican_mismatch_declarative-broad-focus_El-bebe-comia-muy-bien.wav,0,,,59.1786,61.8945,0,1,2.1833,,0,9,9,78,1,79,0,mexican,,,,,,,,,,,,,,,,,,,,,,,,,,,,,,,,,,,,,,,,,,,,,,,,,,,,,,,,
,,,,,,,,,5ee8f92c564e6212704b2315,Mexican,13 or older,"no, only English or Spanish",no,2025-08-15_01h34.30.604,empathy_intonation_perc_control,2024.2.4,Win32,59.88023952,5ee8f92c564e6212704b2315,68817205a84113384fffdfe3,689ec6b752da82cf5a0b509a,,,,,,,,,,,,./stim/wavs/mexican_match_declarative-broad-focus_Emilio-ama-la-marcha.wav,0,,,61.8952,64.3778,0,1,1.9592,,0,10,10,59,1,60,0,mexican,,,,,,,,,,,,,,,,,,,,,,,,,,,,,,,,,,,,,,,,,,,,,,,,,,,,,,,,
,,,,,,,,,5ee8f92c564e6212704b2315,Mexican,13 or older,"no, only English or Spanish",no,2025-08-15_01h34.30.604,empathy_intonation_perc_control,2024.2.4,Win32,59.88023952,5ee8f92c564e6212704b2315,68817205a84113384fffdfe3,689ec6b752da82cf5a0b509a,,,,,,,,,,,,./stim/wavs/puertorican_mismatch_declarative-broad-focus_El-bebe-comia-muy-bien.wav,0,,,64.3784,66.9112,0,1,2.0051,,0,11,11,83,1,84,0,puertorican,,,,,,,,,,,,,,,,,,,,,,,,,,,,,,,,,,,,,,,,,,,,,,,,,,,,,,,,
,,,,,,,,,5ee8f92c564e6212704b2315,Mexican,13 or older,"no, only English or Spanish",no,2025-08-15_01h34.30.604,empathy_intonation_perc_control,2024.2.4,Win32,59.88023952,5ee8f92c564e6212704b2315,68817205a84113384fffdfe3,689ec6b752da82cf5a0b509a,,,,,,,,,,,,./stim/wavs/cuban_mismatch_interrogative-total-yn_Mi-madre-come-la-fruta.wav,1,,,66.9123,69.5614,0,0,2.1195,,0,12,12,31,1,32,1,cuban,,,,,,,,,,,,,,,,,,,,,,,,,,,,,,,,,,,,,,,,,,,,,,,,,,,,,,,,
,,,,,,,,,5ee8f92c564e6212704b2315,Mexican,13 or older,"no, only English or Spanish",no,2025-08-15_01h34.30.604,empathy_intonation_perc_control,2024.2.4,Win32,59.88023952,5ee8f92c564e6212704b2315,68817205a84113384fffdfe3,689ec6b752da82cf5a0b509a,,,,,,,,,,,,./stim/wavs/mexican_mismatch_declarative-broad-focus_Mi-novio-viene-del-lago.wav,0,,,69.5623,71.8776,0,1,1.7837,,0,13,13,81,1,82,0,mexican,,,,,,,,,,,,,,,,,,,,,,,,,,,,,,,,,,,,,,,,,,,,,,,,,,,,,,,,
,,,,,,,,,5ee8f92c564e6212704b2315,Mexican,13 or older,"no, only English or Spanish",no,2025-08-15_01h34.30.604,empathy_intonation_perc_control,2024.2.4,Win32,59.88023952,5ee8f92c564e6212704b2315,68817205a84113384fffdfe3,689ec6b752da82cf5a0b509a,,,,,,,,,,,,./stim/wavs/mexican_mismatch_interrogative-total-yn_La-maestra-vive-en-Paris.wav,1,,,71.8785,74.1277,1,1,1.7169,,0,14,14,36,1,37,0,mexican,,,,,,,,,,,,,,,,,,,,,,,,,,,,,,,,,,,,,,,,,,,,,,,,,,,,,,,,
,,,,,,,,,5ee8f92c564e6212704b2315,Mexican,13 or older,"no, only English or Spanish",no,2025-08-15_01h34.30.604,empathy_intonation_perc_control,2024.2.4,Win32,59.88023952,5ee8f92c564e6212704b2315,68817205a84113384fffdfe3,689ec6b752da82cf5a0b509a,,,,,,,,,,,,./stim/wavs/puertorican_match_interrogative-total-yn_Emilio-ama-la-marcha.wav,1,,,74.1284,76.4951,0,0,1.8341,,0,15,15,21,1,22,1,puertorican,,,,,,,,,,,,,,,,,,,,,,,,,,,,,,,,,,,,,,,,,,,,,,,,,,,,,,,,
,,,,,,,,,5ee8f92c564e6212704b2315,Mexican,13 or older,"no, only English or Spanish",no,2025-08-15_01h34.30.604,empathy_intonation_perc_control,2024.2.4,Win32,59.88023952,5ee8f92c564e6212704b2315,68817205a84113384fffdfe3,689ec6b752da82cf5a0b509a,,,,,,,,,,,,./stim/wavs/castilian_mismatch_interrogative-total-yn_Mi-tia-odia-la-lluvia.wav,1,,,76.4963,78.9277,1,1,1.9004,,0,16,16,28,1,29,0,castilian,,,,,,,,,,,,,,,,,,,,,,,,,,,,,,,,,,,,,,,,,,,,,,,,,,,,,,,,
,,,,,,,,,5ee8f92c564e6212704b2315,Mexican,13 or older,"no, only English or Spanish",no,2025-08-15_01h34.30.604,empathy_intonation_perc_control,2024.2.4,Win32,59.88023952,5ee8f92c564e6212704b2315,68817205a84113384fffdfe3,689ec6b752da82cf5a0b509a,,,,,,,,,,,,./stim/wavs/castilian_match_interrogative-total-yn_Marta-abre-el-regalo.wav,1,,,78.9283,81.1611,1,1,1.7001,,0,17,17,5,1,6,0,castilian,,,,,,,,,,,,,,,,,,,,,,,,,,,,,,,,,,,,,,,,,,,,,,,,,,,,,,,,
,,,,,,,,,5ee8f92c564e6212704b2315,Mexican,13 or older,"no, only English or Spanish",no,2025-08-15_01h34.30.604,empathy_intonation_perc_control,2024.2.4,Win32,59.88023952,5ee8f92c564e6212704b2315,68817205a84113384fffdfe3,689ec6b752da82cf5a0b509a,,,,,,,,,,,,./stim/wavs/puertorican_mismatch_interrogative-total-yn_Mi-madre-come-la-fruta.wav,1,,,81.1622,83.7612,0,0,2.0673,,0,18,18,43,1,44,1,puertorican,,,,,,,,,,,,,,,,,,,,,,,,,,,,,,,,,,,,,,,,,,,,,,,,,,,,,,,,
,,,,,,,,,5ee8f92c564e6212704b2315,Mexican,13 or older,"no, only English or Spanish",no,2025-08-15_01h34.30.604,empathy_intonation_perc_control,2024.2.4,Win32,59.88023952,5ee8f92c564e6212704b2315,68817205a84113384fffdfe3,689ec6b752da82cf5a0b509a,,,,,,,,,,,,./stim/wavs/puertorican_mismatch_declarative-broad-focus_La-maestra-vive-en-Paris.wav,0,,,83.7619,86.1777,0,1,1.8871,,0,19,19,86,1,87,0,puertorican,,,,,,,,,,,,,,,,,,,,,,,,,,,,,,,,,,,,,,,,,,,,,,,,,,,,,,,,
,,,,,,,,,5ee8f92c564e6212704b2315,Mexican,13 or older,"no, only English or Spanish",no,2025-08-15_01h34.30.604,empathy_intonation_perc_control,2024.2.4,Win32,59.88023952,5ee8f92c564e6212704b2315,68817205a84113384fffdfe3,689ec6b752da82cf5a0b509a,,,,,,,,,,,,./stim/wavs/mexican_mismatch_declarative-broad-focus_Mi-tia-odia-la-lluvia.wav,0,,,86.1784,88.7441,0,1,2.0334,,0,20,20,82,1,83,0,mexican,,,,,,,,,,,,,,,,,,,,,,,,,,,,,,,,,,,,,,,,,,,,,,,,,,,,,,,,
,,,,,,,,,5ee8f92c564e6212704b2315,Mexican,13 or older,"no, only English or Spanish",no,2025-08-15_01h34.30.604,empathy_intonation_perc_control,2024.2.4,Win32,59.88023952,5ee8f92c564e6212704b2315,68817205a84113384fffdfe3,689ec6b752da82cf5a0b509a,,,,,,,,,,,,./stim/wavs/cuban_match_declarative-broad-focus_Mariano-habla-del-tiempo.wav,0,,,88.7451,91.3108,0,1,2.0337,,0,21,21,54,1,55,0,cuban,,,,,,,,,,,,,,,,,,,,,,,,,,,,,,,,,,,,,,,,,,,,,,,,,,,,,,,,
,,,,,,,,,5ee8f92c564e6212704b2315,Mexican,13 or older,"no, only English or Spanish",no,2025-08-15_01h34.30.604,empathy_intonation_perc_control,2024.2.4,Win32,59.88023952,5ee8f92c564e6212704b2315,68817205a84113384fffdfe3,689ec6b752da82cf5a0b509a,,,,,,,,,,,,./stim/wavs/cuban_mismatch_interrogative-total-yn_Mi-tia-odia-la-lluvia.wav,1,,,91.3118,93.5276,0,0,1.6837,,0,22,22,33,1,34,1,cuban,,,,,,,,,,,,,,,,,,,,,,,,,,,,,,,,,,,,,,,,,,,,,,,,,,,,,,,,
,,,,,,,,,5ee8f92c564e6212704b2315,Mexican,13 or older,"no, only English or Spanish",no,2025-08-15_01h34.30.604,empathy_intonation_perc_control,2024.2.4,Win32,59.88023952,5ee8f92c564e6212704b2315,68817205a84113384fffdfe3,689ec6b752da82cf5a0b509a,,,,,,,,,,,,./stim/wavs/puertorican_match_interrogative-total-yn_Maria-bebe-el-vino.wav,1,,,93.5284,95.6611,1,1,1.6,,0,23,23,23,1,24,1,puertorican,,,,,,,,,,,,,,,,,,,,,,,,,,,,,,,,,,,,,,,,,,,,,,,,,,,,,,,,
,,,,,,,,,5ee8f92c564e6212704b2315,Mexican,13 or older,"no, only English or Spanish",no,2025-08-15_01h34.30.604,empathy_intonation_perc_control,2024.2.4,Win32,59.88023952,5ee8f92c564e6212704b2315,68817205a84113384fffdfe3,689ec6b752da82cf5a0b509a,,,,,,,,,,,,./stim/wavs/puertorican_match_declarative-broad-focus_Emilio-ama-la-marcha.wav,0,,,95.662,97.9445,0,1,1.7502,,0,24,24,65,1,66,0,puertorican,,,,,,,,,,,,,,,,,,,,,,,,,,,,,,,,,,,,,,,,,,,,,,,,,,,,,,,,
,,,,,,,,,5ee8f92c564e6212704b2315,Mexican,13 or older,"no, only English or Spanish",no,2025-08-15_01h34.30.604,empathy_intonation_perc_control,2024.2.4,Win32,59.88023952,5ee8f92c564e6212704b2315,68817205a84113384fffdfe3,689ec6b752da82cf5a0b509a,,,,,,,,,,,,./stim/wavs/mexican_match_interrogative-total-yn_Marta-abre-el-regalo.wav,1,,,97.9455,99.9276,1,1,1.4504,,0,25,25,17,1,18,0,mexican,,,,,,,,,,,,,,,,,,,,,,,,,,,,,,,,,,,,,,,,,,,,,,,,,,,,,,,,
,,,,,,,,,5ee8f92c564e6212704b2315,Mexican,13 or older,"no, only English or Spanish",no,2025-08-15_01h34.30.604,empathy_intonation_perc_control,2024.2.4,Win32,59.88023952,5ee8f92c564e6212704b2315,68817205a84113384fffdfe3,689ec6b752da82cf5a0b509a,,,,,,,,,,,,./stim/wavs/mexican_match_declarative-broad-focus_Marta-abre-el-regalo.wav,0,,,99.9282,102.2441,0,1,1.7903,,0,26,26,61,1,62,0,mexican,,,,,,,,,,,,,,,,,,,,,,,,,,,,,,,,,,,,,,,,,,,,,,,,,,,,,,,,
,,,,,,,,,5ee8f92c564e6212704b2315,Mexican,13 or older,"no, only English or Spanish",no,2025-08-15_01h34.30.604,empathy_intonation_perc_control,2024.2.4,Win32,59.88023952,5ee8f92c564e6212704b2315,68817205a84113384fffdfe3,689ec6b752da82cf5a0b509a,,,,,,,,,,,,./stim/wavs/puertorican_match_interrogative-total-yn_David-leia-el-libro.wav,1,,,102.2447,104.4681,0,0,1.7004,,0,27,27,20,1,21,1,puertorican,,,,,,,,,,,,,,,,,,,,,,,,,,,,,,,,,,,,,,,,,,,,,,,,,,,,,,,,
,,,,,,,,,5ee8f92c564e6212704b2315,Mexican,13 or older,"no, only English or Spanish",no,2025-08-15_01h34.30.604,empathy_intonation_perc_control,2024.2.4,Win32,59.88023952,5ee8f92c564e6212704b2315,68817205a84113384fffdfe3,689ec6b752da82cf5a0b509a,,,,,,,,,,,,./stim/wavs/mexican_match_declarative-broad-focus_Mariano-habla-del-tiempo.wav,0,,,104.4687,106.911,0,1,1.9179,,0,28,28,60,1,61,0,mexican,,,,,,,,,,,,,,,,,,,,,,,,,,,,,,,,,,,,,,,,,,,,,,,,,,,,,,,,
,,,,,,,,,5ee8f92c564e6212704b2315,Mexican,13 or older,"no, only English or Spanish",no,2025-08-15_01h34.30.604,empathy_intonation_perc_control,2024.2.4,Win32,59.88023952,5ee8f92c564e6212704b2315,68817205a84113384fffdfe3,689ec6b752da82cf5a0b509a,,,,,,,,,,,,./stim/wavs/castilian_match_interrogative-total-yn_Maria-bebe-el-vino.wav,1,,,106.9117,109.0441,0,0,1.6064,,0,29,29,3,1,4,0,castilian,,,,,,,,,,,,,,,,,,,,,,,,,,,,,,,,,,,,,,,,,,,,,,,,,,,,,,,,
,,,,,,,,,5ee8f92c564e6212704b2315,Mexican,13 or older,"no, only English or Spanish",no,2025-08-15_01h34.30.604,empathy_intonation_perc_control,2024.2.4,Win32,59.88023952,5ee8f92c564e6212704b2315,68817205a84113384fffdfe3,689ec6b752da82cf5a0b509a,,,,,,,,,,,,./stim/wavs/cuban_match_declarative-broad-focus_Ana-lleva-el-abrigo.wav,0,,,109.0449,112.2107,0,1,2.6347,,0,30,30,50,1,51,0,cuban,,,,,,,,,,,,,,,,,,,,,,,,,,,,,,,,,,,,,,,,,,,,,,,,,,,,,,,,
,,,,,,,,,5ee8f92c564e6212704b2315,Mexican,13 or older,"no, only English or Spanish",no,2025-08-15_01h34.30.604,empathy_intonation_perc_control,2024.2.4,Win32,59.88023952,5ee8f92c564e6212704b2315,68817205a84113384fffdfe3,689ec6b752da82cf5a0b509a,,,,,,,,,,,,./stim/wavs/cuban_match_interrogative-total-yn_Daniel-iba-a-Bolivia.wav,1,,,112.211,114.4606,0,0,1.7229,,0,31,31,7,1,8,1,cuban,,,,,,,,,,,,,,,,,,,,,,,,,,,,,,,,,,,,,,,,,,,,,,,,,,,,,,,,
,,,,,,,,,5ee8f92c564e6212704b2315,Mexican,13 or older,"no, only English or Spanish",no,2025-08-15_01h34.30.604,empathy_intonation_perc_control,2024.2.4,Win32,59.88023952,5ee8f92c564e6212704b2315,68817205a84113384fffdfe3,689ec6b752da82cf5a0b509a,,,,,,,,,,,,./stim/wavs/cuban_match_declarative-broad-focus_Manuela-vende-el-carro.wav,0,,,114.4615,116.8607,0,1,1.8669,,0,32,32,52,1,53,0,cuban,,,,,,,,,,,,,,,,,,,,,,,,,,,,,,,,,,,,,,,,,,,,,,,,,,,,,,,,
,,,,,,,,,5ee8f92c564e6212704b2315,Mexican,13 or older,"no, only English or Spanish",no,2025-08-15_01h34.30.604,empathy_intonation_perc_control,2024.2.4,Win32,59.88023952,5ee8f92c564e6212704b2315,68817205a84113384fffdfe3,689ec6b752da82cf5a0b509a,,,,,,,,,,,,./stim/wavs/castilian_mismatch_declarative-broad-focus_Mi-novio-viene-del-lago.wav,0,,,116.8616,119.2277,1,0,1.8371,,0,33,33,71,1,72,0,castilian,,,,,,,,,,,,,,,,,,,,,,,,,,,,,,,,,,,,,,,,,,,,,,,,,,,,,,,,
,,,,,,,,,5ee8f92c564e6212704b2315,Mexican,13 or older,"no, only English or Spanish",no,2025-08-15_01h34.30.604,empathy_intonation_perc_control,2024.2.4,Win32,59.88023952,5ee8f92c564e6212704b2315,68817205a84113384fffdfe3,689ec6b752da82cf5a0b509a,,,,,,,,,,,,./stim/wavs/cuban_mismatch_declarative-broad-focus_El-bebe-comia-muy-bien.wav,0,,,119.2285,121.5444,0,1,1.7835,,0,34,34,73,1,74,0,cuban,,,,,,,,,,,,,,,,,,,,,,,,,,,,,,,,,,,,,,,,,,,,,,,,,,,,,,,,
,,,,,,,,,5ee8f92c564e6212704b2315,Mexican,13 or older,"no, only English or Spanish",no,2025-08-15_01h34.30.604,empathy_intonation_perc_control,2024.2.4,Win32,59.88023952,5ee8f92c564e6212704b2315,68817205a84113384fffdfe3,689ec6b752da82cf5a0b509a,,,,,,,,,,,,./stim/wavs/castilian_match_interrogative-total-yn_David-leia-el-libro.wav,1,,,121.5455,123.8108,1,1,1.7169,,0,35,35,0,1,1,0,castilian,,,,,,,,,,,,,,,,,,,,,,,,,,,,,,,,,,,,,,,,,,,,,,,,,,,,,,,,
,,,,,,,,,5ee8f92c564e6212704b2315,Mexican,13 or older,"no, only English or Spanish",no,2025-08-15_01h34.30.604,empathy_intonation_perc_control,2024.2.4,Win32,59.88023952,5ee8f92c564e6212704b2315,68817205a84113384fffdfe3,689ec6b752da82cf5a0b509a,,,,,,,,,,,,./stim/wavs/puertorican_mismatch_declarative-broad-focus_La-nina-lava-el-plato.wav,0,,,123.8118,126.1443,0,1,1.8059,,0,36,36,87,1,88,0,puertorican,,,,,,,,,,,,,,,,,,,,,,,,,,,,,,,,,,,,,,,,,,,,,,,,,,,,,,,,
,,,,,,,,,5ee8f92c564e6212704b2315,Mexican,13 or older,"no, only English or Spanish",no,2025-08-15_01h34.30.604,empathy_intonation_perc_control,2024.2.4,Win32,59.88023952,5ee8f92c564e6212704b2315,68817205a84113384fffdfe3,689ec6b752da82cf5a0b509a,,,,,,,,,,,,./stim/wavs/mexican_match_declarative-broad-focus_Ana-lleva-el-abrigo.wav,0,,,126.145,128.6106,0,1,1.9336,,0,37,37,56,1,57,0,mexican,,,,,,,,,,,,,,,,,,,,,,,,,,,,,,,,,,,,,,,,,,,,,,,,,,,,,,,,
,,,,,,,,,5ee8f92c564e6212704b2315,Mexican,13 or older,"no, only English or Spanish",no,2025-08-15_01h34.30.604,empathy_intonation_perc_control,2024.2.4,Win32,59.88023952,5ee8f92c564e6212704b2315,68817205a84113384fffdfe3,689ec6b752da82cf5a0b509a,,,,,,,,,,,,./stim/wavs/castilian_mismatch_declarative-broad-focus_Mi-tia-odia-la-lluvia.wav,0,,,128.6113,131.2439,0,1,2.1002,,0,38,38,72,1,73,0,castilian,,,,,,,,,,,,,,,,,,,,,,,,,,,,,,,,,,,,,,,,,,,,,,,,,,,,,,,,
,,,,,,,,,5ee8f92c564e6212704b2315,Mexican,13 or older,"no, only English or Spanish",no,2025-08-15_01h34.30.604,empathy_intonation_perc_control,2024.2.4,Win32,59.88023952,5ee8f92c564e6212704b2315,68817205a84113384fffdfe3,689ec6b752da82cf5a0b509a,,,,,,,,,,,,./stim/wavs/cuban_match_declarative-broad-focus_Daniel-iba-a-Bolivia.wav,0,,,131.2446,133.7772,0,1,2.0083,,0,39,39,51,1,52,0,cuban,,,,,,,,,,,,,,,,,,,,,,,,,,,,,,,,,,,,,,,,,,,,,,,,,,,,,,,,
,,,,,,,,,5ee8f92c564e6212704b2315,Mexican,13 or older,"no, only English or Spanish",no,2025-08-15_01h34.30.604,empathy_intonation_perc_control,2024.2.4,Win32,59.88023952,5ee8f92c564e6212704b2315,68817205a84113384fffdfe3,689ec6b752da82cf5a0b509a,,,,,,,,,,,,./stim/wavs/cuban_match_declarative-broad-focus_Marta-abre-el-regalo.wav,0,,,133.7778,136.2938,0,1,1.9873,,0,40,40,55,1,56,0,cuban,,,,,,,,,,,,,,,,,,,,,,,,,,,,,,,,,,,,,,,,,,,,,,,,,,,,,,,,
,,,,,,,,,5ee8f92c564e6212704b2315,Mexican,13 or older,"no, only English or Spanish",no,2025-08-15_01h34.30.604,empathy_intonation_perc_control,2024.2.4,Win32,59.88023952,5ee8f92c564e6212704b2315,68817205a84113384fffdfe3,689ec6b752da82cf5a0b509a,,,,,,,,,,,,./stim/wavs/castilian_mismatch_declarative-broad-focus_La-maestra-vive-en-Paris.wav,0,,,136.2946,139.8843,0,1,3.0668,,0,41,41,69,1,70,0,castilian,,,,,,,,,,,,,,,,,,,,,,,,,,,,,,,,,,,,,,,,,,,,,,,,,,,,,,,,
,,,,,,,,,5ee8f92c564e6212704b2315,Mexican,13 or older,"no, only English or Spanish",no,2025-08-15_01h34.30.604,empathy_intonation_perc_control,2024.2.4,Win32,59.88023952,5ee8f92c564e6212704b2315,68817205a84113384fffdfe3,689ec6b752da82cf5a0b509a,,,,,,,,,,,,./stim/wavs/mexican_mismatch_declarative-broad-focus_El-hombre-mira-la-luna.wav,0,,,139.8849,142.0771,0,1,1.6752,,0,42,42,79,1,80,0,mexican,,,,,,,,,,,,,,,,,,,,,,,,,,,,,,,,,,,,,,,,,,,,,,,,,,,,,,,,
,,,,,,,,,5ee8f92c564e6212704b2315,Mexican,13 or older,"no, only English or Spanish",no,2025-08-15_01h34.30.604,empathy_intonation_perc_control,2024.2.4,Win32,59.88023952,5ee8f92c564e6212704b2315,68817205a84113384fffdfe3,689ec6b752da82cf5a0b509a,,,,,,,,,,,,./stim/wavs/mexican_mismatch_interrogative-total-yn_Mi-novio-viene-del-lago.wav,1,,,142.0778,144.1773,1,1,1.5671,,0,43,43,37,1,38,0,mexican,,,,,,,,,,,,,,,,,,,,,,,,,,,,,,,,,,,,,,,,,,,,,,,,,,,,,,,,
,,,,,,,,,5ee8f92c564e6212704b2315,Mexican,13 or older,"no, only English or Spanish",no,2025-08-15_01h34.30.604,empathy_intonation_perc_control,2024.2.4,Win32,59.88023952,5ee8f92c564e6212704b2315,68817205a84113384fffdfe3,689ec6b752da82cf5a0b509a,,,,,,,,,,,,./stim/wavs/castilian_mismatch_interrogative-total-yn_Mi-novio-viene-del-lago.wav,1,,,144.178,146.6604,1,1,1.9567,,0,44,44,27,1,28,0,castilian,,,,,,,,,,,,,,,,,,,,,,,,,,,,,,,,,,,,,,,,,,,,,,,,,,,,,,,,
,,,,,,,,,5ee8f92c564e6212704b2315,Mexican,13 or older,"no, only English or Spanish",no,2025-08-15_01h34.30.604,empathy_intonation_perc_control,2024.2.4,Win32,59.88023952,5ee8f92c564e6212704b2315,68817205a84113384fffdfe3,689ec6b752da82cf5a0b509a,,,,,,,,,,,,./stim/wavs/puertorican_mismatch_interrogative-total-yn_El-nino-oye-el-rio.wav,1,,,146.661,148.9107,0,0,1.7169,,0,45,45,40,1,41,1,puertorican,,,,,,,,,,,,,,,,,,,,,,,,,,,,,,,,,,,,,,,,,,,,,,,,,,,,,,,,
,,,,,,,,,5ee8f92c564e6212704b2315,Mexican,13 or older,"no, only English or Spanish",no,2025-08-15_01h34.30.604,empathy_intonation_perc_control,2024.2.4,Win32,59.88023952,5ee8f92c564e6212704b2315,68817205a84113384fffdfe3,689ec6b752da82cf5a0b509a,,,,,,,,,,,,./stim/wavs/mexican_match_interrogative-total-yn_Emilio-ama-la-marcha.wav,1,,,148.9118,151.2771,1,1,1.8358,,0,46,46,15,1,16,0,mexican,,,,,,,,,,,,,,,,,,,,,,,,,,,,,,,,,,,,,,,,,,,,,,,,,,,,,,,,
,,,,,,,,,5ee8f92c564e6212704b2315,Mexican,13 or older,"no, only English or Spanish",no,2025-08-15_01h34.30.604,empathy_intonation_perc_control,2024.2.4,Win32,59.88023952,5ee8f92c564e6212704b2315,68817205a84113384fffdfe3,689ec6b752da82cf5a0b509a,,,,,,,,,,,,./stim/wavs/castilian_mismatch_interrogative-total-yn_Mi-madre-come-la-fruta.wav,1,,,151.2778,153.577,1,1,1.7745,,0,47,47,26,1,27,0,castilian,,,,,,,,,,,,,,,,,,,,,,,,,,,,,,,,,,,,,,,,,,,,,,,,,,,,,,,,
,,,,,,,,,5ee8f92c564e6212704b2315,Mexican,13 or older,"no, only English or Spanish",no,2025-08-15_01h34.30.604,empathy_intonation_perc_control,2024.2.4,Win32,59.88023952,5ee8f92c564e6212704b2315,68817205a84113384fffdfe3,689ec6b752da82cf5a0b509a,,,,,,,,,,,,./stim/wavs/cuban_mismatch_declarative-broad-focus_La-nina-lava-el-plato.wav,0,,,153.5779,155.977,0,1,1.8669,,0,48,48,75,1,76,0,cuban,,,,,,,,,,,,,,,,,,,,,,,,,,,,,,,,,,,,,,,,,,,,,,,,,,,,,,,,
,,,,,,,,,5ee8f92c564e6212704b2315,Mexican,13 or older,"no, only English or Spanish",no,2025-08-15_01h34.30.604,empathy_intonation_perc_control,2024.2.4,Win32,59.88023952,5ee8f92c564e6212704b2315,68817205a84113384fffdfe3,689ec6b752da82cf5a0b509a,,,,,,,,,,,,./stim/wavs/puertorican_match_declarative-broad-focus_Manuela-vende-el-carro.wav,0,,,155.9776,158.327,0,1,1.8248,,0,49,49,66,1,67,0,puertorican,,,,,,,,,,,,,,,,,,,,,,,,,,,,,,,,,,,,,,,,,,,,,,,,,,,,,,,,
,,,,,,,,,5ee8f92c564e6212704b2315,Mexican,13 or older,"no, only English or Spanish",no,2025-08-15_01h34.30.604,empathy_intonation_perc_control,2024.2.4,Win32,59.88023952,5ee8f92c564e6212704b2315,68817205a84113384fffdfe3,689ec6b752da82cf5a0b509a,,,,,,,,,,,,./stim/wavs/puertorican_match_interrogative-total-yn_Manuela-vende-el-carro.wav,1,,,158.3278,162.2273,0,0,3.3669,,0,50,50,22,1,23,1,puertorican,,,,,,,,,,,,,,,,,,,,,,,,,,,,,,,,,,,,,,,,,,,,,,,,,,,,,,,,
,,,,,,,,,5ee8f92c564e6212704b2315,Mexican,13 or older,"no, only English or Spanish",no,2025-08-15_01h34.30.604,empathy_intonation_perc_control,2024.2.4,Win32,59.88023952,5ee8f92c564e6212704b2315,68817205a84113384fffdfe3,689ec6b752da82cf5a0b509a,,,,,,,,,,,,./stim/wavs/castilian_match_declarative-broad-focus_Emilio-ama-la-marcha.wav,0,,,162.2283,165.544,0,1,2.7835,,0,51,51,45,1,46,0,castilian,,,,,,,,,,,,,,,,,,,,,,,,,,,,,,,,,,,,,,,,,,,,,,,,,,,,,,,,
,,,,,,,,,5ee8f92c564e6212704b2315,Mexican,13 or older,"no, only English or Spanish",no,2025-08-15_01h34.30.604,empathy_intonation_perc_control,2024.2.4,Win32,59.88023952,5ee8f92c564e6212704b2315,68817205a84113384fffdfe3,689ec6b752da82cf5a0b509a,,,,,,,,,,,,./stim/wavs/cuban_mismatch_declarative-broad-focus_Mi-novio-viene-del-lago.wav,0,,,165.5449,169.0936,0,1,3.0169,,0,52,52,76,1,77,0,cuban,,,,,,,,,,,,,,,,,,,,,,,,,,,,,,,,,,,,,,,,,,,,,,,,,,,,,,,,
,,,,,,,,,5ee8f92c564e6212704b2315,Mexican,13 or older,"no, only English or Spanish",no,2025-08-15_01h34.30.604,empathy_intonation_perc_control,2024.2.4,Win32,59.88023952,5ee8f92c564e6212704b2315,68817205a84113384fffdfe3,689ec6b752da82cf5a0b509a,,,,,,,,,,,,./stim/wavs/castilian_match_declarative-broad-focus_Manuela-vende-el-carro.wav,0,,,169.0943,172.2603,0,1,2.6338,,0,53,53,46,1,47,0,castilian,,,,,,,,,,,,,,,,,,,,,,,,,,,,,,,,,,,,,,,,,,,,,,,,,,,,,,,,
,,,,,,,,,5ee8f92c564e6212704b2315,Mexican,13 or older,"no, only English or Spanish",no,2025-08-15_01h34.30.604,empathy_intonation_perc_control,2024.2.4,Win32,59.88023952,5ee8f92c564e6212704b2315,68817205a84113384fffdfe3,689ec6b752da82cf5a0b509a,,,,,,,,,,,,./stim/wavs/castilian_match_declarative-broad-focus_Mariano-habla-del-tiempo.wav,0,,,172.261,175.0768,1,0,2.2848,,0,54,54,48,1,49,0,castilian,,,,,,,,,,,,,,,,,,,,,,,,,,,,,,,,,,,,,,,,,,,,,,,,,,,,,,,,
,,,,,,,,,5ee8f92c564e6212704b2315,Mexican,13 or older,"no, only English or Spanish",no,2025-08-15_01h34.30.604,empathy_intonation_perc_control,2024.2.4,Win32,59.88023952,5ee8f92c564e6212704b2315,68817205a84113384fffdfe3,689ec6b752da82cf5a0b509a,,,,,,,,,,,,./stim/wavs/puertorican_match_declarative-broad-focus_Ana-lleva-el-abrigo.wav,0,,,175.0775,178.3939,0,1,2.7669,,0,55,55,62,1,63,0,puertorican,,,,,,,,,,,,,,,,,,,,,,,,,,,,,,,,,,,,,,,,,,,,,,,,,,,,,,,,
,,,,,,,,,5ee8f92c564e6212704b2315,Mexican,13 or older,"no, only English or Spanish",no,2025-08-15_01h34.30.604,empathy_intonation_perc_control,2024.2.4,Win32,59.88023952,5ee8f92c564e6212704b2315,68817205a84113384fffdfe3,689ec6b752da82cf5a0b509a,,,,,,,,,,,,./stim/wavs/cuban_mismatch_interrogative-total-yn_El-hombre-mira-la-luna.wav,1,,,178.3951,181.0601,0,0,2.1335,,0,56,56,29,1,30,1,cuban,,,,,,,,,,,,,,,,,,,,,,,,,,,,,,,,,,,,,,,,,,,,,,,,,,,,,,,,
,,,,,,,,,5ee8f92c564e6212704b2315,Mexican,13 or older,"no, only English or Spanish",no,2025-08-15_01h34.30.604,empathy_intonation_perc_control,2024.2.4,Win32,59.88023952,5ee8f92c564e6212704b2315,68817205a84113384fffdfe3,689ec6b752da82cf5a0b509a,,,,,,,,,,,,./stim/wavs/castilian_mismatch_declarative-broad-focus_La-nina-lava-el-plato.wav,0,,,181.0608,184.9768,0,1,3.3915,,0,57,57,70,1,71,0,castilian,,,,,,,,,,,,,,,,,,,,,,,,,,,,,,,,,,,,,,,,,,,,,,,,,,,,,,,,
,,,,,,,,,5ee8f92c564e6212704b2315,Mexican,13 or older,"no, only English or Spanish",no,2025-08-15_01h34.30.604,empathy_intonation_perc_control,2024.2.4,Win32,59.88023952,5ee8f92c564e6212704b2315,68817205a84113384fffdfe3,689ec6b752da82cf5a0b509a,,,,,,,,,,,,./stim/wavs/mexican_match_interrogative-total-yn_Daniel-iba-a-Bolivia.wav,1,,,184.9774,187.3437,1,1,1.8334,,0,58,58,13,1,14,0,mexican,,,,,,,,,,,,,,,,,,,,,,,,,,,,,,,,,,,,,,,,,,,,,,,,,,,,,,,,
,,,,,,,,,5ee8f92c564e6212704b2315,Mexican,13 or older,"no, only English or Spanish",no,2025-08-15_01h34.30.604,empathy_intonation_perc_control,2024.2.4,Win32,59.88023952,5ee8f92c564e6212704b2315,68817205a84113384fffdfe3,689ec6b752da82cf5a0b509a,,,,,,,,,,,,./stim/wavs/mexican_mismatch_declarative-broad-focus_La-maestra-vive-en-Paris.wav,0,,,187.3445,189.7605,0,1,1.8889,,0,59,59,80,1,81,0,mexican,,,,,,,,,,,,,,,,,,,,,,,,,,,,,,,,,,,,,,,,,,,,,,,,,,,,,,,,
,,,,,,,,,5ee8f92c564e6212704b2315,Mexican,13 or older,"no, only English or Spanish",no,2025-08-15_01h34.30.604,empathy_intonation_perc_control,2024.2.4,Win32,59.88023952,5ee8f92c564e6212704b2315,68817205a84113384fffdfe3,689ec6b752da82cf5a0b509a,,,,,,,,,,,,./stim/wavs/puertorican_mismatch_interrogative-total-yn_La-nina-lava-el-plato.wav,1,,,189.7612,192.8101,1,1,2.5169,,0,60,60,42,1,43,1,puertorican,,,,,,,,,,,,,,,,,,,,,,,,,,,,,,,,,,,,,,,,,,,,,,,,,,,,,,,,
,,,,,,,,,5ee8f92c564e6212704b2315,Mexican,13 or older,"no, only English or Spanish",no,2025-08-15_01h34.30.604,empathy_intonation_perc_control,2024.2.4,Win32,59.88023952,5ee8f92c564e6212704b2315,68817205a84113384fffdfe3,689ec6b752da82cf5a0b509a,,,,,,,,,,,,./stim/wavs/mexican_match_declarative-broad-focus_Daniel-iba-a-Bolivia.wav,0,,,192.8108,195.4612,0,1,2.1272,,0,61,61,57,1,58,0,mexican,,,,,,,,,,,,,,,,,,,,,,,,,,,,,,,,,,,,,,,,,,,,,,,,,,,,,,,,
,,,,,,,,,5ee8f92c564e6212704b2315,Mexican,13 or older,"no, only English or Spanish",no,2025-08-15_01h34.30.604,empathy_intonation_perc_control,2024.2.4,Win32,59.88023952,5ee8f92c564e6212704b2315,68817205a84113384fffdfe3,689ec6b752da82cf5a0b509a,,,,,,,,,,,,./stim/wavs/castilian_match_declarative-broad-focus_Marta-abre-el-regalo.wav,0,,,195.4619,197.8933,0,1,1.9002,,0,62,62,49,1,50,0,castilian,,,,,,,,,,,,,,,,,,,,,,,,,,,,,,,,,,,,,,,,,,,,,,,,,,,,,,,,
,,,,,,,,,5ee8f92c564e6212704b2315,Mexican,13 or older,"no, only English or Spanish",no,2025-08-15_01h34.30.604,empathy_intonation_perc_control,2024.2.4,Win32,59.88023952,5ee8f92c564e6212704b2315,68817205a84113384fffdfe3,689ec6b752da82cf5a0b509a,,,,,,,,,,,,./stim/wavs/castilian_mismatch_declarative-broad-focus_El-nino-oye-el-rio.wav,0,,,197.8941,200.26,0,1,1.8414,,0,63,63,68,1,69,0,castilian,,,,,,,,,,,,,,,,,,,,,,,,,,,,,,,,,,,,,,,,,,,,,,,,,,,,,,,,
,,,,,,,,,5ee8f92c564e6212704b2315,Mexican,13 or older,"no, only English or Spanish",no,2025-08-15_01h34.30.604,empathy_intonation_perc_control,2024.2.4,Win32,59.88023952,5ee8f92c564e6212704b2315,68817205a84113384fffdfe3,689ec6b752da82cf5a0b509a,,,,,,,,,,,,./stim/wavs/cuban_match_interrogative-total-yn_Maria-bebe-el-vino.wav,1,,,200.2606,204.0937,0,0,3.3001,,0,64,64,9,1,10,1,cuban,,,,,,,,,,,,,,,,,,,,,,,,,,,,,,,,,,,,,,,,,,,,,,,,,,,,,,,,
,,,,,,,,,5ee8f92c564e6212704b2315,Mexican,13 or older,"no, only English or Spanish",no,2025-08-15_01h34.30.604,empathy_intonation_perc_control,2024.2.4,Win32,59.88023952,5ee8f92c564e6212704b2315,68817205a84113384fffdfe3,689ec6b752da82cf5a0b509a,,,,,,,,,,,,./stim/wavs/puertorican_match_interrogative-total-yn_Daniel-iba-a-Bolivia.wav,1,,,204.0946,206.9933,0,0,2.3727,,0,65,65,19,1,20,1,puertorican,,,,,,,,,,,,,,,,,,,,,,,,,,,,,,,,,,,,,,,,,,,,,,,,,,,,,,,,
,,,,,,,,,5ee8f92c564e6212704b2315,Mexican,13 or older,"no, only English or Spanish",no,2025-08-15_01h34.30.604,empathy_intonation_perc_control,2024.2.4,Win32,59.88023952,5ee8f92c564e6212704b2315,68817205a84113384fffdfe3,689ec6b752da82cf5a0b509a,,,,,,,,,,,,./stim/wavs/castilian_match_declarative-broad-focus_David-leia-el-libro.wav,0,,,206.9941,211.7269,0,1,4.2003,,0,66,66,44,1,45,0,castilian,,,,,,,,,,,,,,,,,,,,,,,,,,,,,,,,,,,,,,,,,,,,,,,,,,,,,,,,
,,,,,,,,,5ee8f92c564e6212704b2315,Mexican,13 or older,"no, only English or Spanish",no,2025-08-15_01h34.30.604,empathy_intonation_perc_control,2024.2.4,Win32,59.88023952,5ee8f92c564e6212704b2315,68817205a84113384fffdfe3,689ec6b752da82cf5a0b509a,,,,,,,,,,,,./stim/wavs/cuban_match_interrogative-total-yn_Manuela-vende-el-carro.wav,1,,,211.728,214.1266,0,0,1.8713,,0,67,67,8,1,9,1,cuban,,,,,,,,,,,,,,,,,,,,,,,,,,,,,,,,,,,,,,,,,,,,,,,,,,,,,,,,
,,,,,,,,,5ee8f92c564e6212704b2315,Mexican,13 or older,"no, only English or Spanish",no,2025-08-15_01h34.30.604,empathy_intonation_perc_control,2024.2.4,Win32,59.88023952,5ee8f92c564e6212704b2315,68817205a84113384fffdfe3,689ec6b752da82cf5a0b509a,,,,,,,,,,,,./stim/wavs/cuban_mismatch_declarative-broad-focus_Mi-tia-odia-la-lluvia.wav,0,,,214.1273,216.4268,0,1,1.7667,,0,68,68,77,1,78,0,cuban,,,,,,,,,,,,,,,,,,,,,,,,,,,,,,,,,,,,,,,,,,,,,,,,,,,,,,,,
,,,,,,,,,5ee8f92c564e6212704b2315,Mexican,13 or older,"no, only English or Spanish",no,2025-08-15_01h34.30.604,empathy_intonation_perc_control,2024.2.4,Win32,59.88023952,5ee8f92c564e6212704b2315,68817205a84113384fffdfe3,689ec6b752da82cf5a0b509a,,,,,,,,,,,,./stim/wavs/puertorican_match_declarative-broad-focus_David-leia-el-libro.wav,0,,,216.4277,218.7266,0,1,1.7722,,0,69,69,64,1,65,0,puertorican,,,,,,,,,,,,,,,,,,,,,,,,,,,,,,,,,,,,,,,,,,,,,,,,,,,,,,,,
,,,,,,,,,5ee8f92c564e6212704b2315,Mexican,13 or older,"no, only English or Spanish",no,2025-08-15_01h34.30.604,empathy_intonation_perc_control,2024.2.4,Win32,59.88023952,5ee8f92c564e6212704b2315,68817205a84113384fffdfe3,689ec6b752da82cf5a0b509a,,,,,,,,,,,,./stim/wavs/mexican_match_declarative-broad-focus_David-leia-el-libro.wav,0,,,218.7272,220.8599,0,1,1.6016,,0,70,70,58,1,59,0,mexican,,,,,,,,,,,,,,,,,,,,,,,,,,,,,,,,,,,,,,,,,,,,,,,,,,,,,,,,
,,,,,,,,,5ee8f92c564e6212704b2315,Mexican,13 or older,"no, only English or Spanish",no,2025-08-15_01h34.30.604,empathy_intonation_perc_control,2024.2.4,Win32,59.88023952,5ee8f92c564e6212704b2315,68817205a84113384fffdfe3,689ec6b752da82cf5a0b509a,,,,,,,,,,,,./stim/wavs/puertorican_mismatch_interrogative-total-yn_La-maestra-vive-en-Paris.wav,1,,,220.8605,223.9773,1,1,2.5935,,0,71,71,41,1,42,1,puertorican,,,,,,,,,,,,,,,,,,,,,,,,,,,,,,,,,,,,,,,,,,,,,,,,,,,,,,,,
,,,,,,,,,5ee8f92c564e6212704b2315,Mexican,13 or older,"no, only English or Spanish",no,2025-08-15_01h34.30.604,empathy_intonation_perc_control,2024.2.4,Win32,59.88023952,5ee8f92c564e6212704b2315,68817205a84113384fffdfe3,689ec6b752da82cf5a0b509a,,,,,,,,,,,,./stim/wavs/cuban_match_interrogative-total-yn_Mariano-habla-del-tiempo.wav,1,,,223.978,227.8098,1,1,3.305,,0,72,72,10,1,11,1,cuban,,,,,,,,,,,,,,,,,,,,,,,,,,,,,,,,,,,,,,,,,,,,,,,,,,,,,,,,
,,,,,,,,,5ee8f92c564e6212704b2315,Mexican,13 or older,"no, only English or Spanish",no,2025-08-15_01h34.30.604,empathy_intonation_perc_control,2024.2.4,Win32,59.88023952,5ee8f92c564e6212704b2315,68817205a84113384fffdfe3,689ec6b752da82cf5a0b509a,,,,,,,,,,,,./stim/wavs/mexican_match_interrogative-total-yn_Ana-lleva-el-abrigo.wav,1,,,227.8104,229.9934,1,1,1.6525,,0,73,73,12,1,13,0,mexican,,,,,,,,,,,,,,,,,,,,,,,,,,,,,,,,,,,,,,,,,,,,,,,,,,,,,,,,
,,,,,,,,,5ee8f92c564e6212704b2315,Mexican,13 or older,"no, only English or Spanish",no,2025-08-15_01h34.30.604,empathy_intonation_perc_control,2024.2.4,Win32,59.88023952,5ee8f92c564e6212704b2315,68817205a84113384fffdfe3,689ec6b752da82cf5a0b509a,,,,,,,,,,,,./stim/wavs/castilian_mismatch_interrogative-total-yn_La-nina-lava-el-plato.wav,1,,,229.9942,232.2099,1,1,1.6931,,0,74,74,25,1,26,0,castilian,,,,,,,,,,,,,,,,,,,,,,,,,,,,,,,,,,,,,,,,,,,,,,,,,,,,,,,,
,,,,,,,,,5ee8f92c564e6212704b2315,Mexican,13 or older,"no, only English or Spanish",no,2025-08-15_01h34.30.604,empathy_intonation_perc_control,2024.2.4,Win32,59.88023952,5ee8f92c564e6212704b2315,68817205a84113384fffdfe3,689ec6b752da82cf5a0b509a,,,,,,,,,,,,./stim/wavs/puertorican_match_declarative-broad-focus_Maria-bebe-el-vino.wav,0,,,232.2109,234.7767,1,0,2.0374,,0,75,75,67,1,68,0,puertorican,,,,,,,,,,,,,,,,,,,,,,,,,,,,,,,,,,,,,,,,,,,,,,,,,,,,,,,,
,,,,,,,,,5ee8f92c564e6212704b2315,Mexican,13 or older,"no, only English or Spanish",no,2025-08-15_01h34.30.604,empathy_intonation_perc_control,2024.2.4,Win32,59.88023952,5ee8f92c564e6212704b2315,68817205a84113384fffdfe3,689ec6b752da82cf5a0b509a,,,,,,,,,,,,./stim/wavs/puertorican_match_interrogative-total-yn_Ana-lleva-el-abrigo.wav,1,,,234.7778,236.9097,1,1,1.6062,,0,76,76,18,1,19,1,puertorican,,,,,,,,,,,,,,,,,,,,,,,,,,,,,,,,,,,,,,,,,,,,,,,,,,,,,,,,
,,,,,,,,,5ee8f92c564e6212704b2315,Mexican,13 or older,"no, only English or Spanish",no,2025-08-15_01h34.30.604,empathy_intonation_perc_control,2024.2.4,Win32,59.88023952,5ee8f92c564e6212704b2315,68817205a84113384fffdfe3,689ec6b752da82cf5a0b509a,,,,,,,,,,,,./stim/wavs/castilian_match_interrogative-total-yn_Emilio-ama-la-marcha.wav,1,,,236.9108,240.0764,1,1,2.6169,,0,77,77,1,1,2,0,castilian,,,,,,,,,,,,,,,,,,,,,,,,,,,,,,,,,,,,,,,,,,,,,,,,,,,,,,,,
,,,,,,,,,5ee8f92c564e6212704b2315,Mexican,13 or older,"no, only English or Spanish",no,2025-08-15_01h34.30.604,empathy_intonation_perc_control,2024.2.4,Win32,59.88023952,5ee8f92c564e6212704b2315,68817205a84113384fffdfe3,689ec6b752da82cf5a0b509a,,,,,,,,,,,,./stim/wavs/puertorican_mismatch_interrogative-total-yn_El-hombre-mira-la-luna.wav,1,,,240.0771,242.2101,1,1,1.6002,,0,78,78,39,1,40,1,puertorican,,,,,,,,,,,,,,,,,,,,,,,,,,,,,,,,,,,,,,,,,,,,,,,,,,,,,,,,
,,,,,,,,,5ee8f92c564e6212704b2315,Mexican,13 or older,"no, only English or Spanish",no,2025-08-15_01h34.30.604,empathy_intonation_perc_control,2024.2.4,Win32,59.88023952,5ee8f92c564e6212704b2315,68817205a84113384fffdfe3,689ec6b752da82cf5a0b509a,,,,,,,,,,,,./stim/wavs/cuban_mismatch_interrogative-total-yn_El-nino-oye-el-rio.wav,1,,,242.2108,245.1264,0,0,2.3971,,0,79,79,30,1,31,1,cuban,,,,,,,,,,,,,,,,,,,,,,,,,,,,,,,,,,,,,,,,,,,,,,,,,,,,,,,,
,,,,,,,,,5ee8f92c564e6212704b2315,Mexican,13 or older,"no, only English or Spanish",no,2025-08-15_01h34.30.604,empathy_intonation_perc_control,2024.2.4,Win32,59.88023952,5ee8f92c564e6212704b2315,68817205a84113384fffdfe3,689ec6b752da82cf5a0b509a,,,,,,,,,,,,./stim/wavs/castilian_match_declarative-broad-focus_Maria-bebe-el-vino.wav,0,,,245.127,247.6431,0,1,1.9836,,0,80,80,47,1,48,0,castilian,,,,,,,,,,,,,,,,,,,,,,,,,,,,,,,,,,,,,,,,,,,,,,,,,,,,,,,,
,,,,,,,,,5ee8f92c564e6212704b2315,Mexican,13 or older,"no, only English or Spanish",no,2025-08-15_01h34.30.604,empathy_intonation_perc_control,2024.2.4,Win32,59.88023952,5ee8f92c564e6212704b2315,68817205a84113384fffdfe3,689ec6b752da82cf5a0b509a,,,,,,,,,,,,./stim/wavs/mexican_mismatch_interrogative-total-yn_Mi-tia-odia-la-lluvia.wav,1,,,247.6437,249.8596,1,1,1.6844,,0,81,81,38,1,39,0,mexican,,,,,,,,,,,,,,,,,,,,,,,,,,,,,,,,,,,,,,,,,,,,,,,,,,,,,,,,
,,,,,,,,,5ee8f92c564e6212704b2315,Mexican,13 or older,"no, only English or Spanish",no,2025-08-15_01h34.30.604,empathy_intonation_perc_control,2024.2.4,Win32,59.88023952,5ee8f92c564e6212704b2315,68817205a84113384fffdfe3,689ec6b752da82cf5a0b509a,,,,,,,,,,,,./stim/wavs/puertorican_match_declarative-broad-focus_Daniel-iba-a-Bolivia.wav,0,,,249.8606,252.0262,0,1,1.6359,,0,82,82,63,1,64,0,puertorican,,,,,,,,,,,,,,,,,,,,,,,,,,,,,,,,,,,,,,,,,,,,,,,,,,,,,,,,
,,,,,,,,,5ee8f92c564e6212704b2315,Mexican,13 or older,"no, only English or Spanish",no,2025-08-15_01h34.30.604,empathy_intonation_perc_control,2024.2.4,Win32,59.88023952,5ee8f92c564e6212704b2315,68817205a84113384fffdfe3,689ec6b752da82cf5a0b509a,,,,,,,,,,,,./stim/wavs/mexican_match_interrogative-total-yn_Mariano-habla-del-tiempo.wav,1,,,252.0269,254.2266,1,1,1.6693,,0,83,83,16,1,17,0,mexican,,,,,,,,,,,,,,,,,,,,,,,,,,,,,,,,,,,,,,,,,,,,,,,,,,,,,,,,
,,,,,,,,,5ee8f92c564e6212704b2315,Mexican,13 or older,"no, only English or Spanish",no,2025-08-15_01h34.30.604,empathy_intonation_perc_control,2024.2.4,Win32,59.88023952,5ee8f92c564e6212704b2315,68817205a84113384fffdfe3,689ec6b752da82cf5a0b509a,,,,,,,,,,,,./stim/wavs/castilian_mismatch_interrogative-total-yn_La-maestra-vive-en-Paris.wav,1,,,254.2274,260.043,1,1,5.2931,,0,84,84,24,1,25,0,castilian,,,,,,,,,,,,,,,,,,,,,,,,,,,,,,,,,,,,,,,,,,,,,,,,,,,,,,,,
,,,,,,,,,5ee8f92c564e6212704b2315,Mexican,13 or older,"no, only English or Spanish",no,2025-08-15_01h34.30.604,empathy_intonation_perc_control,2024.2.4,Win32,59.88023952,5ee8f92c564e6212704b2315,68817205a84113384fffdfe3,689ec6b752da82cf5a0b509a,,,,,,,,,,,,./stim/wavs/cuban_match_interrogative-total-yn_Marta-abre-el-regalo.wav,1,,,260.0438,262.9262,0,0,2.3504,,0,85,85,11,1,12,1,cuban,,,,,,,,,,,,,,,,,,,,,,,,,,,,,,,,,,,,,,,,,,,,,,,,,,,,,,,,
,,,,,,,,,5ee8f92c564e6212704b2315,Mexican,13 or older,"no, only English or Spanish",no,2025-08-15_01h34.30.604,empathy_intonation_perc_control,2024.2.4,Win32,59.88023952,5ee8f92c564e6212704b2315,68817205a84113384fffdfe3,689ec6b752da82cf5a0b509a,,,,,,,,,,,,./stim/wavs/cuban_mismatch_interrogative-total-yn_Mi-novio-viene-del-lago.wav,1,,,262.9269,265.8595,0,0,2.4038,,0,86,86,32,1,33,1,cuban,,,,,,,,,,,,,,,,,,,,,,,,,,,,,,,,,,,,,,,,,,,,,,,,,,,,,,,,
,,,,,,,,,5ee8f92c564e6212704b2315,Mexican,13 or older,"no, only English or Spanish",no,2025-08-15_01h34.30.604,empathy_intonation_perc_control,2024.2.4,Win32,59.88023952,5ee8f92c564e6212704b2315,68817205a84113384fffdfe3,689ec6b752da82cf5a0b509a,,,,,,,,,,,,./stim/wavs/cuban_match_interrogative-total-yn_Ana-lleva-el-abrigo.wav,1,,,265.8602,269.8762,1,1,3.4844,,0,87,87,6,1,7,1,cuban,,,,,,,,,,,,,,,,,,,,,,,,,,,,,,,,,,,,,,,,,,,,,,,,,,,,,,,,
,,,,,,,"Great! Now we will move on. The next task consists of about 60 trials, in each of which you will see a string of letters. 
  
  Your task is to decide whether this is a real Spanish word or not.", (press the spacebar to continue),5ee8f92c564e6212704b2315,Mexican,13 or older,"no, only English or Spanish",no,2025-08-15_01h34.30.604,empathy_intonation_perc_control,2024.2.4,Win32,59.88023952,5ee8f92c564e6212704b2315,68817205a84113384fffdfe3,689ec6b752da82cf5a0b509a,,,,,,,,,,,,,,,,,,,,,,,,,,,,,,269.8823,274.9098,0,0,0,0,1,,,,,,,,,,,,,,,,,,,,,,,,,,,,,,,,,,,,,,,,,,,,,,,,,
,,,,,,,"If you think it is an existing Spanish word, you type '1' (for 'REAL'), and if you think it is not an existing Spanish word, you type '0' (for 'FAKE').", (press the spacebar to continue),5ee8f92c564e6212704b2315,Mexican,13 or older,"no, only English or Spanish",no,2025-08-15_01h34.30.604,empathy_intonation_perc_control,2024.2.4,Win32,59.88023952,5ee8f92c564e6212704b2315,68817205a84113384fffdfe3,689ec6b752da82cf5a0b509a,,,,,,,,,,,,,,,,,,,,,,,,,,,,,,274.9121,277.1095,0,1,1,1,1,,,,,,,,,,,,,,,,,,,,,,,,,,,,,,,,,,,,,,,,,,,,,,,,,
,,,,,,,"If you are sure that the word exists, even though you don’t know its exact meaning, you may still respond '1' (REAL). 
  
  But if you are not sure if it is an existing word, you should respond '0' (FAKE).
  
  Let's do a practice round...", (press the spacebar to continue),5ee8f92c564e6212704b2315,Mexican,13 or older,"no, only English or Spanish",no,2025-08-15_01h34.30.604,empathy_intonation_perc_control,2024.2.4,Win32,59.88023952,5ee8f92c564e6212704b2315,68817205a84113384fffdfe3,689ec6b752da82cf5a0b509a,,,,,,,,,,,,,,,,,,,,,,,,,,,,,,277.1115,283.4428,0,2,2,2,1,,,,,,,,,,,,,,,,,,,,,,,,,,,,,,,,,,,,,,,,,,,,,,,,,
,,,,,,,,,5ee8f92c564e6212704b2315,Mexican,13 or older,"no, only English or Spanish",no,2025-08-15_01h34.30.604,empathy_intonation_perc_control,2024.2.4,Win32,59.88023952,5ee8f92c564e6212704b2315,68817205a84113384fffdfe3,689ec6b752da82cf5a0b509a,,,,,,,,,,,,,0,,,,,,,,,,,,,,,,,,,,,,,,283.4484,287.0929,0,1,3.107,,287.0931,288.0929,0,0,0,0,1,0,depiste,REAL,FAKE,,,,,,,,,,,,,,,,,,,,,,,,,,,,,,,,
,,,,,,,,,5ee8f92c564e6212704b2315,Mexican,13 or older,"no, only English or Spanish",no,2025-08-15_01h34.30.604,empathy_intonation_perc_control,2024.2.4,Win32,59.88023952,5ee8f92c564e6212704b2315,68817205a84113384fffdfe3,689ec6b752da82cf5a0b509a,,,,,,,,,,,,,1,,,,,,,,,,,,,,,,,,,,,,,,288.095,289.6092,1,1,0.9737,,289.6093,290.6093,0,1,1,1,1,0,sí,REAL,FAKE,,,,,,,,,,,,,,,,,,,,,,,,,,,,,,,,
,,,,,,,,,5ee8f92c564e6212704b2315,Mexican,13 or older,"no, only English or Spanish",no,2025-08-15_01h34.30.604,empathy_intonation_perc_control,2024.2.4,Win32,59.88023952,5ee8f92c564e6212704b2315,68817205a84113384fffdfe3,689ec6b752da82cf5a0b509a,,,,,,,,,,,,,0,,,,,,,,,,,,,,,,,,,,,,,,290.6115,292.5093,0,1,1.3506,,292.5094,293.5093,0,2,2,2,1,0,coné,REAL,FAKE,,,,,,,,,,,,,,,,,,,,,,,,,,,,,,,,
,,,,,,,,,5ee8f92c564e6212704b2315,Mexican,13 or older,"no, only English or Spanish",no,2025-08-15_01h34.30.604,empathy_intonation_perc_control,2024.2.4,Win32,59.88023952,5ee8f92c564e6212704b2315,68817205a84113384fffdfe3,689ec6b752da82cf5a0b509a,,,,,,,,,,,,,0,,,,,,,,,,,,,,,,,,,,,,,,293.511,297.076,1,0,3.0252,,297.0775,298.0097,0,3,3,3,1,0,calpar,REAL,FAKE,,,,,,,,,,,,,,,,,,,,,,,,,,,,,,,,
,,,,,,,,,5ee8f92c564e6212704b2315,Mexican,13 or older,"no, only English or Spanish",no,2025-08-15_01h34.30.604,empathy_intonation_perc_control,2024.2.4,Win32,59.88023952,5ee8f92c564e6212704b2315,68817205a84113384fffdfe3,689ec6b752da82cf5a0b509a,,,,,,,,,,,,,0,,,,,,,,,,,,,,,,,,,,,,,,298.0111,299.5593,0,1,1.0006,,299.5603,300.5595,0,4,4,4,1,0,joten,REAL,FAKE,,,,,,,,,,,,,,,,,,,,,,,,,,,,,,,,
,,,,,,,,,5ee8f92c564e6212704b2315,Mexican,13 or older,"no, only English or Spanish",no,2025-08-15_01h34.30.604,empathy_intonation_perc_control,2024.2.4,Win32,59.88023952,5ee8f92c564e6212704b2315,68817205a84113384fffdfe3,689ec6b752da82cf5a0b509a,,,,,,,,,,,,,1,,,,,,,,,,,,,,,,,,,,,,,,300.5609,303.1596,1,1,2.0533,,303.1599,304.1595,0,5,5,5,1,0,sacapuntas,REAL,FAKE,,,,,,,,,,,,,,,,,,,,,,,,,,,,,,,,
,,,,,,,,,5ee8f92c564e6212704b2315,Mexican,13 or older,"no, only English or Spanish",no,2025-08-15_01h34.30.604,empathy_intonation_perc_control,2024.2.4,Win32,59.88023952,5ee8f92c564e6212704b2315,68817205a84113384fffdfe3,689ec6b752da82cf5a0b509a,,,,,,,,,,,,,0,,,,,,,,,,,,,,,,,,,,,,,,304.1615,305.926,0,1,1.22,,305.9262,306.9258,0,6,6,6,1,0,priba,REAL,FAKE,,,,,,,,,,,,,,,,,,,,,,,,,,,,,,,,
,,,,,,,,,5ee8f92c564e6212704b2315,Mexican,13 or older,"no, only English or Spanish",no,2025-08-15_01h34.30.604,empathy_intonation_perc_control,2024.2.4,Win32,59.88023952,5ee8f92c564e6212704b2315,68817205a84113384fffdfe3,689ec6b752da82cf5a0b509a,,,,,,,,,,,,,0,,,,,,,,,,,,,,,,,,,,,,,,306.927,310.0426,1,0,2.5675,,310.0437,310.8926,0,7,7,7,1,0,pelasula,REAL,FAKE,,,,,,,,,,,,,,,,,,,,,,,,,,,,,,,,
,,,,,,,,,5ee8f92c564e6212704b2315,Mexican,13 or older,"no, only English or Spanish",no,2025-08-15_01h34.30.604,empathy_intonation_perc_control,2024.2.4,Win32,59.88023952,5ee8f92c564e6212704b2315,68817205a84113384fffdfe3,689ec6b752da82cf5a0b509a,,,,,,,,,,,,,1,,,,,,,,,,,,,,,,,,,,,,,,310.8938,312.4161,1,1,0.9836,,312.4168,313.4093,0,8,8,8,1,0,bien,REAL,FAKE,,,,,,,,,,,,,,,,,,,,,,,,,,,,,,,,
,,,,,,,,,5ee8f92c564e6212704b2315,Mexican,13 or older,"no, only English or Spanish",no,2025-08-15_01h34.30.604,empathy_intonation_perc_control,2024.2.4,Win32,59.88023952,5ee8f92c564e6212704b2315,68817205a84113384fffdfe3,689ec6b752da82cf5a0b509a,,,,,,,,,,,,,1,,,,,,,,,,,,,,,,,,,,,,,,313.4106,314.726,1,1,0.7672,,314.7261,315.7259,0,9,9,9,1,0,casa,REAL,FAKE,,,,,,,,,,,,,,,,,,,,,,,,,,,,,,,,
,,,,,,,,,5ee8f92c564e6212704b2315,Mexican,13 or older,"no, only English or Spanish",no,2025-08-15_01h34.30.604,empathy_intonation_perc_control,2024.2.4,Win32,59.88023952,5ee8f92c564e6212704b2315,68817205a84113384fffdfe3,689ec6b752da82cf5a0b509a,,,,,,,,,,,,,0,,,,,,,,,,,,,,,,,,,,,,,,315.7274,317.4594,1,0,1.1837,,317.4606,318.1762,0,10,10,10,1,0,lejo,REAL,FAKE,,,,,,,,,,,,,,,,,,,,,,,,,,,,,,,,
,,,,,,,,,5ee8f92c564e6212704b2315,Mexican,13 or older,"no, only English or Spanish",no,2025-08-15_01h34.30.604,empathy_intonation_perc_control,2024.2.4,Win32,59.88023952,5ee8f92c564e6212704b2315,68817205a84113384fffdfe3,689ec6b752da82cf5a0b509a,,,,,,,,,,,,,0,,,,,,,,,,,,,,,,,,,,,,,,318.1774,323.0257,0,1,4.3035,,323.0265,323.7589,0,11,11,11,1,0,pretantas,REAL,FAKE,,,,,,,,,,,,,,,,,,,,,,,,,,,,,,,,
,,,,,,,,,5ee8f92c564e6212704b2315,Mexican,13 or older,"no, only English or Spanish",no,2025-08-15_01h34.30.604,empathy_intonation_perc_control,2024.2.4,Win32,59.88023952,5ee8f92c564e6212704b2315,68817205a84113384fffdfe3,689ec6b752da82cf5a0b509a,,,,,,,,,,,,,,,,,,,,,,,,,,,,,,,,,,,,,,,,,,,,,,,,,,,,,,323.7593,324.8931,,,,,,,,,,,,,,,,,,,,,,,,,,,,,,
,,,,,,,,,5ee8f92c564e6212704b2315,Mexican,13 or older,"no, only English or Spanish",no,2025-08-15_01h34.30.604,empathy_intonation_perc_control,2024.2.4,Win32,59.88023952,5ee8f92c564e6212704b2315,68817205a84113384fffdfe3,689ec6b752da82cf5a0b509a,,,,,,,,,,,,,1,,,,,,,,,,,,,,,,,,,,,,,,,,,,,,,,,,,,,15,regar,,,,,324.9025,326.5594,1,1,1.1172,,0,0,0,14,1,REAL,FAKE,,,,,,,,,,,,,,,,,
,,,,,,,,,5ee8f92c564e6212704b2315,Mexican,13 or older,"no, only English or Spanish",no,2025-08-15_01h34.30.604,empathy_intonation_perc_control,2024.2.4,Win32,59.88023952,5ee8f92c564e6212704b2315,68817205a84113384fffdfe3,689ec6b752da82cf5a0b509a,,,,,,,,,,,,,0,,,,,,,,,,,,,,,,,,,,,,,,,,,,,,,,,,,,,4,batillón,,,,,326.5615,329.6426,0,1,2.5336,,0,1,1,3,1,REAL,FAKE,,,,,,,,,,,,,,,,,
,,,,,,,,,5ee8f92c564e6212704b2315,Mexican,13 or older,"no, only English or Spanish",no,2025-08-15_01h34.30.604,empathy_intonation_perc_control,2024.2.4,Win32,59.88023952,5ee8f92c564e6212704b2315,68817205a84113384fffdfe3,689ec6b752da82cf5a0b509a,,,,,,,,,,,,,0,,,,,,,,,,,,,,,,,,,,,,,,,,,,,,,,,,,,,29,decar,,,,,329.644,331.1826,1,0,1.0002,,0,2,2,28,1,REAL,FAKE,,,,,,,,,,,,,,,,,
,,,,,,,,,5ee8f92c564e6212704b2315,Mexican,13 or older,"no, only English or Spanish",no,2025-08-15_01h34.30.604,empathy_intonation_perc_control,2024.2.4,Win32,59.88023952,5ee8f92c564e6212704b2315,68817205a84113384fffdfe3,689ec6b752da82cf5a0b509a,,,,,,,,,,,,,1,,,,,,,,,,,,,,,,,,,,,,,,,,,,,,,,,,,,,88,acantilado,,,,,331.1836,333.6758,0,0,1.9509,,0,3,3,87,1,REAL,FAKE,,,,,,,,,,,,,,,,,
,,,,,,,,,5ee8f92c564e6212704b2315,Mexican,13 or older,"no, only English or Spanish",no,2025-08-15_01h34.30.604,empathy_intonation_perc_control,2024.2.4,Win32,59.88023952,5ee8f92c564e6212704b2315,68817205a84113384fffdfe3,689ec6b752da82cf5a0b509a,,,,,,,,,,,,,0,,,,,,,,,,,,,,,,,,,,,,,,,,,,,,,,,,,,,16,abracer,,,,,333.6775,337.0589,1,0,2.8338,,0,4,4,15,1,REAL,FAKE,,,,,,,,,,,,,,,,,
,,,,,,,,,5ee8f92c564e6212704b2315,Mexican,13 or older,"no, only English or Spanish",no,2025-08-15_01h34.30.604,empathy_intonation_perc_control,2024.2.4,Win32,59.88023952,5ee8f92c564e6212704b2315,68817205a84113384fffdfe3,689ec6b752da82cf5a0b509a,,,,,,,,,,,,,0,,,,,,,,,,,,,,,,,,,,,,,,,,,,,,,,,,,,,66,hacido,,,,,337.0601,338.6758,1,0,1.0685,,0,5,5,65,1,REAL,FAKE,,,,,,,,,,,,,,,,,
,,,,,,,,,5ee8f92c564e6212704b2315,Mexican,13 or older,"no, only English or Spanish",no,2025-08-15_01h34.30.604,empathy_intonation_perc_control,2024.2.4,Win32,59.88023952,5ee8f92c564e6212704b2315,68817205a84113384fffdfe3,689ec6b752da82cf5a0b509a,,,,,,,,,,,,,1,,,,,,,,,,,,,,,,,,,,,,,,,,,,,,,,,,,,,2,pellizcar,,,,,338.6779,342.5756,0,0,3.3504,,0,6,6,1,1,REAL,FAKE,,,,,,,,,,,,,,,,,
,,,,,,,,,5ee8f92c564e6212704b2315,Mexican,13 or older,"no, only English or Spanish",no,2025-08-15_01h34.30.604,empathy_intonation_perc_control,2024.2.4,Win32,59.88023952,5ee8f92c564e6212704b2315,68817205a84113384fffdfe3,689ec6b752da82cf5a0b509a,,,,,,,,,,,,,1,,,,,,,,,,,,,,,,,,,,,,,,,,,,,,,,,,,,,73,hervidor,,,,,342.5776,346.0088,0,0,2.8929,,0,7,7,72,1,REAL,FAKE,,,,,,,,,,,,,,,,,
,,,,,,,,,5ee8f92c564e6212704b2315,Mexican,13 or older,"no, only English or Spanish",no,2025-08-15_01h34.30.604,empathy_intonation_perc_control,2024.2.4,Win32,59.88023952,5ee8f92c564e6212704b2315,68817205a84113384fffdfe3,689ec6b752da82cf5a0b509a,,,,,,,,,,,,,0,,,,,,,,,,,,,,,,,,,,,,,,,,,,,,,,,,,,,82,empirador,,,,,346.0104,348.0257,1,0,1.467,,0,8,8,81,1,REAL,FAKE,,,,,,,,,,,,,,,,,
,,,,,,,,,5ee8f92c564e6212704b2315,Mexican,13 or older,"no, only English or Spanish",no,2025-08-15_01h34.30.604,empathy_intonation_perc_control,2024.2.4,Win32,59.88023952,5ee8f92c564e6212704b2315,68817205a84113384fffdfe3,689ec6b752da82cf5a0b509a,,,,,,,,,,,,,1,,,,,,,,,,,,,,,,,,,,,,,,,,,,,,,,,,,,,54,fomentar,,,,,348.028,350.3295,1,1,1.7639,,0,9,9,53,1,REAL,FAKE,,,,,,,,,,,,,,,,,
,,,,,,,,,5ee8f92c564e6212704b2315,Mexican,13 or older,"no, only English or Spanish",no,2025-08-15_01h34.30.604,empathy_intonation_perc_control,2024.2.4,Win32,59.88023952,5ee8f92c564e6212704b2315,68817205a84113384fffdfe3,689ec6b752da82cf5a0b509a,,,,,,,,,,,,,1,,,,,,,,,,,,,,,,,,,,,,,,,,,,,,,,,,,,,91,click the 1 key.,,,,,350.3313,352.1757,1,1,1.3003,,0,10,10,90,1,REAL,FAKE,,,,,,,,,,,,,,,,,
,,,,,,,,,5ee8f92c564e6212704b2315,Mexican,13 or older,"no, only English or Spanish",no,2025-08-15_01h34.30.604,empathy_intonation_perc_control,2024.2.4,Win32,59.88023952,5ee8f92c564e6212704b2315,68817205a84113384fffdfe3,689ec6b752da82cf5a0b509a,,,,,,,,,,,,,1,,,,,,,,,,,,,,,,,,,,,,,,,,,,,,,,,,,,,68,alegre,,,,,352.1768,354.5147,1,1,1.7993,,0,11,11,67,1,REAL,FAKE,,,,,,,,,,,,,,,,,
,,,,,,,,,5ee8f92c564e6212704b2315,Mexican,13 or older,"no, only English or Spanish",no,2025-08-15_01h34.30.604,empathy_intonation_perc_control,2024.2.4,Win32,59.88023952,5ee8f92c564e6212704b2315,68817205a84113384fffdfe3,689ec6b752da82cf5a0b509a,,,,,,,,,,,,,0,,,,,,,,,,,,,,,,,,,,,,,,,,,,,,,,,,,,,21,capillo,,,,,354.5156,355.9422,1,0,0.8839,,0,12,12,20,1,REAL,FAKE,,,,,,,,,,,,,,,,,
,,,,,,,,,5ee8f92c564e6212704b2315,Mexican,13 or older,"no, only English or Spanish",no,2025-08-15_01h34.30.604,empathy_intonation_perc_control,2024.2.4,Win32,59.88023952,5ee8f92c564e6212704b2315,68817205a84113384fffdfe3,689ec6b752da82cf5a0b509a,,,,,,,,,,,,,1,,,,,,,,,,,,,,,,,,,,,,,,,,,,,,,,,,,,,34,aviso,,,,,355.9438,362.242,1,1,5.7519,,0,13,13,33,1,REAL,FAKE,,,,,,,,,,,,,,,,,
,,,,,,,,,5ee8f92c564e6212704b2315,Mexican,13 or older,"no, only English or Spanish",no,2025-08-15_01h34.30.604,empathy_intonation_perc_control,2024.2.4,Win32,59.88023952,5ee8f92c564e6212704b2315,68817205a84113384fffdfe3,689ec6b752da82cf5a0b509a,,,,,,,,,,,,,1,,,,,,,,,,,,,,,,,,,,,,,,,,,,,,,,,,,,,3,pulmones,,,,,362.2432,363.9267,0,0,1.1443,,0,14,14,2,1,REAL,FAKE,,,,,,,,,,,,,,,,,
,,,,,,,,,5ee8f92c564e6212704b2315,Mexican,13 or older,"no, only English or Spanish",no,2025-08-15_01h34.30.604,empathy_intonation_perc_control,2024.2.4,Win32,59.88023952,5ee8f92c564e6212704b2315,68817205a84113384fffdfe3,689ec6b752da82cf5a0b509a,,,,,,,,,,,,,1,,,,,,,,,,,,,,,,,,,,,,,,,,,,,,,,,,,,,11,cenefa,,,,,363.9278,365.8585,0,0,1.3912,,0,15,15,10,1,REAL,FAKE,,,,,,,,,,,,,,,,,
,,,,,,,,,5ee8f92c564e6212704b2315,Mexican,13 or older,"no, only English or Spanish",no,2025-08-15_01h34.30.604,empathy_intonation_perc_control,2024.2.4,Win32,59.88023952,5ee8f92c564e6212704b2315,68817205a84113384fffdfe3,689ec6b752da82cf5a0b509a,,,,,,,,,,,,,0,,,,,,,,,,,,,,,,,,,,,,,,,,,,,,,,,,,,,23,lampera,,,,,365.8597,367.9421,1,0,1.5372,,0,16,16,22,1,REAL,FAKE,,,,,,,,,,,,,,,,,
,,,,,,,,,5ee8f92c564e6212704b2315,Mexican,13 or older,"no, only English or Spanish",no,2025-08-15_01h34.30.604,empathy_intonation_perc_control,2024.2.4,Win32,59.88023952,5ee8f92c564e6212704b2315,68817205a84113384fffdfe3,689ec6b752da82cf5a0b509a,,,,,,,,,,,,,0,,,,,,,,,,,,,,,,,,,,,,,,,,,,,,,,,,,,,50,flamida,,,,,367.9438,370.9919,1,0,2.5004,,0,17,17,49,1,REAL,FAKE,,,,,,,,,,,,,,,,,
,,,,,,,,,5ee8f92c564e6212704b2315,Mexican,13 or older,"no, only English or Spanish",no,2025-08-15_01h34.30.604,empathy_intonation_perc_control,2024.2.4,Win32,59.88023952,5ee8f92c564e6212704b2315,68817205a84113384fffdfe3,689ec6b752da82cf5a0b509a,,,,,,,,,,,,,1,,,,,,,,,,,,,,,,,,,,,,,,,,,,,,,,,,,,,25,bisagra,,,,,370.993,373.3253,1,1,1.8058,,0,18,18,24,1,REAL,FAKE,,,,,,,,,,,,,,,,,
,,,,,,,,,5ee8f92c564e6212704b2315,Mexican,13 or older,"no, only English or Spanish",no,2025-08-15_01h34.30.604,empathy_intonation_perc_control,2024.2.4,Win32,59.88023952,5ee8f92c564e6212704b2315,68817205a84113384fffdfe3,689ec6b752da82cf5a0b509a,,,,,,,,,,,,,1,,,,,,,,,,,,,,,,,,,,,,,,,,,,,,,,,,,,,26,secuestro,,,,,373.3265,376.2085,0,0,2.3407,,0,19,19,25,1,REAL,FAKE,,,,,,,,,,,,,,,,,
,,,,,,,,,5ee8f92c564e6212704b2315,Mexican,13 or older,"no, only English or Spanish",no,2025-08-15_01h34.30.604,empathy_intonation_perc_control,2024.2.4,Win32,59.88023952,5ee8f92c564e6212704b2315,68817205a84113384fffdfe3,689ec6b752da82cf5a0b509a,,,,,,,,,,,,,1,,,,,,,,,,,,,,,,,,,,,,,,,,,,,,,,,,,,,78,frondoso,,,,,376.2096,378.3087,0,0,1.5597,,0,20,20,77,1,REAL,FAKE,,,,,,,,,,,,,,,,,
,,,,,,,,,5ee8f92c564e6212704b2315,Mexican,13 or older,"no, only English or Spanish",no,2025-08-15_01h34.30.604,empathy_intonation_perc_control,2024.2.4,Win32,59.88023952,5ee8f92c564e6212704b2315,68817205a84113384fffdfe3,689ec6b752da82cf5a0b509a,,,,,,,,,,,,,1,,,,,,,,,,,,,,,,,,,,,,,,,,,,,,,,,,,,,56,musgo,,,,,378.3099,379.9753,0,0,1.1195,,0,21,21,55,1,REAL,FAKE,,,,,,,,,,,,,,,,,
,,,,,,,,,5ee8f92c564e6212704b2315,Mexican,13 or older,"no, only English or Spanish",no,2025-08-15_01h34.30.604,empathy_intonation_perc_control,2024.2.4,Win32,59.88023952,5ee8f92c564e6212704b2315,68817205a84113384fffdfe3,689ec6b752da82cf5a0b509a,,,,,,,,,,,,,0,,,,,,,,,,,,,,,,,,,,,,,,,,,,,,,,,,,,,18,arsa,,,,,379.9765,383.1421,0,1,2.6171,,0,22,22,17,1,REAL,FAKE,,,,,,,,,,,,,,,,,
,,,,,,,,,5ee8f92c564e6212704b2315,Mexican,13 or older,"no, only English or Spanish",no,2025-08-15_01h34.30.604,empathy_intonation_perc_control,2024.2.4,Win32,59.88023952,5ee8f92c564e6212704b2315,68817205a84113384fffdfe3,689ec6b752da82cf5a0b509a,,,,,,,,,,,,,1,,,,,,,,,,,,,,,,,,,,,,,,,,,,,,,,,,,,,38,estornudar,,,,,383.1437,385.0251,1,1,1.3396,,0,23,23,37,1,REAL,FAKE,,,,,,,,,,,,,,,,,
,,,,,,,,,5ee8f92c564e6212704b2315,Mexican,13 or older,"no, only English or Spanish",no,2025-08-15_01h34.30.604,empathy_intonation_perc_control,2024.2.4,Win32,59.88023952,5ee8f92c564e6212704b2315,68817205a84113384fffdfe3,689ec6b752da82cf5a0b509a,,,,,,,,,,,,,1,,,,,,,,,,,,,,,,,,,,,,,,,,,,,,,,,,,,,31,pandilla,,,,,385.0262,386.7755,1,1,1.2184,,0,24,24,30,1,REAL,FAKE,,,,,,,,,,,,,,,,,
,,,,,,,,,5ee8f92c564e6212704b2315,Mexican,13 or older,"no, only English or Spanish",no,2025-08-15_01h34.30.604,empathy_intonation_perc_control,2024.2.4,Win32,59.88023952,5ee8f92c564e6212704b2315,68817205a84113384fffdfe3,689ec6b752da82cf5a0b509a,,,,,,,,,,,,,1,,,,,,,,,,,,,,,,,,,,,,,,,,,,,,,,,,,,,71,polvoriento,,,,,386.7768,388.6085,0,0,1.2837,,0,25,25,70,1,REAL,FAKE,,,,,,,,,,,,,,,,,
,,,,,,,,,5ee8f92c564e6212704b2315,Mexican,13 or older,"no, only English or Spanish",no,2025-08-15_01h34.30.604,empathy_intonation_perc_control,2024.2.4,Win32,59.88023952,5ee8f92c564e6212704b2315,68817205a84113384fffdfe3,689ec6b752da82cf5a0b509a,,,,,,,,,,,,,1,,,,,,,,,,,,,,,,,,,,,,,,,,,,,,,,,,,,,60,matar,,,,,388.6096,390.1754,1,1,1.0228,,0,26,26,59,1,REAL,FAKE,,,,,,,,,,,,,,,,,
,,,,,,,,,5ee8f92c564e6212704b2315,Mexican,13 or older,"no, only English or Spanish",no,2025-08-15_01h34.30.604,empathy_intonation_perc_control,2024.2.4,Win32,59.88023952,5ee8f92c564e6212704b2315,68817205a84113384fffdfe3,689ec6b752da82cf5a0b509a,,,,,,,,,,,,,1,,,,,,,,,,,,,,,,,,,,,,,,,,,,,,,,,,,,,85,laúd,,,,,390.1776,392.0584,1,1,1.3359,,0,27,27,84,1,REAL,FAKE,,,,,,,,,,,,,,,,,
,,,,,,,,,5ee8f92c564e6212704b2315,Mexican,13 or older,"no, only English or Spanish",no,2025-08-15_01h34.30.604,empathy_intonation_perc_control,2024.2.4,Win32,59.88023952,5ee8f92c564e6212704b2315,68817205a84113384fffdfe3,689ec6b752da82cf5a0b509a,,,,,,,,,,,,,1,,,,,,,,,,,,,,,,,,,,,,,,,,,,,,,,,,,,,62,flaco,,,,,392.0596,393.575,1,1,0.9737,,0,28,28,61,1,REAL,FAKE,,,,,,,,,,,,,,,,,
,,,,,,,,,5ee8f92c564e6212704b2315,Mexican,13 or older,"no, only English or Spanish",no,2025-08-15_01h34.30.604,empathy_intonation_perc_control,2024.2.4,Win32,59.88023952,5ee8f92c564e6212704b2315,68817205a84113384fffdfe3,689ec6b752da82cf5a0b509a,,,,,,,,,,,,,0,,,,,,,,,,,,,,,,,,,,,,,,,,,,,,,,,,,,,74,cintro,,,,,393.5766,395.3252,0,1,1.2006,,0,29,29,73,1,REAL,FAKE,,,,,,,,,,,,,,,,,
,,,,,,,,,5ee8f92c564e6212704b2315,Mexican,13 or older,"no, only English or Spanish",no,2025-08-15_01h34.30.604,empathy_intonation_perc_control,2024.2.4,Win32,59.88023952,5ee8f92c564e6212704b2315,68817205a84113384fffdfe3,689ec6b752da82cf5a0b509a,,,,,,,,,,,,,0,,,,,,,,,,,,,,,,,,,,,,,,,,,,,,,,,,,,,35,rompido,,,,,395.327,398.092,0,1,2.219,,0,30,30,34,1,REAL,FAKE,,,,,,,,,,,,,,,,,
,,,,,,,,,5ee8f92c564e6212704b2315,Mexican,13 or older,"no, only English or Spanish",no,2025-08-15_01h34.30.604,empathy_intonation_perc_control,2024.2.4,Win32,59.88023952,5ee8f92c564e6212704b2315,68817205a84113384fffdfe3,689ec6b752da82cf5a0b509a,,,,,,,,,,,,,0,,,,,,,,,,,,,,,,,,,,,,,,,,,,,,,,,,,,,42,cadallo,,,,,398.094,405.025,1,0,6.3848,,0,31,31,41,1,REAL,FAKE,,,,,,,,,,,,,,,,,
,,,,,,,,,5ee8f92c564e6212704b2315,Mexican,13 or older,"no, only English or Spanish",no,2025-08-15_01h34.30.604,empathy_intonation_perc_control,2024.2.4,Win32,59.88023952,5ee8f92c564e6212704b2315,68817205a84113384fffdfe3,689ec6b752da82cf5a0b509a,,,,,,,,,,,,,1,,,,,,,,,,,,,,,,,,,,,,,,,,,,,,,,,,,,,7,pésimo,,,,,405.0265,406.6422,1,1,1.0769,,0,32,32,6,1,REAL,FAKE,,,,,,,,,,,,,,,,,
,,,,,,,,,5ee8f92c564e6212704b2315,Mexican,13 or older,"no, only English or Spanish",no,2025-08-15_01h34.30.604,empathy_intonation_perc_control,2024.2.4,Win32,59.88023952,5ee8f92c564e6212704b2315,68817205a84113384fffdfe3,689ec6b752da82cf5a0b509a,,,,,,,,,,,,,1,,,,,,,,,,,,,,,,,,,,,,,,,,,,,,,,,,,,,90,clavel,,,,,406.6434,410.0083,0,0,2.8259,,0,33,33,89,1,REAL,FAKE,,,,,,,,,,,,,,,,,
,,,,,,,,,5ee8f92c564e6212704b2315,Mexican,13 or older,"no, only English or Spanish",no,2025-08-15_01h34.30.604,empathy_intonation_perc_control,2024.2.4,Win32,59.88023952,5ee8f92c564e6212704b2315,68817205a84113384fffdfe3,689ec6b752da82cf5a0b509a,,,,,,,,,,,,,1,,,,,,,,,,,,,,,,,,,,,,,,,,,,,,,,,,,,,49,ganar,,,,,410.0094,411.5415,1,1,0.9839,,0,34,34,48,1,REAL,FAKE,,,,,,,,,,,,,,,,,
,,,,,,,,,5ee8f92c564e6212704b2315,Mexican,13 or older,"no, only English or Spanish",no,2025-08-15_01h34.30.604,empathy_intonation_perc_control,2024.2.4,Win32,59.88023952,5ee8f92c564e6212704b2315,68817205a84113384fffdfe3,689ec6b752da82cf5a0b509a,,,,,,,,,,,,,1,,,,,,,,,,,,,,,,,,,,,,,,,,,,,,,,,,,,,57,tacaño,,,,,411.543,413.2082,1,1,1.1235,,0,35,35,56,1,REAL,FAKE,,,,,,,,,,,,,,,,,
,,,,,,,,,5ee8f92c564e6212704b2315,Mexican,13 or older,"no, only English or Spanish",no,2025-08-15_01h34.30.604,empathy_intonation_perc_control,2024.2.4,Win32,59.88023952,5ee8f92c564e6212704b2315,68817205a84113384fffdfe3,689ec6b752da82cf5a0b509a,,,,,,,,,,,,,0,,,,,,,,,,,,,,,,,,,,,,,,,,,,,,,,,,,,,30,alardio,,,,,413.2094,415.9082,0,1,2.152,,0,36,36,29,1,REAL,FAKE,,,,,,,,,,,,,,,,,
,,,,,,,,,5ee8f92c564e6212704b2315,Mexican,13 or older,"no, only English or Spanish",no,2025-08-15_01h34.30.604,empathy_intonation_perc_control,2024.2.4,Win32,59.88023952,5ee8f92c564e6212704b2315,68817205a84113384fffdfe3,689ec6b752da82cf5a0b509a,,,,,,,,,,,,,1,,,,,,,,,,,,,,,,,,,,,,,,,,,,,,,,,,,,,89,prisa,,,,,415.9094,417.2081,1,1,0.7562,,0,37,37,88,1,REAL,FAKE,,,,,,,,,,,,,,,,,
,,,,,,,,,5ee8f92c564e6212704b2315,Mexican,13 or older,"no, only English or Spanish",no,2025-08-15_01h34.30.604,empathy_intonation_perc_control,2024.2.4,Win32,59.88023952,5ee8f92c564e6212704b2315,68817205a84113384fffdfe3,689ec6b752da82cf5a0b509a,,,,,,,,,,,,,0,,,,,,,,,,,,,,,,,,,,,,,,,,,,,,,,,,,,,19,brecedad,,,,,417.2093,419.1751,0,1,1.4178,,0,38,38,18,1,REAL,FAKE,,,,,,,,,,,,,,,,,
,,,,,,,,,5ee8f92c564e6212704b2315,Mexican,13 or older,"no, only English or Spanish",no,2025-08-15_01h34.30.604,empathy_intonation_perc_control,2024.2.4,Win32,59.88023952,5ee8f92c564e6212704b2315,68817205a84113384fffdfe3,689ec6b752da82cf5a0b509a,,,,,,,,,,,,,1,,,,,,,,,,,,,,,,,,,,,,,,,,,,,,,,,,,,,36,loro,,,,,419.1766,421.0582,1,1,1.334,,0,39,39,35,1,REAL,FAKE,,,,,,,,,,,,,,,,,
,,,,,,,,,5ee8f92c564e6212704b2315,Mexican,13 or older,"no, only English or Spanish",no,2025-08-15_01h34.30.604,empathy_intonation_perc_control,2024.2.4,Win32,59.88023952,5ee8f92c564e6212704b2315,68817205a84113384fffdfe3,689ec6b752da82cf5a0b509a,,,,,,,,,,,,,0,,,,,,,,,,,,,,,,,,,,,,,,,,,,,,,,,,,,,79,tropaje,,,,,421.0593,422.4921,1,0,0.8871,,0,40,40,78,1,REAL,FAKE,,,,,,,,,,,,,,,,,
,,,,,,,,,5ee8f92c564e6212704b2315,Mexican,13 or older,"no, only English or Spanish",no,2025-08-15_01h34.30.604,empathy_intonation_perc_control,2024.2.4,Win32,59.88023952,5ee8f92c564e6212704b2315,68817205a84113384fffdfe3,689ec6b752da82cf5a0b509a,,,,,,,,,,,,,1,,,,,,,,,,,,,,,,,,,,,,,,,,,,,,,,,,,,,14,yunque,,,,,422.4931,423.9747,0,0,0.9404,,0,41,41,13,1,REAL,FAKE,,,,,,,,,,,,,,,,,
,,,,,,,,,5ee8f92c564e6212704b2315,Mexican,13 or older,"no, only English or Spanish",no,2025-08-15_01h34.30.604,empathy_intonation_perc_control,2024.2.4,Win32,59.88023952,5ee8f92c564e6212704b2315,68817205a84113384fffdfe3,689ec6b752da82cf5a0b509a,,,,,,,,,,,,,1,,,,,,,,,,,,,,,,,,,,,,,,,,,,,,,,,,,,,46,martillo,,,,,423.9761,425.525,1,1,1.0004,,0,42,42,45,1,REAL,FAKE,,,,,,,,,,,,,,,,,
,,,,,,,,,5ee8f92c564e6212704b2315,Mexican,13 or older,"no, only English or Spanish",no,2025-08-15_01h34.30.604,empathy_intonation_perc_control,2024.2.4,Win32,59.88023952,5ee8f92c564e6212704b2315,68817205a84113384fffdfe3,689ec6b752da82cf5a0b509a,,,,,,,,,,,,,1,,,,,,,,,,,,,,,,,,,,,,,,,,,,,,,,,,,,,51,candado,,,,,425.5265,428.1581,1,1,2.0838,,0,43,43,50,1,REAL,FAKE,,,,,,,,,,,,,,,,,
,,,,,,,,,5ee8f92c564e6212704b2315,Mexican,13 or older,"no, only English or Spanish",no,2025-08-15_01h34.30.604,empathy_intonation_perc_control,2024.2.4,Win32,59.88023952,5ee8f92c564e6212704b2315,68817205a84113384fffdfe3,689ec6b752da82cf5a0b509a,,,,,,,,,,,,,0,,,,,,,,,,,,,,,,,,,,,,,,,,,,,,,,,,,,,10,antar,,,,,428.1594,429.808,1,0,1.1005,,0,44,44,9,1,REAL,FAKE,,,,,,,,,,,,,,,,,
,,,,,,,,,5ee8f92c564e6212704b2315,Mexican,13 or older,"no, only English or Spanish",no,2025-08-15_01h34.30.604,empathy_intonation_perc_control,2024.2.4,Win32,59.88023952,5ee8f92c564e6212704b2315,68817205a84113384fffdfe3,689ec6b752da82cf5a0b509a,,,,,,,,,,,,,0,,,,,,,,,,,,,,,,,,,,,,,,,,,,,,,,,,,,,92,click the 0 key.,,,,,429.8094,431.2081,0,1,0.8507,,0,45,45,91,1,REAL,FAKE,,,,,,,,,,,,,,,,,
,,,,,,,,,5ee8f92c564e6212704b2315,Mexican,13 or older,"no, only English or Spanish",no,2025-08-15_01h34.30.604,empathy_intonation_perc_control,2024.2.4,Win32,59.88023952,5ee8f92c564e6212704b2315,68817205a84113384fffdfe3,689ec6b752da82cf5a0b509a,,,,,,,,,,,,,1,,,,,,,,,,,,,,,,,,,,,,,,,,,,,,,,,,,,,67,cabello,,,,,431.2092,432.608,1,1,0.8511,,0,46,46,66,1,REAL,FAKE,,,,,,,,,,,,,,,,,
,,,,,,,,,5ee8f92c564e6212704b2315,Mexican,13 or older,"no, only English or Spanish",no,2025-08-15_01h34.30.604,empathy_intonation_perc_control,2024.2.4,Win32,59.88023952,5ee8f92c564e6212704b2315,68817205a84113384fffdfe3,689ec6b752da82cf5a0b509a,,,,,,,,,,,,,0,,,,,,,,,,,,,,,,,,,,,,,,,,,,,,,,,,,,,17,floroso,,,,,432.6094,435.5419,1,0,2.3935,,0,47,47,16,1,REAL,FAKE,,,,,,,,,,,,,,,,,
,,,,,,,,,5ee8f92c564e6212704b2315,Mexican,13 or older,"no, only English or Spanish",no,2025-08-15_01h34.30.604,empathy_intonation_perc_control,2024.2.4,Win32,59.88023952,5ee8f92c564e6212704b2315,68817205a84113384fffdfe3,689ec6b752da82cf5a0b509a,,,,,,,,,,,,,0,,,,,,,,,,,,,,,,,,,,,,,,,,,,,,,,,,,,,70,temblo,,,,,435.5432,437.258,0,1,1.1673,,0,48,48,69,1,REAL,FAKE,,,,,,,,,,,,,,,,,
,,,,,,,,,5ee8f92c564e6212704b2315,Mexican,13 or older,"no, only English or Spanish",no,2025-08-15_01h34.30.604,empathy_intonation_perc_control,2024.2.4,Win32,59.88023952,5ee8f92c564e6212704b2315,68817205a84113384fffdfe3,689ec6b752da82cf5a0b509a,,,,,,,,,,,,,1,,,,,,,,,,,,,,,,,,,,,,,,,,,,,,,,,,,,,13,helar,,,,,437.2591,438.9746,0,0,1.1749,,0,49,49,12,1,REAL,FAKE,,,,,,,,,,,,,,,,,
,,,,,,,,,5ee8f92c564e6212704b2315,Mexican,13 or older,"no, only English or Spanish",no,2025-08-15_01h34.30.604,empathy_intonation_perc_control,2024.2.4,Win32,59.88023952,5ee8f92c564e6212704b2315,68817205a84113384fffdfe3,689ec6b752da82cf5a0b509a,,,,,,,,,,,,,1,,,,,,,,,,,,,,,,,,,,,,,,,,,,,,,,,,,,,48,ladrón,,,,,438.9757,440.7247,1,1,1.2078,,0,50,50,47,1,REAL,FAKE,,,,,,,,,,,,,,,,,
,,,,,,,,,5ee8f92c564e6212704b2315,Mexican,13 or older,"no, only English or Spanish",no,2025-08-15_01h34.30.604,empathy_intonation_perc_control,2024.2.4,Win32,59.88023952,5ee8f92c564e6212704b2315,68817205a84113384fffdfe3,689ec6b752da82cf5a0b509a,,,,,,,,,,,,,1,,,,,,,,,,,,,,,,,,,,,,,,,,,,,,,,,,,,,64,orgulloso,,,,,440.7258,443.9583,0,0,2.6844,,0,51,51,63,1,REAL,FAKE,,,,,,,,,,,,,,,,,
,,,,,,,,,5ee8f92c564e6212704b2315,Mexican,13 or older,"no, only English or Spanish",no,2025-08-15_01h34.30.604,empathy_intonation_perc_control,2024.2.4,Win32,59.88023952,5ee8f92c564e6212704b2315,68817205a84113384fffdfe3,689ec6b752da82cf5a0b509a,,,,,,,,,,,,,1,,,,,,,,,,,,,,,,,,,,,,,,,,,,,,,,,,,,,55,nevar,,,,,443.9594,445.8418,0,0,1.334,,0,52,52,54,1,REAL,FAKE,,,,,,,,,,,,,,,,,
,,,,,,,,,5ee8f92c564e6212704b2315,Mexican,13 or older,"no, only English or Spanish",no,2025-08-15_01h34.30.604,empathy_intonation_perc_control,2024.2.4,Win32,59.88023952,5ee8f92c564e6212704b2315,68817205a84113384fffdfe3,689ec6b752da82cf5a0b509a,,,,,,,,,,,,,1,,,,,,,,,,,,,,,,,,,,,,,,,,,,,,,,,,,,,83,guante,,,,,445.8441,447.6079,1,1,1.2232,,0,53,53,82,1,REAL,FAKE,,,,,,,,,,,,,,,,,
,,,,,,,,,5ee8f92c564e6212704b2315,Mexican,13 or older,"no, only English or Spanish",no,2025-08-15_01h34.30.604,empathy_intonation_perc_control,2024.2.4,Win32,59.88023952,5ee8f92c564e6212704b2315,68817205a84113384fffdfe3,689ec6b752da82cf5a0b509a,,,,,,,,,,,,,1,,,,,,,,,,,,,,,,,,,,,,,,,,,,,,,,,,,,,24,látigo,,,,,447.6095,448.9745,1,1,0.8239,,0,54,54,23,1,REAL,FAKE,,,,,,,,,,,,,,,,,
,,,,,,,,,5ee8f92c564e6212704b2315,Mexican,13 or older,"no, only English or Spanish",no,2025-08-15_01h34.30.604,empathy_intonation_perc_control,2024.2.4,Win32,59.88023952,5ee8f92c564e6212704b2315,68817205a84113384fffdfe3,689ec6b752da82cf5a0b509a,,,,,,,,,,,,,0,,,,,,,,,,,,,,,,,,,,,,,,,,,,,,,,,,,,,58,plaudir,,,,,448.9757,452.2415,0,1,2.7173,,0,55,55,57,1,REAL,FAKE,,,,,,,,,,,,,,,,,
,,,,,,,,,5ee8f92c564e6212704b2315,Mexican,13 or older,"no, only English or Spanish",no,2025-08-15_01h34.30.604,empathy_intonation_perc_control,2024.2.4,Win32,59.88023952,5ee8f92c564e6212704b2315,68817205a84113384fffdfe3,689ec6b752da82cf5a0b509a,,,,,,,,,,,,,1,,,,,,,,,,,,,,,,,,,,,,,,,,,,,,,,,,,,,22,lacayo,,,,,452.2435,454.0248,0,0,1.2336,,0,56,56,21,1,REAL,FAKE,,,,,,,,,,,,,,,,,
,,,,,,,,,5ee8f92c564e6212704b2315,Mexican,13 or older,"no, only English or Spanish",no,2025-08-15_01h34.30.604,empathy_intonation_perc_control,2024.2.4,Win32,59.88023952,5ee8f92c564e6212704b2315,68817205a84113384fffdfe3,689ec6b752da82cf5a0b509a,,,,,,,,,,,,,1,,,,,,,,,,,,,,,,,,,,,,,,,,,,,,,,,,,,,77,tiburón,,,,,454.0258,456.3417,0,0,1.7672,,0,57,57,76,1,REAL,FAKE,,,,,,,,,,,,,,,,,
,,,,,,,,,5ee8f92c564e6212704b2315,Mexican,13 or older,"no, only English or Spanish",no,2025-08-15_01h34.30.604,empathy_intonation_perc_control,2024.2.4,Win32,59.88023952,5ee8f92c564e6212704b2315,68817205a84113384fffdfe3,689ec6b752da82cf5a0b509a,,,,,,,,,,,,,1,,,,,,,,,,,,,,,,,,,,,,,,,,,,,,,,,,,,,80,hormiga,,,,,456.3435,457.6912,1,1,0.8054,,0,58,58,79,1,REAL,FAKE,,,,,,,,,,,,,,,,,
,,,,,,,,,5ee8f92c564e6212704b2315,Mexican,13 or older,"no, only English or Spanish",no,2025-08-15_01h34.30.604,empathy_intonation_perc_control,2024.2.4,Win32,59.88023952,5ee8f92c564e6212704b2315,68817205a84113384fffdfe3,689ec6b752da82cf5a0b509a,,,,,,,,,,,,,1,,,,,,,,,,,,,,,,,,,,,,,,,,,,,,,,,,,,,5,zapato,,,,,457.693,458.9412,1,1,0.7005,,0,59,59,4,1,REAL,FAKE,,,,,,,,,,,,,,,,,
,,,,,,,,,5ee8f92c564e6212704b2315,Mexican,13 or older,"no, only English or Spanish",no,2025-08-15_01h34.30.604,empathy_intonation_perc_control,2024.2.4,Win32,59.88023952,5ee8f92c564e6212704b2315,68817205a84113384fffdfe3,689ec6b752da82cf5a0b509a,,,,,,,,,,,,,1,,,,,,,,,,,,,,,,,,,,,,,,,,,,,,,,,,,,,65,bizcocho,,,,,458.9427,461.1912,0,0,1.7078,,0,60,60,64,1,REAL,FAKE,,,,,,,,,,,,,,,,,
,,,,,,,,,5ee8f92c564e6212704b2315,Mexican,13 or older,"no, only English or Spanish",no,2025-08-15_01h34.30.604,empathy_intonation_perc_control,2024.2.4,Win32,59.88023952,5ee8f92c564e6212704b2315,68817205a84113384fffdfe3,689ec6b752da82cf5a0b509a,,,,,,,,,,,,,1,,,,,,,,,,,,,,,,,,,,,,,,,,,,,,,,,,,,,43,canela,,,,,461.1925,463.2578,0,0,1.5239,,0,61,61,42,1,REAL,FAKE,,,,,,,,,,,,,,,,,
,,,,,,,,,5ee8f92c564e6212704b2315,Mexican,13 or older,"no, only English or Spanish",no,2025-08-15_01h34.30.604,empathy_intonation_perc_control,2024.2.4,Win32,59.88023952,5ee8f92c564e6212704b2315,68817205a84113384fffdfe3,689ec6b752da82cf5a0b509a,,,,,,,,,,,,,1,,,,,,,,,,,,,,,,,,,,,,,,,,,,,,,,,,,,,6,tergiversar,,,,,463.2588,465.7914,0,0,1.9855,,0,62,62,5,1,REAL,FAKE,,,,,,,,,,,,,,,,,
,,,,,,,,,5ee8f92c564e6212704b2315,Mexican,13 or older,"no, only English or Spanish",no,2025-08-15_01h34.30.604,empathy_intonation_perc_control,2024.2.4,Win32,59.88023952,5ee8f92c564e6212704b2315,68817205a84113384fffdfe3,689ec6b752da82cf5a0b509a,,,,,,,,,,,,,0,,,,,,,,,,,,,,,,,,,,,,,,,,,,,,,,,,,,,47,cartinar,,,,,465.7927,467.8579,1,0,1.5185,,0,63,63,46,1,REAL,FAKE,,,,,,,,,,,,,,,,,
,,,,,,,,,5ee8f92c564e6212704b2315,Mexican,13 or older,"no, only English or Spanish",no,2025-08-15_01h34.30.604,empathy_intonation_perc_control,2024.2.4,Win32,59.88023952,5ee8f92c564e6212704b2315,68817205a84113384fffdfe3,689ec6b752da82cf5a0b509a,,,,,,,,,,,,,0,,,,,,,,,,,,,,,,,,,,,,,,,,,,,,,,,,,,,53,vegada,,,,,467.859,471.7415,1,0,3.3335,,0,64,64,52,1,REAL,FAKE,,,,,,,,,,,,,,,,,
,,,,,,,,,5ee8f92c564e6212704b2315,Mexican,13 or older,"no, only English or Spanish",no,2025-08-15_01h34.30.604,empathy_intonation_perc_control,2024.2.4,Win32,59.88023952,5ee8f92c564e6212704b2315,68817205a84113384fffdfe3,689ec6b752da82cf5a0b509a,,,,,,,,,,,,,1,,,,,,,,,,,,,,,,,,,,,,,,,,,,,,,,,,,,,59,besar,,,,,471.7426,473.4078,1,1,1.117,,0,65,65,58,1,REAL,FAKE,,,,,,,,,,,,,,,,,
,,,,,,,,,5ee8f92c564e6212704b2315,Mexican,13 or older,"no, only English or Spanish",no,2025-08-15_01h34.30.604,empathy_intonation_perc_control,2024.2.4,Win32,59.88023952,5ee8f92c564e6212704b2315,68817205a84113384fffdfe3,689ec6b752da82cf5a0b509a,,,,,,,,,,,,,1,,,,,,,,,,,,,,,,,,,,,,,,,,,,,,,,,,,,,76,atar,,,,,473.4089,474.7577,1,1,0.8002,,0,66,66,75,1,REAL,FAKE,,,,,,,,,,,,,,,,,
,,,,,,,,,5ee8f92c564e6212704b2315,Mexican,13 or older,"no, only English or Spanish",no,2025-08-15_01h34.30.604,empathy_intonation_perc_control,2024.2.4,Win32,59.88023952,5ee8f92c564e6212704b2315,68817205a84113384fffdfe3,689ec6b752da82cf5a0b509a,,,,,,,,,,,,,1,,,,,,,,,,,,,,,,,,,,,,,,,,,,,,,,,,,,,20,ávido,,,,,474.7589,476.0414,1,1,0.7362,,0,67,67,19,1,REAL,FAKE,,,,,,,,,,,,,,,,,
,,,,,,,,,5ee8f92c564e6212704b2315,Mexican,13 or older,"no, only English or Spanish",no,2025-08-15_01h34.30.604,empathy_intonation_perc_control,2024.2.4,Win32,59.88023952,5ee8f92c564e6212704b2315,68817205a84113384fffdfe3,689ec6b752da82cf5a0b509a,,,,,,,,,,,,,1,,,,,,,,,,,,,,,,,,,,,,,,,,,,,,,,,,,,,52,camisa,,,,,476.0429,477.7746,0,0,1.1835,,0,68,68,51,1,REAL,FAKE,,,,,,,,,,,,,,,,,
,,,,,,,,,5ee8f92c564e6212704b2315,Mexican,13 or older,"no, only English or Spanish",no,2025-08-15_01h34.30.604,empathy_intonation_perc_control,2024.2.4,Win32,59.88023952,5ee8f92c564e6212704b2315,68817205a84113384fffdfe3,689ec6b752da82cf5a0b509a,,,,,,,,,,,,,1,,,,,,,,,,,,,,,,,,,,,,,,,,,,,,,,,,,,,75,yacer,,,,,477.7761,480.2576,0,0,1.9375,,0,69,69,74,1,REAL,FAKE,,,,,,,,,,,,,,,,,
,,,,,,,,,5ee8f92c564e6212704b2315,Mexican,13 or older,"no, only English or Spanish",no,2025-08-15_01h34.30.604,empathy_intonation_perc_control,2024.2.4,Win32,59.88023952,5ee8f92c564e6212704b2315,68817205a84113384fffdfe3,689ec6b752da82cf5a0b509a,,,,,,,,,,,,,1,,,,,,,,,,,,,,,,,,,,,,,,,,,,,,,,,,,,,69,engatusar,,,,,480.2587,481.8577,0,0,1.0588,,0,70,70,68,1,REAL,FAKE,,,,,,,,,,,,,,,,,
,,,,,,,,,5ee8f92c564e6212704b2315,Mexican,13 or older,"no, only English or Spanish",no,2025-08-15_01h34.30.604,empathy_intonation_perc_control,2024.2.4,Win32,59.88023952,5ee8f92c564e6212704b2315,68817205a84113384fffdfe3,689ec6b752da82cf5a0b509a,,,,,,,,,,,,,0,,,,,,,,,,,,,,,,,,,,,,,,,,,,,,,,,,,,,72,pemición,,,,,481.8588,485.4744,0,1,3.067,,0,71,71,71,1,REAL,FAKE,,,,,,,,,,,,,,,,,
,,,,,,,,,5ee8f92c564e6212704b2315,Mexican,13 or older,"no, only English or Spanish",no,2025-08-15_01h34.30.604,empathy_intonation_perc_control,2024.2.4,Win32,59.88023952,5ee8f92c564e6212704b2315,68817205a84113384fffdfe3,689ec6b752da82cf5a0b509a,,,,,,,,,,,,,0,,,,,,,,,,,,,,,,,,,,,,,,,,,,,,,,,,,,,8,cadeña,,,,,485.4755,487.2912,1,0,1.2673,,0,72,72,7,1,REAL,FAKE,,,,,,,,,,,,,,,,,
,,,,,,,,,5ee8f92c564e6212704b2315,Mexican,13 or older,"no, only English or Spanish",no,2025-08-15_01h34.30.604,empathy_intonation_perc_control,2024.2.4,Win32,59.88023952,5ee8f92c564e6212704b2315,68817205a84113384fffdfe3,689ec6b752da82cf5a0b509a,,,,,,,,,,,,,0,,,,,,,,,,,,,,,,,,,,,,,,,,,,,,,,,,,,,33,pauca,,,,,487.2929,490.2245,1,0,2.3836,,0,73,73,32,1,REAL,FAKE,,,,,,,,,,,,,,,,,
,,,,,,,,,5ee8f92c564e6212704b2315,Mexican,13 or older,"no, only English or Spanish",no,2025-08-15_01h34.30.604,empathy_intonation_perc_control,2024.2.4,Win32,59.88023952,5ee8f92c564e6212704b2315,68817205a84113384fffdfe3,689ec6b752da82cf5a0b509a,,,,,,,,,,,,,0,,,,,,,,,,,,,,,,,,,,,,,,,,,,,,,,,,,,,84,escuto,,,,,490.2259,494.3746,0,1,3.6093,,0,74,74,83,1,REAL,FAKE,,,,,,,,,,,,,,,,,
,,,,,,,,,5ee8f92c564e6212704b2315,Mexican,13 or older,"no, only English or Spanish",no,2025-08-15_01h34.30.604,empathy_intonation_perc_control,2024.2.4,Win32,59.88023952,5ee8f92c564e6212704b2315,68817205a84113384fffdfe3,689ec6b752da82cf5a0b509a,,,,,,,,,,,,,1,,,,,,,,,,,,,,,,,,,,,,,,,,,,,,,,,,,,,28,merodear,,,,,494.3756,496.5912,0,0,1.6673,,0,75,75,27,1,REAL,FAKE,,,,,,,,,,,,,,,,,
,,,,,,,,,5ee8f92c564e6212704b2315,Mexican,13 or older,"no, only English or Spanish",no,2025-08-15_01h34.30.604,empathy_intonation_perc_control,2024.2.4,Win32,59.88023952,5ee8f92c564e6212704b2315,68817205a84113384fffdfe3,689ec6b752da82cf5a0b509a,,,,,,,,,,,,,0,,,,,,,,,,,,,,,,,,,,,,,,,,,,,,,,,,,,,63,esposante,,,,,496.5928,499.0078,1,0,1.867,,0,76,76,62,1,REAL,FAKE,,,,,,,,,,,,,,,,,
,,,,,,,,,5ee8f92c564e6212704b2315,Mexican,13 or older,"no, only English or Spanish",no,2025-08-15_01h34.30.604,empathy_intonation_perc_control,2024.2.4,Win32,59.88023952,5ee8f92c564e6212704b2315,68817205a84113384fffdfe3,689ec6b752da82cf5a0b509a,,,,,,,,,,,,,1,,,,,,,,,,,,,,,,,,,,,,,,,,,,,,,,,,,,,39,torpe,,,,,499.0088,501.3645,1,1,1.8168,,0,77,77,38,1,REAL,FAKE,,,,,,,,,,,,,,,,,
,,,,,,,,,5ee8f92c564e6212704b2315,Mexican,13 or older,"no, only English or Spanish",no,2025-08-15_01h34.30.604,empathy_intonation_perc_control,2024.2.4,Win32,59.88023952,5ee8f92c564e6212704b2315,68817205a84113384fffdfe3,689ec6b752da82cf5a0b509a,,,,,,,,,,,,,1,,,,,,,,,,,,,,,,,,,,,,,,,,,,,,,,,,,,,12,asesinato,,,,,501.3654,506.1574,1,1,4.2545,,0,78,78,11,1,REAL,FAKE,,,,,,,,,,,,,,,,,
,,,,,,,,,5ee8f92c564e6212704b2315,Mexican,13 or older,"no, only English or Spanish",no,2025-08-15_01h34.30.604,empathy_intonation_perc_control,2024.2.4,Win32,59.88023952,5ee8f92c564e6212704b2315,68817205a84113384fffdfe3,689ec6b752da82cf5a0b509a,,,,,,,,,,,,,1,,,,,,,,,,,,,,,,,,,,,,,,,,,,,,,,,,,,,61,seda,,,,,506.1585,508.1074,0,0,1.403,,0,79,79,60,1,REAL,FAKE,,,,,,,,,,,,,,,,,
,,,,,,,,,5ee8f92c564e6212704b2315,Mexican,13 or older,"no, only English or Spanish",no,2025-08-15_01h34.30.604,empathy_intonation_perc_control,2024.2.4,Win32,59.88023952,5ee8f92c564e6212704b2315,68817205a84113384fffdfe3,689ec6b752da82cf5a0b509a,,,,,,,,,,,,,0,,,,,,,,,,,,,,,,,,,,,,,,,,,,,,,,,,,,,27,acutación,,,,,508.1085,512.0744,0,1,3.417,,0,80,80,26,1,REAL,FAKE,,,,,,,,,,,,,,,,,
,,,,,,,,,5ee8f92c564e6212704b2315,Mexican,13 or older,"no, only English or Spanish",no,2025-08-15_01h34.30.604,empathy_intonation_perc_control,2024.2.4,Win32,59.88023952,5ee8f92c564e6212704b2315,68817205a84113384fffdfe3,689ec6b752da82cf5a0b509a,,,,,,,,,,,,,1,,,,,,,,,,,,,,,,,,,,,,,,,,,,,,,,,,,,,86,barato,,,,,512.0764,513.824,1,1,1.2077,,0,81,81,85,1,REAL,FAKE,,,,,,,,,,,,,,,,,
,,,,,,,,,5ee8f92c564e6212704b2315,Mexican,13 or older,"no, only English or Spanish",no,2025-08-15_01h34.30.604,empathy_intonation_perc_control,2024.2.4,Win32,59.88023952,5ee8f92c564e6212704b2315,68817205a84113384fffdfe3,689ec6b752da82cf5a0b509a,,,,,,,,,,,,,0,,,,,,,,,,,,,,,,,,,,,,,,,,,,,,,,,,,,,1,terzo,,,,,513.8251,515.9742,1,0,1.605,,0,82,82,0,1,REAL,FAKE,,,,,,,,,,,,,,,,,
,,,,,,,,,5ee8f92c564e6212704b2315,Mexican,13 or older,"no, only English or Spanish",no,2025-08-15_01h34.30.604,empathy_intonation_perc_control,2024.2.4,Win32,59.88023952,5ee8f92c564e6212704b2315,68817205a84113384fffdfe3,689ec6b752da82cf5a0b509a,,,,,,,,,,,,,1,,,,,,,,,,,,,,,,,,,,,,,,,,,,,,,,,,,,,41,rebuscar,,,,,515.9758,520.2743,1,1,3.7504,,0,83,83,40,1,REAL,FAKE,,,,,,,,,,,,,,,,,
,,,,,,,,,5ee8f92c564e6212704b2315,Mexican,13 or older,"no, only English or Spanish",no,2025-08-15_01h34.30.604,empathy_intonation_perc_control,2024.2.4,Win32,59.88023952,5ee8f92c564e6212704b2315,68817205a84113384fffdfe3,689ec6b752da82cf5a0b509a,,,,,,,,,,,,,1,,,,,,,,,,,,,,,,,,,,,,,,,,,,,,,,,,,,,81,pozo,,,,,520.276,522.1743,0,0,1.3532,,0,84,84,80,1,REAL,FAKE,,,,,,,,,,,,,,,,,
,,,,,,,,,5ee8f92c564e6212704b2315,Mexican,13 or older,"no, only English or Spanish",no,2025-08-15_01h34.30.604,empathy_intonation_perc_control,2024.2.4,Win32,59.88023952,5ee8f92c564e6212704b2315,68817205a84113384fffdfe3,689ec6b752da82cf5a0b509a,,,,,,,,,,,,,1,,,,,,,,,,,,,,,,,,,,,,,,,,,,,,,,,,,,,44,cuchara,,,,,522.1755,524.1246,0,0,1.4043,,0,85,85,43,1,REAL,FAKE,,,,,,,,,,,,,,,,,
,,,,,,,,,5ee8f92c564e6212704b2315,Mexican,13 or older,"no, only English or Spanish",no,2025-08-15_01h34.30.604,empathy_intonation_perc_control,2024.2.4,Win32,59.88023952,5ee8f92c564e6212704b2315,68817205a84113384fffdfe3,689ec6b752da82cf5a0b509a,,,,,,,,,,,,,1,,,,,,,,,,,,,,,,,,,,,,,,,,,,,,,,,,,,,40,alfombra,,,,,524.1259,525.9909,0,0,1.3176,,0,86,86,39,1,REAL,FAKE,,,,,,,,,,,,,,,,,
,,,,,,,,,5ee8f92c564e6212704b2315,Mexican,13 or older,"no, only English or Spanish",no,2025-08-15_01h34.30.604,empathy_intonation_perc_control,2024.2.4,Win32,59.88023952,5ee8f92c564e6212704b2315,68817205a84113384fffdfe3,689ec6b752da82cf5a0b509a,,,,,,,,,,,,,1,,,,,,,,,,,,,,,,,,,,,,,,,,,,,,,,,,,,,45,jilguero,,,,,525.9924,527.7573,0,0,1.2257,,0,87,87,44,1,REAL,FAKE,,,,,,,,,,,,,,,,,
,,,,,,,,,5ee8f92c564e6212704b2315,Mexican,13 or older,"no, only English or Spanish",no,2025-08-15_01h34.30.604,empathy_intonation_perc_control,2024.2.4,Win32,59.88023952,5ee8f92c564e6212704b2315,68817205a84113384fffdfe3,689ec6b752da82cf5a0b509a,,,,,,,,,,,,,1,,,,,,,,,,,,,,,,,,,,,,,,,,,,,,,,,,,,,37,granuja,,,,,527.7584,529.4405,1,1,1.1342,,0,88,88,36,1,REAL,FAKE,,,,,,,,,,,,,,,,,
,,,,,,,,,5ee8f92c564e6212704b2315,Mexican,13 or older,"no, only English or Spanish",no,2025-08-15_01h34.30.604,empathy_intonation_perc_control,2024.2.4,Win32,59.88023952,5ee8f92c564e6212704b2315,68817205a84113384fffdfe3,689ec6b752da82cf5a0b509a,,,,,,,,,,,,,0,,,,,,,,,,,,,,,,,,,,,,,,,,,,,,,,,,,,,32,fatacidad,,,,,529.4421,533.9743,0,1,3.9843,,0,89,89,31,1,REAL,FAKE,,,,,,,,,,,,,,,,,
,,,,,,,,,5ee8f92c564e6212704b2315,Mexican,13 or older,"no, only English or Spanish",no,2025-08-15_01h34.30.604,empathy_intonation_perc_control,2024.2.4,Win32,59.88023952,5ee8f92c564e6212704b2315,68817205a84113384fffdfe3,689ec6b752da82cf5a0b509a,,,,,,,,,,,,,1,,,,,,,,,,,,,,,,,,,,,,,,,,,,,,,,,,,,,9,hacha,,,,,533.9755,538.1076,0,0,3.5837,,0,90,90,8,1,REAL,FAKE,,,,,,,,,,,,,,,,,
,,,,,,,,,5ee8f92c564e6212704b2315,Mexican,13 or older,"no, only English or Spanish",no,2025-08-15_01h34.30.604,empathy_intonation_perc_control,2024.2.4,Win32,59.88023952,5ee8f92c564e6212704b2315,68817205a84113384fffdfe3,689ec6b752da82cf5a0b509a,,,,,,,,,,,,,0,,,,,,,,,,,,,,,,,,,,,,,,,,,,,,,,,,,,,87,grodo,,,,,538.1087,540.1074,0,1,1.4508,,0,91,91,86,1,REAL,FAKE,,,,,,,,,,,,,,,,,
,,,,,,,,,5ee8f92c564e6212704b2315,Mexican,13 or older,"no, only English or Spanish",no,2025-08-15_01h34.30.604,empathy_intonation_perc_control,2024.2.4,Win32,59.88023952,5ee8f92c564e6212704b2315,68817205a84113384fffdfe3,689ec6b752da82cf5a0b509a,,,,,,,,,,,,,,,,,,,,,,,,,,,,,,,,,,,,,,,,,,,,,,,,,,,,,,,,,,,,,,,,,,,,,540.1081,548.0915,,,,,,,,,,,,,,,
,,,,,,,,,5ee8f92c564e6212704b2315,Mexican,13 or older,"no, only English or Spanish",no,2025-08-15_01h34.30.604,empathy_intonation_perc_control,2024.2.4,Win32,59.88023952,5ee8f92c564e6212704b2315,68817205a84113384fffdfe3,689ec6b752da82cf5a0b509a,,,,,,,,,,,,,,,,,,,,,,,,,,,1,,,,,,,,,,,,,,,,,,,,,,,,,,,,,,,,,,,,,,,,,,,,548.1015,553.4919,slightly agree,0,0,0,0,1,I can easily tell if someone else wants to enter a conversation.,1,0,1,0,,
,,,,,,,,,5ee8f92c564e6212704b2315,Mexican,13 or older,"no, only English or Spanish",no,2025-08-15_01h34.30.604,empathy_intonation_perc_control,2024.2.4,Win32,59.88023952,5ee8f92c564e6212704b2315,68817205a84113384fffdfe3,689ec6b752da82cf5a0b509a,,,,,,,,,,,,,,,,,,,,,,,,,,,2,,,,,,,,,,,,,,,,,,,,,,,,,,,,,,,,,,,,,,,,,,,,553.4946,558.7738,slightly agree,0,1,1,1,1,I prefer animals to humans.,0,1,0,0,,
,,,,,,,,,5ee8f92c564e6212704b2315,Mexican,13 or older,"no, only English or Spanish",no,2025-08-15_01h34.30.604,empathy_intonation_perc_control,2024.2.4,Win32,59.88023952,5ee8f92c564e6212704b2315,68817205a84113384fffdfe3,689ec6b752da82cf5a0b509a,,,,,,,,,,,,,,,,,,,,,,,,,,,3,,,,,,,,,,,,,,,,,,,,,,,,,,,,,,,,,,,,,,,,,,,,558.7767,562.1914,strongly disagree,0,2,2,2,1,I try to keep up with the current trends and fashions.,0,1,0,0,,
,,,,,,,,,5ee8f92c564e6212704b2315,Mexican,13 or older,"no, only English or Spanish",no,2025-08-15_01h34.30.604,empathy_intonation_perc_control,2024.2.4,Win32,59.88023952,5ee8f92c564e6212704b2315,68817205a84113384fffdfe3,689ec6b752da82cf5a0b509a,,,,,,,,,,,,,,,,,,,,,,,,,,,4,,,,,,,,,,,,,,,,,,,,,,,,,,,,,,,,,,,,,,,,,,,,562.1937,567.7071,slightly disagree,0,3,3,3,1,"I find it difficult to explain to others things that I understand easily,   when they don't understand it first time.",1,0,0,1,,
,,,,,,,,,5ee8f92c564e6212704b2315,Mexican,13 or older,"no, only English or Spanish",no,2025-08-15_01h34.30.604,empathy_intonation_perc_control,2024.2.4,Win32,59.88023952,5ee8f92c564e6212704b2315,68817205a84113384fffdfe3,689ec6b752da82cf5a0b509a,,,,,,,,,,,,,,,,,,,,,,,,,,,5,,,,,,,,,,,,,,,,,,,,,,,,,,,,,,,,,,,,,,,,,,,,567.7088,570.6404,strongly agree,0,4,4,4,1,I dream most nights.,0,1,0,0,,
,,,,,,,,,5ee8f92c564e6212704b2315,Mexican,13 or older,"no, only English or Spanish",no,2025-08-15_01h34.30.604,empathy_intonation_perc_control,2024.2.4,Win32,59.88023952,5ee8f92c564e6212704b2315,68817205a84113384fffdfe3,689ec6b752da82cf5a0b509a,,,,,,,,,,,,,,,,,,,,,,,,,,,6,,,,,,,,,,,,,,,,,,,,,,,,,,,,,,,,,,,,,,,,,,,,570.6424,573.4737,slightly agree,0,5,5,5,1,I really enjoy caring for other people.,1,0,1,0,,
,,,,,,,,,5ee8f92c564e6212704b2315,Mexican,13 or older,"no, only English or Spanish",no,2025-08-15_01h34.30.604,empathy_intonation_perc_control,2024.2.4,Win32,59.88023952,5ee8f92c564e6212704b2315,68817205a84113384fffdfe3,689ec6b752da82cf5a0b509a,,,,,,,,,,,,,,,,,,,,,,,,,,,7,,,,,,,,,,,,,,,,,,,,,,,,,,,,,,,,,,,,,,,,,,,,573.476,578.4479,slightly agree,0,6,6,6,1,I try to solve my own problems rather than discussing them with others.,0,1,0,0,,
,,,,,,,,,5ee8f92c564e6212704b2315,Mexican,13 or older,"no, only English or Spanish",no,2025-08-15_01h34.30.604,empathy_intonation_perc_control,2024.2.4,Win32,59.88023952,5ee8f92c564e6212704b2315,68817205a84113384fffdfe3,689ec6b752da82cf5a0b509a,,,,,,,,,,,,,,,,,,,,,,,,,,,8,,,,,,,,,,,,,,,,,,,,,,,,,,,,,,,,,,,,,,,,,,,,578.4489,581.4737,slightly disagree,0,7,7,7,1,I find it hard to know what to do in a social situation.,1,0,0,1,,
,,,,,,,,,5ee8f92c564e6212704b2315,Mexican,13 or older,"no, only English or Spanish",no,2025-08-15_01h34.30.604,empathy_intonation_perc_control,2024.2.4,Win32,59.88023952,5ee8f92c564e6212704b2315,68817205a84113384fffdfe3,689ec6b752da82cf5a0b509a,,,,,,,,,,,,,,,,,,,,,,,,,,,9,,,,,,,,,,,,,,,,,,,,,,,,,,,,,,,,,,,,,,,,,,,,581.4754,584.6147,strongly disagree,0,8,8,8,1,I am at my best first thing in the morning.,0,1,0,0,,
,,,,,,,,,5ee8f92c564e6212704b2315,Mexican,13 or older,"no, only English or Spanish",no,2025-08-15_01h34.30.604,empathy_intonation_perc_control,2024.2.4,Win32,59.88023952,5ee8f92c564e6212704b2315,68817205a84113384fffdfe3,689ec6b752da82cf5a0b509a,,,,,,,,,,,,,,,,,,,,,,,,,,,10,,,,,,,,,,,,,,,,,,,,,,,,,,,,,,,,,,,,,,,,,,,,584.6162,589.9737,slightly disagree,0,9,9,9,1,People often tell me that I went too far in driving my point home in a discussion.,1,0,0,1,,
,,,,,,,,,5ee8f92c564e6212704b2315,Mexican,13 or older,"no, only English or Spanish",no,2025-08-15_01h34.30.604,empathy_intonation_perc_control,2024.2.4,Win32,59.88023952,5ee8f92c564e6212704b2315,68817205a84113384fffdfe3,689ec6b752da82cf5a0b509a,,,,,,,,,,,,,,,,,,,,,,,,,,,11,,,,,,,,,,,,,,,,,,,,,,,,,,,,,,,,,,,,,,,,,,,,589.9758,594.4736,strongly disagree,0,10,10,10,1,It doesn't bother me too much if I am late meeting a friend.,1,0,0,1,,
,,,,,,,,,5ee8f92c564e6212704b2315,Mexican,13 or older,"no, only English or Spanish",no,2025-08-15_01h34.30.604,empathy_intonation_perc_control,2024.2.4,Win32,59.88023952,5ee8f92c564e6212704b2315,68817205a84113384fffdfe3,689ec6b752da82cf5a0b509a,,,,,,,,,,,,,,,,,,,,,,,,,,,12,,,,,,,,,,,,,,,,,,,,,,,,,,,,,,,,,,,,,,,,,,,,594.4767,598.1902,strongly agree,0,11,11,11,1,"Friendships and relationships are just too difficult, so I tend not to 
  bother with them.",1,0,0,1,,
,,,,,,,,,5ee8f92c564e6212704b2315,Mexican,13 or older,"no, only English or Spanish",no,2025-08-15_01h34.30.604,empathy_intonation_perc_control,2024.2.4,Win32,59.88023952,5ee8f92c564e6212704b2315,68817205a84113384fffdfe3,689ec6b752da82cf5a0b509a,,,,,,,,,,,,,,,,,,,,,,,,,,,13,,,,,,,,,,,,,,,,,,,,,,,,,,,,,,,,,,,,,,,,,,,,598.1921,600.6902,strongly disagree,0,12,12,12,1,"I would never break a law, no matter how minor.",0,1,0,0,,
,,,,,,,,,5ee8f92c564e6212704b2315,Mexican,13 or older,"no, only English or Spanish",no,2025-08-15_01h34.30.604,empathy_intonation_perc_control,2024.2.4,Win32,59.88023952,5ee8f92c564e6212704b2315,68817205a84113384fffdfe3,689ec6b752da82cf5a0b509a,,,,,,,,,,,,,,,,,,,,,,,,,,,14,,,,,,,,,,,,,,,,,,,,,,,,,,,,,,,,,,,,,,,,,,,,600.6921,604.1947,slightly disagree,0,13,13,13,1,I often find it difficult to judge if something is rude or polite.,1,0,0,1,,
,,,,,,,,,5ee8f92c564e6212704b2315,Mexican,13 or older,"no, only English or Spanish",no,2025-08-15_01h34.30.604,empathy_intonation_perc_control,2024.2.4,Win32,59.88023952,5ee8f92c564e6212704b2315,68817205a84113384fffdfe3,689ec6b752da82cf5a0b509a,,,,,,,,,,,,,,,,,,,,,,,,,,,15,,,,,,,,,,,,,,,,,,,,,,,,,,,,,,,,,,,,,,,,,,,,604.196,608.9738,slightly agree,0,14,14,14,1,"In a conversation, I tend to focus on my own thoughts rather than on what 
  my listener might be thinking.",1,0,0,1,,
,,,,,,,,,5ee8f92c564e6212704b2315,Mexican,13 or older,"no, only English or Spanish",no,2025-08-15_01h34.30.604,empathy_intonation_perc_control,2024.2.4,Win32,59.88023952,5ee8f92c564e6212704b2315,68817205a84113384fffdfe3,689ec6b752da82cf5a0b509a,,,,,,,,,,,,,,,,,,,,,,,,,,,16,,,,,,,,,,,,,,,,,,,,,,,,,,,,,,,,,,,,,,,,,,,,608.9763,612.7573,strongly disagree,0,15,15,15,1,I prefer practical jokes to verbal humor.,0,1,0,0,,
,,,,,,,,,5ee8f92c564e6212704b2315,Mexican,13 or older,"no, only English or Spanish",no,2025-08-15_01h34.30.604,empathy_intonation_perc_control,2024.2.4,Win32,59.88023952,5ee8f92c564e6212704b2315,68817205a84113384fffdfe3,689ec6b752da82cf5a0b509a,,,,,,,,,,,,,,,,,,,,,,,,,,,17,,,,,,,,,,,,,,,,,,,,,,,,,,,,,,,,,,,,,,,,,,,,612.7603,616.5067,slightly disagree,0,16,16,16,1,I live life for today rather than the future.,0,1,0,0,,
,,,,,,,,,5ee8f92c564e6212704b2315,Mexican,13 or older,"no, only English or Spanish",no,2025-08-15_01h34.30.604,empathy_intonation_perc_control,2024.2.4,Win32,59.88023952,5ee8f92c564e6212704b2315,68817205a84113384fffdfe3,689ec6b752da82cf5a0b509a,,,,,,,,,,,,,,,,,,,,,,,,,,,18,,,,,,,,,,,,,,,,,,,,,,,,,,,,,,,,,,,,,,,,,,,,616.509,619.607,strongly disagree,0,17,17,17,1,"When I was a child, I enjoyed cutting up worms to see what would happen.",1,0,0,1,,
,,,,,,,,,5ee8f92c564e6212704b2315,Mexican,13 or older,"no, only English or Spanish",no,2025-08-15_01h34.30.604,empathy_intonation_perc_control,2024.2.4,Win32,59.88023952,5ee8f92c564e6212704b2315,68817205a84113384fffdfe3,689ec6b752da82cf5a0b509a,,,,,,,,,,,,,,,,,,,,,,,,,,,19,,,,,,,,,,,,,,,,,,,,,,,,,,,,,,,,,,,,,,,,,,,,619.6102,627.4233,strongly agree,0,18,18,18,1,I can pick up quickly if someone says one thing but means another.,1,0,1,0,,
,,,,,,,,,5ee8f92c564e6212704b2315,Mexican,13 or older,"no, only English or Spanish",no,2025-08-15_01h34.30.604,empathy_intonation_perc_control,2024.2.4,Win32,59.88023952,5ee8f92c564e6212704b2315,68817205a84113384fffdfe3,689ec6b752da82cf5a0b509a,,,,,,,,,,,,,,,,,,,,,,,,,,,20,,,,,,,,,,,,,,,,,,,,,,,,,,,,,,,,,,,,,,,,,,,,627.4253,633.7077,slightly disagree,0,19,19,19,1,I tend to have very strong opinions about morality.,0,1,0,0,,
,,,,,,,,,5ee8f92c564e6212704b2315,Mexican,13 or older,"no, only English or Spanish",no,2025-08-15_01h34.30.604,empathy_intonation_perc_control,2024.2.4,Win32,59.88023952,5ee8f92c564e6212704b2315,68817205a84113384fffdfe3,689ec6b752da82cf5a0b509a,,,,,,,,,,,,,,,,,,,,,,,,,,,21,,,,,,,,,,,,,,,,,,,,,,,,,,,,,,,,,,,,,,,,,,,,633.709,639.1237,strongly agree,0,20,20,20,1,It is hard for me to see why some things upset people so much.,1,0,0,1,,
,,,,,,,,,5ee8f92c564e6212704b2315,Mexican,13 or older,"no, only English or Spanish",no,2025-08-15_01h34.30.604,empathy_intonation_perc_control,2024.2.4,Win32,59.88023952,5ee8f92c564e6212704b2315,68817205a84113384fffdfe3,689ec6b752da82cf5a0b509a,,,,,,,,,,,,,,,,,,,,,,,,,,,22,,,,,,,,,,,,,,,,,,,,,,,,,,,,,,,,,,,,,,,,,,,,639.1258,642.0972,strongly agree,0,21,21,21,1,I find it easy to put myself in somebody else's shoes.,1,0,1,0,,
,,,,,,,,,5ee8f92c564e6212704b2315,Mexican,13 or older,"no, only English or Spanish",no,2025-08-15_01h34.30.604,empathy_intonation_perc_control,2024.2.4,Win32,59.88023952,5ee8f92c564e6212704b2315,68817205a84113384fffdfe3,689ec6b752da82cf5a0b509a,,,,,,,,,,,,,,,,,,,,,,,,,,,23,,,,,,,,,,,,,,,,,,,,,,,,,,,,,,,,,,,,,,,,,,,,642.0983,645.9736,slightly agree,0,22,22,22,1,I think that good manners are the most important thing a parent can teach their child.,0,1,0,0,,
,,,,,,,,,5ee8f92c564e6212704b2315,Mexican,13 or older,"no, only English or Spanish",no,2025-08-15_01h34.30.604,empathy_intonation_perc_control,2024.2.4,Win32,59.88023952,5ee8f92c564e6212704b2315,68817205a84113384fffdfe3,689ec6b752da82cf5a0b509a,,,,,,,,,,,,,,,,,,,,,,,,,,,24,,,,,,,,,,,,,,,,,,,,,,,,,,,,,,,,,,,,,,,,,,,,645.9754,649.3564,slightly disagree,0,23,23,23,1,I like to do things on the spur of the moment.,0,1,0,0,,
,,,,,,,,,5ee8f92c564e6212704b2315,Mexican,13 or older,"no, only English or Spanish",no,2025-08-15_01h34.30.604,empathy_intonation_perc_control,2024.2.4,Win32,59.88023952,5ee8f92c564e6212704b2315,68817205a84113384fffdfe3,689ec6b752da82cf5a0b509a,,,,,,,,,,,,,,,,,,,,,,,,,,,25,,,,,,,,,,,,,,,,,,,,,,,,,,,,,,,,,,,,,,,,,,,,649.3584,654.1563,slightly disagree,0,24,24,24,1,I am good at predicting how someone will feel.,1,0,1,0,,
