instructions_2afc.started,instructions_2afc.stopped,instructions_2afc_loop.thisRepN,instructions_2afc_loop.thisTrialN,instructions_2afc_loop.thisN,instructions_2afc_loop.thisIndex,instructions_2afc_loop.ran,instructions_text,continue_text,participant_id,"What variety of Spanish are you most familiar with? (e.g., Peruvian, Spanish, Mexican)",At what age did you begin learning Spanish?,Are you proficient in any languages other than English/Spanish?,"Are you familiar with Caribbean (e.g., Caribbean, Puerto Rican) or Galician Spanish?",date,expName,psychopyVersion,OS,frameRate,id,study_id,session,practice_2afc.started,practice_2afc.stopped,key_resp_2afc_practice.keys,key_resp_2afc_practice.corr,key_resp_2afc_practice.rt,key_resp_2afc_practice.duration,trials_2afc_practice_loop.thisRepN,trials_2afc_practice_loop.thisTrialN,trials_2afc_practice_loop.thisN,trials_2afc_practice_loop.thisIndex,trials_2afc_practice_loop.ran,path,correct_response,check_2afc.started,check_2afc.stopped,trial_2afc.started,trial_2afc.stopped,key_resp_2afc_trial.keys,key_resp_2afc_trial.corr,key_resp_2afc_trial.rt,key_resp_2afc_trial.duration,trials_2afc_loop.thisRepN,trials_2afc_loop.thisTrialN,trials_2afc_loop.thisN,trials_2afc_loop.thisIndex,trials_2afc_loop.ran,item_num,target,variety,instructions_lextale.started,instructions_lextale.stopped,instructions_lextale_loop.thisRepN,instructions_lextale_loop.thisTrialN,instructions_lextale_loop.thisN,instructions_lextale_loop.thisIndex,instructions_lextale_loop.ran,practice_lextale.started,practice_lextale.stopped,key_resp_lextale_practice.keys,key_resp_lextale_practice.corr,key_resp_lextale_practice.rt,key_resp_lextale_practice.duration,practice_feedback_lextale.started,practice_feedback_lextale.stopped,trials_lextale_practice_loop.thisRepN,trials_lextale_practice_loop.thisTrialN,trials_lextale_practice_loop.thisN,trials_lextale_practice_loop.thisIndex,trials_lextale_practice_loop.ran,stim,word,prac_button_real,prac_button_false,check_lextale.started,check_lextale.stopped,trial_lextale.started,trial_lextale.stopped,key_resp_lextale_trial.keys,key_resp_lextale_trial.corr,key_resp_lextale_trial.rt,key_resp_lextale_trial.duration,trials_lextale_loop.thisRepN,trials_lextale_loop.thisTrialN,trials_lextale_loop.thisN,trials_lextale_loop.thisIndex,trials_lextale_loop.ran,button_real,button_false,instructions_eq.started,instructions_eq.stopped,trial_eq.started,trial_eq.stopped,slider_eq_trial.response,trials_eq_loop.thisRepN,trials_eq_loop.thisTrialN,trials_eq_loop.thisN,trials_eq_loop.thisIndex,trials_eq_loop.ran,item,is_test_item,is_distractor,is_agree_score,is_disagree_score,end_exp.started,end_exp.stopped
0.0167,4.8992,0,0,0,0,1,"In the following task you are going to hear a series of utterances. 

  You will decide if the utterances sound like questions or not using your keyboard.", (press the spacebar to continue),5efb5360f3f69c084c1ca850,Spanish,13 or older,"no, only English or Spanish",no,2026-01-21_21h57.49.012,empathy_intonation_perc_control,2024.2.4,Win32,163.9344262,5efb5360f3f69c084c1ca850,69712dc693a3960bdb483245,697192124fb0f5c9800a952c,,,,,,,,,,,,,,,,,,,,,,,,,,,,,,,,,,,,,,,,,,,,,,,,,,,,,,,,,,,,,,,,,,,,,,,,,,,,,,,,,,,,,
4.9014,7.8095,0,1,1,1,1,"If you believe the utterance is a question, type '1' (for 'yes') and if you do not 
  believe it is a question type '0' (for 'no').

  Let's practice a bit...", (press the spacebar to continue),5efb5360f3f69c084c1ca850,Spanish,13 or older,"no, only English or Spanish",no,2026-01-21_21h57.49.012,empathy_intonation_perc_control,2024.2.4,Win32,163.9344262,5efb5360f3f69c084c1ca850,69712dc693a3960bdb483245,697192124fb0f5c9800a952c,,,,,,,,,,,,,,,,,,,,,,,,,,,,,,,,,,,,,,,,,,,,,,,,,,,,,,,,,,,,,,,,,,,,,,,,,,,,,,,,,,,,,
,,,,,,,,,5efb5360f3f69c084c1ca850,Spanish,13 or older,"no, only English or Spanish",no,2026-01-21_21h57.49.012,empathy_intonation_perc_control,2024.2.4,Win32,163.9344262,5efb5360f3f69c084c1ca850,69712dc693a3960bdb483245,697192124fb0f5c9800a952c,7.8189,10.3266,1,1,2.0057,,0,0,0,3,1,./stim/wavs/mexican_question_filler_Felipe-no-tiene-contrasena.wav,1,,,,,,,,,,,,,,,,,,,,,,,,,,,,,,,,,,,,,,,,,,,,,,,,,,,,,,,,,,,,,,,,,,,,,,,,
,,,,,,,,,5efb5360f3f69c084c1ca850,Spanish,13 or older,"no, only English or Spanish",no,2026-01-21_21h57.49.012,empathy_intonation_perc_control,2024.2.4,Win32,163.9344262,5efb5360f3f69c084c1ca850,69712dc693a3960bdb483245,697192124fb0f5c9800a952c,10.3272,12.7757,1,1,1.9417,,0,1,1,0,1,./stim/wavs/castilian_question_filler_Mi-esposo-conoce-al-chico.wav,1,,,,,,,,,,,,,,,,,,,,,,,,,,,,,,,,,,,,,,,,,,,,,,,,,,,,,,,,,,,,,,,,,,,,,,,,
,,,,,,,,,5efb5360f3f69c084c1ca850,Spanish,13 or older,"no, only English or Spanish",no,2026-01-21_21h57.49.012,empathy_intonation_perc_control,2024.2.4,Win32,163.9344262,5efb5360f3f69c084c1ca850,69712dc693a3960bdb483245,697192124fb0f5c9800a952c,12.776,15.1346,0,1,1.8522,,0,2,2,4,1,./stim/wavs/cuban_statement_filler_Cocinabas-por-la-noche.wav,0,,,,,,,,,,,,,,,,,,,,,,,,,,,,,,,,,,,,,,,,,,,,,,,,,,,,,,,,,,,,,,,,,,,,,,,,
,,,,,,,,,5efb5360f3f69c084c1ca850,Spanish,13 or older,"no, only English or Spanish",no,2026-01-21_21h57.49.012,empathy_intonation_perc_control,2024.2.4,Win32,163.9344262,5efb5360f3f69c084c1ca850,69712dc693a3960bdb483245,697192124fb0f5c9800a952c,15.1352,17.8025,0,1,2.1609,,0,3,3,6,1,./stim/wavs/peruvian_statement_filler_El-nino-habla-con-su-madre.wav,0,,,,,,,,,,,,,,,,,,,,,,,,,,,,,,,,,,,,,,,,,,,,,,,,,,,,,,,,,,,,,,,,,,,,,,,,
,,,,,,,,,5efb5360f3f69c084c1ca850,Spanish,13 or older,"no, only English or Spanish",no,2026-01-21_21h57.49.012,empathy_intonation_perc_control,2024.2.4,Win32,163.9344262,5efb5360f3f69c084c1ca850,69712dc693a3960bdb483245,697192124fb0f5c9800a952c,17.8028,19.8825,0,1,1.5718,,0,4,4,5,1,./stim/wavs/andalusian_statement_filler_Alberto-nunca-se-afeita.wav,0,,,,,,,,,,,,,,,,,,,,,,,,,,,,,,,,,,,,,,,,,,,,,,,,,,,,,,,,,,,,,,,,,,,,,,,,
,,,,,,,,,5efb5360f3f69c084c1ca850,Spanish,13 or older,"no, only English or Spanish",no,2026-01-21_21h57.49.012,empathy_intonation_perc_control,2024.2.4,Win32,163.9344262,5efb5360f3f69c084c1ca850,69712dc693a3960bdb483245,697192124fb0f5c9800a952c,19.883,21.841,0,0,1.4505,,0,5,5,2,1,./stim/wavs/chilean_question_filler_Mi-padre-cantaba-bien.wav,1,,,,,,,,,,,,,,,,,,,,,,,,,,,,,,,,,,,,,,,,,,,,,,,,,,,,,,,,,,,,,,,,,,,,,,,,
,,,,,,,,,5efb5360f3f69c084c1ca850,Spanish,13 or older,"no, only English or Spanish",no,2026-01-21_21h57.49.012,empathy_intonation_perc_control,2024.2.4,Win32,163.9344262,5efb5360f3f69c084c1ca850,69712dc693a3960bdb483245,697192124fb0f5c9800a952c,21.8413,24.3392,0,0,1.9915,,0,6,6,1,1,./stim/wavs/argentine_question_filler_Mi-vecino-habla-mucho.wav,1,,,,,,,,,,,,,,,,,,,,,,,,,,,,,,,,,,,,,,,,,,,,,,,,,,,,,,,,,,,,,,,,,,,,,,,,
,,,,,,,,,5efb5360f3f69c084c1ca850,Spanish,13 or older,"no, only English or Spanish",no,2026-01-21_21h57.49.012,empathy_intonation_perc_control,2024.2.4,Win32,163.9344262,5efb5360f3f69c084c1ca850,69712dc693a3960bdb483245,697192124fb0f5c9800a952c,24.3396,26.4681,0,1,1.6246,,0,7,7,7,1,./stim/wavs/puertorican_statement_filler_La-nina-pinta-con-su-amiga.wav,0,,,,,,,,,,,,,,,,,,,,,,,,,,,,,,,,,,,,,,,,,,,,,,,,,,,,,,,,,,,,,,,,,,,,,,,,
,,,,,,,,,5efb5360f3f69c084c1ca850,Spanish,13 or older,"no, only English or Spanish",no,2026-01-21_21h57.49.012,empathy_intonation_perc_control,2024.2.4,Win32,163.9344262,5efb5360f3f69c084c1ca850,69712dc693a3960bdb483245,697192124fb0f5c9800a952c,,,,,,,,,,,,,,26.4683,27.8079,,,,,,,,,,,,,,,,,,,,,,,,,,,,,,,,,,,,,,,,,,,,,,,,,,,,,,,,,,,,,,,,,,,,,,
,,,,,,,,,5efb5360f3f69c084c1ca850,Spanish,13 or older,"no, only English or Spanish",no,2026-01-21_21h57.49.012,empathy_intonation_perc_control,2024.2.4,Win32,163.9344262,5efb5360f3f69c084c1ca850,69712dc693a3960bdb483245,697192124fb0f5c9800a952c,,,,,,,,,,,,./stim/wavs/mexican_match_declarative-broad-focus_Emilio-ama-la-marcha.wav,0,,,27.8227,29.8271,0,1,1.5002,,0,0,0,59,1,60,0,mexican,,,,,,,,,,,,,,,,,,,,,,,,,,,,,,,,,,,,,,,,,,,,,,,,,,,,,,,,
,,,,,,,,,5efb5360f3f69c084c1ca850,Spanish,13 or older,"no, only English or Spanish",no,2026-01-21_21h57.49.012,empathy_intonation_perc_control,2024.2.4,Win32,163.9344262,5efb5360f3f69c084c1ca850,69712dc693a3960bdb483245,697192124fb0f5c9800a952c,,,,,,,,,,,,./stim/wavs/puertorican_mismatch_declarative-broad-focus_El-nino-oye-el-rio.wav,0,,,29.8277,31.7006,0,1,1.3683,,0,1,1,85,1,86,0,puertorican,,,,,,,,,,,,,,,,,,,,,,,,,,,,,,,,,,,,,,,,,,,,,,,,,,,,,,,,
,,,,,,,,,5efb5360f3f69c084c1ca850,Spanish,13 or older,"no, only English or Spanish",no,2026-01-21_21h57.49.012,empathy_intonation_perc_control,2024.2.4,Win32,163.9344262,5efb5360f3f69c084c1ca850,69712dc693a3960bdb483245,697192124fb0f5c9800a952c,,,,,,,,,,,,./stim/wavs/mexican_mismatch_declarative-broad-focus_El-bebe-comia-muy-bien.wav,0,,,31.7009,34.1019,0,1,1.8954,,0,2,2,78,1,79,0,mexican,,,,,,,,,,,,,,,,,,,,,,,,,,,,,,,,,,,,,,,,,,,,,,,,,,,,,,,,
,,,,,,,,,5efb5360f3f69c084c1ca850,Spanish,13 or older,"no, only English or Spanish",no,2026-01-21_21h57.49.012,empathy_intonation_perc_control,2024.2.4,Win32,163.9344262,5efb5360f3f69c084c1ca850,69712dc693a3960bdb483245,697192124fb0f5c9800a952c,,,,,,,,,,,,./stim/wavs/puertorican_match_interrogative-total-yn_Emilio-ama-la-marcha.wav,1,,,34.1022,36.5759,0,0,1.9667,,0,3,3,21,1,22,1,puertorican,,,,,,,,,,,,,,,,,,,,,,,,,,,,,,,,,,,,,,,,,,,,,,,,,,,,,,,,
,,,,,,,,,5efb5360f3f69c084c1ca850,Spanish,13 or older,"no, only English or Spanish",no,2026-01-21_21h57.49.012,empathy_intonation_perc_control,2024.2.4,Win32,163.9344262,5efb5360f3f69c084c1ca850,69712dc693a3960bdb483245,697192124fb0f5c9800a952c,,,,,,,,,,,,./stim/wavs/mexican_mismatch_declarative-broad-focus_La-maestra-vive-en-Paris.wav,0,,,36.5762,38.7164,0,1,1.6343,,0,4,4,80,1,81,0,mexican,,,,,,,,,,,,,,,,,,,,,,,,,,,,,,,,,,,,,,,,,,,,,,,,,,,,,,,,
,,,,,,,,,5efb5360f3f69c084c1ca850,Spanish,13 or older,"no, only English or Spanish",no,2026-01-21_21h57.49.012,empathy_intonation_perc_control,2024.2.4,Win32,163.9344262,5efb5360f3f69c084c1ca850,69712dc693a3960bdb483245,697192124fb0f5c9800a952c,,,,,,,,,,,,./stim/wavs/cuban_mismatch_interrogative-total-yn_Mi-tia-odia-la-lluvia.wav,1,,,38.7167,40.7114,0,0,1.4873,,0,5,5,33,1,34,1,cuban,,,,,,,,,,,,,,,,,,,,,,,,,,,,,,,,,,,,,,,,,,,,,,,,,,,,,,,,
,,,,,,,,,5efb5360f3f69c084c1ca850,Spanish,13 or older,"no, only English or Spanish",no,2026-01-21_21h57.49.012,empathy_intonation_perc_control,2024.2.4,Win32,163.9344262,5efb5360f3f69c084c1ca850,69712dc693a3960bdb483245,697192124fb0f5c9800a952c,,,,,,,,,,,,./stim/wavs/cuban_match_interrogative-total-yn_Ana-lleva-el-abrigo.wav,1,,,40.7117,42.6821,0,0,1.4629,,0,6,6,6,1,7,1,cuban,,,,,,,,,,,,,,,,,,,,,,,,,,,,,,,,,,,,,,,,,,,,,,,,,,,,,,,,
,,,,,,,,,5efb5360f3f69c084c1ca850,Spanish,13 or older,"no, only English or Spanish",no,2026-01-21_21h57.49.012,empathy_intonation_perc_control,2024.2.4,Win32,163.9344262,5efb5360f3f69c084c1ca850,69712dc693a3960bdb483245,697192124fb0f5c9800a952c,,,,,,,,,,,,./stim/wavs/cuban_mismatch_declarative-broad-focus_El-hombre-mira-la-luna.wav,0,,,42.6825,44.75,0,1,1.5631,,0,7,7,74,1,75,0,cuban,,,,,,,,,,,,,,,,,,,,,,,,,,,,,,,,,,,,,,,,,,,,,,,,,,,,,,,,
,,,,,,,,,5efb5360f3f69c084c1ca850,Spanish,13 or older,"no, only English or Spanish",no,2026-01-21_21h57.49.012,empathy_intonation_perc_control,2024.2.4,Win32,163.9344262,5efb5360f3f69c084c1ca850,69712dc693a3960bdb483245,697192124fb0f5c9800a952c,,,,,,,,,,,,./stim/wavs/puertorican_mismatch_declarative-broad-focus_La-maestra-vive-en-Paris.wav,0,,,44.7503,46.6054,0,1,1.3486,,0,8,8,86,1,87,0,puertorican,,,,,,,,,,,,,,,,,,,,,,,,,,,,,,,,,,,,,,,,,,,,,,,,,,,,,,,,
,,,,,,,,,5efb5360f3f69c084c1ca850,Spanish,13 or older,"no, only English or Spanish",no,2026-01-21_21h57.49.012,empathy_intonation_perc_control,2024.2.4,Win32,163.9344262,5efb5360f3f69c084c1ca850,69712dc693a3960bdb483245,697192124fb0f5c9800a952c,,,,,,,,,,,,./stim/wavs/castilian_match_declarative-broad-focus_Manuela-vende-el-carro.wav,0,,,46.6057,48.9761,1,0,1.8622,,0,9,9,46,1,47,0,castilian,,,,,,,,,,,,,,,,,,,,,,,,,,,,,,,,,,,,,,,,,,,,,,,,,,,,,,,,
,,,,,,,,,5efb5360f3f69c084c1ca850,Spanish,13 or older,"no, only English or Spanish",no,2026-01-21_21h57.49.012,empathy_intonation_perc_control,2024.2.4,Win32,163.9344262,5efb5360f3f69c084c1ca850,69712dc693a3960bdb483245,697192124fb0f5c9800a952c,,,,,,,,,,,,./stim/wavs/cuban_mismatch_interrogative-total-yn_El-nino-oye-el-rio.wav,1,,,48.9765,50.7961,1,1,1.3153,,0,10,10,30,1,31,1,cuban,,,,,,,,,,,,,,,,,,,,,,,,,,,,,,,,,,,,,,,,,,,,,,,,,,,,,,,,
,,,,,,,,,5efb5360f3f69c084c1ca850,Spanish,13 or older,"no, only English or Spanish",no,2026-01-21_21h57.49.012,empathy_intonation_perc_control,2024.2.4,Win32,163.9344262,5efb5360f3f69c084c1ca850,69712dc693a3960bdb483245,697192124fb0f5c9800a952c,,,,,,,,,,,,./stim/wavs/castilian_mismatch_interrogative-total-yn_La-maestra-vive-en-Paris.wav,1,,,50.7964,53.2816,1,1,1.9791,,0,11,11,24,1,25,0,castilian,,,,,,,,,,,,,,,,,,,,,,,,,,,,,,,,,,,,,,,,,,,,,,,,,,,,,,,,
,,,,,,,,,5efb5360f3f69c084c1ca850,Spanish,13 or older,"no, only English or Spanish",no,2026-01-21_21h57.49.012,empathy_intonation_perc_control,2024.2.4,Win32,163.9344262,5efb5360f3f69c084c1ca850,69712dc693a3960bdb483245,697192124fb0f5c9800a952c,,,,,,,,,,,,./stim/wavs/mexican_match_declarative-broad-focus_Ana-lleva-el-abrigo.wav,0,,,53.2818,55.1796,0,1,1.3899,,0,12,12,56,1,57,0,mexican,,,,,,,,,,,,,,,,,,,,,,,,,,,,,,,,,,,,,,,,,,,,,,,,,,,,,,,,
,,,,,,,,,5efb5360f3f69c084c1ca850,Spanish,13 or older,"no, only English or Spanish",no,2026-01-21_21h57.49.012,empathy_intonation_perc_control,2024.2.4,Win32,163.9344262,5efb5360f3f69c084c1ca850,69712dc693a3960bdb483245,697192124fb0f5c9800a952c,,,,,,,,,,,,./stim/wavs/cuban_match_interrogative-total-yn_Manuela-vende-el-carro.wav,1,,,55.1799,57.0531,0,0,1.3669,,0,13,13,8,1,9,1,cuban,,,,,,,,,,,,,,,,,,,,,,,,,,,,,,,,,,,,,,,,,,,,,,,,,,,,,,,,
,,,,,,,,,5efb5360f3f69c084c1ca850,Spanish,13 or older,"no, only English or Spanish",no,2026-01-21_21h57.49.012,empathy_intonation_perc_control,2024.2.4,Win32,163.9344262,5efb5360f3f69c084c1ca850,69712dc693a3960bdb483245,697192124fb0f5c9800a952c,,,,,,,,,,,,./stim/wavs/castilian_mismatch_interrogative-total-yn_Mi-madre-come-la-fruta.wav,1,,,57.0535,59.3148,1,1,1.7552,,0,14,14,26,1,27,0,castilian,,,,,,,,,,,,,,,,,,,,,,,,,,,,,,,,,,,,,,,,,,,,,,,,,,,,,,,,
,,,,,,,,,5efb5360f3f69c084c1ca850,Spanish,13 or older,"no, only English or Spanish",no,2026-01-21_21h57.49.012,empathy_intonation_perc_control,2024.2.4,Win32,163.9344262,5efb5360f3f69c084c1ca850,69712dc693a3960bdb483245,697192124fb0f5c9800a952c,,,,,,,,,,,,./stim/wavs/puertorican_mismatch_interrogative-total-yn_El-hombre-mira-la-luna.wav,1,,,59.3152,61.3342,0,0,1.511,,0,15,15,39,1,40,1,puertorican,,,,,,,,,,,,,,,,,,,,,,,,,,,,,,,,,,,,,,,,,,,,,,,,,,,,,,,,
,,,,,,,,,5efb5360f3f69c084c1ca850,Spanish,13 or older,"no, only English or Spanish",no,2026-01-21_21h57.49.012,empathy_intonation_perc_control,2024.2.4,Win32,163.9344262,5efb5360f3f69c084c1ca850,69712dc693a3960bdb483245,697192124fb0f5c9800a952c,,,,,,,,,,,,./stim/wavs/cuban_match_declarative-broad-focus_Maria-bebe-el-vino.wav,0,,,61.3344,63.3655,0,1,1.5227,,0,16,16,53,1,54,0,cuban,,,,,,,,,,,,,,,,,,,,,,,,,,,,,,,,,,,,,,,,,,,,,,,,,,,,,,,,
,,,,,,,,,5efb5360f3f69c084c1ca850,Spanish,13 or older,"no, only English or Spanish",no,2026-01-21_21h57.49.012,empathy_intonation_perc_control,2024.2.4,Win32,163.9344262,5efb5360f3f69c084c1ca850,69712dc693a3960bdb483245,697192124fb0f5c9800a952c,,,,,,,,,,,,./stim/wavs/cuban_match_interrogative-total-yn_Mariano-habla-del-tiempo.wav,1,,,63.3658,65.4392,0,0,1.569,,0,17,17,10,1,11,1,cuban,,,,,,,,,,,,,,,,,,,,,,,,,,,,,,,,,,,,,,,,,,,,,,,,,,,,,,,,
,,,,,,,,,5efb5360f3f69c084c1ca850,Spanish,13 or older,"no, only English or Spanish",no,2026-01-21_21h57.49.012,empathy_intonation_perc_control,2024.2.4,Win32,163.9344262,5efb5360f3f69c084c1ca850,69712dc693a3960bdb483245,697192124fb0f5c9800a952c,,,,,,,,,,,,./stim/wavs/castilian_match_interrogative-total-yn_David-leia-el-libro.wav,1,,,65.4395,67.5494,1,1,1.6056,,0,18,18,0,1,1,0,castilian,,,,,,,,,,,,,,,,,,,,,,,,,,,,,,,,,,,,,,,,,,,,,,,,,,,,,,,,
,,,,,,,,,5efb5360f3f69c084c1ca850,Spanish,13 or older,"no, only English or Spanish",no,2026-01-21_21h57.49.012,empathy_intonation_perc_control,2024.2.4,Win32,163.9344262,5efb5360f3f69c084c1ca850,69712dc693a3960bdb483245,697192124fb0f5c9800a952c,,,,,,,,,,,,./stim/wavs/puertorican_mismatch_interrogative-total-yn_La-maestra-vive-en-Paris.wav,1,,,67.5497,69.7081,0,0,1.6538,,0,19,19,41,1,42,1,puertorican,,,,,,,,,,,,,,,,,,,,,,,,,,,,,,,,,,,,,,,,,,,,,,,,,,,,,,,,
,,,,,,,,,5efb5360f3f69c084c1ca850,Spanish,13 or older,"no, only English or Spanish",no,2026-01-21_21h57.49.012,empathy_intonation_perc_control,2024.2.4,Win32,163.9344262,5efb5360f3f69c084c1ca850,69712dc693a3960bdb483245,697192124fb0f5c9800a952c,,,,,,,,,,,,./stim/wavs/cuban_mismatch_interrogative-total-yn_Mi-novio-viene-del-lago.wav,1,,,69.7083,72.2063,1,1,1.9915,,0,20,20,32,1,33,1,cuban,,,,,,,,,,,,,,,,,,,,,,,,,,,,,,,,,,,,,,,,,,,,,,,,,,,,,,,,
,,,,,,,,,5efb5360f3f69c084c1ca850,Spanish,13 or older,"no, only English or Spanish",no,2026-01-21_21h57.49.012,empathy_intonation_perc_control,2024.2.4,Win32,163.9344262,5efb5360f3f69c084c1ca850,69712dc693a3960bdb483245,697192124fb0f5c9800a952c,,,,,,,,,,,,./stim/wavs/castilian_match_interrogative-total-yn_Emilio-ama-la-marcha.wav,1,,,72.2066,74.2983,1,1,1.5838,,0,21,21,1,1,2,0,castilian,,,,,,,,,,,,,,,,,,,,,,,,,,,,,,,,,,,,,,,,,,,,,,,,,,,,,,,,
,,,,,,,,,5efb5360f3f69c084c1ca850,Spanish,13 or older,"no, only English or Spanish",no,2026-01-21_21h57.49.012,empathy_intonation_perc_control,2024.2.4,Win32,163.9344262,5efb5360f3f69c084c1ca850,69712dc693a3960bdb483245,697192124fb0f5c9800a952c,,,,,,,,,,,,./stim/wavs/castilian_match_interrogative-total-yn_Maria-bebe-el-vino.wav,1,,,74.2986,76.2085,1,1,1.4044,,0,22,22,3,1,4,0,castilian,,,,,,,,,,,,,,,,,,,,,,,,,,,,,,,,,,,,,,,,,,,,,,,,,,,,,,,,
,,,,,,,,,5efb5360f3f69c084c1ca850,Spanish,13 or older,"no, only English or Spanish",no,2026-01-21_21h57.49.012,empathy_intonation_perc_control,2024.2.4,Win32,163.9344262,5efb5360f3f69c084c1ca850,69712dc693a3960bdb483245,697192124fb0f5c9800a952c,,,,,,,,,,,,./stim/wavs/puertorican_mismatch_declarative-broad-focus_El-bebe-comia-muy-bien.wav,0,,,76.2088,78.2579,0,1,1.5413,,0,23,23,83,1,84,0,puertorican,,,,,,,,,,,,,,,,,,,,,,,,,,,,,,,,,,,,,,,,,,,,,,,,,,,,,,,,
,,,,,,,,,5efb5360f3f69c084c1ca850,Spanish,13 or older,"no, only English or Spanish",no,2026-01-21_21h57.49.012,empathy_intonation_perc_control,2024.2.4,Win32,163.9344262,5efb5360f3f69c084c1ca850,69712dc693a3960bdb483245,697192124fb0f5c9800a952c,,,,,,,,,,,,./stim/wavs/castilian_match_declarative-broad-focus_Maria-bebe-el-vino.wav,0,,,78.2582,80.8957,1,0,2.1302,,0,24,24,47,1,48,0,castilian,,,,,,,,,,,,,,,,,,,,,,,,,,,,,,,,,,,,,,,,,,,,,,,,,,,,,,,,
,,,,,,,,,5efb5360f3f69c084c1ca850,Spanish,13 or older,"no, only English or Spanish",no,2026-01-21_21h57.49.012,empathy_intonation_perc_control,2024.2.4,Win32,163.9344262,5efb5360f3f69c084c1ca850,69712dc693a3960bdb483245,697192124fb0f5c9800a952c,,,,,,,,,,,,./stim/wavs/castilian_mismatch_declarative-broad-focus_El-nino-oye-el-rio.wav,0,,,80.8961,83.0303,0,1,1.6265,,0,25,25,68,1,69,0,castilian,,,,,,,,,,,,,,,,,,,,,,,,,,,,,,,,,,,,,,,,,,,,,,,,,,,,,,,,
,,,,,,,,,5efb5360f3f69c084c1ca850,Spanish,13 or older,"no, only English or Spanish",no,2026-01-21_21h57.49.012,empathy_intonation_perc_control,2024.2.4,Win32,163.9344262,5efb5360f3f69c084c1ca850,69712dc693a3960bdb483245,697192124fb0f5c9800a952c,,,,,,,,,,,,./stim/wavs/castilian_mismatch_declarative-broad-focus_La-nina-lava-el-plato.wav,0,,,83.0307,85.2858,0,1,1.749,,0,26,26,70,1,71,0,castilian,,,,,,,,,,,,,,,,,,,,,,,,,,,,,,,,,,,,,,,,,,,,,,,,,,,,,,,,
,,,,,,,,,5efb5360f3f69c084c1ca850,Spanish,13 or older,"no, only English or Spanish",no,2026-01-21_21h57.49.012,empathy_intonation_perc_control,2024.2.4,Win32,163.9344262,5efb5360f3f69c084c1ca850,69712dc693a3960bdb483245,697192124fb0f5c9800a952c,,,,,,,,,,,,./stim/wavs/mexican_mismatch_declarative-broad-focus_Mi-tia-odia-la-lluvia.wav,0,,,85.286,87.1899,0,1,1.3956,,0,27,27,82,1,83,0,mexican,,,,,,,,,,,,,,,,,,,,,,,,,,,,,,,,,,,,,,,,,,,,,,,,,,,,,,,,
,,,,,,,,,5efb5360f3f69c084c1ca850,Spanish,13 or older,"no, only English or Spanish",no,2026-01-21_21h57.49.012,empathy_intonation_perc_control,2024.2.4,Win32,163.9344262,5efb5360f3f69c084c1ca850,69712dc693a3960bdb483245,697192124fb0f5c9800a952c,,,,,,,,,,,,./stim/wavs/cuban_match_declarative-broad-focus_Manuela-vende-el-carro.wav,0,,,87.1903,89.1666,0,1,1.4695,,0,28,28,52,1,53,0,cuban,,,,,,,,,,,,,,,,,,,,,,,,,,,,,,,,,,,,,,,,,,,,,,,,,,,,,,,,
,,,,,,,,,5efb5360f3f69c084c1ca850,Spanish,13 or older,"no, only English or Spanish",no,2026-01-21_21h57.49.012,empathy_intonation_perc_control,2024.2.4,Win32,163.9344262,5efb5360f3f69c084c1ca850,69712dc693a3960bdb483245,697192124fb0f5c9800a952c,,,,,,,,,,,,./stim/wavs/castilian_mismatch_interrogative-total-yn_Mi-tia-odia-la-lluvia.wav,1,,,89.167,91.0525,0,0,1.378,,0,29,29,28,1,29,0,castilian,,,,,,,,,,,,,,,,,,,,,,,,,,,,,,,,,,,,,,,,,,,,,,,,,,,,,,,,
,,,,,,,,,5efb5360f3f69c084c1ca850,Spanish,13 or older,"no, only English or Spanish",no,2026-01-21_21h57.49.012,empathy_intonation_perc_control,2024.2.4,Win32,163.9344262,5efb5360f3f69c084c1ca850,69712dc693a3960bdb483245,697192124fb0f5c9800a952c,,,,,,,,,,,,./stim/wavs/castilian_mismatch_declarative-broad-focus_Mi-tia-odia-la-lluvia.wav,0,,,91.053,93.0839,1,0,1.5247,,0,30,30,72,1,73,0,castilian,,,,,,,,,,,,,,,,,,,,,,,,,,,,,,,,,,,,,,,,,,,,,,,,,,,,,,,,
,,,,,,,,,5efb5360f3f69c084c1ca850,Spanish,13 or older,"no, only English or Spanish",no,2026-01-21_21h57.49.012,empathy_intonation_perc_control,2024.2.4,Win32,163.9344262,5efb5360f3f69c084c1ca850,69712dc693a3960bdb483245,697192124fb0f5c9800a952c,,,,,,,,,,,,./stim/wavs/mexican_mismatch_interrogative-total-yn_La-maestra-vive-en-Paris.wav,1,,,93.0843,95.7761,1,1,2.1837,,0,31,31,36,1,37,0,mexican,,,,,,,,,,,,,,,,,,,,,,,,,,,,,,,,,,,,,,,,,,,,,,,,,,,,,,,,
,,,,,,,,,5efb5360f3f69c084c1ca850,Spanish,13 or older,"no, only English or Spanish",no,2026-01-21_21h57.49.012,empathy_intonation_perc_control,2024.2.4,Win32,163.9344262,5efb5360f3f69c084c1ca850,69712dc693a3960bdb483245,697192124fb0f5c9800a952c,,,,,,,,,,,,./stim/wavs/mexican_match_interrogative-total-yn_Marta-abre-el-regalo.wav,1,,,95.7764,97.7773,1,1,1.4931,,0,32,32,17,1,18,0,mexican,,,,,,,,,,,,,,,,,,,,,,,,,,,,,,,,,,,,,,,,,,,,,,,,,,,,,,,,
,,,,,,,,,5efb5360f3f69c084c1ca850,Spanish,13 or older,"no, only English or Spanish",no,2026-01-21_21h57.49.012,empathy_intonation_perc_control,2024.2.4,Win32,163.9344262,5efb5360f3f69c084c1ca850,69712dc693a3960bdb483245,697192124fb0f5c9800a952c,,,,,,,,,,,,./stim/wavs/mexican_match_declarative-broad-focus_Marta-abre-el-regalo.wav,0,,,97.7776,99.6994,0,1,1.4166,,0,33,33,61,1,62,0,mexican,,,,,,,,,,,,,,,,,,,,,,,,,,,,,,,,,,,,,,,,,,,,,,,,,,,,,,,,
,,,,,,,,,5efb5360f3f69c084c1ca850,Spanish,13 or older,"no, only English or Spanish",no,2026-01-21_21h57.49.012,empathy_intonation_perc_control,2024.2.4,Win32,163.9344262,5efb5360f3f69c084c1ca850,69712dc693a3960bdb483245,697192124fb0f5c9800a952c,,,,,,,,,,,,./stim/wavs/mexican_mismatch_interrogative-total-yn_El-hombre-mira-la-luna.wav,1,,,99.6998,101.7246,1,1,1.5188,,0,34,34,34,1,35,0,mexican,,,,,,,,,,,,,,,,,,,,,,,,,,,,,,,,,,,,,,,,,,,,,,,,,,,,,,,,
,,,,,,,,,5efb5360f3f69c084c1ca850,Spanish,13 or older,"no, only English or Spanish",no,2026-01-21_21h57.49.012,empathy_intonation_perc_control,2024.2.4,Win32,163.9344262,5efb5360f3f69c084c1ca850,69712dc693a3960bdb483245,697192124fb0f5c9800a952c,,,,,,,,,,,,./stim/wavs/cuban_match_interrogative-total-yn_Marta-abre-el-regalo.wav,1,,,101.7249,104.0107,0,0,1.7794,,0,35,35,11,1,12,1,cuban,,,,,,,,,,,,,,,,,,,,,,,,,,,,,,,,,,,,,,,,,,,,,,,,,,,,,,,,
,,,,,,,,,5efb5360f3f69c084c1ca850,Spanish,13 or older,"no, only English or Spanish",no,2026-01-21_21h57.49.012,empathy_intonation_perc_control,2024.2.4,Win32,163.9344262,5efb5360f3f69c084c1ca850,69712dc693a3960bdb483245,697192124fb0f5c9800a952c,,,,,,,,,,,,./stim/wavs/cuban_mismatch_declarative-broad-focus_Mi-novio-viene-del-lago.wav,0,,,104.011,106.048,0,1,1.5296,,0,36,36,76,1,77,0,cuban,,,,,,,,,,,,,,,,,,,,,,,,,,,,,,,,,,,,,,,,,,,,,,,,,,,,,,,,
,,,,,,,,,5efb5360f3f69c084c1ca850,Spanish,13 or older,"no, only English or Spanish",no,2026-01-21_21h57.49.012,empathy_intonation_perc_control,2024.2.4,Win32,163.9344262,5efb5360f3f69c084c1ca850,69712dc693a3960bdb483245,697192124fb0f5c9800a952c,,,,,,,,,,,,./stim/wavs/cuban_mismatch_declarative-broad-focus_La-nina-lava-el-plato.wav,0,,,106.0483,108.0248,0,1,1.4688,,0,37,37,75,1,76,0,cuban,,,,,,,,,,,,,,,,,,,,,,,,,,,,,,,,,,,,,,,,,,,,,,,,,,,,,,,,
,,,,,,,,,5efb5360f3f69c084c1ca850,Spanish,13 or older,"no, only English or Spanish",no,2026-01-21_21h57.49.012,empathy_intonation_perc_control,2024.2.4,Win32,163.9344262,5efb5360f3f69c084c1ca850,69712dc693a3960bdb483245,697192124fb0f5c9800a952c,,,,,,,,,,,,./stim/wavs/castilian_mismatch_declarative-broad-focus_La-maestra-vive-en-Paris.wav,0,,,108.0251,110.3957,0,1,1.8655,,0,38,38,69,1,70,0,castilian,,,,,,,,,,,,,,,,,,,,,,,,,,,,,,,,,,,,,,,,,,,,,,,,,,,,,,,,
,,,,,,,,,5efb5360f3f69c084c1ca850,Spanish,13 or older,"no, only English or Spanish",no,2026-01-21_21h57.49.012,empathy_intonation_perc_control,2024.2.4,Win32,163.9344262,5efb5360f3f69c084c1ca850,69712dc693a3960bdb483245,697192124fb0f5c9800a952c,,,,,,,,,,,,./stim/wavs/puertorican_match_declarative-broad-focus_David-leia-el-libro.wav,0,,,110.396,112.1001,0,1,1.1997,,0,39,39,64,1,65,0,puertorican,,,,,,,,,,,,,,,,,,,,,,,,,,,,,,,,,,,,,,,,,,,,,,,,,,,,,,,,
,,,,,,,,,5efb5360f3f69c084c1ca850,Spanish,13 or older,"no, only English or Spanish",no,2026-01-21_21h57.49.012,empathy_intonation_perc_control,2024.2.4,Win32,163.9344262,5efb5360f3f69c084c1ca850,69712dc693a3960bdb483245,697192124fb0f5c9800a952c,,,,,,,,,,,,./stim/wavs/puertorican_match_declarative-broad-focus_Daniel-iba-a-Bolivia.wav,0,,,112.1004,113.943,0,1,1.3353,,0,40,40,63,1,64,0,puertorican,,,,,,,,,,,,,,,,,,,,,,,,,,,,,,,,,,,,,,,,,,,,,,,,,,,,,,,,
,,,,,,,,,5efb5360f3f69c084c1ca850,Spanish,13 or older,"no, only English or Spanish",no,2026-01-21_21h57.49.012,empathy_intonation_perc_control,2024.2.4,Win32,163.9344262,5efb5360f3f69c084c1ca850,69712dc693a3960bdb483245,697192124fb0f5c9800a952c,,,,,,,,,,,,./stim/wavs/castilian_mismatch_interrogative-total-yn_La-nina-lava-el-plato.wav,1,,,113.9434,116.023,1,1,1.5719,,0,41,41,25,1,26,0,castilian,,,,,,,,,,,,,,,,,,,,,,,,,,,,,,,,,,,,,,,,,,,,,,,,,,,,,,,,
,,,,,,,,,5efb5360f3f69c084c1ca850,Spanish,13 or older,"no, only English or Spanish",no,2026-01-21_21h57.49.012,empathy_intonation_perc_control,2024.2.4,Win32,163.9344262,5efb5360f3f69c084c1ca850,69712dc693a3960bdb483245,697192124fb0f5c9800a952c,,,,,,,,,,,,./stim/wavs/cuban_match_declarative-broad-focus_Marta-abre-el-regalo.wav,0,,,116.0234,118.0118,0,1,1.4841,,0,42,42,55,1,56,0,cuban,,,,,,,,,,,,,,,,,,,,,,,,,,,,,,,,,,,,,,,,,,,,,,,,,,,,,,,,
,,,,,,,,,5efb5360f3f69c084c1ca850,Spanish,13 or older,"no, only English or Spanish",no,2026-01-21_21h57.49.012,empathy_intonation_perc_control,2024.2.4,Win32,163.9344262,5efb5360f3f69c084c1ca850,69712dc693a3960bdb483245,697192124fb0f5c9800a952c,,,,,,,,,,,,./stim/wavs/castilian_match_declarative-broad-focus_David-leia-el-libro.wav,0,,,118.0122,120.2069,0,1,1.6869,,0,43,43,44,1,45,0,castilian,,,,,,,,,,,,,,,,,,,,,,,,,,,,,,,,,,,,,,,,,,,,,,,,,,,,,,,,
,,,,,,,,,5efb5360f3f69c084c1ca850,Spanish,13 or older,"no, only English or Spanish",no,2026-01-21_21h57.49.012,empathy_intonation_perc_control,2024.2.4,Win32,163.9344262,5efb5360f3f69c084c1ca850,69712dc693a3960bdb483245,697192124fb0f5c9800a952c,,,,,,,,,,,,./stim/wavs/mexican_match_declarative-broad-focus_Daniel-iba-a-Bolivia.wav,0,,,120.2073,122.0383,0,1,1.3267,,0,44,44,57,1,58,0,mexican,,,,,,,,,,,,,,,,,,,,,,,,,,,,,,,,,,,,,,,,,,,,,,,,,,,,,,,,
,,,,,,,,,5efb5360f3f69c084c1ca850,Spanish,13 or older,"no, only English or Spanish",no,2026-01-21_21h57.49.012,empathy_intonation_perc_control,2024.2.4,Win32,163.9344262,5efb5360f3f69c084c1ca850,69712dc693a3960bdb483245,697192124fb0f5c9800a952c,,,,,,,,,,,,./stim/wavs/mexican_match_interrogative-total-yn_Ana-lleva-el-abrigo.wav,1,,,122.0387,124.1119,1,1,1.5688,,0,45,45,12,1,13,0,mexican,,,,,,,,,,,,,,,,,,,,,,,,,,,,,,,,,,,,,,,,,,,,,,,,,,,,,,,,
,,,,,,,,,5efb5360f3f69c084c1ca850,Spanish,13 or older,"no, only English or Spanish",no,2026-01-21_21h57.49.012,empathy_intonation_perc_control,2024.2.4,Win32,163.9344262,5efb5360f3f69c084c1ca850,69712dc693a3960bdb483245,697192124fb0f5c9800a952c,,,,,,,,,,,,./stim/wavs/castilian_mismatch_interrogative-total-yn_Mi-novio-viene-del-lago.wav,1,,,124.1122,126.5616,1,1,1.9431,,0,46,46,27,1,28,0,castilian,,,,,,,,,,,,,,,,,,,,,,,,,,,,,,,,,,,,,,,,,,,,,,,,,,,,,,,,
,,,,,,,,,5efb5360f3f69c084c1ca850,Spanish,13 or older,"no, only English or Spanish",no,2026-01-21_21h57.49.012,empathy_intonation_perc_control,2024.2.4,Win32,163.9344262,5efb5360f3f69c084c1ca850,69712dc693a3960bdb483245,697192124fb0f5c9800a952c,,,,,,,,,,,,./stim/wavs/mexican_mismatch_declarative-broad-focus_El-hombre-mira-la-luna.wav,0,,,126.5621,128.5749,0,1,1.5047,,0,47,47,79,1,80,0,mexican,,,,,,,,,,,,,,,,,,,,,,,,,,,,,,,,,,,,,,,,,,,,,,,,,,,,,,,,
,,,,,,,,,5efb5360f3f69c084c1ca850,Spanish,13 or older,"no, only English or Spanish",no,2026-01-21_21h57.49.012,empathy_intonation_perc_control,2024.2.4,Win32,163.9344262,5efb5360f3f69c084c1ca850,69712dc693a3960bdb483245,697192124fb0f5c9800a952c,,,,,,,,,,,,./stim/wavs/castilian_match_declarative-broad-focus_Mariano-habla-del-tiempo.wav,0,,,128.5754,130.8426,0,1,1.7626,,0,48,48,48,1,49,0,castilian,,,,,,,,,,,,,,,,,,,,,,,,,,,,,,,,,,,,,,,,,,,,,,,,,,,,,,,,
,,,,,,,,,5efb5360f3f69c084c1ca850,Spanish,13 or older,"no, only English or Spanish",no,2026-01-21_21h57.49.012,empathy_intonation_perc_control,2024.2.4,Win32,163.9344262,5efb5360f3f69c084c1ca850,69712dc693a3960bdb483245,697192124fb0f5c9800a952c,,,,,,,,,,,,./stim/wavs/mexican_mismatch_interrogative-total-yn_Mi-novio-viene-del-lago.wav,1,,,130.843,132.8922,1,1,1.5413,,0,49,49,37,1,38,0,mexican,,,,,,,,,,,,,,,,,,,,,,,,,,,,,,,,,,,,,,,,,,,,,,,,,,,,,,,,
,,,,,,,,,5efb5360f3f69c084c1ca850,Spanish,13 or older,"no, only English or Spanish",no,2026-01-21_21h57.49.012,empathy_intonation_perc_control,2024.2.4,Win32,163.9344262,5efb5360f3f69c084c1ca850,69712dc693a3960bdb483245,697192124fb0f5c9800a952c,,,,,,,,,,,,./stim/wavs/cuban_match_declarative-broad-focus_Mariano-habla-del-tiempo.wav,0,,,132.8925,135.0873,0,1,1.6882,,0,50,50,54,1,55,0,cuban,,,,,,,,,,,,,,,,,,,,,,,,,,,,,,,,,,,,,,,,,,,,,,,,,,,,,,,,
,,,,,,,,,5efb5360f3f69c084c1ca850,Spanish,13 or older,"no, only English or Spanish",no,2026-01-21_21h57.49.012,empathy_intonation_perc_control,2024.2.4,Win32,163.9344262,5efb5360f3f69c084c1ca850,69712dc693a3960bdb483245,697192124fb0f5c9800a952c,,,,,,,,,,,,./stim/wavs/puertorican_mismatch_interrogative-total-yn_Mi-madre-come-la-fruta.wav,1,,,135.0877,137.0226,0,0,1.4302,,0,51,51,43,1,44,1,puertorican,,,,,,,,,,,,,,,,,,,,,,,,,,,,,,,,,,,,,,,,,,,,,,,,,,,,,,,,
,,,,,,,,,5efb5360f3f69c084c1ca850,Spanish,13 or older,"no, only English or Spanish",no,2026-01-21_21h57.49.012,empathy_intonation_perc_control,2024.2.4,Win32,163.9344262,5efb5360f3f69c084c1ca850,69712dc693a3960bdb483245,697192124fb0f5c9800a952c,,,,,,,,,,,,./stim/wavs/puertorican_match_interrogative-total-yn_Manuela-vende-el-carro.wav,1,,,137.0229,139.1197,0,0,1.5928,,0,52,52,22,1,23,1,puertorican,,,,,,,,,,,,,,,,,,,,,,,,,,,,,,,,,,,,,,,,,,,,,,,,,,,,,,,,
,,,,,,,,,5efb5360f3f69c084c1ca850,Spanish,13 or older,"no, only English or Spanish",no,2026-01-21_21h57.49.012,empathy_intonation_perc_control,2024.2.4,Win32,163.9344262,5efb5360f3f69c084c1ca850,69712dc693a3960bdb483245,697192124fb0f5c9800a952c,,,,,,,,,,,,./stim/wavs/castilian_mismatch_declarative-broad-focus_Mi-novio-viene-del-lago.wav,0,,,139.1201,141.8725,0,1,2.2476,,0,53,53,71,1,72,0,castilian,,,,,,,,,,,,,,,,,,,,,,,,,,,,,,,,,,,,,,,,,,,,,,,,,,,,,,,,
,,,,,,,,,5efb5360f3f69c084c1ca850,Spanish,13 or older,"no, only English or Spanish",no,2026-01-21_21h57.49.012,empathy_intonation_perc_control,2024.2.4,Win32,163.9344262,5efb5360f3f69c084c1ca850,69712dc693a3960bdb483245,697192124fb0f5c9800a952c,,,,,,,,,,,,./stim/wavs/cuban_match_declarative-broad-focus_Ana-lleva-el-abrigo.wav,0,,,141.8728,143.9112,0,1,1.534,,0,54,54,50,1,51,0,cuban,,,,,,,,,,,,,,,,,,,,,,,,,,,,,,,,,,,,,,,,,,,,,,,,,,,,,,,,
,,,,,,,,,5efb5360f3f69c084c1ca850,Spanish,13 or older,"no, only English or Spanish",no,2026-01-21_21h57.49.012,empathy_intonation_perc_control,2024.2.4,Win32,163.9344262,5efb5360f3f69c084c1ca850,69712dc693a3960bdb483245,697192124fb0f5c9800a952c,,,,,,,,,,,,./stim/wavs/puertorican_match_declarative-broad-focus_Ana-lleva-el-abrigo.wav,0,,,143.9114,145.6139,0,1,1.1992,,0,55,55,62,1,63,0,puertorican,,,,,,,,,,,,,,,,,,,,,,,,,,,,,,,,,,,,,,,,,,,,,,,,,,,,,,,,
,,,,,,,,,5efb5360f3f69c084c1ca850,Spanish,13 or older,"no, only English or Spanish",no,2026-01-21_21h57.49.012,empathy_intonation_perc_control,2024.2.4,Win32,163.9344262,5efb5360f3f69c084c1ca850,69712dc693a3960bdb483245,697192124fb0f5c9800a952c,,,,,,,,,,,,./stim/wavs/castilian_match_interrogative-total-yn_Mariano-habla-del-tiempo.wav,1,,,145.6142,147.9485,1,1,1.826,,0,56,56,4,1,5,0,castilian,,,,,,,,,,,,,,,,,,,,,,,,,,,,,,,,,,,,,,,,,,,,,,,,,,,,,,,,
,,,,,,,,,5efb5360f3f69c084c1ca850,Spanish,13 or older,"no, only English or Spanish",no,2026-01-21_21h57.49.012,empathy_intonation_perc_control,2024.2.4,Win32,163.9344262,5efb5360f3f69c084c1ca850,69712dc693a3960bdb483245,697192124fb0f5c9800a952c,,,,,,,,,,,,./stim/wavs/puertorican_mismatch_declarative-broad-focus_El-hombre-mira-la-luna.wav,0,,,147.9488,150.0229,0,1,1.5698,,0,57,57,84,1,85,0,puertorican,,,,,,,,,,,,,,,,,,,,,,,,,,,,,,,,,,,,,,,,,,,,,,,,,,,,,,,,
,,,,,,,,,5efb5360f3f69c084c1ca850,Spanish,13 or older,"no, only English or Spanish",no,2026-01-21_21h57.49.012,empathy_intonation_perc_control,2024.2.4,Win32,163.9344262,5efb5360f3f69c084c1ca850,69712dc693a3960bdb483245,697192124fb0f5c9800a952c,,,,,,,,,,,,./stim/wavs/castilian_match_declarative-broad-focus_Emilio-ama-la-marcha.wav,0,,,150.0232,152.4052,0,1,1.875,,0,58,58,45,1,46,0,castilian,,,,,,,,,,,,,,,,,,,,,,,,,,,,,,,,,,,,,,,,,,,,,,,,,,,,,,,,
,,,,,,,,,5efb5360f3f69c084c1ca850,Spanish,13 or older,"no, only English or Spanish",no,2026-01-21_21h57.49.012,empathy_intonation_perc_control,2024.2.4,Win32,163.9344262,5efb5360f3f69c084c1ca850,69712dc693a3960bdb483245,697192124fb0f5c9800a952c,,,,,,,,,,,,./stim/wavs/mexican_match_interrogative-total-yn_David-leia-el-libro.wav,1,,,152.4055,154.4913,1,1,1.578,,0,59,59,14,1,15,0,mexican,,,,,,,,,,,,,,,,,,,,,,,,,,,,,,,,,,,,,,,,,,,,,,,,,,,,,,,,
,,,,,,,,,5efb5360f3f69c084c1ca850,Spanish,13 or older,"no, only English or Spanish",no,2026-01-21_21h57.49.012,empathy_intonation_perc_control,2024.2.4,Win32,163.9344262,5efb5360f3f69c084c1ca850,69712dc693a3960bdb483245,697192124fb0f5c9800a952c,,,,,,,,,,,,./stim/wavs/cuban_match_interrogative-total-yn_Daniel-iba-a-Bolivia.wav,1,,,154.4918,156.4195,0,0,1.4194,,0,60,60,7,1,8,1,cuban,,,,,,,,,,,,,,,,,,,,,,,,,,,,,,,,,,,,,,,,,,,,,,,,,,,,,,,,
,,,,,,,,,5efb5360f3f69c084c1ca850,Spanish,13 or older,"no, only English or Spanish",no,2026-01-21_21h57.49.012,empathy_intonation_perc_control,2024.2.4,Win32,163.9344262,5efb5360f3f69c084c1ca850,69712dc693a3960bdb483245,697192124fb0f5c9800a952c,,,,,,,,,,,,./stim/wavs/mexican_mismatch_interrogative-total-yn_Mi-tia-odia-la-lluvia.wav,1,,,156.4198,158.5297,1,1,1.6049,,0,61,61,38,1,39,0,mexican,,,,,,,,,,,,,,,,,,,,,,,,,,,,,,,,,,,,,,,,,,,,,,,,,,,,,,,,
,,,,,,,,,5efb5360f3f69c084c1ca850,Spanish,13 or older,"no, only English or Spanish",no,2026-01-21_21h57.49.012,empathy_intonation_perc_control,2024.2.4,Win32,163.9344262,5efb5360f3f69c084c1ca850,69712dc693a3960bdb483245,697192124fb0f5c9800a952c,,,,,,,,,,,,./stim/wavs/cuban_mismatch_interrogative-total-yn_Mi-madre-come-la-fruta.wav,1,,,158.53,160.6035,0,0,1.5648,,0,62,62,31,1,32,1,cuban,,,,,,,,,,,,,,,,,,,,,,,,,,,,,,,,,,,,,,,,,,,,,,,,,,,,,,,,
,,,,,,,,,5efb5360f3f69c084c1ca850,Spanish,13 or older,"no, only English or Spanish",no,2026-01-21_21h57.49.012,empathy_intonation_perc_control,2024.2.4,Win32,163.9344262,5efb5360f3f69c084c1ca850,69712dc693a3960bdb483245,697192124fb0f5c9800a952c,,,,,,,,,,,,./stim/wavs/mexican_mismatch_interrogative-total-yn_El-nino-oye-el-rio.wav,1,,,160.6038,162.6287,1,1,1.5197,,0,63,63,35,1,36,0,mexican,,,,,,,,,,,,,,,,,,,,,,,,,,,,,,,,,,,,,,,,,,,,,,,,,,,,,,,,
,,,,,,,,,5efb5360f3f69c084c1ca850,Spanish,13 or older,"no, only English or Spanish",no,2026-01-21_21h57.49.012,empathy_intonation_perc_control,2024.2.4,Win32,163.9344262,5efb5360f3f69c084c1ca850,69712dc693a3960bdb483245,697192124fb0f5c9800a952c,,,,,,,,,,,,./stim/wavs/puertorican_match_interrogative-total-yn_Ana-lleva-el-abrigo.wav,1,,,162.6289,164.3023,0,0,1.1683,,0,64,64,18,1,19,1,puertorican,,,,,,,,,,,,,,,,,,,,,,,,,,,,,,,,,,,,,,,,,,,,,,,,,,,,,,,,
,,,,,,,,,5efb5360f3f69c084c1ca850,Spanish,13 or older,"no, only English or Spanish",no,2026-01-21_21h57.49.012,empathy_intonation_perc_control,2024.2.4,Win32,163.9344262,5efb5360f3f69c084c1ca850,69712dc693a3960bdb483245,697192124fb0f5c9800a952c,,,,,,,,,,,,./stim/wavs/mexican_match_declarative-broad-focus_David-leia-el-libro.wav,0,,,164.3026,166.182,0,1,1.3712,,0,65,65,58,1,59,0,mexican,,,,,,,,,,,,,,,,,,,,,,,,,,,,,,,,,,,,,,,,,,,,,,,,,,,,,,,,
,,,,,,,,,5efb5360f3f69c084c1ca850,Spanish,13 or older,"no, only English or Spanish",no,2026-01-21_21h57.49.012,empathy_intonation_perc_control,2024.2.4,Win32,163.9344262,5efb5360f3f69c084c1ca850,69712dc693a3960bdb483245,697192124fb0f5c9800a952c,,,,,,,,,,,,./stim/wavs/mexican_match_declarative-broad-focus_Mariano-habla-del-tiempo.wav,0,,,166.1824,168.372,0,1,1.6853,,0,66,66,60,1,61,0,mexican,,,,,,,,,,,,,,,,,,,,,,,,,,,,,,,,,,,,,,,,,,,,,,,,,,,,,,,,
,,,,,,,,,5efb5360f3f69c084c1ca850,Spanish,13 or older,"no, only English or Spanish",no,2026-01-21_21h57.49.012,empathy_intonation_perc_control,2024.2.4,Win32,163.9344262,5efb5360f3f69c084c1ca850,69712dc693a3960bdb483245,697192124fb0f5c9800a952c,,,,,,,,,,,,./stim/wavs/cuban_mismatch_interrogative-total-yn_El-hombre-mira-la-luna.wav,1,,,168.3722,170.4936,1,1,1.6157,,0,67,67,29,1,30,1,cuban,,,,,,,,,,,,,,,,,,,,,,,,,,,,,,,,,,,,,,,,,,,,,,,,,,,,,,,,
,,,,,,,,,5efb5360f3f69c084c1ca850,Spanish,13 or older,"no, only English or Spanish",no,2026-01-21_21h57.49.012,empathy_intonation_perc_control,2024.2.4,Win32,163.9344262,5efb5360f3f69c084c1ca850,69712dc693a3960bdb483245,697192124fb0f5c9800a952c,,,,,,,,,,,,./stim/wavs/cuban_match_declarative-broad-focus_Daniel-iba-a-Bolivia.wav,0,,,170.494,172.828,0,1,1.8286,,0,68,68,51,1,52,0,cuban,,,,,,,,,,,,,,,,,,,,,,,,,,,,,,,,,,,,,,,,,,,,,,,,,,,,,,,,
,,,,,,,,,5efb5360f3f69c084c1ca850,Spanish,13 or older,"no, only English or Spanish",no,2026-01-21_21h57.49.012,empathy_intonation_perc_control,2024.2.4,Win32,163.9344262,5efb5360f3f69c084c1ca850,69712dc693a3960bdb483245,697192124fb0f5c9800a952c,,,,,,,,,,,,./stim/wavs/puertorican_match_declarative-broad-focus_Manuela-vende-el-carro.wav,0,,,172.8283,175.0594,1,0,1.7248,,0,69,69,66,1,67,0,puertorican,,,,,,,,,,,,,,,,,,,,,,,,,,,,,,,,,,,,,,,,,,,,,,,,,,,,,,,,
,,,,,,,,,5efb5360f3f69c084c1ca850,Spanish,13 or older,"no, only English or Spanish",no,2026-01-21_21h57.49.012,empathy_intonation_perc_control,2024.2.4,Win32,163.9344262,5efb5360f3f69c084c1ca850,69712dc693a3960bdb483245,697192124fb0f5c9800a952c,,,,,,,,,,,,./stim/wavs/puertorican_mismatch_interrogative-total-yn_La-nina-lava-el-plato.wav,1,,,175.0598,177.0613,0,0,1.4973,,0,70,70,42,1,43,1,puertorican,,,,,,,,,,,,,,,,,,,,,,,,,,,,,,,,,,,,,,,,,,,,,,,,,,,,,,,,
,,,,,,,,,5efb5360f3f69c084c1ca850,Spanish,13 or older,"no, only English or Spanish",no,2026-01-21_21h57.49.012,empathy_intonation_perc_control,2024.2.4,Win32,163.9344262,5efb5360f3f69c084c1ca850,69712dc693a3960bdb483245,697192124fb0f5c9800a952c,,,,,,,,,,,,./stim/wavs/mexican_match_interrogative-total-yn_Daniel-iba-a-Bolivia.wav,1,,,177.0617,179.1767,1,1,1.6079,,0,71,71,13,1,14,0,mexican,,,,,,,,,,,,,,,,,,,,,,,,,,,,,,,,,,,,,,,,,,,,,,,,,,,,,,,,
,,,,,,,,,5efb5360f3f69c084c1ca850,Spanish,13 or older,"no, only English or Spanish",no,2026-01-21_21h57.49.012,empathy_intonation_perc_control,2024.2.4,Win32,163.9344262,5efb5360f3f69c084c1ca850,69712dc693a3960bdb483245,697192124fb0f5c9800a952c,,,,,,,,,,,,./stim/wavs/puertorican_match_interrogative-total-yn_Maria-bebe-el-vino.wav,1,,,179.1771,181.0445,0,0,1.3608,,0,72,72,23,1,24,1,puertorican,,,,,,,,,,,,,,,,,,,,,,,,,,,,,,,,,,,,,,,,,,,,,,,,,,,,,,,,
,,,,,,,,,5efb5360f3f69c084c1ca850,Spanish,13 or older,"no, only English or Spanish",no,2026-01-21_21h57.49.012,empathy_intonation_perc_control,2024.2.4,Win32,163.9344262,5efb5360f3f69c084c1ca850,69712dc693a3960bdb483245,697192124fb0f5c9800a952c,,,,,,,,,,,,./stim/wavs/mexican_mismatch_declarative-broad-focus_Mi-novio-viene-del-lago.wav,0,,,181.0449,183.0212,0,1,1.47,,0,73,73,81,1,82,0,mexican,,,,,,,,,,,,,,,,,,,,,,,,,,,,,,,,,,,,,,,,,,,,,,,,,,,,,,,,
,,,,,,,,,5efb5360f3f69c084c1ca850,Spanish,13 or older,"no, only English or Spanish",no,2026-01-21_21h57.49.012,empathy_intonation_perc_control,2024.2.4,Win32,163.9344262,5efb5360f3f69c084c1ca850,69712dc693a3960bdb483245,697192124fb0f5c9800a952c,,,,,,,,,,,,./stim/wavs/puertorican_match_interrogative-total-yn_Daniel-iba-a-Bolivia.wav,1,,,183.0216,184.9129,0,0,1.3836,,0,74,74,19,1,20,1,puertorican,,,,,,,,,,,,,,,,,,,,,,,,,,,,,,,,,,,,,,,,,,,,,,,,,,,,,,,,
,,,,,,,,,5efb5360f3f69c084c1ca850,Spanish,13 or older,"no, only English or Spanish",no,2026-01-21_21h57.49.012,empathy_intonation_perc_control,2024.2.4,Win32,163.9344262,5efb5360f3f69c084c1ca850,69712dc693a3960bdb483245,697192124fb0f5c9800a952c,,,,,,,,,,,,./stim/wavs/cuban_match_interrogative-total-yn_Maria-bebe-el-vino.wav,1,,,184.9133,187.0111,0,0,1.5904,,0,75,75,9,1,10,1,cuban,,,,,,,,,,,,,,,,,,,,,,,,,,,,,,,,,,,,,,,,,,,,,,,,,,,,,,,,
,,,,,,,,,5efb5360f3f69c084c1ca850,Spanish,13 or older,"no, only English or Spanish",no,2026-01-21_21h57.49.012,empathy_intonation_perc_control,2024.2.4,Win32,163.9344262,5efb5360f3f69c084c1ca850,69712dc693a3960bdb483245,697192124fb0f5c9800a952c,,,,,,,,,,,,./stim/wavs/mexican_match_interrogative-total-yn_Emilio-ama-la-marcha.wav,1,,,187.0115,189.14,1,1,1.6244,,0,76,76,15,1,16,0,mexican,,,,,,,,,,,,,,,,,,,,,,,,,,,,,,,,,,,,,,,,,,,,,,,,,,,,,,,,
,,,,,,,,,5efb5360f3f69c084c1ca850,Spanish,13 or older,"no, only English or Spanish",no,2026-01-21_21h57.49.012,empathy_intonation_perc_control,2024.2.4,Win32,163.9344262,5efb5360f3f69c084c1ca850,69712dc693a3960bdb483245,697192124fb0f5c9800a952c,,,,,,,,,,,,./stim/wavs/puertorican_mismatch_declarative-broad-focus_La-nina-lava-el-plato.wav,0,,,189.1404,191.0496,0,1,1.403,,0,77,77,87,1,88,0,puertorican,,,,,,,,,,,,,,,,,,,,,,,,,,,,,,,,,,,,,,,,,,,,,,,,,,,,,,,,
,,,,,,,,,5efb5360f3f69c084c1ca850,Spanish,13 or older,"no, only English or Spanish",no,2026-01-21_21h57.49.012,empathy_intonation_perc_control,2024.2.4,Win32,163.9344262,5efb5360f3f69c084c1ca850,69712dc693a3960bdb483245,697192124fb0f5c9800a952c,,,,,,,,,,,,./stim/wavs/cuban_mismatch_declarative-broad-focus_El-bebe-comia-muy-bien.wav,0,,,191.05,192.8867,0,1,1.3317,,0,78,78,73,1,74,0,cuban,,,,,,,,,,,,,,,,,,,,,,,,,,,,,,,,,,,,,,,,,,,,,,,,,,,,,,,,
,,,,,,,,,5efb5360f3f69c084c1ca850,Spanish,13 or older,"no, only English or Spanish",no,2026-01-21_21h57.49.012,empathy_intonation_perc_control,2024.2.4,Win32,163.9344262,5efb5360f3f69c084c1ca850,69712dc693a3960bdb483245,697192124fb0f5c9800a952c,,,,,,,,,,,,./stim/wavs/mexican_match_interrogative-total-yn_Mariano-habla-del-tiempo.wav,1,,,192.887,195.1308,1,1,1.7393,,0,79,79,16,1,17,0,mexican,,,,,,,,,,,,,,,,,,,,,,,,,,,,,,,,,,,,,,,,,,,,,,,,,,,,,,,,
,,,,,,,,,5efb5360f3f69c084c1ca850,Spanish,13 or older,"no, only English or Spanish",no,2026-01-21_21h57.49.012,empathy_intonation_perc_control,2024.2.4,Win32,163.9344262,5efb5360f3f69c084c1ca850,69712dc693a3960bdb483245,697192124fb0f5c9800a952c,,,,,,,,,,,,./stim/wavs/castilian_match_declarative-broad-focus_Marta-abre-el-regalo.wav,0,,,195.1312,197.0526,0,1,1.4138,,0,80,80,49,1,50,0,castilian,,,,,,,,,,,,,,,,,,,,,,,,,,,,,,,,,,,,,,,,,,,,,,,,,,,,,,,,
,,,,,,,,,5efb5360f3f69c084c1ca850,Spanish,13 or older,"no, only English or Spanish",no,2026-01-21_21h57.49.012,empathy_intonation_perc_control,2024.2.4,Win32,163.9344262,5efb5360f3f69c084c1ca850,69712dc693a3960bdb483245,697192124fb0f5c9800a952c,,,,,,,,,,,,./stim/wavs/cuban_mismatch_declarative-broad-focus_Mi-tia-odia-la-lluvia.wav,0,,,197.053,199.1749,0,1,1.6177,,0,81,81,77,1,78,0,cuban,,,,,,,,,,,,,,,,,,,,,,,,,,,,,,,,,,,,,,,,,,,,,,,,,,,,,,,,
,,,,,,,,,5efb5360f3f69c084c1ca850,Spanish,13 or older,"no, only English or Spanish",no,2026-01-21_21h57.49.012,empathy_intonation_perc_control,2024.2.4,Win32,163.9344262,5efb5360f3f69c084c1ca850,69712dc693a3960bdb483245,697192124fb0f5c9800a952c,,,,,,,,,,,,./stim/wavs/castilian_match_interrogative-total-yn_Marta-abre-el-regalo.wav,1,,,199.1753,201.3215,1,1,1.6403,,0,82,82,5,1,6,0,castilian,,,,,,,,,,,,,,,,,,,,,,,,,,,,,,,,,,,,,,,,,,,,,,,,,,,,,,,,
,,,,,,,,,5efb5360f3f69c084c1ca850,Spanish,13 or older,"no, only English or Spanish",no,2026-01-21_21h57.49.012,empathy_intonation_perc_control,2024.2.4,Win32,163.9344262,5efb5360f3f69c084c1ca850,69712dc693a3960bdb483245,697192124fb0f5c9800a952c,,,,,,,,,,,,./stim/wavs/puertorican_match_declarative-broad-focus_Maria-bebe-el-vino.wav,0,,,201.3218,203.0921,0,1,1.2643,,0,83,83,67,1,68,0,puertorican,,,,,,,,,,,,,,,,,,,,,,,,,,,,,,,,,,,,,,,,,,,,,,,,,,,,,,,,
,,,,,,,,,5efb5360f3f69c084c1ca850,Spanish,13 or older,"no, only English or Spanish",no,2026-01-21_21h57.49.012,empathy_intonation_perc_control,2024.2.4,Win32,163.9344262,5efb5360f3f69c084c1ca850,69712dc693a3960bdb483245,697192124fb0f5c9800a952c,,,,,,,,,,,,./stim/wavs/puertorican_match_interrogative-total-yn_David-leia-el-libro.wav,1,,,203.0925,204.8202,0,0,1.2197,,0,84,84,20,1,21,1,puertorican,,,,,,,,,,,,,,,,,,,,,,,,,,,,,,,,,,,,,,,,,,,,,,,,,,,,,,,,
,,,,,,,,,5efb5360f3f69c084c1ca850,Spanish,13 or older,"no, only English or Spanish",no,2026-01-21_21h57.49.012,empathy_intonation_perc_control,2024.2.4,Win32,163.9344262,5efb5360f3f69c084c1ca850,69712dc693a3960bdb483245,697192124fb0f5c9800a952c,,,,,,,,,,,,./stim/wavs/puertorican_mismatch_interrogative-total-yn_El-nino-oye-el-rio.wav,1,,,204.8204,206.7788,0,0,1.4509,,0,85,85,40,1,41,1,puertorican,,,,,,,,,,,,,,,,,,,,,,,,,,,,,,,,,,,,,,,,,,,,,,,,,,,,,,,,
,,,,,,,,,5efb5360f3f69c084c1ca850,Spanish,13 or older,"no, only English or Spanish",no,2026-01-21_21h57.49.012,empathy_intonation_perc_control,2024.2.4,Win32,163.9344262,5efb5360f3f69c084c1ca850,69712dc693a3960bdb483245,697192124fb0f5c9800a952c,,,,,,,,,,,,./stim/wavs/puertorican_match_declarative-broad-focus_Emilio-ama-la-marcha.wav,0,,,206.7793,208.7677,0,1,1.4831,,0,86,86,65,1,66,0,puertorican,,,,,,,,,,,,,,,,,,,,,,,,,,,,,,,,,,,,,,,,,,,,,,,,,,,,,,,,
,,,,,,,,,5efb5360f3f69c084c1ca850,Spanish,13 or older,"no, only English or Spanish",no,2026-01-21_21h57.49.012,empathy_intonation_perc_control,2024.2.4,Win32,163.9344262,5efb5360f3f69c084c1ca850,69712dc693a3960bdb483245,697192124fb0f5c9800a952c,,,,,,,,,,,,./stim/wavs/castilian_match_interrogative-total-yn_Manuela-vende-el-carro.wav,1,,,208.7679,210.8719,1,1,1.5959,,0,87,87,2,1,3,0,castilian,,,,,,,,,,,,,,,,,,,,,,,,,,,,,,,,,,,,,,,,,,,,,,,,,,,,,,,,
,,,,,,,"Great! Now we will move on. The next task consists of about 60 trials, in each of which you will see a string of letters. 
  
  Your task is to decide whether this is a real Spanish word or not.", (press the spacebar to continue),5efb5360f3f69c084c1ca850,Spanish,13 or older,"no, only English or Spanish",no,2026-01-21_21h57.49.012,empathy_intonation_perc_control,2024.2.4,Win32,163.9344262,5efb5360f3f69c084c1ca850,69712dc693a3960bdb483245,697192124fb0f5c9800a952c,,,,,,,,,,,,,,,,,,,,,,,,,,,,,,210.8791,217.4512,0,0,0,0,1,,,,,,,,,,,,,,,,,,,,,,,,,,,,,,,,,,,,,,,,,,,,,,,,,
,,,,,,,"If you think it is an existing Spanish word, you type '1' (for 'REAL'), and if you think it is not an existing Spanish word, you type '0' (for 'FAKE').", (press the spacebar to continue),5efb5360f3f69c084c1ca850,Spanish,13 or older,"no, only English or Spanish",no,2026-01-21_21h57.49.012,empathy_intonation_perc_control,2024.2.4,Win32,163.9344262,5efb5360f3f69c084c1ca850,69712dc693a3960bdb483245,697192124fb0f5c9800a952c,,,,,,,,,,,,,,,,,,,,,,,,,,,,,,217.4526,219.2459,0,1,1,1,1,,,,,,,,,,,,,,,,,,,,,,,,,,,,,,,,,,,,,,,,,,,,,,,,,
,,,,,,,"If you are sure that the word exists, even though you don’t know its exact meaning, you may still respond '1' (REAL). 
  
  But if you are not sure if it is an existing word, you should respond '0' (FAKE).
  
  Let's do a practice round...", (press the spacebar to continue),5efb5360f3f69c084c1ca850,Spanish,13 or older,"no, only English or Spanish",no,2026-01-21_21h57.49.012,empathy_intonation_perc_control,2024.2.4,Win32,163.9344262,5efb5360f3f69c084c1ca850,69712dc693a3960bdb483245,697192124fb0f5c9800a952c,,,,,,,,,,,,,,,,,,,,,,,,,,,,,,219.2472,220.8043,0,2,2,2,1,,,,,,,,,,,,,,,,,,,,,,,,,,,,,,,,,,,,,,,,,,,,,,,,,
,,,,,,,,,5efb5360f3f69c084c1ca850,Spanish,13 or older,"no, only English or Spanish",no,2026-01-21_21h57.49.012,empathy_intonation_perc_control,2024.2.4,Win32,163.9344262,5efb5360f3f69c084c1ca850,69712dc693a3960bdb483245,697192124fb0f5c9800a952c,,,,,,,,,,,,,0,,,,,,,,,,,,,,,,,,,,,,,,220.8086,222.7751,1,0,1.4571,,222.7752,223.424,0,0,0,0,1,0,depiste,REAL,FAKE,,,,,,,,,,,,,,,,,,,,,,,,,,,,,,,,
,,,,,,,,,5efb5360f3f69c084c1ca850,Spanish,13 or older,"no, only English or Spanish",no,2026-01-21_21h57.49.012,empathy_intonation_perc_control,2024.2.4,Win32,163.9344262,5efb5360f3f69c084c1ca850,69712dc693a3960bdb483245,697192124fb0f5c9800a952c,,,,,,,,,,,,,1,,,,,,,,,,,,,,,,,,,,,,,,223.4247,224.6912,1,1,0.7574,,224.692,225.6917,0,1,1,1,1,0,sí,REAL,FAKE,,,,,,,,,,,,,,,,,,,,,,,,,,,,,,,,
,,,,,,,,,5efb5360f3f69c084c1ca850,Spanish,13 or older,"no, only English or Spanish",no,2026-01-21_21h57.49.012,empathy_intonation_perc_control,2024.2.4,Win32,163.9344262,5efb5360f3f69c084c1ca850,69712dc693a3960bdb483245,697192124fb0f5c9800a952c,,,,,,,,,,,,,0,,,,,,,,,,,,,,,,,,,,,,,,225.6925,227.1712,0,1,0.9695,,227.1713,228.1717,0,2,2,2,1,0,coné,REAL,FAKE,,,,,,,,,,,,,,,,,,,,,,,,,,,,,,,,
,,,,,,,,,5efb5360f3f69c084c1ca850,Spanish,13 or older,"no, only English or Spanish",no,2026-01-21_21h57.49.012,empathy_intonation_perc_control,2024.2.4,Win32,163.9344262,5efb5360f3f69c084c1ca850,69712dc693a3960bdb483245,697192124fb0f5c9800a952c,,,,,,,,,,,,,0,,,,,,,,,,,,,,,,,,,,,,,,228.1725,229.3784,1,0,0.6966,,229.3789,230.3789,0,3,3,3,1,0,calpar,REAL,FAKE,,,,,,,,,,,,,,,,,,,,,,,,,,,,,,,,
,,,,,,,,,5efb5360f3f69c084c1ca850,Spanish,13 or older,"no, only English or Spanish",no,2026-01-21_21h57.49.012,empathy_intonation_perc_control,2024.2.4,Win32,163.9344262,5efb5360f3f69c084c1ca850,69712dc693a3960bdb483245,697192124fb0f5c9800a952c,,,,,,,,,,,,,0,,,,,,,,,,,,,,,,,,,,,,,,230.3795,231.5978,1,0,0.7094,,231.5978,232.5982,0,4,4,4,1,0,joten,REAL,FAKE,,,,,,,,,,,,,,,,,,,,,,,,,,,,,,,,
,,,,,,,,,5efb5360f3f69c084c1ca850,Spanish,13 or older,"no, only English or Spanish",no,2026-01-21_21h57.49.012,empathy_intonation_perc_control,2024.2.4,Win32,163.9344262,5efb5360f3f69c084c1ca850,69712dc693a3960bdb483245,697192124fb0f5c9800a952c,,,,,,,,,,,,,1,,,,,,,,,,,,,,,,,,,,,,,,232.5991,234.0718,1,1,0.9651,,234.0722,235.0725,0,5,5,5,1,0,sacapuntas,REAL,FAKE,,,,,,,,,,,,,,,,,,,,,,,,,,,,,,,,
,,,,,,,,,5efb5360f3f69c084c1ca850,Spanish,13 or older,"no, only English or Spanish",no,2026-01-21_21h57.49.012,empathy_intonation_perc_control,2024.2.4,Win32,163.9344262,5efb5360f3f69c084c1ca850,69712dc693a3960bdb483245,697192124fb0f5c9800a952c,,,,,,,,,,,,,0,,,,,,,,,,,,,,,,,,,,,,,,235.0735,236.4728,1,0,0.8932,,236.4733,237.4735,0,6,6,6,1,0,priba,REAL,FAKE,,,,,,,,,,,,,,,,,,,,,,,,,,,,,,,,
,,,,,,,,,5efb5360f3f69c084c1ca850,Spanish,13 or older,"no, only English or Spanish",no,2026-01-21_21h57.49.012,empathy_intonation_perc_control,2024.2.4,Win32,163.9344262,5efb5360f3f69c084c1ca850,69712dc693a3960bdb483245,697192124fb0f5c9800a952c,,,,,,,,,,,,,0,,,,,,,,,,,,,,,,,,,,,,,,237.4744,240.4144,0,1,2.4309,,240.4148,241.4149,0,7,7,7,1,0,pelasula,REAL,FAKE,,,,,,,,,,,,,,,,,,,,,,,,,,,,,,,,
,,,,,,,,,5efb5360f3f69c084c1ca850,Spanish,13 or older,"no, only English or Spanish",no,2026-01-21_21h57.49.012,empathy_intonation_perc_control,2024.2.4,Win32,163.9344262,5efb5360f3f69c084c1ca850,69712dc693a3960bdb483245,697192124fb0f5c9800a952c,,,,,,,,,,,,,1,,,,,,,,,,,,,,,,,,,,,,,,241.4154,242.5791,1,1,0.6579,,242.5791,243.5796,0,8,8,8,1,0,bien,REAL,FAKE,,,,,,,,,,,,,,,,,,,,,,,,,,,,,,,,
,,,,,,,,,5efb5360f3f69c084c1ca850,Spanish,13 or older,"no, only English or Spanish",no,2026-01-21_21h57.49.012,empathy_intonation_perc_control,2024.2.4,Win32,163.9344262,5efb5360f3f69c084c1ca850,69712dc693a3960bdb483245,697192124fb0f5c9800a952c,,,,,,,,,,,,,1,,,,,,,,,,,,,,,,,,,,,,,,243.5802,244.7014,1,1,0.6141,,244.7014,245.7019,0,9,9,9,1,0,casa,REAL,FAKE,,,,,,,,,,,,,,,,,,,,,,,,,,,,,,,,
,,,,,,,,,5efb5360f3f69c084c1ca850,Spanish,13 or older,"no, only English or Spanish",no,2026-01-21_21h57.49.012,empathy_intonation_perc_control,2024.2.4,Win32,163.9344262,5efb5360f3f69c084c1ca850,69712dc693a3960bdb483245,697192124fb0f5c9800a952c,,,,,,,,,,,,,0,,,,,,,,,,,,,,,,,,,,,,,,245.7025,247.0846,1,0,0.8743,,247.0852,248.085,0,10,10,10,1,0,lejo,REAL,FAKE,,,,,,,,,,,,,,,,,,,,,,,,,,,,,,,,
,,,,,,,,,5efb5360f3f69c084c1ca850,Spanish,13 or older,"no, only English or Spanish",no,2026-01-21_21h57.49.012,empathy_intonation_perc_control,2024.2.4,Win32,163.9344262,5efb5360f3f69c084c1ca850,69712dc693a3960bdb483245,697192124fb0f5c9800a952c,,,,,,,,,,,,,0,,,,,,,,,,,,,,,,,,,,,,,,248.0856,249.2498,1,0,0.6586,,249.2498,250.2497,0,11,11,11,1,0,pretantas,REAL,FAKE,,,,,,,,,,,,,,,,,,,,,,,,,,,,,,,,
,,,,,,,,,5efb5360f3f69c084c1ca850,Spanish,13 or older,"no, only English or Spanish",no,2026-01-21_21h57.49.012,empathy_intonation_perc_control,2024.2.4,Win32,163.9344262,5efb5360f3f69c084c1ca850,69712dc693a3960bdb483245,697192124fb0f5c9800a952c,,,,,,,,,,,,,,,,,,,,,,,,,,,,,,,,,,,,,,,,,,,,,,,,,,,,,,250.2499,250.9351,,,,,,,,,,,,,,,,,,,,,,,,,,,,,,
,,,,,,,,,5efb5360f3f69c084c1ca850,Spanish,13 or older,"no, only English or Spanish",no,2026-01-21_21h57.49.012,empathy_intonation_perc_control,2024.2.4,Win32,163.9344262,5efb5360f3f69c084c1ca850,69712dc693a3960bdb483245,697192124fb0f5c9800a952c,,,,,,,,,,,,,0,,,,,,,,,,,,,,,,,,,,,,,,,,,,,,,,,,,,,87,grodo,,,,,250.9477,252.9119,0,1,1.4548,,0,0,0,86,1,REAL,FAKE,,,,,,,,,,,,,,,,,
,,,,,,,,,5efb5360f3f69c084c1ca850,Spanish,13 or older,"no, only English or Spanish",no,2026-01-21_21h57.49.012,empathy_intonation_perc_control,2024.2.4,Win32,163.9344262,5efb5360f3f69c084c1ca850,69712dc693a3960bdb483245,697192124fb0f5c9800a952c,,,,,,,,,,,,,0,,,,,,,,,,,,,,,,,,,,,,,,,,,,,,,,,,,,,79,tropaje,,,,,252.9126,254.2397,1,0,0.8182,,0,1,1,78,1,REAL,FAKE,,,,,,,,,,,,,,,,,
,,,,,,,,,5efb5360f3f69c084c1ca850,Spanish,13 or older,"no, only English or Spanish",no,2026-01-21_21h57.49.012,empathy_intonation_perc_control,2024.2.4,Win32,163.9344262,5efb5360f3f69c084c1ca850,69712dc693a3960bdb483245,697192124fb0f5c9800a952c,,,,,,,,,,,,,1,,,,,,,,,,,,,,,,,,,,,,,,,,,,,,,,,,,,,65,bizcocho,,,,,254.2405,255.5069,1,1,0.758,,0,2,2,64,1,REAL,FAKE,,,,,,,,,,,,,,,,,
,,,,,,,,,5efb5360f3f69c084c1ca850,Spanish,13 or older,"no, only English or Spanish",no,2026-01-21_21h57.49.012,empathy_intonation_perc_control,2024.2.4,Win32,163.9344262,5efb5360f3f69c084c1ca850,69712dc693a3960bdb483245,697192124fb0f5c9800a952c,,,,,,,,,,,,,0,,,,,,,,,,,,,,,,,,,,,,,,,,,,,,,,,,,,,27,acutación,,,,,255.5077,256.9502,1,0,0.9353,,0,3,3,26,1,REAL,FAKE,,,,,,,,,,,,,,,,,
,,,,,,,,,5efb5360f3f69c084c1ca850,Spanish,13 or older,"no, only English or Spanish",no,2026-01-21_21h57.49.012,empathy_intonation_perc_control,2024.2.4,Win32,163.9344262,5efb5360f3f69c084c1ca850,69712dc693a3960bdb483245,697192124fb0f5c9800a952c,,,,,,,,,,,,,1,,,,,,,,,,,,,,,,,,,,,,,,,,,,,,,,,,,,,7,pésimo,,,,,256.9509,258.472,1,1,1.013,,0,4,4,6,1,REAL,FAKE,,,,,,,,,,,,,,,,,
,,,,,,,,,5efb5360f3f69c084c1ca850,Spanish,13 or older,"no, only English or Spanish",no,2026-01-21_21h57.49.012,empathy_intonation_perc_control,2024.2.4,Win32,163.9344262,5efb5360f3f69c084c1ca850,69712dc693a3960bdb483245,697192124fb0f5c9800a952c,,,,,,,,,,,,,1,,,,,,,,,,,,,,,,,,,,,,,,,,,,,,,,,,,,,77,tiburón,,,,,258.4725,259.8001,0,0,0.821,,0,5,5,76,1,REAL,FAKE,,,,,,,,,,,,,,,,,
,,,,,,,,,5efb5360f3f69c084c1ca850,Spanish,13 or older,"no, only English or Spanish",no,2026-01-21_21h57.49.012,empathy_intonation_perc_control,2024.2.4,Win32,163.9344262,5efb5360f3f69c084c1ca850,69712dc693a3960bdb483245,697192124fb0f5c9800a952c,,,,,,,,,,,,,1,,,,,,,,,,,,,,,,,,,,,,,,,,,,,,,,,,,,,45,jilguero,,,,,259.8006,261.1159,1,1,0.8069,,0,6,6,44,1,REAL,FAKE,,,,,,,,,,,,,,,,,
,,,,,,,,,5efb5360f3f69c084c1ca850,Spanish,13 or older,"no, only English or Spanish",no,2026-01-21_21h57.49.012,empathy_intonation_perc_control,2024.2.4,Win32,163.9344262,5efb5360f3f69c084c1ca850,69712dc693a3960bdb483245,697192124fb0f5c9800a952c,,,,,,,,,,,,,1,,,,,,,,,,,,,,,,,,,,,,,,,,,,,,,,,,,,,57,tacaño,,,,,261.1168,262.1286,1,1,0.5029,,0,7,7,56,1,REAL,FAKE,,,,,,,,,,,,,,,,,
,,,,,,,,,5efb5360f3f69c084c1ca850,Spanish,13 or older,"no, only English or Spanish",no,2026-01-21_21h57.49.012,empathy_intonation_perc_control,2024.2.4,Win32,163.9344262,5efb5360f3f69c084c1ca850,69712dc693a3960bdb483245,697192124fb0f5c9800a952c,,,,,,,,,,,,,1,,,,,,,,,,,,,,,,,,,,,,,,,,,,,,,,,,,,,31,pandilla,,,,,262.1294,263.1715,1,1,0.5352,,0,8,8,30,1,REAL,FAKE,,,,,,,,,,,,,,,,,
,,,,,,,,,5efb5360f3f69c084c1ca850,Spanish,13 or older,"no, only English or Spanish",no,2026-01-21_21h57.49.012,empathy_intonation_perc_control,2024.2.4,Win32,163.9344262,5efb5360f3f69c084c1ca850,69712dc693a3960bdb483245,697192124fb0f5c9800a952c,,,,,,,,,,,,,1,,,,,,,,,,,,,,,,,,,,,,,,,,,,,,,,,,,,,75,yacer,,,,,263.1724,264.4449,0,0,0.763,,0,9,9,74,1,REAL,FAKE,,,,,,,,,,,,,,,,,
,,,,,,,,,5efb5360f3f69c084c1ca850,Spanish,13 or older,"no, only English or Spanish",no,2026-01-21_21h57.49.012,empathy_intonation_perc_control,2024.2.4,Win32,163.9344262,5efb5360f3f69c084c1ca850,69712dc693a3960bdb483245,697192124fb0f5c9800a952c,,,,,,,,,,,,,1,,,,,,,,,,,,,,,,,,,,,,,,,,,,,,,,,,,,,86,barato,,,,,264.4455,267.1017,0,0,2.1505,,0,10,10,85,1,REAL,FAKE,,,,,,,,,,,,,,,,,
,,,,,,,,,5efb5360f3f69c084c1ca850,Spanish,13 or older,"no, only English or Spanish",no,2026-01-21_21h57.49.012,empathy_intonation_perc_control,2024.2.4,Win32,163.9344262,5efb5360f3f69c084c1ca850,69712dc693a3960bdb483245,697192124fb0f5c9800a952c,,,,,,,,,,,,,0,,,,,,,,,,,,,,,,,,,,,,,,,,,,,,,,,,,,,42,cadallo,,,,,267.1026,268.3074,1,0,0.6993,,0,11,11,41,1,REAL,FAKE,,,,,,,,,,,,,,,,,
,,,,,,,,,5efb5360f3f69c084c1ca850,Spanish,13 or older,"no, only English or Spanish",no,2026-01-21_21h57.49.012,empathy_intonation_perc_control,2024.2.4,Win32,163.9344262,5efb5360f3f69c084c1ca850,69712dc693a3960bdb483245,697192124fb0f5c9800a952c,,,,,,,,,,,,,1,,,,,,,,,,,,,,,,,,,,,,,,,,,,,,,,,,,,,89,prisa,,,,,268.3081,269.3878,1,1,0.5741,,0,12,12,88,1,REAL,FAKE,,,,,,,,,,,,,,,,,
,,,,,,,,,5efb5360f3f69c084c1ca850,Spanish,13 or older,"no, only English or Spanish",no,2026-01-21_21h57.49.012,empathy_intonation_perc_control,2024.2.4,Win32,163.9344262,5efb5360f3f69c084c1ca850,69712dc693a3960bdb483245,697192124fb0f5c9800a952c,,,,,,,,,,,,,1,,,,,,,,,,,,,,,,,,,,,,,,,,,,,,,,,,,,,61,seda,,,,,269.3884,270.3753,1,1,0.4789,,0,13,13,60,1,REAL,FAKE,,,,,,,,,,,,,,,,,
,,,,,,,,,5efb5360f3f69c084c1ca850,Spanish,13 or older,"no, only English or Spanish",no,2026-01-21_21h57.49.012,empathy_intonation_perc_control,2024.2.4,Win32,163.9344262,5efb5360f3f69c084c1ca850,69712dc693a3960bdb483245,697192124fb0f5c9800a952c,,,,,,,,,,,,,0,,,,,,,,,,,,,,,,,,,,,,,,,,,,,,,,,,,,,16,abracer,,,,,270.3759,271.3515,1,0,0.4704,,0,14,14,15,1,REAL,FAKE,,,,,,,,,,,,,,,,,
,,,,,,,,,5efb5360f3f69c084c1ca850,Spanish,13 or older,"no, only English or Spanish",no,2026-01-21_21h57.49.012,empathy_intonation_perc_control,2024.2.4,Win32,163.9344262,5efb5360f3f69c084c1ca850,69712dc693a3960bdb483245,697192124fb0f5c9800a952c,,,,,,,,,,,,,1,,,,,,,,,,,,,,,,,,,,,,,,,,,,,,,,,,,,,46,martillo,,,,,271.3521,272.831,1,1,0.9729,,0,15,15,45,1,REAL,FAKE,,,,,,,,,,,,,,,,,
,,,,,,,,,5efb5360f3f69c084c1ca850,Spanish,13 or older,"no, only English or Spanish",no,2026-01-21_21h57.49.012,empathy_intonation_perc_control,2024.2.4,Win32,163.9344262,5efb5360f3f69c084c1ca850,69712dc693a3960bdb483245,697192124fb0f5c9800a952c,,,,,,,,,,,,,1,,,,,,,,,,,,,,,,,,,,,,,,,,,,,,,,,,,,,56,musgo,,,,,272.8316,274.0013,0,0,0.6628,,0,16,16,55,1,REAL,FAKE,,,,,,,,,,,,,,,,,
,,,,,,,,,5efb5360f3f69c084c1ca850,Spanish,13 or older,"no, only English or Spanish",no,2026-01-21_21h57.49.012,empathy_intonation_perc_control,2024.2.4,Win32,163.9344262,5efb5360f3f69c084c1ca850,69712dc693a3960bdb483245,697192124fb0f5c9800a952c,,,,,,,,,,,,,1,,,,,,,,,,,,,,,,,,,,,,,,,,,,,,,,,,,,,90,clavel,,,,,274.002,275.0323,1,1,0.5222,,0,17,17,89,1,REAL,FAKE,,,,,,,,,,,,,,,,,
,,,,,,,,,5efb5360f3f69c084c1ca850,Spanish,13 or older,"no, only English or Spanish",no,2026-01-21_21h57.49.012,empathy_intonation_perc_control,2024.2.4,Win32,163.9344262,5efb5360f3f69c084c1ca850,69712dc693a3960bdb483245,697192124fb0f5c9800a952c,,,,,,,,,,,,,1,,,,,,,,,,,,,,,,,,,,,,,,,,,,,,,,,,,,,71,polvoriento,,,,,275.0329,276.1479,0,0,0.6088,,0,18,18,70,1,REAL,FAKE,,,,,,,,,,,,,,,,,
,,,,,,,,,5efb5360f3f69c084c1ca850,Spanish,13 or older,"no, only English or Spanish",no,2026-01-21_21h57.49.012,empathy_intonation_perc_control,2024.2.4,Win32,163.9344262,5efb5360f3f69c084c1ca850,69712dc693a3960bdb483245,697192124fb0f5c9800a952c,,,,,,,,,,,,,1,,,,,,,,,,,,,,,,,,,,,,,,,,,,,,,,,,,,,54,fomentar,,,,,276.1487,277.2212,0,0,0.5633,,0,19,19,53,1,REAL,FAKE,,,,,,,,,,,,,,,,,
,,,,,,,,,5efb5360f3f69c084c1ca850,Spanish,13 or older,"no, only English or Spanish",no,2026-01-21_21h57.49.012,empathy_intonation_perc_control,2024.2.4,Win32,163.9344262,5efb5360f3f69c084c1ca850,69712dc693a3960bdb483245,697192124fb0f5c9800a952c,,,,,,,,,,,,,1,,,,,,,,,,,,,,,,,,,,,,,,,,,,,,,,,,,,,52,camisa,,,,,277.2219,278.5674,1,1,0.8364,,0,20,20,51,1,REAL,FAKE,,,,,,,,,,,,,,,,,
,,,,,,,,,5efb5360f3f69c084c1ca850,Spanish,13 or older,"no, only English or Spanish",no,2026-01-21_21h57.49.012,empathy_intonation_perc_control,2024.2.4,Win32,163.9344262,5efb5360f3f69c084c1ca850,69712dc693a3960bdb483245,697192124fb0f5c9800a952c,,,,,,,,,,,,,0,,,,,,,,,,,,,,,,,,,,,,,,,,,,,,,,,,,,,10,antar,,,,,278.5679,279.6285,1,0,0.5512,,0,21,21,9,1,REAL,FAKE,,,,,,,,,,,,,,,,,
,,,,,,,,,5efb5360f3f69c084c1ca850,Spanish,13 or older,"no, only English or Spanish",no,2026-01-21_21h57.49.012,empathy_intonation_perc_control,2024.2.4,Win32,163.9344262,5efb5360f3f69c084c1ca850,69712dc693a3960bdb483245,697192124fb0f5c9800a952c,,,,,,,,,,,,,0,,,,,,,,,,,,,,,,,,,,,,,,,,,,,,,,,,,,,92,click the 0 key.,,,,,279.6295,280.9443,0,1,0.8082,,0,22,22,91,1,REAL,FAKE,,,,,,,,,,,,,,,,,
,,,,,,,,,5efb5360f3f69c084c1ca850,Spanish,13 or older,"no, only English or Spanish",no,2026-01-21_21h57.49.012,empathy_intonation_perc_control,2024.2.4,Win32,163.9344262,5efb5360f3f69c084c1ca850,69712dc693a3960bdb483245,697192124fb0f5c9800a952c,,,,,,,,,,,,,1,,,,,,,,,,,,,,,,,,,,,,,,,,,,,,,,,,,,,37,granuja,,,,,280.9448,282.0479,1,1,0.5962,,0,23,23,36,1,REAL,FAKE,,,,,,,,,,,,,,,,,
,,,,,,,,,5efb5360f3f69c084c1ca850,Spanish,13 or older,"no, only English or Spanish",no,2026-01-21_21h57.49.012,empathy_intonation_perc_control,2024.2.4,Win32,163.9344262,5efb5360f3f69c084c1ca850,69712dc693a3960bdb483245,697192124fb0f5c9800a952c,,,,,,,,,,,,,1,,,,,,,,,,,,,,,,,,,,,,,,,,,,,,,,,,,,,34,aviso,,,,,282.0486,283.1272,1,1,0.5721,,0,24,24,33,1,REAL,FAKE,,,,,,,,,,,,,,,,,
,,,,,,,,,5efb5360f3f69c084c1ca850,Spanish,13 or older,"no, only English or Spanish",no,2026-01-21_21h57.49.012,empathy_intonation_perc_control,2024.2.4,Win32,163.9344262,5efb5360f3f69c084c1ca850,69712dc693a3960bdb483245,697192124fb0f5c9800a952c,,,,,,,,,,,,,0,,,,,,,,,,,,,,,,,,,,,,,,,,,,,,,,,,,,,21,capillo,,,,,283.1278,284.1708,1,0,0.5376,,0,25,25,20,1,REAL,FAKE,,,,,,,,,,,,,,,,,
,,,,,,,,,5efb5360f3f69c084c1ca850,Spanish,13 or older,"no, only English or Spanish",no,2026-01-21_21h57.49.012,empathy_intonation_perc_control,2024.2.4,Win32,163.9344262,5efb5360f3f69c084c1ca850,69712dc693a3960bdb483245,697192124fb0f5c9800a952c,,,,,,,,,,,,,1,,,,,,,,,,,,,,,,,,,,,,,,,,,,,,,,,,,,,20,ávido,,,,,284.1716,285.1709,1,1,0.4945,,0,26,26,19,1,REAL,FAKE,,,,,,,,,,,,,,,,,
,,,,,,,,,5efb5360f3f69c084c1ca850,Spanish,13 or older,"no, only English or Spanish",no,2026-01-21_21h57.49.012,empathy_intonation_perc_control,2024.2.4,Win32,163.9344262,5efb5360f3f69c084c1ca850,69712dc693a3960bdb483245,697192124fb0f5c9800a952c,,,,,,,,,,,,,1,,,,,,,,,,,,,,,,,,,,,,,,,,,,,,,,,,,,,69,engatusar,,,,,285.1715,286.3652,1,1,0.6845,,0,27,27,68,1,REAL,FAKE,,,,,,,,,,,,,,,,,
,,,,,,,,,5efb5360f3f69c084c1ca850,Spanish,13 or older,"no, only English or Spanish",no,2026-01-21_21h57.49.012,empathy_intonation_perc_control,2024.2.4,Win32,163.9344262,5efb5360f3f69c084c1ca850,69712dc693a3960bdb483245,697192124fb0f5c9800a952c,,,,,,,,,,,,,1,,,,,,,,,,,,,,,,,,,,,,,,,,,,,,,,,,,,,68,alegre,,,,,286.3658,287.5174,1,1,0.6456,,0,28,28,67,1,REAL,FAKE,,,,,,,,,,,,,,,,,
,,,,,,,,,5efb5360f3f69c084c1ca850,Spanish,13 or older,"no, only English or Spanish",no,2026-01-21_21h57.49.012,empathy_intonation_perc_control,2024.2.4,Win32,163.9344262,5efb5360f3f69c084c1ca850,69712dc693a3960bdb483245,697192124fb0f5c9800a952c,,,,,,,,,,,,,0,,,,,,,,,,,,,,,,,,,,,,,,,,,,,,,,,,,,,4,batillón,,,,,287.5181,289.0454,0,1,1.0198,,0,29,29,3,1,REAL,FAKE,,,,,,,,,,,,,,,,,
,,,,,,,,,5efb5360f3f69c084c1ca850,Spanish,13 or older,"no, only English or Spanish",no,2026-01-21_21h57.49.012,empathy_intonation_perc_control,2024.2.4,Win32,163.9344262,5efb5360f3f69c084c1ca850,69712dc693a3960bdb483245,697192124fb0f5c9800a952c,,,,,,,,,,,,,0,,,,,,,,,,,,,,,,,,,,,,,,,,,,,,,,,,,,,23,lampera,,,,,289.046,290.0653,1,0,0.5142,,0,30,30,22,1,REAL,FAKE,,,,,,,,,,,,,,,,,
,,,,,,,,,5efb5360f3f69c084c1ca850,Spanish,13 or older,"no, only English or Spanish",no,2026-01-21_21h57.49.012,empathy_intonation_perc_control,2024.2.4,Win32,163.9344262,5efb5360f3f69c084c1ca850,69712dc693a3960bdb483245,697192124fb0f5c9800a952c,,,,,,,,,,,,,1,,,,,,,,,,,,,,,,,,,,,,,,,,,,,,,,,,,,,9,hacha,,,,,290.0656,291.2527,1,1,0.6815,,0,31,31,8,1,REAL,FAKE,,,,,,,,,,,,,,,,,
,,,,,,,,,5efb5360f3f69c084c1ca850,Spanish,13 or older,"no, only English or Spanish",no,2026-01-21_21h57.49.012,empathy_intonation_perc_control,2024.2.4,Win32,163.9344262,5efb5360f3f69c084c1ca850,69712dc693a3960bdb483245,697192124fb0f5c9800a952c,,,,,,,,,,,,,1,,,,,,,,,,,,,,,,,,,,,,,,,,,,,,,,,,,,,24,látigo,,,,,291.2537,292.3503,0,0,0.5876,,0,32,32,23,1,REAL,FAKE,,,,,,,,,,,,,,,,,
,,,,,,,,,5efb5360f3f69c084c1ca850,Spanish,13 or older,"no, only English or Spanish",no,2026-01-21_21h57.49.012,empathy_intonation_perc_control,2024.2.4,Win32,163.9344262,5efb5360f3f69c084c1ca850,69712dc693a3960bdb483245,697192124fb0f5c9800a952c,,,,,,,,,,,,,0,,,,,,,,,,,,,,,,,,,,,,,,,,,,,,,,,,,,,19,brecedad,,,,,292.3509,293.491,1,0,0.6349,,0,33,33,18,1,REAL,FAKE,,,,,,,,,,,,,,,,,
,,,,,,,,,5efb5360f3f69c084c1ca850,Spanish,13 or older,"no, only English or Spanish",no,2026-01-21_21h57.49.012,empathy_intonation_perc_control,2024.2.4,Win32,163.9344262,5efb5360f3f69c084c1ca850,69712dc693a3960bdb483245,697192124fb0f5c9800a952c,,,,,,,,,,,,,1,,,,,,,,,,,,,,,,,,,,,,,,,,,,,,,,,,,,,59,besar,,,,,293.4915,294.6483,0,0,0.6521,,0,34,34,58,1,REAL,FAKE,,,,,,,,,,,,,,,,,
,,,,,,,,,5efb5360f3f69c084c1ca850,Spanish,13 or older,"no, only English or Spanish",no,2026-01-21_21h57.49.012,empathy_intonation_perc_control,2024.2.4,Win32,163.9344262,5efb5360f3f69c084c1ca850,69712dc693a3960bdb483245,697192124fb0f5c9800a952c,,,,,,,,,,,,,1,,,,,,,,,,,,,,,,,,,,,,,,,,,,,,,,,,,,,78,frondoso,,,,,294.6489,295.467,1,1,0.3106,,0,35,35,77,1,REAL,FAKE,,,,,,,,,,,,,,,,,
,,,,,,,,,5efb5360f3f69c084c1ca850,Spanish,13 or older,"no, only English or Spanish",no,2026-01-21_21h57.49.012,empathy_intonation_perc_control,2024.2.4,Win32,163.9344262,5efb5360f3f69c084c1ca850,69712dc693a3960bdb483245,697192124fb0f5c9800a952c,,,,,,,,,,,,,0,,,,,,,,,,,,,,,,,,,,,,,,,,,,,,,,,,,,,18,arsa,,,,,295.4679,296.4068,1,0,0.4324,,0,36,36,17,1,REAL,FAKE,,,,,,,,,,,,,,,,,
,,,,,,,,,5efb5360f3f69c084c1ca850,Spanish,13 or older,"no, only English or Spanish",no,2026-01-21_21h57.49.012,empathy_intonation_perc_control,2024.2.4,Win32,163.9344262,5efb5360f3f69c084c1ca850,69712dc693a3960bdb483245,697192124fb0f5c9800a952c,,,,,,,,,,,,,0,,,,,,,,,,,,,,,,,,,,,,,,,,,,,,,,,,,,,47,cartinar,,,,,296.4074,297.3649,1,0,0.448,,0,37,37,46,1,REAL,FAKE,,,,,,,,,,,,,,,,,
,,,,,,,,,5efb5360f3f69c084c1ca850,Spanish,13 or older,"no, only English or Spanish",no,2026-01-21_21h57.49.012,empathy_intonation_perc_control,2024.2.4,Win32,163.9344262,5efb5360f3f69c084c1ca850,69712dc693a3960bdb483245,697192124fb0f5c9800a952c,,,,,,,,,,,,,0,,,,,,,,,,,,,,,,,,,,,,,,,,,,,,,,,,,,,33,pauca,,,,,297.3654,298.2502,1,0,0.3782,,0,38,38,32,1,REAL,FAKE,,,,,,,,,,,,,,,,,
,,,,,,,,,5efb5360f3f69c084c1ca850,Spanish,13 or older,"no, only English or Spanish",no,2026-01-21_21h57.49.012,empathy_intonation_perc_control,2024.2.4,Win32,163.9344262,5efb5360f3f69c084c1ca850,69712dc693a3960bdb483245,697192124fb0f5c9800a952c,,,,,,,,,,,,,1,,,,,,,,,,,,,,,,,,,,,,,,,,,,,,,,,,,,,5,zapato,,,,,298.2509,299.4146,1,1,0.6582,,0,39,39,4,1,REAL,FAKE,,,,,,,,,,,,,,,,,
,,,,,,,,,5efb5360f3f69c084c1ca850,Spanish,13 or older,"no, only English or Spanish",no,2026-01-21_21h57.49.012,empathy_intonation_perc_control,2024.2.4,Win32,163.9344262,5efb5360f3f69c084c1ca850,69712dc693a3960bdb483245,697192124fb0f5c9800a952c,,,,,,,,,,,,,1,,,,,,,,,,,,,,,,,,,,,,,,,,,,,,,,,,,,,36,loro,,,,,299.4152,300.5067,1,1,0.586,,0,40,40,35,1,REAL,FAKE,,,,,,,,,,,,,,,,,
,,,,,,,,,5efb5360f3f69c084c1ca850,Spanish,13 or older,"no, only English or Spanish",no,2026-01-21_21h57.49.012,empathy_intonation_perc_control,2024.2.4,Win32,163.9344262,5efb5360f3f69c084c1ca850,69712dc693a3960bdb483245,697192124fb0f5c9800a952c,,,,,,,,,,,,,0,,,,,,,,,,,,,,,,,,,,,,,,,,,,,,,,,,,,,30,alardio,,,,,300.5072,301.561,0,1,0.5465,,0,41,41,29,1,REAL,FAKE,,,,,,,,,,,,,,,,,
,,,,,,,,,5efb5360f3f69c084c1ca850,Spanish,13 or older,"no, only English or Spanish",no,2026-01-21_21h57.49.012,empathy_intonation_perc_control,2024.2.4,Win32,163.9344262,5efb5360f3f69c084c1ca850,69712dc693a3960bdb483245,697192124fb0f5c9800a952c,,,,,,,,,,,,,0,,,,,,,,,,,,,,,,,,,,,,,,,,,,,,,,,,,,,35,rompido,,,,,301.5616,302.4767,1,0,0.4086,,0,42,42,34,1,REAL,FAKE,,,,,,,,,,,,,,,,,
,,,,,,,,,5efb5360f3f69c084c1ca850,Spanish,13 or older,"no, only English or Spanish",no,2026-01-21_21h57.49.012,empathy_intonation_perc_control,2024.2.4,Win32,163.9344262,5efb5360f3f69c084c1ca850,69712dc693a3960bdb483245,697192124fb0f5c9800a952c,,,,,,,,,,,,,0,,,,,,,,,,,,,,,,,,,,,,,,,,,,,,,,,,,,,74,cintro,,,,,302.4773,303.5924,0,1,0.6057,,0,43,43,73,1,REAL,FAKE,,,,,,,,,,,,,,,,,
,,,,,,,,,5efb5360f3f69c084c1ca850,Spanish,13 or older,"no, only English or Spanish",no,2026-01-21_21h57.49.012,empathy_intonation_perc_control,2024.2.4,Win32,163.9344262,5efb5360f3f69c084c1ca850,69712dc693a3960bdb483245,697192124fb0f5c9800a952c,,,,,,,,,,,,,1,,,,,,,,,,,,,,,,,,,,,,,,,,,,,,,,,,,,,11,cenefa,,,,,303.5931,304.4595,1,1,0.3591,,0,44,44,10,1,REAL,FAKE,,,,,,,,,,,,,,,,,
,,,,,,,,,5efb5360f3f69c084c1ca850,Spanish,13 or older,"no, only English or Spanish",no,2026-01-21_21h57.49.012,empathy_intonation_perc_control,2024.2.4,Win32,163.9344262,5efb5360f3f69c084c1ca850,69712dc693a3960bdb483245,697192124fb0f5c9800a952c,,,,,,,,,,,,,1,,,,,,,,,,,,,,,,,,,,,,,,,,,,,,,,,,,,,91,click the 1 key.,,,,,304.4603,305.5206,1,1,0.5518,,0,45,45,90,1,REAL,FAKE,,,,,,,,,,,,,,,,,
,,,,,,,,,5efb5360f3f69c084c1ca850,Spanish,13 or older,"no, only English or Spanish",no,2026-01-21_21h57.49.012,empathy_intonation_perc_control,2024.2.4,Win32,163.9344262,5efb5360f3f69c084c1ca850,69712dc693a3960bdb483245,697192124fb0f5c9800a952c,,,,,,,,,,,,,1,,,,,,,,,,,,,,,,,,,,,,,,,,,,,,,,,,,,,3,pulmones,,,,,305.5212,306.697,1,1,0.6681,,0,46,46,2,1,REAL,FAKE,,,,,,,,,,,,,,,,,
,,,,,,,,,5efb5360f3f69c084c1ca850,Spanish,13 or older,"no, only English or Spanish",no,2026-01-21_21h57.49.012,empathy_intonation_perc_control,2024.2.4,Win32,163.9344262,5efb5360f3f69c084c1ca850,69712dc693a3960bdb483245,697192124fb0f5c9800a952c,,,,,,,,,,,,,0,,,,,,,,,,,,,,,,,,,,,,,,,,,,,,,,,,,,,72,pemición,,,,,306.6977,307.6369,1,0,0.4312,,0,47,47,71,1,REAL,FAKE,,,,,,,,,,,,,,,,,
,,,,,,,,,5efb5360f3f69c084c1ca850,Spanish,13 or older,"no, only English or Spanish",no,2026-01-21_21h57.49.012,empathy_intonation_perc_control,2024.2.4,Win32,163.9344262,5efb5360f3f69c084c1ca850,69712dc693a3960bdb483245,697192124fb0f5c9800a952c,,,,,,,,,,,,,1,,,,,,,,,,,,,,,,,,,,,,,,,,,,,,,,,,,,,48,ladrón,,,,,307.6375,308.5647,1,1,0.4183,,0,48,48,47,1,REAL,FAKE,,,,,,,,,,,,,,,,,
,,,,,,,,,5efb5360f3f69c084c1ca850,Spanish,13 or older,"no, only English or Spanish",no,2026-01-21_21h57.49.012,empathy_intonation_perc_control,2024.2.4,Win32,163.9344262,5efb5360f3f69c084c1ca850,69712dc693a3960bdb483245,697192124fb0f5c9800a952c,,,,,,,,,,,,,1,,,,,,,,,,,,,,,,,,,,,,,,,,,,,,,,,,,,,38,estornudar,,,,,308.5653,309.3894,0,0,0.3142,,0,49,49,37,1,REAL,FAKE,,,,,,,,,,,,,,,,,
,,,,,,,,,5efb5360f3f69c084c1ca850,Spanish,13 or older,"no, only English or Spanish",no,2026-01-21_21h57.49.012,empathy_intonation_perc_control,2024.2.4,Win32,163.9344262,5efb5360f3f69c084c1ca850,69712dc693a3960bdb483245,697192124fb0f5c9800a952c,,,,,,,,,,,,,0,,,,,,,,,,,,,,,,,,,,,,,,,,,,,,,,,,,,,53,vegada,,,,,309.3901,310.0504,1,0,0.1551,,0,50,50,52,1,REAL,FAKE,,,,,,,,,,,,,,,,,
,,,,,,,,,5efb5360f3f69c084c1ca850,Spanish,13 or older,"no, only English or Spanish",no,2026-01-21_21h57.49.012,empathy_intonation_perc_control,2024.2.4,Win32,163.9344262,5efb5360f3f69c084c1ca850,69712dc693a3960bdb483245,697192124fb0f5c9800a952c,,,,,,,,,,,,,0,,,,,,,,,,,,,,,,,,,,,,,,,,,,,,,,,,,,,8,cadeña,,,,,310.0511,310.8446,1,0,0.2851,,0,51,51,7,1,REAL,FAKE,,,,,,,,,,,,,,,,,
,,,,,,,,,5efb5360f3f69c084c1ca850,Spanish,13 or older,"no, only English or Spanish",no,2026-01-21_21h57.49.012,empathy_intonation_perc_control,2024.2.4,Win32,163.9344262,5efb5360f3f69c084c1ca850,69712dc693a3960bdb483245,697192124fb0f5c9800a952c,,,,,,,,,,,,,1,,,,,,,,,,,,,,,,,,,,,,,,,,,,,,,,,,,,,49,ganar,,,,,310.8452,311.8269,1,1,0.4742,,0,52,52,48,1,REAL,FAKE,,,,,,,,,,,,,,,,,
,,,,,,,,,5efb5360f3f69c084c1ca850,Spanish,13 or older,"no, only English or Spanish",no,2026-01-21_21h57.49.012,empathy_intonation_perc_control,2024.2.4,Win32,163.9344262,5efb5360f3f69c084c1ca850,69712dc693a3960bdb483245,697192124fb0f5c9800a952c,,,,,,,,,,,,,1,,,,,,,,,,,,,,,,,,,,,,,,,,,,,,,,,,,,,22,lacayo,,,,,311.8274,312.9731,0,0,0.638,,0,53,53,21,1,REAL,FAKE,,,,,,,,,,,,,,,,,
,,,,,,,,,5efb5360f3f69c084c1ca850,Spanish,13 or older,"no, only English or Spanish",no,2026-01-21_21h57.49.012,empathy_intonation_perc_control,2024.2.4,Win32,163.9344262,5efb5360f3f69c084c1ca850,69712dc693a3960bdb483245,697192124fb0f5c9800a952c,,,,,,,,,,,,,1,,,,,,,,,,,,,,,,,,,,,,,,,,,,,,,,,,,,,25,bisagra,,,,,312.9737,314.7254,1,1,1.2433,,0,54,54,24,1,REAL,FAKE,,,,,,,,,,,,,,,,,
,,,,,,,,,5efb5360f3f69c084c1ca850,Spanish,13 or older,"no, only English or Spanish",no,2026-01-21_21h57.49.012,empathy_intonation_perc_control,2024.2.4,Win32,163.9344262,5efb5360f3f69c084c1ca850,69712dc693a3960bdb483245,697192124fb0f5c9800a952c,,,,,,,,,,,,,0,,,,,,,,,,,,,,,,,,,,,,,,,,,,,,,,,,,,,66,hacido,,,,,314.726,315.7077,1,0,0.4738,,0,55,55,65,1,REAL,FAKE,,,,,,,,,,,,,,,,,
,,,,,,,,,5efb5360f3f69c084c1ca850,Spanish,13 or older,"no, only English or Spanish",no,2026-01-21_21h57.49.012,empathy_intonation_perc_control,2024.2.4,Win32,163.9344262,5efb5360f3f69c084c1ca850,69712dc693a3960bdb483245,697192124fb0f5c9800a952c,,,,,,,,,,,,,1,,,,,,,,,,,,,,,,,,,,,,,,,,,,,,,,,,,,,39,torpe,,,,,315.7083,316.7204,1,1,0.5061,,0,56,56,38,1,REAL,FAKE,,,,,,,,,,,,,,,,,
,,,,,,,,,5efb5360f3f69c084c1ca850,Spanish,13 or older,"no, only English or Spanish",no,2026-01-21_21h57.49.012,empathy_intonation_perc_control,2024.2.4,Win32,163.9344262,5efb5360f3f69c084c1ca850,69712dc693a3960bdb483245,697192124fb0f5c9800a952c,,,,,,,,,,,,,1,,,,,,,,,,,,,,,,,,,,,,,,,,,,,,,,,,,,,14,yunque,,,,,316.7209,317.8664,0,0,0.6396,,0,57,57,13,1,REAL,FAKE,,,,,,,,,,,,,,,,,
,,,,,,,,,5efb5360f3f69c084c1ca850,Spanish,13 or older,"no, only English or Spanish",no,2026-01-21_21h57.49.012,empathy_intonation_perc_control,2024.2.4,Win32,163.9344262,5efb5360f3f69c084c1ca850,69712dc693a3960bdb483245,697192124fb0f5c9800a952c,,,,,,,,,,,,,1,,,,,,,,,,,,,,,,,,,,,,,,,,,,,,,,,,,,,60,matar,,,,,317.867,318.9034,1,1,0.5264,,0,58,58,59,1,REAL,FAKE,,,,,,,,,,,,,,,,,
,,,,,,,,,5efb5360f3f69c084c1ca850,Spanish,13 or older,"no, only English or Spanish",no,2026-01-21_21h57.49.012,empathy_intonation_perc_control,2024.2.4,Win32,163.9344262,5efb5360f3f69c084c1ca850,69712dc693a3960bdb483245,697192124fb0f5c9800a952c,,,,,,,,,,,,,1,,,,,,,,,,,,,,,,,,,,,,,,,,,,,,,,,,,,,43,canela,,,,,318.904,319.8736,1,1,0.4626,,0,59,59,42,1,REAL,FAKE,,,,,,,,,,,,,,,,,
,,,,,,,,,5efb5360f3f69c084c1ca850,Spanish,13 or older,"no, only English or Spanish",no,2026-01-21_21h57.49.012,empathy_intonation_perc_control,2024.2.4,Win32,163.9344262,5efb5360f3f69c084c1ca850,69712dc693a3960bdb483245,697192124fb0f5c9800a952c,,,,,,,,,,,,,1,,,,,,,,,,,,,,,,,,,,,,,,,,,,,,,,,,,,,26,secuestro,,,,,319.8743,321.0075,1,1,0.6285,,0,60,60,25,1,REAL,FAKE,,,,,,,,,,,,,,,,,
,,,,,,,,,5efb5360f3f69c084c1ca850,Spanish,13 or older,"no, only English or Spanish",no,2026-01-21_21h57.49.012,empathy_intonation_perc_control,2024.2.4,Win32,163.9344262,5efb5360f3f69c084c1ca850,69712dc693a3960bdb483245,697192124fb0f5c9800a952c,,,,,,,,,,,,,0,,,,,,,,,,,,,,,,,,,,,,,,,,,,,,,,,,,,,50,flamida,,,,,321.008,322.2202,1,0,0.7051,,0,61,61,49,1,REAL,FAKE,,,,,,,,,,,,,,,,,
,,,,,,,,,5efb5360f3f69c084c1ca850,Spanish,13 or older,"no, only English or Spanish",no,2026-01-21_21h57.49.012,empathy_intonation_perc_control,2024.2.4,Win32,163.9344262,5efb5360f3f69c084c1ca850,69712dc693a3960bdb483245,697192124fb0f5c9800a952c,,,,,,,,,,,,,1,,,,,,,,,,,,,,,,,,,,,,,,,,,,,,,,,,,,,83,guante,,,,,322.2207,323.3299,1,1,0.6003,,0,62,62,82,1,REAL,FAKE,,,,,,,,,,,,,,,,,
,,,,,,,,,5efb5360f3f69c084c1ca850,Spanish,13 or older,"no, only English or Spanish",no,2026-01-21_21h57.49.012,empathy_intonation_perc_control,2024.2.4,Win32,163.9344262,5efb5360f3f69c084c1ca850,69712dc693a3960bdb483245,697192124fb0f5c9800a952c,,,,,,,,,,,,,1,,,,,,,,,,,,,,,,,,,,,,,,,,,,,,,,,,,,,2,pellizcar,,,,,323.3305,324.3062,1,1,0.4677,,0,63,63,1,1,REAL,FAKE,,,,,,,,,,,,,,,,,
,,,,,,,,,5efb5360f3f69c084c1ca850,Spanish,13 or older,"no, only English or Spanish",no,2026-01-21_21h57.49.012,empathy_intonation_perc_control,2024.2.4,Win32,163.9344262,5efb5360f3f69c084c1ca850,69712dc693a3960bdb483245,697192124fb0f5c9800a952c,,,,,,,,,,,,,1,,,,,,,,,,,,,,,,,,,,,,,,,,,,,,,,,,,,,41,rebuscar,,,,,324.3069,324.9731,0,0,0.1584,,0,64,64,40,1,REAL,FAKE,,,,,,,,,,,,,,,,,
,,,,,,,,,5efb5360f3f69c084c1ca850,Spanish,13 or older,"no, only English or Spanish",no,2026-01-21_21h57.49.012,empathy_intonation_perc_control,2024.2.4,Win32,163.9344262,5efb5360f3f69c084c1ca850,69712dc693a3960bdb483245,697192124fb0f5c9800a952c,,,,,,,,,,,,,0,,,,,,,,,,,,,,,,,,,,,,,,,,,,,,,,,,,,,84,escuto,,,,,324.9739,326.1435,1,0,0.6606,,0,65,65,83,1,REAL,FAKE,,,,,,,,,,,,,,,,,
,,,,,,,,,5efb5360f3f69c084c1ca850,Spanish,13 or older,"no, only English or Spanish",no,2026-01-21_21h57.49.012,empathy_intonation_perc_control,2024.2.4,Win32,163.9344262,5efb5360f3f69c084c1ca850,69712dc693a3960bdb483245,697192124fb0f5c9800a952c,,,,,,,,,,,,,0,,,,,,,,,,,,,,,,,,,,,,,,,,,,,,,,,,,,,17,floroso,,,,,326.1441,327.1561,0,1,0.506,,0,66,66,16,1,REAL,FAKE,,,,,,,,,,,,,,,,,
,,,,,,,,,5efb5360f3f69c084c1ca850,Spanish,13 or older,"no, only English or Spanish",no,2026-01-21_21h57.49.012,empathy_intonation_perc_control,2024.2.4,Win32,163.9344262,5efb5360f3f69c084c1ca850,69712dc693a3960bdb483245,697192124fb0f5c9800a952c,,,,,,,,,,,,,1,,,,,,,,,,,,,,,,,,,,,,,,,,,,,,,,,,,,,40,alfombra,,,,,327.1566,327.9807,1,1,0.3164,,0,67,67,39,1,REAL,FAKE,,,,,,,,,,,,,,,,,
,,,,,,,,,5efb5360f3f69c084c1ca850,Spanish,13 or older,"no, only English or Spanish",no,2026-01-21_21h57.49.012,empathy_intonation_perc_control,2024.2.4,Win32,163.9344262,5efb5360f3f69c084c1ca850,69712dc693a3960bdb483245,697192124fb0f5c9800a952c,,,,,,,,,,,,,0,,,,,,,,,,,,,,,,,,,,,,,,,,,,,,,,,,,,,70,temblo,,,,,327.9812,328.7204,0,1,0.2334,,0,68,68,69,1,REAL,FAKE,,,,,,,,,,,,,,,,,
,,,,,,,,,5efb5360f3f69c084c1ca850,Spanish,13 or older,"no, only English or Spanish",no,2026-01-21_21h57.49.012,empathy_intonation_perc_control,2024.2.4,Win32,163.9344262,5efb5360f3f69c084c1ca850,69712dc693a3960bdb483245,697192124fb0f5c9800a952c,,,,,,,,,,,,,1,,,,,,,,,,,,,,,,,,,,,,,,,,,,,,,,,,,,,67,cabello,,,,,328.7209,329.6664,1,1,0.4377,,0,69,69,66,1,REAL,FAKE,,,,,,,,,,,,,,,,,
,,,,,,,,,5efb5360f3f69c084c1ca850,Spanish,13 or older,"no, only English or Spanish",no,2026-01-21_21h57.49.012,empathy_intonation_perc_control,2024.2.4,Win32,163.9344262,5efb5360f3f69c084c1ca850,69712dc693a3960bdb483245,697192124fb0f5c9800a952c,,,,,,,,,,,,,1,,,,,,,,,,,,,,,,,,,,,,,,,,,,,,,,,,,,,51,candado,,,,,329.667,330.6549,1,1,0.482,,0,70,70,50,1,REAL,FAKE,,,,,,,,,,,,,,,,,
,,,,,,,,,5efb5360f3f69c084c1ca850,Spanish,13 or older,"no, only English or Spanish",no,2026-01-21_21h57.49.012,empathy_intonation_perc_control,2024.2.4,Win32,163.9344262,5efb5360f3f69c084c1ca850,69712dc693a3960bdb483245,697192124fb0f5c9800a952c,,,,,,,,,,,,,1,,,,,,,,,,,,,,,,,,,,,,,,,,,,,,,,,,,,,73,hervidor,,,,,330.6555,331.7947,0,0,0.6326,,0,71,71,72,1,REAL,FAKE,,,,,,,,,,,,,,,,,
,,,,,,,,,5efb5360f3f69c084c1ca850,Spanish,13 or older,"no, only English or Spanish",no,2026-01-21_21h57.49.012,empathy_intonation_perc_control,2024.2.4,Win32,163.9344262,5efb5360f3f69c084c1ca850,69712dc693a3960bdb483245,697192124fb0f5c9800a952c,,,,,,,,,,,,,1,,,,,,,,,,,,,,,,,,,,,,,,,,,,,,,,,,,,,88,acantilado,,,,,331.7953,332.4558,1,1,0.1542,,0,72,72,87,1,REAL,FAKE,,,,,,,,,,,,,,,,,
,,,,,,,,,5efb5360f3f69c084c1ca850,Spanish,13 or older,"no, only English or Spanish",no,2026-01-21_21h57.49.012,empathy_intonation_perc_control,2024.2.4,Win32,163.9344262,5efb5360f3f69c084c1ca850,69712dc693a3960bdb483245,697192124fb0f5c9800a952c,,,,,,,,,,,,,1,,,,,,,,,,,,,,,,,,,,,,,,,,,,,,,,,,,,,15,regar,,,,,332.4563,333.5412,1,1,0.5768,,0,73,73,14,1,REAL,FAKE,,,,,,,,,,,,,,,,,
,,,,,,,,,5efb5360f3f69c084c1ca850,Spanish,13 or older,"no, only English or Spanish",no,2026-01-21_21h57.49.012,empathy_intonation_perc_control,2024.2.4,Win32,163.9344262,5efb5360f3f69c084c1ca850,69712dc693a3960bdb483245,697192124fb0f5c9800a952c,,,,,,,,,,,,,1,,,,,,,,,,,,,,,,,,,,,,,,,,,,,,,,,,,,,85,laúd,,,,,333.5419,334.3962,1,1,0.3448,,0,74,74,84,1,REAL,FAKE,,,,,,,,,,,,,,,,,
,,,,,,,,,5efb5360f3f69c084c1ca850,Spanish,13 or older,"no, only English or Spanish",no,2026-01-21_21h57.49.012,empathy_intonation_perc_control,2024.2.4,Win32,163.9344262,5efb5360f3f69c084c1ca850,69712dc693a3960bdb483245,697192124fb0f5c9800a952c,,,,,,,,,,,,,1,,,,,,,,,,,,,,,,,,,,,,,,,,,,,,,,,,,,,13,helar,,,,,334.397,335.4573,1,1,0.5517,,0,75,75,12,1,REAL,FAKE,,,,,,,,,,,,,,,,,
,,,,,,,,,5efb5360f3f69c084c1ca850,Spanish,13 or older,"no, only English or Spanish",no,2026-01-21_21h57.49.012,empathy_intonation_perc_control,2024.2.4,Win32,163.9344262,5efb5360f3f69c084c1ca850,69712dc693a3960bdb483245,697192124fb0f5c9800a952c,,,,,,,,,,,,,1,,,,,,,,,,,,,,,,,,,,,,,,,,,,,,,,,,,,,80,hormiga,,,,,335.4579,336.5185,0,0,0.5547,,0,76,76,79,1,REAL,FAKE,,,,,,,,,,,,,,,,,
,,,,,,,,,5efb5360f3f69c084c1ca850,Spanish,13 or older,"no, only English or Spanish",no,2026-01-21_21h57.49.012,empathy_intonation_perc_control,2024.2.4,Win32,163.9344262,5efb5360f3f69c084c1ca850,69712dc693a3960bdb483245,697192124fb0f5c9800a952c,,,,,,,,,,,,,1,,,,,,,,,,,,,,,,,,,,,,,,,,,,,,,,,,,,,81,pozo,,,,,336.5191,337.5196,1,1,0.4955,,0,77,77,80,1,REAL,FAKE,,,,,,,,,,,,,,,,,
,,,,,,,,,5efb5360f3f69c084c1ca850,Spanish,13 or older,"no, only English or Spanish",no,2026-01-21_21h57.49.012,empathy_intonation_perc_control,2024.2.4,Win32,163.9344262,5efb5360f3f69c084c1ca850,69712dc693a3960bdb483245,697192124fb0f5c9800a952c,,,,,,,,,,,,,0,,,,,,,,,,,,,,,,,,,,,,,,,,,,,,,,,,,,,82,empirador,,,,,337.5201,338.4103,0,1,0.3852,,0,78,78,81,1,REAL,FAKE,,,,,,,,,,,,,,,,,
,,,,,,,,,5efb5360f3f69c084c1ca850,Spanish,13 or older,"no, only English or Spanish",no,2026-01-21_21h57.49.012,empathy_intonation_perc_control,2024.2.4,Win32,163.9344262,5efb5360f3f69c084c1ca850,69712dc693a3960bdb483245,697192124fb0f5c9800a952c,,,,,,,,,,,,,1,,,,,,,,,,,,,,,,,,,,,,,,,,,,,,,,,,,,,12,asesinato,,,,,338.4108,339.2592,1,1,0.3426,,0,79,79,11,1,REAL,FAKE,,,,,,,,,,,,,,,,,
,,,,,,,,,5efb5360f3f69c084c1ca850,Spanish,13 or older,"no, only English or Spanish",no,2026-01-21_21h57.49.012,empathy_intonation_perc_control,2024.2.4,Win32,163.9344262,5efb5360f3f69c084c1ca850,69712dc693a3960bdb483245,697192124fb0f5c9800a952c,,,,,,,,,,,,,1,,,,,,,,,,,,,,,,,,,,,,,,,,,,,,,,,,,,,55,nevar,,,,,339.2599,339.969,1,1,0.2007,,0,80,80,54,1,REAL,FAKE,,,,,,,,,,,,,,,,,
,,,,,,,,,5efb5360f3f69c084c1ca850,Spanish,13 or older,"no, only English or Spanish",no,2026-01-21_21h57.49.012,empathy_intonation_perc_control,2024.2.4,Win32,163.9344262,5efb5360f3f69c084c1ca850,69712dc693a3960bdb483245,697192124fb0f5c9800a952c,,,,,,,,,,,,,0,,,,,,,,,,,,,,,,,,,,,,,,,,,,,,,,,,,,,58,plaudir,,,,,339.9696,341.1148,1,0,0.6363,,0,81,81,57,1,REAL,FAKE,,,,,,,,,,,,,,,,,
,,,,,,,,,5efb5360f3f69c084c1ca850,Spanish,13 or older,"no, only English or Spanish",no,2026-01-21_21h57.49.012,empathy_intonation_perc_control,2024.2.4,Win32,163.9344262,5efb5360f3f69c084c1ca850,69712dc693a3960bdb483245,697192124fb0f5c9800a952c,,,,,,,,,,,,,0,,,,,,,,,,,,,,,,,,,,,,,,,,,,,,,,,,,,,29,decar,,,,,341.1154,342.1335,1,0,0.5134,,0,82,82,28,1,REAL,FAKE,,,,,,,,,,,,,,,,,
,,,,,,,,,5efb5360f3f69c084c1ca850,Spanish,13 or older,"no, only English or Spanish",no,2026-01-21_21h57.49.012,empathy_intonation_perc_control,2024.2.4,Win32,163.9344262,5efb5360f3f69c084c1ca850,69712dc693a3960bdb483245,697192124fb0f5c9800a952c,,,,,,,,,,,,,0,,,,,,,,,,,,,,,,,,,,,,,,,,,,,,,,,,,,,1,terzo,,,,,342.1341,343.0129,1,0,0.3697,,0,83,83,0,1,REAL,FAKE,,,,,,,,,,,,,,,,,
,,,,,,,,,5efb5360f3f69c084c1ca850,Spanish,13 or older,"no, only English or Spanish",no,2026-01-21_21h57.49.012,empathy_intonation_perc_control,2024.2.4,Win32,163.9344262,5efb5360f3f69c084c1ca850,69712dc693a3960bdb483245,697192124fb0f5c9800a952c,,,,,,,,,,,,,0,,,,,,,,,,,,,,,,,,,,,,,,,,,,,,,,,,,,,63,esposante,,,,,343.0135,344.3286,1,0,0.8092,,0,84,84,62,1,REAL,FAKE,,,,,,,,,,,,,,,,,
,,,,,,,,,5efb5360f3f69c084c1ca850,Spanish,13 or older,"no, only English or Spanish",no,2026-01-21_21h57.49.012,empathy_intonation_perc_control,2024.2.4,Win32,163.9344262,5efb5360f3f69c084c1ca850,69712dc693a3960bdb483245,697192124fb0f5c9800a952c,,,,,,,,,,,,,1,,,,,,,,,,,,,,,,,,,,,,,,,,,,,,,,,,,,,28,merodear,,,,,344.3292,345.2261,0,0,0.3872,,0,85,85,27,1,REAL,FAKE,,,,,,,,,,,,,,,,,
,,,,,,,,,5efb5360f3f69c084c1ca850,Spanish,13 or older,"no, only English or Spanish",no,2026-01-21_21h57.49.012,empathy_intonation_perc_control,2024.2.4,Win32,163.9344262,5efb5360f3f69c084c1ca850,69712dc693a3960bdb483245,697192124fb0f5c9800a952c,,,,,,,,,,,,,1,,,,,,,,,,,,,,,,,,,,,,,,,,,,,,,,,,,,,6,tergiversar,,,,,345.2266,346.2757,0,0,0.5437,,0,86,86,5,1,REAL,FAKE,,,,,,,,,,,,,,,,,
,,,,,,,,,5efb5360f3f69c084c1ca850,Spanish,13 or older,"no, only English or Spanish",no,2026-01-21_21h57.49.012,empathy_intonation_perc_control,2024.2.4,Win32,163.9344262,5efb5360f3f69c084c1ca850,69712dc693a3960bdb483245,697192124fb0f5c9800a952c,,,,,,,,,,,,,1,,,,,,,,,,,,,,,,,,,,,,,,,,,,,,,,,,,,,76,atar,,,,,346.2763,347.7061,0,0,0.9219,,0,87,87,75,1,REAL,FAKE,,,,,,,,,,,,,,,,,
,,,,,,,,,5efb5360f3f69c084c1ca850,Spanish,13 or older,"no, only English or Spanish",no,2026-01-21_21h57.49.012,empathy_intonation_perc_control,2024.2.4,Win32,163.9344262,5efb5360f3f69c084c1ca850,69712dc693a3960bdb483245,697192124fb0f5c9800a952c,,,,,,,,,,,,,1,,,,,,,,,,,,,,,,,,,,,,,,,,,,,,,,,,,,,44,cuchara,,,,,347.7067,348.8461,1,1,0.6305,,0,88,88,43,1,REAL,FAKE,,,,,,,,,,,,,,,,,
,,,,,,,,,5efb5360f3f69c084c1ca850,Spanish,13 or older,"no, only English or Spanish",no,2026-01-21_21h57.49.012,empathy_intonation_perc_control,2024.2.4,Win32,163.9344262,5efb5360f3f69c084c1ca850,69712dc693a3960bdb483245,697192124fb0f5c9800a952c,,,,,,,,,,,,,1,,,,,,,,,,,,,,,,,,,,,,,,,,,,,,,,,,,,,62,flaco,,,,,348.8468,349.9568,1,1,0.6048,,0,89,89,61,1,REAL,FAKE,,,,,,,,,,,,,,,,,
,,,,,,,,,5efb5360f3f69c084c1ca850,Spanish,13 or older,"no, only English or Spanish",no,2026-01-21_21h57.49.012,empathy_intonation_perc_control,2024.2.4,Win32,163.9344262,5efb5360f3f69c084c1ca850,69712dc693a3960bdb483245,697192124fb0f5c9800a952c,,,,,,,,,,,,,0,,,,,,,,,,,,,,,,,,,,,,,,,,,,,,,,,,,,,32,fatacidad,,,,,349.9574,351.126,0,1,0.6605,,0,90,90,31,1,REAL,FAKE,,,,,,,,,,,,,,,,,
,,,,,,,,,5efb5360f3f69c084c1ca850,Spanish,13 or older,"no, only English or Spanish",no,2026-01-21_21h57.49.012,empathy_intonation_perc_control,2024.2.4,Win32,163.9344262,5efb5360f3f69c084c1ca850,69712dc693a3960bdb483245,697192124fb0f5c9800a952c,,,,,,,,,,,,,1,,,,,,,,,,,,,,,,,,,,,,,,,,,,,,,,,,,,,64,orgulloso,,,,,351.1266,352.739,1,1,1.1057,,0,91,91,63,1,REAL,FAKE,,,,,,,,,,,,,,,,,
,,,,,,,,,5efb5360f3f69c084c1ca850,Spanish,13 or older,"no, only English or Spanish",no,2026-01-21_21h57.49.012,empathy_intonation_perc_control,2024.2.4,Win32,163.9344262,5efb5360f3f69c084c1ca850,69712dc693a3960bdb483245,697192124fb0f5c9800a952c,,,,,,,,,,,,,,,,,,,,,,,,,,,,,,,,,,,,,,,,,,,,,,,,,,,,,,,,,,,,,,,,,,,,,352.7392,355.8801,,,,,,,,,,,,,,,
,,,,,,,,,5efb5360f3f69c084c1ca850,Spanish,13 or older,"no, only English or Spanish",no,2026-01-21_21h57.49.012,empathy_intonation_perc_control,2024.2.4,Win32,163.9344262,5efb5360f3f69c084c1ca850,69712dc693a3960bdb483245,697192124fb0f5c9800a952c,,,,,,,,,,,,,,,,,,,,,,,,,,,1,,,,,,,,,,,,,,,,,,,,,,,,,,,,,,,,,,,,,,,,,,,,355.8923,359.4942,strongly agree,0,0,0,0,1,I can easily tell if someone else wants to enter a conversation.,1,0,1,0,,
,,,,,,,,,5efb5360f3f69c084c1ca850,Spanish,13 or older,"no, only English or Spanish",no,2026-01-21_21h57.49.012,empathy_intonation_perc_control,2024.2.4,Win32,163.9344262,5efb5360f3f69c084c1ca850,69712dc693a3960bdb483245,697192124fb0f5c9800a952c,,,,,,,,,,,,,,,,,,,,,,,,,,,2,,,,,,,,,,,,,,,,,,,,,,,,,,,,,,,,,,,,,,,,,,,,359.4951,361.1009,strongly disagree,0,1,1,1,1,I prefer animals to humans.,0,1,0,0,,
,,,,,,,,,5efb5360f3f69c084c1ca850,Spanish,13 or older,"no, only English or Spanish",no,2026-01-21_21h57.49.012,empathy_intonation_perc_control,2024.2.4,Win32,163.9344262,5efb5360f3f69c084c1ca850,69712dc693a3960bdb483245,697192124fb0f5c9800a952c,,,,,,,,,,,,,,,,,,,,,,,,,,,3,,,,,,,,,,,,,,,,,,,,,,,,,,,,,,,,,,,,,,,,,,,,361.102,362.7138,strongly agree,0,2,2,2,1,I try to keep up with the current trends and fashions.,0,1,0,0,,
,,,,,,,,,5efb5360f3f69c084c1ca850,Spanish,13 or older,"no, only English or Spanish",no,2026-01-21_21h57.49.012,empathy_intonation_perc_control,2024.2.4,Win32,163.9344262,5efb5360f3f69c084c1ca850,69712dc693a3960bdb483245,697192124fb0f5c9800a952c,,,,,,,,,,,,,,,,,,,,,,,,,,,4,,,,,,,,,,,,,,,,,,,,,,,,,,,,,,,,,,,,,,,,,,,,362.715,366.0185,strongly disagree,0,3,3,3,1,"I find it difficult to explain to others things that I understand easily,   when they don't understand it first time.",1,0,0,1,,
,,,,,,,,,5efb5360f3f69c084c1ca850,Spanish,13 or older,"no, only English or Spanish",no,2026-01-21_21h57.49.012,empathy_intonation_perc_control,2024.2.4,Win32,163.9344262,5efb5360f3f69c084c1ca850,69712dc693a3960bdb483245,697192124fb0f5c9800a952c,,,,,,,,,,,,,,,,,,,,,,,,,,,5,,,,,,,,,,,,,,,,,,,,,,,,,,,,,,,,,,,,,,,,,,,,366.0192,367.9287,strongly disagree,0,4,4,4,1,I dream most nights.,0,1,0,0,,
,,,,,,,,,5efb5360f3f69c084c1ca850,Spanish,13 or older,"no, only English or Spanish",no,2026-01-21_21h57.49.012,empathy_intonation_perc_control,2024.2.4,Win32,163.9344262,5efb5360f3f69c084c1ca850,69712dc693a3960bdb483245,697192124fb0f5c9800a952c,,,,,,,,,,,,,,,,,,,,,,,,,,,6,,,,,,,,,,,,,,,,,,,,,,,,,,,,,,,,,,,,,,,,,,,,367.9298,369.7599,strongly agree,0,5,5,5,1,I really enjoy caring for other people.,1,0,1,0,,
,,,,,,,,,5efb5360f3f69c084c1ca850,Spanish,13 or older,"no, only English or Spanish",no,2026-01-21_21h57.49.012,empathy_intonation_perc_control,2024.2.4,Win32,163.9344262,5efb5360f3f69c084c1ca850,69712dc693a3960bdb483245,697192124fb0f5c9800a952c,,,,,,,,,,,,,,,,,,,,,,,,,,,7,,,,,,,,,,,,,,,,,,,,,,,,,,,,,,,,,,,,,,,,,,,,369.7608,372.7931,slightly disagree,0,6,6,6,1,I try to solve my own problems rather than discussing them with others.,0,1,0,0,,
,,,,,,,,,5efb5360f3f69c084c1ca850,Spanish,13 or older,"no, only English or Spanish",no,2026-01-21_21h57.49.012,empathy_intonation_perc_control,2024.2.4,Win32,163.9344262,5efb5360f3f69c084c1ca850,69712dc693a3960bdb483245,697192124fb0f5c9800a952c,,,,,,,,,,,,,,,,,,,,,,,,,,,8,,,,,,,,,,,,,,,,,,,,,,,,,,,,,,,,,,,,,,,,,,,,372.7936,374.5441,strongly agree,0,7,7,7,1,I find it hard to know what to do in a social situation.,1,0,0,1,,
,,,,,,,,,5efb5360f3f69c084c1ca850,Spanish,13 or older,"no, only English or Spanish",no,2026-01-21_21h57.49.012,empathy_intonation_perc_control,2024.2.4,Win32,163.9344262,5efb5360f3f69c084c1ca850,69712dc693a3960bdb483245,697192124fb0f5c9800a952c,,,,,,,,,,,,,,,,,,,,,,,,,,,9,,,,,,,,,,,,,,,,,,,,,,,,,,,,,,,,,,,,,,,,,,,,374.5449,376.2481,slightly agree,0,8,8,8,1,I am at my best first thing in the morning.,0,1,0,0,,
,,,,,,,,,5efb5360f3f69c084c1ca850,Spanish,13 or older,"no, only English or Spanish",no,2026-01-21_21h57.49.012,empathy_intonation_perc_control,2024.2.4,Win32,163.9344262,5efb5360f3f69c084c1ca850,69712dc693a3960bdb483245,697192124fb0f5c9800a952c,,,,,,,,,,,,,,,,,,,,,,,,,,,10,,,,,,,,,,,,,,,,,,,,,,,,,,,,,,,,,,,,,,,,,,,,376.249,379.9105,slightly disagree,0,9,9,9,1,People often tell me that I went too far in driving my point home in a discussion.,1,0,0,1,,
,,,,,,,,,5efb5360f3f69c084c1ca850,Spanish,13 or older,"no, only English or Spanish",no,2026-01-21_21h57.49.012,empathy_intonation_perc_control,2024.2.4,Win32,163.9344262,5efb5360f3f69c084c1ca850,69712dc693a3960bdb483245,697192124fb0f5c9800a952c,,,,,,,,,,,,,,,,,,,,,,,,,,,11,,,,,,,,,,,,,,,,,,,,,,,,,,,,,,,,,,,,,,,,,,,,379.9114,389.8979,strongly disagree,0,10,10,10,1,It doesn't bother me too much if I am late meeting a friend.,1,0,0,1,,
,,,,,,,,,5efb5360f3f69c084c1ca850,Spanish,13 or older,"no, only English or Spanish",no,2026-01-21_21h57.49.012,empathy_intonation_perc_control,2024.2.4,Win32,163.9344262,5efb5360f3f69c084c1ca850,69712dc693a3960bdb483245,697192124fb0f5c9800a952c,,,,,,,,,,,,,,,,,,,,,,,,,,,12,,,,,,,,,,,,,,,,,,,,,,,,,,,,,,,,,,,,,,,,,,,,389.8987,391.9107,strongly disagree,0,11,11,11,1,"Friendships and relationships are just too difficult, so I tend not to 
  bother with them.",1,0,0,1,,
,,,,,,,,,5efb5360f3f69c084c1ca850,Spanish,13 or older,"no, only English or Spanish",no,2026-01-21_21h57.49.012,empathy_intonation_perc_control,2024.2.4,Win32,163.9344262,5efb5360f3f69c084c1ca850,69712dc693a3960bdb483245,697192124fb0f5c9800a952c,,,,,,,,,,,,,,,,,,,,,,,,,,,13,,,,,,,,,,,,,,,,,,,,,,,,,,,,,,,,,,,,,,,,,,,,391.9115,395.2276,strongly disagree,0,12,12,12,1,"I would never break a law, no matter how minor.",0,1,0,0,,
,,,,,,,,,5efb5360f3f69c084c1ca850,Spanish,13 or older,"no, only English or Spanish",no,2026-01-21_21h57.49.012,empathy_intonation_perc_control,2024.2.4,Win32,163.9344262,5efb5360f3f69c084c1ca850,69712dc693a3960bdb483245,697192124fb0f5c9800a952c,,,,,,,,,,,,,,,,,,,,,,,,,,,14,,,,,,,,,,,,,,,,,,,,,,,,,,,,,,,,,,,,,,,,,,,,395.2284,401.1761,strongly disagree,0,13,13,13,1,I often find it difficult to judge if something is rude or polite.,1,0,0,1,,
,,,,,,,,,5efb5360f3f69c084c1ca850,Spanish,13 or older,"no, only English or Spanish",no,2026-01-21_21h57.49.012,empathy_intonation_perc_control,2024.2.4,Win32,163.9344262,5efb5360f3f69c084c1ca850,69712dc693a3960bdb483245,697192124fb0f5c9800a952c,,,,,,,,,,,,,,,,,,,,,,,,,,,15,,,,,,,,,,,,,,,,,,,,,,,,,,,,,,,,,,,,,,,,,,,,401.177,405.2703,slightly disagree,0,14,14,14,1,"In a conversation, I tend to focus on my own thoughts rather than on what 
  my listener might be thinking.",1,0,0,1,,
,,,,,,,,,5efb5360f3f69c084c1ca850,Spanish,13 or older,"no, only English or Spanish",no,2026-01-21_21h57.49.012,empathy_intonation_perc_control,2024.2.4,Win32,163.9344262,5efb5360f3f69c084c1ca850,69712dc693a3960bdb483245,697192124fb0f5c9800a952c,,,,,,,,,,,,,,,,,,,,,,,,,,,16,,,,,,,,,,,,,,,,,,,,,,,,,,,,,,,,,,,,,,,,,,,,405.2708,408.4587,slightly disagree,0,15,15,15,1,I prefer practical jokes to verbal humor.,0,1,0,0,,
,,,,,,,,,5efb5360f3f69c084c1ca850,Spanish,13 or older,"no, only English or Spanish",no,2026-01-21_21h57.49.012,empathy_intonation_perc_control,2024.2.4,Win32,163.9344262,5efb5360f3f69c084c1ca850,69712dc693a3960bdb483245,697192124fb0f5c9800a952c,,,,,,,,,,,,,,,,,,,,,,,,,,,17,,,,,,,,,,,,,,,,,,,,,,,,,,,,,,,,,,,,,,,,,,,,408.4598,409.9139,slightly agree,0,16,16,16,1,I live life for today rather than the future.,0,1,0,0,,
,,,,,,,,,5efb5360f3f69c084c1ca850,Spanish,13 or older,"no, only English or Spanish",no,2026-01-21_21h57.49.012,empathy_intonation_perc_control,2024.2.4,Win32,163.9344262,5efb5360f3f69c084c1ca850,69712dc693a3960bdb483245,697192124fb0f5c9800a952c,,,,,,,,,,,,,,,,,,,,,,,,,,,18,,,,,,,,,,,,,,,,,,,,,,,,,,,,,,,,,,,,,,,,,,,,409.9152,412.4061,strongly disagree,0,17,17,17,1,"When I was a child, I enjoyed cutting up worms to see what would happen.",1,0,0,1,,
,,,,,,,,,5efb5360f3f69c084c1ca850,Spanish,13 or older,"no, only English or Spanish",no,2026-01-21_21h57.49.012,empathy_intonation_perc_control,2024.2.4,Win32,163.9344262,5efb5360f3f69c084c1ca850,69712dc693a3960bdb483245,697192124fb0f5c9800a952c,,,,,,,,,,,,,,,,,,,,,,,,,,,19,,,,,,,,,,,,,,,,,,,,,,,,,,,,,,,,,,,,,,,,,,,,412.4069,415.5479,strongly agree,0,18,18,18,1,I can pick up quickly if someone says one thing but means another.,1,0,1,0,,
,,,,,,,,,5efb5360f3f69c084c1ca850,Spanish,13 or older,"no, only English or Spanish",no,2026-01-21_21h57.49.012,empathy_intonation_perc_control,2024.2.4,Win32,163.9344262,5efb5360f3f69c084c1ca850,69712dc693a3960bdb483245,697192124fb0f5c9800a952c,,,,,,,,,,,,,,,,,,,,,,,,,,,20,,,,,,,,,,,,,,,,,,,,,,,,,,,,,,,,,,,,,,,,,,,,415.5488,418.326,slightly agree,0,19,19,19,1,I tend to have very strong opinions about morality.,0,1,0,0,,
,,,,,,,,,5efb5360f3f69c084c1ca850,Spanish,13 or older,"no, only English or Spanish",no,2026-01-21_21h57.49.012,empathy_intonation_perc_control,2024.2.4,Win32,163.9344262,5efb5360f3f69c084c1ca850,69712dc693a3960bdb483245,697192124fb0f5c9800a952c,,,,,,,,,,,,,,,,,,,,,,,,,,,21,,,,,,,,,,,,,,,,,,,,,,,,,,,,,,,,,,,,,,,,,,,,418.3267,420.3011,slightly agree,0,20,20,20,1,It is hard for me to see why some things upset people so much.,1,0,0,1,,
,,,,,,,,,5efb5360f3f69c084c1ca850,Spanish,13 or older,"no, only English or Spanish",no,2026-01-21_21h57.49.012,empathy_intonation_perc_control,2024.2.4,Win32,163.9344262,5efb5360f3f69c084c1ca850,69712dc693a3960bdb483245,697192124fb0f5c9800a952c,,,,,,,,,,,,,,,,,,,,,,,,,,,22,,,,,,,,,,,,,,,,,,,,,,,,,,,,,,,,,,,,,,,,,,,,420.3018,421.6715,strongly agree,0,21,21,21,1,I find it easy to put myself in somebody else's shoes.,1,0,1,0,,
,,,,,,,,,5efb5360f3f69c084c1ca850,Spanish,13 or older,"no, only English or Spanish",no,2026-01-21_21h57.49.012,empathy_intonation_perc_control,2024.2.4,Win32,163.9344262,5efb5360f3f69c084c1ca850,69712dc693a3960bdb483245,697192124fb0f5c9800a952c,,,,,,,,,,,,,,,,,,,,,,,,,,,23,,,,,,,,,,,,,,,,,,,,,,,,,,,,,,,,,,,,,,,,,,,,421.6725,425.2673,strongly agree,0,22,22,22,1,I think that good manners are the most important thing a parent can teach their child.,0,1,0,0,,
,,,,,,,,,5efb5360f3f69c084c1ca850,Spanish,13 or older,"no, only English or Spanish",no,2026-01-21_21h57.49.012,empathy_intonation_perc_control,2024.2.4,Win32,163.9344262,5efb5360f3f69c084c1ca850,69712dc693a3960bdb483245,697192124fb0f5c9800a952c,,,,,,,,,,,,,,,,,,,,,,,,,,,24,,,,,,,,,,,,,,,,,,,,,,,,,,,,,,,,,,,,,,,,,,,,425.2682,427.42,slightly disagree,0,23,23,23,1,I like to do things on the spur of the moment.,0,1,0,0,,
,,,,,,,,,5efb5360f3f69c084c1ca850,Spanish,13 or older,"no, only English or Spanish",no,2026-01-21_21h57.49.012,empathy_intonation_perc_control,2024.2.4,Win32,163.9344262,5efb5360f3f69c084c1ca850,69712dc693a3960bdb483245,697192124fb0f5c9800a952c,,,,,,,,,,,,,,,,,,,,,,,,,,,25,,,,,,,,,,,,,,,,,,,,,,,,,,,,,,,,,,,,,,,,,,,,427.4208,429.039,slightly agree,0,24,24,24,1,I am good at predicting how someone will feel.,1,0,1,0,,
