instructions_2afc.started,instructions_2afc.stopped,instructions_2afc_loop.thisRepN,instructions_2afc_loop.thisTrialN,instructions_2afc_loop.thisN,instructions_2afc_loop.thisIndex,instructions_2afc_loop.ran,instructions_text,continue_text,participant_id,"What variety of Spanish are you most familiar with? (e.g., Peruvian, Spanish, Mexican)",At what age did you begin learning Spanish?,Are you proficient in any languages other than English/Spanish?,"Are you familiar with Caribbean (e.g., Caribbean, Puerto Rican) or Galician Spanish?",date,expName,psychopyVersion,OS,frameRate,id,study_id,session,practice_2afc.started,practice_2afc.stopped,key_resp_2afc_practice.keys,key_resp_2afc_practice.corr,key_resp_2afc_practice.rt,key_resp_2afc_practice.duration,trials_2afc_practice_loop.thisRepN,trials_2afc_practice_loop.thisTrialN,trials_2afc_practice_loop.thisN,trials_2afc_practice_loop.thisIndex,trials_2afc_practice_loop.ran,path,correct_response,check_2afc.started,check_2afc.stopped,trial_2afc.started,trial_2afc.stopped,key_resp_2afc_trial.keys,key_resp_2afc_trial.corr,key_resp_2afc_trial.rt,key_resp_2afc_trial.duration,trials_2afc_loop.thisRepN,trials_2afc_loop.thisTrialN,trials_2afc_loop.thisN,trials_2afc_loop.thisIndex,trials_2afc_loop.ran,item_num,target,variety,instructions_lextale.started,instructions_lextale.stopped,instructions_lextale_loop.thisRepN,instructions_lextale_loop.thisTrialN,instructions_lextale_loop.thisN,instructions_lextale_loop.thisIndex,instructions_lextale_loop.ran,practice_lextale.started,practice_lextale.stopped,key_resp_lextale_practice.keys,key_resp_lextale_practice.corr,key_resp_lextale_practice.rt,key_resp_lextale_practice.duration,practice_feedback_lextale.started,practice_feedback_lextale.stopped,trials_lextale_practice_loop.thisRepN,trials_lextale_practice_loop.thisTrialN,trials_lextale_practice_loop.thisN,trials_lextale_practice_loop.thisIndex,trials_lextale_practice_loop.ran,stim,word,prac_button_real,prac_button_false,check_lextale.started,check_lextale.stopped,trial_lextale.started,trial_lextale.stopped,key_resp_lextale_trial.keys,key_resp_lextale_trial.corr,key_resp_lextale_trial.rt,key_resp_lextale_trial.duration,trials_lextale_loop.thisRepN,trials_lextale_loop.thisTrialN,trials_lextale_loop.thisN,trials_lextale_loop.thisIndex,trials_lextale_loop.ran,button_real,button_false,instructions_eq.started,instructions_eq.stopped,trial_eq.started,trial_eq.stopped,slider_eq_trial.response,trials_eq_loop.thisRepN,trials_eq_loop.thisTrialN,trials_eq_loop.thisN,trials_eq_loop.thisIndex,trials_eq_loop.ran,item,is_test_item,is_distractor,is_agree_score,is_disagree_score,end_exp.started,end_exp.stopped
0.0188,3.9784,0,0,0,0,1,"In the following task you are going to hear a series of utterances. 

  You will decide if the utterances sound like questions or not using your keyboard.", (press the spacebar to continue),5f0527d40807f31c712153eb,spanish,13 or older,click here to respond,no,2025-07-24_10h53.41.039,empathy_intonation_perc_control,2024.2.4,Win32,59.88023952,5f0527d40807f31c712153eb,68817205a84113384fffdfe3,688248ce8d4408159721f2ff,,,,,,,,,,,,,,,,,,,,,,,,,,,,,,,,,,,,,,,,,,,,,,,,,,,,,,,,,,,,,,,,,,,,,,,,,,,,,,,,,,,,,
3.9815,11.9741,0,1,1,1,1,"If you believe the utterance is a question, type '1' (for 'yes') and if you do not 
  believe it is a question type '0' (for 'no').

  Let's practice a bit...", (press the spacebar to continue),5f0527d40807f31c712153eb,spanish,13 or older,click here to respond,no,2025-07-24_10h53.41.039,empathy_intonation_perc_control,2024.2.4,Win32,59.88023952,5f0527d40807f31c712153eb,68817205a84113384fffdfe3,688248ce8d4408159721f2ff,,,,,,,,,,,,,,,,,,,,,,,,,,,,,,,,,,,,,,,,,,,,,,,,,,,,,,,,,,,,,,,,,,,,,,,,,,,,,,,,,,,,,
,,,,,,,,,5f0527d40807f31c712153eb,spanish,13 or older,click here to respond,no,2025-07-24_10h53.41.039,empathy_intonation_perc_control,2024.2.4,Win32,59.88023952,5f0527d40807f31c712153eb,68817205a84113384fffdfe3,688248ce8d4408159721f2ff,11.9868,16.2421,1,1,3.7297,,0,0,0,0,1,./stim/wavs/castilian_question_filler_Mi-esposo-conoce-al-chico.wav,1,,,,,,,,,,,,,,,,,,,,,,,,,,,,,,,,,,,,,,,,,,,,,,,,,,,,,,,,,,,,,,,,,,,,,,,,
,,,,,,,,,5f0527d40807f31c712153eb,spanish,13 or older,click here to respond,no,2025-07-24_10h53.41.039,empathy_intonation_perc_control,2024.2.4,Win32,59.88023952,5f0527d40807f31c712153eb,68817205a84113384fffdfe3,688248ce8d4408159721f2ff,16.2435,20.1497,0,1,3.3801,,0,1,1,4,1,./stim/wavs/cuban_statement_filler_Cocinabas-por-la-noche.wav,0,,,,,,,,,,,,,,,,,,,,,,,,,,,,,,,,,,,,,,,,,,,,,,,,,,,,,,,,,,,,,,,,,,,,,,,,
,,,,,,,,,5f0527d40807f31c712153eb,spanish,13 or older,click here to respond,no,2025-07-24_10h53.41.039,empathy_intonation_perc_control,2024.2.4,Win32,59.88023952,5f0527d40807f31c712153eb,68817205a84113384fffdfe3,688248ce8d4408159721f2ff,20.1506,23.0249,0,1,2.3336,,0,2,2,6,1,./stim/wavs/peruvian_statement_filler_El-nino-habla-con-su-madre.wav,0,,,,,,,,,,,,,,,,,,,,,,,,,,,,,,,,,,,,,,,,,,,,,,,,,,,,,,,,,,,,,,,,,,,,,,,,
,,,,,,,,,5f0527d40807f31c712153eb,spanish,13 or older,click here to respond,no,2025-07-24_10h53.41.039,empathy_intonation_perc_control,2024.2.4,Win32,59.88023952,5f0527d40807f31c712153eb,68817205a84113384fffdfe3,688248ce8d4408159721f2ff,23.0258,25.2847,0,1,1.7332,,0,3,3,7,1,./stim/wavs/puertorican_statement_filler_La-nina-pinta-con-su-amiga.wav,0,,,,,,,,,,,,,,,,,,,,,,,,,,,,,,,,,,,,,,,,,,,,,,,,,,,,,,,,,,,,,,,,,,,,,,,,
,,,,,,,,,5f0527d40807f31c712153eb,spanish,13 or older,click here to respond,no,2025-07-24_10h53.41.039,empathy_intonation_perc_control,2024.2.4,Win32,59.88023952,5f0527d40807f31c712153eb,68817205a84113384fffdfe3,688248ce8d4408159721f2ff,25.2854,27.7823,1,1,1.9704,,0,4,4,1,1,./stim/wavs/argentine_question_filler_Mi-vecino-habla-mucho.wav,1,,,,,,,,,,,,,,,,,,,,,,,,,,,,,,,,,,,,,,,,,,,,,,,,,,,,,,,,,,,,,,,,,,,,,,,,
,,,,,,,,,5f0527d40807f31c712153eb,spanish,13 or older,click here to respond,no,2025-07-24_10h53.41.039,empathy_intonation_perc_control,2024.2.4,Win32,59.88023952,5f0527d40807f31c712153eb,68817205a84113384fffdfe3,688248ce8d4408159721f2ff,27.7831,30.9913,1,1,2.6893,,0,5,5,2,1,./stim/wavs/chilean_question_filler_Mi-padre-cantaba-bien.wav,1,,,,,,,,,,,,,,,,,,,,,,,,,,,,,,,,,,,,,,,,,,,,,,,,,,,,,,,,,,,,,,,,,,,,,,,,
,,,,,,,,,5f0527d40807f31c712153eb,spanish,13 or older,click here to respond,no,2025-07-24_10h53.41.039,empathy_intonation_perc_control,2024.2.4,Win32,59.88023952,5f0527d40807f31c712153eb,68817205a84113384fffdfe3,688248ce8d4408159721f2ff,30.9921,33.9944,1,1,2.4849,,0,6,6,3,1,./stim/wavs/mexican_question_filler_Felipe-no-tiene-contrasena.wav,1,,,,,,,,,,,,,,,,,,,,,,,,,,,,,,,,,,,,,,,,,,,,,,,,,,,,,,,,,,,,,,,,,,,,,,,,
,,,,,,,,,5f0527d40807f31c712153eb,spanish,13 or older,click here to respond,no,2025-07-24_10h53.41.039,empathy_intonation_perc_control,2024.2.4,Win32,59.88023952,5f0527d40807f31c712153eb,68817205a84113384fffdfe3,688248ce8d4408159721f2ff,33.9953,36.4578,0,1,1.9335,,0,7,7,5,1,./stim/wavs/andalusian_statement_filler_Alberto-nunca-se-afeita.wav,0,,,,,,,,,,,,,,,,,,,,,,,,,,,,,,,,,,,,,,,,,,,,,,,,,,,,,,,,,,,,,,,,,,,,,,,,
,,,,,,,,,5f0527d40807f31c712153eb,spanish,13 or older,click here to respond,no,2025-07-24_10h53.41.039,empathy_intonation_perc_control,2024.2.4,Win32,59.88023952,5f0527d40807f31c712153eb,68817205a84113384fffdfe3,688248ce8d4408159721f2ff,,,,,,,,,,,,,,36.4583,39.2252,,,,,,,,,,,,,,,,,,,,,,,,,,,,,,,,,,,,,,,,,,,,,,,,,,,,,,,,,,,,,,,,,,,,,,
,,,,,,,,,5f0527d40807f31c712153eb,spanish,13 or older,click here to respond,no,2025-07-24_10h53.41.039,empathy_intonation_perc_control,2024.2.4,Win32,59.88023952,5f0527d40807f31c712153eb,68817205a84113384fffdfe3,688248ce8d4408159721f2ff,,,,,,,,,,,,./stim/wavs/castilian_mismatch_interrogative-total-yn_La-nina-lava-el-plato.wav,1,,,39.236,41.8752,1,1,2.1232,,0,0,0,25,1,26,0,castilian,,,,,,,,,,,,,,,,,,,,,,,,,,,,,,,,,,,,,,,,,,,,,,,,,,,,,,,,
,,,,,,,,,5f0527d40807f31c712153eb,spanish,13 or older,click here to respond,no,2025-07-24_10h53.41.039,empathy_intonation_perc_control,2024.2.4,Win32,59.88023952,5f0527d40807f31c712153eb,68817205a84113384fffdfe3,688248ce8d4408159721f2ff,,,,,,,,,,,,./stim/wavs/puertorican_mismatch_declarative-broad-focus_La-nina-lava-el-plato.wav,0,,,41.8763,44.0411,0,1,1.6389,,0,1,1,87,1,88,0,puertorican,,,,,,,,,,,,,,,,,,,,,,,,,,,,,,,,,,,,,,,,,,,,,,,,,,,,,,,,
,,,,,,,,,5f0527d40807f31c712153eb,spanish,13 or older,click here to respond,no,2025-07-24_10h53.41.039,empathy_intonation_perc_control,2024.2.4,Win32,59.88023952,5f0527d40807f31c712153eb,68817205a84113384fffdfe3,688248ce8d4408159721f2ff,,,,,,,,,,,,./stim/wavs/mexican_match_declarative-broad-focus_David-leia-el-libro.wav,0,,,44.042,46.1579,0,1,1.5928,,0,2,2,58,1,59,0,mexican,,,,,,,,,,,,,,,,,,,,,,,,,,,,,,,,,,,,,,,,,,,,,,,,,,,,,,,,
,,,,,,,,,5f0527d40807f31c712153eb,spanish,13 or older,click here to respond,no,2025-07-24_10h53.41.039,empathy_intonation_perc_control,2024.2.4,Win32,59.88023952,5f0527d40807f31c712153eb,68817205a84113384fffdfe3,688248ce8d4408159721f2ff,,,,,,,,,,,,./stim/wavs/puertorican_mismatch_interrogative-total-yn_El-nino-oye-el-rio.wav,1,,,46.1586,48.4581,0,0,1.7792,,0,3,3,40,1,41,1,puertorican,,,,,,,,,,,,,,,,,,,,,,,,,,,,,,,,,,,,,,,,,,,,,,,,,,,,,,,,
,,,,,,,,,5f0527d40807f31c712153eb,spanish,13 or older,click here to respond,no,2025-07-24_10h53.41.039,empathy_intonation_perc_control,2024.2.4,Win32,59.88023952,5f0527d40807f31c712153eb,68817205a84113384fffdfe3,688248ce8d4408159721f2ff,,,,,,,,,,,,./stim/wavs/castilian_match_declarative-broad-focus_Maria-bebe-el-vino.wav,0,,,48.4589,50.6578,0,1,1.673,,0,4,4,47,1,48,0,castilian,,,,,,,,,,,,,,,,,,,,,,,,,,,,,,,,,,,,,,,,,,,,,,,,,,,,,,,,
,,,,,,,,,5f0527d40807f31c712153eb,spanish,13 or older,click here to respond,no,2025-07-24_10h53.41.039,empathy_intonation_perc_control,2024.2.4,Win32,59.88023952,5f0527d40807f31c712153eb,68817205a84113384fffdfe3,688248ce8d4408159721f2ff,,,,,,,,,,,,./stim/wavs/cuban_match_interrogative-total-yn_Maria-bebe-el-vino.wav,1,,,50.6583,52.511,1,1,1.326,,0,5,5,9,1,10,1,cuban,,,,,,,,,,,,,,,,,,,,,,,,,,,,,,,,,,,,,,,,,,,,,,,,,,,,,,,,
,,,,,,,,,5f0527d40807f31c712153eb,spanish,13 or older,click here to respond,no,2025-07-24_10h53.41.039,empathy_intonation_perc_control,2024.2.4,Win32,59.88023952,5f0527d40807f31c712153eb,68817205a84113384fffdfe3,688248ce8d4408159721f2ff,,,,,,,,,,,,./stim/wavs/cuban_mismatch_declarative-broad-focus_Mi-tia-odia-la-lluvia.wav,0,,,52.5119,54.719,0,1,1.6782,,0,6,6,77,1,78,0,cuban,,,,,,,,,,,,,,,,,,,,,,,,,,,,,,,,,,,,,,,,,,,,,,,,,,,,,,,,
,,,,,,,,,5f0527d40807f31c712153eb,spanish,13 or older,click here to respond,no,2025-07-24_10h53.41.039,empathy_intonation_perc_control,2024.2.4,Win32,59.88023952,5f0527d40807f31c712153eb,68817205a84113384fffdfe3,688248ce8d4408159721f2ff,,,,,,,,,,,,./stim/wavs/mexican_mismatch_declarative-broad-focus_Mi-tia-odia-la-lluvia.wav,0,,,54.7194,56.6609,0,1,1.4005,,0,7,7,82,1,83,0,mexican,,,,,,,,,,,,,,,,,,,,,,,,,,,,,,,,,,,,,,,,,,,,,,,,,,,,,,,,
,,,,,,,,,5f0527d40807f31c712153eb,spanish,13 or older,click here to respond,no,2025-07-24_10h53.41.039,empathy_intonation_perc_control,2024.2.4,Win32,59.88023952,5f0527d40807f31c712153eb,68817205a84113384fffdfe3,688248ce8d4408159721f2ff,,,,,,,,,,,,./stim/wavs/cuban_mismatch_interrogative-total-yn_El-hombre-mira-la-luna.wav,1,,,56.6619,58.6411,0,0,1.4503,,0,8,8,29,1,30,1,cuban,,,,,,,,,,,,,,,,,,,,,,,,,,,,,,,,,,,,,,,,,,,,,,,,,,,,,,,,
,,,,,,,,,5f0527d40807f31c712153eb,spanish,13 or older,click here to respond,no,2025-07-24_10h53.41.039,empathy_intonation_perc_control,2024.2.4,Win32,59.88023952,5f0527d40807f31c712153eb,68817205a84113384fffdfe3,688248ce8d4408159721f2ff,,,,,,,,,,,,./stim/wavs/mexican_mismatch_declarative-broad-focus_La-maestra-vive-en-Paris.wav,0,,,58.6419,60.7274,0,1,1.5525,,0,9,9,80,1,81,0,mexican,,,,,,,,,,,,,,,,,,,,,,,,,,,,,,,,,,,,,,,,,,,,,,,,,,,,,,,,
,,,,,,,,,5f0527d40807f31c712153eb,spanish,13 or older,click here to respond,no,2025-07-24_10h53.41.039,empathy_intonation_perc_control,2024.2.4,Win32,59.88023952,5f0527d40807f31c712153eb,68817205a84113384fffdfe3,688248ce8d4408159721f2ff,,,,,,,,,,,,./stim/wavs/mexican_mismatch_interrogative-total-yn_El-hombre-mira-la-luna.wav,1,,,60.7284,62.3895,1,1,1.1317,,0,10,10,34,1,35,0,mexican,,,,,,,,,,,,,,,,,,,,,,,,,,,,,,,,,,,,,,,,,,,,,,,,,,,,,,,,
,,,,,,,,,5f0527d40807f31c712153eb,spanish,13 or older,click here to respond,no,2025-07-24_10h53.41.039,empathy_intonation_perc_control,2024.2.4,Win32,59.88023952,5f0527d40807f31c712153eb,68817205a84113384fffdfe3,688248ce8d4408159721f2ff,,,,,,,,,,,,./stim/wavs/cuban_mismatch_declarative-broad-focus_El-hombre-mira-la-luna.wav,0,,,62.3902,64.5909,0,1,1.6889,,0,11,11,74,1,75,0,cuban,,,,,,,,,,,,,,,,,,,,,,,,,,,,,,,,,,,,,,,,,,,,,,,,,,,,,,,,
,,,,,,,,,5f0527d40807f31c712153eb,spanish,13 or older,click here to respond,no,2025-07-24_10h53.41.039,empathy_intonation_perc_control,2024.2.4,Win32,59.88023952,5f0527d40807f31c712153eb,68817205a84113384fffdfe3,688248ce8d4408159721f2ff,,,,,,,,,,,,./stim/wavs/castilian_match_interrogative-total-yn_David-leia-el-libro.wav,1,,,64.5916,66.8748,1,1,1.7561,,0,12,12,0,1,1,0,castilian,,,,,,,,,,,,,,,,,,,,,,,,,,,,,,,,,,,,,,,,,,,,,,,,,,,,,,,,
,,,,,,,,,5f0527d40807f31c712153eb,spanish,13 or older,click here to respond,no,2025-07-24_10h53.41.039,empathy_intonation_perc_control,2024.2.4,Win32,59.88023952,5f0527d40807f31c712153eb,68817205a84113384fffdfe3,688248ce8d4408159721f2ff,,,,,,,,,,,,./stim/wavs/mexican_match_declarative-broad-focus_Emilio-ama-la-marcha.wav,0,,,66.8754,69.0131,0,1,1.6148,,0,13,13,59,1,60,0,mexican,,,,,,,,,,,,,,,,,,,,,,,,,,,,,,,,,,,,,,,,,,,,,,,,,,,,,,,,
,,,,,,,,,5f0527d40807f31c712153eb,spanish,13 or older,click here to respond,no,2025-07-24_10h53.41.039,empathy_intonation_perc_control,2024.2.4,Win32,59.88023952,5f0527d40807f31c712153eb,68817205a84113384fffdfe3,688248ce8d4408159721f2ff,,,,,,,,,,,,./stim/wavs/mexican_match_interrogative-total-yn_Ana-lleva-el-abrigo.wav,1,,,69.0138,71.0623,1,1,1.5213,,0,14,14,12,1,13,0,mexican,,,,,,,,,,,,,,,,,,,,,,,,,,,,,,,,,,,,,,,,,,,,,,,,,,,,,,,,
,,,,,,,,,5f0527d40807f31c712153eb,spanish,13 or older,click here to respond,no,2025-07-24_10h53.41.039,empathy_intonation_perc_control,2024.2.4,Win32,59.88023952,5f0527d40807f31c712153eb,68817205a84113384fffdfe3,688248ce8d4408159721f2ff,,,,,,,,,,,,./stim/wavs/castilian_mismatch_interrogative-total-yn_La-maestra-vive-en-Paris.wav,1,,,71.0628,73.6743,1,1,2.0836,,0,15,15,24,1,25,0,castilian,,,,,,,,,,,,,,,,,,,,,,,,,,,,,,,,,,,,,,,,,,,,,,,,,,,,,,,,
,,,,,,,,,5f0527d40807f31c712153eb,spanish,13 or older,click here to respond,no,2025-07-24_10h53.41.039,empathy_intonation_perc_control,2024.2.4,Win32,59.88023952,5f0527d40807f31c712153eb,68817205a84113384fffdfe3,688248ce8d4408159721f2ff,,,,,,,,,,,,./stim/wavs/puertorican_mismatch_interrogative-total-yn_Mi-madre-come-la-fruta.wav,1,,,73.6752,75.7345,0,0,1.5365,,0,16,16,43,1,44,1,puertorican,,,,,,,,,,,,,,,,,,,,,,,,,,,,,,,,,,,,,,,,,,,,,,,,,,,,,,,,
,,,,,,,,,5f0527d40807f31c712153eb,spanish,13 or older,click here to respond,no,2025-07-24_10h53.41.039,empathy_intonation_perc_control,2024.2.4,Win32,59.88023952,5f0527d40807f31c712153eb,68817205a84113384fffdfe3,688248ce8d4408159721f2ff,,,,,,,,,,,,./stim/wavs/puertorican_match_interrogative-total-yn_Emilio-ama-la-marcha.wav,1,,,75.7353,77.7576,0,0,1.5002,,0,17,17,21,1,22,1,puertorican,,,,,,,,,,,,,,,,,,,,,,,,,,,,,,,,,,,,,,,,,,,,,,,,,,,,,,,,
,,,,,,,,,5f0527d40807f31c712153eb,spanish,13 or older,click here to respond,no,2025-07-24_10h53.41.039,empathy_intonation_perc_control,2024.2.4,Win32,59.88023952,5f0527d40807f31c712153eb,68817205a84113384fffdfe3,688248ce8d4408159721f2ff,,,,,,,,,,,,./stim/wavs/castilian_match_interrogative-total-yn_Manuela-vende-el-carro.wav,1,,,77.758,79.8774,1,1,1.5926,,0,18,18,2,1,3,0,castilian,,,,,,,,,,,,,,,,,,,,,,,,,,,,,,,,,,,,,,,,,,,,,,,,,,,,,,,,
,,,,,,,,,5f0527d40807f31c712153eb,spanish,13 or older,click here to respond,no,2025-07-24_10h53.41.039,empathy_intonation_perc_control,2024.2.4,Win32,59.88023952,5f0527d40807f31c712153eb,68817205a84113384fffdfe3,688248ce8d4408159721f2ff,,,,,,,,,,,,./stim/wavs/castilian_mismatch_declarative-broad-focus_La-maestra-vive-en-Paris.wav,0,,,79.8784,82.4079,0,1,2.0004,,0,19,19,69,1,70,0,castilian,,,,,,,,,,,,,,,,,,,,,,,,,,,,,,,,,,,,,,,,,,,,,,,,,,,,,,,,
,,,,,,,,,5f0527d40807f31c712153eb,spanish,13 or older,click here to respond,no,2025-07-24_10h53.41.039,empathy_intonation_perc_control,2024.2.4,Win32,59.88023952,5f0527d40807f31c712153eb,68817205a84113384fffdfe3,688248ce8d4408159721f2ff,,,,,,,,,,,,./stim/wavs/cuban_match_declarative-broad-focus_Maria-bebe-el-vino.wav,0,,,82.4088,84.5917,0,1,1.6596,,0,20,20,53,1,54,0,cuban,,,,,,,,,,,,,,,,,,,,,,,,,,,,,,,,,,,,,,,,,,,,,,,,,,,,,,,,
,,,,,,,,,5f0527d40807f31c712153eb,spanish,13 or older,click here to respond,no,2025-07-24_10h53.41.039,empathy_intonation_perc_control,2024.2.4,Win32,59.88023952,5f0527d40807f31c712153eb,68817205a84113384fffdfe3,688248ce8d4408159721f2ff,,,,,,,,,,,,./stim/wavs/mexican_match_interrogative-total-yn_Emilio-ama-la-marcha.wav,1,,,84.5923,86.7271,1,1,1.6092,,0,21,21,15,1,16,0,mexican,,,,,,,,,,,,,,,,,,,,,,,,,,,,,,,,,,,,,,,,,,,,,,,,,,,,,,,,
,,,,,,,,,5f0527d40807f31c712153eb,spanish,13 or older,click here to respond,no,2025-07-24_10h53.41.039,empathy_intonation_perc_control,2024.2.4,Win32,59.88023952,5f0527d40807f31c712153eb,68817205a84113384fffdfe3,688248ce8d4408159721f2ff,,,,,,,,,,,,./stim/wavs/cuban_match_interrogative-total-yn_Marta-abre-el-regalo.wav,1,,,86.7276,88.9018,0,0,1.6446,,0,22,22,11,1,12,1,cuban,,,,,,,,,,,,,,,,,,,,,,,,,,,,,,,,,,,,,,,,,,,,,,,,,,,,,,,,
,,,,,,,,,5f0527d40807f31c712153eb,spanish,13 or older,click here to respond,no,2025-07-24_10h53.41.039,empathy_intonation_perc_control,2024.2.4,Win32,59.88023952,5f0527d40807f31c712153eb,68817205a84113384fffdfe3,688248ce8d4408159721f2ff,,,,,,,,,,,,./stim/wavs/mexican_match_declarative-broad-focus_Mariano-habla-del-tiempo.wav,0,,,88.9021,91.0485,0,1,1.6245,,0,23,23,60,1,61,0,mexican,,,,,,,,,,,,,,,,,,,,,,,,,,,,,,,,,,,,,,,,,,,,,,,,,,,,,,,,
,,,,,,,,,5f0527d40807f31c712153eb,spanish,13 or older,click here to respond,no,2025-07-24_10h53.41.039,empathy_intonation_perc_control,2024.2.4,Win32,59.88023952,5f0527d40807f31c712153eb,68817205a84113384fffdfe3,688248ce8d4408159721f2ff,,,,,,,,,,,,./stim/wavs/mexican_mismatch_interrogative-total-yn_Mi-tia-odia-la-lluvia.wav,1,,,91.0493,93.1578,1,1,1.5837,,0,24,24,38,1,39,0,mexican,,,,,,,,,,,,,,,,,,,,,,,,,,,,,,,,,,,,,,,,,,,,,,,,,,,,,,,,
,,,,,,,,,5f0527d40807f31c712153eb,spanish,13 or older,click here to respond,no,2025-07-24_10h53.41.039,empathy_intonation_perc_control,2024.2.4,Win32,59.88023952,5f0527d40807f31c712153eb,68817205a84113384fffdfe3,688248ce8d4408159721f2ff,,,,,,,,,,,,./stim/wavs/puertorican_match_declarative-broad-focus_Ana-lleva-el-abrigo.wav,0,,,93.1585,95.0984,0,1,1.4136,,0,25,25,62,1,63,0,puertorican,,,,,,,,,,,,,,,,,,,,,,,,,,,,,,,,,,,,,,,,,,,,,,,,,,,,,,,,
,,,,,,,,,5f0527d40807f31c712153eb,spanish,13 or older,click here to respond,no,2025-07-24_10h53.41.039,empathy_intonation_perc_control,2024.2.4,Win32,59.88023952,5f0527d40807f31c712153eb,68817205a84113384fffdfe3,688248ce8d4408159721f2ff,,,,,,,,,,,,./stim/wavs/mexican_match_interrogative-total-yn_Marta-abre-el-regalo.wav,1,,,95.099,97.2152,1,1,1.6005,,0,26,26,17,1,18,0,mexican,,,,,,,,,,,,,,,,,,,,,,,,,,,,,,,,,,,,,,,,,,,,,,,,,,,,,,,,
,,,,,,,,,5f0527d40807f31c712153eb,spanish,13 or older,click here to respond,no,2025-07-24_10h53.41.039,empathy_intonation_perc_control,2024.2.4,Win32,59.88023952,5f0527d40807f31c712153eb,68817205a84113384fffdfe3,688248ce8d4408159721f2ff,,,,,,,,,,,,./stim/wavs/mexican_mismatch_declarative-broad-focus_Mi-novio-viene-del-lago.wav,0,,,97.2159,99.1606,0,1,1.4061,,0,27,27,81,1,82,0,mexican,,,,,,,,,,,,,,,,,,,,,,,,,,,,,,,,,,,,,,,,,,,,,,,,,,,,,,,,
,,,,,,,,,5f0527d40807f31c712153eb,spanish,13 or older,click here to respond,no,2025-07-24_10h53.41.039,empathy_intonation_perc_control,2024.2.4,Win32,59.88023952,5f0527d40807f31c712153eb,68817205a84113384fffdfe3,688248ce8d4408159721f2ff,,,,,,,,,,,,./stim/wavs/castilian_mismatch_interrogative-total-yn_Mi-tia-odia-la-lluvia.wav,1,,,99.1614,101.3605,1,1,1.6761,,0,28,28,28,1,29,0,castilian,,,,,,,,,,,,,,,,,,,,,,,,,,,,,,,,,,,,,,,,,,,,,,,,,,,,,,,,
,,,,,,,,,5f0527d40807f31c712153eb,spanish,13 or older,click here to respond,no,2025-07-24_10h53.41.039,empathy_intonation_perc_control,2024.2.4,Win32,59.88023952,5f0527d40807f31c712153eb,68817205a84113384fffdfe3,688248ce8d4408159721f2ff,,,,,,,,,,,,./stim/wavs/puertorican_match_declarative-broad-focus_Maria-bebe-el-vino.wav,0,,,101.3614,103.3077,0,1,1.4171,,0,29,29,67,1,68,0,puertorican,,,,,,,,,,,,,,,,,,,,,,,,,,,,,,,,,,,,,,,,,,,,,,,,,,,,,,,,
,,,,,,,,,5f0527d40807f31c712153eb,spanish,13 or older,click here to respond,no,2025-07-24_10h53.41.039,empathy_intonation_perc_control,2024.2.4,Win32,59.88023952,5f0527d40807f31c712153eb,68817205a84113384fffdfe3,688248ce8d4408159721f2ff,,,,,,,,,,,,./stim/wavs/mexican_match_interrogative-total-yn_Daniel-iba-a-Bolivia.wav,1,,,103.3084,105.3912,1,1,1.5507,,0,30,30,13,1,14,0,mexican,,,,,,,,,,,,,,,,,,,,,,,,,,,,,,,,,,,,,,,,,,,,,,,,,,,,,,,,
,,,,,,,,,5f0527d40807f31c712153eb,spanish,13 or older,click here to respond,no,2025-07-24_10h53.41.039,empathy_intonation_perc_control,2024.2.4,Win32,59.88023952,5f0527d40807f31c712153eb,68817205a84113384fffdfe3,688248ce8d4408159721f2ff,,,,,,,,,,,,./stim/wavs/puertorican_mismatch_interrogative-total-yn_La-maestra-vive-en-Paris.wav,1,,,105.3923,107.7771,0,0,1.8514,,0,31,31,41,1,42,1,puertorican,,,,,,,,,,,,,,,,,,,,,,,,,,,,,,,,,,,,,,,,,,,,,,,,,,,,,,,,
,,,,,,,,,5f0527d40807f31c712153eb,spanish,13 or older,click here to respond,no,2025-07-24_10h53.41.039,empathy_intonation_perc_control,2024.2.4,Win32,59.88023952,5f0527d40807f31c712153eb,68817205a84113384fffdfe3,688248ce8d4408159721f2ff,,,,,,,,,,,,./stim/wavs/cuban_match_declarative-broad-focus_Mariano-habla-del-tiempo.wav,0,,,107.7781,109.9075,0,1,1.6004,,0,32,32,54,1,55,0,cuban,,,,,,,,,,,,,,,,,,,,,,,,,,,,,,,,,,,,,,,,,,,,,,,,,,,,,,,,
,,,,,,,,,5f0527d40807f31c712153eb,spanish,13 or older,click here to respond,no,2025-07-24_10h53.41.039,empathy_intonation_perc_control,2024.2.4,Win32,59.88023952,5f0527d40807f31c712153eb,68817205a84113384fffdfe3,688248ce8d4408159721f2ff,,,,,,,,,,,,./stim/wavs/puertorican_match_interrogative-total-yn_Manuela-vende-el-carro.wav,1,,,109.9082,111.9905,0,0,1.5595,,0,33,33,22,1,23,1,puertorican,,,,,,,,,,,,,,,,,,,,,,,,,,,,,,,,,,,,,,,,,,,,,,,,,,,,,,,,
,,,,,,,,,5f0527d40807f31c712153eb,spanish,13 or older,click here to respond,no,2025-07-24_10h53.41.039,empathy_intonation_perc_control,2024.2.4,Win32,59.88023952,5f0527d40807f31c712153eb,68817205a84113384fffdfe3,688248ce8d4408159721f2ff,,,,,,,,,,,,./stim/wavs/puertorican_match_interrogative-total-yn_Daniel-iba-a-Bolivia.wav,1,,,111.991,114.1854,0,0,1.6672,,0,34,34,19,1,20,1,puertorican,,,,,,,,,,,,,,,,,,,,,,,,,,,,,,,,,,,,,,,,,,,,,,,,,,,,,,,,
,,,,,,,,,5f0527d40807f31c712153eb,spanish,13 or older,click here to respond,no,2025-07-24_10h53.41.039,empathy_intonation_perc_control,2024.2.4,Win32,59.88023952,5f0527d40807f31c712153eb,68817205a84113384fffdfe3,688248ce8d4408159721f2ff,,,,,,,,,,,,./stim/wavs/puertorican_match_interrogative-total-yn_David-leia-el-libro.wav,1,,,114.1862,116.4961,0,0,1.7885,,0,35,35,20,1,21,1,puertorican,,,,,,,,,,,,,,,,,,,,,,,,,,,,,,,,,,,,,,,,,,,,,,,,,,,,,,,,
,,,,,,,,,5f0527d40807f31c712153eb,spanish,13 or older,click here to respond,no,2025-07-24_10h53.41.039,empathy_intonation_perc_control,2024.2.4,Win32,59.88023952,5f0527d40807f31c712153eb,68817205a84113384fffdfe3,688248ce8d4408159721f2ff,,,,,,,,,,,,./stim/wavs/puertorican_mismatch_declarative-broad-focus_El-nino-oye-el-rio.wav,0,,,116.4968,118.5074,0,1,1.4678,,0,36,36,85,1,86,0,puertorican,,,,,,,,,,,,,,,,,,,,,,,,,,,,,,,,,,,,,,,,,,,,,,,,,,,,,,,,
,,,,,,,,,5f0527d40807f31c712153eb,spanish,13 or older,click here to respond,no,2025-07-24_10h53.41.039,empathy_intonation_perc_control,2024.2.4,Win32,59.88023952,5f0527d40807f31c712153eb,68817205a84113384fffdfe3,688248ce8d4408159721f2ff,,,,,,,,,,,,./stim/wavs/mexican_match_interrogative-total-yn_David-leia-el-libro.wav,1,,,118.5081,120.4911,1,1,1.4593,,0,37,37,14,1,15,0,mexican,,,,,,,,,,,,,,,,,,,,,,,,,,,,,,,,,,,,,,,,,,,,,,,,,,,,,,,,
,,,,,,,,,5f0527d40807f31c712153eb,spanish,13 or older,click here to respond,no,2025-07-24_10h53.41.039,empathy_intonation_perc_control,2024.2.4,Win32,59.88023952,5f0527d40807f31c712153eb,68817205a84113384fffdfe3,688248ce8d4408159721f2ff,,,,,,,,,,,,./stim/wavs/cuban_match_interrogative-total-yn_Manuela-vende-el-carro.wav,1,,,120.4918,122.7604,0,0,1.7338,,0,38,38,8,1,9,1,cuban,,,,,,,,,,,,,,,,,,,,,,,,,,,,,,,,,,,,,,,,,,,,,,,,,,,,,,,,
,,,,,,,,,5f0527d40807f31c712153eb,spanish,13 or older,click here to respond,no,2025-07-24_10h53.41.039,empathy_intonation_perc_control,2024.2.4,Win32,59.88023952,5f0527d40807f31c712153eb,68817205a84113384fffdfe3,688248ce8d4408159721f2ff,,,,,,,,,,,,./stim/wavs/castilian_match_declarative-broad-focus_David-leia-el-libro.wav,0,,,122.7613,125.6402,0,1,2.3494,,0,39,39,44,1,45,0,castilian,,,,,,,,,,,,,,,,,,,,,,,,,,,,,,,,,,,,,,,,,,,,,,,,,,,,,,,,
,,,,,,,,,5f0527d40807f31c712153eb,spanish,13 or older,click here to respond,no,2025-07-24_10h53.41.039,empathy_intonation_perc_control,2024.2.4,Win32,59.88023952,5f0527d40807f31c712153eb,68817205a84113384fffdfe3,688248ce8d4408159721f2ff,,,,,,,,,,,,./stim/wavs/puertorican_match_declarative-broad-focus_Manuela-vende-el-carro.wav,0,,,125.6411,127.686,0,1,1.512,,0,40,40,66,1,67,0,puertorican,,,,,,,,,,,,,,,,,,,,,,,,,,,,,,,,,,,,,,,,,,,,,,,,,,,,,,,,
,,,,,,,,,5f0527d40807f31c712153eb,spanish,13 or older,click here to respond,no,2025-07-24_10h53.41.039,empathy_intonation_perc_control,2024.2.4,Win32,59.88023952,5f0527d40807f31c712153eb,68817205a84113384fffdfe3,688248ce8d4408159721f2ff,,,,,,,,,,,,./stim/wavs/mexican_match_interrogative-total-yn_Mariano-habla-del-tiempo.wav,1,,,127.6869,129.8485,1,1,1.6469,,0,41,41,16,1,17,0,mexican,,,,,,,,,,,,,,,,,,,,,,,,,,,,,,,,,,,,,,,,,,,,,,,,,,,,,,,,
,,,,,,,,,5f0527d40807f31c712153eb,spanish,13 or older,click here to respond,no,2025-07-24_10h53.41.039,empathy_intonation_perc_control,2024.2.4,Win32,59.88023952,5f0527d40807f31c712153eb,68817205a84113384fffdfe3,688248ce8d4408159721f2ff,,,,,,,,,,,,./stim/wavs/castilian_mismatch_declarative-broad-focus_Mi-tia-odia-la-lluvia.wav,0,,,129.8494,132.0564,0,1,1.6807,,0,42,42,72,1,73,0,castilian,,,,,,,,,,,,,,,,,,,,,,,,,,,,,,,,,,,,,,,,,,,,,,,,,,,,,,,,
,,,,,,,,,5f0527d40807f31c712153eb,spanish,13 or older,click here to respond,no,2025-07-24_10h53.41.039,empathy_intonation_perc_control,2024.2.4,Win32,59.88023952,5f0527d40807f31c712153eb,68817205a84113384fffdfe3,688248ce8d4408159721f2ff,,,,,,,,,,,,./stim/wavs/mexican_match_declarative-broad-focus_Daniel-iba-a-Bolivia.wav,0,,,132.0569,134.0489,0,1,1.4584,,0,43,43,57,1,58,0,mexican,,,,,,,,,,,,,,,,,,,,,,,,,,,,,,,,,,,,,,,,,,,,,,,,,,,,,,,,
,,,,,,,,,5f0527d40807f31c712153eb,spanish,13 or older,click here to respond,no,2025-07-24_10h53.41.039,empathy_intonation_perc_control,2024.2.4,Win32,59.88023952,5f0527d40807f31c712153eb,68817205a84113384fffdfe3,688248ce8d4408159721f2ff,,,,,,,,,,,,./stim/wavs/cuban_match_interrogative-total-yn_Mariano-habla-del-tiempo.wav,1,,,134.0497,136.1825,0,0,1.6176,,0,44,44,10,1,11,1,cuban,,,,,,,,,,,,,,,,,,,,,,,,,,,,,,,,,,,,,,,,,,,,,,,,,,,,,,,,
,,,,,,,,,5f0527d40807f31c712153eb,spanish,13 or older,click here to respond,no,2025-07-24_10h53.41.039,empathy_intonation_perc_control,2024.2.4,Win32,59.88023952,5f0527d40807f31c712153eb,68817205a84113384fffdfe3,688248ce8d4408159721f2ff,,,,,,,,,,,,./stim/wavs/mexican_mismatch_interrogative-total-yn_Mi-novio-viene-del-lago.wav,1,,,136.183,138.2691,1,1,1.5503,,0,45,45,37,1,38,0,mexican,,,,,,,,,,,,,,,,,,,,,,,,,,,,,,,,,,,,,,,,,,,,,,,,,,,,,,,,
,,,,,,,,,5f0527d40807f31c712153eb,spanish,13 or older,click here to respond,no,2025-07-24_10h53.41.039,empathy_intonation_perc_control,2024.2.4,Win32,59.88023952,5f0527d40807f31c712153eb,68817205a84113384fffdfe3,688248ce8d4408159721f2ff,,,,,,,,,,,,./stim/wavs/castilian_mismatch_declarative-broad-focus_Mi-novio-viene-del-lago.wav,0,,,138.27,140.5908,0,1,1.7836,,0,46,46,71,1,72,0,castilian,,,,,,,,,,,,,,,,,,,,,,,,,,,,,,,,,,,,,,,,,,,,,,,,,,,,,,,,
,,,,,,,,,5f0527d40807f31c712153eb,spanish,13 or older,click here to respond,no,2025-07-24_10h53.41.039,empathy_intonation_perc_control,2024.2.4,Win32,59.88023952,5f0527d40807f31c712153eb,68817205a84113384fffdfe3,688248ce8d4408159721f2ff,,,,,,,,,,,,./stim/wavs/castilian_match_declarative-broad-focus_Manuela-vende-el-carro.wav,0,,,140.5917,142.9934,0,1,1.8735,,0,47,47,46,1,47,0,castilian,,,,,,,,,,,,,,,,,,,,,,,,,,,,,,,,,,,,,,,,,,,,,,,,,,,,,,,,
,,,,,,,,,5f0527d40807f31c712153eb,spanish,13 or older,click here to respond,no,2025-07-24_10h53.41.039,empathy_intonation_perc_control,2024.2.4,Win32,59.88023952,5f0527d40807f31c712153eb,68817205a84113384fffdfe3,688248ce8d4408159721f2ff,,,,,,,,,,,,./stim/wavs/puertorican_mismatch_declarative-broad-focus_El-bebe-comia-muy-bien.wav,0,,,142.9939,144.9605,0,1,1.4373,,0,48,48,83,1,84,0,puertorican,,,,,,,,,,,,,,,,,,,,,,,,,,,,,,,,,,,,,,,,,,,,,,,,,,,,,,,,
,,,,,,,,,5f0527d40807f31c712153eb,spanish,13 or older,click here to respond,no,2025-07-24_10h53.41.039,empathy_intonation_perc_control,2024.2.4,Win32,59.88023952,5f0527d40807f31c712153eb,68817205a84113384fffdfe3,688248ce8d4408159721f2ff,,,,,,,,,,,,./stim/wavs/puertorican_match_interrogative-total-yn_Maria-bebe-el-vino.wav,1,,,144.9611,146.6936,1,1,1.2003,,0,49,49,23,1,24,1,puertorican,,,,,,,,,,,,,,,,,,,,,,,,,,,,,,,,,,,,,,,,,,,,,,,,,,,,,,,,
,,,,,,,,,5f0527d40807f31c712153eb,spanish,13 or older,click here to respond,no,2025-07-24_10h53.41.039,empathy_intonation_perc_control,2024.2.4,Win32,59.88023952,5f0527d40807f31c712153eb,68817205a84113384fffdfe3,688248ce8d4408159721f2ff,,,,,,,,,,,,./stim/wavs/cuban_mismatch_declarative-broad-focus_El-bebe-comia-muy-bien.wav,0,,,146.6944,148.5936,0,1,1.3665,,0,50,50,73,1,74,0,cuban,,,,,,,,,,,,,,,,,,,,,,,,,,,,,,,,,,,,,,,,,,,,,,,,,,,,,,,,
,,,,,,,,,5f0527d40807f31c712153eb,spanish,13 or older,click here to respond,no,2025-07-24_10h53.41.039,empathy_intonation_perc_control,2024.2.4,Win32,59.88023952,5f0527d40807f31c712153eb,68817205a84113384fffdfe3,688248ce8d4408159721f2ff,,,,,,,,,,,,./stim/wavs/mexican_mismatch_declarative-broad-focus_El-bebe-comia-muy-bien.wav,0,,,148.5941,150.7935,0,1,1.6672,,0,51,51,78,1,79,0,mexican,,,,,,,,,,,,,,,,,,,,,,,,,,,,,,,,,,,,,,,,,,,,,,,,,,,,,,,,
,,,,,,,,,5f0527d40807f31c712153eb,spanish,13 or older,click here to respond,no,2025-07-24_10h53.41.039,empathy_intonation_perc_control,2024.2.4,Win32,59.88023952,5f0527d40807f31c712153eb,68817205a84113384fffdfe3,688248ce8d4408159721f2ff,,,,,,,,,,,,./stim/wavs/castilian_match_declarative-broad-focus_Mariano-habla-del-tiempo.wav,0,,,150.7943,153.0435,0,1,1.7207,,0,52,52,48,1,49,0,castilian,,,,,,,,,,,,,,,,,,,,,,,,,,,,,,,,,,,,,,,,,,,,,,,,,,,,,,,,
,,,,,,,,,5f0527d40807f31c712153eb,spanish,13 or older,click here to respond,no,2025-07-24_10h53.41.039,empathy_intonation_perc_control,2024.2.4,Win32,59.88023952,5f0527d40807f31c712153eb,68817205a84113384fffdfe3,688248ce8d4408159721f2ff,,,,,,,,,,,,./stim/wavs/castilian_mismatch_declarative-broad-focus_La-nina-lava-el-plato.wav,0,,,153.0442,155.2268,0,1,1.6509,,0,53,53,70,1,71,0,castilian,,,,,,,,,,,,,,,,,,,,,,,,,,,,,,,,,,,,,,,,,,,,,,,,,,,,,,,,
,,,,,,,,,5f0527d40807f31c712153eb,spanish,13 or older,click here to respond,no,2025-07-24_10h53.41.039,empathy_intonation_perc_control,2024.2.4,Win32,59.88023952,5f0527d40807f31c712153eb,68817205a84113384fffdfe3,688248ce8d4408159721f2ff,,,,,,,,,,,,./stim/wavs/mexican_mismatch_interrogative-total-yn_La-maestra-vive-en-Paris.wav,1,,,155.2277,157.2438,0,0,1.4877,,0,54,54,36,1,37,0,mexican,,,,,,,,,,,,,,,,,,,,,,,,,,,,,,,,,,,,,,,,,,,,,,,,,,,,,,,,
,,,,,,,,,5f0527d40807f31c712153eb,spanish,13 or older,click here to respond,no,2025-07-24_10h53.41.039,empathy_intonation_perc_control,2024.2.4,Win32,59.88023952,5f0527d40807f31c712153eb,68817205a84113384fffdfe3,688248ce8d4408159721f2ff,,,,,,,,,,,,./stim/wavs/puertorican_match_interrogative-total-yn_Ana-lleva-el-abrigo.wav,1,,,157.2444,159.077,0,0,1.3049,,0,55,55,18,1,19,1,puertorican,,,,,,,,,,,,,,,,,,,,,,,,,,,,,,,,,,,,,,,,,,,,,,,,,,,,,,,,
,,,,,,,,,5f0527d40807f31c712153eb,spanish,13 or older,click here to respond,no,2025-07-24_10h53.41.039,empathy_intonation_perc_control,2024.2.4,Win32,59.88023952,5f0527d40807f31c712153eb,68817205a84113384fffdfe3,688248ce8d4408159721f2ff,,,,,,,,,,,,./stim/wavs/castilian_mismatch_interrogative-total-yn_Mi-novio-viene-del-lago.wav,1,,,159.0778,161.26,1,1,1.6501,,0,56,56,27,1,28,0,castilian,,,,,,,,,,,,,,,,,,,,,,,,,,,,,,,,,,,,,,,,,,,,,,,,,,,,,,,,
,,,,,,,,,5f0527d40807f31c712153eb,spanish,13 or older,click here to respond,no,2025-07-24_10h53.41.039,empathy_intonation_perc_control,2024.2.4,Win32,59.88023952,5f0527d40807f31c712153eb,68817205a84113384fffdfe3,688248ce8d4408159721f2ff,,,,,,,,,,,,./stim/wavs/cuban_match_interrogative-total-yn_Daniel-iba-a-Bolivia.wav,1,,,161.2605,163.2606,0,0,1.4686,,0,57,57,7,1,8,1,cuban,,,,,,,,,,,,,,,,,,,,,,,,,,,,,,,,,,,,,,,,,,,,,,,,,,,,,,,,
,,,,,,,,,5f0527d40807f31c712153eb,spanish,13 or older,click here to respond,no,2025-07-24_10h53.41.039,empathy_intonation_perc_control,2024.2.4,Win32,59.88023952,5f0527d40807f31c712153eb,68817205a84113384fffdfe3,688248ce8d4408159721f2ff,,,,,,,,,,,,./stim/wavs/puertorican_match_declarative-broad-focus_David-leia-el-libro.wav,0,,,163.2614,165.2103,0,1,1.4168,,0,58,58,64,1,65,0,puertorican,,,,,,,,,,,,,,,,,,,,,,,,,,,,,,,,,,,,,,,,,,,,,,,,,,,,,,,,
,,,,,,,,,5f0527d40807f31c712153eb,spanish,13 or older,click here to respond,no,2025-07-24_10h53.41.039,empathy_intonation_perc_control,2024.2.4,Win32,59.88023952,5f0527d40807f31c712153eb,68817205a84113384fffdfe3,688248ce8d4408159721f2ff,,,,,,,,,,,,./stim/wavs/puertorican_mismatch_declarative-broad-focus_La-maestra-vive-en-Paris.wav,0,,,165.211,167.2936,0,1,1.5546,,0,59,59,86,1,87,0,puertorican,,,,,,,,,,,,,,,,,,,,,,,,,,,,,,,,,,,,,,,,,,,,,,,,,,,,,,,,
,,,,,,,,,5f0527d40807f31c712153eb,spanish,13 or older,click here to respond,no,2025-07-24_10h53.41.039,empathy_intonation_perc_control,2024.2.4,Win32,59.88023952,5f0527d40807f31c712153eb,68817205a84113384fffdfe3,688248ce8d4408159721f2ff,,,,,,,,,,,,./stim/wavs/puertorican_match_declarative-broad-focus_Emilio-ama-la-marcha.wav,0,,,167.2947,169.1268,0,1,1.3036,,0,60,60,65,1,66,0,puertorican,,,,,,,,,,,,,,,,,,,,,,,,,,,,,,,,,,,,,,,,,,,,,,,,,,,,,,,,
,,,,,,,,,5f0527d40807f31c712153eb,spanish,13 or older,click here to respond,no,2025-07-24_10h53.41.039,empathy_intonation_perc_control,2024.2.4,Win32,59.88023952,5f0527d40807f31c712153eb,68817205a84113384fffdfe3,688248ce8d4408159721f2ff,,,,,,,,,,,,./stim/wavs/cuban_match_declarative-broad-focus_Ana-lleva-el-abrigo.wav,0,,,169.1276,171.0435,0,1,1.384,,0,61,61,50,1,51,0,cuban,,,,,,,,,,,,,,,,,,,,,,,,,,,,,,,,,,,,,,,,,,,,,,,,,,,,,,,,
,,,,,,,,,5f0527d40807f31c712153eb,spanish,13 or older,click here to respond,no,2025-07-24_10h53.41.039,empathy_intonation_perc_control,2024.2.4,Win32,59.88023952,5f0527d40807f31c712153eb,68817205a84113384fffdfe3,688248ce8d4408159721f2ff,,,,,,,,,,,,./stim/wavs/castilian_match_interrogative-total-yn_Maria-bebe-el-vino.wav,1,,,171.0442,172.8941,1,1,1.3215,,0,62,62,3,1,4,0,castilian,,,,,,,,,,,,,,,,,,,,,,,,,,,,,,,,,,,,,,,,,,,,,,,,,,,,,,,,
,,,,,,,,,5f0527d40807f31c712153eb,spanish,13 or older,click here to respond,no,2025-07-24_10h53.41.039,empathy_intonation_perc_control,2024.2.4,Win32,59.88023952,5f0527d40807f31c712153eb,68817205a84113384fffdfe3,688248ce8d4408159721f2ff,,,,,,,,,,,,./stim/wavs/cuban_mismatch_interrogative-total-yn_Mi-novio-viene-del-lago.wav,1,,,172.8953,175.01,0,0,1.5801,,0,63,63,32,1,33,1,cuban,,,,,,,,,,,,,,,,,,,,,,,,,,,,,,,,,,,,,,,,,,,,,,,,,,,,,,,,
,,,,,,,,,5f0527d40807f31c712153eb,spanish,13 or older,click here to respond,no,2025-07-24_10h53.41.039,empathy_intonation_perc_control,2024.2.4,Win32,59.88023952,5f0527d40807f31c712153eb,68817205a84113384fffdfe3,688248ce8d4408159721f2ff,,,,,,,,,,,,./stim/wavs/cuban_match_interrogative-total-yn_Ana-lleva-el-abrigo.wav,1,,,175.0108,176.8265,0,0,1.283,,0,64,64,6,1,7,1,cuban,,,,,,,,,,,,,,,,,,,,,,,,,,,,,,,,,,,,,,,,,,,,,,,,,,,,,,,,
,,,,,,,,,5f0527d40807f31c712153eb,spanish,13 or older,click here to respond,no,2025-07-24_10h53.41.039,empathy_intonation_perc_control,2024.2.4,Win32,59.88023952,5f0527d40807f31c712153eb,68817205a84113384fffdfe3,688248ce8d4408159721f2ff,,,,,,,,,,,,./stim/wavs/cuban_match_declarative-broad-focus_Marta-abre-el-regalo.wav,0,,,176.8269,178.8101,0,1,1.4509,,0,65,65,55,1,56,0,cuban,,,,,,,,,,,,,,,,,,,,,,,,,,,,,,,,,,,,,,,,,,,,,,,,,,,,,,,,
,,,,,,,,,5f0527d40807f31c712153eb,spanish,13 or older,click here to respond,no,2025-07-24_10h53.41.039,empathy_intonation_perc_control,2024.2.4,Win32,59.88023952,5f0527d40807f31c712153eb,68817205a84113384fffdfe3,688248ce8d4408159721f2ff,,,,,,,,,,,,./stim/wavs/mexican_mismatch_interrogative-total-yn_El-nino-oye-el-rio.wav,1,,,178.8109,180.7768,1,1,1.4335,,0,66,66,35,1,36,0,mexican,,,,,,,,,,,,,,,,,,,,,,,,,,,,,,,,,,,,,,,,,,,,,,,,,,,,,,,,
,,,,,,,,,5f0527d40807f31c712153eb,spanish,13 or older,click here to respond,no,2025-07-24_10h53.41.039,empathy_intonation_perc_control,2024.2.4,Win32,59.88023952,5f0527d40807f31c712153eb,68817205a84113384fffdfe3,688248ce8d4408159721f2ff,,,,,,,,,,,,./stim/wavs/puertorican_match_declarative-broad-focus_Daniel-iba-a-Bolivia.wav,0,,,180.7774,182.6266,0,1,1.3207,,0,67,67,63,1,64,0,puertorican,,,,,,,,,,,,,,,,,,,,,,,,,,,,,,,,,,,,,,,,,,,,,,,,,,,,,,,,
,,,,,,,,,5f0527d40807f31c712153eb,spanish,13 or older,click here to respond,no,2025-07-24_10h53.41.039,empathy_intonation_perc_control,2024.2.4,Win32,59.88023952,5f0527d40807f31c712153eb,68817205a84113384fffdfe3,688248ce8d4408159721f2ff,,,,,,,,,,,,./stim/wavs/castilian_mismatch_interrogative-total-yn_Mi-madre-come-la-fruta.wav,1,,,182.6273,185.1065,1,1,1.9522,,0,68,68,26,1,27,0,castilian,,,,,,,,,,,,,,,,,,,,,,,,,,,,,,,,,,,,,,,,,,,,,,,,,,,,,,,,
,,,,,,,,,5f0527d40807f31c712153eb,spanish,13 or older,click here to respond,no,2025-07-24_10h53.41.039,empathy_intonation_perc_control,2024.2.4,Win32,59.88023952,5f0527d40807f31c712153eb,68817205a84113384fffdfe3,688248ce8d4408159721f2ff,,,,,,,,,,,,./stim/wavs/puertorican_mismatch_interrogative-total-yn_El-hombre-mira-la-luna.wav,1,,,185.107,187.9644,0,0,2.3336,,0,69,69,39,1,40,1,puertorican,,,,,,,,,,,,,,,,,,,,,,,,,,,,,,,,,,,,,,,,,,,,,,,,,,,,,,,,
,,,,,,,,,5f0527d40807f31c712153eb,spanish,13 or older,click here to respond,no,2025-07-24_10h53.41.039,empathy_intonation_perc_control,2024.2.4,Win32,59.88023952,5f0527d40807f31c712153eb,68817205a84113384fffdfe3,688248ce8d4408159721f2ff,,,,,,,,,,,,./stim/wavs/cuban_mismatch_interrogative-total-yn_El-nino-oye-el-rio.wav,1,,,187.9648,189.96,0,0,1.4672,,0,70,70,30,1,31,1,cuban,,,,,,,,,,,,,,,,,,,,,,,,,,,,,,,,,,,,,,,,,,,,,,,,,,,,,,,,
,,,,,,,,,5f0527d40807f31c712153eb,spanish,13 or older,click here to respond,no,2025-07-24_10h53.41.039,empathy_intonation_perc_control,2024.2.4,Win32,59.88023952,5f0527d40807f31c712153eb,68817205a84113384fffdfe3,688248ce8d4408159721f2ff,,,,,,,,,,,,./stim/wavs/castilian_mismatch_declarative-broad-focus_El-nino-oye-el-rio.wav,0,,,189.9608,192.0647,1,0,1.5805,,0,71,71,68,1,69,0,castilian,,,,,,,,,,,,,,,,,,,,,,,,,,,,,,,,,,,,,,,,,,,,,,,,,,,,,,,,
,,,,,,,,,5f0527d40807f31c712153eb,spanish,13 or older,click here to respond,no,2025-07-24_10h53.41.039,empathy_intonation_perc_control,2024.2.4,Win32,59.88023952,5f0527d40807f31c712153eb,68817205a84113384fffdfe3,688248ce8d4408159721f2ff,,,,,,,,,,,,./stim/wavs/puertorican_mismatch_interrogative-total-yn_La-nina-lava-el-plato.wav,1,,,192.0654,194.1739,0,0,1.5838,,0,72,72,42,1,43,1,puertorican,,,,,,,,,,,,,,,,,,,,,,,,,,,,,,,,,,,,,,,,,,,,,,,,,,,,,,,,
,,,,,,,,,5f0527d40807f31c712153eb,spanish,13 or older,click here to respond,no,2025-07-24_10h53.41.039,empathy_intonation_perc_control,2024.2.4,Win32,59.88023952,5f0527d40807f31c712153eb,68817205a84113384fffdfe3,688248ce8d4408159721f2ff,,,,,,,,,,,,./stim/wavs/cuban_mismatch_interrogative-total-yn_Mi-tia-odia-la-lluvia.wav,1,,,194.1745,196.0284,0,0,1.3215,,0,73,73,33,1,34,1,cuban,,,,,,,,,,,,,,,,,,,,,,,,,,,,,,,,,,,,,,,,,,,,,,,,,,,,,,,,
,,,,,,,,,5f0527d40807f31c712153eb,spanish,13 or older,click here to respond,no,2025-07-24_10h53.41.039,empathy_intonation_perc_control,2024.2.4,Win32,59.88023952,5f0527d40807f31c712153eb,68817205a84113384fffdfe3,688248ce8d4408159721f2ff,,,,,,,,,,,,./stim/wavs/mexican_match_declarative-broad-focus_Ana-lleva-el-abrigo.wav,0,,,196.0294,198.9098,0,1,2.3509,,0,74,74,56,1,57,0,mexican,,,,,,,,,,,,,,,,,,,,,,,,,,,,,,,,,,,,,,,,,,,,,,,,,,,,,,,,
,,,,,,,,,5f0527d40807f31c712153eb,spanish,13 or older,click here to respond,no,2025-07-24_10h53.41.039,empathy_intonation_perc_control,2024.2.4,Win32,59.88023952,5f0527d40807f31c712153eb,68817205a84113384fffdfe3,688248ce8d4408159721f2ff,,,,,,,,,,,,./stim/wavs/puertorican_mismatch_declarative-broad-focus_El-hombre-mira-la-luna.wav,0,,,198.9103,201.1242,0,1,1.6929,,0,75,75,84,1,85,0,puertorican,,,,,,,,,,,,,,,,,,,,,,,,,,,,,,,,,,,,,,,,,,,,,,,,,,,,,,,,
,,,,,,,,,5f0527d40807f31c712153eb,spanish,13 or older,click here to respond,no,2025-07-24_10h53.41.039,empathy_intonation_perc_control,2024.2.4,Win32,59.88023952,5f0527d40807f31c712153eb,68817205a84113384fffdfe3,688248ce8d4408159721f2ff,,,,,,,,,,,,./stim/wavs/mexican_match_declarative-broad-focus_Marta-abre-el-regalo.wav,0,,,201.1248,203.0317,0,1,1.3916,,0,76,76,61,1,62,0,mexican,,,,,,,,,,,,,,,,,,,,,,,,,,,,,,,,,,,,,,,,,,,,,,,,,,,,,,,,
,,,,,,,,,5f0527d40807f31c712153eb,spanish,13 or older,click here to respond,no,2025-07-24_10h53.41.039,empathy_intonation_perc_control,2024.2.4,Win32,59.88023952,5f0527d40807f31c712153eb,68817205a84113384fffdfe3,688248ce8d4408159721f2ff,,,,,,,,,,,,./stim/wavs/castilian_match_interrogative-total-yn_Emilio-ama-la-marcha.wav,1,,,203.0326,204.7401,1,1,1.1836,,0,77,77,1,1,2,0,castilian,,,,,,,,,,,,,,,,,,,,,,,,,,,,,,,,,,,,,,,,,,,,,,,,,,,,,,,,
,,,,,,,,,5f0527d40807f31c712153eb,spanish,13 or older,click here to respond,no,2025-07-24_10h53.41.039,empathy_intonation_perc_control,2024.2.4,Win32,59.88023952,5f0527d40807f31c712153eb,68817205a84113384fffdfe3,688248ce8d4408159721f2ff,,,,,,,,,,,,./stim/wavs/cuban_mismatch_declarative-broad-focus_La-nina-lava-el-plato.wav,0,,,204.7409,206.5071,0,1,1.2433,,0,78,78,75,1,76,0,cuban,,,,,,,,,,,,,,,,,,,,,,,,,,,,,,,,,,,,,,,,,,,,,,,,,,,,,,,,
,,,,,,,,,5f0527d40807f31c712153eb,spanish,13 or older,click here to respond,no,2025-07-24_10h53.41.039,empathy_intonation_perc_control,2024.2.4,Win32,59.88023952,5f0527d40807f31c712153eb,68817205a84113384fffdfe3,688248ce8d4408159721f2ff,,,,,,,,,,,,./stim/wavs/castilian_match_declarative-broad-focus_Marta-abre-el-regalo.wav,0,,,206.5078,208.7404,0,1,1.7061,,0,79,79,49,1,50,0,castilian,,,,,,,,,,,,,,,,,,,,,,,,,,,,,,,,,,,,,,,,,,,,,,,,,,,,,,,,
,,,,,,,,,5f0527d40807f31c712153eb,spanish,13 or older,click here to respond,no,2025-07-24_10h53.41.039,empathy_intonation_perc_control,2024.2.4,Win32,59.88023952,5f0527d40807f31c712153eb,68817205a84113384fffdfe3,688248ce8d4408159721f2ff,,,,,,,,,,,,./stim/wavs/cuban_mismatch_interrogative-total-yn_Mi-madre-come-la-fruta.wav,1,,,208.7411,210.9065,0,0,1.6335,,0,80,80,31,1,32,1,cuban,,,,,,,,,,,,,,,,,,,,,,,,,,,,,,,,,,,,,,,,,,,,,,,,,,,,,,,,
,,,,,,,,,5f0527d40807f31c712153eb,spanish,13 or older,click here to respond,no,2025-07-24_10h53.41.039,empathy_intonation_perc_control,2024.2.4,Win32,59.88023952,5f0527d40807f31c712153eb,68817205a84113384fffdfe3,688248ce8d4408159721f2ff,,,,,,,,,,,,./stim/wavs/mexican_mismatch_declarative-broad-focus_El-hombre-mira-la-luna.wav,0,,,210.9071,212.8767,0,1,1.4425,,0,81,81,79,1,80,0,mexican,,,,,,,,,,,,,,,,,,,,,,,,,,,,,,,,,,,,,,,,,,,,,,,,,,,,,,,,
,,,,,,,,,5f0527d40807f31c712153eb,spanish,13 or older,click here to respond,no,2025-07-24_10h53.41.039,empathy_intonation_perc_control,2024.2.4,Win32,59.88023952,5f0527d40807f31c712153eb,68817205a84113384fffdfe3,688248ce8d4408159721f2ff,,,,,,,,,,,,./stim/wavs/castilian_match_interrogative-total-yn_Marta-abre-el-regalo.wav,1,,,212.8777,214.927,1,1,1.5055,,0,82,82,5,1,6,0,castilian,,,,,,,,,,,,,,,,,,,,,,,,,,,,,,,,,,,,,,,,,,,,,,,,,,,,,,,,
,,,,,,,,,5f0527d40807f31c712153eb,spanish,13 or older,click here to respond,no,2025-07-24_10h53.41.039,empathy_intonation_perc_control,2024.2.4,Win32,59.88023952,5f0527d40807f31c712153eb,68817205a84113384fffdfe3,688248ce8d4408159721f2ff,,,,,,,,,,,,./stim/wavs/cuban_mismatch_declarative-broad-focus_Mi-novio-viene-del-lago.wav,0,,,214.9278,217.1049,0,1,1.6573,,0,83,83,76,1,77,0,cuban,,,,,,,,,,,,,,,,,,,,,,,,,,,,,,,,,,,,,,,,,,,,,,,,,,,,,,,,
,,,,,,,,,5f0527d40807f31c712153eb,spanish,13 or older,click here to respond,no,2025-07-24_10h53.41.039,empathy_intonation_perc_control,2024.2.4,Win32,59.88023952,5f0527d40807f31c712153eb,68817205a84113384fffdfe3,688248ce8d4408159721f2ff,,,,,,,,,,,,./stim/wavs/castilian_match_interrogative-total-yn_Mariano-habla-del-tiempo.wav,1,,,217.1055,219.5402,1,1,1.9129,,0,84,84,4,1,5,0,castilian,,,,,,,,,,,,,,,,,,,,,,,,,,,,,,,,,,,,,,,,,,,,,,,,,,,,,,,,
,,,,,,,,,5f0527d40807f31c712153eb,spanish,13 or older,click here to respond,no,2025-07-24_10h53.41.039,empathy_intonation_perc_control,2024.2.4,Win32,59.88023952,5f0527d40807f31c712153eb,68817205a84113384fffdfe3,688248ce8d4408159721f2ff,,,,,,,,,,,,./stim/wavs/cuban_match_declarative-broad-focus_Daniel-iba-a-Bolivia.wav,0,,,219.5406,221.4932,0,1,1.4339,,0,85,85,51,1,52,0,cuban,,,,,,,,,,,,,,,,,,,,,,,,,,,,,,,,,,,,,,,,,,,,,,,,,,,,,,,,
,,,,,,,,,5f0527d40807f31c712153eb,spanish,13 or older,click here to respond,no,2025-07-24_10h53.41.039,empathy_intonation_perc_control,2024.2.4,Win32,59.88023952,5f0527d40807f31c712153eb,68817205a84113384fffdfe3,688248ce8d4408159721f2ff,,,,,,,,,,,,./stim/wavs/castilian_match_declarative-broad-focus_Emilio-ama-la-marcha.wav,0,,,221.494,223.8018,0,1,1.7843,,0,86,86,45,1,46,0,castilian,,,,,,,,,,,,,,,,,,,,,,,,,,,,,,,,,,,,,,,,,,,,,,,,,,,,,,,,
,,,,,,,,,5f0527d40807f31c712153eb,spanish,13 or older,click here to respond,no,2025-07-24_10h53.41.039,empathy_intonation_perc_control,2024.2.4,Win32,59.88023952,5f0527d40807f31c712153eb,68817205a84113384fffdfe3,688248ce8d4408159721f2ff,,,,,,,,,,,,./stim/wavs/cuban_match_declarative-broad-focus_Manuela-vende-el-carro.wav,0,,,223.8027,226.1265,0,1,1.7841,,0,87,87,52,1,53,0,cuban,,,,,,,,,,,,,,,,,,,,,,,,,,,,,,,,,,,,,,,,,,,,,,,,,,,,,,,,
,,,,,,,"Great! Now we will move on. The next task consists of about 60 trials, in each of which you will see a string of letters. 
  
  Your task is to decide whether this is a real Spanish word or not.", (press the spacebar to continue),5f0527d40807f31c712153eb,spanish,13 or older,click here to respond,no,2025-07-24_10h53.41.039,empathy_intonation_perc_control,2024.2.4,Win32,59.88023952,5f0527d40807f31c712153eb,68817205a84113384fffdfe3,688248ce8d4408159721f2ff,,,,,,,,,,,,,,,,,,,,,,,,,,,,,,226.1366,231.7399,0,0,0,0,1,,,,,,,,,,,,,,,,,,,,,,,,,,,,,,,,,,,,,,,,,,,,,,,,,
,,,,,,,"If you think it is an existing Spanish word, you type '1' (for 'REAL'), and if you think it is not an existing Spanish word, you type '0' (for 'FAKE').", (press the spacebar to continue),5f0527d40807f31c712153eb,spanish,13 or older,click here to respond,no,2025-07-24_10h53.41.039,empathy_intonation_perc_control,2024.2.4,Win32,59.88023952,5f0527d40807f31c712153eb,68817205a84113384fffdfe3,688248ce8d4408159721f2ff,,,,,,,,,,,,,,,,,,,,,,,,,,,,,,231.742,234.6933,0,1,1,1,1,,,,,,,,,,,,,,,,,,,,,,,,,,,,,,,,,,,,,,,,,,,,,,,,,
,,,,,,,"If you are sure that the word exists, even though you don’t know its exact meaning, you may still respond '1' (REAL). 
  
  But if you are not sure if it is an existing word, you should respond '0' (FAKE).
  
  Let's do a practice round...", (press the spacebar to continue),5f0527d40807f31c712153eb,spanish,13 or older,click here to respond,no,2025-07-24_10h53.41.039,empathy_intonation_perc_control,2024.2.4,Win32,59.88023952,5f0527d40807f31c712153eb,68817205a84113384fffdfe3,688248ce8d4408159721f2ff,,,,,,,,,,,,,,,,,,,,,,,,,,,,,,234.6968,235.6236,0,2,2,2,1,,,,,,,,,,,,,,,,,,,,,,,,,,,,,,,,,,,,,,,,,,,,,,,,,
,,,,,,,,,5f0527d40807f31c712153eb,spanish,13 or older,click here to respond,no,2025-07-24_10h53.41.039,empathy_intonation_perc_control,2024.2.4,Win32,59.88023952,5f0527d40807f31c712153eb,68817205a84113384fffdfe3,688248ce8d4408159721f2ff,,,,,,,,,,,,,0,,,,,,,,,,,,,,,,,,,,,,,,235.633,239.9733,1,0,3.8002,,239.9737,240.9766,0,0,0,0,1,0,depiste,REAL,FAKE,,,,,,,,,,,,,,,,,,,,,,,,,,,,,,,,
,,,,,,,,,5f0527d40807f31c712153eb,spanish,13 or older,click here to respond,no,2025-07-24_10h53.41.039,empathy_intonation_perc_control,2024.2.4,Win32,59.88023952,5f0527d40807f31c712153eb,68817205a84113384fffdfe3,688248ce8d4408159721f2ff,,,,,,,,,,,,,1,,,,,,,,,,,,,,,,,,,,,,,,240.9784,242.6736,1,1,1.1572,,242.6752,243.6639,0,1,1,1,1,0,sí,REAL,FAKE,,,,,,,,,,,,,,,,,,,,,,,,,,,,,,,,
,,,,,,,,,5f0527d40807f31c712153eb,spanish,13 or older,click here to respond,no,2025-07-24_10h53.41.039,empathy_intonation_perc_control,2024.2.4,Win32,59.88023952,5f0527d40807f31c712153eb,68817205a84113384fffdfe3,688248ce8d4408159721f2ff,,,,,,,,,,,,,0,,,,,,,,,,,,,,,,,,,,,,,,243.6657,246.84,0,1,2.6336,,246.8401,247.8398,0,2,2,2,1,0,coné,REAL,FAKE,,,,,,,,,,,,,,,,,,,,,,,,,,,,,,,,
,,,,,,,,,5f0527d40807f31c712153eb,spanish,13 or older,click here to respond,no,2025-07-24_10h53.41.039,empathy_intonation_perc_control,2024.2.4,Win32,59.88023952,5f0527d40807f31c712153eb,68817205a84113384fffdfe3,688248ce8d4408159721f2ff,,,,,,,,,,,,,0,,,,,,,,,,,,,,,,,,,,,,,,247.8412,249.4771,0,1,1.0973,,249.4774,250.4761,0,3,3,3,1,0,calpar,REAL,FAKE,,,,,,,,,,,,,,,,,,,,,,,,,,,,,,,,
,,,,,,,,,5f0527d40807f31c712153eb,spanish,13 or older,click here to respond,no,2025-07-24_10h53.41.039,empathy_intonation_perc_control,2024.2.4,Win32,59.88023952,5f0527d40807f31c712153eb,68817205a84113384fffdfe3,688248ce8d4408159721f2ff,,,,,,,,,,,,,0,,,,,,,,,,,,,,,,,,,,,,,,250.4775,251.7303,0,1,0.7141,,251.7303,252.7262,0,4,4,4,1,0,joten,REAL,FAKE,,,,,,,,,,,,,,,,,,,,,,,,,,,,,,,,
,,,,,,,,,5f0527d40807f31c712153eb,spanish,13 or older,click here to respond,no,2025-07-24_10h53.41.039,empathy_intonation_perc_control,2024.2.4,Win32,59.88023952,5f0527d40807f31c712153eb,68817205a84113384fffdfe3,688248ce8d4408159721f2ff,,,,,,,,,,,,,1,,,,,,,,,,,,,,,,,,,,,,,,252.7271,254.0429,0,0,0.7835,,254.0436,255.0328,0,5,5,5,1,0,sacapuntas,REAL,FAKE,,,,,,,,,,,,,,,,,,,,,,,,,,,,,,,,
,,,,,,,,,5f0527d40807f31c712153eb,spanish,13 or older,click here to respond,no,2025-07-24_10h53.41.039,empathy_intonation_perc_control,2024.2.4,Win32,59.88023952,5f0527d40807f31c712153eb,68817205a84113384fffdfe3,688248ce8d4408159721f2ff,,,,,,,,,,,,,0,,,,,,,,,,,,,,,,,,,,,,,,255.0344,256.4063,1,0,0.8336,,256.4064,257.396,0,6,6,6,1,0,priba,REAL,FAKE,,,,,,,,,,,,,,,,,,,,,,,,,,,,,,,,
,,,,,,,,,5f0527d40807f31c712153eb,spanish,13 or older,click here to respond,no,2025-07-24_10h53.41.039,empathy_intonation_perc_control,2024.2.4,Win32,59.88023952,5f0527d40807f31c712153eb,68817205a84113384fffdfe3,688248ce8d4408159721f2ff,,,,,,,,,,,,,0,,,,,,,,,,,,,,,,,,,,,,,,257.3967,260.8562,1,0,2.9168,,260.8564,261.8595,0,7,7,7,1,0,pelasula,REAL,FAKE,,,,,,,,,,,,,,,,,,,,,,,,,,,,,,,,
,,,,,,,,,5f0527d40807f31c712153eb,spanish,13 or older,click here to respond,no,2025-07-24_10h53.41.039,empathy_intonation_perc_control,2024.2.4,Win32,59.88023952,5f0527d40807f31c712153eb,68817205a84113384fffdfe3,688248ce8d4408159721f2ff,,,,,,,,,,,,,1,,,,,,,,,,,,,,,,,,,,,,,,261.8605,263.7097,1,1,1.3196,,263.7107,264.7007,0,8,8,8,1,0,bien,REAL,FAKE,,,,,,,,,,,,,,,,,,,,,,,,,,,,,,,,
,,,,,,,,,5f0527d40807f31c712153eb,spanish,13 or older,click here to respond,no,2025-07-24_10h53.41.039,empathy_intonation_perc_control,2024.2.4,Win32,59.88023952,5f0527d40807f31c712153eb,68817205a84113384fffdfe3,688248ce8d4408159721f2ff,,,,,,,,,,,,,1,,,,,,,,,,,,,,,,,,,,,,,,264.7021,265.931,1,1,0.6833,,265.931,266.9383,0,9,9,9,1,0,casa,REAL,FAKE,,,,,,,,,,,,,,,,,,,,,,,,,,,,,,,,
,,,,,,,,,5f0527d40807f31c712153eb,spanish,13 or older,click here to respond,no,2025-07-24_10h53.41.039,empathy_intonation_perc_control,2024.2.4,Win32,59.88023952,5f0527d40807f31c712153eb,68817205a84113384fffdfe3,688248ce8d4408159721f2ff,,,,,,,,,,,,,0,,,,,,,,,,,,,,,,,,,,,,,,266.9396,268.2596,1,0,0.7838,,268.2606,269.2475,0,10,10,10,1,0,lejo,REAL,FAKE,,,,,,,,,,,,,,,,,,,,,,,,,,,,,,,,
,,,,,,,,,5f0527d40807f31c712153eb,spanish,13 or older,click here to respond,no,2025-07-24_10h53.41.039,empathy_intonation_perc_control,2024.2.4,Win32,59.88023952,5f0527d40807f31c712153eb,68817205a84113384fffdfe3,688248ce8d4408159721f2ff,,,,,,,,,,,,,0,,,,,,,,,,,,,,,,,,,,,,,,269.2489,271.2566,1,0,1.4672,,271.2566,272.2465,0,11,11,11,1,0,pretantas,REAL,FAKE,,,,,,,,,,,,,,,,,,,,,,,,,,,,,,,,
,,,,,,,,,5f0527d40807f31c712153eb,spanish,13 or older,click here to respond,no,2025-07-24_10h53.41.039,empathy_intonation_perc_control,2024.2.4,Win32,59.88023952,5f0527d40807f31c712153eb,68817205a84113384fffdfe3,688248ce8d4408159721f2ff,,,,,,,,,,,,,,,,,,,,,,,,,,,,,,,,,,,,,,,,,,,,,,,,,,,,,,272.2471,273.524,,,,,,,,,,,,,,,,,,,,,,,,,,,,,,
,,,,,,,,,5f0527d40807f31c712153eb,spanish,13 or older,click here to respond,no,2025-07-24_10h53.41.039,empathy_intonation_perc_control,2024.2.4,Win32,59.88023952,5f0527d40807f31c712153eb,68817205a84113384fffdfe3,688248ce8d4408159721f2ff,,,,,,,,,,,,,1,,,,,,,,,,,,,,,,,,,,,,,,,,,,,,,,,,,,,24,látigo,,,,,273.5416,275.3068,1,1,1.2335,,0,0,0,23,1,REAL,FAKE,,,,,,,,,,,,,,,,,
,,,,,,,,,5f0527d40807f31c712153eb,spanish,13 or older,click here to respond,no,2025-07-24_10h53.41.039,empathy_intonation_perc_control,2024.2.4,Win32,59.88023952,5f0527d40807f31c712153eb,68817205a84113384fffdfe3,688248ce8d4408159721f2ff,,,,,,,,,,,,,1,,,,,,,,,,,,,,,,,,,,,,,,,,,,,,,,,,,,,85,laúd,,,,,275.3086,276.9142,1,1,1.0731,,0,1,1,84,1,REAL,FAKE,,,,,,,,,,,,,,,,,
,,,,,,,,,5f0527d40807f31c712153eb,spanish,13 or older,click here to respond,no,2025-07-24_10h53.41.039,empathy_intonation_perc_control,2024.2.4,Win32,59.88023952,5f0527d40807f31c712153eb,68817205a84113384fffdfe3,688248ce8d4408159721f2ff,,,,,,,,,,,,,1,,,,,,,,,,,,,,,,,,,,,,,,,,,,,,,,,,,,,20,ávido,,,,,276.9161,278.231,1,1,0.7665,,0,2,2,19,1,REAL,FAKE,,,,,,,,,,,,,,,,,
,,,,,,,,,5f0527d40807f31c712153eb,spanish,13 or older,click here to respond,no,2025-07-24_10h53.41.039,empathy_intonation_perc_control,2024.2.4,Win32,59.88023952,5f0527d40807f31c712153eb,68817205a84113384fffdfe3,688248ce8d4408159721f2ff,,,,,,,,,,,,,1,,,,,,,,,,,,,,,,,,,,,,,,,,,,,,,,,,,,,49,ganar,,,,,278.2323,279.7399,0,0,0.9754,,0,3,3,48,1,REAL,FAKE,,,,,,,,,,,,,,,,,
,,,,,,,,,5f0527d40807f31c712153eb,spanish,13 or older,click here to respond,no,2025-07-24_10h53.41.039,empathy_intonation_perc_control,2024.2.4,Win32,59.88023952,5f0527d40807f31c712153eb,68817205a84113384fffdfe3,688248ce8d4408159721f2ff,,,,,,,,,,,,,1,,,,,,,,,,,,,,,,,,,,,,,,,,,,,,,,,,,,,56,musgo,,,,,279.7417,280.9972,0,0,0.7243,,0,4,4,55,1,REAL,FAKE,,,,,,,,,,,,,,,,,
,,,,,,,,,5f0527d40807f31c712153eb,spanish,13 or older,click here to respond,no,2025-07-24_10h53.41.039,empathy_intonation_perc_control,2024.2.4,Win32,59.88023952,5f0527d40807f31c712153eb,68817205a84113384fffdfe3,688248ce8d4408159721f2ff,,,,,,,,,,,,,0,,,,,,,,,,,,,,,,,,,,,,,,,,,,,,,,,,,,,92,click the 0 key.,,,,,280.9998,282.9928,0,1,1.4569,,0,5,5,91,1,REAL,FAKE,,,,,,,,,,,,,,,,,
,,,,,,,,,5f0527d40807f31c712153eb,spanish,13 or older,click here to respond,no,2025-07-24_10h53.41.039,empathy_intonation_perc_control,2024.2.4,Win32,59.88023952,5f0527d40807f31c712153eb,68817205a84113384fffdfe3,688248ce8d4408159721f2ff,,,,,,,,,,,,,1,,,,,,,,,,,,,,,,,,,,,,,,,,,,,,,,,,,,,52,camisa,,,,,282.9942,284.7926,1,1,1.2631,,0,6,6,51,1,REAL,FAKE,,,,,,,,,,,,,,,,,
,,,,,,,,,5f0527d40807f31c712153eb,spanish,13 or older,click here to respond,no,2025-07-24_10h53.41.039,empathy_intonation_perc_control,2024.2.4,Win32,59.88023952,5f0527d40807f31c712153eb,68817205a84113384fffdfe3,688248ce8d4408159721f2ff,,,,,,,,,,,,,1,,,,,,,,,,,,,,,,,,,,,,,,,,,,,,,,,,,,,43,canela,,,,,284.7935,286.1639,1,1,0.8314,,0,7,7,42,1,REAL,FAKE,,,,,,,,,,,,,,,,,
,,,,,,,,,5f0527d40807f31c712153eb,spanish,13 or older,click here to respond,no,2025-07-24_10h53.41.039,empathy_intonation_perc_control,2024.2.4,Win32,59.88023952,5f0527d40807f31c712153eb,68817205a84113384fffdfe3,688248ce8d4408159721f2ff,,,,,,,,,,,,,0,,,,,,,,,,,,,,,,,,,,,,,,,,,,,,,,,,,,,19,brecedad,,,,,286.1652,287.4095,0,1,0.6992,,0,8,8,18,1,REAL,FAKE,,,,,,,,,,,,,,,,,
,,,,,,,,,5f0527d40807f31c712153eb,spanish,13 or older,click here to respond,no,2025-07-24_10h53.41.039,empathy_intonation_perc_control,2024.2.4,Win32,59.88023952,5f0527d40807f31c712153eb,68817205a84113384fffdfe3,688248ce8d4408159721f2ff,,,,,,,,,,,,,1,,,,,,,,,,,,,,,,,,,,,,,,,,,,,,,,,,,,,44,cuchara,,,,,287.411,289.2426,1,1,1.282,,0,9,9,43,1,REAL,FAKE,,,,,,,,,,,,,,,,,
,,,,,,,,,5f0527d40807f31c712153eb,spanish,13 or older,click here to respond,no,2025-07-24_10h53.41.039,empathy_intonation_perc_control,2024.2.4,Win32,59.88023952,5f0527d40807f31c712153eb,68817205a84113384fffdfe3,688248ce8d4408159721f2ff,,,,,,,,,,,,,1,,,,,,,,,,,,,,,,,,,,,,,,,,,,,,,,,,,,,69,engatusar,,,,,289.244,291.5394,0,0,1.7607,,0,10,10,68,1,REAL,FAKE,,,,,,,,,,,,,,,,,
,,,,,,,,,5f0527d40807f31c712153eb,spanish,13 or older,click here to respond,no,2025-07-24_10h53.41.039,empathy_intonation_perc_control,2024.2.4,Win32,59.88023952,5f0527d40807f31c712153eb,68817205a84113384fffdfe3,688248ce8d4408159721f2ff,,,,,,,,,,,,,0,,,,,,,,,,,,,,,,,,,,,,,,,,,,,,,,,,,,,79,tropaje,,,,,291.5402,292.9786,0,1,0.9084,,0,11,11,78,1,REAL,FAKE,,,,,,,,,,,,,,,,,
,,,,,,,,,5f0527d40807f31c712153eb,spanish,13 or older,click here to respond,no,2025-07-24_10h53.41.039,empathy_intonation_perc_control,2024.2.4,Win32,59.88023952,5f0527d40807f31c712153eb,68817205a84113384fffdfe3,688248ce8d4408159721f2ff,,,,,,,,,,,,,0,,,,,,,,,,,,,,,,,,,,,,,,,,,,,,,,,,,,,50,flamida,,,,,292.9795,294.2221,1,0,0.7074,,0,12,12,49,1,REAL,FAKE,,,,,,,,,,,,,,,,,
,,,,,,,,,5f0527d40807f31c712153eb,spanish,13 or older,click here to respond,no,2025-07-24_10h53.41.039,empathy_intonation_perc_control,2024.2.4,Win32,59.88023952,5f0527d40807f31c712153eb,68817205a84113384fffdfe3,688248ce8d4408159721f2ff,,,,,,,,,,,,,0,,,,,,,,,,,,,,,,,,,,,,,,,,,,,,,,,,,,,18,arsa,,,,,294.2229,295.476,0,1,0.7082,,0,13,13,17,1,REAL,FAKE,,,,,,,,,,,,,,,,,
,,,,,,,,,5f0527d40807f31c712153eb,spanish,13 or older,click here to respond,no,2025-07-24_10h53.41.039,empathy_intonation_perc_control,2024.2.4,Win32,59.88023952,5f0527d40807f31c712153eb,68817205a84113384fffdfe3,688248ce8d4408159721f2ff,,,,,,,,,,,,,1,,,,,,,,,,,,,,,,,,,,,,,,,,,,,,,,,,,,,7,pésimo,,,,,295.4772,296.7261,1,1,0.7137,,0,14,14,6,1,REAL,FAKE,,,,,,,,,,,,,,,,,
,,,,,,,,,5f0527d40807f31c712153eb,spanish,13 or older,click here to respond,no,2025-07-24_10h53.41.039,empathy_intonation_perc_control,2024.2.4,Win32,59.88023952,5f0527d40807f31c712153eb,68817205a84113384fffdfe3,688248ce8d4408159721f2ff,,,,,,,,,,,,,0,,,,,,,,,,,,,,,,,,,,,,,,,,,,,,,,,,,,,74,cintro,,,,,296.7273,298.823,0,1,1.5607,,0,15,15,73,1,REAL,FAKE,,,,,,,,,,,,,,,,,
,,,,,,,,,5f0527d40807f31c712153eb,spanish,13 or older,click here to respond,no,2025-07-24_10h53.41.039,empathy_intonation_perc_control,2024.2.4,Win32,59.88023952,5f0527d40807f31c712153eb,68817205a84113384fffdfe3,688248ce8d4408159721f2ff,,,,,,,,,,,,,1,,,,,,,,,,,,,,,,,,,,,,,,,,,,,,,,,,,,,54,fomentar,,,,,298.8241,301.2092,1,1,1.8503,,0,16,16,53,1,REAL,FAKE,,,,,,,,,,,,,,,,,
,,,,,,,,,5f0527d40807f31c712153eb,spanish,13 or older,click here to respond,no,2025-07-24_10h53.41.039,empathy_intonation_perc_control,2024.2.4,Win32,59.88023952,5f0527d40807f31c712153eb,68817205a84113384fffdfe3,688248ce8d4408159721f2ff,,,,,,,,,,,,,1,,,,,,,,,,,,,,,,,,,,,,,,,,,,,,,,,,,,,31,pandilla,,,,,301.2106,302.9138,1,1,1.1749,,0,17,17,30,1,REAL,FAKE,,,,,,,,,,,,,,,,,
,,,,,,,,,5f0527d40807f31c712153eb,spanish,13 or older,click here to respond,no,2025-07-24_10h53.41.039,empathy_intonation_perc_control,2024.2.4,Win32,59.88023952,5f0527d40807f31c712153eb,68817205a84113384fffdfe3,688248ce8d4408159721f2ff,,,,,,,,,,,,,0,,,,,,,,,,,,,,,,,,,,,,,,,,,,,,,,,,,,,29,decar,,,,,302.9146,303.9967,0,1,0.5501,,0,18,18,28,1,REAL,FAKE,,,,,,,,,,,,,,,,,
,,,,,,,,,5f0527d40807f31c712153eb,spanish,13 or older,click here to respond,no,2025-07-24_10h53.41.039,empathy_intonation_perc_control,2024.2.4,Win32,59.88023952,5f0527d40807f31c712153eb,68817205a84113384fffdfe3,688248ce8d4408159721f2ff,,,,,,,,,,,,,0,,,,,,,,,,,,,,,,,,,,,,,,,,,,,,,,,,,,,32,fatacidad,,,,,303.9976,305.4216,0,1,0.8829,,0,19,19,31,1,REAL,FAKE,,,,,,,,,,,,,,,,,
,,,,,,,,,5f0527d40807f31c712153eb,spanish,13 or older,click here to respond,no,2025-07-24_10h53.41.039,empathy_intonation_perc_control,2024.2.4,Win32,59.88023952,5f0527d40807f31c712153eb,68817205a84113384fffdfe3,688248ce8d4408159721f2ff,,,,,,,,,,,,,0,,,,,,,,,,,,,,,,,,,,,,,,,,,,,,,,,,,,,10,antar,,,,,305.4223,306.6093,0,1,0.6526,,0,20,20,9,1,REAL,FAKE,,,,,,,,,,,,,,,,,
,,,,,,,,,5f0527d40807f31c712153eb,spanish,13 or older,click here to respond,no,2025-07-24_10h53.41.039,empathy_intonation_perc_control,2024.2.4,Win32,59.88023952,5f0527d40807f31c712153eb,68817205a84113384fffdfe3,688248ce8d4408159721f2ff,,,,,,,,,,,,,1,,,,,,,,,,,,,,,,,,,,,,,,,,,,,,,,,,,,,37,granuja,,,,,306.6105,307.9895,0,0,0.8507,,0,21,21,36,1,REAL,FAKE,,,,,,,,,,,,,,,,,
,,,,,,,,,5f0527d40807f31c712153eb,spanish,13 or older,click here to respond,no,2025-07-24_10h53.41.039,empathy_intonation_perc_control,2024.2.4,Win32,59.88023952,5f0527d40807f31c712153eb,68817205a84113384fffdfe3,688248ce8d4408159721f2ff,,,,,,,,,,,,,1,,,,,,,,,,,,,,,,,,,,,,,,,,,,,,,,,,,,,51,candado,,,,,307.9902,309.5731,1,1,1.0506,,0,22,22,50,1,REAL,FAKE,,,,,,,,,,,,,,,,,
,,,,,,,,,5f0527d40807f31c712153eb,spanish,13 or older,click here to respond,no,2025-07-24_10h53.41.039,empathy_intonation_perc_control,2024.2.4,Win32,59.88023952,5f0527d40807f31c712153eb,68817205a84113384fffdfe3,688248ce8d4408159721f2ff,,,,,,,,,,,,,1,,,,,,,,,,,,,,,,,,,,,,,,,,,,,,,,,,,,,88,acantilado,,,,,309.5743,311.6395,1,1,1.5336,,0,23,23,87,1,REAL,FAKE,,,,,,,,,,,,,,,,,
,,,,,,,,,5f0527d40807f31c712153eb,spanish,13 or older,click here to respond,no,2025-07-24_10h53.41.039,empathy_intonation_perc_control,2024.2.4,Win32,59.88023952,5f0527d40807f31c712153eb,68817205a84113384fffdfe3,688248ce8d4408159721f2ff,,,,,,,,,,,,,1,,,,,,,,,,,,,,,,,,,,,,,,,,,,,,,,,,,,,2,pellizcar,,,,,311.6412,313.1094,1,1,0.9347,,0,24,24,1,1,REAL,FAKE,,,,,,,,,,,,,,,,,
,,,,,,,,,5f0527d40807f31c712153eb,spanish,13 or older,click here to respond,no,2025-07-24_10h53.41.039,empathy_intonation_perc_control,2024.2.4,Win32,59.88023952,5f0527d40807f31c712153eb,68817205a84113384fffdfe3,688248ce8d4408159721f2ff,,,,,,,,,,,,,0,,,,,,,,,,,,,,,,,,,,,,,,,,,,,,,,,,,,,47,cartinar,,,,,313.1109,314.3394,0,1,0.6755,,0,25,25,46,1,REAL,FAKE,,,,,,,,,,,,,,,,,
,,,,,,,,,5f0527d40807f31c712153eb,spanish,13 or older,click here to respond,no,2025-07-24_10h53.41.039,empathy_intonation_perc_control,2024.2.4,Win32,59.88023952,5f0527d40807f31c712153eb,68817205a84113384fffdfe3,688248ce8d4408159721f2ff,,,,,,,,,,,,,1,,,,,,,,,,,,,,,,,,,,,,,,,,,,,,,,,,,,,46,martillo,,,,,314.3401,315.6303,0,0,0.7498,,0,26,26,45,1,REAL,FAKE,,,,,,,,,,,,,,,,,
,,,,,,,,,5f0527d40807f31c712153eb,spanish,13 or older,click here to respond,no,2025-07-24_10h53.41.039,empathy_intonation_perc_control,2024.2.4,Win32,59.88023952,5f0527d40807f31c712153eb,68817205a84113384fffdfe3,688248ce8d4408159721f2ff,,,,,,,,,,,,,0,,,,,,,,,,,,,,,,,,,,,,,,,,,,,,,,,,,,,42,cadallo,,,,,315.6317,316.8436,1,0,0.671,,0,27,27,41,1,REAL,FAKE,,,,,,,,,,,,,,,,,
,,,,,,,,,5f0527d40807f31c712153eb,spanish,13 or older,click here to respond,no,2025-07-24_10h53.41.039,empathy_intonation_perc_control,2024.2.4,Win32,59.88023952,5f0527d40807f31c712153eb,68817205a84113384fffdfe3,688248ce8d4408159721f2ff,,,,,,,,,,,,,1,,,,,,,,,,,,,,,,,,,,,,,,,,,,,,,,,,,,,77,tiburón,,,,,316.8457,317.8221,0,0,0.4331,,0,28,28,76,1,REAL,FAKE,,,,,,,,,,,,,,,,,
,,,,,,,,,5f0527d40807f31c712153eb,spanish,13 or older,click here to respond,no,2025-07-24_10h53.41.039,empathy_intonation_perc_control,2024.2.4,Win32,59.88023952,5f0527d40807f31c712153eb,68817205a84113384fffdfe3,688248ce8d4408159721f2ff,,,,,,,,,,,,,1,,,,,,,,,,,,,,,,,,,,,,,,,,,,,,,,,,,,,57,tacaño,,,,,317.8239,319.4839,1,1,1.1199,,0,29,29,56,1,REAL,FAKE,,,,,,,,,,,,,,,,,
,,,,,,,,,5f0527d40807f31c712153eb,spanish,13 or older,click here to respond,no,2025-07-24_10h53.41.039,empathy_intonation_perc_control,2024.2.4,Win32,59.88023952,5f0527d40807f31c712153eb,68817205a84113384fffdfe3,688248ce8d4408159721f2ff,,,,,,,,,,,,,0,,,,,,,,,,,,,,,,,,,,,,,,,,,,,,,,,,,,,63,esposante,,,,,319.4854,320.5091,0,1,0.4837,,0,30,30,62,1,REAL,FAKE,,,,,,,,,,,,,,,,,
,,,,,,,,,5f0527d40807f31c712153eb,spanish,13 or older,click here to respond,no,2025-07-24_10h53.41.039,empathy_intonation_perc_control,2024.2.4,Win32,59.88023952,5f0527d40807f31c712153eb,68817205a84113384fffdfe3,688248ce8d4408159721f2ff,,,,,,,,,,,,,1,,,,,,,,,,,,,,,,,,,,,,,,,,,,,,,,,,,,,81,pozo,,,,,320.5105,321.393,1,1,0.3428,,0,31,31,80,1,REAL,FAKE,,,,,,,,,,,,,,,,,
,,,,,,,,,5f0527d40807f31c712153eb,spanish,13 or older,click here to respond,no,2025-07-24_10h53.41.039,empathy_intonation_perc_control,2024.2.4,Win32,59.88023952,5f0527d40807f31c712153eb,68817205a84113384fffdfe3,688248ce8d4408159721f2ff,,,,,,,,,,,,,1,,,,,,,,,,,,,,,,,,,,,,,,,,,,,,,,,,,,,6,tergiversar,,,,,321.3946,322.6561,0,0,0.7251,,0,32,32,5,1,REAL,FAKE,,,,,,,,,,,,,,,,,
,,,,,,,,,5f0527d40807f31c712153eb,spanish,13 or older,click here to respond,no,2025-07-24_10h53.41.039,empathy_intonation_perc_control,2024.2.4,Win32,59.88023952,5f0527d40807f31c712153eb,68817205a84113384fffdfe3,688248ce8d4408159721f2ff,,,,,,,,,,,,,1,,,,,,,,,,,,,,,,,,,,,,,,,,,,,,,,,,,,,62,flaco,,,,,322.6574,323.7978,0,0,0.6087,,0,33,33,61,1,REAL,FAKE,,,,,,,,,,,,,,,,,
,,,,,,,,,5f0527d40807f31c712153eb,spanish,13 or older,click here to respond,no,2025-07-24_10h53.41.039,empathy_intonation_perc_control,2024.2.4,Win32,59.88023952,5f0527d40807f31c712153eb,68817205a84113384fffdfe3,688248ce8d4408159721f2ff,,,,,,,,,,,,,1,,,,,,,,,,,,,,,,,,,,,,,,,,,,,,,,,,,,,15,regar,,,,,323.799,324.8092,1,1,0.459,,0,34,34,14,1,REAL,FAKE,,,,,,,,,,,,,,,,,
,,,,,,,,,5f0527d40807f31c712153eb,spanish,13 or older,click here to respond,no,2025-07-24_10h53.41.039,empathy_intonation_perc_control,2024.2.4,Win32,59.88023952,5f0527d40807f31c712153eb,68817205a84113384fffdfe3,688248ce8d4408159721f2ff,,,,,,,,,,,,,1,,,,,,,,,,,,,,,,,,,,,,,,,,,,,,,,,,,,,78,frondoso,,,,,324.8104,326.1562,0,0,0.8086,,0,35,35,77,1,REAL,FAKE,,,,,,,,,,,,,,,,,
,,,,,,,,,5f0527d40807f31c712153eb,spanish,13 or older,click here to respond,no,2025-07-24_10h53.41.039,empathy_intonation_perc_control,2024.2.4,Win32,59.88023952,5f0527d40807f31c712153eb,68817205a84113384fffdfe3,688248ce8d4408159721f2ff,,,,,,,,,,,,,1,,,,,,,,,,,,,,,,,,,,,,,,,,,,,,,,,,,,,9,hacha,,,,,326.1575,328.0091,1,1,1.3182,,0,36,36,8,1,REAL,FAKE,,,,,,,,,,,,,,,,,
,,,,,,,,,5f0527d40807f31c712153eb,spanish,13 or older,click here to respond,no,2025-07-24_10h53.41.039,empathy_intonation_perc_control,2024.2.4,Win32,59.88023952,5f0527d40807f31c712153eb,68817205a84113384fffdfe3,688248ce8d4408159721f2ff,,,,,,,,,,,,,1,,,,,,,,,,,,,,,,,,,,,,,,,,,,,,,,,,,,,39,torpe,,,,,328.0105,329.1174,0,0,0.5616,,0,37,37,38,1,REAL,FAKE,,,,,,,,,,,,,,,,,
,,,,,,,,,5f0527d40807f31c712153eb,spanish,13 or older,click here to respond,no,2025-07-24_10h53.41.039,empathy_intonation_perc_control,2024.2.4,Win32,59.88023952,5f0527d40807f31c712153eb,68817205a84113384fffdfe3,688248ce8d4408159721f2ff,,,,,,,,,,,,,1,,,,,,,,,,,,,,,,,,,,,,,,,,,,,,,,,,,,,55,nevar,,,,,329.119,330.2474,1,1,0.5834,,0,38,38,54,1,REAL,FAKE,,,,,,,,,,,,,,,,,
,,,,,,,,,5f0527d40807f31c712153eb,spanish,13 or older,click here to respond,no,2025-07-24_10h53.41.039,empathy_intonation_perc_control,2024.2.4,Win32,59.88023952,5f0527d40807f31c712153eb,68817205a84113384fffdfe3,688248ce8d4408159721f2ff,,,,,,,,,,,,,1,,,,,,,,,,,,,,,,,,,,,,,,,,,,,,,,,,,,,40,alfombra,,,,,330.2487,331.4386,0,0,0.6409,,0,39,39,39,1,REAL,FAKE,,,,,,,,,,,,,,,,,
,,,,,,,,,5f0527d40807f31c712153eb,spanish,13 or older,click here to respond,no,2025-07-24_10h53.41.039,empathy_intonation_perc_control,2024.2.4,Win32,59.88023952,5f0527d40807f31c712153eb,68817205a84113384fffdfe3,688248ce8d4408159721f2ff,,,,,,,,,,,,,0,,,,,,,,,,,,,,,,,,,,,,,,,,,,,,,,,,,,,17,floroso,,,,,331.4397,332.7998,0,1,0.8275,,0,40,40,16,1,REAL,FAKE,,,,,,,,,,,,,,,,,
,,,,,,,,,5f0527d40807f31c712153eb,spanish,13 or older,click here to respond,no,2025-07-24_10h53.41.039,empathy_intonation_perc_control,2024.2.4,Win32,59.88023952,5f0527d40807f31c712153eb,68817205a84113384fffdfe3,688248ce8d4408159721f2ff,,,,,,,,,,,,,1,,,,,,,,,,,,,,,,,,,,,,,,,,,,,,,,,,,,,5,zapato,,,,,332.8007,334.3424,1,1,1.0006,,0,41,41,4,1,REAL,FAKE,,,,,,,,,,,,,,,,,
,,,,,,,,,5f0527d40807f31c712153eb,spanish,13 or older,click here to respond,no,2025-07-24_10h53.41.039,empathy_intonation_perc_control,2024.2.4,Win32,59.88023952,5f0527d40807f31c712153eb,68817205a84113384fffdfe3,688248ce8d4408159721f2ff,,,,,,,,,,,,,1,,,,,,,,,,,,,,,,,,,,,,,,,,,,,,,,,,,,,12,asesinato,,,,,334.3437,336.3424,1,1,1.4527,,0,42,42,11,1,REAL,FAKE,,,,,,,,,,,,,,,,,
,,,,,,,,,5f0527d40807f31c712153eb,spanish,13 or older,click here to respond,no,2025-07-24_10h53.41.039,empathy_intonation_perc_control,2024.2.4,Win32,59.88023952,5f0527d40807f31c712153eb,68817205a84113384fffdfe3,688248ce8d4408159721f2ff,,,,,,,,,,,,,0,,,,,,,,,,,,,,,,,,,,,,,,,,,,,,,,,,,,,58,plaudir,,,,,336.3438,337.5425,0,1,0.6591,,0,43,43,57,1,REAL,FAKE,,,,,,,,,,,,,,,,,
,,,,,,,,,5f0527d40807f31c712153eb,spanish,13 or older,click here to respond,no,2025-07-24_10h53.41.039,empathy_intonation_perc_control,2024.2.4,Win32,59.88023952,5f0527d40807f31c712153eb,68817205a84113384fffdfe3,688248ce8d4408159721f2ff,,,,,,,,,,,,,0,,,,,,,,,,,,,,,,,,,,,,,,,,,,,,,,,,,,,72,pemición,,,,,337.544,338.9728,1,0,0.8998,,0,44,44,71,1,REAL,FAKE,,,,,,,,,,,,,,,,,
,,,,,,,,,5f0527d40807f31c712153eb,spanish,13 or older,click here to respond,no,2025-07-24_10h53.41.039,empathy_intonation_perc_control,2024.2.4,Win32,59.88023952,5f0527d40807f31c712153eb,68817205a84113384fffdfe3,688248ce8d4408159721f2ff,,,,,,,,,,,,,0,,,,,,,,,,,,,,,,,,,,,,,,,,,,,,,,,,,,,70,temblo,,,,,338.9739,341.1756,0,1,1.6602,,0,45,45,69,1,REAL,FAKE,,,,,,,,,,,,,,,,,
,,,,,,,,,5f0527d40807f31c712153eb,spanish,13 or older,click here to respond,no,2025-07-24_10h53.41.039,empathy_intonation_perc_control,2024.2.4,Win32,59.88023952,5f0527d40807f31c712153eb,68817205a84113384fffdfe3,688248ce8d4408159721f2ff,,,,,,,,,,,,,0,,,,,,,,,,,,,,,,,,,,,,,,,,,,,,,,,,,,,4,batillón,,,,,341.1774,342.5394,1,0,0.8171,,0,46,46,3,1,REAL,FAKE,,,,,,,,,,,,,,,,,
,,,,,,,,,5f0527d40807f31c712153eb,spanish,13 or older,click here to respond,no,2025-07-24_10h53.41.039,empathy_intonation_perc_control,2024.2.4,Win32,59.88023952,5f0527d40807f31c712153eb,68817205a84113384fffdfe3,688248ce8d4408159721f2ff,,,,,,,,,,,,,0,,,,,,,,,,,,,,,,,,,,,,,,,,,,,,,,,,,,,27,acutación,,,,,342.5406,344.2146,1,0,1.1337,,0,47,47,26,1,REAL,FAKE,,,,,,,,,,,,,,,,,
,,,,,,,,,5f0527d40807f31c712153eb,spanish,13 or older,click here to respond,no,2025-07-24_10h53.41.039,empathy_intonation_perc_control,2024.2.4,Win32,59.88023952,5f0527d40807f31c712153eb,68817205a84113384fffdfe3,688248ce8d4408159721f2ff,,,,,,,,,,,,,0,,,,,,,,,,,,,,,,,,,,,,,,,,,,,,,,,,,,,66,hacido,,,,,344.2159,346.2299,0,1,1.4903,,0,48,48,65,1,REAL,FAKE,,,,,,,,,,,,,,,,,
,,,,,,,,,5f0527d40807f31c712153eb,spanish,13 or older,click here to respond,no,2025-07-24_10h53.41.039,empathy_intonation_perc_control,2024.2.4,Win32,59.88023952,5f0527d40807f31c712153eb,68817205a84113384fffdfe3,688248ce8d4408159721f2ff,,,,,,,,,,,,,1,,,,,,,,,,,,,,,,,,,,,,,,,,,,,,,,,,,,,65,bizcocho,,,,,346.2309,347.6722,0,0,0.9166,,0,49,49,64,1,REAL,FAKE,,,,,,,,,,,,,,,,,
,,,,,,,,,5f0527d40807f31c712153eb,spanish,13 or older,click here to respond,no,2025-07-24_10h53.41.039,empathy_intonation_perc_control,2024.2.4,Win32,59.88023952,5f0527d40807f31c712153eb,68817205a84113384fffdfe3,688248ce8d4408159721f2ff,,,,,,,,,,,,,1,,,,,,,,,,,,,,,,,,,,,,,,,,,,,,,,,,,,,76,atar,,,,,347.6732,348.764,1,1,0.5503,,0,50,50,75,1,REAL,FAKE,,,,,,,,,,,,,,,,,
,,,,,,,,,5f0527d40807f31c712153eb,spanish,13 or older,click here to respond,no,2025-07-24_10h53.41.039,empathy_intonation_perc_control,2024.2.4,Win32,59.88023952,5f0527d40807f31c712153eb,68817205a84113384fffdfe3,688248ce8d4408159721f2ff,,,,,,,,,,,,,0,,,,,,,,,,,,,,,,,,,,,,,,,,,,,,,,,,,,,87,grodo,,,,,348.7653,349.8675,0,1,0.5532,,0,51,51,86,1,REAL,FAKE,,,,,,,,,,,,,,,,,
,,,,,,,,,5f0527d40807f31c712153eb,spanish,13 or older,click here to respond,no,2025-07-24_10h53.41.039,empathy_intonation_perc_control,2024.2.4,Win32,59.88023952,5f0527d40807f31c712153eb,68817205a84113384fffdfe3,688248ce8d4408159721f2ff,,,,,,,,,,,,,1,,,,,,,,,,,,,,,,,,,,,,,,,,,,,,,,,,,,,36,loro,,,,,349.869,350.959,1,1,0.5515,,0,52,52,35,1,REAL,FAKE,,,,,,,,,,,,,,,,,
,,,,,,,,,5f0527d40807f31c712153eb,spanish,13 or older,click here to respond,no,2025-07-24_10h53.41.039,empathy_intonation_perc_control,2024.2.4,Win32,59.88023952,5f0527d40807f31c712153eb,68817205a84113384fffdfe3,688248ce8d4408159721f2ff,,,,,,,,,,,,,1,,,,,,,,,,,,,,,,,,,,,,,,,,,,,,,,,,,,,59,besar,,,,,350.9605,351.8925,1,1,0.4026,,0,53,53,58,1,REAL,FAKE,,,,,,,,,,,,,,,,,
,,,,,,,,,5f0527d40807f31c712153eb,spanish,13 or older,click here to respond,no,2025-07-24_10h53.41.039,empathy_intonation_perc_control,2024.2.4,Win32,59.88023952,5f0527d40807f31c712153eb,68817205a84113384fffdfe3,688248ce8d4408159721f2ff,,,,,,,,,,,,,1,,,,,,,,,,,,,,,,,,,,,,,,,,,,,,,,,,,,,22,lacayo,,,,,351.894,353.0385,1,1,0.6162,,0,54,54,21,1,REAL,FAKE,,,,,,,,,,,,,,,,,
,,,,,,,,,5f0527d40807f31c712153eb,spanish,13 or older,click here to respond,no,2025-07-24_10h53.41.039,empathy_intonation_perc_control,2024.2.4,Win32,59.88023952,5f0527d40807f31c712153eb,68817205a84113384fffdfe3,688248ce8d4408159721f2ff,,,,,,,,,,,,,1,,,,,,,,,,,,,,,,,,,,,,,,,,,,,,,,,,,,,48,ladrón,,,,,353.0397,354.0107,0,0,0.4384,,0,55,55,47,1,REAL,FAKE,,,,,,,,,,,,,,,,,
,,,,,,,,,5f0527d40807f31c712153eb,spanish,13 or older,click here to respond,no,2025-07-24_10h53.41.039,empathy_intonation_perc_control,2024.2.4,Win32,59.88023952,5f0527d40807f31c712153eb,68817205a84113384fffdfe3,688248ce8d4408159721f2ff,,,,,,,,,,,,,1,,,,,,,,,,,,,,,,,,,,,,,,,,,,,,,,,,,,,80,hormiga,,,,,354.012,355.0007,0,0,0.4616,,0,56,56,79,1,REAL,FAKE,,,,,,,,,,,,,,,,,
,,,,,,,,,5f0527d40807f31c712153eb,spanish,13 or older,click here to respond,no,2025-07-24_10h53.41.039,empathy_intonation_perc_control,2024.2.4,Win32,59.88023952,5f0527d40807f31c712153eb,68817205a84113384fffdfe3,688248ce8d4408159721f2ff,,,,,,,,,,,,,0,,,,,,,,,,,,,,,,,,,,,,,,,,,,,,,,,,,,,82,empirador,,,,,355.002,356.3756,0,1,0.836,,0,57,57,81,1,REAL,FAKE,,,,,,,,,,,,,,,,,
,,,,,,,,,5f0527d40807f31c712153eb,spanish,13 or older,click here to respond,no,2025-07-24_10h53.41.039,empathy_intonation_perc_control,2024.2.4,Win32,59.88023952,5f0527d40807f31c712153eb,68817205a84113384fffdfe3,688248ce8d4408159721f2ff,,,,,,,,,,,,,0,,,,,,,,,,,,,,,,,,,,,,,,,,,,,,,,,,,,,16,abracer,,,,,356.3772,357.4265,0,1,0.5045,,0,58,58,15,1,REAL,FAKE,,,,,,,,,,,,,,,,,
,,,,,,,,,5f0527d40807f31c712153eb,spanish,13 or older,click here to respond,no,2025-07-24_10h53.41.039,empathy_intonation_perc_control,2024.2.4,Win32,59.88023952,5f0527d40807f31c712153eb,68817205a84113384fffdfe3,688248ce8d4408159721f2ff,,,,,,,,,,,,,1,,,,,,,,,,,,,,,,,,,,,,,,,,,,,,,,,,,,,68,alegre,,,,,357.4275,358.261,1,1,0.3052,,0,59,59,67,1,REAL,FAKE,,,,,,,,,,,,,,,,,
,,,,,,,,,5f0527d40807f31c712153eb,spanish,13 or older,click here to respond,no,2025-07-24_10h53.41.039,empathy_intonation_perc_control,2024.2.4,Win32,59.88023952,5f0527d40807f31c712153eb,68817205a84113384fffdfe3,688248ce8d4408159721f2ff,,,,,,,,,,,,,0,,,,,,,,,,,,,,,,,,,,,,,,,,,,,,,,,,,,,30,alardio,,,,,358.2623,359.106,0,1,0.317,,0,60,60,29,1,REAL,FAKE,,,,,,,,,,,,,,,,,
,,,,,,,,,5f0527d40807f31c712153eb,spanish,13 or older,click here to respond,no,2025-07-24_10h53.41.039,empathy_intonation_perc_control,2024.2.4,Win32,59.88023952,5f0527d40807f31c712153eb,68817205a84113384fffdfe3,688248ce8d4408159721f2ff,,,,,,,,,,,,,1,,,,,,,,,,,,,,,,,,,,,,,,,,,,,,,,,,,,,71,polvoriento,,,,,359.1073,359.9922,0,0,0.3503,,0,61,61,70,1,REAL,FAKE,,,,,,,,,,,,,,,,,
,,,,,,,,,5f0527d40807f31c712153eb,spanish,13 or older,click here to respond,no,2025-07-24_10h53.41.039,empathy_intonation_perc_control,2024.2.4,Win32,59.88023952,5f0527d40807f31c712153eb,68817205a84113384fffdfe3,688248ce8d4408159721f2ff,,,,,,,,,,,,,1,,,,,,,,,,,,,,,,,,,,,,,,,,,,,,,,,,,,,75,yacer,,,,,359.9936,361.0225,1,1,0.5004,,0,62,62,74,1,REAL,FAKE,,,,,,,,,,,,,,,,,
,,,,,,,,,5f0527d40807f31c712153eb,spanish,13 or older,click here to respond,no,2025-07-24_10h53.41.039,empathy_intonation_perc_control,2024.2.4,Win32,59.88023952,5f0527d40807f31c712153eb,68817205a84113384fffdfe3,688248ce8d4408159721f2ff,,,,,,,,,,,,,1,,,,,,,,,,,,,,,,,,,,,,,,,,,,,,,,,,,,,86,barato,,,,,361.0238,361.9922,0,0,0.4351,,0,63,63,85,1,REAL,FAKE,,,,,,,,,,,,,,,,,
,,,,,,,,,5f0527d40807f31c712153eb,spanish,13 or older,click here to respond,no,2025-07-24_10h53.41.039,empathy_intonation_perc_control,2024.2.4,Win32,59.88023952,5f0527d40807f31c712153eb,68817205a84113384fffdfe3,688248ce8d4408159721f2ff,,,,,,,,,,,,,0,,,,,,,,,,,,,,,,,,,,,,,,,,,,,,,,,,,,,33,pauca,,,,,361.9936,362.7924,1,0,0.2674,,0,64,64,32,1,REAL,FAKE,,,,,,,,,,,,,,,,,
,,,,,,,,,5f0527d40807f31c712153eb,spanish,13 or older,click here to respond,no,2025-07-24_10h53.41.039,empathy_intonation_perc_control,2024.2.4,Win32,59.88023952,5f0527d40807f31c712153eb,68817205a84113384fffdfe3,688248ce8d4408159721f2ff,,,,,,,,,,,,,1,,,,,,,,,,,,,,,,,,,,,,,,,,,,,,,,,,,,,11,cenefa,,,,,362.7939,363.8088,0,0,0.4853,,0,65,65,10,1,REAL,FAKE,,,,,,,,,,,,,,,,,
,,,,,,,,,5f0527d40807f31c712153eb,spanish,13 or older,click here to respond,no,2025-07-24_10h53.41.039,empathy_intonation_perc_control,2024.2.4,Win32,59.88023952,5f0527d40807f31c712153eb,68817205a84113384fffdfe3,688248ce8d4408159721f2ff,,,,,,,,,,,,,1,,,,,,,,,,,,,,,,,,,,,,,,,,,,,,,,,,,,,64,orgulloso,,,,,363.8102,365.1628,0,0,0.8074,,0,66,66,63,1,REAL,FAKE,,,,,,,,,,,,,,,,,
,,,,,,,,,5f0527d40807f31c712153eb,spanish,13 or older,click here to respond,no,2025-07-24_10h53.41.039,empathy_intonation_perc_control,2024.2.4,Win32,59.88023952,5f0527d40807f31c712153eb,68817205a84113384fffdfe3,688248ce8d4408159721f2ff,,,,,,,,,,,,,1,,,,,,,,,,,,,,,,,,,,,,,,,,,,,,,,,,,,,38,estornudar,,,,,365.1636,366.1808,0,0,0.4751,,0,67,67,37,1,REAL,FAKE,,,,,,,,,,,,,,,,,
,,,,,,,,,5f0527d40807f31c712153eb,spanish,13 or older,click here to respond,no,2025-07-24_10h53.41.039,empathy_intonation_perc_control,2024.2.4,Win32,59.88023952,5f0527d40807f31c712153eb,68817205a84113384fffdfe3,688248ce8d4408159721f2ff,,,,,,,,,,,,,1,,,,,,,,,,,,,,,,,,,,,,,,,,,,,,,,,,,,,83,guante,,,,,366.1821,367.6467,1,1,0.9247,,0,68,68,82,1,REAL,FAKE,,,,,,,,,,,,,,,,,
,,,,,,,,,5f0527d40807f31c712153eb,spanish,13 or older,click here to respond,no,2025-07-24_10h53.41.039,empathy_intonation_perc_control,2024.2.4,Win32,59.88023952,5f0527d40807f31c712153eb,68817205a84113384fffdfe3,688248ce8d4408159721f2ff,,,,,,,,,,,,,1,,,,,,,,,,,,,,,,,,,,,,,,,,,,,,,,,,,,,34,aviso,,,,,367.6476,368.5174,0,0,0.3286,,0,69,69,33,1,REAL,FAKE,,,,,,,,,,,,,,,,,
,,,,,,,,,5f0527d40807f31c712153eb,spanish,13 or older,click here to respond,no,2025-07-24_10h53.41.039,empathy_intonation_perc_control,2024.2.4,Win32,59.88023952,5f0527d40807f31c712153eb,68817205a84113384fffdfe3,688248ce8d4408159721f2ff,,,,,,,,,,,,,0,,,,,,,,,,,,,,,,,,,,,,,,,,,,,,,,,,,,,23,lampera,,,,,368.5187,369.3147,0,1,0.2675,,0,70,70,22,1,REAL,FAKE,,,,,,,,,,,,,,,,,
,,,,,,,,,5f0527d40807f31c712153eb,spanish,13 or older,click here to respond,no,2025-07-24_10h53.41.039,empathy_intonation_perc_control,2024.2.4,Win32,59.88023952,5f0527d40807f31c712153eb,68817205a84113384fffdfe3,688248ce8d4408159721f2ff,,,,,,,,,,,,,1,,,,,,,,,,,,,,,,,,,,,,,,,,,,,,,,,,,,,61,seda,,,,,369.3158,370.047,1,1,0.1836,,0,71,71,60,1,REAL,FAKE,,,,,,,,,,,,,,,,,
,,,,,,,,,5f0527d40807f31c712153eb,spanish,13 or older,click here to respond,no,2025-07-24_10h53.41.039,empathy_intonation_perc_control,2024.2.4,Win32,59.88023952,5f0527d40807f31c712153eb,68817205a84113384fffdfe3,688248ce8d4408159721f2ff,,,,,,,,,,,,,0,,,,,,,,,,,,,,,,,,,,,,,,,,,,,,,,,,,,,53,vegada,,,,,370.0482,370.906,0,1,0.3339,,0,72,72,52,1,REAL,FAKE,,,,,,,,,,,,,,,,,
,,,,,,,,,5f0527d40807f31c712153eb,spanish,13 or older,click here to respond,no,2025-07-24_10h53.41.039,empathy_intonation_perc_control,2024.2.4,Win32,59.88023952,5f0527d40807f31c712153eb,68817205a84113384fffdfe3,688248ce8d4408159721f2ff,,,,,,,,,,,,,0,,,,,,,,,,,,,,,,,,,,,,,,,,,,,,,,,,,,,35,rompido,,,,,370.9071,371.7005,0,1,0.2616,,0,73,73,34,1,REAL,FAKE,,,,,,,,,,,,,,,,,
,,,,,,,,,5f0527d40807f31c712153eb,spanish,13 or older,click here to respond,no,2025-07-24_10h53.41.039,empathy_intonation_perc_control,2024.2.4,Win32,59.88023952,5f0527d40807f31c712153eb,68817205a84113384fffdfe3,688248ce8d4408159721f2ff,,,,,,,,,,,,,1,,,,,,,,,,,,,,,,,,,,,,,,,,,,,,,,,,,,,67,cabello,,,,,371.7018,372.3255,0,0,0.1021,,0,74,74,66,1,REAL,FAKE,,,,,,,,,,,,,,,,,
,,,,,,,,,5f0527d40807f31c712153eb,spanish,13 or older,click here to respond,no,2025-07-24_10h53.41.039,empathy_intonation_perc_control,2024.2.4,Win32,59.88023952,5f0527d40807f31c712153eb,68817205a84113384fffdfe3,688248ce8d4408159721f2ff,,,,,,,,,,,,,1,,,,,,,,,,,,,,,,,,,,,,,,,,,,,,,,,,,,,45,jilguero,,,,,372.3265,373.2436,1,1,0.3896,,0,75,75,44,1,REAL,FAKE,,,,,,,,,,,,,,,,,
,,,,,,,,,5f0527d40807f31c712153eb,spanish,13 or older,click here to respond,no,2025-07-24_10h53.41.039,empathy_intonation_perc_control,2024.2.4,Win32,59.88023952,5f0527d40807f31c712153eb,68817205a84113384fffdfe3,688248ce8d4408159721f2ff,,,,,,,,,,,,,1,,,,,,,,,,,,,,,,,,,,,,,,,,,,,,,,,,,,,25,bisagra,,,,,373.2449,374.4591,0,0,0.67,,0,76,76,24,1,REAL,FAKE,,,,,,,,,,,,,,,,,
,,,,,,,,,5f0527d40807f31c712153eb,spanish,13 or older,click here to respond,no,2025-07-24_10h53.41.039,empathy_intonation_perc_control,2024.2.4,Win32,59.88023952,5f0527d40807f31c712153eb,68817205a84113384fffdfe3,688248ce8d4408159721f2ff,,,,,,,,,,,,,1,,,,,,,,,,,,,,,,,,,,,,,,,,,,,,,,,,,,,91,click the 1 key.,,,,,374.4615,376.3967,1,1,1.4079,,0,77,77,90,1,REAL,FAKE,,,,,,,,,,,,,,,,,
,,,,,,,,,5f0527d40807f31c712153eb,spanish,13 or older,click here to respond,no,2025-07-24_10h53.41.039,empathy_intonation_perc_control,2024.2.4,Win32,59.88023952,5f0527d40807f31c712153eb,68817205a84113384fffdfe3,688248ce8d4408159721f2ff,,,,,,,,,,,,,1,,,,,,,,,,,,,,,,,,,,,,,,,,,,,,,,,,,,,89,prisa,,,,,376.3978,377.9799,1,1,1.0413,,0,78,78,88,1,REAL,FAKE,,,,,,,,,,,,,,,,,
,,,,,,,,,5f0527d40807f31c712153eb,spanish,13 or older,click here to respond,no,2025-07-24_10h53.41.039,empathy_intonation_perc_control,2024.2.4,Win32,59.88023952,5f0527d40807f31c712153eb,68817205a84113384fffdfe3,688248ce8d4408159721f2ff,,,,,,,,,,,,,1,,,,,,,,,,,,,,,,,,,,,,,,,,,,,,,,,,,,,28,merodear,,,,,377.9812,379.0131,0,0,0.4827,,0,79,79,27,1,REAL,FAKE,,,,,,,,,,,,,,,,,
,,,,,,,,,5f0527d40807f31c712153eb,spanish,13 or older,click here to respond,no,2025-07-24_10h53.41.039,empathy_intonation_perc_control,2024.2.4,Win32,59.88023952,5f0527d40807f31c712153eb,68817205a84113384fffdfe3,688248ce8d4408159721f2ff,,,,,,,,,,,,,1,,,,,,,,,,,,,,,,,,,,,,,,,,,,,,,,,,,,,41,rebuscar,,,,,379.0138,380.1096,0,0,0.5621,,0,80,80,40,1,REAL,FAKE,,,,,,,,,,,,,,,,,
,,,,,,,,,5f0527d40807f31c712153eb,spanish,13 or older,click here to respond,no,2025-07-24_10h53.41.039,empathy_intonation_perc_control,2024.2.4,Win32,59.88023952,5f0527d40807f31c712153eb,68817205a84113384fffdfe3,688248ce8d4408159721f2ff,,,,,,,,,,,,,1,,,,,,,,,,,,,,,,,,,,,,,,,,,,,,,,,,,,,3,pulmones,,,,,380.1111,381.5256,1,1,0.8671,,0,81,81,2,1,REAL,FAKE,,,,,,,,,,,,,,,,,
,,,,,,,,,5f0527d40807f31c712153eb,spanish,13 or older,click here to respond,no,2025-07-24_10h53.41.039,empathy_intonation_perc_control,2024.2.4,Win32,59.88023952,5f0527d40807f31c712153eb,68817205a84113384fffdfe3,688248ce8d4408159721f2ff,,,,,,,,,,,,,1,,,,,,,,,,,,,,,,,,,,,,,,,,,,,,,,,,,,,60,matar,,,,,381.527,382.5009,0,0,0.4451,,0,82,82,59,1,REAL,FAKE,,,,,,,,,,,,,,,,,
,,,,,,,,,5f0527d40807f31c712153eb,spanish,13 or older,click here to respond,no,2025-07-24_10h53.41.039,empathy_intonation_perc_control,2024.2.4,Win32,59.88023952,5f0527d40807f31c712153eb,68817205a84113384fffdfe3,688248ce8d4408159721f2ff,,,,,,,,,,,,,1,,,,,,,,,,,,,,,,,,,,,,,,,,,,,,,,,,,,,73,hervidor,,,,,382.5022,383.7559,0,0,0.7089,,0,83,83,72,1,REAL,FAKE,,,,,,,,,,,,,,,,,
,,,,,,,,,5f0527d40807f31c712153eb,spanish,13 or older,click here to respond,no,2025-07-24_10h53.41.039,empathy_intonation_perc_control,2024.2.4,Win32,59.88023952,5f0527d40807f31c712153eb,68817205a84113384fffdfe3,688248ce8d4408159721f2ff,,,,,,,,,,,,,1,,,,,,,,,,,,,,,,,,,,,,,,,,,,,,,,,,,,,26,secuestro,,,,,383.7566,385.6841,1,1,1.3951,,0,84,84,25,1,REAL,FAKE,,,,,,,,,,,,,,,,,
,,,,,,,,,5f0527d40807f31c712153eb,spanish,13 or older,click here to respond,no,2025-07-24_10h53.41.039,empathy_intonation_perc_control,2024.2.4,Win32,59.88023952,5f0527d40807f31c712153eb,68817205a84113384fffdfe3,688248ce8d4408159721f2ff,,,,,,,,,,,,,1,,,,,,,,,,,,,,,,,,,,,,,,,,,,,,,,,,,,,90,clavel,,,,,385.6856,386.6088,1,1,0.3922,,0,85,85,89,1,REAL,FAKE,,,,,,,,,,,,,,,,,
,,,,,,,,,5f0527d40807f31c712153eb,spanish,13 or older,click here to respond,no,2025-07-24_10h53.41.039,empathy_intonation_perc_control,2024.2.4,Win32,59.88023952,5f0527d40807f31c712153eb,68817205a84113384fffdfe3,688248ce8d4408159721f2ff,,,,,,,,,,,,,0,,,,,,,,,,,,,,,,,,,,,,,,,,,,,,,,,,,,,1,terzo,,,,,386.6102,387.5421,0,1,0.3922,,0,86,86,0,1,REAL,FAKE,,,,,,,,,,,,,,,,,
,,,,,,,,,5f0527d40807f31c712153eb,spanish,13 or older,click here to respond,no,2025-07-24_10h53.41.039,empathy_intonation_perc_control,2024.2.4,Win32,59.88023952,5f0527d40807f31c712153eb,68817205a84113384fffdfe3,688248ce8d4408159721f2ff,,,,,,,,,,,,,1,,,,,,,,,,,,,,,,,,,,,,,,,,,,,,,,,,,,,13,helar,,,,,387.5434,388.7972,0,0,0.7254,,0,87,87,12,1,REAL,FAKE,,,,,,,,,,,,,,,,,
,,,,,,,,,5f0527d40807f31c712153eb,spanish,13 or older,click here to respond,no,2025-07-24_10h53.41.039,empathy_intonation_perc_control,2024.2.4,Win32,59.88023952,5f0527d40807f31c712153eb,68817205a84113384fffdfe3,688248ce8d4408159721f2ff,,,,,,,,,,,,,0,,,,,,,,,,,,,,,,,,,,,,,,,,,,,,,,,,,,,8,cadeña,,,,,388.798,389.9812,1,0,0.6403,,0,88,88,7,1,REAL,FAKE,,,,,,,,,,,,,,,,,
,,,,,,,,,5f0527d40807f31c712153eb,spanish,13 or older,click here to respond,no,2025-07-24_10h53.41.039,empathy_intonation_perc_control,2024.2.4,Win32,59.88023952,5f0527d40807f31c712153eb,68817205a84113384fffdfe3,688248ce8d4408159721f2ff,,,,,,,,,,,,,0,,,,,,,,,,,,,,,,,,,,,,,,,,,,,,,,,,,,,84,escuto,,,,,389.9826,390.9097,0,1,0.3761,,0,89,89,83,1,REAL,FAKE,,,,,,,,,,,,,,,,,
,,,,,,,,,5f0527d40807f31c712153eb,spanish,13 or older,click here to respond,no,2025-07-24_10h53.41.039,empathy_intonation_perc_control,2024.2.4,Win32,59.88023952,5f0527d40807f31c712153eb,68817205a84113384fffdfe3,688248ce8d4408159721f2ff,,,,,,,,,,,,,1,,,,,,,,,,,,,,,,,,,,,,,,,,,,,,,,,,,,,14,yunque,,,,,390.911,391.7587,0,0,0.3085,,0,90,90,13,1,REAL,FAKE,,,,,,,,,,,,,,,,,
,,,,,,,,,5f0527d40807f31c712153eb,spanish,13 or older,click here to respond,no,2025-07-24_10h53.41.039,empathy_intonation_perc_control,2024.2.4,Win32,59.88023952,5f0527d40807f31c712153eb,68817205a84113384fffdfe3,688248ce8d4408159721f2ff,,,,,,,,,,,,,0,,,,,,,,,,,,,,,,,,,,,,,,,,,,,,,,,,,,,21,capillo,,,,,391.76,392.6134,0,1,0.3081,,0,91,91,20,1,REAL,FAKE,,,,,,,,,,,,,,,,,
,,,,,,,,,5f0527d40807f31c712153eb,spanish,13 or older,click here to respond,no,2025-07-24_10h53.41.039,empathy_intonation_perc_control,2024.2.4,Win32,59.88023952,5f0527d40807f31c712153eb,68817205a84113384fffdfe3,688248ce8d4408159721f2ff,,,,,,,,,,,,,,,,,,,,,,,,,,,,,,,,,,,,,,,,,,,,,,,,,,,,,,,,,,,,,,,,,,,,,392.614,396.6593,,,,,,,,,,,,,,,
,,,,,,,,,5f0527d40807f31c712153eb,spanish,13 or older,click here to respond,no,2025-07-24_10h53.41.039,empathy_intonation_perc_control,2024.2.4,Win32,59.88023952,5f0527d40807f31c712153eb,68817205a84113384fffdfe3,688248ce8d4408159721f2ff,,,,,,,,,,,,,,,,,,,,,,,,,,,1,,,,,,,,,,,,,,,,,,,,,,,,,,,,,,,,,,,,,,,,,,,,396.6791,400.2993,strongly agree,0,0,0,0,1,I can easily tell if someone else wants to enter a conversation.,1,0,1,0,,
,,,,,,,,,5f0527d40807f31c712153eb,spanish,13 or older,click here to respond,no,2025-07-24_10h53.41.039,empathy_intonation_perc_control,2024.2.4,Win32,59.88023952,5f0527d40807f31c712153eb,68817205a84113384fffdfe3,688248ce8d4408159721f2ff,,,,,,,,,,,,,,,,,,,,,,,,,,,2,,,,,,,,,,,,,,,,,,,,,,,,,,,,,,,,,,,,,,,,,,,,400.3015,403.3224,strongly disagree,0,1,1,1,1,I prefer animals to humans.,0,1,0,0,,
,,,,,,,,,5f0527d40807f31c712153eb,spanish,13 or older,click here to respond,no,2025-07-24_10h53.41.039,empathy_intonation_perc_control,2024.2.4,Win32,59.88023952,5f0527d40807f31c712153eb,68817205a84113384fffdfe3,688248ce8d4408159721f2ff,,,,,,,,,,,,,,,,,,,,,,,,,,,3,,,,,,,,,,,,,,,,,,,,,,,,,,,,,,,,,,,,,,,,,,,,403.3238,406.1338,strongly agree,0,2,2,2,1,I try to keep up with the current trends and fashions.,0,1,0,0,,
,,,,,,,,,5f0527d40807f31c712153eb,spanish,13 or older,click here to respond,no,2025-07-24_10h53.41.039,empathy_intonation_perc_control,2024.2.4,Win32,59.88023952,5f0527d40807f31c712153eb,68817205a84113384fffdfe3,688248ce8d4408159721f2ff,,,,,,,,,,,,,,,,,,,,,,,,,,,4,,,,,,,,,,,,,,,,,,,,,,,,,,,,,,,,,,,,,,,,,,,,406.1357,411.2417,strongly disagree,0,3,3,3,1,"I find it difficult to explain to others things that I understand easily,   when they don't understand it first time.",1,0,0,1,,
,,,,,,,,,5f0527d40807f31c712153eb,spanish,13 or older,click here to respond,no,2025-07-24_10h53.41.039,empathy_intonation_perc_control,2024.2.4,Win32,59.88023952,5f0527d40807f31c712153eb,68817205a84113384fffdfe3,688248ce8d4408159721f2ff,,,,,,,,,,,,,,,,,,,,,,,,,,,5,,,,,,,,,,,,,,,,,,,,,,,,,,,,,,,,,,,,,,,,,,,,411.2429,412.8544,slightly disagree,0,4,4,4,1,I dream most nights.,0,1,0,0,,
,,,,,,,,,5f0527d40807f31c712153eb,spanish,13 or older,click here to respond,no,2025-07-24_10h53.41.039,empathy_intonation_perc_control,2024.2.4,Win32,59.88023952,5f0527d40807f31c712153eb,68817205a84113384fffdfe3,688248ce8d4408159721f2ff,,,,,,,,,,,,,,,,,,,,,,,,,,,6,,,,,,,,,,,,,,,,,,,,,,,,,,,,,,,,,,,,,,,,,,,,412.8555,414.7251,strongly agree,0,5,5,5,1,I really enjoy caring for other people.,1,0,1,0,,
,,,,,,,,,5f0527d40807f31c712153eb,spanish,13 or older,click here to respond,no,2025-07-24_10h53.41.039,empathy_intonation_perc_control,2024.2.4,Win32,59.88023952,5f0527d40807f31c712153eb,68817205a84113384fffdfe3,688248ce8d4408159721f2ff,,,,,,,,,,,,,,,,,,,,,,,,,,,7,,,,,,,,,,,,,,,,,,,,,,,,,,,,,,,,,,,,,,,,,,,,414.7265,417.5752,slightly agree,0,6,6,6,1,I try to solve my own problems rather than discussing them with others.,0,1,0,0,,
,,,,,,,,,5f0527d40807f31c712153eb,spanish,13 or older,click here to respond,no,2025-07-24_10h53.41.039,empathy_intonation_perc_control,2024.2.4,Win32,59.88023952,5f0527d40807f31c712153eb,68817205a84113384fffdfe3,688248ce8d4408159721f2ff,,,,,,,,,,,,,,,,,,,,,,,,,,,8,,,,,,,,,,,,,,,,,,,,,,,,,,,,,,,,,,,,,,,,,,,,417.5763,419.6195,strongly disagree,0,7,7,7,1,I find it hard to know what to do in a social situation.,1,0,0,1,,
,,,,,,,,,5f0527d40807f31c712153eb,spanish,13 or older,click here to respond,no,2025-07-24_10h53.41.039,empathy_intonation_perc_control,2024.2.4,Win32,59.88023952,5f0527d40807f31c712153eb,68817205a84113384fffdfe3,688248ce8d4408159721f2ff,,,,,,,,,,,,,,,,,,,,,,,,,,,9,,,,,,,,,,,,,,,,,,,,,,,,,,,,,,,,,,,,,,,,,,,,419.6204,421.8918,slightly agree,0,8,8,8,1,I am at my best first thing in the morning.,0,1,0,0,,
,,,,,,,,,5f0527d40807f31c712153eb,spanish,13 or older,click here to respond,no,2025-07-24_10h53.41.039,empathy_intonation_perc_control,2024.2.4,Win32,59.88023952,5f0527d40807f31c712153eb,68817205a84113384fffdfe3,688248ce8d4408159721f2ff,,,,,,,,,,,,,,,,,,,,,,,,,,,10,,,,,,,,,,,,,,,,,,,,,,,,,,,,,,,,,,,,,,,,,,,,421.8934,424.2622,strongly disagree,0,9,9,9,1,People often tell me that I went too far in driving my point home in a discussion.,1,0,0,1,,
,,,,,,,,,5f0527d40807f31c712153eb,spanish,13 or older,click here to respond,no,2025-07-24_10h53.41.039,empathy_intonation_perc_control,2024.2.4,Win32,59.88023952,5f0527d40807f31c712153eb,68817205a84113384fffdfe3,688248ce8d4408159721f2ff,,,,,,,,,,,,,,,,,,,,,,,,,,,11,,,,,,,,,,,,,,,,,,,,,,,,,,,,,,,,,,,,,,,,,,,,424.2633,428.6335,strongly disagree,0,10,10,10,1,It doesn't bother me too much if I am late meeting a friend.,1,0,0,1,,
,,,,,,,,,5f0527d40807f31c712153eb,spanish,13 or older,click here to respond,no,2025-07-24_10h53.41.039,empathy_intonation_perc_control,2024.2.4,Win32,59.88023952,5f0527d40807f31c712153eb,68817205a84113384fffdfe3,688248ce8d4408159721f2ff,,,,,,,,,,,,,,,,,,,,,,,,,,,12,,,,,,,,,,,,,,,,,,,,,,,,,,,,,,,,,,,,,,,,,,,,428.635,432.0249,strongly disagree,0,11,11,11,1,"Friendships and relationships are just too difficult, so I tend not to 
  bother with them.",1,0,0,1,,
,,,,,,,,,5f0527d40807f31c712153eb,spanish,13 or older,click here to respond,no,2025-07-24_10h53.41.039,empathy_intonation_perc_control,2024.2.4,Win32,59.88023952,5f0527d40807f31c712153eb,68817205a84113384fffdfe3,688248ce8d4408159721f2ff,,,,,,,,,,,,,,,,,,,,,,,,,,,13,,,,,,,,,,,,,,,,,,,,,,,,,,,,,,,,,,,,,,,,,,,,432.0263,435.7752,strongly agree,0,12,12,12,1,"I would never break a law, no matter how minor.",0,1,0,0,,
,,,,,,,,,5f0527d40807f31c712153eb,spanish,13 or older,click here to respond,no,2025-07-24_10h53.41.039,empathy_intonation_perc_control,2024.2.4,Win32,59.88023952,5f0527d40807f31c712153eb,68817205a84113384fffdfe3,688248ce8d4408159721f2ff,,,,,,,,,,,,,,,,,,,,,,,,,,,14,,,,,,,,,,,,,,,,,,,,,,,,,,,,,,,,,,,,,,,,,,,,435.7765,438.9251,slightly disagree,0,13,13,13,1,I often find it difficult to judge if something is rude or polite.,1,0,0,1,,
,,,,,,,,,5f0527d40807f31c712153eb,spanish,13 or older,click here to respond,no,2025-07-24_10h53.41.039,empathy_intonation_perc_control,2024.2.4,Win32,59.88023952,5f0527d40807f31c712153eb,68817205a84113384fffdfe3,688248ce8d4408159721f2ff,,,,,,,,,,,,,,,,,,,,,,,,,,,15,,,,,,,,,,,,,,,,,,,,,,,,,,,,,,,,,,,,,,,,,,,,438.9265,442.7916,strongly disagree,0,14,14,14,1,"In a conversation, I tend to focus on my own thoughts rather than on what 
  my listener might be thinking.",1,0,0,1,,
,,,,,,,,,5f0527d40807f31c712153eb,spanish,13 or older,click here to respond,no,2025-07-24_10h53.41.039,empathy_intonation_perc_control,2024.2.4,Win32,59.88023952,5f0527d40807f31c712153eb,68817205a84113384fffdfe3,688248ce8d4408159721f2ff,,,,,,,,,,,,,,,,,,,,,,,,,,,16,,,,,,,,,,,,,,,,,,,,,,,,,,,,,,,,,,,,,,,,,,,,442.7928,446.8581,strongly disagree,0,15,15,15,1,I prefer practical jokes to verbal humor.,0,1,0,0,,
,,,,,,,,,5f0527d40807f31c712153eb,spanish,13 or older,click here to respond,no,2025-07-24_10h53.41.039,empathy_intonation_perc_control,2024.2.4,Win32,59.88023952,5f0527d40807f31c712153eb,68817205a84113384fffdfe3,688248ce8d4408159721f2ff,,,,,,,,,,,,,,,,,,,,,,,,,,,17,,,,,,,,,,,,,,,,,,,,,,,,,,,,,,,,,,,,,,,,,,,,446.8594,449.7047,slightly agree,0,16,16,16,1,I live life for today rather than the future.,0,1,0,0,,
,,,,,,,,,5f0527d40807f31c712153eb,spanish,13 or older,click here to respond,no,2025-07-24_10h53.41.039,empathy_intonation_perc_control,2024.2.4,Win32,59.88023952,5f0527d40807f31c712153eb,68817205a84113384fffdfe3,688248ce8d4408159721f2ff,,,,,,,,,,,,,,,,,,,,,,,,,,,18,,,,,,,,,,,,,,,,,,,,,,,,,,,,,,,,,,,,,,,,,,,,449.7061,452.1747,strongly disagree,0,17,17,17,1,"When I was a child, I enjoyed cutting up worms to see what would happen.",1,0,0,1,,
,,,,,,,,,5f0527d40807f31c712153eb,spanish,13 or older,click here to respond,no,2025-07-24_10h53.41.039,empathy_intonation_perc_control,2024.2.4,Win32,59.88023952,5f0527d40807f31c712153eb,68817205a84113384fffdfe3,688248ce8d4408159721f2ff,,,,,,,,,,,,,,,,,,,,,,,,,,,19,,,,,,,,,,,,,,,,,,,,,,,,,,,,,,,,,,,,,,,,,,,,452.1762,456.3247,slightly agree,0,18,18,18,1,I can pick up quickly if someone says one thing but means another.,1,0,1,0,,
,,,,,,,,,5f0527d40807f31c712153eb,spanish,13 or older,click here to respond,no,2025-07-24_10h53.41.039,empathy_intonation_perc_control,2024.2.4,Win32,59.88023952,5f0527d40807f31c712153eb,68817205a84113384fffdfe3,688248ce8d4408159721f2ff,,,,,,,,,,,,,,,,,,,,,,,,,,,20,,,,,,,,,,,,,,,,,,,,,,,,,,,,,,,,,,,,,,,,,,,,456.3259,458.4747,slightly disagree,0,19,19,19,1,I tend to have very strong opinions about morality.,0,1,0,0,,
,,,,,,,,,5f0527d40807f31c712153eb,spanish,13 or older,click here to respond,no,2025-07-24_10h53.41.039,empathy_intonation_perc_control,2024.2.4,Win32,59.88023952,5f0527d40807f31c712153eb,68817205a84113384fffdfe3,688248ce8d4408159721f2ff,,,,,,,,,,,,,,,,,,,,,,,,,,,21,,,,,,,,,,,,,,,,,,,,,,,,,,,,,,,,,,,,,,,,,,,,458.4761,462.2996,slightly agree,0,20,20,20,1,It is hard for me to see why some things upset people so much.,1,0,0,1,,
,,,,,,,,,5f0527d40807f31c712153eb,spanish,13 or older,click here to respond,no,2025-07-24_10h53.41.039,empathy_intonation_perc_control,2024.2.4,Win32,59.88023952,5f0527d40807f31c712153eb,68817205a84113384fffdfe3,688248ce8d4408159721f2ff,,,,,,,,,,,,,,,,,,,,,,,,,,,22,,,,,,,,,,,,,,,,,,,,,,,,,,,,,,,,,,,,,,,,,,,,462.3008,465.5298,slightly agree,0,21,21,21,1,I find it easy to put myself in somebody else's shoes.,1,0,1,0,,
,,,,,,,,,5f0527d40807f31c712153eb,spanish,13 or older,click here to respond,no,2025-07-24_10h53.41.039,empathy_intonation_perc_control,2024.2.4,Win32,59.88023952,5f0527d40807f31c712153eb,68817205a84113384fffdfe3,688248ce8d4408159721f2ff,,,,,,,,,,,,,,,,,,,,,,,,,,,23,,,,,,,,,,,,,,,,,,,,,,,,,,,,,,,,,,,,,,,,,,,,465.531,468.0472,strongly agree,0,22,22,22,1,I think that good manners are the most important thing a parent can teach their child.,0,1,0,0,,
,,,,,,,,,5f0527d40807f31c712153eb,spanish,13 or older,click here to respond,no,2025-07-24_10h53.41.039,empathy_intonation_perc_control,2024.2.4,Win32,59.88023952,5f0527d40807f31c712153eb,68817205a84113384fffdfe3,688248ce8d4408159721f2ff,,,,,,,,,,,,,,,,,,,,,,,,,,,24,,,,,,,,,,,,,,,,,,,,,,,,,,,,,,,,,,,,,,,,,,,,468.0484,470.394,slightly agree,0,23,23,23,1,I like to do things on the spur of the moment.,0,1,0,0,,
,,,,,,,,,5f0527d40807f31c712153eb,spanish,13 or older,click here to respond,no,2025-07-24_10h53.41.039,empathy_intonation_perc_control,2024.2.4,Win32,59.88023952,5f0527d40807f31c712153eb,68817205a84113384fffdfe3,688248ce8d4408159721f2ff,,,,,,,,,,,,,,,,,,,,,,,,,,,25,,,,,,,,,,,,,,,,,,,,,,,,,,,,,,,,,,,,,,,,,,,,470.3956,471.8887,slightly agree,0,24,24,24,1,I am good at predicting how someone will feel.,1,0,1,0,,
,,,,,,,,,5f0527d40807f31c712153eb,spanish,13 or older,click here to respond,no,2025-07-24_10h53.41.039,empathy_intonation_perc_control,2024.2.4,Win32,59.88023952,5f0527d40807f31c712153eb,68817205a84113384fffdfe3,688248ce8d4408159721f2ff,,,,,,,,,,,,,,,,,,,,,,,,,,,26,,,,,,,,,,,,,,,,,,,,,,,,,,,,,,,,,,,,,,,,,,,,471.8897,473.2913,slightly agree,0,25,25,25,1,I am quick to spot when someone in a group is feeling awkward or uncomfortable.,1,0,1,0,,
,,,,,,,,,5f0527d40807f31c712153eb,spanish,13 or older,click here to respond,no,2025-07-24_10h53.41.039,empathy_intonation_perc_control,2024.2.4,Win32,59.88023952,5f0527d40807f31c712153eb,68817205a84113384fffdfe3,688248ce8d4408159721f2ff,,,,,,,,,,,,,,,,,,,,,,,,,,,27,,,,,,,,,,,,,,,,,,,,,,,,,,,,,,,,,,,,,,,,,,,,473.2927,477.3672,strongly disagree,0,26,26,26,1,"If I say something that someone else is offended by, I think that that's their problem, not mine.",1,0,0,1,,
,,,,,,,,,5f0527d40807f31c712153eb,spanish,13 or older,click here to respond,no,2025-07-24_10h53.41.039,empathy_intonation_perc_control,2024.2.4,Win32,59.88023952,5f0527d40807f31c712153eb,68817205a84113384fffdfe3,688248ce8d4408159721f2ff,,,,,,,,,,,,,,,,,,,,,,,,,,,28,,,,,,,,,,,,,,,,,,,,,,,,,,,,,,,,,,,,,,,,,,,,477.3684,480.4415,slightly disagree,0,27,27,27,1,"If anyone asked me if I liked their haircut, I would reply truthfully, even if I didn't like it.",1,0,0,1,,
,,,,,,,,,5f0527d40807f31c712153eb,spanish,13 or older,click here to respond,no,2025-07-24_10h53.41.039,empathy_intonation_perc_control,2024.2.4,Win32,59.88023952,5f0527d40807f31c712153eb,68817205a84113384fffdfe3,688248ce8d4408159721f2ff,,,,,,,,,,,,,,,,,,,,,,,,,,,29,,,,,,,,,,,,,,,,,,,,,,,,,,,,,,,,,,,,,,,,,,,,480.4429,482.0709,slightly disagree,0,28,28,28,1,I can't always see why someone should have felt offended by a remark.,1,0,0,1,,
