instructions_2afc.started,instructions_2afc.stopped,instructions_2afc_loop.thisRepN,instructions_2afc_loop.thisTrialN,instructions_2afc_loop.thisN,instructions_2afc_loop.thisIndex,instructions_2afc_loop.ran,instructions_text,continue_text,participant_id,"What variety of Spanish are you most familiar with? (e.g., Peruvian, Spanish, Mexican)",At what age did you begin learning Spanish?,Are you proficient in any languages other than English/Spanish?,"Are you familiar with Caribbean (e.g., Caribbean, Puerto Rican) or Galician Spanish?",date,expName,psychopyVersion,OS,frameRate,id,study_id,session,practice_2afc.started,practice_2afc.stopped,key_resp_2afc_practice.keys,key_resp_2afc_practice.corr,key_resp_2afc_practice.rt,key_resp_2afc_practice.duration,trials_2afc_practice_loop.thisRepN,trials_2afc_practice_loop.thisTrialN,trials_2afc_practice_loop.thisN,trials_2afc_practice_loop.thisIndex,trials_2afc_practice_loop.ran,path,correct_response,check_2afc.started,check_2afc.stopped,trial_2afc.started,trial_2afc.stopped,key_resp_2afc_trial.keys,key_resp_2afc_trial.corr,key_resp_2afc_trial.rt,key_resp_2afc_trial.duration,trials_2afc_loop.thisRepN,trials_2afc_loop.thisTrialN,trials_2afc_loop.thisN,trials_2afc_loop.thisIndex,trials_2afc_loop.ran,item_num,target,variety,instructions_lextale.started,instructions_lextale.stopped,instructions_lextale_loop.thisRepN,instructions_lextale_loop.thisTrialN,instructions_lextale_loop.thisN,instructions_lextale_loop.thisIndex,instructions_lextale_loop.ran,practice_lextale.started,practice_lextale.stopped,key_resp_lextale_practice.keys,key_resp_lextale_practice.corr,key_resp_lextale_practice.rt,key_resp_lextale_practice.duration,practice_feedback_lextale.started,practice_feedback_lextale.stopped,trials_lextale_practice_loop.thisRepN,trials_lextale_practice_loop.thisTrialN,trials_lextale_practice_loop.thisN,trials_lextale_practice_loop.thisIndex,trials_lextale_practice_loop.ran,stim,word,prac_button_real,prac_button_false,check_lextale.started,check_lextale.stopped,trial_lextale.started,trial_lextale.stopped,key_resp_lextale_trial.keys,key_resp_lextale_trial.corr,key_resp_lextale_trial.rt,key_resp_lextale_trial.duration,trials_lextale_loop.thisRepN,trials_lextale_loop.thisTrialN,trials_lextale_loop.thisN,trials_lextale_loop.thisIndex,trials_lextale_loop.ran,button_real,button_false,instructions_eq.started,instructions_eq.stopped,trial_eq.started,trial_eq.stopped,slider_eq_trial.response,trials_eq_loop.thisRepN,trials_eq_loop.thisTrialN,trials_eq_loop.thisN,trials_eq_loop.thisIndex,trials_eq_loop.ran,item,is_test_item,is_distractor,is_agree_score,is_disagree_score,end_exp.started,end_exp.stopped
0.0666,5.9835,0,0,0,0,1,"In the following task you are going to hear a series of utterances. 

  You will decide if the utterances sound like questions or not using your keyboard.", (press the spacebar to continue),5f24b0fc546c5a0c3c2e43b6,Spanish,13 or older,"no, only English or Spanish",no,2025-07-24_10h47.23.612,empathy_intonation_perc_control,2024.2.4,MacIntel,58.13953488,5f24b0fc546c5a0c3c2e43b6,68817205a84113384fffdfe3,68824758d8a9b8b49359fdfe,,,,,,,,,,,,,,,,,,,,,,,,,,,,,,,,,,,,,,,,,,,,,,,,,,,,,,,,,,,,,,,,,,,,,,,,,,,,,,,,,,,,,
5.9855,13.2367,0,1,1,1,1,"If you believe the utterance is a question, type '1' (for 'yes') and if you do not 
  believe it is a question type '0' (for 'no').

  Let's practice a bit...", (press the spacebar to continue),5f24b0fc546c5a0c3c2e43b6,Spanish,13 or older,"no, only English or Spanish",no,2025-07-24_10h47.23.612,empathy_intonation_perc_control,2024.2.4,MacIntel,58.13953488,5f24b0fc546c5a0c3c2e43b6,68817205a84113384fffdfe3,68824758d8a9b8b49359fdfe,,,,,,,,,,,,,,,,,,,,,,,,,,,,,,,,,,,,,,,,,,,,,,,,,,,,,,,,,,,,,,,,,,,,,,,,,,,,,,,,,,,,,
,,,,,,,,,5f24b0fc546c5a0c3c2e43b6,Spanish,13 or older,"no, only English or Spanish",no,2025-07-24_10h47.23.612,empathy_intonation_perc_control,2024.2.4,MacIntel,58.13953488,5f24b0fc546c5a0c3c2e43b6,68817205a84113384fffdfe3,68824758d8a9b8b49359fdfe,13.2479,17.1916,0,1,3.421,,0,0,0,5,1,./stim/wavs/andalusian_statement_filler_Alberto-nunca-se-afeita.wav,0,,,,,,,,,,,,,,,,,,,,,,,,,,,,,,,,,,,,,,,,,,,,,,,,,,,,,,,,,,,,,,,,,,,,,,,,
,,,,,,,,,5f24b0fc546c5a0c3c2e43b6,Spanish,13 or older,"no, only English or Spanish",no,2025-07-24_10h47.23.612,empathy_intonation_perc_control,2024.2.4,MacIntel,58.13953488,5f24b0fc546c5a0c3c2e43b6,68817205a84113384fffdfe3,68824758d8a9b8b49359fdfe,17.1925,21.1606,0,1,3.4571,,0,1,1,7,1,./stim/wavs/puertorican_statement_filler_La-nina-pinta-con-su-amiga.wav,0,,,,,,,,,,,,,,,,,,,,,,,,,,,,,,,,,,,,,,,,,,,,,,,,,,,,,,,,,,,,,,,,,,,,,,,,
,,,,,,,,,5f24b0fc546c5a0c3c2e43b6,Spanish,13 or older,"no, only English or Spanish",no,2025-07-24_10h47.23.612,empathy_intonation_perc_control,2024.2.4,MacIntel,58.13953488,5f24b0fc546c5a0c3c2e43b6,68817205a84113384fffdfe3,68824758d8a9b8b49359fdfe,21.1611,23.7745,0,1,2.0938,,0,2,2,4,1,./stim/wavs/cuban_statement_filler_Cocinabas-por-la-noche.wav,0,,,,,,,,,,,,,,,,,,,,,,,,,,,,,,,,,,,,,,,,,,,,,,,,,,,,,,,,,,,,,,,,,,,,,,,,
,,,,,,,,,5f24b0fc546c5a0c3c2e43b6,Spanish,13 or older,"no, only English or Spanish",no,2025-07-24_10h47.23.612,empathy_intonation_perc_control,2024.2.4,MacIntel,58.13953488,5f24b0fc546c5a0c3c2e43b6,68817205a84113384fffdfe3,68824758d8a9b8b49359fdfe,23.775,25.7854,1,1,1.4909,,0,3,3,2,1,./stim/wavs/chilean_question_filler_Mi-padre-cantaba-bien.wav,1,,,,,,,,,,,,,,,,,,,,,,,,,,,,,,,,,,,,,,,,,,,,,,,,,,,,,,,,,,,,,,,,,,,,,,,,
,,,,,,,,,5f24b0fc546c5a0c3c2e43b6,Spanish,13 or older,"no, only English or Spanish",no,2025-07-24_10h47.23.612,empathy_intonation_perc_control,2024.2.4,MacIntel,58.13953488,5f24b0fc546c5a0c3c2e43b6,68817205a84113384fffdfe3,68824758d8a9b8b49359fdfe,25.7859,28.4822,1,1,2.1777,,0,4,4,3,1,./stim/wavs/mexican_question_filler_Felipe-no-tiene-contrasena.wav,1,,,,,,,,,,,,,,,,,,,,,,,,,,,,,,,,,,,,,,,,,,,,,,,,,,,,,,,,,,,,,,,,,,,,,,,,
,,,,,,,,,5f24b0fc546c5a0c3c2e43b6,Spanish,13 or older,"no, only English or Spanish",no,2025-07-24_10h47.23.612,empathy_intonation_perc_control,2024.2.4,MacIntel,58.13953488,5f24b0fc546c5a0c3c2e43b6,68817205a84113384fffdfe3,68824758d8a9b8b49359fdfe,28.4827,30.5763,1,1,1.5807,,0,5,5,1,1,./stim/wavs/argentine_question_filler_Mi-vecino-habla-mucho.wav,1,,,,,,,,,,,,,,,,,,,,,,,,,,,,,,,,,,,,,,,,,,,,,,,,,,,,,,,,,,,,,,,,,,,,,,,,
,,,,,,,,,5f24b0fc546c5a0c3c2e43b6,Spanish,13 or older,"no, only English or Spanish",no,2025-07-24_10h47.23.612,empathy_intonation_perc_control,2024.2.4,MacIntel,58.13953488,5f24b0fc546c5a0c3c2e43b6,68817205a84113384fffdfe3,68824758d8a9b8b49359fdfe,30.5768,33.2894,0,1,2.1937,,0,6,6,6,1,./stim/wavs/peruvian_statement_filler_El-nino-habla-con-su-madre.wav,0,,,,,,,,,,,,,,,,,,,,,,,,,,,,,,,,,,,,,,,,,,,,,,,,,,,,,,,,,,,,,,,,,,,,,,,,
,,,,,,,,,5f24b0fc546c5a0c3c2e43b6,Spanish,13 or older,"no, only English or Spanish",no,2025-07-24_10h47.23.612,empathy_intonation_perc_control,2024.2.4,MacIntel,58.13953488,5f24b0fc546c5a0c3c2e43b6,68817205a84113384fffdfe3,68824758d8a9b8b49359fdfe,33.2898,35.7688,1,1,1.9642,,0,7,7,0,1,./stim/wavs/castilian_question_filler_Mi-esposo-conoce-al-chico.wav,1,,,,,,,,,,,,,,,,,,,,,,,,,,,,,,,,,,,,,,,,,,,,,,,,,,,,,,,,,,,,,,,,,,,,,,,,
,,,,,,,,,5f24b0fc546c5a0c3c2e43b6,Spanish,13 or older,"no, only English or Spanish",no,2025-07-24_10h47.23.612,empathy_intonation_perc_control,2024.2.4,MacIntel,58.13953488,5f24b0fc546c5a0c3c2e43b6,68817205a84113384fffdfe3,68824758d8a9b8b49359fdfe,,,,,,,,,,,,,,35.7693,37.6797,,,,,,,,,,,,,,,,,,,,,,,,,,,,,,,,,,,,,,,,,,,,,,,,,,,,,,,,,,,,,,,,,,,,,,
,,,,,,,,,5f24b0fc546c5a0c3c2e43b6,Spanish,13 or older,"no, only English or Spanish",no,2025-07-24_10h47.23.612,empathy_intonation_perc_control,2024.2.4,MacIntel,58.13953488,5f24b0fc546c5a0c3c2e43b6,68817205a84113384fffdfe3,68824758d8a9b8b49359fdfe,,,,,,,,,,,,./stim/wavs/cuban_mismatch_interrogative-total-yn_Mi-tia-odia-la-lluvia.wav,1,,,37.7017,41.2636,0,0,3.0363,,0,0,0,33,1,34,1,cuban,,,,,,,,,,,,,,,,,,,,,,,,,,,,,,,,,,,,,,,,,,,,,,,,,,,,,,,,
,,,,,,,,,5f24b0fc546c5a0c3c2e43b6,Spanish,13 or older,"no, only English or Spanish",no,2025-07-24_10h47.23.612,empathy_intonation_perc_control,2024.2.4,MacIntel,58.13953488,5f24b0fc546c5a0c3c2e43b6,68817205a84113384fffdfe3,68824758d8a9b8b49359fdfe,,,,,,,,,,,,./stim/wavs/puertorican_match_interrogative-total-yn_David-leia-el-libro.wav,1,,,41.2752,44.0306,1,1,2.2376,,0,1,1,20,1,21,1,puertorican,,,,,,,,,,,,,,,,,,,,,,,,,,,,,,,,,,,,,,,,,,,,,,,,,,,,,,,,
,,,,,,,,,5f24b0fc546c5a0c3c2e43b6,Spanish,13 or older,"no, only English or Spanish",no,2025-07-24_10h47.23.612,empathy_intonation_perc_control,2024.2.4,MacIntel,58.13953488,5f24b0fc546c5a0c3c2e43b6,68817205a84113384fffdfe3,68824758d8a9b8b49359fdfe,,,,,,,,,,,,./stim/wavs/cuban_match_declarative-broad-focus_Marta-abre-el-regalo.wav,0,,,44.0423,46.0723,0,1,1.5148,,0,2,2,55,1,56,0,cuban,,,,,,,,,,,,,,,,,,,,,,,,,,,,,,,,,,,,,,,,,,,,,,,,,,,,,,,,
,,,,,,,,,5f24b0fc546c5a0c3c2e43b6,Spanish,13 or older,"no, only English or Spanish",no,2025-07-24_10h47.23.612,empathy_intonation_perc_control,2024.2.4,MacIntel,58.13953488,5f24b0fc546c5a0c3c2e43b6,68817205a84113384fffdfe3,68824758d8a9b8b49359fdfe,,,,,,,,,,,,./stim/wavs/mexican_match_interrogative-total-yn_Emilio-ama-la-marcha.wav,1,,,46.0729,48.3507,1,1,1.7592,,0,3,3,15,1,16,0,mexican,,,,,,,,,,,,,,,,,,,,,,,,,,,,,,,,,,,,,,,,,,,,,,,,,,,,,,,,
,,,,,,,,,5f24b0fc546c5a0c3c2e43b6,Spanish,13 or older,"no, only English or Spanish",no,2025-07-24_10h47.23.612,empathy_intonation_perc_control,2024.2.4,MacIntel,58.13953488,5f24b0fc546c5a0c3c2e43b6,68817205a84113384fffdfe3,68824758d8a9b8b49359fdfe,,,,,,,,,,,,./stim/wavs/puertorican_match_interrogative-total-yn_Emilio-ama-la-marcha.wav,1,,,48.3511,50.5449,0,0,1.6748,,0,4,4,21,1,22,1,puertorican,,,,,,,,,,,,,,,,,,,,,,,,,,,,,,,,,,,,,,,,,,,,,,,,,,,,,,,,
,,,,,,,,,5f24b0fc546c5a0c3c2e43b6,Spanish,13 or older,"no, only English or Spanish",no,2025-07-24_10h47.23.612,empathy_intonation_perc_control,2024.2.4,MacIntel,58.13953488,5f24b0fc546c5a0c3c2e43b6,68817205a84113384fffdfe3,68824758d8a9b8b49359fdfe,,,,,,,,,,,,./stim/wavs/mexican_mismatch_interrogative-total-yn_Mi-tia-odia-la-lluvia.wav,1,,,50.5455,52.7393,1,1,1.6783,,0,5,5,38,1,39,0,mexican,,,,,,,,,,,,,,,,,,,,,,,,,,,,,,,,,,,,,,,,,,,,,,,,,,,,,,,,
,,,,,,,,,5f24b0fc546c5a0c3c2e43b6,Spanish,13 or older,"no, only English or Spanish",no,2025-07-24_10h47.23.612,empathy_intonation_perc_control,2024.2.4,MacIntel,58.13953488,5f24b0fc546c5a0c3c2e43b6,68817205a84113384fffdfe3,68824758d8a9b8b49359fdfe,,,,,,,,,,,,./stim/wavs/mexican_match_declarative-broad-focus_Daniel-iba-a-Bolivia.wav,0,,,52.7397,54.9847,0,1,1.7313,,0,6,6,57,1,58,0,mexican,,,,,,,,,,,,,,,,,,,,,,,,,,,,,,,,,,,,,,,,,,,,,,,,,,,,,,,,
,,,,,,,,,5f24b0fc546c5a0c3c2e43b6,Spanish,13 or older,"no, only English or Spanish",no,2025-07-24_10h47.23.612,empathy_intonation_perc_control,2024.2.4,MacIntel,58.13953488,5f24b0fc546c5a0c3c2e43b6,68817205a84113384fffdfe3,68824758d8a9b8b49359fdfe,,,,,,,,,,,,./stim/wavs/puertorican_mismatch_interrogative-total-yn_La-maestra-vive-en-Paris.wav,1,,,54.9854,57.1952,0,0,1.698,,0,7,7,41,1,42,1,puertorican,,,,,,,,,,,,,,,,,,,,,,,,,,,,,,,,,,,,,,,,,,,,,,,,,,,,,,,,
,,,,,,,,,5f24b0fc546c5a0c3c2e43b6,Spanish,13 or older,"no, only English or Spanish",no,2025-07-24_10h47.23.612,empathy_intonation_perc_control,2024.2.4,MacIntel,58.13953488,5f24b0fc546c5a0c3c2e43b6,68817205a84113384fffdfe3,68824758d8a9b8b49359fdfe,,,,,,,,,,,,./stim/wavs/puertorican_match_interrogative-total-yn_Manuela-vende-el-carro.wav,1,,,57.1957,59.5737,0,0,1.8666,,0,8,8,22,1,23,1,puertorican,,,,,,,,,,,,,,,,,,,,,,,,,,,,,,,,,,,,,,,,,,,,,,,,,,,,,,,,
,,,,,,,,,5f24b0fc546c5a0c3c2e43b6,Spanish,13 or older,"no, only English or Spanish",no,2025-07-24_10h47.23.612,empathy_intonation_perc_control,2024.2.4,MacIntel,58.13953488,5f24b0fc546c5a0c3c2e43b6,68817205a84113384fffdfe3,68824758d8a9b8b49359fdfe,,,,,,,,,,,,./stim/wavs/mexican_mismatch_interrogative-total-yn_El-hombre-mira-la-luna.wav,1,,,59.5742,61.7184,1,1,1.6256,,0,9,9,34,1,35,0,mexican,,,,,,,,,,,,,,,,,,,,,,,,,,,,,,,,,,,,,,,,,,,,,,,,,,,,,,,,
,,,,,,,,,5f24b0fc546c5a0c3c2e43b6,Spanish,13 or older,"no, only English or Spanish",no,2025-07-24_10h47.23.612,empathy_intonation_perc_control,2024.2.4,MacIntel,58.13953488,5f24b0fc546c5a0c3c2e43b6,68817205a84113384fffdfe3,68824758d8a9b8b49359fdfe,,,,,,,,,,,,./stim/wavs/mexican_match_declarative-broad-focus_Ana-lleva-el-abrigo.wav,0,,,61.7189,63.7116,0,1,1.4744,,0,10,10,56,1,57,0,mexican,,,,,,,,,,,,,,,,,,,,,,,,,,,,,,,,,,,,,,,,,,,,,,,,,,,,,,,,
,,,,,,,,,5f24b0fc546c5a0c3c2e43b6,Spanish,13 or older,"no, only English or Spanish",no,2025-07-24_10h47.23.612,empathy_intonation_perc_control,2024.2.4,MacIntel,58.13953488,5f24b0fc546c5a0c3c2e43b6,68817205a84113384fffdfe3,68824758d8a9b8b49359fdfe,,,,,,,,,,,,./stim/wavs/cuban_match_declarative-broad-focus_Manuela-vende-el-carro.wav,0,,,63.712,65.873,0,1,1.6488,,0,11,11,52,1,53,0,cuban,,,,,,,,,,,,,,,,,,,,,,,,,,,,,,,,,,,,,,,,,,,,,,,,,,,,,,,,
,,,,,,,,,5f24b0fc546c5a0c3c2e43b6,Spanish,13 or older,"no, only English or Spanish",no,2025-07-24_10h47.23.612,empathy_intonation_perc_control,2024.2.4,MacIntel,58.13953488,5f24b0fc546c5a0c3c2e43b6,68817205a84113384fffdfe3,68824758d8a9b8b49359fdfe,,,,,,,,,,,,./stim/wavs/cuban_match_interrogative-total-yn_Maria-bebe-el-vino.wav,1,,,65.8849,68.0013,0,0,1.5906,,0,12,12,9,1,10,1,cuban,,,,,,,,,,,,,,,,,,,,,,,,,,,,,,,,,,,,,,,,,,,,,,,,,,,,,,,,
,,,,,,,,,5f24b0fc546c5a0c3c2e43b6,Spanish,13 or older,"no, only English or Spanish",no,2025-07-24_10h47.23.612,empathy_intonation_perc_control,2024.2.4,MacIntel,58.13953488,5f24b0fc546c5a0c3c2e43b6,68817205a84113384fffdfe3,68824758d8a9b8b49359fdfe,,,,,,,,,,,,./stim/wavs/mexican_match_declarative-broad-focus_David-leia-el-libro.wav,0,,,68.002,70.0445,0,1,1.5248,,0,13,13,58,1,59,0,mexican,,,,,,,,,,,,,,,,,,,,,,,,,,,,,,,,,,,,,,,,,,,,,,,,,,,,,,,,
,,,,,,,,,5f24b0fc546c5a0c3c2e43b6,Spanish,13 or older,"no, only English or Spanish",no,2025-07-24_10h47.23.612,empathy_intonation_perc_control,2024.2.4,MacIntel,58.13953488,5f24b0fc546c5a0c3c2e43b6,68817205a84113384fffdfe3,68824758d8a9b8b49359fdfe,,,,,,,,,,,,./stim/wavs/castilian_mismatch_interrogative-total-yn_Mi-madre-come-la-fruta.wav,1,,,70.0452,72.3899,1,1,1.8276,,0,14,14,26,1,27,0,castilian,,,,,,,,,,,,,,,,,,,,,,,,,,,,,,,,,,,,,,,,,,,,,,,,,,,,,,,,
,,,,,,,,,5f24b0fc546c5a0c3c2e43b6,Spanish,13 or older,"no, only English or Spanish",no,2025-07-24_10h47.23.612,empathy_intonation_perc_control,2024.2.4,MacIntel,58.13953488,5f24b0fc546c5a0c3c2e43b6,68817205a84113384fffdfe3,68824758d8a9b8b49359fdfe,,,,,,,,,,,,./stim/wavs/castilian_mismatch_declarative-broad-focus_El-nino-oye-el-rio.wav,0,,,72.3909,74.5838,0,1,1.6767,,0,15,15,68,1,69,0,castilian,,,,,,,,,,,,,,,,,,,,,,,,,,,,,,,,,,,,,,,,,,,,,,,,,,,,,,,,
,,,,,,,,,5f24b0fc546c5a0c3c2e43b6,Spanish,13 or older,"no, only English or Spanish",no,2025-07-24_10h47.23.612,empathy_intonation_perc_control,2024.2.4,MacIntel,58.13953488,5f24b0fc546c5a0c3c2e43b6,68817205a84113384fffdfe3,68824758d8a9b8b49359fdfe,,,,,,,,,,,,./stim/wavs/castilian_match_interrogative-total-yn_Marta-abre-el-regalo.wav,1,,,74.5844,76.8792,1,1,1.7768,,0,16,16,5,1,6,0,castilian,,,,,,,,,,,,,,,,,,,,,,,,,,,,,,,,,,,,,,,,,,,,,,,,,,,,,,,,
,,,,,,,,,5f24b0fc546c5a0c3c2e43b6,Spanish,13 or older,"no, only English or Spanish",no,2025-07-24_10h47.23.612,empathy_intonation_perc_control,2024.2.4,MacIntel,58.13953488,5f24b0fc546c5a0c3c2e43b6,68817205a84113384fffdfe3,68824758d8a9b8b49359fdfe,,,,,,,,,,,,./stim/wavs/cuban_match_interrogative-total-yn_Ana-lleva-el-abrigo.wav,1,,,76.8797,78.9899,0,0,1.5988,,0,17,17,6,1,7,1,cuban,,,,,,,,,,,,,,,,,,,,,,,,,,,,,,,,,,,,,,,,,,,,,,,,,,,,,,,,
,,,,,,,,,5f24b0fc546c5a0c3c2e43b6,Spanish,13 or older,"no, only English or Spanish",no,2025-07-24_10h47.23.612,empathy_intonation_perc_control,2024.2.4,MacIntel,58.13953488,5f24b0fc546c5a0c3c2e43b6,68817205a84113384fffdfe3,68824758d8a9b8b49359fdfe,,,,,,,,,,,,./stim/wavs/castilian_match_interrogative-total-yn_Emilio-ama-la-marcha.wav,1,,,78.9903,81.1012,1,1,1.592,,0,18,18,1,1,2,0,castilian,,,,,,,,,,,,,,,,,,,,,,,,,,,,,,,,,,,,,,,,,,,,,,,,,,,,,,,,
,,,,,,,,,5f24b0fc546c5a0c3c2e43b6,Spanish,13 or older,"no, only English or Spanish",no,2025-07-24_10h47.23.612,empathy_intonation_perc_control,2024.2.4,MacIntel,58.13953488,5f24b0fc546c5a0c3c2e43b6,68817205a84113384fffdfe3,68824758d8a9b8b49359fdfe,,,,,,,,,,,,./stim/wavs/cuban_match_declarative-broad-focus_Ana-lleva-el-abrigo.wav,0,,,81.1018,83.0609,0,1,1.4484,,0,19,19,50,1,51,0,cuban,,,,,,,,,,,,,,,,,,,,,,,,,,,,,,,,,,,,,,,,,,,,,,,,,,,,,,,,
,,,,,,,,,5f24b0fc546c5a0c3c2e43b6,Spanish,13 or older,"no, only English or Spanish",no,2025-07-24_10h47.23.612,empathy_intonation_perc_control,2024.2.4,MacIntel,58.13953488,5f24b0fc546c5a0c3c2e43b6,68817205a84113384fffdfe3,68824758d8a9b8b49359fdfe,,,,,,,,,,,,./stim/wavs/mexican_mismatch_interrogative-total-yn_Mi-novio-viene-del-lago.wav,1,,,83.0613,85.5572,1,1,1.9779,,0,20,20,37,1,38,0,mexican,,,,,,,,,,,,,,,,,,,,,,,,,,,,,,,,,,,,,,,,,,,,,,,,,,,,,,,,
,,,,,,,,,5f24b0fc546c5a0c3c2e43b6,Spanish,13 or older,"no, only English or Spanish",no,2025-07-24_10h47.23.612,empathy_intonation_perc_control,2024.2.4,MacIntel,58.13953488,5f24b0fc546c5a0c3c2e43b6,68817205a84113384fffdfe3,68824758d8a9b8b49359fdfe,,,,,,,,,,,,./stim/wavs/castilian_mismatch_declarative-broad-focus_Mi-tia-odia-la-lluvia.wav,0,,,85.5577,87.7343,0,1,1.665,,0,21,21,72,1,73,0,castilian,,,,,,,,,,,,,,,,,,,,,,,,,,,,,,,,,,,,,,,,,,,,,,,,,,,,,,,,
,,,,,,,,,5f24b0fc546c5a0c3c2e43b6,Spanish,13 or older,"no, only English or Spanish",no,2025-07-24_10h47.23.612,empathy_intonation_perc_control,2024.2.4,MacIntel,58.13953488,5f24b0fc546c5a0c3c2e43b6,68817205a84113384fffdfe3,68824758d8a9b8b49359fdfe,,,,,,,,,,,,./stim/wavs/puertorican_mismatch_interrogative-total-yn_El-nino-oye-el-rio.wav,1,,,87.735,89.8124,0,0,1.5576,,0,22,22,40,1,41,1,puertorican,,,,,,,,,,,,,,,,,,,,,,,,,,,,,,,,,,,,,,,,,,,,,,,,,,,,,,,,
,,,,,,,,,5f24b0fc546c5a0c3c2e43b6,Spanish,13 or older,"no, only English or Spanish",no,2025-07-24_10h47.23.612,empathy_intonation_perc_control,2024.2.4,MacIntel,58.13953488,5f24b0fc546c5a0c3c2e43b6,68817205a84113384fffdfe3,68824758d8a9b8b49359fdfe,,,,,,,,,,,,./stim/wavs/mexican_mismatch_declarative-broad-focus_La-maestra-vive-en-Paris.wav,0,,,89.8239,92.0568,0,1,1.7083,,0,23,23,80,1,81,0,mexican,,,,,,,,,,,,,,,,,,,,,,,,,,,,,,,,,,,,,,,,,,,,,,,,,,,,,,,,
,,,,,,,,,5f24b0fc546c5a0c3c2e43b6,Spanish,13 or older,"no, only English or Spanish",no,2025-07-24_10h47.23.612,empathy_intonation_perc_control,2024.2.4,MacIntel,58.13953488,5f24b0fc546c5a0c3c2e43b6,68817205a84113384fffdfe3,68824758d8a9b8b49359fdfe,,,,,,,,,,,,./stim/wavs/cuban_mismatch_declarative-broad-focus_El-hombre-mira-la-luna.wav,0,,,92.0572,93.9833,0,1,1.408,,0,24,24,74,1,75,0,cuban,,,,,,,,,,,,,,,,,,,,,,,,,,,,,,,,,,,,,,,,,,,,,,,,,,,,,,,,
,,,,,,,,,5f24b0fc546c5a0c3c2e43b6,Spanish,13 or older,"no, only English or Spanish",no,2025-07-24_10h47.23.612,empathy_intonation_perc_control,2024.2.4,MacIntel,58.13953488,5f24b0fc546c5a0c3c2e43b6,68817205a84113384fffdfe3,68824758d8a9b8b49359fdfe,,,,,,,,,,,,./stim/wavs/cuban_match_declarative-broad-focus_Daniel-iba-a-Bolivia.wav,0,,,93.9839,96.2959,0,1,1.7987,,0,25,25,51,1,52,0,cuban,,,,,,,,,,,,,,,,,,,,,,,,,,,,,,,,,,,,,,,,,,,,,,,,,,,,,,,,
,,,,,,,,,5f24b0fc546c5a0c3c2e43b6,Spanish,13 or older,"no, only English or Spanish",no,2025-07-24_10h47.23.612,empathy_intonation_perc_control,2024.2.4,MacIntel,58.13953488,5f24b0fc546c5a0c3c2e43b6,68817205a84113384fffdfe3,68824758d8a9b8b49359fdfe,,,,,,,,,,,,./stim/wavs/cuban_mismatch_declarative-broad-focus_La-nina-lava-el-plato.wav,0,,,96.2963,98.6241,0,1,1.8168,,0,26,26,75,1,76,0,cuban,,,,,,,,,,,,,,,,,,,,,,,,,,,,,,,,,,,,,,,,,,,,,,,,,,,,,,,,
,,,,,,,,,5f24b0fc546c5a0c3c2e43b6,Spanish,13 or older,"no, only English or Spanish",no,2025-07-24_10h47.23.612,empathy_intonation_perc_control,2024.2.4,MacIntel,58.13953488,5f24b0fc546c5a0c3c2e43b6,68817205a84113384fffdfe3,68824758d8a9b8b49359fdfe,,,,,,,,,,,,./stim/wavs/castilian_match_declarative-broad-focus_Mariano-habla-del-tiempo.wav,0,,,98.6246,101.0705,0,1,1.929,,0,27,27,48,1,49,0,castilian,,,,,,,,,,,,,,,,,,,,,,,,,,,,,,,,,,,,,,,,,,,,,,,,,,,,,,,,
,,,,,,,,,5f24b0fc546c5a0c3c2e43b6,Spanish,13 or older,"no, only English or Spanish",no,2025-07-24_10h47.23.612,empathy_intonation_perc_control,2024.2.4,MacIntel,58.13953488,5f24b0fc546c5a0c3c2e43b6,68817205a84113384fffdfe3,68824758d8a9b8b49359fdfe,,,,,,,,,,,,./stim/wavs/puertorican_match_declarative-broad-focus_David-leia-el-libro.wav,0,,,101.071,103.0804,0,1,1.4899,,0,28,28,64,1,65,0,puertorican,,,,,,,,,,,,,,,,,,,,,,,,,,,,,,,,,,,,,,,,,,,,,,,,,,,,,,,,
,,,,,,,,,5f24b0fc546c5a0c3c2e43b6,Spanish,13 or older,"no, only English or Spanish",no,2025-07-24_10h47.23.612,empathy_intonation_perc_control,2024.2.4,MacIntel,58.13953488,5f24b0fc546c5a0c3c2e43b6,68817205a84113384fffdfe3,68824758d8a9b8b49359fdfe,,,,,,,,,,,,./stim/wavs/castilian_match_declarative-broad-focus_Emilio-ama-la-marcha.wav,0,,,103.0808,105.3579,0,1,1.7589,,0,29,29,45,1,46,0,castilian,,,,,,,,,,,,,,,,,,,,,,,,,,,,,,,,,,,,,,,,,,,,,,,,,,,,,,,,
,,,,,,,,,5f24b0fc546c5a0c3c2e43b6,Spanish,13 or older,"no, only English or Spanish",no,2025-07-24_10h47.23.612,empathy_intonation_perc_control,2024.2.4,MacIntel,58.13953488,5f24b0fc546c5a0c3c2e43b6,68817205a84113384fffdfe3,68824758d8a9b8b49359fdfe,,,,,,,,,,,,./stim/wavs/mexican_mismatch_declarative-broad-focus_Mi-tia-odia-la-lluvia.wav,0,,,105.3584,107.3354,0,1,1.4657,,0,30,30,82,1,83,0,mexican,,,,,,,,,,,,,,,,,,,,,,,,,,,,,,,,,,,,,,,,,,,,,,,,,,,,,,,,
,,,,,,,,,5f24b0fc546c5a0c3c2e43b6,Spanish,13 or older,"no, only English or Spanish",no,2025-07-24_10h47.23.612,empathy_intonation_perc_control,2024.2.4,MacIntel,58.13953488,5f24b0fc546c5a0c3c2e43b6,68817205a84113384fffdfe3,68824758d8a9b8b49359fdfe,,,,,,,,,,,,./stim/wavs/mexican_match_interrogative-total-yn_Daniel-iba-a-Bolivia.wav,1,,,107.3359,109.5466,1,1,1.6933,,0,31,31,13,1,14,0,mexican,,,,,,,,,,,,,,,,,,,,,,,,,,,,,,,,,,,,,,,,,,,,,,,,,,,,,,,,
,,,,,,,,,5f24b0fc546c5a0c3c2e43b6,Spanish,13 or older,"no, only English or Spanish",no,2025-07-24_10h47.23.612,empathy_intonation_perc_control,2024.2.4,MacIntel,58.13953488,5f24b0fc546c5a0c3c2e43b6,68817205a84113384fffdfe3,68824758d8a9b8b49359fdfe,,,,,,,,,,,,./stim/wavs/mexican_match_interrogative-total-yn_Marta-abre-el-regalo.wav,1,,,109.5472,111.5399,1,1,1.4811,,0,32,32,17,1,18,0,mexican,,,,,,,,,,,,,,,,,,,,,,,,,,,,,,,,,,,,,,,,,,,,,,,,,,,,,,,,
,,,,,,,,,5f24b0fc546c5a0c3c2e43b6,Spanish,13 or older,"no, only English or Spanish",no,2025-07-24_10h47.23.612,empathy_intonation_perc_control,2024.2.4,MacIntel,58.13953488,5f24b0fc546c5a0c3c2e43b6,68817205a84113384fffdfe3,68824758d8a9b8b49359fdfe,,,,,,,,,,,,./stim/wavs/castilian_match_declarative-broad-focus_Manuela-vende-el-carro.wav,0,,,111.5403,113.8357,0,1,1.7743,,0,33,33,46,1,47,0,castilian,,,,,,,,,,,,,,,,,,,,,,,,,,,,,,,,,,,,,,,,,,,,,,,,,,,,,,,,
,,,,,,,,,5f24b0fc546c5a0c3c2e43b6,Spanish,13 or older,"no, only English or Spanish",no,2025-07-24_10h47.23.612,empathy_intonation_perc_control,2024.2.4,MacIntel,58.13953488,5f24b0fc546c5a0c3c2e43b6,68817205a84113384fffdfe3,68824758d8a9b8b49359fdfe,,,,,,,,,,,,./stim/wavs/castilian_mismatch_interrogative-total-yn_La-maestra-vive-en-Paris.wav,1,,,113.847,116.2808,1,1,1.9146,,0,34,34,24,1,25,0,castilian,,,,,,,,,,,,,,,,,,,,,,,,,,,,,,,,,,,,,,,,,,,,,,,,,,,,,,,,
,,,,,,,,,5f24b0fc546c5a0c3c2e43b6,Spanish,13 or older,"no, only English or Spanish",no,2025-07-24_10h47.23.612,empathy_intonation_perc_control,2024.2.4,MacIntel,58.13953488,5f24b0fc546c5a0c3c2e43b6,68817205a84113384fffdfe3,68824758d8a9b8b49359fdfe,,,,,,,,,,,,./stim/wavs/castilian_match_interrogative-total-yn_David-leia-el-libro.wav,1,,,116.2814,118.425,1,1,1.6319,,0,35,35,0,1,1,0,castilian,,,,,,,,,,,,,,,,,,,,,,,,,,,,,,,,,,,,,,,,,,,,,,,,,,,,,,,,
,,,,,,,,,5f24b0fc546c5a0c3c2e43b6,Spanish,13 or older,"no, only English or Spanish",no,2025-07-24_10h47.23.612,empathy_intonation_perc_control,2024.2.4,MacIntel,58.13953488,5f24b0fc546c5a0c3c2e43b6,68817205a84113384fffdfe3,68824758d8a9b8b49359fdfe,,,,,,,,,,,,./stim/wavs/castilian_match_declarative-broad-focus_David-leia-el-libro.wav,0,,,118.4254,120.7204,0,1,1.7757,,0,36,36,44,1,45,0,castilian,,,,,,,,,,,,,,,,,,,,,,,,,,,,,,,,,,,,,,,,,,,,,,,,,,,,,,,,
,,,,,,,,,5f24b0fc546c5a0c3c2e43b6,Spanish,13 or older,"no, only English or Spanish",no,2025-07-24_10h47.23.612,empathy_intonation_perc_control,2024.2.4,MacIntel,58.13953488,5f24b0fc546c5a0c3c2e43b6,68817205a84113384fffdfe3,68824758d8a9b8b49359fdfe,,,,,,,,,,,,./stim/wavs/puertorican_mismatch_declarative-broad-focus_La-maestra-vive-en-Paris.wav,0,,,120.7207,122.8484,0,1,1.6106,,0,37,37,86,1,87,0,puertorican,,,,,,,,,,,,,,,,,,,,,,,,,,,,,,,,,,,,,,,,,,,,,,,,,,,,,,,,
,,,,,,,,,5f24b0fc546c5a0c3c2e43b6,Spanish,13 or older,"no, only English or Spanish",no,2025-07-24_10h47.23.612,empathy_intonation_perc_control,2024.2.4,MacIntel,58.13953488,5f24b0fc546c5a0c3c2e43b6,68817205a84113384fffdfe3,68824758d8a9b8b49359fdfe,,,,,,,,,,,,./stim/wavs/cuban_match_declarative-broad-focus_Mariano-habla-del-tiempo.wav,0,,,122.8489,125.0947,0,1,1.7276,,0,38,38,54,1,55,0,cuban,,,,,,,,,,,,,,,,,,,,,,,,,,,,,,,,,,,,,,,,,,,,,,,,,,,,,,,,
,,,,,,,,,5f24b0fc546c5a0c3c2e43b6,Spanish,13 or older,"no, only English or Spanish",no,2025-07-24_10h47.23.612,empathy_intonation_perc_control,2024.2.4,MacIntel,58.13953488,5f24b0fc546c5a0c3c2e43b6,68817205a84113384fffdfe3,68824758d8a9b8b49359fdfe,,,,,,,,,,,,./stim/wavs/mexican_match_interrogative-total-yn_Ana-lleva-el-abrigo.wav,1,,,125.0954,126.9854,1,1,1.3732,,0,39,39,12,1,13,0,mexican,,,,,,,,,,,,,,,,,,,,,,,,,,,,,,,,,,,,,,,,,,,,,,,,,,,,,,,,
,,,,,,,,,5f24b0fc546c5a0c3c2e43b6,Spanish,13 or older,"no, only English or Spanish",no,2025-07-24_10h47.23.612,empathy_intonation_perc_control,2024.2.4,MacIntel,58.13953488,5f24b0fc546c5a0c3c2e43b6,68817205a84113384fffdfe3,68824758d8a9b8b49359fdfe,,,,,,,,,,,,./stim/wavs/castilian_mismatch_interrogative-total-yn_Mi-novio-viene-del-lago.wav,1,,,126.9858,129.3149,1,1,1.8143,,0,40,40,27,1,28,0,castilian,,,,,,,,,,,,,,,,,,,,,,,,,,,,,,,,,,,,,,,,,,,,,,,,,,,,,,,,
,,,,,,,,,5f24b0fc546c5a0c3c2e43b6,Spanish,13 or older,"no, only English or Spanish",no,2025-07-24_10h47.23.612,empathy_intonation_perc_control,2024.2.4,MacIntel,58.13953488,5f24b0fc546c5a0c3c2e43b6,68817205a84113384fffdfe3,68824758d8a9b8b49359fdfe,,,,,,,,,,,,./stim/wavs/puertorican_mismatch_declarative-broad-focus_La-nina-lava-el-plato.wav,0,,,129.3155,131.258,0,1,1.4246,,0,41,41,87,1,88,0,puertorican,,,,,,,,,,,,,,,,,,,,,,,,,,,,,,,,,,,,,,,,,,,,,,,,,,,,,,,,
,,,,,,,,,5f24b0fc546c5a0c3c2e43b6,Spanish,13 or older,"no, only English or Spanish",no,2025-07-24_10h47.23.612,empathy_intonation_perc_control,2024.2.4,MacIntel,58.13953488,5f24b0fc546c5a0c3c2e43b6,68817205a84113384fffdfe3,68824758d8a9b8b49359fdfe,,,,,,,,,,,,./stim/wavs/cuban_mismatch_declarative-broad-focus_Mi-novio-viene-del-lago.wav,0,,,131.2585,133.284,0,1,1.5133,,0,42,42,76,1,77,0,cuban,,,,,,,,,,,,,,,,,,,,,,,,,,,,,,,,,,,,,,,,,,,,,,,,,,,,,,,,
,,,,,,,,,5f24b0fc546c5a0c3c2e43b6,Spanish,13 or older,"no, only English or Spanish",no,2025-07-24_10h47.23.612,empathy_intonation_perc_control,2024.2.4,MacIntel,58.13953488,5f24b0fc546c5a0c3c2e43b6,68817205a84113384fffdfe3,68824758d8a9b8b49359fdfe,,,,,,,,,,,,./stim/wavs/puertorican_mismatch_interrogative-total-yn_La-nina-lava-el-plato.wav,1,,,133.2844,135.3448,0,0,1.5417,,0,43,43,42,1,43,1,puertorican,,,,,,,,,,,,,,,,,,,,,,,,,,,,,,,,,,,,,,,,,,,,,,,,,,,,,,,,
,,,,,,,,,5f24b0fc546c5a0c3c2e43b6,Spanish,13 or older,"no, only English or Spanish",no,2025-07-24_10h47.23.612,empathy_intonation_perc_control,2024.2.4,MacIntel,58.13953488,5f24b0fc546c5a0c3c2e43b6,68817205a84113384fffdfe3,68824758d8a9b8b49359fdfe,,,,,,,,,,,,./stim/wavs/cuban_mismatch_declarative-broad-focus_Mi-tia-odia-la-lluvia.wav,0,,,135.3452,137.4892,0,1,1.631,,0,44,44,77,1,78,0,cuban,,,,,,,,,,,,,,,,,,,,,,,,,,,,,,,,,,,,,,,,,,,,,,,,,,,,,,,,
,,,,,,,,,5f24b0fc546c5a0c3c2e43b6,Spanish,13 or older,"no, only English or Spanish",no,2025-07-24_10h47.23.612,empathy_intonation_perc_control,2024.2.4,MacIntel,58.13953488,5f24b0fc546c5a0c3c2e43b6,68817205a84113384fffdfe3,68824758d8a9b8b49359fdfe,,,,,,,,,,,,./stim/wavs/mexican_match_interrogative-total-yn_David-leia-el-libro.wav,1,,,137.4897,139.4832,1,1,1.4749,,0,45,45,14,1,15,0,mexican,,,,,,,,,,,,,,,,,,,,,,,,,,,,,,,,,,,,,,,,,,,,,,,,,,,,,,,,
,,,,,,,,,5f24b0fc546c5a0c3c2e43b6,Spanish,13 or older,"no, only English or Spanish",no,2025-07-24_10h47.23.612,empathy_intonation_perc_control,2024.2.4,MacIntel,58.13953488,5f24b0fc546c5a0c3c2e43b6,68817205a84113384fffdfe3,68824758d8a9b8b49359fdfe,,,,,,,,,,,,./stim/wavs/mexican_match_declarative-broad-focus_Marta-abre-el-regalo.wav,0,,,139.4837,141.3762,0,1,1.3732,,0,46,46,61,1,62,0,mexican,,,,,,,,,,,,,,,,,,,,,,,,,,,,,,,,,,,,,,,,,,,,,,,,,,,,,,,,
,,,,,,,,,5f24b0fc546c5a0c3c2e43b6,Spanish,13 or older,"no, only English or Spanish",no,2025-07-24_10h47.23.612,empathy_intonation_perc_control,2024.2.4,MacIntel,58.13953488,5f24b0fc546c5a0c3c2e43b6,68817205a84113384fffdfe3,68824758d8a9b8b49359fdfe,,,,,,,,,,,,./stim/wavs/cuban_mismatch_interrogative-total-yn_El-hombre-mira-la-luna.wav,1,,,141.3766,143.319,0,0,1.4262,,0,47,47,29,1,30,1,cuban,,,,,,,,,,,,,,,,,,,,,,,,,,,,,,,,,,,,,,,,,,,,,,,,,,,,,,,,
,,,,,,,,,5f24b0fc546c5a0c3c2e43b6,Spanish,13 or older,"no, only English or Spanish",no,2025-07-24_10h47.23.612,empathy_intonation_perc_control,2024.2.4,MacIntel,58.13953488,5f24b0fc546c5a0c3c2e43b6,68817205a84113384fffdfe3,68824758d8a9b8b49359fdfe,,,,,,,,,,,,./stim/wavs/mexican_mismatch_interrogative-total-yn_El-nino-oye-el-rio.wav,1,,,143.3195,145.5637,1,1,1.7337,,0,48,48,35,1,36,0,mexican,,,,,,,,,,,,,,,,,,,,,,,,,,,,,,,,,,,,,,,,,,,,,,,,,,,,,,,,
,,,,,,,,,5f24b0fc546c5a0c3c2e43b6,Spanish,13 or older,"no, only English or Spanish",no,2025-07-24_10h47.23.612,empathy_intonation_perc_control,2024.2.4,MacIntel,58.13953488,5f24b0fc546c5a0c3c2e43b6,68817205a84113384fffdfe3,68824758d8a9b8b49359fdfe,,,,,,,,,,,,./stim/wavs/puertorican_mismatch_declarative-broad-focus_El-bebe-comia-muy-bien.wav,0,,,145.5643,147.6085,0,1,1.5253,,0,49,49,83,1,84,0,puertorican,,,,,,,,,,,,,,,,,,,,,,,,,,,,,,,,,,,,,,,,,,,,,,,,,,,,,,,,
,,,,,,,,,5f24b0fc546c5a0c3c2e43b6,Spanish,13 or older,"no, only English or Spanish",no,2025-07-24_10h47.23.612,empathy_intonation_perc_control,2024.2.4,MacIntel,58.13953488,5f24b0fc546c5a0c3c2e43b6,68817205a84113384fffdfe3,68824758d8a9b8b49359fdfe,,,,,,,,,,,,./stim/wavs/mexican_match_declarative-broad-focus_Mariano-habla-del-tiempo.wav,0,,,147.6089,149.6349,0,1,1.5151,,0,50,50,60,1,61,0,mexican,,,,,,,,,,,,,,,,,,,,,,,,,,,,,,,,,,,,,,,,,,,,,,,,,,,,,,,,
,,,,,,,,,5f24b0fc546c5a0c3c2e43b6,Spanish,13 or older,"no, only English or Spanish",no,2025-07-24_10h47.23.612,empathy_intonation_perc_control,2024.2.4,MacIntel,58.13953488,5f24b0fc546c5a0c3c2e43b6,68817205a84113384fffdfe3,68824758d8a9b8b49359fdfe,,,,,,,,,,,,./stim/wavs/mexican_mismatch_declarative-broad-focus_El-bebe-comia-muy-bien.wav,0,,,149.6354,152.5995,0,1,2.4455,,0,51,51,78,1,79,0,mexican,,,,,,,,,,,,,,,,,,,,,,,,,,,,,,,,,,,,,,,,,,,,,,,,,,,,,,,,
,,,,,,,,,5f24b0fc546c5a0c3c2e43b6,Spanish,13 or older,"no, only English or Spanish",no,2025-07-24_10h47.23.612,empathy_intonation_perc_control,2024.2.4,MacIntel,58.13953488,5f24b0fc546c5a0c3c2e43b6,68817205a84113384fffdfe3,68824758d8a9b8b49359fdfe,,,,,,,,,,,,./stim/wavs/castilian_mismatch_interrogative-total-yn_Mi-tia-odia-la-lluvia.wav,1,,,152.6107,154.6601,1,1,1.5261,,0,52,52,28,1,29,0,castilian,,,,,,,,,,,,,,,,,,,,,,,,,,,,,,,,,,,,,,,,,,,,,,,,,,,,,,,,
,,,,,,,,,5f24b0fc546c5a0c3c2e43b6,Spanish,13 or older,"no, only English or Spanish",no,2025-07-24_10h47.23.612,empathy_intonation_perc_control,2024.2.4,MacIntel,58.13953488,5f24b0fc546c5a0c3c2e43b6,68817205a84113384fffdfe3,68824758d8a9b8b49359fdfe,,,,,,,,,,,,./stim/wavs/castilian_match_declarative-broad-focus_Maria-bebe-el-vino.wav,0,,,154.6606,156.6373,0,1,1.465,,0,53,53,47,1,48,0,castilian,,,,,,,,,,,,,,,,,,,,,,,,,,,,,,,,,,,,,,,,,,,,,,,,,,,,,,,,
,,,,,,,,,5f24b0fc546c5a0c3c2e43b6,Spanish,13 or older,"no, only English or Spanish",no,2025-07-24_10h47.23.612,empathy_intonation_perc_control,2024.2.4,MacIntel,58.13953488,5f24b0fc546c5a0c3c2e43b6,68817205a84113384fffdfe3,68824758d8a9b8b49359fdfe,,,,,,,,,,,,./stim/wavs/cuban_mismatch_interrogative-total-yn_Mi-novio-viene-del-lago.wav,1,,,156.6378,158.7488,0,0,1.591,,0,54,54,32,1,33,1,cuban,,,,,,,,,,,,,,,,,,,,,,,,,,,,,,,,,,,,,,,,,,,,,,,,,,,,,,,,
,,,,,,,,,5f24b0fc546c5a0c3c2e43b6,Spanish,13 or older,"no, only English or Spanish",no,2025-07-24_10h47.23.612,empathy_intonation_perc_control,2024.2.4,MacIntel,58.13953488,5f24b0fc546c5a0c3c2e43b6,68817205a84113384fffdfe3,68824758d8a9b8b49359fdfe,,,,,,,,,,,,./stim/wavs/puertorican_mismatch_declarative-broad-focus_El-nino-oye-el-rio.wav,0,,,158.7492,160.6407,0,1,1.3739,,0,55,55,85,1,86,0,puertorican,,,,,,,,,,,,,,,,,,,,,,,,,,,,,,,,,,,,,,,,,,,,,,,,,,,,,,,,
,,,,,,,,,5f24b0fc546c5a0c3c2e43b6,Spanish,13 or older,"no, only English or Spanish",no,2025-07-24_10h47.23.612,empathy_intonation_perc_control,2024.2.4,MacIntel,58.13953488,5f24b0fc546c5a0c3c2e43b6,68817205a84113384fffdfe3,68824758d8a9b8b49359fdfe,,,,,,,,,,,,./stim/wavs/puertorican_mismatch_interrogative-total-yn_Mi-madre-come-la-fruta.wav,1,,,160.641,162.6354,0,0,1.48,,0,56,56,43,1,44,1,puertorican,,,,,,,,,,,,,,,,,,,,,,,,,,,,,,,,,,,,,,,,,,,,,,,,,,,,,,,,
,,,,,,,,,5f24b0fc546c5a0c3c2e43b6,Spanish,13 or older,"no, only English or Spanish",no,2025-07-24_10h47.23.612,empathy_intonation_perc_control,2024.2.4,MacIntel,58.13953488,5f24b0fc546c5a0c3c2e43b6,68817205a84113384fffdfe3,68824758d8a9b8b49359fdfe,,,,,,,,,,,,./stim/wavs/cuban_match_interrogative-total-yn_Manuela-vende-el-carro.wav,1,,,162.6357,164.5614,0,0,1.4081,,0,57,57,8,1,9,1,cuban,,,,,,,,,,,,,,,,,,,,,,,,,,,,,,,,,,,,,,,,,,,,,,,,,,,,,,,,
,,,,,,,,,5f24b0fc546c5a0c3c2e43b6,Spanish,13 or older,"no, only English or Spanish",no,2025-07-24_10h47.23.612,empathy_intonation_perc_control,2024.2.4,MacIntel,58.13953488,5f24b0fc546c5a0c3c2e43b6,68817205a84113384fffdfe3,68824758d8a9b8b49359fdfe,,,,,,,,,,,,./stim/wavs/cuban_match_interrogative-total-yn_Daniel-iba-a-Bolivia.wav,1,,,164.562,166.589,0,0,1.5132,,0,58,58,7,1,8,1,cuban,,,,,,,,,,,,,,,,,,,,,,,,,,,,,,,,,,,,,,,,,,,,,,,,,,,,,,,,
,,,,,,,,,5f24b0fc546c5a0c3c2e43b6,Spanish,13 or older,"no, only English or Spanish",no,2025-07-24_10h47.23.612,empathy_intonation_perc_control,2024.2.4,MacIntel,58.13953488,5f24b0fc546c5a0c3c2e43b6,68817205a84113384fffdfe3,68824758d8a9b8b49359fdfe,,,,,,,,,,,,./stim/wavs/castilian_match_interrogative-total-yn_Manuela-vende-el-carro.wav,1,,,166.5896,168.7489,1,1,1.6418,,0,59,59,2,1,3,0,castilian,,,,,,,,,,,,,,,,,,,,,,,,,,,,,,,,,,,,,,,,,,,,,,,,,,,,,,,,
,,,,,,,,,5f24b0fc546c5a0c3c2e43b6,Spanish,13 or older,"no, only English or Spanish",no,2025-07-24_10h47.23.612,empathy_intonation_perc_control,2024.2.4,MacIntel,58.13953488,5f24b0fc546c5a0c3c2e43b6,68817205a84113384fffdfe3,68824758d8a9b8b49359fdfe,,,,,,,,,,,,./stim/wavs/cuban_mismatch_interrogative-total-yn_El-nino-oye-el-rio.wav,1,,,168.7493,170.4084,0,0,1.1391,,0,60,60,30,1,31,1,cuban,,,,,,,,,,,,,,,,,,,,,,,,,,,,,,,,,,,,,,,,,,,,,,,,,,,,,,,,
,,,,,,,,,5f24b0fc546c5a0c3c2e43b6,Spanish,13 or older,"no, only English or Spanish",no,2025-07-24_10h47.23.612,empathy_intonation_perc_control,2024.2.4,MacIntel,58.13953488,5f24b0fc546c5a0c3c2e43b6,68817205a84113384fffdfe3,68824758d8a9b8b49359fdfe,,,,,,,,,,,,./stim/wavs/cuban_match_interrogative-total-yn_Mariano-habla-del-tiempo.wav,1,,,170.4088,172.5025,0,0,1.576,,0,61,61,10,1,11,1,cuban,,,,,,,,,,,,,,,,,,,,,,,,,,,,,,,,,,,,,,,,,,,,,,,,,,,,,,,,
,,,,,,,,,5f24b0fc546c5a0c3c2e43b6,Spanish,13 or older,"no, only English or Spanish",no,2025-07-24_10h47.23.612,empathy_intonation_perc_control,2024.2.4,MacIntel,58.13953488,5f24b0fc546c5a0c3c2e43b6,68817205a84113384fffdfe3,68824758d8a9b8b49359fdfe,,,,,,,,,,,,./stim/wavs/cuban_match_declarative-broad-focus_Maria-bebe-el-vino.wav,0,,,172.5033,174.4455,0,1,1.4254,,0,62,62,53,1,54,0,cuban,,,,,,,,,,,,,,,,,,,,,,,,,,,,,,,,,,,,,,,,,,,,,,,,,,,,,,,,
,,,,,,,,,5f24b0fc546c5a0c3c2e43b6,Spanish,13 or older,"no, only English or Spanish",no,2025-07-24_10h47.23.612,empathy_intonation_perc_control,2024.2.4,MacIntel,58.13953488,5f24b0fc546c5a0c3c2e43b6,68817205a84113384fffdfe3,68824758d8a9b8b49359fdfe,,,,,,,,,,,,./stim/wavs/puertorican_match_declarative-broad-focus_Emilio-ama-la-marcha.wav,0,,,174.446,176.3724,0,1,1.4068,,0,63,63,65,1,66,0,puertorican,,,,,,,,,,,,,,,,,,,,,,,,,,,,,,,,,,,,,,,,,,,,,,,,,,,,,,,,
,,,,,,,,,5f24b0fc546c5a0c3c2e43b6,Spanish,13 or older,"no, only English or Spanish",no,2025-07-24_10h47.23.612,empathy_intonation_perc_control,2024.2.4,MacIntel,58.13953488,5f24b0fc546c5a0c3c2e43b6,68817205a84113384fffdfe3,68824758d8a9b8b49359fdfe,,,,,,,,,,,,./stim/wavs/cuban_mismatch_interrogative-total-yn_Mi-madre-come-la-fruta.wav,1,,,176.3729,178.4484,0,0,1.5637,,0,64,64,31,1,32,1,cuban,,,,,,,,,,,,,,,,,,,,,,,,,,,,,,,,,,,,,,,,,,,,,,,,,,,,,,,,
,,,,,,,,,5f24b0fc546c5a0c3c2e43b6,Spanish,13 or older,"no, only English or Spanish",no,2025-07-24_10h47.23.612,empathy_intonation_perc_control,2024.2.4,MacIntel,58.13953488,5f24b0fc546c5a0c3c2e43b6,68817205a84113384fffdfe3,68824758d8a9b8b49359fdfe,,,,,,,,,,,,./stim/wavs/castilian_mismatch_declarative-broad-focus_La-nina-lava-el-plato.wav,0,,,178.4489,180.7609,0,1,1.7959,,0,65,65,70,1,71,0,castilian,,,,,,,,,,,,,,,,,,,,,,,,,,,,,,,,,,,,,,,,,,,,,,,,,,,,,,,,
,,,,,,,,,5f24b0fc546c5a0c3c2e43b6,Spanish,13 or older,"no, only English or Spanish",no,2025-07-24_10h47.23.612,empathy_intonation_perc_control,2024.2.4,MacIntel,58.13953488,5f24b0fc546c5a0c3c2e43b6,68817205a84113384fffdfe3,68824758d8a9b8b49359fdfe,,,,,,,,,,,,./stim/wavs/cuban_mismatch_declarative-broad-focus_El-bebe-comia-muy-bien.wav,0,,,180.7613,182.6537,0,1,1.3808,,0,66,66,73,1,74,0,cuban,,,,,,,,,,,,,,,,,,,,,,,,,,,,,,,,,,,,,,,,,,,,,,,,,,,,,,,,
,,,,,,,,,5f24b0fc546c5a0c3c2e43b6,Spanish,13 or older,"no, only English or Spanish",no,2025-07-24_10h47.23.612,empathy_intonation_perc_control,2024.2.4,MacIntel,58.13953488,5f24b0fc546c5a0c3c2e43b6,68817205a84113384fffdfe3,68824758d8a9b8b49359fdfe,,,,,,,,,,,,./stim/wavs/puertorican_match_interrogative-total-yn_Daniel-iba-a-Bolivia.wav,1,,,182.6541,184.7809,0,0,1.607,,0,67,67,19,1,20,1,puertorican,,,,,,,,,,,,,,,,,,,,,,,,,,,,,,,,,,,,,,,,,,,,,,,,,,,,,,,,
,,,,,,,,,5f24b0fc546c5a0c3c2e43b6,Spanish,13 or older,"no, only English or Spanish",no,2025-07-24_10h47.23.612,empathy_intonation_perc_control,2024.2.4,MacIntel,58.13953488,5f24b0fc546c5a0c3c2e43b6,68817205a84113384fffdfe3,68824758d8a9b8b49359fdfe,,,,,,,,,,,,./stim/wavs/mexican_mismatch_declarative-broad-focus_Mi-novio-viene-del-lago.wav,0,,,184.7815,186.691,0,1,1.4007,,0,68,68,81,1,82,0,mexican,,,,,,,,,,,,,,,,,,,,,,,,,,,,,,,,,,,,,,,,,,,,,,,,,,,,,,,,
,,,,,,,,,5f24b0fc546c5a0c3c2e43b6,Spanish,13 or older,"no, only English or Spanish",no,2025-07-24_10h47.23.612,empathy_intonation_perc_control,2024.2.4,MacIntel,58.13953488,5f24b0fc546c5a0c3c2e43b6,68817205a84113384fffdfe3,68824758d8a9b8b49359fdfe,,,,,,,,,,,,./stim/wavs/puertorican_match_interrogative-total-yn_Maria-bebe-el-vino.wav,1,,,186.6914,188.7349,0,0,1.5262,,0,69,69,23,1,24,1,puertorican,,,,,,,,,,,,,,,,,,,,,,,,,,,,,,,,,,,,,,,,,,,,,,,,,,,,,,,,
,,,,,,,,,5f24b0fc546c5a0c3c2e43b6,Spanish,13 or older,"no, only English or Spanish",no,2025-07-24_10h47.23.612,empathy_intonation_perc_control,2024.2.4,MacIntel,58.13953488,5f24b0fc546c5a0c3c2e43b6,68817205a84113384fffdfe3,68824758d8a9b8b49359fdfe,,,,,,,,,,,,./stim/wavs/castilian_mismatch_declarative-broad-focus_Mi-novio-viene-del-lago.wav,0,,,188.7353,190.9464,0,1,1.6961,,0,70,70,71,1,72,0,castilian,,,,,,,,,,,,,,,,,,,,,,,,,,,,,,,,,,,,,,,,,,,,,,,,,,,,,,,,
,,,,,,,,,5f24b0fc546c5a0c3c2e43b6,Spanish,13 or older,"no, only English or Spanish",no,2025-07-24_10h47.23.612,empathy_intonation_perc_control,2024.2.4,MacIntel,58.13953488,5f24b0fc546c5a0c3c2e43b6,68817205a84113384fffdfe3,68824758d8a9b8b49359fdfe,,,,,,,,,,,,./stim/wavs/mexican_mismatch_declarative-broad-focus_El-hombre-mira-la-luna.wav,0,,,190.9469,192.9064,0,1,1.447,,0,71,71,79,1,80,0,mexican,,,,,,,,,,,,,,,,,,,,,,,,,,,,,,,,,,,,,,,,,,,,,,,,,,,,,,,,
,,,,,,,,,5f24b0fc546c5a0c3c2e43b6,Spanish,13 or older,"no, only English or Spanish",no,2025-07-24_10h47.23.612,empathy_intonation_perc_control,2024.2.4,MacIntel,58.13953488,5f24b0fc546c5a0c3c2e43b6,68817205a84113384fffdfe3,68824758d8a9b8b49359fdfe,,,,,,,,,,,,./stim/wavs/puertorican_mismatch_interrogative-total-yn_El-hombre-mira-la-luna.wav,1,,,192.9069,195.0669,0,0,1.6411,,0,72,72,39,1,40,1,puertorican,,,,,,,,,,,,,,,,,,,,,,,,,,,,,,,,,,,,,,,,,,,,,,,,,,,,,,,,
,,,,,,,,,5f24b0fc546c5a0c3c2e43b6,Spanish,13 or older,"no, only English or Spanish",no,2025-07-24_10h47.23.612,empathy_intonation_perc_control,2024.2.4,MacIntel,58.13953488,5f24b0fc546c5a0c3c2e43b6,68817205a84113384fffdfe3,68824758d8a9b8b49359fdfe,,,,,,,,,,,,./stim/wavs/puertorican_match_declarative-broad-focus_Manuela-vende-el-carro.wav,0,,,195.0675,197.0269,0,1,1.4456,,0,73,73,66,1,67,0,puertorican,,,,,,,,,,,,,,,,,,,,,,,,,,,,,,,,,,,,,,,,,,,,,,,,,,,,,,,,
,,,,,,,,,5f24b0fc546c5a0c3c2e43b6,Spanish,13 or older,"no, only English or Spanish",no,2025-07-24_10h47.23.612,empathy_intonation_perc_control,2024.2.4,MacIntel,58.13953488,5f24b0fc546c5a0c3c2e43b6,68817205a84113384fffdfe3,68824758d8a9b8b49359fdfe,,,,,,,,,,,,./stim/wavs/puertorican_match_interrogative-total-yn_Ana-lleva-el-abrigo.wav,1,,,197.0273,198.7701,0,0,1.2227,,0,74,74,18,1,19,1,puertorican,,,,,,,,,,,,,,,,,,,,,,,,,,,,,,,,,,,,,,,,,,,,,,,,,,,,,,,,
,,,,,,,,,5f24b0fc546c5a0c3c2e43b6,Spanish,13 or older,"no, only English or Spanish",no,2025-07-24_10h47.23.612,empathy_intonation_perc_control,2024.2.4,MacIntel,58.13953488,5f24b0fc546c5a0c3c2e43b6,68817205a84113384fffdfe3,68824758d8a9b8b49359fdfe,,,,,,,,,,,,./stim/wavs/mexican_match_interrogative-total-yn_Mariano-habla-del-tiempo.wav,1,,,198.7706,200.9312,1,1,1.6527,,0,75,75,16,1,17,0,mexican,,,,,,,,,,,,,,,,,,,,,,,,,,,,,,,,,,,,,,,,,,,,,,,,,,,,,,,,
,,,,,,,,,5f24b0fc546c5a0c3c2e43b6,Spanish,13 or older,"no, only English or Spanish",no,2025-07-24_10h47.23.612,empathy_intonation_perc_control,2024.2.4,MacIntel,58.13953488,5f24b0fc546c5a0c3c2e43b6,68817205a84113384fffdfe3,68824758d8a9b8b49359fdfe,,,,,,,,,,,,./stim/wavs/castilian_match_interrogative-total-yn_Maria-bebe-el-vino.wav,1,,,200.9316,203.0911,1,1,1.6463,,0,76,76,3,1,4,0,castilian,,,,,,,,,,,,,,,,,,,,,,,,,,,,,,,,,,,,,,,,,,,,,,,,,,,,,,,,
,,,,,,,,,5f24b0fc546c5a0c3c2e43b6,Spanish,13 or older,"no, only English or Spanish",no,2025-07-24_10h47.23.612,empathy_intonation_perc_control,2024.2.4,MacIntel,58.13953488,5f24b0fc546c5a0c3c2e43b6,68817205a84113384fffdfe3,68824758d8a9b8b49359fdfe,,,,,,,,,,,,./stim/wavs/castilian_mismatch_declarative-broad-focus_La-maestra-vive-en-Paris.wav,0,,,203.0916,205.4702,0,1,1.867,,0,77,77,69,1,70,0,castilian,,,,,,,,,,,,,,,,,,,,,,,,,,,,,,,,,,,,,,,,,,,,,,,,,,,,,,,,
,,,,,,,,,5f24b0fc546c5a0c3c2e43b6,Spanish,13 or older,"no, only English or Spanish",no,2025-07-24_10h47.23.612,empathy_intonation_perc_control,2024.2.4,MacIntel,58.13953488,5f24b0fc546c5a0c3c2e43b6,68817205a84113384fffdfe3,68824758d8a9b8b49359fdfe,,,,,,,,,,,,./stim/wavs/puertorican_match_declarative-broad-focus_Maria-bebe-el-vino.wav,0,,,205.4705,207.9328,0,1,1.9432,,0,78,78,67,1,68,0,puertorican,,,,,,,,,,,,,,,,,,,,,,,,,,,,,,,,,,,,,,,,,,,,,,,,,,,,,,,,
,,,,,,,,,5f24b0fc546c5a0c3c2e43b6,Spanish,13 or older,"no, only English or Spanish",no,2025-07-24_10h47.23.612,empathy_intonation_perc_control,2024.2.4,MacIntel,58.13953488,5f24b0fc546c5a0c3c2e43b6,68817205a84113384fffdfe3,68824758d8a9b8b49359fdfe,,,,,,,,,,,,./stim/wavs/castilian_mismatch_interrogative-total-yn_La-nina-lava-el-plato.wav,1,,,207.9442,209.9766,1,1,1.5088,,0,79,79,25,1,26,0,castilian,,,,,,,,,,,,,,,,,,,,,,,,,,,,,,,,,,,,,,,,,,,,,,,,,,,,,,,,
,,,,,,,,,5f24b0fc546c5a0c3c2e43b6,Spanish,13 or older,"no, only English or Spanish",no,2025-07-24_10h47.23.612,empathy_intonation_perc_control,2024.2.4,MacIntel,58.13953488,5f24b0fc546c5a0c3c2e43b6,68817205a84113384fffdfe3,68824758d8a9b8b49359fdfe,,,,,,,,,,,,./stim/wavs/puertorican_mismatch_declarative-broad-focus_El-hombre-mira-la-luna.wav,0,,,209.9775,211.903,0,1,1.4142,,0,80,80,84,1,85,0,puertorican,,,,,,,,,,,,,,,,,,,,,,,,,,,,,,,,,,,,,,,,,,,,,,,,,,,,,,,,
,,,,,,,,,5f24b0fc546c5a0c3c2e43b6,Spanish,13 or older,"no, only English or Spanish",no,2025-07-24_10h47.23.612,empathy_intonation_perc_control,2024.2.4,MacIntel,58.13953488,5f24b0fc546c5a0c3c2e43b6,68817205a84113384fffdfe3,68824758d8a9b8b49359fdfe,,,,,,,,,,,,./stim/wavs/castilian_match_interrogative-total-yn_Mariano-habla-del-tiempo.wav,1,,,211.9037,214.2484,1,1,1.8303,,0,81,81,4,1,5,0,castilian,,,,,,,,,,,,,,,,,,,,,,,,,,,,,,,,,,,,,,,,,,,,,,,,,,,,,,,,
,,,,,,,,,5f24b0fc546c5a0c3c2e43b6,Spanish,13 or older,"no, only English or Spanish",no,2025-07-24_10h47.23.612,empathy_intonation_perc_control,2024.2.4,MacIntel,58.13953488,5f24b0fc546c5a0c3c2e43b6,68817205a84113384fffdfe3,68824758d8a9b8b49359fdfe,,,,,,,,,,,,./stim/wavs/castilian_match_declarative-broad-focus_Marta-abre-el-regalo.wav,0,,,214.2488,216.4595,0,1,1.6921,,0,82,82,49,1,50,0,castilian,,,,,,,,,,,,,,,,,,,,,,,,,,,,,,,,,,,,,,,,,,,,,,,,,,,,,,,,
,,,,,,,,,5f24b0fc546c5a0c3c2e43b6,Spanish,13 or older,"no, only English or Spanish",no,2025-07-24_10h47.23.612,empathy_intonation_perc_control,2024.2.4,MacIntel,58.13953488,5f24b0fc546c5a0c3c2e43b6,68817205a84113384fffdfe3,68824758d8a9b8b49359fdfe,,,,,,,,,,,,./stim/wavs/puertorican_match_declarative-broad-focus_Ana-lleva-el-abrigo.wav,0,,,216.46,218.2866,0,1,1.3063,,0,83,83,62,1,63,0,puertorican,,,,,,,,,,,,,,,,,,,,,,,,,,,,,,,,,,,,,,,,,,,,,,,,,,,,,,,,
,,,,,,,,,5f24b0fc546c5a0c3c2e43b6,Spanish,13 or older,"no, only English or Spanish",no,2025-07-24_10h47.23.612,empathy_intonation_perc_control,2024.2.4,MacIntel,58.13953488,5f24b0fc546c5a0c3c2e43b6,68817205a84113384fffdfe3,68824758d8a9b8b49359fdfe,,,,,,,,,,,,./stim/wavs/mexican_mismatch_interrogative-total-yn_La-maestra-vive-en-Paris.wav,1,,,218.2872,220.5135,1,1,1.7087,,0,84,84,36,1,37,0,mexican,,,,,,,,,,,,,,,,,,,,,,,,,,,,,,,,,,,,,,,,,,,,,,,,,,,,,,,,
,,,,,,,,,5f24b0fc546c5a0c3c2e43b6,Spanish,13 or older,"no, only English or Spanish",no,2025-07-24_10h47.23.612,empathy_intonation_perc_control,2024.2.4,MacIntel,58.13953488,5f24b0fc546c5a0c3c2e43b6,68817205a84113384fffdfe3,68824758d8a9b8b49359fdfe,,,,,,,,,,,,./stim/wavs/puertorican_match_declarative-broad-focus_Daniel-iba-a-Bolivia.wav,0,,,220.5141,222.4736,0,1,1.4443,,0,85,85,63,1,64,0,puertorican,,,,,,,,,,,,,,,,,,,,,,,,,,,,,,,,,,,,,,,,,,,,,,,,,,,,,,,,
,,,,,,,,,5f24b0fc546c5a0c3c2e43b6,Spanish,13 or older,"no, only English or Spanish",no,2025-07-24_10h47.23.612,empathy_intonation_perc_control,2024.2.4,MacIntel,58.13953488,5f24b0fc546c5a0c3c2e43b6,68817205a84113384fffdfe3,68824758d8a9b8b49359fdfe,,,,,,,,,,,,./stim/wavs/mexican_match_declarative-broad-focus_Emilio-ama-la-marcha.wav,0,,,222.4741,224.5847,0,1,1.5978,,0,86,86,59,1,60,0,mexican,,,,,,,,,,,,,,,,,,,,,,,,,,,,,,,,,,,,,,,,,,,,,,,,,,,,,,,,
,,,,,,,,,5f24b0fc546c5a0c3c2e43b6,Spanish,13 or older,"no, only English or Spanish",no,2025-07-24_10h47.23.612,empathy_intonation_perc_control,2024.2.4,MacIntel,58.13953488,5f24b0fc546c5a0c3c2e43b6,68817205a84113384fffdfe3,68824758d8a9b8b49359fdfe,,,,,,,,,,,,./stim/wavs/cuban_match_interrogative-total-yn_Marta-abre-el-regalo.wav,1,,,224.585,226.5286,0,0,1.4296,,0,87,87,11,1,12,1,cuban,,,,,,,,,,,,,,,,,,,,,,,,,,,,,,,,,,,,,,,,,,,,,,,,,,,,,,,,
,,,,,,,"Great! Now we will move on. The next task consists of about 60 trials, in each of which you will see a string of letters. 
  
  Your task is to decide whether this is a real Spanish word or not.", (press the spacebar to continue),5f24b0fc546c5a0c3c2e43b6,Spanish,13 or older,"no, only English or Spanish",no,2025-07-24_10h47.23.612,empathy_intonation_perc_control,2024.2.4,MacIntel,58.13953488,5f24b0fc546c5a0c3c2e43b6,68817205a84113384fffdfe3,68824758d8a9b8b49359fdfe,,,,,,,,,,,,,,,,,,,,,,,,,,,,,,226.5346,231.4203,0,0,0,0,1,,,,,,,,,,,,,,,,,,,,,,,,,,,,,,,,,,,,,,,,,,,,,,,,,
,,,,,,,"If you think it is an existing Spanish word, you type '1' (for 'REAL'), and if you think it is not an existing Spanish word, you type '0' (for 'FAKE').", (press the spacebar to continue),5f24b0fc546c5a0c3c2e43b6,Spanish,13 or older,"no, only English or Spanish",no,2025-07-24_10h47.23.612,empathy_intonation_perc_control,2024.2.4,MacIntel,58.13953488,5f24b0fc546c5a0c3c2e43b6,68817205a84113384fffdfe3,68824758d8a9b8b49359fdfe,,,,,,,,,,,,,,,,,,,,,,,,,,,,,,231.4331,234.1667,0,1,1,1,1,,,,,,,,,,,,,,,,,,,,,,,,,,,,,,,,,,,,,,,,,,,,,,,,,
,,,,,,,"If you are sure that the word exists, even though you don’t know its exact meaning, you may still respond '1' (REAL). 
  
  But if you are not sure if it is an existing word, you should respond '0' (FAKE).
  
  Let's do a practice round...", (press the spacebar to continue),5f24b0fc546c5a0c3c2e43b6,Spanish,13 or older,"no, only English or Spanish",no,2025-07-24_10h47.23.612,empathy_intonation_perc_control,2024.2.4,MacIntel,58.13953488,5f24b0fc546c5a0c3c2e43b6,68817205a84113384fffdfe3,68824758d8a9b8b49359fdfe,,,,,,,,,,,,,,,,,,,,,,,,,,,,,,234.1804,239.3434,0,2,2,2,1,,,,,,,,,,,,,,,,,,,,,,,,,,,,,,,,,,,,,,,,,,,,,,,,,
,,,,,,,,,5f24b0fc546c5a0c3c2e43b6,Spanish,13 or older,"no, only English or Spanish",no,2025-07-24_10h47.23.612,empathy_intonation_perc_control,2024.2.4,MacIntel,58.13953488,5f24b0fc546c5a0c3c2e43b6,68817205a84113384fffdfe3,68824758d8a9b8b49359fdfe,,,,,,,,,,,,,0,,,,,,,,,,,,,,,,,,,,,,,,239.3599,241.7563,1,0,1.8681,,241.7566,242.7446,0,0,0,0,1,0,depiste,REAL,FAKE,,,,,,,,,,,,,,,,,,,,,,,,,,,,,,,,
,,,,,,,,,5f24b0fc546c5a0c3c2e43b6,Spanish,13 or older,"no, only English or Spanish",no,2025-07-24_10h47.23.612,empathy_intonation_perc_control,2024.2.4,MacIntel,58.13953488,5f24b0fc546c5a0c3c2e43b6,68817205a84113384fffdfe3,68824758d8a9b8b49359fdfe,,,,,,,,,,,,,1,,,,,,,,,,,,,,,,,,,,,,,,242.7459,244.269,1,1,1.0047,,244.2696,245.2573,0,1,1,1,1,0,sí,REAL,FAKE,,,,,,,,,,,,,,,,,,,,,,,,,,,,,,,,
,,,,,,,,,5f24b0fc546c5a0c3c2e43b6,Spanish,13 or older,"no, only English or Spanish",no,2025-07-24_10h47.23.612,empathy_intonation_perc_control,2024.2.4,MacIntel,58.13953488,5f24b0fc546c5a0c3c2e43b6,68817205a84113384fffdfe3,68824758d8a9b8b49359fdfe,,,,,,,,,,,,,0,,,,,,,,,,,,,,,,,,,,,,,,245.2583,247.0998,1,0,1.3314,,247.1004,248.0886,0,2,2,2,1,0,coné,REAL,FAKE,,,,,,,,,,,,,,,,,,,,,,,,,,,,,,,,
,,,,,,,,,5f24b0fc546c5a0c3c2e43b6,Spanish,13 or older,"no, only English or Spanish",no,2025-07-24_10h47.23.612,empathy_intonation_perc_control,2024.2.4,MacIntel,58.13953488,5f24b0fc546c5a0c3c2e43b6,68817205a84113384fffdfe3,68824758d8a9b8b49359fdfe,,,,,,,,,,,,,0,,,,,,,,,,,,,,,,,,,,,,,,248.1006,249.8974,0,1,1.2732,,249.8979,250.8865,0,3,3,3,1,0,calpar,REAL,FAKE,,,,,,,,,,,,,,,,,,,,,,,,,,,,,,,,
,,,,,,,,,5f24b0fc546c5a0c3c2e43b6,Spanish,13 or older,"no, only English or Spanish",no,2025-07-24_10h47.23.612,empathy_intonation_perc_control,2024.2.4,MacIntel,58.13953488,5f24b0fc546c5a0c3c2e43b6,68817205a84113384fffdfe3,68824758d8a9b8b49359fdfe,,,,,,,,,,,,,0,,,,,,,,,,,,,,,,,,,,,,,,250.8876,252.1587,0,1,0.7623,,252.1587,253.147,0,4,4,4,1,0,joten,REAL,FAKE,,,,,,,,,,,,,,,,,,,,,,,,,,,,,,,,
,,,,,,,,,5f24b0fc546c5a0c3c2e43b6,Spanish,13 or older,"no, only English or Spanish",no,2025-07-24_10h47.23.612,empathy_intonation_perc_control,2024.2.4,MacIntel,58.13953488,5f24b0fc546c5a0c3c2e43b6,68817205a84113384fffdfe3,68824758d8a9b8b49359fdfe,,,,,,,,,,,,,1,,,,,,,,,,,,,,,,,,,,,,,,253.1479,254.5553,0,0,0.8897,,254.5561,255.56,0,5,5,5,1,0,sacapuntas,REAL,FAKE,,,,,,,,,,,,,,,,,,,,,,,,,,,,,,,,
,,,,,,,,,5f24b0fc546c5a0c3c2e43b6,Spanish,13 or older,"no, only English or Spanish",no,2025-07-24_10h47.23.612,empathy_intonation_perc_control,2024.2.4,MacIntel,58.13953488,5f24b0fc546c5a0c3c2e43b6,68817205a84113384fffdfe3,68824758d8a9b8b49359fdfe,,,,,,,,,,,,,0,,,,,,,,,,,,,,,,,,,,,,,,255.561,257.0172,1,0,0.9405,,257.0172,258.0059,0,6,6,6,1,0,priba,REAL,FAKE,,,,,,,,,,,,,,,,,,,,,,,,,,,,,,,,
,,,,,,,,,5f24b0fc546c5a0c3c2e43b6,Spanish,13 or older,"no, only English or Spanish",no,2025-07-24_10h47.23.612,empathy_intonation_perc_control,2024.2.4,MacIntel,58.13953488,5f24b0fc546c5a0c3c2e43b6,68817205a84113384fffdfe3,68824758d8a9b8b49359fdfe,,,,,,,,,,,,,0,,,,,,,,,,,,,,,,,,,,,,,,258.0069,259.9487,1,0,1.4228,,259.9487,260.9374,0,7,7,7,1,0,pelasula,REAL,FAKE,,,,,,,,,,,,,,,,,,,,,,,,,,,,,,,,
,,,,,,,,,5f24b0fc546c5a0c3c2e43b6,Spanish,13 or older,"no, only English or Spanish",no,2025-07-24_10h47.23.612,empathy_intonation_perc_control,2024.2.4,MacIntel,58.13953488,5f24b0fc546c5a0c3c2e43b6,68817205a84113384fffdfe3,68824758d8a9b8b49359fdfe,,,,,,,,,,,,,1,,,,,,,,,,,,,,,,,,,,,,,,260.9383,262.362,1,1,0.9077,,262.3626,263.3501,0,8,8,8,1,0,bien,REAL,FAKE,,,,,,,,,,,,,,,,,,,,,,,,,,,,,,,,
,,,,,,,,,5f24b0fc546c5a0c3c2e43b6,Spanish,13 or older,"no, only English or Spanish",no,2025-07-24_10h47.23.612,empathy_intonation_perc_control,2024.2.4,MacIntel,58.13953488,5f24b0fc546c5a0c3c2e43b6,68817205a84113384fffdfe3,68824758d8a9b8b49359fdfe,,,,,,,,,,,,,1,,,,,,,,,,,,,,,,,,,,,,,,263.3511,264.7899,1,1,0.9226,,264.79,265.7788,0,9,9,9,1,0,casa,REAL,FAKE,,,,,,,,,,,,,,,,,,,,,,,,,,,,,,,,
,,,,,,,,,5f24b0fc546c5a0c3c2e43b6,Spanish,13 or older,"no, only English or Spanish",no,2025-07-24_10h47.23.612,empathy_intonation_perc_control,2024.2.4,MacIntel,58.13953488,5f24b0fc546c5a0c3c2e43b6,68817205a84113384fffdfe3,68824758d8a9b8b49359fdfe,,,,,,,,,,,,,0,,,,,,,,,,,,,,,,,,,,,,,,265.7795,267.37,1,0,1.0748,,267.3707,268.3585,0,10,10,10,1,0,lejo,REAL,FAKE,,,,,,,,,,,,,,,,,,,,,,,,,,,,,,,,
,,,,,,,,,5f24b0fc546c5a0c3c2e43b6,Spanish,13 or older,"no, only English or Spanish",no,2025-07-24_10h47.23.612,empathy_intonation_perc_control,2024.2.4,MacIntel,58.13953488,5f24b0fc546c5a0c3c2e43b6,68817205a84113384fffdfe3,68824758d8a9b8b49359fdfe,,,,,,,,,,,,,0,,,,,,,,,,,,,,,,,,,,,,,,268.3711,270.0003,0,1,1.1094,,270.0009,270.9892,0,11,11,11,1,0,pretantas,REAL,FAKE,,,,,,,,,,,,,,,,,,,,,,,,,,,,,,,,
,,,,,,,,,5f24b0fc546c5a0c3c2e43b6,Spanish,13 or older,"no, only English or Spanish",no,2025-07-24_10h47.23.612,empathy_intonation_perc_control,2024.2.4,MacIntel,58.13953488,5f24b0fc546c5a0c3c2e43b6,68817205a84113384fffdfe3,68824758d8a9b8b49359fdfe,,,,,,,,,,,,,,,,,,,,,,,,,,,,,,,,,,,,,,,,,,,,,,,,,,,,,,270.9899,272.2284,,,,,,,,,,,,,,,,,,,,,,,,,,,,,,
,,,,,,,,,5f24b0fc546c5a0c3c2e43b6,Spanish,13 or older,"no, only English or Spanish",no,2025-07-24_10h47.23.612,empathy_intonation_perc_control,2024.2.4,MacIntel,58.13953488,5f24b0fc546c5a0c3c2e43b6,68817205a84113384fffdfe3,68824758d8a9b8b49359fdfe,,,,,,,,,,,,,0,,,,,,,,,,,,,,,,,,,,,,,,,,,,,,,,,,,,,92,click the 0 key.,,,,,272.2497,274.205,0,1,1.4317,,0,0,0,91,1,REAL,FAKE,,,,,,,,,,,,,,,,,
,,,,,,,,,5f24b0fc546c5a0c3c2e43b6,Spanish,13 or older,"no, only English or Spanish",no,2025-07-24_10h47.23.612,empathy_intonation_perc_control,2024.2.4,MacIntel,58.13953488,5f24b0fc546c5a0c3c2e43b6,68817205a84113384fffdfe3,68824758d8a9b8b49359fdfe,,,,,,,,,,,,,1,,,,,,,,,,,,,,,,,,,,,,,,,,,,,,,,,,,,,73,hervidor,,,,,274.206,275.8134,0,0,1.0932,,0,1,1,72,1,REAL,FAKE,,,,,,,,,,,,,,,,,
,,,,,,,,,5f24b0fc546c5a0c3c2e43b6,Spanish,13 or older,"no, only English or Spanish",no,2025-07-24_10h47.23.612,empathy_intonation_perc_control,2024.2.4,MacIntel,58.13953488,5f24b0fc546c5a0c3c2e43b6,68817205a84113384fffdfe3,68824758d8a9b8b49359fdfe,,,,,,,,,,,,,1,,,,,,,,,,,,,,,,,,,,,,,,,,,,,,,,,,,,,68,alegre,,,,,275.8143,277.2037,0,0,0.878,,0,2,2,67,1,REAL,FAKE,,,,,,,,,,,,,,,,,
,,,,,,,,,5f24b0fc546c5a0c3c2e43b6,Spanish,13 or older,"no, only English or Spanish",no,2025-07-24_10h47.23.612,empathy_intonation_perc_control,2024.2.4,MacIntel,58.13953488,5f24b0fc546c5a0c3c2e43b6,68817205a84113384fffdfe3,68824758d8a9b8b49359fdfe,,,,,,,,,,,,,0,,,,,,,,,,,,,,,,,,,,,,,,,,,,,,,,,,,,,17,floroso,,,,,277.2046,278.9463,0,1,1.2285,,0,3,3,16,1,REAL,FAKE,,,,,,,,,,,,,,,,,
,,,,,,,,,5f24b0fc546c5a0c3c2e43b6,Spanish,13 or older,"no, only English or Spanish",no,2025-07-24_10h47.23.612,empathy_intonation_perc_control,2024.2.4,MacIntel,58.13953488,5f24b0fc546c5a0c3c2e43b6,68817205a84113384fffdfe3,68824758d8a9b8b49359fdfe,,,,,,,,,,,,,0,,,,,,,,,,,,,,,,,,,,,,,,,,,,,,,,,,,,,42,cadallo,,,,,278.9472,280.2198,1,0,0.7628,,0,4,4,41,1,REAL,FAKE,,,,,,,,,,,,,,,,,
,,,,,,,,,5f24b0fc546c5a0c3c2e43b6,Spanish,13 or older,"no, only English or Spanish",no,2025-07-24_10h47.23.612,empathy_intonation_perc_control,2024.2.4,MacIntel,58.13953488,5f24b0fc546c5a0c3c2e43b6,68817205a84113384fffdfe3,68824758d8a9b8b49359fdfe,,,,,,,,,,,,,0,,,,,,,,,,,,,,,,,,,,,,,,,,,,,,,,,,,,,1,terzo,,,,,280.2208,281.9665,0,1,1.2241,,0,5,5,0,1,REAL,FAKE,,,,,,,,,,,,,,,,,
,,,,,,,,,5f24b0fc546c5a0c3c2e43b6,Spanish,13 or older,"no, only English or Spanish",no,2025-07-24_10h47.23.612,empathy_intonation_perc_control,2024.2.4,MacIntel,58.13953488,5f24b0fc546c5a0c3c2e43b6,68817205a84113384fffdfe3,68824758d8a9b8b49359fdfe,,,,,,,,,,,,,1,,,,,,,,,,,,,,,,,,,,,,,,,,,,,,,,,,,,,28,merodear,,,,,281.9673,284.1565,0,0,1.6568,,0,6,6,27,1,REAL,FAKE,,,,,,,,,,,,,,,,,
,,,,,,,,,5f24b0fc546c5a0c3c2e43b6,Spanish,13 or older,"no, only English or Spanish",no,2025-07-24_10h47.23.612,empathy_intonation_perc_control,2024.2.4,MacIntel,58.13953488,5f24b0fc546c5a0c3c2e43b6,68817205a84113384fffdfe3,68824758d8a9b8b49359fdfe,,,,,,,,,,,,,1,,,,,,,,,,,,,,,,,,,,,,,,,,,,,,,,,,,,,37,granuja,,,,,284.1573,285.6467,1,1,0.9699,,0,7,7,36,1,REAL,FAKE,,,,,,,,,,,,,,,,,
,,,,,,,,,5f24b0fc546c5a0c3c2e43b6,Spanish,13 or older,"no, only English or Spanish",no,2025-07-24_10h47.23.612,empathy_intonation_perc_control,2024.2.4,MacIntel,58.13953488,5f24b0fc546c5a0c3c2e43b6,68817205a84113384fffdfe3,68824758d8a9b8b49359fdfe,,,,,,,,,,,,,0,,,,,,,,,,,,,,,,,,,,,,,,,,,,,,,,,,,,,35,rompido,,,,,285.6476,287.0708,1,0,0.9119,,0,8,8,34,1,REAL,FAKE,,,,,,,,,,,,,,,,,
,,,,,,,,,5f24b0fc546c5a0c3c2e43b6,Spanish,13 or older,"no, only English or Spanish",no,2025-07-24_10h47.23.612,empathy_intonation_perc_control,2024.2.4,MacIntel,58.13953488,5f24b0fc546c5a0c3c2e43b6,68817205a84113384fffdfe3,68824758d8a9b8b49359fdfe,,,,,,,,,,,,,1,,,,,,,,,,,,,,,,,,,,,,,,,,,,,,,,,,,,,56,musgo,,,,,287.0716,288.3275,0,0,0.7368,,0,9,9,55,1,REAL,FAKE,,,,,,,,,,,,,,,,,
,,,,,,,,,5f24b0fc546c5a0c3c2e43b6,Spanish,13 or older,"no, only English or Spanish",no,2025-07-24_10h47.23.612,empathy_intonation_perc_control,2024.2.4,MacIntel,58.13953488,5f24b0fc546c5a0c3c2e43b6,68817205a84113384fffdfe3,68824758d8a9b8b49359fdfe,,,,,,,,,,,,,0,,,,,,,,,,,,,,,,,,,,,,,,,,,,,,,,,,,,,82,empirador,,,,,288.3283,289.8347,1,0,0.9885,,0,10,10,81,1,REAL,FAKE,,,,,,,,,,,,,,,,,
,,,,,,,,,5f24b0fc546c5a0c3c2e43b6,Spanish,13 or older,"no, only English or Spanish",no,2025-07-24_10h47.23.612,empathy_intonation_perc_control,2024.2.4,MacIntel,58.13953488,5f24b0fc546c5a0c3c2e43b6,68817205a84113384fffdfe3,68824758d8a9b8b49359fdfe,,,,,,,,,,,,,1,,,,,,,,,,,,,,,,,,,,,,,,,,,,,,,,,,,,,64,orgulloso,,,,,289.8355,291.0247,0,0,0.6684,,0,11,11,63,1,REAL,FAKE,,,,,,,,,,,,,,,,,
,,,,,,,,,5f24b0fc546c5a0c3c2e43b6,Spanish,13 or older,"no, only English or Spanish",no,2025-07-24_10h47.23.612,empathy_intonation_perc_control,2024.2.4,MacIntel,58.13953488,5f24b0fc546c5a0c3c2e43b6,68817205a84113384fffdfe3,68824758d8a9b8b49359fdfe,,,,,,,,,,,,,1,,,,,,,,,,,,,,,,,,,,,,,,,,,,,,,,,,,,,36,loro,,,,,291.0254,292.65,1,1,1.109,,0,12,12,35,1,REAL,FAKE,,,,,,,,,,,,,,,,,
,,,,,,,,,5f24b0fc546c5a0c3c2e43b6,Spanish,13 or older,"no, only English or Spanish",no,2025-07-24_10h47.23.612,empathy_intonation_perc_control,2024.2.4,MacIntel,58.13953488,5f24b0fc546c5a0c3c2e43b6,68817205a84113384fffdfe3,68824758d8a9b8b49359fdfe,,,,,,,,,,,,,1,,,,,,,,,,,,,,,,,,,,,,,,,,,,,,,,,,,,,15,regar,,,,,292.651,293.9729,0,0,0.8111,,0,13,13,14,1,REAL,FAKE,,,,,,,,,,,,,,,,,
,,,,,,,,,5f24b0fc546c5a0c3c2e43b6,Spanish,13 or older,"no, only English or Spanish",no,2025-07-24_10h47.23.612,empathy_intonation_perc_control,2024.2.4,MacIntel,58.13953488,5f24b0fc546c5a0c3c2e43b6,68817205a84113384fffdfe3,68824758d8a9b8b49359fdfe,,,,,,,,,,,,,0,,,,,,,,,,,,,,,,,,,,,,,,,,,,,,,,,,,,,58,plaudir,,,,,293.9737,295.1461,0,1,0.6502,,0,14,14,57,1,REAL,FAKE,,,,,,,,,,,,,,,,,
,,,,,,,,,5f24b0fc546c5a0c3c2e43b6,Spanish,13 or older,"no, only English or Spanish",no,2025-07-24_10h47.23.612,empathy_intonation_perc_control,2024.2.4,MacIntel,58.13953488,5f24b0fc546c5a0c3c2e43b6,68817205a84113384fffdfe3,68824758d8a9b8b49359fdfe,,,,,,,,,,,,,1,,,,,,,,,,,,,,,,,,,,,,,,,,,,,,,,,,,,,90,clavel,,,,,295.147,296.6206,0,0,0.9557,,0,15,15,89,1,REAL,FAKE,,,,,,,,,,,,,,,,,
,,,,,,,,,5f24b0fc546c5a0c3c2e43b6,Spanish,13 or older,"no, only English or Spanish",no,2025-07-24_10h47.23.612,empathy_intonation_perc_control,2024.2.4,MacIntel,58.13953488,5f24b0fc546c5a0c3c2e43b6,68817205a84113384fffdfe3,68824758d8a9b8b49359fdfe,,,,,,,,,,,,,1,,,,,,,,,,,,,,,,,,,,,,,,,,,,,,,,,,,,,55,nevar,,,,,296.6213,297.8934,0,0,0.7502,,0,16,16,54,1,REAL,FAKE,,,,,,,,,,,,,,,,,
,,,,,,,,,5f24b0fc546c5a0c3c2e43b6,Spanish,13 or older,"no, only English or Spanish",no,2025-07-24_10h47.23.612,empathy_intonation_perc_control,2024.2.4,MacIntel,58.13953488,5f24b0fc546c5a0c3c2e43b6,68817205a84113384fffdfe3,68824758d8a9b8b49359fdfe,,,,,,,,,,,,,0,,,,,,,,,,,,,,,,,,,,,,,,,,,,,,,,,,,,,70,temblo,,,,,297.8943,299.1495,1,0,0.7363,,0,17,17,69,1,REAL,FAKE,,,,,,,,,,,,,,,,,
,,,,,,,,,5f24b0fc546c5a0c3c2e43b6,Spanish,13 or older,"no, only English or Spanish",no,2025-07-24_10h47.23.612,empathy_intonation_perc_control,2024.2.4,MacIntel,58.13953488,5f24b0fc546c5a0c3c2e43b6,68817205a84113384fffdfe3,68824758d8a9b8b49359fdfe,,,,,,,,,,,,,1,,,,,,,,,,,,,,,,,,,,,,,,,,,,,,,,,,,,,5,zapato,,,,,299.1504,300.4393,0,0,0.775,,0,18,18,4,1,REAL,FAKE,,,,,,,,,,,,,,,,,
,,,,,,,,,5f24b0fc546c5a0c3c2e43b6,Spanish,13 or older,"no, only English or Spanish",no,2025-07-24_10h47.23.612,empathy_intonation_perc_control,2024.2.4,MacIntel,58.13953488,5f24b0fc546c5a0c3c2e43b6,68817205a84113384fffdfe3,68824758d8a9b8b49359fdfe,,,,,,,,,,,,,1,,,,,,,,,,,,,,,,,,,,,,,,,,,,,,,,,,,,,45,jilguero,,,,,300.4401,302.9198,0,0,1.9677,,0,19,19,44,1,REAL,FAKE,,,,,,,,,,,,,,,,,
,,,,,,,,,5f24b0fc546c5a0c3c2e43b6,Spanish,13 or older,"no, only English or Spanish",no,2025-07-24_10h47.23.612,empathy_intonation_perc_control,2024.2.4,MacIntel,58.13953488,5f24b0fc546c5a0c3c2e43b6,68817205a84113384fffdfe3,68824758d8a9b8b49359fdfe,,,,,,,,,,,,,0,,,,,,,,,,,,,,,,,,,,,,,,,,,,,,,,,,,,,18,arsa,,,,,302.9204,304.259,0,1,0.8216,,0,20,20,17,1,REAL,FAKE,,,,,,,,,,,,,,,,,
,,,,,,,,,5f24b0fc546c5a0c3c2e43b6,Spanish,13 or older,"no, only English or Spanish",no,2025-07-24_10h47.23.612,empathy_intonation_perc_control,2024.2.4,MacIntel,58.13953488,5f24b0fc546c5a0c3c2e43b6,68817205a84113384fffdfe3,68824758d8a9b8b49359fdfe,,,,,,,,,,,,,1,,,,,,,,,,,,,,,,,,,,,,,,,,,,,,,,,,,,,31,pandilla,,,,,304.2599,305.5662,1,1,0.7937,,0,21,21,30,1,REAL,FAKE,,,,,,,,,,,,,,,,,
,,,,,,,,,5f24b0fc546c5a0c3c2e43b6,Spanish,13 or older,"no, only English or Spanish",no,2025-07-24_10h47.23.612,empathy_intonation_perc_control,2024.2.4,MacIntel,58.13953488,5f24b0fc546c5a0c3c2e43b6,68817205a84113384fffdfe3,68824758d8a9b8b49359fdfe,,,,,,,,,,,,,0,,,,,,,,,,,,,,,,,,,,,,,,,,,,,,,,,,,,,33,pauca,,,,,305.5671,306.7214,1,0,0.6356,,0,22,22,32,1,REAL,FAKE,,,,,,,,,,,,,,,,,
,,,,,,,,,5f24b0fc546c5a0c3c2e43b6,Spanish,13 or older,"no, only English or Spanish",no,2025-07-24_10h47.23.612,empathy_intonation_perc_control,2024.2.4,MacIntel,58.13953488,5f24b0fc546c5a0c3c2e43b6,68817205a84113384fffdfe3,68824758d8a9b8b49359fdfe,,,,,,,,,,,,,1,,,,,,,,,,,,,,,,,,,,,,,,,,,,,,,,,,,,,81,pozo,,,,,306.7225,307.8436,0,0,0.6081,,0,23,23,80,1,REAL,FAKE,,,,,,,,,,,,,,,,,
,,,,,,,,,5f24b0fc546c5a0c3c2e43b6,Spanish,13 or older,"no, only English or Spanish",no,2025-07-24_10h47.23.612,empathy_intonation_perc_control,2024.2.4,MacIntel,58.13953488,5f24b0fc546c5a0c3c2e43b6,68817205a84113384fffdfe3,68824758d8a9b8b49359fdfe,,,,,,,,,,,,,0,,,,,,,,,,,,,,,,,,,,,,,,,,,,,,,,,,,,,8,cadeña,,,,,307.8446,309.1513,1,0,0.7929,,0,24,24,7,1,REAL,FAKE,,,,,,,,,,,,,,,,,
,,,,,,,,,5f24b0fc546c5a0c3c2e43b6,Spanish,13 or older,"no, only English or Spanish",no,2025-07-24_10h47.23.612,empathy_intonation_perc_control,2024.2.4,MacIntel,58.13953488,5f24b0fc546c5a0c3c2e43b6,68817205a84113384fffdfe3,68824758d8a9b8b49359fdfe,,,,,,,,,,,,,1,,,,,,,,,,,,,,,,,,,,,,,,,,,,,,,,,,,,,83,guante,,,,,309.1523,310.9262,1,1,1.2586,,0,25,25,82,1,REAL,FAKE,,,,,,,,,,,,,,,,,
,,,,,,,,,5f24b0fc546c5a0c3c2e43b6,Spanish,13 or older,"no, only English or Spanish",no,2025-07-24_10h47.23.612,empathy_intonation_perc_control,2024.2.4,MacIntel,58.13953488,5f24b0fc546c5a0c3c2e43b6,68817205a84113384fffdfe3,68824758d8a9b8b49359fdfe,,,,,,,,,,,,,1,,,,,,,,,,,,,,,,,,,,,,,,,,,,,,,,,,,,,62,flaco,,,,,310.9272,311.9827,0,0,0.5356,,0,26,26,61,1,REAL,FAKE,,,,,,,,,,,,,,,,,
,,,,,,,,,5f24b0fc546c5a0c3c2e43b6,Spanish,13 or older,"no, only English or Spanish",no,2025-07-24_10h47.23.612,empathy_intonation_perc_control,2024.2.4,MacIntel,58.13953488,5f24b0fc546c5a0c3c2e43b6,68817205a84113384fffdfe3,68824758d8a9b8b49359fdfe,,,,,,,,,,,,,1,,,,,,,,,,,,,,,,,,,,,,,,,,,,,,,,,,,,,39,torpe,,,,,311.9835,313.9582,0,0,1.4602,,0,27,27,38,1,REAL,FAKE,,,,,,,,,,,,,,,,,
,,,,,,,,,5f24b0fc546c5a0c3c2e43b6,Spanish,13 or older,"no, only English or Spanish",no,2025-07-24_10h47.23.612,empathy_intonation_perc_control,2024.2.4,MacIntel,58.13953488,5f24b0fc546c5a0c3c2e43b6,68817205a84113384fffdfe3,68824758d8a9b8b49359fdfe,,,,,,,,,,,,,0,,,,,,,,,,,,,,,,,,,,,,,,,,,,,,,,,,,,,79,tropaje,,,,,313.959,315.3498,1,0,0.8704,,0,28,28,78,1,REAL,FAKE,,,,,,,,,,,,,,,,,
,,,,,,,,,5f24b0fc546c5a0c3c2e43b6,Spanish,13 or older,"no, only English or Spanish",no,2025-07-24_10h47.23.612,empathy_intonation_perc_control,2024.2.4,MacIntel,58.13953488,5f24b0fc546c5a0c3c2e43b6,68817205a84113384fffdfe3,68824758d8a9b8b49359fdfe,,,,,,,,,,,,,1,,,,,,,,,,,,,,,,,,,,,,,,,,,,,,,,,,,,,67,cabello,,,,,315.3508,316.8901,1,1,1.0215,,0,29,29,66,1,REAL,FAKE,,,,,,,,,,,,,,,,,
,,,,,,,,,5f24b0fc546c5a0c3c2e43b6,Spanish,13 or older,"no, only English or Spanish",no,2025-07-24_10h47.23.612,empathy_intonation_perc_control,2024.2.4,MacIntel,58.13953488,5f24b0fc546c5a0c3c2e43b6,68817205a84113384fffdfe3,68824758d8a9b8b49359fdfe,,,,,,,,,,,,,1,,,,,,,,,,,,,,,,,,,,,,,,,,,,,,,,,,,,,3,pulmones,,,,,316.891,318.5988,0,0,1.1947,,0,30,30,2,1,REAL,FAKE,,,,,,,,,,,,,,,,,
,,,,,,,,,5f24b0fc546c5a0c3c2e43b6,Spanish,13 or older,"no, only English or Spanish",no,2025-07-24_10h47.23.612,empathy_intonation_perc_control,2024.2.4,MacIntel,58.13953488,5f24b0fc546c5a0c3c2e43b6,68817205a84113384fffdfe3,68824758d8a9b8b49359fdfe,,,,,,,,,,,,,1,,,,,,,,,,,,,,,,,,,,,,,,,,,,,,,,,,,,,44,cuchara,,,,,318.5997,320.1063,0,0,0.9871,,0,31,31,43,1,REAL,FAKE,,,,,,,,,,,,,,,,,
,,,,,,,,,5f24b0fc546c5a0c3c2e43b6,Spanish,13 or older,"no, only English or Spanish",no,2025-07-24_10h47.23.612,empathy_intonation_perc_control,2024.2.4,MacIntel,58.13953488,5f24b0fc546c5a0c3c2e43b6,68817205a84113384fffdfe3,68824758d8a9b8b49359fdfe,,,,,,,,,,,,,1,,,,,,,,,,,,,,,,,,,,,,,,,,,,,,,,,,,,,61,seda,,,,,320.1072,321.4467,1,1,0.8263,,0,32,32,60,1,REAL,FAKE,,,,,,,,,,,,,,,,,
,,,,,,,,,5f24b0fc546c5a0c3c2e43b6,Spanish,13 or older,"no, only English or Spanish",no,2025-07-24_10h47.23.612,empathy_intonation_perc_control,2024.2.4,MacIntel,58.13953488,5f24b0fc546c5a0c3c2e43b6,68817205a84113384fffdfe3,68824758d8a9b8b49359fdfe,,,,,,,,,,,,,1,,,,,,,,,,,,,,,,,,,,,,,,,,,,,,,,,,,,,20,ávido,,,,,321.4477,323.0391,1,1,1.0729,,0,33,33,19,1,REAL,FAKE,,,,,,,,,,,,,,,,,
,,,,,,,,,5f24b0fc546c5a0c3c2e43b6,Spanish,13 or older,"no, only English or Spanish",no,2025-07-24_10h47.23.612,empathy_intonation_perc_control,2024.2.4,MacIntel,58.13953488,5f24b0fc546c5a0c3c2e43b6,68817205a84113384fffdfe3,68824758d8a9b8b49359fdfe,,,,,,,,,,,,,1,,,,,,,,,,,,,,,,,,,,,,,,,,,,,,,,,,,,,48,ladrón,,,,,323.0401,324.2954,0,0,0.7355,,0,34,34,47,1,REAL,FAKE,,,,,,,,,,,,,,,,,
,,,,,,,,,5f24b0fc546c5a0c3c2e43b6,Spanish,13 or older,"no, only English or Spanish",no,2025-07-24_10h47.23.612,empathy_intonation_perc_control,2024.2.4,MacIntel,58.13953488,5f24b0fc546c5a0c3c2e43b6,68817205a84113384fffdfe3,68824758d8a9b8b49359fdfe,,,,,,,,,,,,,0,,,,,,,,,,,,,,,,,,,,,,,,,,,,,,,,,,,,,29,decar,,,,,324.2965,326.1375,1,0,1.3229,,0,35,35,28,1,REAL,FAKE,,,,,,,,,,,,,,,,,
,,,,,,,,,5f24b0fc546c5a0c3c2e43b6,Spanish,13 or older,"no, only English or Spanish",no,2025-07-24_10h47.23.612,empathy_intonation_perc_control,2024.2.4,MacIntel,58.13953488,5f24b0fc546c5a0c3c2e43b6,68817205a84113384fffdfe3,68824758d8a9b8b49359fdfe,,,,,,,,,,,,,0,,,,,,,,,,,,,,,,,,,,,,,,,,,,,,,,,,,,,27,acutación,,,,,326.1384,327.511,0,1,0.8605,,0,36,36,26,1,REAL,FAKE,,,,,,,,,,,,,,,,,
,,,,,,,,,5f24b0fc546c5a0c3c2e43b6,Spanish,13 or older,"no, only English or Spanish",no,2025-07-24_10h47.23.612,empathy_intonation_perc_control,2024.2.4,MacIntel,58.13953488,5f24b0fc546c5a0c3c2e43b6,68817205a84113384fffdfe3,68824758d8a9b8b49359fdfe,,,,,,,,,,,,,0,,,,,,,,,,,,,,,,,,,,,,,,,,,,,,,,,,,,,4,batillón,,,,,327.5121,329.0531,1,0,1.0218,,0,37,37,3,1,REAL,FAKE,,,,,,,,,,,,,,,,,
,,,,,,,,,5f24b0fc546c5a0c3c2e43b6,Spanish,13 or older,"no, only English or Spanish",no,2025-07-24_10h47.23.612,empathy_intonation_perc_control,2024.2.4,MacIntel,58.13953488,5f24b0fc546c5a0c3c2e43b6,68817205a84113384fffdfe3,68824758d8a9b8b49359fdfe,,,,,,,,,,,,,1,,,,,,,,,,,,,,,,,,,,,,,,,,,,,,,,,,,,,85,laúd,,,,,329.054,330.5265,1,1,0.9548,,0,38,38,84,1,REAL,FAKE,,,,,,,,,,,,,,,,,
,,,,,,,,,5f24b0fc546c5a0c3c2e43b6,Spanish,13 or older,"no, only English or Spanish",no,2025-07-24_10h47.23.612,empathy_intonation_perc_control,2024.2.4,MacIntel,58.13953488,5f24b0fc546c5a0c3c2e43b6,68817205a84113384fffdfe3,68824758d8a9b8b49359fdfe,,,,,,,,,,,,,1,,,,,,,,,,,,,,,,,,,,,,,,,,,,,,,,,,,,,11,cenefa,,,,,330.5272,331.7498,0,0,0.7104,,0,39,39,10,1,REAL,FAKE,,,,,,,,,,,,,,,,,
,,,,,,,,,5f24b0fc546c5a0c3c2e43b6,Spanish,13 or older,"no, only English or Spanish",no,2025-07-24_10h47.23.612,empathy_intonation_perc_control,2024.2.4,MacIntel,58.13953488,5f24b0fc546c5a0c3c2e43b6,68817205a84113384fffdfe3,68824758d8a9b8b49359fdfe,,,,,,,,,,,,,1,,,,,,,,,,,,,,,,,,,,,,,,,,,,,,,,,,,,,59,besar,,,,,331.7507,333.2071,1,1,0.9441,,0,40,40,58,1,REAL,FAKE,,,,,,,,,,,,,,,,,
,,,,,,,,,5f24b0fc546c5a0c3c2e43b6,Spanish,13 or older,"no, only English or Spanish",no,2025-07-24_10h47.23.612,empathy_intonation_perc_control,2024.2.4,MacIntel,58.13953488,5f24b0fc546c5a0c3c2e43b6,68817205a84113384fffdfe3,68824758d8a9b8b49359fdfe,,,,,,,,,,,,,0,,,,,,,,,,,,,,,,,,,,,,,,,,,,,,,,,,,,,74,cintro,,,,,333.208,334.4807,1,0,0.7601,,0,41,41,73,1,REAL,FAKE,,,,,,,,,,,,,,,,,
,,,,,,,,,5f24b0fc546c5a0c3c2e43b6,Spanish,13 or older,"no, only English or Spanish",no,2025-07-24_10h47.23.612,empathy_intonation_perc_control,2024.2.4,MacIntel,58.13953488,5f24b0fc546c5a0c3c2e43b6,68817205a84113384fffdfe3,68824758d8a9b8b49359fdfe,,,,,,,,,,,,,1,,,,,,,,,,,,,,,,,,,,,,,,,,,,,,,,,,,,,25,bisagra,,,,,334.4816,335.7197,0,0,0.7242,,0,42,42,24,1,REAL,FAKE,,,,,,,,,,,,,,,,,
,,,,,,,,,5f24b0fc546c5a0c3c2e43b6,Spanish,13 or older,"no, only English or Spanish",no,2025-07-24_10h47.23.612,empathy_intonation_perc_control,2024.2.4,MacIntel,58.13953488,5f24b0fc546c5a0c3c2e43b6,68817205a84113384fffdfe3,68824758d8a9b8b49359fdfe,,,,,,,,,,,,,1,,,,,,,,,,,,,,,,,,,,,,,,,,,,,,,,,,,,,75,yacer,,,,,335.7206,337.0934,0,0,0.8557,,0,43,43,74,1,REAL,FAKE,,,,,,,,,,,,,,,,,
,,,,,,,,,5f24b0fc546c5a0c3c2e43b6,Spanish,13 or older,"no, only English or Spanish",no,2025-07-24_10h47.23.612,empathy_intonation_perc_control,2024.2.4,MacIntel,58.13953488,5f24b0fc546c5a0c3c2e43b6,68817205a84113384fffdfe3,68824758d8a9b8b49359fdfe,,,,,,,,,,,,,1,,,,,,,,,,,,,,,,,,,,,,,,,,,,,,,,,,,,,46,martillo,,,,,337.0942,338.4844,1,1,0.8778,,0,44,44,45,1,REAL,FAKE,,,,,,,,,,,,,,,,,
,,,,,,,,,5f24b0fc546c5a0c3c2e43b6,Spanish,13 or older,"no, only English or Spanish",no,2025-07-24_10h47.23.612,empathy_intonation_perc_control,2024.2.4,MacIntel,58.13953488,5f24b0fc546c5a0c3c2e43b6,68817205a84113384fffdfe3,68824758d8a9b8b49359fdfe,,,,,,,,,,,,,1,,,,,,,,,,,,,,,,,,,,,,,,,,,,,,,,,,,,,88,acantilado,,,,,338.4853,339.7232,1,1,0.7246,,0,45,45,87,1,REAL,FAKE,,,,,,,,,,,,,,,,,
,,,,,,,,,5f24b0fc546c5a0c3c2e43b6,Spanish,13 or older,"no, only English or Spanish",no,2025-07-24_10h47.23.612,empathy_intonation_perc_control,2024.2.4,MacIntel,58.13953488,5f24b0fc546c5a0c3c2e43b6,68817205a84113384fffdfe3,68824758d8a9b8b49359fdfe,,,,,,,,,,,,,1,,,,,,,,,,,,,,,,,,,,,,,,,,,,,,,,,,,,,41,rebuscar,,,,,339.724,341.3486,0,0,1.1059,,0,46,46,40,1,REAL,FAKE,,,,,,,,,,,,,,,,,
,,,,,,,,,5f24b0fc546c5a0c3c2e43b6,Spanish,13 or older,"no, only English or Spanish",no,2025-07-24_10h47.23.612,empathy_intonation_perc_control,2024.2.4,MacIntel,58.13953488,5f24b0fc546c5a0c3c2e43b6,68817205a84113384fffdfe3,68824758d8a9b8b49359fdfe,,,,,,,,,,,,,1,,,,,,,,,,,,,,,,,,,,,,,,,,,,,,,,,,,,,34,aviso,,,,,341.3497,342.84,1,1,0.9704,,0,47,47,33,1,REAL,FAKE,,,,,,,,,,,,,,,,,
,,,,,,,,,5f24b0fc546c5a0c3c2e43b6,Spanish,13 or older,"no, only English or Spanish",no,2025-07-24_10h47.23.612,empathy_intonation_perc_control,2024.2.4,MacIntel,58.13953488,5f24b0fc546c5a0c3c2e43b6,68817205a84113384fffdfe3,68824758d8a9b8b49359fdfe,,,,,,,,,,,,,0,,,,,,,,,,,,,,,,,,,,,,,,,,,,,,,,,,,,,87,grodo,,,,,342.8408,344.0287,0,1,0.6697,,0,48,48,86,1,REAL,FAKE,,,,,,,,,,,,,,,,,
,,,,,,,,,5f24b0fc546c5a0c3c2e43b6,Spanish,13 or older,"no, only English or Spanish",no,2025-07-24_10h47.23.612,empathy_intonation_perc_control,2024.2.4,MacIntel,58.13953488,5f24b0fc546c5a0c3c2e43b6,68817205a84113384fffdfe3,68824758d8a9b8b49359fdfe,,,,,,,,,,,,,1,,,,,,,,,,,,,,,,,,,,,,,,,,,,,,,,,,,,,78,frondoso,,,,,344.0295,345.3026,0,0,0.7622,,0,49,49,77,1,REAL,FAKE,,,,,,,,,,,,,,,,,
,,,,,,,,,5f24b0fc546c5a0c3c2e43b6,Spanish,13 or older,"no, only English or Spanish",no,2025-07-24_10h47.23.612,empathy_intonation_perc_control,2024.2.4,MacIntel,58.13953488,5f24b0fc546c5a0c3c2e43b6,68817205a84113384fffdfe3,68824758d8a9b8b49359fdfe,,,,,,,,,,,,,1,,,,,,,,,,,,,,,,,,,,,,,,,,,,,,,,,,,,,52,camisa,,,,,345.3033,346.8264,0,0,1.0077,,0,50,50,51,1,REAL,FAKE,,,,,,,,,,,,,,,,,
,,,,,,,,,5f24b0fc546c5a0c3c2e43b6,Spanish,13 or older,"no, only English or Spanish",no,2025-07-24_10h47.23.612,empathy_intonation_perc_control,2024.2.4,MacIntel,58.13953488,5f24b0fc546c5a0c3c2e43b6,68817205a84113384fffdfe3,68824758d8a9b8b49359fdfe,,,,,,,,,,,,,1,,,,,,,,,,,,,,,,,,,,,,,,,,,,,,,,,,,,,2,pellizcar,,,,,346.8274,348.1336,0,0,0.7891,,0,51,51,1,1,REAL,FAKE,,,,,,,,,,,,,,,,,
,,,,,,,,,5f24b0fc546c5a0c3c2e43b6,Spanish,13 or older,"no, only English or Spanish",no,2025-07-24_10h47.23.612,empathy_intonation_perc_control,2024.2.4,MacIntel,58.13953488,5f24b0fc546c5a0c3c2e43b6,68817205a84113384fffdfe3,68824758d8a9b8b49359fdfe,,,,,,,,,,,,,0,,,,,,,,,,,,,,,,,,,,,,,,,,,,,,,,,,,,,10,antar,,,,,348.1345,349.3393,1,0,0.6889,,0,52,52,9,1,REAL,FAKE,,,,,,,,,,,,,,,,,
,,,,,,,,,5f24b0fc546c5a0c3c2e43b6,Spanish,13 or older,"no, only English or Spanish",no,2025-07-24_10h47.23.612,empathy_intonation_perc_control,2024.2.4,MacIntel,58.13953488,5f24b0fc546c5a0c3c2e43b6,68817205a84113384fffdfe3,68824758d8a9b8b49359fdfe,,,,,,,,,,,,,0,,,,,,,,,,,,,,,,,,,,,,,,,,,,,,,,,,,,,63,esposante,,,,,349.3402,350.5118,1,0,0.6519,,0,53,53,62,1,REAL,FAKE,,,,,,,,,,,,,,,,,
,,,,,,,,,5f24b0fc546c5a0c3c2e43b6,Spanish,13 or older,"no, only English or Spanish",no,2025-07-24_10h47.23.612,empathy_intonation_perc_control,2024.2.4,MacIntel,58.13953488,5f24b0fc546c5a0c3c2e43b6,68817205a84113384fffdfe3,68824758d8a9b8b49359fdfe,,,,,,,,,,,,,1,,,,,,,,,,,,,,,,,,,,,,,,,,,,,,,,,,,,,43,canela,,,,,350.5128,351.7684,1,1,0.7407,,0,54,54,42,1,REAL,FAKE,,,,,,,,,,,,,,,,,
,,,,,,,,,5f24b0fc546c5a0c3c2e43b6,Spanish,13 or older,"no, only English or Spanish",no,2025-07-24_10h47.23.612,empathy_intonation_perc_control,2024.2.4,MacIntel,58.13953488,5f24b0fc546c5a0c3c2e43b6,68817205a84113384fffdfe3,68824758d8a9b8b49359fdfe,,,,,,,,,,,,,1,,,,,,,,,,,,,,,,,,,,,,,,,,,,,,,,,,,,,65,bizcocho,,,,,351.7694,353.0755,0,0,0.7884,,0,55,55,64,1,REAL,FAKE,,,,,,,,,,,,,,,,,
,,,,,,,,,5f24b0fc546c5a0c3c2e43b6,Spanish,13 or older,"no, only English or Spanish",no,2025-07-24_10h47.23.612,empathy_intonation_perc_control,2024.2.4,MacIntel,58.13953488,5f24b0fc546c5a0c3c2e43b6,68817205a84113384fffdfe3,68824758d8a9b8b49359fdfe,,,,,,,,,,,,,1,,,,,,,,,,,,,,,,,,,,,,,,,,,,,,,,,,,,,91,click the 1 key.,,,,,353.0766,354.7,1,1,1.1052,,0,56,56,90,1,REAL,FAKE,,,,,,,,,,,,,,,,,
,,,,,,,,,5f24b0fc546c5a0c3c2e43b6,Spanish,13 or older,"no, only English or Spanish",no,2025-07-24_10h47.23.612,empathy_intonation_perc_control,2024.2.4,MacIntel,58.13953488,5f24b0fc546c5a0c3c2e43b6,68817205a84113384fffdfe3,68824758d8a9b8b49359fdfe,,,,,,,,,,,,,1,,,,,,,,,,,,,,,,,,,,,,,,,,,,,,,,,,,,,26,secuestro,,,,,354.7009,356.2925,0,0,1.0811,,0,57,57,25,1,REAL,FAKE,,,,,,,,,,,,,,,,,
,,,,,,,,,5f24b0fc546c5a0c3c2e43b6,Spanish,13 or older,"no, only English or Spanish",no,2025-07-24_10h47.23.612,empathy_intonation_perc_control,2024.2.4,MacIntel,58.13953488,5f24b0fc546c5a0c3c2e43b6,68817205a84113384fffdfe3,68824758d8a9b8b49359fdfe,,,,,,,,,,,,,1,,,,,,,,,,,,,,,,,,,,,,,,,,,,,,,,,,,,,38,estornudar,,,,,356.2933,357.4976,0,0,0.6843,,0,58,58,37,1,REAL,FAKE,,,,,,,,,,,,,,,,,
,,,,,,,,,5f24b0fc546c5a0c3c2e43b6,Spanish,13 or older,"no, only English or Spanish",no,2025-07-24_10h47.23.612,empathy_intonation_perc_control,2024.2.4,MacIntel,58.13953488,5f24b0fc546c5a0c3c2e43b6,68817205a84113384fffdfe3,68824758d8a9b8b49359fdfe,,,,,,,,,,,,,1,,,,,,,,,,,,,,,,,,,,,,,,,,,,,,,,,,,,,9,hacha,,,,,357.4984,358.6041,0,0,0.5867,,0,59,59,8,1,REAL,FAKE,,,,,,,,,,,,,,,,,
,,,,,,,,,5f24b0fc546c5a0c3c2e43b6,Spanish,13 or older,"no, only English or Spanish",no,2025-07-24_10h47.23.612,empathy_intonation_perc_control,2024.2.4,MacIntel,58.13953488,5f24b0fc546c5a0c3c2e43b6,68817205a84113384fffdfe3,68824758d8a9b8b49359fdfe,,,,,,,,,,,,,1,,,,,,,,,,,,,,,,,,,,,,,,,,,,,,,,,,,,,86,barato,,,,,358.6049,359.7433,0,0,0.6193,,0,60,60,85,1,REAL,FAKE,,,,,,,,,,,,,,,,,
,,,,,,,,,5f24b0fc546c5a0c3c2e43b6,Spanish,13 or older,"no, only English or Spanish",no,2025-07-24_10h47.23.612,empathy_intonation_perc_control,2024.2.4,MacIntel,58.13953488,5f24b0fc546c5a0c3c2e43b6,68817205a84113384fffdfe3,68824758d8a9b8b49359fdfe,,,,,,,,,,,,,0,,,,,,,,,,,,,,,,,,,,,,,,,,,,,,,,,,,,,84,escuto,,,,,359.7461,360.7984,1,0,0.5347,,0,61,61,83,1,REAL,FAKE,,,,,,,,,,,,,,,,,
,,,,,,,,,5f24b0fc546c5a0c3c2e43b6,Spanish,13 or older,"no, only English or Spanish",no,2025-07-24_10h47.23.612,empathy_intonation_perc_control,2024.2.4,MacIntel,58.13953488,5f24b0fc546c5a0c3c2e43b6,68817205a84113384fffdfe3,68824758d8a9b8b49359fdfe,,,,,,,,,,,,,1,,,,,,,,,,,,,,,,,,,,,,,,,,,,,,,,,,,,,6,tergiversar,,,,,360.7994,361.9538,0,0,0.6399,,0,62,62,5,1,REAL,FAKE,,,,,,,,,,,,,,,,,
,,,,,,,,,5f24b0fc546c5a0c3c2e43b6,Spanish,13 or older,"no, only English or Spanish",no,2025-07-24_10h47.23.612,empathy_intonation_perc_control,2024.2.4,MacIntel,58.13953488,5f24b0fc546c5a0c3c2e43b6,68817205a84113384fffdfe3,68824758d8a9b8b49359fdfe,,,,,,,,,,,,,1,,,,,,,,,,,,,,,,,,,,,,,,,,,,,,,,,,,,,76,atar,,,,,361.9547,363.1265,1,1,0.6587,,0,63,63,75,1,REAL,FAKE,,,,,,,,,,,,,,,,,
,,,,,,,,,5f24b0fc546c5a0c3c2e43b6,Spanish,13 or older,"no, only English or Spanish",no,2025-07-24_10h47.23.612,empathy_intonation_perc_control,2024.2.4,MacIntel,58.13953488,5f24b0fc546c5a0c3c2e43b6,68817205a84113384fffdfe3,68824758d8a9b8b49359fdfe,,,,,,,,,,,,,1,,,,,,,,,,,,,,,,,,,,,,,,,,,,,,,,,,,,,69,engatusar,,,,,363.1275,364.2989,0,0,0.6552,,0,64,64,68,1,REAL,FAKE,,,,,,,,,,,,,,,,,
,,,,,,,,,5f24b0fc546c5a0c3c2e43b6,Spanish,13 or older,"no, only English or Spanish",no,2025-07-24_10h47.23.612,empathy_intonation_perc_control,2024.2.4,MacIntel,58.13953488,5f24b0fc546c5a0c3c2e43b6,68817205a84113384fffdfe3,68824758d8a9b8b49359fdfe,,,,,,,,,,,,,0,,,,,,,,,,,,,,,,,,,,,,,,,,,,,,,,,,,,,53,vegada,,,,,364.2998,366.058,0,1,1.2452,,0,65,65,52,1,REAL,FAKE,,,,,,,,,,,,,,,,,
,,,,,,,,,5f24b0fc546c5a0c3c2e43b6,Spanish,13 or older,"no, only English or Spanish",no,2025-07-24_10h47.23.612,empathy_intonation_perc_control,2024.2.4,MacIntel,58.13953488,5f24b0fc546c5a0c3c2e43b6,68817205a84113384fffdfe3,68824758d8a9b8b49359fdfe,,,,,,,,,,,,,1,,,,,,,,,,,,,,,,,,,,,,,,,,,,,,,,,,,,,60,matar,,,,,366.059,367.3311,1,1,0.7616,,0,66,66,59,1,REAL,FAKE,,,,,,,,,,,,,,,,,
,,,,,,,,,5f24b0fc546c5a0c3c2e43b6,Spanish,13 or older,"no, only English or Spanish",no,2025-07-24_10h47.23.612,empathy_intonation_perc_control,2024.2.4,MacIntel,58.13953488,5f24b0fc546c5a0c3c2e43b6,68817205a84113384fffdfe3,68824758d8a9b8b49359fdfe,,,,,,,,,,,,,0,,,,,,,,,,,,,,,,,,,,,,,,,,,,,,,,,,,,,50,flamida,,,,,367.332,368.5542,1,0,0.7063,,0,67,67,49,1,REAL,FAKE,,,,,,,,,,,,,,,,,
,,,,,,,,,5f24b0fc546c5a0c3c2e43b6,Spanish,13 or older,"no, only English or Spanish",no,2025-07-24_10h47.23.612,empathy_intonation_perc_control,2024.2.4,MacIntel,58.13953488,5f24b0fc546c5a0c3c2e43b6,68817205a84113384fffdfe3,68824758d8a9b8b49359fdfe,,,,,,,,,,,,,0,,,,,,,,,,,,,,,,,,,,,,,,,,,,,,,,,,,,,47,cartinar,,,,,368.5552,369.7773,0,1,0.7037,,0,68,68,46,1,REAL,FAKE,,,,,,,,,,,,,,,,,
,,,,,,,,,5f24b0fc546c5a0c3c2e43b6,Spanish,13 or older,"no, only English or Spanish",no,2025-07-24_10h47.23.612,empathy_intonation_perc_control,2024.2.4,MacIntel,58.13953488,5f24b0fc546c5a0c3c2e43b6,68817205a84113384fffdfe3,68824758d8a9b8b49359fdfe,,,,,,,,,,,,,0,,,,,,,,,,,,,,,,,,,,,,,,,,,,,,,,,,,,,66,hacido,,,,,369.7781,371.1344,0,1,0.8456,,0,69,69,65,1,REAL,FAKE,,,,,,,,,,,,,,,,,
,,,,,,,,,5f24b0fc546c5a0c3c2e43b6,Spanish,13 or older,"no, only English or Spanish",no,2025-07-24_10h47.23.612,empathy_intonation_perc_control,2024.2.4,MacIntel,58.13953488,5f24b0fc546c5a0c3c2e43b6,68817205a84113384fffdfe3,68824758d8a9b8b49359fdfe,,,,,,,,,,,,,0,,,,,,,,,,,,,,,,,,,,,,,,,,,,,,,,,,,,,23,lampera,,,,,371.1353,372.4408,0,1,0.7869,,0,70,70,22,1,REAL,FAKE,,,,,,,,,,,,,,,,,
,,,,,,,,,5f24b0fc546c5a0c3c2e43b6,Spanish,13 or older,"no, only English or Spanish",no,2025-07-24_10h47.23.612,empathy_intonation_perc_control,2024.2.4,MacIntel,58.13953488,5f24b0fc546c5a0c3c2e43b6,68817205a84113384fffdfe3,68824758d8a9b8b49359fdfe,,,,,,,,,,,,,1,,,,,,,,,,,,,,,,,,,,,,,,,,,,,,,,,,,,,49,ganar,,,,,372.4417,373.8148,0,0,0.8621,,0,71,71,48,1,REAL,FAKE,,,,,,,,,,,,,,,,,
,,,,,,,,,5f24b0fc546c5a0c3c2e43b6,Spanish,13 or older,"no, only English or Spanish",no,2025-07-24_10h47.23.612,empathy_intonation_perc_control,2024.2.4,MacIntel,58.13953488,5f24b0fc546c5a0c3c2e43b6,68817205a84113384fffdfe3,68824758d8a9b8b49359fdfe,,,,,,,,,,,,,1,,,,,,,,,,,,,,,,,,,,,,,,,,,,,,,,,,,,,12,asesinato,,,,,373.8157,374.8869,1,1,0.5506,,0,72,72,11,1,REAL,FAKE,,,,,,,,,,,,,,,,,
,,,,,,,,,5f24b0fc546c5a0c3c2e43b6,Spanish,13 or older,"no, only English or Spanish",no,2025-07-24_10h47.23.612,empathy_intonation_perc_control,2024.2.4,MacIntel,58.13953488,5f24b0fc546c5a0c3c2e43b6,68817205a84113384fffdfe3,68824758d8a9b8b49359fdfe,,,,,,,,,,,,,0,,,,,,,,,,,,,,,,,,,,,,,,,,,,,,,,,,,,,21,capillo,,,,,374.8879,376.1107,1,0,0.7069,,0,73,73,20,1,REAL,FAKE,,,,,,,,,,,,,,,,,
,,,,,,,,,5f24b0fc546c5a0c3c2e43b6,Spanish,13 or older,"no, only English or Spanish",no,2025-07-24_10h47.23.612,empathy_intonation_perc_control,2024.2.4,MacIntel,58.13953488,5f24b0fc546c5a0c3c2e43b6,68817205a84113384fffdfe3,68824758d8a9b8b49359fdfe,,,,,,,,,,,,,1,,,,,,,,,,,,,,,,,,,,,,,,,,,,,,,,,,,,,89,prisa,,,,,376.1116,377.266,0,0,0.6355,,0,74,74,88,1,REAL,FAKE,,,,,,,,,,,,,,,,,
,,,,,,,,,5f24b0fc546c5a0c3c2e43b6,Spanish,13 or older,"no, only English or Spanish",no,2025-07-24_10h47.23.612,empathy_intonation_perc_control,2024.2.4,MacIntel,58.13953488,5f24b0fc546c5a0c3c2e43b6,68817205a84113384fffdfe3,68824758d8a9b8b49359fdfe,,,,,,,,,,,,,0,,,,,,,,,,,,,,,,,,,,,,,,,,,,,,,,,,,,,16,abracer,,,,,377.2668,378.5058,0,1,0.7186,,0,75,75,15,1,REAL,FAKE,,,,,,,,,,,,,,,,,
,,,,,,,,,5f24b0fc546c5a0c3c2e43b6,Spanish,13 or older,"no, only English or Spanish",no,2025-07-24_10h47.23.612,empathy_intonation_perc_control,2024.2.4,MacIntel,58.13953488,5f24b0fc546c5a0c3c2e43b6,68817205a84113384fffdfe3,68824758d8a9b8b49359fdfe,,,,,,,,,,,,,1,,,,,,,,,,,,,,,,,,,,,,,,,,,,,,,,,,,,,54,fomentar,,,,,378.5068,379.6944,0,0,0.6752,,0,76,76,53,1,REAL,FAKE,,,,,,,,,,,,,,,,,
,,,,,,,,,5f24b0fc546c5a0c3c2e43b6,Spanish,13 or older,"no, only English or Spanish",no,2025-07-24_10h47.23.612,empathy_intonation_perc_control,2024.2.4,MacIntel,58.13953488,5f24b0fc546c5a0c3c2e43b6,68817205a84113384fffdfe3,68824758d8a9b8b49359fdfe,,,,,,,,,,,,,0,,,,,,,,,,,,,,,,,,,,,,,,,,,,,,,,,,,,,72,pemición,,,,,379.6951,380.8837,1,0,0.6783,,0,77,77,71,1,REAL,FAKE,,,,,,,,,,,,,,,,,
,,,,,,,,,5f24b0fc546c5a0c3c2e43b6,Spanish,13 or older,"no, only English or Spanish",no,2025-07-24_10h47.23.612,empathy_intonation_perc_control,2024.2.4,MacIntel,58.13953488,5f24b0fc546c5a0c3c2e43b6,68817205a84113384fffdfe3,68824758d8a9b8b49359fdfe,,,,,,,,,,,,,1,,,,,,,,,,,,,,,,,,,,,,,,,,,,,,,,,,,,,22,lacayo,,,,,380.8846,382.041,0,0,0.6345,,0,78,78,21,1,REAL,FAKE,,,,,,,,,,,,,,,,,
,,,,,,,,,5f24b0fc546c5a0c3c2e43b6,Spanish,13 or older,"no, only English or Spanish",no,2025-07-24_10h47.23.612,empathy_intonation_perc_control,2024.2.4,MacIntel,58.13953488,5f24b0fc546c5a0c3c2e43b6,68817205a84113384fffdfe3,68824758d8a9b8b49359fdfe,,,,,,,,,,,,,1,,,,,,,,,,,,,,,,,,,,,,,,,,,,,,,,,,,,,77,tiburón,,,,,382.0418,383.8156,1,1,1.2609,,0,79,79,76,1,REAL,FAKE,,,,,,,,,,,,,,,,,
,,,,,,,,,5f24b0fc546c5a0c3c2e43b6,Spanish,13 or older,"no, only English or Spanish",no,2025-07-24_10h47.23.612,empathy_intonation_perc_control,2024.2.4,MacIntel,58.13953488,5f24b0fc546c5a0c3c2e43b6,68817205a84113384fffdfe3,68824758d8a9b8b49359fdfe,,,,,,,,,,,,,1,,,,,,,,,,,,,,,,,,,,,,,,,,,,,,,,,,,,,13,helar,,,,,383.8165,384.9714,0,0,0.6438,,0,80,80,12,1,REAL,FAKE,,,,,,,,,,,,,,,,,
,,,,,,,,,5f24b0fc546c5a0c3c2e43b6,Spanish,13 or older,"no, only English or Spanish",no,2025-07-24_10h47.23.612,empathy_intonation_perc_control,2024.2.4,MacIntel,58.13953488,5f24b0fc546c5a0c3c2e43b6,68817205a84113384fffdfe3,68824758d8a9b8b49359fdfe,,,,,,,,,,,,,1,,,,,,,,,,,,,,,,,,,,,,,,,,,,,,,,,,,,,71,polvoriento,,,,,384.9722,386.4967,0,0,1.0118,,0,81,81,70,1,REAL,FAKE,,,,,,,,,,,,,,,,,
,,,,,,,,,5f24b0fc546c5a0c3c2e43b6,Spanish,13 or older,"no, only English or Spanish",no,2025-07-24_10h47.23.612,empathy_intonation_perc_control,2024.2.4,MacIntel,58.13953488,5f24b0fc546c5a0c3c2e43b6,68817205a84113384fffdfe3,68824758d8a9b8b49359fdfe,,,,,,,,,,,,,1,,,,,,,,,,,,,,,,,,,,,,,,,,,,,,,,,,,,,57,tacaño,,,,,386.4975,387.937,0,0,0.9246,,0,82,82,56,1,REAL,FAKE,,,,,,,,,,,,,,,,,
,,,,,,,,,5f24b0fc546c5a0c3c2e43b6,Spanish,13 or older,"no, only English or Spanish",no,2025-07-24_10h47.23.612,empathy_intonation_perc_control,2024.2.4,MacIntel,58.13953488,5f24b0fc546c5a0c3c2e43b6,68817205a84113384fffdfe3,68824758d8a9b8b49359fdfe,,,,,,,,,,,,,1,,,,,,,,,,,,,,,,,,,,,,,,,,,,,,,,,,,,,24,látigo,,,,,387.9378,389.2601,0,0,0.8056,,0,83,83,23,1,REAL,FAKE,,,,,,,,,,,,,,,,,
,,,,,,,,,5f24b0fc546c5a0c3c2e43b6,Spanish,13 or older,"no, only English or Spanish",no,2025-07-24_10h47.23.612,empathy_intonation_perc_control,2024.2.4,MacIntel,58.13953488,5f24b0fc546c5a0c3c2e43b6,68817205a84113384fffdfe3,68824758d8a9b8b49359fdfe,,,,,,,,,,,,,0,,,,,,,,,,,,,,,,,,,,,,,,,,,,,,,,,,,,,19,brecedad,,,,,389.2611,390.4833,0,1,0.7113,,0,84,84,18,1,REAL,FAKE,,,,,,,,,,,,,,,,,
,,,,,,,,,5f24b0fc546c5a0c3c2e43b6,Spanish,13 or older,"no, only English or Spanish",no,2025-07-24_10h47.23.612,empathy_intonation_perc_control,2024.2.4,MacIntel,58.13953488,5f24b0fc546c5a0c3c2e43b6,68817205a84113384fffdfe3,68824758d8a9b8b49359fdfe,,,,,,,,,,,,,0,,,,,,,,,,,,,,,,,,,,,,,,,,,,,,,,,,,,,30,alardio,,,,,390.4843,391.6562,1,0,0.651,,0,85,85,29,1,REAL,FAKE,,,,,,,,,,,,,,,,,
,,,,,,,,,5f24b0fc546c5a0c3c2e43b6,Spanish,13 or older,"no, only English or Spanish",no,2025-07-24_10h47.23.612,empathy_intonation_perc_control,2024.2.4,MacIntel,58.13953488,5f24b0fc546c5a0c3c2e43b6,68817205a84113384fffdfe3,68824758d8a9b8b49359fdfe,,,,,,,,,,,,,1,,,,,,,,,,,,,,,,,,,,,,,,,,,,,,,,,,,,,14,yunque,,,,,391.657,392.8117,0,0,0.6446,,0,86,86,13,1,REAL,FAKE,,,,,,,,,,,,,,,,,
,,,,,,,,,5f24b0fc546c5a0c3c2e43b6,Spanish,13 or older,"no, only English or Spanish",no,2025-07-24_10h47.23.612,empathy_intonation_perc_control,2024.2.4,MacIntel,58.13953488,5f24b0fc546c5a0c3c2e43b6,68817205a84113384fffdfe3,68824758d8a9b8b49359fdfe,,,,,,,,,,,,,1,,,,,,,,,,,,,,,,,,,,,,,,,,,,,,,,,,,,,51,candado,,,,,392.8125,394.4871,0,0,1.1574,,0,87,87,50,1,REAL,FAKE,,,,,,,,,,,,,,,,,
,,,,,,,,,5f24b0fc546c5a0c3c2e43b6,Spanish,13 or older,"no, only English or Spanish",no,2025-07-24_10h47.23.612,empathy_intonation_perc_control,2024.2.4,MacIntel,58.13953488,5f24b0fc546c5a0c3c2e43b6,68817205a84113384fffdfe3,68824758d8a9b8b49359fdfe,,,,,,,,,,,,,1,,,,,,,,,,,,,,,,,,,,,,,,,,,,,,,,,,,,,40,alfombra,,,,,394.4881,396.0116,0,0,1.0038,,0,88,88,39,1,REAL,FAKE,,,,,,,,,,,,,,,,,
,,,,,,,,,5f24b0fc546c5a0c3c2e43b6,Spanish,13 or older,"no, only English or Spanish",no,2025-07-24_10h47.23.612,empathy_intonation_perc_control,2024.2.4,MacIntel,58.13953488,5f24b0fc546c5a0c3c2e43b6,68817205a84113384fffdfe3,68824758d8a9b8b49359fdfe,,,,,,,,,,,,,1,,,,,,,,,,,,,,,,,,,,,,,,,,,,,,,,,,,,,80,hormiga,,,,,396.0124,397.4185,0,0,0.8859,,0,89,89,79,1,REAL,FAKE,,,,,,,,,,,,,,,,,
,,,,,,,,,5f24b0fc546c5a0c3c2e43b6,Spanish,13 or older,"no, only English or Spanish",no,2025-07-24_10h47.23.612,empathy_intonation_perc_control,2024.2.4,MacIntel,58.13953488,5f24b0fc546c5a0c3c2e43b6,68817205a84113384fffdfe3,68824758d8a9b8b49359fdfe,,,,,,,,,,,,,0,,,,,,,,,,,,,,,,,,,,,,,,,,,,,,,,,,,,,32,fatacidad,,,,,397.4194,398.6587,0,1,0.7205,,0,90,90,31,1,REAL,FAKE,,,,,,,,,,,,,,,,,
,,,,,,,,,5f24b0fc546c5a0c3c2e43b6,Spanish,13 or older,"no, only English or Spanish",no,2025-07-24_10h47.23.612,empathy_intonation_perc_control,2024.2.4,MacIntel,58.13953488,5f24b0fc546c5a0c3c2e43b6,68817205a84113384fffdfe3,68824758d8a9b8b49359fdfe,,,,,,,,,,,,,1,,,,,,,,,,,,,,,,,,,,,,,,,,,,,,,,,,,,,7,pésimo,,,,,398.6595,399.7468,1,1,0.5677,,0,91,91,6,1,REAL,FAKE,,,,,,,,,,,,,,,,,
,,,,,,,,,5f24b0fc546c5a0c3c2e43b6,Spanish,13 or older,"no, only English or Spanish",no,2025-07-24_10h47.23.612,empathy_intonation_perc_control,2024.2.4,MacIntel,58.13953488,5f24b0fc546c5a0c3c2e43b6,68817205a84113384fffdfe3,68824758d8a9b8b49359fdfe,,,,,,,,,,,,,,,,,,,,,,,,,,,,,,,,,,,,,,,,,,,,,,,,,,,,,,,,,,,,,,,,,,,,,399.7476,404.405,,,,,,,,,,,,,,,
,,,,,,,,,5f24b0fc546c5a0c3c2e43b6,Spanish,13 or older,"no, only English or Spanish",no,2025-07-24_10h47.23.612,empathy_intonation_perc_control,2024.2.4,MacIntel,58.13953488,5f24b0fc546c5a0c3c2e43b6,68817205a84113384fffdfe3,68824758d8a9b8b49359fdfe,,,,,,,,,,,,,,,,,,,,,,,,,,,1,,,,,,,,,,,,,,,,,,,,,,,,,,,,,,,,,,,,,,,,,,,,404.4273,408.2079,slightly agree,0,0,0,0,1,I can easily tell if someone else wants to enter a conversation.,1,0,1,0,,
,,,,,,,,,5f24b0fc546c5a0c3c2e43b6,Spanish,13 or older,"no, only English or Spanish",no,2025-07-24_10h47.23.612,empathy_intonation_perc_control,2024.2.4,MacIntel,58.13953488,5f24b0fc546c5a0c3c2e43b6,68817205a84113384fffdfe3,68824758d8a9b8b49359fdfe,,,,,,,,,,,,,,,,,,,,,,,,,,,2,,,,,,,,,,,,,,,,,,,,,,,,,,,,,,,,,,,,,,,,,,,,408.2094,411.6081,slightly agree,0,1,1,1,1,I prefer animals to humans.,0,1,0,0,,
,,,,,,,,,5f24b0fc546c5a0c3c2e43b6,Spanish,13 or older,"no, only English or Spanish",no,2025-07-24_10h47.23.612,empathy_intonation_perc_control,2024.2.4,MacIntel,58.13953488,5f24b0fc546c5a0c3c2e43b6,68817205a84113384fffdfe3,68824758d8a9b8b49359fdfe,,,,,,,,,,,,,,,,,,,,,,,,,,,3,,,,,,,,,,,,,,,,,,,,,,,,,,,,,,,,,,,,,,,,,,,,411.6097,415.7647,strongly disagree,0,2,2,2,1,I try to keep up with the current trends and fashions.,0,1,0,0,,
,,,,,,,,,5f24b0fc546c5a0c3c2e43b6,Spanish,13 or older,"no, only English or Spanish",no,2025-07-24_10h47.23.612,empathy_intonation_perc_control,2024.2.4,MacIntel,58.13953488,5f24b0fc546c5a0c3c2e43b6,68817205a84113384fffdfe3,68824758d8a9b8b49359fdfe,,,,,,,,,,,,,,,,,,,,,,,,,,,4,,,,,,,,,,,,,,,,,,,,,,,,,,,,,,,,,,,,,,,,,,,,415.7663,420.8654,slightly agree,0,3,3,3,1,"I find it difficult to explain to others things that I understand easily,   when they don't understand it first time.",1,0,0,1,,
,,,,,,,,,5f24b0fc546c5a0c3c2e43b6,Spanish,13 or older,"no, only English or Spanish",no,2025-07-24_10h47.23.612,empathy_intonation_perc_control,2024.2.4,MacIntel,58.13953488,5f24b0fc546c5a0c3c2e43b6,68817205a84113384fffdfe3,68824758d8a9b8b49359fdfe,,,,,,,,,,,,,,,,,,,,,,,,,,,5,,,,,,,,,,,,,,,,,,,,,,,,,,,,,,,,,,,,,,,,,,,,420.8667,422.3301,slightly agree,0,4,4,4,1,I dream most nights.,0,1,0,0,,
,,,,,,,,,5f24b0fc546c5a0c3c2e43b6,Spanish,13 or older,"no, only English or Spanish",no,2025-07-24_10h47.23.612,empathy_intonation_perc_control,2024.2.4,MacIntel,58.13953488,5f24b0fc546c5a0c3c2e43b6,68817205a84113384fffdfe3,68824758d8a9b8b49359fdfe,,,,,,,,,,,,,,,,,,,,,,,,,,,6,,,,,,,,,,,,,,,,,,,,,,,,,,,,,,,,,,,,,,,,,,,,422.3312,423.8199,slightly agree,0,5,5,5,1,I really enjoy caring for other people.,1,0,1,0,,
,,,,,,,,,5f24b0fc546c5a0c3c2e43b6,Spanish,13 or older,"no, only English or Spanish",no,2025-07-24_10h47.23.612,empathy_intonation_perc_control,2024.2.4,MacIntel,58.13953488,5f24b0fc546c5a0c3c2e43b6,68817205a84113384fffdfe3,68824758d8a9b8b49359fdfe,,,,,,,,,,,,,,,,,,,,,,,,,,,7,,,,,,,,,,,,,,,,,,,,,,,,,,,,,,,,,,,,,,,,,,,,423.8215,426.406,strongly agree,0,6,6,6,1,I try to solve my own problems rather than discussing them with others.,0,1,0,0,,
,,,,,,,,,5f24b0fc546c5a0c3c2e43b6,Spanish,13 or older,"no, only English or Spanish",no,2025-07-24_10h47.23.612,empathy_intonation_perc_control,2024.2.4,MacIntel,58.13953488,5f24b0fc546c5a0c3c2e43b6,68817205a84113384fffdfe3,68824758d8a9b8b49359fdfe,,,,,,,,,,,,,,,,,,,,,,,,,,,8,,,,,,,,,,,,,,,,,,,,,,,,,,,,,,,,,,,,,,,,,,,,426.4071,430.144,strongly agree,0,7,7,7,1,I find it hard to know what to do in a social situation.,1,0,0,1,,
,,,,,,,,,5f24b0fc546c5a0c3c2e43b6,Spanish,13 or older,"no, only English or Spanish",no,2025-07-24_10h47.23.612,empathy_intonation_perc_control,2024.2.4,MacIntel,58.13953488,5f24b0fc546c5a0c3c2e43b6,68817205a84113384fffdfe3,68824758d8a9b8b49359fdfe,,,,,,,,,,,,,,,,,,,,,,,,,,,9,,,,,,,,,,,,,,,,,,,,,,,,,,,,,,,,,,,,,,,,,,,,430.1453,434.2601,slightly disagree,0,8,8,8,1,I am at my best first thing in the morning.,0,1,0,0,,
,,,,,,,,,5f24b0fc546c5a0c3c2e43b6,Spanish,13 or older,"no, only English or Spanish",no,2025-07-24_10h47.23.612,empathy_intonation_perc_control,2024.2.4,MacIntel,58.13953488,5f24b0fc546c5a0c3c2e43b6,68817205a84113384fffdfe3,68824758d8a9b8b49359fdfe,,,,,,,,,,,,,,,,,,,,,,,,,,,10,,,,,,,,,,,,,,,,,,,,,,,,,,,,,,,,,,,,,,,,,,,,434.2612,438.1499,slightly disagree,0,9,9,9,1,People often tell me that I went too far in driving my point home in a discussion.,1,0,0,1,,
,,,,,,,,,5f24b0fc546c5a0c3c2e43b6,Spanish,13 or older,"no, only English or Spanish",no,2025-07-24_10h47.23.612,empathy_intonation_perc_control,2024.2.4,MacIntel,58.13953488,5f24b0fc546c5a0c3c2e43b6,68817205a84113384fffdfe3,68824758d8a9b8b49359fdfe,,,,,,,,,,,,,,,,,,,,,,,,,,,11,,,,,,,,,,,,,,,,,,,,,,,,,,,,,,,,,,,,,,,,,,,,438.151,441.5109,slightly disagree,0,10,10,10,1,It doesn't bother me too much if I am late meeting a friend.,1,0,0,1,,
,,,,,,,,,5f24b0fc546c5a0c3c2e43b6,Spanish,13 or older,"no, only English or Spanish",no,2025-07-24_10h47.23.612,empathy_intonation_perc_control,2024.2.4,MacIntel,58.13953488,5f24b0fc546c5a0c3c2e43b6,68817205a84113384fffdfe3,68824758d8a9b8b49359fdfe,,,,,,,,,,,,,,,,,,,,,,,,,,,12,,,,,,,,,,,,,,,,,,,,,,,,,,,,,,,,,,,,,,,,,,,,441.5124,444.4126,slightly agree,0,11,11,11,1,"Friendships and relationships are just too difficult, so I tend not to 
  bother with them.",1,0,0,1,,
,,,,,,,,,5f24b0fc546c5a0c3c2e43b6,Spanish,13 or older,"no, only English or Spanish",no,2025-07-24_10h47.23.612,empathy_intonation_perc_control,2024.2.4,MacIntel,58.13953488,5f24b0fc546c5a0c3c2e43b6,68817205a84113384fffdfe3,68824758d8a9b8b49359fdfe,,,,,,,,,,,,,,,,,,,,,,,,,,,13,,,,,,,,,,,,,,,,,,,,,,,,,,,,,,,,,,,,,,,,,,,,444.4136,447.5586,strongly agree,0,12,12,12,1,"I would never break a law, no matter how minor.",0,1,0,0,,
,,,,,,,,,5f24b0fc546c5a0c3c2e43b6,Spanish,13 or older,"no, only English or Spanish",no,2025-07-24_10h47.23.612,empathy_intonation_perc_control,2024.2.4,MacIntel,58.13953488,5f24b0fc546c5a0c3c2e43b6,68817205a84113384fffdfe3,68824758d8a9b8b49359fdfe,,,,,,,,,,,,,,,,,,,,,,,,,,,14,,,,,,,,,,,,,,,,,,,,,,,,,,,,,,,,,,,,,,,,,,,,447.5599,451.8734,slightly disagree,0,13,13,13,1,I often find it difficult to judge if something is rude or polite.,1,0,0,1,,
,,,,,,,,,5f24b0fc546c5a0c3c2e43b6,Spanish,13 or older,"no, only English or Spanish",no,2025-07-24_10h47.23.612,empathy_intonation_perc_control,2024.2.4,MacIntel,58.13953488,5f24b0fc546c5a0c3c2e43b6,68817205a84113384fffdfe3,68824758d8a9b8b49359fdfe,,,,,,,,,,,,,,,,,,,,,,,,,,,15,,,,,,,,,,,,,,,,,,,,,,,,,,,,,,,,,,,,,,,,,,,,451.8754,455.0991,slightly disagree,0,14,14,14,1,"In a conversation, I tend to focus on my own thoughts rather than on what 
  my listener might be thinking.",1,0,0,1,,
,,,,,,,,,5f24b0fc546c5a0c3c2e43b6,Spanish,13 or older,"no, only English or Spanish",no,2025-07-24_10h47.23.612,empathy_intonation_perc_control,2024.2.4,MacIntel,58.13953488,5f24b0fc546c5a0c3c2e43b6,68817205a84113384fffdfe3,68824758d8a9b8b49359fdfe,,,,,,,,,,,,,,,,,,,,,,,,,,,16,,,,,,,,,,,,,,,,,,,,,,,,,,,,,,,,,,,,,,,,,,,,455.1001,458.6401,slightly disagree,0,15,15,15,1,I prefer practical jokes to verbal humor.,0,1,0,0,,
,,,,,,,,,5f24b0fc546c5a0c3c2e43b6,Spanish,13 or older,"no, only English or Spanish",no,2025-07-24_10h47.23.612,empathy_intonation_perc_control,2024.2.4,MacIntel,58.13953488,5f24b0fc546c5a0c3c2e43b6,68817205a84113384fffdfe3,68824758d8a9b8b49359fdfe,,,,,,,,,,,,,,,,,,,,,,,,,,,17,,,,,,,,,,,,,,,,,,,,,,,,,,,,,,,,,,,,,,,,,,,,458.6416,460.6428,slightly agree,0,16,16,16,1,I live life for today rather than the future.,0,1,0,0,,
,,,,,,,,,5f24b0fc546c5a0c3c2e43b6,Spanish,13 or older,"no, only English or Spanish",no,2025-07-24_10h47.23.612,empathy_intonation_perc_control,2024.2.4,MacIntel,58.13953488,5f24b0fc546c5a0c3c2e43b6,68817205a84113384fffdfe3,68824758d8a9b8b49359fdfe,,,,,,,,,,,,,,,,,,,,,,,,,,,18,,,,,,,,,,,,,,,,,,,,,,,,,,,,,,,,,,,,,,,,,,,,460.6445,463.8583,strongly disagree,0,17,17,17,1,"When I was a child, I enjoyed cutting up worms to see what would happen.",1,0,0,1,,
,,,,,,,,,5f24b0fc546c5a0c3c2e43b6,Spanish,13 or older,"no, only English or Spanish",no,2025-07-24_10h47.23.612,empathy_intonation_perc_control,2024.2.4,MacIntel,58.13953488,5f24b0fc546c5a0c3c2e43b6,68817205a84113384fffdfe3,68824758d8a9b8b49359fdfe,,,,,,,,,,,,,,,,,,,,,,,,,,,19,,,,,,,,,,,,,,,,,,,,,,,,,,,,,,,,,,,,,,,,,,,,463.8596,468.5845,slightly agree,0,18,18,18,1,I can pick up quickly if someone says one thing but means another.,1,0,1,0,,
,,,,,,,,,5f24b0fc546c5a0c3c2e43b6,Spanish,13 or older,"no, only English or Spanish",no,2025-07-24_10h47.23.612,empathy_intonation_perc_control,2024.2.4,MacIntel,58.13953488,5f24b0fc546c5a0c3c2e43b6,68817205a84113384fffdfe3,68824758d8a9b8b49359fdfe,,,,,,,,,,,,,,,,,,,,,,,,,,,20,,,,,,,,,,,,,,,,,,,,,,,,,,,,,,,,,,,,,,,,,,,,468.5857,472.4267,slightly agree,0,19,19,19,1,I tend to have very strong opinions about morality.,0,1,0,0,,
,,,,,,,,,5f24b0fc546c5a0c3c2e43b6,Spanish,13 or older,"no, only English or Spanish",no,2025-07-24_10h47.23.612,empathy_intonation_perc_control,2024.2.4,MacIntel,58.13953488,5f24b0fc546c5a0c3c2e43b6,68817205a84113384fffdfe3,68824758d8a9b8b49359fdfe,,,,,,,,,,,,,,,,,,,,,,,,,,,21,,,,,,,,,,,,,,,,,,,,,,,,,,,,,,,,,,,,,,,,,,,,472.4283,475.4342,slightly disagree,0,20,20,20,1,It is hard for me to see why some things upset people so much.,1,0,0,1,,
,,,,,,,,,5f24b0fc546c5a0c3c2e43b6,Spanish,13 or older,"no, only English or Spanish",no,2025-07-24_10h47.23.612,empathy_intonation_perc_control,2024.2.4,MacIntel,58.13953488,5f24b0fc546c5a0c3c2e43b6,68817205a84113384fffdfe3,68824758d8a9b8b49359fdfe,,,,,,,,,,,,,,,,,,,,,,,,,,,22,,,,,,,,,,,,,,,,,,,,,,,,,,,,,,,,,,,,,,,,,,,,475.4355,477.5621,slightly agree,0,21,21,21,1,I find it easy to put myself in somebody else's shoes.,1,0,1,0,,
,,,,,,,,,5f24b0fc546c5a0c3c2e43b6,Spanish,13 or older,"no, only English or Spanish",no,2025-07-24_10h47.23.612,empathy_intonation_perc_control,2024.2.4,MacIntel,58.13953488,5f24b0fc546c5a0c3c2e43b6,68817205a84113384fffdfe3,68824758d8a9b8b49359fdfe,,,,,,,,,,,,,,,,,,,,,,,,,,,23,,,,,,,,,,,,,,,,,,,,,,,,,,,,,,,,,,,,,,,,,,,,477.5637,480.9665,slightly agree,0,22,22,22,1,I think that good manners are the most important thing a parent can teach their child.,0,1,0,0,,
