instructions_2afc.started,instructions_2afc.stopped,instructions_2afc_loop.thisRepN,instructions_2afc_loop.thisTrialN,instructions_2afc_loop.thisN,instructions_2afc_loop.thisIndex,instructions_2afc_loop.ran,instructions_text,continue_text,participant_id,"What variety of Spanish are you most familiar with? (e.g., Peruvian, Spanish, Mexican)",At what age did you begin learning Spanish?,Are you proficient in any languages other than English/Spanish?,"Are you familiar with Caribbean (e.g., Caribbean, Puerto Rican) or Galician Spanish?",date,expName,psychopyVersion,OS,frameRate,id,study_id,session,practice_2afc.started,practice_2afc.stopped,key_resp_2afc_practice.keys,key_resp_2afc_practice.corr,key_resp_2afc_practice.rt,key_resp_2afc_practice.duration,trials_2afc_practice_loop.thisRepN,trials_2afc_practice_loop.thisTrialN,trials_2afc_practice_loop.thisN,trials_2afc_practice_loop.thisIndex,trials_2afc_practice_loop.ran,path,correct_response,check_2afc.started,check_2afc.stopped,trial_2afc.started,trial_2afc.stopped,key_resp_2afc_trial.keys,key_resp_2afc_trial.corr,key_resp_2afc_trial.rt,key_resp_2afc_trial.duration,trials_2afc_loop.thisRepN,trials_2afc_loop.thisTrialN,trials_2afc_loop.thisN,trials_2afc_loop.thisIndex,trials_2afc_loop.ran,item_num,target,variety,instructions_lextale.started,instructions_lextale.stopped,instructions_lextale_loop.thisRepN,instructions_lextale_loop.thisTrialN,instructions_lextale_loop.thisN,instructions_lextale_loop.thisIndex,instructions_lextale_loop.ran,practice_lextale.started,practice_lextale.stopped,key_resp_lextale_practice.keys,key_resp_lextale_practice.corr,key_resp_lextale_practice.rt,key_resp_lextale_practice.duration,practice_feedback_lextale.started,practice_feedback_lextale.stopped,trials_lextale_practice_loop.thisRepN,trials_lextale_practice_loop.thisTrialN,trials_lextale_practice_loop.thisN,trials_lextale_practice_loop.thisIndex,trials_lextale_practice_loop.ran,stim,word,prac_button_real,prac_button_false,check_lextale.started,check_lextale.stopped,trial_lextale.started,trial_lextale.stopped,key_resp_lextale_trial.keys,key_resp_lextale_trial.corr,key_resp_lextale_trial.rt,key_resp_lextale_trial.duration,trials_lextale_loop.thisRepN,trials_lextale_loop.thisTrialN,trials_lextale_loop.thisN,trials_lextale_loop.thisIndex,trials_lextale_loop.ran,button_real,button_false,instructions_eq.started,instructions_eq.stopped,trial_eq.started,trial_eq.stopped,slider_eq_trial.response,trials_eq_loop.thisRepN,trials_eq_loop.thisTrialN,trials_eq_loop.thisN,trials_eq_loop.thisIndex,trials_eq_loop.ran,item,is_test_item,is_distractor,is_agree_score,is_disagree_score,end_exp.started,end_exp.stopped
0.0165,5.1271,0,0,0,0,1,"In the following task you are going to hear a series of utterances. 

  You will decide if the utterances sound like questions or not using your keyboard.", (press the spacebar to continue),5f42ac74bac9f24a6091bd27,Mexican,13 or older,"no, only English or Spanish",yes,2026-01-21_16h38.10.398,empathy_intonation_perc_control,2024.2.4,Win32,60.24096386,5f42ac74bac9f24a6091bd27,69712dc693a3960bdb483245,69714714ec150213662dd7a8,,,,,,,,,,,,,,,,,,,,,,,,,,,,,,,,,,,,,,,,,,,,,,,,,,,,,,,,,,,,,,,,,,,,,,,,,,,,,,,,,,,,,
5.1318,18.0694,0,1,1,1,1,"If you believe the utterance is a question, type '1' (for 'yes') and if you do not 
  believe it is a question type '0' (for 'no').

  Let's practice a bit...", (press the spacebar to continue),5f42ac74bac9f24a6091bd27,Mexican,13 or older,"no, only English or Spanish",yes,2026-01-21_16h38.10.398,empathy_intonation_perc_control,2024.2.4,Win32,60.24096386,5f42ac74bac9f24a6091bd27,69712dc693a3960bdb483245,69714714ec150213662dd7a8,,,,,,,,,,,,,,,,,,,,,,,,,,,,,,,,,,,,,,,,,,,,,,,,,,,,,,,,,,,,,,,,,,,,,,,,,,,,,,,,,,,,,
,,,,,,,,,5f42ac74bac9f24a6091bd27,Mexican,13 or older,"no, only English or Spanish",yes,2026-01-21_16h38.10.398,empathy_intonation_perc_control,2024.2.4,Win32,60.24096386,5f42ac74bac9f24a6091bd27,69712dc693a3960bdb483245,69714714ec150213662dd7a8,18.0863,24.495,0,1,5.8817,,0,0,0,4,1,./stim/wavs/cuban_statement_filler_Cocinabas-por-la-noche.wav,0,,,,,,,,,,,,,,,,,,,,,,,,,,,,,,,,,,,,,,,,,,,,,,,,,,,,,,,,,,,,,,,,,,,,,,,,
,,,,,,,,,5f42ac74bac9f24a6091bd27,Mexican,13 or older,"no, only English or Spanish",yes,2026-01-21_16h38.10.398,empathy_intonation_perc_control,2024.2.4,Win32,60.24096386,5f42ac74bac9f24a6091bd27,69712dc693a3960bdb483245,69714714ec150213662dd7a8,24.4969,28.9021,0,0,3.8667,,0,1,1,2,1,./stim/wavs/chilean_question_filler_Mi-padre-cantaba-bien.wav,1,,,,,,,,,,,,,,,,,,,,,,,,,,,,,,,,,,,,,,,,,,,,,,,,,,,,,,,,,,,,,,,,,,,,,,,,
,,,,,,,,,5f42ac74bac9f24a6091bd27,Mexican,13 or older,"no, only English or Spanish",yes,2026-01-21_16h38.10.398,empathy_intonation_perc_control,2024.2.4,Win32,60.24096386,5f42ac74bac9f24a6091bd27,69712dc693a3960bdb483245,69714714ec150213662dd7a8,28.9036,31.9606,0,1,2.5182,,0,2,2,6,1,./stim/wavs/peruvian_statement_filler_El-nino-habla-con-su-madre.wav,0,,,,,,,,,,,,,,,,,,,,,,,,,,,,,,,,,,,,,,,,,,,,,,,,,,,,,,,,,,,,,,,,,,,,,,,,
,,,,,,,,,5f42ac74bac9f24a6091bd27,Mexican,13 or older,"no, only English or Spanish",yes,2026-01-21_16h38.10.398,empathy_intonation_perc_control,2024.2.4,Win32,60.24096386,5f42ac74bac9f24a6091bd27,69712dc693a3960bdb483245,69714714ec150213662dd7a8,31.9621,34.8962,1,0,2.4015,,0,3,3,5,1,./stim/wavs/andalusian_statement_filler_Alberto-nunca-se-afeita.wav,0,,,,,,,,,,,,,,,,,,,,,,,,,,,,,,,,,,,,,,,,,,,,,,,,,,,,,,,,,,,,,,,,,,,,,,,,
,,,,,,,,,5f42ac74bac9f24a6091bd27,Mexican,13 or older,"no, only English or Spanish",yes,2026-01-21_16h38.10.398,empathy_intonation_perc_control,2024.2.4,Win32,60.24096386,5f42ac74bac9f24a6091bd27,69712dc693a3960bdb483245,69714714ec150213662dd7a8,34.8974,37.194,1,1,1.7662,,0,4,4,3,1,./stim/wavs/mexican_question_filler_Felipe-no-tiene-contrasena.wav,1,,,,,,,,,,,,,,,,,,,,,,,,,,,,,,,,,,,,,,,,,,,,,,,,,,,,,,,,,,,,,,,,,,,,,,,,
,,,,,,,,,5f42ac74bac9f24a6091bd27,Mexican,13 or older,"no, only English or Spanish",yes,2026-01-21_16h38.10.398,empathy_intonation_perc_control,2024.2.4,Win32,60.24096386,5f42ac74bac9f24a6091bd27,69712dc693a3960bdb483245,69714714ec150213662dd7a8,37.1948,39.261,1,1,1.5379,,0,5,5,1,1,./stim/wavs/argentine_question_filler_Mi-vecino-habla-mucho.wav,1,,,,,,,,,,,,,,,,,,,,,,,,,,,,,,,,,,,,,,,,,,,,,,,,,,,,,,,,,,,,,,,,,,,,,,,,
,,,,,,,,,5f42ac74bac9f24a6091bd27,Mexican,13 or older,"no, only English or Spanish",yes,2026-01-21_16h38.10.398,empathy_intonation_perc_control,2024.2.4,Win32,60.24096386,5f42ac74bac9f24a6091bd27,69712dc693a3960bdb483245,69714714ec150213662dd7a8,39.2621,41.7113,0,1,1.9339,,0,6,6,7,1,./stim/wavs/puertorican_statement_filler_La-nina-pinta-con-su-amiga.wav,0,,,,,,,,,,,,,,,,,,,,,,,,,,,,,,,,,,,,,,,,,,,,,,,,,,,,,,,,,,,,,,,,,,,,,,,,
,,,,,,,,,5f42ac74bac9f24a6091bd27,Mexican,13 or older,"no, only English or Spanish",yes,2026-01-21_16h38.10.398,empathy_intonation_perc_control,2024.2.4,Win32,60.24096386,5f42ac74bac9f24a6091bd27,69712dc693a3960bdb483245,69714714ec150213662dd7a8,41.7134,44.2941,1,1,2.0524,,0,7,7,0,1,./stim/wavs/castilian_question_filler_Mi-esposo-conoce-al-chico.wav,1,,,,,,,,,,,,,,,,,,,,,,,,,,,,,,,,,,,,,,,,,,,,,,,,,,,,,,,,,,,,,,,,,,,,,,,,
,,,,,,,,,5f42ac74bac9f24a6091bd27,Mexican,13 or older,"no, only English or Spanish",yes,2026-01-21_16h38.10.398,empathy_intonation_perc_control,2024.2.4,Win32,60.24096386,5f42ac74bac9f24a6091bd27,69712dc693a3960bdb483245,69714714ec150213662dd7a8,,,,,,,,,,,,,,44.2946,46.5202,,,,,,,,,,,,,,,,,,,,,,,,,,,,,,,,,,,,,,,,,,,,,,,,,,,,,,,,,,,,,,,,,,,,,,
,,,,,,,,,5f42ac74bac9f24a6091bd27,Mexican,13 or older,"no, only English or Spanish",yes,2026-01-21_16h38.10.398,empathy_intonation_perc_control,2024.2.4,Win32,60.24096386,5f42ac74bac9f24a6091bd27,69712dc693a3960bdb483245,69714714ec150213662dd7a8,,,,,,,,,,,,./stim/wavs/mexican_mismatch_declarative-broad-focus_La-maestra-vive-en-Paris.wav,0,,,46.5298,48.9428,0,1,1.8821,,0,0,0,80,1,81,0,mexican,,,,,,,,,,,,,,,,,,,,,,,,,,,,,,,,,,,,,,,,,,,,,,,,,,,,,,,,
,,,,,,,,,5f42ac74bac9f24a6091bd27,Mexican,13 or older,"no, only English or Spanish",yes,2026-01-21_16h38.10.398,empathy_intonation_perc_control,2024.2.4,Win32,60.24096386,5f42ac74bac9f24a6091bd27,69712dc693a3960bdb483245,69714714ec150213662dd7a8,,,,,,,,,,,,./stim/wavs/cuban_mismatch_declarative-broad-focus_Mi-novio-viene-del-lago.wav,0,,,48.9433,51.3847,0,1,1.9016,,0,1,1,76,1,77,0,cuban,,,,,,,,,,,,,,,,,,,,,,,,,,,,,,,,,,,,,,,,,,,,,,,,,,,,,,,,
,,,,,,,,,5f42ac74bac9f24a6091bd27,Mexican,13 or older,"no, only English or Spanish",yes,2026-01-21_16h38.10.398,empathy_intonation_perc_control,2024.2.4,Win32,60.24096386,5f42ac74bac9f24a6091bd27,69712dc693a3960bdb483245,69714714ec150213662dd7a8,,,,,,,,,,,,./stim/wavs/cuban_mismatch_interrogative-total-yn_Mi-novio-viene-del-lago.wav,1,,,51.386,55.5209,0,0,3.5933,,0,2,2,32,1,33,1,cuban,,,,,,,,,,,,,,,,,,,,,,,,,,,,,,,,,,,,,,,,,,,,,,,,,,,,,,,,
,,,,,,,,,5f42ac74bac9f24a6091bd27,Mexican,13 or older,"no, only English or Spanish",yes,2026-01-21_16h38.10.398,empathy_intonation_perc_control,2024.2.4,Win32,60.24096386,5f42ac74bac9f24a6091bd27,69712dc693a3960bdb483245,69714714ec150213662dd7a8,,,,,,,,,,,,./stim/wavs/castilian_match_interrogative-total-yn_David-leia-el-libro.wav,1,,,55.5218,58.0105,1,1,1.951,,0,3,3,0,1,1,0,castilian,,,,,,,,,,,,,,,,,,,,,,,,,,,,,,,,,,,,,,,,,,,,,,,,,,,,,,,,
,,,,,,,,,5f42ac74bac9f24a6091bd27,Mexican,13 or older,"no, only English or Spanish",yes,2026-01-21_16h38.10.398,empathy_intonation_perc_control,2024.2.4,Win32,60.24096386,5f42ac74bac9f24a6091bd27,69712dc693a3960bdb483245,69714714ec150213662dd7a8,,,,,,,,,,,,./stim/wavs/mexican_mismatch_interrogative-total-yn_La-maestra-vive-en-Paris.wav,1,,,58.0119,60.3341,1,1,1.7994,,0,4,4,36,1,37,0,mexican,,,,,,,,,,,,,,,,,,,,,,,,,,,,,,,,,,,,,,,,,,,,,,,,,,,,,,,,
,,,,,,,,,5f42ac74bac9f24a6091bd27,Mexican,13 or older,"no, only English or Spanish",yes,2026-01-21_16h38.10.398,empathy_intonation_perc_control,2024.2.4,Win32,60.24096386,5f42ac74bac9f24a6091bd27,69712dc693a3960bdb483245,69714714ec150213662dd7a8,,,,,,,,,,,,./stim/wavs/puertorican_match_interrogative-total-yn_Daniel-iba-a-Bolivia.wav,1,,,60.3347,62.5684,0,0,1.7055,,0,5,5,19,1,20,1,puertorican,,,,,,,,,,,,,,,,,,,,,,,,,,,,,,,,,,,,,,,,,,,,,,,,,,,,,,,,
,,,,,,,,,5f42ac74bac9f24a6091bd27,Mexican,13 or older,"no, only English or Spanish",yes,2026-01-21_16h38.10.398,empathy_intonation_perc_control,2024.2.4,Win32,60.24096386,5f42ac74bac9f24a6091bd27,69712dc693a3960bdb483245,69714714ec150213662dd7a8,,,,,,,,,,,,./stim/wavs/castilian_match_declarative-broad-focus_Marta-abre-el-regalo.wav,0,,,62.5694,64.9364,0,1,1.8422,,0,6,6,49,1,50,0,castilian,,,,,,,,,,,,,,,,,,,,,,,,,,,,,,,,,,,,,,,,,,,,,,,,,,,,,,,,
,,,,,,,,,5f42ac74bac9f24a6091bd27,Mexican,13 or older,"no, only English or Spanish",yes,2026-01-21_16h38.10.398,empathy_intonation_perc_control,2024.2.4,Win32,60.24096386,5f42ac74bac9f24a6091bd27,69712dc693a3960bdb483245,69714714ec150213662dd7a8,,,,,,,,,,,,./stim/wavs/mexican_match_interrogative-total-yn_Emilio-ama-la-marcha.wav,1,,,64.9377,67.5348,1,1,2.0668,,0,7,7,15,1,16,0,mexican,,,,,,,,,,,,,,,,,,,,,,,,,,,,,,,,,,,,,,,,,,,,,,,,,,,,,,,,
,,,,,,,,,5f42ac74bac9f24a6091bd27,Mexican,13 or older,"no, only English or Spanish",yes,2026-01-21_16h38.10.398,empathy_intonation_perc_control,2024.2.4,Win32,60.24096386,5f42ac74bac9f24a6091bd27,69712dc693a3960bdb483245,69714714ec150213662dd7a8,,,,,,,,,,,,./stim/wavs/mexican_match_interrogative-total-yn_Marta-abre-el-regalo.wav,1,,,67.5364,69.5695,1,1,1.5106,,0,8,8,17,1,18,0,mexican,,,,,,,,,,,,,,,,,,,,,,,,,,,,,,,,,,,,,,,,,,,,,,,,,,,,,,,,
,,,,,,,,,5f42ac74bac9f24a6091bd27,Mexican,13 or older,"no, only English or Spanish",yes,2026-01-21_16h38.10.398,empathy_intonation_perc_control,2024.2.4,Win32,60.24096386,5f42ac74bac9f24a6091bd27,69712dc693a3960bdb483245,69714714ec150213662dd7a8,,,,,,,,,,,,./stim/wavs/puertorican_match_declarative-broad-focus_Manuela-vende-el-carro.wav,0,,,69.5704,72.1778,0,1,2.0773,,0,9,9,66,1,67,0,puertorican,,,,,,,,,,,,,,,,,,,,,,,,,,,,,,,,,,,,,,,,,,,,,,,,,,,,,,,,
,,,,,,,,,5f42ac74bac9f24a6091bd27,Mexican,13 or older,"no, only English or Spanish",yes,2026-01-21_16h38.10.398,empathy_intonation_perc_control,2024.2.4,Win32,60.24096386,5f42ac74bac9f24a6091bd27,69712dc693a3960bdb483245,69714714ec150213662dd7a8,,,,,,,,,,,,./stim/wavs/castilian_mismatch_declarative-broad-focus_Mi-novio-viene-del-lago.wav,0,,,72.1788,74.7113,0,1,2.0013,,0,10,10,71,1,72,0,castilian,,,,,,,,,,,,,,,,,,,,,,,,,,,,,,,,,,,,,,,,,,,,,,,,,,,,,,,,
,,,,,,,,,5f42ac74bac9f24a6091bd27,Mexican,13 or older,"no, only English or Spanish",yes,2026-01-21_16h38.10.398,empathy_intonation_perc_control,2024.2.4,Win32,60.24096386,5f42ac74bac9f24a6091bd27,69712dc693a3960bdb483245,69714714ec150213662dd7a8,,,,,,,,,,,,./stim/wavs/puertorican_mismatch_declarative-broad-focus_El-nino-oye-el-rio.wav,0,,,74.7129,76.7605,0,1,1.5246,,0,11,11,85,1,86,0,puertorican,,,,,,,,,,,,,,,,,,,,,,,,,,,,,,,,,,,,,,,,,,,,,,,,,,,,,,,,
,,,,,,,,,5f42ac74bac9f24a6091bd27,Mexican,13 or older,"no, only English or Spanish",yes,2026-01-21_16h38.10.398,empathy_intonation_perc_control,2024.2.4,Win32,60.24096386,5f42ac74bac9f24a6091bd27,69712dc693a3960bdb483245,69714714ec150213662dd7a8,,,,,,,,,,,,./stim/wavs/mexican_mismatch_declarative-broad-focus_Mi-novio-viene-del-lago.wav,0,,,76.7622,78.7769,0,1,1.4843,,0,12,12,81,1,82,0,mexican,,,,,,,,,,,,,,,,,,,,,,,,,,,,,,,,,,,,,,,,,,,,,,,,,,,,,,,,
,,,,,,,,,5f42ac74bac9f24a6091bd27,Mexican,13 or older,"no, only English or Spanish",yes,2026-01-21_16h38.10.398,empathy_intonation_perc_control,2024.2.4,Win32,60.24096386,5f42ac74bac9f24a6091bd27,69712dc693a3960bdb483245,69714714ec150213662dd7a8,,,,,,,,,,,,./stim/wavs/puertorican_match_interrogative-total-yn_Emilio-ama-la-marcha.wav,1,,,78.778,81.0003,0,0,1.6876,,0,13,13,21,1,22,1,puertorican,,,,,,,,,,,,,,,,,,,,,,,,,,,,,,,,,,,,,,,,,,,,,,,,,,,,,,,,
,,,,,,,,,5f42ac74bac9f24a6091bd27,Mexican,13 or older,"no, only English or Spanish",yes,2026-01-21_16h38.10.398,empathy_intonation_perc_control,2024.2.4,Win32,60.24096386,5f42ac74bac9f24a6091bd27,69712dc693a3960bdb483245,69714714ec150213662dd7a8,,,,,,,,,,,,./stim/wavs/castilian_mismatch_interrogative-total-yn_Mi-tia-odia-la-lluvia.wav,1,,,81.0008,83.9103,1,1,2.3848,,0,14,14,28,1,29,0,castilian,,,,,,,,,,,,,,,,,,,,,,,,,,,,,,,,,,,,,,,,,,,,,,,,,,,,,,,,
,,,,,,,,,5f42ac74bac9f24a6091bd27,Mexican,13 or older,"no, only English or Spanish",yes,2026-01-21_16h38.10.398,empathy_intonation_perc_control,2024.2.4,Win32,60.24096386,5f42ac74bac9f24a6091bd27,69712dc693a3960bdb483245,69714714ec150213662dd7a8,,,,,,,,,,,,./stim/wavs/castilian_match_interrogative-total-yn_Maria-bebe-el-vino.wav,1,,,83.9111,86.2342,1,1,1.7839,,0,15,15,3,1,4,0,castilian,,,,,,,,,,,,,,,,,,,,,,,,,,,,,,,,,,,,,,,,,,,,,,,,,,,,,,,,
,,,,,,,,,5f42ac74bac9f24a6091bd27,Mexican,13 or older,"no, only English or Spanish",yes,2026-01-21_16h38.10.398,empathy_intonation_perc_control,2024.2.4,Win32,60.24096386,5f42ac74bac9f24a6091bd27,69712dc693a3960bdb483245,69714714ec150213662dd7a8,,,,,,,,,,,,./stim/wavs/puertorican_match_declarative-broad-focus_Maria-bebe-el-vino.wav,0,,,86.235,89.9238,0,1,3.1788,,0,16,16,67,1,68,0,puertorican,,,,,,,,,,,,,,,,,,,,,,,,,,,,,,,,,,,,,,,,,,,,,,,,,,,,,,,,
,,,,,,,,,5f42ac74bac9f24a6091bd27,Mexican,13 or older,"no, only English or Spanish",yes,2026-01-21_16h38.10.398,empathy_intonation_perc_control,2024.2.4,Win32,60.24096386,5f42ac74bac9f24a6091bd27,69712dc693a3960bdb483245,69714714ec150213662dd7a8,,,,,,,,,,,,./stim/wavs/cuban_match_interrogative-total-yn_Manuela-vende-el-carro.wav,1,,,89.9248,92.2254,0,0,1.7824,,0,17,17,8,1,9,1,cuban,,,,,,,,,,,,,,,,,,,,,,,,,,,,,,,,,,,,,,,,,,,,,,,,,,,,,,,,
,,,,,,,,,5f42ac74bac9f24a6091bd27,Mexican,13 or older,"no, only English or Spanish",yes,2026-01-21_16h38.10.398,empathy_intonation_perc_control,2024.2.4,Win32,60.24096386,5f42ac74bac9f24a6091bd27,69712dc693a3960bdb483245,69714714ec150213662dd7a8,,,,,,,,,,,,./stim/wavs/cuban_mismatch_declarative-broad-focus_El-hombre-mira-la-luna.wav,0,,,92.2261,94.7585,0,1,2.0189,,0,18,18,74,1,75,0,cuban,,,,,,,,,,,,,,,,,,,,,,,,,,,,,,,,,,,,,,,,,,,,,,,,,,,,,,,,
,,,,,,,,,5f42ac74bac9f24a6091bd27,Mexican,13 or older,"no, only English or Spanish",yes,2026-01-21_16h38.10.398,empathy_intonation_perc_control,2024.2.4,Win32,60.24096386,5f42ac74bac9f24a6091bd27,69712dc693a3960bdb483245,69714714ec150213662dd7a8,,,,,,,,,,,,./stim/wavs/mexican_match_declarative-broad-focus_Ana-lleva-el-abrigo.wav,0,,,94.7597,96.9448,0,1,1.6507,,0,19,19,56,1,57,0,mexican,,,,,,,,,,,,,,,,,,,,,,,,,,,,,,,,,,,,,,,,,,,,,,,,,,,,,,,,
,,,,,,,,,5f42ac74bac9f24a6091bd27,Mexican,13 or older,"no, only English or Spanish",yes,2026-01-21_16h38.10.398,empathy_intonation_perc_control,2024.2.4,Win32,60.24096386,5f42ac74bac9f24a6091bd27,69712dc693a3960bdb483245,69714714ec150213662dd7a8,,,,,,,,,,,,./stim/wavs/mexican_mismatch_interrogative-total-yn_Mi-tia-odia-la-lluvia.wav,1,,,96.9466,99.1749,1,1,1.6979,,0,20,20,38,1,39,0,mexican,,,,,,,,,,,,,,,,,,,,,,,,,,,,,,,,,,,,,,,,,,,,,,,,,,,,,,,,
,,,,,,,,,5f42ac74bac9f24a6091bd27,Mexican,13 or older,"no, only English or Spanish",yes,2026-01-21_16h38.10.398,empathy_intonation_perc_control,2024.2.4,Win32,60.24096386,5f42ac74bac9f24a6091bd27,69712dc693a3960bdb483245,69714714ec150213662dd7a8,,,,,,,,,,,,./stim/wavs/cuban_mismatch_interrogative-total-yn_Mi-madre-come-la-fruta.wav,1,,,99.1764,101.8931,0,0,2.2074,,0,21,21,31,1,32,1,cuban,,,,,,,,,,,,,,,,,,,,,,,,,,,,,,,,,,,,,,,,,,,,,,,,,,,,,,,,
,,,,,,,,,5f42ac74bac9f24a6091bd27,Mexican,13 or older,"no, only English or Spanish",yes,2026-01-21_16h38.10.398,empathy_intonation_perc_control,2024.2.4,Win32,60.24096386,5f42ac74bac9f24a6091bd27,69712dc693a3960bdb483245,69714714ec150213662dd7a8,,,,,,,,,,,,./stim/wavs/puertorican_mismatch_declarative-broad-focus_El-hombre-mira-la-luna.wav,0,,,101.8939,104.3267,0,1,1.9162,,0,22,22,84,1,85,0,puertorican,,,,,,,,,,,,,,,,,,,,,,,,,,,,,,,,,,,,,,,,,,,,,,,,,,,,,,,,
,,,,,,,,,5f42ac74bac9f24a6091bd27,Mexican,13 or older,"no, only English or Spanish",yes,2026-01-21_16h38.10.398,empathy_intonation_perc_control,2024.2.4,Win32,60.24096386,5f42ac74bac9f24a6091bd27,69712dc693a3960bdb483245,69714714ec150213662dd7a8,,,,,,,,,,,,./stim/wavs/mexican_match_interrogative-total-yn_David-leia-el-libro.wav,1,,,104.3278,107.6346,1,1,2.7825,,0,23,23,14,1,15,0,mexican,,,,,,,,,,,,,,,,,,,,,,,,,,,,,,,,,,,,,,,,,,,,,,,,,,,,,,,,
,,,,,,,,,5f42ac74bac9f24a6091bd27,Mexican,13 or older,"no, only English or Spanish",yes,2026-01-21_16h38.10.398,empathy_intonation_perc_control,2024.2.4,Win32,60.24096386,5f42ac74bac9f24a6091bd27,69712dc693a3960bdb483245,69714714ec150213662dd7a8,,,,,,,,,,,,./stim/wavs/puertorican_mismatch_interrogative-total-yn_El-hombre-mira-la-luna.wav,1,,,107.6369,110.0758,0,0,1.913,,0,24,24,39,1,40,1,puertorican,,,,,,,,,,,,,,,,,,,,,,,,,,,,,,,,,,,,,,,,,,,,,,,,,,,,,,,,
,,,,,,,,,5f42ac74bac9f24a6091bd27,Mexican,13 or older,"no, only English or Spanish",yes,2026-01-21_16h38.10.398,empathy_intonation_perc_control,2024.2.4,Win32,60.24096386,5f42ac74bac9f24a6091bd27,69712dc693a3960bdb483245,69714714ec150213662dd7a8,,,,,,,,,,,,./stim/wavs/puertorican_mismatch_interrogative-total-yn_El-nino-oye-el-rio.wav,1,,,110.077,112.8863,0,0,2.2928,,0,25,25,40,1,41,1,puertorican,,,,,,,,,,,,,,,,,,,,,,,,,,,,,,,,,,,,,,,,,,,,,,,,,,,,,,,,
,,,,,,,,,5f42ac74bac9f24a6091bd27,Mexican,13 or older,"no, only English or Spanish",yes,2026-01-21_16h38.10.398,empathy_intonation_perc_control,2024.2.4,Win32,60.24096386,5f42ac74bac9f24a6091bd27,69712dc693a3960bdb483245,69714714ec150213662dd7a8,,,,,,,,,,,,./stim/wavs/castilian_mismatch_declarative-broad-focus_El-nino-oye-el-rio.wav,0,,,112.8879,115.3777,0,1,1.976,,0,26,26,68,1,69,0,castilian,,,,,,,,,,,,,,,,,,,,,,,,,,,,,,,,,,,,,,,,,,,,,,,,,,,,,,,,
,,,,,,,,,5f42ac74bac9f24a6091bd27,Mexican,13 or older,"no, only English or Spanish",yes,2026-01-21_16h38.10.398,empathy_intonation_perc_control,2024.2.4,Win32,60.24096386,5f42ac74bac9f24a6091bd27,69712dc693a3960bdb483245,69714714ec150213662dd7a8,,,,,,,,,,,,./stim/wavs/puertorican_match_interrogative-total-yn_Ana-lleva-el-abrigo.wav,1,,,115.3785,119.143,0,0,3.2442,,0,27,27,18,1,19,1,puertorican,,,,,,,,,,,,,,,,,,,,,,,,,,,,,,,,,,,,,,,,,,,,,,,,,,,,,,,,
,,,,,,,,,5f42ac74bac9f24a6091bd27,Mexican,13 or older,"no, only English or Spanish",yes,2026-01-21_16h38.10.398,empathy_intonation_perc_control,2024.2.4,Win32,60.24096386,5f42ac74bac9f24a6091bd27,69712dc693a3960bdb483245,69714714ec150213662dd7a8,,,,,,,,,,,,./stim/wavs/puertorican_match_interrogative-total-yn_David-leia-el-libro.wav,1,,,119.1443,120.9954,0,0,1.3297,,0,28,28,20,1,21,1,puertorican,,,,,,,,,,,,,,,,,,,,,,,,,,,,,,,,,,,,,,,,,,,,,,,,,,,,,,,,
,,,,,,,,,5f42ac74bac9f24a6091bd27,Mexican,13 or older,"no, only English or Spanish",yes,2026-01-21_16h38.10.398,empathy_intonation_perc_control,2024.2.4,Win32,60.24096386,5f42ac74bac9f24a6091bd27,69712dc693a3960bdb483245,69714714ec150213662dd7a8,,,,,,,,,,,,./stim/wavs/castilian_mismatch_declarative-broad-focus_La-nina-lava-el-plato.wav,0,,,120.9964,123.6683,0,1,2.1542,,0,29,29,70,1,71,0,castilian,,,,,,,,,,,,,,,,,,,,,,,,,,,,,,,,,,,,,,,,,,,,,,,,,,,,,,,,
,,,,,,,,,5f42ac74bac9f24a6091bd27,Mexican,13 or older,"no, only English or Spanish",yes,2026-01-21_16h38.10.398,empathy_intonation_perc_control,2024.2.4,Win32,60.24096386,5f42ac74bac9f24a6091bd27,69712dc693a3960bdb483245,69714714ec150213662dd7a8,,,,,,,,,,,,./stim/wavs/puertorican_match_declarative-broad-focus_Emilio-ama-la-marcha.wav,0,,,123.6693,125.8444,0,1,1.6502,,0,30,30,65,1,66,0,puertorican,,,,,,,,,,,,,,,,,,,,,,,,,,,,,,,,,,,,,,,,,,,,,,,,,,,,,,,,
,,,,,,,,,5f42ac74bac9f24a6091bd27,Mexican,13 or older,"no, only English or Spanish",yes,2026-01-21_16h38.10.398,empathy_intonation_perc_control,2024.2.4,Win32,60.24096386,5f42ac74bac9f24a6091bd27,69712dc693a3960bdb483245,69714714ec150213662dd7a8,,,,,,,,,,,,./stim/wavs/puertorican_mismatch_declarative-broad-focus_El-bebe-comia-muy-bien.wav,0,,,125.8455,129.068,0,1,2.7002,,0,31,31,83,1,84,0,puertorican,,,,,,,,,,,,,,,,,,,,,,,,,,,,,,,,,,,,,,,,,,,,,,,,,,,,,,,,
,,,,,,,,,5f42ac74bac9f24a6091bd27,Mexican,13 or older,"no, only English or Spanish",yes,2026-01-21_16h38.10.398,empathy_intonation_perc_control,2024.2.4,Win32,60.24096386,5f42ac74bac9f24a6091bd27,69712dc693a3960bdb483245,69714714ec150213662dd7a8,,,,,,,,,,,,./stim/wavs/cuban_mismatch_interrogative-total-yn_Mi-tia-odia-la-lluvia.wav,1,,,129.069,132.1101,0,0,2.5164,,0,32,32,33,1,34,1,cuban,,,,,,,,,,,,,,,,,,,,,,,,,,,,,,,,,,,,,,,,,,,,,,,,,,,,,,,,
,,,,,,,,,5f42ac74bac9f24a6091bd27,Mexican,13 or older,"no, only English or Spanish",yes,2026-01-21_16h38.10.398,empathy_intonation_perc_control,2024.2.4,Win32,60.24096386,5f42ac74bac9f24a6091bd27,69712dc693a3960bdb483245,69714714ec150213662dd7a8,,,,,,,,,,,,./stim/wavs/castilian_match_declarative-broad-focus_Manuela-vende-el-carro.wav,0,,,132.1114,134.4845,0,1,1.8522,,0,33,33,46,1,47,0,castilian,,,,,,,,,,,,,,,,,,,,,,,,,,,,,,,,,,,,,,,,,,,,,,,,,,,,,,,,
,,,,,,,,,5f42ac74bac9f24a6091bd27,Mexican,13 or older,"no, only English or Spanish",yes,2026-01-21_16h38.10.398,empathy_intonation_perc_control,2024.2.4,Win32,60.24096386,5f42ac74bac9f24a6091bd27,69712dc693a3960bdb483245,69714714ec150213662dd7a8,,,,,,,,,,,,./stim/wavs/castilian_match_interrogative-total-yn_Emilio-ama-la-marcha.wav,1,,,134.486,137.0182,1,1,2.0004,,0,34,34,1,1,2,0,castilian,,,,,,,,,,,,,,,,,,,,,,,,,,,,,,,,,,,,,,,,,,,,,,,,,,,,,,,,
,,,,,,,,,5f42ac74bac9f24a6091bd27,Mexican,13 or older,"no, only English or Spanish",yes,2026-01-21_16h38.10.398,empathy_intonation_perc_control,2024.2.4,Win32,60.24096386,5f42ac74bac9f24a6091bd27,69712dc693a3960bdb483245,69714714ec150213662dd7a8,,,,,,,,,,,,./stim/wavs/mexican_mismatch_declarative-broad-focus_El-hombre-mira-la-luna.wav,0,,,137.0194,139.2671,0,1,1.7147,,0,35,35,79,1,80,0,mexican,,,,,,,,,,,,,,,,,,,,,,,,,,,,,,,,,,,,,,,,,,,,,,,,,,,,,,,,
,,,,,,,,,5f42ac74bac9f24a6091bd27,Mexican,13 or older,"no, only English or Spanish",yes,2026-01-21_16h38.10.398,empathy_intonation_perc_control,2024.2.4,Win32,60.24096386,5f42ac74bac9f24a6091bd27,69712dc693a3960bdb483245,69714714ec150213662dd7a8,,,,,,,,,,,,./stim/wavs/cuban_mismatch_declarative-broad-focus_El-bebe-comia-muy-bien.wav,0,,,139.2677,141.7837,0,1,1.9997,,0,36,36,73,1,74,0,cuban,,,,,,,,,,,,,,,,,,,,,,,,,,,,,,,,,,,,,,,,,,,,,,,,,,,,,,,,
,,,,,,,,,5f42ac74bac9f24a6091bd27,Mexican,13 or older,"no, only English or Spanish",yes,2026-01-21_16h38.10.398,empathy_intonation_perc_control,2024.2.4,Win32,60.24096386,5f42ac74bac9f24a6091bd27,69712dc693a3960bdb483245,69714714ec150213662dd7a8,,,,,,,,,,,,./stim/wavs/cuban_mismatch_declarative-broad-focus_Mi-tia-odia-la-lluvia.wav,0,,,141.7843,143.9344,0,1,1.6335,,0,37,37,77,1,78,0,cuban,,,,,,,,,,,,,,,,,,,,,,,,,,,,,,,,,,,,,,,,,,,,,,,,,,,,,,,,
,,,,,,,,,5f42ac74bac9f24a6091bd27,Mexican,13 or older,"no, only English or Spanish",yes,2026-01-21_16h38.10.398,empathy_intonation_perc_control,2024.2.4,Win32,60.24096386,5f42ac74bac9f24a6091bd27,69712dc693a3960bdb483245,69714714ec150213662dd7a8,,,,,,,,,,,,./stim/wavs/puertorican_mismatch_declarative-broad-focus_La-nina-lava-el-plato.wav,0,,,143.9357,146.7178,0,1,2.2511,,0,38,38,87,1,88,0,puertorican,,,,,,,,,,,,,,,,,,,,,,,,,,,,,,,,,,,,,,,,,,,,,,,,,,,,,,,,
,,,,,,,,,5f42ac74bac9f24a6091bd27,Mexican,13 or older,"no, only English or Spanish",yes,2026-01-21_16h38.10.398,empathy_intonation_perc_control,2024.2.4,Win32,60.24096386,5f42ac74bac9f24a6091bd27,69712dc693a3960bdb483245,69714714ec150213662dd7a8,,,,,,,,,,,,./stim/wavs/puertorican_match_interrogative-total-yn_Manuela-vende-el-carro.wav,1,,,146.7191,148.7345,0,0,1.4853,,0,39,39,22,1,23,1,puertorican,,,,,,,,,,,,,,,,,,,,,,,,,,,,,,,,,,,,,,,,,,,,,,,,,,,,,,,,
,,,,,,,,,5f42ac74bac9f24a6091bd27,Mexican,13 or older,"no, only English or Spanish",yes,2026-01-21_16h38.10.398,empathy_intonation_perc_control,2024.2.4,Win32,60.24096386,5f42ac74bac9f24a6091bd27,69712dc693a3960bdb483245,69714714ec150213662dd7a8,,,,,,,,,,,,./stim/wavs/mexican_match_declarative-broad-focus_Marta-abre-el-regalo.wav,0,,,148.7364,150.8171,0,1,1.5462,,0,40,40,61,1,62,0,mexican,,,,,,,,,,,,,,,,,,,,,,,,,,,,,,,,,,,,,,,,,,,,,,,,,,,,,,,,
,,,,,,,,,5f42ac74bac9f24a6091bd27,Mexican,13 or older,"no, only English or Spanish",yes,2026-01-21_16h38.10.398,empathy_intonation_perc_control,2024.2.4,Win32,60.24096386,5f42ac74bac9f24a6091bd27,69712dc693a3960bdb483245,69714714ec150213662dd7a8,,,,,,,,,,,,./stim/wavs/mexican_match_declarative-broad-focus_David-leia-el-libro.wav,0,,,150.8175,152.9513,0,1,1.6181,,0,41,41,58,1,59,0,mexican,,,,,,,,,,,,,,,,,,,,,,,,,,,,,,,,,,,,,,,,,,,,,,,,,,,,,,,,
,,,,,,,,,5f42ac74bac9f24a6091bd27,Mexican,13 or older,"no, only English or Spanish",yes,2026-01-21_16h38.10.398,empathy_intonation_perc_control,2024.2.4,Win32,60.24096386,5f42ac74bac9f24a6091bd27,69712dc693a3960bdb483245,69714714ec150213662dd7a8,,,,,,,,,,,,./stim/wavs/puertorican_match_interrogative-total-yn_Maria-bebe-el-vino.wav,1,,,152.9524,154.9026,0,0,1.4196,,0,42,42,23,1,24,1,puertorican,,,,,,,,,,,,,,,,,,,,,,,,,,,,,,,,,,,,,,,,,,,,,,,,,,,,,,,,
,,,,,,,,,5f42ac74bac9f24a6091bd27,Mexican,13 or older,"no, only English or Spanish",yes,2026-01-21_16h38.10.398,empathy_intonation_perc_control,2024.2.4,Win32,60.24096386,5f42ac74bac9f24a6091bd27,69712dc693a3960bdb483245,69714714ec150213662dd7a8,,,,,,,,,,,,./stim/wavs/castilian_match_interrogative-total-yn_Marta-abre-el-regalo.wav,1,,,154.9038,157.8088,1,1,2.3797,,0,43,43,5,1,6,0,castilian,,,,,,,,,,,,,,,,,,,,,,,,,,,,,,,,,,,,,,,,,,,,,,,,,,,,,,,,
,,,,,,,,,5f42ac74bac9f24a6091bd27,Mexican,13 or older,"no, only English or Spanish",yes,2026-01-21_16h38.10.398,empathy_intonation_perc_control,2024.2.4,Win32,60.24096386,5f42ac74bac9f24a6091bd27,69712dc693a3960bdb483245,69714714ec150213662dd7a8,,,,,,,,,,,,./stim/wavs/puertorican_mismatch_declarative-broad-focus_La-maestra-vive-en-Paris.wav,0,,,157.8097,160.5923,0,1,2.2603,,0,44,44,86,1,87,0,puertorican,,,,,,,,,,,,,,,,,,,,,,,,,,,,,,,,,,,,,,,,,,,,,,,,,,,,,,,,
,,,,,,,,,5f42ac74bac9f24a6091bd27,Mexican,13 or older,"no, only English or Spanish",yes,2026-01-21_16h38.10.398,empathy_intonation_perc_control,2024.2.4,Win32,60.24096386,5f42ac74bac9f24a6091bd27,69712dc693a3960bdb483245,69714714ec150213662dd7a8,,,,,,,,,,,,./stim/wavs/cuban_match_declarative-broad-focus_Ana-lleva-el-abrigo.wav,0,,,160.5939,162.7098,0,1,1.583,,0,45,45,50,1,51,0,cuban,,,,,,,,,,,,,,,,,,,,,,,,,,,,,,,,,,,,,,,,,,,,,,,,,,,,,,,,
,,,,,,,,,5f42ac74bac9f24a6091bd27,Mexican,13 or older,"no, only English or Spanish",yes,2026-01-21_16h38.10.398,empathy_intonation_perc_control,2024.2.4,Win32,60.24096386,5f42ac74bac9f24a6091bd27,69712dc693a3960bdb483245,69714714ec150213662dd7a8,,,,,,,,,,,,./stim/wavs/mexican_match_declarative-broad-focus_Emilio-ama-la-marcha.wav,0,,,162.7112,165.1428,0,1,1.9031,,0,46,46,59,1,60,0,mexican,,,,,,,,,,,,,,,,,,,,,,,,,,,,,,,,,,,,,,,,,,,,,,,,,,,,,,,,
,,,,,,,,,5f42ac74bac9f24a6091bd27,Mexican,13 or older,"no, only English or Spanish",yes,2026-01-21_16h38.10.398,empathy_intonation_perc_control,2024.2.4,Win32,60.24096386,5f42ac74bac9f24a6091bd27,69712dc693a3960bdb483245,69714714ec150213662dd7a8,,,,,,,,,,,,./stim/wavs/mexican_match_interrogative-total-yn_Ana-lleva-el-abrigo.wav,1,,,165.1439,167.623,1,1,1.9506,,0,47,47,12,1,13,0,mexican,,,,,,,,,,,,,,,,,,,,,,,,,,,,,,,,,,,,,,,,,,,,,,,,,,,,,,,,
,,,,,,,,,5f42ac74bac9f24a6091bd27,Mexican,13 or older,"no, only English or Spanish",yes,2026-01-21_16h38.10.398,empathy_intonation_perc_control,2024.2.4,Win32,60.24096386,5f42ac74bac9f24a6091bd27,69712dc693a3960bdb483245,69714714ec150213662dd7a8,,,,,,,,,,,,./stim/wavs/mexican_match_declarative-broad-focus_Daniel-iba-a-Bolivia.wav,0,,,167.6241,169.8278,0,1,1.6689,,0,48,48,57,1,58,0,mexican,,,,,,,,,,,,,,,,,,,,,,,,,,,,,,,,,,,,,,,,,,,,,,,,,,,,,,,,
,,,,,,,,,5f42ac74bac9f24a6091bd27,Mexican,13 or older,"no, only English or Spanish",yes,2026-01-21_16h38.10.398,empathy_intonation_perc_control,2024.2.4,Win32,60.24096386,5f42ac74bac9f24a6091bd27,69712dc693a3960bdb483245,69714714ec150213662dd7a8,,,,,,,,,,,,./stim/wavs/cuban_match_interrogative-total-yn_Mariano-habla-del-tiempo.wav,1,,,169.8287,172.2091,0,0,1.8578,,0,49,49,10,1,11,1,cuban,,,,,,,,,,,,,,,,,,,,,,,,,,,,,,,,,,,,,,,,,,,,,,,,,,,,,,,,
,,,,,,,,,5f42ac74bac9f24a6091bd27,Mexican,13 or older,"no, only English or Spanish",yes,2026-01-21_16h38.10.398,empathy_intonation_perc_control,2024.2.4,Win32,60.24096386,5f42ac74bac9f24a6091bd27,69712dc693a3960bdb483245,69714714ec150213662dd7a8,,,,,,,,,,,,./stim/wavs/mexican_match_interrogative-total-yn_Daniel-iba-a-Bolivia.wav,1,,,172.2109,174.324,0,0,1.5804,,0,50,50,13,1,14,0,mexican,,,,,,,,,,,,,,,,,,,,,,,,,,,,,,,,,,,,,,,,,,,,,,,,,,,,,,,,
,,,,,,,,,5f42ac74bac9f24a6091bd27,Mexican,13 or older,"no, only English or Spanish",yes,2026-01-21_16h38.10.398,empathy_intonation_perc_control,2024.2.4,Win32,60.24096386,5f42ac74bac9f24a6091bd27,69712dc693a3960bdb483245,69714714ec150213662dd7a8,,,,,,,,,,,,./stim/wavs/puertorican_match_declarative-broad-focus_David-leia-el-libro.wav,0,,,174.3253,176.3383,0,1,1.4797,,0,51,51,64,1,65,0,puertorican,,,,,,,,,,,,,,,,,,,,,,,,,,,,,,,,,,,,,,,,,,,,,,,,,,,,,,,,
,,,,,,,,,5f42ac74bac9f24a6091bd27,Mexican,13 or older,"no, only English or Spanish",yes,2026-01-21_16h38.10.398,empathy_intonation_perc_control,2024.2.4,Win32,60.24096386,5f42ac74bac9f24a6091bd27,69712dc693a3960bdb483245,69714714ec150213662dd7a8,,,,,,,,,,,,./stim/wavs/puertorican_match_declarative-broad-focus_Daniel-iba-a-Bolivia.wav,0,,,176.3391,178.6272,0,1,1.767,,0,52,52,63,1,64,0,puertorican,,,,,,,,,,,,,,,,,,,,,,,,,,,,,,,,,,,,,,,,,,,,,,,,,,,,,,,,
,,,,,,,,,5f42ac74bac9f24a6091bd27,Mexican,13 or older,"no, only English or Spanish",yes,2026-01-21_16h38.10.398,empathy_intonation_perc_control,2024.2.4,Win32,60.24096386,5f42ac74bac9f24a6091bd27,69712dc693a3960bdb483245,69714714ec150213662dd7a8,,,,,,,,,,,,./stim/wavs/castilian_match_declarative-broad-focus_David-leia-el-libro.wav,0,,,178.6281,184.3168,0,1,5.1708,,0,53,53,44,1,45,0,castilian,,,,,,,,,,,,,,,,,,,,,,,,,,,,,,,,,,,,,,,,,,,,,,,,,,,,,,,,
,,,,,,,,,5f42ac74bac9f24a6091bd27,Mexican,13 or older,"no, only English or Spanish",yes,2026-01-21_16h38.10.398,empathy_intonation_perc_control,2024.2.4,Win32,60.24096386,5f42ac74bac9f24a6091bd27,69712dc693a3960bdb483245,69714714ec150213662dd7a8,,,,,,,,,,,,./stim/wavs/castilian_mismatch_interrogative-total-yn_La-maestra-vive-en-Paris.wav,1,,,184.3174,187.2434,1,1,2.3996,,0,54,54,24,1,25,0,castilian,,,,,,,,,,,,,,,,,,,,,,,,,,,,,,,,,,,,,,,,,,,,,,,,,,,,,,,,
,,,,,,,,,5f42ac74bac9f24a6091bd27,Mexican,13 or older,"no, only English or Spanish",yes,2026-01-21_16h38.10.398,empathy_intonation_perc_control,2024.2.4,Win32,60.24096386,5f42ac74bac9f24a6091bd27,69712dc693a3960bdb483245,69714714ec150213662dd7a8,,,,,,,,,,,,./stim/wavs/castilian_mismatch_declarative-broad-focus_La-maestra-vive-en-Paris.wav,0,,,187.2443,189.6937,0,1,1.9184,,0,55,55,69,1,70,0,castilian,,,,,,,,,,,,,,,,,,,,,,,,,,,,,,,,,,,,,,,,,,,,,,,,,,,,,,,,
,,,,,,,,,5f42ac74bac9f24a6091bd27,Mexican,13 or older,"no, only English or Spanish",yes,2026-01-21_16h38.10.398,empathy_intonation_perc_control,2024.2.4,Win32,60.24096386,5f42ac74bac9f24a6091bd27,69712dc693a3960bdb483245,69714714ec150213662dd7a8,,,,,,,,,,,,./stim/wavs/cuban_match_declarative-broad-focus_Mariano-habla-del-tiempo.wav,0,,,189.6945,192.1688,0,1,1.9411,,0,56,56,54,1,55,0,cuban,,,,,,,,,,,,,,,,,,,,,,,,,,,,,,,,,,,,,,,,,,,,,,,,,,,,,,,,
,,,,,,,,,5f42ac74bac9f24a6091bd27,Mexican,13 or older,"no, only English or Spanish",yes,2026-01-21_16h38.10.398,empathy_intonation_perc_control,2024.2.4,Win32,60.24096386,5f42ac74bac9f24a6091bd27,69712dc693a3960bdb483245,69714714ec150213662dd7a8,,,,,,,,,,,,./stim/wavs/cuban_mismatch_interrogative-total-yn_El-nino-oye-el-rio.wav,1,,,192.1696,194.1438,0,0,1.4524,,0,57,57,30,1,31,1,cuban,,,,,,,,,,,,,,,,,,,,,,,,,,,,,,,,,,,,,,,,,,,,,,,,,,,,,,,,
,,,,,,,,,5f42ac74bac9f24a6091bd27,Mexican,13 or older,"no, only English or Spanish",yes,2026-01-21_16h38.10.398,empathy_intonation_perc_control,2024.2.4,Win32,60.24096386,5f42ac74bac9f24a6091bd27,69712dc693a3960bdb483245,69714714ec150213662dd7a8,,,,,,,,,,,,./stim/wavs/castilian_mismatch_interrogative-total-yn_Mi-novio-viene-del-lago.wav,1,,,194.1446,196.6595,0,0,1.9855,,0,58,58,27,1,28,0,castilian,,,,,,,,,,,,,,,,,,,,,,,,,,,,,,,,,,,,,,,,,,,,,,,,,,,,,,,,
,,,,,,,,,5f42ac74bac9f24a6091bd27,Mexican,13 or older,"no, only English or Spanish",yes,2026-01-21_16h38.10.398,empathy_intonation_perc_control,2024.2.4,Win32,60.24096386,5f42ac74bac9f24a6091bd27,69712dc693a3960bdb483245,69714714ec150213662dd7a8,,,,,,,,,,,,./stim/wavs/castilian_mismatch_interrogative-total-yn_La-nina-lava-el-plato.wav,1,,,196.6607,199.2179,1,1,2.0413,,0,59,59,25,1,26,0,castilian,,,,,,,,,,,,,,,,,,,,,,,,,,,,,,,,,,,,,,,,,,,,,,,,,,,,,,,,
,,,,,,,,,5f42ac74bac9f24a6091bd27,Mexican,13 or older,"no, only English or Spanish",yes,2026-01-21_16h38.10.398,empathy_intonation_perc_control,2024.2.4,Win32,60.24096386,5f42ac74bac9f24a6091bd27,69712dc693a3960bdb483245,69714714ec150213662dd7a8,,,,,,,,,,,,./stim/wavs/castilian_mismatch_declarative-broad-focus_Mi-tia-odia-la-lluvia.wav,0,,,199.2192,202.0602,0,1,2.3173,,0,60,60,72,1,73,0,castilian,,,,,,,,,,,,,,,,,,,,,,,,,,,,,,,,,,,,,,,,,,,,,,,,,,,,,,,,
,,,,,,,,,5f42ac74bac9f24a6091bd27,Mexican,13 or older,"no, only English or Spanish",yes,2026-01-21_16h38.10.398,empathy_intonation_perc_control,2024.2.4,Win32,60.24096386,5f42ac74bac9f24a6091bd27,69712dc693a3960bdb483245,69714714ec150213662dd7a8,,,,,,,,,,,,./stim/wavs/mexican_mismatch_declarative-broad-focus_El-bebe-comia-muy-bien.wav,0,,,202.0614,204.8008,0,1,2.2136,,0,61,61,78,1,79,0,mexican,,,,,,,,,,,,,,,,,,,,,,,,,,,,,,,,,,,,,,,,,,,,,,,,,,,,,,,,
,,,,,,,,,5f42ac74bac9f24a6091bd27,Mexican,13 or older,"no, only English or Spanish",yes,2026-01-21_16h38.10.398,empathy_intonation_perc_control,2024.2.4,Win32,60.24096386,5f42ac74bac9f24a6091bd27,69712dc693a3960bdb483245,69714714ec150213662dd7a8,,,,,,,,,,,,./stim/wavs/cuban_match_declarative-broad-focus_Manuela-vende-el-carro.wav,0,,,204.8025,208.3733,0,1,3.0564,,0,62,62,52,1,53,0,cuban,,,,,,,,,,,,,,,,,,,,,,,,,,,,,,,,,,,,,,,,,,,,,,,,,,,,,,,,
,,,,,,,,,5f42ac74bac9f24a6091bd27,Mexican,13 or older,"no, only English or Spanish",yes,2026-01-21_16h38.10.398,empathy_intonation_perc_control,2024.2.4,Win32,60.24096386,5f42ac74bac9f24a6091bd27,69712dc693a3960bdb483245,69714714ec150213662dd7a8,,,,,,,,,,,,./stim/wavs/mexican_mismatch_interrogative-total-yn_El-hombre-mira-la-luna.wav,1,,,208.3743,210.9379,1,1,2.0299,,0,63,63,34,1,35,0,mexican,,,,,,,,,,,,,,,,,,,,,,,,,,,,,,,,,,,,,,,,,,,,,,,,,,,,,,,,
,,,,,,,,,5f42ac74bac9f24a6091bd27,Mexican,13 or older,"no, only English or Spanish",yes,2026-01-21_16h38.10.398,empathy_intonation_perc_control,2024.2.4,Win32,60.24096386,5f42ac74bac9f24a6091bd27,69712dc693a3960bdb483245,69714714ec150213662dd7a8,,,,,,,,,,,,./stim/wavs/cuban_match_declarative-broad-focus_Maria-bebe-el-vino.wav,0,,,210.9383,213.4774,0,1,2.0171,,0,64,64,53,1,54,0,cuban,,,,,,,,,,,,,,,,,,,,,,,,,,,,,,,,,,,,,,,,,,,,,,,,,,,,,,,,
,,,,,,,,,5f42ac74bac9f24a6091bd27,Mexican,13 or older,"no, only English or Spanish",yes,2026-01-21_16h38.10.398,empathy_intonation_perc_control,2024.2.4,Win32,60.24096386,5f42ac74bac9f24a6091bd27,69712dc693a3960bdb483245,69714714ec150213662dd7a8,,,,,,,,,,,,./stim/wavs/mexican_mismatch_declarative-broad-focus_Mi-tia-odia-la-lluvia.wav,0,,,213.4784,215.9106,0,1,1.9096,,0,65,65,82,1,83,0,mexican,,,,,,,,,,,,,,,,,,,,,,,,,,,,,,,,,,,,,,,,,,,,,,,,,,,,,,,,
,,,,,,,,,5f42ac74bac9f24a6091bd27,Mexican,13 or older,"no, only English or Spanish",yes,2026-01-21_16h38.10.398,empathy_intonation_perc_control,2024.2.4,Win32,60.24096386,5f42ac74bac9f24a6091bd27,69712dc693a3960bdb483245,69714714ec150213662dd7a8,,,,,,,,,,,,./stim/wavs/puertorican_match_declarative-broad-focus_Ana-lleva-el-abrigo.wav,0,,,215.9114,217.893,0,1,1.4534,,0,66,66,62,1,63,0,puertorican,,,,,,,,,,,,,,,,,,,,,,,,,,,,,,,,,,,,,,,,,,,,,,,,,,,,,,,,
,,,,,,,,,5f42ac74bac9f24a6091bd27,Mexican,13 or older,"no, only English or Spanish",yes,2026-01-21_16h38.10.398,empathy_intonation_perc_control,2024.2.4,Win32,60.24096386,5f42ac74bac9f24a6091bd27,69712dc693a3960bdb483245,69714714ec150213662dd7a8,,,,,,,,,,,,./stim/wavs/castilian_match_interrogative-total-yn_Mariano-habla-del-tiempo.wav,1,,,217.8943,220.5675,1,1,2.1371,,0,67,67,4,1,5,0,castilian,,,,,,,,,,,,,,,,,,,,,,,,,,,,,,,,,,,,,,,,,,,,,,,,,,,,,,,,
,,,,,,,,,5f42ac74bac9f24a6091bd27,Mexican,13 or older,"no, only English or Spanish",yes,2026-01-21_16h38.10.398,empathy_intonation_perc_control,2024.2.4,Win32,60.24096386,5f42ac74bac9f24a6091bd27,69712dc693a3960bdb483245,69714714ec150213662dd7a8,,,,,,,,,,,,./stim/wavs/castilian_match_declarative-broad-focus_Maria-bebe-el-vino.wav,0,,,220.5683,222.8348,0,1,1.7347,,0,68,68,47,1,48,0,castilian,,,,,,,,,,,,,,,,,,,,,,,,,,,,,,,,,,,,,,,,,,,,,,,,,,,,,,,,
,,,,,,,,,5f42ac74bac9f24a6091bd27,Mexican,13 or older,"no, only English or Spanish",yes,2026-01-21_16h38.10.398,empathy_intonation_perc_control,2024.2.4,Win32,60.24096386,5f42ac74bac9f24a6091bd27,69712dc693a3960bdb483245,69714714ec150213662dd7a8,,,,,,,,,,,,./stim/wavs/cuban_match_interrogative-total-yn_Ana-lleva-el-abrigo.wav,1,,,222.8357,224.834,0,0,1.4674,,0,69,69,6,1,7,1,cuban,,,,,,,,,,,,,,,,,,,,,,,,,,,,,,,,,,,,,,,,,,,,,,,,,,,,,,,,
,,,,,,,,,5f42ac74bac9f24a6091bd27,Mexican,13 or older,"no, only English or Spanish",yes,2026-01-21_16h38.10.398,empathy_intonation_perc_control,2024.2.4,Win32,60.24096386,5f42ac74bac9f24a6091bd27,69712dc693a3960bdb483245,69714714ec150213662dd7a8,,,,,,,,,,,,./stim/wavs/cuban_mismatch_declarative-broad-focus_La-nina-lava-el-plato.wav,0,,,224.8353,227.3272,0,1,1.9543,,0,70,70,75,1,76,0,cuban,,,,,,,,,,,,,,,,,,,,,,,,,,,,,,,,,,,,,,,,,,,,,,,,,,,,,,,,
,,,,,,,,,5f42ac74bac9f24a6091bd27,Mexican,13 or older,"no, only English or Spanish",yes,2026-01-21_16h38.10.398,empathy_intonation_perc_control,2024.2.4,Win32,60.24096386,5f42ac74bac9f24a6091bd27,69712dc693a3960bdb483245,69714714ec150213662dd7a8,,,,,,,,,,,,./stim/wavs/castilian_match_declarative-broad-focus_Emilio-ama-la-marcha.wav,0,,,227.3284,229.7677,0,1,1.9232,,0,71,71,45,1,46,0,castilian,,,,,,,,,,,,,,,,,,,,,,,,,,,,,,,,,,,,,,,,,,,,,,,,,,,,,,,,
,,,,,,,,,5f42ac74bac9f24a6091bd27,Mexican,13 or older,"no, only English or Spanish",yes,2026-01-21_16h38.10.398,empathy_intonation_perc_control,2024.2.4,Win32,60.24096386,5f42ac74bac9f24a6091bd27,69712dc693a3960bdb483245,69714714ec150213662dd7a8,,,,,,,,,,,,./stim/wavs/cuban_mismatch_interrogative-total-yn_El-hombre-mira-la-luna.wav,1,,,229.7691,231.9236,1,1,1.6301,,0,72,72,29,1,30,1,cuban,,,,,,,,,,,,,,,,,,,,,,,,,,,,,,,,,,,,,,,,,,,,,,,,,,,,,,,,
,,,,,,,,,5f42ac74bac9f24a6091bd27,Mexican,13 or older,"no, only English or Spanish",yes,2026-01-21_16h38.10.398,empathy_intonation_perc_control,2024.2.4,Win32,60.24096386,5f42ac74bac9f24a6091bd27,69712dc693a3960bdb483245,69714714ec150213662dd7a8,,,,,,,,,,,,./stim/wavs/cuban_match_declarative-broad-focus_Marta-abre-el-regalo.wav,0,,,231.9247,234.24,0,1,1.8046,,0,73,73,55,1,56,0,cuban,,,,,,,,,,,,,,,,,,,,,,,,,,,,,,,,,,,,,,,,,,,,,,,,,,,,,,,,
,,,,,,,,,5f42ac74bac9f24a6091bd27,Mexican,13 or older,"no, only English or Spanish",yes,2026-01-21_16h38.10.398,empathy_intonation_perc_control,2024.2.4,Win32,60.24096386,5f42ac74bac9f24a6091bd27,69712dc693a3960bdb483245,69714714ec150213662dd7a8,,,,,,,,,,,,./stim/wavs/castilian_match_declarative-broad-focus_Mariano-habla-del-tiempo.wav,0,,,234.2406,236.6767,0,1,1.9168,,0,74,74,48,1,49,0,castilian,,,,,,,,,,,,,,,,,,,,,,,,,,,,,,,,,,,,,,,,,,,,,,,,,,,,,,,,
,,,,,,,,,5f42ac74bac9f24a6091bd27,Mexican,13 or older,"no, only English or Spanish",yes,2026-01-21_16h38.10.398,empathy_intonation_perc_control,2024.2.4,Win32,60.24096386,5f42ac74bac9f24a6091bd27,69712dc693a3960bdb483245,69714714ec150213662dd7a8,,,,,,,,,,,,./stim/wavs/puertorican_mismatch_interrogative-total-yn_La-nina-lava-el-plato.wav,1,,,236.6777,240.0611,0,0,2.8677,,0,75,75,42,1,43,1,puertorican,,,,,,,,,,,,,,,,,,,,,,,,,,,,,,,,,,,,,,,,,,,,,,,,,,,,,,,,
,,,,,,,,,5f42ac74bac9f24a6091bd27,Mexican,13 or older,"no, only English or Spanish",yes,2026-01-21_16h38.10.398,empathy_intonation_perc_control,2024.2.4,Win32,60.24096386,5f42ac74bac9f24a6091bd27,69712dc693a3960bdb483245,69714714ec150213662dd7a8,,,,,,,,,,,,./stim/wavs/mexican_match_declarative-broad-focus_Mariano-habla-del-tiempo.wav,0,,,240.0618,244.1844,0,1,3.5854,,0,76,76,60,1,61,0,mexican,,,,,,,,,,,,,,,,,,,,,,,,,,,,,,,,,,,,,,,,,,,,,,,,,,,,,,,,
,,,,,,,,,5f42ac74bac9f24a6091bd27,Mexican,13 or older,"no, only English or Spanish",yes,2026-01-21_16h38.10.398,empathy_intonation_perc_control,2024.2.4,Win32,60.24096386,5f42ac74bac9f24a6091bd27,69712dc693a3960bdb483245,69714714ec150213662dd7a8,,,,,,,,,,,,./stim/wavs/cuban_match_declarative-broad-focus_Daniel-iba-a-Bolivia.wav,0,,,244.1861,247.0175,0,1,2.2833,,0,77,77,51,1,52,0,cuban,,,,,,,,,,,,,,,,,,,,,,,,,,,,,,,,,,,,,,,,,,,,,,,,,,,,,,,,
,,,,,,,,,5f42ac74bac9f24a6091bd27,Mexican,13 or older,"no, only English or Spanish",yes,2026-01-21_16h38.10.398,empathy_intonation_perc_control,2024.2.4,Win32,60.24096386,5f42ac74bac9f24a6091bd27,69712dc693a3960bdb483245,69714714ec150213662dd7a8,,,,,,,,,,,,./stim/wavs/cuban_match_interrogative-total-yn_Daniel-iba-a-Bolivia.wav,1,,,247.0187,249.6179,0,0,2.0715,,0,78,78,7,1,8,1,cuban,,,,,,,,,,,,,,,,,,,,,,,,,,,,,,,,,,,,,,,,,,,,,,,,,,,,,,,,
,,,,,,,,,5f42ac74bac9f24a6091bd27,Mexican,13 or older,"no, only English or Spanish",yes,2026-01-21_16h38.10.398,empathy_intonation_perc_control,2024.2.4,Win32,60.24096386,5f42ac74bac9f24a6091bd27,69712dc693a3960bdb483245,69714714ec150213662dd7a8,,,,,,,,,,,,./stim/wavs/cuban_match_interrogative-total-yn_Marta-abre-el-regalo.wav,1,,,249.6194,252.3605,0,0,2.2168,,0,79,79,11,1,12,1,cuban,,,,,,,,,,,,,,,,,,,,,,,,,,,,,,,,,,,,,,,,,,,,,,,,,,,,,,,,
,,,,,,,,,5f42ac74bac9f24a6091bd27,Mexican,13 or older,"no, only English or Spanish",yes,2026-01-21_16h38.10.398,empathy_intonation_perc_control,2024.2.4,Win32,60.24096386,5f42ac74bac9f24a6091bd27,69712dc693a3960bdb483245,69714714ec150213662dd7a8,,,,,,,,,,,,./stim/wavs/castilian_mismatch_interrogative-total-yn_Mi-madre-come-la-fruta.wav,1,,,252.3614,255.5272,1,1,2.6335,,0,80,80,26,1,27,0,castilian,,,,,,,,,,,,,,,,,,,,,,,,,,,,,,,,,,,,,,,,,,,,,,,,,,,,,,,,
,,,,,,,,,5f42ac74bac9f24a6091bd27,Mexican,13 or older,"no, only English or Spanish",yes,2026-01-21_16h38.10.398,empathy_intonation_perc_control,2024.2.4,Win32,60.24096386,5f42ac74bac9f24a6091bd27,69712dc693a3960bdb483245,69714714ec150213662dd7a8,,,,,,,,,,,,./stim/wavs/cuban_match_interrogative-total-yn_Maria-bebe-el-vino.wav,1,,,255.5285,259.4423,0,0,3.3933,,0,81,81,9,1,10,1,cuban,,,,,,,,,,,,,,,,,,,,,,,,,,,,,,,,,,,,,,,,,,,,,,,,,,,,,,,,
,,,,,,,,,5f42ac74bac9f24a6091bd27,Mexican,13 or older,"no, only English or Spanish",yes,2026-01-21_16h38.10.398,empathy_intonation_perc_control,2024.2.4,Win32,60.24096386,5f42ac74bac9f24a6091bd27,69712dc693a3960bdb483245,69714714ec150213662dd7a8,,,,,,,,,,,,./stim/wavs/mexican_mismatch_interrogative-total-yn_El-nino-oye-el-rio.wav,1,,,259.4436,261.9772,1,1,2.0182,,0,82,82,35,1,36,0,mexican,,,,,,,,,,,,,,,,,,,,,,,,,,,,,,,,,,,,,,,,,,,,,,,,,,,,,,,,
,,,,,,,,,5f42ac74bac9f24a6091bd27,Mexican,13 or older,"no, only English or Spanish",yes,2026-01-21_16h38.10.398,empathy_intonation_perc_control,2024.2.4,Win32,60.24096386,5f42ac74bac9f24a6091bd27,69712dc693a3960bdb483245,69714714ec150213662dd7a8,,,,,,,,,,,,./stim/wavs/mexican_mismatch_interrogative-total-yn_Mi-novio-viene-del-lago.wav,1,,,261.9784,264.977,1,1,2.4694,,0,83,83,37,1,38,0,mexican,,,,,,,,,,,,,,,,,,,,,,,,,,,,,,,,,,,,,,,,,,,,,,,,,,,,,,,,
,,,,,,,,,5f42ac74bac9f24a6091bd27,Mexican,13 or older,"no, only English or Spanish",yes,2026-01-21_16h38.10.398,empathy_intonation_perc_control,2024.2.4,Win32,60.24096386,5f42ac74bac9f24a6091bd27,69712dc693a3960bdb483245,69714714ec150213662dd7a8,,,,,,,,,,,,./stim/wavs/puertorican_mismatch_interrogative-total-yn_La-maestra-vive-en-Paris.wav,1,,,264.9781,267.5441,0,0,2.051,,0,84,84,41,1,42,1,puertorican,,,,,,,,,,,,,,,,,,,,,,,,,,,,,,,,,,,,,,,,,,,,,,,,,,,,,,,,
,,,,,,,,,5f42ac74bac9f24a6091bd27,Mexican,13 or older,"no, only English or Spanish",yes,2026-01-21_16h38.10.398,empathy_intonation_perc_control,2024.2.4,Win32,60.24096386,5f42ac74bac9f24a6091bd27,69712dc693a3960bdb483245,69714714ec150213662dd7a8,,,,,,,,,,,,./stim/wavs/puertorican_mismatch_interrogative-total-yn_Mi-madre-come-la-fruta.wav,1,,,267.5446,269.7103,0,0,1.6494,,0,85,85,43,1,44,1,puertorican,,,,,,,,,,,,,,,,,,,,,,,,,,,,,,,,,,,,,,,,,,,,,,,,,,,,,,,,
,,,,,,,,,5f42ac74bac9f24a6091bd27,Mexican,13 or older,"no, only English or Spanish",yes,2026-01-21_16h38.10.398,empathy_intonation_perc_control,2024.2.4,Win32,60.24096386,5f42ac74bac9f24a6091bd27,69712dc693a3960bdb483245,69714714ec150213662dd7a8,,,,,,,,,,,,./stim/wavs/castilian_match_interrogative-total-yn_Manuela-vende-el-carro.wav,1,,,269.7117,272.2005,1,1,1.9694,,0,86,86,2,1,3,0,castilian,,,,,,,,,,,,,,,,,,,,,,,,,,,,,,,,,,,,,,,,,,,,,,,,,,,,,,,,
,,,,,,,,,5f42ac74bac9f24a6091bd27,Mexican,13 or older,"no, only English or Spanish",yes,2026-01-21_16h38.10.398,empathy_intonation_perc_control,2024.2.4,Win32,60.24096386,5f42ac74bac9f24a6091bd27,69712dc693a3960bdb483245,69714714ec150213662dd7a8,,,,,,,,,,,,./stim/wavs/mexican_match_interrogative-total-yn_Mariano-habla-del-tiempo.wav,1,,,272.2016,274.584,1,1,1.837,,0,87,87,16,1,17,0,mexican,,,,,,,,,,,,,,,,,,,,,,,,,,,,,,,,,,,,,,,,,,,,,,,,,,,,,,,,
,,,,,,,"Great! Now we will move on. The next task consists of about 60 trials, in each of which you will see a string of letters. 
  
  Your task is to decide whether this is a real Spanish word or not.", (press the spacebar to continue),5f42ac74bac9f24a6091bd27,Mexican,13 or older,"no, only English or Spanish",yes,2026-01-21_16h38.10.398,empathy_intonation_perc_control,2024.2.4,Win32,60.24096386,5f42ac74bac9f24a6091bd27,69712dc693a3960bdb483245,69714714ec150213662dd7a8,,,,,,,,,,,,,,,,,,,,,,,,,,,,,,274.594,285.7681,0,0,0,0,1,,,,,,,,,,,,,,,,,,,,,,,,,,,,,,,,,,,,,,,,,,,,,,,,,
,,,,,,,"If you think it is an existing Spanish word, you type '1' (for 'REAL'), and if you think it is not an existing Spanish word, you type '0' (for 'FAKE').", (press the spacebar to continue),5f42ac74bac9f24a6091bd27,Mexican,13 or older,"no, only English or Spanish",yes,2026-01-21_16h38.10.398,empathy_intonation_perc_control,2024.2.4,Win32,60.24096386,5f42ac74bac9f24a6091bd27,69712dc693a3960bdb483245,69714714ec150213662dd7a8,,,,,,,,,,,,,,,,,,,,,,,,,,,,,,285.7709,288.585,0,1,1,1,1,,,,,,,,,,,,,,,,,,,,,,,,,,,,,,,,,,,,,,,,,,,,,,,,,
,,,,,,,"If you are sure that the word exists, even though you don’t know its exact meaning, you may still respond '1' (REAL). 
  
  But if you are not sure if it is an existing word, you should respond '0' (FAKE).
  
  Let's do a practice round...", (press the spacebar to continue),5f42ac74bac9f24a6091bd27,Mexican,13 or older,"no, only English or Spanish",yes,2026-01-21_16h38.10.398,empathy_intonation_perc_control,2024.2.4,Win32,60.24096386,5f42ac74bac9f24a6091bd27,69712dc693a3960bdb483245,69714714ec150213662dd7a8,,,,,,,,,,,,,,,,,,,,,,,,,,,,,,288.5876,296.3349,0,2,2,2,1,,,,,,,,,,,,,,,,,,,,,,,,,,,,,,,,,,,,,,,,,,,,,,,,,
,,,,,,,,,5f42ac74bac9f24a6091bd27,Mexican,13 or older,"no, only English or Spanish",yes,2026-01-21_16h38.10.398,empathy_intonation_perc_control,2024.2.4,Win32,60.24096386,5f42ac74bac9f24a6091bd27,69712dc693a3960bdb483245,69714714ec150213662dd7a8,,,,,,,,,,,,,0,,,,,,,,,,,,,,,,,,,,,,,,296.3432,298.5108,1,0,1.6293,,298.5113,299.5079,0,0,0,0,1,0,depiste,REAL,FAKE,,,,,,,,,,,,,,,,,,,,,,,,,,,,,,,,
,,,,,,,,,5f42ac74bac9f24a6091bd27,Mexican,13 or older,"no, only English or Spanish",yes,2026-01-21_16h38.10.398,empathy_intonation_perc_control,2024.2.4,Win32,60.24096386,5f42ac74bac9f24a6091bd27,69712dc693a3960bdb483245,69714714ec150213662dd7a8,,,,,,,,,,,,,1,,,,,,,,,,,,,,,,,,,,,,,,299.5104,300.7589,1,1,0.7157,,300.7599,301.7599,0,1,1,1,1,0,sí,REAL,FAKE,,,,,,,,,,,,,,,,,,,,,,,,,,,,,,,,
,,,,,,,,,5f42ac74bac9f24a6091bd27,Mexican,13 or older,"no, only English or Spanish",yes,2026-01-21_16h38.10.398,empathy_intonation_perc_control,2024.2.4,Win32,60.24096386,5f42ac74bac9f24a6091bd27,69712dc693a3960bdb483245,69714714ec150213662dd7a8,,,,,,,,,,,,,0,,,,,,,,,,,,,,,,,,,,,,,,301.7621,303.1334,0,1,0.8324,,303.1335,304.1271,0,2,2,2,1,0,coné,REAL,FAKE,,,,,,,,,,,,,,,,,,,,,,,,,,,,,,,,
,,,,,,,,,5f42ac74bac9f24a6091bd27,Mexican,13 or older,"no, only English or Spanish",yes,2026-01-21_16h38.10.398,empathy_intonation_perc_control,2024.2.4,Win32,60.24096386,5f42ac74bac9f24a6091bd27,69712dc693a3960bdb483245,69714714ec150213662dd7a8,,,,,,,,,,,,,0,,,,,,,,,,,,,,,,,,,,,,,,304.1289,305.4738,0,1,0.8139,,305.4738,306.4676,0,3,3,3,1,0,calpar,REAL,FAKE,,,,,,,,,,,,,,,,,,,,,,,,,,,,,,,,
,,,,,,,,,5f42ac74bac9f24a6091bd27,Mexican,13 or older,"no, only English or Spanish",yes,2026-01-21_16h38.10.398,empathy_intonation_perc_control,2024.2.4,Win32,60.24096386,5f42ac74bac9f24a6091bd27,69712dc693a3960bdb483245,69714714ec150213662dd7a8,,,,,,,,,,,,,0,,,,,,,,,,,,,,,,,,,,,,,,306.4702,307.9722,1,0,0.9617,,307.9733,308.968,0,4,4,4,1,0,joten,REAL,FAKE,,,,,,,,,,,,,,,,,,,,,,,,,,,,,,,,
,,,,,,,,,5f42ac74bac9f24a6091bd27,Mexican,13 or older,"no, only English or Spanish",yes,2026-01-21_16h38.10.398,empathy_intonation_perc_control,2024.2.4,Win32,60.24096386,5f42ac74bac9f24a6091bd27,69712dc693a3960bdb483245,69714714ec150213662dd7a8,,,,,,,,,,,,,1,,,,,,,,,,,,,,,,,,,,,,,,308.9695,310.9187,1,1,1.4152,,310.9195,311.9182,0,5,5,5,1,0,sacapuntas,REAL,FAKE,,,,,,,,,,,,,,,,,,,,,,,,,,,,,,,,
,,,,,,,,,5f42ac74bac9f24a6091bd27,Mexican,13 or older,"no, only English or Spanish",yes,2026-01-21_16h38.10.398,empathy_intonation_perc_control,2024.2.4,Win32,60.24096386,5f42ac74bac9f24a6091bd27,69712dc693a3960bdb483245,69714714ec150213662dd7a8,,,,,,,,,,,,,0,,,,,,,,,,,,,,,,,,,,,,,,311.9195,313.6849,0,1,1.2296,,313.685,314.6842,0,6,6,6,1,0,priba,REAL,FAKE,,,,,,,,,,,,,,,,,,,,,,,,,,,,,,,,
,,,,,,,,,5f42ac74bac9f24a6091bd27,Mexican,13 or older,"no, only English or Spanish",yes,2026-01-21_16h38.10.398,empathy_intonation_perc_control,2024.2.4,Win32,60.24096386,5f42ac74bac9f24a6091bd27,69712dc693a3960bdb483245,69714714ec150213662dd7a8,,,,,,,,,,,,,0,,,,,,,,,,,,,,,,,,,,,,,,314.6859,316.4343,0,1,1.2159,,316.4343,317.4347,0,7,7,7,1,0,pelasula,REAL,FAKE,,,,,,,,,,,,,,,,,,,,,,,,,,,,,,,,
,,,,,,,,,5f42ac74bac9f24a6091bd27,Mexican,13 or older,"no, only English or Spanish",yes,2026-01-21_16h38.10.398,empathy_intonation_perc_control,2024.2.4,Win32,60.24096386,5f42ac74bac9f24a6091bd27,69712dc693a3960bdb483245,69714714ec150213662dd7a8,,,,,,,,,,,,,1,,,,,,,,,,,,,,,,,,,,,,,,317.4366,318.6835,1,1,0.7108,,318.6836,319.6844,0,8,8,8,1,0,bien,REAL,FAKE,,,,,,,,,,,,,,,,,,,,,,,,,,,,,,,,
,,,,,,,,,5f42ac74bac9f24a6091bd27,Mexican,13 or older,"no, only English or Spanish",yes,2026-01-21_16h38.10.398,empathy_intonation_perc_control,2024.2.4,Win32,60.24096386,5f42ac74bac9f24a6091bd27,69712dc693a3960bdb483245,69714714ec150213662dd7a8,,,,,,,,,,,,,1,,,,,,,,,,,,,,,,,,,,,,,,319.6859,320.9845,1,1,0.7648,,320.9845,321.9845,0,9,9,9,1,0,casa,REAL,FAKE,,,,,,,,,,,,,,,,,,,,,,,,,,,,,,,,
,,,,,,,,,5f42ac74bac9f24a6091bd27,Mexican,13 or older,"no, only English or Spanish",yes,2026-01-21_16h38.10.398,empathy_intonation_perc_control,2024.2.4,Win32,60.24096386,5f42ac74bac9f24a6091bd27,69712dc693a3960bdb483245,69714714ec150213662dd7a8,,,,,,,,,,,,,0,,,,,,,,,,,,,,,,,,,,,,,,321.9863,323.3344,1,0,0.8158,,323.3357,324.3348,0,10,10,10,1,0,lejo,REAL,FAKE,,,,,,,,,,,,,,,,,,,,,,,,,,,,,,,,
,,,,,,,,,5f42ac74bac9f24a6091bd27,Mexican,13 or older,"no, only English or Spanish",yes,2026-01-21_16h38.10.398,empathy_intonation_perc_control,2024.2.4,Win32,60.24096386,5f42ac74bac9f24a6091bd27,69712dc693a3960bdb483245,69714714ec150213662dd7a8,,,,,,,,,,,,,0,,,,,,,,,,,,,,,,,,,,,,,,324.3366,326.1866,1,0,1.3214,,326.1867,327.1844,0,11,11,11,1,0,pretantas,REAL,FAKE,,,,,,,,,,,,,,,,,,,,,,,,,,,,,,,,
,,,,,,,,,5f42ac74bac9f24a6091bd27,Mexican,13 or older,"no, only English or Spanish",yes,2026-01-21_16h38.10.398,empathy_intonation_perc_control,2024.2.4,Win32,60.24096386,5f42ac74bac9f24a6091bd27,69712dc693a3960bdb483245,69714714ec150213662dd7a8,,,,,,,,,,,,,,,,,,,,,,,,,,,,,,,,,,,,,,,,,,,,,,,,,,,,,,327.1848,328.2853,,,,,,,,,,,,,,,,,,,,,,,,,,,,,,
,,,,,,,,,5f42ac74bac9f24a6091bd27,Mexican,13 or older,"no, only English or Spanish",yes,2026-01-21_16h38.10.398,empathy_intonation_perc_control,2024.2.4,Win32,60.24096386,5f42ac74bac9f24a6091bd27,69712dc693a3960bdb483245,69714714ec150213662dd7a8,,,,,,,,,,,,,1,,,,,,,,,,,,,,,,,,,,,,,,,,,,,,,,,,,,,38,estornudar,,,,,328.3023,330.4511,0,0,1.6145,,0,0,0,37,1,REAL,FAKE,,,,,,,,,,,,,,,,,
,,,,,,,,,5f42ac74bac9f24a6091bd27,Mexican,13 or older,"no, only English or Spanish",yes,2026-01-21_16h38.10.398,empathy_intonation_perc_control,2024.2.4,Win32,60.24096386,5f42ac74bac9f24a6091bd27,69712dc693a3960bdb483245,69714714ec150213662dd7a8,,,,,,,,,,,,,0,,,,,,,,,,,,,,,,,,,,,,,,,,,,,,,,,,,,,10,antar,,,,,330.4522,332.3181,0,1,1.3294,,0,1,1,9,1,REAL,FAKE,,,,,,,,,,,,,,,,,
,,,,,,,,,5f42ac74bac9f24a6091bd27,Mexican,13 or older,"no, only English or Spanish",yes,2026-01-21_16h38.10.398,empathy_intonation_perc_control,2024.2.4,Win32,60.24096386,5f42ac74bac9f24a6091bd27,69712dc693a3960bdb483245,69714714ec150213662dd7a8,,,,,,,,,,,,,0,,,,,,,,,,,,,,,,,,,,,,,,,,,,,,,,,,,,,79,tropaje,,,,,332.3199,334.0667,0,1,1.2129,,0,2,2,78,1,REAL,FAKE,,,,,,,,,,,,,,,,,
,,,,,,,,,5f42ac74bac9f24a6091bd27,Mexican,13 or older,"no, only English or Spanish",yes,2026-01-21_16h38.10.398,empathy_intonation_perc_control,2024.2.4,Win32,60.24096386,5f42ac74bac9f24a6091bd27,69712dc693a3960bdb483245,69714714ec150213662dd7a8,,,,,,,,,,,,,0,,,,,,,,,,,,,,,,,,,,,,,,,,,,,,,,,,,,,16,abracer,,,,,334.0672,335.9426,1,0,1.3608,,0,3,3,15,1,REAL,FAKE,,,,,,,,,,,,,,,,,
,,,,,,,,,5f42ac74bac9f24a6091bd27,Mexican,13 or older,"no, only English or Spanish",yes,2026-01-21_16h38.10.398,empathy_intonation_perc_control,2024.2.4,Win32,60.24096386,5f42ac74bac9f24a6091bd27,69712dc693a3960bdb483245,69714714ec150213662dd7a8,,,,,,,,,,,,,1,,,,,,,,,,,,,,,,,,,,,,,,,,,,,,,,,,,,,28,merodear,,,,,335.9432,337.71,0,0,1.2335,,0,4,4,27,1,REAL,FAKE,,,,,,,,,,,,,,,,,
,,,,,,,,,5f42ac74bac9f24a6091bd27,Mexican,13 or older,"no, only English or Spanish",yes,2026-01-21_16h38.10.398,empathy_intonation_perc_control,2024.2.4,Win32,60.24096386,5f42ac74bac9f24a6091bd27,69712dc693a3960bdb483245,69714714ec150213662dd7a8,,,,,,,,,,,,,1,,,,,,,,,,,,,,,,,,,,,,,,,,,,,,,,,,,,,5,zapato,,,,,337.7124,339.0599,1,1,0.8327,,0,5,5,4,1,REAL,FAKE,,,,,,,,,,,,,,,,,
,,,,,,,,,5f42ac74bac9f24a6091bd27,Mexican,13 or older,"no, only English or Spanish",yes,2026-01-21_16h38.10.398,empathy_intonation_perc_control,2024.2.4,Win32,60.24096386,5f42ac74bac9f24a6091bd27,69712dc693a3960bdb483245,69714714ec150213662dd7a8,,,,,,,,,,,,,0,,,,,,,,,,,,,,,,,,,,,,,,,,,,,,,,,,,,,47,cartinar,,,,,339.0611,340.4099,1,0,0.817,,0,6,6,46,1,REAL,FAKE,,,,,,,,,,,,,,,,,
,,,,,,,,,5f42ac74bac9f24a6091bd27,Mexican,13 or older,"no, only English or Spanish",yes,2026-01-21_16h38.10.398,empathy_intonation_perc_control,2024.2.4,Win32,60.24096386,5f42ac74bac9f24a6091bd27,69712dc693a3960bdb483245,69714714ec150213662dd7a8,,,,,,,,,,,,,1,,,,,,,,,,,,,,,,,,,,,,,,,,,,,,,,,,,,,37,granuja,,,,,340.4115,342.6942,1,1,1.7507,,0,7,7,36,1,REAL,FAKE,,,,,,,,,,,,,,,,,
,,,,,,,,,5f42ac74bac9f24a6091bd27,Mexican,13 or older,"no, only English or Spanish",yes,2026-01-21_16h38.10.398,empathy_intonation_perc_control,2024.2.4,Win32,60.24096386,5f42ac74bac9f24a6091bd27,69712dc693a3960bdb483245,69714714ec150213662dd7a8,,,,,,,,,,,,,1,,,,,,,,,,,,,,,,,,,,,,,,,,,,,,,,,,,,,44,cuchara,,,,,342.6954,345.276,1,1,2.0513,,0,8,8,43,1,REAL,FAKE,,,,,,,,,,,,,,,,,
,,,,,,,,,5f42ac74bac9f24a6091bd27,Mexican,13 or older,"no, only English or Spanish",yes,2026-01-21_16h38.10.398,empathy_intonation_perc_control,2024.2.4,Win32,60.24096386,5f42ac74bac9f24a6091bd27,69712dc693a3960bdb483245,69714714ec150213662dd7a8,,,,,,,,,,,,,1,,,,,,,,,,,,,,,,,,,,,,,,,,,,,,,,,,,,,88,acantilado,,,,,345.2771,347.3938,0,0,1.5845,,0,9,9,87,1,REAL,FAKE,,,,,,,,,,,,,,,,,
,,,,,,,,,5f42ac74bac9f24a6091bd27,Mexican,13 or older,"no, only English or Spanish",yes,2026-01-21_16h38.10.398,empathy_intonation_perc_control,2024.2.4,Win32,60.24096386,5f42ac74bac9f24a6091bd27,69712dc693a3960bdb483245,69714714ec150213662dd7a8,,,,,,,,,,,,,1,,,,,,,,,,,,,,,,,,,,,,,,,,,,,,,,,,,,,40,alfombra,,,,,347.3952,349.0606,0,0,1.1346,,0,10,10,39,1,REAL,FAKE,,,,,,,,,,,,,,,,,
,,,,,,,,,5f42ac74bac9f24a6091bd27,Mexican,13 or older,"no, only English or Spanish",yes,2026-01-21_16h38.10.398,empathy_intonation_perc_control,2024.2.4,Win32,60.24096386,5f42ac74bac9f24a6091bd27,69712dc693a3960bdb483245,69714714ec150213662dd7a8,,,,,,,,,,,,,0,,,,,,,,,,,,,,,,,,,,,,,,,,,,,,,,,,,,,92,click the 0 key.,,,,,349.0626,351.143,0,1,1.5507,,0,11,11,91,1,REAL,FAKE,,,,,,,,,,,,,,,,,
,,,,,,,,,5f42ac74bac9f24a6091bd27,Mexican,13 or older,"no, only English or Spanish",yes,2026-01-21_16h38.10.398,empathy_intonation_perc_control,2024.2.4,Win32,60.24096386,5f42ac74bac9f24a6091bd27,69712dc693a3960bdb483245,69714714ec150213662dd7a8,,,,,,,,,,,,,1,,,,,,,,,,,,,,,,,,,,,,,,,,,,,,,,,,,,,41,rebuscar,,,,,351.1448,353.8435,1,1,2.1676,,0,12,12,40,1,REAL,FAKE,,,,,,,,,,,,,,,,,
,,,,,,,,,5f42ac74bac9f24a6091bd27,Mexican,13 or older,"no, only English or Spanish",yes,2026-01-21_16h38.10.398,empathy_intonation_perc_control,2024.2.4,Win32,60.24096386,5f42ac74bac9f24a6091bd27,69712dc693a3960bdb483245,69714714ec150213662dd7a8,,,,,,,,,,,,,1,,,,,,,,,,,,,,,,,,,,,,,,,,,,,,,,,,,,,55,nevar,,,,,353.845,355.8104,0,0,1.4338,,0,13,13,54,1,REAL,FAKE,,,,,,,,,,,,,,,,,
,,,,,,,,,5f42ac74bac9f24a6091bd27,Mexican,13 or older,"no, only English or Spanish",yes,2026-01-21_16h38.10.398,empathy_intonation_perc_control,2024.2.4,Win32,60.24096386,5f42ac74bac9f24a6091bd27,69712dc693a3960bdb483245,69714714ec150213662dd7a8,,,,,,,,,,,,,1,,,,,,,,,,,,,,,,,,,,,,,,,,,,,,,,,,,,,54,fomentar,,,,,355.812,357.6774,1,1,1.3343,,0,14,14,53,1,REAL,FAKE,,,,,,,,,,,,,,,,,
,,,,,,,,,5f42ac74bac9f24a6091bd27,Mexican,13 or older,"no, only English or Spanish",yes,2026-01-21_16h38.10.398,empathy_intonation_perc_control,2024.2.4,Win32,60.24096386,5f42ac74bac9f24a6091bd27,69712dc693a3960bdb483245,69714714ec150213662dd7a8,,,,,,,,,,,,,1,,,,,,,,,,,,,,,,,,,,,,,,,,,,,,,,,,,,,52,camisa,,,,,357.6787,358.9268,1,1,0.717,,0,15,15,51,1,REAL,FAKE,,,,,,,,,,,,,,,,,
,,,,,,,,,5f42ac74bac9f24a6091bd27,Mexican,13 or older,"no, only English or Spanish",yes,2026-01-21_16h38.10.398,empathy_intonation_perc_control,2024.2.4,Win32,60.24096386,5f42ac74bac9f24a6091bd27,69712dc693a3960bdb483245,69714714ec150213662dd7a8,,,,,,,,,,,,,1,,,,,,,,,,,,,,,,,,,,,,,,,,,,,,,,,,,,,89,prisa,,,,,358.928,360.327,1,1,0.8676,,0,16,16,88,1,REAL,FAKE,,,,,,,,,,,,,,,,,
,,,,,,,,,5f42ac74bac9f24a6091bd27,Mexican,13 or older,"no, only English or Spanish",yes,2026-01-21_16h38.10.398,empathy_intonation_perc_control,2024.2.4,Win32,60.24096386,5f42ac74bac9f24a6091bd27,69712dc693a3960bdb483245,69714714ec150213662dd7a8,,,,,,,,,,,,,0,,,,,,,,,,,,,,,,,,,,,,,,,,,,,,,,,,,,,58,plaudir,,,,,360.3285,362.044,0,1,1.1844,,0,17,17,57,1,REAL,FAKE,,,,,,,,,,,,,,,,,
,,,,,,,,,5f42ac74bac9f24a6091bd27,Mexican,13 or older,"no, only English or Spanish",yes,2026-01-21_16h38.10.398,empathy_intonation_perc_control,2024.2.4,Win32,60.24096386,5f42ac74bac9f24a6091bd27,69712dc693a3960bdb483245,69714714ec150213662dd7a8,,,,,,,,,,,,,1,,,,,,,,,,,,,,,,,,,,,,,,,,,,,,,,,,,,,71,polvoriento,,,,,362.0452,363.6941,0,0,1.1177,,0,18,18,70,1,REAL,FAKE,,,,,,,,,,,,,,,,,
,,,,,,,,,5f42ac74bac9f24a6091bd27,Mexican,13 or older,"no, only English or Spanish",yes,2026-01-21_16h38.10.398,empathy_intonation_perc_control,2024.2.4,Win32,60.24096386,5f42ac74bac9f24a6091bd27,69712dc693a3960bdb483245,69714714ec150213662dd7a8,,,,,,,,,,,,,1,,,,,,,,,,,,,,,,,,,,,,,,,,,,,,,,,,,,,51,candado,,,,,363.6956,365.8097,1,1,1.5832,,0,19,19,50,1,REAL,FAKE,,,,,,,,,,,,,,,,,
,,,,,,,,,5f42ac74bac9f24a6091bd27,Mexican,13 or older,"no, only English or Spanish",yes,2026-01-21_16h38.10.398,empathy_intonation_perc_control,2024.2.4,Win32,60.24096386,5f42ac74bac9f24a6091bd27,69712dc693a3960bdb483245,69714714ec150213662dd7a8,,,,,,,,,,,,,0,,,,,,,,,,,,,,,,,,,,,,,,,,,,,,,,,,,,,4,batillón,,,,,365.8114,368.2596,1,0,1.933,,0,20,20,3,1,REAL,FAKE,,,,,,,,,,,,,,,,,
,,,,,,,,,5f42ac74bac9f24a6091bd27,Mexican,13 or older,"no, only English or Spanish",yes,2026-01-21_16h38.10.398,empathy_intonation_perc_control,2024.2.4,Win32,60.24096386,5f42ac74bac9f24a6091bd27,69712dc693a3960bdb483245,69714714ec150213662dd7a8,,,,,,,,,,,,,0,,,,,,,,,,,,,,,,,,,,,,,,,,,,,,,,,,,,,1,terzo,,,,,368.2611,369.5602,0,1,0.7675,,0,21,21,0,1,REAL,FAKE,,,,,,,,,,,,,,,,,
,,,,,,,,,5f42ac74bac9f24a6091bd27,Mexican,13 or older,"no, only English or Spanish",yes,2026-01-21_16h38.10.398,empathy_intonation_perc_control,2024.2.4,Win32,60.24096386,5f42ac74bac9f24a6091bd27,69712dc693a3960bdb483245,69714714ec150213662dd7a8,,,,,,,,,,,,,1,,,,,,,,,,,,,,,,,,,,,,,,,,,,,,,,,,,,,69,engatusar,,,,,369.5619,371.0439,0,0,0.9508,,0,22,22,68,1,REAL,FAKE,,,,,,,,,,,,,,,,,
,,,,,,,,,5f42ac74bac9f24a6091bd27,Mexican,13 or older,"no, only English or Spanish",yes,2026-01-21_16h38.10.398,empathy_intonation_perc_control,2024.2.4,Win32,60.24096386,5f42ac74bac9f24a6091bd27,69712dc693a3960bdb483245,69714714ec150213662dd7a8,,,,,,,,,,,,,0,,,,,,,,,,,,,,,,,,,,,,,,,,,,,,,,,,,,,70,temblo,,,,,371.0451,372.4434,0,1,0.867,,0,23,23,69,1,REAL,FAKE,,,,,,,,,,,,,,,,,
,,,,,,,,,5f42ac74bac9f24a6091bd27,Mexican,13 or older,"no, only English or Spanish",yes,2026-01-21_16h38.10.398,empathy_intonation_perc_control,2024.2.4,Win32,60.24096386,5f42ac74bac9f24a6091bd27,69712dc693a3960bdb483245,69714714ec150213662dd7a8,,,,,,,,,,,,,1,,,,,,,,,,,,,,,,,,,,,,,,,,,,,,,,,,,,,45,jilguero,,,,,372.445,373.8787,0,0,0.903,,0,24,24,44,1,REAL,FAKE,,,,,,,,,,,,,,,,,
,,,,,,,,,5f42ac74bac9f24a6091bd27,Mexican,13 or older,"no, only English or Spanish",yes,2026-01-21_16h38.10.398,empathy_intonation_perc_control,2024.2.4,Win32,60.24096386,5f42ac74bac9f24a6091bd27,69712dc693a3960bdb483245,69714714ec150213662dd7a8,,,,,,,,,,,,,0,,,,,,,,,,,,,,,,,,,,,,,,,,,,,,,,,,,,,30,alardio,,,,,373.8796,375.8264,1,0,1.417,,0,25,25,29,1,REAL,FAKE,,,,,,,,,,,,,,,,,
,,,,,,,,,5f42ac74bac9f24a6091bd27,Mexican,13 or older,"no, only English or Spanish",yes,2026-01-21_16h38.10.398,empathy_intonation_perc_control,2024.2.4,Win32,60.24096386,5f42ac74bac9f24a6091bd27,69712dc693a3960bdb483245,69714714ec150213662dd7a8,,,,,,,,,,,,,1,,,,,,,,,,,,,,,,,,,,,,,,,,,,,,,,,,,,,57,tacaño,,,,,375.8284,377.4601,1,1,1.1009,,0,26,26,56,1,REAL,FAKE,,,,,,,,,,,,,,,,,
,,,,,,,,,5f42ac74bac9f24a6091bd27,Mexican,13 or older,"no, only English or Spanish",yes,2026-01-21_16h38.10.398,empathy_intonation_perc_control,2024.2.4,Win32,60.24096386,5f42ac74bac9f24a6091bd27,69712dc693a3960bdb483245,69714714ec150213662dd7a8,,,,,,,,,,,,,1,,,,,,,,,,,,,,,,,,,,,,,,,,,,,,,,,,,,,43,canela,,,,,377.4614,380.0924,1,1,2.0997,,0,27,27,42,1,REAL,FAKE,,,,,,,,,,,,,,,,,
,,,,,,,,,5f42ac74bac9f24a6091bd27,Mexican,13 or older,"no, only English or Spanish",yes,2026-01-21_16h38.10.398,empathy_intonation_perc_control,2024.2.4,Win32,60.24096386,5f42ac74bac9f24a6091bd27,69712dc693a3960bdb483245,69714714ec150213662dd7a8,,,,,,,,,,,,,0,,,,,,,,,,,,,,,,,,,,,,,,,,,,,,,,,,,,,82,empirador,,,,,380.094,382.394,1,0,1.7688,,0,28,28,81,1,REAL,FAKE,,,,,,,,,,,,,,,,,
,,,,,,,,,5f42ac74bac9f24a6091bd27,Mexican,13 or older,"no, only English or Spanish",yes,2026-01-21_16h38.10.398,empathy_intonation_perc_control,2024.2.4,Win32,60.24096386,5f42ac74bac9f24a6091bd27,69712dc693a3960bdb483245,69714714ec150213662dd7a8,,,,,,,,,,,,,1,,,,,,,,,,,,,,,,,,,,,,,,,,,,,,,,,,,,,86,barato,,,,,382.395,383.7935,1,1,0.8671,,0,29,29,85,1,REAL,FAKE,,,,,,,,,,,,,,,,,
,,,,,,,,,5f42ac74bac9f24a6091bd27,Mexican,13 or older,"no, only English or Spanish",yes,2026-01-21_16h38.10.398,empathy_intonation_perc_control,2024.2.4,Win32,60.24096386,5f42ac74bac9f24a6091bd27,69712dc693a3960bdb483245,69714714ec150213662dd7a8,,,,,,,,,,,,,1,,,,,,,,,,,,,,,,,,,,,,,,,,,,,,,,,,,,,36,loro,,,,,383.7945,385.027,0,0,0.7007,,0,30,30,35,1,REAL,FAKE,,,,,,,,,,,,,,,,,
,,,,,,,,,5f42ac74bac9f24a6091bd27,Mexican,13 or older,"no, only English or Spanish",yes,2026-01-21_16h38.10.398,empathy_intonation_perc_control,2024.2.4,Win32,60.24096386,5f42ac74bac9f24a6091bd27,69712dc693a3960bdb483245,69714714ec150213662dd7a8,,,,,,,,,,,,,1,,,,,,,,,,,,,,,,,,,,,,,,,,,,,,,,,,,,,11,cenefa,,,,,385.0285,386.2438,0,0,0.6831,,0,31,31,10,1,REAL,FAKE,,,,,,,,,,,,,,,,,
,,,,,,,,,5f42ac74bac9f24a6091bd27,Mexican,13 or older,"no, only English or Spanish",yes,2026-01-21_16h38.10.398,empathy_intonation_perc_control,2024.2.4,Win32,60.24096386,5f42ac74bac9f24a6091bd27,69712dc693a3960bdb483245,69714714ec150213662dd7a8,,,,,,,,,,,,,1,,,,,,,,,,,,,,,,,,,,,,,,,,,,,,,,,,,,,91,click the 1 key.,,,,,386.2452,387.9603,1,1,1.1841,,0,32,32,90,1,REAL,FAKE,,,,,,,,,,,,,,,,,
,,,,,,,,,5f42ac74bac9f24a6091bd27,Mexican,13 or older,"no, only English or Spanish",yes,2026-01-21_16h38.10.398,empathy_intonation_perc_control,2024.2.4,Win32,60.24096386,5f42ac74bac9f24a6091bd27,69712dc693a3960bdb483245,69714714ec150213662dd7a8,,,,,,,,,,,,,1,,,,,,,,,,,,,,,,,,,,,,,,,,,,,,,,,,,,,49,ganar,,,,,387.9615,390.3275,0,0,1.8351,,0,33,33,48,1,REAL,FAKE,,,,,,,,,,,,,,,,,
,,,,,,,,,5f42ac74bac9f24a6091bd27,Mexican,13 or older,"no, only English or Spanish",yes,2026-01-21_16h38.10.398,empathy_intonation_perc_control,2024.2.4,Win32,60.24096386,5f42ac74bac9f24a6091bd27,69712dc693a3960bdb483245,69714714ec150213662dd7a8,,,,,,,,,,,,,0,,,,,,,,,,,,,,,,,,,,,,,,,,,,,,,,,,,,,8,cadeña,,,,,390.329,391.8276,1,0,0.9683,,0,34,34,7,1,REAL,FAKE,,,,,,,,,,,,,,,,,
,,,,,,,,,5f42ac74bac9f24a6091bd27,Mexican,13 or older,"no, only English or Spanish",yes,2026-01-21_16h38.10.398,empathy_intonation_perc_control,2024.2.4,Win32,60.24096386,5f42ac74bac9f24a6091bd27,69712dc693a3960bdb483245,69714714ec150213662dd7a8,,,,,,,,,,,,,0,,,,,,,,,,,,,,,,,,,,,,,,,,,,,,,,,,,,,53,vegada,,,,,391.829,393.2271,0,1,0.8676,,0,35,35,52,1,REAL,FAKE,,,,,,,,,,,,,,,,,
,,,,,,,,,5f42ac74bac9f24a6091bd27,Mexican,13 or older,"no, only English or Spanish",yes,2026-01-21_16h38.10.398,empathy_intonation_perc_control,2024.2.4,Win32,60.24096386,5f42ac74bac9f24a6091bd27,69712dc693a3960bdb483245,69714714ec150213662dd7a8,,,,,,,,,,,,,0,,,,,,,,,,,,,,,,,,,,,,,,,,,,,,,,,,,,,17,floroso,,,,,393.2288,394.3606,0,1,0.6005,,0,36,36,16,1,REAL,FAKE,,,,,,,,,,,,,,,,,
,,,,,,,,,5f42ac74bac9f24a6091bd27,Mexican,13 or older,"no, only English or Spanish",yes,2026-01-21_16h38.10.398,empathy_intonation_perc_control,2024.2.4,Win32,60.24096386,5f42ac74bac9f24a6091bd27,69712dc693a3960bdb483245,69714714ec150213662dd7a8,,,,,,,,,,,,,1,,,,,,,,,,,,,,,,,,,,,,,,,,,,,,,,,,,,,6,tergiversar,,,,,394.3619,395.6249,0,0,0.7328,,0,37,37,5,1,REAL,FAKE,,,,,,,,,,,,,,,,,
,,,,,,,,,5f42ac74bac9f24a6091bd27,Mexican,13 or older,"no, only English or Spanish",yes,2026-01-21_16h38.10.398,empathy_intonation_perc_control,2024.2.4,Win32,60.24096386,5f42ac74bac9f24a6091bd27,69712dc693a3960bdb483245,69714714ec150213662dd7a8,,,,,,,,,,,,,1,,,,,,,,,,,,,,,,,,,,,,,,,,,,,,,,,,,,,3,pulmones,,,,,395.6254,396.8776,0,0,0.7182,,0,38,38,2,1,REAL,FAKE,,,,,,,,,,,,,,,,,
,,,,,,,,,5f42ac74bac9f24a6091bd27,Mexican,13 or older,"no, only English or Spanish",yes,2026-01-21_16h38.10.398,empathy_intonation_perc_control,2024.2.4,Win32,60.24096386,5f42ac74bac9f24a6091bd27,69712dc693a3960bdb483245,69714714ec150213662dd7a8,,,,,,,,,,,,,1,,,,,,,,,,,,,,,,,,,,,,,,,,,,,,,,,,,,,64,orgulloso,,,,,396.8797,398.2769,0,0,0.8671,,0,39,39,63,1,REAL,FAKE,,,,,,,,,,,,,,,,,
,,,,,,,,,5f42ac74bac9f24a6091bd27,Mexican,13 or older,"no, only English or Spanish",yes,2026-01-21_16h38.10.398,empathy_intonation_perc_control,2024.2.4,Win32,60.24096386,5f42ac74bac9f24a6091bd27,69712dc693a3960bdb483245,69714714ec150213662dd7a8,,,,,,,,,,,,,1,,,,,,,,,,,,,,,,,,,,,,,,,,,,,,,,,,,,,68,alegre,,,,,398.2779,400.6437,0,0,1.8346,,0,40,40,67,1,REAL,FAKE,,,,,,,,,,,,,,,,,
,,,,,,,,,5f42ac74bac9f24a6091bd27,Mexican,13 or older,"no, only English or Spanish",yes,2026-01-21_16h38.10.398,empathy_intonation_perc_control,2024.2.4,Win32,60.24096386,5f42ac74bac9f24a6091bd27,69712dc693a3960bdb483245,69714714ec150213662dd7a8,,,,,,,,,,,,,0,,,,,,,,,,,,,,,,,,,,,,,,,,,,,,,,,,,,,74,cintro,,,,,400.6454,402.36,1,0,1.1843,,0,41,41,73,1,REAL,FAKE,,,,,,,,,,,,,,,,,
,,,,,,,,,5f42ac74bac9f24a6091bd27,Mexican,13 or older,"no, only English or Spanish",yes,2026-01-21_16h38.10.398,empathy_intonation_perc_control,2024.2.4,Win32,60.24096386,5f42ac74bac9f24a6091bd27,69712dc693a3960bdb483245,69714714ec150213662dd7a8,,,,,,,,,,,,,1,,,,,,,,,,,,,,,,,,,,,,,,,,,,,,,,,,,,,13,helar,,,,,402.3613,403.6435,0,0,0.7509,,0,42,42,12,1,REAL,FAKE,,,,,,,,,,,,,,,,,
,,,,,,,,,5f42ac74bac9f24a6091bd27,Mexican,13 or older,"no, only English or Spanish",yes,2026-01-21_16h38.10.398,empathy_intonation_perc_control,2024.2.4,Win32,60.24096386,5f42ac74bac9f24a6091bd27,69712dc693a3960bdb483245,69714714ec150213662dd7a8,,,,,,,,,,,,,1,,,,,,,,,,,,,,,,,,,,,,,,,,,,,,,,,,,,,24,látigo,,,,,403.6461,405.361,1,1,1.1854,,0,43,43,23,1,REAL,FAKE,,,,,,,,,,,,,,,,,
,,,,,,,,,5f42ac74bac9f24a6091bd27,Mexican,13 or older,"no, only English or Spanish",yes,2026-01-21_16h38.10.398,empathy_intonation_perc_control,2024.2.4,Win32,60.24096386,5f42ac74bac9f24a6091bd27,69712dc693a3960bdb483245,69714714ec150213662dd7a8,,,,,,,,,,,,,1,,,,,,,,,,,,,,,,,,,,,,,,,,,,,,,,,,,,,26,secuestro,,,,,405.3622,406.9101,1,1,1.0175,,0,44,44,25,1,REAL,FAKE,,,,,,,,,,,,,,,,,
,,,,,,,,,5f42ac74bac9f24a6091bd27,Mexican,13 or older,"no, only English or Spanish",yes,2026-01-21_16h38.10.398,empathy_intonation_perc_control,2024.2.4,Win32,60.24096386,5f42ac74bac9f24a6091bd27,69712dc693a3960bdb483245,69714714ec150213662dd7a8,,,,,,,,,,,,,0,,,,,,,,,,,,,,,,,,,,,,,,,,,,,,,,,,,,,84,escuto,,,,,406.9122,408.3922,0,1,0.9497,,0,45,45,83,1,REAL,FAKE,,,,,,,,,,,,,,,,,
,,,,,,,,,5f42ac74bac9f24a6091bd27,Mexican,13 or older,"no, only English or Spanish",yes,2026-01-21_16h38.10.398,empathy_intonation_perc_control,2024.2.4,Win32,60.24096386,5f42ac74bac9f24a6091bd27,69712dc693a3960bdb483245,69714714ec150213662dd7a8,,,,,,,,,,,,,1,,,,,,,,,,,,,,,,,,,,,,,,,,,,,,,,,,,,,83,guante,,,,,408.3936,410.1753,0,0,1.2489,,0,46,46,82,1,REAL,FAKE,,,,,,,,,,,,,,,,,
,,,,,,,,,5f42ac74bac9f24a6091bd27,Mexican,13 or older,"no, only English or Spanish",yes,2026-01-21_16h38.10.398,empathy_intonation_perc_control,2024.2.4,Win32,60.24096386,5f42ac74bac9f24a6091bd27,69712dc693a3960bdb483245,69714714ec150213662dd7a8,,,,,,,,,,,,,0,,,,,,,,,,,,,,,,,,,,,,,,,,,,,,,,,,,,,18,arsa,,,,,410.1772,411.6999,0,1,0.9825,,0,47,47,17,1,REAL,FAKE,,,,,,,,,,,,,,,,,
,,,,,,,,,5f42ac74bac9f24a6091bd27,Mexican,13 or older,"no, only English or Spanish",yes,2026-01-21_16h38.10.398,empathy_intonation_perc_control,2024.2.4,Win32,60.24096386,5f42ac74bac9f24a6091bd27,69712dc693a3960bdb483245,69714714ec150213662dd7a8,,,,,,,,,,,,,0,,,,,,,,,,,,,,,,,,,,,,,,,,,,,,,,,,,,,42,cadallo,,,,,411.7007,413.5935,1,0,1.3676,,0,48,48,41,1,REAL,FAKE,,,,,,,,,,,,,,,,,
,,,,,,,,,5f42ac74bac9f24a6091bd27,Mexican,13 or older,"no, only English or Spanish",yes,2026-01-21_16h38.10.398,empathy_intonation_perc_control,2024.2.4,Win32,60.24096386,5f42ac74bac9f24a6091bd27,69712dc693a3960bdb483245,69714714ec150213662dd7a8,,,,,,,,,,,,,1,,,,,,,,,,,,,,,,,,,,,,,,,,,,,,,,,,,,,2,pellizcar,,,,,413.5952,416.0443,0,0,1.918,,0,49,49,1,1,REAL,FAKE,,,,,,,,,,,,,,,,,
,,,,,,,,,5f42ac74bac9f24a6091bd27,Mexican,13 or older,"no, only English or Spanish",yes,2026-01-21_16h38.10.398,empathy_intonation_perc_control,2024.2.4,Win32,60.24096386,5f42ac74bac9f24a6091bd27,69712dc693a3960bdb483245,69714714ec150213662dd7a8,,,,,,,,,,,,,0,,,,,,,,,,,,,,,,,,,,,,,,,,,,,,,,,,,,,29,decar,,,,,416.0464,417.577,0,1,1.0002,,0,50,50,28,1,REAL,FAKE,,,,,,,,,,,,,,,,,
,,,,,,,,,5f42ac74bac9f24a6091bd27,Mexican,13 or older,"no, only English or Spanish",yes,2026-01-21_16h38.10.398,empathy_intonation_perc_control,2024.2.4,Win32,60.24096386,5f42ac74bac9f24a6091bd27,69712dc693a3960bdb483245,69714714ec150213662dd7a8,,,,,,,,,,,,,1,,,,,,,,,,,,,,,,,,,,,,,,,,,,,,,,,,,,,14,yunque,,,,,417.5794,419.5331,0,0,1.4162,,0,51,51,13,1,REAL,FAKE,,,,,,,,,,,,,,,,,
,,,,,,,,,5f42ac74bac9f24a6091bd27,Mexican,13 or older,"no, only English or Spanish",yes,2026-01-21_16h38.10.398,empathy_intonation_perc_control,2024.2.4,Win32,60.24096386,5f42ac74bac9f24a6091bd27,69712dc693a3960bdb483245,69714714ec150213662dd7a8,,,,,,,,,,,,,1,,,,,,,,,,,,,,,,,,,,,,,,,,,,,,,,,,,,,61,seda,,,,,419.534,421.3438,1,1,1.285,,0,52,52,60,1,REAL,FAKE,,,,,,,,,,,,,,,,,
,,,,,,,,,5f42ac74bac9f24a6091bd27,Mexican,13 or older,"no, only English or Spanish",yes,2026-01-21_16h38.10.398,empathy_intonation_perc_control,2024.2.4,Win32,60.24096386,5f42ac74bac9f24a6091bd27,69712dc693a3960bdb483245,69714714ec150213662dd7a8,,,,,,,,,,,,,0,,,,,,,,,,,,,,,,,,,,,,,,,,,,,,,,,,,,,63,esposante,,,,,421.3465,423.524,1,0,1.6469,,0,53,53,62,1,REAL,FAKE,,,,,,,,,,,,,,,,,
,,,,,,,,,5f42ac74bac9f24a6091bd27,Mexican,13 or older,"no, only English or Spanish",yes,2026-01-21_16h38.10.398,empathy_intonation_perc_control,2024.2.4,Win32,60.24096386,5f42ac74bac9f24a6091bd27,69712dc693a3960bdb483245,69714714ec150213662dd7a8,,,,,,,,,,,,,1,,,,,,,,,,,,,,,,,,,,,,,,,,,,,,,,,,,,,48,ladrón,,,,,423.5252,424.8681,0,0,0.8094,,0,54,54,47,1,REAL,FAKE,,,,,,,,,,,,,,,,,
,,,,,,,,,5f42ac74bac9f24a6091bd27,Mexican,13 or older,"no, only English or Spanish",yes,2026-01-21_16h38.10.398,empathy_intonation_perc_control,2024.2.4,Win32,60.24096386,5f42ac74bac9f24a6091bd27,69712dc693a3960bdb483245,69714714ec150213662dd7a8,,,,,,,,,,,,,1,,,,,,,,,,,,,,,,,,,,,,,,,,,,,,,,,,,,,56,musgo,,,,,424.8702,426.095,0,0,0.7015,,0,55,55,55,1,REAL,FAKE,,,,,,,,,,,,,,,,,
,,,,,,,,,5f42ac74bac9f24a6091bd27,Mexican,13 or older,"no, only English or Spanish",yes,2026-01-21_16h38.10.398,empathy_intonation_perc_control,2024.2.4,Win32,60.24096386,5f42ac74bac9f24a6091bd27,69712dc693a3960bdb483245,69714714ec150213662dd7a8,,,,,,,,,,,,,0,,,,,,,,,,,,,,,,,,,,,,,,,,,,,,,,,,,,,72,pemición,,,,,426.0963,427.4101,0,1,0.7839,,0,56,56,71,1,REAL,FAKE,,,,,,,,,,,,,,,,,
,,,,,,,,,5f42ac74bac9f24a6091bd27,Mexican,13 or older,"no, only English or Spanish",yes,2026-01-21_16h38.10.398,empathy_intonation_perc_control,2024.2.4,Win32,60.24096386,5f42ac74bac9f24a6091bd27,69712dc693a3960bdb483245,69714714ec150213662dd7a8,,,,,,,,,,,,,1,,,,,,,,,,,,,,,,,,,,,,,,,,,,,,,,,,,,,7,pésimo,,,,,427.4111,428.7926,1,1,0.8494,,0,57,57,6,1,REAL,FAKE,,,,,,,,,,,,,,,,,
,,,,,,,,,5f42ac74bac9f24a6091bd27,Mexican,13 or older,"no, only English or Spanish",yes,2026-01-21_16h38.10.398,empathy_intonation_perc_control,2024.2.4,Win32,60.24096386,5f42ac74bac9f24a6091bd27,69712dc693a3960bdb483245,69714714ec150213662dd7a8,,,,,,,,,,,,,0,,,,,,,,,,,,,,,,,,,,,,,,,,,,,,,,,,,,,66,hacido,,,,,428.7948,430.5431,0,1,1.2173,,0,58,58,65,1,REAL,FAKE,,,,,,,,,,,,,,,,,
,,,,,,,,,5f42ac74bac9f24a6091bd27,Mexican,13 or older,"no, only English or Spanish",yes,2026-01-21_16h38.10.398,empathy_intonation_perc_control,2024.2.4,Win32,60.24096386,5f42ac74bac9f24a6091bd27,69712dc693a3960bdb483245,69714714ec150213662dd7a8,,,,,,,,,,,,,1,,,,,,,,,,,,,,,,,,,,,,,,,,,,,,,,,,,,,12,asesinato,,,,,430.5448,432.0941,0,0,1.0181,,0,59,59,11,1,REAL,FAKE,,,,,,,,,,,,,,,,,
,,,,,,,,,5f42ac74bac9f24a6091bd27,Mexican,13 or older,"no, only English or Spanish",yes,2026-01-21_16h38.10.398,empathy_intonation_perc_control,2024.2.4,Win32,60.24096386,5f42ac74bac9f24a6091bd27,69712dc693a3960bdb483245,69714714ec150213662dd7a8,,,,,,,,,,,,,1,,,,,,,,,,,,,,,,,,,,,,,,,,,,,,,,,,,,,34,aviso,,,,,432.096,433.5566,0,0,0.9309,,0,60,60,33,1,REAL,FAKE,,,,,,,,,,,,,,,,,
,,,,,,,,,5f42ac74bac9f24a6091bd27,Mexican,13 or older,"no, only English or Spanish",yes,2026-01-21_16h38.10.398,empathy_intonation_perc_control,2024.2.4,Win32,60.24096386,5f42ac74bac9f24a6091bd27,69712dc693a3960bdb483245,69714714ec150213662dd7a8,,,,,,,,,,,,,0,,,,,,,,,,,,,,,,,,,,,,,,,,,,,,,,,,,,,32,fatacidad,,,,,433.5585,435.9262,0,1,1.8499,,0,61,61,31,1,REAL,FAKE,,,,,,,,,,,,,,,,,
,,,,,,,,,5f42ac74bac9f24a6091bd27,Mexican,13 or older,"no, only English or Spanish",yes,2026-01-21_16h38.10.398,empathy_intonation_perc_control,2024.2.4,Win32,60.24096386,5f42ac74bac9f24a6091bd27,69712dc693a3960bdb483245,69714714ec150213662dd7a8,,,,,,,,,,,,,1,,,,,,,,,,,,,,,,,,,,,,,,,,,,,,,,,,,,,85,laúd,,,,,435.9287,437.7228,1,1,1.2625,,0,62,62,84,1,REAL,FAKE,,,,,,,,,,,,,,,,,
,,,,,,,,,5f42ac74bac9f24a6091bd27,Mexican,13 or older,"no, only English or Spanish",yes,2026-01-21_16h38.10.398,empathy_intonation_perc_control,2024.2.4,Win32,60.24096386,5f42ac74bac9f24a6091bd27,69712dc693a3960bdb483245,69714714ec150213662dd7a8,,,,,,,,,,,,,0,,,,,,,,,,,,,,,,,,,,,,,,,,,,,,,,,,,,,21,capillo,,,,,437.7242,439.3002,1,0,1.0361,,0,63,63,20,1,REAL,FAKE,,,,,,,,,,,,,,,,,
,,,,,,,,,5f42ac74bac9f24a6091bd27,Mexican,13 or older,"no, only English or Spanish",yes,2026-01-21_16h38.10.398,empathy_intonation_perc_control,2024.2.4,Win32,60.24096386,5f42ac74bac9f24a6091bd27,69712dc693a3960bdb483245,69714714ec150213662dd7a8,,,,,,,,,,,,,1,,,,,,,,,,,,,,,,,,,,,,,,,,,,,,,,,,,,,67,cabello,,,,,439.3017,440.5503,1,1,0.7051,,0,64,64,66,1,REAL,FAKE,,,,,,,,,,,,,,,,,
,,,,,,,,,5f42ac74bac9f24a6091bd27,Mexican,13 or older,"no, only English or Spanish",yes,2026-01-21_16h38.10.398,empathy_intonation_perc_control,2024.2.4,Win32,60.24096386,5f42ac74bac9f24a6091bd27,69712dc693a3960bdb483245,69714714ec150213662dd7a8,,,,,,,,,,,,,1,,,,,,,,,,,,,,,,,,,,,,,,,,,,,,,,,,,,,90,clavel,,,,,440.5526,442.0925,0,0,0.9997,,0,65,65,89,1,REAL,FAKE,,,,,,,,,,,,,,,,,
,,,,,,,,,5f42ac74bac9f24a6091bd27,Mexican,13 or older,"no, only English or Spanish",yes,2026-01-21_16h38.10.398,empathy_intonation_perc_control,2024.2.4,Win32,60.24096386,5f42ac74bac9f24a6091bd27,69712dc693a3960bdb483245,69714714ec150213662dd7a8,,,,,,,,,,,,,1,,,,,,,,,,,,,,,,,,,,,,,,,,,,,,,,,,,,,62,flaco,,,,,442.0939,443.8839,1,1,1.2525,,0,66,66,61,1,REAL,FAKE,,,,,,,,,,,,,,,,,
,,,,,,,,,5f42ac74bac9f24a6091bd27,Mexican,13 or older,"no, only English or Spanish",yes,2026-01-21_16h38.10.398,empathy_intonation_perc_control,2024.2.4,Win32,60.24096386,5f42ac74bac9f24a6091bd27,69712dc693a3960bdb483245,69714714ec150213662dd7a8,,,,,,,,,,,,,0,,,,,,,,,,,,,,,,,,,,,,,,,,,,,,,,,,,,,19,brecedad,,,,,443.8856,445.1556,0,1,0.7456,,0,67,67,18,1,REAL,FAKE,,,,,,,,,,,,,,,,,
,,,,,,,,,5f42ac74bac9f24a6091bd27,Mexican,13 or older,"no, only English or Spanish",yes,2026-01-21_16h38.10.398,empathy_intonation_perc_control,2024.2.4,Win32,60.24096386,5f42ac74bac9f24a6091bd27,69712dc693a3960bdb483245,69714714ec150213662dd7a8,,,,,,,,,,,,,1,,,,,,,,,,,,,,,,,,,,,,,,,,,,,,,,,,,,,77,tiburón,,,,,445.1575,446.5419,0,0,0.8656,,0,68,68,76,1,REAL,FAKE,,,,,,,,,,,,,,,,,
,,,,,,,,,5f42ac74bac9f24a6091bd27,Mexican,13 or older,"no, only English or Spanish",yes,2026-01-21_16h38.10.398,empathy_intonation_perc_control,2024.2.4,Win32,60.24096386,5f42ac74bac9f24a6091bd27,69712dc693a3960bdb483245,69714714ec150213662dd7a8,,,,,,,,,,,,,1,,,,,,,,,,,,,,,,,,,,,,,,,,,,,,,,,,,,,25,bisagra,,,,,446.5439,448.0176,0,0,0.9417,,0,69,69,24,1,REAL,FAKE,,,,,,,,,,,,,,,,,
,,,,,,,,,5f42ac74bac9f24a6091bd27,Mexican,13 or older,"no, only English or Spanish",yes,2026-01-21_16h38.10.398,empathy_intonation_perc_control,2024.2.4,Win32,60.24096386,5f42ac74bac9f24a6091bd27,69712dc693a3960bdb483245,69714714ec150213662dd7a8,,,,,,,,,,,,,1,,,,,,,,,,,,,,,,,,,,,,,,,,,,,,,,,,,,,46,martillo,,,,,448.0191,449.6082,1,1,1.0497,,0,70,70,45,1,REAL,FAKE,,,,,,,,,,,,,,,,,
,,,,,,,,,5f42ac74bac9f24a6091bd27,Mexican,13 or older,"no, only English or Spanish",yes,2026-01-21_16h38.10.398,empathy_intonation_perc_control,2024.2.4,Win32,60.24096386,5f42ac74bac9f24a6091bd27,69712dc693a3960bdb483245,69714714ec150213662dd7a8,,,,,,,,,,,,,0,,,,,,,,,,,,,,,,,,,,,,,,,,,,,,,,,,,,,33,pauca,,,,,449.6098,450.9407,0,1,0.7976,,0,71,71,32,1,REAL,FAKE,,,,,,,,,,,,,,,,,
,,,,,,,,,5f42ac74bac9f24a6091bd27,Mexican,13 or older,"no, only English or Spanish",yes,2026-01-21_16h38.10.398,empathy_intonation_perc_control,2024.2.4,Win32,60.24096386,5f42ac74bac9f24a6091bd27,69712dc693a3960bdb483245,69714714ec150213662dd7a8,,,,,,,,,,,,,1,,,,,,,,,,,,,,,,,,,,,,,,,,,,,,,,,,,,,20,ávido,,,,,450.9424,453.2362,1,1,1.7606,,0,72,72,19,1,REAL,FAKE,,,,,,,,,,,,,,,,,
,,,,,,,,,5f42ac74bac9f24a6091bd27,Mexican,13 or older,"no, only English or Spanish",yes,2026-01-21_16h38.10.398,empathy_intonation_perc_control,2024.2.4,Win32,60.24096386,5f42ac74bac9f24a6091bd27,69712dc693a3960bdb483245,69714714ec150213662dd7a8,,,,,,,,,,,,,1,,,,,,,,,,,,,,,,,,,,,,,,,,,,,,,,,,,,,39,torpe,,,,,453.2376,455.0431,0,0,1.284,,0,73,73,38,1,REAL,FAKE,,,,,,,,,,,,,,,,,
,,,,,,,,,5f42ac74bac9f24a6091bd27,Mexican,13 or older,"no, only English or Spanish",yes,2026-01-21_16h38.10.398,empathy_intonation_perc_control,2024.2.4,Win32,60.24096386,5f42ac74bac9f24a6091bd27,69712dc693a3960bdb483245,69714714ec150213662dd7a8,,,,,,,,,,,,,1,,,,,,,,,,,,,,,,,,,,,,,,,,,,,,,,,,,,,75,yacer,,,,,455.0448,456.5167,0,0,0.9331,,0,74,74,74,1,REAL,FAKE,,,,,,,,,,,,,,,,,
,,,,,,,,,5f42ac74bac9f24a6091bd27,Mexican,13 or older,"no, only English or Spanish",yes,2026-01-21_16h38.10.398,empathy_intonation_perc_control,2024.2.4,Win32,60.24096386,5f42ac74bac9f24a6091bd27,69712dc693a3960bdb483245,69714714ec150213662dd7a8,,,,,,,,,,,,,1,,,,,,,,,,,,,,,,,,,,,,,,,,,,,,,,,,,,,81,pozo,,,,,456.5175,457.8763,0,0,0.8339,,0,75,75,80,1,REAL,FAKE,,,,,,,,,,,,,,,,,
,,,,,,,,,5f42ac74bac9f24a6091bd27,Mexican,13 or older,"no, only English or Spanish",yes,2026-01-21_16h38.10.398,empathy_intonation_perc_control,2024.2.4,Win32,60.24096386,5f42ac74bac9f24a6091bd27,69712dc693a3960bdb483245,69714714ec150213662dd7a8,,,,,,,,,,,,,1,,,,,,,,,,,,,,,,,,,,,,,,,,,,,,,,,,,,,80,hormiga,,,,,457.8779,459.6417,0,0,1.2327,,0,76,76,79,1,REAL,FAKE,,,,,,,,,,,,,,,,,
,,,,,,,,,5f42ac74bac9f24a6091bd27,Mexican,13 or older,"no, only English or Spanish",yes,2026-01-21_16h38.10.398,empathy_intonation_perc_control,2024.2.4,Win32,60.24096386,5f42ac74bac9f24a6091bd27,69712dc693a3960bdb483245,69714714ec150213662dd7a8,,,,,,,,,,,,,0,,,,,,,,,,,,,,,,,,,,,,,,,,,,,,,,,,,,,27,acutación,,,,,459.6428,461.744,0,1,1.5841,,0,77,77,26,1,REAL,FAKE,,,,,,,,,,,,,,,,,
,,,,,,,,,5f42ac74bac9f24a6091bd27,Mexican,13 or older,"no, only English or Spanish",yes,2026-01-21_16h38.10.398,empathy_intonation_perc_control,2024.2.4,Win32,60.24096386,5f42ac74bac9f24a6091bd27,69712dc693a3960bdb483245,69714714ec150213662dd7a8,,,,,,,,,,,,,1,,,,,,,,,,,,,,,,,,,,,,,,,,,,,,,,,,,,,15,regar,,,,,461.7457,464.3439,0,0,2.0672,,0,78,78,14,1,REAL,FAKE,,,,,,,,,,,,,,,,,
,,,,,,,,,5f42ac74bac9f24a6091bd27,Mexican,13 or older,"no, only English or Spanish",yes,2026-01-21_16h38.10.398,empathy_intonation_perc_control,2024.2.4,Win32,60.24096386,5f42ac74bac9f24a6091bd27,69712dc693a3960bdb483245,69714714ec150213662dd7a8,,,,,,,,,,,,,0,,,,,,,,,,,,,,,,,,,,,,,,,,,,,,,,,,,,,50,flamida,,,,,464.3457,465.9923,0,1,1.1158,,0,79,79,49,1,REAL,FAKE,,,,,,,,,,,,,,,,,
,,,,,,,,,5f42ac74bac9f24a6091bd27,Mexican,13 or older,"no, only English or Spanish",yes,2026-01-21_16h38.10.398,empathy_intonation_perc_control,2024.2.4,Win32,60.24096386,5f42ac74bac9f24a6091bd27,69712dc693a3960bdb483245,69714714ec150213662dd7a8,,,,,,,,,,,,,1,,,,,,,,,,,,,,,,,,,,,,,,,,,,,,,,,,,,,73,hervidor,,,,,465.9941,467.393,0,0,0.8838,,0,80,80,72,1,REAL,FAKE,,,,,,,,,,,,,,,,,
,,,,,,,,,5f42ac74bac9f24a6091bd27,Mexican,13 or older,"no, only English or Spanish",yes,2026-01-21_16h38.10.398,empathy_intonation_perc_control,2024.2.4,Win32,60.24096386,5f42ac74bac9f24a6091bd27,69712dc693a3960bdb483245,69714714ec150213662dd7a8,,,,,,,,,,,,,0,,,,,,,,,,,,,,,,,,,,,,,,,,,,,,,,,,,,,87,grodo,,,,,467.3946,468.7172,1,0,0.7908,,0,81,81,86,1,REAL,FAKE,,,,,,,,,,,,,,,,,
,,,,,,,,,5f42ac74bac9f24a6091bd27,Mexican,13 or older,"no, only English or Spanish",yes,2026-01-21_16h38.10.398,empathy_intonation_perc_control,2024.2.4,Win32,60.24096386,5f42ac74bac9f24a6091bd27,69712dc693a3960bdb483245,69714714ec150213662dd7a8,,,,,,,,,,,,,1,,,,,,,,,,,,,,,,,,,,,,,,,,,,,,,,,,,,,65,bizcocho,,,,,468.7189,470.2513,0,0,1.0087,,0,82,82,64,1,REAL,FAKE,,,,,,,,,,,,,,,,,
,,,,,,,,,5f42ac74bac9f24a6091bd27,Mexican,13 or older,"no, only English or Spanish",yes,2026-01-21_16h38.10.398,empathy_intonation_perc_control,2024.2.4,Win32,60.24096386,5f42ac74bac9f24a6091bd27,69712dc693a3960bdb483245,69714714ec150213662dd7a8,,,,,,,,,,,,,1,,,,,,,,,,,,,,,,,,,,,,,,,,,,,,,,,,,,,60,matar,,,,,470.2526,472.9345,0,0,2.1418,,0,83,83,59,1,REAL,FAKE,,,,,,,,,,,,,,,,,
,,,,,,,,,5f42ac74bac9f24a6091bd27,Mexican,13 or older,"no, only English or Spanish",yes,2026-01-21_16h38.10.398,empathy_intonation_perc_control,2024.2.4,Win32,60.24096386,5f42ac74bac9f24a6091bd27,69712dc693a3960bdb483245,69714714ec150213662dd7a8,,,,,,,,,,,,,1,,,,,,,,,,,,,,,,,,,,,,,,,,,,,,,,,,,,,59,besar,,,,,472.9364,474.5508,0,0,1.0912,,0,84,84,58,1,REAL,FAKE,,,,,,,,,,,,,,,,,
,,,,,,,,,5f42ac74bac9f24a6091bd27,Mexican,13 or older,"no, only English or Spanish",yes,2026-01-21_16h38.10.398,empathy_intonation_perc_control,2024.2.4,Win32,60.24096386,5f42ac74bac9f24a6091bd27,69712dc693a3960bdb483245,69714714ec150213662dd7a8,,,,,,,,,,,,,0,,,,,,,,,,,,,,,,,,,,,,,,,,,,,,,,,,,,,35,rompido,,,,,474.5533,476.0675,0,1,0.9672,,0,85,85,34,1,REAL,FAKE,,,,,,,,,,,,,,,,,
,,,,,,,,,5f42ac74bac9f24a6091bd27,Mexican,13 or older,"no, only English or Spanish",yes,2026-01-21_16h38.10.398,empathy_intonation_perc_control,2024.2.4,Win32,60.24096386,5f42ac74bac9f24a6091bd27,69712dc693a3960bdb483245,69714714ec150213662dd7a8,,,,,,,,,,,,,1,,,,,,,,,,,,,,,,,,,,,,,,,,,,,,,,,,,,,22,lacayo,,,,,476.0688,477.7004,0,0,1.1002,,0,86,86,21,1,REAL,FAKE,,,,,,,,,,,,,,,,,
,,,,,,,,,5f42ac74bac9f24a6091bd27,Mexican,13 or older,"no, only English or Spanish",yes,2026-01-21_16h38.10.398,empathy_intonation_perc_control,2024.2.4,Win32,60.24096386,5f42ac74bac9f24a6091bd27,69712dc693a3960bdb483245,69714714ec150213662dd7a8,,,,,,,,,,,,,1,,,,,,,,,,,,,,,,,,,,,,,,,,,,,,,,,,,,,9,hacha,,,,,477.7022,479.3416,0,0,1.1153,,0,87,87,8,1,REAL,FAKE,,,,,,,,,,,,,,,,,
,,,,,,,,,5f42ac74bac9f24a6091bd27,Mexican,13 or older,"no, only English or Spanish",yes,2026-01-21_16h38.10.398,empathy_intonation_perc_control,2024.2.4,Win32,60.24096386,5f42ac74bac9f24a6091bd27,69712dc693a3960bdb483245,69714714ec150213662dd7a8,,,,,,,,,,,,,0,,,,,,,,,,,,,,,,,,,,,,,,,,,,,,,,,,,,,23,lampera,,,,,479.3429,481.7082,0,1,1.8323,,0,88,88,22,1,REAL,FAKE,,,,,,,,,,,,,,,,,
,,,,,,,,,5f42ac74bac9f24a6091bd27,Mexican,13 or older,"no, only English or Spanish",yes,2026-01-21_16h38.10.398,empathy_intonation_perc_control,2024.2.4,Win32,60.24096386,5f42ac74bac9f24a6091bd27,69712dc693a3960bdb483245,69714714ec150213662dd7a8,,,,,,,,,,,,,1,,,,,,,,,,,,,,,,,,,,,,,,,,,,,,,,,,,,,78,frondoso,,,,,481.7103,483.6175,1,1,1.3665,,0,89,89,77,1,REAL,FAKE,,,,,,,,,,,,,,,,,
,,,,,,,,,5f42ac74bac9f24a6091bd27,Mexican,13 or older,"no, only English or Spanish",yes,2026-01-21_16h38.10.398,empathy_intonation_perc_control,2024.2.4,Win32,60.24096386,5f42ac74bac9f24a6091bd27,69712dc693a3960bdb483245,69714714ec150213662dd7a8,,,,,,,,,,,,,1,,,,,,,,,,,,,,,,,,,,,,,,,,,,,,,,,,,,,31,pandilla,,,,,483.62,484.96,1,1,0.8004,,0,90,90,30,1,REAL,FAKE,,,,,,,,,,,,,,,,,
,,,,,,,,,5f42ac74bac9f24a6091bd27,Mexican,13 or older,"no, only English or Spanish",yes,2026-01-21_16h38.10.398,empathy_intonation_perc_control,2024.2.4,Win32,60.24096386,5f42ac74bac9f24a6091bd27,69712dc693a3960bdb483245,69714714ec150213662dd7a8,,,,,,,,,,,,,1,,,,,,,,,,,,,,,,,,,,,,,,,,,,,,,,,,,,,76,atar,,,,,484.9625,486.4929,0,0,1.0003,,0,91,91,75,1,REAL,FAKE,,,,,,,,,,,,,,,,,
,,,,,,,,,5f42ac74bac9f24a6091bd27,Mexican,13 or older,"no, only English or Spanish",yes,2026-01-21_16h38.10.398,empathy_intonation_perc_control,2024.2.4,Win32,60.24096386,5f42ac74bac9f24a6091bd27,69712dc693a3960bdb483245,69714714ec150213662dd7a8,,,,,,,,,,,,,,,,,,,,,,,,,,,,,,,,,,,,,,,,,,,,,,,,,,,,,,,,,,,,,,,,,,,,,486.4935,498.2016,,,,,,,,,,,,,,,
,,,,,,,,,5f42ac74bac9f24a6091bd27,Mexican,13 or older,"no, only English or Spanish",yes,2026-01-21_16h38.10.398,empathy_intonation_perc_control,2024.2.4,Win32,60.24096386,5f42ac74bac9f24a6091bd27,69712dc693a3960bdb483245,69714714ec150213662dd7a8,,,,,,,,,,,,,,,,,,,,,,,,,,,1,,,,,,,,,,,,,,,,,,,,,,,,,,,,,,,,,,,,,,,,,,,,498.2216,503.4538,strongly agree,0,0,0,0,1,I can easily tell if someone else wants to enter a conversation.,1,0,1,0,,
,,,,,,,,,5f42ac74bac9f24a6091bd27,Mexican,13 or older,"no, only English or Spanish",yes,2026-01-21_16h38.10.398,empathy_intonation_perc_control,2024.2.4,Win32,60.24096386,5f42ac74bac9f24a6091bd27,69712dc693a3960bdb483245,69714714ec150213662dd7a8,,,,,,,,,,,,,,,,,,,,,,,,,,,2,,,,,,,,,,,,,,,,,,,,,,,,,,,,,,,,,,,,,,,,,,,,503.4557,507.2839,slightly agree,0,1,1,1,1,I prefer animals to humans.,0,1,0,0,,
,,,,,,,,,5f42ac74bac9f24a6091bd27,Mexican,13 or older,"no, only English or Spanish",yes,2026-01-21_16h38.10.398,empathy_intonation_perc_control,2024.2.4,Win32,60.24096386,5f42ac74bac9f24a6091bd27,69712dc693a3960bdb483245,69714714ec150213662dd7a8,,,,,,,,,,,,,,,,,,,,,,,,,,,3,,,,,,,,,,,,,,,,,,,,,,,,,,,,,,,,,,,,,,,,,,,,507.2881,510.2521,slightly disagree,0,2,2,2,1,I try to keep up with the current trends and fashions.,0,1,0,0,,
,,,,,,,,,5f42ac74bac9f24a6091bd27,Mexican,13 or older,"no, only English or Spanish",yes,2026-01-21_16h38.10.398,empathy_intonation_perc_control,2024.2.4,Win32,60.24096386,5f42ac74bac9f24a6091bd27,69712dc693a3960bdb483245,69714714ec150213662dd7a8,,,,,,,,,,,,,,,,,,,,,,,,,,,4,,,,,,,,,,,,,,,,,,,,,,,,,,,,,,,,,,,,,,,,,,,,510.256,517.9502,slightly disagree,0,3,3,3,1,"I find it difficult to explain to others things that I understand easily,   when they don't understand it first time.",1,0,0,1,,
,,,,,,,,,5f42ac74bac9f24a6091bd27,Mexican,13 or older,"no, only English or Spanish",yes,2026-01-21_16h38.10.398,empathy_intonation_perc_control,2024.2.4,Win32,60.24096386,5f42ac74bac9f24a6091bd27,69712dc693a3960bdb483245,69714714ec150213662dd7a8,,,,,,,,,,,,,,,,,,,,,,,,,,,5,,,,,,,,,,,,,,,,,,,,,,,,,,,,,,,,,,,,,,,,,,,,517.9531,520.2329,slightly agree,0,4,4,4,1,I dream most nights.,0,1,0,0,,
,,,,,,,,,5f42ac74bac9f24a6091bd27,Mexican,13 or older,"no, only English or Spanish",yes,2026-01-21_16h38.10.398,empathy_intonation_perc_control,2024.2.4,Win32,60.24096386,5f42ac74bac9f24a6091bd27,69712dc693a3960bdb483245,69714714ec150213662dd7a8,,,,,,,,,,,,,,,,,,,,,,,,,,,6,,,,,,,,,,,,,,,,,,,,,,,,,,,,,,,,,,,,,,,,,,,,520.2339,522.4175,slightly agree,0,5,5,5,1,I really enjoy caring for other people.,1,0,1,0,,
,,,,,,,,,5f42ac74bac9f24a6091bd27,Mexican,13 or older,"no, only English or Spanish",yes,2026-01-21_16h38.10.398,empathy_intonation_perc_control,2024.2.4,Win32,60.24096386,5f42ac74bac9f24a6091bd27,69712dc693a3960bdb483245,69714714ec150213662dd7a8,,,,,,,,,,,,,,,,,,,,,,,,,,,7,,,,,,,,,,,,,,,,,,,,,,,,,,,,,,,,,,,,,,,,,,,,522.4206,525.9757,slightly agree,0,6,6,6,1,I try to solve my own problems rather than discussing them with others.,0,1,0,0,,
,,,,,,,,,5f42ac74bac9f24a6091bd27,Mexican,13 or older,"no, only English or Spanish",yes,2026-01-21_16h38.10.398,empathy_intonation_perc_control,2024.2.4,Win32,60.24096386,5f42ac74bac9f24a6091bd27,69712dc693a3960bdb483245,69714714ec150213662dd7a8,,,,,,,,,,,,,,,,,,,,,,,,,,,8,,,,,,,,,,,,,,,,,,,,,,,,,,,,,,,,,,,,,,,,,,,,525.9777,530.5162,slightly agree,0,7,7,7,1,I find it hard to know what to do in a social situation.,1,0,0,1,,
,,,,,,,,,5f42ac74bac9f24a6091bd27,Mexican,13 or older,"no, only English or Spanish",yes,2026-01-21_16h38.10.398,empathy_intonation_perc_control,2024.2.4,Win32,60.24096386,5f42ac74bac9f24a6091bd27,69712dc693a3960bdb483245,69714714ec150213662dd7a8,,,,,,,,,,,,,,,,,,,,,,,,,,,9,,,,,,,,,,,,,,,,,,,,,,,,,,,,,,,,,,,,,,,,,,,,530.5178,533.91,slightly disagree,0,8,8,8,1,I am at my best first thing in the morning.,0,1,0,0,,
,,,,,,,,,5f42ac74bac9f24a6091bd27,Mexican,13 or older,"no, only English or Spanish",yes,2026-01-21_16h38.10.398,empathy_intonation_perc_control,2024.2.4,Win32,60.24096386,5f42ac74bac9f24a6091bd27,69712dc693a3960bdb483245,69714714ec150213662dd7a8,,,,,,,,,,,,,,,,,,,,,,,,,,,10,,,,,,,,,,,,,,,,,,,,,,,,,,,,,,,,,,,,,,,,,,,,533.9124,540.6693,slightly agree,0,9,9,9,1,People often tell me that I went too far in driving my point home in a discussion.,1,0,0,1,,
,,,,,,,,,5f42ac74bac9f24a6091bd27,Mexican,13 or older,"no, only English or Spanish",yes,2026-01-21_16h38.10.398,empathy_intonation_perc_control,2024.2.4,Win32,60.24096386,5f42ac74bac9f24a6091bd27,69712dc693a3960bdb483245,69714714ec150213662dd7a8,,,,,,,,,,,,,,,,,,,,,,,,,,,11,,,,,,,,,,,,,,,,,,,,,,,,,,,,,,,,,,,,,,,,,,,,540.6711,545.302,strongly disagree,0,10,10,10,1,It doesn't bother me too much if I am late meeting a friend.,1,0,0,1,,
,,,,,,,,,5f42ac74bac9f24a6091bd27,Mexican,13 or older,"no, only English or Spanish",yes,2026-01-21_16h38.10.398,empathy_intonation_perc_control,2024.2.4,Win32,60.24096386,5f42ac74bac9f24a6091bd27,69712dc693a3960bdb483245,69714714ec150213662dd7a8,,,,,,,,,,,,,,,,,,,,,,,,,,,12,,,,,,,,,,,,,,,,,,,,,,,,,,,,,,,,,,,,,,,,,,,,545.3044,548.8696,slightly disagree,0,11,11,11,1,"Friendships and relationships are just too difficult, so I tend not to 
  bother with them.",1,0,0,1,,
,,,,,,,,,5f42ac74bac9f24a6091bd27,Mexican,13 or older,"no, only English or Spanish",yes,2026-01-21_16h38.10.398,empathy_intonation_perc_control,2024.2.4,Win32,60.24096386,5f42ac74bac9f24a6091bd27,69712dc693a3960bdb483245,69714714ec150213662dd7a8,,,,,,,,,,,,,,,,,,,,,,,,,,,13,,,,,,,,,,,,,,,,,,,,,,,,,,,,,,,,,,,,,,,,,,,,548.8723,551.0661,slightly disagree,0,12,12,12,1,"I would never break a law, no matter how minor.",0,1,0,0,,
,,,,,,,,,5f42ac74bac9f24a6091bd27,Mexican,13 or older,"no, only English or Spanish",yes,2026-01-21_16h38.10.398,empathy_intonation_perc_control,2024.2.4,Win32,60.24096386,5f42ac74bac9f24a6091bd27,69712dc693a3960bdb483245,69714714ec150213662dd7a8,,,,,,,,,,,,,,,,,,,,,,,,,,,14,,,,,,,,,,,,,,,,,,,,,,,,,,,,,,,,,,,,,,,,,,,,551.0675,557.0168,slightly disagree,0,13,13,13,1,I often find it difficult to judge if something is rude or polite.,1,0,0,1,,
,,,,,,,,,5f42ac74bac9f24a6091bd27,Mexican,13 or older,"no, only English or Spanish",yes,2026-01-21_16h38.10.398,empathy_intonation_perc_control,2024.2.4,Win32,60.24096386,5f42ac74bac9f24a6091bd27,69712dc693a3960bdb483245,69714714ec150213662dd7a8,,,,,,,,,,,,,,,,,,,,,,,,,,,15,,,,,,,,,,,,,,,,,,,,,,,,,,,,,,,,,,,,,,,,,,,,557.0204,563.067,slightly disagree,0,14,14,14,1,"In a conversation, I tend to focus on my own thoughts rather than on what 
  my listener might be thinking.",1,0,0,1,,
,,,,,,,,,5f42ac74bac9f24a6091bd27,Mexican,13 or older,"no, only English or Spanish",yes,2026-01-21_16h38.10.398,empathy_intonation_perc_control,2024.2.4,Win32,60.24096386,5f42ac74bac9f24a6091bd27,69712dc693a3960bdb483245,69714714ec150213662dd7a8,,,,,,,,,,,,,,,,,,,,,,,,,,,16,,,,,,,,,,,,,,,,,,,,,,,,,,,,,,,,,,,,,,,,,,,,563.0689,569.0198,strongly disagree,0,15,15,15,1,I prefer practical jokes to verbal humor.,0,1,0,0,,
,,,,,,,,,5f42ac74bac9f24a6091bd27,Mexican,13 or older,"no, only English or Spanish",yes,2026-01-21_16h38.10.398,empathy_intonation_perc_control,2024.2.4,Win32,60.24096386,5f42ac74bac9f24a6091bd27,69712dc693a3960bdb483245,69714714ec150213662dd7a8,,,,,,,,,,,,,,,,,,,,,,,,,,,17,,,,,,,,,,,,,,,,,,,,,,,,,,,,,,,,,,,,,,,,,,,,569.0213,574.2675,slightly agree,0,16,16,16,1,I live life for today rather than the future.,0,1,0,0,,
,,,,,,,,,5f42ac74bac9f24a6091bd27,Mexican,13 or older,"no, only English or Spanish",yes,2026-01-21_16h38.10.398,empathy_intonation_perc_control,2024.2.4,Win32,60.24096386,5f42ac74bac9f24a6091bd27,69712dc693a3960bdb483245,69714714ec150213662dd7a8,,,,,,,,,,,,,,,,,,,,,,,,,,,18,,,,,,,,,,,,,,,,,,,,,,,,,,,,,,,,,,,,,,,,,,,,574.2705,577.7452,slightly disagree,0,17,17,17,1,"When I was a child, I enjoyed cutting up worms to see what would happen.",1,0,0,1,,
,,,,,,,,,5f42ac74bac9f24a6091bd27,Mexican,13 or older,"no, only English or Spanish",yes,2026-01-21_16h38.10.398,empathy_intonation_perc_control,2024.2.4,Win32,60.24096386,5f42ac74bac9f24a6091bd27,69712dc693a3960bdb483245,69714714ec150213662dd7a8,,,,,,,,,,,,,,,,,,,,,,,,,,,19,,,,,,,,,,,,,,,,,,,,,,,,,,,,,,,,,,,,,,,,,,,,577.7479,584.0452,strongly agree,0,18,18,18,1,I can pick up quickly if someone says one thing but means another.,1,0,1,0,,
,,,,,,,,,5f42ac74bac9f24a6091bd27,Mexican,13 or older,"no, only English or Spanish",yes,2026-01-21_16h38.10.398,empathy_intonation_perc_control,2024.2.4,Win32,60.24096386,5f42ac74bac9f24a6091bd27,69712dc693a3960bdb483245,69714714ec150213662dd7a8,,,,,,,,,,,,,,,,,,,,,,,,,,,20,,,,,,,,,,,,,,,,,,,,,,,,,,,,,,,,,,,,,,,,,,,,584.0474,587.3328,slightly agree,0,19,19,19,1,I tend to have very strong opinions about morality.,0,1,0,0,,
,,,,,,,,,5f42ac74bac9f24a6091bd27,Mexican,13 or older,"no, only English or Spanish",yes,2026-01-21_16h38.10.398,empathy_intonation_perc_control,2024.2.4,Win32,60.24096386,5f42ac74bac9f24a6091bd27,69712dc693a3960bdb483245,69714714ec150213662dd7a8,,,,,,,,,,,,,,,,,,,,,,,,,,,21,,,,,,,,,,,,,,,,,,,,,,,,,,,,,,,,,,,,,,,,,,,,587.3342,593.812,strongly disagree,0,20,20,20,1,It is hard for me to see why some things upset people so much.,1,0,0,1,,
,,,,,,,,,5f42ac74bac9f24a6091bd27,Mexican,13 or older,"no, only English or Spanish",yes,2026-01-21_16h38.10.398,empathy_intonation_perc_control,2024.2.4,Win32,60.24096386,5f42ac74bac9f24a6091bd27,69712dc693a3960bdb483245,69714714ec150213662dd7a8,,,,,,,,,,,,,,,,,,,,,,,,,,,22,,,,,,,,,,,,,,,,,,,,,,,,,,,,,,,,,,,,,,,,,,,,593.8137,597.8504,strongly agree,0,21,21,21,1,I find it easy to put myself in somebody else's shoes.,1,0,1,0,,
,,,,,,,,,5f42ac74bac9f24a6091bd27,Mexican,13 or older,"no, only English or Spanish",yes,2026-01-21_16h38.10.398,empathy_intonation_perc_control,2024.2.4,Win32,60.24096386,5f42ac74bac9f24a6091bd27,69712dc693a3960bdb483245,69714714ec150213662dd7a8,,,,,,,,,,,,,,,,,,,,,,,,,,,23,,,,,,,,,,,,,,,,,,,,,,,,,,,,,,,,,,,,,,,,,,,,597.8532,604.9839,slightly disagree,0,22,22,22,1,I think that good manners are the most important thing a parent can teach their child.,0,1,0,0,,
,,,,,,,,,5f42ac74bac9f24a6091bd27,Mexican,13 or older,"no, only English or Spanish",yes,2026-01-21_16h38.10.398,empathy_intonation_perc_control,2024.2.4,Win32,60.24096386,5f42ac74bac9f24a6091bd27,69712dc693a3960bdb483245,69714714ec150213662dd7a8,,,,,,,,,,,,,,,,,,,,,,,,,,,24,,,,,,,,,,,,,,,,,,,,,,,,,,,,,,,,,,,,,,,,,,,,604.9871,610.0954,slightly agree,0,23,23,23,1,I like to do things on the spur of the moment.,0,1,0,0,,
