instructions_2afc.started,instructions_2afc.stopped,instructions_2afc_loop.thisRepN,instructions_2afc_loop.thisTrialN,instructions_2afc_loop.thisN,instructions_2afc_loop.thisIndex,instructions_2afc_loop.ran,instructions_text,continue_text,participant_id,"What variety of Spanish are you most familiar with? (e.g., Peruvian, Spanish, Mexican)",At what age did you begin learning Spanish?,Are you proficient in any languages other than English/Spanish?,"Are you familiar with Caribbean (e.g., Caribbean, Puerto Rican) or Galician Spanish?",date,expName,psychopyVersion,OS,frameRate,id,study_id,session,practice_2afc.started,practice_2afc.stopped,key_resp_2afc_practice.keys,key_resp_2afc_practice.corr,key_resp_2afc_practice.rt,key_resp_2afc_practice.duration,trials_2afc_practice_loop.thisRepN,trials_2afc_practice_loop.thisTrialN,trials_2afc_practice_loop.thisN,trials_2afc_practice_loop.thisIndex,trials_2afc_practice_loop.ran,path,correct_response,check_2afc.started,check_2afc.stopped,trial_2afc.started,trial_2afc.stopped,key_resp_2afc_trial.keys,key_resp_2afc_trial.corr,key_resp_2afc_trial.rt,key_resp_2afc_trial.duration,trials_2afc_loop.thisRepN,trials_2afc_loop.thisTrialN,trials_2afc_loop.thisN,trials_2afc_loop.thisIndex,trials_2afc_loop.ran,item_num,target,variety,instructions_lextale.started,instructions_lextale.stopped,instructions_lextale_loop.thisRepN,instructions_lextale_loop.thisTrialN,instructions_lextale_loop.thisN,instructions_lextale_loop.thisIndex,instructions_lextale_loop.ran,practice_lextale.started,practice_lextale.stopped,key_resp_lextale_practice.keys,key_resp_lextale_practice.corr,key_resp_lextale_practice.rt,key_resp_lextale_practice.duration,practice_feedback_lextale.started,practice_feedback_lextale.stopped,trials_lextale_practice_loop.thisRepN,trials_lextale_practice_loop.thisTrialN,trials_lextale_practice_loop.thisN,trials_lextale_practice_loop.thisIndex,trials_lextale_practice_loop.ran,stim,word,prac_button_real,prac_button_false,check_lextale.started,check_lextale.stopped,trial_lextale.started,trial_lextale.stopped,key_resp_lextale_trial.keys,key_resp_lextale_trial.corr,key_resp_lextale_trial.rt,key_resp_lextale_trial.duration,trials_lextale_loop.thisRepN,trials_lextale_loop.thisTrialN,trials_lextale_loop.thisN,trials_lextale_loop.thisIndex,trials_lextale_loop.ran,button_real,button_false,instructions_eq.started,instructions_eq.stopped,trial_eq.started,trial_eq.stopped,slider_eq_trial.response,trials_eq_loop.thisRepN,trials_eq_loop.thisTrialN,trials_eq_loop.thisN,trials_eq_loop.thisIndex,trials_eq_loop.ran,item,is_test_item,is_distractor,is_agree_score,is_disagree_score,end_exp.started,end_exp.stopped
0.0127,740.849,0,0,0,0,1,"In the following task you are going to hear a series of utterances. 

  You will decide if the utterances sound like questions or not using your keyboard.", (press the spacebar to continue),5f51a882d4ac6440de16c4ed,"Dominican, Puerto Rican, ",younger than 13,"no, only English or Spanish",yes,2025-07-23_22h19.33.695,empathy_intonation_perc_control,2024.2.4,MacIntel,59.88023952,5f51a882d4ac6440de16c4ed,68817205a84113384fffdfe3,688196efea026eed3b9eea29,,,,,,,,,,,,,,,,,,,,,,,,,,,,,,,,,,,,,,,,,,,,,,,,,,,,,,,,,,,,,,,,,,,,,,,,,,,,,,,,,,,,,
740.8576,748.9,0,1,1,1,1,"If you believe the utterance is a question, type '1' (for 'yes') and if you do not 
  believe it is a question type '0' (for 'no').

  Let's practice a bit...", (press the spacebar to continue),5f51a882d4ac6440de16c4ed,"Dominican, Puerto Rican, ",younger than 13,"no, only English or Spanish",yes,2025-07-23_22h19.33.695,empathy_intonation_perc_control,2024.2.4,MacIntel,59.88023952,5f51a882d4ac6440de16c4ed,68817205a84113384fffdfe3,688196efea026eed3b9eea29,,,,,,,,,,,,,,,,,,,,,,,,,,,,,,,,,,,,,,,,,,,,,,,,,,,,,,,,,,,,,,,,,,,,,,,,,,,,,,,,,,,,,
,,,,,,,,,5f51a882d4ac6440de16c4ed,"Dominican, Puerto Rican, ",younger than 13,"no, only English or Spanish",yes,2025-07-23_22h19.33.695,empathy_intonation_perc_control,2024.2.4,MacIntel,59.88023952,5f51a882d4ac6440de16c4ed,68817205a84113384fffdfe3,688196efea026eed3b9eea29,748.9216,776.0347,1,0,26.581,,0,0,0,5,1,./stim/wavs/andalusian_statement_filler_Alberto-nunca-se-afeita.wav,0,,,,,,,,,,,,,,,,,,,,,,,,,,,,,,,,,,,,,,,,,,,,,,,,,,,,,,,,,,,,,,,,,,,,,,,,
,,,,,,,,,5f51a882d4ac6440de16c4ed,"Dominican, Puerto Rican, ",younger than 13,"no, only English or Spanish",yes,2025-07-23_22h19.33.695,empathy_intonation_perc_control,2024.2.4,MacIntel,59.88023952,5f51a882d4ac6440de16c4ed,68817205a84113384fffdfe3,688196efea026eed3b9eea29,776.036,781.2001,1,0,4.6334,,0,1,1,7,1,./stim/wavs/puertorican_statement_filler_La-nina-pinta-con-su-amiga.wav,0,,,,,,,,,,,,,,,,,,,,,,,,,,,,,,,,,,,,,,,,,,,,,,,,,,,,,,,,,,,,,,,,,,,,,,,,
,,,,,,,,,5f51a882d4ac6440de16c4ed,"Dominican, Puerto Rican, ",younger than 13,"no, only English or Spanish",yes,2025-07-23_22h19.33.695,empathy_intonation_perc_control,2024.2.4,MacIntel,59.88023952,5f51a882d4ac6440de16c4ed,68817205a84113384fffdfe3,688196efea026eed3b9eea29,781.2007,784.3339,1,1,2.6161,,0,2,2,3,1,./stim/wavs/mexican_question_filler_Felipe-no-tiene-contrasena.wav,1,,,,,,,,,,,,,,,,,,,,,,,,,,,,,,,,,,,,,,,,,,,,,,,,,,,,,,,,,,,,,,,,,,,,,,,,
,,,,,,,,,5f51a882d4ac6440de16c4ed,"Dominican, Puerto Rican, ",younger than 13,"no, only English or Spanish",yes,2025-07-23_22h19.33.695,empathy_intonation_perc_control,2024.2.4,MacIntel,59.88023952,5f51a882d4ac6440de16c4ed,68817205a84113384fffdfe3,688196efea026eed3b9eea29,784.3345,786.6501,1,1,1.7842,,0,3,3,1,1,./stim/wavs/argentine_question_filler_Mi-vecino-habla-mucho.wav,1,,,,,,,,,,,,,,,,,,,,,,,,,,,,,,,,,,,,,,,,,,,,,,,,,,,,,,,,,,,,,,,,,,,,,,,,
,,,,,,,,,5f51a882d4ac6440de16c4ed,"Dominican, Puerto Rican, ",younger than 13,"no, only English or Spanish",yes,2025-07-23_22h19.33.695,empathy_intonation_perc_control,2024.2.4,MacIntel,59.88023952,5f51a882d4ac6440de16c4ed,68817205a84113384fffdfe3,688196efea026eed3b9eea29,786.6507,792.8346,0,0,5.6496,,0,4,4,2,1,./stim/wavs/chilean_question_filler_Mi-padre-cantaba-bien.wav,1,,,,,,,,,,,,,,,,,,,,,,,,,,,,,,,,,,,,,,,,,,,,,,,,,,,,,,,,,,,,,,,,,,,,,,,,
,,,,,,,,,5f51a882d4ac6440de16c4ed,"Dominican, Puerto Rican, ",younger than 13,"no, only English or Spanish",yes,2025-07-23_22h19.33.695,empathy_intonation_perc_control,2024.2.4,MacIntel,59.88023952,5f51a882d4ac6440de16c4ed,68817205a84113384fffdfe3,688196efea026eed3b9eea29,792.8354,795.8347,1,0,2.4667,,0,5,5,4,1,./stim/wavs/cuban_statement_filler_Cocinabas-por-la-noche.wav,0,,,,,,,,,,,,,,,,,,,,,,,,,,,,,,,,,,,,,,,,,,,,,,,,,,,,,,,,,,,,,,,,,,,,,,,,
,,,,,,,,,5f51a882d4ac6440de16c4ed,"Dominican, Puerto Rican, ",younger than 13,"no, only English or Spanish",yes,2025-07-23_22h19.33.695,empathy_intonation_perc_control,2024.2.4,MacIntel,59.88023952,5f51a882d4ac6440de16c4ed,68817205a84113384fffdfe3,688196efea026eed3b9eea29,795.8353,798.3349,0,1,1.9779,,0,6,6,6,1,./stim/wavs/peruvian_statement_filler_El-nino-habla-con-su-madre.wav,0,,,,,,,,,,,,,,,,,,,,,,,,,,,,,,,,,,,,,,,,,,,,,,,,,,,,,,,,,,,,,,,,,,,,,,,,
,,,,,,,,,5f51a882d4ac6440de16c4ed,"Dominican, Puerto Rican, ",younger than 13,"no, only English or Spanish",yes,2025-07-23_22h19.33.695,empathy_intonation_perc_control,2024.2.4,MacIntel,59.88023952,5f51a882d4ac6440de16c4ed,68817205a84113384fffdfe3,688196efea026eed3b9eea29,798.3354,800.9171,1,1,2.0504,,0,7,7,0,1,./stim/wavs/castilian_question_filler_Mi-esposo-conoce-al-chico.wav,1,,,,,,,,,,,,,,,,,,,,,,,,,,,,,,,,,,,,,,,,,,,,,,,,,,,,,,,,,,,,,,,,,,,,,,,,
,,,,,,,,,5f51a882d4ac6440de16c4ed,"Dominican, Puerto Rican, ",younger than 13,"no, only English or Spanish",yes,2025-07-23_22h19.33.695,empathy_intonation_perc_control,2024.2.4,MacIntel,59.88023952,5f51a882d4ac6440de16c4ed,68817205a84113384fffdfe3,688196efea026eed3b9eea29,,,,,,,,,,,,,,800.9176,862.8535,,,,,,,,,,,,,,,,,,,,,,,,,,,,,,,,,,,,,,,,,,,,,,,,,,,,,,,,,,,,,,,,,,,,,,
,,,,,,,,,5f51a882d4ac6440de16c4ed,"Dominican, Puerto Rican, ",younger than 13,"no, only English or Spanish",yes,2025-07-23_22h19.33.695,empathy_intonation_perc_control,2024.2.4,MacIntel,59.88023952,5f51a882d4ac6440de16c4ed,68817205a84113384fffdfe3,688196efea026eed3b9eea29,,,,,,,,,,,,./stim/wavs/castilian_mismatch_interrogative-total-yn_La-maestra-vive-en-Paris.wav,1,,,862.8653,873.4039,1,1,10.0166,,0,0,0,24,1,25,0,castilian,,,,,,,,,,,,,,,,,,,,,,,,,,,,,,,,,,,,,,,,,,,,,,,,,,,,,,,,
,,,,,,,,,5f51a882d4ac6440de16c4ed,"Dominican, Puerto Rican, ",younger than 13,"no, only English or Spanish",yes,2025-07-23_22h19.33.695,empathy_intonation_perc_control,2024.2.4,MacIntel,59.88023952,5f51a882d4ac6440de16c4ed,68817205a84113384fffdfe3,688196efea026eed3b9eea29,,,,,,,,,,,,./stim/wavs/puertorican_mismatch_declarative-broad-focus_La-nina-lava-el-plato.wav,0,,,873.4047,878.2199,0,1,4.2945,,0,1,1,87,1,88,0,puertorican,,,,,,,,,,,,,,,,,,,,,,,,,,,,,,,,,,,,,,,,,,,,,,,,,,,,,,,,
,,,,,,,,,5f51a882d4ac6440de16c4ed,"Dominican, Puerto Rican, ",younger than 13,"no, only English or Spanish",yes,2025-07-23_22h19.33.695,empathy_intonation_perc_control,2024.2.4,MacIntel,59.88023952,5f51a882d4ac6440de16c4ed,68817205a84113384fffdfe3,688196efea026eed3b9eea29,,,,,,,,,,,,./stim/wavs/cuban_match_interrogative-total-yn_Manuela-vende-el-carro.wav,1,,,878.2201,882.5703,0,0,3.8275,,0,2,2,8,1,9,1,cuban,,,,,,,,,,,,,,,,,,,,,,,,,,,,,,,,,,,,,,,,,,,,,,,,,,,,,,,,
,,,,,,,,,5f51a882d4ac6440de16c4ed,"Dominican, Puerto Rican, ",younger than 13,"no, only English or Spanish",yes,2025-07-23_22h19.33.695,empathy_intonation_perc_control,2024.2.4,MacIntel,59.88023952,5f51a882d4ac6440de16c4ed,68817205a84113384fffdfe3,688196efea026eed3b9eea29,,,,,,,,,,,,./stim/wavs/puertorican_match_interrogative-total-yn_Manuela-vende-el-carro.wav,1,,,882.5709,887.1207,0,0,4.0177,,0,3,3,22,1,23,1,puertorican,,,,,,,,,,,,,,,,,,,,,,,,,,,,,,,,,,,,,,,,,,,,,,,,,,,,,,,,
,,,,,,,,,5f51a882d4ac6440de16c4ed,"Dominican, Puerto Rican, ",younger than 13,"no, only English or Spanish",yes,2025-07-23_22h19.33.695,empathy_intonation_perc_control,2024.2.4,MacIntel,59.88023952,5f51a882d4ac6440de16c4ed,68817205a84113384fffdfe3,688196efea026eed3b9eea29,,,,,,,,,,,,./stim/wavs/puertorican_mismatch_declarative-broad-focus_El-bebe-comia-muy-bien.wav,0,,,887.1212,889.5698,0,1,1.9178,,0,4,4,83,1,84,0,puertorican,,,,,,,,,,,,,,,,,,,,,,,,,,,,,,,,,,,,,,,,,,,,,,,,,,,,,,,,
,,,,,,,,,5f51a882d4ac6440de16c4ed,"Dominican, Puerto Rican, ",younger than 13,"no, only English or Spanish",yes,2025-07-23_22h19.33.695,empathy_intonation_perc_control,2024.2.4,MacIntel,59.88023952,5f51a882d4ac6440de16c4ed,68817205a84113384fffdfe3,688196efea026eed3b9eea29,,,,,,,,,,,,./stim/wavs/mexican_mismatch_interrogative-total-yn_El-nino-oye-el-rio.wav,1,,,889.5705,892.7708,1,1,2.6846,,0,5,5,35,1,36,0,mexican,,,,,,,,,,,,,,,,,,,,,,,,,,,,,,,,,,,,,,,,,,,,,,,,,,,,,,,,
,,,,,,,,,5f51a882d4ac6440de16c4ed,"Dominican, Puerto Rican, ",younger than 13,"no, only English or Spanish",yes,2025-07-23_22h19.33.695,empathy_intonation_perc_control,2024.2.4,MacIntel,59.88023952,5f51a882d4ac6440de16c4ed,68817205a84113384fffdfe3,688196efea026eed3b9eea29,,,,,,,,,,,,./stim/wavs/puertorican_mismatch_interrogative-total-yn_El-nino-oye-el-rio.wav,1,,,892.7714,902.6036,1,1,9.3024,,0,6,6,40,1,41,1,puertorican,,,,,,,,,,,,,,,,,,,,,,,,,,,,,,,,,,,,,,,,,,,,,,,,,,,,,,,,
,,,,,,,,,5f51a882d4ac6440de16c4ed,"Dominican, Puerto Rican, ",younger than 13,"no, only English or Spanish",yes,2025-07-23_22h19.33.695,empathy_intonation_perc_control,2024.2.4,MacIntel,59.88023952,5f51a882d4ac6440de16c4ed,68817205a84113384fffdfe3,688196efea026eed3b9eea29,,,,,,,,,,,,./stim/wavs/puertorican_mismatch_interrogative-total-yn_La-maestra-vive-en-Paris.wav,1,,,902.6043,910.7047,1,1,7.5948,,0,7,7,41,1,42,1,puertorican,,,,,,,,,,,,,,,,,,,,,,,,,,,,,,,,,,,,,,,,,,,,,,,,,,,,,,,,
,,,,,,,,,5f51a882d4ac6440de16c4ed,"Dominican, Puerto Rican, ",younger than 13,"no, only English or Spanish",yes,2025-07-23_22h19.33.695,empathy_intonation_perc_control,2024.2.4,MacIntel,59.88023952,5f51a882d4ac6440de16c4ed,68817205a84113384fffdfe3,688196efea026eed3b9eea29,,,,,,,,,,,,./stim/wavs/puertorican_mismatch_interrogative-total-yn_Mi-madre-come-la-fruta.wav,1,,,910.7051,917.7715,0,0,6.5433,,0,8,8,43,1,44,1,puertorican,,,,,,,,,,,,,,,,,,,,,,,,,,,,,,,,,,,,,,,,,,,,,,,,,,,,,,,,
,,,,,,,,,5f51a882d4ac6440de16c4ed,"Dominican, Puerto Rican, ",younger than 13,"no, only English or Spanish",yes,2025-07-23_22h19.33.695,empathy_intonation_perc_control,2024.2.4,MacIntel,59.88023952,5f51a882d4ac6440de16c4ed,68817205a84113384fffdfe3,688196efea026eed3b9eea29,,,,,,,,,,,,./stim/wavs/cuban_match_declarative-broad-focus_Mariano-habla-del-tiempo.wav,0,,,917.7721,924.7724,0,1,6.4713,,0,9,9,54,1,55,0,cuban,,,,,,,,,,,,,,,,,,,,,,,,,,,,,,,,,,,,,,,,,,,,,,,,,,,,,,,,
,,,,,,,,,5f51a882d4ac6440de16c4ed,"Dominican, Puerto Rican, ",younger than 13,"no, only English or Spanish",yes,2025-07-23_22h19.33.695,empathy_intonation_perc_control,2024.2.4,MacIntel,59.88023952,5f51a882d4ac6440de16c4ed,68817205a84113384fffdfe3,688196efea026eed3b9eea29,,,,,,,,,,,,./stim/wavs/mexican_match_declarative-broad-focus_Emilio-ama-la-marcha.wav,0,,,924.774,930.6387,0,1,5.3334,,0,10,10,59,1,60,0,mexican,,,,,,,,,,,,,,,,,,,,,,,,,,,,,,,,,,,,,,,,,,,,,,,,,,,,,,,,
,,,,,,,,,5f51a882d4ac6440de16c4ed,"Dominican, Puerto Rican, ",younger than 13,"no, only English or Spanish",yes,2025-07-23_22h19.33.695,empathy_intonation_perc_control,2024.2.4,MacIntel,59.88023952,5f51a882d4ac6440de16c4ed,68817205a84113384fffdfe3,688196efea026eed3b9eea29,,,,,,,,,,,,./stim/wavs/cuban_match_interrogative-total-yn_Marta-abre-el-regalo.wav,1,,,930.6393,934.9387,0,0,3.7779,,0,11,11,11,1,12,1,cuban,,,,,,,,,,,,,,,,,,,,,,,,,,,,,,,,,,,,,,,,,,,,,,,,,,,,,,,,
,,,,,,,,,5f51a882d4ac6440de16c4ed,"Dominican, Puerto Rican, ",younger than 13,"no, only English or Spanish",yes,2025-07-23_22h19.33.695,empathy_intonation_perc_control,2024.2.4,MacIntel,59.88023952,5f51a882d4ac6440de16c4ed,68817205a84113384fffdfe3,688196efea026eed3b9eea29,,,,,,,,,,,,./stim/wavs/cuban_mismatch_interrogative-total-yn_Mi-madre-come-la-fruta.wav,1,,,934.9393,939.1556,1,1,3.6882,,0,12,12,31,1,32,1,cuban,,,,,,,,,,,,,,,,,,,,,,,,,,,,,,,,,,,,,,,,,,,,,,,,,,,,,,,,
,,,,,,,,,5f51a882d4ac6440de16c4ed,"Dominican, Puerto Rican, ",younger than 13,"no, only English or Spanish",yes,2025-07-23_22h19.33.695,empathy_intonation_perc_control,2024.2.4,MacIntel,59.88023952,5f51a882d4ac6440de16c4ed,68817205a84113384fffdfe3,688196efea026eed3b9eea29,,,,,,,,,,,,./stim/wavs/castilian_match_interrogative-total-yn_Mariano-habla-del-tiempo.wav,1,,,939.1561,941.6393,1,1,1.9511,,0,13,13,4,1,5,0,castilian,,,,,,,,,,,,,,,,,,,,,,,,,,,,,,,,,,,,,,,,,,,,,,,,,,,,,,,,
,,,,,,,,,5f51a882d4ac6440de16c4ed,"Dominican, Puerto Rican, ",younger than 13,"no, only English or Spanish",yes,2025-07-23_22h19.33.695,empathy_intonation_perc_control,2024.2.4,MacIntel,59.88023952,5f51a882d4ac6440de16c4ed,68817205a84113384fffdfe3,688196efea026eed3b9eea29,,,,,,,,,,,,./stim/wavs/mexican_mismatch_declarative-broad-focus_Mi-novio-viene-del-lago.wav,0,,,941.6401,944.5391,0,1,2.3683,,0,14,14,81,1,82,0,mexican,,,,,,,,,,,,,,,,,,,,,,,,,,,,,,,,,,,,,,,,,,,,,,,,,,,,,,,,
,,,,,,,,,5f51a882d4ac6440de16c4ed,"Dominican, Puerto Rican, ",younger than 13,"no, only English or Spanish",yes,2025-07-23_22h19.33.695,empathy_intonation_perc_control,2024.2.4,MacIntel,59.88023952,5f51a882d4ac6440de16c4ed,68817205a84113384fffdfe3,688196efea026eed3b9eea29,,,,,,,,,,,,./stim/wavs/castilian_match_interrogative-total-yn_Manuela-vende-el-carro.wav,1,,,944.5397,949.9893,0,0,4.9166,,0,15,15,2,1,3,0,castilian,,,,,,,,,,,,,,,,,,,,,,,,,,,,,,,,,,,,,,,,,,,,,,,,,,,,,,,,
,,,,,,,,,5f51a882d4ac6440de16c4ed,"Dominican, Puerto Rican, ",younger than 13,"no, only English or Spanish",yes,2025-07-23_22h19.33.695,empathy_intonation_perc_control,2024.2.4,MacIntel,59.88023952,5f51a882d4ac6440de16c4ed,68817205a84113384fffdfe3,688196efea026eed3b9eea29,,,,,,,,,,,,./stim/wavs/puertorican_match_declarative-broad-focus_Manuela-vende-el-carro.wav,0,,,949.9902,952.905,0,1,2.3875,,0,16,16,66,1,67,0,puertorican,,,,,,,,,,,,,,,,,,,,,,,,,,,,,,,,,,,,,,,,,,,,,,,,,,,,,,,,
,,,,,,,,,5f51a882d4ac6440de16c4ed,"Dominican, Puerto Rican, ",younger than 13,"no, only English or Spanish",yes,2025-07-23_22h19.33.695,empathy_intonation_perc_control,2024.2.4,MacIntel,59.88023952,5f51a882d4ac6440de16c4ed,68817205a84113384fffdfe3,688196efea026eed3b9eea29,,,,,,,,,,,,./stim/wavs/puertorican_match_declarative-broad-focus_David-leia-el-libro.wav,0,,,952.9058,957.1219,0,1,3.6839,,0,17,17,64,1,65,0,puertorican,,,,,,,,,,,,,,,,,,,,,,,,,,,,,,,,,,,,,,,,,,,,,,,,,,,,,,,,
,,,,,,,,,5f51a882d4ac6440de16c4ed,"Dominican, Puerto Rican, ",younger than 13,"no, only English or Spanish",yes,2025-07-23_22h19.33.695,empathy_intonation_perc_control,2024.2.4,MacIntel,59.88023952,5f51a882d4ac6440de16c4ed,68817205a84113384fffdfe3,688196efea026eed3b9eea29,,,,,,,,,,,,./stim/wavs/castilian_mismatch_declarative-broad-focus_El-nino-oye-el-rio.wav,0,,,957.1227,960.722,1,0,3.0662,,0,18,18,68,1,69,0,castilian,,,,,,,,,,,,,,,,,,,,,,,,,,,,,,,,,,,,,,,,,,,,,,,,,,,,,,,,
,,,,,,,,,5f51a882d4ac6440de16c4ed,"Dominican, Puerto Rican, ",younger than 13,"no, only English or Spanish",yes,2025-07-23_22h19.33.695,empathy_intonation_perc_control,2024.2.4,MacIntel,59.88023952,5f51a882d4ac6440de16c4ed,68817205a84113384fffdfe3,688196efea026eed3b9eea29,,,,,,,,,,,,./stim/wavs/castilian_match_interrogative-total-yn_Maria-bebe-el-vino.wav,1,,,960.7227,964.4064,0,0,3.1666,,0,19,19,3,1,4,0,castilian,,,,,,,,,,,,,,,,,,,,,,,,,,,,,,,,,,,,,,,,,,,,,,,,,,,,,,,,
,,,,,,,,,5f51a882d4ac6440de16c4ed,"Dominican, Puerto Rican, ",younger than 13,"no, only English or Spanish",yes,2025-07-23_22h19.33.695,empathy_intonation_perc_control,2024.2.4,MacIntel,59.88023952,5f51a882d4ac6440de16c4ed,68817205a84113384fffdfe3,688196efea026eed3b9eea29,,,,,,,,,,,,./stim/wavs/cuban_mismatch_declarative-broad-focus_El-hombre-mira-la-luna.wav,0,,,964.4069,998.7908,1,0,33.8503,,0,20,20,74,1,75,0,cuban,,,,,,,,,,,,,,,,,,,,,,,,,,,,,,,,,,,,,,,,,,,,,,,,,,,,,,,,
,,,,,,,,,5f51a882d4ac6440de16c4ed,"Dominican, Puerto Rican, ",younger than 13,"no, only English or Spanish",yes,2025-07-23_22h19.33.695,empathy_intonation_perc_control,2024.2.4,MacIntel,59.88023952,5f51a882d4ac6440de16c4ed,68817205a84113384fffdfe3,688196efea026eed3b9eea29,,,,,,,,,,,,./stim/wavs/cuban_mismatch_declarative-broad-focus_La-nina-lava-el-plato.wav,0,,,998.7917,1006.1243,0,1,6.801,,0,21,21,75,1,76,0,cuban,,,,,,,,,,,,,,,,,,,,,,,,,,,,,,,,,,,,,,,,,,,,,,,,,,,,,,,,
,,,,,,,,,5f51a882d4ac6440de16c4ed,"Dominican, Puerto Rican, ",younger than 13,"no, only English or Spanish",yes,2025-07-23_22h19.33.695,empathy_intonation_perc_control,2024.2.4,MacIntel,59.88023952,5f51a882d4ac6440de16c4ed,68817205a84113384fffdfe3,688196efea026eed3b9eea29,,,,,,,,,,,,./stim/wavs/castilian_mismatch_declarative-broad-focus_La-nina-lava-el-plato.wav,0,,,1006.125,1013.6075,0,1,6.9505,,0,22,22,70,1,71,0,castilian,,,,,,,,,,,,,,,,,,,,,,,,,,,,,,,,,,,,,,,,,,,,,,,,,,,,,,,,
,,,,,,,,,5f51a882d4ac6440de16c4ed,"Dominican, Puerto Rican, ",younger than 13,"no, only English or Spanish",yes,2025-07-23_22h19.33.695,empathy_intonation_perc_control,2024.2.4,MacIntel,59.88023952,5f51a882d4ac6440de16c4ed,68817205a84113384fffdfe3,688196efea026eed3b9eea29,,,,,,,,,,,,./stim/wavs/puertorican_match_interrogative-total-yn_David-leia-el-libro.wav,1,,,1013.6081,1018.441,1,1,4.3007,,0,23,23,20,1,21,1,puertorican,,,,,,,,,,,,,,,,,,,,,,,,,,,,,,,,,,,,,,,,,,,,,,,,,,,,,,,,
,,,,,,,,,5f51a882d4ac6440de16c4ed,"Dominican, Puerto Rican, ",younger than 13,"no, only English or Spanish",yes,2025-07-23_22h19.33.695,empathy_intonation_perc_control,2024.2.4,MacIntel,59.88023952,5f51a882d4ac6440de16c4ed,68817205a84113384fffdfe3,688196efea026eed3b9eea29,,,,,,,,,,,,./stim/wavs/mexican_match_interrogative-total-yn_Daniel-iba-a-Bolivia.wav,1,,,1018.4415,1023.1081,0,0,4.133,,0,24,24,13,1,14,0,mexican,,,,,,,,,,,,,,,,,,,,,,,,,,,,,,,,,,,,,,,,,,,,,,,,,,,,,,,,
,,,,,,,,,5f51a882d4ac6440de16c4ed,"Dominican, Puerto Rican, ",younger than 13,"no, only English or Spanish",yes,2025-07-23_22h19.33.695,empathy_intonation_perc_control,2024.2.4,MacIntel,59.88023952,5f51a882d4ac6440de16c4ed,68817205a84113384fffdfe3,688196efea026eed3b9eea29,,,,,,,,,,,,./stim/wavs/castilian_match_declarative-broad-focus_Mariano-habla-del-tiempo.wav,0,,,1023.1089,1028.9749,0,1,5.3376,,0,25,25,48,1,49,0,castilian,,,,,,,,,,,,,,,,,,,,,,,,,,,,,,,,,,,,,,,,,,,,,,,,,,,,,,,,
,,,,,,,,,5f51a882d4ac6440de16c4ed,"Dominican, Puerto Rican, ",younger than 13,"no, only English or Spanish",yes,2025-07-23_22h19.33.695,empathy_intonation_perc_control,2024.2.4,MacIntel,59.88023952,5f51a882d4ac6440de16c4ed,68817205a84113384fffdfe3,688196efea026eed3b9eea29,,,,,,,,,,,,./stim/wavs/mexican_match_interrogative-total-yn_Emilio-ama-la-marcha.wav,1,,,1028.9755,1032.0251,1,1,2.5286,,0,26,26,15,1,16,0,mexican,,,,,,,,,,,,,,,,,,,,,,,,,,,,,,,,,,,,,,,,,,,,,,,,,,,,,,,,
,,,,,,,,,5f51a882d4ac6440de16c4ed,"Dominican, Puerto Rican, ",younger than 13,"no, only English or Spanish",yes,2025-07-23_22h19.33.695,empathy_intonation_perc_control,2024.2.4,MacIntel,59.88023952,5f51a882d4ac6440de16c4ed,68817205a84113384fffdfe3,688196efea026eed3b9eea29,,,,,,,,,,,,./stim/wavs/mexican_mismatch_interrogative-total-yn_Mi-tia-odia-la-lluvia.wav,1,,,1032.0257,1034.5917,1,1,2.034,,0,27,27,38,1,39,0,mexican,,,,,,,,,,,,,,,,,,,,,,,,,,,,,,,,,,,,,,,,,,,,,,,,,,,,,,,,
,,,,,,,,,5f51a882d4ac6440de16c4ed,"Dominican, Puerto Rican, ",younger than 13,"no, only English or Spanish",yes,2025-07-23_22h19.33.695,empathy_intonation_perc_control,2024.2.4,MacIntel,59.88023952,5f51a882d4ac6440de16c4ed,68817205a84113384fffdfe3,688196efea026eed3b9eea29,,,,,,,,,,,,./stim/wavs/cuban_mismatch_declarative-broad-focus_Mi-tia-odia-la-lluvia.wav,0,,,1034.5924,1037.5256,1,0,2.4131,,0,28,28,77,1,78,0,cuban,,,,,,,,,,,,,,,,,,,,,,,,,,,,,,,,,,,,,,,,,,,,,,,,,,,,,,,,
,,,,,,,,,5f51a882d4ac6440de16c4ed,"Dominican, Puerto Rican, ",younger than 13,"no, only English or Spanish",yes,2025-07-23_22h19.33.695,empathy_intonation_perc_control,2024.2.4,MacIntel,59.88023952,5f51a882d4ac6440de16c4ed,68817205a84113384fffdfe3,688196efea026eed3b9eea29,,,,,,,,,,,,./stim/wavs/cuban_match_declarative-broad-focus_Maria-bebe-el-vino.wav,0,,,1037.5262,1040.3251,0,1,2.2674,,0,29,29,53,1,54,0,cuban,,,,,,,,,,,,,,,,,,,,,,,,,,,,,,,,,,,,,,,,,,,,,,,,,,,,,,,,
,,,,,,,,,5f51a882d4ac6440de16c4ed,"Dominican, Puerto Rican, ",younger than 13,"no, only English or Spanish",yes,2025-07-23_22h19.33.695,empathy_intonation_perc_control,2024.2.4,MacIntel,59.88023952,5f51a882d4ac6440de16c4ed,68817205a84113384fffdfe3,688196efea026eed3b9eea29,,,,,,,,,,,,./stim/wavs/mexican_match_declarative-broad-focus_David-leia-el-libro.wav,0,,,1040.3256,1043.1589,0,1,2.3022,,0,30,30,58,1,59,0,mexican,,,,,,,,,,,,,,,,,,,,,,,,,,,,,,,,,,,,,,,,,,,,,,,,,,,,,,,,
,,,,,,,,,5f51a882d4ac6440de16c4ed,"Dominican, Puerto Rican, ",younger than 13,"no, only English or Spanish",yes,2025-07-23_22h19.33.695,empathy_intonation_perc_control,2024.2.4,MacIntel,59.88023952,5f51a882d4ac6440de16c4ed,68817205a84113384fffdfe3,688196efea026eed3b9eea29,,,,,,,,,,,,./stim/wavs/mexican_mismatch_interrogative-total-yn_Mi-novio-viene-del-lago.wav,1,,,1043.1597,1046.9422,0,0,3.2515,,0,31,31,37,1,38,0,mexican,,,,,,,,,,,,,,,,,,,,,,,,,,,,,,,,,,,,,,,,,,,,,,,,,,,,,,,,
,,,,,,,,,5f51a882d4ac6440de16c4ed,"Dominican, Puerto Rican, ",younger than 13,"no, only English or Spanish",yes,2025-07-23_22h19.33.695,empathy_intonation_perc_control,2024.2.4,MacIntel,59.88023952,5f51a882d4ac6440de16c4ed,68817205a84113384fffdfe3,688196efea026eed3b9eea29,,,,,,,,,,,,./stim/wavs/puertorican_match_interrogative-total-yn_Emilio-ama-la-marcha.wav,1,,,1046.9427,1049.2422,1,1,1.7658,,0,32,32,21,1,22,1,puertorican,,,,,,,,,,,,,,,,,,,,,,,,,,,,,,,,,,,,,,,,,,,,,,,,,,,,,,,,
,,,,,,,,,5f51a882d4ac6440de16c4ed,"Dominican, Puerto Rican, ",younger than 13,"no, only English or Spanish",yes,2025-07-23_22h19.33.695,empathy_intonation_perc_control,2024.2.4,MacIntel,59.88023952,5f51a882d4ac6440de16c4ed,68817205a84113384fffdfe3,688196efea026eed3b9eea29,,,,,,,,,,,,./stim/wavs/puertorican_match_declarative-broad-focus_Emilio-ama-la-marcha.wav,0,,,1049.2429,1052.3758,1,0,2.601,,0,33,33,65,1,66,0,puertorican,,,,,,,,,,,,,,,,,,,,,,,,,,,,,,,,,,,,,,,,,,,,,,,,,,,,,,,,
,,,,,,,,,5f51a882d4ac6440de16c4ed,"Dominican, Puerto Rican, ",younger than 13,"no, only English or Spanish",yes,2025-07-23_22h19.33.695,empathy_intonation_perc_control,2024.2.4,MacIntel,59.88023952,5f51a882d4ac6440de16c4ed,68817205a84113384fffdfe3,688196efea026eed3b9eea29,,,,,,,,,,,,./stim/wavs/cuban_match_interrogative-total-yn_Ana-lleva-el-abrigo.wav,1,,,1052.3766,1054.8424,0,0,1.9418,,0,34,34,6,1,7,1,cuban,,,,,,,,,,,,,,,,,,,,,,,,,,,,,,,,,,,,,,,,,,,,,,,,,,,,,,,,
,,,,,,,,,5f51a882d4ac6440de16c4ed,"Dominican, Puerto Rican, ",younger than 13,"no, only English or Spanish",yes,2025-07-23_22h19.33.695,empathy_intonation_perc_control,2024.2.4,MacIntel,59.88023952,5f51a882d4ac6440de16c4ed,68817205a84113384fffdfe3,688196efea026eed3b9eea29,,,,,,,,,,,,./stim/wavs/castilian_match_interrogative-total-yn_David-leia-el-libro.wav,1,,,1054.8431,1057.2092,1,1,1.8333,,0,35,35,0,1,1,0,castilian,,,,,,,,,,,,,,,,,,,,,,,,,,,,,,,,,,,,,,,,,,,,,,,,,,,,,,,,
,,,,,,,,,5f51a882d4ac6440de16c4ed,"Dominican, Puerto Rican, ",younger than 13,"no, only English or Spanish",yes,2025-07-23_22h19.33.695,empathy_intonation_perc_control,2024.2.4,MacIntel,59.88023952,5f51a882d4ac6440de16c4ed,68817205a84113384fffdfe3,688196efea026eed3b9eea29,,,,,,,,,,,,./stim/wavs/cuban_match_interrogative-total-yn_Mariano-habla-del-tiempo.wav,1,,,1057.2097,1059.4592,1,1,1.7267,,0,36,36,10,1,11,1,cuban,,,,,,,,,,,,,,,,,,,,,,,,,,,,,,,,,,,,,,,,,,,,,,,,,,,,,,,,
,,,,,,,,,5f51a882d4ac6440de16c4ed,"Dominican, Puerto Rican, ",younger than 13,"no, only English or Spanish",yes,2025-07-23_22h19.33.695,empathy_intonation_perc_control,2024.2.4,MacIntel,59.88023952,5f51a882d4ac6440de16c4ed,68817205a84113384fffdfe3,688196efea026eed3b9eea29,,,,,,,,,,,,./stim/wavs/cuban_match_declarative-broad-focus_Ana-lleva-el-abrigo.wav,0,,,1059.4598,1061.9094,1,0,1.9175,,0,37,37,50,1,51,0,cuban,,,,,,,,,,,,,,,,,,,,,,,,,,,,,,,,,,,,,,,,,,,,,,,,,,,,,,,,
,,,,,,,,,5f51a882d4ac6440de16c4ed,"Dominican, Puerto Rican, ",younger than 13,"no, only English or Spanish",yes,2025-07-23_22h19.33.695,empathy_intonation_perc_control,2024.2.4,MacIntel,59.88023952,5f51a882d4ac6440de16c4ed,68817205a84113384fffdfe3,688196efea026eed3b9eea29,,,,,,,,,,,,./stim/wavs/mexican_match_interrogative-total-yn_Marta-abre-el-regalo.wav,1,,,1061.9102,1065.7092,1,1,3.2676,,0,38,38,17,1,18,0,mexican,,,,,,,,,,,,,,,,,,,,,,,,,,,,,,,,,,,,,,,,,,,,,,,,,,,,,,,,
,,,,,,,,,5f51a882d4ac6440de16c4ed,"Dominican, Puerto Rican, ",younger than 13,"no, only English or Spanish",yes,2025-07-23_22h19.33.695,empathy_intonation_perc_control,2024.2.4,MacIntel,59.88023952,5f51a882d4ac6440de16c4ed,68817205a84113384fffdfe3,688196efea026eed3b9eea29,,,,,,,,,,,,./stim/wavs/cuban_match_declarative-broad-focus_Daniel-iba-a-Bolivia.wav,0,,,1065.7102,1068.1597,1,0,1.917,,0,39,39,51,1,52,0,cuban,,,,,,,,,,,,,,,,,,,,,,,,,,,,,,,,,,,,,,,,,,,,,,,,,,,,,,,,
,,,,,,,,,5f51a882d4ac6440de16c4ed,"Dominican, Puerto Rican, ",younger than 13,"no, only English or Spanish",yes,2025-07-23_22h19.33.695,empathy_intonation_perc_control,2024.2.4,MacIntel,59.88023952,5f51a882d4ac6440de16c4ed,68817205a84113384fffdfe3,688196efea026eed3b9eea29,,,,,,,,,,,,./stim/wavs/cuban_mismatch_declarative-broad-focus_El-bebe-comia-muy-bien.wav,0,,,1068.1607,1071.8106,0,1,3.1146,,0,40,40,73,1,74,0,cuban,,,,,,,,,,,,,,,,,,,,,,,,,,,,,,,,,,,,,,,,,,,,,,,,,,,,,,,,
,,,,,,,,,5f51a882d4ac6440de16c4ed,"Dominican, Puerto Rican, ",younger than 13,"no, only English or Spanish",yes,2025-07-23_22h19.33.695,empathy_intonation_perc_control,2024.2.4,MacIntel,59.88023952,5f51a882d4ac6440de16c4ed,68817205a84113384fffdfe3,688196efea026eed3b9eea29,,,,,,,,,,,,./stim/wavs/cuban_mismatch_interrogative-total-yn_El-nino-oye-el-rio.wav,1,,,1071.8114,1074.3762,1,1,2.0451,,0,41,41,30,1,31,1,cuban,,,,,,,,,,,,,,,,,,,,,,,,,,,,,,,,,,,,,,,,,,,,,,,,,,,,,,,,
,,,,,,,,,5f51a882d4ac6440de16c4ed,"Dominican, Puerto Rican, ",younger than 13,"no, only English or Spanish",yes,2025-07-23_22h19.33.695,empathy_intonation_perc_control,2024.2.4,MacIntel,59.88023952,5f51a882d4ac6440de16c4ed,68817205a84113384fffdfe3,688196efea026eed3b9eea29,,,,,,,,,,,,./stim/wavs/castilian_mismatch_interrogative-total-yn_Mi-tia-odia-la-lluvia.wav,1,,,1074.3768,1081.1755,0,0,6.2667,,0,42,42,28,1,29,0,castilian,,,,,,,,,,,,,,,,,,,,,,,,,,,,,,,,,,,,,,,,,,,,,,,,,,,,,,,,
,,,,,,,,,5f51a882d4ac6440de16c4ed,"Dominican, Puerto Rican, ",younger than 13,"no, only English or Spanish",yes,2025-07-23_22h19.33.695,empathy_intonation_perc_control,2024.2.4,MacIntel,59.88023952,5f51a882d4ac6440de16c4ed,68817205a84113384fffdfe3,688196efea026eed3b9eea29,,,,,,,,,,,,./stim/wavs/puertorican_mismatch_declarative-broad-focus_El-hombre-mira-la-luna.wav,0,,,1081.1762,1085.2435,0,1,3.5451,,0,43,43,84,1,85,0,puertorican,,,,,,,,,,,,,,,,,,,,,,,,,,,,,,,,,,,,,,,,,,,,,,,,,,,,,,,,
,,,,,,,,,5f51a882d4ac6440de16c4ed,"Dominican, Puerto Rican, ",younger than 13,"no, only English or Spanish",yes,2025-07-23_22h19.33.695,empathy_intonation_perc_control,2024.2.4,MacIntel,59.88023952,5f51a882d4ac6440de16c4ed,68817205a84113384fffdfe3,688196efea026eed3b9eea29,,,,,,,,,,,,./stim/wavs/puertorican_match_interrogative-total-yn_Daniel-iba-a-Bolivia.wav,1,,,1085.244,1088.8935,1,1,3.1178,,0,44,44,19,1,20,1,puertorican,,,,,,,,,,,,,,,,,,,,,,,,,,,,,,,,,,,,,,,,,,,,,,,,,,,,,,,,
,,,,,,,,,5f51a882d4ac6440de16c4ed,"Dominican, Puerto Rican, ",younger than 13,"no, only English or Spanish",yes,2025-07-23_22h19.33.695,empathy_intonation_perc_control,2024.2.4,MacIntel,59.88023952,5f51a882d4ac6440de16c4ed,68817205a84113384fffdfe3,688196efea026eed3b9eea29,,,,,,,,,,,,./stim/wavs/cuban_match_declarative-broad-focus_Marta-abre-el-regalo.wav,0,,,1088.8944,1094.3592,0,1,4.9352,,0,45,45,55,1,56,0,cuban,,,,,,,,,,,,,,,,,,,,,,,,,,,,,,,,,,,,,,,,,,,,,,,,,,,,,,,,
,,,,,,,,,5f51a882d4ac6440de16c4ed,"Dominican, Puerto Rican, ",younger than 13,"no, only English or Spanish",yes,2025-07-23_22h19.33.695,empathy_intonation_perc_control,2024.2.4,MacIntel,59.88023952,5f51a882d4ac6440de16c4ed,68817205a84113384fffdfe3,688196efea026eed3b9eea29,,,,,,,,,,,,./stim/wavs/mexican_mismatch_declarative-broad-focus_El-bebe-comia-muy-bien.wav,0,,,1094.3598,1098.9269,0,1,4.0611,,0,46,46,78,1,79,0,mexican,,,,,,,,,,,,,,,,,,,,,,,,,,,,,,,,,,,,,,,,,,,,,,,,,,,,,,,,
,,,,,,,,,5f51a882d4ac6440de16c4ed,"Dominican, Puerto Rican, ",younger than 13,"no, only English or Spanish",yes,2025-07-23_22h19.33.695,empathy_intonation_perc_control,2024.2.4,MacIntel,59.88023952,5f51a882d4ac6440de16c4ed,68817205a84113384fffdfe3,688196efea026eed3b9eea29,,,,,,,,,,,,./stim/wavs/puertorican_match_interrogative-total-yn_Ana-lleva-el-abrigo.wav,1,,,1098.9277,1100.7095,1,1,1.2509,,0,47,47,18,1,19,1,puertorican,,,,,,,,,,,,,,,,,,,,,,,,,,,,,,,,,,,,,,,,,,,,,,,,,,,,,,,,
,,,,,,,,,5f51a882d4ac6440de16c4ed,"Dominican, Puerto Rican, ",younger than 13,"no, only English or Spanish",yes,2025-07-23_22h19.33.695,empathy_intonation_perc_control,2024.2.4,MacIntel,59.88023952,5f51a882d4ac6440de16c4ed,68817205a84113384fffdfe3,688196efea026eed3b9eea29,,,,,,,,,,,,./stim/wavs/castilian_match_declarative-broad-focus_Marta-abre-el-regalo.wav,0,,,1100.7106,1103.0594,0,1,1.8168,,0,48,48,49,1,50,0,castilian,,,,,,,,,,,,,,,,,,,,,,,,,,,,,,,,,,,,,,,,,,,,,,,,,,,,,,,,
,,,,,,,,,5f51a882d4ac6440de16c4ed,"Dominican, Puerto Rican, ",younger than 13,"no, only English or Spanish",yes,2025-07-23_22h19.33.695,empathy_intonation_perc_control,2024.2.4,MacIntel,59.88023952,5f51a882d4ac6440de16c4ed,68817205a84113384fffdfe3,688196efea026eed3b9eea29,,,,,,,,,,,,./stim/wavs/mexican_match_declarative-broad-focus_Ana-lleva-el-abrigo.wav,0,,,1103.0599,1105.5762,0,1,2.0001,,0,49,49,56,1,57,0,mexican,,,,,,,,,,,,,,,,,,,,,,,,,,,,,,,,,,,,,,,,,,,,,,,,,,,,,,,,
,,,,,,,,,5f51a882d4ac6440de16c4ed,"Dominican, Puerto Rican, ",younger than 13,"no, only English or Spanish",yes,2025-07-23_22h19.33.695,empathy_intonation_perc_control,2024.2.4,MacIntel,59.88023952,5f51a882d4ac6440de16c4ed,68817205a84113384fffdfe3,688196efea026eed3b9eea29,,,,,,,,,,,,./stim/wavs/mexican_match_declarative-broad-focus_Mariano-habla-del-tiempo.wav,0,,,1105.5767,1114.4273,0,1,8.3382,,0,50,50,60,1,61,0,mexican,,,,,,,,,,,,,,,,,,,,,,,,,,,,,,,,,,,,,,,,,,,,,,,,,,,,,,,,
,,,,,,,,,5f51a882d4ac6440de16c4ed,"Dominican, Puerto Rican, ",younger than 13,"no, only English or Spanish",yes,2025-07-23_22h19.33.695,empathy_intonation_perc_control,2024.2.4,MacIntel,59.88023952,5f51a882d4ac6440de16c4ed,68817205a84113384fffdfe3,688196efea026eed3b9eea29,,,,,,,,,,,,./stim/wavs/mexican_mismatch_declarative-broad-focus_La-maestra-vive-en-Paris.wav,0,,,1114.4281,1120.3432,0,1,5.3821,,0,51,51,80,1,81,0,mexican,,,,,,,,,,,,,,,,,,,,,,,,,,,,,,,,,,,,,,,,,,,,,,,,,,,,,,,,
,,,,,,,,,5f51a882d4ac6440de16c4ed,"Dominican, Puerto Rican, ",younger than 13,"no, only English or Spanish",yes,2025-07-23_22h19.33.695,empathy_intonation_perc_control,2024.2.4,MacIntel,59.88023952,5f51a882d4ac6440de16c4ed,68817205a84113384fffdfe3,688196efea026eed3b9eea29,,,,,,,,,,,,./stim/wavs/castilian_match_declarative-broad-focus_Maria-bebe-el-vino.wav,0,,,1120.344,1126.3434,0,1,5.4675,,0,52,52,47,1,48,0,castilian,,,,,,,,,,,,,,,,,,,,,,,,,,,,,,,,,,,,,,,,,,,,,,,,,,,,,,,,
,,,,,,,,,5f51a882d4ac6440de16c4ed,"Dominican, Puerto Rican, ",younger than 13,"no, only English or Spanish",yes,2025-07-23_22h19.33.695,empathy_intonation_perc_control,2024.2.4,MacIntel,59.88023952,5f51a882d4ac6440de16c4ed,68817205a84113384fffdfe3,688196efea026eed3b9eea29,,,,,,,,,,,,./stim/wavs/puertorican_match_declarative-broad-focus_Daniel-iba-a-Bolivia.wav,0,,,1126.344,1129.861,0,1,3.0005,,0,53,53,63,1,64,0,puertorican,,,,,,,,,,,,,,,,,,,,,,,,,,,,,,,,,,,,,,,,,,,,,,,,,,,,,,,,
,,,,,,,,,5f51a882d4ac6440de16c4ed,"Dominican, Puerto Rican, ",younger than 13,"no, only English or Spanish",yes,2025-07-23_22h19.33.695,empathy_intonation_perc_control,2024.2.4,MacIntel,59.88023952,5f51a882d4ac6440de16c4ed,68817205a84113384fffdfe3,688196efea026eed3b9eea29,,,,,,,,,,,,./stim/wavs/cuban_match_declarative-broad-focus_Manuela-vende-el-carro.wav,0,,,1129.8615,1134.0937,0,1,3.7035,,0,54,54,52,1,53,0,cuban,,,,,,,,,,,,,,,,,,,,,,,,,,,,,,,,,,,,,,,,,,,,,,,,,,,,,,,,
,,,,,,,,,5f51a882d4ac6440de16c4ed,"Dominican, Puerto Rican, ",younger than 13,"no, only English or Spanish",yes,2025-07-23_22h19.33.695,empathy_intonation_perc_control,2024.2.4,MacIntel,59.88023952,5f51a882d4ac6440de16c4ed,68817205a84113384fffdfe3,688196efea026eed3b9eea29,,,,,,,,,,,,./stim/wavs/mexican_match_interrogative-total-yn_Mariano-habla-del-tiempo.wav,1,,,1134.0946,1137.3105,1,1,2.7013,,0,55,55,16,1,17,0,mexican,,,,,,,,,,,,,,,,,,,,,,,,,,,,,,,,,,,,,,,,,,,,,,,,,,,,,,,,
,,,,,,,,,5f51a882d4ac6440de16c4ed,"Dominican, Puerto Rican, ",younger than 13,"no, only English or Spanish",yes,2025-07-23_22h19.33.695,empathy_intonation_perc_control,2024.2.4,MacIntel,59.88023952,5f51a882d4ac6440de16c4ed,68817205a84113384fffdfe3,688196efea026eed3b9eea29,,,,,,,,,,,,./stim/wavs/castilian_match_interrogative-total-yn_Emilio-ama-la-marcha.wav,1,,,1137.311,1139.9773,1,1,2.1498,,0,56,56,1,1,2,0,castilian,,,,,,,,,,,,,,,,,,,,,,,,,,,,,,,,,,,,,,,,,,,,,,,,,,,,,,,,
,,,,,,,,,5f51a882d4ac6440de16c4ed,"Dominican, Puerto Rican, ",younger than 13,"no, only English or Spanish",yes,2025-07-23_22h19.33.695,empathy_intonation_perc_control,2024.2.4,MacIntel,59.88023952,5f51a882d4ac6440de16c4ed,68817205a84113384fffdfe3,688196efea026eed3b9eea29,,,,,,,,,,,,./stim/wavs/castilian_mismatch_declarative-broad-focus_La-maestra-vive-en-Paris.wav,0,,,1139.9778,1148.2937,0,1,7.7992,,0,57,57,69,1,70,0,castilian,,,,,,,,,,,,,,,,,,,,,,,,,,,,,,,,,,,,,,,,,,,,,,,,,,,,,,,,
,,,,,,,,,5f51a882d4ac6440de16c4ed,"Dominican, Puerto Rican, ",younger than 13,"no, only English or Spanish",yes,2025-07-23_22h19.33.695,empathy_intonation_perc_control,2024.2.4,MacIntel,59.88023952,5f51a882d4ac6440de16c4ed,68817205a84113384fffdfe3,688196efea026eed3b9eea29,,,,,,,,,,,,./stim/wavs/castilian_mismatch_declarative-broad-focus_Mi-novio-viene-del-lago.wav,0,,,1148.2941,1152.8116,0,1,3.9942,,0,58,58,71,1,72,0,castilian,,,,,,,,,,,,,,,,,,,,,,,,,,,,,,,,,,,,,,,,,,,,,,,,,,,,,,,,
,,,,,,,,,5f51a882d4ac6440de16c4ed,"Dominican, Puerto Rican, ",younger than 13,"no, only English or Spanish",yes,2025-07-23_22h19.33.695,empathy_intonation_perc_control,2024.2.4,MacIntel,59.88023952,5f51a882d4ac6440de16c4ed,68817205a84113384fffdfe3,688196efea026eed3b9eea29,,,,,,,,,,,,./stim/wavs/mexican_match_declarative-broad-focus_Daniel-iba-a-Bolivia.wav,0,,,1152.812,1159.3281,0,1,5.9858,,0,59,59,57,1,58,0,mexican,,,,,,,,,,,,,,,,,,,,,,,,,,,,,,,,,,,,,,,,,,,,,,,,,,,,,,,,
,,,,,,,,,5f51a882d4ac6440de16c4ed,"Dominican, Puerto Rican, ",younger than 13,"no, only English or Spanish",yes,2025-07-23_22h19.33.695,empathy_intonation_perc_control,2024.2.4,MacIntel,59.88023952,5f51a882d4ac6440de16c4ed,68817205a84113384fffdfe3,688196efea026eed3b9eea29,,,,,,,,,,,,./stim/wavs/castilian_match_declarative-broad-focus_Manuela-vende-el-carro.wav,0,,,1159.3295,1163.8455,0,1,3.9833,,0,60,60,46,1,47,0,castilian,,,,,,,,,,,,,,,,,,,,,,,,,,,,,,,,,,,,,,,,,,,,,,,,,,,,,,,,
,,,,,,,,,5f51a882d4ac6440de16c4ed,"Dominican, Puerto Rican, ",younger than 13,"no, only English or Spanish",yes,2025-07-23_22h19.33.695,empathy_intonation_perc_control,2024.2.4,MacIntel,59.88023952,5f51a882d4ac6440de16c4ed,68817205a84113384fffdfe3,688196efea026eed3b9eea29,,,,,,,,,,,,./stim/wavs/puertorican_match_declarative-broad-focus_Ana-lleva-el-abrigo.wav,0,,,1163.8462,1166.6112,0,1,2.2336,,0,61,61,62,1,63,0,puertorican,,,,,,,,,,,,,,,,,,,,,,,,,,,,,,,,,,,,,,,,,,,,,,,,,,,,,,,,
,,,,,,,,,5f51a882d4ac6440de16c4ed,"Dominican, Puerto Rican, ",younger than 13,"no, only English or Spanish",yes,2025-07-23_22h19.33.695,empathy_intonation_perc_control,2024.2.4,MacIntel,59.88023952,5f51a882d4ac6440de16c4ed,68817205a84113384fffdfe3,688196efea026eed3b9eea29,,,,,,,,,,,,./stim/wavs/cuban_mismatch_interrogative-total-yn_Mi-tia-odia-la-lluvia.wav,1,,,1166.6119,1169.6613,1,1,2.5338,,0,62,62,33,1,34,1,cuban,,,,,,,,,,,,,,,,,,,,,,,,,,,,,,,,,,,,,,,,,,,,,,,,,,,,,,,,
,,,,,,,,,5f51a882d4ac6440de16c4ed,"Dominican, Puerto Rican, ",younger than 13,"no, only English or Spanish",yes,2025-07-23_22h19.33.695,empathy_intonation_perc_control,2024.2.4,MacIntel,59.88023952,5f51a882d4ac6440de16c4ed,68817205a84113384fffdfe3,688196efea026eed3b9eea29,,,,,,,,,,,,./stim/wavs/castilian_mismatch_interrogative-total-yn_La-nina-lava-el-plato.wav,1,,,1169.6621,1171.8119,0,0,1.6265,,0,63,63,25,1,26,0,castilian,,,,,,,,,,,,,,,,,,,,,,,,,,,,,,,,,,,,,,,,,,,,,,,,,,,,,,,,
,,,,,,,,,5f51a882d4ac6440de16c4ed,"Dominican, Puerto Rican, ",younger than 13,"no, only English or Spanish",yes,2025-07-23_22h19.33.695,empathy_intonation_perc_control,2024.2.4,MacIntel,59.88023952,5f51a882d4ac6440de16c4ed,68817205a84113384fffdfe3,688196efea026eed3b9eea29,,,,,,,,,,,,./stim/wavs/mexican_match_declarative-broad-focus_Marta-abre-el-regalo.wav,0,,,1171.8124,1174.9282,0,1,2.5847,,0,64,64,61,1,62,0,mexican,,,,,,,,,,,,,,,,,,,,,,,,,,,,,,,,,,,,,,,,,,,,,,,,,,,,,,,,
,,,,,,,,,5f51a882d4ac6440de16c4ed,"Dominican, Puerto Rican, ",younger than 13,"no, only English or Spanish",yes,2025-07-23_22h19.33.695,empathy_intonation_perc_control,2024.2.4,MacIntel,59.88023952,5f51a882d4ac6440de16c4ed,68817205a84113384fffdfe3,688196efea026eed3b9eea29,,,,,,,,,,,,./stim/wavs/puertorican_mismatch_declarative-broad-focus_La-maestra-vive-en-Paris.wav,0,,,1174.929,1183.7468,0,1,8.3109,,0,65,65,86,1,87,0,puertorican,,,,,,,,,,,,,,,,,,,,,,,,,,,,,,,,,,,,,,,,,,,,,,,,,,,,,,,,
,,,,,,,,,5f51a882d4ac6440de16c4ed,"Dominican, Puerto Rican, ",younger than 13,"no, only English or Spanish",yes,2025-07-23_22h19.33.695,empathy_intonation_perc_control,2024.2.4,MacIntel,59.88023952,5f51a882d4ac6440de16c4ed,68817205a84113384fffdfe3,688196efea026eed3b9eea29,,,,,,,,,,,,./stim/wavs/puertorican_match_declarative-broad-focus_Maria-bebe-el-vino.wav,0,,,1183.7474,1186.8292,1,0,2.5596,,0,66,66,67,1,68,0,puertorican,,,,,,,,,,,,,,,,,,,,,,,,,,,,,,,,,,,,,,,,,,,,,,,,,,,,,,,,
,,,,,,,,,5f51a882d4ac6440de16c4ed,"Dominican, Puerto Rican, ",younger than 13,"no, only English or Spanish",yes,2025-07-23_22h19.33.695,empathy_intonation_perc_control,2024.2.4,MacIntel,59.88023952,5f51a882d4ac6440de16c4ed,68817205a84113384fffdfe3,688196efea026eed3b9eea29,,,,,,,,,,,,./stim/wavs/castilian_match_declarative-broad-focus_Emilio-ama-la-marcha.wav,0,,,1186.8295,1195.046,0,1,7.6836,,0,67,67,45,1,46,0,castilian,,,,,,,,,,,,,,,,,,,,,,,,,,,,,,,,,,,,,,,,,,,,,,,,,,,,,,,,
,,,,,,,,,5f51a882d4ac6440de16c4ed,"Dominican, Puerto Rican, ",younger than 13,"no, only English or Spanish",yes,2025-07-23_22h19.33.695,empathy_intonation_perc_control,2024.2.4,MacIntel,59.88023952,5f51a882d4ac6440de16c4ed,68817205a84113384fffdfe3,688196efea026eed3b9eea29,,,,,,,,,,,,./stim/wavs/mexican_mismatch_interrogative-total-yn_La-maestra-vive-en-Paris.wav,1,,,1195.0465,1199.313,1,1,3.7545,,0,68,68,36,1,37,0,mexican,,,,,,,,,,,,,,,,,,,,,,,,,,,,,,,,,,,,,,,,,,,,,,,,,,,,,,,,
,,,,,,,,,5f51a882d4ac6440de16c4ed,"Dominican, Puerto Rican, ",younger than 13,"no, only English or Spanish",yes,2025-07-23_22h19.33.695,empathy_intonation_perc_control,2024.2.4,MacIntel,59.88023952,5f51a882d4ac6440de16c4ed,68817205a84113384fffdfe3,688196efea026eed3b9eea29,,,,,,,,,,,,./stim/wavs/mexican_mismatch_interrogative-total-yn_El-hombre-mira-la-luna.wav,1,,,1199.3134,1202.6301,1,1,2.7847,,0,69,69,34,1,35,0,mexican,,,,,,,,,,,,,,,,,,,,,,,,,,,,,,,,,,,,,,,,,,,,,,,,,,,,,,,,
,,,,,,,,,5f51a882d4ac6440de16c4ed,"Dominican, Puerto Rican, ",younger than 13,"no, only English or Spanish",yes,2025-07-23_22h19.33.695,empathy_intonation_perc_control,2024.2.4,MacIntel,59.88023952,5f51a882d4ac6440de16c4ed,68817205a84113384fffdfe3,688196efea026eed3b9eea29,,,,,,,,,,,,./stim/wavs/mexican_mismatch_declarative-broad-focus_El-hombre-mira-la-luna.wav,0,,,1202.6307,1217.3964,0,1,14.2389,,0,70,70,79,1,80,0,mexican,,,,,,,,,,,,,,,,,,,,,,,,,,,,,,,,,,,,,,,,,,,,,,,,,,,,,,,,
,,,,,,,,,5f51a882d4ac6440de16c4ed,"Dominican, Puerto Rican, ",younger than 13,"no, only English or Spanish",yes,2025-07-23_22h19.33.695,empathy_intonation_perc_control,2024.2.4,MacIntel,59.88023952,5f51a882d4ac6440de16c4ed,68817205a84113384fffdfe3,688196efea026eed3b9eea29,,,,,,,,,,,,./stim/wavs/puertorican_mismatch_interrogative-total-yn_La-nina-lava-el-plato.wav,1,,,1217.3973,1220.4471,1,1,2.5167,,0,71,71,42,1,43,1,puertorican,,,,,,,,,,,,,,,,,,,,,,,,,,,,,,,,,,,,,,,,,,,,,,,,,,,,,,,,
,,,,,,,,,5f51a882d4ac6440de16c4ed,"Dominican, Puerto Rican, ",younger than 13,"no, only English or Spanish",yes,2025-07-23_22h19.33.695,empathy_intonation_perc_control,2024.2.4,MacIntel,59.88023952,5f51a882d4ac6440de16c4ed,68817205a84113384fffdfe3,688196efea026eed3b9eea29,,,,,,,,,,,,./stim/wavs/cuban_match_interrogative-total-yn_Daniel-iba-a-Bolivia.wav,1,,,1220.4477,1224.3796,1,1,3.4003,,0,72,72,7,1,8,1,cuban,,,,,,,,,,,,,,,,,,,,,,,,,,,,,,,,,,,,,,,,,,,,,,,,,,,,,,,,
,,,,,,,,,5f51a882d4ac6440de16c4ed,"Dominican, Puerto Rican, ",younger than 13,"no, only English or Spanish",yes,2025-07-23_22h19.33.695,empathy_intonation_perc_control,2024.2.4,MacIntel,59.88023952,5f51a882d4ac6440de16c4ed,68817205a84113384fffdfe3,688196efea026eed3b9eea29,,,,,,,,,,,,./stim/wavs/castilian_mismatch_interrogative-total-yn_Mi-madre-come-la-fruta.wav,1,,,1224.3802,1244.7811,0,0,19.8844,,0,73,73,26,1,27,0,castilian,,,,,,,,,,,,,,,,,,,,,,,,,,,,,,,,,,,,,,,,,,,,,,,,,,,,,,,,
,,,,,,,,,5f51a882d4ac6440de16c4ed,"Dominican, Puerto Rican, ",younger than 13,"no, only English or Spanish",yes,2025-07-23_22h19.33.695,empathy_intonation_perc_control,2024.2.4,MacIntel,59.88023952,5f51a882d4ac6440de16c4ed,68817205a84113384fffdfe3,688196efea026eed3b9eea29,,,,,,,,,,,,./stim/wavs/mexican_match_interrogative-total-yn_David-leia-el-libro.wav,1,,,1244.7827,1250.1486,1,1,4.8319,,0,74,74,14,1,15,0,mexican,,,,,,,,,,,,,,,,,,,,,,,,,,,,,,,,,,,,,,,,,,,,,,,,,,,,,,,,
,,,,,,,,,5f51a882d4ac6440de16c4ed,"Dominican, Puerto Rican, ",younger than 13,"no, only English or Spanish",yes,2025-07-23_22h19.33.695,empathy_intonation_perc_control,2024.2.4,MacIntel,59.88023952,5f51a882d4ac6440de16c4ed,68817205a84113384fffdfe3,688196efea026eed3b9eea29,,,,,,,,,,,,./stim/wavs/cuban_match_interrogative-total-yn_Maria-bebe-el-vino.wav,1,,,1250.1493,1254.0149,1,1,3.3337,,0,75,75,9,1,10,1,cuban,,,,,,,,,,,,,,,,,,,,,,,,,,,,,,,,,,,,,,,,,,,,,,,,,,,,,,,,
,,,,,,,,,5f51a882d4ac6440de16c4ed,"Dominican, Puerto Rican, ",younger than 13,"no, only English or Spanish",yes,2025-07-23_22h19.33.695,empathy_intonation_perc_control,2024.2.4,MacIntel,59.88023952,5f51a882d4ac6440de16c4ed,68817205a84113384fffdfe3,688196efea026eed3b9eea29,,,,,,,,,,,,./stim/wavs/cuban_mismatch_declarative-broad-focus_Mi-novio-viene-del-lago.wav,0,,,1254.0161,1257.3484,0,1,2.8061,,0,76,76,76,1,77,0,cuban,,,,,,,,,,,,,,,,,,,,,,,,,,,,,,,,,,,,,,,,,,,,,,,,,,,,,,,,
,,,,,,,,,5f51a882d4ac6440de16c4ed,"Dominican, Puerto Rican, ",younger than 13,"no, only English or Spanish",yes,2025-07-23_22h19.33.695,empathy_intonation_perc_control,2024.2.4,MacIntel,59.88023952,5f51a882d4ac6440de16c4ed,68817205a84113384fffdfe3,688196efea026eed3b9eea29,,,,,,,,,,,,./stim/wavs/cuban_mismatch_interrogative-total-yn_El-hombre-mira-la-luna.wav,1,,,1257.3491,1259.4475,1,1,1.5664,,0,77,77,29,1,30,1,cuban,,,,,,,,,,,,,,,,,,,,,,,,,,,,,,,,,,,,,,,,,,,,,,,,,,,,,,,,
,,,,,,,,,5f51a882d4ac6440de16c4ed,"Dominican, Puerto Rican, ",younger than 13,"no, only English or Spanish",yes,2025-07-23_22h19.33.695,empathy_intonation_perc_control,2024.2.4,MacIntel,59.88023952,5f51a882d4ac6440de16c4ed,68817205a84113384fffdfe3,688196efea026eed3b9eea29,,,,,,,,,,,,./stim/wavs/mexican_mismatch_declarative-broad-focus_Mi-tia-odia-la-lluvia.wav,0,,,1259.4481,1262.3983,1,0,2.4437,,0,78,78,82,1,83,0,mexican,,,,,,,,,,,,,,,,,,,,,,,,,,,,,,,,,,,,,,,,,,,,,,,,,,,,,,,,
,,,,,,,,,5f51a882d4ac6440de16c4ed,"Dominican, Puerto Rican, ",younger than 13,"no, only English or Spanish",yes,2025-07-23_22h19.33.695,empathy_intonation_perc_control,2024.2.4,MacIntel,59.88023952,5f51a882d4ac6440de16c4ed,68817205a84113384fffdfe3,688196efea026eed3b9eea29,,,,,,,,,,,,./stim/wavs/mexican_match_interrogative-total-yn_Ana-lleva-el-abrigo.wav,1,,,1262.3989,1270.8987,1,1,7.9674,,0,79,79,12,1,13,0,mexican,,,,,,,,,,,,,,,,,,,,,,,,,,,,,,,,,,,,,,,,,,,,,,,,,,,,,,,,
,,,,,,,,,5f51a882d4ac6440de16c4ed,"Dominican, Puerto Rican, ",younger than 13,"no, only English or Spanish",yes,2025-07-23_22h19.33.695,empathy_intonation_perc_control,2024.2.4,MacIntel,59.88023952,5f51a882d4ac6440de16c4ed,68817205a84113384fffdfe3,688196efea026eed3b9eea29,,,,,,,,,,,,./stim/wavs/castilian_match_declarative-broad-focus_David-leia-el-libro.wav,0,,,1270.8995,1277.1163,0,1,5.6956,,0,80,80,44,1,45,0,castilian,,,,,,,,,,,,,,,,,,,,,,,,,,,,,,,,,,,,,,,,,,,,,,,,,,,,,,,,
,,,,,,,,,5f51a882d4ac6440de16c4ed,"Dominican, Puerto Rican, ",younger than 13,"no, only English or Spanish",yes,2025-07-23_22h19.33.695,empathy_intonation_perc_control,2024.2.4,MacIntel,59.88023952,5f51a882d4ac6440de16c4ed,68817205a84113384fffdfe3,688196efea026eed3b9eea29,,,,,,,,,,,,./stim/wavs/castilian_match_interrogative-total-yn_Marta-abre-el-regalo.wav,1,,,1277.1172,1283.7826,1,1,6.1351,,0,81,81,5,1,6,0,castilian,,,,,,,,,,,,,,,,,,,,,,,,,,,,,,,,,,,,,,,,,,,,,,,,,,,,,,,,
,,,,,,,,,5f51a882d4ac6440de16c4ed,"Dominican, Puerto Rican, ",younger than 13,"no, only English or Spanish",yes,2025-07-23_22h19.33.695,empathy_intonation_perc_control,2024.2.4,MacIntel,59.88023952,5f51a882d4ac6440de16c4ed,68817205a84113384fffdfe3,688196efea026eed3b9eea29,,,,,,,,,,,,./stim/wavs/puertorican_match_interrogative-total-yn_Maria-bebe-el-vino.wav,1,,,1283.7833,1291.5163,1,1,7.2054,,0,82,82,23,1,24,1,puertorican,,,,,,,,,,,,,,,,,,,,,,,,,,,,,,,,,,,,,,,,,,,,,,,,,,,,,,,,
,,,,,,,,,5f51a882d4ac6440de16c4ed,"Dominican, Puerto Rican, ",younger than 13,"no, only English or Spanish",yes,2025-07-23_22h19.33.695,empathy_intonation_perc_control,2024.2.4,MacIntel,59.88023952,5f51a882d4ac6440de16c4ed,68817205a84113384fffdfe3,688196efea026eed3b9eea29,,,,,,,,,,,,./stim/wavs/castilian_mismatch_declarative-broad-focus_Mi-tia-odia-la-lluvia.wav,0,,,1291.5179,1297.8159,1,0,5.7667,,0,83,83,72,1,73,0,castilian,,,,,,,,,,,,,,,,,,,,,,,,,,,,,,,,,,,,,,,,,,,,,,,,,,,,,,,,
,,,,,,,,,5f51a882d4ac6440de16c4ed,"Dominican, Puerto Rican, ",younger than 13,"no, only English or Spanish",yes,2025-07-23_22h19.33.695,empathy_intonation_perc_control,2024.2.4,MacIntel,59.88023952,5f51a882d4ac6440de16c4ed,68817205a84113384fffdfe3,688196efea026eed3b9eea29,,,,,,,,,,,,./stim/wavs/castilian_mismatch_interrogative-total-yn_Mi-novio-viene-del-lago.wav,1,,,1297.8166,1304.733,0,0,6.3849,,0,84,84,27,1,28,0,castilian,,,,,,,,,,,,,,,,,,,,,,,,,,,,,,,,,,,,,,,,,,,,,,,,,,,,,,,,
,,,,,,,,,5f51a882d4ac6440de16c4ed,"Dominican, Puerto Rican, ",younger than 13,"no, only English or Spanish",yes,2025-07-23_22h19.33.695,empathy_intonation_perc_control,2024.2.4,MacIntel,59.88023952,5f51a882d4ac6440de16c4ed,68817205a84113384fffdfe3,688196efea026eed3b9eea29,,,,,,,,,,,,./stim/wavs/cuban_mismatch_interrogative-total-yn_Mi-novio-viene-del-lago.wav,1,,,1304.7335,1311.0158,0,0,5.7495,,0,85,85,32,1,33,1,cuban,,,,,,,,,,,,,,,,,,,,,,,,,,,,,,,,,,,,,,,,,,,,,,,,,,,,,,,,
,,,,,,,,,5f51a882d4ac6440de16c4ed,"Dominican, Puerto Rican, ",younger than 13,"no, only English or Spanish",yes,2025-07-23_22h19.33.695,empathy_intonation_perc_control,2024.2.4,MacIntel,59.88023952,5f51a882d4ac6440de16c4ed,68817205a84113384fffdfe3,688196efea026eed3b9eea29,,,,,,,,,,,,./stim/wavs/puertorican_mismatch_interrogative-total-yn_El-hombre-mira-la-luna.wav,1,,,1311.0163,1316.7167,0,0,5.1837,,0,86,86,39,1,40,1,puertorican,,,,,,,,,,,,,,,,,,,,,,,,,,,,,,,,,,,,,,,,,,,,,,,,,,,,,,,,
,,,,,,,,,5f51a882d4ac6440de16c4ed,"Dominican, Puerto Rican, ",younger than 13,"no, only English or Spanish",yes,2025-07-23_22h19.33.695,empathy_intonation_perc_control,2024.2.4,MacIntel,59.88023952,5f51a882d4ac6440de16c4ed,68817205a84113384fffdfe3,688196efea026eed3b9eea29,,,,,,,,,,,,./stim/wavs/puertorican_mismatch_declarative-broad-focus_El-nino-oye-el-rio.wav,0,,,1316.7174,1322.4827,0,1,5.2324,,0,87,87,85,1,86,0,puertorican,,,,,,,,,,,,,,,,,,,,,,,,,,,,,,,,,,,,,,,,,,,,,,,,,,,,,,,,
,,,,,,,"Great! Now we will move on. The next task consists of about 60 trials, in each of which you will see a string of letters. 
  
  Your task is to decide whether this is a real Spanish word or not.", (press the spacebar to continue),5f51a882d4ac6440de16c4ed,"Dominican, Puerto Rican, ",younger than 13,"no, only English or Spanish",yes,2025-07-23_22h19.33.695,empathy_intonation_perc_control,2024.2.4,MacIntel,59.88023952,5f51a882d4ac6440de16c4ed,68817205a84113384fffdfe3,688196efea026eed3b9eea29,,,,,,,,,,,,,,,,,,,,,,,,,,,,,,1322.4914,1371.2027,0,0,0,0,1,,,,,,,,,,,,,,,,,,,,,,,,,,,,,,,,,,,,,,,,,,,,,,,,,
,,,,,,,"If you think it is an existing Spanish word, you type '1' (for 'REAL'), and if you think it is not an existing Spanish word, you type '0' (for 'FAKE').", (press the spacebar to continue),5f51a882d4ac6440de16c4ed,"Dominican, Puerto Rican, ",younger than 13,"no, only English or Spanish",yes,2025-07-23_22h19.33.695,empathy_intonation_perc_control,2024.2.4,MacIntel,59.88023952,5f51a882d4ac6440de16c4ed,68817205a84113384fffdfe3,688196efea026eed3b9eea29,,,,,,,,,,,,,,,,,,,,,,,,,,,,,,1371.2064,1508.7715,0,1,1,1,1,,,,,,,,,,,,,,,,,,,,,,,,,,,,,,,,,,,,,,,,,,,,,,,,,
,,,,,,,"If you are sure that the word exists, even though you don’t know its exact meaning, you may still respond '1' (REAL). 
  
  But if you are not sure if it is an existing word, you should respond '0' (FAKE).
  
  Let's do a practice round...", (press the spacebar to continue),5f51a882d4ac6440de16c4ed,"Dominican, Puerto Rican, ",younger than 13,"no, only English or Spanish",yes,2025-07-23_22h19.33.695,empathy_intonation_perc_control,2024.2.4,MacIntel,59.88023952,5f51a882d4ac6440de16c4ed,68817205a84113384fffdfe3,688196efea026eed3b9eea29,,,,,,,,,,,,,,,,,,,,,,,,,,,,,,1508.7754,1636.0606,0,2,2,2,1,,,,,,,,,,,,,,,,,,,,,,,,,,,,,,,,,,,,,,,,,,,,,,,,,
,,,,,,,,,5f51a882d4ac6440de16c4ed,"Dominican, Puerto Rican, ",younger than 13,"no, only English or Spanish",yes,2025-07-23_22h19.33.695,empathy_intonation_perc_control,2024.2.4,MacIntel,59.88023952,5f51a882d4ac6440de16c4ed,68817205a84113384fffdfe3,688196efea026eed3b9eea29,,,,,,,,,,,,,0,,,,,,,,,,,,,,,,,,,,,,,,1636.0663,1664.944,1,0,28.3469,,1664.9444,1665.9436,0,0,0,0,1,0,depiste,REAL,FAKE,,,,,,,,,,,,,,,,,,,,,,,,,,,,,,,,
,,,,,,,,,5f51a882d4ac6440de16c4ed,"Dominican, Puerto Rican, ",younger than 13,"no, only English or Spanish",yes,2025-07-23_22h19.33.695,empathy_intonation_perc_control,2024.2.4,MacIntel,59.88023952,5f51a882d4ac6440de16c4ed,68817205a84113384fffdfe3,688196efea026eed3b9eea29,,,,,,,,,,,,,1,,,,,,,,,,,,,,,,,,,,,,,,1665.9473,1669.6759,1,1,3.1939,,1669.6766,1670.6759,0,1,1,1,1,0,sí,REAL,FAKE,,,,,,,,,,,,,,,,,,,,,,,,,,,,,,,,
,,,,,,,,,5f51a882d4ac6440de16c4ed,"Dominican, Puerto Rican, ",younger than 13,"no, only English or Spanish",yes,2025-07-23_22h19.33.695,empathy_intonation_perc_control,2024.2.4,MacIntel,59.88023952,5f51a882d4ac6440de16c4ed,68817205a84113384fffdfe3,688196efea026eed3b9eea29,,,,,,,,,,,,,0,,,,,,,,,,,,,,,,,,,,,,,,1670.6772,1691.5105,0,1,20.3168,,1691.5107,1692.5108,0,2,2,2,1,0,coné,REAL,FAKE,,,,,,,,,,,,,,,,,,,,,,,,,,,,,,,,
,,,,,,,,,5f51a882d4ac6440de16c4ed,"Dominican, Puerto Rican, ",younger than 13,"no, only English or Spanish",yes,2025-07-23_22h19.33.695,empathy_intonation_perc_control,2024.2.4,MacIntel,59.88023952,5f51a882d4ac6440de16c4ed,68817205a84113384fffdfe3,688196efea026eed3b9eea29,,,,,,,,,,,,,0,,,,,,,,,,,,,,,,,,,,,,,,1692.5119,1764.4961,1,0,71.4385,,1764.4966,1765.4963,0,3,3,3,1,0,calpar,REAL,FAKE,,,,,,,,,,,,,,,,,,,,,,,,,,,,,,,,
,,,,,,,,,5f51a882d4ac6440de16c4ed,"Dominican, Puerto Rican, ",younger than 13,"no, only English or Spanish",yes,2025-07-23_22h19.33.695,empathy_intonation_perc_control,2024.2.4,MacIntel,59.88023952,5f51a882d4ac6440de16c4ed,68817205a84113384fffdfe3,688196efea026eed3b9eea29,,,,,,,,,,,,,0,,,,,,,,,,,,,,,,,,,,,,,,1765.4977,1810.9147,0,1,44.8788,,1810.9163,1811.9137,0,4,4,4,1,0,joten,REAL,FAKE,,,,,,,,,,,,,,,,,,,,,,,,,,,,,,,,
,,,,,,,,,5f51a882d4ac6440de16c4ed,"Dominican, Puerto Rican, ",younger than 13,"no, only English or Spanish",yes,2025-07-23_22h19.33.695,empathy_intonation_perc_control,2024.2.4,MacIntel,59.88023952,5f51a882d4ac6440de16c4ed,68817205a84113384fffdfe3,688196efea026eed3b9eea29,,,,,,,,,,,,,1,,,,,,,,,,,,,,,,,,,,,,,,1811.9151,1834.765,1,1,22.3146,,1834.7651,1835.7651,0,5,5,5,1,0,sacapuntas,REAL,FAKE,,,,,,,,,,,,,,,,,,,,,,,,,,,,,,,,
,,,,,,,,,5f51a882d4ac6440de16c4ed,"Dominican, Puerto Rican, ",younger than 13,"no, only English or Spanish",yes,2025-07-23_22h19.33.695,empathy_intonation_perc_control,2024.2.4,MacIntel,59.88023952,5f51a882d4ac6440de16c4ed,68817205a84113384fffdfe3,688196efea026eed3b9eea29,,,,,,,,,,,,,0,,,,,,,,,,,,,,,,,,,,,,,,1835.7664,1853.9987,0,1,17.6846,,1853.9988,1854.9982,0,6,6,6,1,0,priba,REAL,FAKE,,,,,,,,,,,,,,,,,,,,,,,,,,,,,,,,
,,,,,,,,,5f51a882d4ac6440de16c4ed,"Dominican, Puerto Rican, ",younger than 13,"no, only English or Spanish",yes,2025-07-23_22h19.33.695,empathy_intonation_perc_control,2024.2.4,MacIntel,59.88023952,5f51a882d4ac6440de16c4ed,68817205a84113384fffdfe3,688196efea026eed3b9eea29,,,,,,,,,,,,,0,,,,,,,,,,,,,,,,,,,,,,,,1854.9998,1885.3659,0,1,29.8317,,1885.3659,1886.3658,0,7,7,7,1,0,pelasula,REAL,FAKE,,,,,,,,,,,,,,,,,,,,,,,,,,,,,,,,
,,,,,,,,,5f51a882d4ac6440de16c4ed,"Dominican, Puerto Rican, ",younger than 13,"no, only English or Spanish",yes,2025-07-23_22h19.33.695,empathy_intonation_perc_control,2024.2.4,MacIntel,59.88023952,5f51a882d4ac6440de16c4ed,68817205a84113384fffdfe3,688196efea026eed3b9eea29,,,,,,,,,,,,,1,,,,,,,,,,,,,,,,,,,,,,,,1886.3668,1889.5825,1,1,2.6874,,1889.5826,1890.5831,0,8,8,8,1,0,bien,REAL,FAKE,,,,,,,,,,,,,,,,,,,,,,,,,,,,,,,,
,,,,,,,,,5f51a882d4ac6440de16c4ed,"Dominican, Puerto Rican, ",younger than 13,"no, only English or Spanish",yes,2025-07-23_22h19.33.695,empathy_intonation_perc_control,2024.2.4,MacIntel,59.88023952,5f51a882d4ac6440de16c4ed,68817205a84113384fffdfe3,688196efea026eed3b9eea29,,,,,,,,,,,,,1,,,,,,,,,,,,,,,,,,,,,,,,1890.584,1892.8836,1,1,1.7653,,1892.884,1893.8829,0,9,9,9,1,0,casa,REAL,FAKE,,,,,,,,,,,,,,,,,,,,,,,,,,,,,,,,
,,,,,,,,,5f51a882d4ac6440de16c4ed,"Dominican, Puerto Rican, ",younger than 13,"no, only English or Spanish",yes,2025-07-23_22h19.33.695,empathy_intonation_perc_control,2024.2.4,MacIntel,59.88023952,5f51a882d4ac6440de16c4ed,68817205a84113384fffdfe3,688196efea026eed3b9eea29,,,,,,,,,,,,,0,,,,,,,,,,,,,,,,,,,,,,,,1893.8849,1904.7674,1,0,10.3385,,1904.7682,1905.7672,0,10,10,10,1,0,lejo,REAL,FAKE,,,,,,,,,,,,,,,,,,,,,,,,,,,,,,,,
,,,,,,,,,5f51a882d4ac6440de16c4ed,"Dominican, Puerto Rican, ",younger than 13,"no, only English or Spanish",yes,2025-07-23_22h19.33.695,empathy_intonation_perc_control,2024.2.4,MacIntel,59.88023952,5f51a882d4ac6440de16c4ed,68817205a84113384fffdfe3,688196efea026eed3b9eea29,,,,,,,,,,,,,0,,,,,,,,,,,,,,,,,,,,,,,,1905.7683,1941.5342,0,1,35.2309,,1941.5349,1942.535,0,11,11,11,1,0,pretantas,REAL,FAKE,,,,,,,,,,,,,,,,,,,,,,,,,,,,,,,,
,,,,,,,,,5f51a882d4ac6440de16c4ed,"Dominican, Puerto Rican, ",younger than 13,"no, only English or Spanish",yes,2025-07-23_22h19.33.695,empathy_intonation_perc_control,2024.2.4,MacIntel,59.88023952,5f51a882d4ac6440de16c4ed,68817205a84113384fffdfe3,688196efea026eed3b9eea29,,,,,,,,,,,,,,,,,,,,,,,,,,,,,,,,,,,,,,,,,,,,,,,,,,,,,,1942.5357,1977.3533,,,,,,,,,,,,,,,,,,,,,,,,,,,,,,
,,,,,,,,,5f51a882d4ac6440de16c4ed,"Dominican, Puerto Rican, ",younger than 13,"no, only English or Spanish",yes,2025-07-23_22h19.33.695,empathy_intonation_perc_control,2024.2.4,MacIntel,59.88023952,5f51a882d4ac6440de16c4ed,68817205a84113384fffdfe3,688196efea026eed3b9eea29,,,,,,,,,,,,,1,,,,,,,,,,,,,,,,,,,,,,,,,,,,,,,,,,,,,69,engatusar,,,,,1977.3603,1980.22,1,1,2.3212,,0,0,0,68,1,REAL,FAKE,,,,,,,,,,,,,,,,,
,,,,,,,,,5f51a882d4ac6440de16c4ed,"Dominican, Puerto Rican, ",younger than 13,"no, only English or Spanish",yes,2025-07-23_22h19.33.695,empathy_intonation_perc_control,2024.2.4,MacIntel,59.88023952,5f51a882d4ac6440de16c4ed,68817205a84113384fffdfe3,688196efea026eed3b9eea29,,,,,,,,,,,,,1,,,,,,,,,,,,,,,,,,,,,,,,,,,,,,,,,,,,,56,musgo,,,,,1980.2213,1994.9194,0,0,14.1573,,0,1,1,55,1,REAL,FAKE,,,,,,,,,,,,,,,,,
,,,,,,,,,5f51a882d4ac6440de16c4ed,"Dominican, Puerto Rican, ",younger than 13,"no, only English or Spanish",yes,2025-07-23_22h19.33.695,empathy_intonation_perc_control,2024.2.4,MacIntel,59.88023952,5f51a882d4ac6440de16c4ed,68817205a84113384fffdfe3,688196efea026eed3b9eea29,,,,,,,,,,,,,1,,,,,,,,,,,,,,,,,,,,,,,,,,,,,,,,,,,,,40,alfombra,,,,,1994.9203,2015.821,1,1,20.3715,,0,2,2,39,1,REAL,FAKE,,,,,,,,,,,,,,,,,
,,,,,,,,,5f51a882d4ac6440de16c4ed,"Dominican, Puerto Rican, ",younger than 13,"no, only English or Spanish",yes,2025-07-23_22h19.33.695,empathy_intonation_perc_control,2024.2.4,MacIntel,59.88023952,5f51a882d4ac6440de16c4ed,68817205a84113384fffdfe3,688196efea026eed3b9eea29,,,,,,,,,,,,,1,,,,,,,,,,,,,,,,,,,,,,,,,,,,,,,,,,,,,38,estornudar,,,,,2015.8235,2032.1879,1,1,15.8237,,0,3,3,37,1,REAL,FAKE,,,,,,,,,,,,,,,,,
,,,,,,,,,5f51a882d4ac6440de16c4ed,"Dominican, Puerto Rican, ",younger than 13,"no, only English or Spanish",yes,2025-07-23_22h19.33.695,empathy_intonation_perc_control,2024.2.4,MacIntel,59.88023952,5f51a882d4ac6440de16c4ed,68817205a84113384fffdfe3,688196efea026eed3b9eea29,,,,,,,,,,,,,0,,,,,,,,,,,,,,,,,,,,,,,,,,,,,,,,,,,,,72,pemición,,,,,2032.1891,2050.6218,0,1,17.8852,,0,4,4,71,1,REAL,FAKE,,,,,,,,,,,,,,,,,
,,,,,,,,,5f51a882d4ac6440de16c4ed,"Dominican, Puerto Rican, ",younger than 13,"no, only English or Spanish",yes,2025-07-23_22h19.33.695,empathy_intonation_perc_control,2024.2.4,MacIntel,59.88023952,5f51a882d4ac6440de16c4ed,68817205a84113384fffdfe3,688196efea026eed3b9eea29,,,,,,,,,,,,,0,,,,,,,,,,,,,,,,,,,,,,,,,,,,,,,,,,,,,32,fatacidad,,,,,2050.6228,2071.4556,0,1,20.2987,,0,5,5,31,1,REAL,FAKE,,,,,,,,,,,,,,,,,
,,,,,,,,,5f51a882d4ac6440de16c4ed,"Dominican, Puerto Rican, ",younger than 13,"no, only English or Spanish",yes,2025-07-23_22h19.33.695,empathy_intonation_perc_control,2024.2.4,MacIntel,59.88023952,5f51a882d4ac6440de16c4ed,68817205a84113384fffdfe3,688196efea026eed3b9eea29,,,,,,,,,,,,,0,,,,,,,,,,,,,,,,,,,,,,,,,,,,,,,,,,,,,79,tropaje,,,,,2071.4567,2073.7391,1,0,1.7475,,0,6,6,78,1,REAL,FAKE,,,,,,,,,,,,,,,,,
,,,,,,,,,5f51a882d4ac6440de16c4ed,"Dominican, Puerto Rican, ",younger than 13,"no, only English or Spanish",yes,2025-07-23_22h19.33.695,empathy_intonation_perc_control,2024.2.4,MacIntel,59.88023952,5f51a882d4ac6440de16c4ed,68817205a84113384fffdfe3,688196efea026eed3b9eea29,,,,,,,,,,,,,1,,,,,,,,,,,,,,,,,,,,,,,,,,,,,,,,,,,,,90,clavel,,,,,2073.7402,2096.7569,0,0,22.4828,,0,7,7,89,1,REAL,FAKE,,,,,,,,,,,,,,,,,
,,,,,,,,,5f51a882d4ac6440de16c4ed,"Dominican, Puerto Rican, ",younger than 13,"no, only English or Spanish",yes,2025-07-23_22h19.33.695,empathy_intonation_perc_control,2024.2.4,MacIntel,59.88023952,5f51a882d4ac6440de16c4ed,68817205a84113384fffdfe3,688196efea026eed3b9eea29,,,,,,,,,,,,,1,,,,,,,,,,,,,,,,,,,,,,,,,,,,,,,,,,,,,73,hervidor,,,,,2096.7579,2108.9735,1,1,11.6718,,0,8,8,72,1,REAL,FAKE,,,,,,,,,,,,,,,,,
,,,,,,,,,5f51a882d4ac6440de16c4ed,"Dominican, Puerto Rican, ",younger than 13,"no, only English or Spanish",yes,2025-07-23_22h19.33.695,empathy_intonation_perc_control,2024.2.4,MacIntel,59.88023952,5f51a882d4ac6440de16c4ed,68817205a84113384fffdfe3,688196efea026eed3b9eea29,,,,,,,,,,,,,1,,,,,,,,,,,,,,,,,,,,,,,,,,,,,,,,,,,,,2,pellizcar,,,,,2108.9749,2126.4742,1,1,16.9532,,0,9,9,1,1,REAL,FAKE,,,,,,,,,,,,,,,,,
,,,,,,,,,5f51a882d4ac6440de16c4ed,"Dominican, Puerto Rican, ",younger than 13,"no, only English or Spanish",yes,2025-07-23_22h19.33.695,empathy_intonation_perc_control,2024.2.4,MacIntel,59.88023952,5f51a882d4ac6440de16c4ed,68817205a84113384fffdfe3,688196efea026eed3b9eea29,,,,,,,,,,,,,1,,,,,,,,,,,,,,,,,,,,,,,,,,,,,,,,,,,,,41,rebuscar,,,,,2126.4756,2128.6242,1,1,1.6149,,0,10,10,40,1,REAL,FAKE,,,,,,,,,,,,,,,,,
,,,,,,,,,5f51a882d4ac6440de16c4ed,"Dominican, Puerto Rican, ",younger than 13,"no, only English or Spanish",yes,2025-07-23_22h19.33.695,empathy_intonation_perc_control,2024.2.4,MacIntel,59.88023952,5f51a882d4ac6440de16c4ed,68817205a84113384fffdfe3,688196efea026eed3b9eea29,,,,,,,,,,,,,1,,,,,,,,,,,,,,,,,,,,,,,,,,,,,,,,,,,,,3,pulmones,,,,,2128.6251,2138.8742,1,1,9.7165,,0,11,11,2,1,REAL,FAKE,,,,,,,,,,,,,,,,,
,,,,,,,,,5f51a882d4ac6440de16c4ed,"Dominican, Puerto Rican, ",younger than 13,"no, only English or Spanish",yes,2025-07-23_22h19.33.695,empathy_intonation_perc_control,2024.2.4,MacIntel,59.88023952,5f51a882d4ac6440de16c4ed,68817205a84113384fffdfe3,688196efea026eed3b9eea29,,,,,,,,,,,,,1,,,,,,,,,,,,,,,,,,,,,,,,,,,,,,,,,,,,,31,pandilla,,,,,2138.8753,2141.8411,1,1,2.4206,,0,12,12,30,1,REAL,FAKE,,,,,,,,,,,,,,,,,
,,,,,,,,,5f51a882d4ac6440de16c4ed,"Dominican, Puerto Rican, ",younger than 13,"no, only English or Spanish",yes,2025-07-23_22h19.33.695,empathy_intonation_perc_control,2024.2.4,MacIntel,59.88023952,5f51a882d4ac6440de16c4ed,68817205a84113384fffdfe3,688196efea026eed3b9eea29,,,,,,,,,,,,,1,,,,,,,,,,,,,,,,,,,,,,,,,,,,,,,,,,,,,86,barato,,,,,2141.842,2150.9082,0,0,8.5278,,0,13,13,85,1,REAL,FAKE,,,,,,,,,,,,,,,,,
,,,,,,,,,5f51a882d4ac6440de16c4ed,"Dominican, Puerto Rican, ",younger than 13,"no, only English or Spanish",yes,2025-07-23_22h19.33.695,empathy_intonation_perc_control,2024.2.4,MacIntel,59.88023952,5f51a882d4ac6440de16c4ed,68817205a84113384fffdfe3,688196efea026eed3b9eea29,,,,,,,,,,,,,0,,,,,,,,,,,,,,,,,,,,,,,,,,,,,,,,,,,,,33,pauca,,,,,2150.9094,2162.1418,0,1,10.6955,,0,14,14,32,1,REAL,FAKE,,,,,,,,,,,,,,,,,
,,,,,,,,,5f51a882d4ac6440de16c4ed,"Dominican, Puerto Rican, ",younger than 13,"no, only English or Spanish",yes,2025-07-23_22h19.33.695,empathy_intonation_perc_control,2024.2.4,MacIntel,59.88023952,5f51a882d4ac6440de16c4ed,68817205a84113384fffdfe3,688196efea026eed3b9eea29,,,,,,,,,,,,,1,,,,,,,,,,,,,,,,,,,,,,,,,,,,,,,,,,,,,57,tacaño,,,,,2162.1431,2171.042,1,1,8.3536,,0,15,15,56,1,REAL,FAKE,,,,,,,,,,,,,,,,,
,,,,,,,,,5f51a882d4ac6440de16c4ed,"Dominican, Puerto Rican, ",younger than 13,"no, only English or Spanish",yes,2025-07-23_22h19.33.695,empathy_intonation_perc_control,2024.2.4,MacIntel,59.88023952,5f51a882d4ac6440de16c4ed,68817205a84113384fffdfe3,688196efea026eed3b9eea29,,,,,,,,,,,,,1,,,,,,,,,,,,,,,,,,,,,,,,,,,,,,,,,,,,,59,besar,,,,,2171.043,2172.8088,1,1,1.2306,,0,16,16,58,1,REAL,FAKE,,,,,,,,,,,,,,,,,
,,,,,,,,,5f51a882d4ac6440de16c4ed,"Dominican, Puerto Rican, ",younger than 13,"no, only English or Spanish",yes,2025-07-23_22h19.33.695,empathy_intonation_perc_control,2024.2.4,MacIntel,59.88023952,5f51a882d4ac6440de16c4ed,68817205a84113384fffdfe3,688196efea026eed3b9eea29,,,,,,,,,,,,,1,,,,,,,,,,,,,,,,,,,,,,,,,,,,,,,,,,,,,52,camisa,,,,,2172.8096,2175.2925,1,1,1.958,,0,17,17,51,1,REAL,FAKE,,,,,,,,,,,,,,,,,
,,,,,,,,,5f51a882d4ac6440de16c4ed,"Dominican, Puerto Rican, ",younger than 13,"no, only English or Spanish",yes,2025-07-23_22h19.33.695,empathy_intonation_perc_control,2024.2.4,MacIntel,59.88023952,5f51a882d4ac6440de16c4ed,68817205a84113384fffdfe3,688196efea026eed3b9eea29,,,,,,,,,,,,,0,,,,,,,,,,,,,,,,,,,,,,,,,,,,,,,,,,,,,30,alardio,,,,,2175.2935,2191.9755,1,0,16.1555,,0,18,18,29,1,REAL,FAKE,,,,,,,,,,,,,,,,,
,,,,,,,,,5f51a882d4ac6440de16c4ed,"Dominican, Puerto Rican, ",younger than 13,"no, only English or Spanish",yes,2025-07-23_22h19.33.695,empathy_intonation_perc_control,2024.2.4,MacIntel,59.88023952,5f51a882d4ac6440de16c4ed,68817205a84113384fffdfe3,688196efea026eed3b9eea29,,,,,,,,,,,,,1,,,,,,,,,,,,,,,,,,,,,,,,,,,,,,,,,,,,,78,frondoso,,,,,2191.9765,2205.4932,1,1,12.989,,0,19,19,77,1,REAL,FAKE,,,,,,,,,,,,,,,,,
,,,,,,,,,5f51a882d4ac6440de16c4ed,"Dominican, Puerto Rican, ",younger than 13,"no, only English or Spanish",yes,2025-07-23_22h19.33.695,empathy_intonation_perc_control,2024.2.4,MacIntel,59.88023952,5f51a882d4ac6440de16c4ed,68817205a84113384fffdfe3,688196efea026eed3b9eea29,,,,,,,,,,,,,0,,,,,,,,,,,,,,,,,,,,,,,,,,,,,,,,,,,,,17,floroso,,,,,2205.4942,2227.2595,1,0,21.2344,,0,20,20,16,1,REAL,FAKE,,,,,,,,,,,,,,,,,
,,,,,,,,,5f51a882d4ac6440de16c4ed,"Dominican, Puerto Rican, ",younger than 13,"no, only English or Spanish",yes,2025-07-23_22h19.33.695,empathy_intonation_perc_control,2024.2.4,MacIntel,59.88023952,5f51a882d4ac6440de16c4ed,68817205a84113384fffdfe3,688196efea026eed3b9eea29,,,,,,,,,,,,,0,,,,,,,,,,,,,,,,,,,,,,,,,,,,,,,,,,,,,74,cintro,,,,,2227.261,2247.4609,0,1,19.6879,,0,21,21,73,1,REAL,FAKE,,,,,,,,,,,,,,,,,
,,,,,,,,,5f51a882d4ac6440de16c4ed,"Dominican, Puerto Rican, ",younger than 13,"no, only English or Spanish",yes,2025-07-23_22h19.33.695,empathy_intonation_perc_control,2024.2.4,MacIntel,59.88023952,5f51a882d4ac6440de16c4ed,68817205a84113384fffdfe3,688196efea026eed3b9eea29,,,,,,,,,,,,,1,,,,,,,,,,,,,,,,,,,,,,,,,,,,,,,,,,,,,46,martillo,,,,,2247.4617,2260.3949,1,1,12.3899,,0,22,22,45,1,REAL,FAKE,,,,,,,,,,,,,,,,,
,,,,,,,,,5f51a882d4ac6440de16c4ed,"Dominican, Puerto Rican, ",younger than 13,"no, only English or Spanish",yes,2025-07-23_22h19.33.695,empathy_intonation_perc_control,2024.2.4,MacIntel,59.88023952,5f51a882d4ac6440de16c4ed,68817205a84113384fffdfe3,688196efea026eed3b9eea29,,,,,,,,,,,,,0,,,,,,,,,,,,,,,,,,,,,,,,,,,,,,,,,,,,,87,grodo,,,,,2260.3963,2263.8608,0,1,2.9225,,0,23,23,86,1,REAL,FAKE,,,,,,,,,,,,,,,,,
,,,,,,,,,5f51a882d4ac6440de16c4ed,"Dominican, Puerto Rican, ",younger than 13,"no, only English or Spanish",yes,2025-07-23_22h19.33.695,empathy_intonation_perc_control,2024.2.4,MacIntel,59.88023952,5f51a882d4ac6440de16c4ed,68817205a84113384fffdfe3,688196efea026eed3b9eea29,,,,,,,,,,,,,1,,,,,,,,,,,,,,,,,,,,,,,,,,,,,,,,,,,,,26,secuestro,,,,,2263.8617,2272.2119,1,1,7.7935,,0,24,24,25,1,REAL,FAKE,,,,,,,,,,,,,,,,,
,,,,,,,,,5f51a882d4ac6440de16c4ed,"Dominican, Puerto Rican, ",younger than 13,"no, only English or Spanish",yes,2025-07-23_22h19.33.695,empathy_intonation_perc_control,2024.2.4,MacIntel,59.88023952,5f51a882d4ac6440de16c4ed,68817205a84113384fffdfe3,688196efea026eed3b9eea29,,,,,,,,,,,,,0,,,,,,,,,,,,,,,,,,,,,,,,,,,,,,,,,,,,,42,cadallo,,,,,2272.2128,2280.3953,1,0,7.6485,,0,25,25,41,1,REAL,FAKE,,,,,,,,,,,,,,,,,
,,,,,,,,,5f51a882d4ac6440de16c4ed,"Dominican, Puerto Rican, ",younger than 13,"no, only English or Spanish",yes,2025-07-23_22h19.33.695,empathy_intonation_perc_control,2024.2.4,MacIntel,59.88023952,5f51a882d4ac6440de16c4ed,68817205a84113384fffdfe3,688196efea026eed3b9eea29,,,,,,,,,,,,,0,,,,,,,,,,,,,,,,,,,,,,,,,,,,,,,,,,,,,70,temblo,,,,,2280.3962,2293.5632,1,0,12.6251,,0,26,26,69,1,REAL,FAKE,,,,,,,,,,,,,,,,,
,,,,,,,,,5f51a882d4ac6440de16c4ed,"Dominican, Puerto Rican, ",younger than 13,"no, only English or Spanish",yes,2025-07-23_22h19.33.695,empathy_intonation_perc_control,2024.2.4,MacIntel,59.88023952,5f51a882d4ac6440de16c4ed,68817205a84113384fffdfe3,688196efea026eed3b9eea29,,,,,,,,,,,,,1,,,,,,,,,,,,,,,,,,,,,,,,,,,,,,,,,,,,,54,fomentar,,,,,2293.5668,2302.6128,1,1,8.4982,,0,27,27,53,1,REAL,FAKE,,,,,,,,,,,,,,,,,
,,,,,,,,,5f51a882d4ac6440de16c4ed,"Dominican, Puerto Rican, ",younger than 13,"no, only English or Spanish",yes,2025-07-23_22h19.33.695,empathy_intonation_perc_control,2024.2.4,MacIntel,59.88023952,5f51a882d4ac6440de16c4ed,68817205a84113384fffdfe3,688196efea026eed3b9eea29,,,,,,,,,,,,,0,,,,,,,,,,,,,,,,,,,,,,,,,,,,,,,,,,,,,23,lampera,,,,,2302.6138,2311.3963,1,0,8.2445,,0,28,28,22,1,REAL,FAKE,,,,,,,,,,,,,,,,,
,,,,,,,,,5f51a882d4ac6440de16c4ed,"Dominican, Puerto Rican, ",younger than 13,"no, only English or Spanish",yes,2025-07-23_22h19.33.695,empathy_intonation_perc_control,2024.2.4,MacIntel,59.88023952,5f51a882d4ac6440de16c4ed,68817205a84113384fffdfe3,688196efea026eed3b9eea29,,,,,,,,,,,,,1,,,,,,,,,,,,,,,,,,,,,,,,,,,,,,,,,,,,,61,seda,,,,,2311.3975,2319.6301,1,1,7.6869,,0,29,29,60,1,REAL,FAKE,,,,,,,,,,,,,,,,,
,,,,,,,,,5f51a882d4ac6440de16c4ed,"Dominican, Puerto Rican, ",younger than 13,"no, only English or Spanish",yes,2025-07-23_22h19.33.695,empathy_intonation_perc_control,2024.2.4,MacIntel,59.88023952,5f51a882d4ac6440de16c4ed,68817205a84113384fffdfe3,688196efea026eed3b9eea29,,,,,,,,,,,,,0,,,,,,,,,,,,,,,,,,,,,,,,,,,,,,,,,,,,,92,click the 0 key.,,,,,2319.6314,2322.2634,0,1,2.0817,,0,30,30,91,1,REAL,FAKE,,,,,,,,,,,,,,,,,
,,,,,,,,,5f51a882d4ac6440de16c4ed,"Dominican, Puerto Rican, ",younger than 13,"no, only English or Spanish",yes,2025-07-23_22h19.33.695,empathy_intonation_perc_control,2024.2.4,MacIntel,59.88023952,5f51a882d4ac6440de16c4ed,68817205a84113384fffdfe3,688196efea026eed3b9eea29,,,,,,,,,,,,,0,,,,,,,,,,,,,,,,,,,,,,,,,,,,,,,,,,,,,18,arsa,,,,,2322.2644,2329.7969,0,1,6.997,,0,31,31,17,1,REAL,FAKE,,,,,,,,,,,,,,,,,
,,,,,,,,,5f51a882d4ac6440de16c4ed,"Dominican, Puerto Rican, ",younger than 13,"no, only English or Spanish",yes,2025-07-23_22h19.33.695,empathy_intonation_perc_control,2024.2.4,MacIntel,59.88023952,5f51a882d4ac6440de16c4ed,68817205a84113384fffdfe3,688196efea026eed3b9eea29,,,,,,,,,,,,,1,,,,,,,,,,,,,,,,,,,,,,,,,,,,,,,,,,,,,20,ávido,,,,,2329.7981,2337.3801,1,1,7.0358,,0,32,32,19,1,REAL,FAKE,,,,,,,,,,,,,,,,,
,,,,,,,,,5f51a882d4ac6440de16c4ed,"Dominican, Puerto Rican, ",younger than 13,"no, only English or Spanish",yes,2025-07-23_22h19.33.695,empathy_intonation_perc_control,2024.2.4,MacIntel,59.88023952,5f51a882d4ac6440de16c4ed,68817205a84113384fffdfe3,688196efea026eed3b9eea29,,,,,,,,,,,,,0,,,,,,,,,,,,,,,,,,,,,,,,,,,,,,,,,,,,,84,escuto,,,,,2337.3812,2351.3478,1,0,13.4306,,0,33,33,83,1,REAL,FAKE,,,,,,,,,,,,,,,,,
,,,,,,,,,5f51a882d4ac6440de16c4ed,"Dominican, Puerto Rican, ",younger than 13,"no, only English or Spanish",yes,2025-07-23_22h19.33.695,empathy_intonation_perc_control,2024.2.4,MacIntel,59.88023952,5f51a882d4ac6440de16c4ed,68817205a84113384fffdfe3,688196efea026eed3b9eea29,,,,,,,,,,,,,1,,,,,,,,,,,,,,,,,,,,,,,,,,,,,,,,,,,,,22,lacayo,,,,,2351.3491,2357.7143,1,1,5.8188,,0,34,34,21,1,REAL,FAKE,,,,,,,,,,,,,,,,,
,,,,,,,,,5f51a882d4ac6440de16c4ed,"Dominican, Puerto Rican, ",younger than 13,"no, only English or Spanish",yes,2025-07-23_22h19.33.695,empathy_intonation_perc_control,2024.2.4,MacIntel,59.88023952,5f51a882d4ac6440de16c4ed,68817205a84113384fffdfe3,688196efea026eed3b9eea29,,,,,,,,,,,,,1,,,,,,,,,,,,,,,,,,,,,,,,,,,,,,,,,,,,,24,látigo,,,,,2357.7153,2372.6149,1,1,14.3614,,0,35,35,23,1,REAL,FAKE,,,,,,,,,,,,,,,,,
,,,,,,,,,5f51a882d4ac6440de16c4ed,"Dominican, Puerto Rican, ",younger than 13,"no, only English or Spanish",yes,2025-07-23_22h19.33.695,empathy_intonation_perc_control,2024.2.4,MacIntel,59.88023952,5f51a882d4ac6440de16c4ed,68817205a84113384fffdfe3,688196efea026eed3b9eea29,,,,,,,,,,,,,0,,,,,,,,,,,,,,,,,,,,,,,,,,,,,,,,,,,,,58,plaudir,,,,,2372.6158,2375.9651,1,0,2.8121,,0,36,36,57,1,REAL,FAKE,,,,,,,,,,,,,,,,,
,,,,,,,,,5f51a882d4ac6440de16c4ed,"Dominican, Puerto Rican, ",younger than 13,"no, only English or Spanish",yes,2025-07-23_22h19.33.695,empathy_intonation_perc_control,2024.2.4,MacIntel,59.88023952,5f51a882d4ac6440de16c4ed,68817205a84113384fffdfe3,688196efea026eed3b9eea29,,,,,,,,,,,,,0,,,,,,,,,,,,,,,,,,,,,,,,,,,,,,,,,,,,,21,capillo,,,,,2375.9662,2385.3154,1,0,8.8125,,0,37,37,20,1,REAL,FAKE,,,,,,,,,,,,,,,,,
,,,,,,,,,5f51a882d4ac6440de16c4ed,"Dominican, Puerto Rican, ",younger than 13,"no, only English or Spanish",yes,2025-07-23_22h19.33.695,empathy_intonation_perc_control,2024.2.4,MacIntel,59.88023952,5f51a882d4ac6440de16c4ed,68817205a84113384fffdfe3,688196efea026eed3b9eea29,,,,,,,,,,,,,1,,,,,,,,,,,,,,,,,,,,,,,,,,,,,,,,,,,,,64,orgulloso,,,,,2385.3164,2393.1489,1,1,7.2913,,0,38,38,63,1,REAL,FAKE,,,,,,,,,,,,,,,,,
,,,,,,,,,5f51a882d4ac6440de16c4ed,"Dominican, Puerto Rican, ",younger than 13,"no, only English or Spanish",yes,2025-07-23_22h19.33.695,empathy_intonation_perc_control,2024.2.4,MacIntel,59.88023952,5f51a882d4ac6440de16c4ed,68817205a84113384fffdfe3,688196efea026eed3b9eea29,,,,,,,,,,,,,0,,,,,,,,,,,,,,,,,,,,,,,,,,,,,,,,,,,,,19,brecedad,,,,,2393.1499,2404.3816,1,0,10.6877,,0,39,39,18,1,REAL,FAKE,,,,,,,,,,,,,,,,,
,,,,,,,,,5f51a882d4ac6440de16c4ed,"Dominican, Puerto Rican, ",younger than 13,"no, only English or Spanish",yes,2025-07-23_22h19.33.695,empathy_intonation_perc_control,2024.2.4,MacIntel,59.88023952,5f51a882d4ac6440de16c4ed,68817205a84113384fffdfe3,688196efea026eed3b9eea29,,,,,,,,,,,,,1,,,,,,,,,,,,,,,,,,,,,,,,,,,,,,,,,,,,,14,yunque,,,,,2404.3826,2456.5501,1,1,51.6405,,0,40,40,13,1,REAL,FAKE,,,,,,,,,,,,,,,,,
,,,,,,,,,5f51a882d4ac6440de16c4ed,"Dominican, Puerto Rican, ",younger than 13,"no, only English or Spanish",yes,2025-07-23_22h19.33.695,empathy_intonation_perc_control,2024.2.4,MacIntel,59.88023952,5f51a882d4ac6440de16c4ed,68817205a84113384fffdfe3,688196efea026eed3b9eea29,,,,,,,,,,,,,1,,,,,,,,,,,,,,,,,,,,,,,,,,,,,,,,,,,,,68,alegre,,,,,2456.5512,2469.1681,1,1,12.0769,,0,41,41,67,1,REAL,FAKE,,,,,,,,,,,,,,,,,
,,,,,,,,,5f51a882d4ac6440de16c4ed,"Dominican, Puerto Rican, ",younger than 13,"no, only English or Spanish",yes,2025-07-23_22h19.33.695,empathy_intonation_perc_control,2024.2.4,MacIntel,59.88023952,5f51a882d4ac6440de16c4ed,68817205a84113384fffdfe3,688196efea026eed3b9eea29,,,,,,,,,,,,,0,,,,,,,,,,,,,,,,,,,,,,,,,,,,,,,,,,,,,53,vegada,,,,,2469.1692,2484.0677,1,0,14.3561,,0,42,42,52,1,REAL,FAKE,,,,,,,,,,,,,,,,,
,,,,,,,,,5f51a882d4ac6440de16c4ed,"Dominican, Puerto Rican, ",younger than 13,"no, only English or Spanish",yes,2025-07-23_22h19.33.695,empathy_intonation_perc_control,2024.2.4,MacIntel,59.88023952,5f51a882d4ac6440de16c4ed,68817205a84113384fffdfe3,688196efea026eed3b9eea29,,,,,,,,,,,,,0,,,,,,,,,,,,,,,,,,,,,,,,,,,,,,,,,,,,,8,cadeña,,,,,2484.0687,2497.819,1,0,13.2131,,0,43,43,7,1,REAL,FAKE,,,,,,,,,,,,,,,,,
,,,,,,,,,5f51a882d4ac6440de16c4ed,"Dominican, Puerto Rican, ",younger than 13,"no, only English or Spanish",yes,2025-07-23_22h19.33.695,empathy_intonation_perc_control,2024.2.4,MacIntel,59.88023952,5f51a882d4ac6440de16c4ed,68817205a84113384fffdfe3,688196efea026eed3b9eea29,,,,,,,,,,,,,0,,,,,,,,,,,,,,,,,,,,,,,,,,,,,,,,,,,,,10,antar,,,,,2497.8202,2500.1356,1,0,1.7795,,0,44,44,9,1,REAL,FAKE,,,,,,,,,,,,,,,,,
,,,,,,,,,5f51a882d4ac6440de16c4ed,"Dominican, Puerto Rican, ",younger than 13,"no, only English or Spanish",yes,2025-07-23_22h19.33.695,empathy_intonation_perc_control,2024.2.4,MacIntel,59.88023952,5f51a882d4ac6440de16c4ed,68817205a84113384fffdfe3,688196efea026eed3b9eea29,,,,,,,,,,,,,0,,,,,,,,,,,,,,,,,,,,,,,,,,,,,,,,,,,,,63,esposante,,,,,2500.1367,2527.4194,0,1,26.7453,,0,45,45,62,1,REAL,FAKE,,,,,,,,,,,,,,,,,
,,,,,,,,,5f51a882d4ac6440de16c4ed,"Dominican, Puerto Rican, ",younger than 13,"no, only English or Spanish",yes,2025-07-23_22h19.33.695,empathy_intonation_perc_control,2024.2.4,MacIntel,59.88023952,5f51a882d4ac6440de16c4ed,68817205a84113384fffdfe3,688196efea026eed3b9eea29,,,,,,,,,,,,,0,,,,,,,,,,,,,,,,,,,,,,,,,,,,,,,,,,,,,35,rompido,,,,,2527.421,2539.9705,1,0,12.0158,,0,46,46,34,1,REAL,FAKE,,,,,,,,,,,,,,,,,
,,,,,,,,,5f51a882d4ac6440de16c4ed,"Dominican, Puerto Rican, ",younger than 13,"no, only English or Spanish",yes,2025-07-23_22h19.33.695,empathy_intonation_perc_control,2024.2.4,MacIntel,59.88023952,5f51a882d4ac6440de16c4ed,68817205a84113384fffdfe3,688196efea026eed3b9eea29,,,,,,,,,,,,,0,,,,,,,,,,,,,,,,,,,,,,,,,,,,,,,,,,,,,66,hacido,,,,,2539.9716,2542.1203,1,0,1.5993,,0,47,47,65,1,REAL,FAKE,,,,,,,,,,,,,,,,,
,,,,,,,,,5f51a882d4ac6440de16c4ed,"Dominican, Puerto Rican, ",younger than 13,"no, only English or Spanish",yes,2025-07-23_22h19.33.695,empathy_intonation_perc_control,2024.2.4,MacIntel,59.88023952,5f51a882d4ac6440de16c4ed,68817205a84113384fffdfe3,688196efea026eed3b9eea29,,,,,,,,,,,,,1,,,,,,,,,,,,,,,,,,,,,,,,,,,,,,,,,,,,,49,ganar,,,,,2542.1212,2544.7204,1,1,2.0648,,0,48,48,48,1,REAL,FAKE,,,,,,,,,,,,,,,,,
,,,,,,,,,5f51a882d4ac6440de16c4ed,"Dominican, Puerto Rican, ",younger than 13,"no, only English or Spanish",yes,2025-07-23_22h19.33.695,empathy_intonation_perc_control,2024.2.4,MacIntel,59.88023952,5f51a882d4ac6440de16c4ed,68817205a84113384fffdfe3,688196efea026eed3b9eea29,,,,,,,,,,,,,1,,,,,,,,,,,,,,,,,,,,,,,,,,,,,,,,,,,,,83,guante,,,,,2544.7215,2552.7038,1,1,7.4443,,0,49,49,82,1,REAL,FAKE,,,,,,,,,,,,,,,,,
,,,,,,,,,5f51a882d4ac6440de16c4ed,"Dominican, Puerto Rican, ",younger than 13,"no, only English or Spanish",yes,2025-07-23_22h19.33.695,empathy_intonation_perc_control,2024.2.4,MacIntel,59.88023952,5f51a882d4ac6440de16c4ed,68817205a84113384fffdfe3,688196efea026eed3b9eea29,,,,,,,,,,,,,0,,,,,,,,,,,,,,,,,,,,,,,,,,,,,,,,,,,,,16,abracer,,,,,2552.7048,2554.4874,1,0,1.2332,,0,50,50,15,1,REAL,FAKE,,,,,,,,,,,,,,,,,
,,,,,,,,,5f51a882d4ac6440de16c4ed,"Dominican, Puerto Rican, ",younger than 13,"no, only English or Spanish",yes,2025-07-23_22h19.33.695,empathy_intonation_perc_control,2024.2.4,MacIntel,59.88023952,5f51a882d4ac6440de16c4ed,68817205a84113384fffdfe3,688196efea026eed3b9eea29,,,,,,,,,,,,,1,,,,,,,,,,,,,,,,,,,,,,,,,,,,,,,,,,,,,88,acantilado,,,,,2554.4886,2567.1211,1,1,12.0924,,0,51,51,87,1,REAL,FAKE,,,,,,,,,,,,,,,,,
,,,,,,,,,5f51a882d4ac6440de16c4ed,"Dominican, Puerto Rican, ",younger than 13,"no, only English or Spanish",yes,2025-07-23_22h19.33.695,empathy_intonation_perc_control,2024.2.4,MacIntel,59.88023952,5f51a882d4ac6440de16c4ed,68817205a84113384fffdfe3,688196efea026eed3b9eea29,,,,,,,,,,,,,1,,,,,,,,,,,,,,,,,,,,,,,,,,,,,,,,,,,,,37,granuja,,,,,2567.1221,2582.405,1,1,14.7438,,0,52,52,36,1,REAL,FAKE,,,,,,,,,,,,,,,,,
,,,,,,,,,5f51a882d4ac6440de16c4ed,"Dominican, Puerto Rican, ",younger than 13,"no, only English or Spanish",yes,2025-07-23_22h19.33.695,empathy_intonation_perc_control,2024.2.4,MacIntel,59.88023952,5f51a882d4ac6440de16c4ed,68817205a84113384fffdfe3,688196efea026eed3b9eea29,,,,,,,,,,,,,1,,,,,,,,,,,,,,,,,,,,,,,,,,,,,,,,,,,,,55,nevar,,,,,2582.4061,2591.1051,0,0,8.1572,,0,53,53,54,1,REAL,FAKE,,,,,,,,,,,,,,,,,
,,,,,,,,,5f51a882d4ac6440de16c4ed,"Dominican, Puerto Rican, ",younger than 13,"no, only English or Spanish",yes,2025-07-23_22h19.33.695,empathy_intonation_perc_control,2024.2.4,MacIntel,59.88023952,5f51a882d4ac6440de16c4ed,68817205a84113384fffdfe3,688196efea026eed3b9eea29,,,,,,,,,,,,,1,,,,,,,,,,,,,,,,,,,,,,,,,,,,,,,,,,,,,34,aviso,,,,,2591.1064,2593.4217,1,1,1.7723,,0,54,54,33,1,REAL,FAKE,,,,,,,,,,,,,,,,,
,,,,,,,,,5f51a882d4ac6440de16c4ed,"Dominican, Puerto Rican, ",younger than 13,"no, only English or Spanish",yes,2025-07-23_22h19.33.695,empathy_intonation_perc_control,2024.2.4,MacIntel,59.88023952,5f51a882d4ac6440de16c4ed,68817205a84113384fffdfe3,688196efea026eed3b9eea29,,,,,,,,,,,,,1,,,,,,,,,,,,,,,,,,,,,,,,,,,,,,,,,,,,,9,hacha,,,,,2593.4224,2601.7221,1,1,7.7636,,0,55,55,8,1,REAL,FAKE,,,,,,,,,,,,,,,,,
,,,,,,,,,5f51a882d4ac6440de16c4ed,"Dominican, Puerto Rican, ",younger than 13,"no, only English or Spanish",yes,2025-07-23_22h19.33.695,empathy_intonation_perc_control,2024.2.4,MacIntel,59.88023952,5f51a882d4ac6440de16c4ed,68817205a84113384fffdfe3,688196efea026eed3b9eea29,,,,,,,,,,,,,1,,,,,,,,,,,,,,,,,,,,,,,,,,,,,,,,,,,,,15,regar,,,,,2601.723,2603.4886,1,1,1.2279,,0,56,56,14,1,REAL,FAKE,,,,,,,,,,,,,,,,,
,,,,,,,,,5f51a882d4ac6440de16c4ed,"Dominican, Puerto Rican, ",younger than 13,"no, only English or Spanish",yes,2025-07-23_22h19.33.695,empathy_intonation_perc_control,2024.2.4,MacIntel,59.88023952,5f51a882d4ac6440de16c4ed,68817205a84113384fffdfe3,688196efea026eed3b9eea29,,,,,,,,,,,,,1,,,,,,,,,,,,,,,,,,,,,,,,,,,,,,,,,,,,,36,loro,,,,,2603.4895,2610.0558,1,1,6.0311,,0,57,57,35,1,REAL,FAKE,,,,,,,,,,,,,,,,,
,,,,,,,,,5f51a882d4ac6440de16c4ed,"Dominican, Puerto Rican, ",younger than 13,"no, only English or Spanish",yes,2025-07-23_22h19.33.695,empathy_intonation_perc_control,2024.2.4,MacIntel,59.88023952,5f51a882d4ac6440de16c4ed,68817205a84113384fffdfe3,688196efea026eed3b9eea29,,,,,,,,,,,,,1,,,,,,,,,,,,,,,,,,,,,,,,,,,,,,,,,,,,,62,flaco,,,,,2610.0568,2611.8557,1,1,1.2668,,0,58,58,61,1,REAL,FAKE,,,,,,,,,,,,,,,,,
,,,,,,,,,5f51a882d4ac6440de16c4ed,"Dominican, Puerto Rican, ",younger than 13,"no, only English or Spanish",yes,2025-07-23_22h19.33.695,empathy_intonation_perc_control,2024.2.4,MacIntel,59.88023952,5f51a882d4ac6440de16c4ed,68817205a84113384fffdfe3,688196efea026eed3b9eea29,,,,,,,,,,,,,0,,,,,,,,,,,,,,,,,,,,,,,,,,,,,,,,,,,,,27,acutación,,,,,2611.8566,2625.5563,1,0,13.1537,,0,59,59,26,1,REAL,FAKE,,,,,,,,,,,,,,,,,
,,,,,,,,,5f51a882d4ac6440de16c4ed,"Dominican, Puerto Rican, ",younger than 13,"no, only English or Spanish",yes,2025-07-23_22h19.33.695,empathy_intonation_perc_control,2024.2.4,MacIntel,59.88023952,5f51a882d4ac6440de16c4ed,68817205a84113384fffdfe3,688196efea026eed3b9eea29,,,,,,,,,,,,,1,,,,,,,,,,,,,,,,,,,,,,,,,,,,,,,,,,,,,91,click the 1 key.,,,,,2625.5572,2627.322,1,1,1.2172,,0,60,60,90,1,REAL,FAKE,,,,,,,,,,,,,,,,,
,,,,,,,,,5f51a882d4ac6440de16c4ed,"Dominican, Puerto Rican, ",younger than 13,"no, only English or Spanish",yes,2025-07-23_22h19.33.695,empathy_intonation_perc_control,2024.2.4,MacIntel,59.88023952,5f51a882d4ac6440de16c4ed,68817205a84113384fffdfe3,688196efea026eed3b9eea29,,,,,,,,,,,,,1,,,,,,,,,,,,,,,,,,,,,,,,,,,,,,,,,,,,,43,canela,,,,,2627.3228,2629.2063,1,1,1.3728,,0,61,61,42,1,REAL,FAKE,,,,,,,,,,,,,,,,,
,,,,,,,,,5f51a882d4ac6440de16c4ed,"Dominican, Puerto Rican, ",younger than 13,"no, only English or Spanish",yes,2025-07-23_22h19.33.695,empathy_intonation_perc_control,2024.2.4,MacIntel,59.88023952,5f51a882d4ac6440de16c4ed,68817205a84113384fffdfe3,688196efea026eed3b9eea29,,,,,,,,,,,,,1,,,,,,,,,,,,,,,,,,,,,,,,,,,,,,,,,,,,,13,helar,,,,,2629.2071,2643.7391,1,1,13.9958,,0,62,62,12,1,REAL,FAKE,,,,,,,,,,,,,,,,,
,,,,,,,,,5f51a882d4ac6440de16c4ed,"Dominican, Puerto Rican, ",younger than 13,"no, only English or Spanish",yes,2025-07-23_22h19.33.695,empathy_intonation_perc_control,2024.2.4,MacIntel,59.88023952,5f51a882d4ac6440de16c4ed,68817205a84113384fffdfe3,688196efea026eed3b9eea29,,,,,,,,,,,,,1,,,,,,,,,,,,,,,,,,,,,,,,,,,,,,,,,,,,,51,candado,,,,,2643.74,2645.3566,1,1,1.089,,0,63,63,50,1,REAL,FAKE,,,,,,,,,,,,,,,,,
,,,,,,,,,5f51a882d4ac6440de16c4ed,"Dominican, Puerto Rican, ",younger than 13,"no, only English or Spanish",yes,2025-07-23_22h19.33.695,empathy_intonation_perc_control,2024.2.4,MacIntel,59.88023952,5f51a882d4ac6440de16c4ed,68817205a84113384fffdfe3,688196efea026eed3b9eea29,,,,,,,,,,,,,1,,,,,,,,,,,,,,,,,,,,,,,,,,,,,,,,,,,,,7,pésimo,,,,,2645.3573,2656.8398,1,1,10.9376,,0,64,64,6,1,REAL,FAKE,,,,,,,,,,,,,,,,,
,,,,,,,,,5f51a882d4ac6440de16c4ed,"Dominican, Puerto Rican, ",younger than 13,"no, only English or Spanish",yes,2025-07-23_22h19.33.695,empathy_intonation_perc_control,2024.2.4,MacIntel,59.88023952,5f51a882d4ac6440de16c4ed,68817205a84113384fffdfe3,688196efea026eed3b9eea29,,,,,,,,,,,,,1,,,,,,,,,,,,,,,,,,,,,,,,,,,,,,,,,,,,,80,hormiga,,,,,2656.8411,2665.6573,1,1,8.277,,0,65,65,79,1,REAL,FAKE,,,,,,,,,,,,,,,,,
,,,,,,,,,5f51a882d4ac6440de16c4ed,"Dominican, Puerto Rican, ",younger than 13,"no, only English or Spanish",yes,2025-07-23_22h19.33.695,empathy_intonation_perc_control,2024.2.4,MacIntel,59.88023952,5f51a882d4ac6440de16c4ed,68817205a84113384fffdfe3,688196efea026eed3b9eea29,,,,,,,,,,,,,0,,,,,,,,,,,,,,,,,,,,,,,,,,,,,,,,,,,,,50,flamida,,,,,2665.6579,2673.091,0,1,6.8871,,0,66,66,49,1,REAL,FAKE,,,,,,,,,,,,,,,,,
,,,,,,,,,5f51a882d4ac6440de16c4ed,"Dominican, Puerto Rican, ",younger than 13,"no, only English or Spanish",yes,2025-07-23_22h19.33.695,empathy_intonation_perc_control,2024.2.4,MacIntel,59.88023952,5f51a882d4ac6440de16c4ed,68817205a84113384fffdfe3,688196efea026eed3b9eea29,,,,,,,,,,,,,1,,,,,,,,,,,,,,,,,,,,,,,,,,,,,,,,,,,,,77,tiburón,,,,,2673.092,2683.6746,0,0,10.0449,,0,67,67,76,1,REAL,FAKE,,,,,,,,,,,,,,,,,
,,,,,,,,,5f51a882d4ac6440de16c4ed,"Dominican, Puerto Rican, ",younger than 13,"no, only English or Spanish",yes,2025-07-23_22h19.33.695,empathy_intonation_perc_control,2024.2.4,MacIntel,59.88023952,5f51a882d4ac6440de16c4ed,68817205a84113384fffdfe3,688196efea026eed3b9eea29,,,,,,,,,,,,,0,,,,,,,,,,,,,,,,,,,,,,,,,,,,,,,,,,,,,29,decar,,,,,2683.6758,2685.6746,1,0,1.4546,,0,68,68,28,1,REAL,FAKE,,,,,,,,,,,,,,,,,
,,,,,,,,,5f51a882d4ac6440de16c4ed,"Dominican, Puerto Rican, ",younger than 13,"no, only English or Spanish",yes,2025-07-23_22h19.33.695,empathy_intonation_perc_control,2024.2.4,MacIntel,59.88023952,5f51a882d4ac6440de16c4ed,68817205a84113384fffdfe3,688196efea026eed3b9eea29,,,,,,,,,,,,,1,,,,,,,,,,,,,,,,,,,,,,,,,,,,,,,,,,,,,75,yacer,,,,,2685.6757,2687.9406,1,1,1.7296,,0,69,69,74,1,REAL,FAKE,,,,,,,,,,,,,,,,,
,,,,,,,,,5f51a882d4ac6440de16c4ed,"Dominican, Puerto Rican, ",younger than 13,"no, only English or Spanish",yes,2025-07-23_22h19.33.695,empathy_intonation_perc_control,2024.2.4,MacIntel,59.88023952,5f51a882d4ac6440de16c4ed,68817205a84113384fffdfe3,688196efea026eed3b9eea29,,,,,,,,,,,,,0,,,,,,,,,,,,,,,,,,,,,,,,,,,,,,,,,,,,,1,terzo,,,,,2687.9414,2695.7249,0,1,7.2557,,0,70,70,0,1,REAL,FAKE,,,,,,,,,,,,,,,,,
,,,,,,,,,5f51a882d4ac6440de16c4ed,"Dominican, Puerto Rican, ",younger than 13,"no, only English or Spanish",yes,2025-07-23_22h19.33.695,empathy_intonation_perc_control,2024.2.4,MacIntel,59.88023952,5f51a882d4ac6440de16c4ed,68817205a84113384fffdfe3,688196efea026eed3b9eea29,,,,,,,,,,,,,1,,,,,,,,,,,,,,,,,,,,,,,,,,,,,,,,,,,,,60,matar,,,,,2695.726,2706.2245,1,1,9.9624,,0,71,71,59,1,REAL,FAKE,,,,,,,,,,,,,,,,,
,,,,,,,,,5f51a882d4ac6440de16c4ed,"Dominican, Puerto Rican, ",younger than 13,"no, only English or Spanish",yes,2025-07-23_22h19.33.695,empathy_intonation_perc_control,2024.2.4,MacIntel,59.88023952,5f51a882d4ac6440de16c4ed,68817205a84113384fffdfe3,688196efea026eed3b9eea29,,,,,,,,,,,,,1,,,,,,,,,,,,,,,,,,,,,,,,,,,,,,,,,,,,,12,asesinato,,,,,2706.2254,2713.9256,1,1,7.1543,,0,72,72,11,1,REAL,FAKE,,,,,,,,,,,,,,,,,
,,,,,,,,,5f51a882d4ac6440de16c4ed,"Dominican, Puerto Rican, ",younger than 13,"no, only English or Spanish",yes,2025-07-23_22h19.33.695,empathy_intonation_perc_control,2024.2.4,MacIntel,59.88023952,5f51a882d4ac6440de16c4ed,68817205a84113384fffdfe3,688196efea026eed3b9eea29,,,,,,,,,,,,,1,,,,,,,,,,,,,,,,,,,,,,,,,,,,,,,,,,,,,45,jilguero,,,,,2713.9265,2723.2585,1,1,8.7957,,0,73,73,44,1,REAL,FAKE,,,,,,,,,,,,,,,,,
,,,,,,,,,5f51a882d4ac6440de16c4ed,"Dominican, Puerto Rican, ",younger than 13,"no, only English or Spanish",yes,2025-07-23_22h19.33.695,empathy_intonation_perc_control,2024.2.4,MacIntel,59.88023952,5f51a882d4ac6440de16c4ed,68817205a84113384fffdfe3,688196efea026eed3b9eea29,,,,,,,,,,,,,1,,,,,,,,,,,,,,,,,,,,,,,,,,,,,,,,,,,,,6,tergiversar,,,,,2723.2596,2737.7266,1,1,13.9294,,0,74,74,5,1,REAL,FAKE,,,,,,,,,,,,,,,,,
,,,,,,,,,5f51a882d4ac6440de16c4ed,"Dominican, Puerto Rican, ",younger than 13,"no, only English or Spanish",yes,2025-07-23_22h19.33.695,empathy_intonation_perc_control,2024.2.4,MacIntel,59.88023952,5f51a882d4ac6440de16c4ed,68817205a84113384fffdfe3,688196efea026eed3b9eea29,,,,,,,,,,,,,1,,,,,,,,,,,,,,,,,,,,,,,,,,,,,,,,,,,,,85,laúd,,,,,2737.7282,2759.3105,0,0,21.0345,,0,75,75,84,1,REAL,FAKE,,,,,,,,,,,,,,,,,
,,,,,,,,,5f51a882d4ac6440de16c4ed,"Dominican, Puerto Rican, ",younger than 13,"no, only English or Spanish",yes,2025-07-23_22h19.33.695,empathy_intonation_perc_control,2024.2.4,MacIntel,59.88023952,5f51a882d4ac6440de16c4ed,68817205a84113384fffdfe3,688196efea026eed3b9eea29,,,,,,,,,,,,,1,,,,,,,,,,,,,,,,,,,,,,,,,,,,,,,,,,,,,65,bizcocho,,,,,2759.3119,2773.2775,1,1,13.4145,,0,76,76,64,1,REAL,FAKE,,,,,,,,,,,,,,,,,
,,,,,,,,,5f51a882d4ac6440de16c4ed,"Dominican, Puerto Rican, ",younger than 13,"no, only English or Spanish",yes,2025-07-23_22h19.33.695,empathy_intonation_perc_control,2024.2.4,MacIntel,59.88023952,5f51a882d4ac6440de16c4ed,68817205a84113384fffdfe3,688196efea026eed3b9eea29,,,,,,,,,,,,,1,,,,,,,,,,,,,,,,,,,,,,,,,,,,,,,,,,,,,5,zapato,,,,,2773.2788,2775.0103,1,1,1.1854,,0,77,77,4,1,REAL,FAKE,,,,,,,,,,,,,,,,,
,,,,,,,,,5f51a882d4ac6440de16c4ed,"Dominican, Puerto Rican, ",younger than 13,"no, only English or Spanish",yes,2025-07-23_22h19.33.695,empathy_intonation_perc_control,2024.2.4,MacIntel,59.88023952,5f51a882d4ac6440de16c4ed,68817205a84113384fffdfe3,688196efea026eed3b9eea29,,,,,,,,,,,,,0,,,,,,,,,,,,,,,,,,,,,,,,,,,,,,,,,,,,,82,empirador,,,,,2775.0114,2776.5776,1,0,1.0339,,0,78,78,81,1,REAL,FAKE,,,,,,,,,,,,,,,,,
,,,,,,,,,5f51a882d4ac6440de16c4ed,"Dominican, Puerto Rican, ",younger than 13,"no, only English or Spanish",yes,2025-07-23_22h19.33.695,empathy_intonation_perc_control,2024.2.4,MacIntel,59.88023952,5f51a882d4ac6440de16c4ed,68817205a84113384fffdfe3,688196efea026eed3b9eea29,,,,,,,,,,,,,1,,,,,,,,,,,,,,,,,,,,,,,,,,,,,,,,,,,,,67,cabello,,,,,2776.5787,2778.0776,1,1,0.9624,,0,79,79,66,1,REAL,FAKE,,,,,,,,,,,,,,,,,
,,,,,,,,,5f51a882d4ac6440de16c4ed,"Dominican, Puerto Rican, ",younger than 13,"no, only English or Spanish",yes,2025-07-23_22h19.33.695,empathy_intonation_perc_control,2024.2.4,MacIntel,59.88023952,5f51a882d4ac6440de16c4ed,68817205a84113384fffdfe3,688196efea026eed3b9eea29,,,,,,,,,,,,,1,,,,,,,,,,,,,,,,,,,,,,,,,,,,,,,,,,,,,89,prisa,,,,,2778.0787,2779.5109,1,1,0.9005,,0,80,80,88,1,REAL,FAKE,,,,,,,,,,,,,,,,,
,,,,,,,,,5f51a882d4ac6440de16c4ed,"Dominican, Puerto Rican, ",younger than 13,"no, only English or Spanish",yes,2025-07-23_22h19.33.695,empathy_intonation_perc_control,2024.2.4,MacIntel,59.88023952,5f51a882d4ac6440de16c4ed,68817205a84113384fffdfe3,688196efea026eed3b9eea29,,,,,,,,,,,,,0,,,,,,,,,,,,,,,,,,,,,,,,,,,,,,,,,,,,,47,cartinar,,,,,2779.5121,2781.1612,1,0,1.1157,,0,81,81,46,1,REAL,FAKE,,,,,,,,,,,,,,,,,
,,,,,,,,,5f51a882d4ac6440de16c4ed,"Dominican, Puerto Rican, ",younger than 13,"no, only English or Spanish",yes,2025-07-23_22h19.33.695,empathy_intonation_perc_control,2024.2.4,MacIntel,59.88023952,5f51a882d4ac6440de16c4ed,68817205a84113384fffdfe3,688196efea026eed3b9eea29,,,,,,,,,,,,,1,,,,,,,,,,,,,,,,,,,,,,,,,,,,,,,,,,,,,25,bisagra,,,,,2781.1623,2788.7614,0,0,7.0728,,0,82,82,24,1,REAL,FAKE,,,,,,,,,,,,,,,,,
,,,,,,,,,5f51a882d4ac6440de16c4ed,"Dominican, Puerto Rican, ",younger than 13,"no, only English or Spanish",yes,2025-07-23_22h19.33.695,empathy_intonation_perc_control,2024.2.4,MacIntel,59.88023952,5f51a882d4ac6440de16c4ed,68817205a84113384fffdfe3,688196efea026eed3b9eea29,,,,,,,,,,,,,1,,,,,,,,,,,,,,,,,,,,,,,,,,,,,,,,,,,,,71,polvoriento,,,,,2788.7625,2798.145,1,1,8.8496,,0,83,83,70,1,REAL,FAKE,,,,,,,,,,,,,,,,,
,,,,,,,,,5f51a882d4ac6440de16c4ed,"Dominican, Puerto Rican, ",younger than 13,"no, only English or Spanish",yes,2025-07-23_22h19.33.695,empathy_intonation_perc_control,2024.2.4,MacIntel,59.88023952,5f51a882d4ac6440de16c4ed,68817205a84113384fffdfe3,688196efea026eed3b9eea29,,,,,,,,,,,,,1,,,,,,,,,,,,,,,,,,,,,,,,,,,,,,,,,,,,,44,cuchara,,,,,2798.1461,2808.2953,1,1,9.6008,,0,84,84,43,1,REAL,FAKE,,,,,,,,,,,,,,,,,
,,,,,,,,,5f51a882d4ac6440de16c4ed,"Dominican, Puerto Rican, ",younger than 13,"no, only English or Spanish",yes,2025-07-23_22h19.33.695,empathy_intonation_perc_control,2024.2.4,MacIntel,59.88023952,5f51a882d4ac6440de16c4ed,68817205a84113384fffdfe3,688196efea026eed3b9eea29,,,,,,,,,,,,,1,,,,,,,,,,,,,,,,,,,,,,,,,,,,,,,,,,,,,39,torpe,,,,,2808.2965,2816.5289,1,1,7.6891,,0,85,85,38,1,REAL,FAKE,,,,,,,,,,,,,,,,,
,,,,,,,,,5f51a882d4ac6440de16c4ed,"Dominican, Puerto Rican, ",younger than 13,"no, only English or Spanish",yes,2025-07-23_22h19.33.695,empathy_intonation_perc_control,2024.2.4,MacIntel,59.88023952,5f51a882d4ac6440de16c4ed,68817205a84113384fffdfe3,688196efea026eed3b9eea29,,,,,,,,,,,,,0,,,,,,,,,,,,,,,,,,,,,,,,,,,,,,,,,,,,,4,batillón,,,,,2816.53,2819.6791,1,0,2.6023,,0,86,86,3,1,REAL,FAKE,,,,,,,,,,,,,,,,,
,,,,,,,,,5f51a882d4ac6440de16c4ed,"Dominican, Puerto Rican, ",younger than 13,"no, only English or Spanish",yes,2025-07-23_22h19.33.695,empathy_intonation_perc_control,2024.2.4,MacIntel,59.88023952,5f51a882d4ac6440de16c4ed,68817205a84113384fffdfe3,688196efea026eed3b9eea29,,,,,,,,,,,,,1,,,,,,,,,,,,,,,,,,,,,,,,,,,,,,,,,,,,,48,ladrón,,,,,2819.68,2821.5458,1,1,1.3275,,0,87,87,47,1,REAL,FAKE,,,,,,,,,,,,,,,,,
,,,,,,,,,5f51a882d4ac6440de16c4ed,"Dominican, Puerto Rican, ",younger than 13,"no, only English or Spanish",yes,2025-07-23_22h19.33.695,empathy_intonation_perc_control,2024.2.4,MacIntel,59.88023952,5f51a882d4ac6440de16c4ed,68817205a84113384fffdfe3,688196efea026eed3b9eea29,,,,,,,,,,,,,1,,,,,,,,,,,,,,,,,,,,,,,,,,,,,,,,,,,,,81,pozo,,,,,2821.5467,2830.946,1,1,8.8642,,0,88,88,80,1,REAL,FAKE,,,,,,,,,,,,,,,,,
,,,,,,,,,5f51a882d4ac6440de16c4ed,"Dominican, Puerto Rican, ",younger than 13,"no, only English or Spanish",yes,2025-07-23_22h19.33.695,empathy_intonation_perc_control,2024.2.4,MacIntel,59.88023952,5f51a882d4ac6440de16c4ed,68817205a84113384fffdfe3,688196efea026eed3b9eea29,,,,,,,,,,,,,1,,,,,,,,,,,,,,,,,,,,,,,,,,,,,,,,,,,,,11,cenefa,,,,,2830.9469,2838.1799,1,1,6.6878,,0,89,89,10,1,REAL,FAKE,,,,,,,,,,,,,,,,,
,,,,,,,,,5f51a882d4ac6440de16c4ed,"Dominican, Puerto Rican, ",younger than 13,"no, only English or Spanish",yes,2025-07-23_22h19.33.695,empathy_intonation_perc_control,2024.2.4,MacIntel,59.88023952,5f51a882d4ac6440de16c4ed,68817205a84113384fffdfe3,688196efea026eed3b9eea29,,,,,,,,,,,,,1,,,,,,,,,,,,,,,,,,,,,,,,,,,,,,,,,,,,,28,merodear,,,,,2838.1824,2841.0796,1,1,2.3641,,0,90,90,27,1,REAL,FAKE,,,,,,,,,,,,,,,,,
,,,,,,,,,5f51a882d4ac6440de16c4ed,"Dominican, Puerto Rican, ",younger than 13,"no, only English or Spanish",yes,2025-07-23_22h19.33.695,empathy_intonation_perc_control,2024.2.4,MacIntel,59.88023952,5f51a882d4ac6440de16c4ed,68817205a84113384fffdfe3,688196efea026eed3b9eea29,,,,,,,,,,,,,1,,,,,,,,,,,,,,,,,,,,,,,,,,,,,,,,,,,,,76,atar,,,,,2841.0807,2850.6965,0,0,9.0803,,0,91,91,75,1,REAL,FAKE,,,,,,,,,,,,,,,,,
,,,,,,,,,5f51a882d4ac6440de16c4ed,"Dominican, Puerto Rican, ",younger than 13,"no, only English or Spanish",yes,2025-07-23_22h19.33.695,empathy_intonation_perc_control,2024.2.4,MacIntel,59.88023952,5f51a882d4ac6440de16c4ed,68817205a84113384fffdfe3,688196efea026eed3b9eea29,,,,,,,,,,,,,,,,,,,,,,,,,,,,,,,,,,,,,,,,,,,,,,,,,,,,,,,,,,,,,,,,,,,,,2850.6971,2858.1307,,,,,,,,,,,,,,,
,,,,,,,,,5f51a882d4ac6440de16c4ed,"Dominican, Puerto Rican, ",younger than 13,"no, only English or Spanish",yes,2025-07-23_22h19.33.695,empathy_intonation_perc_control,2024.2.4,MacIntel,59.88023952,5f51a882d4ac6440de16c4ed,68817205a84113384fffdfe3,688196efea026eed3b9eea29,,,,,,,,,,,,,,,,,,,,,,,,,,,1,,,,,,,,,,,,,,,,,,,,,,,,,,,,,,,,,,,,,,,,,,,,2858.1481,2899.8826,strongly disagree,0,0,0,0,1,I can easily tell if someone else wants to enter a conversation.,1,0,1,0,,
,,,,,,,,,5f51a882d4ac6440de16c4ed,"Dominican, Puerto Rican, ",younger than 13,"no, only English or Spanish",yes,2025-07-23_22h19.33.695,empathy_intonation_perc_control,2024.2.4,MacIntel,59.88023952,5f51a882d4ac6440de16c4ed,68817205a84113384fffdfe3,688196efea026eed3b9eea29,,,,,,,,,,,,,,,,,,,,,,,,,,,2,,,,,,,,,,,,,,,,,,,,,,,,,,,,,,,,,,,,,,,,,,,,2899.8831,2903.8813,strongly disagree,0,1,1,1,1,I prefer animals to humans.,0,1,0,0,,
,,,,,,,,,5f51a882d4ac6440de16c4ed,"Dominican, Puerto Rican, ",younger than 13,"no, only English or Spanish",yes,2025-07-23_22h19.33.695,empathy_intonation_perc_control,2024.2.4,MacIntel,59.88023952,5f51a882d4ac6440de16c4ed,68817205a84113384fffdfe3,688196efea026eed3b9eea29,,,,,,,,,,,,,,,,,,,,,,,,,,,3,,,,,,,,,,,,,,,,,,,,,,,,,,,,,,,,,,,,,,,,,,,,2903.8825,2907.3977,strongly agree,0,2,2,2,1,I try to keep up with the current trends and fashions.,0,1,0,0,,
,,,,,,,,,5f51a882d4ac6440de16c4ed,"Dominican, Puerto Rican, ",younger than 13,"no, only English or Spanish",yes,2025-07-23_22h19.33.695,empathy_intonation_perc_control,2024.2.4,MacIntel,59.88023952,5f51a882d4ac6440de16c4ed,68817205a84113384fffdfe3,688196efea026eed3b9eea29,,,,,,,,,,,,,,,,,,,,,,,,,,,4,,,,,,,,,,,,,,,,,,,,,,,,,,,,,,,,,,,,,,,,,,,,2907.3993,2912.5646,strongly disagree,0,3,3,3,1,"I find it difficult to explain to others things that I understand easily,   when they don't understand it first time.",1,0,0,1,,
,,,,,,,,,5f51a882d4ac6440de16c4ed,"Dominican, Puerto Rican, ",younger than 13,"no, only English or Spanish",yes,2025-07-23_22h19.33.695,empathy_intonation_perc_control,2024.2.4,MacIntel,59.88023952,5f51a882d4ac6440de16c4ed,68817205a84113384fffdfe3,688196efea026eed3b9eea29,,,,,,,,,,,,,,,,,,,,,,,,,,,5,,,,,,,,,,,,,,,,,,,,,,,,,,,,,,,,,,,,,,,,,,,,2912.5658,2917.5818,strongly agree,0,4,4,4,1,I dream most nights.,0,1,0,0,,
,,,,,,,,,5f51a882d4ac6440de16c4ed,"Dominican, Puerto Rican, ",younger than 13,"no, only English or Spanish",yes,2025-07-23_22h19.33.695,empathy_intonation_perc_control,2024.2.4,MacIntel,59.88023952,5f51a882d4ac6440de16c4ed,68817205a84113384fffdfe3,688196efea026eed3b9eea29,,,,,,,,,,,,,,,,,,,,,,,,,,,6,,,,,,,,,,,,,,,,,,,,,,,,,,,,,,,,,,,,,,,,,,,,2917.5832,2919.1819,strongly agree,0,5,5,5,1,I really enjoy caring for other people.,1,0,1,0,,
,,,,,,,,,5f51a882d4ac6440de16c4ed,"Dominican, Puerto Rican, ",younger than 13,"no, only English or Spanish",yes,2025-07-23_22h19.33.695,empathy_intonation_perc_control,2024.2.4,MacIntel,59.88023952,5f51a882d4ac6440de16c4ed,68817205a84113384fffdfe3,688196efea026eed3b9eea29,,,,,,,,,,,,,,,,,,,,,,,,,,,7,,,,,,,,,,,,,,,,,,,,,,,,,,,,,,,,,,,,,,,,,,,,2919.1832,2922.1488,strongly agree,0,6,6,6,1,I try to solve my own problems rather than discussing them with others.,0,1,0,0,,
,,,,,,,,,5f51a882d4ac6440de16c4ed,"Dominican, Puerto Rican, ",younger than 13,"no, only English or Spanish",yes,2025-07-23_22h19.33.695,empathy_intonation_perc_control,2024.2.4,MacIntel,59.88023952,5f51a882d4ac6440de16c4ed,68817205a84113384fffdfe3,688196efea026eed3b9eea29,,,,,,,,,,,,,,,,,,,,,,,,,,,8,,,,,,,,,,,,,,,,,,,,,,,,,,,,,,,,,,,,,,,,,,,,2922.15,2925.8989,slightly disagree,0,7,7,7,1,I find it hard to know what to do in a social situation.,1,0,0,1,,
,,,,,,,,,5f51a882d4ac6440de16c4ed,"Dominican, Puerto Rican, ",younger than 13,"no, only English or Spanish",yes,2025-07-23_22h19.33.695,empathy_intonation_perc_control,2024.2.4,MacIntel,59.88023952,5f51a882d4ac6440de16c4ed,68817205a84113384fffdfe3,688196efea026eed3b9eea29,,,,,,,,,,,,,,,,,,,,,,,,,,,9,,,,,,,,,,,,,,,,,,,,,,,,,,,,,,,,,,,,,,,,,,,,2925.8999,2930.6824,strongly agree,0,8,8,8,1,I am at my best first thing in the morning.,0,1,0,0,,
,,,,,,,,,5f51a882d4ac6440de16c4ed,"Dominican, Puerto Rican, ",younger than 13,"no, only English or Spanish",yes,2025-07-23_22h19.33.695,empathy_intonation_perc_control,2024.2.4,MacIntel,59.88023952,5f51a882d4ac6440de16c4ed,68817205a84113384fffdfe3,688196efea026eed3b9eea29,,,,,,,,,,,,,,,,,,,,,,,,,,,10,,,,,,,,,,,,,,,,,,,,,,,,,,,,,,,,,,,,,,,,,,,,2930.6837,2956.5834,strongly disagree,0,9,9,9,1,People often tell me that I went too far in driving my point home in a discussion.,1,0,0,1,,
