instructions_2afc.started,instructions_2afc.stopped,instructions_2afc_loop.thisRepN,instructions_2afc_loop.thisTrialN,instructions_2afc_loop.thisN,instructions_2afc_loop.thisIndex,instructions_2afc_loop.ran,instructions_text,continue_text,participant_id,"What variety of Spanish are you most familiar with? (e.g., Peruvian, Spanish, Mexican)",At what age did you begin learning Spanish?,Are you proficient in any languages other than English/Spanish?,"Are you familiar with Caribbean (e.g., Caribbean, Puerto Rican) or Galician Spanish?",date,expName,psychopyVersion,OS,frameRate,id,study_id,session,practice_2afc.started,practice_2afc.stopped,key_resp_2afc_practice.keys,key_resp_2afc_practice.corr,key_resp_2afc_practice.rt,key_resp_2afc_practice.duration,trials_2afc_practice_loop.thisRepN,trials_2afc_practice_loop.thisTrialN,trials_2afc_practice_loop.thisN,trials_2afc_practice_loop.thisIndex,trials_2afc_practice_loop.ran,path,correct_response,check_2afc.started,check_2afc.stopped,trial_2afc.started,trial_2afc.stopped,key_resp_2afc_trial.keys,key_resp_2afc_trial.corr,key_resp_2afc_trial.rt,key_resp_2afc_trial.duration,trials_2afc_loop.thisRepN,trials_2afc_loop.thisTrialN,trials_2afc_loop.thisN,trials_2afc_loop.thisIndex,trials_2afc_loop.ran,item_num,target,variety,instructions_lextale.started,instructions_lextale.stopped,instructions_lextale_loop.thisRepN,instructions_lextale_loop.thisTrialN,instructions_lextale_loop.thisN,instructions_lextale_loop.thisIndex,instructions_lextale_loop.ran,practice_lextale.started,practice_lextale.stopped,key_resp_lextale_practice.keys,key_resp_lextale_practice.corr,key_resp_lextale_practice.rt,key_resp_lextale_practice.duration,practice_feedback_lextale.started,practice_feedback_lextale.stopped,trials_lextale_practice_loop.thisRepN,trials_lextale_practice_loop.thisTrialN,trials_lextale_practice_loop.thisN,trials_lextale_practice_loop.thisIndex,trials_lextale_practice_loop.ran,stim,word,prac_button_real,prac_button_false,check_lextale.started,check_lextale.stopped,trial_lextale.started,trial_lextale.stopped,key_resp_lextale_trial.keys,key_resp_lextale_trial.corr,key_resp_lextale_trial.rt,key_resp_lextale_trial.duration,trials_lextale_loop.thisRepN,trials_lextale_loop.thisTrialN,trials_lextale_loop.thisN,trials_lextale_loop.thisIndex,trials_lextale_loop.ran,button_real,button_false,instructions_eq.started,instructions_eq.stopped,trial_eq.started,trial_eq.stopped,slider_eq_trial.response,trials_eq_loop.thisRepN,trials_eq_loop.thisTrialN,trials_eq_loop.thisN,trials_eq_loop.thisIndex,trials_eq_loop.ran,item,is_test_item,is_distractor,is_agree_score,is_disagree_score,end_exp.started,end_exp.stopped
0.0245,17.1737,0,0,0,0,1,"In the following task you are going to hear a series of utterances. 

  You will decide if the utterances sound like questions or not using your keyboard.", (press the spacebar to continue),5f8f0ae15fe9e60fbbbaead9,Spanish,13 or older,"no, only English or Spanish",no,2025-07-24_08h12.45.801,empathy_intonation_perc_control,2024.2.4,Win32,59.88023952,5f8f0ae15fe9e60fbbbaead9,68817205a84113384fffdfe3,68824cf0f8ecd9f50486c8f7,,,,,,,,,,,,,,,,,,,,,,,,,,,,,,,,,,,,,,,,,,,,,,,,,,,,,,,,,,,,,,,,,,,,,,,,,,,,,,,,,,,,,
17.1777,41.252,0,1,1,1,1,"If you believe the utterance is a question, type '1' (for 'yes') and if you do not 
  believe it is a question type '0' (for 'no').

  Let's practice a bit...", (press the spacebar to continue),5f8f0ae15fe9e60fbbbaead9,Spanish,13 or older,"no, only English or Spanish",no,2025-07-24_08h12.45.801,empathy_intonation_perc_control,2024.2.4,Win32,59.88023952,5f8f0ae15fe9e60fbbbaead9,68817205a84113384fffdfe3,68824cf0f8ecd9f50486c8f7,,,,,,,,,,,,,,,,,,,,,,,,,,,,,,,,,,,,,,,,,,,,,,,,,,,,,,,,,,,,,,,,,,,,,,,,,,,,,,,,,,,,,
,,,,,,,,,5f8f0ae15fe9e60fbbbaead9,Spanish,13 or older,"no, only English or Spanish",no,2025-07-24_08h12.45.801,empathy_intonation_perc_control,2024.2.4,Win32,59.88023952,5f8f0ae15fe9e60fbbbaead9,68817205a84113384fffdfe3,68824cf0f8ecd9f50486c8f7,41.2614,48.3177,0,1,6.5326,,0,0,0,7,1,./stim/wavs/puertorican_statement_filler_La-nina-pinta-con-su-amiga.wav,0,,,,,,,,,,,,,,,,,,,,,,,,,,,,,,,,,,,,,,,,,,,,,,,,,,,,,,,,,,,,,,,,,,,,,,,,
,,,,,,,,,5f8f0ae15fe9e60fbbbaead9,Spanish,13 or older,"no, only English or Spanish",no,2025-07-24_08h12.45.801,empathy_intonation_perc_control,2024.2.4,Win32,59.88023952,5f8f0ae15fe9e60fbbbaead9,68817205a84113384fffdfe3,68824cf0f8ecd9f50486c8f7,48.3192,53.5333,1,1,4.6902,,0,1,1,0,1,./stim/wavs/castilian_question_filler_Mi-esposo-conoce-al-chico.wav,1,,,,,,,,,,,,,,,,,,,,,,,,,,,,,,,,,,,,,,,,,,,,,,,,,,,,,,,,,,,,,,,,,,,,,,,,
,,,,,,,,,5f8f0ae15fe9e60fbbbaead9,Spanish,13 or older,"no, only English or Spanish",no,2025-07-24_08h12.45.801,empathy_intonation_perc_control,2024.2.4,Win32,59.88023952,5f8f0ae15fe9e60fbbbaead9,68817205a84113384fffdfe3,68824cf0f8ecd9f50486c8f7,53.534,112.8048,0,1,58.7456,,0,2,2,5,1,./stim/wavs/andalusian_statement_filler_Alberto-nunca-se-afeita.wav,0,,,,,,,,,,,,,,,,,,,,,,,,,,,,,,,,,,,,,,,,,,,,,,,,,,,,,,,,,,,,,,,,,,,,,,,,
,,,,,,,,,5f8f0ae15fe9e60fbbbaead9,Spanish,13 or older,"no, only English or Spanish",no,2025-07-24_08h12.45.801,empathy_intonation_perc_control,2024.2.4,Win32,59.88023952,5f8f0ae15fe9e60fbbbaead9,68817205a84113384fffdfe3,68824cf0f8ecd9f50486c8f7,112.8057,127.8184,0,1,14.4928,,0,3,3,6,1,./stim/wavs/peruvian_statement_filler_El-nino-habla-con-su-madre.wav,0,,,,,,,,,,,,,,,,,,,,,,,,,,,,,,,,,,,,,,,,,,,,,,,,,,,,,,,,,,,,,,,,,,,,,,,,
,,,,,,,,,5f8f0ae15fe9e60fbbbaead9,Spanish,13 or older,"no, only English or Spanish",no,2025-07-24_08h12.45.801,empathy_intonation_perc_control,2024.2.4,Win32,59.88023952,5f8f0ae15fe9e60fbbbaead9,68817205a84113384fffdfe3,68824cf0f8ecd9f50486c8f7,127.8194,142.632,1,1,14.2843,,0,4,4,1,1,./stim/wavs/argentine_question_filler_Mi-vecino-habla-mucho.wav,1,,,,,,,,,,,,,,,,,,,,,,,,,,,,,,,,,,,,,,,,,,,,,,,,,,,,,,,,,,,,,,,,,,,,,,,,
,,,,,,,,,5f8f0ae15fe9e60fbbbaead9,Spanish,13 or older,"no, only English or Spanish",no,2025-07-24_08h12.45.801,empathy_intonation_perc_control,2024.2.4,Win32,59.88023952,5f8f0ae15fe9e60fbbbaead9,68817205a84113384fffdfe3,68824cf0f8ecd9f50486c8f7,142.633,148.2641,0,0,5.0999,,0,5,5,2,1,./stim/wavs/chilean_question_filler_Mi-padre-cantaba-bien.wav,1,,,,,,,,,,,,,,,,,,,,,,,,,,,,,,,,,,,,,,,,,,,,,,,,,,,,,,,,,,,,,,,,,,,,,,,,
,,,,,,,,,5f8f0ae15fe9e60fbbbaead9,Spanish,13 or older,"no, only English or Spanish",no,2025-07-24_08h12.45.801,empathy_intonation_perc_control,2024.2.4,Win32,59.88023952,5f8f0ae15fe9e60fbbbaead9,68817205a84113384fffdfe3,68824cf0f8ecd9f50486c8f7,148.265,155.2796,1,1,6.4824,,0,6,6,3,1,./stim/wavs/mexican_question_filler_Felipe-no-tiene-contrasena.wav,1,,,,,,,,,,,,,,,,,,,,,,,,,,,,,,,,,,,,,,,,,,,,,,,,,,,,,,,,,,,,,,,,,,,,,,,,
,,,,,,,,,5f8f0ae15fe9e60fbbbaead9,Spanish,13 or older,"no, only English or Spanish",no,2025-07-24_08h12.45.801,empathy_intonation_perc_control,2024.2.4,Win32,59.88023952,5f8f0ae15fe9e60fbbbaead9,68817205a84113384fffdfe3,68824cf0f8ecd9f50486c8f7,155.2804,158.4456,0,1,2.6403,,0,7,7,4,1,./stim/wavs/cuban_statement_filler_Cocinabas-por-la-noche.wav,0,,,,,,,,,,,,,,,,,,,,,,,,,,,,,,,,,,,,,,,,,,,,,,,,,,,,,,,,,,,,,,,,,,,,,,,,
,,,,,,,,,5f8f0ae15fe9e60fbbbaead9,Spanish,13 or older,"no, only English or Spanish",no,2025-07-24_08h12.45.801,empathy_intonation_perc_control,2024.2.4,Win32,59.88023952,5f8f0ae15fe9e60fbbbaead9,68817205a84113384fffdfe3,68824cf0f8ecd9f50486c8f7,,,,,,,,,,,,,,158.4461,168.5439,,,,,,,,,,,,,,,,,,,,,,,,,,,,,,,,,,,,,,,,,,,,,,,,,,,,,,,,,,,,,,,,,,,,,,
,,,,,,,,,5f8f0ae15fe9e60fbbbaead9,Spanish,13 or older,"no, only English or Spanish",no,2025-07-24_08h12.45.801,empathy_intonation_perc_control,2024.2.4,Win32,59.88023952,5f8f0ae15fe9e60fbbbaead9,68817205a84113384fffdfe3,68824cf0f8ecd9f50486c8f7,,,,,,,,,,,,./stim/wavs/puertorican_mismatch_declarative-broad-focus_El-hombre-mira-la-luna.wav,0,,,168.5541,171.077,0,1,1.9912,,0,0,0,84,1,85,0,puertorican,,,,,,,,,,,,,,,,,,,,,,,,,,,,,,,,,,,,,,,,,,,,,,,,,,,,,,,,
,,,,,,,,,5f8f0ae15fe9e60fbbbaead9,Spanish,13 or older,"no, only English or Spanish",no,2025-07-24_08h12.45.801,empathy_intonation_perc_control,2024.2.4,Win32,59.88023952,5f8f0ae15fe9e60fbbbaead9,68817205a84113384fffdfe3,68824cf0f8ecd9f50486c8f7,,,,,,,,,,,,./stim/wavs/cuban_match_declarative-broad-focus_Manuela-vende-el-carro.wav,0,,,171.0786,173.7802,0,1,2.197,,0,1,1,52,1,53,0,cuban,,,,,,,,,,,,,,,,,,,,,,,,,,,,,,,,,,,,,,,,,,,,,,,,,,,,,,,,
,,,,,,,,,5f8f0ae15fe9e60fbbbaead9,Spanish,13 or older,"no, only English or Spanish",no,2025-07-24_08h12.45.801,empathy_intonation_perc_control,2024.2.4,Win32,59.88023952,5f8f0ae15fe9e60fbbbaead9,68817205a84113384fffdfe3,68824cf0f8ecd9f50486c8f7,,,,,,,,,,,,./stim/wavs/puertorican_mismatch_interrogative-total-yn_El-hombre-mira-la-luna.wav,1,,,173.7809,175.8799,1,1,1.5673,,0,2,2,39,1,40,1,puertorican,,,,,,,,,,,,,,,,,,,,,,,,,,,,,,,,,,,,,,,,,,,,,,,,,,,,,,,,
,,,,,,,,,5f8f0ae15fe9e60fbbbaead9,Spanish,13 or older,"no, only English or Spanish",no,2025-07-24_08h12.45.801,empathy_intonation_perc_control,2024.2.4,Win32,59.88023952,5f8f0ae15fe9e60fbbbaead9,68817205a84113384fffdfe3,68824cf0f8ecd9f50486c8f7,,,,,,,,,,,,./stim/wavs/cuban_match_interrogative-total-yn_Manuela-vende-el-carro.wav,1,,,175.8808,178.4787,0,0,2.0799,,0,3,3,8,1,9,1,cuban,,,,,,,,,,,,,,,,,,,,,,,,,,,,,,,,,,,,,,,,,,,,,,,,,,,,,,,,
,,,,,,,,,5f8f0ae15fe9e60fbbbaead9,Spanish,13 or older,"no, only English or Spanish",no,2025-07-24_08h12.45.801,empathy_intonation_perc_control,2024.2.4,Win32,59.88023952,5f8f0ae15fe9e60fbbbaead9,68817205a84113384fffdfe3,68824cf0f8ecd9f50486c8f7,,,,,,,,,,,,./stim/wavs/cuban_match_declarative-broad-focus_Mariano-habla-del-tiempo.wav,0,,,178.4792,181.7283,0,1,2.7169,,0,4,4,54,1,55,0,cuban,,,,,,,,,,,,,,,,,,,,,,,,,,,,,,,,,,,,,,,,,,,,,,,,,,,,,,,,
,,,,,,,,,5f8f0ae15fe9e60fbbbaead9,Spanish,13 or older,"no, only English or Spanish",no,2025-07-24_08h12.45.801,empathy_intonation_perc_control,2024.2.4,Win32,59.88023952,5f8f0ae15fe9e60fbbbaead9,68817205a84113384fffdfe3,68824cf0f8ecd9f50486c8f7,,,,,,,,,,,,./stim/wavs/mexican_mismatch_declarative-broad-focus_El-bebe-comia-muy-bien.wav,0,,,181.7287,184.0427,1,0,1.7949,,0,5,5,78,1,79,0,mexican,,,,,,,,,,,,,,,,,,,,,,,,,,,,,,,,,,,,,,,,,,,,,,,,,,,,,,,,
,,,,,,,,,5f8f0ae15fe9e60fbbbaead9,Spanish,13 or older,"no, only English or Spanish",no,2025-07-24_08h12.45.801,empathy_intonation_perc_control,2024.2.4,Win32,59.88023952,5f8f0ae15fe9e60fbbbaead9,68817205a84113384fffdfe3,68824cf0f8ecd9f50486c8f7,,,,,,,,,,,,./stim/wavs/mexican_match_declarative-broad-focus_Marta-abre-el-regalo.wav,0,,,184.0434,186.5399,1,0,1.9699,,0,6,6,61,1,62,0,mexican,,,,,,,,,,,,,,,,,,,,,,,,,,,,,,,,,,,,,,,,,,,,,,,,,,,,,,,,
,,,,,,,,,5f8f0ae15fe9e60fbbbaead9,Spanish,13 or older,"no, only English or Spanish",no,2025-07-24_08h12.45.801,empathy_intonation_perc_control,2024.2.4,Win32,59.88023952,5f8f0ae15fe9e60fbbbaead9,68817205a84113384fffdfe3,68824cf0f8ecd9f50486c8f7,,,,,,,,,,,,./stim/wavs/cuban_mismatch_interrogative-total-yn_Mi-novio-viene-del-lago.wav,1,,,186.5407,189.5392,0,0,2.4749,,0,7,7,32,1,33,1,cuban,,,,,,,,,,,,,,,,,,,,,,,,,,,,,,,,,,,,,,,,,,,,,,,,,,,,,,,,
,,,,,,,,,5f8f0ae15fe9e60fbbbaead9,Spanish,13 or older,"no, only English or Spanish",no,2025-07-24_08h12.45.801,empathy_intonation_perc_control,2024.2.4,Win32,59.88023952,5f8f0ae15fe9e60fbbbaead9,68817205a84113384fffdfe3,68824cf0f8ecd9f50486c8f7,,,,,,,,,,,,./stim/wavs/puertorican_mismatch_interrogative-total-yn_La-nina-lava-el-plato.wav,1,,,189.5398,192.0888,0,0,2.0269,,0,8,8,42,1,43,1,puertorican,,,,,,,,,,,,,,,,,,,,,,,,,,,,,,,,,,,,,,,,,,,,,,,,,,,,,,,,
,,,,,,,,,5f8f0ae15fe9e60fbbbaead9,Spanish,13 or older,"no, only English or Spanish",no,2025-07-24_08h12.45.801,empathy_intonation_perc_control,2024.2.4,Win32,59.88023952,5f8f0ae15fe9e60fbbbaead9,68817205a84113384fffdfe3,68824cf0f8ecd9f50486c8f7,,,,,,,,,,,,./stim/wavs/mexican_mismatch_interrogative-total-yn_El-nino-oye-el-rio.wav,1,,,192.0893,194.805,1,1,2.1883,,0,9,9,35,1,36,0,mexican,,,,,,,,,,,,,,,,,,,,,,,,,,,,,,,,,,,,,,,,,,,,,,,,,,,,,,,,
,,,,,,,,,5f8f0ae15fe9e60fbbbaead9,Spanish,13 or older,"no, only English or Spanish",no,2025-07-24_08h12.45.801,empathy_intonation_perc_control,2024.2.4,Win32,59.88023952,5f8f0ae15fe9e60fbbbaead9,68817205a84113384fffdfe3,68824cf0f8ecd9f50486c8f7,,,,,,,,,,,,./stim/wavs/puertorican_mismatch_interrogative-total-yn_El-nino-oye-el-rio.wav,1,,,194.8057,197.5378,0,0,2.1995,,0,10,10,40,1,41,1,puertorican,,,,,,,,,,,,,,,,,,,,,,,,,,,,,,,,,,,,,,,,,,,,,,,,,,,,,,,,
,,,,,,,,,5f8f0ae15fe9e60fbbbaead9,Spanish,13 or older,"no, only English or Spanish",no,2025-07-24_08h12.45.801,empathy_intonation_perc_control,2024.2.4,Win32,59.88023952,5f8f0ae15fe9e60fbbbaead9,68817205a84113384fffdfe3,68824cf0f8ecd9f50486c8f7,,,,,,,,,,,,./stim/wavs/castilian_match_declarative-broad-focus_Maria-bebe-el-vino.wav,0,,,197.5388,200.8704,1,0,2.8027,,0,11,11,47,1,48,0,castilian,,,,,,,,,,,,,,,,,,,,,,,,,,,,,,,,,,,,,,,,,,,,,,,,,,,,,,,,
,,,,,,,,,5f8f0ae15fe9e60fbbbaead9,Spanish,13 or older,"no, only English or Spanish",no,2025-07-24_08h12.45.801,empathy_intonation_perc_control,2024.2.4,Win32,59.88023952,5f8f0ae15fe9e60fbbbaead9,68817205a84113384fffdfe3,68824cf0f8ecd9f50486c8f7,,,,,,,,,,,,./stim/wavs/cuban_match_interrogative-total-yn_Ana-lleva-el-abrigo.wav,1,,,200.8712,204.3696,1,1,2.9775,,0,12,12,6,1,7,1,cuban,,,,,,,,,,,,,,,,,,,,,,,,,,,,,,,,,,,,,,,,,,,,,,,,,,,,,,,,
,,,,,,,,,5f8f0ae15fe9e60fbbbaead9,Spanish,13 or older,"no, only English or Spanish",no,2025-07-24_08h12.45.801,empathy_intonation_perc_control,2024.2.4,Win32,59.88023952,5f8f0ae15fe9e60fbbbaead9,68817205a84113384fffdfe3,68824cf0f8ecd9f50486c8f7,,,,,,,,,,,,./stim/wavs/mexican_match_interrogative-total-yn_David-leia-el-libro.wav,1,,,204.3702,206.736,1,1,1.8339,,0,13,13,14,1,15,0,mexican,,,,,,,,,,,,,,,,,,,,,,,,,,,,,,,,,,,,,,,,,,,,,,,,,,,,,,,,
,,,,,,,,,5f8f0ae15fe9e60fbbbaead9,Spanish,13 or older,"no, only English or Spanish",no,2025-07-24_08h12.45.801,empathy_intonation_perc_control,2024.2.4,Win32,59.88023952,5f8f0ae15fe9e60fbbbaead9,68817205a84113384fffdfe3,68824cf0f8ecd9f50486c8f7,,,,,,,,,,,,./stim/wavs/cuban_match_interrogative-total-yn_Marta-abre-el-regalo.wav,1,,,206.7366,209.6355,0,0,2.3676,,0,14,14,11,1,12,1,cuban,,,,,,,,,,,,,,,,,,,,,,,,,,,,,,,,,,,,,,,,,,,,,,,,,,,,,,,,
,,,,,,,,,5f8f0ae15fe9e60fbbbaead9,Spanish,13 or older,"no, only English or Spanish",no,2025-07-24_08h12.45.801,empathy_intonation_perc_control,2024.2.4,Win32,59.88023952,5f8f0ae15fe9e60fbbbaead9,68817205a84113384fffdfe3,68824cf0f8ecd9f50486c8f7,,,,,,,,,,,,./stim/wavs/castilian_mismatch_declarative-broad-focus_La-maestra-vive-en-Paris.wav,0,,,209.636,212.8054,0,1,2.6491,,0,15,15,69,1,70,0,castilian,,,,,,,,,,,,,,,,,,,,,,,,,,,,,,,,,,,,,,,,,,,,,,,,,,,,,,,,
,,,,,,,,,5f8f0ae15fe9e60fbbbaead9,Spanish,13 or older,"no, only English or Spanish",no,2025-07-24_08h12.45.801,empathy_intonation_perc_control,2024.2.4,Win32,59.88023952,5f8f0ae15fe9e60fbbbaead9,68817205a84113384fffdfe3,68824cf0f8ecd9f50486c8f7,,,,,,,,,,,,./stim/wavs/puertorican_match_declarative-broad-focus_Daniel-iba-a-Bolivia.wav,0,,,212.8062,215.0676,0,1,1.7417,,0,16,16,63,1,64,0,puertorican,,,,,,,,,,,,,,,,,,,,,,,,,,,,,,,,,,,,,,,,,,,,,,,,,,,,,,,,
,,,,,,,,,5f8f0ae15fe9e60fbbbaead9,Spanish,13 or older,"no, only English or Spanish",no,2025-07-24_08h12.45.801,empathy_intonation_perc_control,2024.2.4,Win32,59.88023952,5f8f0ae15fe9e60fbbbaead9,68817205a84113384fffdfe3,68824cf0f8ecd9f50486c8f7,,,,,,,,,,,,./stim/wavs/castilian_mismatch_declarative-broad-focus_El-nino-oye-el-rio.wav,0,,,215.0686,217.8712,0,1,2.2668,,0,17,17,68,1,69,0,castilian,,,,,,,,,,,,,,,,,,,,,,,,,,,,,,,,,,,,,,,,,,,,,,,,,,,,,,,,
,,,,,,,,,5f8f0ae15fe9e60fbbbaead9,Spanish,13 or older,"no, only English or Spanish",no,2025-07-24_08h12.45.801,empathy_intonation_perc_control,2024.2.4,Win32,59.88023952,5f8f0ae15fe9e60fbbbaead9,68817205a84113384fffdfe3,68824cf0f8ecd9f50486c8f7,,,,,,,,,,,,./stim/wavs/castilian_match_interrogative-total-yn_Emilio-ama-la-marcha.wav,1,,,217.8717,220.3035,1,1,1.8999,,0,18,18,1,1,2,0,castilian,,,,,,,,,,,,,,,,,,,,,,,,,,,,,,,,,,,,,,,,,,,,,,,,,,,,,,,,
,,,,,,,,,5f8f0ae15fe9e60fbbbaead9,Spanish,13 or older,"no, only English or Spanish",no,2025-07-24_08h12.45.801,empathy_intonation_perc_control,2024.2.4,Win32,59.88023952,5f8f0ae15fe9e60fbbbaead9,68817205a84113384fffdfe3,68824cf0f8ecd9f50486c8f7,,,,,,,,,,,,./stim/wavs/cuban_mismatch_interrogative-total-yn_El-nino-oye-el-rio.wav,1,,,220.3042,223.4864,0,0,2.6627,,0,19,19,30,1,31,1,cuban,,,,,,,,,,,,,,,,,,,,,,,,,,,,,,,,,,,,,,,,,,,,,,,,,,,,,,,,
,,,,,,,,,5f8f0ae15fe9e60fbbbaead9,Spanish,13 or older,"no, only English or Spanish",no,2025-07-24_08h12.45.801,empathy_intonation_perc_control,2024.2.4,Win32,59.88023952,5f8f0ae15fe9e60fbbbaead9,68817205a84113384fffdfe3,68824cf0f8ecd9f50486c8f7,,,,,,,,,,,,./stim/wavs/mexican_mismatch_interrogative-total-yn_Mi-tia-odia-la-lluvia.wav,1,,,223.4869,225.7323,1,1,1.7077,,0,20,20,38,1,39,0,mexican,,,,,,,,,,,,,,,,,,,,,,,,,,,,,,,,,,,,,,,,,,,,,,,,,,,,,,,,
,,,,,,,,,5f8f0ae15fe9e60fbbbaead9,Spanish,13 or older,"no, only English or Spanish",no,2025-07-24_08h12.45.801,empathy_intonation_perc_control,2024.2.4,Win32,59.88023952,5f8f0ae15fe9e60fbbbaead9,68817205a84113384fffdfe3,68824cf0f8ecd9f50486c8f7,,,,,,,,,,,,./stim/wavs/castilian_match_declarative-broad-focus_Mariano-habla-del-tiempo.wav,0,,,225.7328,228.3983,0,1,2.1396,,0,21,21,48,1,49,0,castilian,,,,,,,,,,,,,,,,,,,,,,,,,,,,,,,,,,,,,,,,,,,,,,,,,,,,,,,,
,,,,,,,,,5f8f0ae15fe9e60fbbbaead9,Spanish,13 or older,"no, only English or Spanish",no,2025-07-24_08h12.45.801,empathy_intonation_perc_control,2024.2.4,Win32,59.88023952,5f8f0ae15fe9e60fbbbaead9,68817205a84113384fffdfe3,68824cf0f8ecd9f50486c8f7,,,,,,,,,,,,./stim/wavs/castilian_mismatch_declarative-broad-focus_Mi-novio-viene-del-lago.wav,0,,,228.3988,231.0313,1,0,2.1046,,0,22,22,71,1,72,0,castilian,,,,,,,,,,,,,,,,,,,,,,,,,,,,,,,,,,,,,,,,,,,,,,,,,,,,,,,,
,,,,,,,,,5f8f0ae15fe9e60fbbbaead9,Spanish,13 or older,"no, only English or Spanish",no,2025-07-24_08h12.45.801,empathy_intonation_perc_control,2024.2.4,Win32,59.88023952,5f8f0ae15fe9e60fbbbaead9,68817205a84113384fffdfe3,68824cf0f8ecd9f50486c8f7,,,,,,,,,,,,./stim/wavs/puertorican_match_interrogative-total-yn_Manuela-vende-el-carro.wav,1,,,231.0318,233.3974,0,0,1.8452,,0,23,23,22,1,23,1,puertorican,,,,,,,,,,,,,,,,,,,,,,,,,,,,,,,,,,,,,,,,,,,,,,,,,,,,,,,,
,,,,,,,,,5f8f0ae15fe9e60fbbbaead9,Spanish,13 or older,"no, only English or Spanish",no,2025-07-24_08h12.45.801,empathy_intonation_perc_control,2024.2.4,Win32,59.88023952,5f8f0ae15fe9e60fbbbaead9,68817205a84113384fffdfe3,68824cf0f8ecd9f50486c8f7,,,,,,,,,,,,./stim/wavs/mexican_match_declarative-broad-focus_David-leia-el-libro.wav,0,,,233.3981,236.7135,0,1,2.7881,,0,24,24,58,1,59,0,mexican,,,,,,,,,,,,,,,,,,,,,,,,,,,,,,,,,,,,,,,,,,,,,,,,,,,,,,,,
,,,,,,,,,5f8f0ae15fe9e60fbbbaead9,Spanish,13 or older,"no, only English or Spanish",no,2025-07-24_08h12.45.801,empathy_intonation_perc_control,2024.2.4,Win32,59.88023952,5f8f0ae15fe9e60fbbbaead9,68817205a84113384fffdfe3,68824cf0f8ecd9f50486c8f7,,,,,,,,,,,,./stim/wavs/mexican_mismatch_declarative-broad-focus_Mi-tia-odia-la-lluvia.wav,0,,,236.7142,240.896,0,1,3.6594,,0,25,25,82,1,83,0,mexican,,,,,,,,,,,,,,,,,,,,,,,,,,,,,,,,,,,,,,,,,,,,,,,,,,,,,,,,
,,,,,,,,,5f8f0ae15fe9e60fbbbaead9,Spanish,13 or older,"no, only English or Spanish",no,2025-07-24_08h12.45.801,empathy_intonation_perc_control,2024.2.4,Win32,59.88023952,5f8f0ae15fe9e60fbbbaead9,68817205a84113384fffdfe3,68824cf0f8ecd9f50486c8f7,,,,,,,,,,,,./stim/wavs/mexican_mismatch_interrogative-total-yn_La-maestra-vive-en-Paris.wav,1,,,240.8968,246.8474,0,0,5.43,,0,26,26,36,1,37,0,mexican,,,,,,,,,,,,,,,,,,,,,,,,,,,,,,,,,,,,,,,,,,,,,,,,,,,,,,,,
,,,,,,,,,5f8f0ae15fe9e60fbbbaead9,Spanish,13 or older,"no, only English or Spanish",no,2025-07-24_08h12.45.801,empathy_intonation_perc_control,2024.2.4,Win32,59.88023952,5f8f0ae15fe9e60fbbbaead9,68817205a84113384fffdfe3,68824cf0f8ecd9f50486c8f7,,,,,,,,,,,,./stim/wavs/mexican_match_interrogative-total-yn_Marta-abre-el-regalo.wav,1,,,246.848,249.4776,1,1,2.1041,,0,27,27,17,1,18,0,mexican,,,,,,,,,,,,,,,,,,,,,,,,,,,,,,,,,,,,,,,,,,,,,,,,,,,,,,,,
,,,,,,,,,5f8f0ae15fe9e60fbbbaead9,Spanish,13 or older,"no, only English or Spanish",no,2025-07-24_08h12.45.801,empathy_intonation_perc_control,2024.2.4,Win32,59.88023952,5f8f0ae15fe9e60fbbbaead9,68817205a84113384fffdfe3,68824cf0f8ecd9f50486c8f7,,,,,,,,,,,,./stim/wavs/mexican_match_declarative-broad-focus_Mariano-habla-del-tiempo.wav,0,,,249.4786,251.7975,0,1,1.8128,,0,28,28,60,1,61,0,mexican,,,,,,,,,,,,,,,,,,,,,,,,,,,,,,,,,,,,,,,,,,,,,,,,,,,,,,,,
,,,,,,,,,5f8f0ae15fe9e60fbbbaead9,Spanish,13 or older,"no, only English or Spanish",no,2025-07-24_08h12.45.801,empathy_intonation_perc_control,2024.2.4,Win32,59.88023952,5f8f0ae15fe9e60fbbbaead9,68817205a84113384fffdfe3,68824cf0f8ecd9f50486c8f7,,,,,,,,,,,,./stim/wavs/puertorican_mismatch_declarative-broad-focus_La-nina-lava-el-plato.wav,0,,,251.7979,254.1303,0,1,1.8001,,0,29,29,87,1,88,0,puertorican,,,,,,,,,,,,,,,,,,,,,,,,,,,,,,,,,,,,,,,,,,,,,,,,,,,,,,,,
,,,,,,,,,5f8f0ae15fe9e60fbbbaead9,Spanish,13 or older,"no, only English or Spanish",no,2025-07-24_08h12.45.801,empathy_intonation_perc_control,2024.2.4,Win32,59.88023952,5f8f0ae15fe9e60fbbbaead9,68817205a84113384fffdfe3,68824cf0f8ecd9f50486c8f7,,,,,,,,,,,,./stim/wavs/puertorican_match_declarative-broad-focus_David-leia-el-libro.wav,0,,,254.1308,257.4967,1,0,2.846,,0,30,30,64,1,65,0,puertorican,,,,,,,,,,,,,,,,,,,,,,,,,,,,,,,,,,,,,,,,,,,,,,,,,,,,,,,,
,,,,,,,,,5f8f0ae15fe9e60fbbbaead9,Spanish,13 or older,"no, only English or Spanish",no,2025-07-24_08h12.45.801,empathy_intonation_perc_control,2024.2.4,Win32,59.88023952,5f8f0ae15fe9e60fbbbaead9,68817205a84113384fffdfe3,68824cf0f8ecd9f50486c8f7,,,,,,,,,,,,./stim/wavs/puertorican_match_declarative-broad-focus_Maria-bebe-el-vino.wav,0,,,257.4973,259.5924,1,0,1.5579,,0,31,31,67,1,68,0,puertorican,,,,,,,,,,,,,,,,,,,,,,,,,,,,,,,,,,,,,,,,,,,,,,,,,,,,,,,,
,,,,,,,,,5f8f0ae15fe9e60fbbbaead9,Spanish,13 or older,"no, only English or Spanish",no,2025-07-24_08h12.45.801,empathy_intonation_perc_control,2024.2.4,Win32,59.88023952,5f8f0ae15fe9e60fbbbaead9,68817205a84113384fffdfe3,68824cf0f8ecd9f50486c8f7,,,,,,,,,,,,./stim/wavs/puertorican_match_interrogative-total-yn_David-leia-el-libro.wav,1,,,259.5936,262.529,0,0,2.4305,,0,32,32,20,1,21,1,puertorican,,,,,,,,,,,,,,,,,,,,,,,,,,,,,,,,,,,,,,,,,,,,,,,,,,,,,,,,
,,,,,,,,,5f8f0ae15fe9e60fbbbaead9,Spanish,13 or older,"no, only English or Spanish",no,2025-07-24_08h12.45.801,empathy_intonation_perc_control,2024.2.4,Win32,59.88023952,5f8f0ae15fe9e60fbbbaead9,68817205a84113384fffdfe3,68824cf0f8ecd9f50486c8f7,,,,,,,,,,,,./stim/wavs/mexican_mismatch_declarative-broad-focus_El-hombre-mira-la-luna.wav,0,,,262.5294,265.6284,0,1,2.5798,,0,33,33,79,1,80,0,mexican,,,,,,,,,,,,,,,,,,,,,,,,,,,,,,,,,,,,,,,,,,,,,,,,,,,,,,,,
,,,,,,,,,5f8f0ae15fe9e60fbbbaead9,Spanish,13 or older,"no, only English or Spanish",no,2025-07-24_08h12.45.801,empathy_intonation_perc_control,2024.2.4,Win32,59.88023952,5f8f0ae15fe9e60fbbbaead9,68817205a84113384fffdfe3,68824cf0f8ecd9f50486c8f7,,,,,,,,,,,,./stim/wavs/puertorican_mismatch_interrogative-total-yn_La-maestra-vive-en-Paris.wav,1,,,265.6289,268.6743,0,0,2.5197,,0,34,34,41,1,42,1,puertorican,,,,,,,,,,,,,,,,,,,,,,,,,,,,,,,,,,,,,,,,,,,,,,,,,,,,,,,,
,,,,,,,,,5f8f0ae15fe9e60fbbbaead9,Spanish,13 or older,"no, only English or Spanish",no,2025-07-24_08h12.45.801,empathy_intonation_perc_control,2024.2.4,Win32,59.88023952,5f8f0ae15fe9e60fbbbaead9,68817205a84113384fffdfe3,68824cf0f8ecd9f50486c8f7,,,,,,,,,,,,./stim/wavs/cuban_mismatch_declarative-broad-focus_La-nina-lava-el-plato.wav,0,,,268.6752,272.5106,0,1,3.3311,,0,35,35,75,1,76,0,cuban,,,,,,,,,,,,,,,,,,,,,,,,,,,,,,,,,,,,,,,,,,,,,,,,,,,,,,,,
,,,,,,,,,5f8f0ae15fe9e60fbbbaead9,Spanish,13 or older,"no, only English or Spanish",no,2025-07-24_08h12.45.801,empathy_intonation_perc_control,2024.2.4,Win32,59.88023952,5f8f0ae15fe9e60fbbbaead9,68817205a84113384fffdfe3,68824cf0f8ecd9f50486c8f7,,,,,,,,,,,,./stim/wavs/cuban_mismatch_declarative-broad-focus_Mi-novio-viene-del-lago.wav,0,,,272.5114,275.3097,0,1,2.2825,,0,36,36,76,1,77,0,cuban,,,,,,,,,,,,,,,,,,,,,,,,,,,,,,,,,,,,,,,,,,,,,,,,,,,,,,,,
,,,,,,,,,5f8f0ae15fe9e60fbbbaead9,Spanish,13 or older,"no, only English or Spanish",no,2025-07-24_08h12.45.801,empathy_intonation_perc_control,2024.2.4,Win32,59.88023952,5f8f0ae15fe9e60fbbbaead9,68817205a84113384fffdfe3,68824cf0f8ecd9f50486c8f7,,,,,,,,,,,,./stim/wavs/cuban_mismatch_declarative-broad-focus_El-hombre-mira-la-luna.wav,0,,,275.3103,278.059,0,1,2.2162,,0,37,37,74,1,75,0,cuban,,,,,,,,,,,,,,,,,,,,,,,,,,,,,,,,,,,,,,,,,,,,,,,,,,,,,,,,
,,,,,,,,,5f8f0ae15fe9e60fbbbaead9,Spanish,13 or older,"no, only English or Spanish",no,2025-07-24_08h12.45.801,empathy_intonation_perc_control,2024.2.4,Win32,59.88023952,5f8f0ae15fe9e60fbbbaead9,68817205a84113384fffdfe3,68824cf0f8ecd9f50486c8f7,,,,,,,,,,,,./stim/wavs/cuban_match_declarative-broad-focus_Ana-lleva-el-abrigo.wav,0,,,278.0594,281.2073,0,1,2.6159,,0,38,38,50,1,51,0,cuban,,,,,,,,,,,,,,,,,,,,,,,,,,,,,,,,,,,,,,,,,,,,,,,,,,,,,,,,
,,,,,,,,,5f8f0ae15fe9e60fbbbaead9,Spanish,13 or older,"no, only English or Spanish",no,2025-07-24_08h12.45.801,empathy_intonation_perc_control,2024.2.4,Win32,59.88023952,5f8f0ae15fe9e60fbbbaead9,68817205a84113384fffdfe3,68824cf0f8ecd9f50486c8f7,,,,,,,,,,,,./stim/wavs/castilian_mismatch_interrogative-total-yn_Mi-madre-come-la-fruta.wav,1,,,281.2079,283.6585,1,1,1.9467,,0,39,39,26,1,27,0,castilian,,,,,,,,,,,,,,,,,,,,,,,,,,,,,,,,,,,,,,,,,,,,,,,,,,,,,,,,
,,,,,,,,,5f8f0ae15fe9e60fbbbaead9,Spanish,13 or older,"no, only English or Spanish",no,2025-07-24_08h12.45.801,empathy_intonation_perc_control,2024.2.4,Win32,59.88023952,5f8f0ae15fe9e60fbbbaead9,68817205a84113384fffdfe3,68824cf0f8ecd9f50486c8f7,,,,,,,,,,,,./stim/wavs/puertorican_mismatch_declarative-broad-focus_El-bebe-comia-muy-bien.wav,0,,,283.6588,286.6076,0,1,2.4295,,0,40,40,83,1,84,0,puertorican,,,,,,,,,,,,,,,,,,,,,,,,,,,,,,,,,,,,,,,,,,,,,,,,,,,,,,,,
,,,,,,,,,5f8f0ae15fe9e60fbbbaead9,Spanish,13 or older,"no, only English or Spanish",no,2025-07-24_08h12.45.801,empathy_intonation_perc_control,2024.2.4,Win32,59.88023952,5f8f0ae15fe9e60fbbbaead9,68817205a84113384fffdfe3,68824cf0f8ecd9f50486c8f7,,,,,,,,,,,,./stim/wavs/cuban_mismatch_interrogative-total-yn_Mi-tia-odia-la-lluvia.wav,1,,,286.608,288.8074,1,1,1.683,,0,41,41,33,1,34,1,cuban,,,,,,,,,,,,,,,,,,,,,,,,,,,,,,,,,,,,,,,,,,,,,,,,,,,,,,,,
,,,,,,,,,5f8f0ae15fe9e60fbbbaead9,Spanish,13 or older,"no, only English or Spanish",no,2025-07-24_08h12.45.801,empathy_intonation_perc_control,2024.2.4,Win32,59.88023952,5f8f0ae15fe9e60fbbbaead9,68817205a84113384fffdfe3,68824cf0f8ecd9f50486c8f7,,,,,,,,,,,,./stim/wavs/cuban_mismatch_declarative-broad-focus_Mi-tia-odia-la-lluvia.wav,0,,,288.8078,291.37,0,1,2.0333,,0,42,42,77,1,78,0,cuban,,,,,,,,,,,,,,,,,,,,,,,,,,,,,,,,,,,,,,,,,,,,,,,,,,,,,,,,
,,,,,,,,,5f8f0ae15fe9e60fbbbaead9,Spanish,13 or older,"no, only English or Spanish",no,2025-07-24_08h12.45.801,empathy_intonation_perc_control,2024.2.4,Win32,59.88023952,5f8f0ae15fe9e60fbbbaead9,68817205a84113384fffdfe3,68824cf0f8ecd9f50486c8f7,,,,,,,,,,,,./stim/wavs/cuban_match_declarative-broad-focus_Marta-abre-el-regalo.wav,0,,,291.3716,295.4724,0,1,3.5962,,0,43,43,55,1,56,0,cuban,,,,,,,,,,,,,,,,,,,,,,,,,,,,,,,,,,,,,,,,,,,,,,,,,,,,,,,,
,,,,,,,,,5f8f0ae15fe9e60fbbbaead9,Spanish,13 or older,"no, only English or Spanish",no,2025-07-24_08h12.45.801,empathy_intonation_perc_control,2024.2.4,Win32,59.88023952,5f8f0ae15fe9e60fbbbaead9,68817205a84113384fffdfe3,68824cf0f8ecd9f50486c8f7,,,,,,,,,,,,./stim/wavs/cuban_match_declarative-broad-focus_Maria-bebe-el-vino.wav,0,,,295.473,299.5229,0,1,3.5325,,0,44,44,53,1,54,0,cuban,,,,,,,,,,,,,,,,,,,,,,,,,,,,,,,,,,,,,,,,,,,,,,,,,,,,,,,,
,,,,,,,,,5f8f0ae15fe9e60fbbbaead9,Spanish,13 or older,"no, only English or Spanish",no,2025-07-24_08h12.45.801,empathy_intonation_perc_control,2024.2.4,Win32,59.88023952,5f8f0ae15fe9e60fbbbaead9,68817205a84113384fffdfe3,68824cf0f8ecd9f50486c8f7,,,,,,,,,,,,./stim/wavs/mexican_mismatch_interrogative-total-yn_Mi-novio-viene-del-lago.wav,1,,,299.524,304.6169,1,1,4.5561,,0,45,45,37,1,38,0,mexican,,,,,,,,,,,,,,,,,,,,,,,,,,,,,,,,,,,,,,,,,,,,,,,,,,,,,,,,
,,,,,,,,,5f8f0ae15fe9e60fbbbaead9,Spanish,13 or older,"no, only English or Spanish",no,2025-07-24_08h12.45.801,empathy_intonation_perc_control,2024.2.4,Win32,59.88023952,5f8f0ae15fe9e60fbbbaead9,68817205a84113384fffdfe3,68824cf0f8ecd9f50486c8f7,,,,,,,,,,,,./stim/wavs/cuban_mismatch_declarative-broad-focus_El-bebe-comia-muy-bien.wav,0,,,304.6178,308.5696,1,0,3.4164,,0,46,46,73,1,74,0,cuban,,,,,,,,,,,,,,,,,,,,,,,,,,,,,,,,,,,,,,,,,,,,,,,,,,,,,,,,
,,,,,,,,,5f8f0ae15fe9e60fbbbaead9,Spanish,13 or older,"no, only English or Spanish",no,2025-07-24_08h12.45.801,empathy_intonation_perc_control,2024.2.4,Win32,59.88023952,5f8f0ae15fe9e60fbbbaead9,68817205a84113384fffdfe3,68824cf0f8ecd9f50486c8f7,,,,,,,,,,,,./stim/wavs/castilian_match_declarative-broad-focus_Marta-abre-el-regalo.wav,0,,,308.5702,311.3691,0,1,2.2824,,0,47,47,49,1,50,0,castilian,,,,,,,,,,,,,,,,,,,,,,,,,,,,,,,,,,,,,,,,,,,,,,,,,,,,,,,,
,,,,,,,,,5f8f0ae15fe9e60fbbbaead9,Spanish,13 or older,"no, only English or Spanish",no,2025-07-24_08h12.45.801,empathy_intonation_perc_control,2024.2.4,Win32,59.88023952,5f8f0ae15fe9e60fbbbaead9,68817205a84113384fffdfe3,68824cf0f8ecd9f50486c8f7,,,,,,,,,,,,./stim/wavs/castilian_match_declarative-broad-focus_David-leia-el-libro.wav,0,,,311.3696,314.3818,0,1,2.4753,,0,48,48,44,1,45,0,castilian,,,,,,,,,,,,,,,,,,,,,,,,,,,,,,,,,,,,,,,,,,,,,,,,,,,,,,,,
,,,,,,,,,5f8f0ae15fe9e60fbbbaead9,Spanish,13 or older,"no, only English or Spanish",no,2025-07-24_08h12.45.801,empathy_intonation_perc_control,2024.2.4,Win32,59.88023952,5f8f0ae15fe9e60fbbbaead9,68817205a84113384fffdfe3,68824cf0f8ecd9f50486c8f7,,,,,,,,,,,,./stim/wavs/cuban_match_interrogative-total-yn_Mariano-habla-del-tiempo.wav,1,,,314.3827,317.3814,1,1,2.454,,0,49,49,10,1,11,1,cuban,,,,,,,,,,,,,,,,,,,,,,,,,,,,,,,,,,,,,,,,,,,,,,,,,,,,,,,,
,,,,,,,,,5f8f0ae15fe9e60fbbbaead9,Spanish,13 or older,"no, only English or Spanish",no,2025-07-24_08h12.45.801,empathy_intonation_perc_control,2024.2.4,Win32,59.88023952,5f8f0ae15fe9e60fbbbaead9,68817205a84113384fffdfe3,68824cf0f8ecd9f50486c8f7,,,,,,,,,,,,./stim/wavs/puertorican_mismatch_interrogative-total-yn_Mi-madre-come-la-fruta.wav,1,,,317.3822,320.1169,0,0,2.1992,,0,50,50,43,1,44,1,puertorican,,,,,,,,,,,,,,,,,,,,,,,,,,,,,,,,,,,,,,,,,,,,,,,,,,,,,,,,
,,,,,,,,,5f8f0ae15fe9e60fbbbaead9,Spanish,13 or older,"no, only English or Spanish",no,2025-07-24_08h12.45.801,empathy_intonation_perc_control,2024.2.4,Win32,59.88023952,5f8f0ae15fe9e60fbbbaead9,68817205a84113384fffdfe3,68824cf0f8ecd9f50486c8f7,,,,,,,,,,,,./stim/wavs/castilian_match_interrogative-total-yn_Maria-bebe-el-vino.wav,1,,,320.1175,322.2509,1,1,1.6137,,0,51,51,3,1,4,0,castilian,,,,,,,,,,,,,,,,,,,,,,,,,,,,,,,,,,,,,,,,,,,,,,,,,,,,,,,,
,,,,,,,,,5f8f0ae15fe9e60fbbbaead9,Spanish,13 or older,"no, only English or Spanish",no,2025-07-24_08h12.45.801,empathy_intonation_perc_control,2024.2.4,Win32,59.88023952,5f8f0ae15fe9e60fbbbaead9,68817205a84113384fffdfe3,68824cf0f8ecd9f50486c8f7,,,,,,,,,,,,./stim/wavs/puertorican_match_declarative-broad-focus_Emilio-ama-la-marcha.wav,0,,,322.2514,324.5506,0,1,1.7668,,0,52,52,65,1,66,0,puertorican,,,,,,,,,,,,,,,,,,,,,,,,,,,,,,,,,,,,,,,,,,,,,,,,,,,,,,,,
,,,,,,,,,5f8f0ae15fe9e60fbbbaead9,Spanish,13 or older,"no, only English or Spanish",no,2025-07-24_08h12.45.801,empathy_intonation_perc_control,2024.2.4,Win32,59.88023952,5f8f0ae15fe9e60fbbbaead9,68817205a84113384fffdfe3,68824cf0f8ecd9f50486c8f7,,,,,,,,,,,,./stim/wavs/cuban_mismatch_interrogative-total-yn_Mi-madre-come-la-fruta.wav,1,,,324.5512,328.5822,0,0,3.4991,,0,53,53,31,1,32,1,cuban,,,,,,,,,,,,,,,,,,,,,,,,,,,,,,,,,,,,,,,,,,,,,,,,,,,,,,,,
,,,,,,,,,5f8f0ae15fe9e60fbbbaead9,Spanish,13 or older,"no, only English or Spanish",no,2025-07-24_08h12.45.801,empathy_intonation_perc_control,2024.2.4,Win32,59.88023952,5f8f0ae15fe9e60fbbbaead9,68817205a84113384fffdfe3,68824cf0f8ecd9f50486c8f7,,,,,,,,,,,,./stim/wavs/cuban_mismatch_interrogative-total-yn_El-hombre-mira-la-luna.wav,1,,,328.5827,331.0284,1,1,1.9266,,0,54,54,29,1,30,1,cuban,,,,,,,,,,,,,,,,,,,,,,,,,,,,,,,,,,,,,,,,,,,,,,,,,,,,,,,,
,,,,,,,,,5f8f0ae15fe9e60fbbbaead9,Spanish,13 or older,"no, only English or Spanish",no,2025-07-24_08h12.45.801,empathy_intonation_perc_control,2024.2.4,Win32,59.88023952,5f8f0ae15fe9e60fbbbaead9,68817205a84113384fffdfe3,68824cf0f8ecd9f50486c8f7,,,,,,,,,,,,./stim/wavs/mexican_match_interrogative-total-yn_Emilio-ama-la-marcha.wav,1,,,331.0295,334.1647,1,1,2.6163,,0,55,55,15,1,16,0,mexican,,,,,,,,,,,,,,,,,,,,,,,,,,,,,,,,,,,,,,,,,,,,,,,,,,,,,,,,
,,,,,,,,,5f8f0ae15fe9e60fbbbaead9,Spanish,13 or older,"no, only English or Spanish",no,2025-07-24_08h12.45.801,empathy_intonation_perc_control,2024.2.4,Win32,59.88023952,5f8f0ae15fe9e60fbbbaead9,68817205a84113384fffdfe3,68824cf0f8ecd9f50486c8f7,,,,,,,,,,,,./stim/wavs/cuban_match_interrogative-total-yn_Maria-bebe-el-vino.wav,1,,,334.1651,337.0607,1,1,2.3568,,0,56,56,9,1,10,1,cuban,,,,,,,,,,,,,,,,,,,,,,,,,,,,,,,,,,,,,,,,,,,,,,,,,,,,,,,,
,,,,,,,,,5f8f0ae15fe9e60fbbbaead9,Spanish,13 or older,"no, only English or Spanish",no,2025-07-24_08h12.45.801,empathy_intonation_perc_control,2024.2.4,Win32,59.88023952,5f8f0ae15fe9e60fbbbaead9,68817205a84113384fffdfe3,68824cf0f8ecd9f50486c8f7,,,,,,,,,,,,./stim/wavs/puertorican_match_interrogative-total-yn_Emilio-ama-la-marcha.wav,1,,,337.0616,340.0605,0,0,2.47,,0,57,57,21,1,22,1,puertorican,,,,,,,,,,,,,,,,,,,,,,,,,,,,,,,,,,,,,,,,,,,,,,,,,,,,,,,,
,,,,,,,,,5f8f0ae15fe9e60fbbbaead9,Spanish,13 or older,"no, only English or Spanish",no,2025-07-24_08h12.45.801,empathy_intonation_perc_control,2024.2.4,Win32,59.88023952,5f8f0ae15fe9e60fbbbaead9,68817205a84113384fffdfe3,68824cf0f8ecd9f50486c8f7,,,,,,,,,,,,./stim/wavs/mexican_match_interrogative-total-yn_Ana-lleva-el-abrigo.wav,1,,,340.0613,342.61,1,1,2.021,,0,58,58,12,1,13,0,mexican,,,,,,,,,,,,,,,,,,,,,,,,,,,,,,,,,,,,,,,,,,,,,,,,,,,,,,,,
,,,,,,,,,5f8f0ae15fe9e60fbbbaead9,Spanish,13 or older,"no, only English or Spanish",no,2025-07-24_08h12.45.801,empathy_intonation_perc_control,2024.2.4,Win32,59.88023952,5f8f0ae15fe9e60fbbbaead9,68817205a84113384fffdfe3,68824cf0f8ecd9f50486c8f7,,,,,,,,,,,,./stim/wavs/mexican_match_declarative-broad-focus_Daniel-iba-a-Bolivia.wav,0,,,342.6106,344.8925,0,1,1.7525,,0,59,59,57,1,58,0,mexican,,,,,,,,,,,,,,,,,,,,,,,,,,,,,,,,,,,,,,,,,,,,,,,,,,,,,,,,
,,,,,,,,,5f8f0ae15fe9e60fbbbaead9,Spanish,13 or older,"no, only English or Spanish",no,2025-07-24_08h12.45.801,empathy_intonation_perc_control,2024.2.4,Win32,59.88023952,5f8f0ae15fe9e60fbbbaead9,68817205a84113384fffdfe3,68824cf0f8ecd9f50486c8f7,,,,,,,,,,,,./stim/wavs/castilian_match_interrogative-total-yn_Manuela-vende-el-carro.wav,1,,,344.8933,347.3421,1,1,1.9333,,0,60,60,2,1,3,0,castilian,,,,,,,,,,,,,,,,,,,,,,,,,,,,,,,,,,,,,,,,,,,,,,,,,,,,,,,,
,,,,,,,,,5f8f0ae15fe9e60fbbbaead9,Spanish,13 or older,"no, only English or Spanish",no,2025-07-24_08h12.45.801,empathy_intonation_perc_control,2024.2.4,Win32,59.88023952,5f8f0ae15fe9e60fbbbaead9,68817205a84113384fffdfe3,68824cf0f8ecd9f50486c8f7,,,,,,,,,,,,./stim/wavs/castilian_mismatch_interrogative-total-yn_La-maestra-vive-en-Paris.wav,1,,,347.343,350.1119,1,1,2.2634,,0,61,61,24,1,25,0,castilian,,,,,,,,,,,,,,,,,,,,,,,,,,,,,,,,,,,,,,,,,,,,,,,,,,,,,,,,
,,,,,,,,,5f8f0ae15fe9e60fbbbaead9,Spanish,13 or older,"no, only English or Spanish",no,2025-07-24_08h12.45.801,empathy_intonation_perc_control,2024.2.4,Win32,59.88023952,5f8f0ae15fe9e60fbbbaead9,68817205a84113384fffdfe3,68824cf0f8ecd9f50486c8f7,,,,,,,,,,,,./stim/wavs/mexican_match_declarative-broad-focus_Emilio-ama-la-marcha.wav,0,,,350.1125,352.9116,0,1,2.2797,,0,62,62,59,1,60,0,mexican,,,,,,,,,,,,,,,,,,,,,,,,,,,,,,,,,,,,,,,,,,,,,,,,,,,,,,,,
,,,,,,,,,5f8f0ae15fe9e60fbbbaead9,Spanish,13 or older,"no, only English or Spanish",no,2025-07-24_08h12.45.801,empathy_intonation_perc_control,2024.2.4,Win32,59.88023952,5f8f0ae15fe9e60fbbbaead9,68817205a84113384fffdfe3,68824cf0f8ecd9f50486c8f7,,,,,,,,,,,,./stim/wavs/puertorican_mismatch_declarative-broad-focus_El-nino-oye-el-rio.wav,0,,,352.9121,355.7277,0,1,2.297,,0,63,63,85,1,86,0,puertorican,,,,,,,,,,,,,,,,,,,,,,,,,,,,,,,,,,,,,,,,,,,,,,,,,,,,,,,,
,,,,,,,,,5f8f0ae15fe9e60fbbbaead9,Spanish,13 or older,"no, only English or Spanish",no,2025-07-24_08h12.45.801,empathy_intonation_perc_control,2024.2.4,Win32,59.88023952,5f8f0ae15fe9e60fbbbaead9,68817205a84113384fffdfe3,68824cf0f8ecd9f50486c8f7,,,,,,,,,,,,./stim/wavs/mexican_match_interrogative-total-yn_Daniel-iba-a-Bolivia.wav,1,,,355.7283,357.9403,1,1,1.6714,,0,64,64,13,1,14,0,mexican,,,,,,,,,,,,,,,,,,,,,,,,,,,,,,,,,,,,,,,,,,,,,,,,,,,,,,,,
,,,,,,,,,5f8f0ae15fe9e60fbbbaead9,Spanish,13 or older,"no, only English or Spanish",no,2025-07-24_08h12.45.801,empathy_intonation_perc_control,2024.2.4,Win32,59.88023952,5f8f0ae15fe9e60fbbbaead9,68817205a84113384fffdfe3,68824cf0f8ecd9f50486c8f7,,,,,,,,,,,,./stim/wavs/cuban_match_declarative-broad-focus_Daniel-iba-a-Bolivia.wav,0,,,357.9414,360.7767,0,1,2.313,,0,65,65,51,1,52,0,cuban,,,,,,,,,,,,,,,,,,,,,,,,,,,,,,,,,,,,,,,,,,,,,,,,,,,,,,,,
,,,,,,,,,5f8f0ae15fe9e60fbbbaead9,Spanish,13 or older,"no, only English or Spanish",no,2025-07-24_08h12.45.801,empathy_intonation_perc_control,2024.2.4,Win32,59.88023952,5f8f0ae15fe9e60fbbbaead9,68817205a84113384fffdfe3,68824cf0f8ecd9f50486c8f7,,,,,,,,,,,,./stim/wavs/mexican_match_declarative-broad-focus_Ana-lleva-el-abrigo.wav,0,,,360.7773,364.2758,0,1,2.9668,,0,66,66,56,1,57,0,mexican,,,,,,,,,,,,,,,,,,,,,,,,,,,,,,,,,,,,,,,,,,,,,,,,,,,,,,,,
,,,,,,,,,5f8f0ae15fe9e60fbbbaead9,Spanish,13 or older,"no, only English or Spanish",no,2025-07-24_08h12.45.801,empathy_intonation_perc_control,2024.2.4,Win32,59.88023952,5f8f0ae15fe9e60fbbbaead9,68817205a84113384fffdfe3,68824cf0f8ecd9f50486c8f7,,,,,,,,,,,,./stim/wavs/mexican_mismatch_declarative-broad-focus_La-maestra-vive-en-Paris.wav,0,,,364.2763,367.4755,0,1,2.6797,,0,67,67,80,1,81,0,mexican,,,,,,,,,,,,,,,,,,,,,,,,,,,,,,,,,,,,,,,,,,,,,,,,,,,,,,,,
,,,,,,,,,5f8f0ae15fe9e60fbbbaead9,Spanish,13 or older,"no, only English or Spanish",no,2025-07-24_08h12.45.801,empathy_intonation_perc_control,2024.2.4,Win32,59.88023952,5f8f0ae15fe9e60fbbbaead9,68817205a84113384fffdfe3,68824cf0f8ecd9f50486c8f7,,,,,,,,,,,,./stim/wavs/puertorican_match_interrogative-total-yn_Maria-bebe-el-vino.wav,1,,,367.4761,370.1416,1,1,2.1464,,0,68,68,23,1,24,1,puertorican,,,,,,,,,,,,,,,,,,,,,,,,,,,,,,,,,,,,,,,,,,,,,,,,,,,,,,,,
,,,,,,,,,5f8f0ae15fe9e60fbbbaead9,Spanish,13 or older,"no, only English or Spanish",no,2025-07-24_08h12.45.801,empathy_intonation_perc_control,2024.2.4,Win32,59.88023952,5f8f0ae15fe9e60fbbbaead9,68817205a84113384fffdfe3,68824cf0f8ecd9f50486c8f7,,,,,,,,,,,,./stim/wavs/castilian_match_declarative-broad-focus_Emilio-ama-la-marcha.wav,0,,,370.1422,372.9903,0,1,2.3161,,0,69,69,45,1,46,0,castilian,,,,,,,,,,,,,,,,,,,,,,,,,,,,,,,,,,,,,,,,,,,,,,,,,,,,,,,,
,,,,,,,,,5f8f0ae15fe9e60fbbbaead9,Spanish,13 or older,"no, only English or Spanish",no,2025-07-24_08h12.45.801,empathy_intonation_perc_control,2024.2.4,Win32,59.88023952,5f8f0ae15fe9e60fbbbaead9,68817205a84113384fffdfe3,68824cf0f8ecd9f50486c8f7,,,,,,,,,,,,./stim/wavs/mexican_mismatch_declarative-broad-focus_Mi-novio-viene-del-lago.wav,0,,,372.9909,375.2563,0,1,1.7322,,0,70,70,81,1,82,0,mexican,,,,,,,,,,,,,,,,,,,,,,,,,,,,,,,,,,,,,,,,,,,,,,,,,,,,,,,,
,,,,,,,,,5f8f0ae15fe9e60fbbbaead9,Spanish,13 or older,"no, only English or Spanish",no,2025-07-24_08h12.45.801,empathy_intonation_perc_control,2024.2.4,Win32,59.88023952,5f8f0ae15fe9e60fbbbaead9,68817205a84113384fffdfe3,68824cf0f8ecd9f50486c8f7,,,,,,,,,,,,./stim/wavs/cuban_match_interrogative-total-yn_Daniel-iba-a-Bolivia.wav,1,,,375.2567,377.9892,1,1,2.2145,,0,71,71,7,1,8,1,cuban,,,,,,,,,,,,,,,,,,,,,,,,,,,,,,,,,,,,,,,,,,,,,,,,,,,,,,,,
,,,,,,,,,5f8f0ae15fe9e60fbbbaead9,Spanish,13 or older,"no, only English or Spanish",no,2025-07-24_08h12.45.801,empathy_intonation_perc_control,2024.2.4,Win32,59.88023952,5f8f0ae15fe9e60fbbbaead9,68817205a84113384fffdfe3,68824cf0f8ecd9f50486c8f7,,,,,,,,,,,,./stim/wavs/puertorican_match_interrogative-total-yn_Daniel-iba-a-Bolivia.wav,1,,,377.9897,380.0898,1,1,1.567,,0,72,72,19,1,20,1,puertorican,,,,,,,,,,,,,,,,,,,,,,,,,,,,,,,,,,,,,,,,,,,,,,,,,,,,,,,,
,,,,,,,,,5f8f0ae15fe9e60fbbbaead9,Spanish,13 or older,"no, only English or Spanish",no,2025-07-24_08h12.45.801,empathy_intonation_perc_control,2024.2.4,Win32,59.88023952,5f8f0ae15fe9e60fbbbaead9,68817205a84113384fffdfe3,68824cf0f8ecd9f50486c8f7,,,,,,,,,,,,./stim/wavs/mexican_match_interrogative-total-yn_Mariano-habla-del-tiempo.wav,1,,,380.0906,382.6561,1,1,2.0341,,0,73,73,16,1,17,0,mexican,,,,,,,,,,,,,,,,,,,,,,,,,,,,,,,,,,,,,,,,,,,,,,,,,,,,,,,,
,,,,,,,,,5f8f0ae15fe9e60fbbbaead9,Spanish,13 or older,"no, only English or Spanish",no,2025-07-24_08h12.45.801,empathy_intonation_perc_control,2024.2.4,Win32,59.88023952,5f8f0ae15fe9e60fbbbaead9,68817205a84113384fffdfe3,68824cf0f8ecd9f50486c8f7,,,,,,,,,,,,./stim/wavs/mexican_mismatch_interrogative-total-yn_El-hombre-mira-la-luna.wav,1,,,382.6565,384.8721,1,1,1.6966,,0,74,74,34,1,35,0,mexican,,,,,,,,,,,,,,,,,,,,,,,,,,,,,,,,,,,,,,,,,,,,,,,,,,,,,,,,
,,,,,,,,,5f8f0ae15fe9e60fbbbaead9,Spanish,13 or older,"no, only English or Spanish",no,2025-07-24_08h12.45.801,empathy_intonation_perc_control,2024.2.4,Win32,59.88023952,5f8f0ae15fe9e60fbbbaead9,68817205a84113384fffdfe3,68824cf0f8ecd9f50486c8f7,,,,,,,,,,,,./stim/wavs/castilian_mismatch_declarative-broad-focus_La-nina-lava-el-plato.wav,0,,,384.8727,387.7171,1,0,2.3165,,0,75,75,70,1,71,0,castilian,,,,,,,,,,,,,,,,,,,,,,,,,,,,,,,,,,,,,,,,,,,,,,,,,,,,,,,,
,,,,,,,,,5f8f0ae15fe9e60fbbbaead9,Spanish,13 or older,"no, only English or Spanish",no,2025-07-24_08h12.45.801,empathy_intonation_perc_control,2024.2.4,Win32,59.88023952,5f8f0ae15fe9e60fbbbaead9,68817205a84113384fffdfe3,68824cf0f8ecd9f50486c8f7,,,,,,,,,,,,./stim/wavs/castilian_match_interrogative-total-yn_David-leia-el-libro.wav,1,,,387.7181,390.0002,1,1,1.7557,,0,76,76,0,1,1,0,castilian,,,,,,,,,,,,,,,,,,,,,,,,,,,,,,,,,,,,,,,,,,,,,,,,,,,,,,,,
,,,,,,,,,5f8f0ae15fe9e60fbbbaead9,Spanish,13 or older,"no, only English or Spanish",no,2025-07-24_08h12.45.801,empathy_intonation_perc_control,2024.2.4,Win32,59.88023952,5f8f0ae15fe9e60fbbbaead9,68817205a84113384fffdfe3,68824cf0f8ecd9f50486c8f7,,,,,,,,,,,,./stim/wavs/puertorican_match_declarative-broad-focus_Ana-lleva-el-abrigo.wav,0,,,390.0012,392.2869,0,1,1.7675,,0,77,77,62,1,63,0,puertorican,,,,,,,,,,,,,,,,,,,,,,,,,,,,,,,,,,,,,,,,,,,,,,,,,,,,,,,,
,,,,,,,,,5f8f0ae15fe9e60fbbbaead9,Spanish,13 or older,"no, only English or Spanish",no,2025-07-24_08h12.45.801,empathy_intonation_perc_control,2024.2.4,Win32,59.88023952,5f8f0ae15fe9e60fbbbaead9,68817205a84113384fffdfe3,68824cf0f8ecd9f50486c8f7,,,,,,,,,,,,./stim/wavs/castilian_match_declarative-broad-focus_Manuela-vende-el-carro.wav,0,,,392.2873,395.049,0,1,2.222,,0,78,78,46,1,47,0,castilian,,,,,,,,,,,,,,,,,,,,,,,,,,,,,,,,,,,,,,,,,,,,,,,,,,,,,,,,
,,,,,,,,,5f8f0ae15fe9e60fbbbaead9,Spanish,13 or older,"no, only English or Spanish",no,2025-07-24_08h12.45.801,empathy_intonation_perc_control,2024.2.4,Win32,59.88023952,5f8f0ae15fe9e60fbbbaead9,68817205a84113384fffdfe3,68824cf0f8ecd9f50486c8f7,,,,,,,,,,,,./stim/wavs/castilian_mismatch_declarative-broad-focus_Mi-tia-odia-la-lluvia.wav,0,,,395.05,397.615,0,1,2.0422,,0,79,79,72,1,73,0,castilian,,,,,,,,,,,,,,,,,,,,,,,,,,,,,,,,,,,,,,,,,,,,,,,,,,,,,,,,
,,,,,,,,,5f8f0ae15fe9e60fbbbaead9,Spanish,13 or older,"no, only English or Spanish",no,2025-07-24_08h12.45.801,empathy_intonation_perc_control,2024.2.4,Win32,59.88023952,5f8f0ae15fe9e60fbbbaead9,68817205a84113384fffdfe3,68824cf0f8ecd9f50486c8f7,,,,,,,,,,,,./stim/wavs/puertorican_mismatch_declarative-broad-focus_La-maestra-vive-en-Paris.wav,0,,,397.6158,399.9985,0,1,1.859,,0,80,80,86,1,87,0,puertorican,,,,,,,,,,,,,,,,,,,,,,,,,,,,,,,,,,,,,,,,,,,,,,,,,,,,,,,,
,,,,,,,,,5f8f0ae15fe9e60fbbbaead9,Spanish,13 or older,"no, only English or Spanish",no,2025-07-24_08h12.45.801,empathy_intonation_perc_control,2024.2.4,Win32,59.88023952,5f8f0ae15fe9e60fbbbaead9,68817205a84113384fffdfe3,68824cf0f8ecd9f50486c8f7,,,,,,,,,,,,./stim/wavs/castilian_mismatch_interrogative-total-yn_Mi-novio-viene-del-lago.wav,1,,,399.9991,402.4476,1,1,1.9201,,0,81,81,27,1,28,0,castilian,,,,,,,,,,,,,,,,,,,,,,,,,,,,,,,,,,,,,,,,,,,,,,,,,,,,,,,,
,,,,,,,,,5f8f0ae15fe9e60fbbbaead9,Spanish,13 or older,"no, only English or Spanish",no,2025-07-24_08h12.45.801,empathy_intonation_perc_control,2024.2.4,Win32,59.88023952,5f8f0ae15fe9e60fbbbaead9,68817205a84113384fffdfe3,68824cf0f8ecd9f50486c8f7,,,,,,,,,,,,./stim/wavs/castilian_match_interrogative-total-yn_Mariano-habla-del-tiempo.wav,1,,,402.4487,405.0845,1,1,2.0995,,0,82,82,4,1,5,0,castilian,,,,,,,,,,,,,,,,,,,,,,,,,,,,,,,,,,,,,,,,,,,,,,,,,,,,,,,,
,,,,,,,,,5f8f0ae15fe9e60fbbbaead9,Spanish,13 or older,"no, only English or Spanish",no,2025-07-24_08h12.45.801,empathy_intonation_perc_control,2024.2.4,Win32,59.88023952,5f8f0ae15fe9e60fbbbaead9,68817205a84113384fffdfe3,68824cf0f8ecd9f50486c8f7,,,,,,,,,,,,./stim/wavs/castilian_match_interrogative-total-yn_Marta-abre-el-regalo.wav,1,,,405.0848,408.1669,1,1,2.5628,,0,83,83,5,1,6,0,castilian,,,,,,,,,,,,,,,,,,,,,,,,,,,,,,,,,,,,,,,,,,,,,,,,,,,,,,,,
,,,,,,,,,5f8f0ae15fe9e60fbbbaead9,Spanish,13 or older,"no, only English or Spanish",no,2025-07-24_08h12.45.801,empathy_intonation_perc_control,2024.2.4,Win32,59.88023952,5f8f0ae15fe9e60fbbbaead9,68817205a84113384fffdfe3,68824cf0f8ecd9f50486c8f7,,,,,,,,,,,,./stim/wavs/puertorican_match_declarative-broad-focus_Manuela-vende-el-carro.wav,0,,,408.1675,410.1798,0,1,1.4892,,0,84,84,66,1,67,0,puertorican,,,,,,,,,,,,,,,,,,,,,,,,,,,,,,,,,,,,,,,,,,,,,,,,,,,,,,,,
,,,,,,,,,5f8f0ae15fe9e60fbbbaead9,Spanish,13 or older,"no, only English or Spanish",no,2025-07-24_08h12.45.801,empathy_intonation_perc_control,2024.2.4,Win32,59.88023952,5f8f0ae15fe9e60fbbbaead9,68817205a84113384fffdfe3,68824cf0f8ecd9f50486c8f7,,,,,,,,,,,,./stim/wavs/castilian_mismatch_interrogative-total-yn_La-nina-lava-el-plato.wav,1,,,410.1804,412.8161,1,1,2.1001,,0,85,85,25,1,26,0,castilian,,,,,,,,,,,,,,,,,,,,,,,,,,,,,,,,,,,,,,,,,,,,,,,,,,,,,,,,
,,,,,,,,,5f8f0ae15fe9e60fbbbaead9,Spanish,13 or older,"no, only English or Spanish",no,2025-07-24_08h12.45.801,empathy_intonation_perc_control,2024.2.4,Win32,59.88023952,5f8f0ae15fe9e60fbbbaead9,68817205a84113384fffdfe3,68824cf0f8ecd9f50486c8f7,,,,,,,,,,,,./stim/wavs/castilian_mismatch_interrogative-total-yn_Mi-tia-odia-la-lluvia.wav,1,,,412.8168,415.5121,1,1,2.1634,,0,86,86,28,1,29,0,castilian,,,,,,,,,,,,,,,,,,,,,,,,,,,,,,,,,,,,,,,,,,,,,,,,,,,,,,,,
,,,,,,,,,5f8f0ae15fe9e60fbbbaead9,Spanish,13 or older,"no, only English or Spanish",no,2025-07-24_08h12.45.801,empathy_intonation_perc_control,2024.2.4,Win32,59.88023952,5f8f0ae15fe9e60fbbbaead9,68817205a84113384fffdfe3,68824cf0f8ecd9f50486c8f7,,,,,,,,,,,,./stim/wavs/puertorican_match_interrogative-total-yn_Ana-lleva-el-abrigo.wav,1,,,415.5134,417.9783,1,1,1.9382,,0,87,87,18,1,19,1,puertorican,,,,,,,,,,,,,,,,,,,,,,,,,,,,,,,,,,,,,,,,,,,,,,,,,,,,,,,,
,,,,,,,"Great! Now we will move on. The next task consists of about 60 trials, in each of which you will see a string of letters. 
  
  Your task is to decide whether this is a real Spanish word or not.", (press the spacebar to continue),5f8f0ae15fe9e60fbbbaead9,Spanish,13 or older,"no, only English or Spanish",no,2025-07-24_08h12.45.801,empathy_intonation_perc_control,2024.2.4,Win32,59.88023952,5f8f0ae15fe9e60fbbbaead9,68817205a84113384fffdfe3,68824cf0f8ecd9f50486c8f7,,,,,,,,,,,,,,,,,,,,,,,,,,,,,,417.9834,426.2099,0,0,0,0,1,,,,,,,,,,,,,,,,,,,,,,,,,,,,,,,,,,,,,,,,,,,,,,,,,
,,,,,,,"If you think it is an existing Spanish word, you type '1' (for 'REAL'), and if you think it is not an existing Spanish word, you type '0' (for 'FAKE').", (press the spacebar to continue),5f8f0ae15fe9e60fbbbaead9,Spanish,13 or older,"no, only English or Spanish",no,2025-07-24_08h12.45.801,empathy_intonation_perc_control,2024.2.4,Win32,59.88023952,5f8f0ae15fe9e60fbbbaead9,68817205a84113384fffdfe3,68824cf0f8ecd9f50486c8f7,,,,,,,,,,,,,,,,,,,,,,,,,,,,,,426.2125,431.8584,0,1,1,1,1,,,,,,,,,,,,,,,,,,,,,,,,,,,,,,,,,,,,,,,,,,,,,,,,,
,,,,,,,"If you are sure that the word exists, even though you don’t know its exact meaning, you may still respond '1' (REAL). 
  
  But if you are not sure if it is an existing word, you should respond '0' (FAKE).
  
  Let's do a practice round...", (press the spacebar to continue),5f8f0ae15fe9e60fbbbaead9,Spanish,13 or older,"no, only English or Spanish",no,2025-07-24_08h12.45.801,empathy_intonation_perc_control,2024.2.4,Win32,59.88023952,5f8f0ae15fe9e60fbbbaead9,68817205a84113384fffdfe3,68824cf0f8ecd9f50486c8f7,,,,,,,,,,,,,,,,,,,,,,,,,,,,,,431.8609,449.755,0,2,2,2,1,,,,,,,,,,,,,,,,,,,,,,,,,,,,,,,,,,,,,,,,,,,,,,,,,
,,,,,,,,,5f8f0ae15fe9e60fbbbaead9,Spanish,13 or older,"no, only English or Spanish",no,2025-07-24_08h12.45.801,empathy_intonation_perc_control,2024.2.4,Win32,59.88023952,5f8f0ae15fe9e60fbbbaead9,68817205a84113384fffdfe3,68824cf0f8ecd9f50486c8f7,,,,,,,,,,,,,0,,,,,,,,,,,,,,,,,,,,,,,,449.7624,454.5542,1,0,4.2636,,454.5544,455.5538,0,0,0,0,1,0,depiste,REAL,FAKE,,,,,,,,,,,,,,,,,,,,,,,,,,,,,,,,
,,,,,,,,,5f8f0ae15fe9e60fbbbaead9,Spanish,13 or older,"no, only English or Spanish",no,2025-07-24_08h12.45.801,empathy_intonation_perc_control,2024.2.4,Win32,59.88023952,5f8f0ae15fe9e60fbbbaead9,68817205a84113384fffdfe3,68824cf0f8ecd9f50486c8f7,,,,,,,,,,,,,1,,,,,,,,,,,,,,,,,,,,,,,,455.5568,457.5202,1,1,1.4352,,457.5216,458.5197,0,1,1,1,1,0,sí,REAL,FAKE,,,,,,,,,,,,,,,,,,,,,,,,,,,,,,,,
,,,,,,,,,5f8f0ae15fe9e60fbbbaead9,Spanish,13 or older,"no, only English or Spanish",no,2025-07-24_08h12.45.801,empathy_intonation_perc_control,2024.2.4,Win32,59.88023952,5f8f0ae15fe9e60fbbbaead9,68817205a84113384fffdfe3,68824cf0f8ecd9f50486c8f7,,,,,,,,,,,,,0,,,,,,,,,,,,,,,,,,,,,,,,458.5214,460.2697,0,1,1.2135,,460.2698,461.2693,0,2,2,2,1,0,coné,REAL,FAKE,,,,,,,,,,,,,,,,,,,,,,,,,,,,,,,,
,,,,,,,,,5f8f0ae15fe9e60fbbbaead9,Spanish,13 or older,"no, only English or Spanish",no,2025-07-24_08h12.45.801,empathy_intonation_perc_control,2024.2.4,Win32,59.88023952,5f8f0ae15fe9e60fbbbaead9,68817205a84113384fffdfe3,68824cf0f8ecd9f50486c8f7,,,,,,,,,,,,,0,,,,,,,,,,,,,,,,,,,,,,,,461.2716,463.1354,1,0,1.336,,463.136,464.1355,0,3,3,3,1,0,calpar,REAL,FAKE,,,,,,,,,,,,,,,,,,,,,,,,,,,,,,,,
,,,,,,,,,5f8f0ae15fe9e60fbbbaead9,Spanish,13 or older,"no, only English or Spanish",no,2025-07-24_08h12.45.801,empathy_intonation_perc_control,2024.2.4,Win32,59.88023952,5f8f0ae15fe9e60fbbbaead9,68817205a84113384fffdfe3,68824cf0f8ecd9f50486c8f7,,,,,,,,,,,,,0,,,,,,,,,,,,,,,,,,,,,,,,464.1372,466.3683,1,0,1.708,,466.3684,467.3683,0,4,4,4,1,0,joten,REAL,FAKE,,,,,,,,,,,,,,,,,,,,,,,,,,,,,,,,
,,,,,,,,,5f8f0ae15fe9e60fbbbaead9,Spanish,13 or older,"no, only English or Spanish",no,2025-07-24_08h12.45.801,empathy_intonation_perc_control,2024.2.4,Win32,59.88023952,5f8f0ae15fe9e60fbbbaead9,68817205a84113384fffdfe3,68824cf0f8ecd9f50486c8f7,,,,,,,,,,,,,1,,,,,,,,,,,,,,,,,,,,,,,,467.37,469.5343,0,0,1.6308,,469.5343,470.5342,0,5,5,5,1,0,sacapuntas,REAL,FAKE,,,,,,,,,,,,,,,,,,,,,,,,,,,,,,,,
,,,,,,,,,5f8f0ae15fe9e60fbbbaead9,Spanish,13 or older,"no, only English or Spanish",no,2025-07-24_08h12.45.801,empathy_intonation_perc_control,2024.2.4,Win32,59.88023952,5f8f0ae15fe9e60fbbbaead9,68817205a84113384fffdfe3,68824cf0f8ecd9f50486c8f7,,,,,,,,,,,,,0,,,,,,,,,,,,,,,,,,,,,,,,470.5355,473.0005,1,0,1.9423,,473.0005,474.0001,0,6,6,6,1,0,priba,REAL,FAKE,,,,,,,,,,,,,,,,,,,,,,,,,,,,,,,,
,,,,,,,,,5f8f0ae15fe9e60fbbbaead9,Spanish,13 or older,"no, only English or Spanish",no,2025-07-24_08h12.45.801,empathy_intonation_perc_control,2024.2.4,Win32,59.88023952,5f8f0ae15fe9e60fbbbaead9,68817205a84113384fffdfe3,68824cf0f8ecd9f50486c8f7,,,,,,,,,,,,,0,,,,,,,,,,,,,,,,,,,,,,,,474.0009,476.8494,1,0,2.3241,,476.8494,477.85,0,7,7,7,1,0,pelasula,REAL,FAKE,,,,,,,,,,,,,,,,,,,,,,,,,,,,,,,,
,,,,,,,,,5f8f0ae15fe9e60fbbbaead9,Spanish,13 or older,"no, only English or Spanish",no,2025-07-24_08h12.45.801,empathy_intonation_perc_control,2024.2.4,Win32,59.88023952,5f8f0ae15fe9e60fbbbaead9,68817205a84113384fffdfe3,68824cf0f8ecd9f50486c8f7,,,,,,,,,,,,,1,,,,,,,,,,,,,,,,,,,,,,,,477.8513,479.8153,1,1,1.4409,,479.8159,480.8155,0,8,8,8,1,0,bien,REAL,FAKE,,,,,,,,,,,,,,,,,,,,,,,,,,,,,,,,
,,,,,,,,,5f8f0ae15fe9e60fbbbaead9,Spanish,13 or older,"no, only English or Spanish",no,2025-07-24_08h12.45.801,empathy_intonation_perc_control,2024.2.4,Win32,59.88023952,5f8f0ae15fe9e60fbbbaead9,68817205a84113384fffdfe3,68824cf0f8ecd9f50486c8f7,,,,,,,,,,,,,1,,,,,,,,,,,,,,,,,,,,,,,,480.8166,482.6316,1,1,1.2912,,482.6316,483.6319,0,9,9,9,1,0,casa,REAL,FAKE,,,,,,,,,,,,,,,,,,,,,,,,,,,,,,,,
,,,,,,,,,5f8f0ae15fe9e60fbbbaead9,Spanish,13 or older,"no, only English or Spanish",no,2025-07-24_08h12.45.801,empathy_intonation_perc_control,2024.2.4,Win32,59.88023952,5f8f0ae15fe9e60fbbbaead9,68817205a84113384fffdfe3,68824cf0f8ecd9f50486c8f7,,,,,,,,,,,,,0,,,,,,,,,,,,,,,,,,,,,,,,483.633,485.7479,0,1,1.5796,,485.7479,486.7476,0,10,10,10,1,0,lejo,REAL,FAKE,,,,,,,,,,,,,,,,,,,,,,,,,,,,,,,,
,,,,,,,,,5f8f0ae15fe9e60fbbbaead9,Spanish,13 or older,"no, only English or Spanish",no,2025-07-24_08h12.45.801,empathy_intonation_perc_control,2024.2.4,Win32,59.88023952,5f8f0ae15fe9e60fbbbaead9,68817205a84113384fffdfe3,68824cf0f8ecd9f50486c8f7,,,,,,,,,,,,,0,,,,,,,,,,,,,,,,,,,,,,,,486.7483,488.6805,0,1,1.3989,,488.6805,489.6808,0,11,11,11,1,0,pretantas,REAL,FAKE,,,,,,,,,,,,,,,,,,,,,,,,,,,,,,,,
,,,,,,,,,5f8f0ae15fe9e60fbbbaead9,Spanish,13 or older,"no, only English or Spanish",no,2025-07-24_08h12.45.801,empathy_intonation_perc_control,2024.2.4,Win32,59.88023952,5f8f0ae15fe9e60fbbbaead9,68817205a84113384fffdfe3,68824cf0f8ecd9f50486c8f7,,,,,,,,,,,,,,,,,,,,,,,,,,,,,,,,,,,,,,,,,,,,,,,,,,,,,,489.6812,491.7635,,,,,,,,,,,,,,,,,,,,,,,,,,,,,,
,,,,,,,,,5f8f0ae15fe9e60fbbbaead9,Spanish,13 or older,"no, only English or Spanish",no,2025-07-24_08h12.45.801,empathy_intonation_perc_control,2024.2.4,Win32,59.88023952,5f8f0ae15fe9e60fbbbaead9,68817205a84113384fffdfe3,68824cf0f8ecd9f50486c8f7,,,,,,,,,,,,,0,,,,,,,,,,,,,,,,,,,,,,,,,,,,,,,,,,,,,16,abracer,,,,,491.7729,494.0132,0,1,1.7191,,0,0,0,15,1,REAL,FAKE,,,,,,,,,,,,,,,,,
,,,,,,,,,5f8f0ae15fe9e60fbbbaead9,Spanish,13 or older,"no, only English or Spanish",no,2025-07-24_08h12.45.801,empathy_intonation_perc_control,2024.2.4,Win32,59.88023952,5f8f0ae15fe9e60fbbbaead9,68817205a84113384fffdfe3,68824cf0f8ecd9f50486c8f7,,,,,,,,,,,,,0,,,,,,,,,,,,,,,,,,,,,,,,,,,,,,,,,,,,,92,click the 0 key.,,,,,494.0153,496.9124,0,1,2.3623,,0,1,1,91,1,REAL,FAKE,,,,,,,,,,,,,,,,,
,,,,,,,,,5f8f0ae15fe9e60fbbbaead9,Spanish,13 or older,"no, only English or Spanish",no,2025-07-24_08h12.45.801,empathy_intonation_perc_control,2024.2.4,Win32,59.88023952,5f8f0ae15fe9e60fbbbaead9,68817205a84113384fffdfe3,68824cf0f8ecd9f50486c8f7,,,,,,,,,,,,,1,,,,,,,,,,,,,,,,,,,,,,,,,,,,,,,,,,,,,40,alfombra,,,,,496.9148,499.7618,1,1,2.3171,,0,2,2,39,1,REAL,FAKE,,,,,,,,,,,,,,,,,
,,,,,,,,,5f8f0ae15fe9e60fbbbaead9,Spanish,13 or older,"no, only English or Spanish",no,2025-07-24_08h12.45.801,empathy_intonation_perc_control,2024.2.4,Win32,59.88023952,5f8f0ae15fe9e60fbbbaead9,68817205a84113384fffdfe3,68824cf0f8ecd9f50486c8f7,,,,,,,,,,,,,0,,,,,,,,,,,,,,,,,,,,,,,,,,,,,,,,,,,,,84,escuto,,,,,499.763,502.2279,1,0,1.941,,0,3,3,83,1,REAL,FAKE,,,,,,,,,,,,,,,,,
,,,,,,,,,5f8f0ae15fe9e60fbbbaead9,Spanish,13 or older,"no, only English or Spanish",no,2025-07-24_08h12.45.801,empathy_intonation_perc_control,2024.2.4,Win32,59.88023952,5f8f0ae15fe9e60fbbbaead9,68817205a84113384fffdfe3,68824cf0f8ecd9f50486c8f7,,,,,,,,,,,,,0,,,,,,,,,,,,,,,,,,,,,,,,,,,,,,,,,,,,,1,terzo,,,,,502.229,504.3943,0,1,1.6285,,0,4,4,0,1,REAL,FAKE,,,,,,,,,,,,,,,,,
,,,,,,,,,5f8f0ae15fe9e60fbbbaead9,Spanish,13 or older,"no, only English or Spanish",no,2025-07-24_08h12.45.801,empathy_intonation_perc_control,2024.2.4,Win32,59.88023952,5f8f0ae15fe9e60fbbbaead9,68817205a84113384fffdfe3,68824cf0f8ecd9f50486c8f7,,,,,,,,,,,,,0,,,,,,,,,,,,,,,,,,,,,,,,,,,,,,,,,,,,,63,esposante,,,,,504.3952,507.1105,1,0,2.189,,0,5,5,62,1,REAL,FAKE,,,,,,,,,,,,,,,,,
,,,,,,,,,5f8f0ae15fe9e60fbbbaead9,Spanish,13 or older,"no, only English or Spanish",no,2025-07-24_08h12.45.801,empathy_intonation_perc_control,2024.2.4,Win32,59.88023952,5f8f0ae15fe9e60fbbbaead9,68817205a84113384fffdfe3,68824cf0f8ecd9f50486c8f7,,,,,,,,,,,,,0,,,,,,,,,,,,,,,,,,,,,,,,,,,,,,,,,,,,,32,fatacidad,,,,,507.1115,509.993,0,1,2.3499,,0,6,6,31,1,REAL,FAKE,,,,,,,,,,,,,,,,,
,,,,,,,,,5f8f0ae15fe9e60fbbbaead9,Spanish,13 or older,"no, only English or Spanish",no,2025-07-24_08h12.45.801,empathy_intonation_perc_control,2024.2.4,Win32,59.88023952,5f8f0ae15fe9e60fbbbaead9,68817205a84113384fffdfe3,68824cf0f8ecd9f50486c8f7,,,,,,,,,,,,,1,,,,,,,,,,,,,,,,,,,,,,,,,,,,,,,,,,,,,59,besar,,,,,509.9938,512.4593,0,0,1.9306,,0,7,7,58,1,REAL,FAKE,,,,,,,,,,,,,,,,,
,,,,,,,,,5f8f0ae15fe9e60fbbbaead9,Spanish,13 or older,"no, only English or Spanish",no,2025-07-24_08h12.45.801,empathy_intonation_perc_control,2024.2.4,Win32,59.88023952,5f8f0ae15fe9e60fbbbaead9,68817205a84113384fffdfe3,68824cf0f8ecd9f50486c8f7,,,,,,,,,,,,,1,,,,,,,,,,,,,,,,,,,,,,,,,,,,,,,,,,,,,25,bisagra,,,,,512.4611,514.992,1,1,1.9958,,0,8,8,24,1,REAL,FAKE,,,,,,,,,,,,,,,,,
,,,,,,,,,5f8f0ae15fe9e60fbbbaead9,Spanish,13 or older,"no, only English or Spanish",no,2025-07-24_08h12.45.801,empathy_intonation_perc_control,2024.2.4,Win32,59.88023952,5f8f0ae15fe9e60fbbbaead9,68817205a84113384fffdfe3,68824cf0f8ecd9f50486c8f7,,,,,,,,,,,,,0,,,,,,,,,,,,,,,,,,,,,,,,,,,,,,,,,,,,,21,capillo,,,,,514.9929,517.3915,1,0,1.8663,,0,9,9,20,1,REAL,FAKE,,,,,,,,,,,,,,,,,
,,,,,,,,,5f8f0ae15fe9e60fbbbaead9,Spanish,13 or older,"no, only English or Spanish",no,2025-07-24_08h12.45.801,empathy_intonation_perc_control,2024.2.4,Win32,59.88023952,5f8f0ae15fe9e60fbbbaead9,68817205a84113384fffdfe3,68824cf0f8ecd9f50486c8f7,,,,,,,,,,,,,1,,,,,,,,,,,,,,,,,,,,,,,,,,,,,,,,,,,,,71,polvoriento,,,,,517.3929,520.8409,0,0,2.9139,,0,10,10,70,1,REAL,FAKE,,,,,,,,,,,,,,,,,
,,,,,,,,,5f8f0ae15fe9e60fbbbaead9,Spanish,13 or older,"no, only English or Spanish",no,2025-07-24_08h12.45.801,empathy_intonation_perc_control,2024.2.4,Win32,59.88023952,5f8f0ae15fe9e60fbbbaead9,68817205a84113384fffdfe3,68824cf0f8ecd9f50486c8f7,,,,,,,,,,,,,1,,,,,,,,,,,,,,,,,,,,,,,,,,,,,,,,,,,,,77,tiburón,,,,,520.8423,524.4734,0,0,3.1079,,0,11,11,76,1,REAL,FAKE,,,,,,,,,,,,,,,,,
,,,,,,,,,5f8f0ae15fe9e60fbbbaead9,Spanish,13 or older,"no, only English or Spanish",no,2025-07-24_08h12.45.801,empathy_intonation_perc_control,2024.2.4,Win32,59.88023952,5f8f0ae15fe9e60fbbbaead9,68817205a84113384fffdfe3,68824cf0f8ecd9f50486c8f7,,,,,,,,,,,,,0,,,,,,,,,,,,,,,,,,,,,,,,,,,,,,,,,,,,,19,brecedad,,,,,524.4749,527.0729,0,1,2.065,,0,12,12,18,1,REAL,FAKE,,,,,,,,,,,,,,,,,
,,,,,,,,,5f8f0ae15fe9e60fbbbaead9,Spanish,13 or older,"no, only English or Spanish",no,2025-07-24_08h12.45.801,empathy_intonation_perc_control,2024.2.4,Win32,59.88023952,5f8f0ae15fe9e60fbbbaead9,68817205a84113384fffdfe3,68824cf0f8ecd9f50486c8f7,,,,,,,,,,,,,1,,,,,,,,,,,,,,,,,,,,,,,,,,,,,,,,,,,,,89,prisa,,,,,527.0737,529.1894,1,1,1.5822,,0,13,13,88,1,REAL,FAKE,,,,,,,,,,,,,,,,,
,,,,,,,,,5f8f0ae15fe9e60fbbbaead9,Spanish,13 or older,"no, only English or Spanish",no,2025-07-24_08h12.45.801,empathy_intonation_perc_control,2024.2.4,Win32,59.88023952,5f8f0ae15fe9e60fbbbaead9,68817205a84113384fffdfe3,68824cf0f8ecd9f50486c8f7,,,,,,,,,,,,,0,,,,,,,,,,,,,,,,,,,,,,,,,,,,,,,,,,,,,66,hacido,,,,,529.1903,533.022,1,0,3.2985,,0,14,14,65,1,REAL,FAKE,,,,,,,,,,,,,,,,,
,,,,,,,,,5f8f0ae15fe9e60fbbbaead9,Spanish,13 or older,"no, only English or Spanish",no,2025-07-24_08h12.45.801,empathy_intonation_perc_control,2024.2.4,Win32,59.88023952,5f8f0ae15fe9e60fbbbaead9,68817205a84113384fffdfe3,68824cf0f8ecd9f50486c8f7,,,,,,,,,,,,,1,,,,,,,,,,,,,,,,,,,,,,,,,,,,,,,,,,,,,14,yunque,,,,,533.023,534.6048,0,0,1.0478,,0,15,15,13,1,REAL,FAKE,,,,,,,,,,,,,,,,,
,,,,,,,,,5f8f0ae15fe9e60fbbbaead9,Spanish,13 or older,"no, only English or Spanish",no,2025-07-24_08h12.45.801,empathy_intonation_perc_control,2024.2.4,Win32,59.88023952,5f8f0ae15fe9e60fbbbaead9,68817205a84113384fffdfe3,68824cf0f8ecd9f50486c8f7,,,,,,,,,,,,,1,,,,,,,,,,,,,,,,,,,,,,,,,,,,,,,,,,,,,24,látigo,,,,,534.606,536.9376,0,0,1.7987,,0,16,16,23,1,REAL,FAKE,,,,,,,,,,,,,,,,,
,,,,,,,,,5f8f0ae15fe9e60fbbbaead9,Spanish,13 or older,"no, only English or Spanish",no,2025-07-24_08h12.45.801,empathy_intonation_perc_control,2024.2.4,Win32,59.88023952,5f8f0ae15fe9e60fbbbaead9,68817205a84113384fffdfe3,68824cf0f8ecd9f50486c8f7,,,,,,,,,,,,,1,,,,,,,,,,,,,,,,,,,,,,,,,,,,,,,,,,,,,6,tergiversar,,,,,536.9389,540.9871,0,0,3.5216,,0,17,17,5,1,REAL,FAKE,,,,,,,,,,,,,,,,,
,,,,,,,,,5f8f0ae15fe9e60fbbbaead9,Spanish,13 or older,"no, only English or Spanish",no,2025-07-24_08h12.45.801,empathy_intonation_perc_control,2024.2.4,Win32,59.88023952,5f8f0ae15fe9e60fbbbaead9,68817205a84113384fffdfe3,68824cf0f8ecd9f50486c8f7,,,,,,,,,,,,,1,,,,,,,,,,,,,,,,,,,,,,,,,,,,,,,,,,,,,52,camisa,,,,,540.9878,543.5533,1,1,2.0325,,0,18,18,51,1,REAL,FAKE,,,,,,,,,,,,,,,,,
,,,,,,,,,5f8f0ae15fe9e60fbbbaead9,Spanish,13 or older,"no, only English or Spanish",no,2025-07-24_08h12.45.801,empathy_intonation_perc_control,2024.2.4,Win32,59.88023952,5f8f0ae15fe9e60fbbbaead9,68817205a84113384fffdfe3,68824cf0f8ecd9f50486c8f7,,,,,,,,,,,,,1,,,,,,,,,,,,,,,,,,,,,,,,,,,,,,,,,,,,,51,candado,,,,,543.5543,546.8856,0,0,2.8069,,0,19,19,50,1,REAL,FAKE,,,,,,,,,,,,,,,,,
,,,,,,,,,5f8f0ae15fe9e60fbbbaead9,Spanish,13 or older,"no, only English or Spanish",no,2025-07-24_08h12.45.801,empathy_intonation_perc_control,2024.2.4,Win32,59.88023952,5f8f0ae15fe9e60fbbbaead9,68817205a84113384fffdfe3,68824cf0f8ecd9f50486c8f7,,,,,,,,,,,,,0,,,,,,,,,,,,,,,,,,,,,,,,,,,,,,,,,,,,,35,rompido,,,,,546.8863,549.5189,0,1,2.1141,,0,20,20,34,1,REAL,FAKE,,,,,,,,,,,,,,,,,
,,,,,,,,,5f8f0ae15fe9e60fbbbaead9,Spanish,13 or older,"no, only English or Spanish",no,2025-07-24_08h12.45.801,empathy_intonation_perc_control,2024.2.4,Win32,59.88023952,5f8f0ae15fe9e60fbbbaead9,68817205a84113384fffdfe3,68824cf0f8ecd9f50486c8f7,,,,,,,,,,,,,1,,,,,,,,,,,,,,,,,,,,,,,,,,,,,,,,,,,,,88,acantilado,,,,,549.5201,552.5845,1,1,2.5311,,0,21,21,87,1,REAL,FAKE,,,,,,,,,,,,,,,,,
,,,,,,,,,5f8f0ae15fe9e60fbbbaead9,Spanish,13 or older,"no, only English or Spanish",no,2025-07-24_08h12.45.801,empathy_intonation_perc_control,2024.2.4,Win32,59.88023952,5f8f0ae15fe9e60fbbbaead9,68817205a84113384fffdfe3,68824cf0f8ecd9f50486c8f7,,,,,,,,,,,,,0,,,,,,,,,,,,,,,,,,,,,,,,,,,,,,,,,,,,,70,temblo,,,,,552.5862,556.4337,0,1,3.3152,,0,22,22,69,1,REAL,FAKE,,,,,,,,,,,,,,,,,
,,,,,,,,,5f8f0ae15fe9e60fbbbaead9,Spanish,13 or older,"no, only English or Spanish",no,2025-07-24_08h12.45.801,empathy_intonation_perc_control,2024.2.4,Win32,59.88023952,5f8f0ae15fe9e60fbbbaead9,68817205a84113384fffdfe3,68824cf0f8ecd9f50486c8f7,,,,,,,,,,,,,1,,,,,,,,,,,,,,,,,,,,,,,,,,,,,,,,,,,,,68,alegre,,,,,556.4349,559.5499,1,1,2.5806,,0,23,23,67,1,REAL,FAKE,,,,,,,,,,,,,,,,,
,,,,,,,,,5f8f0ae15fe9e60fbbbaead9,Spanish,13 or older,"no, only English or Spanish",no,2025-07-24_08h12.45.801,empathy_intonation_perc_control,2024.2.4,Win32,59.88023952,5f8f0ae15fe9e60fbbbaead9,68817205a84113384fffdfe3,68824cf0f8ecd9f50486c8f7,,,,,,,,,,,,,1,,,,,,,,,,,,,,,,,,,,,,,,,,,,,,,,,,,,,75,yacer,,,,,559.5509,562.4827,0,0,2.3978,,0,24,24,74,1,REAL,FAKE,,,,,,,,,,,,,,,,,
,,,,,,,,,5f8f0ae15fe9e60fbbbaead9,Spanish,13 or older,"no, only English or Spanish",no,2025-07-24_08h12.45.801,empathy_intonation_perc_control,2024.2.4,Win32,59.88023952,5f8f0ae15fe9e60fbbbaead9,68817205a84113384fffdfe3,68824cf0f8ecd9f50486c8f7,,,,,,,,,,,,,1,,,,,,,,,,,,,,,,,,,,,,,,,,,,,,,,,,,,,86,barato,,,,,562.4839,564.8987,0,0,1.8844,,0,25,25,85,1,REAL,FAKE,,,,,,,,,,,,,,,,,
,,,,,,,,,5f8f0ae15fe9e60fbbbaead9,Spanish,13 or older,"no, only English or Spanish",no,2025-07-24_08h12.45.801,empathy_intonation_perc_control,2024.2.4,Win32,59.88023952,5f8f0ae15fe9e60fbbbaead9,68817205a84113384fffdfe3,68824cf0f8ecd9f50486c8f7,,,,,,,,,,,,,0,,,,,,,,,,,,,,,,,,,,,,,,,,,,,,,,,,,,,79,tropaje,,,,,564.8996,568.1151,0,1,2.6813,,0,26,26,78,1,REAL,FAKE,,,,,,,,,,,,,,,,,
,,,,,,,,,5f8f0ae15fe9e60fbbbaead9,Spanish,13 or older,"no, only English or Spanish",no,2025-07-24_08h12.45.801,empathy_intonation_perc_control,2024.2.4,Win32,59.88023952,5f8f0ae15fe9e60fbbbaead9,68817205a84113384fffdfe3,68824cf0f8ecd9f50486c8f7,,,,,,,,,,,,,1,,,,,,,,,,,,,,,,,,,,,,,,,,,,,,,,,,,,,67,cabello,,,,,568.1158,570.5143,1,1,1.8679,,0,27,27,66,1,REAL,FAKE,,,,,,,,,,,,,,,,,
,,,,,,,,,5f8f0ae15fe9e60fbbbaead9,Spanish,13 or older,"no, only English or Spanish",no,2025-07-24_08h12.45.801,empathy_intonation_perc_control,2024.2.4,Win32,59.88023952,5f8f0ae15fe9e60fbbbaead9,68817205a84113384fffdfe3,68824cf0f8ecd9f50486c8f7,,,,,,,,,,,,,1,,,,,,,,,,,,,,,,,,,,,,,,,,,,,,,,,,,,,64,orgulloso,,,,,570.5153,572.1809,0,0,1.1341,,0,28,28,63,1,REAL,FAKE,,,,,,,,,,,,,,,,,
,,,,,,,,,5f8f0ae15fe9e60fbbbaead9,Spanish,13 or older,"no, only English or Spanish",no,2025-07-24_08h12.45.801,empathy_intonation_perc_control,2024.2.4,Win32,59.88023952,5f8f0ae15fe9e60fbbbaead9,68817205a84113384fffdfe3,68824cf0f8ecd9f50486c8f7,,,,,,,,,,,,,1,,,,,,,,,,,,,,,,,,,,,,,,,,,,,,,,,,,,,83,guante,,,,,572.1814,574.2472,1,1,1.5341,,0,29,29,82,1,REAL,FAKE,,,,,,,,,,,,,,,,,
,,,,,,,,,5f8f0ae15fe9e60fbbbaead9,Spanish,13 or older,"no, only English or Spanish",no,2025-07-24_08h12.45.801,empathy_intonation_perc_control,2024.2.4,Win32,59.88023952,5f8f0ae15fe9e60fbbbaead9,68817205a84113384fffdfe3,68824cf0f8ecd9f50486c8f7,,,,,,,,,,,,,1,,,,,,,,,,,,,,,,,,,,,,,,,,,,,,,,,,,,,9,hacha,,,,,574.2485,576.4632,0,0,1.6805,,0,30,30,8,1,REAL,FAKE,,,,,,,,,,,,,,,,,
,,,,,,,,,5f8f0ae15fe9e60fbbbaead9,Spanish,13 or older,"no, only English or Spanish",no,2025-07-24_08h12.45.801,empathy_intonation_perc_control,2024.2.4,Win32,59.88023952,5f8f0ae15fe9e60fbbbaead9,68817205a84113384fffdfe3,68824cf0f8ecd9f50486c8f7,,,,,,,,,,,,,0,,,,,,,,,,,,,,,,,,,,,,,,,,,,,,,,,,,,,10,antar,,,,,576.4648,578.4794,1,0,1.4893,,0,31,31,9,1,REAL,FAKE,,,,,,,,,,,,,,,,,
,,,,,,,,,5f8f0ae15fe9e60fbbbaead9,Spanish,13 or older,"no, only English or Spanish",no,2025-07-24_08h12.45.801,empathy_intonation_perc_control,2024.2.4,Win32,59.88023952,5f8f0ae15fe9e60fbbbaead9,68817205a84113384fffdfe3,68824cf0f8ecd9f50486c8f7,,,,,,,,,,,,,1,,,,,,,,,,,,,,,,,,,,,,,,,,,,,,,,,,,,,12,asesinato,,,,,578.4806,581.3124,0,0,2.3029,,0,32,32,11,1,REAL,FAKE,,,,,,,,,,,,,,,,,
,,,,,,,,,5f8f0ae15fe9e60fbbbaead9,Spanish,13 or older,"no, only English or Spanish",no,2025-07-24_08h12.45.801,empathy_intonation_perc_control,2024.2.4,Win32,59.88023952,5f8f0ae15fe9e60fbbbaead9,68817205a84113384fffdfe3,68824cf0f8ecd9f50486c8f7,,,,,,,,,,,,,1,,,,,,,,,,,,,,,,,,,,,,,,,,,,,,,,,,,,,85,laúd,,,,,581.314,584.8121,0,0,2.9649,,0,33,33,84,1,REAL,FAKE,,,,,,,,,,,,,,,,,
,,,,,,,,,5f8f0ae15fe9e60fbbbaead9,Spanish,13 or older,"no, only English or Spanish",no,2025-07-24_08h12.45.801,empathy_intonation_perc_control,2024.2.4,Win32,59.88023952,5f8f0ae15fe9e60fbbbaead9,68817205a84113384fffdfe3,68824cf0f8ecd9f50486c8f7,,,,,,,,,,,,,0,,,,,,,,,,,,,,,,,,,,,,,,,,,,,,,,,,,,,74,cintro,,,,,584.8133,586.7613,1,0,1.4138,,0,34,34,73,1,REAL,FAKE,,,,,,,,,,,,,,,,,
,,,,,,,,,5f8f0ae15fe9e60fbbbaead9,Spanish,13 or older,"no, only English or Spanish",no,2025-07-24_08h12.45.801,empathy_intonation_perc_control,2024.2.4,Win32,59.88023952,5f8f0ae15fe9e60fbbbaead9,68817205a84113384fffdfe3,68824cf0f8ecd9f50486c8f7,,,,,,,,,,,,,0,,,,,,,,,,,,,,,,,,,,,,,,,,,,,,,,,,,,,18,arsa,,,,,586.7625,589.7439,1,0,2.4482,,0,35,35,17,1,REAL,FAKE,,,,,,,,,,,,,,,,,
,,,,,,,,,5f8f0ae15fe9e60fbbbaead9,Spanish,13 or older,"no, only English or Spanish",no,2025-07-24_08h12.45.801,empathy_intonation_perc_control,2024.2.4,Win32,59.88023952,5f8f0ae15fe9e60fbbbaead9,68817205a84113384fffdfe3,68824cf0f8ecd9f50486c8f7,,,,,,,,,,,,,1,,,,,,,,,,,,,,,,,,,,,,,,,,,,,,,,,,,,,46,martillo,,,,,589.7448,591.7601,0,0,1.4894,,0,36,36,45,1,REAL,FAKE,,,,,,,,,,,,,,,,,
,,,,,,,,,5f8f0ae15fe9e60fbbbaead9,Spanish,13 or older,"no, only English or Spanish",no,2025-07-24_08h12.45.801,empathy_intonation_perc_control,2024.2.4,Win32,59.88023952,5f8f0ae15fe9e60fbbbaead9,68817205a84113384fffdfe3,68824cf0f8ecd9f50486c8f7,,,,,,,,,,,,,1,,,,,,,,,,,,,,,,,,,,,,,,,,,,,,,,,,,,,39,torpe,,,,,591.7612,593.8267,0,0,1.5471,,0,37,37,38,1,REAL,FAKE,,,,,,,,,,,,,,,,,
,,,,,,,,,5f8f0ae15fe9e60fbbbaead9,Spanish,13 or older,"no, only English or Spanish",no,2025-07-24_08h12.45.801,empathy_intonation_perc_control,2024.2.4,Win32,59.88023952,5f8f0ae15fe9e60fbbbaead9,68817205a84113384fffdfe3,68824cf0f8ecd9f50486c8f7,,,,,,,,,,,,,1,,,,,,,,,,,,,,,,,,,,,,,,,,,,,,,,,,,,,45,jilguero,,,,,593.8282,600.0755,0,0,5.7122,,0,38,38,44,1,REAL,FAKE,,,,,,,,,,,,,,,,,
,,,,,,,,,5f8f0ae15fe9e60fbbbaead9,Spanish,13 or older,"no, only English or Spanish",no,2025-07-24_08h12.45.801,empathy_intonation_perc_control,2024.2.4,Win32,59.88023952,5f8f0ae15fe9e60fbbbaead9,68817205a84113384fffdfe3,68824cf0f8ecd9f50486c8f7,,,,,,,,,,,,,1,,,,,,,,,,,,,,,,,,,,,,,,,,,,,,,,,,,,,15,regar,,,,,600.0768,630.3695,0,0,29.7603,,0,39,39,14,1,REAL,FAKE,,,,,,,,,,,,,,,,,
,,,,,,,,,5f8f0ae15fe9e60fbbbaead9,Spanish,13 or older,"no, only English or Spanish",no,2025-07-24_08h12.45.801,empathy_intonation_perc_control,2024.2.4,Win32,59.88023952,5f8f0ae15fe9e60fbbbaead9,68817205a84113384fffdfe3,68824cf0f8ecd9f50486c8f7,,,,,,,,,,,,,1,,,,,,,,,,,,,,,,,,,,,,,,,,,,,,,,,,,,,22,lacayo,,,,,630.3704,642.284,1,1,11.3779,,0,40,40,21,1,REAL,FAKE,,,,,,,,,,,,,,,,,
,,,,,,,,,5f8f0ae15fe9e60fbbbaead9,Spanish,13 or older,"no, only English or Spanish",no,2025-07-24_08h12.45.801,empathy_intonation_perc_control,2024.2.4,Win32,59.88023952,5f8f0ae15fe9e60fbbbaead9,68817205a84113384fffdfe3,68824cf0f8ecd9f50486c8f7,,,,,,,,,,,,,1,,,,,,,,,,,,,,,,,,,,,,,,,,,,,,,,,,,,,31,pandilla,,,,,642.285,651.182,1,1,8.3665,,0,41,41,30,1,REAL,FAKE,,,,,,,,,,,,,,,,,
,,,,,,,,,5f8f0ae15fe9e60fbbbaead9,Spanish,13 or older,"no, only English or Spanish",no,2025-07-24_08h12.45.801,empathy_intonation_perc_control,2024.2.4,Win32,59.88023952,5f8f0ae15fe9e60fbbbaead9,68817205a84113384fffdfe3,68824cf0f8ecd9f50486c8f7,,,,,,,,,,,,,1,,,,,,,,,,,,,,,,,,,,,,,,,,,,,,,,,,,,,5,zapato,,,,,651.1829,658.3472,1,1,6.6367,,0,42,42,4,1,REAL,FAKE,,,,,,,,,,,,,,,,,
,,,,,,,,,5f8f0ae15fe9e60fbbbaead9,Spanish,13 or older,"no, only English or Spanish",no,2025-07-24_08h12.45.801,empathy_intonation_perc_control,2024.2.4,Win32,59.88023952,5f8f0ae15fe9e60fbbbaead9,68817205a84113384fffdfe3,68824cf0f8ecd9f50486c8f7,,,,,,,,,,,,,1,,,,,,,,,,,,,,,,,,,,,,,,,,,,,,,,,,,,,44,cuchara,,,,,658.3483,668.8452,1,1,9.9616,,0,43,43,43,1,REAL,FAKE,,,,,,,,,,,,,,,,,
,,,,,,,,,5f8f0ae15fe9e60fbbbaead9,Spanish,13 or older,"no, only English or Spanish",no,2025-07-24_08h12.45.801,empathy_intonation_perc_control,2024.2.4,Win32,59.88023952,5f8f0ae15fe9e60fbbbaead9,68817205a84113384fffdfe3,68824cf0f8ecd9f50486c8f7,,,,,,,,,,,,,1,,,,,,,,,,,,,,,,,,,,,,,,,,,,,,,,,,,,,7,pésimo,,,,,668.8461,700.3391,1,1,30.9573,,0,44,44,6,1,REAL,FAKE,,,,,,,,,,,,,,,,,
,,,,,,,,,5f8f0ae15fe9e60fbbbaead9,Spanish,13 or older,"no, only English or Spanish",no,2025-07-24_08h12.45.801,empathy_intonation_perc_control,2024.2.4,Win32,59.88023952,5f8f0ae15fe9e60fbbbaead9,68817205a84113384fffdfe3,68824cf0f8ecd9f50486c8f7,,,,,,,,,,,,,1,,,,,,,,,,,,,,,,,,,,,,,,,,,,,,,,,,,,,91,click the 1 key.,,,,,700.341,702.3556,1,1,1.4781,,0,45,45,90,1,REAL,FAKE,,,,,,,,,,,,,,,,,
,,,,,,,,,5f8f0ae15fe9e60fbbbaead9,Spanish,13 or older,"no, only English or Spanish",no,2025-07-24_08h12.45.801,empathy_intonation_perc_control,2024.2.4,Win32,59.88023952,5f8f0ae15fe9e60fbbbaead9,68817205a84113384fffdfe3,68824cf0f8ecd9f50486c8f7,,,,,,,,,,,,,0,,,,,,,,,,,,,,,,,,,,,,,,,,,,,,,,,,,,,58,plaudir,,,,,702.3563,708.5541,0,1,5.6652,,0,46,46,57,1,REAL,FAKE,,,,,,,,,,,,,,,,,
,,,,,,,,,5f8f0ae15fe9e60fbbbaead9,Spanish,13 or older,"no, only English or Spanish",no,2025-07-24_08h12.45.801,empathy_intonation_perc_control,2024.2.4,Win32,59.88023952,5f8f0ae15fe9e60fbbbaead9,68817205a84113384fffdfe3,68824cf0f8ecd9f50486c8f7,,,,,,,,,,,,,1,,,,,,,,,,,,,,,,,,,,,,,,,,,,,,,,,,,,,28,merodear,,,,,708.5551,713.1865,0,0,4.0966,,0,47,47,27,1,REAL,FAKE,,,,,,,,,,,,,,,,,
,,,,,,,,,5f8f0ae15fe9e60fbbbaead9,Spanish,13 or older,"no, only English or Spanish",no,2025-07-24_08h12.45.801,empathy_intonation_perc_control,2024.2.4,Win32,59.88023952,5f8f0ae15fe9e60fbbbaead9,68817205a84113384fffdfe3,68824cf0f8ecd9f50486c8f7,,,,,,,,,,,,,1,,,,,,,,,,,,,,,,,,,,,,,,,,,,,,,,,,,,,43,canela,,,,,713.1879,716.0525,0,0,2.3371,,0,48,48,42,1,REAL,FAKE,,,,,,,,,,,,,,,,,
,,,,,,,,,5f8f0ae15fe9e60fbbbaead9,Spanish,13 or older,"no, only English or Spanish",no,2025-07-24_08h12.45.801,empathy_intonation_perc_control,2024.2.4,Win32,59.88023952,5f8f0ae15fe9e60fbbbaead9,68817205a84113384fffdfe3,68824cf0f8ecd9f50486c8f7,,,,,,,,,,,,,1,,,,,,,,,,,,,,,,,,,,,,,,,,,,,,,,,,,,,2,pellizcar,,,,,716.0535,718.6023,0,0,2.0224,,0,49,49,1,1,REAL,FAKE,,,,,,,,,,,,,,,,,
,,,,,,,,,5f8f0ae15fe9e60fbbbaead9,Spanish,13 or older,"no, only English or Spanish",no,2025-07-24_08h12.45.801,empathy_intonation_perc_control,2024.2.4,Win32,59.88023952,5f8f0ae15fe9e60fbbbaead9,68817205a84113384fffdfe3,68824cf0f8ecd9f50486c8f7,,,,,,,,,,,,,1,,,,,,,,,,,,,,,,,,,,,,,,,,,,,,,,,,,,,81,pozo,,,,,718.6033,721.3349,0,0,2.2076,,0,50,50,80,1,REAL,FAKE,,,,,,,,,,,,,,,,,
,,,,,,,,,5f8f0ae15fe9e60fbbbaead9,Spanish,13 or older,"no, only English or Spanish",no,2025-07-24_08h12.45.801,empathy_intonation_perc_control,2024.2.4,Win32,59.88023952,5f8f0ae15fe9e60fbbbaead9,68817205a84113384fffdfe3,68824cf0f8ecd9f50486c8f7,,,,,,,,,,,,,0,,,,,,,,,,,,,,,,,,,,,,,,,,,,,,,,,,,,,47,cartinar,,,,,721.3375,723.4344,1,0,1.5636,,0,51,51,46,1,REAL,FAKE,,,,,,,,,,,,,,,,,
,,,,,,,,,5f8f0ae15fe9e60fbbbaead9,Spanish,13 or older,"no, only English or Spanish",no,2025-07-24_08h12.45.801,empathy_intonation_perc_control,2024.2.4,Win32,59.88023952,5f8f0ae15fe9e60fbbbaead9,68817205a84113384fffdfe3,68824cf0f8ecd9f50486c8f7,,,,,,,,,,,,,1,,,,,,,,,,,,,,,,,,,,,,,,,,,,,,,,,,,,,65,bizcocho,,,,,723.4354,724.8843,0,0,0.9137,,0,52,52,64,1,REAL,FAKE,,,,,,,,,,,,,,,,,
,,,,,,,,,5f8f0ae15fe9e60fbbbaead9,Spanish,13 or older,"no, only English or Spanish",no,2025-07-24_08h12.45.801,empathy_intonation_perc_control,2024.2.4,Win32,59.88023952,5f8f0ae15fe9e60fbbbaead9,68817205a84113384fffdfe3,68824cf0f8ecd9f50486c8f7,,,,,,,,,,,,,0,,,,,,,,,,,,,,,,,,,,,,,,,,,,,,,,,,,,,4,batillón,,,,,724.8855,727.2669,0,1,1.8492,,0,53,53,3,1,REAL,FAKE,,,,,,,,,,,,,,,,,
,,,,,,,,,5f8f0ae15fe9e60fbbbaead9,Spanish,13 or older,"no, only English or Spanish",no,2025-07-24_08h12.45.801,empathy_intonation_perc_control,2024.2.4,Win32,59.88023952,5f8f0ae15fe9e60fbbbaead9,68817205a84113384fffdfe3,68824cf0f8ecd9f50486c8f7,,,,,,,,,,,,,1,,,,,,,,,,,,,,,,,,,,,,,,,,,,,,,,,,,,,62,flaco,,,,,727.2679,729.1167,0,0,1.3139,,0,54,54,61,1,REAL,FAKE,,,,,,,,,,,,,,,,,
,,,,,,,,,5f8f0ae15fe9e60fbbbaead9,Spanish,13 or older,"no, only English or Spanish",no,2025-07-24_08h12.45.801,empathy_intonation_perc_control,2024.2.4,Win32,59.88023952,5f8f0ae15fe9e60fbbbaead9,68817205a84113384fffdfe3,68824cf0f8ecd9f50486c8f7,,,,,,,,,,,,,1,,,,,,,,,,,,,,,,,,,,,,,,,,,,,,,,,,,,,73,hervidor,,,,,729.1176,730.5498,1,1,0.9102,,0,55,55,72,1,REAL,FAKE,,,,,,,,,,,,,,,,,
,,,,,,,,,5f8f0ae15fe9e60fbbbaead9,Spanish,13 or older,"no, only English or Spanish",no,2025-07-24_08h12.45.801,empathy_intonation_perc_control,2024.2.4,Win32,59.88023952,5f8f0ae15fe9e60fbbbaead9,68817205a84113384fffdfe3,68824cf0f8ecd9f50486c8f7,,,,,,,,,,,,,1,,,,,,,,,,,,,,,,,,,,,,,,,,,,,,,,,,,,,56,musgo,,,,,730.5506,732.7663,0,0,1.6826,,0,56,56,55,1,REAL,FAKE,,,,,,,,,,,,,,,,,
,,,,,,,,,5f8f0ae15fe9e60fbbbaead9,Spanish,13 or older,"no, only English or Spanish",no,2025-07-24_08h12.45.801,empathy_intonation_perc_control,2024.2.4,Win32,59.88023952,5f8f0ae15fe9e60fbbbaead9,68817205a84113384fffdfe3,68824cf0f8ecd9f50486c8f7,,,,,,,,,,,,,1,,,,,,,,,,,,,,,,,,,,,,,,,,,,,,,,,,,,,54,fomentar,,,,,732.7675,734.5658,0,0,1.2695,,0,57,57,53,1,REAL,FAKE,,,,,,,,,,,,,,,,,
,,,,,,,,,5f8f0ae15fe9e60fbbbaead9,Spanish,13 or older,"no, only English or Spanish",no,2025-07-24_08h12.45.801,empathy_intonation_perc_control,2024.2.4,Win32,59.88023952,5f8f0ae15fe9e60fbbbaead9,68817205a84113384fffdfe3,68824cf0f8ecd9f50486c8f7,,,,,,,,,,,,,1,,,,,,,,,,,,,,,,,,,,,,,,,,,,,,,,,,,,,57,tacaño,,,,,734.5676,736.0319,1,1,0.9307,,0,58,58,56,1,REAL,FAKE,,,,,,,,,,,,,,,,,
,,,,,,,,,5f8f0ae15fe9e60fbbbaead9,Spanish,13 or older,"no, only English or Spanish",no,2025-07-24_08h12.45.801,empathy_intonation_perc_control,2024.2.4,Win32,59.88023952,5f8f0ae15fe9e60fbbbaead9,68817205a84113384fffdfe3,68824cf0f8ecd9f50486c8f7,,,,,,,,,,,,,0,,,,,,,,,,,,,,,,,,,,,,,,,,,,,,,,,,,,,17,floroso,,,,,736.0326,739.1477,0,1,2.5881,,0,59,59,16,1,REAL,FAKE,,,,,,,,,,,,,,,,,
,,,,,,,,,5f8f0ae15fe9e60fbbbaead9,Spanish,13 or older,"no, only English or Spanish",no,2025-07-24_08h12.45.801,empathy_intonation_perc_control,2024.2.4,Win32,59.88023952,5f8f0ae15fe9e60fbbbaead9,68817205a84113384fffdfe3,68824cf0f8ecd9f50486c8f7,,,,,,,,,,,,,1,,,,,,,,,,,,,,,,,,,,,,,,,,,,,,,,,,,,,37,granuja,,,,,739.1493,741.6978,0,0,2.0212,,0,60,60,36,1,REAL,FAKE,,,,,,,,,,,,,,,,,
,,,,,,,,,5f8f0ae15fe9e60fbbbaead9,Spanish,13 or older,"no, only English or Spanish",no,2025-07-24_08h12.45.801,empathy_intonation_perc_control,2024.2.4,Win32,59.88023952,5f8f0ae15fe9e60fbbbaead9,68817205a84113384fffdfe3,68824cf0f8ecd9f50486c8f7,,,,,,,,,,,,,0,,,,,,,,,,,,,,,,,,,,,,,,,,,,,,,,,,,,,53,vegada,,,,,741.6988,743.3137,1,0,1.0878,,0,61,61,52,1,REAL,FAKE,,,,,,,,,,,,,,,,,
,,,,,,,,,5f8f0ae15fe9e60fbbbaead9,Spanish,13 or older,"no, only English or Spanish",no,2025-07-24_08h12.45.801,empathy_intonation_perc_control,2024.2.4,Win32,59.88023952,5f8f0ae15fe9e60fbbbaead9,68817205a84113384fffdfe3,68824cf0f8ecd9f50486c8f7,,,,,,,,,,,,,0,,,,,,,,,,,,,,,,,,,,,,,,,,,,,,,,,,,,,33,pauca,,,,,743.3146,744.8138,1,0,0.9682,,0,62,62,32,1,REAL,FAKE,,,,,,,,,,,,,,,,,
,,,,,,,,,5f8f0ae15fe9e60fbbbaead9,Spanish,13 or older,"no, only English or Spanish",no,2025-07-24_08h12.45.801,empathy_intonation_perc_control,2024.2.4,Win32,59.88023952,5f8f0ae15fe9e60fbbbaead9,68817205a84113384fffdfe3,68824cf0f8ecd9f50486c8f7,,,,,,,,,,,,,0,,,,,,,,,,,,,,,,,,,,,,,,,,,,,,,,,,,,,23,lampera,,,,,744.8147,746.7133,1,0,1.3664,,0,63,63,22,1,REAL,FAKE,,,,,,,,,,,,,,,,,
,,,,,,,,,5f8f0ae15fe9e60fbbbaead9,Spanish,13 or older,"no, only English or Spanish",no,2025-07-24_08h12.45.801,empathy_intonation_perc_control,2024.2.4,Win32,59.88023952,5f8f0ae15fe9e60fbbbaead9,68817205a84113384fffdfe3,68824cf0f8ecd9f50486c8f7,,,,,,,,,,,,,1,,,,,,,,,,,,,,,,,,,,,,,,,,,,,,,,,,,,,76,atar,,,,,746.7145,748.8461,1,1,1.5978,,0,64,64,75,1,REAL,FAKE,,,,,,,,,,,,,,,,,
,,,,,,,,,5f8f0ae15fe9e60fbbbaead9,Spanish,13 or older,"no, only English or Spanish",no,2025-07-24_08h12.45.801,empathy_intonation_perc_control,2024.2.4,Win32,59.88023952,5f8f0ae15fe9e60fbbbaead9,68817205a84113384fffdfe3,68824cf0f8ecd9f50486c8f7,,,,,,,,,,,,,0,,,,,,,,,,,,,,,,,,,,,,,,,,,,,,,,,,,,,27,acutación,,,,,748.8468,750.3458,0,1,0.9634,,0,65,65,26,1,REAL,FAKE,,,,,,,,,,,,,,,,,
,,,,,,,,,5f8f0ae15fe9e60fbbbaead9,Spanish,13 or older,"no, only English or Spanish",no,2025-07-24_08h12.45.801,empathy_intonation_perc_control,2024.2.4,Win32,59.88023952,5f8f0ae15fe9e60fbbbaead9,68817205a84113384fffdfe3,68824cf0f8ecd9f50486c8f7,,,,,,,,,,,,,1,,,,,,,,,,,,,,,,,,,,,,,,,,,,,,,,,,,,,38,estornudar,,,,,750.3466,755.3782,0,0,4.4968,,0,66,66,37,1,REAL,FAKE,,,,,,,,,,,,,,,,,
,,,,,,,,,5f8f0ae15fe9e60fbbbaead9,Spanish,13 or older,"no, only English or Spanish",no,2025-07-24_08h12.45.801,empathy_intonation_perc_control,2024.2.4,Win32,59.88023952,5f8f0ae15fe9e60fbbbaead9,68817205a84113384fffdfe3,68824cf0f8ecd9f50486c8f7,,,,,,,,,,,,,1,,,,,,,,,,,,,,,,,,,,,,,,,,,,,,,,,,,,,49,ganar,,,,,755.3796,757.9441,1,1,2.0329,,0,67,67,48,1,REAL,FAKE,,,,,,,,,,,,,,,,,
,,,,,,,,,5f8f0ae15fe9e60fbbbaead9,Spanish,13 or older,"no, only English or Spanish",no,2025-07-24_08h12.45.801,empathy_intonation_perc_control,2024.2.4,Win32,59.88023952,5f8f0ae15fe9e60fbbbaead9,68817205a84113384fffdfe3,68824cf0f8ecd9f50486c8f7,,,,,,,,,,,,,0,,,,,,,,,,,,,,,,,,,,,,,,,,,,,,,,,,,,,82,empirador,,,,,757.9451,760.4439,1,0,1.9634,,0,68,68,81,1,REAL,FAKE,,,,,,,,,,,,,,,,,
,,,,,,,,,5f8f0ae15fe9e60fbbbaead9,Spanish,13 or older,"no, only English or Spanish",no,2025-07-24_08h12.45.801,empathy_intonation_perc_control,2024.2.4,Win32,59.88023952,5f8f0ae15fe9e60fbbbaead9,68817205a84113384fffdfe3,68824cf0f8ecd9f50486c8f7,,,,,,,,,,,,,1,,,,,,,,,,,,,,,,,,,,,,,,,,,,,,,,,,,,,80,hormiga,,,,,760.4447,760.9939,0,0,0.0177,,0,69,69,79,1,REAL,FAKE,,,,,,,,,,,,,,,,,
,,,,,,,,,5f8f0ae15fe9e60fbbbaead9,Spanish,13 or older,"no, only English or Spanish",no,2025-07-24_08h12.45.801,empathy_intonation_perc_control,2024.2.4,Win32,59.88023952,5f8f0ae15fe9e60fbbbaead9,68817205a84113384fffdfe3,68824cf0f8ecd9f50486c8f7,,,,,,,,,,,,,1,,,,,,,,,,,,,,,,,,,,,,,,,,,,,,,,,,,,,11,cenefa,,,,,760.9951,766.0926,0,0,4.564,,0,70,70,10,1,REAL,FAKE,,,,,,,,,,,,,,,,,
,,,,,,,,,5f8f0ae15fe9e60fbbbaead9,Spanish,13 or older,"no, only English or Spanish",no,2025-07-24_08h12.45.801,empathy_intonation_perc_control,2024.2.4,Win32,59.88023952,5f8f0ae15fe9e60fbbbaead9,68817205a84113384fffdfe3,68824cf0f8ecd9f50486c8f7,,,,,,,,,,,,,1,,,,,,,,,,,,,,,,,,,,,,,,,,,,,,,,,,,,,60,matar,,,,,766.0936,768.109,1,1,1.4807,,0,71,71,59,1,REAL,FAKE,,,,,,,,,,,,,,,,,
,,,,,,,,,5f8f0ae15fe9e60fbbbaead9,Spanish,13 or older,"no, only English or Spanish",no,2025-07-24_08h12.45.801,empathy_intonation_perc_control,2024.2.4,Win32,59.88023952,5f8f0ae15fe9e60fbbbaead9,68817205a84113384fffdfe3,68824cf0f8ecd9f50486c8f7,,,,,,,,,,,,,1,,,,,,,,,,,,,,,,,,,,,,,,,,,,,,,,,,,,,61,seda,,,,,768.1101,770.0584,0,0,1.4246,,0,72,72,60,1,REAL,FAKE,,,,,,,,,,,,,,,,,
,,,,,,,,,5f8f0ae15fe9e60fbbbaead9,Spanish,13 or older,"no, only English or Spanish",no,2025-07-24_08h12.45.801,empathy_intonation_perc_control,2024.2.4,Win32,59.88023952,5f8f0ae15fe9e60fbbbaead9,68817205a84113384fffdfe3,68824cf0f8ecd9f50486c8f7,,,,,,,,,,,,,0,,,,,,,,,,,,,,,,,,,,,,,,,,,,,,,,,,,,,87,grodo,,,,,770.0591,771.7417,0,1,1.1486,,0,73,73,86,1,REAL,FAKE,,,,,,,,,,,,,,,,,
,,,,,,,,,5f8f0ae15fe9e60fbbbaead9,Spanish,13 or older,"no, only English or Spanish",no,2025-07-24_08h12.45.801,empathy_intonation_perc_control,2024.2.4,Win32,59.88023952,5f8f0ae15fe9e60fbbbaead9,68817205a84113384fffdfe3,68824cf0f8ecd9f50486c8f7,,,,,,,,,,,,,0,,,,,,,,,,,,,,,,,,,,,,,,,,,,,,,,,,,,,30,alardio,,,,,771.7426,774.4579,0,1,2.1875,,0,74,74,29,1,REAL,FAKE,,,,,,,,,,,,,,,,,
,,,,,,,,,5f8f0ae15fe9e60fbbbaead9,Spanish,13 or older,"no, only English or Spanish",no,2025-07-24_08h12.45.801,empathy_intonation_perc_control,2024.2.4,Win32,59.88023952,5f8f0ae15fe9e60fbbbaead9,68817205a84113384fffdfe3,68824cf0f8ecd9f50486c8f7,,,,,,,,,,,,,1,,,,,,,,,,,,,,,,,,,,,,,,,,,,,,,,,,,,,36,loro,,,,,774.4584,777.7737,1,1,2.7844,,0,75,75,35,1,REAL,FAKE,,,,,,,,,,,,,,,,,
,,,,,,,,,5f8f0ae15fe9e60fbbbaead9,Spanish,13 or older,"no, only English or Spanish",no,2025-07-24_08h12.45.801,empathy_intonation_perc_control,2024.2.4,Win32,59.88023952,5f8f0ae15fe9e60fbbbaead9,68817205a84113384fffdfe3,68824cf0f8ecd9f50486c8f7,,,,,,,,,,,,,0,,,,,,,,,,,,,,,,,,,,,,,,,,,,,,,,,,,,,29,decar,,,,,777.7743,780.4064,0,1,2.0977,,0,76,76,28,1,REAL,FAKE,,,,,,,,,,,,,,,,,
,,,,,,,,,5f8f0ae15fe9e60fbbbaead9,Spanish,13 or older,"no, only English or Spanish",no,2025-07-24_08h12.45.801,empathy_intonation_perc_control,2024.2.4,Win32,59.88023952,5f8f0ae15fe9e60fbbbaead9,68817205a84113384fffdfe3,68824cf0f8ecd9f50486c8f7,,,,,,,,,,,,,1,,,,,,,,,,,,,,,,,,,,,,,,,,,,,,,,,,,,,34,aviso,,,,,780.4073,782.7062,1,1,1.765,,0,77,77,33,1,REAL,FAKE,,,,,,,,,,,,,,,,,
,,,,,,,,,5f8f0ae15fe9e60fbbbaead9,Spanish,13 or older,"no, only English or Spanish",no,2025-07-24_08h12.45.801,empathy_intonation_perc_control,2024.2.4,Win32,59.88023952,5f8f0ae15fe9e60fbbbaead9,68817205a84113384fffdfe3,68824cf0f8ecd9f50486c8f7,,,,,,,,,,,,,1,,,,,,,,,,,,,,,,,,,,,,,,,,,,,,,,,,,,,48,ladrón,,,,,782.7072,786.8886,0,0,3.6472,,0,78,78,47,1,REAL,FAKE,,,,,,,,,,,,,,,,,
,,,,,,,,,5f8f0ae15fe9e60fbbbaead9,Spanish,13 or older,"no, only English or Spanish",no,2025-07-24_08h12.45.801,empathy_intonation_perc_control,2024.2.4,Win32,59.88023952,5f8f0ae15fe9e60fbbbaead9,68817205a84113384fffdfe3,68824cf0f8ecd9f50486c8f7,,,,,,,,,,,,,0,,,,,,,,,,,,,,,,,,,,,,,,,,,,,,,,,,,,,42,cadallo,,,,,786.89,819.9652,0,1,32.5526,,0,79,79,41,1,REAL,FAKE,,,,,,,,,,,,,,,,,
,,,,,,,,,5f8f0ae15fe9e60fbbbaead9,Spanish,13 or older,"no, only English or Spanish",no,2025-07-24_08h12.45.801,empathy_intonation_perc_control,2024.2.4,Win32,59.88023952,5f8f0ae15fe9e60fbbbaead9,68817205a84113384fffdfe3,68824cf0f8ecd9f50486c8f7,,,,,,,,,,,,,0,,,,,,,,,,,,,,,,,,,,,,,,,,,,,,,,,,,,,50,flamida,,,,,819.9667,848.2931,0,1,27.7923,,0,80,80,49,1,REAL,FAKE,,,,,,,,,,,,,,,,,
,,,,,,,,,5f8f0ae15fe9e60fbbbaead9,Spanish,13 or older,"no, only English or Spanish",no,2025-07-24_08h12.45.801,empathy_intonation_perc_control,2024.2.4,Win32,59.88023952,5f8f0ae15fe9e60fbbbaead9,68817205a84113384fffdfe3,68824cf0f8ecd9f50486c8f7,,,,,,,,,,,,,1,,,,,,,,,,,,,,,,,,,,,,,,,,,,,,,,,,,,,78,frondoso,,,,,848.2943,856.9915,0,0,8.172,,0,81,81,77,1,REAL,FAKE,,,,,,,,,,,,,,,,,
,,,,,,,,,5f8f0ae15fe9e60fbbbaead9,Spanish,13 or older,"no, only English or Spanish",no,2025-07-24_08h12.45.801,empathy_intonation_perc_control,2024.2.4,Win32,59.88023952,5f8f0ae15fe9e60fbbbaead9,68817205a84113384fffdfe3,68824cf0f8ecd9f50486c8f7,,,,,,,,,,,,,0,,,,,,,,,,,,,,,,,,,,,,,,,,,,,,,,,,,,,72,pemición,,,,,856.9924,867.3563,1,0,9.8313,,0,82,82,71,1,REAL,FAKE,,,,,,,,,,,,,,,,,
,,,,,,,,,5f8f0ae15fe9e60fbbbaead9,Spanish,13 or older,"no, only English or Spanish",no,2025-07-24_08h12.45.801,empathy_intonation_perc_control,2024.2.4,Win32,59.88023952,5f8f0ae15fe9e60fbbbaead9,68817205a84113384fffdfe3,68824cf0f8ecd9f50486c8f7,,,,,,,,,,,,,1,,,,,,,,,,,,,,,,,,,,,,,,,,,,,,,,,,,,,26,secuestro,,,,,867.357,877.1541,1,1,9.2732,,0,83,83,25,1,REAL,FAKE,,,,,,,,,,,,,,,,,
,,,,,,,,,5f8f0ae15fe9e60fbbbaead9,Spanish,13 or older,"no, only English or Spanish",no,2025-07-24_08h12.45.801,empathy_intonation_perc_control,2024.2.4,Win32,59.88023952,5f8f0ae15fe9e60fbbbaead9,68817205a84113384fffdfe3,68824cf0f8ecd9f50486c8f7,,,,,,,,,,,,,0,,,,,,,,,,,,,,,,,,,,,,,,,,,,,,,,,,,,,8,cadeña,,,,,877.1552,878.7539,0,1,1.0711,,0,84,84,7,1,REAL,FAKE,,,,,,,,,,,,,,,,,
,,,,,,,,,5f8f0ae15fe9e60fbbbaead9,Spanish,13 or older,"no, only English or Spanish",no,2025-07-24_08h12.45.801,empathy_intonation_perc_control,2024.2.4,Win32,59.88023952,5f8f0ae15fe9e60fbbbaead9,68817205a84113384fffdfe3,68824cf0f8ecd9f50486c8f7,,,,,,,,,,,,,1,,,,,,,,,,,,,,,,,,,,,,,,,,,,,,,,,,,,,55,nevar,,,,,878.7547,880.9369,0,0,1.648,,0,85,85,54,1,REAL,FAKE,,,,,,,,,,,,,,,,,
,,,,,,,,,5f8f0ae15fe9e60fbbbaead9,Spanish,13 or older,"no, only English or Spanish",no,2025-07-24_08h12.45.801,empathy_intonation_perc_control,2024.2.4,Win32,59.88023952,5f8f0ae15fe9e60fbbbaead9,68817205a84113384fffdfe3,68824cf0f8ecd9f50486c8f7,,,,,,,,,,,,,1,,,,,,,,,,,,,,,,,,,,,,,,,,,,,,,,,,,,,90,clavel,,,,,880.9382,882.4364,0,0,0.9645,,0,86,86,89,1,REAL,FAKE,,,,,,,,,,,,,,,,,
,,,,,,,,,5f8f0ae15fe9e60fbbbaead9,Spanish,13 or older,"no, only English or Spanish",no,2025-07-24_08h12.45.801,empathy_intonation_perc_control,2024.2.4,Win32,59.88023952,5f8f0ae15fe9e60fbbbaead9,68817205a84113384fffdfe3,68824cf0f8ecd9f50486c8f7,,,,,,,,,,,,,1,,,,,,,,,,,,,,,,,,,,,,,,,,,,,,,,,,,,,20,ávido,,,,,882.4395,884.3362,0,0,1.3658,,0,87,87,19,1,REAL,FAKE,,,,,,,,,,,,,,,,,
,,,,,,,,,5f8f0ae15fe9e60fbbbaead9,Spanish,13 or older,"no, only English or Spanish",no,2025-07-24_08h12.45.801,empathy_intonation_perc_control,2024.2.4,Win32,59.88023952,5f8f0ae15fe9e60fbbbaead9,68817205a84113384fffdfe3,68824cf0f8ecd9f50486c8f7,,,,,,,,,,,,,1,,,,,,,,,,,,,,,,,,,,,,,,,,,,,,,,,,,,,3,pulmones,,,,,884.338,886.4027,1,1,1.5302,,0,88,88,2,1,REAL,FAKE,,,,,,,,,,,,,,,,,
,,,,,,,,,5f8f0ae15fe9e60fbbbaead9,Spanish,13 or older,"no, only English or Spanish",no,2025-07-24_08h12.45.801,empathy_intonation_perc_control,2024.2.4,Win32,59.88023952,5f8f0ae15fe9e60fbbbaead9,68817205a84113384fffdfe3,68824cf0f8ecd9f50486c8f7,,,,,,,,,,,,,1,,,,,,,,,,,,,,,,,,,,,,,,,,,,,,,,,,,,,69,engatusar,,,,,886.4035,889.4519,0,0,2.5157,,0,89,89,68,1,REAL,FAKE,,,,,,,,,,,,,,,,,
,,,,,,,,,5f8f0ae15fe9e60fbbbaead9,Spanish,13 or older,"no, only English or Spanish",no,2025-07-24_08h12.45.801,empathy_intonation_perc_control,2024.2.4,Win32,59.88023952,5f8f0ae15fe9e60fbbbaead9,68817205a84113384fffdfe3,68824cf0f8ecd9f50486c8f7,,,,,,,,,,,,,1,,,,,,,,,,,,,,,,,,,,,,,,,,,,,,,,,,,,,13,helar,,,,,889.4528,891.0187,0,0,1.0331,,0,90,90,12,1,REAL,FAKE,,,,,,,,,,,,,,,,,
,,,,,,,,,5f8f0ae15fe9e60fbbbaead9,Spanish,13 or older,"no, only English or Spanish",no,2025-07-24_08h12.45.801,empathy_intonation_perc_control,2024.2.4,Win32,59.88023952,5f8f0ae15fe9e60fbbbaead9,68817205a84113384fffdfe3,68824cf0f8ecd9f50486c8f7,,,,,,,,,,,,,1,,,,,,,,,,,,,,,,,,,,,,,,,,,,,,,,,,,,,41,rebuscar,,,,,891.0197,893.1013,1,1,1.5497,,0,91,91,40,1,REAL,FAKE,,,,,,,,,,,,,,,,,
,,,,,,,,,5f8f0ae15fe9e60fbbbaead9,Spanish,13 or older,"no, only English or Spanish",no,2025-07-24_08h12.45.801,empathy_intonation_perc_control,2024.2.4,Win32,59.88023952,5f8f0ae15fe9e60fbbbaead9,68817205a84113384fffdfe3,68824cf0f8ecd9f50486c8f7,,,,,,,,,,,,,,,,,,,,,,,,,,,,,,,,,,,,,,,,,,,,,,,,,,,,,,,,,,,,,,,,,,,,,893.102,905.4159,,,,,,,,,,,,,,,
,,,,,,,,,5f8f0ae15fe9e60fbbbaead9,Spanish,13 or older,"no, only English or Spanish",no,2025-07-24_08h12.45.801,empathy_intonation_perc_control,2024.2.4,Win32,59.88023952,5f8f0ae15fe9e60fbbbaead9,68817205a84113384fffdfe3,68824cf0f8ecd9f50486c8f7,,,,,,,,,,,,,,,,,,,,,,,,,,,1,,,,,,,,,,,,,,,,,,,,,,,,,,,,,,,,,,,,,,,,,,,,905.4308,915.2802,slightly agree,0,0,0,0,1,I can easily tell if someone else wants to enter a conversation.,1,0,1,0,,
,,,,,,,,,5f8f0ae15fe9e60fbbbaead9,Spanish,13 or older,"no, only English or Spanish",no,2025-07-24_08h12.45.801,empathy_intonation_perc_control,2024.2.4,Win32,59.88023952,5f8f0ae15fe9e60fbbbaead9,68817205a84113384fffdfe3,68824cf0f8ecd9f50486c8f7,,,,,,,,,,,,,,,,,,,,,,,,,,,2,,,,,,,,,,,,,,,,,,,,,,,,,,,,,,,,,,,,,,,,,,,,915.2822,918.4295,slightly disagree,0,1,1,1,1,I prefer animals to humans.,0,1,0,0,,
,,,,,,,,,5f8f0ae15fe9e60fbbbaead9,Spanish,13 or older,"no, only English or Spanish",no,2025-07-24_08h12.45.801,empathy_intonation_perc_control,2024.2.4,Win32,59.88023952,5f8f0ae15fe9e60fbbbaead9,68817205a84113384fffdfe3,68824cf0f8ecd9f50486c8f7,,,,,,,,,,,,,,,,,,,,,,,,,,,3,,,,,,,,,,,,,,,,,,,,,,,,,,,,,,,,,,,,,,,,,,,,918.4321,924.6115,strongly agree,0,2,2,2,1,I try to keep up with the current trends and fashions.,0,1,0,0,,
,,,,,,,,,5f8f0ae15fe9e60fbbbaead9,Spanish,13 or older,"no, only English or Spanish",no,2025-07-24_08h12.45.801,empathy_intonation_perc_control,2024.2.4,Win32,59.88023952,5f8f0ae15fe9e60fbbbaead9,68817205a84113384fffdfe3,68824cf0f8ecd9f50486c8f7,,,,,,,,,,,,,,,,,,,,,,,,,,,4,,,,,,,,,,,,,,,,,,,,,,,,,,,,,,,,,,,,,,,,,,,,924.6143,934.3931,slightly agree,0,3,3,3,1,"I find it difficult to explain to others things that I understand easily,   when they don't understand it first time.",1,0,0,1,,
,,,,,,,,,5f8f0ae15fe9e60fbbbaead9,Spanish,13 or older,"no, only English or Spanish",no,2025-07-24_08h12.45.801,empathy_intonation_perc_control,2024.2.4,Win32,59.88023952,5f8f0ae15fe9e60fbbbaead9,68817205a84113384fffdfe3,68824cf0f8ecd9f50486c8f7,,,,,,,,,,,,,,,,,,,,,,,,,,,5,,,,,,,,,,,,,,,,,,,,,,,,,,,,,,,,,,,,,,,,,,,,934.3946,941.8747,slightly disagree,0,4,4,4,1,I dream most nights.,0,1,0,0,,
,,,,,,,,,5f8f0ae15fe9e60fbbbaead9,Spanish,13 or older,"no, only English or Spanish",no,2025-07-24_08h12.45.801,empathy_intonation_perc_control,2024.2.4,Win32,59.88023952,5f8f0ae15fe9e60fbbbaead9,68817205a84113384fffdfe3,68824cf0f8ecd9f50486c8f7,,,,,,,,,,,,,,,,,,,,,,,,,,,6,,,,,,,,,,,,,,,,,,,,,,,,,,,,,,,,,,,,,,,,,,,,941.8762,944.7245,slightly agree,0,5,5,5,1,I really enjoy caring for other people.,1,0,1,0,,
,,,,,,,,,5f8f0ae15fe9e60fbbbaead9,Spanish,13 or older,"no, only English or Spanish",no,2025-07-24_08h12.45.801,empathy_intonation_perc_control,2024.2.4,Win32,59.88023952,5f8f0ae15fe9e60fbbbaead9,68817205a84113384fffdfe3,68824cf0f8ecd9f50486c8f7,,,,,,,,,,,,,,,,,,,,,,,,,,,7,,,,,,,,,,,,,,,,,,,,,,,,,,,,,,,,,,,,,,,,,,,,944.7271,953.3057,strongly disagree,0,6,6,6,1,I try to solve my own problems rather than discussing them with others.,0,1,0,0,,
,,,,,,,,,5f8f0ae15fe9e60fbbbaead9,Spanish,13 or older,"no, only English or Spanish",no,2025-07-24_08h12.45.801,empathy_intonation_perc_control,2024.2.4,Win32,59.88023952,5f8f0ae15fe9e60fbbbaead9,68817205a84113384fffdfe3,68824cf0f8ecd9f50486c8f7,,,,,,,,,,,,,,,,,,,,,,,,,,,8,,,,,,,,,,,,,,,,,,,,,,,,,,,,,,,,,,,,,,,,,,,,953.3073,967.9908,slightly disagree,0,7,7,7,1,I find it hard to know what to do in a social situation.,1,0,0,1,,
,,,,,,,,,5f8f0ae15fe9e60fbbbaead9,Spanish,13 or older,"no, only English or Spanish",no,2025-07-24_08h12.45.801,empathy_intonation_perc_control,2024.2.4,Win32,59.88023952,5f8f0ae15fe9e60fbbbaead9,68817205a84113384fffdfe3,68824cf0f8ecd9f50486c8f7,,,,,,,,,,,,,,,,,,,,,,,,,,,9,,,,,,,,,,,,,,,,,,,,,,,,,,,,,,,,,,,,,,,,,,,,967.992,969.7192,slightly agree,0,8,8,8,1,I am at my best first thing in the morning.,0,1,0,0,,
,,,,,,,,,5f8f0ae15fe9e60fbbbaead9,Spanish,13 or older,"no, only English or Spanish",no,2025-07-24_08h12.45.801,empathy_intonation_perc_control,2024.2.4,Win32,59.88023952,5f8f0ae15fe9e60fbbbaead9,68817205a84113384fffdfe3,68824cf0f8ecd9f50486c8f7,,,,,,,,,,,,,,,,,,,,,,,,,,,10,,,,,,,,,,,,,,,,,,,,,,,,,,,,,,,,,,,,,,,,,,,,969.7215,971.2563,slightly agree,0,9,9,9,1,People often tell me that I went too far in driving my point home in a discussion.,1,0,0,1,,
,,,,,,,,,5f8f0ae15fe9e60fbbbaead9,Spanish,13 or older,"no, only English or Spanish",no,2025-07-24_08h12.45.801,empathy_intonation_perc_control,2024.2.4,Win32,59.88023952,5f8f0ae15fe9e60fbbbaead9,68817205a84113384fffdfe3,68824cf0f8ecd9f50486c8f7,,,,,,,,,,,,,,,,,,,,,,,,,,,11,,,,,,,,,,,,,,,,,,,,,,,,,,,,,,,,,,,,,,,,,,,,971.2573,973.4061,slightly disagree,0,10,10,10,1,It doesn't bother me too much if I am late meeting a friend.,1,0,0,1,,
,,,,,,,,,5f8f0ae15fe9e60fbbbaead9,Spanish,13 or older,"no, only English or Spanish",no,2025-07-24_08h12.45.801,empathy_intonation_perc_control,2024.2.4,Win32,59.88023952,5f8f0ae15fe9e60fbbbaead9,68817205a84113384fffdfe3,68824cf0f8ecd9f50486c8f7,,,,,,,,,,,,,,,,,,,,,,,,,,,12,,,,,,,,,,,,,,,,,,,,,,,,,,,,,,,,,,,,,,,,,,,,973.4073,974.9391,strongly agree,0,11,11,11,1,"Friendships and relationships are just too difficult, so I tend not to 
  bother with them.",1,0,0,1,,
,,,,,,,,,5f8f0ae15fe9e60fbbbaead9,Spanish,13 or older,"no, only English or Spanish",no,2025-07-24_08h12.45.801,empathy_intonation_perc_control,2024.2.4,Win32,59.88023952,5f8f0ae15fe9e60fbbbaead9,68817205a84113384fffdfe3,68824cf0f8ecd9f50486c8f7,,,,,,,,,,,,,,,,,,,,,,,,,,,13,,,,,,,,,,,,,,,,,,,,,,,,,,,,,,,,,,,,,,,,,,,,974.94,976.9557,slightly disagree,0,12,12,12,1,"I would never break a law, no matter how minor.",0,1,0,0,,
,,,,,,,,,5f8f0ae15fe9e60fbbbaead9,Spanish,13 or older,"no, only English or Spanish",no,2025-07-24_08h12.45.801,empathy_intonation_perc_control,2024.2.4,Win32,59.88023952,5f8f0ae15fe9e60fbbbaead9,68817205a84113384fffdfe3,68824cf0f8ecd9f50486c8f7,,,,,,,,,,,,,,,,,,,,,,,,,,,14,,,,,,,,,,,,,,,,,,,,,,,,,,,,,,,,,,,,,,,,,,,,976.9571,979.0716,strongly disagree,0,13,13,13,1,I often find it difficult to judge if something is rude or polite.,1,0,0,1,,
,,,,,,,,,5f8f0ae15fe9e60fbbbaead9,Spanish,13 or older,"no, only English or Spanish",no,2025-07-24_08h12.45.801,empathy_intonation_perc_control,2024.2.4,Win32,59.88023952,5f8f0ae15fe9e60fbbbaead9,68817205a84113384fffdfe3,68824cf0f8ecd9f50486c8f7,,,,,,,,,,,,,,,,,,,,,,,,,,,15,,,,,,,,,,,,,,,,,,,,,,,,,,,,,,,,,,,,,,,,,,,,979.0731,980.6384,slightly agree,0,14,14,14,1,"In a conversation, I tend to focus on my own thoughts rather than on what 
  my listener might be thinking.",1,0,0,1,,
,,,,,,,,,5f8f0ae15fe9e60fbbbaead9,Spanish,13 or older,"no, only English or Spanish",no,2025-07-24_08h12.45.801,empathy_intonation_perc_control,2024.2.4,Win32,59.88023952,5f8f0ae15fe9e60fbbbaead9,68817205a84113384fffdfe3,68824cf0f8ecd9f50486c8f7,,,,,,,,,,,,,,,,,,,,,,,,,,,16,,,,,,,,,,,,,,,,,,,,,,,,,,,,,,,,,,,,,,,,,,,,980.6396,980.7016,slightly agree,0,15,15,15,1,I prefer practical jokes to verbal humor.,0,1,0,0,,
,,,,,,,,,5f8f0ae15fe9e60fbbbaead9,Spanish,13 or older,"no, only English or Spanish",no,2025-07-24_08h12.45.801,empathy_intonation_perc_control,2024.2.4,Win32,59.88023952,5f8f0ae15fe9e60fbbbaead9,68817205a84113384fffdfe3,68824cf0f8ecd9f50486c8f7,,,,,,,,,,,,,,,,,,,,,,,,,,,17,,,,,,,,,,,,,,,,,,,,,,,,,,,,,,,,,,,,,,,,,,,,980.703,982.5046,slightly agree,0,16,16,16,1,I live life for today rather than the future.,0,1,0,0,,
,,,,,,,,,5f8f0ae15fe9e60fbbbaead9,Spanish,13 or older,"no, only English or Spanish",no,2025-07-24_08h12.45.801,empathy_intonation_perc_control,2024.2.4,Win32,59.88023952,5f8f0ae15fe9e60fbbbaead9,68817205a84113384fffdfe3,68824cf0f8ecd9f50486c8f7,,,,,,,,,,,,,,,,,,,,,,,,,,,18,,,,,,,,,,,,,,,,,,,,,,,,,,,,,,,,,,,,,,,,,,,,982.506,984.5372,strongly agree,0,17,17,17,1,"When I was a child, I enjoyed cutting up worms to see what would happen.",1,0,0,1,,
,,,,,,,,,5f8f0ae15fe9e60fbbbaead9,Spanish,13 or older,"no, only English or Spanish",no,2025-07-24_08h12.45.801,empathy_intonation_perc_control,2024.2.4,Win32,59.88023952,5f8f0ae15fe9e60fbbbaead9,68817205a84113384fffdfe3,68824cf0f8ecd9f50486c8f7,,,,,,,,,,,,,,,,,,,,,,,,,,,19,,,,,,,,,,,,,,,,,,,,,,,,,,,,,,,,,,,,,,,,,,,,984.5379,986.7368,slightly disagree,0,18,18,18,1,I can pick up quickly if someone says one thing but means another.,1,0,1,0,,
,,,,,,,,,5f8f0ae15fe9e60fbbbaead9,Spanish,13 or older,"no, only English or Spanish",no,2025-07-24_08h12.45.801,empathy_intonation_perc_control,2024.2.4,Win32,59.88023952,5f8f0ae15fe9e60fbbbaead9,68817205a84113384fffdfe3,68824cf0f8ecd9f50486c8f7,,,,,,,,,,,,,,,,,,,,,,,,,,,20,,,,,,,,,,,,,,,,,,,,,,,,,,,,,,,,,,,,,,,,,,,,986.7379,988.0181,slightly agree,0,19,19,19,1,I tend to have very strong opinions about morality.,0,1,0,0,,
,,,,,,,,,5f8f0ae15fe9e60fbbbaead9,Spanish,13 or older,"no, only English or Spanish",no,2025-07-24_08h12.45.801,empathy_intonation_perc_control,2024.2.4,Win32,59.88023952,5f8f0ae15fe9e60fbbbaead9,68817205a84113384fffdfe3,68824cf0f8ecd9f50486c8f7,,,,,,,,,,,,,,,,,,,,,,,,,,,21,,,,,,,,,,,,,,,,,,,,,,,,,,,,,,,,,,,,,,,,,,,,988.0191,991.665,slightly disagree,0,20,20,20,1,It is hard for me to see why some things upset people so much.,1,0,0,1,,
,,,,,,,,,5f8f0ae15fe9e60fbbbaead9,Spanish,13 or older,"no, only English or Spanish",no,2025-07-24_08h12.45.801,empathy_intonation_perc_control,2024.2.4,Win32,59.88023952,5f8f0ae15fe9e60fbbbaead9,68817205a84113384fffdfe3,68824cf0f8ecd9f50486c8f7,,,,,,,,,,,,,,,,,,,,,,,,,,,22,,,,,,,,,,,,,,,,,,,,,,,,,,,,,,,,,,,,,,,,,,,,991.6669,993.0357,slightly agree,0,21,21,21,1,I find it easy to put myself in somebody else's shoes.,1,0,1,0,,
,,,,,,,,,5f8f0ae15fe9e60fbbbaead9,Spanish,13 or older,"no, only English or Spanish",no,2025-07-24_08h12.45.801,empathy_intonation_perc_control,2024.2.4,Win32,59.88023952,5f8f0ae15fe9e60fbbbaead9,68817205a84113384fffdfe3,68824cf0f8ecd9f50486c8f7,,,,,,,,,,,,,,,,,,,,,,,,,,,23,,,,,,,,,,,,,,,,,,,,,,,,,,,,,,,,,,,,,,,,,,,,993.0367,994.8648,strongly agree,0,22,22,22,1,I think that good manners are the most important thing a parent can teach their child.,0,1,0,0,,
,,,,,,,,,5f8f0ae15fe9e60fbbbaead9,Spanish,13 or older,"no, only English or Spanish",no,2025-07-24_08h12.45.801,empathy_intonation_perc_control,2024.2.4,Win32,59.88023952,5f8f0ae15fe9e60fbbbaead9,68817205a84113384fffdfe3,68824cf0f8ecd9f50486c8f7,,,,,,,,,,,,,,,,,,,,,,,,,,,24,,,,,,,,,,,,,,,,,,,,,,,,,,,,,,,,,,,,,,,,,,,,994.8665,996.7845,slightly agree,0,23,23,23,1,I like to do things on the spur of the moment.,0,1,0,0,,
,,,,,,,,,5f8f0ae15fe9e60fbbbaead9,Spanish,13 or older,"no, only English or Spanish",no,2025-07-24_08h12.45.801,empathy_intonation_perc_control,2024.2.4,Win32,59.88023952,5f8f0ae15fe9e60fbbbaead9,68817205a84113384fffdfe3,68824cf0f8ecd9f50486c8f7,,,,,,,,,,,,,,,,,,,,,,,,,,,25,,,,,,,,,,,,,,,,,,,,,,,,,,,,,,,,,,,,,,,,,,,,996.7854,997.998,slightly agree,0,24,24,24,1,I am good at predicting how someone will feel.,1,0,1,0,,
