instructions_2afc.started,instructions_2afc.stopped,instructions_2afc_loop.thisRepN,instructions_2afc_loop.thisTrialN,instructions_2afc_loop.thisN,instructions_2afc_loop.thisIndex,instructions_2afc_loop.ran,instructions_text,continue_text,participant_id,"What variety of Spanish are you most familiar with? (e.g., Peruvian, Spanish, Mexican)",At what age did you begin learning Spanish?,Are you proficient in any languages other than English/Spanish?,"Are you familiar with Caribbean (e.g., Caribbean, Puerto Rican) or Galician Spanish?",date,expName,psychopyVersion,OS,frameRate,id,study_id,session,practice_2afc.started,practice_2afc.stopped,key_resp_2afc_practice.keys,key_resp_2afc_practice.corr,key_resp_2afc_practice.rt,key_resp_2afc_practice.duration,trials_2afc_practice_loop.thisRepN,trials_2afc_practice_loop.thisTrialN,trials_2afc_practice_loop.thisN,trials_2afc_practice_loop.thisIndex,trials_2afc_practice_loop.ran,path,correct_response,check_2afc.started,check_2afc.stopped,trial_2afc.started,trial_2afc.stopped,key_resp_2afc_trial.keys,key_resp_2afc_trial.corr,key_resp_2afc_trial.rt,key_resp_2afc_trial.duration,trials_2afc_loop.thisRepN,trials_2afc_loop.thisTrialN,trials_2afc_loop.thisN,trials_2afc_loop.thisIndex,trials_2afc_loop.ran,item_num,target,variety,instructions_lextale.started,instructions_lextale.stopped,instructions_lextale_loop.thisRepN,instructions_lextale_loop.thisTrialN,instructions_lextale_loop.thisN,instructions_lextale_loop.thisIndex,instructions_lextale_loop.ran,practice_lextale.started,practice_lextale.stopped,key_resp_lextale_practice.keys,key_resp_lextale_practice.corr,key_resp_lextale_practice.rt,key_resp_lextale_practice.duration,practice_feedback_lextale.started,practice_feedback_lextale.stopped,trials_lextale_practice_loop.thisRepN,trials_lextale_practice_loop.thisTrialN,trials_lextale_practice_loop.thisN,trials_lextale_practice_loop.thisIndex,trials_lextale_practice_loop.ran,stim,word,prac_button_real,prac_button_false,check_lextale.started,check_lextale.stopped,trial_lextale.started,trial_lextale.stopped,key_resp_lextale_trial.keys,key_resp_lextale_trial.corr,key_resp_lextale_trial.rt,key_resp_lextale_trial.duration,trials_lextale_loop.thisRepN,trials_lextale_loop.thisTrialN,trials_lextale_loop.thisN,trials_lextale_loop.thisIndex,trials_lextale_loop.ran,button_real,button_false,instructions_eq.started,instructions_eq.stopped,trial_eq.started,trial_eq.stopped,slider_eq_trial.response,trials_eq_loop.thisRepN,trials_eq_loop.thisTrialN,trials_eq_loop.thisN,trials_eq_loop.thisIndex,trials_eq_loop.ran,item,is_test_item,is_distractor,is_agree_score,is_disagree_score,end_exp.started,end_exp.stopped
0.016,2.36,0,0,0,0,1,"In the following task you are going to hear a series of utterances. 

  You will decide if the utterances sound like questions or not using your keyboard.", (press the spacebar to continue),5fa315662ca5b25d05ae8236,spanish,13 or older,"yes, I am fluent in another language",no,2025-07-24_06h59.31.359,empathy_intonation_perc_control,2024.2.4,MacIntel,60.60606061,5fa315662ca5b25d05ae8236,68817205a84113384fffdfe3,688211e681035e867bb12644,,,,,,,,,,,,,,,,,,,,,,,,,,,,,,,,,,,,,,,,,,,,,,,,,,,,,,,,,,,,,,,,,,,,,,,,,,,,,,,,,,,,,
2.3607,7.7065,0,1,1,1,1,"If you believe the utterance is a question, type '1' (for 'yes') and if you do not 
  believe it is a question type '0' (for 'no').

  Let's practice a bit...", (press the spacebar to continue),5fa315662ca5b25d05ae8236,spanish,13 or older,"yes, I am fluent in another language",no,2025-07-24_06h59.31.359,empathy_intonation_perc_control,2024.2.4,MacIntel,60.60606061,5fa315662ca5b25d05ae8236,68817205a84113384fffdfe3,688211e681035e867bb12644,,,,,,,,,,,,,,,,,,,,,,,,,,,,,,,,,,,,,,,,,,,,,,,,,,,,,,,,,,,,,,,,,,,,,,,,,,,,,,,,,,,,,
,,,,,,,,,5fa315662ca5b25d05ae8236,spanish,13 or older,"yes, I am fluent in another language",no,2025-07-24_06h59.31.359,empathy_intonation_perc_control,2024.2.4,MacIntel,60.60606061,5fa315662ca5b25d05ae8236,68817205a84113384fffdfe3,688211e681035e867bb12644,7.717,11.4885,1,1,3.2496,,0,0,0,1,1,./stim/wavs/argentine_question_filler_Mi-vecino-habla-mucho.wav,1,,,,,,,,,,,,,,,,,,,,,,,,,,,,,,,,,,,,,,,,,,,,,,,,,,,,,,,,,,,,,,,,,,,,,,,,
,,,,,,,,,5fa315662ca5b25d05ae8236,spanish,13 or older,"yes, I am fluent in another language",no,2025-07-24_06h59.31.359,empathy_intonation_perc_control,2024.2.4,MacIntel,60.60606061,5fa315662ca5b25d05ae8236,68817205a84113384fffdfe3,688211e681035e867bb12644,11.489,20.8253,1,0,8.8039,,0,1,1,5,1,./stim/wavs/andalusian_statement_filler_Alberto-nunca-se-afeita.wav,0,,,,,,,,,,,,,,,,,,,,,,,,,,,,,,,,,,,,,,,,,,,,,,,,,,,,,,,,,,,,,,,,,,,,,,,,
,,,,,,,,,5fa315662ca5b25d05ae8236,spanish,13 or older,"yes, I am fluent in another language",no,2025-07-24_06h59.31.359,empathy_intonation_perc_control,2024.2.4,MacIntel,60.60606061,5fa315662ca5b25d05ae8236,68817205a84113384fffdfe3,688211e681035e867bb12644,20.8257,32.3894,1,1,11.0341,,0,2,2,2,1,./stim/wavs/chilean_question_filler_Mi-padre-cantaba-bien.wav,1,,,,,,,,,,,,,,,,,,,,,,,,,,,,,,,,,,,,,,,,,,,,,,,,,,,,,,,,,,,,,,,,,,,,,,,,
,,,,,,,,,5fa315662ca5b25d05ae8236,spanish,13 or older,"yes, I am fluent in another language",no,2025-07-24_06h59.31.359,empathy_intonation_perc_control,2024.2.4,MacIntel,60.60606061,5fa315662ca5b25d05ae8236,68817205a84113384fffdfe3,688211e681035e867bb12644,32.3898,34.7568,1,1,1.8489,,0,3,3,3,1,./stim/wavs/mexican_question_filler_Felipe-no-tiene-contrasena.wav,1,,,,,,,,,,,,,,,,,,,,,,,,,,,,,,,,,,,,,,,,,,,,,,,,,,,,,,,,,,,,,,,,,,,,,,,,
,,,,,,,,,5fa315662ca5b25d05ae8236,spanish,13 or older,"yes, I am fluent in another language",no,2025-07-24_06h59.31.359,empathy_intonation_perc_control,2024.2.4,MacIntel,60.60606061,5fa315662ca5b25d05ae8236,68817205a84113384fffdfe3,688211e681035e867bb12644,34.7572,37.0921,1,0,1.8026,,0,4,4,6,1,./stim/wavs/peruvian_statement_filler_El-nino-habla-con-su-madre.wav,0,,,,,,,,,,,,,,,,,,,,,,,,,,,,,,,,,,,,,,,,,,,,,,,,,,,,,,,,,,,,,,,,,,,,,,,,
,,,,,,,,,5fa315662ca5b25d05ae8236,spanish,13 or older,"yes, I am fluent in another language",no,2025-07-24_06h59.31.359,empathy_intonation_perc_control,2024.2.4,MacIntel,60.60606061,5fa315662ca5b25d05ae8236,68817205a84113384fffdfe3,688211e681035e867bb12644,37.0924,40.2472,1,0,2.6264,,0,5,5,7,1,./stim/wavs/puertorican_statement_filler_La-nina-pinta-con-su-amiga.wav,0,,,,,,,,,,,,,,,,,,,,,,,,,,,,,,,,,,,,,,,,,,,,,,,,,,,,,,,,,,,,,,,,,,,,,,,,
,,,,,,,,,5fa315662ca5b25d05ae8236,spanish,13 or older,"yes, I am fluent in another language",no,2025-07-24_06h59.31.359,empathy_intonation_perc_control,2024.2.4,MacIntel,60.60606061,5fa315662ca5b25d05ae8236,68817205a84113384fffdfe3,688211e681035e867bb12644,40.2476,42.7378,0,0,1.964,,0,6,6,0,1,./stim/wavs/castilian_question_filler_Mi-esposo-conoce-al-chico.wav,1,,,,,,,,,,,,,,,,,,,,,,,,,,,,,,,,,,,,,,,,,,,,,,,,,,,,,,,,,,,,,,,,,,,,,,,,
,,,,,,,,,5fa315662ca5b25d05ae8236,spanish,13 or older,"yes, I am fluent in another language",no,2025-07-24_06h59.31.359,empathy_intonation_perc_control,2024.2.4,MacIntel,60.60606061,5fa315662ca5b25d05ae8236,68817205a84113384fffdfe3,688211e681035e867bb12644,42.7383,45.1417,0,1,1.871,,0,7,7,4,1,./stim/wavs/cuban_statement_filler_Cocinabas-por-la-noche.wav,0,,,,,,,,,,,,,,,,,,,,,,,,,,,,,,,,,,,,,,,,,,,,,,,,,,,,,,,,,,,,,,,,,,,,,,,,
,,,,,,,,,5fa315662ca5b25d05ae8236,spanish,13 or older,"yes, I am fluent in another language",no,2025-07-24_06h59.31.359,empathy_intonation_perc_control,2024.2.4,MacIntel,60.60606061,5fa315662ca5b25d05ae8236,68817205a84113384fffdfe3,688211e681035e867bb12644,,,,,,,,,,,,,,45.142,47.243,,,,,,,,,,,,,,,,,,,,,,,,,,,,,,,,,,,,,,,,,,,,,,,,,,,,,,,,,,,,,,,,,,,,,,
,,,,,,,,,5fa315662ca5b25d05ae8236,spanish,13 or older,"yes, I am fluent in another language",no,2025-07-24_06h59.31.359,empathy_intonation_perc_control,2024.2.4,MacIntel,60.60606061,5fa315662ca5b25d05ae8236,68817205a84113384fffdfe3,688211e681035e867bb12644,,,,,,,,,,,,./stim/wavs/puertorican_match_interrogative-total-yn_David-leia-el-libro.wav,1,,,47.2603,49.2385,0,0,1.4508,,0,0,0,20,1,21,1,puertorican,,,,,,,,,,,,,,,,,,,,,,,,,,,,,,,,,,,,,,,,,,,,,,,,,,,,,,,,
,,,,,,,,,5fa315662ca5b25d05ae8236,spanish,13 or older,"yes, I am fluent in another language",no,2025-07-24_06h59.31.359,empathy_intonation_perc_control,2024.2.4,MacIntel,60.60606061,5fa315662ca5b25d05ae8236,68817205a84113384fffdfe3,688211e681035e867bb12644,,,,,,,,,,,,./stim/wavs/puertorican_match_interrogative-total-yn_Maria-bebe-el-vino.wav,1,,,49.239,50.9594,1,1,1.2014,,0,1,1,23,1,24,1,puertorican,,,,,,,,,,,,,,,,,,,,,,,,,,,,,,,,,,,,,,,,,,,,,,,,,,,,,,,,
,,,,,,,,,5fa315662ca5b25d05ae8236,spanish,13 or older,"yes, I am fluent in another language",no,2025-07-24_06h59.31.359,empathy_intonation_perc_control,2024.2.4,MacIntel,60.60606061,5fa315662ca5b25d05ae8236,68817205a84113384fffdfe3,688211e681035e867bb12644,,,,,,,,,,,,./stim/wavs/cuban_match_interrogative-total-yn_Mariano-habla-del-tiempo.wav,1,,,50.9597,53.5428,0,0,2.0526,,0,2,2,10,1,11,1,cuban,,,,,,,,,,,,,,,,,,,,,,,,,,,,,,,,,,,,,,,,,,,,,,,,,,,,,,,,
,,,,,,,,,5fa315662ca5b25d05ae8236,spanish,13 or older,"yes, I am fluent in another language",no,2025-07-24_06h59.31.359,empathy_intonation_perc_control,2024.2.4,MacIntel,60.60606061,5fa315662ca5b25d05ae8236,68817205a84113384fffdfe3,688211e681035e867bb12644,,,,,,,,,,,,./stim/wavs/mexican_match_declarative-broad-focus_Mariano-habla-del-tiempo.wav,0,,,53.5433,55.5577,0,1,1.4844,,0,3,3,60,1,61,0,mexican,,,,,,,,,,,,,,,,,,,,,,,,,,,,,,,,,,,,,,,,,,,,,,,,,,,,,,,,
,,,,,,,,,5fa315662ca5b25d05ae8236,spanish,13 or older,"yes, I am fluent in another language",no,2025-07-24_06h59.31.359,empathy_intonation_perc_control,2024.2.4,MacIntel,60.60606061,5fa315662ca5b25d05ae8236,68817205a84113384fffdfe3,688211e681035e867bb12644,,,,,,,,,,,,./stim/wavs/mexican_mismatch_declarative-broad-focus_Mi-tia-odia-la-lluvia.wav,0,,,55.558,57.6913,0,1,1.6026,,0,4,4,82,1,83,0,mexican,,,,,,,,,,,,,,,,,,,,,,,,,,,,,,,,,,,,,,,,,,,,,,,,,,,,,,,,
,,,,,,,,,5fa315662ca5b25d05ae8236,spanish,13 or older,"yes, I am fluent in another language",no,2025-07-24_06h59.31.359,empathy_intonation_perc_control,2024.2.4,MacIntel,60.60606061,5fa315662ca5b25d05ae8236,68817205a84113384fffdfe3,688211e681035e867bb12644,,,,,,,,,,,,./stim/wavs/puertorican_mismatch_declarative-broad-focus_La-maestra-vive-en-Paris.wav,0,,,57.6916,60.0421,0,1,1.8197,,0,5,5,86,1,87,0,puertorican,,,,,,,,,,,,,,,,,,,,,,,,,,,,,,,,,,,,,,,,,,,,,,,,,,,,,,,,
,,,,,,,,,5fa315662ca5b25d05ae8236,spanish,13 or older,"yes, I am fluent in another language",no,2025-07-24_06h59.31.359,empathy_intonation_perc_control,2024.2.4,MacIntel,60.60606061,5fa315662ca5b25d05ae8236,68817205a84113384fffdfe3,688211e681035e867bb12644,,,,,,,,,,,,./stim/wavs/cuban_match_declarative-broad-focus_Marta-abre-el-regalo.wav,0,,,60.0426,61.9412,0,1,1.3672,,0,6,6,55,1,56,0,cuban,,,,,,,,,,,,,,,,,,,,,,,,,,,,,,,,,,,,,,,,,,,,,,,,,,,,,,,,
,,,,,,,,,5fa315662ca5b25d05ae8236,spanish,13 or older,"yes, I am fluent in another language",no,2025-07-24_06h59.31.359,empathy_intonation_perc_control,2024.2.4,MacIntel,60.60606061,5fa315662ca5b25d05ae8236,68817205a84113384fffdfe3,688211e681035e867bb12644,,,,,,,,,,,,./stim/wavs/cuban_mismatch_declarative-broad-focus_Mi-novio-viene-del-lago.wav,0,,,61.9414,63.9712,0,1,1.5005,,0,7,7,76,1,77,0,cuban,,,,,,,,,,,,,,,,,,,,,,,,,,,,,,,,,,,,,,,,,,,,,,,,,,,,,,,,
,,,,,,,,,5fa315662ca5b25d05ae8236,spanish,13 or older,"yes, I am fluent in another language",no,2025-07-24_06h59.31.359,empathy_intonation_perc_control,2024.2.4,MacIntel,60.60606061,5fa315662ca5b25d05ae8236,68817205a84113384fffdfe3,688211e681035e867bb12644,,,,,,,,,,,,./stim/wavs/castilian_match_declarative-broad-focus_Emilio-ama-la-marcha.wav,0,,,63.9715,65.805,0,1,1.3186,,0,8,8,45,1,46,0,castilian,,,,,,,,,,,,,,,,,,,,,,,,,,,,,,,,,,,,,,,,,,,,,,,,,,,,,,,,
,,,,,,,,,5fa315662ca5b25d05ae8236,spanish,13 or older,"yes, I am fluent in another language",no,2025-07-24_06h59.31.359,empathy_intonation_perc_control,2024.2.4,MacIntel,60.60606061,5fa315662ca5b25d05ae8236,68817205a84113384fffdfe3,688211e681035e867bb12644,,,,,,,,,,,,./stim/wavs/castilian_match_interrogative-total-yn_David-leia-el-libro.wav,1,,,65.8054,67.9895,1,1,1.6529,,0,9,9,0,1,1,0,castilian,,,,,,,,,,,,,,,,,,,,,,,,,,,,,,,,,,,,,,,,,,,,,,,,,,,,,,,,
,,,,,,,,,5fa315662ca5b25d05ae8236,spanish,13 or older,"yes, I am fluent in another language",no,2025-07-24_06h59.31.359,empathy_intonation_perc_control,2024.2.4,MacIntel,60.60606061,5fa315662ca5b25d05ae8236,68817205a84113384fffdfe3,688211e681035e867bb12644,,,,,,,,,,,,./stim/wavs/puertorican_mismatch_interrogative-total-yn_El-nino-oye-el-rio.wav,1,,,67.9898,70.1864,0,0,1.6653,,0,10,10,40,1,41,1,puertorican,,,,,,,,,,,,,,,,,,,,,,,,,,,,,,,,,,,,,,,,,,,,,,,,,,,,,,,,
,,,,,,,,,5fa315662ca5b25d05ae8236,spanish,13 or older,"yes, I am fluent in another language",no,2025-07-24_06h59.31.359,empathy_intonation_perc_control,2024.2.4,MacIntel,60.60606061,5fa315662ca5b25d05ae8236,68817205a84113384fffdfe3,688211e681035e867bb12644,,,,,,,,,,,,./stim/wavs/cuban_match_interrogative-total-yn_Marta-abre-el-regalo.wav,1,,,70.1867,72.1403,0,0,1.4348,,0,11,11,11,1,12,1,cuban,,,,,,,,,,,,,,,,,,,,,,,,,,,,,,,,,,,,,,,,,,,,,,,,,,,,,,,,
,,,,,,,,,5fa315662ca5b25d05ae8236,spanish,13 or older,"yes, I am fluent in another language",no,2025-07-24_06h59.31.359,empathy_intonation_perc_control,2024.2.4,MacIntel,60.60606061,5fa315662ca5b25d05ae8236,68817205a84113384fffdfe3,688211e681035e867bb12644,,,,,,,,,,,,./stim/wavs/mexican_match_declarative-broad-focus_Ana-lleva-el-abrigo.wav,0,,,72.1408,73.8048,0,1,1.1337,,0,12,12,56,1,57,0,mexican,,,,,,,,,,,,,,,,,,,,,,,,,,,,,,,,,,,,,,,,,,,,,,,,,,,,,,,,
,,,,,,,,,5fa315662ca5b25d05ae8236,spanish,13 or older,"yes, I am fluent in another language",no,2025-07-24_06h59.31.359,empathy_intonation_perc_control,2024.2.4,MacIntel,60.60606061,5fa315662ca5b25d05ae8236,68817205a84113384fffdfe3,688211e681035e867bb12644,,,,,,,,,,,,./stim/wavs/puertorican_match_interrogative-total-yn_Daniel-iba-a-Bolivia.wav,1,,,73.8052,75.673,0,0,1.3396,,0,13,13,19,1,20,1,puertorican,,,,,,,,,,,,,,,,,,,,,,,,,,,,,,,,,,,,,,,,,,,,,,,,,,,,,,,,
,,,,,,,,,5fa315662ca5b25d05ae8236,spanish,13 or older,"yes, I am fluent in another language",no,2025-07-24_06h59.31.359,empathy_intonation_perc_control,2024.2.4,MacIntel,60.60606061,5fa315662ca5b25d05ae8236,68817205a84113384fffdfe3,688211e681035e867bb12644,,,,,,,,,,,,./stim/wavs/puertorican_match_declarative-broad-focus_Maria-bebe-el-vino.wav,0,,,75.6732,77.4513,0,1,1.2466,,0,14,14,67,1,68,0,puertorican,,,,,,,,,,,,,,,,,,,,,,,,,,,,,,,,,,,,,,,,,,,,,,,,,,,,,,,,
,,,,,,,,,5fa315662ca5b25d05ae8236,spanish,13 or older,"yes, I am fluent in another language",no,2025-07-24_06h59.31.359,empathy_intonation_perc_control,2024.2.4,MacIntel,60.60606061,5fa315662ca5b25d05ae8236,68817205a84113384fffdfe3,688211e681035e867bb12644,,,,,,,,,,,,./stim/wavs/castilian_mismatch_declarative-broad-focus_La-maestra-vive-en-Paris.wav,0,,,77.4516,79.6231,0,1,1.6488,,0,15,15,69,1,70,0,castilian,,,,,,,,,,,,,,,,,,,,,,,,,,,,,,,,,,,,,,,,,,,,,,,,,,,,,,,,
,,,,,,,,,5fa315662ca5b25d05ae8236,spanish,13 or older,"yes, I am fluent in another language",no,2025-07-24_06h59.31.359,empathy_intonation_perc_control,2024.2.4,MacIntel,60.60606061,5fa315662ca5b25d05ae8236,68817205a84113384fffdfe3,688211e681035e867bb12644,,,,,,,,,,,,./stim/wavs/castilian_match_interrogative-total-yn_Maria-bebe-el-vino.wav,1,,,79.6235,81.6092,1,1,1.4527,,0,16,16,3,1,4,0,castilian,,,,,,,,,,,,,,,,,,,,,,,,,,,,,,,,,,,,,,,,,,,,,,,,,,,,,,,,
,,,,,,,,,5fa315662ca5b25d05ae8236,spanish,13 or older,"yes, I am fluent in another language",no,2025-07-24_06h59.31.359,empathy_intonation_perc_control,2024.2.4,MacIntel,60.60606061,5fa315662ca5b25d05ae8236,68817205a84113384fffdfe3,688211e681035e867bb12644,,,,,,,,,,,,./stim/wavs/cuban_match_declarative-broad-focus_Mariano-habla-del-tiempo.wav,0,,,81.6096,83.5749,0,1,1.4363,,0,17,17,54,1,55,0,cuban,,,,,,,,,,,,,,,,,,,,,,,,,,,,,,,,,,,,,,,,,,,,,,,,,,,,,,,,
,,,,,,,,,5fa315662ca5b25d05ae8236,spanish,13 or older,"yes, I am fluent in another language",no,2025-07-24_06h59.31.359,empathy_intonation_perc_control,2024.2.4,MacIntel,60.60606061,5fa315662ca5b25d05ae8236,68817205a84113384fffdfe3,688211e681035e867bb12644,,,,,,,,,,,,./stim/wavs/castilian_mismatch_declarative-broad-focus_Mi-novio-viene-del-lago.wav,0,,,83.5751,85.7228,0,1,1.6183,,0,18,18,71,1,72,0,castilian,,,,,,,,,,,,,,,,,,,,,,,,,,,,,,,,,,,,,,,,,,,,,,,,,,,,,,,,
,,,,,,,,,5fa315662ca5b25d05ae8236,spanish,13 or older,"yes, I am fluent in another language",no,2025-07-24_06h59.31.359,empathy_intonation_perc_control,2024.2.4,MacIntel,60.60606061,5fa315662ca5b25d05ae8236,68817205a84113384fffdfe3,688211e681035e867bb12644,,,,,,,,,,,,./stim/wavs/puertorican_match_declarative-broad-focus_Daniel-iba-a-Bolivia.wav,0,,,85.7231,87.6064,0,1,1.3519,,0,19,19,63,1,64,0,puertorican,,,,,,,,,,,,,,,,,,,,,,,,,,,,,,,,,,,,,,,,,,,,,,,,,,,,,,,,
,,,,,,,,,5fa315662ca5b25d05ae8236,spanish,13 or older,"yes, I am fluent in another language",no,2025-07-24_06h59.31.359,empathy_intonation_perc_control,2024.2.4,MacIntel,60.60606061,5fa315662ca5b25d05ae8236,68817205a84113384fffdfe3,688211e681035e867bb12644,,,,,,,,,,,,./stim/wavs/mexican_match_interrogative-total-yn_Daniel-iba-a-Bolivia.wav,1,,,87.6067,89.5739,1,1,1.4358,,0,20,20,13,1,14,0,mexican,,,,,,,,,,,,,,,,,,,,,,,,,,,,,,,,,,,,,,,,,,,,,,,,,,,,,,,,
,,,,,,,,,5fa315662ca5b25d05ae8236,spanish,13 or older,"yes, I am fluent in another language",no,2025-07-24_06h59.31.359,empathy_intonation_perc_control,2024.2.4,MacIntel,60.60606061,5fa315662ca5b25d05ae8236,68817205a84113384fffdfe3,688211e681035e867bb12644,,,,,,,,,,,,./stim/wavs/castilian_mismatch_declarative-broad-focus_Mi-tia-odia-la-lluvia.wav,0,,,89.5742,91.6392,0,1,1.5346,,0,21,21,72,1,73,0,castilian,,,,,,,,,,,,,,,,,,,,,,,,,,,,,,,,,,,,,,,,,,,,,,,,,,,,,,,,
,,,,,,,,,5fa315662ca5b25d05ae8236,spanish,13 or older,"yes, I am fluent in another language",no,2025-07-24_06h59.31.359,empathy_intonation_perc_control,2024.2.4,MacIntel,60.60606061,5fa315662ca5b25d05ae8236,68817205a84113384fffdfe3,688211e681035e867bb12644,,,,,,,,,,,,./stim/wavs/castilian_match_declarative-broad-focus_Marta-abre-el-regalo.wav,0,,,91.6396,93.6722,0,1,1.5012,,0,22,22,49,1,50,0,castilian,,,,,,,,,,,,,,,,,,,,,,,,,,,,,,,,,,,,,,,,,,,,,,,,,,,,,,,,
,,,,,,,,,5fa315662ca5b25d05ae8236,spanish,13 or older,"yes, I am fluent in another language",no,2025-07-24_06h59.31.359,empathy_intonation_perc_control,2024.2.4,MacIntel,60.60606061,5fa315662ca5b25d05ae8236,68817205a84113384fffdfe3,688211e681035e867bb12644,,,,,,,,,,,,./stim/wavs/mexican_match_interrogative-total-yn_Marta-abre-el-regalo.wav,1,,,93.6725,95.4423,0,0,1.24,,0,23,23,17,1,18,0,mexican,,,,,,,,,,,,,,,,,,,,,,,,,,,,,,,,,,,,,,,,,,,,,,,,,,,,,,,,
,,,,,,,,,5fa315662ca5b25d05ae8236,spanish,13 or older,"yes, I am fluent in another language",no,2025-07-24_06h59.31.359,empathy_intonation_perc_control,2024.2.4,MacIntel,60.60606061,5fa315662ca5b25d05ae8236,68817205a84113384fffdfe3,688211e681035e867bb12644,,,,,,,,,,,,./stim/wavs/castilian_match_declarative-broad-focus_David-leia-el-libro.wav,0,,,95.4428,97.6065,0,1,1.6324,,0,24,24,44,1,45,0,castilian,,,,,,,,,,,,,,,,,,,,,,,,,,,,,,,,,,,,,,,,,,,,,,,,,,,,,,,,
,,,,,,,,,5fa315662ca5b25d05ae8236,spanish,13 or older,"yes, I am fluent in another language",no,2025-07-24_06h59.31.359,empathy_intonation_perc_control,2024.2.4,MacIntel,60.60606061,5fa315662ca5b25d05ae8236,68817205a84113384fffdfe3,688211e681035e867bb12644,,,,,,,,,,,,./stim/wavs/mexican_mismatch_interrogative-total-yn_Mi-novio-viene-del-lago.wav,1,,,97.6069,99.6701,1,1,1.5333,,0,25,25,37,1,38,0,mexican,,,,,,,,,,,,,,,,,,,,,,,,,,,,,,,,,,,,,,,,,,,,,,,,,,,,,,,,
,,,,,,,,,5fa315662ca5b25d05ae8236,spanish,13 or older,"yes, I am fluent in another language",no,2025-07-24_06h59.31.359,empathy_intonation_perc_control,2024.2.4,MacIntel,60.60606061,5fa315662ca5b25d05ae8236,68817205a84113384fffdfe3,688211e681035e867bb12644,,,,,,,,,,,,./stim/wavs/puertorican_mismatch_declarative-broad-focus_La-nina-lava-el-plato.wav,0,,,99.6704,101.4728,0,1,1.2846,,0,26,26,87,1,88,0,puertorican,,,,,,,,,,,,,,,,,,,,,,,,,,,,,,,,,,,,,,,,,,,,,,,,,,,,,,,,
,,,,,,,,,5fa315662ca5b25d05ae8236,spanish,13 or older,"yes, I am fluent in another language",no,2025-07-24_06h59.31.359,empathy_intonation_perc_control,2024.2.4,MacIntel,60.60606061,5fa315662ca5b25d05ae8236,68817205a84113384fffdfe3,688211e681035e867bb12644,,,,,,,,,,,,./stim/wavs/cuban_mismatch_interrogative-total-yn_Mi-novio-viene-del-lago.wav,1,,,101.4731,103.4731,0,0,1.4684,,0,27,27,32,1,33,1,cuban,,,,,,,,,,,,,,,,,,,,,,,,,,,,,,,,,,,,,,,,,,,,,,,,,,,,,,,,
,,,,,,,,,5fa315662ca5b25d05ae8236,spanish,13 or older,"yes, I am fluent in another language",no,2025-07-24_06h59.31.359,empathy_intonation_perc_control,2024.2.4,MacIntel,60.60606061,5fa315662ca5b25d05ae8236,68817205a84113384fffdfe3,688211e681035e867bb12644,,,,,,,,,,,,./stim/wavs/puertorican_match_interrogative-total-yn_Emilio-ama-la-marcha.wav,1,,,103.4735,105.3905,0,0,1.3857,,0,28,28,21,1,22,1,puertorican,,,,,,,,,,,,,,,,,,,,,,,,,,,,,,,,,,,,,,,,,,,,,,,,,,,,,,,,
,,,,,,,,,5fa315662ca5b25d05ae8236,spanish,13 or older,"yes, I am fluent in another language",no,2025-07-24_06h59.31.359,empathy_intonation_perc_control,2024.2.4,MacIntel,60.60606061,5fa315662ca5b25d05ae8236,68817205a84113384fffdfe3,688211e681035e867bb12644,,,,,,,,,,,,./stim/wavs/mexican_mismatch_interrogative-total-yn_El-hombre-mira-la-luna.wav,1,,,105.3909,107.2575,1,1,1.3349,,0,29,29,34,1,35,0,mexican,,,,,,,,,,,,,,,,,,,,,,,,,,,,,,,,,,,,,,,,,,,,,,,,,,,,,,,,
,,,,,,,,,5fa315662ca5b25d05ae8236,spanish,13 or older,"yes, I am fluent in another language",no,2025-07-24_06h59.31.359,empathy_intonation_perc_control,2024.2.4,MacIntel,60.60606061,5fa315662ca5b25d05ae8236,68817205a84113384fffdfe3,688211e681035e867bb12644,,,,,,,,,,,,./stim/wavs/puertorican_match_declarative-broad-focus_Emilio-ama-la-marcha.wav,0,,,107.2578,109.1461,0,1,1.3571,,0,30,30,65,1,66,0,puertorican,,,,,,,,,,,,,,,,,,,,,,,,,,,,,,,,,,,,,,,,,,,,,,,,,,,,,,,,
,,,,,,,,,5fa315662ca5b25d05ae8236,spanish,13 or older,"yes, I am fluent in another language",no,2025-07-24_06h59.31.359,empathy_intonation_perc_control,2024.2.4,MacIntel,60.60606061,5fa315662ca5b25d05ae8236,68817205a84113384fffdfe3,688211e681035e867bb12644,,,,,,,,,,,,./stim/wavs/cuban_mismatch_declarative-broad-focus_El-hombre-mira-la-luna.wav,0,,,109.1465,110.9155,0,1,1.242,,0,31,31,74,1,75,0,cuban,,,,,,,,,,,,,,,,,,,,,,,,,,,,,,,,,,,,,,,,,,,,,,,,,,,,,,,,
,,,,,,,,,5fa315662ca5b25d05ae8236,spanish,13 or older,"yes, I am fluent in another language",no,2025-07-24_06h59.31.359,empathy_intonation_perc_control,2024.2.4,MacIntel,60.60606061,5fa315662ca5b25d05ae8236,68817205a84113384fffdfe3,688211e681035e867bb12644,,,,,,,,,,,,./stim/wavs/castilian_match_declarative-broad-focus_Manuela-vende-el-carro.wav,0,,,110.9158,113.1393,0,1,1.6923,,0,32,32,46,1,47,0,castilian,,,,,,,,,,,,,,,,,,,,,,,,,,,,,,,,,,,,,,,,,,,,,,,,,,,,,,,,
,,,,,,,,,5fa315662ca5b25d05ae8236,spanish,13 or older,"yes, I am fluent in another language",no,2025-07-24_06h59.31.359,empathy_intonation_perc_control,2024.2.4,MacIntel,60.60606061,5fa315662ca5b25d05ae8236,68817205a84113384fffdfe3,688211e681035e867bb12644,,,,,,,,,,,,./stim/wavs/puertorican_mismatch_interrogative-total-yn_La-nina-lava-el-plato.wav,1,,,113.1397,114.9902,0,0,1.3171,,0,33,33,42,1,43,1,puertorican,,,,,,,,,,,,,,,,,,,,,,,,,,,,,,,,,,,,,,,,,,,,,,,,,,,,,,,,
,,,,,,,,,5fa315662ca5b25d05ae8236,spanish,13 or older,"yes, I am fluent in another language",no,2025-07-24_06h59.31.359,empathy_intonation_perc_control,2024.2.4,MacIntel,60.60606061,5fa315662ca5b25d05ae8236,68817205a84113384fffdfe3,688211e681035e867bb12644,,,,,,,,,,,,./stim/wavs/castilian_match_declarative-broad-focus_Maria-bebe-el-vino.wav,0,,,114.9905,116.9745,0,1,1.4555,,0,34,34,47,1,48,0,castilian,,,,,,,,,,,,,,,,,,,,,,,,,,,,,,,,,,,,,,,,,,,,,,,,,,,,,,,,
,,,,,,,,,5fa315662ca5b25d05ae8236,spanish,13 or older,"yes, I am fluent in another language",no,2025-07-24_06h59.31.359,empathy_intonation_perc_control,2024.2.4,MacIntel,60.60606061,5fa315662ca5b25d05ae8236,68817205a84113384fffdfe3,688211e681035e867bb12644,,,,,,,,,,,,./stim/wavs/mexican_mismatch_interrogative-total-yn_El-nino-oye-el-rio.wav,1,,,116.9747,118.7928,1,1,1.2866,,0,35,35,35,1,36,0,mexican,,,,,,,,,,,,,,,,,,,,,,,,,,,,,,,,,,,,,,,,,,,,,,,,,,,,,,,,
,,,,,,,,,5fa315662ca5b25d05ae8236,spanish,13 or older,"yes, I am fluent in another language",no,2025-07-24_06h59.31.359,empathy_intonation_perc_control,2024.2.4,MacIntel,60.60606061,5fa315662ca5b25d05ae8236,68817205a84113384fffdfe3,688211e681035e867bb12644,,,,,,,,,,,,./stim/wavs/castilian_mismatch_interrogative-total-yn_Mi-novio-viene-del-lago.wav,1,,,118.793,120.8097,0,0,1.4878,,0,36,36,27,1,28,0,castilian,,,,,,,,,,,,,,,,,,,,,,,,,,,,,,,,,,,,,,,,,,,,,,,,,,,,,,,,
,,,,,,,,,5fa315662ca5b25d05ae8236,spanish,13 or older,"yes, I am fluent in another language",no,2025-07-24_06h59.31.359,empathy_intonation_perc_control,2024.2.4,MacIntel,60.60606061,5fa315662ca5b25d05ae8236,68817205a84113384fffdfe3,688211e681035e867bb12644,,,,,,,,,,,,./stim/wavs/castilian_mismatch_declarative-broad-focus_La-nina-lava-el-plato.wav,0,,,120.8102,122.9567,0,1,1.6167,,0,37,37,70,1,71,0,castilian,,,,,,,,,,,,,,,,,,,,,,,,,,,,,,,,,,,,,,,,,,,,,,,,,,,,,,,,
,,,,,,,,,5fa315662ca5b25d05ae8236,spanish,13 or older,"yes, I am fluent in another language",no,2025-07-24_06h59.31.359,empathy_intonation_perc_control,2024.2.4,MacIntel,60.60606061,5fa315662ca5b25d05ae8236,68817205a84113384fffdfe3,688211e681035e867bb12644,,,,,,,,,,,,./stim/wavs/castilian_match_interrogative-total-yn_Mariano-habla-del-tiempo.wav,1,,,122.957,124.9072,1,1,1.4192,,0,38,38,4,1,5,0,castilian,,,,,,,,,,,,,,,,,,,,,,,,,,,,,,,,,,,,,,,,,,,,,,,,,,,,,,,,
,,,,,,,,,5fa315662ca5b25d05ae8236,spanish,13 or older,"yes, I am fluent in another language",no,2025-07-24_06h59.31.359,empathy_intonation_perc_control,2024.2.4,MacIntel,60.60606061,5fa315662ca5b25d05ae8236,68817205a84113384fffdfe3,688211e681035e867bb12644,,,,,,,,,,,,./stim/wavs/mexican_match_declarative-broad-focus_Daniel-iba-a-Bolivia.wav,0,,,124.9075,126.7723,0,1,1.335,,0,39,39,57,1,58,0,mexican,,,,,,,,,,,,,,,,,,,,,,,,,,,,,,,,,,,,,,,,,,,,,,,,,,,,,,,,
,,,,,,,,,5fa315662ca5b25d05ae8236,spanish,13 or older,"yes, I am fluent in another language",no,2025-07-24_06h59.31.359,empathy_intonation_perc_control,2024.2.4,MacIntel,60.60606061,5fa315662ca5b25d05ae8236,68817205a84113384fffdfe3,688211e681035e867bb12644,,,,,,,,,,,,./stim/wavs/puertorican_mismatch_interrogative-total-yn_Mi-madre-come-la-fruta.wav,1,,,126.7725,128.7093,0,0,1.4052,,0,40,40,43,1,44,1,puertorican,,,,,,,,,,,,,,,,,,,,,,,,,,,,,,,,,,,,,,,,,,,,,,,,,,,,,,,,
,,,,,,,,,5fa315662ca5b25d05ae8236,spanish,13 or older,"yes, I am fluent in another language",no,2025-07-24_06h59.31.359,empathy_intonation_perc_control,2024.2.4,MacIntel,60.60606061,5fa315662ca5b25d05ae8236,68817205a84113384fffdfe3,688211e681035e867bb12644,,,,,,,,,,,,./stim/wavs/mexican_match_interrogative-total-yn_Mariano-habla-del-tiempo.wav,1,,,128.7096,130.5098,0,0,1.2725,,0,41,41,16,1,17,0,mexican,,,,,,,,,,,,,,,,,,,,,,,,,,,,,,,,,,,,,,,,,,,,,,,,,,,,,,,,
,,,,,,,,,5fa315662ca5b25d05ae8236,spanish,13 or older,"yes, I am fluent in another language",no,2025-07-24_06h59.31.359,empathy_intonation_perc_control,2024.2.4,MacIntel,60.60606061,5fa315662ca5b25d05ae8236,68817205a84113384fffdfe3,688211e681035e867bb12644,,,,,,,,,,,,./stim/wavs/cuban_mismatch_declarative-broad-focus_El-bebe-comia-muy-bien.wav,0,,,130.5102,132.4906,0,1,1.4523,,0,42,42,73,1,74,0,cuban,,,,,,,,,,,,,,,,,,,,,,,,,,,,,,,,,,,,,,,,,,,,,,,,,,,,,,,,
,,,,,,,,,5fa315662ca5b25d05ae8236,spanish,13 or older,"yes, I am fluent in another language",no,2025-07-24_06h59.31.359,empathy_intonation_perc_control,2024.2.4,MacIntel,60.60606061,5fa315662ca5b25d05ae8236,68817205a84113384fffdfe3,688211e681035e867bb12644,,,,,,,,,,,,./stim/wavs/mexican_mismatch_interrogative-total-yn_Mi-tia-odia-la-lluvia.wav,1,,,132.4909,134.4259,1,1,1.4181,,0,43,43,38,1,39,0,mexican,,,,,,,,,,,,,,,,,,,,,,,,,,,,,,,,,,,,,,,,,,,,,,,,,,,,,,,,
,,,,,,,,,5fa315662ca5b25d05ae8236,spanish,13 or older,"yes, I am fluent in another language",no,2025-07-24_06h59.31.359,empathy_intonation_perc_control,2024.2.4,MacIntel,60.60606061,5fa315662ca5b25d05ae8236,68817205a84113384fffdfe3,688211e681035e867bb12644,,,,,,,,,,,,./stim/wavs/cuban_mismatch_interrogative-total-yn_Mi-tia-odia-la-lluvia.wav,1,,,134.4262,136.3081,1,1,1.3527,,0,44,44,33,1,34,1,cuban,,,,,,,,,,,,,,,,,,,,,,,,,,,,,,,,,,,,,,,,,,,,,,,,,,,,,,,,
,,,,,,,,,5fa315662ca5b25d05ae8236,spanish,13 or older,"yes, I am fluent in another language",no,2025-07-24_06h59.31.359,empathy_intonation_perc_control,2024.2.4,MacIntel,60.60606061,5fa315662ca5b25d05ae8236,68817205a84113384fffdfe3,688211e681035e867bb12644,,,,,,,,,,,,./stim/wavs/mexican_mismatch_interrogative-total-yn_La-maestra-vive-en-Paris.wav,1,,,136.3084,138.3723,1,1,1.5347,,0,45,45,36,1,37,0,mexican,,,,,,,,,,,,,,,,,,,,,,,,,,,,,,,,,,,,,,,,,,,,,,,,,,,,,,,,
,,,,,,,,,5fa315662ca5b25d05ae8236,spanish,13 or older,"yes, I am fluent in another language",no,2025-07-24_06h59.31.359,empathy_intonation_perc_control,2024.2.4,MacIntel,60.60606061,5fa315662ca5b25d05ae8236,68817205a84113384fffdfe3,688211e681035e867bb12644,,,,,,,,,,,,./stim/wavs/puertorican_match_declarative-broad-focus_David-leia-el-libro.wav,0,,,138.3726,140.2745,0,1,1.3714,,0,46,46,64,1,65,0,puertorican,,,,,,,,,,,,,,,,,,,,,,,,,,,,,,,,,,,,,,,,,,,,,,,,,,,,,,,,
,,,,,,,,,5fa315662ca5b25d05ae8236,spanish,13 or older,"yes, I am fluent in another language",no,2025-07-24_06h59.31.359,empathy_intonation_perc_control,2024.2.4,MacIntel,60.60606061,5fa315662ca5b25d05ae8236,68817205a84113384fffdfe3,688211e681035e867bb12644,,,,,,,,,,,,./stim/wavs/cuban_match_interrogative-total-yn_Daniel-iba-a-Bolivia.wav,1,,,140.2748,142.7819,0,0,1.9734,,0,47,47,7,1,8,1,cuban,,,,,,,,,,,,,,,,,,,,,,,,,,,,,,,,,,,,,,,,,,,,,,,,,,,,,,,,
,,,,,,,,,5fa315662ca5b25d05ae8236,spanish,13 or older,"yes, I am fluent in another language",no,2025-07-24_06h59.31.359,empathy_intonation_perc_control,2024.2.4,MacIntel,60.60606061,5fa315662ca5b25d05ae8236,68817205a84113384fffdfe3,688211e681035e867bb12644,,,,,,,,,,,,./stim/wavs/castilian_mismatch_interrogative-total-yn_Mi-madre-come-la-fruta.wav,1,,,142.7823,144.9068,1,1,1.5995,,0,48,48,26,1,27,0,castilian,,,,,,,,,,,,,,,,,,,,,,,,,,,,,,,,,,,,,,,,,,,,,,,,,,,,,,,,
,,,,,,,,,5fa315662ca5b25d05ae8236,spanish,13 or older,"yes, I am fluent in another language",no,2025-07-24_06h59.31.359,empathy_intonation_perc_control,2024.2.4,MacIntel,60.60606061,5fa315662ca5b25d05ae8236,68817205a84113384fffdfe3,688211e681035e867bb12644,,,,,,,,,,,,./stim/wavs/cuban_mismatch_declarative-broad-focus_La-nina-lava-el-plato.wav,0,,,144.9071,146.7903,0,1,1.3501,,0,49,49,75,1,76,0,cuban,,,,,,,,,,,,,,,,,,,,,,,,,,,,,,,,,,,,,,,,,,,,,,,,,,,,,,,,
,,,,,,,,,5fa315662ca5b25d05ae8236,spanish,13 or older,"yes, I am fluent in another language",no,2025-07-24_06h59.31.359,empathy_intonation_perc_control,2024.2.4,MacIntel,60.60606061,5fa315662ca5b25d05ae8236,68817205a84113384fffdfe3,688211e681035e867bb12644,,,,,,,,,,,,./stim/wavs/mexican_mismatch_declarative-broad-focus_El-bebe-comia-muy-bien.wav,0,,,146.7906,148.9402,0,1,1.622,,0,50,50,78,1,79,0,mexican,,,,,,,,,,,,,,,,,,,,,,,,,,,,,,,,,,,,,,,,,,,,,,,,,,,,,,,,
,,,,,,,,,5fa315662ca5b25d05ae8236,spanish,13 or older,"yes, I am fluent in another language",no,2025-07-24_06h59.31.359,empathy_intonation_perc_control,2024.2.4,MacIntel,60.60606061,5fa315662ca5b25d05ae8236,68817205a84113384fffdfe3,688211e681035e867bb12644,,,,,,,,,,,,./stim/wavs/castilian_mismatch_interrogative-total-yn_La-nina-lava-el-plato.wav,1,,,148.9406,150.675,1,1,1.2181,,0,51,51,25,1,26,0,castilian,,,,,,,,,,,,,,,,,,,,,,,,,,,,,,,,,,,,,,,,,,,,,,,,,,,,,,,,
,,,,,,,,,5fa315662ca5b25d05ae8236,spanish,13 or older,"yes, I am fluent in another language",no,2025-07-24_06h59.31.359,empathy_intonation_perc_control,2024.2.4,MacIntel,60.60606061,5fa315662ca5b25d05ae8236,68817205a84113384fffdfe3,688211e681035e867bb12644,,,,,,,,,,,,./stim/wavs/cuban_match_interrogative-total-yn_Ana-lleva-el-abrigo.wav,1,,,150.6754,152.4753,0,0,1.2701,,0,52,52,6,1,7,1,cuban,,,,,,,,,,,,,,,,,,,,,,,,,,,,,,,,,,,,,,,,,,,,,,,,,,,,,,,,
,,,,,,,,,5fa315662ca5b25d05ae8236,spanish,13 or older,"yes, I am fluent in another language",no,2025-07-24_06h59.31.359,empathy_intonation_perc_control,2024.2.4,MacIntel,60.60606061,5fa315662ca5b25d05ae8236,68817205a84113384fffdfe3,688211e681035e867bb12644,,,,,,,,,,,,./stim/wavs/cuban_match_declarative-broad-focus_Ana-lleva-el-abrigo.wav,0,,,152.4756,153.854,0,1,0.8472,,0,53,53,50,1,51,0,cuban,,,,,,,,,,,,,,,,,,,,,,,,,,,,,,,,,,,,,,,,,,,,,,,,,,,,,,,,
,,,,,,,,,5fa315662ca5b25d05ae8236,spanish,13 or older,"yes, I am fluent in another language",no,2025-07-24_06h59.31.359,empathy_intonation_perc_control,2024.2.4,MacIntel,60.60606061,5fa315662ca5b25d05ae8236,68817205a84113384fffdfe3,688211e681035e867bb12644,,,,,,,,,,,,./stim/wavs/mexican_match_declarative-broad-focus_Emilio-ama-la-marcha.wav,0,,,153.8542,155.8543,0,1,1.4834,,0,54,54,59,1,60,0,mexican,,,,,,,,,,,,,,,,,,,,,,,,,,,,,,,,,,,,,,,,,,,,,,,,,,,,,,,,
,,,,,,,,,5fa315662ca5b25d05ae8236,spanish,13 or older,"yes, I am fluent in another language",no,2025-07-24_06h59.31.359,empathy_intonation_perc_control,2024.2.4,MacIntel,60.60606061,5fa315662ca5b25d05ae8236,68817205a84113384fffdfe3,688211e681035e867bb12644,,,,,,,,,,,,./stim/wavs/puertorican_mismatch_interrogative-total-yn_El-hombre-mira-la-luna.wav,1,,,155.8546,157.709,0,0,1.3365,,0,55,55,39,1,40,1,puertorican,,,,,,,,,,,,,,,,,,,,,,,,,,,,,,,,,,,,,,,,,,,,,,,,,,,,,,,,
,,,,,,,,,5fa315662ca5b25d05ae8236,spanish,13 or older,"yes, I am fluent in another language",no,2025-07-24_06h59.31.359,empathy_intonation_perc_control,2024.2.4,MacIntel,60.60606061,5fa315662ca5b25d05ae8236,68817205a84113384fffdfe3,688211e681035e867bb12644,,,,,,,,,,,,./stim/wavs/puertorican_mismatch_declarative-broad-focus_El-bebe-comia-muy-bien.wav,0,,,157.7094,159.4746,0,1,1.2358,,0,56,56,83,1,84,0,puertorican,,,,,,,,,,,,,,,,,,,,,,,,,,,,,,,,,,,,,,,,,,,,,,,,,,,,,,,,
,,,,,,,,,5fa315662ca5b25d05ae8236,spanish,13 or older,"yes, I am fluent in another language",no,2025-07-24_06h59.31.359,empathy_intonation_perc_control,2024.2.4,MacIntel,60.60606061,5fa315662ca5b25d05ae8236,68817205a84113384fffdfe3,688211e681035e867bb12644,,,,,,,,,,,,./stim/wavs/cuban_match_interrogative-total-yn_Manuela-vende-el-carro.wav,1,,,159.4749,161.3263,0,0,1.3229,,0,57,57,8,1,9,1,cuban,,,,,,,,,,,,,,,,,,,,,,,,,,,,,,,,,,,,,,,,,,,,,,,,,,,,,,,,
,,,,,,,,,5fa315662ca5b25d05ae8236,spanish,13 or older,"yes, I am fluent in another language",no,2025-07-24_06h59.31.359,empathy_intonation_perc_control,2024.2.4,MacIntel,60.60606061,5fa315662ca5b25d05ae8236,68817205a84113384fffdfe3,688211e681035e867bb12644,,,,,,,,,,,,./stim/wavs/puertorican_mismatch_interrogative-total-yn_La-maestra-vive-en-Paris.wav,1,,,161.3265,163.4964,0,0,1.6389,,0,58,58,41,1,42,1,puertorican,,,,,,,,,,,,,,,,,,,,,,,,,,,,,,,,,,,,,,,,,,,,,,,,,,,,,,,,
,,,,,,,,,5fa315662ca5b25d05ae8236,spanish,13 or older,"yes, I am fluent in another language",no,2025-07-24_06h59.31.359,empathy_intonation_perc_control,2024.2.4,MacIntel,60.60606061,5fa315662ca5b25d05ae8236,68817205a84113384fffdfe3,688211e681035e867bb12644,,,,,,,,,,,,./stim/wavs/cuban_mismatch_declarative-broad-focus_Mi-tia-odia-la-lluvia.wav,0,,,163.4966,165.5592,0,1,1.5387,,0,59,59,77,1,78,0,cuban,,,,,,,,,,,,,,,,,,,,,,,,,,,,,,,,,,,,,,,,,,,,,,,,,,,,,,,,
,,,,,,,,,5fa315662ca5b25d05ae8236,spanish,13 or older,"yes, I am fluent in another language",no,2025-07-24_06h59.31.359,empathy_intonation_perc_control,2024.2.4,MacIntel,60.60606061,5fa315662ca5b25d05ae8236,68817205a84113384fffdfe3,688211e681035e867bb12644,,,,,,,,,,,,./stim/wavs/mexican_mismatch_declarative-broad-focus_El-hombre-mira-la-luna.wav,0,,,165.5595,167.4425,0,1,1.3531,,0,60,60,79,1,80,0,mexican,,,,,,,,,,,,,,,,,,,,,,,,,,,,,,,,,,,,,,,,,,,,,,,,,,,,,,,,
,,,,,,,,,5fa315662ca5b25d05ae8236,spanish,13 or older,"yes, I am fluent in another language",no,2025-07-24_06h59.31.359,empathy_intonation_perc_control,2024.2.4,MacIntel,60.60606061,5fa315662ca5b25d05ae8236,68817205a84113384fffdfe3,688211e681035e867bb12644,,,,,,,,,,,,./stim/wavs/cuban_match_declarative-broad-focus_Maria-bebe-el-vino.wav,0,,,167.4428,169.325,0,1,1.3552,,0,61,61,53,1,54,0,cuban,,,,,,,,,,,,,,,,,,,,,,,,,,,,,,,,,,,,,,,,,,,,,,,,,,,,,,,,
,,,,,,,,,5fa315662ca5b25d05ae8236,spanish,13 or older,"yes, I am fluent in another language",no,2025-07-24_06h59.31.359,empathy_intonation_perc_control,2024.2.4,MacIntel,60.60606061,5fa315662ca5b25d05ae8236,68817205a84113384fffdfe3,688211e681035e867bb12644,,,,,,,,,,,,./stim/wavs/mexican_mismatch_declarative-broad-focus_Mi-novio-viene-del-lago.wav,0,,,169.3253,171.1251,0,1,1.2692,,0,62,62,81,1,82,0,mexican,,,,,,,,,,,,,,,,,,,,,,,,,,,,,,,,,,,,,,,,,,,,,,,,,,,,,,,,
,,,,,,,,,5fa315662ca5b25d05ae8236,spanish,13 or older,"yes, I am fluent in another language",no,2025-07-24_06h59.31.359,empathy_intonation_perc_control,2024.2.4,MacIntel,60.60606061,5fa315662ca5b25d05ae8236,68817205a84113384fffdfe3,688211e681035e867bb12644,,,,,,,,,,,,./stim/wavs/castilian_match_interrogative-total-yn_Marta-abre-el-regalo.wav,1,,,171.1254,173.2074,1,1,1.5605,,0,63,63,5,1,6,0,castilian,,,,,,,,,,,,,,,,,,,,,,,,,,,,,,,,,,,,,,,,,,,,,,,,,,,,,,,,
,,,,,,,,,5fa315662ca5b25d05ae8236,spanish,13 or older,"yes, I am fluent in another language",no,2025-07-24_06h59.31.359,empathy_intonation_perc_control,2024.2.4,MacIntel,60.60606061,5fa315662ca5b25d05ae8236,68817205a84113384fffdfe3,688211e681035e867bb12644,,,,,,,,,,,,./stim/wavs/mexican_match_interrogative-total-yn_Ana-lleva-el-abrigo.wav,1,,,173.2077,175.0923,1,1,1.3536,,0,64,64,12,1,13,0,mexican,,,,,,,,,,,,,,,,,,,,,,,,,,,,,,,,,,,,,,,,,,,,,,,,,,,,,,,,
,,,,,,,,,5fa315662ca5b25d05ae8236,spanish,13 or older,"yes, I am fluent in another language",no,2025-07-24_06h59.31.359,empathy_intonation_perc_control,2024.2.4,MacIntel,60.60606061,5fa315662ca5b25d05ae8236,68817205a84113384fffdfe3,688211e681035e867bb12644,,,,,,,,,,,,./stim/wavs/castilian_mismatch_declarative-broad-focus_El-nino-oye-el-rio.wav,0,,,175.0926,177.2226,0,1,1.6009,,0,65,65,68,1,69,0,castilian,,,,,,,,,,,,,,,,,,,,,,,,,,,,,,,,,,,,,,,,,,,,,,,,,,,,,,,,
,,,,,,,,,5fa315662ca5b25d05ae8236,spanish,13 or older,"yes, I am fluent in another language",no,2025-07-24_06h59.31.359,empathy_intonation_perc_control,2024.2.4,MacIntel,60.60606061,5fa315662ca5b25d05ae8236,68817205a84113384fffdfe3,688211e681035e867bb12644,,,,,,,,,,,,./stim/wavs/cuban_mismatch_interrogative-total-yn_El-nino-oye-el-rio.wav,1,,,177.2229,178.9431,0,0,1.1858,,0,66,66,30,1,31,1,cuban,,,,,,,,,,,,,,,,,,,,,,,,,,,,,,,,,,,,,,,,,,,,,,,,,,,,,,,,
,,,,,,,,,5fa315662ca5b25d05ae8236,spanish,13 or older,"yes, I am fluent in another language",no,2025-07-24_06h59.31.359,empathy_intonation_perc_control,2024.2.4,MacIntel,60.60606061,5fa315662ca5b25d05ae8236,68817205a84113384fffdfe3,688211e681035e867bb12644,,,,,,,,,,,,./stim/wavs/puertorican_match_declarative-broad-focus_Ana-lleva-el-abrigo.wav,0,,,178.9436,180.7254,0,1,1.2598,,0,67,67,62,1,63,0,puertorican,,,,,,,,,,,,,,,,,,,,,,,,,,,,,,,,,,,,,,,,,,,,,,,,,,,,,,,,
,,,,,,,,,5fa315662ca5b25d05ae8236,spanish,13 or older,"yes, I am fluent in another language",no,2025-07-24_06h59.31.359,empathy_intonation_perc_control,2024.2.4,MacIntel,60.60606061,5fa315662ca5b25d05ae8236,68817205a84113384fffdfe3,688211e681035e867bb12644,,,,,,,,,,,,./stim/wavs/cuban_match_interrogative-total-yn_Maria-bebe-el-vino.wav,1,,,180.7257,182.7103,0,0,1.4524,,0,68,68,9,1,10,1,cuban,,,,,,,,,,,,,,,,,,,,,,,,,,,,,,,,,,,,,,,,,,,,,,,,,,,,,,,,
,,,,,,,,,5fa315662ca5b25d05ae8236,spanish,13 or older,"yes, I am fluent in another language",no,2025-07-24_06h59.31.359,empathy_intonation_perc_control,2024.2.4,MacIntel,60.60606061,5fa315662ca5b25d05ae8236,68817205a84113384fffdfe3,688211e681035e867bb12644,,,,,,,,,,,,./stim/wavs/mexican_match_declarative-broad-focus_David-leia-el-libro.wav,0,,,182.7107,184.6064,0,1,1.3686,,0,69,69,58,1,59,0,mexican,,,,,,,,,,,,,,,,,,,,,,,,,,,,,,,,,,,,,,,,,,,,,,,,,,,,,,,,
,,,,,,,,,5fa315662ca5b25d05ae8236,spanish,13 or older,"yes, I am fluent in another language",no,2025-07-24_06h59.31.359,empathy_intonation_perc_control,2024.2.4,MacIntel,60.60606061,5fa315662ca5b25d05ae8236,68817205a84113384fffdfe3,688211e681035e867bb12644,,,,,,,,,,,,./stim/wavs/castilian_mismatch_interrogative-total-yn_La-maestra-vive-en-Paris.wav,1,,,184.6068,186.5991,1,1,1.4599,,0,70,70,24,1,25,0,castilian,,,,,,,,,,,,,,,,,,,,,,,,,,,,,,,,,,,,,,,,,,,,,,,,,,,,,,,,
,,,,,,,,,5fa315662ca5b25d05ae8236,spanish,13 or older,"yes, I am fluent in another language",no,2025-07-24_06h59.31.359,empathy_intonation_perc_control,2024.2.4,MacIntel,60.60606061,5fa315662ca5b25d05ae8236,68817205a84113384fffdfe3,688211e681035e867bb12644,,,,,,,,,,,,./stim/wavs/cuban_mismatch_interrogative-total-yn_Mi-madre-come-la-fruta.wav,1,,,186.5994,188.4768,0,0,1.3535,,0,71,71,31,1,32,1,cuban,,,,,,,,,,,,,,,,,,,,,,,,,,,,,,,,,,,,,,,,,,,,,,,,,,,,,,,,
,,,,,,,,,5fa315662ca5b25d05ae8236,spanish,13 or older,"yes, I am fluent in another language",no,2025-07-24_06h59.31.359,empathy_intonation_perc_control,2024.2.4,MacIntel,60.60606061,5fa315662ca5b25d05ae8236,68817205a84113384fffdfe3,688211e681035e867bb12644,,,,,,,,,,,,./stim/wavs/mexican_match_interrogative-total-yn_Emilio-ama-la-marcha.wav,1,,,188.4771,190.7412,1,1,1.7377,,0,72,72,15,1,16,0,mexican,,,,,,,,,,,,,,,,,,,,,,,,,,,,,,,,,,,,,,,,,,,,,,,,,,,,,,,,
,,,,,,,,,5fa315662ca5b25d05ae8236,spanish,13 or older,"yes, I am fluent in another language",no,2025-07-24_06h59.31.359,empathy_intonation_perc_control,2024.2.4,MacIntel,60.60606061,5fa315662ca5b25d05ae8236,68817205a84113384fffdfe3,688211e681035e867bb12644,,,,,,,,,,,,./stim/wavs/puertorican_match_interrogative-total-yn_Ana-lleva-el-abrigo.wav,1,,,190.7415,192.5231,0,0,1.2495,,0,73,73,18,1,19,1,puertorican,,,,,,,,,,,,,,,,,,,,,,,,,,,,,,,,,,,,,,,,,,,,,,,,,,,,,,,,
,,,,,,,,,5fa315662ca5b25d05ae8236,spanish,13 or older,"yes, I am fluent in another language",no,2025-07-24_06h59.31.359,empathy_intonation_perc_control,2024.2.4,MacIntel,60.60606061,5fa315662ca5b25d05ae8236,68817205a84113384fffdfe3,688211e681035e867bb12644,,,,,,,,,,,,./stim/wavs/castilian_match_declarative-broad-focus_Mariano-habla-del-tiempo.wav,0,,,192.5235,194.4825,0,1,1.4411,,0,74,74,48,1,49,0,castilian,,,,,,,,,,,,,,,,,,,,,,,,,,,,,,,,,,,,,,,,,,,,,,,,,,,,,,,,
,,,,,,,,,5fa315662ca5b25d05ae8236,spanish,13 or older,"yes, I am fluent in another language",no,2025-07-24_06h59.31.359,empathy_intonation_perc_control,2024.2.4,MacIntel,60.60606061,5fa315662ca5b25d05ae8236,68817205a84113384fffdfe3,688211e681035e867bb12644,,,,,,,,,,,,./stim/wavs/puertorican_match_interrogative-total-yn_Manuela-vende-el-carro.wav,1,,,194.4828,196.473,0,0,1.4695,,0,75,75,22,1,23,1,puertorican,,,,,,,,,,,,,,,,,,,,,,,,,,,,,,,,,,,,,,,,,,,,,,,,,,,,,,,,
,,,,,,,,,5fa315662ca5b25d05ae8236,spanish,13 or older,"yes, I am fluent in another language",no,2025-07-24_06h59.31.359,empathy_intonation_perc_control,2024.2.4,MacIntel,60.60606061,5fa315662ca5b25d05ae8236,68817205a84113384fffdfe3,688211e681035e867bb12644,,,,,,,,,,,,./stim/wavs/castilian_match_interrogative-total-yn_Manuela-vende-el-carro.wav,1,,,196.4733,198.5752,0,0,1.5688,,0,76,76,2,1,3,0,castilian,,,,,,,,,,,,,,,,,,,,,,,,,,,,,,,,,,,,,,,,,,,,,,,,,,,,,,,,
,,,,,,,,,5fa315662ca5b25d05ae8236,spanish,13 or older,"yes, I am fluent in another language",no,2025-07-24_06h59.31.359,empathy_intonation_perc_control,2024.2.4,MacIntel,60.60606061,5fa315662ca5b25d05ae8236,68817205a84113384fffdfe3,688211e681035e867bb12644,,,,,,,,,,,,./stim/wavs/cuban_match_declarative-broad-focus_Daniel-iba-a-Bolivia.wav,0,,,198.5755,200.5742,0,1,1.4689,,0,77,77,51,1,52,0,cuban,,,,,,,,,,,,,,,,,,,,,,,,,,,,,,,,,,,,,,,,,,,,,,,,,,,,,,,,
,,,,,,,,,5fa315662ca5b25d05ae8236,spanish,13 or older,"yes, I am fluent in another language",no,2025-07-24_06h59.31.359,empathy_intonation_perc_control,2024.2.4,MacIntel,60.60606061,5fa315662ca5b25d05ae8236,68817205a84113384fffdfe3,688211e681035e867bb12644,,,,,,,,,,,,./stim/wavs/puertorican_mismatch_declarative-broad-focus_El-nino-oye-el-rio.wav,0,,,200.5746,202.3919,0,1,1.2849,,0,78,78,85,1,86,0,puertorican,,,,,,,,,,,,,,,,,,,,,,,,,,,,,,,,,,,,,,,,,,,,,,,,,,,,,,,,
,,,,,,,,,5fa315662ca5b25d05ae8236,spanish,13 or older,"yes, I am fluent in another language",no,2025-07-24_06h59.31.359,empathy_intonation_perc_control,2024.2.4,MacIntel,60.60606061,5fa315662ca5b25d05ae8236,68817205a84113384fffdfe3,688211e681035e867bb12644,,,,,,,,,,,,./stim/wavs/puertorican_match_declarative-broad-focus_Manuela-vende-el-carro.wav,0,,,202.3922,204.2062,0,1,1.2859,,0,79,79,66,1,67,0,puertorican,,,,,,,,,,,,,,,,,,,,,,,,,,,,,,,,,,,,,,,,,,,,,,,,,,,,,,,,
,,,,,,,,,5fa315662ca5b25d05ae8236,spanish,13 or older,"yes, I am fluent in another language",no,2025-07-24_06h59.31.359,empathy_intonation_perc_control,2024.2.4,MacIntel,60.60606061,5fa315662ca5b25d05ae8236,68817205a84113384fffdfe3,688211e681035e867bb12644,,,,,,,,,,,,./stim/wavs/castilian_match_interrogative-total-yn_Emilio-ama-la-marcha.wav,1,,,204.2065,205.6926,1,1,0.9527,,0,80,80,1,1,2,0,castilian,,,,,,,,,,,,,,,,,,,,,,,,,,,,,,,,,,,,,,,,,,,,,,,,,,,,,,,,
,,,,,,,,,5fa315662ca5b25d05ae8236,spanish,13 or older,"yes, I am fluent in another language",no,2025-07-24_06h59.31.359,empathy_intonation_perc_control,2024.2.4,MacIntel,60.60606061,5fa315662ca5b25d05ae8236,68817205a84113384fffdfe3,688211e681035e867bb12644,,,,,,,,,,,,./stim/wavs/mexican_mismatch_declarative-broad-focus_La-maestra-vive-en-Paris.wav,0,,,205.693,207.6209,0,1,1.3962,,0,81,81,80,1,81,0,mexican,,,,,,,,,,,,,,,,,,,,,,,,,,,,,,,,,,,,,,,,,,,,,,,,,,,,,,,,
,,,,,,,,,5fa315662ca5b25d05ae8236,spanish,13 or older,"yes, I am fluent in another language",no,2025-07-24_06h59.31.359,empathy_intonation_perc_control,2024.2.4,MacIntel,60.60606061,5fa315662ca5b25d05ae8236,68817205a84113384fffdfe3,688211e681035e867bb12644,,,,,,,,,,,,./stim/wavs/cuban_match_declarative-broad-focus_Manuela-vende-el-carro.wav,0,,,207.6212,209.5521,0,1,1.4124,,0,82,82,52,1,53,0,cuban,,,,,,,,,,,,,,,,,,,,,,,,,,,,,,,,,,,,,,,,,,,,,,,,,,,,,,,,
,,,,,,,,,5fa315662ca5b25d05ae8236,spanish,13 or older,"yes, I am fluent in another language",no,2025-07-24_06h59.31.359,empathy_intonation_perc_control,2024.2.4,MacIntel,60.60606061,5fa315662ca5b25d05ae8236,68817205a84113384fffdfe3,688211e681035e867bb12644,,,,,,,,,,,,./stim/wavs/mexican_match_interrogative-total-yn_David-leia-el-libro.wav,1,,,209.5525,211.3717,0,0,1.3014,,0,83,83,14,1,15,0,mexican,,,,,,,,,,,,,,,,,,,,,,,,,,,,,,,,,,,,,,,,,,,,,,,,,,,,,,,,
,,,,,,,,,5fa315662ca5b25d05ae8236,spanish,13 or older,"yes, I am fluent in another language",no,2025-07-24_06h59.31.359,empathy_intonation_perc_control,2024.2.4,MacIntel,60.60606061,5fa315662ca5b25d05ae8236,68817205a84113384fffdfe3,688211e681035e867bb12644,,,,,,,,,,,,./stim/wavs/mexican_match_declarative-broad-focus_Marta-abre-el-regalo.wav,0,,,211.372,213.3241,0,1,1.4327,,0,84,84,61,1,62,0,mexican,,,,,,,,,,,,,,,,,,,,,,,,,,,,,,,,,,,,,,,,,,,,,,,,,,,,,,,,
,,,,,,,,,5fa315662ca5b25d05ae8236,spanish,13 or older,"yes, I am fluent in another language",no,2025-07-24_06h59.31.359,empathy_intonation_perc_control,2024.2.4,MacIntel,60.60606061,5fa315662ca5b25d05ae8236,68817205a84113384fffdfe3,688211e681035e867bb12644,,,,,,,,,,,,./stim/wavs/puertorican_mismatch_declarative-broad-focus_El-hombre-mira-la-luna.wav,0,,,213.3244,215.1671,0,1,1.3091,,0,85,85,84,1,85,0,puertorican,,,,,,,,,,,,,,,,,,,,,,,,,,,,,,,,,,,,,,,,,,,,,,,,,,,,,,,,
,,,,,,,,,5fa315662ca5b25d05ae8236,spanish,13 or older,"yes, I am fluent in another language",no,2025-07-24_06h59.31.359,empathy_intonation_perc_control,2024.2.4,MacIntel,60.60606061,5fa315662ca5b25d05ae8236,68817205a84113384fffdfe3,688211e681035e867bb12644,,,,,,,,,,,,./stim/wavs/cuban_mismatch_interrogative-total-yn_El-hombre-mira-la-luna.wav,1,,,215.1674,216.89,1,1,1.2004,,0,86,86,29,1,30,1,cuban,,,,,,,,,,,,,,,,,,,,,,,,,,,,,,,,,,,,,,,,,,,,,,,,,,,,,,,,
,,,,,,,,,5fa315662ca5b25d05ae8236,spanish,13 or older,"yes, I am fluent in another language",no,2025-07-24_06h59.31.359,empathy_intonation_perc_control,2024.2.4,MacIntel,60.60606061,5fa315662ca5b25d05ae8236,68817205a84113384fffdfe3,688211e681035e867bb12644,,,,,,,,,,,,./stim/wavs/castilian_mismatch_interrogative-total-yn_Mi-tia-odia-la-lluvia.wav,1,,,216.8902,218.8759,1,1,1.4601,,0,87,87,28,1,29,0,castilian,,,,,,,,,,,,,,,,,,,,,,,,,,,,,,,,,,,,,,,,,,,,,,,,,,,,,,,,
,,,,,,,"Great! Now we will move on. The next task consists of about 60 trials, in each of which you will see a string of letters. 
  
  Your task is to decide whether this is a real Spanish word or not.", (press the spacebar to continue),5fa315662ca5b25d05ae8236,spanish,13 or older,"yes, I am fluent in another language",no,2025-07-24_06h59.31.359,empathy_intonation_perc_control,2024.2.4,MacIntel,60.60606061,5fa315662ca5b25d05ae8236,68817205a84113384fffdfe3,688211e681035e867bb12644,,,,,,,,,,,,,,,,,,,,,,,,,,,,,,218.8815,223.6083,0,0,0,0,1,,,,,,,,,,,,,,,,,,,,,,,,,,,,,,,,,,,,,,,,,,,,,,,,,
,,,,,,,"If you think it is an existing Spanish word, you type '1' (for 'REAL'), and if you think it is not an existing Spanish word, you type '0' (for 'FAKE').", (press the spacebar to continue),5fa315662ca5b25d05ae8236,spanish,13 or older,"yes, I am fluent in another language",no,2025-07-24_06h59.31.359,empathy_intonation_perc_control,2024.2.4,MacIntel,60.60606061,5fa315662ca5b25d05ae8236,68817205a84113384fffdfe3,688211e681035e867bb12644,,,,,,,,,,,,,,,,,,,,,,,,,,,,,,223.6092,226.8042,0,1,1,1,1,,,,,,,,,,,,,,,,,,,,,,,,,,,,,,,,,,,,,,,,,,,,,,,,,
,,,,,,,"If you are sure that the word exists, even though you don’t know its exact meaning, you may still respond '1' (REAL). 
  
  But if you are not sure if it is an existing word, you should respond '0' (FAKE).
  
  Let's do a practice round...", (press the spacebar to continue),5fa315662ca5b25d05ae8236,spanish,13 or older,"yes, I am fluent in another language",no,2025-07-24_06h59.31.359,empathy_intonation_perc_control,2024.2.4,MacIntel,60.60606061,5fa315662ca5b25d05ae8236,68817205a84113384fffdfe3,688211e681035e867bb12644,,,,,,,,,,,,,,,,,,,,,,,,,,,,,,226.8054,230.2768,0,2,2,2,1,,,,,,,,,,,,,,,,,,,,,,,,,,,,,,,,,,,,,,,,,,,,,,,,,
,,,,,,,,,5fa315662ca5b25d05ae8236,spanish,13 or older,"yes, I am fluent in another language",no,2025-07-24_06h59.31.359,empathy_intonation_perc_control,2024.2.4,MacIntel,60.60606061,5fa315662ca5b25d05ae8236,68817205a84113384fffdfe3,688211e681035e867bb12644,,,,,,,,,,,,,0,,,,,,,,,,,,,,,,,,,,,,,,230.2827,232.6243,0,1,1.8022,,232.6245,233.6248,0,0,0,0,1,0,depiste,REAL,FAKE,,,,,,,,,,,,,,,,,,,,,,,,,,,,,,,,
,,,,,,,,,5fa315662ca5b25d05ae8236,spanish,13 or older,"yes, I am fluent in another language",no,2025-07-24_06h59.31.359,empathy_intonation_perc_control,2024.2.4,MacIntel,60.60606061,5fa315662ca5b25d05ae8236,68817205a84113384fffdfe3,688211e681035e867bb12644,,,,,,,,,,,,,1,,,,,,,,,,,,,,,,,,,,,,,,233.6256,235.2261,1,1,1.0702,,235.2262,236.2242,0,1,1,1,1,0,sí,REAL,FAKE,,,,,,,,,,,,,,,,,,,,,,,,,,,,,,,,
,,,,,,,,,5fa315662ca5b25d05ae8236,spanish,13 or older,"yes, I am fluent in another language",no,2025-07-24_06h59.31.359,empathy_intonation_perc_control,2024.2.4,MacIntel,60.60606061,5fa315662ca5b25d05ae8236,68817205a84113384fffdfe3,688211e681035e867bb12644,,,,,,,,,,,,,0,,,,,,,,,,,,,,,,,,,,,,,,236.225,237.8906,0,1,1.119,,237.8906,238.8853,0,2,2,2,1,0,coné,REAL,FAKE,,,,,,,,,,,,,,,,,,,,,,,,,,,,,,,,
,,,,,,,,,5fa315662ca5b25d05ae8236,spanish,13 or older,"yes, I am fluent in another language",no,2025-07-24_06h59.31.359,empathy_intonation_perc_control,2024.2.4,MacIntel,60.60606061,5fa315662ca5b25d05ae8236,68817205a84113384fffdfe3,688211e681035e867bb12644,,,,,,,,,,,,,0,,,,,,,,,,,,,,,,,,,,,,,,238.8859,240.5588,0,1,1.1354,,240.5588,241.5532,0,3,3,3,1,0,calpar,REAL,FAKE,,,,,,,,,,,,,,,,,,,,,,,,,,,,,,,,
,,,,,,,,,5fa315662ca5b25d05ae8236,spanish,13 or older,"yes, I am fluent in another language",no,2025-07-24_06h59.31.359,empathy_intonation_perc_control,2024.2.4,MacIntel,60.60606061,5fa315662ca5b25d05ae8236,68817205a84113384fffdfe3,688211e681035e867bb12644,,,,,,,,,,,,,0,,,,,,,,,,,,,,,,,,,,,,,,241.5539,243.1246,1,0,1.0517,,243.125,244.1251,0,4,4,4,1,0,joten,REAL,FAKE,,,,,,,,,,,,,,,,,,,,,,,,,,,,,,,,
,,,,,,,,,5fa315662ca5b25d05ae8236,spanish,13 or older,"yes, I am fluent in another language",no,2025-07-24_06h59.31.359,empathy_intonation_perc_control,2024.2.4,MacIntel,60.60606061,5fa315662ca5b25d05ae8236,68817205a84113384fffdfe3,688211e681035e867bb12644,,,,,,,,,,,,,1,,,,,,,,,,,,,,,,,,,,,,,,244.1256,245.5094,1,1,0.8377,,245.5097,246.5076,0,5,5,5,1,0,sacapuntas,REAL,FAKE,,,,,,,,,,,,,,,,,,,,,,,,,,,,,,,,
,,,,,,,,,5fa315662ca5b25d05ae8236,spanish,13 or older,"yes, I am fluent in another language",no,2025-07-24_06h59.31.359,empathy_intonation_perc_control,2024.2.4,MacIntel,60.60606061,5fa315662ca5b25d05ae8236,68817205a84113384fffdfe3,688211e681035e867bb12644,,,,,,,,,,,,,0,,,,,,,,,,,,,,,,,,,,,,,,246.5083,247.8889,1,0,0.8486,,247.8893,248.8911,0,6,6,6,1,0,priba,REAL,FAKE,,,,,,,,,,,,,,,,,,,,,,,,,,,,,,,,
,,,,,,,,,5fa315662ca5b25d05ae8236,spanish,13 or older,"yes, I am fluent in another language",no,2025-07-24_06h59.31.359,empathy_intonation_perc_control,2024.2.4,MacIntel,60.60606061,5fa315662ca5b25d05ae8236,68817205a84113384fffdfe3,688211e681035e867bb12644,,,,,,,,,,,,,0,,,,,,,,,,,,,,,,,,,,,,,,248.8916,250.3215,1,0,0.8984,,250.3215,251.3266,0,7,7,7,1,0,pelasula,REAL,FAKE,,,,,,,,,,,,,,,,,,,,,,,,,,,,,,,,
,,,,,,,,,5fa315662ca5b25d05ae8236,spanish,13 or older,"yes, I am fluent in another language",no,2025-07-24_06h59.31.359,empathy_intonation_perc_control,2024.2.4,MacIntel,60.60606061,5fa315662ca5b25d05ae8236,68817205a84113384fffdfe3,688211e681035e867bb12644,,,,,,,,,,,,,1,,,,,,,,,,,,,,,,,,,,,,,,251.3272,252.77,0,0,0.8979,,252.77,253.7694,0,8,8,8,1,0,bien,REAL,FAKE,,,,,,,,,,,,,,,,,,,,,,,,,,,,,,,,
,,,,,,,,,5fa315662ca5b25d05ae8236,spanish,13 or older,"yes, I am fluent in another language",no,2025-07-24_06h59.31.359,empathy_intonation_perc_control,2024.2.4,MacIntel,60.60606061,5fa315662ca5b25d05ae8236,68817205a84113384fffdfe3,688211e681035e867bb12644,,,,,,,,,,,,,1,,,,,,,,,,,,,,,,,,,,,,,,253.7701,256.5592,1,1,2.253,,256.5596,257.5573,0,9,9,9,1,0,casa,REAL,FAKE,,,,,,,,,,,,,,,,,,,,,,,,,,,,,,,,
,,,,,,,,,5fa315662ca5b25d05ae8236,spanish,13 or older,"yes, I am fluent in another language",no,2025-07-24_06h59.31.359,empathy_intonation_perc_control,2024.2.4,MacIntel,60.60606061,5fa315662ca5b25d05ae8236,68817205a84113384fffdfe3,688211e681035e867bb12644,,,,,,,,,,,,,0,,,,,,,,,,,,,,,,,,,,,,,,257.5579,258.7248,1,0,0.6348,,258.7251,259.7202,0,10,10,10,1,0,lejo,REAL,FAKE,,,,,,,,,,,,,,,,,,,,,,,,,,,,,,,,
,,,,,,,,,5fa315662ca5b25d05ae8236,spanish,13 or older,"yes, I am fluent in another language",no,2025-07-24_06h59.31.359,empathy_intonation_perc_control,2024.2.4,MacIntel,60.60606061,5fa315662ca5b25d05ae8236,68817205a84113384fffdfe3,688211e681035e867bb12644,,,,,,,,,,,,,0,,,,,,,,,,,,,,,,,,,,,,,,259.7207,260.7178,0,1,0.477,,260.7181,261.7216,0,11,11,11,1,0,pretantas,REAL,FAKE,,,,,,,,,,,,,,,,,,,,,,,,,,,,,,,,
,,,,,,,,,5fa315662ca5b25d05ae8236,spanish,13 or older,"yes, I am fluent in another language",no,2025-07-24_06h59.31.359,empathy_intonation_perc_control,2024.2.4,MacIntel,60.60606061,5fa315662ca5b25d05ae8236,68817205a84113384fffdfe3,688211e681035e867bb12644,,,,,,,,,,,,,,,,,,,,,,,,,,,,,,,,,,,,,,,,,,,,,,,,,,,,,,261.7218,262.4755,,,,,,,,,,,,,,,,,,,,,,,,,,,,,,
,,,,,,,,,5fa315662ca5b25d05ae8236,spanish,13 or older,"yes, I am fluent in another language",no,2025-07-24_06h59.31.359,empathy_intonation_perc_control,2024.2.4,MacIntel,60.60606061,5fa315662ca5b25d05ae8236,68817205a84113384fffdfe3,688211e681035e867bb12644,,,,,,,,,,,,,1,,,,,,,,,,,,,,,,,,,,,,,,,,,,,,,,,,,,,20,ávido,,,,,262.4902,263.891,1,1,0.8695,,0,0,0,19,1,REAL,FAKE,,,,,,,,,,,,,,,,,
,,,,,,,,,5fa315662ca5b25d05ae8236,spanish,13 or older,"yes, I am fluent in another language",no,2025-07-24_06h59.31.359,empathy_intonation_perc_control,2024.2.4,MacIntel,60.60606061,5fa315662ca5b25d05ae8236,68817205a84113384fffdfe3,688211e681035e867bb12644,,,,,,,,,,,,,0,,,,,,,,,,,,,,,,,,,,,,,,,,,,,,,,,,,,,47,cartinar,,,,,263.892,265.1063,1,0,0.6835,,0,1,1,46,1,REAL,FAKE,,,,,,,,,,,,,,,,,
,,,,,,,,,5fa315662ca5b25d05ae8236,spanish,13 or older,"yes, I am fluent in another language",no,2025-07-24_06h59.31.359,empathy_intonation_perc_control,2024.2.4,MacIntel,60.60606061,5fa315662ca5b25d05ae8236,68817205a84113384fffdfe3,688211e681035e867bb12644,,,,,,,,,,,,,1,,,,,,,,,,,,,,,,,,,,,,,,,,,,,,,,,,,,,13,helar,,,,,265.1068,266.293,1,1,0.6365,,0,2,2,12,1,REAL,FAKE,,,,,,,,,,,,,,,,,
,,,,,,,,,5fa315662ca5b25d05ae8236,spanish,13 or older,"yes, I am fluent in another language",no,2025-07-24_06h59.31.359,empathy_intonation_perc_control,2024.2.4,MacIntel,60.60606061,5fa315662ca5b25d05ae8236,68817205a84113384fffdfe3,688211e681035e867bb12644,,,,,,,,,,,,,0,,,,,,,,,,,,,,,,,,,,,,,,,,,,,,,,,,,,,70,temblo,,,,,266.2938,267.4403,1,0,0.6017,,0,3,3,69,1,REAL,FAKE,,,,,,,,,,,,,,,,,
,,,,,,,,,5fa315662ca5b25d05ae8236,spanish,13 or older,"yes, I am fluent in another language",no,2025-07-24_06h59.31.359,empathy_intonation_perc_control,2024.2.4,MacIntel,60.60606061,5fa315662ca5b25d05ae8236,68817205a84113384fffdfe3,688211e681035e867bb12644,,,,,,,,,,,,,1,,,,,,,,,,,,,,,,,,,,,,,,,,,,,,,,,,,,,73,hervidor,,,,,267.4408,268.9255,0,0,0.9525,,0,4,4,72,1,REAL,FAKE,,,,,,,,,,,,,,,,,
,,,,,,,,,5fa315662ca5b25d05ae8236,spanish,13 or older,"yes, I am fluent in another language",no,2025-07-24_06h59.31.359,empathy_intonation_perc_control,2024.2.4,MacIntel,60.60606061,5fa315662ca5b25d05ae8236,68817205a84113384fffdfe3,688211e681035e867bb12644,,,,,,,,,,,,,1,,,,,,,,,,,,,,,,,,,,,,,,,,,,,,,,,,,,,57,tacaño,,,,,268.9265,270.4601,1,1,0.9888,,0,5,5,56,1,REAL,FAKE,,,,,,,,,,,,,,,,,
,,,,,,,,,5fa315662ca5b25d05ae8236,spanish,13 or older,"yes, I am fluent in another language",no,2025-07-24_06h59.31.359,empathy_intonation_perc_control,2024.2.4,MacIntel,60.60606061,5fa315662ca5b25d05ae8236,68817205a84113384fffdfe3,688211e681035e867bb12644,,,,,,,,,,,,,0,,,,,,,,,,,,,,,,,,,,,,,,,,,,,,,,,,,,,84,escuto,,,,,270.4607,271.6583,1,0,0.653,,0,6,6,83,1,REAL,FAKE,,,,,,,,,,,,,,,,,
,,,,,,,,,5fa315662ca5b25d05ae8236,spanish,13 or older,"yes, I am fluent in another language",no,2025-07-24_06h59.31.359,empathy_intonation_perc_control,2024.2.4,MacIntel,60.60606061,5fa315662ca5b25d05ae8236,68817205a84113384fffdfe3,688211e681035e867bb12644,,,,,,,,,,,,,1,,,,,,,,,,,,,,,,,,,,,,,,,,,,,,,,,,,,,51,candado,,,,,271.6591,272.8402,1,1,0.6355,,0,7,7,50,1,REAL,FAKE,,,,,,,,,,,,,,,,,
,,,,,,,,,5fa315662ca5b25d05ae8236,spanish,13 or older,"yes, I am fluent in another language",no,2025-07-24_06h59.31.359,empathy_intonation_perc_control,2024.2.4,MacIntel,60.60606061,5fa315662ca5b25d05ae8236,68817205a84113384fffdfe3,688211e681035e867bb12644,,,,,,,,,,,,,1,,,,,,,,,,,,,,,,,,,,,,,,,,,,,,,,,,,,,43,canela,,,,,272.8408,274.0872,1,1,0.7146,,0,8,8,42,1,REAL,FAKE,,,,,,,,,,,,,,,,,
,,,,,,,,,5fa315662ca5b25d05ae8236,spanish,13 or older,"yes, I am fluent in another language",no,2025-07-24_06h59.31.359,empathy_intonation_perc_control,2024.2.4,MacIntel,60.60606061,5fa315662ca5b25d05ae8236,68817205a84113384fffdfe3,688211e681035e867bb12644,,,,,,,,,,,,,1,,,,,,,,,,,,,,,,,,,,,,,,,,,,,,,,,,,,,24,látigo,,,,,274.0877,275.4569,1,1,0.85,,0,9,9,23,1,REAL,FAKE,,,,,,,,,,,,,,,,,
,,,,,,,,,5fa315662ca5b25d05ae8236,spanish,13 or older,"yes, I am fluent in another language",no,2025-07-24_06h59.31.359,empathy_intonation_perc_control,2024.2.4,MacIntel,60.60606061,5fa315662ca5b25d05ae8236,68817205a84113384fffdfe3,688211e681035e867bb12644,,,,,,,,,,,,,1,,,,,,,,,,,,,,,,,,,,,,,,,,,,,,,,,,,,,81,pozo,,,,,275.4575,276.6917,0,0,0.6862,,0,10,10,80,1,REAL,FAKE,,,,,,,,,,,,,,,,,
,,,,,,,,,5fa315662ca5b25d05ae8236,spanish,13 or older,"yes, I am fluent in another language",no,2025-07-24_06h59.31.359,empathy_intonation_perc_control,2024.2.4,MacIntel,60.60606061,5fa315662ca5b25d05ae8236,68817205a84113384fffdfe3,688211e681035e867bb12644,,,,,,,,,,,,,1,,,,,,,,,,,,,,,,,,,,,,,,,,,,,,,,,,,,,64,orgulloso,,,,,276.6925,277.9423,0,0,0.703,,0,11,11,63,1,REAL,FAKE,,,,,,,,,,,,,,,,,
,,,,,,,,,5fa315662ca5b25d05ae8236,spanish,13 or older,"yes, I am fluent in another language",no,2025-07-24_06h59.31.359,empathy_intonation_perc_control,2024.2.4,MacIntel,60.60606061,5fa315662ca5b25d05ae8236,68817205a84113384fffdfe3,688211e681035e867bb12644,,,,,,,,,,,,,0,,,,,,,,,,,,,,,,,,,,,,,,,,,,,,,,,,,,,66,hacido,,,,,277.9427,279.2422,1,0,0.7537,,0,12,12,65,1,REAL,FAKE,,,,,,,,,,,,,,,,,
,,,,,,,,,5fa315662ca5b25d05ae8236,spanish,13 or older,"yes, I am fluent in another language",no,2025-07-24_06h59.31.359,empathy_intonation_perc_control,2024.2.4,MacIntel,60.60606061,5fa315662ca5b25d05ae8236,68817205a84113384fffdfe3,688211e681035e867bb12644,,,,,,,,,,,,,1,,,,,,,,,,,,,,,,,,,,,,,,,,,,,,,,,,,,,48,ladrón,,,,,279.2428,280.4187,1,1,0.6377,,0,13,13,47,1,REAL,FAKE,,,,,,,,,,,,,,,,,
,,,,,,,,,5fa315662ca5b25d05ae8236,spanish,13 or older,"yes, I am fluent in another language",no,2025-07-24_06h59.31.359,empathy_intonation_perc_control,2024.2.4,MacIntel,60.60606061,5fa315662ca5b25d05ae8236,68817205a84113384fffdfe3,688211e681035e867bb12644,,,,,,,,,,,,,0,,,,,,,,,,,,,,,,,,,,,,,,,,,,,,,,,,,,,1,terzo,,,,,280.4192,281.5906,0,1,0.6336,,0,14,14,0,1,REAL,FAKE,,,,,,,,,,,,,,,,,
,,,,,,,,,5fa315662ca5b25d05ae8236,spanish,13 or older,"yes, I am fluent in another language",no,2025-07-24_06h59.31.359,empathy_intonation_perc_control,2024.2.4,MacIntel,60.60606061,5fa315662ca5b25d05ae8236,68817205a84113384fffdfe3,688211e681035e867bb12644,,,,,,,,,,,,,1,,,,,,,,,,,,,,,,,,,,,,,,,,,,,,,,,,,,,88,acantilado,,,,,281.5912,282.5224,1,1,0.3979,,0,15,15,87,1,REAL,FAKE,,,,,,,,,,,,,,,,,
,,,,,,,,,5fa315662ca5b25d05ae8236,spanish,13 or older,"yes, I am fluent in another language",no,2025-07-24_06h59.31.359,empathy_intonation_perc_control,2024.2.4,MacIntel,60.60606061,5fa315662ca5b25d05ae8236,68817205a84113384fffdfe3,688211e681035e867bb12644,,,,,,,,,,,,,1,,,,,,,,,,,,,,,,,,,,,,,,,,,,,,,,,,,,,61,seda,,,,,282.5231,283.6752,1,1,0.6022,,0,16,16,60,1,REAL,FAKE,,,,,,,,,,,,,,,,,
,,,,,,,,,5fa315662ca5b25d05ae8236,spanish,13 or older,"yes, I am fluent in another language",no,2025-07-24_06h59.31.359,empathy_intonation_perc_control,2024.2.4,MacIntel,60.60606061,5fa315662ca5b25d05ae8236,68817205a84113384fffdfe3,688211e681035e867bb12644,,,,,,,,,,,,,1,,,,,,,,,,,,,,,,,,,,,,,,,,,,,,,,,,,,,40,alfombra,,,,,283.6761,284.653,0,0,0.4299,,0,17,17,39,1,REAL,FAKE,,,,,,,,,,,,,,,,,
,,,,,,,,,5fa315662ca5b25d05ae8236,spanish,13 or older,"yes, I am fluent in another language",no,2025-07-24_06h59.31.359,empathy_intonation_perc_control,2024.2.4,MacIntel,60.60606061,5fa315662ca5b25d05ae8236,68817205a84113384fffdfe3,688211e681035e867bb12644,,,,,,,,,,,,,0,,,,,,,,,,,,,,,,,,,,,,,,,,,,,,,,,,,,,82,empirador,,,,,284.6535,285.5254,1,0,0.3523,,0,18,18,81,1,REAL,FAKE,,,,,,,,,,,,,,,,,
,,,,,,,,,5fa315662ca5b25d05ae8236,spanish,13 or older,"yes, I am fluent in another language",no,2025-07-24_06h59.31.359,empathy_intonation_perc_control,2024.2.4,MacIntel,60.60606061,5fa315662ca5b25d05ae8236,68817205a84113384fffdfe3,688211e681035e867bb12644,,,,,,,,,,,,,0,,,,,,,,,,,,,,,,,,,,,,,,,,,,,,,,,,,,,8,cadeña,,,,,285.5259,286.3883,1,0,0.3353,,0,19,19,7,1,REAL,FAKE,,,,,,,,,,,,,,,,,
,,,,,,,,,5fa315662ca5b25d05ae8236,spanish,13 or older,"yes, I am fluent in another language",no,2025-07-24_06h59.31.359,empathy_intonation_perc_control,2024.2.4,MacIntel,60.60606061,5fa315662ca5b25d05ae8236,68817205a84113384fffdfe3,688211e681035e867bb12644,,,,,,,,,,,,,1,,,,,,,,,,,,,,,,,,,,,,,,,,,,,,,,,,,,,45,jilguero,,,,,286.3888,287.1754,1,1,0.2689,,0,20,20,44,1,REAL,FAKE,,,,,,,,,,,,,,,,,
,,,,,,,,,5fa315662ca5b25d05ae8236,spanish,13 or older,"yes, I am fluent in another language",no,2025-07-24_06h59.31.359,empathy_intonation_perc_control,2024.2.4,MacIntel,60.60606061,5fa315662ca5b25d05ae8236,68817205a84113384fffdfe3,688211e681035e867bb12644,,,,,,,,,,,,,1,,,,,,,,,,,,,,,,,,,,,,,,,,,,,,,,,,,,,68,alegre,,,,,287.1758,288.0589,1,1,0.3417,,0,21,21,67,1,REAL,FAKE,,,,,,,,,,,,,,,,,
,,,,,,,,,5fa315662ca5b25d05ae8236,spanish,13 or older,"yes, I am fluent in another language",no,2025-07-24_06h59.31.359,empathy_intonation_perc_control,2024.2.4,MacIntel,60.60606061,5fa315662ca5b25d05ae8236,68817205a84113384fffdfe3,688211e681035e867bb12644,,,,,,,,,,,,,1,,,,,,,,,,,,,,,,,,,,,,,,,,,,,,,,,,,,,52,camisa,,,,,288.0594,288.9404,0,0,0.334,,0,22,22,51,1,REAL,FAKE,,,,,,,,,,,,,,,,,
,,,,,,,,,5fa315662ca5b25d05ae8236,spanish,13 or older,"yes, I am fluent in another language",no,2025-07-24_06h59.31.359,empathy_intonation_perc_control,2024.2.4,MacIntel,60.60606061,5fa315662ca5b25d05ae8236,68817205a84113384fffdfe3,688211e681035e867bb12644,,,,,,,,,,,,,1,,,,,,,,,,,,,,,,,,,,,,,,,,,,,,,,,,,,,31,pandilla,,,,,288.9409,289.7747,1,1,0.2849,,0,23,23,30,1,REAL,FAKE,,,,,,,,,,,,,,,,,
,,,,,,,,,5fa315662ca5b25d05ae8236,spanish,13 or older,"yes, I am fluent in another language",no,2025-07-24_06h59.31.359,empathy_intonation_perc_control,2024.2.4,MacIntel,60.60606061,5fa315662ca5b25d05ae8236,68817205a84113384fffdfe3,688211e681035e867bb12644,,,,,,,,,,,,,0,,,,,,,,,,,,,,,,,,,,,,,,,,,,,,,,,,,,,27,acutación,,,,,289.7753,290.5568,1,0,0.2495,,0,24,24,26,1,REAL,FAKE,,,,,,,,,,,,,,,,,
,,,,,,,,,5fa315662ca5b25d05ae8236,spanish,13 or older,"yes, I am fluent in another language",no,2025-07-24_06h59.31.359,empathy_intonation_perc_control,2024.2.4,MacIntel,60.60606061,5fa315662ca5b25d05ae8236,68817205a84113384fffdfe3,688211e681035e867bb12644,,,,,,,,,,,,,1,,,,,,,,,,,,,,,,,,,,,,,,,,,,,,,,,,,,,83,guante,,,,,290.5575,291.3889,1,1,0.3011,,0,25,25,82,1,REAL,FAKE,,,,,,,,,,,,,,,,,
,,,,,,,,,5fa315662ca5b25d05ae8236,spanish,13 or older,"yes, I am fluent in another language",no,2025-07-24_06h59.31.359,empathy_intonation_perc_control,2024.2.4,MacIntel,60.60606061,5fa315662ca5b25d05ae8236,68817205a84113384fffdfe3,688211e681035e867bb12644,,,,,,,,,,,,,1,,,,,,,,,,,,,,,,,,,,,,,,,,,,,,,,,,,,,54,fomentar,,,,,291.3895,292.2265,0,0,0.3196,,0,26,26,53,1,REAL,FAKE,,,,,,,,,,,,,,,,,
,,,,,,,,,5fa315662ca5b25d05ae8236,spanish,13 or older,"yes, I am fluent in another language",no,2025-07-24_06h59.31.359,empathy_intonation_perc_control,2024.2.4,MacIntel,60.60606061,5fa315662ca5b25d05ae8236,68817205a84113384fffdfe3,688211e681035e867bb12644,,,,,,,,,,,,,1,,,,,,,,,,,,,,,,,,,,,,,,,,,,,,,,,,,,,49,ganar,,,,,292.227,293.0037,1,1,0.2322,,0,27,27,48,1,REAL,FAKE,,,,,,,,,,,,,,,,,
,,,,,,,,,5fa315662ca5b25d05ae8236,spanish,13 or older,"yes, I am fluent in another language",no,2025-07-24_06h59.31.359,empathy_intonation_perc_control,2024.2.4,MacIntel,60.60606061,5fa315662ca5b25d05ae8236,68817205a84113384fffdfe3,688211e681035e867bb12644,,,,,,,,,,,,,1,,,,,,,,,,,,,,,,,,,,,,,,,,,,,,,,,,,,,71,polvoriento,,,,,293.0043,293.7377,1,1,0.1988,,0,28,28,70,1,REAL,FAKE,,,,,,,,,,,,,,,,,
,,,,,,,,,5fa315662ca5b25d05ae8236,spanish,13 or older,"yes, I am fluent in another language",no,2025-07-24_06h59.31.359,empathy_intonation_perc_control,2024.2.4,MacIntel,60.60606061,5fa315662ca5b25d05ae8236,68817205a84113384fffdfe3,688211e681035e867bb12644,,,,,,,,,,,,,1,,,,,,,,,,,,,,,,,,,,,,,,,,,,,,,,,,,,,59,besar,,,,,293.7381,294.5712,1,1,0.2984,,0,29,29,58,1,REAL,FAKE,,,,,,,,,,,,,,,,,
,,,,,,,,,5fa315662ca5b25d05ae8236,spanish,13 or older,"yes, I am fluent in another language",no,2025-07-24_06h59.31.359,empathy_intonation_perc_control,2024.2.4,MacIntel,60.60606061,5fa315662ca5b25d05ae8236,68817205a84113384fffdfe3,688211e681035e867bb12644,,,,,,,,,,,,,0,,,,,,,,,,,,,,,,,,,,,,,,,,,,,,,,,,,,,87,grodo,,,,,294.5718,295.3701,0,1,0.2592,,0,30,30,86,1,REAL,FAKE,,,,,,,,,,,,,,,,,
,,,,,,,,,5fa315662ca5b25d05ae8236,spanish,13 or older,"yes, I am fluent in another language",no,2025-07-24_06h59.31.359,empathy_intonation_perc_control,2024.2.4,MacIntel,60.60606061,5fa315662ca5b25d05ae8236,68817205a84113384fffdfe3,688211e681035e867bb12644,,,,,,,,,,,,,1,,,,,,,,,,,,,,,,,,,,,,,,,,,,,,,,,,,,,22,lacayo,,,,,295.3707,296.1817,1,1,0.2908,,0,31,31,21,1,REAL,FAKE,,,,,,,,,,,,,,,,,
,,,,,,,,,5fa315662ca5b25d05ae8236,spanish,13 or older,"yes, I am fluent in another language",no,2025-07-24_06h59.31.359,empathy_intonation_perc_control,2024.2.4,MacIntel,60.60606061,5fa315662ca5b25d05ae8236,68817205a84113384fffdfe3,688211e681035e867bb12644,,,,,,,,,,,,,0,,,,,,,,,,,,,,,,,,,,,,,,,,,,,,,,,,,,,33,pauca,,,,,296.1822,296.9566,1,0,0.233,,0,32,32,32,1,REAL,FAKE,,,,,,,,,,,,,,,,,
,,,,,,,,,5fa315662ca5b25d05ae8236,spanish,13 or older,"yes, I am fluent in another language",no,2025-07-24_06h59.31.359,empathy_intonation_perc_control,2024.2.4,MacIntel,60.60606061,5fa315662ca5b25d05ae8236,68817205a84113384fffdfe3,688211e681035e867bb12644,,,,,,,,,,,,,1,,,,,,,,,,,,,,,,,,,,,,,,,,,,,,,,,,,,,34,aviso,,,,,296.9572,297.8092,1,1,0.3028,,0,33,33,33,1,REAL,FAKE,,,,,,,,,,,,,,,,,
,,,,,,,,,5fa315662ca5b25d05ae8236,spanish,13 or older,"yes, I am fluent in another language",no,2025-07-24_06h59.31.359,empathy_intonation_perc_control,2024.2.4,MacIntel,60.60606061,5fa315662ca5b25d05ae8236,68817205a84113384fffdfe3,688211e681035e867bb12644,,,,,,,,,,,,,1,,,,,,,,,,,,,,,,,,,,,,,,,,,,,,,,,,,,,90,clavel,,,,,297.8098,298.6722,0,0,0.3322,,0,34,34,89,1,REAL,FAKE,,,,,,,,,,,,,,,,,
,,,,,,,,,5fa315662ca5b25d05ae8236,spanish,13 or older,"yes, I am fluent in another language",no,2025-07-24_06h59.31.359,empathy_intonation_perc_control,2024.2.4,MacIntel,60.60606061,5fa315662ca5b25d05ae8236,68817205a84113384fffdfe3,688211e681035e867bb12644,,,,,,,,,,,,,1,,,,,,,,,,,,,,,,,,,,,,,,,,,,,,,,,,,,,67,cabello,,,,,298.6728,299.556,0,0,0.3493,,0,35,35,66,1,REAL,FAKE,,,,,,,,,,,,,,,,,
,,,,,,,,,5fa315662ca5b25d05ae8236,spanish,13 or older,"yes, I am fluent in another language",no,2025-07-24_06h59.31.359,empathy_intonation_perc_control,2024.2.4,MacIntel,60.60606061,5fa315662ca5b25d05ae8236,68817205a84113384fffdfe3,688211e681035e867bb12644,,,,,,,,,,,,,0,,,,,,,,,,,,,,,,,,,,,,,,,,,,,,,,,,,,,10,antar,,,,,299.5566,300.4412,1,0,0.3523,,0,36,36,9,1,REAL,FAKE,,,,,,,,,,,,,,,,,
,,,,,,,,,5fa315662ca5b25d05ae8236,spanish,13 or older,"yes, I am fluent in another language",no,2025-07-24_06h59.31.359,empathy_intonation_perc_control,2024.2.4,MacIntel,60.60606061,5fa315662ca5b25d05ae8236,68817205a84113384fffdfe3,688211e681035e867bb12644,,,,,,,,,,,,,1,,,,,,,,,,,,,,,,,,,,,,,,,,,,,,,,,,,,,75,yacer,,,,,300.4418,301.3902,0,0,0.4001,,0,37,37,74,1,REAL,FAKE,,,,,,,,,,,,,,,,,
,,,,,,,,,5fa315662ca5b25d05ae8236,spanish,13 or older,"yes, I am fluent in another language",no,2025-07-24_06h59.31.359,empathy_intonation_perc_control,2024.2.4,MacIntel,60.60606061,5fa315662ca5b25d05ae8236,68817205a84113384fffdfe3,688211e681035e867bb12644,,,,,,,,,,,,,0,,,,,,,,,,,,,,,,,,,,,,,,,,,,,,,,,,,,,50,flamida,,,,,301.3908,302.2748,0,1,0.3524,,0,38,38,49,1,REAL,FAKE,,,,,,,,,,,,,,,,,
,,,,,,,,,5fa315662ca5b25d05ae8236,spanish,13 or older,"yes, I am fluent in another language",no,2025-07-24_06h59.31.359,empathy_intonation_perc_control,2024.2.4,MacIntel,60.60606061,5fa315662ca5b25d05ae8236,68817205a84113384fffdfe3,688211e681035e867bb12644,,,,,,,,,,,,,1,,,,,,,,,,,,,,,,,,,,,,,,,,,,,,,,,,,,,85,laúd,,,,,302.2754,303.2724,1,1,0.4645,,0,39,39,84,1,REAL,FAKE,,,,,,,,,,,,,,,,,
,,,,,,,,,5fa315662ca5b25d05ae8236,spanish,13 or older,"yes, I am fluent in another language",no,2025-07-24_06h59.31.359,empathy_intonation_perc_control,2024.2.4,MacIntel,60.60606061,5fa315662ca5b25d05ae8236,68817205a84113384fffdfe3,688211e681035e867bb12644,,,,,,,,,,,,,0,,,,,,,,,,,,,,,,,,,,,,,,,,,,,,,,,,,,,16,abracer,,,,,303.2729,304.2802,1,0,0.458,,0,40,40,15,1,REAL,FAKE,,,,,,,,,,,,,,,,,
,,,,,,,,,5fa315662ca5b25d05ae8236,spanish,13 or older,"yes, I am fluent in another language",no,2025-07-24_06h59.31.359,empathy_intonation_perc_control,2024.2.4,MacIntel,60.60606061,5fa315662ca5b25d05ae8236,68817205a84113384fffdfe3,688211e681035e867bb12644,,,,,,,,,,,,,1,,,,,,,,,,,,,,,,,,,,,,,,,,,,,,,,,,,,,25,bisagra,,,,,304.2807,305.1742,0,0,0.3511,,0,41,41,24,1,REAL,FAKE,,,,,,,,,,,,,,,,,
,,,,,,,,,5fa315662ca5b25d05ae8236,spanish,13 or older,"yes, I am fluent in another language",no,2025-07-24_06h59.31.359,empathy_intonation_perc_control,2024.2.4,MacIntel,60.60606061,5fa315662ca5b25d05ae8236,68817205a84113384fffdfe3,688211e681035e867bb12644,,,,,,,,,,,,,0,,,,,,,,,,,,,,,,,,,,,,,,,,,,,,,,,,,,,30,alardio,,,,,305.1747,306.0416,1,0,0.3359,,0,42,42,29,1,REAL,FAKE,,,,,,,,,,,,,,,,,
,,,,,,,,,5fa315662ca5b25d05ae8236,spanish,13 or older,"yes, I am fluent in another language",no,2025-07-24_06h59.31.359,empathy_intonation_perc_control,2024.2.4,MacIntel,60.60606061,5fa315662ca5b25d05ae8236,68817205a84113384fffdfe3,688211e681035e867bb12644,,,,,,,,,,,,,0,,,,,,,,,,,,,,,,,,,,,,,,,,,,,,,,,,,,,32,fatacidad,,,,,306.0423,306.9238,1,0,0.335,,0,43,43,31,1,REAL,FAKE,,,,,,,,,,,,,,,,,
,,,,,,,,,5fa315662ca5b25d05ae8236,spanish,13 or older,"yes, I am fluent in another language",no,2025-07-24_06h59.31.359,empathy_intonation_perc_control,2024.2.4,MacIntel,60.60606061,5fa315662ca5b25d05ae8236,68817205a84113384fffdfe3,688211e681035e867bb12644,,,,,,,,,,,,,1,,,,,,,,,,,,,,,,,,,,,,,,,,,,,,,,,,,,,41,rebuscar,,,,,306.9244,307.7831,0,0,0.3414,,0,44,44,40,1,REAL,FAKE,,,,,,,,,,,,,,,,,
,,,,,,,,,5fa315662ca5b25d05ae8236,spanish,13 or older,"yes, I am fluent in another language",no,2025-07-24_06h59.31.359,empathy_intonation_perc_control,2024.2.4,MacIntel,60.60606061,5fa315662ca5b25d05ae8236,68817205a84113384fffdfe3,688211e681035e867bb12644,,,,,,,,,,,,,1,,,,,,,,,,,,,,,,,,,,,,,,,,,,,,,,,,,,,86,barato,,,,,307.7835,308.6413,1,1,0.3188,,0,45,45,85,1,REAL,FAKE,,,,,,,,,,,,,,,,,
,,,,,,,,,5fa315662ca5b25d05ae8236,spanish,13 or older,"yes, I am fluent in another language",no,2025-07-24_06h59.31.359,empathy_intonation_perc_control,2024.2.4,MacIntel,60.60606061,5fa315662ca5b25d05ae8236,68817205a84113384fffdfe3,688211e681035e867bb12644,,,,,,,,,,,,,1,,,,,,,,,,,,,,,,,,,,,,,,,,,,,,,,,,,,,76,atar,,,,,308.6418,309.5592,1,1,0.3873,,0,46,46,75,1,REAL,FAKE,,,,,,,,,,,,,,,,,
,,,,,,,,,5fa315662ca5b25d05ae8236,spanish,13 or older,"yes, I am fluent in another language",no,2025-07-24_06h59.31.359,empathy_intonation_perc_control,2024.2.4,MacIntel,60.60606061,5fa315662ca5b25d05ae8236,68817205a84113384fffdfe3,688211e681035e867bb12644,,,,,,,,,,,,,0,,,,,,,,,,,,,,,,,,,,,,,,,,,,,,,,,,,,,35,rompido,,,,,309.5598,310.6406,0,1,0.5354,,0,47,47,34,1,REAL,FAKE,,,,,,,,,,,,,,,,,
,,,,,,,,,5fa315662ca5b25d05ae8236,spanish,13 or older,"yes, I am fluent in another language",no,2025-07-24_06h59.31.359,empathy_intonation_perc_control,2024.2.4,MacIntel,60.60606061,5fa315662ca5b25d05ae8236,68817205a84113384fffdfe3,688211e681035e867bb12644,,,,,,,,,,,,,1,,,,,,,,,,,,,,,,,,,,,,,,,,,,,,,,,,,,,69,engatusar,,,,,310.6412,311.4729,0,0,0.2901,,0,48,48,68,1,REAL,FAKE,,,,,,,,,,,,,,,,,
,,,,,,,,,5fa315662ca5b25d05ae8236,spanish,13 or older,"yes, I am fluent in another language",no,2025-07-24_06h59.31.359,empathy_intonation_perc_control,2024.2.4,MacIntel,60.60606061,5fa315662ca5b25d05ae8236,68817205a84113384fffdfe3,688211e681035e867bb12644,,,,,,,,,,,,,0,,,,,,,,,,,,,,,,,,,,,,,,,,,,,,,,,,,,,74,cintro,,,,,311.4734,312.3606,1,0,0.3554,,0,49,49,73,1,REAL,FAKE,,,,,,,,,,,,,,,,,
,,,,,,,,,5fa315662ca5b25d05ae8236,spanish,13 or older,"yes, I am fluent in another language",no,2025-07-24_06h59.31.359,empathy_intonation_perc_control,2024.2.4,MacIntel,60.60606061,5fa315662ca5b25d05ae8236,68817205a84113384fffdfe3,688211e681035e867bb12644,,,,,,,,,,,,,0,,,,,,,,,,,,,,,,,,,,,,,,,,,,,,,,,,,,,53,vegada,,,,,312.3611,313.1555,1,0,0.2641,,0,50,50,52,1,REAL,FAKE,,,,,,,,,,,,,,,,,
,,,,,,,,,5fa315662ca5b25d05ae8236,spanish,13 or older,"yes, I am fluent in another language",no,2025-07-24_06h59.31.359,empathy_intonation_perc_control,2024.2.4,MacIntel,60.60606061,5fa315662ca5b25d05ae8236,68817205a84113384fffdfe3,688211e681035e867bb12644,,,,,,,,,,,,,1,,,,,,,,,,,,,,,,,,,,,,,,,,,,,,,,,,,,,89,prisa,,,,,313.1561,314.0417,1,1,0.3542,,0,51,51,88,1,REAL,FAKE,,,,,,,,,,,,,,,,,
,,,,,,,,,5fa315662ca5b25d05ae8236,spanish,13 or older,"yes, I am fluent in another language",no,2025-07-24_06h59.31.359,empathy_intonation_perc_control,2024.2.4,MacIntel,60.60606061,5fa315662ca5b25d05ae8236,68817205a84113384fffdfe3,688211e681035e867bb12644,,,,,,,,,,,,,1,,,,,,,,,,,,,,,,,,,,,,,,,,,,,,,,,,,,,78,frondoso,,,,,314.0422,314.9359,1,1,0.362,,0,52,52,77,1,REAL,FAKE,,,,,,,,,,,,,,,,,
,,,,,,,,,5fa315662ca5b25d05ae8236,spanish,13 or older,"yes, I am fluent in another language",no,2025-07-24_06h59.31.359,empathy_intonation_perc_control,2024.2.4,MacIntel,60.60606061,5fa315662ca5b25d05ae8236,68817205a84113384fffdfe3,688211e681035e867bb12644,,,,,,,,,,,,,1,,,,,,,,,,,,,,,,,,,,,,,,,,,,,,,,,,,,,7,pésimo,,,,,314.9363,315.843,1,1,0.3714,,0,53,53,6,1,REAL,FAKE,,,,,,,,,,,,,,,,,
,,,,,,,,,5fa315662ca5b25d05ae8236,spanish,13 or older,"yes, I am fluent in another language",no,2025-07-24_06h59.31.359,empathy_intonation_perc_control,2024.2.4,MacIntel,60.60606061,5fa315662ca5b25d05ae8236,68817205a84113384fffdfe3,688211e681035e867bb12644,,,,,,,,,,,,,0,,,,,,,,,,,,,,,,,,,,,,,,,,,,,,,,,,,,,18,arsa,,,,,315.8435,316.6226,0,1,0.2189,,0,54,54,17,1,REAL,FAKE,,,,,,,,,,,,,,,,,
,,,,,,,,,5fa315662ca5b25d05ae8236,spanish,13 or older,"yes, I am fluent in another language",no,2025-07-24_06h59.31.359,empathy_intonation_perc_control,2024.2.4,MacIntel,60.60606061,5fa315662ca5b25d05ae8236,68817205a84113384fffdfe3,688211e681035e867bb12644,,,,,,,,,,,,,1,,,,,,,,,,,,,,,,,,,,,,,,,,,,,,,,,,,,,12,asesinato,,,,,316.6231,317.5233,1,1,0.3683,,0,55,55,11,1,REAL,FAKE,,,,,,,,,,,,,,,,,
,,,,,,,,,5fa315662ca5b25d05ae8236,spanish,13 or older,"yes, I am fluent in another language",no,2025-07-24_06h59.31.359,empathy_intonation_perc_control,2024.2.4,MacIntel,60.60606061,5fa315662ca5b25d05ae8236,68817205a84113384fffdfe3,688211e681035e867bb12644,,,,,,,,,,,,,0,,,,,,,,,,,,,,,,,,,,,,,,,,,,,,,,,,,,,58,plaudir,,,,,317.5239,318.5216,0,1,0.4639,,0,56,56,57,1,REAL,FAKE,,,,,,,,,,,,,,,,,
,,,,,,,,,5fa315662ca5b25d05ae8236,spanish,13 or older,"yes, I am fluent in another language",no,2025-07-24_06h59.31.359,empathy_intonation_perc_control,2024.2.4,MacIntel,60.60606061,5fa315662ca5b25d05ae8236,68817205a84113384fffdfe3,688211e681035e867bb12644,,,,,,,,,,,,,1,,,,,,,,,,,,,,,,,,,,,,,,,,,,,,,,,,,,,9,hacha,,,,,318.5222,319.3914,1,1,0.336,,0,57,57,8,1,REAL,FAKE,,,,,,,,,,,,,,,,,
,,,,,,,,,5fa315662ca5b25d05ae8236,spanish,13 or older,"yes, I am fluent in another language",no,2025-07-24_06h59.31.359,empathy_intonation_perc_control,2024.2.4,MacIntel,60.60606061,5fa315662ca5b25d05ae8236,68817205a84113384fffdfe3,688211e681035e867bb12644,,,,,,,,,,,,,1,,,,,,,,,,,,,,,,,,,,,,,,,,,,,,,,,,,,,2,pellizcar,,,,,319.3921,320.2042,0,0,0.2647,,0,58,58,1,1,REAL,FAKE,,,,,,,,,,,,,,,,,
,,,,,,,,,5fa315662ca5b25d05ae8236,spanish,13 or older,"yes, I am fluent in another language",no,2025-07-24_06h59.31.359,empathy_intonation_perc_control,2024.2.4,MacIntel,60.60606061,5fa315662ca5b25d05ae8236,68817205a84113384fffdfe3,688211e681035e867bb12644,,,,,,,,,,,,,1,,,,,,,,,,,,,,,,,,,,,,,,,,,,,,,,,,,,,3,pulmones,,,,,320.2049,321.0238,0,0,0.2836,,0,59,59,2,1,REAL,FAKE,,,,,,,,,,,,,,,,,
,,,,,,,,,5fa315662ca5b25d05ae8236,spanish,13 or older,"yes, I am fluent in another language",no,2025-07-24_06h59.31.359,empathy_intonation_perc_control,2024.2.4,MacIntel,60.60606061,5fa315662ca5b25d05ae8236,68817205a84113384fffdfe3,688211e681035e867bb12644,,,,,,,,,,,,,1,,,,,,,,,,,,,,,,,,,,,,,,,,,,,,,,,,,,,62,flaco,,,,,321.0243,321.8369,1,1,0.297,,0,60,60,61,1,REAL,FAKE,,,,,,,,,,,,,,,,,
,,,,,,,,,5fa315662ca5b25d05ae8236,spanish,13 or older,"yes, I am fluent in another language",no,2025-07-24_06h59.31.359,empathy_intonation_perc_control,2024.2.4,MacIntel,60.60606061,5fa315662ca5b25d05ae8236,68817205a84113384fffdfe3,688211e681035e867bb12644,,,,,,,,,,,,,1,,,,,,,,,,,,,,,,,,,,,,,,,,,,,,,,,,,,,77,tiburón,,,,,321.8375,322.5249,0,0,0.153,,0,61,61,76,1,REAL,FAKE,,,,,,,,,,,,,,,,,
,,,,,,,,,5fa315662ca5b25d05ae8236,spanish,13 or older,"yes, I am fluent in another language",no,2025-07-24_06h59.31.359,empathy_intonation_perc_control,2024.2.4,MacIntel,60.60606061,5fa315662ca5b25d05ae8236,68817205a84113384fffdfe3,688211e681035e867bb12644,,,,,,,,,,,,,1,,,,,,,,,,,,,,,,,,,,,,,,,,,,,,,,,,,,,15,regar,,,,,322.5254,323.1907,1,1,0.1364,,0,62,62,14,1,REAL,FAKE,,,,,,,,,,,,,,,,,
,,,,,,,,,5fa315662ca5b25d05ae8236,spanish,13 or older,"yes, I am fluent in another language",no,2025-07-24_06h59.31.359,empathy_intonation_perc_control,2024.2.4,MacIntel,60.60606061,5fa315662ca5b25d05ae8236,68817205a84113384fffdfe3,688211e681035e867bb12644,,,,,,,,,,,,,0,,,,,,,,,,,,,,,,,,,,,,,,,,,,,,,,,,,,,92,click the 0 key.,,,,,323.1914,323.9416,0,1,0.2009,,0,63,63,91,1,REAL,FAKE,,,,,,,,,,,,,,,,,
,,,,,,,,,5fa315662ca5b25d05ae8236,spanish,13 or older,"yes, I am fluent in another language",no,2025-07-24_06h59.31.359,empathy_intonation_perc_control,2024.2.4,MacIntel,60.60606061,5fa315662ca5b25d05ae8236,68817205a84113384fffdfe3,688211e681035e867bb12644,,,,,,,,,,,,,0,,,,,,,,,,,,,,,,,,,,,,,,,,,,,,,,,,,,,17,floroso,,,,,323.9421,325.2074,1,0,0.7181,,0,64,64,16,1,REAL,FAKE,,,,,,,,,,,,,,,,,
,,,,,,,,,5fa315662ca5b25d05ae8236,spanish,13 or older,"yes, I am fluent in another language",no,2025-07-24_06h59.31.359,empathy_intonation_perc_control,2024.2.4,MacIntel,60.60606061,5fa315662ca5b25d05ae8236,68817205a84113384fffdfe3,688211e681035e867bb12644,,,,,,,,,,,,,1,,,,,,,,,,,,,,,,,,,,,,,,,,,,,,,,,,,,,39,torpe,,,,,325.2079,326.1061,0,0,0.3638,,0,65,65,38,1,REAL,FAKE,,,,,,,,,,,,,,,,,
,,,,,,,,,5fa315662ca5b25d05ae8236,spanish,13 or older,"yes, I am fluent in another language",no,2025-07-24_06h59.31.359,empathy_intonation_perc_control,2024.2.4,MacIntel,60.60606061,5fa315662ca5b25d05ae8236,68817205a84113384fffdfe3,688211e681035e867bb12644,,,,,,,,,,,,,0,,,,,,,,,,,,,,,,,,,,,,,,,,,,,,,,,,,,,63,esposante,,,,,326.1067,326.975,0,1,0.3364,,0,66,66,62,1,REAL,FAKE,,,,,,,,,,,,,,,,,
,,,,,,,,,5fa315662ca5b25d05ae8236,spanish,13 or older,"yes, I am fluent in another language",no,2025-07-24_06h59.31.359,empathy_intonation_perc_control,2024.2.4,MacIntel,60.60606061,5fa315662ca5b25d05ae8236,68817205a84113384fffdfe3,688211e681035e867bb12644,,,,,,,,,,,,,1,,,,,,,,,,,,,,,,,,,,,,,,,,,,,,,,,,,,,26,secuestro,,,,,326.9758,327.8744,0,0,0.3514,,0,67,67,25,1,REAL,FAKE,,,,,,,,,,,,,,,,,
,,,,,,,,,5fa315662ca5b25d05ae8236,spanish,13 or older,"yes, I am fluent in another language",no,2025-07-24_06h59.31.359,empathy_intonation_perc_control,2024.2.4,MacIntel,60.60606061,5fa315662ca5b25d05ae8236,68817205a84113384fffdfe3,688211e681035e867bb12644,,,,,,,,,,,,,1,,,,,,,,,,,,,,,,,,,,,,,,,,,,,,,,,,,,,11,cenefa,,,,,327.8749,328.7746,1,1,0.3507,,0,68,68,10,1,REAL,FAKE,,,,,,,,,,,,,,,,,
,,,,,,,,,5fa315662ca5b25d05ae8236,spanish,13 or older,"yes, I am fluent in another language",no,2025-07-24_06h59.31.359,empathy_intonation_perc_control,2024.2.4,MacIntel,60.60606061,5fa315662ca5b25d05ae8236,68817205a84113384fffdfe3,688211e681035e867bb12644,,,,,,,,,,,,,0,,,,,,,,,,,,,,,,,,,,,,,,,,,,,,,,,,,,,29,decar,,,,,328.7751,329.7729,1,0,0.4668,,0,69,69,28,1,REAL,FAKE,,,,,,,,,,,,,,,,,
,,,,,,,,,5fa315662ca5b25d05ae8236,spanish,13 or older,"yes, I am fluent in another language",no,2025-07-24_06h59.31.359,empathy_intonation_perc_control,2024.2.4,MacIntel,60.60606061,5fa315662ca5b25d05ae8236,68817205a84113384fffdfe3,688211e681035e867bb12644,,,,,,,,,,,,,0,,,,,,,,,,,,,,,,,,,,,,,,,,,,,,,,,,,,,23,lampera,,,,,329.7734,331.1073,1,0,0.8014,,0,70,70,22,1,REAL,FAKE,,,,,,,,,,,,,,,,,
,,,,,,,,,5fa315662ca5b25d05ae8236,spanish,13 or older,"yes, I am fluent in another language",no,2025-07-24_06h59.31.359,empathy_intonation_perc_control,2024.2.4,MacIntel,60.60606061,5fa315662ca5b25d05ae8236,68817205a84113384fffdfe3,688211e681035e867bb12644,,,,,,,,,,,,,1,,,,,,,,,,,,,,,,,,,,,,,,,,,,,,,,,,,,,36,loro,,,,,331.1078,332.1907,1,1,0.5513,,0,71,71,35,1,REAL,FAKE,,,,,,,,,,,,,,,,,
,,,,,,,,,5fa315662ca5b25d05ae8236,spanish,13 or older,"yes, I am fluent in another language",no,2025-07-24_06h59.31.359,empathy_intonation_perc_control,2024.2.4,MacIntel,60.60606061,5fa315662ca5b25d05ae8236,68817205a84113384fffdfe3,688211e681035e867bb12644,,,,,,,,,,,,,1,,,,,,,,,,,,,,,,,,,,,,,,,,,,,,,,,,,,,46,martillo,,,,,332.1913,333.3409,1,1,0.6182,,0,72,72,45,1,REAL,FAKE,,,,,,,,,,,,,,,,,
,,,,,,,,,5fa315662ca5b25d05ae8236,spanish,13 or older,"yes, I am fluent in another language",no,2025-07-24_06h59.31.359,empathy_intonation_perc_control,2024.2.4,MacIntel,60.60606061,5fa315662ca5b25d05ae8236,68817205a84113384fffdfe3,688211e681035e867bb12644,,,,,,,,,,,,,1,,,,,,,,,,,,,,,,,,,,,,,,,,,,,,,,,,,,,44,cuchara,,,,,333.3415,334.7226,1,1,0.8323,,0,73,73,43,1,REAL,FAKE,,,,,,,,,,,,,,,,,
,,,,,,,,,5fa315662ca5b25d05ae8236,spanish,13 or older,"yes, I am fluent in another language",no,2025-07-24_06h59.31.359,empathy_intonation_perc_control,2024.2.4,MacIntel,60.60606061,5fa315662ca5b25d05ae8236,68817205a84113384fffdfe3,688211e681035e867bb12644,,,,,,,,,,,,,1,,,,,,,,,,,,,,,,,,,,,,,,,,,,,,,,,,,,,28,merodear,,,,,334.7231,335.9573,0,0,0.6843,,0,74,74,27,1,REAL,FAKE,,,,,,,,,,,,,,,,,
,,,,,,,,,5fa315662ca5b25d05ae8236,spanish,13 or older,"yes, I am fluent in another language",no,2025-07-24_06h59.31.359,empathy_intonation_perc_control,2024.2.4,MacIntel,60.60606061,5fa315662ca5b25d05ae8236,68817205a84113384fffdfe3,688211e681035e867bb12644,,,,,,,,,,,,,1,,,,,,,,,,,,,,,,,,,,,,,,,,,,,,,,,,,,,91,click the 1 key.,,,,,335.958,337.8259,1,1,1.3362,,0,75,75,90,1,REAL,FAKE,,,,,,,,,,,,,,,,,
,,,,,,,,,5fa315662ca5b25d05ae8236,spanish,13 or older,"yes, I am fluent in another language",no,2025-07-24_06h59.31.359,empathy_intonation_perc_control,2024.2.4,MacIntel,60.60606061,5fa315662ca5b25d05ae8236,68817205a84113384fffdfe3,688211e681035e867bb12644,,,,,,,,,,,,,0,,,,,,,,,,,,,,,,,,,,,,,,,,,,,,,,,,,,,42,cadallo,,,,,337.8264,338.908,0,1,0.5348,,0,76,76,41,1,REAL,FAKE,,,,,,,,,,,,,,,,,
,,,,,,,,,5fa315662ca5b25d05ae8236,spanish,13 or older,"yes, I am fluent in another language",no,2025-07-24_06h59.31.359,empathy_intonation_perc_control,2024.2.4,MacIntel,60.60606061,5fa315662ca5b25d05ae8236,68817205a84113384fffdfe3,688211e681035e867bb12644,,,,,,,,,,,,,0,,,,,,,,,,,,,,,,,,,,,,,,,,,,,,,,,,,,,21,capillo,,,,,338.9085,340.2086,1,0,0.753,,0,77,77,20,1,REAL,FAKE,,,,,,,,,,,,,,,,,
,,,,,,,,,5fa315662ca5b25d05ae8236,spanish,13 or older,"yes, I am fluent in another language",no,2025-07-24_06h59.31.359,empathy_intonation_perc_control,2024.2.4,MacIntel,60.60606061,5fa315662ca5b25d05ae8236,68817205a84113384fffdfe3,688211e681035e867bb12644,,,,,,,,,,,,,1,,,,,,,,,,,,,,,,,,,,,,,,,,,,,,,,,,,,,65,bizcocho,,,,,340.2093,341.104,0,0,0.3483,,0,78,78,64,1,REAL,FAKE,,,,,,,,,,,,,,,,,
,,,,,,,,,5fa315662ca5b25d05ae8236,spanish,13 or older,"yes, I am fluent in another language",no,2025-07-24_06h59.31.359,empathy_intonation_perc_control,2024.2.4,MacIntel,60.60606061,5fa315662ca5b25d05ae8236,68817205a84113384fffdfe3,688211e681035e867bb12644,,,,,,,,,,,,,1,,,,,,,,,,,,,,,,,,,,,,,,,,,,,,,,,,,,,5,zapato,,,,,341.1046,341.8243,1,1,0.2019,,0,79,79,4,1,REAL,FAKE,,,,,,,,,,,,,,,,,
,,,,,,,,,5fa315662ca5b25d05ae8236,spanish,13 or older,"yes, I am fluent in another language",no,2025-07-24_06h59.31.359,empathy_intonation_perc_control,2024.2.4,MacIntel,60.60606061,5fa315662ca5b25d05ae8236,68817205a84113384fffdfe3,688211e681035e867bb12644,,,,,,,,,,,,,0,,,,,,,,,,,,,,,,,,,,,,,,,,,,,,,,,,,,,72,pemición,,,,,341.8248,342.8699,1,0,0.5142,,0,80,80,71,1,REAL,FAKE,,,,,,,,,,,,,,,,,
,,,,,,,,,5fa315662ca5b25d05ae8236,spanish,13 or older,"yes, I am fluent in another language",no,2025-07-24_06h59.31.359,empathy_intonation_perc_control,2024.2.4,MacIntel,60.60606061,5fa315662ca5b25d05ae8236,68817205a84113384fffdfe3,688211e681035e867bb12644,,,,,,,,,,,,,1,,,,,,,,,,,,,,,,,,,,,,,,,,,,,,,,,,,,,37,granuja,,,,,342.8705,343.9749,1,1,0.5693,,0,81,81,36,1,REAL,FAKE,,,,,,,,,,,,,,,,,
,,,,,,,,,5fa315662ca5b25d05ae8236,spanish,13 or older,"yes, I am fluent in another language",no,2025-07-24_06h59.31.359,empathy_intonation_perc_control,2024.2.4,MacIntel,60.60606061,5fa315662ca5b25d05ae8236,68817205a84113384fffdfe3,688211e681035e867bb12644,,,,,,,,,,,,,1,,,,,,,,,,,,,,,,,,,,,,,,,,,,,,,,,,,,,56,musgo,,,,,343.9753,345.3051,0,0,0.7997,,0,82,82,55,1,REAL,FAKE,,,,,,,,,,,,,,,,,
,,,,,,,,,5fa315662ca5b25d05ae8236,spanish,13 or older,"yes, I am fluent in another language",no,2025-07-24_06h59.31.359,empathy_intonation_perc_control,2024.2.4,MacIntel,60.60606061,5fa315662ca5b25d05ae8236,68817205a84113384fffdfe3,688211e681035e867bb12644,,,,,,,,,,,,,1,,,,,,,,,,,,,,,,,,,,,,,,,,,,,,,,,,,,,80,hormiga,,,,,345.3056,346.4571,1,1,0.6168,,0,83,83,79,1,REAL,FAKE,,,,,,,,,,,,,,,,,
,,,,,,,,,5fa315662ca5b25d05ae8236,spanish,13 or older,"yes, I am fluent in another language",no,2025-07-24_06h59.31.359,empathy_intonation_perc_control,2024.2.4,MacIntel,60.60606061,5fa315662ca5b25d05ae8236,68817205a84113384fffdfe3,688211e681035e867bb12644,,,,,,,,,,,,,1,,,,,,,,,,,,,,,,,,,,,,,,,,,,,,,,,,,,,60,matar,,,,,346.4576,347.9085,1,1,0.9021,,0,84,84,59,1,REAL,FAKE,,,,,,,,,,,,,,,,,
,,,,,,,,,5fa315662ca5b25d05ae8236,spanish,13 or older,"yes, I am fluent in another language",no,2025-07-24_06h59.31.359,empathy_intonation_perc_control,2024.2.4,MacIntel,60.60606061,5fa315662ca5b25d05ae8236,68817205a84113384fffdfe3,688211e681035e867bb12644,,,,,,,,,,,,,1,,,,,,,,,,,,,,,,,,,,,,,,,,,,,,,,,,,,,6,tergiversar,,,,,347.9092,349.3404,0,0,0.885,,0,85,85,5,1,REAL,FAKE,,,,,,,,,,,,,,,,,
,,,,,,,,,5fa315662ca5b25d05ae8236,spanish,13 or older,"yes, I am fluent in another language",no,2025-07-24_06h59.31.359,empathy_intonation_perc_control,2024.2.4,MacIntel,60.60606061,5fa315662ca5b25d05ae8236,68817205a84113384fffdfe3,688211e681035e867bb12644,,,,,,,,,,,,,0,,,,,,,,,,,,,,,,,,,,,,,,,,,,,,,,,,,,,79,tropaje,,,,,349.3409,350.5094,1,0,0.6335,,0,86,86,78,1,REAL,FAKE,,,,,,,,,,,,,,,,,
,,,,,,,,,5fa315662ca5b25d05ae8236,spanish,13 or older,"yes, I am fluent in another language",no,2025-07-24_06h59.31.359,empathy_intonation_perc_control,2024.2.4,MacIntel,60.60606061,5fa315662ca5b25d05ae8236,68817205a84113384fffdfe3,688211e681035e867bb12644,,,,,,,,,,,,,1,,,,,,,,,,,,,,,,,,,,,,,,,,,,,,,,,,,,,38,estornudar,,,,,350.51,351.8043,1,1,0.7495,,0,87,87,37,1,REAL,FAKE,,,,,,,,,,,,,,,,,
,,,,,,,,,5fa315662ca5b25d05ae8236,spanish,13 or older,"yes, I am fluent in another language",no,2025-07-24_06h59.31.359,empathy_intonation_perc_control,2024.2.4,MacIntel,60.60606061,5fa315662ca5b25d05ae8236,68817205a84113384fffdfe3,688211e681035e867bb12644,,,,,,,,,,,,,1,,,,,,,,,,,,,,,,,,,,,,,,,,,,,,,,,,,,,55,nevar,,,,,351.8047,352.8256,0,0,0.5036,,0,88,88,54,1,REAL,FAKE,,,,,,,,,,,,,,,,,
,,,,,,,,,5fa315662ca5b25d05ae8236,spanish,13 or older,"yes, I am fluent in another language",no,2025-07-24_06h59.31.359,empathy_intonation_perc_control,2024.2.4,MacIntel,60.60606061,5fa315662ca5b25d05ae8236,68817205a84113384fffdfe3,688211e681035e867bb12644,,,,,,,,,,,,,1,,,,,,,,,,,,,,,,,,,,,,,,,,,,,,,,,,,,,14,yunque,,,,,352.8261,353.9739,0,0,0.6018,,0,89,89,13,1,REAL,FAKE,,,,,,,,,,,,,,,,,
,,,,,,,,,5fa315662ca5b25d05ae8236,spanish,13 or older,"yes, I am fluent in another language",no,2025-07-24_06h59.31.359,empathy_intonation_perc_control,2024.2.4,MacIntel,60.60606061,5fa315662ca5b25d05ae8236,68817205a84113384fffdfe3,688211e681035e867bb12644,,,,,,,,,,,,,0,,,,,,,,,,,,,,,,,,,,,,,,,,,,,,,,,,,,,19,brecedad,,,,,353.9744,354.9078,1,0,0.3845,,0,90,90,18,1,REAL,FAKE,,,,,,,,,,,,,,,,,
,,,,,,,,,5fa315662ca5b25d05ae8236,spanish,13 or older,"yes, I am fluent in another language",no,2025-07-24_06h59.31.359,empathy_intonation_perc_control,2024.2.4,MacIntel,60.60606061,5fa315662ca5b25d05ae8236,68817205a84113384fffdfe3,688211e681035e867bb12644,,,,,,,,,,,,,0,,,,,,,,,,,,,,,,,,,,,,,,,,,,,,,,,,,,,4,batillón,,,,,354.9082,356.075,1,0,0.6187,,0,91,91,3,1,REAL,FAKE,,,,,,,,,,,,,,,,,
,,,,,,,,,5fa315662ca5b25d05ae8236,spanish,13 or older,"yes, I am fluent in another language",no,2025-07-24_06h59.31.359,empathy_intonation_perc_control,2024.2.4,MacIntel,60.60606061,5fa315662ca5b25d05ae8236,68817205a84113384fffdfe3,688211e681035e867bb12644,,,,,,,,,,,,,,,,,,,,,,,,,,,,,,,,,,,,,,,,,,,,,,,,,,,,,,,,,,,,,,,,,,,,,356.0752,357.6178,,,,,,,,,,,,,,,
,,,,,,,,,5fa315662ca5b25d05ae8236,spanish,13 or older,"yes, I am fluent in another language",no,2025-07-24_06h59.31.359,empathy_intonation_perc_control,2024.2.4,MacIntel,60.60606061,5fa315662ca5b25d05ae8236,68817205a84113384fffdfe3,688211e681035e867bb12644,,,,,,,,,,,,,,,,,,,,,,,,,,,1,,,,,,,,,,,,,,,,,,,,,,,,,,,,,,,,,,,,,,,,,,,,357.6315,364.9733,slightly agree,0,0,0,0,1,I can easily tell if someone else wants to enter a conversation.,1,0,1,0,,
,,,,,,,,,5fa315662ca5b25d05ae8236,spanish,13 or older,"yes, I am fluent in another language",no,2025-07-24_06h59.31.359,empathy_intonation_perc_control,2024.2.4,MacIntel,60.60606061,5fa315662ca5b25d05ae8236,68817205a84113384fffdfe3,688211e681035e867bb12644,,,,,,,,,,,,,,,,,,,,,,,,,,,2,,,,,,,,,,,,,,,,,,,,,,,,,,,,,,,,,,,,,,,,,,,,364.974,369.2411,slightly disagree,0,1,1,1,1,I prefer animals to humans.,0,1,0,0,,
,,,,,,,,,5fa315662ca5b25d05ae8236,spanish,13 or older,"yes, I am fluent in another language",no,2025-07-24_06h59.31.359,empathy_intonation_perc_control,2024.2.4,MacIntel,60.60606061,5fa315662ca5b25d05ae8236,68817205a84113384fffdfe3,688211e681035e867bb12644,,,,,,,,,,,,,,,,,,,,,,,,,,,3,,,,,,,,,,,,,,,,,,,,,,,,,,,,,,,,,,,,,,,,,,,,369.2419,372.2602,strongly agree,0,2,2,2,1,I try to keep up with the current trends and fashions.,0,1,0,0,,
,,,,,,,,,5fa315662ca5b25d05ae8236,spanish,13 or older,"yes, I am fluent in another language",no,2025-07-24_06h59.31.359,empathy_intonation_perc_control,2024.2.4,MacIntel,60.60606061,5fa315662ca5b25d05ae8236,68817205a84113384fffdfe3,688211e681035e867bb12644,,,,,,,,,,,,,,,,,,,,,,,,,,,4,,,,,,,,,,,,,,,,,,,,,,,,,,,,,,,,,,,,,,,,,,,,372.2611,377.1417,slightly disagree,0,3,3,3,1,"I find it difficult to explain to others things that I understand easily,   when they don't understand it first time.",1,0,0,1,,
,,,,,,,,,5fa315662ca5b25d05ae8236,spanish,13 or older,"yes, I am fluent in another language",no,2025-07-24_06h59.31.359,empathy_intonation_perc_control,2024.2.4,MacIntel,60.60606061,5fa315662ca5b25d05ae8236,68817205a84113384fffdfe3,688211e681035e867bb12644,,,,,,,,,,,,,,,,,,,,,,,,,,,5,,,,,,,,,,,,,,,,,,,,,,,,,,,,,,,,,,,,,,,,,,,,377.1423,380.2778,strongly disagree,0,4,4,4,1,I dream most nights.,0,1,0,0,,
,,,,,,,,,5fa315662ca5b25d05ae8236,spanish,13 or older,"yes, I am fluent in another language",no,2025-07-24_06h59.31.359,empathy_intonation_perc_control,2024.2.4,MacIntel,60.60606061,5fa315662ca5b25d05ae8236,68817205a84113384fffdfe3,688211e681035e867bb12644,,,,,,,,,,,,,,,,,,,,,,,,,,,6,,,,,,,,,,,,,,,,,,,,,,,,,,,,,,,,,,,,,,,,,,,,380.2789,384.3083,strongly agree,0,5,5,5,1,I really enjoy caring for other people.,1,0,1,0,,
,,,,,,,,,5fa315662ca5b25d05ae8236,spanish,13 or older,"yes, I am fluent in another language",no,2025-07-24_06h59.31.359,empathy_intonation_perc_control,2024.2.4,MacIntel,60.60606061,5fa315662ca5b25d05ae8236,68817205a84113384fffdfe3,688211e681035e867bb12644,,,,,,,,,,,,,,,,,,,,,,,,,,,7,,,,,,,,,,,,,,,,,,,,,,,,,,,,,,,,,,,,,,,,,,,,384.3092,385.9419,strongly agree,0,6,6,6,1,I try to solve my own problems rather than discussing them with others.,0,1,0,0,,
,,,,,,,,,5fa315662ca5b25d05ae8236,spanish,13 or older,"yes, I am fluent in another language",no,2025-07-24_06h59.31.359,empathy_intonation_perc_control,2024.2.4,MacIntel,60.60606061,5fa315662ca5b25d05ae8236,68817205a84113384fffdfe3,688211e681035e867bb12644,,,,,,,,,,,,,,,,,,,,,,,,,,,8,,,,,,,,,,,,,,,,,,,,,,,,,,,,,,,,,,,,,,,,,,,,385.9427,388.9263,slightly disagree,0,7,7,7,1,I find it hard to know what to do in a social situation.,1,0,0,1,,
,,,,,,,,,5fa315662ca5b25d05ae8236,spanish,13 or older,"yes, I am fluent in another language",no,2025-07-24_06h59.31.359,empathy_intonation_perc_control,2024.2.4,MacIntel,60.60606061,5fa315662ca5b25d05ae8236,68817205a84113384fffdfe3,688211e681035e867bb12644,,,,,,,,,,,,,,,,,,,,,,,,,,,9,,,,,,,,,,,,,,,,,,,,,,,,,,,,,,,,,,,,,,,,,,,,388.9272,391.824,strongly agree,0,8,8,8,1,I am at my best first thing in the morning.,0,1,0,0,,
,,,,,,,,,5fa315662ca5b25d05ae8236,spanish,13 or older,"yes, I am fluent in another language",no,2025-07-24_06h59.31.359,empathy_intonation_perc_control,2024.2.4,MacIntel,60.60606061,5fa315662ca5b25d05ae8236,68817205a84113384fffdfe3,688211e681035e867bb12644,,,,,,,,,,,,,,,,,,,,,,,,,,,10,,,,,,,,,,,,,,,,,,,,,,,,,,,,,,,,,,,,,,,,,,,,391.8249,396.1563,strongly disagree,0,9,9,9,1,People often tell me that I went too far in driving my point home in a discussion.,1,0,0,1,,
,,,,,,,,,5fa315662ca5b25d05ae8236,spanish,13 or older,"yes, I am fluent in another language",no,2025-07-24_06h59.31.359,empathy_intonation_perc_control,2024.2.4,MacIntel,60.60606061,5fa315662ca5b25d05ae8236,68817205a84113384fffdfe3,688211e681035e867bb12644,,,,,,,,,,,,,,,,,,,,,,,,,,,11,,,,,,,,,,,,,,,,,,,,,,,,,,,,,,,,,,,,,,,,,,,,396.1571,399.5744,slightly disagree,0,10,10,10,1,It doesn't bother me too much if I am late meeting a friend.,1,0,0,1,,
,,,,,,,,,5fa315662ca5b25d05ae8236,spanish,13 or older,"yes, I am fluent in another language",no,2025-07-24_06h59.31.359,empathy_intonation_perc_control,2024.2.4,MacIntel,60.60606061,5fa315662ca5b25d05ae8236,68817205a84113384fffdfe3,688211e681035e867bb12644,,,,,,,,,,,,,,,,,,,,,,,,,,,12,,,,,,,,,,,,,,,,,,,,,,,,,,,,,,,,,,,,,,,,,,,,399.5754,402.8738,slightly disagree,0,11,11,11,1,"Friendships and relationships are just too difficult, so I tend not to 
  bother with them.",1,0,0,1,,
,,,,,,,,,5fa315662ca5b25d05ae8236,spanish,13 or older,"yes, I am fluent in another language",no,2025-07-24_06h59.31.359,empathy_intonation_perc_control,2024.2.4,MacIntel,60.60606061,5fa315662ca5b25d05ae8236,68817205a84113384fffdfe3,688211e681035e867bb12644,,,,,,,,,,,,,,,,,,,,,,,,,,,13,,,,,,,,,,,,,,,,,,,,,,,,,,,,,,,,,,,,,,,,,,,,402.8746,405.5264,slightly disagree,0,12,12,12,1,"I would never break a law, no matter how minor.",0,1,0,0,,
,,,,,,,,,5fa315662ca5b25d05ae8236,spanish,13 or older,"yes, I am fluent in another language",no,2025-07-24_06h59.31.359,empathy_intonation_perc_control,2024.2.4,MacIntel,60.60606061,5fa315662ca5b25d05ae8236,68817205a84113384fffdfe3,688211e681035e867bb12644,,,,,,,,,,,,,,,,,,,,,,,,,,,14,,,,,,,,,,,,,,,,,,,,,,,,,,,,,,,,,,,,,,,,,,,,405.5276,408.1564,slightly disagree,0,13,13,13,1,I often find it difficult to judge if something is rude or polite.,1,0,0,1,,
,,,,,,,,,5fa315662ca5b25d05ae8236,spanish,13 or older,"yes, I am fluent in another language",no,2025-07-24_06h59.31.359,empathy_intonation_perc_control,2024.2.4,MacIntel,60.60606061,5fa315662ca5b25d05ae8236,68817205a84113384fffdfe3,688211e681035e867bb12644,,,,,,,,,,,,,,,,,,,,,,,,,,,15,,,,,,,,,,,,,,,,,,,,,,,,,,,,,,,,,,,,,,,,,,,,408.1572,411.358,slightly disagree,0,14,14,14,1,"In a conversation, I tend to focus on my own thoughts rather than on what 
  my listener might be thinking.",1,0,0,1,,
,,,,,,,,,5fa315662ca5b25d05ae8236,spanish,13 or older,"yes, I am fluent in another language",no,2025-07-24_06h59.31.359,empathy_intonation_perc_control,2024.2.4,MacIntel,60.60606061,5fa315662ca5b25d05ae8236,68817205a84113384fffdfe3,688211e681035e867bb12644,,,,,,,,,,,,,,,,,,,,,,,,,,,16,,,,,,,,,,,,,,,,,,,,,,,,,,,,,,,,,,,,,,,,,,,,411.3586,414.1096,slightly disagree,0,15,15,15,1,I prefer practical jokes to verbal humor.,0,1,0,0,,
,,,,,,,,,5fa315662ca5b25d05ae8236,spanish,13 or older,"yes, I am fluent in another language",no,2025-07-24_06h59.31.359,empathy_intonation_perc_control,2024.2.4,MacIntel,60.60606061,5fa315662ca5b25d05ae8236,68817205a84113384fffdfe3,688211e681035e867bb12644,,,,,,,,,,,,,,,,,,,,,,,,,,,17,,,,,,,,,,,,,,,,,,,,,,,,,,,,,,,,,,,,,,,,,,,,414.1103,414.9899,slightly disagree,0,16,16,16,1,I live life for today rather than the future.,0,1,0,0,,
,,,,,,,,,5fa315662ca5b25d05ae8236,spanish,13 or older,"yes, I am fluent in another language",no,2025-07-24_06h59.31.359,empathy_intonation_perc_control,2024.2.4,MacIntel,60.60606061,5fa315662ca5b25d05ae8236,68817205a84113384fffdfe3,688211e681035e867bb12644,,,,,,,,,,,,,,,,,,,,,,,,,,,18,,,,,,,,,,,,,,,,,,,,,,,,,,,,,,,,,,,,,,,,,,,,414.9909,415.6071,slightly disagree,0,17,17,17,1,"When I was a child, I enjoyed cutting up worms to see what would happen.",1,0,0,1,,
