instructions_2afc.started,instructions_2afc.stopped,instructions_2afc_loop.thisRepN,instructions_2afc_loop.thisTrialN,instructions_2afc_loop.thisN,instructions_2afc_loop.thisIndex,instructions_2afc_loop.ran,instructions_text,continue_text,participant_id,"What variety of Spanish are you most familiar with? (e.g., Peruvian, Spanish, Mexican)",At what age did you begin learning Spanish?,Are you proficient in any languages other than English/Spanish?,"Are you familiar with Caribbean (e.g., Caribbean, Puerto Rican) or Galician Spanish?",date,expName,psychopyVersion,OS,frameRate,id,study_id,session,practice_2afc.started,practice_2afc.stopped,key_resp_2afc_practice.keys,key_resp_2afc_practice.corr,key_resp_2afc_practice.rt,key_resp_2afc_practice.duration,trials_2afc_practice_loop.thisRepN,trials_2afc_practice_loop.thisTrialN,trials_2afc_practice_loop.thisN,trials_2afc_practice_loop.thisIndex,trials_2afc_practice_loop.ran,path,correct_response,check_2afc.started,check_2afc.stopped,trial_2afc.started,trial_2afc.stopped,key_resp_2afc_trial.keys,key_resp_2afc_trial.corr,key_resp_2afc_trial.rt,key_resp_2afc_trial.duration,trials_2afc_loop.thisRepN,trials_2afc_loop.thisTrialN,trials_2afc_loop.thisN,trials_2afc_loop.thisIndex,trials_2afc_loop.ran,item_num,target,variety,instructions_lextale.started,instructions_lextale.stopped,instructions_lextale_loop.thisRepN,instructions_lextale_loop.thisTrialN,instructions_lextale_loop.thisN,instructions_lextale_loop.thisIndex,instructions_lextale_loop.ran,practice_lextale.started,practice_lextale.stopped,key_resp_lextale_practice.keys,key_resp_lextale_practice.corr,key_resp_lextale_practice.rt,key_resp_lextale_practice.duration,practice_feedback_lextale.started,practice_feedback_lextale.stopped,trials_lextale_practice_loop.thisRepN,trials_lextale_practice_loop.thisTrialN,trials_lextale_practice_loop.thisN,trials_lextale_practice_loop.thisIndex,trials_lextale_practice_loop.ran,stim,word,prac_button_real,prac_button_false,check_lextale.started,check_lextale.stopped,trial_lextale.started,trial_lextale.stopped,key_resp_lextale_trial.keys,key_resp_lextale_trial.corr,key_resp_lextale_trial.rt,key_resp_lextale_trial.duration,trials_lextale_loop.thisRepN,trials_lextale_loop.thisTrialN,trials_lextale_loop.thisN,trials_lextale_loop.thisIndex,trials_lextale_loop.ran,button_real,button_false,instructions_eq.started,instructions_eq.stopped,trial_eq.started,trial_eq.stopped,slider_eq_trial.response,trials_eq_loop.thisRepN,trials_eq_loop.thisTrialN,trials_eq_loop.thisN,trials_eq_loop.thisIndex,trials_eq_loop.ran,item,is_test_item,is_distractor,is_agree_score,is_disagree_score,end_exp.started,end_exp.stopped
0.0183,3.5047,0,0,0,0,1,"In the following task you are going to hear a series of utterances. 

  You will decide if the utterances sound like questions or not using your keyboard.", (press the spacebar to continue),5fc43dcde1880f139efc0b0a,spanish,13 or older,"no, only English or Spanish",no,2025-07-24_12h18.15.855,empathy_intonation_perc_control,2024.2.4,Win32,59.88023952,5fc43dcde1880f139efc0b0a,68817205a84113384fffdfe3,68825ca28df1a9c15ad25c9f,,,,,,,,,,,,,,,,,,,,,,,,,,,,,,,,,,,,,,,,,,,,,,,,,,,,,,,,,,,,,,,,,,,,,,,,,,,,,,,,,,,,,
3.5061,6.852,0,1,1,1,1,"If you believe the utterance is a question, type '1' (for 'yes') and if you do not 
  believe it is a question type '0' (for 'no').

  Let's practice a bit...", (press the spacebar to continue),5fc43dcde1880f139efc0b0a,spanish,13 or older,"no, only English or Spanish",no,2025-07-24_12h18.15.855,empathy_intonation_perc_control,2024.2.4,Win32,59.88023952,5fc43dcde1880f139efc0b0a,68817205a84113384fffdfe3,68825ca28df1a9c15ad25c9f,,,,,,,,,,,,,,,,,,,,,,,,,,,,,,,,,,,,,,,,,,,,,,,,,,,,,,,,,,,,,,,,,,,,,,,,,,,,,,,,,,,,,
,,,,,,,,,5fc43dcde1880f139efc0b0a,spanish,13 or older,"no, only English or Spanish",no,2025-07-24_12h18.15.855,empathy_intonation_perc_control,2024.2.4,Win32,59.88023952,5fc43dcde1880f139efc0b0a,68817205a84113384fffdfe3,68825ca28df1a9c15ad25c9f,6.8748,41.4733,1,1,34.0734,,0,0,0,0,1,./stim/wavs/castilian_question_filler_Mi-esposo-conoce-al-chico.wav,1,,,,,,,,,,,,,,,,,,,,,,,,,,,,,,,,,,,,,,,,,,,,,,,,,,,,,,,,,,,,,,,,,,,,,,,,
,,,,,,,,,5fc43dcde1880f139efc0b0a,spanish,13 or older,"no, only English or Spanish",no,2025-07-24_12h18.15.855,empathy_intonation_perc_control,2024.2.4,Win32,59.88023952,5fc43dcde1880f139efc0b0a,68817205a84113384fffdfe3,68825ca28df1a9c15ad25c9f,41.4758,54.2618,1,0,12.262,,0,1,1,5,1,./stim/wavs/andalusian_statement_filler_Alberto-nunca-se-afeita.wav,0,,,,,,,,,,,,,,,,,,,,,,,,,,,,,,,,,,,,,,,,,,,,,,,,,,,,,,,,,,,,,,,,,,,,,,,,
,,,,,,,,,5fc43dcde1880f139efc0b0a,spanish,13 or older,"no, only English or Spanish",no,2025-07-24_12h18.15.855,empathy_intonation_perc_control,2024.2.4,Win32,59.88023952,5fc43dcde1880f139efc0b0a,68817205a84113384fffdfe3,68825ca28df1a9c15ad25c9f,54.2632,56.6932,1,0,1.8986,,0,2,2,4,1,./stim/wavs/cuban_statement_filler_Cocinabas-por-la-noche.wav,0,,,,,,,,,,,,,,,,,,,,,,,,,,,,,,,,,,,,,,,,,,,,,,,,,,,,,,,,,,,,,,,,,,,,,,,,
,,,,,,,,,5fc43dcde1880f139efc0b0a,spanish,13 or older,"no, only English or Spanish",no,2025-07-24_12h18.15.855,empathy_intonation_perc_control,2024.2.4,Win32,59.88023952,5fc43dcde1880f139efc0b0a,68817205a84113384fffdfe3,68825ca28df1a9c15ad25c9f,56.6945,59.108,1,1,1.8837,,0,3,3,3,1,./stim/wavs/mexican_question_filler_Felipe-no-tiene-contrasena.wav,1,,,,,,,,,,,,,,,,,,,,,,,,,,,,,,,,,,,,,,,,,,,,,,,,,,,,,,,,,,,,,,,,,,,,,,,,
,,,,,,,,,5fc43dcde1880f139efc0b0a,spanish,13 or older,"no, only English or Spanish",no,2025-07-24_12h18.15.855,empathy_intonation_perc_control,2024.2.4,Win32,59.88023952,5fc43dcde1880f139efc0b0a,68817205a84113384fffdfe3,68825ca28df1a9c15ad25c9f,59.1094,64.0869,1,0,4.4492,,0,4,4,6,1,./stim/wavs/peruvian_statement_filler_El-nino-habla-con-su-madre.wav,0,,,,,,,,,,,,,,,,,,,,,,,,,,,,,,,,,,,,,,,,,,,,,,,,,,,,,,,,,,,,,,,,,,,,,,,,
,,,,,,,,,5fc43dcde1880f139efc0b0a,spanish,13 or older,"no, only English or Spanish",no,2025-07-24_12h18.15.855,empathy_intonation_perc_control,2024.2.4,Win32,59.88023952,5fc43dcde1880f139efc0b0a,68817205a84113384fffdfe3,68825ca28df1a9c15ad25c9f,64.0887,65.7023,1,0,1.0814,,0,5,5,7,1,./stim/wavs/puertorican_statement_filler_La-nina-pinta-con-su-amiga.wav,0,,,,,,,,,,,,,,,,,,,,,,,,,,,,,,,,,,,,,,,,,,,,,,,,,,,,,,,,,,,,,,,,,,,,,,,,
,,,,,,,,,5fc43dcde1880f139efc0b0a,spanish,13 or older,"no, only English or Spanish",no,2025-07-24_12h18.15.855,empathy_intonation_perc_control,2024.2.4,Win32,59.88023952,5fc43dcde1880f139efc0b0a,68817205a84113384fffdfe3,68825ca28df1a9c15ad25c9f,65.7028,66.6847,1,1,0.4593,,0,6,6,2,1,./stim/wavs/chilean_question_filler_Mi-padre-cantaba-bien.wav,1,,,,,,,,,,,,,,,,,,,,,,,,,,,,,,,,,,,,,,,,,,,,,,,,,,,,,,,,,,,,,,,,,,,,,,,,
,,,,,,,,,5fc43dcde1880f139efc0b0a,spanish,13 or older,"no, only English or Spanish",no,2025-07-24_12h18.15.855,empathy_intonation_perc_control,2024.2.4,Win32,59.88023952,5fc43dcde1880f139efc0b0a,68817205a84113384fffdfe3,68825ca28df1a9c15ad25c9f,66.6852,68.5335,1,1,1.3145,,0,7,7,1,1,./stim/wavs/argentine_question_filler_Mi-vecino-habla-mucho.wav,1,,,,,,,,,,,,,,,,,,,,,,,,,,,,,,,,,,,,,,,,,,,,,,,,,,,,,,,,,,,,,,,,,,,,,,,,
,,,,,,,,,5fc43dcde1880f139efc0b0a,spanish,13 or older,"no, only English or Spanish",no,2025-07-24_12h18.15.855,empathy_intonation_perc_control,2024.2.4,Win32,59.88023952,5fc43dcde1880f139efc0b0a,68817205a84113384fffdfe3,68825ca28df1a9c15ad25c9f,,,,,,,,,,,,,,68.5343,72.131,,,,,,,,,,,,,,,,,,,,,,,,,,,,,,,,,,,,,,,,,,,,,,,,,,,,,,,,,,,,,,,,,,,,,,
,,,,,,,,,5fc43dcde1880f139efc0b0a,spanish,13 or older,"no, only English or Spanish",no,2025-07-24_12h18.15.855,empathy_intonation_perc_control,2024.2.4,Win32,59.88023952,5fc43dcde1880f139efc0b0a,68817205a84113384fffdfe3,68825ca28df1a9c15ad25c9f,,,,,,,,,,,,./stim/wavs/puertorican_mismatch_declarative-broad-focus_El-hombre-mira-la-luna.wav,0,,,72.1509,74.5143,1,0,1.8343,,0,0,0,84,1,85,0,puertorican,,,,,,,,,,,,,,,,,,,,,,,,,,,,,,,,,,,,,,,,,,,,,,,,,,,,,,,,
,,,,,,,,,5fc43dcde1880f139efc0b0a,spanish,13 or older,"no, only English or Spanish",no,2025-07-24_12h18.15.855,empathy_intonation_perc_control,2024.2.4,Win32,59.88023952,5fc43dcde1880f139efc0b0a,68817205a84113384fffdfe3,68825ca28df1a9c15ad25c9f,,,,,,,,,,,,./stim/wavs/mexican_mismatch_declarative-broad-focus_El-hombre-mira-la-luna.wav,0,,,74.5172,79.9572,1,0,4.9191,,0,1,1,79,1,80,0,mexican,,,,,,,,,,,,,,,,,,,,,,,,,,,,,,,,,,,,,,,,,,,,,,,,,,,,,,,,
,,,,,,,,,5fc43dcde1880f139efc0b0a,spanish,13 or older,"no, only English or Spanish",no,2025-07-24_12h18.15.855,empathy_intonation_perc_control,2024.2.4,Win32,59.88023952,5fc43dcde1880f139efc0b0a,68817205a84113384fffdfe3,68825ca28df1a9c15ad25c9f,,,,,,,,,,,,./stim/wavs/puertorican_match_declarative-broad-focus_Emilio-ama-la-marcha.wav,0,,,79.9585,82.2389,1,0,1.7481,,0,2,2,65,1,66,0,puertorican,,,,,,,,,,,,,,,,,,,,,,,,,,,,,,,,,,,,,,,,,,,,,,,,,,,,,,,,
,,,,,,,,,5fc43dcde1880f139efc0b0a,spanish,13 or older,"no, only English or Spanish",no,2025-07-24_12h18.15.855,empathy_intonation_perc_control,2024.2.4,Win32,59.88023952,5fc43dcde1880f139efc0b0a,68817205a84113384fffdfe3,68825ca28df1a9c15ad25c9f,,,,,,,,,,,,./stim/wavs/castilian_match_declarative-broad-focus_Emilio-ama-la-marcha.wav,0,,,82.2406,84.4373,1,0,1.6716,,0,3,3,45,1,46,0,castilian,,,,,,,,,,,,,,,,,,,,,,,,,,,,,,,,,,,,,,,,,,,,,,,,,,,,,,,,
,,,,,,,,,5fc43dcde1880f139efc0b0a,spanish,13 or older,"no, only English or Spanish",no,2025-07-24_12h18.15.855,empathy_intonation_perc_control,2024.2.4,Win32,59.88023952,5fc43dcde1880f139efc0b0a,68817205a84113384fffdfe3,68825ca28df1a9c15ad25c9f,,,,,,,,,,,,./stim/wavs/castilian_mismatch_interrogative-total-yn_Mi-madre-come-la-fruta.wav,1,,,84.4393,86.8186,1,1,1.8463,,0,4,4,26,1,27,0,castilian,,,,,,,,,,,,,,,,,,,,,,,,,,,,,,,,,,,,,,,,,,,,,,,,,,,,,,,,
,,,,,,,,,5fc43dcde1880f139efc0b0a,spanish,13 or older,"no, only English or Spanish",no,2025-07-24_12h18.15.855,empathy_intonation_perc_control,2024.2.4,Win32,59.88023952,5fc43dcde1880f139efc0b0a,68817205a84113384fffdfe3,68825ca28df1a9c15ad25c9f,,,,,,,,,,,,./stim/wavs/cuban_mismatch_interrogative-total-yn_El-nino-oye-el-rio.wav,1,,,86.8197,88.867,1,1,1.5212,,0,5,5,30,1,31,1,cuban,,,,,,,,,,,,,,,,,,,,,,,,,,,,,,,,,,,,,,,,,,,,,,,,,,,,,,,,
,,,,,,,,,5fc43dcde1880f139efc0b0a,spanish,13 or older,"no, only English or Spanish",no,2025-07-24_12h18.15.855,empathy_intonation_perc_control,2024.2.4,Win32,59.88023952,5fc43dcde1880f139efc0b0a,68817205a84113384fffdfe3,68825ca28df1a9c15ad25c9f,,,,,,,,,,,,./stim/wavs/cuban_match_declarative-broad-focus_Marta-abre-el-regalo.wav,0,,,88.8691,92.0655,1,0,2.6703,,0,6,6,55,1,56,0,cuban,,,,,,,,,,,,,,,,,,,,,,,,,,,,,,,,,,,,,,,,,,,,,,,,,,,,,,,,
,,,,,,,,,5fc43dcde1880f139efc0b0a,spanish,13 or older,"no, only English or Spanish",no,2025-07-24_12h18.15.855,empathy_intonation_perc_control,2024.2.4,Win32,59.88023952,5fc43dcde1880f139efc0b0a,68817205a84113384fffdfe3,68825ca28df1a9c15ad25c9f,,,,,,,,,,,,./stim/wavs/mexican_match_declarative-broad-focus_Daniel-iba-a-Bolivia.wav,0,,,92.0665,93.9461,1,0,1.3528,,0,7,7,57,1,58,0,mexican,,,,,,,,,,,,,,,,,,,,,,,,,,,,,,,,,,,,,,,,,,,,,,,,,,,,,,,,
,,,,,,,,,5fc43dcde1880f139efc0b0a,spanish,13 or older,"no, only English or Spanish",no,2025-07-24_12h18.15.855,empathy_intonation_perc_control,2024.2.4,Win32,59.88023952,5fc43dcde1880f139efc0b0a,68817205a84113384fffdfe3,68825ca28df1a9c15ad25c9f,,,,,,,,,,,,./stim/wavs/mexican_match_interrogative-total-yn_Marta-abre-el-regalo.wav,1,,,93.9476,95.8943,1,1,1.421,,0,8,8,17,1,18,0,mexican,,,,,,,,,,,,,,,,,,,,,,,,,,,,,,,,,,,,,,,,,,,,,,,,,,,,,,,,
,,,,,,,,,5fc43dcde1880f139efc0b0a,spanish,13 or older,"no, only English or Spanish",no,2025-07-24_12h18.15.855,empathy_intonation_perc_control,2024.2.4,Win32,59.88023952,5fc43dcde1880f139efc0b0a,68817205a84113384fffdfe3,68825ca28df1a9c15ad25c9f,,,,,,,,,,,,./stim/wavs/cuban_mismatch_interrogative-total-yn_Mi-madre-come-la-fruta.wav,1,,,95.8959,97.8759,1,1,1.4497,,0,9,9,31,1,32,1,cuban,,,,,,,,,,,,,,,,,,,,,,,,,,,,,,,,,,,,,,,,,,,,,,,,,,,,,,,,
,,,,,,,,,5fc43dcde1880f139efc0b0a,spanish,13 or older,"no, only English or Spanish",no,2025-07-24_12h18.15.855,empathy_intonation_perc_control,2024.2.4,Win32,59.88023952,5fc43dcde1880f139efc0b0a,68817205a84113384fffdfe3,68825ca28df1a9c15ad25c9f,,,,,,,,,,,,./stim/wavs/castilian_match_declarative-broad-focus_Manuela-vende-el-carro.wav,0,,,97.8769,100.724,1,0,2.3165,,0,10,10,46,1,47,0,castilian,,,,,,,,,,,,,,,,,,,,,,,,,,,,,,,,,,,,,,,,,,,,,,,,,,,,,,,,
,,,,,,,,,5fc43dcde1880f139efc0b0a,spanish,13 or older,"no, only English or Spanish",no,2025-07-24_12h18.15.855,empathy_intonation_perc_control,2024.2.4,Win32,59.88023952,5fc43dcde1880f139efc0b0a,68817205a84113384fffdfe3,68825ca28df1a9c15ad25c9f,,,,,,,,,,,,./stim/wavs/castilian_match_declarative-broad-focus_Mariano-habla-del-tiempo.wav,0,,,100.7259,103.9378,0,1,2.6817,,0,11,11,48,1,49,0,castilian,,,,,,,,,,,,,,,,,,,,,,,,,,,,,,,,,,,,,,,,,,,,,,,,,,,,,,,,
,,,,,,,,,5fc43dcde1880f139efc0b0a,spanish,13 or older,"no, only English or Spanish",no,2025-07-24_12h18.15.855,empathy_intonation_perc_control,2024.2.4,Win32,59.88023952,5fc43dcde1880f139efc0b0a,68817205a84113384fffdfe3,68825ca28df1a9c15ad25c9f,,,,,,,,,,,,./stim/wavs/castilian_mismatch_declarative-broad-focus_El-nino-oye-el-rio.wav,0,,,103.9393,106.2857,0,1,1.8145,,0,12,12,68,1,69,0,castilian,,,,,,,,,,,,,,,,,,,,,,,,,,,,,,,,,,,,,,,,,,,,,,,,,,,,,,,,
,,,,,,,,,5fc43dcde1880f139efc0b0a,spanish,13 or older,"no, only English or Spanish",no,2025-07-24_12h18.15.855,empathy_intonation_perc_control,2024.2.4,Win32,59.88023952,5fc43dcde1880f139efc0b0a,68817205a84113384fffdfe3,68825ca28df1a9c15ad25c9f,,,,,,,,,,,,./stim/wavs/castilian_match_interrogative-total-yn_David-leia-el-libro.wav,1,,,106.2864,108.5673,1,1,1.7491,,0,13,13,0,1,1,0,castilian,,,,,,,,,,,,,,,,,,,,,,,,,,,,,,,,,,,,,,,,,,,,,,,,,,,,,,,,
,,,,,,,,,5fc43dcde1880f139efc0b0a,spanish,13 or older,"no, only English or Spanish",no,2025-07-24_12h18.15.855,empathy_intonation_perc_control,2024.2.4,Win32,59.88023952,5fc43dcde1880f139efc0b0a,68817205a84113384fffdfe3,68825ca28df1a9c15ad25c9f,,,,,,,,,,,,./stim/wavs/mexican_match_interrogative-total-yn_Ana-lleva-el-abrigo.wav,1,,,108.5685,110.8822,0,0,1.7905,,0,14,14,12,1,13,0,mexican,,,,,,,,,,,,,,,,,,,,,,,,,,,,,,,,,,,,,,,,,,,,,,,,,,,,,,,,
,,,,,,,,,5fc43dcde1880f139efc0b0a,spanish,13 or older,"no, only English or Spanish",no,2025-07-24_12h18.15.855,empathy_intonation_perc_control,2024.2.4,Win32,59.88023952,5fc43dcde1880f139efc0b0a,68817205a84113384fffdfe3,68825ca28df1a9c15ad25c9f,,,,,,,,,,,,./stim/wavs/cuban_mismatch_declarative-broad-focus_El-bebe-comia-muy-bien.wav,0,,,110.8854,112.9805,0,1,1.5737,,0,15,15,73,1,74,0,cuban,,,,,,,,,,,,,,,,,,,,,,,,,,,,,,,,,,,,,,,,,,,,,,,,,,,,,,,,
,,,,,,,,,5fc43dcde1880f139efc0b0a,spanish,13 or older,"no, only English or Spanish",no,2025-07-24_12h18.15.855,empathy_intonation_perc_control,2024.2.4,Win32,59.88023952,5fc43dcde1880f139efc0b0a,68817205a84113384fffdfe3,68825ca28df1a9c15ad25c9f,,,,,,,,,,,,./stim/wavs/cuban_mismatch_interrogative-total-yn_Mi-tia-odia-la-lluvia.wav,1,,,112.983,115.1952,0,0,1.6806,,0,16,16,33,1,34,1,cuban,,,,,,,,,,,,,,,,,,,,,,,,,,,,,,,,,,,,,,,,,,,,,,,,,,,,,,,,
,,,,,,,,,5fc43dcde1880f139efc0b0a,spanish,13 or older,"no, only English or Spanish",no,2025-07-24_12h18.15.855,empathy_intonation_perc_control,2024.2.4,Win32,59.88023952,5fc43dcde1880f139efc0b0a,68817205a84113384fffdfe3,68825ca28df1a9c15ad25c9f,,,,,,,,,,,,./stim/wavs/puertorican_match_declarative-broad-focus_Ana-lleva-el-abrigo.wav,0,,,115.1969,117.4266,0,1,1.6979,,0,17,17,62,1,63,0,puertorican,,,,,,,,,,,,,,,,,,,,,,,,,,,,,,,,,,,,,,,,,,,,,,,,,,,,,,,,
,,,,,,,,,5fc43dcde1880f139efc0b0a,spanish,13 or older,"no, only English or Spanish",no,2025-07-24_12h18.15.855,empathy_intonation_perc_control,2024.2.4,Win32,59.88023952,5fc43dcde1880f139efc0b0a,68817205a84113384fffdfe3,68825ca28df1a9c15ad25c9f,,,,,,,,,,,,./stim/wavs/mexican_mismatch_declarative-broad-focus_El-bebe-comia-muy-bien.wav,0,,,117.428,119.875,0,1,1.9175,,0,18,18,78,1,79,0,mexican,,,,,,,,,,,,,,,,,,,,,,,,,,,,,,,,,,,,,,,,,,,,,,,,,,,,,,,,
,,,,,,,,,5fc43dcde1880f139efc0b0a,spanish,13 or older,"no, only English or Spanish",no,2025-07-24_12h18.15.855,empathy_intonation_perc_control,2024.2.4,Win32,59.88023952,5fc43dcde1880f139efc0b0a,68817205a84113384fffdfe3,68825ca28df1a9c15ad25c9f,,,,,,,,,,,,./stim/wavs/mexican_mismatch_interrogative-total-yn_La-maestra-vive-en-Paris.wav,1,,,119.8773,122.1254,1,1,1.7253,,0,19,19,36,1,37,0,mexican,,,,,,,,,,,,,,,,,,,,,,,,,,,,,,,,,,,,,,,,,,,,,,,,,,,,,,,,
,,,,,,,,,5fc43dcde1880f139efc0b0a,spanish,13 or older,"no, only English or Spanish",no,2025-07-24_12h18.15.855,empathy_intonation_perc_control,2024.2.4,Win32,59.88023952,5fc43dcde1880f139efc0b0a,68817205a84113384fffdfe3,68825ca28df1a9c15ad25c9f,,,,,,,,,,,,./stim/wavs/mexican_match_declarative-broad-focus_Emilio-ama-la-marcha.wav,0,,,122.1274,124.5381,1,0,1.8855,,0,20,20,59,1,60,0,mexican,,,,,,,,,,,,,,,,,,,,,,,,,,,,,,,,,,,,,,,,,,,,,,,,,,,,,,,,
,,,,,,,,,5fc43dcde1880f139efc0b0a,spanish,13 or older,"no, only English or Spanish",no,2025-07-24_12h18.15.855,empathy_intonation_perc_control,2024.2.4,Win32,59.88023952,5fc43dcde1880f139efc0b0a,68817205a84113384fffdfe3,68825ca28df1a9c15ad25c9f,,,,,,,,,,,,./stim/wavs/castilian_match_interrogative-total-yn_Marta-abre-el-regalo.wav,1,,,124.5402,126.8043,1,1,1.7394,,0,21,21,5,1,6,0,castilian,,,,,,,,,,,,,,,,,,,,,,,,,,,,,,,,,,,,,,,,,,,,,,,,,,,,,,,,
,,,,,,,,,5fc43dcde1880f139efc0b0a,spanish,13 or older,"no, only English or Spanish",no,2025-07-24_12h18.15.855,empathy_intonation_perc_control,2024.2.4,Win32,59.88023952,5fc43dcde1880f139efc0b0a,68817205a84113384fffdfe3,68825ca28df1a9c15ad25c9f,,,,,,,,,,,,./stim/wavs/puertorican_match_interrogative-total-yn_Manuela-vende-el-carro.wav,1,,,126.8069,129.1511,0,0,1.8213,,0,22,22,22,1,23,1,puertorican,,,,,,,,,,,,,,,,,,,,,,,,,,,,,,,,,,,,,,,,,,,,,,,,,,,,,,,,
,,,,,,,,,5fc43dcde1880f139efc0b0a,spanish,13 or older,"no, only English or Spanish",no,2025-07-24_12h18.15.855,empathy_intonation_perc_control,2024.2.4,Win32,59.88023952,5fc43dcde1880f139efc0b0a,68817205a84113384fffdfe3,68825ca28df1a9c15ad25c9f,,,,,,,,,,,,./stim/wavs/castilian_mismatch_declarative-broad-focus_La-nina-lava-el-plato.wav,0,,,129.1549,131.815,0,1,2.1301,,0,23,23,70,1,71,0,castilian,,,,,,,,,,,,,,,,,,,,,,,,,,,,,,,,,,,,,,,,,,,,,,,,,,,,,,,,
,,,,,,,,,5fc43dcde1880f139efc0b0a,spanish,13 or older,"no, only English or Spanish",no,2025-07-24_12h18.15.855,empathy_intonation_perc_control,2024.2.4,Win32,59.88023952,5fc43dcde1880f139efc0b0a,68817205a84113384fffdfe3,68825ca28df1a9c15ad25c9f,,,,,,,,,,,,./stim/wavs/puertorican_match_declarative-broad-focus_David-leia-el-libro.wav,0,,,131.8168,133.9797,0,1,1.6374,,0,24,24,64,1,65,0,puertorican,,,,,,,,,,,,,,,,,,,,,,,,,,,,,,,,,,,,,,,,,,,,,,,,,,,,,,,,
,,,,,,,,,5fc43dcde1880f139efc0b0a,spanish,13 or older,"no, only English or Spanish",no,2025-07-24_12h18.15.855,empathy_intonation_perc_control,2024.2.4,Win32,59.88023952,5fc43dcde1880f139efc0b0a,68817205a84113384fffdfe3,68825ca28df1a9c15ad25c9f,,,,,,,,,,,,./stim/wavs/castilian_match_interrogative-total-yn_Maria-bebe-el-vino.wav,1,,,133.9806,136.0112,1,1,1.4998,,0,25,25,3,1,4,0,castilian,,,,,,,,,,,,,,,,,,,,,,,,,,,,,,,,,,,,,,,,,,,,,,,,,,,,,,,,
,,,,,,,,,5fc43dcde1880f139efc0b0a,spanish,13 or older,"no, only English or Spanish",no,2025-07-24_12h18.15.855,empathy_intonation_perc_control,2024.2.4,Win32,59.88023952,5fc43dcde1880f139efc0b0a,68817205a84113384fffdfe3,68825ca28df1a9c15ad25c9f,,,,,,,,,,,,./stim/wavs/mexican_mismatch_declarative-broad-focus_Mi-novio-viene-del-lago.wav,0,,,136.0119,138.2765,0,1,1.7344,,0,26,26,81,1,82,0,mexican,,,,,,,,,,,,,,,,,,,,,,,,,,,,,,,,,,,,,,,,,,,,,,,,,,,,,,,,
,,,,,,,,,5fc43dcde1880f139efc0b0a,spanish,13 or older,"no, only English or Spanish",no,2025-07-24_12h18.15.855,empathy_intonation_perc_control,2024.2.4,Win32,59.88023952,5fc43dcde1880f139efc0b0a,68817205a84113384fffdfe3,68825ca28df1a9c15ad25c9f,,,,,,,,,,,,./stim/wavs/cuban_mismatch_declarative-broad-focus_La-nina-lava-el-plato.wav,0,,,138.2786,140.5574,0,1,1.7544,,0,27,27,75,1,76,0,cuban,,,,,,,,,,,,,,,,,,,,,,,,,,,,,,,,,,,,,,,,,,,,,,,,,,,,,,,,
,,,,,,,,,5fc43dcde1880f139efc0b0a,spanish,13 or older,"no, only English or Spanish",no,2025-07-24_12h18.15.855,empathy_intonation_perc_control,2024.2.4,Win32,59.88023952,5fc43dcde1880f139efc0b0a,68817205a84113384fffdfe3,68825ca28df1a9c15ad25c9f,,,,,,,,,,,,./stim/wavs/mexican_match_declarative-broad-focus_Ana-lleva-el-abrigo.wav,0,,,140.5581,142.6228,0,1,1.5312,,0,28,28,56,1,57,0,mexican,,,,,,,,,,,,,,,,,,,,,,,,,,,,,,,,,,,,,,,,,,,,,,,,,,,,,,,,
,,,,,,,,,5fc43dcde1880f139efc0b0a,spanish,13 or older,"no, only English or Spanish",no,2025-07-24_12h18.15.855,empathy_intonation_perc_control,2024.2.4,Win32,59.88023952,5fc43dcde1880f139efc0b0a,68817205a84113384fffdfe3,68825ca28df1a9c15ad25c9f,,,,,,,,,,,,./stim/wavs/mexican_match_interrogative-total-yn_Daniel-iba-a-Bolivia.wav,1,,,142.6241,144.8062,1,1,1.655,,0,29,29,13,1,14,0,mexican,,,,,,,,,,,,,,,,,,,,,,,,,,,,,,,,,,,,,,,,,,,,,,,,,,,,,,,,
,,,,,,,,,5fc43dcde1880f139efc0b0a,spanish,13 or older,"no, only English or Spanish",no,2025-07-24_12h18.15.855,empathy_intonation_perc_control,2024.2.4,Win32,59.88023952,5fc43dcde1880f139efc0b0a,68817205a84113384fffdfe3,68825ca28df1a9c15ad25c9f,,,,,,,,,,,,./stim/wavs/puertorican_match_interrogative-total-yn_Emilio-ama-la-marcha.wav,1,,,144.8077,146.8695,0,0,1.5354,,0,30,30,21,1,22,1,puertorican,,,,,,,,,,,,,,,,,,,,,,,,,,,,,,,,,,,,,,,,,,,,,,,,,,,,,,,,
,,,,,,,,,5fc43dcde1880f139efc0b0a,spanish,13 or older,"no, only English or Spanish",no,2025-07-24_12h18.15.855,empathy_intonation_perc_control,2024.2.4,Win32,59.88023952,5fc43dcde1880f139efc0b0a,68817205a84113384fffdfe3,68825ca28df1a9c15ad25c9f,,,,,,,,,,,,./stim/wavs/cuban_match_interrogative-total-yn_Mariano-habla-del-tiempo.wav,1,,,146.8714,149.3006,0,0,1.9035,,0,31,31,10,1,11,1,cuban,,,,,,,,,,,,,,,,,,,,,,,,,,,,,,,,,,,,,,,,,,,,,,,,,,,,,,,,
,,,,,,,,,5fc43dcde1880f139efc0b0a,spanish,13 or older,"no, only English or Spanish",no,2025-07-24_12h18.15.855,empathy_intonation_perc_control,2024.2.4,Win32,59.88023952,5fc43dcde1880f139efc0b0a,68817205a84113384fffdfe3,68825ca28df1a9c15ad25c9f,,,,,,,,,,,,./stim/wavs/mexican_mismatch_interrogative-total-yn_El-nino-oye-el-rio.wav,1,,,149.3037,151.2659,1,1,1.4386,,0,32,32,35,1,36,0,mexican,,,,,,,,,,,,,,,,,,,,,,,,,,,,,,,,,,,,,,,,,,,,,,,,,,,,,,,,
,,,,,,,,,5fc43dcde1880f139efc0b0a,spanish,13 or older,"no, only English or Spanish",no,2025-07-24_12h18.15.855,empathy_intonation_perc_control,2024.2.4,Win32,59.88023952,5fc43dcde1880f139efc0b0a,68817205a84113384fffdfe3,68825ca28df1a9c15ad25c9f,,,,,,,,,,,,./stim/wavs/puertorican_mismatch_interrogative-total-yn_Mi-madre-come-la-fruta.wav,1,,,151.268,153.564,0,0,1.7664,,0,33,33,43,1,44,1,puertorican,,,,,,,,,,,,,,,,,,,,,,,,,,,,,,,,,,,,,,,,,,,,,,,,,,,,,,,,
,,,,,,,,,5fc43dcde1880f139efc0b0a,spanish,13 or older,"no, only English or Spanish",no,2025-07-24_12h18.15.855,empathy_intonation_perc_control,2024.2.4,Win32,59.88023952,5fc43dcde1880f139efc0b0a,68817205a84113384fffdfe3,68825ca28df1a9c15ad25c9f,,,,,,,,,,,,./stim/wavs/castilian_mismatch_declarative-broad-focus_Mi-tia-odia-la-lluvia.wav,0,,,153.5659,155.7119,0,1,1.6208,,0,34,34,72,1,73,0,castilian,,,,,,,,,,,,,,,,,,,,,,,,,,,,,,,,,,,,,,,,,,,,,,,,,,,,,,,,
,,,,,,,,,5fc43dcde1880f139efc0b0a,spanish,13 or older,"no, only English or Spanish",no,2025-07-24_12h18.15.855,empathy_intonation_perc_control,2024.2.4,Win32,59.88023952,5fc43dcde1880f139efc0b0a,68817205a84113384fffdfe3,68825ca28df1a9c15ad25c9f,,,,,,,,,,,,./stim/wavs/cuban_match_interrogative-total-yn_Ana-lleva-el-abrigo.wav,1,,,155.7139,157.5793,0,0,1.3444,,0,35,35,6,1,7,1,cuban,,,,,,,,,,,,,,,,,,,,,,,,,,,,,,,,,,,,,,,,,,,,,,,,,,,,,,,,
,,,,,,,,,5fc43dcde1880f139efc0b0a,spanish,13 or older,"no, only English or Spanish",no,2025-07-24_12h18.15.855,empathy_intonation_perc_control,2024.2.4,Win32,59.88023952,5fc43dcde1880f139efc0b0a,68817205a84113384fffdfe3,68825ca28df1a9c15ad25c9f,,,,,,,,,,,,./stim/wavs/cuban_match_declarative-broad-focus_Ana-lleva-el-abrigo.wav,0,,,157.5806,159.709,0,1,1.6011,,0,36,36,50,1,51,0,cuban,,,,,,,,,,,,,,,,,,,,,,,,,,,,,,,,,,,,,,,,,,,,,,,,,,,,,,,,
,,,,,,,,,5fc43dcde1880f139efc0b0a,spanish,13 or older,"no, only English or Spanish",no,2025-07-24_12h18.15.855,empathy_intonation_perc_control,2024.2.4,Win32,59.88023952,5fc43dcde1880f139efc0b0a,68817205a84113384fffdfe3,68825ca28df1a9c15ad25c9f,,,,,,,,,,,,./stim/wavs/castilian_match_declarative-broad-focus_Marta-abre-el-regalo.wav,0,,,159.7115,162.0241,0,1,1.7912,,0,37,37,49,1,50,0,castilian,,,,,,,,,,,,,,,,,,,,,,,,,,,,,,,,,,,,,,,,,,,,,,,,,,,,,,,,
,,,,,,,,,5fc43dcde1880f139efc0b0a,spanish,13 or older,"no, only English or Spanish",no,2025-07-24_12h18.15.855,empathy_intonation_perc_control,2024.2.4,Win32,59.88023952,5fc43dcde1880f139efc0b0a,68817205a84113384fffdfe3,68825ca28df1a9c15ad25c9f,,,,,,,,,,,,./stim/wavs/puertorican_match_declarative-broad-focus_Maria-bebe-el-vino.wav,0,,,162.0267,164.3216,0,1,1.7638,,0,38,38,67,1,68,0,puertorican,,,,,,,,,,,,,,,,,,,,,,,,,,,,,,,,,,,,,,,,,,,,,,,,,,,,,,,,
,,,,,,,,,5fc43dcde1880f139efc0b0a,spanish,13 or older,"no, only English or Spanish",no,2025-07-24_12h18.15.855,empathy_intonation_perc_control,2024.2.4,Win32,59.88023952,5fc43dcde1880f139efc0b0a,68817205a84113384fffdfe3,68825ca28df1a9c15ad25c9f,,,,,,,,,,,,./stim/wavs/cuban_mismatch_declarative-broad-focus_Mi-tia-odia-la-lluvia.wav,0,,,164.3233,166.5197,0,1,1.6712,,0,39,39,77,1,78,0,cuban,,,,,,,,,,,,,,,,,,,,,,,,,,,,,,,,,,,,,,,,,,,,,,,,,,,,,,,,
,,,,,,,,,5fc43dcde1880f139efc0b0a,spanish,13 or older,"no, only English or Spanish",no,2025-07-24_12h18.15.855,empathy_intonation_perc_control,2024.2.4,Win32,59.88023952,5fc43dcde1880f139efc0b0a,68817205a84113384fffdfe3,68825ca28df1a9c15ad25c9f,,,,,,,,,,,,./stim/wavs/mexican_mismatch_declarative-broad-focus_La-maestra-vive-en-Paris.wav,0,,,166.5213,168.7679,0,1,1.7184,,0,40,40,80,1,81,0,mexican,,,,,,,,,,,,,,,,,,,,,,,,,,,,,,,,,,,,,,,,,,,,,,,,,,,,,,,,
,,,,,,,,,5fc43dcde1880f139efc0b0a,spanish,13 or older,"no, only English or Spanish",no,2025-07-24_12h18.15.855,empathy_intonation_perc_control,2024.2.4,Win32,59.88023952,5fc43dcde1880f139efc0b0a,68817205a84113384fffdfe3,68825ca28df1a9c15ad25c9f,,,,,,,,,,,,./stim/wavs/castilian_match_interrogative-total-yn_Emilio-ama-la-marcha.wav,1,,,168.7692,171.0163,1,1,1.7205,,0,41,41,1,1,2,0,castilian,,,,,,,,,,,,,,,,,,,,,,,,,,,,,,,,,,,,,,,,,,,,,,,,,,,,,,,,
,,,,,,,,,5fc43dcde1880f139efc0b0a,spanish,13 or older,"no, only English or Spanish",no,2025-07-24_12h18.15.855,empathy_intonation_perc_control,2024.2.4,Win32,59.88023952,5fc43dcde1880f139efc0b0a,68817205a84113384fffdfe3,68825ca28df1a9c15ad25c9f,,,,,,,,,,,,./stim/wavs/castilian_mismatch_declarative-broad-focus_La-maestra-vive-en-Paris.wav,0,,,171.0181,173.4805,1,0,1.9346,,0,42,42,69,1,70,0,castilian,,,,,,,,,,,,,,,,,,,,,,,,,,,,,,,,,,,,,,,,,,,,,,,,,,,,,,,,
,,,,,,,,,5fc43dcde1880f139efc0b0a,spanish,13 or older,"no, only English or Spanish",no,2025-07-24_12h18.15.855,empathy_intonation_perc_control,2024.2.4,Win32,59.88023952,5fc43dcde1880f139efc0b0a,68817205a84113384fffdfe3,68825ca28df1a9c15ad25c9f,,,,,,,,,,,,./stim/wavs/castilian_mismatch_interrogative-total-yn_Mi-tia-odia-la-lluvia.wav,1,,,173.482,175.812,1,1,1.7996,,0,43,43,28,1,29,0,castilian,,,,,,,,,,,,,,,,,,,,,,,,,,,,,,,,,,,,,,,,,,,,,,,,,,,,,,,,
,,,,,,,,,5fc43dcde1880f139efc0b0a,spanish,13 or older,"no, only English or Spanish",no,2025-07-24_12h18.15.855,empathy_intonation_perc_control,2024.2.4,Win32,59.88023952,5fc43dcde1880f139efc0b0a,68817205a84113384fffdfe3,68825ca28df1a9c15ad25c9f,,,,,,,,,,,,./stim/wavs/cuban_match_interrogative-total-yn_Daniel-iba-a-Bolivia.wav,1,,,175.8139,177.8793,1,1,1.544,,0,44,44,7,1,8,1,cuban,,,,,,,,,,,,,,,,,,,,,,,,,,,,,,,,,,,,,,,,,,,,,,,,,,,,,,,,
,,,,,,,,,5fc43dcde1880f139efc0b0a,spanish,13 or older,"no, only English or Spanish",no,2025-07-24_12h18.15.855,empathy_intonation_perc_control,2024.2.4,Win32,59.88023952,5fc43dcde1880f139efc0b0a,68817205a84113384fffdfe3,68825ca28df1a9c15ad25c9f,,,,,,,,,,,,./stim/wavs/puertorican_match_declarative-broad-focus_Daniel-iba-a-Bolivia.wav,0,,,177.8806,180.142,0,1,1.7348,,0,45,45,63,1,64,0,puertorican,,,,,,,,,,,,,,,,,,,,,,,,,,,,,,,,,,,,,,,,,,,,,,,,,,,,,,,,
,,,,,,,,,5fc43dcde1880f139efc0b0a,spanish,13 or older,"no, only English or Spanish",no,2025-07-24_12h18.15.855,empathy_intonation_perc_control,2024.2.4,Win32,59.88023952,5fc43dcde1880f139efc0b0a,68817205a84113384fffdfe3,68825ca28df1a9c15ad25c9f,,,,,,,,,,,,./stim/wavs/cuban_mismatch_declarative-broad-focus_Mi-novio-viene-del-lago.wav,0,,,180.1443,183.606,0,1,2.9414,,0,46,46,76,1,77,0,cuban,,,,,,,,,,,,,,,,,,,,,,,,,,,,,,,,,,,,,,,,,,,,,,,,,,,,,,,,
,,,,,,,,,5fc43dcde1880f139efc0b0a,spanish,13 or older,"no, only English or Spanish",no,2025-07-24_12h18.15.855,empathy_intonation_perc_control,2024.2.4,Win32,59.88023952,5fc43dcde1880f139efc0b0a,68817205a84113384fffdfe3,68825ca28df1a9c15ad25c9f,,,,,,,,,,,,./stim/wavs/puertorican_match_interrogative-total-yn_Daniel-iba-a-Bolivia.wav,1,,,183.6078,185.9366,1,1,1.805,,0,47,47,19,1,20,1,puertorican,,,,,,,,,,,,,,,,,,,,,,,,,,,,,,,,,,,,,,,,,,,,,,,,,,,,,,,,
,,,,,,,,,5fc43dcde1880f139efc0b0a,spanish,13 or older,"no, only English or Spanish",no,2025-07-24_12h18.15.855,empathy_intonation_perc_control,2024.2.4,Win32,59.88023952,5fc43dcde1880f139efc0b0a,68817205a84113384fffdfe3,68825ca28df1a9c15ad25c9f,,,,,,,,,,,,./stim/wavs/cuban_mismatch_interrogative-total-yn_El-hombre-mira-la-luna.wav,1,,,185.9373,187.9691,1,1,1.5028,,0,48,48,29,1,30,1,cuban,,,,,,,,,,,,,,,,,,,,,,,,,,,,,,,,,,,,,,,,,,,,,,,,,,,,,,,,
,,,,,,,,,5fc43dcde1880f139efc0b0a,spanish,13 or older,"no, only English or Spanish",no,2025-07-24_12h18.15.855,empathy_intonation_perc_control,2024.2.4,Win32,59.88023952,5fc43dcde1880f139efc0b0a,68817205a84113384fffdfe3,68825ca28df1a9c15ad25c9f,,,,,,,,,,,,./stim/wavs/cuban_mismatch_interrogative-total-yn_Mi-novio-viene-del-lago.wav,1,,,187.9712,190.0841,1,1,1.5827,,0,49,49,32,1,33,1,cuban,,,,,,,,,,,,,,,,,,,,,,,,,,,,,,,,,,,,,,,,,,,,,,,,,,,,,,,,
,,,,,,,,,5fc43dcde1880f139efc0b0a,spanish,13 or older,"no, only English or Spanish",no,2025-07-24_12h18.15.855,empathy_intonation_perc_control,2024.2.4,Win32,59.88023952,5fc43dcde1880f139efc0b0a,68817205a84113384fffdfe3,68825ca28df1a9c15ad25c9f,,,,,,,,,,,,./stim/wavs/mexican_match_declarative-broad-focus_Mariano-habla-del-tiempo.wav,0,,,190.0861,192.5316,0,1,1.9163,,0,50,50,60,1,61,0,mexican,,,,,,,,,,,,,,,,,,,,,,,,,,,,,,,,,,,,,,,,,,,,,,,,,,,,,,,,
,,,,,,,,,5fc43dcde1880f139efc0b0a,spanish,13 or older,"no, only English or Spanish",no,2025-07-24_12h18.15.855,empathy_intonation_perc_control,2024.2.4,Win32,59.88023952,5fc43dcde1880f139efc0b0a,68817205a84113384fffdfe3,68825ca28df1a9c15ad25c9f,,,,,,,,,,,,./stim/wavs/mexican_match_declarative-broad-focus_Marta-abre-el-regalo.wav,0,,,192.5329,194.3016,0,1,1.2463,,0,51,51,61,1,62,0,mexican,,,,,,,,,,,,,,,,,,,,,,,,,,,,,,,,,,,,,,,,,,,,,,,,,,,,,,,,
,,,,,,,,,5fc43dcde1880f139efc0b0a,spanish,13 or older,"no, only English or Spanish",no,2025-07-24_12h18.15.855,empathy_intonation_perc_control,2024.2.4,Win32,59.88023952,5fc43dcde1880f139efc0b0a,68817205a84113384fffdfe3,68825ca28df1a9c15ad25c9f,,,,,,,,,,,,./stim/wavs/mexican_match_interrogative-total-yn_David-leia-el-libro.wav,1,,,194.3036,195.5458,0,0,0.7151,,0,52,52,14,1,15,0,mexican,,,,,,,,,,,,,,,,,,,,,,,,,,,,,,,,,,,,,,,,,,,,,,,,,,,,,,,,
,,,,,,,,,5fc43dcde1880f139efc0b0a,spanish,13 or older,"no, only English or Spanish",no,2025-07-24_12h18.15.855,empathy_intonation_perc_control,2024.2.4,Win32,59.88023952,5fc43dcde1880f139efc0b0a,68817205a84113384fffdfe3,68825ca28df1a9c15ad25c9f,,,,,,,,,,,,./stim/wavs/puertorican_match_interrogative-total-yn_Ana-lleva-el-abrigo.wav,1,,,195.5473,197.1949,1,1,1.1179,,0,53,53,18,1,19,1,puertorican,,,,,,,,,,,,,,,,,,,,,,,,,,,,,,,,,,,,,,,,,,,,,,,,,,,,,,,,
,,,,,,,,,5fc43dcde1880f139efc0b0a,spanish,13 or older,"no, only English or Spanish",no,2025-07-24_12h18.15.855,empathy_intonation_perc_control,2024.2.4,Win32,59.88023952,5fc43dcde1880f139efc0b0a,68817205a84113384fffdfe3,68825ca28df1a9c15ad25c9f,,,,,,,,,,,,./stim/wavs/castilian_match_interrogative-total-yn_Manuela-vende-el-carro.wav,1,,,197.1969,198.7933,1,1,1.0718,,0,54,54,2,1,3,0,castilian,,,,,,,,,,,,,,,,,,,,,,,,,,,,,,,,,,,,,,,,,,,,,,,,,,,,,,,,
,,,,,,,,,5fc43dcde1880f139efc0b0a,spanish,13 or older,"no, only English or Spanish",no,2025-07-24_12h18.15.855,empathy_intonation_perc_control,2024.2.4,Win32,59.88023952,5fc43dcde1880f139efc0b0a,68817205a84113384fffdfe3,68825ca28df1a9c15ad25c9f,,,,,,,,,,,,./stim/wavs/castilian_match_declarative-broad-focus_Maria-bebe-el-vino.wav,0,,,198.7949,200.3419,1,0,1.0136,,0,55,55,47,1,48,0,castilian,,,,,,,,,,,,,,,,,,,,,,,,,,,,,,,,,,,,,,,,,,,,,,,,,,,,,,,,
,,,,,,,,,5fc43dcde1880f139efc0b0a,spanish,13 or older,"no, only English or Spanish",no,2025-07-24_12h18.15.855,empathy_intonation_perc_control,2024.2.4,Win32,59.88023952,5fc43dcde1880f139efc0b0a,68817205a84113384fffdfe3,68825ca28df1a9c15ad25c9f,,,,,,,,,,,,./stim/wavs/cuban_match_declarative-broad-focus_Maria-bebe-el-vino.wav,0,,,200.3434,201.2408,0,1,0.3675,,0,56,56,53,1,54,0,cuban,,,,,,,,,,,,,,,,,,,,,,,,,,,,,,,,,,,,,,,,,,,,,,,,,,,,,,,,
,,,,,,,,,5fc43dcde1880f139efc0b0a,spanish,13 or older,"no, only English or Spanish",no,2025-07-24_12h18.15.855,empathy_intonation_perc_control,2024.2.4,Win32,59.88023952,5fc43dcde1880f139efc0b0a,68817205a84113384fffdfe3,68825ca28df1a9c15ad25c9f,,,,,,,,,,,,./stim/wavs/puertorican_mismatch_declarative-broad-focus_El-nino-oye-el-rio.wav,0,,,201.242,203.2231,1,0,1.4529,,0,57,57,85,1,86,0,puertorican,,,,,,,,,,,,,,,,,,,,,,,,,,,,,,,,,,,,,,,,,,,,,,,,,,,,,,,,
,,,,,,,,,5fc43dcde1880f139efc0b0a,spanish,13 or older,"no, only English or Spanish",no,2025-07-24_12h18.15.855,empathy_intonation_perc_control,2024.2.4,Win32,59.88023952,5fc43dcde1880f139efc0b0a,68817205a84113384fffdfe3,68825ca28df1a9c15ad25c9f,,,,,,,,,,,,./stim/wavs/cuban_match_interrogative-total-yn_Maria-bebe-el-vino.wav,1,,,203.2257,205.2402,1,1,1.4922,,0,58,58,9,1,10,1,cuban,,,,,,,,,,,,,,,,,,,,,,,,,,,,,,,,,,,,,,,,,,,,,,,,,,,,,,,,
,,,,,,,,,5fc43dcde1880f139efc0b0a,spanish,13 or older,"no, only English or Spanish",no,2025-07-24_12h18.15.855,empathy_intonation_perc_control,2024.2.4,Win32,59.88023952,5fc43dcde1880f139efc0b0a,68817205a84113384fffdfe3,68825ca28df1a9c15ad25c9f,,,,,,,,,,,,./stim/wavs/castilian_mismatch_interrogative-total-yn_Mi-novio-viene-del-lago.wav,1,,,205.2422,206.2375,0,0,0.467,,0,59,59,27,1,28,0,castilian,,,,,,,,,,,,,,,,,,,,,,,,,,,,,,,,,,,,,,,,,,,,,,,,,,,,,,,,
,,,,,,,,,5fc43dcde1880f139efc0b0a,spanish,13 or older,"no, only English or Spanish",no,2025-07-24_12h18.15.855,empathy_intonation_perc_control,2024.2.4,Win32,59.88023952,5fc43dcde1880f139efc0b0a,68817205a84113384fffdfe3,68825ca28df1a9c15ad25c9f,,,,,,,,,,,,./stim/wavs/puertorican_mismatch_declarative-broad-focus_La-nina-lava-el-plato.wav,0,,,206.2397,207.1032,0,1,0.3347,,0,60,60,87,1,88,0,puertorican,,,,,,,,,,,,,,,,,,,,,,,,,,,,,,,,,,,,,,,,,,,,,,,,,,,,,,,,
,,,,,,,,,5fc43dcde1880f139efc0b0a,spanish,13 or older,"no, only English or Spanish",no,2025-07-24_12h18.15.855,empathy_intonation_perc_control,2024.2.4,Win32,59.88023952,5fc43dcde1880f139efc0b0a,68817205a84113384fffdfe3,68825ca28df1a9c15ad25c9f,,,,,,,,,,,,./stim/wavs/mexican_match_interrogative-total-yn_Emilio-ama-la-marcha.wav,1,,,207.1051,208.0188,1,1,0.3823,,0,61,61,15,1,16,0,mexican,,,,,,,,,,,,,,,,,,,,,,,,,,,,,,,,,,,,,,,,,,,,,,,,,,,,,,,,
,,,,,,,,,5fc43dcde1880f139efc0b0a,spanish,13 or older,"no, only English or Spanish",no,2025-07-24_12h18.15.855,empathy_intonation_perc_control,2024.2.4,Win32,59.88023952,5fc43dcde1880f139efc0b0a,68817205a84113384fffdfe3,68825ca28df1a9c15ad25c9f,,,,,,,,,,,,./stim/wavs/cuban_match_interrogative-total-yn_Marta-abre-el-regalo.wav,1,,,208.0199,208.9017,0,0,0.3533,,0,62,62,11,1,12,1,cuban,,,,,,,,,,,,,,,,,,,,,,,,,,,,,,,,,,,,,,,,,,,,,,,,,,,,,,,,
,,,,,,,,,5fc43dcde1880f139efc0b0a,spanish,13 or older,"no, only English or Spanish",no,2025-07-24_12h18.15.855,empathy_intonation_perc_control,2024.2.4,Win32,59.88023952,5fc43dcde1880f139efc0b0a,68817205a84113384fffdfe3,68825ca28df1a9c15ad25c9f,,,,,,,,,,,,./stim/wavs/cuban_match_declarative-broad-focus_Mariano-habla-del-tiempo.wav,0,,,208.9036,209.8506,1,0,0.4144,,0,63,63,54,1,55,0,cuban,,,,,,,,,,,,,,,,,,,,,,,,,,,,,,,,,,,,,,,,,,,,,,,,,,,,,,,,
,,,,,,,,,5fc43dcde1880f139efc0b0a,spanish,13 or older,"no, only English or Spanish",no,2025-07-24_12h18.15.855,empathy_intonation_perc_control,2024.2.4,Win32,59.88023952,5fc43dcde1880f139efc0b0a,68817205a84113384fffdfe3,68825ca28df1a9c15ad25c9f,,,,,,,,,,,,./stim/wavs/cuban_match_declarative-broad-focus_Daniel-iba-a-Bolivia.wav,0,,,209.8516,210.6669,0,1,0.2907,,0,64,64,51,1,52,0,cuban,,,,,,,,,,,,,,,,,,,,,,,,,,,,,,,,,,,,,,,,,,,,,,,,,,,,,,,,
,,,,,,,,,5fc43dcde1880f139efc0b0a,spanish,13 or older,"no, only English or Spanish",no,2025-07-24_12h18.15.855,empathy_intonation_perc_control,2024.2.4,Win32,59.88023952,5fc43dcde1880f139efc0b0a,68817205a84113384fffdfe3,68825ca28df1a9c15ad25c9f,,,,,,,,,,,,./stim/wavs/mexican_mismatch_interrogative-total-yn_Mi-tia-odia-la-lluvia.wav,1,,,210.669,211.516,1,1,0.3167,,0,65,65,38,1,39,0,mexican,,,,,,,,,,,,,,,,,,,,,,,,,,,,,,,,,,,,,,,,,,,,,,,,,,,,,,,,
,,,,,,,,,5fc43dcde1880f139efc0b0a,spanish,13 or older,"no, only English or Spanish",no,2025-07-24_12h18.15.855,empathy_intonation_perc_control,2024.2.4,Win32,59.88023952,5fc43dcde1880f139efc0b0a,68817205a84113384fffdfe3,68825ca28df1a9c15ad25c9f,,,,,,,,,,,,./stim/wavs/puertorican_match_declarative-broad-focus_Manuela-vende-el-carro.wav,0,,,211.5174,212.3651,0,1,0.3151,,0,66,66,66,1,67,0,puertorican,,,,,,,,,,,,,,,,,,,,,,,,,,,,,,,,,,,,,,,,,,,,,,,,,,,,,,,,
,,,,,,,,,5fc43dcde1880f139efc0b0a,spanish,13 or older,"no, only English or Spanish",no,2025-07-24_12h18.15.855,empathy_intonation_perc_control,2024.2.4,Win32,59.88023952,5fc43dcde1880f139efc0b0a,68817205a84113384fffdfe3,68825ca28df1a9c15ad25c9f,,,,,,,,,,,,./stim/wavs/puertorican_match_interrogative-total-yn_David-leia-el-libro.wav,1,,,212.366,213.165,1,1,0.27,,0,67,67,20,1,21,1,puertorican,,,,,,,,,,,,,,,,,,,,,,,,,,,,,,,,,,,,,,,,,,,,,,,,,,,,,,,,
,,,,,,,,,5fc43dcde1880f139efc0b0a,spanish,13 or older,"no, only English or Spanish",no,2025-07-24_12h18.15.855,empathy_intonation_perc_control,2024.2.4,Win32,59.88023952,5fc43dcde1880f139efc0b0a,68817205a84113384fffdfe3,68825ca28df1a9c15ad25c9f,,,,,,,,,,,,./stim/wavs/castilian_mismatch_interrogative-total-yn_La-maestra-vive-en-Paris.wav,1,,,213.1666,213.9307,0,0,0.2395,,0,68,68,24,1,25,0,castilian,,,,,,,,,,,,,,,,,,,,,,,,,,,,,,,,,,,,,,,,,,,,,,,,,,,,,,,,
,,,,,,,,,5fc43dcde1880f139efc0b0a,spanish,13 or older,"no, only English or Spanish",no,2025-07-24_12h18.15.855,empathy_intonation_perc_control,2024.2.4,Win32,59.88023952,5fc43dcde1880f139efc0b0a,68817205a84113384fffdfe3,68825ca28df1a9c15ad25c9f,,,,,,,,,,,,./stim/wavs/mexican_mismatch_declarative-broad-focus_Mi-tia-odia-la-lluvia.wav,0,,,213.9325,214.8802,1,0,0.421,,0,69,69,82,1,83,0,mexican,,,,,,,,,,,,,,,,,,,,,,,,,,,,,,,,,,,,,,,,,,,,,,,,,,,,,,,,
,,,,,,,,,5fc43dcde1880f139efc0b0a,spanish,13 or older,"no, only English or Spanish",no,2025-07-24_12h18.15.855,empathy_intonation_perc_control,2024.2.4,Win32,59.88023952,5fc43dcde1880f139efc0b0a,68817205a84113384fffdfe3,68825ca28df1a9c15ad25c9f,,,,,,,,,,,,./stim/wavs/castilian_match_interrogative-total-yn_Mariano-habla-del-tiempo.wav,1,,,214.8819,215.7793,0,0,0.3737,,0,70,70,4,1,5,0,castilian,,,,,,,,,,,,,,,,,,,,,,,,,,,,,,,,,,,,,,,,,,,,,,,,,,,,,,,,
,,,,,,,,,5fc43dcde1880f139efc0b0a,spanish,13 or older,"no, only English or Spanish",no,2025-07-24_12h18.15.855,empathy_intonation_perc_control,2024.2.4,Win32,59.88023952,5fc43dcde1880f139efc0b0a,68817205a84113384fffdfe3,68825ca28df1a9c15ad25c9f,,,,,,,,,,,,./stim/wavs/puertorican_mismatch_declarative-broad-focus_La-maestra-vive-en-Paris.wav,0,,,215.781,216.6949,1,0,0.3873,,0,71,71,86,1,87,0,puertorican,,,,,,,,,,,,,,,,,,,,,,,,,,,,,,,,,,,,,,,,,,,,,,,,,,,,,,,,
,,,,,,,,,5fc43dcde1880f139efc0b0a,spanish,13 or older,"no, only English or Spanish",no,2025-07-24_12h18.15.855,empathy_intonation_perc_control,2024.2.4,Win32,59.88023952,5fc43dcde1880f139efc0b0a,68817205a84113384fffdfe3,68825ca28df1a9c15ad25c9f,,,,,,,,,,,,./stim/wavs/puertorican_mismatch_interrogative-total-yn_La-maestra-vive-en-Paris.wav,1,,,216.6963,217.5945,0,0,0.3683,,0,72,72,41,1,42,1,puertorican,,,,,,,,,,,,,,,,,,,,,,,,,,,,,,,,,,,,,,,,,,,,,,,,,,,,,,,,
,,,,,,,,,5fc43dcde1880f139efc0b0a,spanish,13 or older,"no, only English or Spanish",no,2025-07-24_12h18.15.855,empathy_intonation_perc_control,2024.2.4,Win32,59.88023952,5fc43dcde1880f139efc0b0a,68817205a84113384fffdfe3,68825ca28df1a9c15ad25c9f,,,,,,,,,,,,./stim/wavs/cuban_mismatch_declarative-broad-focus_El-hombre-mira-la-luna.wav,0,,,217.5959,218.5105,1,0,0.3855,,0,73,73,74,1,75,0,cuban,,,,,,,,,,,,,,,,,,,,,,,,,,,,,,,,,,,,,,,,,,,,,,,,,,,,,,,,
,,,,,,,,,5fc43dcde1880f139efc0b0a,spanish,13 or older,"no, only English or Spanish",no,2025-07-24_12h18.15.855,empathy_intonation_perc_control,2024.2.4,Win32,59.88023952,5fc43dcde1880f139efc0b0a,68817205a84113384fffdfe3,68825ca28df1a9c15ad25c9f,,,,,,,,,,,,./stim/wavs/castilian_mismatch_interrogative-total-yn_La-nina-lava-el-plato.wav,1,,,218.5122,219.4285,0,0,0.3929,,0,74,74,25,1,26,0,castilian,,,,,,,,,,,,,,,,,,,,,,,,,,,,,,,,,,,,,,,,,,,,,,,,,,,,,,,,
,,,,,,,,,5fc43dcde1880f139efc0b0a,spanish,13 or older,"no, only English or Spanish",no,2025-07-24_12h18.15.855,empathy_intonation_perc_control,2024.2.4,Win32,59.88023952,5fc43dcde1880f139efc0b0a,68817205a84113384fffdfe3,68825ca28df1a9c15ad25c9f,,,,,,,,,,,,./stim/wavs/mexican_mismatch_interrogative-total-yn_El-hombre-mira-la-luna.wav,1,,,219.4295,220.2755,0,0,0.3155,,0,75,75,34,1,35,0,mexican,,,,,,,,,,,,,,,,,,,,,,,,,,,,,,,,,,,,,,,,,,,,,,,,,,,,,,,,
,,,,,,,,,5fc43dcde1880f139efc0b0a,spanish,13 or older,"no, only English or Spanish",no,2025-07-24_12h18.15.855,empathy_intonation_perc_control,2024.2.4,Win32,59.88023952,5fc43dcde1880f139efc0b0a,68817205a84113384fffdfe3,68825ca28df1a9c15ad25c9f,,,,,,,,,,,,./stim/wavs/puertorican_mismatch_interrogative-total-yn_El-hombre-mira-la-luna.wav,1,,,220.2769,222.2575,1,1,1.4531,,0,76,76,39,1,40,1,puertorican,,,,,,,,,,,,,,,,,,,,,,,,,,,,,,,,,,,,,,,,,,,,,,,,,,,,,,,,
,,,,,,,,,5fc43dcde1880f139efc0b0a,spanish,13 or older,"no, only English or Spanish",no,2025-07-24_12h18.15.855,empathy_intonation_perc_control,2024.2.4,Win32,59.88023952,5fc43dcde1880f139efc0b0a,68817205a84113384fffdfe3,68825ca28df1a9c15ad25c9f,,,,,,,,,,,,./stim/wavs/puertorican_mismatch_interrogative-total-yn_El-nino-oye-el-rio.wav,1,,,222.2593,224.4887,1,1,1.6992,,0,77,77,40,1,41,1,puertorican,,,,,,,,,,,,,,,,,,,,,,,,,,,,,,,,,,,,,,,,,,,,,,,,,,,,,,,,
,,,,,,,,,5fc43dcde1880f139efc0b0a,spanish,13 or older,"no, only English or Spanish",no,2025-07-24_12h18.15.855,empathy_intonation_perc_control,2024.2.4,Win32,59.88023952,5fc43dcde1880f139efc0b0a,68817205a84113384fffdfe3,68825ca28df1a9c15ad25c9f,,,,,,,,,,,,./stim/wavs/puertorican_match_interrogative-total-yn_Maria-bebe-el-vino.wav,1,,,224.4906,226.4206,1,1,1.4046,,0,78,78,23,1,24,1,puertorican,,,,,,,,,,,,,,,,,,,,,,,,,,,,,,,,,,,,,,,,,,,,,,,,,,,,,,,,
,,,,,,,,,5fc43dcde1880f139efc0b0a,spanish,13 or older,"no, only English or Spanish",no,2025-07-24_12h18.15.855,empathy_intonation_perc_control,2024.2.4,Win32,59.88023952,5fc43dcde1880f139efc0b0a,68817205a84113384fffdfe3,68825ca28df1a9c15ad25c9f,,,,,,,,,,,,./stim/wavs/puertorican_mismatch_interrogative-total-yn_La-nina-lava-el-plato.wav,1,,,226.4227,227.4695,0,0,0.5188,,0,79,79,42,1,43,1,puertorican,,,,,,,,,,,,,,,,,,,,,,,,,,,,,,,,,,,,,,,,,,,,,,,,,,,,,,,,
,,,,,,,,,5fc43dcde1880f139efc0b0a,spanish,13 or older,"no, only English or Spanish",no,2025-07-24_12h18.15.855,empathy_intonation_perc_control,2024.2.4,Win32,59.88023952,5fc43dcde1880f139efc0b0a,68817205a84113384fffdfe3,68825ca28df1a9c15ad25c9f,,,,,,,,,,,,./stim/wavs/puertorican_mismatch_declarative-broad-focus_El-bebe-comia-muy-bien.wav,0,,,227.4707,228.4355,0,1,0.4357,,0,80,80,83,1,84,0,puertorican,,,,,,,,,,,,,,,,,,,,,,,,,,,,,,,,,,,,,,,,,,,,,,,,,,,,,,,,
,,,,,,,,,5fc43dcde1880f139efc0b0a,spanish,13 or older,"no, only English or Spanish",no,2025-07-24_12h18.15.855,empathy_intonation_perc_control,2024.2.4,Win32,59.88023952,5fc43dcde1880f139efc0b0a,68817205a84113384fffdfe3,68825ca28df1a9c15ad25c9f,,,,,,,,,,,,./stim/wavs/castilian_mismatch_declarative-broad-focus_Mi-novio-viene-del-lago.wav,0,,,228.4377,229.3343,1,0,0.3782,,0,81,81,71,1,72,0,castilian,,,,,,,,,,,,,,,,,,,,,,,,,,,,,,,,,,,,,,,,,,,,,,,,,,,,,,,,
,,,,,,,,,5fc43dcde1880f139efc0b0a,spanish,13 or older,"no, only English or Spanish",no,2025-07-24_12h18.15.855,empathy_intonation_perc_control,2024.2.4,Win32,59.88023952,5fc43dcde1880f139efc0b0a,68817205a84113384fffdfe3,68825ca28df1a9c15ad25c9f,,,,,,,,,,,,./stim/wavs/cuban_match_interrogative-total-yn_Manuela-vende-el-carro.wav,1,,,229.3358,230.2001,0,0,0.3373,,0,82,82,8,1,9,1,cuban,,,,,,,,,,,,,,,,,,,,,,,,,,,,,,,,,,,,,,,,,,,,,,,,,,,,,,,,
,,,,,,,,,5fc43dcde1880f139efc0b0a,spanish,13 or older,"no, only English or Spanish",no,2025-07-24_12h18.15.855,empathy_intonation_perc_control,2024.2.4,Win32,59.88023952,5fc43dcde1880f139efc0b0a,68817205a84113384fffdfe3,68825ca28df1a9c15ad25c9f,,,,,,,,,,,,./stim/wavs/mexican_match_interrogative-total-yn_Mariano-habla-del-tiempo.wav,1,,,230.2008,231.0668,1,1,0.335,,0,83,83,16,1,17,0,mexican,,,,,,,,,,,,,,,,,,,,,,,,,,,,,,,,,,,,,,,,,,,,,,,,,,,,,,,,
,,,,,,,,,5fc43dcde1880f139efc0b0a,spanish,13 or older,"no, only English or Spanish",no,2025-07-24_12h18.15.855,empathy_intonation_perc_control,2024.2.4,Win32,59.88023952,5fc43dcde1880f139efc0b0a,68817205a84113384fffdfe3,68825ca28df1a9c15ad25c9f,,,,,,,,,,,,./stim/wavs/castilian_match_declarative-broad-focus_David-leia-el-libro.wav,0,,,231.0687,232.0158,0,1,0.4184,,0,84,84,44,1,45,0,castilian,,,,,,,,,,,,,,,,,,,,,,,,,,,,,,,,,,,,,,,,,,,,,,,,,,,,,,,,
,,,,,,,,,5fc43dcde1880f139efc0b0a,spanish,13 or older,"no, only English or Spanish",no,2025-07-24_12h18.15.855,empathy_intonation_perc_control,2024.2.4,Win32,59.88023952,5fc43dcde1880f139efc0b0a,68817205a84113384fffdfe3,68825ca28df1a9c15ad25c9f,,,,,,,,,,,,./stim/wavs/cuban_match_declarative-broad-focus_Manuela-vende-el-carro.wav,0,,,232.0167,233.0486,1,0,0.5021,,0,85,85,52,1,53,0,cuban,,,,,,,,,,,,,,,,,,,,,,,,,,,,,,,,,,,,,,,,,,,,,,,,,,,,,,,,
,,,,,,,,,5fc43dcde1880f139efc0b0a,spanish,13 or older,"no, only English or Spanish",no,2025-07-24_12h18.15.855,empathy_intonation_perc_control,2024.2.4,Win32,59.88023952,5fc43dcde1880f139efc0b0a,68817205a84113384fffdfe3,68825ca28df1a9c15ad25c9f,,,,,,,,,,,,./stim/wavs/mexican_match_declarative-broad-focus_David-leia-el-libro.wav,0,,,233.0503,234.1145,1,0,0.5348,,0,86,86,58,1,59,0,mexican,,,,,,,,,,,,,,,,,,,,,,,,,,,,,,,,,,,,,,,,,,,,,,,,,,,,,,,,
,,,,,,,,,5fc43dcde1880f139efc0b0a,spanish,13 or older,"no, only English or Spanish",no,2025-07-24_12h18.15.855,empathy_intonation_perc_control,2024.2.4,Win32,59.88023952,5fc43dcde1880f139efc0b0a,68817205a84113384fffdfe3,68825ca28df1a9c15ad25c9f,,,,,,,,,,,,./stim/wavs/mexican_mismatch_interrogative-total-yn_Mi-novio-viene-del-lago.wav,1,,,234.1164,235.33,1,1,0.6856,,0,87,87,37,1,38,0,mexican,,,,,,,,,,,,,,,,,,,,,,,,,,,,,,,,,,,,,,,,,,,,,,,,,,,,,,,,
,,,,,,,"Great! Now we will move on. The next task consists of about 60 trials, in each of which you will see a string of letters. 
  
  Your task is to decide whether this is a real Spanish word or not.", (press the spacebar to continue),5fc43dcde1880f139efc0b0a,spanish,13 or older,"no, only English or Spanish",no,2025-07-24_12h18.15.855,empathy_intonation_perc_control,2024.2.4,Win32,59.88023952,5fc43dcde1880f139efc0b0a,68817205a84113384fffdfe3,68825ca28df1a9c15ad25c9f,,,,,,,,,,,,,,,,,,,,,,,,,,,,,,235.3463,238.994,0,0,0,0,1,,,,,,,,,,,,,,,,,,,,,,,,,,,,,,,,,,,,,,,,,,,,,,,,,
,,,,,,,"If you think it is an existing Spanish word, you type '1' (for 'REAL'), and if you think it is not an existing Spanish word, you type '0' (for 'FAKE').", (press the spacebar to continue),5fc43dcde1880f139efc0b0a,spanish,13 or older,"no, only English or Spanish",no,2025-07-24_12h18.15.855,empathy_intonation_perc_control,2024.2.4,Win32,59.88023952,5fc43dcde1880f139efc0b0a,68817205a84113384fffdfe3,68825ca28df1a9c15ad25c9f,,,,,,,,,,,,,,,,,,,,,,,,,,,,,,238.998,243.9567,0,1,1,1,1,,,,,,,,,,,,,,,,,,,,,,,,,,,,,,,,,,,,,,,,,,,,,,,,,
,,,,,,,"If you are sure that the word exists, even though you don’t know its exact meaning, you may still respond '1' (REAL). 
  
  But if you are not sure if it is an existing word, you should respond '0' (FAKE).
  
  Let's do a practice round...", (press the spacebar to continue),5fc43dcde1880f139efc0b0a,spanish,13 or older,"no, only English or Spanish",no,2025-07-24_12h18.15.855,empathy_intonation_perc_control,2024.2.4,Win32,59.88023952,5fc43dcde1880f139efc0b0a,68817205a84113384fffdfe3,68825ca28df1a9c15ad25c9f,,,,,,,,,,,,,,,,,,,,,,,,,,,,,,243.963,248.4033,0,2,2,2,1,,,,,,,,,,,,,,,,,,,,,,,,,,,,,,,,,,,,,,,,,,,,,,,,,
,,,,,,,,,5fc43dcde1880f139efc0b0a,spanish,13 or older,"no, only English or Spanish",no,2025-07-24_12h18.15.855,empathy_intonation_perc_control,2024.2.4,Win32,59.88023952,5fc43dcde1880f139efc0b0a,68817205a84113384fffdfe3,68825ca28df1a9c15ad25c9f,,,,,,,,,,,,,0,,,,,,,,,,,,,,,,,,,,,,,,248.4134,251.6502,1,0,2.71,,251.6512,252.6489,0,0,0,0,1,0,depiste,REAL,FAKE,,,,,,,,,,,,,,,,,,,,,,,,,,,,,,,,
,,,,,,,,,5fc43dcde1880f139efc0b0a,spanish,13 or older,"no, only English or Spanish",no,2025-07-24_12h18.15.855,empathy_intonation_perc_control,2024.2.4,Win32,59.88023952,5fc43dcde1880f139efc0b0a,68817205a84113384fffdfe3,68825ca28df1a9c15ad25c9f,,,,,,,,,,,,,1,,,,,,,,,,,,,,,,,,,,,,,,252.6519,255.6633,1,1,2.4793,,255.6653,256.6622,0,1,1,1,1,0,sí,REAL,FAKE,,,,,,,,,,,,,,,,,,,,,,,,,,,,,,,,
,,,,,,,,,5fc43dcde1880f139efc0b0a,spanish,13 or older,"no, only English or Spanish",no,2025-07-24_12h18.15.855,empathy_intonation_perc_control,2024.2.4,Win32,59.88023952,5fc43dcde1880f139efc0b0a,68817205a84113384fffdfe3,68825ca28df1a9c15ad25c9f,,,,,,,,,,,,,0,,,,,,,,,,,,,,,,,,,,,,,,256.6659,259.3453,1,0,2.1509,,259.3465,260.3429,0,2,2,2,1,0,coné,REAL,FAKE,,,,,,,,,,,,,,,,,,,,,,,,,,,,,,,,
,,,,,,,,,5fc43dcde1880f139efc0b0a,spanish,13 or older,"no, only English or Spanish",no,2025-07-24_12h18.15.855,empathy_intonation_perc_control,2024.2.4,Win32,59.88023952,5fc43dcde1880f139efc0b0a,68817205a84113384fffdfe3,68825ca28df1a9c15ad25c9f,,,,,,,,,,,,,0,,,,,,,,,,,,,,,,,,,,,,,,260.3468,263.0744,0,1,2.1968,,263.0772,264.0734,0,3,3,3,1,0,calpar,REAL,FAKE,,,,,,,,,,,,,,,,,,,,,,,,,,,,,,,,
,,,,,,,,,5fc43dcde1880f139efc0b0a,spanish,13 or older,"no, only English or Spanish",no,2025-07-24_12h18.15.855,empathy_intonation_perc_control,2024.2.4,Win32,59.88023952,5fc43dcde1880f139efc0b0a,68817205a84113384fffdfe3,68825ca28df1a9c15ad25c9f,,,,,,,,,,,,,0,,,,,,,,,,,,,,,,,,,,,,,,264.0782,265.7549,0,1,1.1463,,265.7549,266.7536,0,4,4,4,1,0,joten,REAL,FAKE,,,,,,,,,,,,,,,,,,,,,,,,,,,,,,,,
,,,,,,,,,5fc43dcde1880f139efc0b0a,spanish,13 or older,"no, only English or Spanish",no,2025-07-24_12h18.15.855,empathy_intonation_perc_control,2024.2.4,Win32,59.88023952,5fc43dcde1880f139efc0b0a,68817205a84113384fffdfe3,68825ca28df1a9c15ad25c9f,,,,,,,,,,,,,1,,,,,,,,,,,,,,,,,,,,,,,,266.7553,268.6194,0,0,1.332,,268.6214,269.6184,0,5,5,5,1,0,sacapuntas,REAL,FAKE,,,,,,,,,,,,,,,,,,,,,,,,,,,,,,,,
,,,,,,,,,5fc43dcde1880f139efc0b0a,spanish,13 or older,"no, only English or Spanish",no,2025-07-24_12h18.15.855,empathy_intonation_perc_control,2024.2.4,Win32,59.88023952,5fc43dcde1880f139efc0b0a,68817205a84113384fffdfe3,68825ca28df1a9c15ad25c9f,,,,,,,,,,,,,0,,,,,,,,,,,,,,,,,,,,,,,,269.6209,272.599,1,0,2.4462,,272.5991,273.5988,0,6,6,6,1,0,priba,REAL,FAKE,,,,,,,,,,,,,,,,,,,,,,,,,,,,,,,,
,,,,,,,,,5fc43dcde1880f139efc0b0a,spanish,13 or older,"no, only English or Spanish",no,2025-07-24_12h18.15.855,empathy_intonation_perc_control,2024.2.4,Win32,59.88023952,5fc43dcde1880f139efc0b0a,68817205a84113384fffdfe3,68825ca28df1a9c15ad25c9f,,,,,,,,,,,,,0,,,,,,,,,,,,,,,,,,,,,,,,273.6021,275.1641,0,1,1.0307,,275.1663,276.1627,0,7,7,7,1,0,pelasula,REAL,FAKE,,,,,,,,,,,,,,,,,,,,,,,,,,,,,,,,
,,,,,,,,,5fc43dcde1880f139efc0b0a,spanish,13 or older,"no, only English or Spanish",no,2025-07-24_12h18.15.855,empathy_intonation_perc_control,2024.2.4,Win32,59.88023952,5fc43dcde1880f139efc0b0a,68817205a84113384fffdfe3,68825ca28df1a9c15ad25c9f,,,,,,,,,,,,,1,,,,,,,,,,,,,,,,,,,,,,,,276.1646,278.3444,1,1,1.643,,278.3445,279.3442,0,8,8,8,1,0,bien,REAL,FAKE,,,,,,,,,,,,,,,,,,,,,,,,,,,,,,,,
,,,,,,,,,5fc43dcde1880f139efc0b0a,spanish,13 or older,"no, only English or Spanish",no,2025-07-24_12h18.15.855,empathy_intonation_perc_control,2024.2.4,Win32,59.88023952,5fc43dcde1880f139efc0b0a,68817205a84113384fffdfe3,68825ca28df1a9c15ad25c9f,,,,,,,,,,,,,1,,,,,,,,,,,,,,,,,,,,,,,,279.3486,281.0763,1,1,1.2,,281.0767,282.0751,0,9,9,9,1,0,casa,REAL,FAKE,,,,,,,,,,,,,,,,,,,,,,,,,,,,,,,,
,,,,,,,,,5fc43dcde1880f139efc0b0a,spanish,13 or older,"no, only English or Spanish",no,2025-07-24_12h18.15.855,empathy_intonation_perc_control,2024.2.4,Win32,59.88023952,5fc43dcde1880f139efc0b0a,68817205a84113384fffdfe3,68825ca28df1a9c15ad25c9f,,,,,,,,,,,,,0,,,,,,,,,,,,,,,,,,,,,,,,282.0784,283.7067,1,0,1.1049,,283.7093,284.7056,0,10,10,10,1,0,lejo,REAL,FAKE,,,,,,,,,,,,,,,,,,,,,,,,,,,,,,,,
,,,,,,,,,5fc43dcde1880f139efc0b0a,spanish,13 or older,"no, only English or Spanish",no,2025-07-24_12h18.15.855,empathy_intonation_perc_control,2024.2.4,Win32,59.88023952,5fc43dcde1880f139efc0b0a,68817205a84113384fffdfe3,68825ca28df1a9c15ad25c9f,,,,,,,,,,,,,0,,,,,,,,,,,,,,,,,,,,,,,,284.7068,285.9217,0,1,0.6842,,285.9234,286.9205,0,11,11,11,1,0,pretantas,REAL,FAKE,,,,,,,,,,,,,,,,,,,,,,,,,,,,,,,,
,,,,,,,,,5fc43dcde1880f139efc0b0a,spanish,13 or older,"no, only English or Spanish",no,2025-07-24_12h18.15.855,empathy_intonation_perc_control,2024.2.4,Win32,59.88023952,5fc43dcde1880f139efc0b0a,68817205a84113384fffdfe3,68825ca28df1a9c15ad25c9f,,,,,,,,,,,,,,,,,,,,,,,,,,,,,,,,,,,,,,,,,,,,,,,,,,,,,,286.9212,288.4201,,,,,,,,,,,,,,,,,,,,,,,,,,,,,,
,,,,,,,,,5fc43dcde1880f139efc0b0a,spanish,13 or older,"no, only English or Spanish",no,2025-07-24_12h18.15.855,empathy_intonation_perc_control,2024.2.4,Win32,59.88023952,5fc43dcde1880f139efc0b0a,68817205a84113384fffdfe3,68825ca28df1a9c15ad25c9f,,,,,,,,,,,,,0,,,,,,,,,,,,,,,,,,,,,,,,,,,,,,,,,,,,,21,capillo,,,,,288.4444,290.552,0,1,1.5826,,0,0,0,20,1,REAL,FAKE,,,,,,,,,,,,,,,,,
,,,,,,,,,5fc43dcde1880f139efc0b0a,spanish,13 or older,"no, only English or Spanish",no,2025-07-24_12h18.15.855,empathy_intonation_perc_control,2024.2.4,Win32,59.88023952,5fc43dcde1880f139efc0b0a,68817205a84113384fffdfe3,68825ca28df1a9c15ad25c9f,,,,,,,,,,,,,1,,,,,,,,,,,,,,,,,,,,,,,,,,,,,,,,,,,,,48,ladrón,,,,,290.5561,291.9165,0,0,0.8301,,0,1,1,47,1,REAL,FAKE,,,,,,,,,,,,,,,,,
,,,,,,,,,5fc43dcde1880f139efc0b0a,spanish,13 or older,"no, only English or Spanish",no,2025-07-24_12h18.15.855,empathy_intonation_perc_control,2024.2.4,Win32,59.88023952,5fc43dcde1880f139efc0b0a,68817205a84113384fffdfe3,68825ca28df1a9c15ad25c9f,,,,,,,,,,,,,1,,,,,,,,,,,,,,,,,,,,,,,,,,,,,,,,,,,,,90,clavel,,,,,291.9193,293.1823,0,0,0.7371,,0,2,2,89,1,REAL,FAKE,,,,,,,,,,,,,,,,,
,,,,,,,,,5fc43dcde1880f139efc0b0a,spanish,13 or older,"no, only English or Spanish",no,2025-07-24_12h18.15.855,empathy_intonation_perc_control,2024.2.4,Win32,59.88023952,5fc43dcde1880f139efc0b0a,68817205a84113384fffdfe3,68825ca28df1a9c15ad25c9f,,,,,,,,,,,,,0,,,,,,,,,,,,,,,,,,,,,,,,,,,,,,,,,,,,,74,cintro,,,,,293.1848,295.7969,1,0,2.0802,,0,3,3,73,1,REAL,FAKE,,,,,,,,,,,,,,,,,
,,,,,,,,,5fc43dcde1880f139efc0b0a,spanish,13 or older,"no, only English or Spanish",no,2025-07-24_12h18.15.855,empathy_intonation_perc_control,2024.2.4,Win32,59.88023952,5fc43dcde1880f139efc0b0a,68817205a84113384fffdfe3,68825ca28df1a9c15ad25c9f,,,,,,,,,,,,,1,,,,,,,,,,,,,,,,,,,,,,,,,,,,,,,,,,,,,55,nevar,,,,,295.7993,297.4451,0,0,1.1176,,0,4,4,54,1,REAL,FAKE,,,,,,,,,,,,,,,,,
,,,,,,,,,5fc43dcde1880f139efc0b0a,spanish,13 or older,"no, only English or Spanish",no,2025-07-24_12h18.15.855,empathy_intonation_perc_control,2024.2.4,Win32,59.88023952,5fc43dcde1880f139efc0b0a,68817205a84113384fffdfe3,68825ca28df1a9c15ad25c9f,,,,,,,,,,,,,1,,,,,,,,,,,,,,,,,,,,,,,,,,,,,,,,,,,,,22,lacayo,,,,,297.4473,298.8943,0,0,0.9131,,0,5,5,21,1,REAL,FAKE,,,,,,,,,,,,,,,,,
,,,,,,,,,5fc43dcde1880f139efc0b0a,spanish,13 or older,"no, only English or Spanish",no,2025-07-24_12h18.15.855,empathy_intonation_perc_control,2024.2.4,Win32,59.88023952,5fc43dcde1880f139efc0b0a,68817205a84113384fffdfe3,68825ca28df1a9c15ad25c9f,,,,,,,,,,,,,1,,,,,,,,,,,,,,,,,,,,,,,,,,,,,,,,,,,,,24,látigo,,,,,298.8976,300.559,1,1,1.1389,,0,6,6,23,1,REAL,FAKE,,,,,,,,,,,,,,,,,
,,,,,,,,,5fc43dcde1880f139efc0b0a,spanish,13 or older,"no, only English or Spanish",no,2025-07-24_12h18.15.855,empathy_intonation_perc_control,2024.2.4,Win32,59.88023952,5fc43dcde1880f139efc0b0a,68817205a84113384fffdfe3,68825ca28df1a9c15ad25c9f,,,,,,,,,,,,,1,,,,,,,,,,,,,,,,,,,,,,,,,,,,,,,,,,,,,65,bizcocho,,,,,300.5613,301.9083,0,0,0.8111,,0,7,7,64,1,REAL,FAKE,,,,,,,,,,,,,,,,,
,,,,,,,,,5fc43dcde1880f139efc0b0a,spanish,13 or older,"no, only English or Spanish",no,2025-07-24_12h18.15.855,empathy_intonation_perc_control,2024.2.4,Win32,59.88023952,5fc43dcde1880f139efc0b0a,68817205a84113384fffdfe3,68825ca28df1a9c15ad25c9f,,,,,,,,,,,,,0,,,,,,,,,,,,,,,,,,,,,,,,,,,,,,,,,,,,,1,terzo,,,,,301.9104,303.0572,0,1,0.6104,,0,8,8,0,1,REAL,FAKE,,,,,,,,,,,,,,,,,
,,,,,,,,,5fc43dcde1880f139efc0b0a,spanish,13 or older,"no, only English or Spanish",no,2025-07-24_12h18.15.855,empathy_intonation_perc_control,2024.2.4,Win32,59.88023952,5fc43dcde1880f139efc0b0a,68817205a84113384fffdfe3,68825ca28df1a9c15ad25c9f,,,,,,,,,,,,,1,,,,,,,,,,,,,,,,,,,,,,,,,,,,,,,,,,,,,56,musgo,,,,,303.0591,304.1741,0,0,0.5824,,0,9,9,55,1,REAL,FAKE,,,,,,,,,,,,,,,,,
,,,,,,,,,5fc43dcde1880f139efc0b0a,spanish,13 or older,"no, only English or Spanish",no,2025-07-24_12h18.15.855,empathy_intonation_perc_control,2024.2.4,Win32,59.88023952,5fc43dcde1880f139efc0b0a,68817205a84113384fffdfe3,68825ca28df1a9c15ad25c9f,,,,,,,,,,,,,1,,,,,,,,,,,,,,,,,,,,,,,,,,,,,,,,,,,,,45,jilguero,,,,,304.1786,305.3222,0,0,0.6184,,0,10,10,44,1,REAL,FAKE,,,,,,,,,,,,,,,,,
,,,,,,,,,5fc43dcde1880f139efc0b0a,spanish,13 or older,"no, only English or Spanish",no,2025-07-24_12h18.15.855,empathy_intonation_perc_control,2024.2.4,Win32,59.88023952,5fc43dcde1880f139efc0b0a,68817205a84113384fffdfe3,68825ca28df1a9c15ad25c9f,,,,,,,,,,,,,0,,,,,,,,,,,,,,,,,,,,,,,,,,,,,,,,,,,,,27,acutación,,,,,305.3245,306.954,0,1,1.0956,,0,11,11,26,1,REAL,FAKE,,,,,,,,,,,,,,,,,
,,,,,,,,,5fc43dcde1880f139efc0b0a,spanish,13 or older,"no, only English or Spanish",no,2025-07-24_12h18.15.855,empathy_intonation_perc_control,2024.2.4,Win32,59.88023952,5fc43dcde1880f139efc0b0a,68817205a84113384fffdfe3,68825ca28df1a9c15ad25c9f,,,,,,,,,,,,,1,,,,,,,,,,,,,,,,,,,,,,,,,,,,,,,,,,,,,20,ávido,,,,,306.9557,308.3695,1,1,0.8785,,0,12,12,19,1,REAL,FAKE,,,,,,,,,,,,,,,,,
,,,,,,,,,5fc43dcde1880f139efc0b0a,spanish,13 or older,"no, only English or Spanish",no,2025-07-24_12h18.15.855,empathy_intonation_perc_control,2024.2.4,Win32,59.88023952,5fc43dcde1880f139efc0b0a,68817205a84113384fffdfe3,68825ca28df1a9c15ad25c9f,,,,,,,,,,,,,1,,,,,,,,,,,,,,,,,,,,,,,,,,,,,,,,,,,,,40,alfombra,,,,,308.3714,309.5687,0,0,0.6644,,0,13,13,39,1,REAL,FAKE,,,,,,,,,,,,,,,,,
,,,,,,,,,5fc43dcde1880f139efc0b0a,spanish,13 or older,"no, only English or Spanish",no,2025-07-24_12h18.15.855,empathy_intonation_perc_control,2024.2.4,Win32,59.88023952,5fc43dcde1880f139efc0b0a,68817205a84113384fffdfe3,68825ca28df1a9c15ad25c9f,,,,,,,,,,,,,1,,,,,,,,,,,,,,,,,,,,,,,,,,,,,,,,,,,,,57,tacaño,,,,,309.5724,311.0673,1,1,0.9698,,0,14,14,56,1,REAL,FAKE,,,,,,,,,,,,,,,,,
,,,,,,,,,5fc43dcde1880f139efc0b0a,spanish,13 or older,"no, only English or Spanish",no,2025-07-24_12h18.15.855,empathy_intonation_perc_control,2024.2.4,Win32,59.88023952,5fc43dcde1880f139efc0b0a,68817205a84113384fffdfe3,68825ca28df1a9c15ad25c9f,,,,,,,,,,,,,1,,,,,,,,,,,,,,,,,,,,,,,,,,,,,,,,,,,,,37,granuja,,,,,311.0697,312.6836,0,0,1.0788,,0,15,15,36,1,REAL,FAKE,,,,,,,,,,,,,,,,,
,,,,,,,,,5fc43dcde1880f139efc0b0a,spanish,13 or older,"no, only English or Spanish",no,2025-07-24_12h18.15.855,empathy_intonation_perc_control,2024.2.4,Win32,59.88023952,5fc43dcde1880f139efc0b0a,68817205a84113384fffdfe3,68825ca28df1a9c15ad25c9f,,,,,,,,,,,,,1,,,,,,,,,,,,,,,,,,,,,,,,,,,,,,,,,,,,,3,pulmones,,,,,312.687,314.0653,1,1,0.844,,0,16,16,2,1,REAL,FAKE,,,,,,,,,,,,,,,,,
,,,,,,,,,5fc43dcde1880f139efc0b0a,spanish,13 or older,"no, only English or Spanish",no,2025-07-24_12h18.15.855,empathy_intonation_perc_control,2024.2.4,Win32,59.88023952,5fc43dcde1880f139efc0b0a,68817205a84113384fffdfe3,68825ca28df1a9c15ad25c9f,,,,,,,,,,,,,1,,,,,,,,,,,,,,,,,,,,,,,,,,,,,,,,,,,,,62,flaco,,,,,314.0693,315.3665,1,1,0.7743,,0,17,17,61,1,REAL,FAKE,,,,,,,,,,,,,,,,,
,,,,,,,,,5fc43dcde1880f139efc0b0a,spanish,13 or older,"no, only English or Spanish",no,2025-07-24_12h18.15.855,empathy_intonation_perc_control,2024.2.4,Win32,59.88023952,5fc43dcde1880f139efc0b0a,68817205a84113384fffdfe3,68825ca28df1a9c15ad25c9f,,,,,,,,,,,,,1,,,,,,,,,,,,,,,,,,,,,,,,,,,,,,,,,,,,,36,loro,,,,,315.3686,316.7129,0,0,0.8124,,0,18,18,35,1,REAL,FAKE,,,,,,,,,,,,,,,,,
,,,,,,,,,5fc43dcde1880f139efc0b0a,spanish,13 or older,"no, only English or Spanish",no,2025-07-24_12h18.15.855,empathy_intonation_perc_control,2024.2.4,Win32,59.88023952,5fc43dcde1880f139efc0b0a,68817205a84113384fffdfe3,68825ca28df1a9c15ad25c9f,,,,,,,,,,,,,1,,,,,,,,,,,,,,,,,,,,,,,,,,,,,,,,,,,,,85,laúd,,,,,316.7169,317.8455,0,0,0.5935,,0,19,19,84,1,REAL,FAKE,,,,,,,,,,,,,,,,,
,,,,,,,,,5fc43dcde1880f139efc0b0a,spanish,13 or older,"no, only English or Spanish",no,2025-07-24_12h18.15.855,empathy_intonation_perc_control,2024.2.4,Win32,59.88023952,5fc43dcde1880f139efc0b0a,68817205a84113384fffdfe3,68825ca28df1a9c15ad25c9f,,,,,,,,,,,,,1,,,,,,,,,,,,,,,,,,,,,,,,,,,,,,,,,,,,,2,pellizcar,,,,,317.8483,319.2607,0,0,0.8812,,0,20,20,1,1,REAL,FAKE,,,,,,,,,,,,,,,,,
,,,,,,,,,5fc43dcde1880f139efc0b0a,spanish,13 or older,"no, only English or Spanish",no,2025-07-24_12h18.15.855,empathy_intonation_perc_control,2024.2.4,Win32,59.88023952,5fc43dcde1880f139efc0b0a,68817205a84113384fffdfe3,68825ca28df1a9c15ad25c9f,,,,,,,,,,,,,0,,,,,,,,,,,,,,,,,,,,,,,,,,,,,,,,,,,,,8,cadeña,,,,,319.2626,320.443,1,0,0.6479,,0,21,21,7,1,REAL,FAKE,,,,,,,,,,,,,,,,,
,,,,,,,,,5fc43dcde1880f139efc0b0a,spanish,13 or older,"no, only English or Spanish",no,2025-07-24_12h18.15.855,empathy_intonation_perc_control,2024.2.4,Win32,59.88023952,5fc43dcde1880f139efc0b0a,68817205a84113384fffdfe3,68825ca28df1a9c15ad25c9f,,,,,,,,,,,,,1,,,,,,,,,,,,,,,,,,,,,,,,,,,,,,,,,,,,,46,martillo,,,,,320.445,321.6422,0,0,0.6608,,0,22,22,45,1,REAL,FAKE,,,,,,,,,,,,,,,,,
,,,,,,,,,5fc43dcde1880f139efc0b0a,spanish,13 or older,"no, only English or Spanish",no,2025-07-24_12h18.15.855,empathy_intonation_perc_control,2024.2.4,Win32,59.88023952,5fc43dcde1880f139efc0b0a,68817205a84113384fffdfe3,68825ca28df1a9c15ad25c9f,,,,,,,,,,,,,0,,,,,,,,,,,,,,,,,,,,,,,,,,,,,,,,,,,,,58,plaudir,,,,,321.6446,322.9411,0,1,0.7634,,0,23,23,57,1,REAL,FAKE,,,,,,,,,,,,,,,,,
,,,,,,,,,5fc43dcde1880f139efc0b0a,spanish,13 or older,"no, only English or Spanish",no,2025-07-24_12h18.15.855,empathy_intonation_perc_control,2024.2.4,Win32,59.88023952,5fc43dcde1880f139efc0b0a,68817205a84113384fffdfe3,68825ca28df1a9c15ad25c9f,,,,,,,,,,,,,0,,,,,,,,,,,,,,,,,,,,,,,,,,,,,,,,,,,,,84,escuto,,,,,322.9436,324.2568,0,1,0.7824,,0,24,24,83,1,REAL,FAKE,,,,,,,,,,,,,,,,,
,,,,,,,,,5fc43dcde1880f139efc0b0a,spanish,13 or older,"no, only English or Spanish",no,2025-07-24_12h18.15.855,empathy_intonation_perc_control,2024.2.4,Win32,59.88023952,5fc43dcde1880f139efc0b0a,68817205a84113384fffdfe3,68825ca28df1a9c15ad25c9f,,,,,,,,,,,,,0,,,,,,,,,,,,,,,,,,,,,,,,,,,,,,,,,,,,,33,pauca,,,,,324.2594,325.4392,0,1,0.6528,,0,25,25,32,1,REAL,FAKE,,,,,,,,,,,,,,,,,
,,,,,,,,,5fc43dcde1880f139efc0b0a,spanish,13 or older,"no, only English or Spanish",no,2025-07-24_12h18.15.855,empathy_intonation_perc_control,2024.2.4,Win32,59.88023952,5fc43dcde1880f139efc0b0a,68817205a84113384fffdfe3,68825ca28df1a9c15ad25c9f,,,,,,,,,,,,,1,,,,,,,,,,,,,,,,,,,,,,,,,,,,,,,,,,,,,11,cenefa,,,,,325.442,326.4883,0,0,0.5211,,0,26,26,10,1,REAL,FAKE,,,,,,,,,,,,,,,,,
,,,,,,,,,5fc43dcde1880f139efc0b0a,spanish,13 or older,"no, only English or Spanish",no,2025-07-24_12h18.15.855,empathy_intonation_perc_control,2024.2.4,Win32,59.88023952,5fc43dcde1880f139efc0b0a,68817205a84113384fffdfe3,68825ca28df1a9c15ad25c9f,,,,,,,,,,,,,1,,,,,,,,,,,,,,,,,,,,,,,,,,,,,,,,,,,,,83,guante,,,,,326.491,327.8036,1,1,0.7771,,0,27,27,82,1,REAL,FAKE,,,,,,,,,,,,,,,,,
,,,,,,,,,5fc43dcde1880f139efc0b0a,spanish,13 or older,"no, only English or Spanish",no,2025-07-24_12h18.15.855,empathy_intonation_perc_control,2024.2.4,Win32,59.88023952,5fc43dcde1880f139efc0b0a,68817205a84113384fffdfe3,68825ca28df1a9c15ad25c9f,,,,,,,,,,,,,1,,,,,,,,,,,,,,,,,,,,,,,,,,,,,,,,,,,,,86,barato,,,,,327.8059,329.0363,1,1,0.6937,,0,28,28,85,1,REAL,FAKE,,,,,,,,,,,,,,,,,
,,,,,,,,,5fc43dcde1880f139efc0b0a,spanish,13 or older,"no, only English or Spanish",no,2025-07-24_12h18.15.855,empathy_intonation_perc_control,2024.2.4,Win32,59.88023952,5fc43dcde1880f139efc0b0a,68817205a84113384fffdfe3,68825ca28df1a9c15ad25c9f,,,,,,,,,,,,,1,,,,,,,,,,,,,,,,,,,,,,,,,,,,,,,,,,,,,78,frondoso,,,,,329.0386,330.1182,0,0,0.545,,0,29,29,77,1,REAL,FAKE,,,,,,,,,,,,,,,,,
,,,,,,,,,5fc43dcde1880f139efc0b0a,spanish,13 or older,"no, only English or Spanish",no,2025-07-24_12h18.15.855,empathy_intonation_perc_control,2024.2.4,Win32,59.88023952,5fc43dcde1880f139efc0b0a,68817205a84113384fffdfe3,68825ca28df1a9c15ad25c9f,,,,,,,,,,,,,0,,,,,,,,,,,,,,,,,,,,,,,,,,,,,,,,,,,,,17,floroso,,,,,330.1191,331.3174,0,1,0.6717,,0,30,30,16,1,REAL,FAKE,,,,,,,,,,,,,,,,,
,,,,,,,,,5fc43dcde1880f139efc0b0a,spanish,13 or older,"no, only English or Spanish",no,2025-07-24_12h18.15.855,empathy_intonation_perc_control,2024.2.4,Win32,59.88023952,5fc43dcde1880f139efc0b0a,68817205a84113384fffdfe3,68825ca28df1a9c15ad25c9f,,,,,,,,,,,,,0,,,,,,,,,,,,,,,,,,,,,,,,,,,,,,,,,,,,,47,cartinar,,,,,331.32,332.4832,0,1,0.6342,,0,31,31,46,1,REAL,FAKE,,,,,,,,,,,,,,,,,
,,,,,,,,,5fc43dcde1880f139efc0b0a,spanish,13 or older,"no, only English or Spanish",no,2025-07-24_12h18.15.855,empathy_intonation_perc_control,2024.2.4,Win32,59.88023952,5fc43dcde1880f139efc0b0a,68817205a84113384fffdfe3,68825ca28df1a9c15ad25c9f,,,,,,,,,,,,,0,,,,,,,,,,,,,,,,,,,,,,,,,,,,,,,,,,,,,63,esposante,,,,,332.4859,333.6326,1,0,0.6125,,0,32,32,62,1,REAL,FAKE,,,,,,,,,,,,,,,,,
,,,,,,,,,5fc43dcde1880f139efc0b0a,spanish,13 or older,"no, only English or Spanish",no,2025-07-24_12h18.15.855,empathy_intonation_perc_control,2024.2.4,Win32,59.88023952,5fc43dcde1880f139efc0b0a,68817205a84113384fffdfe3,68825ca28df1a9c15ad25c9f,,,,,,,,,,,,,1,,,,,,,,,,,,,,,,,,,,,,,,,,,,,,,,,,,,,54,fomentar,,,,,333.6356,334.6982,0,0,0.5353,,0,33,33,53,1,REAL,FAKE,,,,,,,,,,,,,,,,,
,,,,,,,,,5fc43dcde1880f139efc0b0a,spanish,13 or older,"no, only English or Spanish",no,2025-07-24_12h18.15.855,empathy_intonation_perc_control,2024.2.4,Win32,59.88023952,5fc43dcde1880f139efc0b0a,68817205a84113384fffdfe3,68825ca28df1a9c15ad25c9f,,,,,,,,,,,,,0,,,,,,,,,,,,,,,,,,,,,,,,,,,,,,,,,,,,,23,lampera,,,,,334.7015,335.7305,0,1,0.4968,,0,34,34,22,1,REAL,FAKE,,,,,,,,,,,,,,,,,
,,,,,,,,,5fc43dcde1880f139efc0b0a,spanish,13 or older,"no, only English or Spanish",no,2025-07-24_12h18.15.855,empathy_intonation_perc_control,2024.2.4,Win32,59.88023952,5fc43dcde1880f139efc0b0a,68817205a84113384fffdfe3,68825ca28df1a9c15ad25c9f,,,,,,,,,,,,,0,,,,,,,,,,,,,,,,,,,,,,,,,,,,,,,,,,,,,35,rompido,,,,,335.7329,336.9299,0,1,0.6748,,0,35,35,34,1,REAL,FAKE,,,,,,,,,,,,,,,,,
,,,,,,,,,5fc43dcde1880f139efc0b0a,spanish,13 or older,"no, only English or Spanish",no,2025-07-24_12h18.15.855,empathy_intonation_perc_control,2024.2.4,Win32,59.88023952,5fc43dcde1880f139efc0b0a,68817205a84113384fffdfe3,68825ca28df1a9c15ad25c9f,,,,,,,,,,,,,1,,,,,,,,,,,,,,,,,,,,,,,,,,,,,,,,,,,,,75,yacer,,,,,336.932,338.3115,0,0,0.8537,,0,36,36,74,1,REAL,FAKE,,,,,,,,,,,,,,,,,
,,,,,,,,,5fc43dcde1880f139efc0b0a,spanish,13 or older,"no, only English or Spanish",no,2025-07-24_12h18.15.855,empathy_intonation_perc_control,2024.2.4,Win32,59.88023952,5fc43dcde1880f139efc0b0a,68817205a84113384fffdfe3,68825ca28df1a9c15ad25c9f,,,,,,,,,,,,,1,,,,,,,,,,,,,,,,,,,,,,,,,,,,,,,,,,,,,14,yunque,,,,,338.3129,339.5105,0,0,0.6618,,0,37,37,13,1,REAL,FAKE,,,,,,,,,,,,,,,,,
,,,,,,,,,5fc43dcde1880f139efc0b0a,spanish,13 or older,"no, only English or Spanish",no,2025-07-24_12h18.15.855,empathy_intonation_perc_control,2024.2.4,Win32,59.88023952,5fc43dcde1880f139efc0b0a,68817205a84113384fffdfe3,68825ca28df1a9c15ad25c9f,,,,,,,,,,,,,1,,,,,,,,,,,,,,,,,,,,,,,,,,,,,,,,,,,,,9,hacha,,,,,339.5127,340.61,1,1,0.5631,,0,38,38,8,1,REAL,FAKE,,,,,,,,,,,,,,,,,
,,,,,,,,,5fc43dcde1880f139efc0b0a,spanish,13 or older,"no, only English or Spanish",no,2025-07-24_12h18.15.855,empathy_intonation_perc_control,2024.2.4,Win32,59.88023952,5fc43dcde1880f139efc0b0a,68817205a84113384fffdfe3,68825ca28df1a9c15ad25c9f,,,,,,,,,,,,,1,,,,,,,,,,,,,,,,,,,,,,,,,,,,,,,,,,,,,61,seda,,,,,340.6128,341.8754,1,1,0.7284,,0,39,39,60,1,REAL,FAKE,,,,,,,,,,,,,,,,,
,,,,,,,,,5fc43dcde1880f139efc0b0a,spanish,13 or older,"no, only English or Spanish",no,2025-07-24_12h18.15.855,empathy_intonation_perc_control,2024.2.4,Win32,59.88023952,5fc43dcde1880f139efc0b0a,68817205a84113384fffdfe3,68825ca28df1a9c15ad25c9f,,,,,,,,,,,,,1,,,,,,,,,,,,,,,,,,,,,,,,,,,,,,,,,,,,,12,asesinato,,,,,341.8774,342.9079,0,0,0.4989,,0,40,40,11,1,REAL,FAKE,,,,,,,,,,,,,,,,,
,,,,,,,,,5fc43dcde1880f139efc0b0a,spanish,13 or older,"no, only English or Spanish",no,2025-07-24_12h18.15.855,empathy_intonation_perc_control,2024.2.4,Win32,59.88023952,5fc43dcde1880f139efc0b0a,68817205a84113384fffdfe3,68825ca28df1a9c15ad25c9f,,,,,,,,,,,,,1,,,,,,,,,,,,,,,,,,,,,,,,,,,,,,,,,,,,,39,torpe,,,,,342.91,344.1899,0,0,0.7515,,0,41,41,38,1,REAL,FAKE,,,,,,,,,,,,,,,,,
,,,,,,,,,5fc43dcde1880f139efc0b0a,spanish,13 or older,"no, only English or Spanish",no,2025-07-24_12h18.15.855,empathy_intonation_perc_control,2024.2.4,Win32,59.88023952,5fc43dcde1880f139efc0b0a,68817205a84113384fffdfe3,68825ca28df1a9c15ad25c9f,,,,,,,,,,,,,1,,,,,,,,,,,,,,,,,,,,,,,,,,,,,,,,,,,,,31,pandilla,,,,,344.1914,345.3063,0,0,0.5899,,0,42,42,30,1,REAL,FAKE,,,,,,,,,,,,,,,,,
,,,,,,,,,5fc43dcde1880f139efc0b0a,spanish,13 or older,"no, only English or Spanish",no,2025-07-24_12h18.15.855,empathy_intonation_perc_control,2024.2.4,Win32,59.88023952,5fc43dcde1880f139efc0b0a,68817205a84113384fffdfe3,68825ca28df1a9c15ad25c9f,,,,,,,,,,,,,1,,,,,,,,,,,,,,,,,,,,,,,,,,,,,,,,,,,,,6,tergiversar,,,,,345.3091,346.3051,0,0,0.4635,,0,43,43,5,1,REAL,FAKE,,,,,,,,,,,,,,,,,
,,,,,,,,,5fc43dcde1880f139efc0b0a,spanish,13 or older,"no, only English or Spanish",no,2025-07-24_12h18.15.855,empathy_intonation_perc_control,2024.2.4,Win32,59.88023952,5fc43dcde1880f139efc0b0a,68817205a84113384fffdfe3,68825ca28df1a9c15ad25c9f,,,,,,,,,,,,,1,,,,,,,,,,,,,,,,,,,,,,,,,,,,,,,,,,,,,73,hervidor,,,,,346.3073,347.2709,0,0,0.4295,,0,44,44,72,1,REAL,FAKE,,,,,,,,,,,,,,,,,
,,,,,,,,,5fc43dcde1880f139efc0b0a,spanish,13 or older,"no, only English or Spanish",no,2025-07-24_12h18.15.855,empathy_intonation_perc_control,2024.2.4,Win32,59.88023952,5fc43dcde1880f139efc0b0a,68817205a84113384fffdfe3,68825ca28df1a9c15ad25c9f,,,,,,,,,,,,,0,,,,,,,,,,,,,,,,,,,,,,,,,,,,,,,,,,,,,4,batillón,,,,,347.2728,348.3705,0,1,0.5691,,0,45,45,3,1,REAL,FAKE,,,,,,,,,,,,,,,,,
,,,,,,,,,5fc43dcde1880f139efc0b0a,spanish,13 or older,"no, only English or Spanish",no,2025-07-24_12h18.15.855,empathy_intonation_perc_control,2024.2.4,Win32,59.88023952,5fc43dcde1880f139efc0b0a,68817205a84113384fffdfe3,68825ca28df1a9c15ad25c9f,,,,,,,,,,,,,1,,,,,,,,,,,,,,,,,,,,,,,,,,,,,,,,,,,,,80,hormiga,,,,,348.3737,350.0518,0,0,1.1419,,0,46,46,79,1,REAL,FAKE,,,,,,,,,,,,,,,,,
,,,,,,,,,5fc43dcde1880f139efc0b0a,spanish,13 or older,"no, only English or Spanish",no,2025-07-24_12h18.15.855,empathy_intonation_perc_control,2024.2.4,Win32,59.88023952,5fc43dcde1880f139efc0b0a,68817205a84113384fffdfe3,68825ca28df1a9c15ad25c9f,,,,,,,,,,,,,1,,,,,,,,,,,,,,,,,,,,,,,,,,,,,,,,,,,,,71,polvoriento,,,,,350.0535,351.1511,0,0,0.563,,0,47,47,70,1,REAL,FAKE,,,,,,,,,,,,,,,,,
,,,,,,,,,5fc43dcde1880f139efc0b0a,spanish,13 or older,"no, only English or Spanish",no,2025-07-24_12h18.15.855,empathy_intonation_perc_control,2024.2.4,Win32,59.88023952,5fc43dcde1880f139efc0b0a,68817205a84113384fffdfe3,68825ca28df1a9c15ad25c9f,,,,,,,,,,,,,1,,,,,,,,,,,,,,,,,,,,,,,,,,,,,,,,,,,,,69,engatusar,,,,,351.1536,352.167,0,0,0.4816,,0,48,48,68,1,REAL,FAKE,,,,,,,,,,,,,,,,,
,,,,,,,,,5fc43dcde1880f139efc0b0a,spanish,13 or older,"no, only English or Spanish",no,2025-07-24_12h18.15.855,empathy_intonation_perc_control,2024.2.4,Win32,59.88023952,5fc43dcde1880f139efc0b0a,68817205a84113384fffdfe3,68825ca28df1a9c15ad25c9f,,,,,,,,,,,,,0,,,,,,,,,,,,,,,,,,,,,,,,,,,,,,,,,,,,,32,fatacidad,,,,,352.1692,353.2001,0,1,0.5063,,0,49,49,31,1,REAL,FAKE,,,,,,,,,,,,,,,,,
,,,,,,,,,5fc43dcde1880f139efc0b0a,spanish,13 or older,"no, only English or Spanish",no,2025-07-24_12h18.15.855,empathy_intonation_perc_control,2024.2.4,Win32,59.88023952,5fc43dcde1880f139efc0b0a,68817205a84113384fffdfe3,68825ca28df1a9c15ad25c9f,,,,,,,,,,,,,1,,,,,,,,,,,,,,,,,,,,,,,,,,,,,,,,,,,,,38,estornudar,,,,,353.2025,354.166,0,0,0.4376,,0,50,50,37,1,REAL,FAKE,,,,,,,,,,,,,,,,,
,,,,,,,,,5fc43dcde1880f139efc0b0a,spanish,13 or older,"no, only English or Spanish",no,2025-07-24_12h18.15.855,empathy_intonation_perc_control,2024.2.4,Win32,59.88023952,5fc43dcde1880f139efc0b0a,68817205a84113384fffdfe3,68825ca28df1a9c15ad25c9f,,,,,,,,,,,,,1,,,,,,,,,,,,,,,,,,,,,,,,,,,,,,,,,,,,,89,prisa,,,,,354.1703,355.5309,0,0,0.8275,,0,51,51,88,1,REAL,FAKE,,,,,,,,,,,,,,,,,
,,,,,,,,,5fc43dcde1880f139efc0b0a,spanish,13 or older,"no, only English or Spanish",no,2025-07-24_12h18.15.855,empathy_intonation_perc_control,2024.2.4,Win32,59.88023952,5fc43dcde1880f139efc0b0a,68817205a84113384fffdfe3,68825ca28df1a9c15ad25c9f,,,,,,,,,,,,,1,,,,,,,,,,,,,,,,,,,,,,,,,,,,,,,,,,,,,67,cabello,,,,,355.5333,356.8296,1,1,0.7652,,0,52,52,66,1,REAL,FAKE,,,,,,,,,,,,,,,,,
,,,,,,,,,5fc43dcde1880f139efc0b0a,spanish,13 or older,"no, only English or Spanish",no,2025-07-24_12h18.15.855,empathy_intonation_perc_control,2024.2.4,Win32,59.88023952,5fc43dcde1880f139efc0b0a,68817205a84113384fffdfe3,68825ca28df1a9c15ad25c9f,,,,,,,,,,,,,0,,,,,,,,,,,,,,,,,,,,,,,,,,,,,,,,,,,,,42,cadallo,,,,,356.8316,358.0294,1,0,0.6706,,0,53,53,41,1,REAL,FAKE,,,,,,,,,,,,,,,,,
,,,,,,,,,5fc43dcde1880f139efc0b0a,spanish,13 or older,"no, only English or Spanish",no,2025-07-24_12h18.15.855,empathy_intonation_perc_control,2024.2.4,Win32,59.88023952,5fc43dcde1880f139efc0b0a,68817205a84113384fffdfe3,68825ca28df1a9c15ad25c9f,,,,,,,,,,,,,1,,,,,,,,,,,,,,,,,,,,,,,,,,,,,,,,,,,,,49,ganar,,,,,358.0332,359.1618,0,0,0.5978,,0,54,54,48,1,REAL,FAKE,,,,,,,,,,,,,,,,,
,,,,,,,,,5fc43dcde1880f139efc0b0a,spanish,13 or older,"no, only English or Spanish",no,2025-07-24_12h18.15.855,empathy_intonation_perc_control,2024.2.4,Win32,59.88023952,5fc43dcde1880f139efc0b0a,68817205a84113384fffdfe3,68825ca28df1a9c15ad25c9f,,,,,,,,,,,,,1,,,,,,,,,,,,,,,,,,,,,,,,,,,,,,,,,,,,,81,pozo,,,,,359.1652,360.2268,0,0,0.5376,,0,55,55,80,1,REAL,FAKE,,,,,,,,,,,,,,,,,
,,,,,,,,,5fc43dcde1880f139efc0b0a,spanish,13 or older,"no, only English or Spanish",no,2025-07-24_12h18.15.855,empathy_intonation_perc_control,2024.2.4,Win32,59.88023952,5fc43dcde1880f139efc0b0a,68817205a84113384fffdfe3,68825ca28df1a9c15ad25c9f,,,,,,,,,,,,,1,,,,,,,,,,,,,,,,,,,,,,,,,,,,,,,,,,,,,59,besar,,,,,360.2291,361.2269,0,0,0.4629,,0,56,56,58,1,REAL,FAKE,,,,,,,,,,,,,,,,,
,,,,,,,,,5fc43dcde1880f139efc0b0a,spanish,13 or older,"no, only English or Spanish",no,2025-07-24_12h18.15.855,empathy_intonation_perc_control,2024.2.4,Win32,59.88023952,5fc43dcde1880f139efc0b0a,68817205a84113384fffdfe3,68825ca28df1a9c15ad25c9f,,,,,,,,,,,,,0,,,,,,,,,,,,,,,,,,,,,,,,,,,,,,,,,,,,,82,empirador,,,,,361.2303,362.6768,1,0,0.9182,,0,57,57,81,1,REAL,FAKE,,,,,,,,,,,,,,,,,
,,,,,,,,,5fc43dcde1880f139efc0b0a,spanish,13 or older,"no, only English or Spanish",no,2025-07-24_12h18.15.855,empathy_intonation_perc_control,2024.2.4,Win32,59.88023952,5fc43dcde1880f139efc0b0a,68817205a84113384fffdfe3,68825ca28df1a9c15ad25c9f,,,,,,,,,,,,,1,,,,,,,,,,,,,,,,,,,,,,,,,,,,,,,,,,,,,76,atar,,,,,362.6806,363.7741,0,0,0.5718,,0,58,58,75,1,REAL,FAKE,,,,,,,,,,,,,,,,,
,,,,,,,,,5fc43dcde1880f139efc0b0a,spanish,13 or older,"no, only English or Spanish",no,2025-07-24_12h18.15.855,empathy_intonation_perc_control,2024.2.4,Win32,59.88023952,5fc43dcde1880f139efc0b0a,68817205a84113384fffdfe3,68825ca28df1a9c15ad25c9f,,,,,,,,,,,,,0,,,,,,,,,,,,,,,,,,,,,,,,,,,,,,,,,,,,,79,tropaje,,,,,363.7771,364.8733,0,1,0.5632,,0,59,59,78,1,REAL,FAKE,,,,,,,,,,,,,,,,,
,,,,,,,,,5fc43dcde1880f139efc0b0a,spanish,13 or older,"no, only English or Spanish",no,2025-07-24_12h18.15.855,empathy_intonation_perc_control,2024.2.4,Win32,59.88023952,5fc43dcde1880f139efc0b0a,68817205a84113384fffdfe3,68825ca28df1a9c15ad25c9f,,,,,,,,,,,,,1,,,,,,,,,,,,,,,,,,,,,,,,,,,,,,,,,,,,,41,rebuscar,,,,,364.8756,365.9891,0,0,0.5809,,0,60,60,40,1,REAL,FAKE,,,,,,,,,,,,,,,,,
,,,,,,,,,5fc43dcde1880f139efc0b0a,spanish,13 or older,"no, only English or Spanish",no,2025-07-24_12h18.15.855,empathy_intonation_perc_control,2024.2.4,Win32,59.88023952,5fc43dcde1880f139efc0b0a,68817205a84113384fffdfe3,68825ca28df1a9c15ad25c9f,,,,,,,,,,,,,0,,,,,,,,,,,,,,,,,,,,,,,,,,,,,,,,,,,,,29,decar,,,,,365.9914,367.4215,1,0,0.8988,,0,61,61,28,1,REAL,FAKE,,,,,,,,,,,,,,,,,
,,,,,,,,,5fc43dcde1880f139efc0b0a,spanish,13 or older,"no, only English or Spanish",no,2025-07-24_12h18.15.855,empathy_intonation_perc_control,2024.2.4,Win32,59.88023952,5fc43dcde1880f139efc0b0a,68817205a84113384fffdfe3,68825ca28df1a9c15ad25c9f,,,,,,,,,,,,,0,,,,,,,,,,,,,,,,,,,,,,,,,,,,,,,,,,,,,53,vegada,,,,,367.4239,368.4538,0,1,0.4972,,0,62,62,52,1,REAL,FAKE,,,,,,,,,,,,,,,,,
,,,,,,,,,5fc43dcde1880f139efc0b0a,spanish,13 or older,"no, only English or Spanish",no,2025-07-24_12h18.15.855,empathy_intonation_perc_control,2024.2.4,Win32,59.88023952,5fc43dcde1880f139efc0b0a,68817205a84113384fffdfe3,68825ca28df1a9c15ad25c9f,,,,,,,,,,,,,1,,,,,,,,,,,,,,,,,,,,,,,,,,,,,,,,,,,,,60,matar,,,,,368.4564,369.6025,0,0,0.6157,,0,63,63,59,1,REAL,FAKE,,,,,,,,,,,,,,,,,
,,,,,,,,,5fc43dcde1880f139efc0b0a,spanish,13 or older,"no, only English or Spanish",no,2025-07-24_12h18.15.855,empathy_intonation_perc_control,2024.2.4,Win32,59.88023952,5fc43dcde1880f139efc0b0a,68817205a84113384fffdfe3,68825ca28df1a9c15ad25c9f,,,,,,,,,,,,,0,,,,,,,,,,,,,,,,,,,,,,,,,,,,,,,,,,,,,19,brecedad,,,,,369.6046,370.9351,0,1,0.7994,,0,64,64,18,1,REAL,FAKE,,,,,,,,,,,,,,,,,
,,,,,,,,,5fc43dcde1880f139efc0b0a,spanish,13 or older,"no, only English or Spanish",no,2025-07-24_12h18.15.855,empathy_intonation_perc_control,2024.2.4,Win32,59.88023952,5fc43dcde1880f139efc0b0a,68817205a84113384fffdfe3,68825ca28df1a9c15ad25c9f,,,,,,,,,,,,,1,,,,,,,,,,,,,,,,,,,,,,,,,,,,,,,,,,,,,91,click the 1 key.,,,,,370.9396,373.1332,1,1,1.6615,,0,65,65,90,1,REAL,FAKE,,,,,,,,,,,,,,,,,
,,,,,,,,,5fc43dcde1880f139efc0b0a,spanish,13 or older,"no, only English or Spanish",no,2025-07-24_12h18.15.855,empathy_intonation_perc_control,2024.2.4,Win32,59.88023952,5fc43dcde1880f139efc0b0a,68817205a84113384fffdfe3,68825ca28df1a9c15ad25c9f,,,,,,,,,,,,,1,,,,,,,,,,,,,,,,,,,,,,,,,,,,,,,,,,,,,26,secuestro,,,,,373.1357,374.4654,0,0,0.797,,0,66,66,25,1,REAL,FAKE,,,,,,,,,,,,,,,,,
,,,,,,,,,5fc43dcde1880f139efc0b0a,spanish,13 or older,"no, only English or Spanish",no,2025-07-24_12h18.15.855,empathy_intonation_perc_control,2024.2.4,Win32,59.88023952,5fc43dcde1880f139efc0b0a,68817205a84113384fffdfe3,68825ca28df1a9c15ad25c9f,,,,,,,,,,,,,0,,,,,,,,,,,,,,,,,,,,,,,,,,,,,,,,,,,,,72,pemición,,,,,374.4679,375.681,0,1,0.6884,,0,67,67,71,1,REAL,FAKE,,,,,,,,,,,,,,,,,
,,,,,,,,,5fc43dcde1880f139efc0b0a,spanish,13 or older,"no, only English or Spanish",no,2025-07-24_12h18.15.855,empathy_intonation_perc_control,2024.2.4,Win32,59.88023952,5fc43dcde1880f139efc0b0a,68817205a84113384fffdfe3,68825ca28df1a9c15ad25c9f,,,,,,,,,,,,,0,,,,,,,,,,,,,,,,,,,,,,,,,,,,,,,,,,,,,50,flamida,,,,,375.685,377.679,1,0,1.4691,,0,68,68,49,1,REAL,FAKE,,,,,,,,,,,,,,,,,
,,,,,,,,,5fc43dcde1880f139efc0b0a,spanish,13 or older,"no, only English or Spanish",no,2025-07-24_12h18.15.855,empathy_intonation_perc_control,2024.2.4,Win32,59.88023952,5fc43dcde1880f139efc0b0a,68817205a84113384fffdfe3,68825ca28df1a9c15ad25c9f,,,,,,,,,,,,,1,,,,,,,,,,,,,,,,,,,,,,,,,,,,,,,,,,,,,5,zapato,,,,,377.6808,378.8782,1,1,0.6668,,0,69,69,4,1,REAL,FAKE,,,,,,,,,,,,,,,,,
,,,,,,,,,5fc43dcde1880f139efc0b0a,spanish,13 or older,"no, only English or Spanish",no,2025-07-24_12h18.15.855,empathy_intonation_perc_control,2024.2.4,Win32,59.88023952,5fc43dcde1880f139efc0b0a,68817205a84113384fffdfe3,68825ca28df1a9c15ad25c9f,,,,,,,,,,,,,1,,,,,,,,,,,,,,,,,,,,,,,,,,,,,,,,,,,,,64,orgulloso,,,,,378.8798,380.0438,0,0,0.6287,,0,70,70,63,1,REAL,FAKE,,,,,,,,,,,,,,,,,
,,,,,,,,,5fc43dcde1880f139efc0b0a,spanish,13 or older,"no, only English or Spanish",no,2025-07-24_12h18.15.855,empathy_intonation_perc_control,2024.2.4,Win32,59.88023952,5fc43dcde1880f139efc0b0a,68817205a84113384fffdfe3,68825ca28df1a9c15ad25c9f,,,,,,,,,,,,,1,,,,,,,,,,,,,,,,,,,,,,,,,,,,,,,,,,,,,15,regar,,,,,380.0454,381.2434,0,0,0.6708,,0,71,71,14,1,REAL,FAKE,,,,,,,,,,,,,,,,,
,,,,,,,,,5fc43dcde1880f139efc0b0a,spanish,13 or older,"no, only English or Spanish",no,2025-07-24_12h18.15.855,empathy_intonation_perc_control,2024.2.4,Win32,59.88023952,5fc43dcde1880f139efc0b0a,68817205a84113384fffdfe3,68825ca28df1a9c15ad25c9f,,,,,,,,,,,,,1,,,,,,,,,,,,,,,,,,,,,,,,,,,,,,,,,,,,,43,canela,,,,,381.2472,382.7258,0,0,0.951,,0,72,72,42,1,REAL,FAKE,,,,,,,,,,,,,,,,,
,,,,,,,,,5fc43dcde1880f139efc0b0a,spanish,13 or older,"no, only English or Spanish",no,2025-07-24_12h18.15.855,empathy_intonation_perc_control,2024.2.4,Win32,59.88023952,5fc43dcde1880f139efc0b0a,68817205a84113384fffdfe3,68825ca28df1a9c15ad25c9f,,,,,,,,,,,,,1,,,,,,,,,,,,,,,,,,,,,,,,,,,,,,,,,,,,,13,helar,,,,,382.7292,386.0561,0,0,2.7936,,0,73,73,12,1,REAL,FAKE,,,,,,,,,,,,,,,,,
,,,,,,,,,5fc43dcde1880f139efc0b0a,spanish,13 or older,"no, only English or Spanish",no,2025-07-24_12h18.15.855,empathy_intonation_perc_control,2024.2.4,Win32,59.88023952,5fc43dcde1880f139efc0b0a,68817205a84113384fffdfe3,68825ca28df1a9c15ad25c9f,,,,,,,,,,,,,1,,,,,,,,,,,,,,,,,,,,,,,,,,,,,,,,,,,,,34,aviso,,,,,386.0595,387.0045,0,0,0.4218,,0,74,74,33,1,REAL,FAKE,,,,,,,,,,,,,,,,,
,,,,,,,,,5fc43dcde1880f139efc0b0a,spanish,13 or older,"no, only English or Spanish",no,2025-07-24_12h18.15.855,empathy_intonation_perc_control,2024.2.4,Win32,59.88023952,5fc43dcde1880f139efc0b0a,68817205a84113384fffdfe3,68825ca28df1a9c15ad25c9f,,,,,,,,,,,,,1,,,,,,,,,,,,,,,,,,,,,,,,,,,,,,,,,,,,,88,acantilado,,,,,387.0059,388.1705,0,0,0.631,,0,75,75,87,1,REAL,FAKE,,,,,,,,,,,,,,,,,
,,,,,,,,,5fc43dcde1880f139efc0b0a,spanish,13 or older,"no, only English or Spanish",no,2025-07-24_12h18.15.855,empathy_intonation_perc_control,2024.2.4,Win32,59.88023952,5fc43dcde1880f139efc0b0a,68817205a84113384fffdfe3,68825ca28df1a9c15ad25c9f,,,,,,,,,,,,,1,,,,,,,,,,,,,,,,,,,,,,,,,,,,,,,,,,,,,77,tiburón,,,,,388.1724,389.4866,0,0,0.7838,,0,76,76,76,1,REAL,FAKE,,,,,,,,,,,,,,,,,
,,,,,,,,,5fc43dcde1880f139efc0b0a,spanish,13 or older,"no, only English or Spanish",no,2025-07-24_12h18.15.855,empathy_intonation_perc_control,2024.2.4,Win32,59.88023952,5fc43dcde1880f139efc0b0a,68817205a84113384fffdfe3,68825ca28df1a9c15ad25c9f,,,,,,,,,,,,,0,,,,,,,,,,,,,,,,,,,,,,,,,,,,,,,,,,,,,16,abracer,,,,,389.4907,390.702,0,1,0.6861,,0,77,77,15,1,REAL,FAKE,,,,,,,,,,,,,,,,,
,,,,,,,,,5fc43dcde1880f139efc0b0a,spanish,13 or older,"no, only English or Spanish",no,2025-07-24_12h18.15.855,empathy_intonation_perc_control,2024.2.4,Win32,59.88023952,5fc43dcde1880f139efc0b0a,68817205a84113384fffdfe3,68825ca28df1a9c15ad25c9f,,,,,,,,,,,,,1,,,,,,,,,,,,,,,,,,,,,,,,,,,,,,,,,,,,,52,camisa,,,,,390.7047,391.9177,1,1,0.6882,,0,78,78,51,1,REAL,FAKE,,,,,,,,,,,,,,,,,
,,,,,,,,,5fc43dcde1880f139efc0b0a,spanish,13 or older,"no, only English or Spanish",no,2025-07-24_12h18.15.855,empathy_intonation_perc_control,2024.2.4,Win32,59.88023952,5fc43dcde1880f139efc0b0a,68817205a84113384fffdfe3,68825ca28df1a9c15ad25c9f,,,,,,,,,,,,,1,,,,,,,,,,,,,,,,,,,,,,,,,,,,,,,,,,,,,7,pésimo,,,,,391.9199,393.184,1,1,0.7433,,0,79,79,6,1,REAL,FAKE,,,,,,,,,,,,,,,,,
,,,,,,,,,5fc43dcde1880f139efc0b0a,spanish,13 or older,"no, only English or Spanish",no,2025-07-24_12h18.15.855,empathy_intonation_perc_control,2024.2.4,Win32,59.88023952,5fc43dcde1880f139efc0b0a,68817205a84113384fffdfe3,68825ca28df1a9c15ad25c9f,,,,,,,,,,,,,0,,,,,,,,,,,,,,,,,,,,,,,,,,,,,,,,,,,,,66,hacido,,,,,393.1867,394.3825,1,0,0.6749,,0,80,80,65,1,REAL,FAKE,,,,,,,,,,,,,,,,,
,,,,,,,,,5fc43dcde1880f139efc0b0a,spanish,13 or older,"no, only English or Spanish",no,2025-07-24_12h18.15.855,empathy_intonation_perc_control,2024.2.4,Win32,59.88023952,5fc43dcde1880f139efc0b0a,68817205a84113384fffdfe3,68825ca28df1a9c15ad25c9f,,,,,,,,,,,,,0,,,,,,,,,,,,,,,,,,,,,,,,,,,,,,,,,,,,,30,alardio,,,,,394.3871,395.4645,1,0,0.5518,,0,81,81,29,1,REAL,FAKE,,,,,,,,,,,,,,,,,
,,,,,,,,,5fc43dcde1880f139efc0b0a,spanish,13 or older,"no, only English or Spanish",no,2025-07-24_12h18.15.855,empathy_intonation_perc_control,2024.2.4,Win32,59.88023952,5fc43dcde1880f139efc0b0a,68817205a84113384fffdfe3,68825ca28df1a9c15ad25c9f,,,,,,,,,,,,,1,,,,,,,,,,,,,,,,,,,,,,,,,,,,,,,,,,,,,28,merodear,,,,,395.4662,396.4639,0,0,0.4649,,0,82,82,27,1,REAL,FAKE,,,,,,,,,,,,,,,,,
,,,,,,,,,5fc43dcde1880f139efc0b0a,spanish,13 or older,"no, only English or Spanish",no,2025-07-24_12h18.15.855,empathy_intonation_perc_control,2024.2.4,Win32,59.88023952,5fc43dcde1880f139efc0b0a,68817205a84113384fffdfe3,68825ca28df1a9c15ad25c9f,,,,,,,,,,,,,0,,,,,,,,,,,,,,,,,,,,,,,,,,,,,,,,,,,,,92,click the 0 key.,,,,,396.4662,398.2789,0,1,1.2783,,0,83,83,91,1,REAL,FAKE,,,,,,,,,,,,,,,,,
,,,,,,,,,5fc43dcde1880f139efc0b0a,spanish,13 or older,"no, only English or Spanish",no,2025-07-24_12h18.15.855,empathy_intonation_perc_control,2024.2.4,Win32,59.88023952,5fc43dcde1880f139efc0b0a,68817205a84113384fffdfe3,68825ca28df1a9c15ad25c9f,,,,,,,,,,,,,0,,,,,,,,,,,,,,,,,,,,,,,,,,,,,,,,,,,,,10,antar,,,,,398.2805,399.5115,0,1,0.6969,,0,84,84,9,1,REAL,FAKE,,,,,,,,,,,,,,,,,
,,,,,,,,,5fc43dcde1880f139efc0b0a,spanish,13 or older,"no, only English or Spanish",no,2025-07-24_12h18.15.855,empathy_intonation_perc_control,2024.2.4,Win32,59.88023952,5fc43dcde1880f139efc0b0a,68817205a84113384fffdfe3,68825ca28df1a9c15ad25c9f,,,,,,,,,,,,,0,,,,,,,,,,,,,,,,,,,,,,,,,,,,,,,,,,,,,18,arsa,,,,,399.514,400.6105,0,1,0.5697,,0,85,85,17,1,REAL,FAKE,,,,,,,,,,,,,,,,,
,,,,,,,,,5fc43dcde1880f139efc0b0a,spanish,13 or older,"no, only English or Spanish",no,2025-07-24_12h18.15.855,empathy_intonation_perc_control,2024.2.4,Win32,59.88023952,5fc43dcde1880f139efc0b0a,68817205a84113384fffdfe3,68825ca28df1a9c15ad25c9f,,,,,,,,,,,,,1,,,,,,,,,,,,,,,,,,,,,,,,,,,,,,,,,,,,,25,bisagra,,,,,400.6134,401.9593,0,0,0.8136,,0,86,86,24,1,REAL,FAKE,,,,,,,,,,,,,,,,,
,,,,,,,,,5fc43dcde1880f139efc0b0a,spanish,13 or older,"no, only English or Spanish",no,2025-07-24_12h18.15.855,empathy_intonation_perc_control,2024.2.4,Win32,59.88023952,5fc43dcde1880f139efc0b0a,68817205a84113384fffdfe3,68825ca28df1a9c15ad25c9f,,,,,,,,,,,,,0,,,,,,,,,,,,,,,,,,,,,,,,,,,,,,,,,,,,,87,grodo,,,,,401.9622,403.3252,0,1,0.8316,,0,87,87,86,1,REAL,FAKE,,,,,,,,,,,,,,,,,
,,,,,,,,,5fc43dcde1880f139efc0b0a,spanish,13 or older,"no, only English or Spanish",no,2025-07-24_12h18.15.855,empathy_intonation_perc_control,2024.2.4,Win32,59.88023952,5fc43dcde1880f139efc0b0a,68817205a84113384fffdfe3,68825ca28df1a9c15ad25c9f,,,,,,,,,,,,,1,,,,,,,,,,,,,,,,,,,,,,,,,,,,,,,,,,,,,44,cuchara,,,,,403.3282,404.5736,1,1,0.721,,0,88,88,43,1,REAL,FAKE,,,,,,,,,,,,,,,,,
,,,,,,,,,5fc43dcde1880f139efc0b0a,spanish,13 or older,"no, only English or Spanish",no,2025-07-24_12h18.15.855,empathy_intonation_perc_control,2024.2.4,Win32,59.88023952,5fc43dcde1880f139efc0b0a,68817205a84113384fffdfe3,68825ca28df1a9c15ad25c9f,,,,,,,,,,,,,1,,,,,,,,,,,,,,,,,,,,,,,,,,,,,,,,,,,,,51,candado,,,,,404.5752,405.8728,1,1,0.7676,,0,89,89,50,1,REAL,FAKE,,,,,,,,,,,,,,,,,
,,,,,,,,,5fc43dcde1880f139efc0b0a,spanish,13 or older,"no, only English or Spanish",no,2025-07-24_12h18.15.855,empathy_intonation_perc_control,2024.2.4,Win32,59.88023952,5fc43dcde1880f139efc0b0a,68817205a84113384fffdfe3,68825ca28df1a9c15ad25c9f,,,,,,,,,,,,,0,,,,,,,,,,,,,,,,,,,,,,,,,,,,,,,,,,,,,70,temblo,,,,,405.875,407.1721,1,0,0.771,,0,90,90,69,1,REAL,FAKE,,,,,,,,,,,,,,,,,
,,,,,,,,,5fc43dcde1880f139efc0b0a,spanish,13 or older,"no, only English or Spanish",no,2025-07-24_12h18.15.855,empathy_intonation_perc_control,2024.2.4,Win32,59.88023952,5fc43dcde1880f139efc0b0a,68817205a84113384fffdfe3,68825ca28df1a9c15ad25c9f,,,,,,,,,,,,,1,,,,,,,,,,,,,,,,,,,,,,,,,,,,,,,,,,,,,68,alegre,,,,,407.1749,408.5542,1,1,0.8455,,0,91,91,67,1,REAL,FAKE,,,,,,,,,,,,,,,,,
,,,,,,,,,5fc43dcde1880f139efc0b0a,spanish,13 or older,"no, only English or Spanish",no,2025-07-24_12h18.15.855,empathy_intonation_perc_control,2024.2.4,Win32,59.88023952,5fc43dcde1880f139efc0b0a,68817205a84113384fffdfe3,68825ca28df1a9c15ad25c9f,,,,,,,,,,,,,,,,,,,,,,,,,,,,,,,,,,,,,,,,,,,,,,,,,,,,,,,,,,,,,,,,,,,,,408.5554,410.1527,,,,,,,,,,,,,,,
,,,,,,,,,5fc43dcde1880f139efc0b0a,spanish,13 or older,"no, only English or Spanish",no,2025-07-24_12h18.15.855,empathy_intonation_perc_control,2024.2.4,Win32,59.88023952,5fc43dcde1880f139efc0b0a,68817205a84113384fffdfe3,68825ca28df1a9c15ad25c9f,,,,,,,,,,,,,,,,,,,,,,,,,,,1,,,,,,,,,,,,,,,,,,,,,,,,,,,,,,,,,,,,,,,,,,,,410.1638,416.9635,slightly agree,0,0,0,0,1,I can easily tell if someone else wants to enter a conversation.,1,0,1,0,,
,,,,,,,,,5fc43dcde1880f139efc0b0a,spanish,13 or older,"no, only English or Spanish",no,2025-07-24_12h18.15.855,empathy_intonation_perc_control,2024.2.4,Win32,59.88023952,5fc43dcde1880f139efc0b0a,68817205a84113384fffdfe3,68825ca28df1a9c15ad25c9f,,,,,,,,,,,,,,,,,,,,,,,,,,,2,,,,,,,,,,,,,,,,,,,,,,,,,,,,,,,,,,,,,,,,,,,,416.9667,418.5787,slightly agree,0,1,1,1,1,I prefer animals to humans.,0,1,0,0,,
,,,,,,,,,5fc43dcde1880f139efc0b0a,spanish,13 or older,"no, only English or Spanish",no,2025-07-24_12h18.15.855,empathy_intonation_perc_control,2024.2.4,Win32,59.88023952,5fc43dcde1880f139efc0b0a,68817205a84113384fffdfe3,68825ca28df1a9c15ad25c9f,,,,,,,,,,,,,,,,,,,,,,,,,,,3,,,,,,,,,,,,,,,,,,,,,,,,,,,,,,,,,,,,,,,,,,,,418.582,419.9943,slightly agree,0,2,2,2,1,I try to keep up with the current trends and fashions.,0,1,0,0,,
,,,,,,,,,5fc43dcde1880f139efc0b0a,spanish,13 or older,"no, only English or Spanish",no,2025-07-24_12h18.15.855,empathy_intonation_perc_control,2024.2.4,Win32,59.88023952,5fc43dcde1880f139efc0b0a,68817205a84113384fffdfe3,68825ca28df1a9c15ad25c9f,,,,,,,,,,,,,,,,,,,,,,,,,,,4,,,,,,,,,,,,,,,,,,,,,,,,,,,,,,,,,,,,,,,,,,,,419.9979,425.3399,slightly disagree,0,3,3,3,1,"I find it difficult to explain to others things that I understand easily,   when they don't understand it first time.",1,0,0,1,,
,,,,,,,,,5fc43dcde1880f139efc0b0a,spanish,13 or older,"no, only English or Spanish",no,2025-07-24_12h18.15.855,empathy_intonation_perc_control,2024.2.4,Win32,59.88023952,5fc43dcde1880f139efc0b0a,68817205a84113384fffdfe3,68825ca28df1a9c15ad25c9f,,,,,,,,,,,,,,,,,,,,,,,,,,,5,,,,,,,,,,,,,,,,,,,,,,,,,,,,,,,,,,,,,,,,,,,,425.3419,427.8379,slightly disagree,0,4,4,4,1,I dream most nights.,0,1,0,0,,
,,,,,,,,,5fc43dcde1880f139efc0b0a,spanish,13 or older,"no, only English or Spanish",no,2025-07-24_12h18.15.855,empathy_intonation_perc_control,2024.2.4,Win32,59.88023952,5fc43dcde1880f139efc0b0a,68817205a84113384fffdfe3,68825ca28df1a9c15ad25c9f,,,,,,,,,,,,,,,,,,,,,,,,,,,6,,,,,,,,,,,,,,,,,,,,,,,,,,,,,,,,,,,,,,,,,,,,427.84,429.6535,strongly agree,0,5,5,5,1,I really enjoy caring for other people.,1,0,1,0,,
,,,,,,,,,5fc43dcde1880f139efc0b0a,spanish,13 or older,"no, only English or Spanish",no,2025-07-24_12h18.15.855,empathy_intonation_perc_control,2024.2.4,Win32,59.88023952,5fc43dcde1880f139efc0b0a,68817205a84113384fffdfe3,68825ca28df1a9c15ad25c9f,,,,,,,,,,,,,,,,,,,,,,,,,,,7,,,,,,,,,,,,,,,,,,,,,,,,,,,,,,,,,,,,,,,,,,,,429.6559,433.0336,slightly agree,0,6,6,6,1,I try to solve my own problems rather than discussing them with others.,0,1,0,0,,
,,,,,,,,,5fc43dcde1880f139efc0b0a,spanish,13 or older,"no, only English or Spanish",no,2025-07-24_12h18.15.855,empathy_intonation_perc_control,2024.2.4,Win32,59.88023952,5fc43dcde1880f139efc0b0a,68817205a84113384fffdfe3,68825ca28df1a9c15ad25c9f,,,,,,,,,,,,,,,,,,,,,,,,,,,8,,,,,,,,,,,,,,,,,,,,,,,,,,,,,,,,,,,,,,,,,,,,433.0356,436.6141,slightly disagree,0,7,7,7,1,I find it hard to know what to do in a social situation.,1,0,0,1,,
,,,,,,,,,5fc43dcde1880f139efc0b0a,spanish,13 or older,"no, only English or Spanish",no,2025-07-24_12h18.15.855,empathy_intonation_perc_control,2024.2.4,Win32,59.88023952,5fc43dcde1880f139efc0b0a,68817205a84113384fffdfe3,68825ca28df1a9c15ad25c9f,,,,,,,,,,,,,,,,,,,,,,,,,,,9,,,,,,,,,,,,,,,,,,,,,,,,,,,,,,,,,,,,,,,,,,,,436.6161,439.6782,strongly disagree,0,8,8,8,1,I am at my best first thing in the morning.,0,1,0,0,,
,,,,,,,,,5fc43dcde1880f139efc0b0a,spanish,13 or older,"no, only English or Spanish",no,2025-07-24_12h18.15.855,empathy_intonation_perc_control,2024.2.4,Win32,59.88023952,5fc43dcde1880f139efc0b0a,68817205a84113384fffdfe3,68825ca28df1a9c15ad25c9f,,,,,,,,,,,,,,,,,,,,,,,,,,,10,,,,,,,,,,,,,,,,,,,,,,,,,,,,,,,,,,,,,,,,,,,,439.681,445.0737,strongly disagree,0,9,9,9,1,People often tell me that I went too far in driving my point home in a discussion.,1,0,0,1,,
,,,,,,,,,5fc43dcde1880f139efc0b0a,spanish,13 or older,"no, only English or Spanish",no,2025-07-24_12h18.15.855,empathy_intonation_perc_control,2024.2.4,Win32,59.88023952,5fc43dcde1880f139efc0b0a,68817205a84113384fffdfe3,68825ca28df1a9c15ad25c9f,,,,,,,,,,,,,,,,,,,,,,,,,,,11,,,,,,,,,,,,,,,,,,,,,,,,,,,,,,,,,,,,,,,,,,,,445.0759,451.252,strongly disagree,0,10,10,10,1,It doesn't bother me too much if I am late meeting a friend.,1,0,0,1,,
,,,,,,,,,5fc43dcde1880f139efc0b0a,spanish,13 or older,"no, only English or Spanish",no,2025-07-24_12h18.15.855,empathy_intonation_perc_control,2024.2.4,Win32,59.88023952,5fc43dcde1880f139efc0b0a,68817205a84113384fffdfe3,68825ca28df1a9c15ad25c9f,,,,,,,,,,,,,,,,,,,,,,,,,,,12,,,,,,,,,,,,,,,,,,,,,,,,,,,,,,,,,,,,,,,,,,,,451.2542,454.9655,strongly disagree,0,11,11,11,1,"Friendships and relationships are just too difficult, so I tend not to 
  bother with them.",1,0,0,1,,
,,,,,,,,,5fc43dcde1880f139efc0b0a,spanish,13 or older,"no, only English or Spanish",no,2025-07-24_12h18.15.855,empathy_intonation_perc_control,2024.2.4,Win32,59.88023952,5fc43dcde1880f139efc0b0a,68817205a84113384fffdfe3,68825ca28df1a9c15ad25c9f,,,,,,,,,,,,,,,,,,,,,,,,,,,13,,,,,,,,,,,,,,,,,,,,,,,,,,,,,,,,,,,,,,,,,,,,454.9676,457.5967,strongly agree,0,12,12,12,1,"I would never break a law, no matter how minor.",0,1,0,0,,
,,,,,,,,,5fc43dcde1880f139efc0b0a,spanish,13 or older,"no, only English or Spanish",no,2025-07-24_12h18.15.855,empathy_intonation_perc_control,2024.2.4,Win32,59.88023952,5fc43dcde1880f139efc0b0a,68817205a84113384fffdfe3,68825ca28df1a9c15ad25c9f,,,,,,,,,,,,,,,,,,,,,,,,,,,14,,,,,,,,,,,,,,,,,,,,,,,,,,,,,,,,,,,,,,,,,,,,457.599,461.7766,slightly disagree,0,13,13,13,1,I often find it difficult to judge if something is rude or polite.,1,0,0,1,,
,,,,,,,,,5fc43dcde1880f139efc0b0a,spanish,13 or older,"no, only English or Spanish",no,2025-07-24_12h18.15.855,empathy_intonation_perc_control,2024.2.4,Win32,59.88023952,5fc43dcde1880f139efc0b0a,68817205a84113384fffdfe3,68825ca28df1a9c15ad25c9f,,,,,,,,,,,,,,,,,,,,,,,,,,,15,,,,,,,,,,,,,,,,,,,,,,,,,,,,,,,,,,,,,,,,,,,,461.7792,466.1729,strongly disagree,0,14,14,14,1,"In a conversation, I tend to focus on my own thoughts rather than on what 
  my listener might be thinking.",1,0,0,1,,
,,,,,,,,,5fc43dcde1880f139efc0b0a,spanish,13 or older,"no, only English or Spanish",no,2025-07-24_12h18.15.855,empathy_intonation_perc_control,2024.2.4,Win32,59.88023952,5fc43dcde1880f139efc0b0a,68817205a84113384fffdfe3,68825ca28df1a9c15ad25c9f,,,,,,,,,,,,,,,,,,,,,,,,,,,16,,,,,,,,,,,,,,,,,,,,,,,,,,,,,,,,,,,,,,,,,,,,466.1755,469.5869,slightly disagree,0,15,15,15,1,I prefer practical jokes to verbal humor.,0,1,0,0,,
,,,,,,,,,5fc43dcde1880f139efc0b0a,spanish,13 or older,"no, only English or Spanish",no,2025-07-24_12h18.15.855,empathy_intonation_perc_control,2024.2.4,Win32,59.88023952,5fc43dcde1880f139efc0b0a,68817205a84113384fffdfe3,68825ca28df1a9c15ad25c9f,,,,,,,,,,,,,,,,,,,,,,,,,,,17,,,,,,,,,,,,,,,,,,,,,,,,,,,,,,,,,,,,,,,,,,,,469.5888,472.5678,slightly agree,0,16,16,16,1,I live life for today rather than the future.,0,1,0,0,,
,,,,,,,,,5fc43dcde1880f139efc0b0a,spanish,13 or older,"no, only English or Spanish",no,2025-07-24_12h18.15.855,empathy_intonation_perc_control,2024.2.4,Win32,59.88023952,5fc43dcde1880f139efc0b0a,68817205a84113384fffdfe3,68825ca28df1a9c15ad25c9f,,,,,,,,,,,,,,,,,,,,,,,,,,,18,,,,,,,,,,,,,,,,,,,,,,,,,,,,,,,,,,,,,,,,,,,,472.5706,475.5652,strongly disagree,0,17,17,17,1,"When I was a child, I enjoyed cutting up worms to see what would happen.",1,0,0,1,,
,,,,,,,,,5fc43dcde1880f139efc0b0a,spanish,13 or older,"no, only English or Spanish",no,2025-07-24_12h18.15.855,empathy_intonation_perc_control,2024.2.4,Win32,59.88023952,5fc43dcde1880f139efc0b0a,68817205a84113384fffdfe3,68825ca28df1a9c15ad25c9f,,,,,,,,,,,,,,,,,,,,,,,,,,,19,,,,,,,,,,,,,,,,,,,,,,,,,,,,,,,,,,,,,,,,,,,,475.5674,482.7429,strongly agree,0,18,18,18,1,I can pick up quickly if someone says one thing but means another.,1,0,1,0,,
,,,,,,,,,5fc43dcde1880f139efc0b0a,spanish,13 or older,"no, only English or Spanish",no,2025-07-24_12h18.15.855,empathy_intonation_perc_control,2024.2.4,Win32,59.88023952,5fc43dcde1880f139efc0b0a,68817205a84113384fffdfe3,68825ca28df1a9c15ad25c9f,,,,,,,,,,,,,,,,,,,,,,,,,,,20,,,,,,,,,,,,,,,,,,,,,,,,,,,,,,,,,,,,,,,,,,,,482.7449,484.5746,strongly agree,0,19,19,19,1,I tend to have very strong opinions about morality.,0,1,0,0,,
,,,,,,,,,5fc43dcde1880f139efc0b0a,spanish,13 or older,"no, only English or Spanish",no,2025-07-24_12h18.15.855,empathy_intonation_perc_control,2024.2.4,Win32,59.88023952,5fc43dcde1880f139efc0b0a,68817205a84113384fffdfe3,68825ca28df1a9c15ad25c9f,,,,,,,,,,,,,,,,,,,,,,,,,,,21,,,,,,,,,,,,,,,,,,,,,,,,,,,,,,,,,,,,,,,,,,,,484.5767,488.1548,slightly disagree,0,20,20,20,1,It is hard for me to see why some things upset people so much.,1,0,0,1,,
,,,,,,,,,5fc43dcde1880f139efc0b0a,spanish,13 or older,"no, only English or Spanish",no,2025-07-24_12h18.15.855,empathy_intonation_perc_control,2024.2.4,Win32,59.88023952,5fc43dcde1880f139efc0b0a,68817205a84113384fffdfe3,68825ca28df1a9c15ad25c9f,,,,,,,,,,,,,,,,,,,,,,,,,,,22,,,,,,,,,,,,,,,,,,,,,,,,,,,,,,,,,,,,,,,,,,,,488.157,491.1525,slightly agree,0,21,21,21,1,I find it easy to put myself in somebody else's shoes.,1,0,1,0,,
,,,,,,,,,5fc43dcde1880f139efc0b0a,spanish,13 or older,"no, only English or Spanish",no,2025-07-24_12h18.15.855,empathy_intonation_perc_control,2024.2.4,Win32,59.88023952,5fc43dcde1880f139efc0b0a,68817205a84113384fffdfe3,68825ca28df1a9c15ad25c9f,,,,,,,,,,,,,,,,,,,,,,,,,,,23,,,,,,,,,,,,,,,,,,,,,,,,,,,,,,,,,,,,,,,,,,,,491.1547,494.0168,strongly agree,0,22,22,22,1,I think that good manners are the most important thing a parent can teach their child.,0,1,0,0,,
,,,,,,,,,5fc43dcde1880f139efc0b0a,spanish,13 or older,"no, only English or Spanish",no,2025-07-24_12h18.15.855,empathy_intonation_perc_control,2024.2.4,Win32,59.88023952,5fc43dcde1880f139efc0b0a,68817205a84113384fffdfe3,68825ca28df1a9c15ad25c9f,,,,,,,,,,,,,,,,,,,,,,,,,,,24,,,,,,,,,,,,,,,,,,,,,,,,,,,,,,,,,,,,,,,,,,,,494.0188,497.0976,strongly disagree,0,23,23,23,1,I like to do things on the spur of the moment.,0,1,0,0,,
,,,,,,,,,5fc43dcde1880f139efc0b0a,spanish,13 or older,"no, only English or Spanish",no,2025-07-24_12h18.15.855,empathy_intonation_perc_control,2024.2.4,Win32,59.88023952,5fc43dcde1880f139efc0b0a,68817205a84113384fffdfe3,68825ca28df1a9c15ad25c9f,,,,,,,,,,,,,,,,,,,,,,,,,,,25,,,,,,,,,,,,,,,,,,,,,,,,,,,,,,,,,,,,,,,,,,,,497.0997,499.679,slightly agree,0,24,24,24,1,I am good at predicting how someone will feel.,1,0,1,0,,
