instructions_2afc.started,instructions_2afc.stopped,instructions_2afc_loop.thisRepN,instructions_2afc_loop.thisTrialN,instructions_2afc_loop.thisN,instructions_2afc_loop.thisIndex,instructions_2afc_loop.ran,instructions_text,continue_text,participant_id,"What variety of Spanish are you most familiar with? (e.g., Peruvian, Spanish, Mexican)",At what age did you begin learning Spanish?,Are you proficient in any languages other than English/Spanish?,"Are you familiar with Caribbean (e.g., Caribbean, Puerto Rican) or Galician Spanish?",date,expName,psychopyVersion,OS,frameRate,id,study_id,session,practice_2afc.started,practice_2afc.stopped,key_resp_2afc_practice.keys,key_resp_2afc_practice.corr,key_resp_2afc_practice.rt,key_resp_2afc_practice.duration,trials_2afc_practice_loop.thisRepN,trials_2afc_practice_loop.thisTrialN,trials_2afc_practice_loop.thisN,trials_2afc_practice_loop.thisIndex,trials_2afc_practice_loop.ran,path,correct_response,check_2afc.started,check_2afc.stopped,trial_2afc.started,trial_2afc.stopped,key_resp_2afc_trial.keys,key_resp_2afc_trial.corr,key_resp_2afc_trial.rt,key_resp_2afc_trial.duration,trials_2afc_loop.thisRepN,trials_2afc_loop.thisTrialN,trials_2afc_loop.thisN,trials_2afc_loop.thisIndex,trials_2afc_loop.ran,item_num,target,variety,instructions_lextale.started,instructions_lextale.stopped,instructions_lextale_loop.thisRepN,instructions_lextale_loop.thisTrialN,instructions_lextale_loop.thisN,instructions_lextale_loop.thisIndex,instructions_lextale_loop.ran,practice_lextale.started,practice_lextale.stopped,key_resp_lextale_practice.keys,key_resp_lextale_practice.corr,key_resp_lextale_practice.rt,key_resp_lextale_practice.duration,practice_feedback_lextale.started,practice_feedback_lextale.stopped,trials_lextale_practice_loop.thisRepN,trials_lextale_practice_loop.thisTrialN,trials_lextale_practice_loop.thisN,trials_lextale_practice_loop.thisIndex,trials_lextale_practice_loop.ran,stim,word,prac_button_real,prac_button_false,check_lextale.started,check_lextale.stopped,trial_lextale.started,trial_lextale.stopped,key_resp_lextale_trial.keys,key_resp_lextale_trial.corr,key_resp_lextale_trial.rt,key_resp_lextale_trial.duration,trials_lextale_loop.thisRepN,trials_lextale_loop.thisTrialN,trials_lextale_loop.thisN,trials_lextale_loop.thisIndex,trials_lextale_loop.ran,button_real,button_false,instructions_eq.started,instructions_eq.stopped,trial_eq.started,trial_eq.stopped,slider_eq_trial.response,trials_eq_loop.thisRepN,trials_eq_loop.thisTrialN,trials_eq_loop.thisN,trials_eq_loop.thisIndex,trials_eq_loop.ran,item,is_test_item,is_distractor,is_agree_score,is_disagree_score,end_exp.started,end_exp.stopped
0.0333,5.1821,0,0,0,0,1,"In the following task you are going to hear a series of utterances. 

  You will decide if the utterances sound like questions or not using your keyboard.", (press the spacebar to continue),5ffe516acbc37a4ae7eac4a1,Latin America (Costa Rica),13 or older,"no, only English or Spanish",no,2025-08-13_19h28.12.939,empathy_intonation_perc_control,2024.2.4,Win32,60.24096386,5ffe516acbc37a4ae7eac4a1,68817205a84113384fffdfe3,689d1f41a7da59d7c12263e8,,,,,,,,,,,,,,,,,,,,,,,,,,,,,,,,,,,,,,,,,,,,,,,,,,,,,,,,,,,,,,,,,,,,,,,,,,,,,,,,,,,,,
5.1893,22.7715,0,1,1,1,1,"If you believe the utterance is a question, type '1' (for 'yes') and if you do not 
  believe it is a question type '0' (for 'no').

  Let's practice a bit...", (press the spacebar to continue),5ffe516acbc37a4ae7eac4a1,Latin America (Costa Rica),13 or older,"no, only English or Spanish",no,2025-08-13_19h28.12.939,empathy_intonation_perc_control,2024.2.4,Win32,60.24096386,5ffe516acbc37a4ae7eac4a1,68817205a84113384fffdfe3,689d1f41a7da59d7c12263e8,,,,,,,,,,,,,,,,,,,,,,,,,,,,,,,,,,,,,,,,,,,,,,,,,,,,,,,,,,,,,,,,,,,,,,,,,,,,,,,,,,,,,
,,,,,,,,,5ffe516acbc37a4ae7eac4a1,Latin America (Costa Rica),13 or older,"no, only English or Spanish",no,2025-08-13_19h28.12.939,empathy_intonation_perc_control,2024.2.4,Win32,60.24096386,5ffe516acbc37a4ae7eac4a1,68817205a84113384fffdfe3,689d1f41a7da59d7c12263e8,22.79,27.0547,1,1,3.7389,,0,0,0,2,1,./stim/wavs/chilean_question_filler_Mi-padre-cantaba-bien.wav,1,,,,,,,,,,,,,,,,,,,,,,,,,,,,,,,,,,,,,,,,,,,,,,,,,,,,,,,,,,,,,,,,,,,,,,,,
,,,,,,,,,5ffe516acbc37a4ae7eac4a1,Latin America (Costa Rica),13 or older,"no, only English or Spanish",no,2025-08-13_19h28.12.939,empathy_intonation_perc_control,2024.2.4,Win32,60.24096386,5ffe516acbc37a4ae7eac4a1,68817205a84113384fffdfe3,689d1f41a7da59d7c12263e8,27.0559,35.5429,1,0,7.9635,,0,1,1,7,1,./stim/wavs/puertorican_statement_filler_La-nina-pinta-con-su-amiga.wav,0,,,,,,,,,,,,,,,,,,,,,,,,,,,,,,,,,,,,,,,,,,,,,,,,,,,,,,,,,,,,,,,,,,,,,,,,
,,,,,,,,,5ffe516acbc37a4ae7eac4a1,Latin America (Costa Rica),13 or older,"no, only English or Spanish",no,2025-08-13_19h28.12.939,empathy_intonation_perc_control,2024.2.4,Win32,60.24096386,5ffe516acbc37a4ae7eac4a1,68817205a84113384fffdfe3,689d1f41a7da59d7c12263e8,35.5444,38.1588,0,0,2.0779,,0,2,2,1,1,./stim/wavs/argentine_question_filler_Mi-vecino-habla-mucho.wav,1,,,,,,,,,,,,,,,,,,,,,,,,,,,,,,,,,,,,,,,,,,,,,,,,,,,,,,,,,,,,,,,,,,,,,,,,
,,,,,,,,,5ffe516acbc37a4ae7eac4a1,Latin America (Costa Rica),13 or older,"no, only English or Spanish",no,2025-08-13_19h28.12.939,empathy_intonation_perc_control,2024.2.4,Win32,60.24096386,5ffe516acbc37a4ae7eac4a1,68817205a84113384fffdfe3,689d1f41a7da59d7c12263e8,38.1598,41.8206,0,0,3.1305,,0,3,3,3,1,./stim/wavs/mexican_question_filler_Felipe-no-tiene-contrasena.wav,1,,,,,,,,,,,,,,,,,,,,,,,,,,,,,,,,,,,,,,,,,,,,,,,,,,,,,,,,,,,,,,,,,,,,,,,,
,,,,,,,,,5ffe516acbc37a4ae7eac4a1,Latin America (Costa Rica),13 or older,"no, only English or Spanish",no,2025-08-13_19h28.12.939,empathy_intonation_perc_control,2024.2.4,Win32,60.24096386,5ffe516acbc37a4ae7eac4a1,68817205a84113384fffdfe3,689d1f41a7da59d7c12263e8,41.822,45.1234,1,0,2.7784,,0,4,4,6,1,./stim/wavs/peruvian_statement_filler_El-nino-habla-con-su-madre.wav,0,,,,,,,,,,,,,,,,,,,,,,,,,,,,,,,,,,,,,,,,,,,,,,,,,,,,,,,,,,,,,,,,,,,,,,,,
,,,,,,,,,5ffe516acbc37a4ae7eac4a1,Latin America (Costa Rica),13 or older,"no, only English or Spanish",no,2025-08-13_19h28.12.939,empathy_intonation_perc_control,2024.2.4,Win32,60.24096386,5ffe516acbc37a4ae7eac4a1,68817205a84113384fffdfe3,689d1f41a7da59d7c12263e8,45.1247,48.2373,1,0,2.5814,,0,5,5,5,1,./stim/wavs/andalusian_statement_filler_Alberto-nunca-se-afeita.wav,0,,,,,,,,,,,,,,,,,,,,,,,,,,,,,,,,,,,,,,,,,,,,,,,,,,,,,,,,,,,,,,,,,,,,,,,,
,,,,,,,,,5ffe516acbc37a4ae7eac4a1,Latin America (Costa Rica),13 or older,"no, only English or Spanish",no,2025-08-13_19h28.12.939,empathy_intonation_perc_control,2024.2.4,Win32,60.24096386,5ffe516acbc37a4ae7eac4a1,68817205a84113384fffdfe3,689d1f41a7da59d7c12263e8,48.2385,51.2177,0,0,2.4585,,0,6,6,0,1,./stim/wavs/castilian_question_filler_Mi-esposo-conoce-al-chico.wav,1,,,,,,,,,,,,,,,,,,,,,,,,,,,,,,,,,,,,,,,,,,,,,,,,,,,,,,,,,,,,,,,,,,,,,,,,
,,,,,,,,,5ffe516acbc37a4ae7eac4a1,Latin America (Costa Rica),13 or older,"no, only English or Spanish",no,2025-08-13_19h28.12.939,empathy_intonation_perc_control,2024.2.4,Win32,60.24096386,5ffe516acbc37a4ae7eac4a1,68817205a84113384fffdfe3,689d1f41a7da59d7c12263e8,51.219,53.9974,1,0,2.2622,,0,7,7,4,1,./stim/wavs/cuban_statement_filler_Cocinabas-por-la-noche.wav,0,,,,,,,,,,,,,,,,,,,,,,,,,,,,,,,,,,,,,,,,,,,,,,,,,,,,,,,,,,,,,,,,,,,,,,,,
,,,,,,,,,5ffe516acbc37a4ae7eac4a1,Latin America (Costa Rica),13 or older,"no, only English or Spanish",no,2025-08-13_19h28.12.939,empathy_intonation_perc_control,2024.2.4,Win32,60.24096386,5ffe516acbc37a4ae7eac4a1,68817205a84113384fffdfe3,689d1f41a7da59d7c12263e8,,,,,,,,,,,,,,53.9984,60.389,,,,,,,,,,,,,,,,,,,,,,,,,,,,,,,,,,,,,,,,,,,,,,,,,,,,,,,,,,,,,,,,,,,,,,
,,,,,,,,,5ffe516acbc37a4ae7eac4a1,Latin America (Costa Rica),13 or older,"no, only English or Spanish",no,2025-08-13_19h28.12.939,empathy_intonation_perc_control,2024.2.4,Win32,60.24096386,5ffe516acbc37a4ae7eac4a1,68817205a84113384fffdfe3,689d1f41a7da59d7c12263e8,,,,,,,,,,,,./stim/wavs/mexican_mismatch_declarative-broad-focus_El-bebe-comia-muy-bien.wav,0,,,60.4043,66.0495,1,0,5.1283,,0,0,0,78,1,79,0,mexican,,,,,,,,,,,,,,,,,,,,,,,,,,,,,,,,,,,,,,,,,,,,,,,,,,,,,,,,
,,,,,,,,,5ffe516acbc37a4ae7eac4a1,Latin America (Costa Rica),13 or older,"no, only English or Spanish",no,2025-08-13_19h28.12.939,empathy_intonation_perc_control,2024.2.4,Win32,60.24096386,5ffe516acbc37a4ae7eac4a1,68817205a84113384fffdfe3,689d1f41a7da59d7c12263e8,,,,,,,,,,,,./stim/wavs/mexican_match_interrogative-total-yn_Marta-abre-el-regalo.wav,1,,,66.0514,68.5795,0,0,2.0147,,0,1,1,17,1,18,0,mexican,,,,,,,,,,,,,,,,,,,,,,,,,,,,,,,,,,,,,,,,,,,,,,,,,,,,,,,,
,,,,,,,,,5ffe516acbc37a4ae7eac4a1,Latin America (Costa Rica),13 or older,"no, only English or Spanish",no,2025-08-13_19h28.12.939,empathy_intonation_perc_control,2024.2.4,Win32,60.24096386,5ffe516acbc37a4ae7eac4a1,68817205a84113384fffdfe3,689d1f41a7da59d7c12263e8,,,,,,,,,,,,./stim/wavs/cuban_match_interrogative-total-yn_Manuela-vende-el-carro.wav,1,,,68.5807,71.2971,1,1,2.2081,,0,2,2,8,1,9,1,cuban,,,,,,,,,,,,,,,,,,,,,,,,,,,,,,,,,,,,,,,,,,,,,,,,,,,,,,,,
,,,,,,,,,5ffe516acbc37a4ae7eac4a1,Latin America (Costa Rica),13 or older,"no, only English or Spanish",no,2025-08-13_19h28.12.939,empathy_intonation_perc_control,2024.2.4,Win32,60.24096386,5ffe516acbc37a4ae7eac4a1,68817205a84113384fffdfe3,689d1f41a7da59d7c12263e8,,,,,,,,,,,,./stim/wavs/castilian_mismatch_interrogative-total-yn_Mi-tia-odia-la-lluvia.wav,1,,,71.2987,73.8249,0,0,2.005,,0,3,3,28,1,29,0,castilian,,,,,,,,,,,,,,,,,,,,,,,,,,,,,,,,,,,,,,,,,,,,,,,,,,,,,,,,
,,,,,,,,,5ffe516acbc37a4ae7eac4a1,Latin America (Costa Rica),13 or older,"no, only English or Spanish",no,2025-08-13_19h28.12.939,empathy_intonation_perc_control,2024.2.4,Win32,60.24096386,5ffe516acbc37a4ae7eac4a1,68817205a84113384fffdfe3,689d1f41a7da59d7c12263e8,,,,,,,,,,,,./stim/wavs/cuban_match_declarative-broad-focus_Ana-lleva-el-abrigo.wav,0,,,73.8259,76.3447,1,0,1.9822,,0,4,4,50,1,51,0,cuban,,,,,,,,,,,,,,,,,,,,,,,,,,,,,,,,,,,,,,,,,,,,,,,,,,,,,,,,
,,,,,,,,,5ffe516acbc37a4ae7eac4a1,Latin America (Costa Rica),13 or older,"no, only English or Spanish",no,2025-08-13_19h28.12.939,empathy_intonation_perc_control,2024.2.4,Win32,60.24096386,5ffe516acbc37a4ae7eac4a1,68817205a84113384fffdfe3,689d1f41a7da59d7c12263e8,,,,,,,,,,,,./stim/wavs/cuban_match_declarative-broad-focus_Daniel-iba-a-Bolivia.wav,0,,,76.3458,78.9586,1,0,2.0938,,0,5,5,51,1,52,0,cuban,,,,,,,,,,,,,,,,,,,,,,,,,,,,,,,,,,,,,,,,,,,,,,,,,,,,,,,,
,,,,,,,,,5ffe516acbc37a4ae7eac4a1,Latin America (Costa Rica),13 or older,"no, only English or Spanish",no,2025-08-13_19h28.12.939,empathy_intonation_perc_control,2024.2.4,Win32,60.24096386,5ffe516acbc37a4ae7eac4a1,68817205a84113384fffdfe3,689d1f41a7da59d7c12263e8,,,,,,,,,,,,./stim/wavs/mexican_mismatch_interrogative-total-yn_El-hombre-mira-la-luna.wav,1,,,78.9603,81.3056,0,0,1.8156,,0,6,6,34,1,35,0,mexican,,,,,,,,,,,,,,,,,,,,,,,,,,,,,,,,,,,,,,,,,,,,,,,,,,,,,,,,
,,,,,,,,,5ffe516acbc37a4ae7eac4a1,Latin America (Costa Rica),13 or older,"no, only English or Spanish",no,2025-08-13_19h28.12.939,empathy_intonation_perc_control,2024.2.4,Win32,60.24096386,5ffe516acbc37a4ae7eac4a1,68817205a84113384fffdfe3,689d1f41a7da59d7c12263e8,,,,,,,,,,,,./stim/wavs/mexican_match_interrogative-total-yn_Daniel-iba-a-Bolivia.wav,1,,,81.3066,83.7383,0,0,1.8992,,0,7,7,13,1,14,0,mexican,,,,,,,,,,,,,,,,,,,,,,,,,,,,,,,,,,,,,,,,,,,,,,,,,,,,,,,,
,,,,,,,,,5ffe516acbc37a4ae7eac4a1,Latin America (Costa Rica),13 or older,"no, only English or Spanish",no,2025-08-13_19h28.12.939,empathy_intonation_perc_control,2024.2.4,Win32,60.24096386,5ffe516acbc37a4ae7eac4a1,68817205a84113384fffdfe3,689d1f41a7da59d7c12263e8,,,,,,,,,,,,./stim/wavs/puertorican_mismatch_declarative-broad-focus_El-hombre-mira-la-luna.wav,0,,,83.7393,86.0338,1,0,1.7641,,0,8,8,84,1,85,0,puertorican,,,,,,,,,,,,,,,,,,,,,,,,,,,,,,,,,,,,,,,,,,,,,,,,,,,,,,,,
,,,,,,,,,5ffe516acbc37a4ae7eac4a1,Latin America (Costa Rica),13 or older,"no, only English or Spanish",no,2025-08-13_19h28.12.939,empathy_intonation_perc_control,2024.2.4,Win32,60.24096386,5ffe516acbc37a4ae7eac4a1,68817205a84113384fffdfe3,689d1f41a7da59d7c12263e8,,,,,,,,,,,,./stim/wavs/puertorican_mismatch_declarative-broad-focus_El-bebe-comia-muy-bien.wav,0,,,86.0347,88.3111,1,0,1.7366,,0,9,9,83,1,84,0,puertorican,,,,,,,,,,,,,,,,,,,,,,,,,,,,,,,,,,,,,,,,,,,,,,,,,,,,,,,,
,,,,,,,,,5ffe516acbc37a4ae7eac4a1,Latin America (Costa Rica),13 or older,"no, only English or Spanish",no,2025-08-13_19h28.12.939,empathy_intonation_perc_control,2024.2.4,Win32,60.24096386,5ffe516acbc37a4ae7eac4a1,68817205a84113384fffdfe3,689d1f41a7da59d7c12263e8,,,,,,,,,,,,./stim/wavs/castilian_match_declarative-broad-focus_Emilio-ama-la-marcha.wav,0,,,88.3123,90.8943,1,0,2.0585,,0,10,10,45,1,46,0,castilian,,,,,,,,,,,,,,,,,,,,,,,,,,,,,,,,,,,,,,,,,,,,,,,,,,,,,,,,
,,,,,,,,,5ffe516acbc37a4ae7eac4a1,Latin America (Costa Rica),13 or older,"no, only English or Spanish",no,2025-08-13_19h28.12.939,empathy_intonation_perc_control,2024.2.4,Win32,60.24096386,5ffe516acbc37a4ae7eac4a1,68817205a84113384fffdfe3,689d1f41a7da59d7c12263e8,,,,,,,,,,,,./stim/wavs/puertorican_mismatch_declarative-broad-focus_La-maestra-vive-en-Paris.wav,0,,,90.8952,93.4097,1,0,1.9805,,0,11,11,86,1,87,0,puertorican,,,,,,,,,,,,,,,,,,,,,,,,,,,,,,,,,,,,,,,,,,,,,,,,,,,,,,,,
,,,,,,,,,5ffe516acbc37a4ae7eac4a1,Latin America (Costa Rica),13 or older,"no, only English or Spanish",no,2025-08-13_19h28.12.939,empathy_intonation_perc_control,2024.2.4,Win32,60.24096386,5ffe516acbc37a4ae7eac4a1,68817205a84113384fffdfe3,689d1f41a7da59d7c12263e8,,,,,,,,,,,,./stim/wavs/mexican_mismatch_declarative-broad-focus_El-hombre-mira-la-luna.wav,0,,,93.4106,95.7251,1,0,1.782,,0,12,12,79,1,80,0,mexican,,,,,,,,,,,,,,,,,,,,,,,,,,,,,,,,,,,,,,,,,,,,,,,,,,,,,,,,
,,,,,,,,,5ffe516acbc37a4ae7eac4a1,Latin America (Costa Rica),13 or older,"no, only English or Spanish",no,2025-08-13_19h28.12.939,empathy_intonation_perc_control,2024.2.4,Win32,60.24096386,5ffe516acbc37a4ae7eac4a1,68817205a84113384fffdfe3,689d1f41a7da59d7c12263e8,,,,,,,,,,,,./stim/wavs/castilian_match_interrogative-total-yn_Maria-bebe-el-vino.wav,1,,,95.726,98.1018,0,0,1.8424,,0,13,13,3,1,4,0,castilian,,,,,,,,,,,,,,,,,,,,,,,,,,,,,,,,,,,,,,,,,,,,,,,,,,,,,,,,
,,,,,,,,,5ffe516acbc37a4ae7eac4a1,Latin America (Costa Rica),13 or older,"no, only English or Spanish",no,2025-08-13_19h28.12.939,empathy_intonation_perc_control,2024.2.4,Win32,60.24096386,5ffe516acbc37a4ae7eac4a1,68817205a84113384fffdfe3,689d1f41a7da59d7c12263e8,,,,,,,,,,,,./stim/wavs/mexican_match_declarative-broad-focus_Daniel-iba-a-Bolivia.wav,0,,,98.103,100.4543,1,0,1.8313,,0,14,14,57,1,58,0,mexican,,,,,,,,,,,,,,,,,,,,,,,,,,,,,,,,,,,,,,,,,,,,,,,,,,,,,,,,
,,,,,,,,,5ffe516acbc37a4ae7eac4a1,Latin America (Costa Rica),13 or older,"no, only English or Spanish",no,2025-08-13_19h28.12.939,empathy_intonation_perc_control,2024.2.4,Win32,60.24096386,5ffe516acbc37a4ae7eac4a1,68817205a84113384fffdfe3,689d1f41a7da59d7c12263e8,,,,,,,,,,,,./stim/wavs/puertorican_match_declarative-broad-focus_Emilio-ama-la-marcha.wav,0,,,100.4552,102.8315,1,0,1.8343,,0,15,15,65,1,66,0,puertorican,,,,,,,,,,,,,,,,,,,,,,,,,,,,,,,,,,,,,,,,,,,,,,,,,,,,,,,,
,,,,,,,,,5ffe516acbc37a4ae7eac4a1,Latin America (Costa Rica),13 or older,"no, only English or Spanish",no,2025-08-13_19h28.12.939,empathy_intonation_perc_control,2024.2.4,Win32,60.24096386,5ffe516acbc37a4ae7eac4a1,68817205a84113384fffdfe3,689d1f41a7da59d7c12263e8,,,,,,,,,,,,./stim/wavs/mexican_match_declarative-broad-focus_Marta-abre-el-regalo.wav,0,,,102.8329,105.1289,1,0,1.7744,,0,16,16,61,1,62,0,mexican,,,,,,,,,,,,,,,,,,,,,,,,,,,,,,,,,,,,,,,,,,,,,,,,,,,,,,,,
,,,,,,,,,5ffe516acbc37a4ae7eac4a1,Latin America (Costa Rica),13 or older,"no, only English or Spanish",no,2025-08-13_19h28.12.939,empathy_intonation_perc_control,2024.2.4,Win32,60.24096386,5ffe516acbc37a4ae7eac4a1,68817205a84113384fffdfe3,689d1f41a7da59d7c12263e8,,,,,,,,,,,,./stim/wavs/mexican_match_declarative-broad-focus_Mariano-habla-del-tiempo.wav,0,,,105.1302,107.3126,1,0,1.6754,,0,17,17,60,1,61,0,mexican,,,,,,,,,,,,,,,,,,,,,,,,,,,,,,,,,,,,,,,,,,,,,,,,,,,,,,,,
,,,,,,,,,5ffe516acbc37a4ae7eac4a1,Latin America (Costa Rica),13 or older,"no, only English or Spanish",no,2025-08-13_19h28.12.939,empathy_intonation_perc_control,2024.2.4,Win32,60.24096386,5ffe516acbc37a4ae7eac4a1,68817205a84113384fffdfe3,689d1f41a7da59d7c12263e8,,,,,,,,,,,,./stim/wavs/mexican_mismatch_declarative-broad-focus_Mi-novio-viene-del-lago.wav,0,,,107.3134,109.5085,1,0,1.6723,,0,18,18,81,1,82,0,mexican,,,,,,,,,,,,,,,,,,,,,,,,,,,,,,,,,,,,,,,,,,,,,,,,,,,,,,,,
,,,,,,,,,5ffe516acbc37a4ae7eac4a1,Latin America (Costa Rica),13 or older,"no, only English or Spanish",no,2025-08-13_19h28.12.939,empathy_intonation_perc_control,2024.2.4,Win32,60.24096386,5ffe516acbc37a4ae7eac4a1,68817205a84113384fffdfe3,689d1f41a7da59d7c12263e8,,,,,,,,,,,,./stim/wavs/castilian_match_declarative-broad-focus_David-leia-el-libro.wav,0,,,109.5095,112.2263,1,0,2.1959,,0,19,19,44,1,45,0,castilian,,,,,,,,,,,,,,,,,,,,,,,,,,,,,,,,,,,,,,,,,,,,,,,,,,,,,,,,
,,,,,,,,,5ffe516acbc37a4ae7eac4a1,Latin America (Costa Rica),13 or older,"no, only English or Spanish",no,2025-08-13_19h28.12.939,empathy_intonation_perc_control,2024.2.4,Win32,60.24096386,5ffe516acbc37a4ae7eac4a1,68817205a84113384fffdfe3,689d1f41a7da59d7c12263e8,,,,,,,,,,,,./stim/wavs/mexican_mismatch_declarative-broad-focus_La-maestra-vive-en-Paris.wav,0,,,112.2278,114.7357,1,0,1.9864,,0,20,20,80,1,81,0,mexican,,,,,,,,,,,,,,,,,,,,,,,,,,,,,,,,,,,,,,,,,,,,,,,,,,,,,,,,
,,,,,,,,,5ffe516acbc37a4ae7eac4a1,Latin America (Costa Rica),13 or older,"no, only English or Spanish",no,2025-08-13_19h28.12.939,empathy_intonation_perc_control,2024.2.4,Win32,60.24096386,5ffe516acbc37a4ae7eac4a1,68817205a84113384fffdfe3,689d1f41a7da59d7c12263e8,,,,,,,,,,,,./stim/wavs/puertorican_match_interrogative-total-yn_Maria-bebe-el-vino.wav,1,,,114.7371,117.384,0,0,2.1178,,0,21,21,23,1,24,1,puertorican,,,,,,,,,,,,,,,,,,,,,,,,,,,,,,,,,,,,,,,,,,,,,,,,,,,,,,,,
,,,,,,,,,5ffe516acbc37a4ae7eac4a1,Latin America (Costa Rica),13 or older,"no, only English or Spanish",no,2025-08-13_19h28.12.939,empathy_intonation_perc_control,2024.2.4,Win32,60.24096386,5ffe516acbc37a4ae7eac4a1,68817205a84113384fffdfe3,689d1f41a7da59d7c12263e8,,,,,,,,,,,,./stim/wavs/cuban_match_declarative-broad-focus_Marta-abre-el-regalo.wav,0,,,117.3856,119.8684,1,0,1.9485,,0,22,22,55,1,56,0,cuban,,,,,,,,,,,,,,,,,,,,,,,,,,,,,,,,,,,,,,,,,,,,,,,,,,,,,,,,
,,,,,,,,,5ffe516acbc37a4ae7eac4a1,Latin America (Costa Rica),13 or older,"no, only English or Spanish",no,2025-08-13_19h28.12.939,empathy_intonation_perc_control,2024.2.4,Win32,60.24096386,5ffe516acbc37a4ae7eac4a1,68817205a84113384fffdfe3,689d1f41a7da59d7c12263e8,,,,,,,,,,,,./stim/wavs/puertorican_match_declarative-broad-focus_Daniel-iba-a-Bolivia.wav,0,,,119.8691,122.2651,1,0,1.8746,,0,23,23,63,1,64,0,puertorican,,,,,,,,,,,,,,,,,,,,,,,,,,,,,,,,,,,,,,,,,,,,,,,,,,,,,,,,
,,,,,,,,,5ffe516acbc37a4ae7eac4a1,Latin America (Costa Rica),13 or older,"no, only English or Spanish",no,2025-08-13_19h28.12.939,empathy_intonation_perc_control,2024.2.4,Win32,60.24096386,5ffe516acbc37a4ae7eac4a1,68817205a84113384fffdfe3,689d1f41a7da59d7c12263e8,,,,,,,,,,,,./stim/wavs/castilian_match_interrogative-total-yn_Manuela-vende-el-carro.wav,1,,,122.266,124.8936,0,0,2.103,,0,24,24,2,1,3,0,castilian,,,,,,,,,,,,,,,,,,,,,,,,,,,,,,,,,,,,,,,,,,,,,,,,,,,,,,,,
,,,,,,,,,5ffe516acbc37a4ae7eac4a1,Latin America (Costa Rica),13 or older,"no, only English or Spanish",no,2025-08-13_19h28.12.939,empathy_intonation_perc_control,2024.2.4,Win32,60.24096386,5ffe516acbc37a4ae7eac4a1,68817205a84113384fffdfe3,689d1f41a7da59d7c12263e8,,,,,,,,,,,,./stim/wavs/mexican_mismatch_declarative-broad-focus_Mi-tia-odia-la-lluvia.wav,0,,,124.8946,127.2292,1,0,1.8142,,0,25,25,82,1,83,0,mexican,,,,,,,,,,,,,,,,,,,,,,,,,,,,,,,,,,,,,,,,,,,,,,,,,,,,,,,,
,,,,,,,,,5ffe516acbc37a4ae7eac4a1,Latin America (Costa Rica),13 or older,"no, only English or Spanish",no,2025-08-13_19h28.12.939,empathy_intonation_perc_control,2024.2.4,Win32,60.24096386,5ffe516acbc37a4ae7eac4a1,68817205a84113384fffdfe3,689d1f41a7da59d7c12263e8,,,,,,,,,,,,./stim/wavs/cuban_mismatch_interrogative-total-yn_El-nino-oye-el-rio.wav,1,,,127.2301,130.5049,1,1,2.7485,,0,26,26,30,1,31,1,cuban,,,,,,,,,,,,,,,,,,,,,,,,,,,,,,,,,,,,,,,,,,,,,,,,,,,,,,,,
,,,,,,,,,5ffe516acbc37a4ae7eac4a1,Latin America (Costa Rica),13 or older,"no, only English or Spanish",no,2025-08-13_19h28.12.939,empathy_intonation_perc_control,2024.2.4,Win32,60.24096386,5ffe516acbc37a4ae7eac4a1,68817205a84113384fffdfe3,689d1f41a7da59d7c12263e8,,,,,,,,,,,,./stim/wavs/puertorican_mismatch_declarative-broad-focus_La-nina-lava-el-plato.wav,0,,,130.5061,133.1346,1,0,2.0891,,0,27,27,87,1,88,0,puertorican,,,,,,,,,,,,,,,,,,,,,,,,,,,,,,,,,,,,,,,,,,,,,,,,,,,,,,,,
,,,,,,,,,5ffe516acbc37a4ae7eac4a1,Latin America (Costa Rica),13 or older,"no, only English or Spanish",no,2025-08-13_19h28.12.939,empathy_intonation_perc_control,2024.2.4,Win32,60.24096386,5ffe516acbc37a4ae7eac4a1,68817205a84113384fffdfe3,689d1f41a7da59d7c12263e8,,,,,,,,,,,,./stim/wavs/puertorican_mismatch_interrogative-total-yn_El-nino-oye-el-rio.wav,1,,,133.1361,136.5884,1,1,2.9449,,0,28,28,40,1,41,1,puertorican,,,,,,,,,,,,,,,,,,,,,,,,,,,,,,,,,,,,,,,,,,,,,,,,,,,,,,,,
,,,,,,,,,5ffe516acbc37a4ae7eac4a1,Latin America (Costa Rica),13 or older,"no, only English or Spanish",no,2025-08-13_19h28.12.939,empathy_intonation_perc_control,2024.2.4,Win32,60.24096386,5ffe516acbc37a4ae7eac4a1,68817205a84113384fffdfe3,689d1f41a7da59d7c12263e8,,,,,,,,,,,,./stim/wavs/castilian_mismatch_declarative-broad-focus_Mi-tia-odia-la-lluvia.wav,0,,,136.5895,139.0694,1,0,1.9503,,0,29,29,72,1,73,0,castilian,,,,,,,,,,,,,,,,,,,,,,,,,,,,,,,,,,,,,,,,,,,,,,,,,,,,,,,,
,,,,,,,,,5ffe516acbc37a4ae7eac4a1,Latin America (Costa Rica),13 or older,"no, only English or Spanish",no,2025-08-13_19h28.12.939,empathy_intonation_perc_control,2024.2.4,Win32,60.24096386,5ffe516acbc37a4ae7eac4a1,68817205a84113384fffdfe3,689d1f41a7da59d7c12263e8,,,,,,,,,,,,./stim/wavs/castilian_mismatch_declarative-broad-focus_El-nino-oye-el-rio.wav,0,,,139.0702,141.5335,1,0,1.9329,,0,30,30,68,1,69,0,castilian,,,,,,,,,,,,,,,,,,,,,,,,,,,,,,,,,,,,,,,,,,,,,,,,,,,,,,,,
,,,,,,,,,5ffe516acbc37a4ae7eac4a1,Latin America (Costa Rica),13 or older,"no, only English or Spanish",no,2025-08-13_19h28.12.939,empathy_intonation_perc_control,2024.2.4,Win32,60.24096386,5ffe516acbc37a4ae7eac4a1,68817205a84113384fffdfe3,689d1f41a7da59d7c12263e8,,,,,,,,,,,,./stim/wavs/mexican_match_interrogative-total-yn_David-leia-el-libro.wav,1,,,141.5345,143.8124,0,0,1.7575,,0,31,31,14,1,15,0,mexican,,,,,,,,,,,,,,,,,,,,,,,,,,,,,,,,,,,,,,,,,,,,,,,,,,,,,,,,
,,,,,,,,,5ffe516acbc37a4ae7eac4a1,Latin America (Costa Rica),13 or older,"no, only English or Spanish",no,2025-08-13_19h28.12.939,empathy_intonation_perc_control,2024.2.4,Win32,60.24096386,5ffe516acbc37a4ae7eac4a1,68817205a84113384fffdfe3,689d1f41a7da59d7c12263e8,,,,,,,,,,,,./stim/wavs/castilian_mismatch_interrogative-total-yn_Mi-madre-come-la-fruta.wav,1,,,143.8134,146.3797,0,0,2.0484,,0,32,32,26,1,27,0,castilian,,,,,,,,,,,,,,,,,,,,,,,,,,,,,,,,,,,,,,,,,,,,,,,,,,,,,,,,
,,,,,,,,,5ffe516acbc37a4ae7eac4a1,Latin America (Costa Rica),13 or older,"no, only English or Spanish",no,2025-08-13_19h28.12.939,empathy_intonation_perc_control,2024.2.4,Win32,60.24096386,5ffe516acbc37a4ae7eac4a1,68817205a84113384fffdfe3,689d1f41a7da59d7c12263e8,,,,,,,,,,,,./stim/wavs/puertorican_match_declarative-broad-focus_Manuela-vende-el-carro.wav,0,,,146.3803,148.7551,1,0,1.8555,,0,33,33,66,1,67,0,puertorican,,,,,,,,,,,,,,,,,,,,,,,,,,,,,,,,,,,,,,,,,,,,,,,,,,,,,,,,
,,,,,,,,,5ffe516acbc37a4ae7eac4a1,Latin America (Costa Rica),13 or older,"no, only English or Spanish",no,2025-08-13_19h28.12.939,empathy_intonation_perc_control,2024.2.4,Win32,60.24096386,5ffe516acbc37a4ae7eac4a1,68817205a84113384fffdfe3,689d1f41a7da59d7c12263e8,,,,,,,,,,,,./stim/wavs/mexican_mismatch_interrogative-total-yn_Mi-novio-viene-del-lago.wav,1,,,148.7559,151.0856,0,0,1.8159,,0,34,34,37,1,38,0,mexican,,,,,,,,,,,,,,,,,,,,,,,,,,,,,,,,,,,,,,,,,,,,,,,,,,,,,,,,
,,,,,,,,,5ffe516acbc37a4ae7eac4a1,Latin America (Costa Rica),13 or older,"no, only English or Spanish",no,2025-08-13_19h28.12.939,empathy_intonation_perc_control,2024.2.4,Win32,60.24096386,5ffe516acbc37a4ae7eac4a1,68817205a84113384fffdfe3,689d1f41a7da59d7c12263e8,,,,,,,,,,,,./stim/wavs/puertorican_match_declarative-broad-focus_David-leia-el-libro.wav,0,,,151.0869,153.1686,1,0,1.533,,0,35,35,64,1,65,0,puertorican,,,,,,,,,,,,,,,,,,,,,,,,,,,,,,,,,,,,,,,,,,,,,,,,,,,,,,,,
,,,,,,,,,5ffe516acbc37a4ae7eac4a1,Latin America (Costa Rica),13 or older,"no, only English or Spanish",no,2025-08-13_19h28.12.939,empathy_intonation_perc_control,2024.2.4,Win32,60.24096386,5ffe516acbc37a4ae7eac4a1,68817205a84113384fffdfe3,689d1f41a7da59d7c12263e8,,,,,,,,,,,,./stim/wavs/puertorican_mismatch_interrogative-total-yn_Mi-madre-come-la-fruta.wav,1,,,153.17,155.9811,1,1,2.2893,,0,36,36,43,1,44,1,puertorican,,,,,,,,,,,,,,,,,,,,,,,,,,,,,,,,,,,,,,,,,,,,,,,,,,,,,,,,
,,,,,,,,,5ffe516acbc37a4ae7eac4a1,Latin America (Costa Rica),13 or older,"no, only English or Spanish",no,2025-08-13_19h28.12.939,empathy_intonation_perc_control,2024.2.4,Win32,60.24096386,5ffe516acbc37a4ae7eac4a1,68817205a84113384fffdfe3,689d1f41a7da59d7c12263e8,,,,,,,,,,,,./stim/wavs/puertorican_match_interrogative-total-yn_Daniel-iba-a-Bolivia.wav,1,,,155.9826,158.3344,0,0,1.8298,,0,37,37,19,1,20,1,puertorican,,,,,,,,,,,,,,,,,,,,,,,,,,,,,,,,,,,,,,,,,,,,,,,,,,,,,,,,
,,,,,,,,,5ffe516acbc37a4ae7eac4a1,Latin America (Costa Rica),13 or older,"no, only English or Spanish",no,2025-08-13_19h28.12.939,empathy_intonation_perc_control,2024.2.4,Win32,60.24096386,5ffe516acbc37a4ae7eac4a1,68817205a84113384fffdfe3,689d1f41a7da59d7c12263e8,,,,,,,,,,,,./stim/wavs/cuban_mismatch_declarative-broad-focus_El-hombre-mira-la-luna.wav,0,,,158.3354,160.3597,1,0,1.4946,,0,38,38,74,1,75,0,cuban,,,,,,,,,,,,,,,,,,,,,,,,,,,,,,,,,,,,,,,,,,,,,,,,,,,,,,,,
,,,,,,,,,5ffe516acbc37a4ae7eac4a1,Latin America (Costa Rica),13 or older,"no, only English or Spanish",no,2025-08-13_19h28.12.939,empathy_intonation_perc_control,2024.2.4,Win32,60.24096386,5ffe516acbc37a4ae7eac4a1,68817205a84113384fffdfe3,689d1f41a7da59d7c12263e8,,,,,,,,,,,,./stim/wavs/mexican_match_interrogative-total-yn_Mariano-habla-del-tiempo.wav,1,,,160.361,162.7418,0,0,1.869,,0,39,39,16,1,17,0,mexican,,,,,,,,,,,,,,,,,,,,,,,,,,,,,,,,,,,,,,,,,,,,,,,,,,,,,,,,
,,,,,,,,,5ffe516acbc37a4ae7eac4a1,Latin America (Costa Rica),13 or older,"no, only English or Spanish",no,2025-08-13_19h28.12.939,empathy_intonation_perc_control,2024.2.4,Win32,60.24096386,5ffe516acbc37a4ae7eac4a1,68817205a84113384fffdfe3,689d1f41a7da59d7c12263e8,,,,,,,,,,,,./stim/wavs/cuban_mismatch_interrogative-total-yn_Mi-madre-come-la-fruta.wav,1,,,162.7433,165.3383,1,1,2.0771,,0,40,40,31,1,32,1,cuban,,,,,,,,,,,,,,,,,,,,,,,,,,,,,,,,,,,,,,,,,,,,,,,,,,,,,,,,
,,,,,,,,,5ffe516acbc37a4ae7eac4a1,Latin America (Costa Rica),13 or older,"no, only English or Spanish",no,2025-08-13_19h28.12.939,empathy_intonation_perc_control,2024.2.4,Win32,60.24096386,5ffe516acbc37a4ae7eac4a1,68817205a84113384fffdfe3,689d1f41a7da59d7c12263e8,,,,,,,,,,,,./stim/wavs/mexican_mismatch_interrogative-total-yn_Mi-tia-odia-la-lluvia.wav,1,,,165.3395,167.6393,0,0,1.7799,,0,41,41,38,1,39,0,mexican,,,,,,,,,,,,,,,,,,,,,,,,,,,,,,,,,,,,,,,,,,,,,,,,,,,,,,,,
,,,,,,,,,5ffe516acbc37a4ae7eac4a1,Latin America (Costa Rica),13 or older,"no, only English or Spanish",no,2025-08-13_19h28.12.939,empathy_intonation_perc_control,2024.2.4,Win32,60.24096386,5ffe516acbc37a4ae7eac4a1,68817205a84113384fffdfe3,689d1f41a7da59d7c12263e8,,,,,,,,,,,,./stim/wavs/cuban_mismatch_interrogative-total-yn_El-hombre-mira-la-luna.wav,1,,,167.6402,170.1673,0,0,2.0113,,0,42,42,29,1,30,1,cuban,,,,,,,,,,,,,,,,,,,,,,,,,,,,,,,,,,,,,,,,,,,,,,,,,,,,,,,,
,,,,,,,,,5ffe516acbc37a4ae7eac4a1,Latin America (Costa Rica),13 or older,"no, only English or Spanish",no,2025-08-13_19h28.12.939,empathy_intonation_perc_control,2024.2.4,Win32,60.24096386,5ffe516acbc37a4ae7eac4a1,68817205a84113384fffdfe3,689d1f41a7da59d7c12263e8,,,,,,,,,,,,./stim/wavs/puertorican_match_interrogative-total-yn_Ana-lleva-el-abrigo.wav,1,,,170.1686,172.2161,0,0,1.5053,,0,43,43,18,1,19,1,puertorican,,,,,,,,,,,,,,,,,,,,,,,,,,,,,,,,,,,,,,,,,,,,,,,,,,,,,,,,
,,,,,,,,,5ffe516acbc37a4ae7eac4a1,Latin America (Costa Rica),13 or older,"no, only English or Spanish",no,2025-08-13_19h28.12.939,empathy_intonation_perc_control,2024.2.4,Win32,60.24096386,5ffe516acbc37a4ae7eac4a1,68817205a84113384fffdfe3,689d1f41a7da59d7c12263e8,,,,,,,,,,,,./stim/wavs/puertorican_mismatch_interrogative-total-yn_La-nina-lava-el-plato.wav,1,,,172.2171,174.3974,0,0,1.648,,0,44,44,42,1,43,1,puertorican,,,,,,,,,,,,,,,,,,,,,,,,,,,,,,,,,,,,,,,,,,,,,,,,,,,,,,,,
,,,,,,,,,5ffe516acbc37a4ae7eac4a1,Latin America (Costa Rica),13 or older,"no, only English or Spanish",no,2025-08-13_19h28.12.939,empathy_intonation_perc_control,2024.2.4,Win32,60.24096386,5ffe516acbc37a4ae7eac4a1,68817205a84113384fffdfe3,689d1f41a7da59d7c12263e8,,,,,,,,,,,,./stim/wavs/castilian_mismatch_declarative-broad-focus_Mi-novio-viene-del-lago.wav,0,,,174.3994,177.2105,1,0,2.3038,,0,45,45,71,1,72,0,castilian,,,,,,,,,,,,,,,,,,,,,,,,,,,,,,,,,,,,,,,,,,,,,,,,,,,,,,,,
,,,,,,,,,5ffe516acbc37a4ae7eac4a1,Latin America (Costa Rica),13 or older,"no, only English or Spanish",no,2025-08-13_19h28.12.939,empathy_intonation_perc_control,2024.2.4,Win32,60.24096386,5ffe516acbc37a4ae7eac4a1,68817205a84113384fffdfe3,689d1f41a7da59d7c12263e8,,,,,,,,,,,,./stim/wavs/puertorican_match_interrogative-total-yn_David-leia-el-libro.wav,1,,,177.2118,179.1983,0,0,1.4761,,0,46,46,20,1,21,1,puertorican,,,,,,,,,,,,,,,,,,,,,,,,,,,,,,,,,,,,,,,,,,,,,,,,,,,,,,,,
,,,,,,,,,5ffe516acbc37a4ae7eac4a1,Latin America (Costa Rica),13 or older,"no, only English or Spanish",no,2025-08-13_19h28.12.939,empathy_intonation_perc_control,2024.2.4,Win32,60.24096386,5ffe516acbc37a4ae7eac4a1,68817205a84113384fffdfe3,689d1f41a7da59d7c12263e8,,,,,,,,,,,,./stim/wavs/cuban_mismatch_interrogative-total-yn_Mi-tia-odia-la-lluvia.wav,1,,,179.1992,181.763,1,1,2.0473,,0,47,47,33,1,34,1,cuban,,,,,,,,,,,,,,,,,,,,,,,,,,,,,,,,,,,,,,,,,,,,,,,,,,,,,,,,
,,,,,,,,,5ffe516acbc37a4ae7eac4a1,Latin America (Costa Rica),13 or older,"no, only English or Spanish",no,2025-08-13_19h28.12.939,empathy_intonation_perc_control,2024.2.4,Win32,60.24096386,5ffe516acbc37a4ae7eac4a1,68817205a84113384fffdfe3,689d1f41a7da59d7c12263e8,,,,,,,,,,,,./stim/wavs/mexican_match_interrogative-total-yn_Emilio-ama-la-marcha.wav,1,,,181.7642,184.1265,0,0,1.8315,,0,48,48,15,1,16,0,mexican,,,,,,,,,,,,,,,,,,,,,,,,,,,,,,,,,,,,,,,,,,,,,,,,,,,,,,,,
,,,,,,,,,5ffe516acbc37a4ae7eac4a1,Latin America (Costa Rica),13 or older,"no, only English or Spanish",no,2025-08-13_19h28.12.939,empathy_intonation_perc_control,2024.2.4,Win32,60.24096386,5ffe516acbc37a4ae7eac4a1,68817205a84113384fffdfe3,689d1f41a7da59d7c12263e8,,,,,,,,,,,,./stim/wavs/mexican_mismatch_interrogative-total-yn_La-maestra-vive-en-Paris.wav,1,,,184.1279,186.5563,0,0,1.8974,,0,49,49,36,1,37,0,mexican,,,,,,,,,,,,,,,,,,,,,,,,,,,,,,,,,,,,,,,,,,,,,,,,,,,,,,,,
,,,,,,,,,5ffe516acbc37a4ae7eac4a1,Latin America (Costa Rica),13 or older,"no, only English or Spanish",no,2025-08-13_19h28.12.939,empathy_intonation_perc_control,2024.2.4,Win32,60.24096386,5ffe516acbc37a4ae7eac4a1,68817205a84113384fffdfe3,689d1f41a7da59d7c12263e8,,,,,,,,,,,,./stim/wavs/mexican_match_declarative-broad-focus_Emilio-ama-la-marcha.wav,0,,,186.5576,188.8897,1,0,1.8144,,0,50,50,59,1,60,0,mexican,,,,,,,,,,,,,,,,,,,,,,,,,,,,,,,,,,,,,,,,,,,,,,,,,,,,,,,,
,,,,,,,,,5ffe516acbc37a4ae7eac4a1,Latin America (Costa Rica),13 or older,"no, only English or Spanish",no,2025-08-13_19h28.12.939,empathy_intonation_perc_control,2024.2.4,Win32,60.24096386,5ffe516acbc37a4ae7eac4a1,68817205a84113384fffdfe3,689d1f41a7da59d7c12263e8,,,,,,,,,,,,./stim/wavs/cuban_match_interrogative-total-yn_Marta-abre-el-regalo.wav,1,,,188.8907,190.9988,1,1,1.5741,,0,51,51,11,1,12,1,cuban,,,,,,,,,,,,,,,,,,,,,,,,,,,,,,,,,,,,,,,,,,,,,,,,,,,,,,,,
,,,,,,,,,5ffe516acbc37a4ae7eac4a1,Latin America (Costa Rica),13 or older,"no, only English or Spanish",no,2025-08-13_19h28.12.939,empathy_intonation_perc_control,2024.2.4,Win32,60.24096386,5ffe516acbc37a4ae7eac4a1,68817205a84113384fffdfe3,689d1f41a7da59d7c12263e8,,,,,,,,,,,,./stim/wavs/castilian_match_interrogative-total-yn_Marta-abre-el-regalo.wav,1,,,190.9998,193.3838,0,0,1.876,,0,52,52,5,1,6,0,castilian,,,,,,,,,,,,,,,,,,,,,,,,,,,,,,,,,,,,,,,,,,,,,,,,,,,,,,,,
,,,,,,,,,5ffe516acbc37a4ae7eac4a1,Latin America (Costa Rica),13 or older,"no, only English or Spanish",no,2025-08-13_19h28.12.939,empathy_intonation_perc_control,2024.2.4,Win32,60.24096386,5ffe516acbc37a4ae7eac4a1,68817205a84113384fffdfe3,689d1f41a7da59d7c12263e8,,,,,,,,,,,,./stim/wavs/cuban_match_interrogative-total-yn_Daniel-iba-a-Bolivia.wav,1,,,193.3846,195.7492,0,0,1.8428,,0,53,53,7,1,8,1,cuban,,,,,,,,,,,,,,,,,,,,,,,,,,,,,,,,,,,,,,,,,,,,,,,,,,,,,,,,
,,,,,,,,,5ffe516acbc37a4ae7eac4a1,Latin America (Costa Rica),13 or older,"no, only English or Spanish",no,2025-08-13_19h28.12.939,empathy_intonation_perc_control,2024.2.4,Win32,60.24096386,5ffe516acbc37a4ae7eac4a1,68817205a84113384fffdfe3,689d1f41a7da59d7c12263e8,,,,,,,,,,,,./stim/wavs/mexican_match_declarative-broad-focus_Ana-lleva-el-abrigo.wav,0,,,195.7501,197.8411,1,0,1.5586,,0,54,54,56,1,57,0,mexican,,,,,,,,,,,,,,,,,,,,,,,,,,,,,,,,,,,,,,,,,,,,,,,,,,,,,,,,
,,,,,,,,,5ffe516acbc37a4ae7eac4a1,Latin America (Costa Rica),13 or older,"no, only English or Spanish",no,2025-08-13_19h28.12.939,empathy_intonation_perc_control,2024.2.4,Win32,60.24096386,5ffe516acbc37a4ae7eac4a1,68817205a84113384fffdfe3,689d1f41a7da59d7c12263e8,,,,,,,,,,,,./stim/wavs/cuban_mismatch_declarative-broad-focus_La-nina-lava-el-plato.wav,0,,,197.8425,200.1407,1,0,1.777,,0,55,55,75,1,76,0,cuban,,,,,,,,,,,,,,,,,,,,,,,,,,,,,,,,,,,,,,,,,,,,,,,,,,,,,,,,
,,,,,,,,,5ffe516acbc37a4ae7eac4a1,Latin America (Costa Rica),13 or older,"no, only English or Spanish",no,2025-08-13_19h28.12.939,empathy_intonation_perc_control,2024.2.4,Win32,60.24096386,5ffe516acbc37a4ae7eac4a1,68817205a84113384fffdfe3,689d1f41a7da59d7c12263e8,,,,,,,,,,,,./stim/wavs/castilian_mismatch_interrogative-total-yn_Mi-novio-viene-del-lago.wav,1,,,200.1413,202.6749,0,0,2.0122,,0,56,56,27,1,28,0,castilian,,,,,,,,,,,,,,,,,,,,,,,,,,,,,,,,,,,,,,,,,,,,,,,,,,,,,,,,
,,,,,,,,,5ffe516acbc37a4ae7eac4a1,Latin America (Costa Rica),13 or older,"no, only English or Spanish",no,2025-08-13_19h28.12.939,empathy_intonation_perc_control,2024.2.4,Win32,60.24096386,5ffe516acbc37a4ae7eac4a1,68817205a84113384fffdfe3,689d1f41a7da59d7c12263e8,,,,,,,,,,,,./stim/wavs/puertorican_match_declarative-broad-focus_Ana-lleva-el-abrigo.wav,0,,,202.6759,204.6527,1,0,1.434,,0,57,57,62,1,63,0,puertorican,,,,,,,,,,,,,,,,,,,,,,,,,,,,,,,,,,,,,,,,,,,,,,,,,,,,,,,,
,,,,,,,,,5ffe516acbc37a4ae7eac4a1,Latin America (Costa Rica),13 or older,"no, only English or Spanish",no,2025-08-13_19h28.12.939,empathy_intonation_perc_control,2024.2.4,Win32,60.24096386,5ffe516acbc37a4ae7eac4a1,68817205a84113384fffdfe3,689d1f41a7da59d7c12263e8,,,,,,,,,,,,./stim/wavs/cuban_match_interrogative-total-yn_Maria-bebe-el-vino.wav,1,,,204.6538,206.9992,1,1,1.8144,,0,58,58,9,1,10,1,cuban,,,,,,,,,,,,,,,,,,,,,,,,,,,,,,,,,,,,,,,,,,,,,,,,,,,,,,,,
,,,,,,,,,5ffe516acbc37a4ae7eac4a1,Latin America (Costa Rica),13 or older,"no, only English or Spanish",no,2025-08-13_19h28.12.939,empathy_intonation_perc_control,2024.2.4,Win32,60.24096386,5ffe516acbc37a4ae7eac4a1,68817205a84113384fffdfe3,689d1f41a7da59d7c12263e8,,,,,,,,,,,,./stim/wavs/mexican_match_interrogative-total-yn_Ana-lleva-el-abrigo.wav,1,,,207.0004,208.9846,0,0,1.4589,,0,59,59,12,1,13,0,mexican,,,,,,,,,,,,,,,,,,,,,,,,,,,,,,,,,,,,,,,,,,,,,,,,,,,,,,,,
,,,,,,,,,5ffe516acbc37a4ae7eac4a1,Latin America (Costa Rica),13 or older,"no, only English or Spanish",no,2025-08-13_19h28.12.939,empathy_intonation_perc_control,2024.2.4,Win32,60.24096386,5ffe516acbc37a4ae7eac4a1,68817205a84113384fffdfe3,689d1f41a7da59d7c12263e8,,,,,,,,,,,,./stim/wavs/puertorican_mismatch_interrogative-total-yn_La-maestra-vive-en-Paris.wav,1,,,208.9854,211.3959,1,1,1.8681,,0,60,60,41,1,42,1,puertorican,,,,,,,,,,,,,,,,,,,,,,,,,,,,,,,,,,,,,,,,,,,,,,,,,,,,,,,,
,,,,,,,,,5ffe516acbc37a4ae7eac4a1,Latin America (Costa Rica),13 or older,"no, only English or Spanish",no,2025-08-13_19h28.12.939,empathy_intonation_perc_control,2024.2.4,Win32,60.24096386,5ffe516acbc37a4ae7eac4a1,68817205a84113384fffdfe3,689d1f41a7da59d7c12263e8,,,,,,,,,,,,./stim/wavs/cuban_mismatch_declarative-broad-focus_Mi-novio-viene-del-lago.wav,0,,,211.3974,213.6491,1,0,1.7445,,0,61,61,76,1,77,0,cuban,,,,,,,,,,,,,,,,,,,,,,,,,,,,,,,,,,,,,,,,,,,,,,,,,,,,,,,,
,,,,,,,,,5ffe516acbc37a4ae7eac4a1,Latin America (Costa Rica),13 or older,"no, only English or Spanish",no,2025-08-13_19h28.12.939,empathy_intonation_perc_control,2024.2.4,Win32,60.24096386,5ffe516acbc37a4ae7eac4a1,68817205a84113384fffdfe3,689d1f41a7da59d7c12263e8,,,,,,,,,,,,./stim/wavs/puertorican_match_interrogative-total-yn_Emilio-ama-la-marcha.wav,1,,,213.65,215.6425,0,0,1.4713,,0,62,62,21,1,22,1,puertorican,,,,,,,,,,,,,,,,,,,,,,,,,,,,,,,,,,,,,,,,,,,,,,,,,,,,,,,,
,,,,,,,,,5ffe516acbc37a4ae7eac4a1,Latin America (Costa Rica),13 or older,"no, only English or Spanish",no,2025-08-13_19h28.12.939,empathy_intonation_perc_control,2024.2.4,Win32,60.24096386,5ffe516acbc37a4ae7eac4a1,68817205a84113384fffdfe3,689d1f41a7da59d7c12263e8,,,,,,,,,,,,./stim/wavs/castilian_match_interrogative-total-yn_Mariano-habla-del-tiempo.wav,1,,,215.6436,218.0565,0,0,1.8668,,0,63,63,4,1,5,0,castilian,,,,,,,,,,,,,,,,,,,,,,,,,,,,,,,,,,,,,,,,,,,,,,,,,,,,,,,,
,,,,,,,,,5ffe516acbc37a4ae7eac4a1,Latin America (Costa Rica),13 or older,"no, only English or Spanish",no,2025-08-13_19h28.12.939,empathy_intonation_perc_control,2024.2.4,Win32,60.24096386,5ffe516acbc37a4ae7eac4a1,68817205a84113384fffdfe3,689d1f41a7da59d7c12263e8,,,,,,,,,,,,./stim/wavs/castilian_mismatch_interrogative-total-yn_La-nina-lava-el-plato.wav,1,,,218.0582,220.1886,0,0,1.6007,,0,64,64,25,1,26,0,castilian,,,,,,,,,,,,,,,,,,,,,,,,,,,,,,,,,,,,,,,,,,,,,,,,,,,,,,,,
,,,,,,,,,5ffe516acbc37a4ae7eac4a1,Latin America (Costa Rica),13 or older,"no, only English or Spanish",no,2025-08-13_19h28.12.939,empathy_intonation_perc_control,2024.2.4,Win32,60.24096386,5ffe516acbc37a4ae7eac4a1,68817205a84113384fffdfe3,689d1f41a7da59d7c12263e8,,,,,,,,,,,,./stim/wavs/cuban_match_declarative-broad-focus_Maria-bebe-el-vino.wav,0,,,220.1895,222.2027,1,0,1.4976,,0,65,65,53,1,54,0,cuban,,,,,,,,,,,,,,,,,,,,,,,,,,,,,,,,,,,,,,,,,,,,,,,,,,,,,,,,
,,,,,,,,,5ffe516acbc37a4ae7eac4a1,Latin America (Costa Rica),13 or older,"no, only English or Spanish",no,2025-08-13_19h28.12.939,empathy_intonation_perc_control,2024.2.4,Win32,60.24096386,5ffe516acbc37a4ae7eac4a1,68817205a84113384fffdfe3,689d1f41a7da59d7c12263e8,,,,,,,,,,,,./stim/wavs/cuban_mismatch_declarative-broad-focus_Mi-tia-odia-la-lluvia.wav,0,,,222.2038,224.3683,1,0,1.6371,,0,66,66,77,1,78,0,cuban,,,,,,,,,,,,,,,,,,,,,,,,,,,,,,,,,,,,,,,,,,,,,,,,,,,,,,,,
,,,,,,,,,5ffe516acbc37a4ae7eac4a1,Latin America (Costa Rica),13 or older,"no, only English or Spanish",no,2025-08-13_19h28.12.939,empathy_intonation_perc_control,2024.2.4,Win32,60.24096386,5ffe516acbc37a4ae7eac4a1,68817205a84113384fffdfe3,689d1f41a7da59d7c12263e8,,,,,,,,,,,,./stim/wavs/cuban_mismatch_interrogative-total-yn_Mi-novio-viene-del-lago.wav,1,,,224.3695,226.5202,0,0,1.6344,,0,67,67,32,1,33,1,cuban,,,,,,,,,,,,,,,,,,,,,,,,,,,,,,,,,,,,,,,,,,,,,,,,,,,,,,,,
,,,,,,,,,5ffe516acbc37a4ae7eac4a1,Latin America (Costa Rica),13 or older,"no, only English or Spanish",no,2025-08-13_19h28.12.939,empathy_intonation_perc_control,2024.2.4,Win32,60.24096386,5ffe516acbc37a4ae7eac4a1,68817205a84113384fffdfe3,689d1f41a7da59d7c12263e8,,,,,,,,,,,,./stim/wavs/castilian_match_interrogative-total-yn_David-leia-el-libro.wav,1,,,226.5213,228.7303,0,0,1.6845,,0,68,68,0,1,1,0,castilian,,,,,,,,,,,,,,,,,,,,,,,,,,,,,,,,,,,,,,,,,,,,,,,,,,,,,,,,
,,,,,,,,,5ffe516acbc37a4ae7eac4a1,Latin America (Costa Rica),13 or older,"no, only English or Spanish",no,2025-08-13_19h28.12.939,empathy_intonation_perc_control,2024.2.4,Win32,60.24096386,5ffe516acbc37a4ae7eac4a1,68817205a84113384fffdfe3,689d1f41a7da59d7c12263e8,,,,,,,,,,,,./stim/wavs/castilian_match_declarative-broad-focus_Manuela-vende-el-carro.wav,0,,,228.7313,230.9996,0,1,1.7487,,0,69,69,46,1,47,0,castilian,,,,,,,,,,,,,,,,,,,,,,,,,,,,,,,,,,,,,,,,,,,,,,,,,,,,,,,,
,,,,,,,,,5ffe516acbc37a4ae7eac4a1,Latin America (Costa Rica),13 or older,"no, only English or Spanish",no,2025-08-13_19h28.12.939,empathy_intonation_perc_control,2024.2.4,Win32,60.24096386,5ffe516acbc37a4ae7eac4a1,68817205a84113384fffdfe3,689d1f41a7da59d7c12263e8,,,,,,,,,,,,./stim/wavs/cuban_match_declarative-broad-focus_Manuela-vende-el-carro.wav,0,,,231.0005,233.2803,1,0,1.765,,0,70,70,52,1,53,0,cuban,,,,,,,,,,,,,,,,,,,,,,,,,,,,,,,,,,,,,,,,,,,,,,,,,,,,,,,,
,,,,,,,,,5ffe516acbc37a4ae7eac4a1,Latin America (Costa Rica),13 or older,"no, only English or Spanish",no,2025-08-13_19h28.12.939,empathy_intonation_perc_control,2024.2.4,Win32,60.24096386,5ffe516acbc37a4ae7eac4a1,68817205a84113384fffdfe3,689d1f41a7da59d7c12263e8,,,,,,,,,,,,./stim/wavs/mexican_match_declarative-broad-focus_David-leia-el-libro.wav,0,,,233.2814,235.7569,1,0,1.9466,,0,71,71,58,1,59,0,mexican,,,,,,,,,,,,,,,,,,,,,,,,,,,,,,,,,,,,,,,,,,,,,,,,,,,,,,,,
,,,,,,,,,5ffe516acbc37a4ae7eac4a1,Latin America (Costa Rica),13 or older,"no, only English or Spanish",no,2025-08-13_19h28.12.939,empathy_intonation_perc_control,2024.2.4,Win32,60.24096386,5ffe516acbc37a4ae7eac4a1,68817205a84113384fffdfe3,689d1f41a7da59d7c12263e8,,,,,,,,,,,,./stim/wavs/puertorican_match_interrogative-total-yn_Manuela-vende-el-carro.wav,1,,,235.7582,237.8544,0,0,1.5708,,0,72,72,22,1,23,1,puertorican,,,,,,,,,,,,,,,,,,,,,,,,,,,,,,,,,,,,,,,,,,,,,,,,,,,,,,,,
,,,,,,,,,5ffe516acbc37a4ae7eac4a1,Latin America (Costa Rica),13 or older,"no, only English or Spanish",no,2025-08-13_19h28.12.939,empathy_intonation_perc_control,2024.2.4,Win32,60.24096386,5ffe516acbc37a4ae7eac4a1,68817205a84113384fffdfe3,689d1f41a7da59d7c12263e8,,,,,,,,,,,,./stim/wavs/puertorican_mismatch_declarative-broad-focus_El-nino-oye-el-rio.wav,0,,,237.8554,239.8864,1,0,1.5024,,0,73,73,85,1,86,0,puertorican,,,,,,,,,,,,,,,,,,,,,,,,,,,,,,,,,,,,,,,,,,,,,,,,,,,,,,,,
,,,,,,,,,5ffe516acbc37a4ae7eac4a1,Latin America (Costa Rica),13 or older,"no, only English or Spanish",no,2025-08-13_19h28.12.939,empathy_intonation_perc_control,2024.2.4,Win32,60.24096386,5ffe516acbc37a4ae7eac4a1,68817205a84113384fffdfe3,689d1f41a7da59d7c12263e8,,,,,,,,,,,,./stim/wavs/castilian_match_declarative-broad-focus_Marta-abre-el-regalo.wav,0,,,239.8879,242.2005,1,0,1.7832,,0,74,74,49,1,50,0,castilian,,,,,,,,,,,,,,,,,,,,,,,,,,,,,,,,,,,,,,,,,,,,,,,,,,,,,,,,
,,,,,,,,,5ffe516acbc37a4ae7eac4a1,Latin America (Costa Rica),13 or older,"no, only English or Spanish",no,2025-08-13_19h28.12.939,empathy_intonation_perc_control,2024.2.4,Win32,60.24096386,5ffe516acbc37a4ae7eac4a1,68817205a84113384fffdfe3,689d1f41a7da59d7c12263e8,,,,,,,,,,,,./stim/wavs/castilian_match_declarative-broad-focus_Mariano-habla-del-tiempo.wav,0,,,242.2019,244.6027,1,0,1.8797,,0,75,75,48,1,49,0,castilian,,,,,,,,,,,,,,,,,,,,,,,,,,,,,,,,,,,,,,,,,,,,,,,,,,,,,,,,
,,,,,,,,,5ffe516acbc37a4ae7eac4a1,Latin America (Costa Rica),13 or older,"no, only English or Spanish",no,2025-08-13_19h28.12.939,empathy_intonation_perc_control,2024.2.4,Win32,60.24096386,5ffe516acbc37a4ae7eac4a1,68817205a84113384fffdfe3,689d1f41a7da59d7c12263e8,,,,,,,,,,,,./stim/wavs/castilian_mismatch_declarative-broad-focus_La-nina-lava-el-plato.wav,0,,,244.6035,246.8798,1,0,1.7455,,0,76,76,70,1,71,0,castilian,,,,,,,,,,,,,,,,,,,,,,,,,,,,,,,,,,,,,,,,,,,,,,,,,,,,,,,,
,,,,,,,,,5ffe516acbc37a4ae7eac4a1,Latin America (Costa Rica),13 or older,"no, only English or Spanish",no,2025-08-13_19h28.12.939,empathy_intonation_perc_control,2024.2.4,Win32,60.24096386,5ffe516acbc37a4ae7eac4a1,68817205a84113384fffdfe3,689d1f41a7da59d7c12263e8,,,,,,,,,,,,./stim/wavs/cuban_mismatch_declarative-broad-focus_El-bebe-comia-muy-bien.wav,0,,,246.8809,249.2822,1,0,1.8661,,0,77,77,73,1,74,0,cuban,,,,,,,,,,,,,,,,,,,,,,,,,,,,,,,,,,,,,,,,,,,,,,,,,,,,,,,,
,,,,,,,,,5ffe516acbc37a4ae7eac4a1,Latin America (Costa Rica),13 or older,"no, only English or Spanish",no,2025-08-13_19h28.12.939,empathy_intonation_perc_control,2024.2.4,Win32,60.24096386,5ffe516acbc37a4ae7eac4a1,68817205a84113384fffdfe3,689d1f41a7da59d7c12263e8,,,,,,,,,,,,./stim/wavs/castilian_mismatch_declarative-broad-focus_La-maestra-vive-en-Paris.wav,0,,,249.2833,251.7451,1,0,1.9416,,0,78,78,69,1,70,0,castilian,,,,,,,,,,,,,,,,,,,,,,,,,,,,,,,,,,,,,,,,,,,,,,,,,,,,,,,,
,,,,,,,,,5ffe516acbc37a4ae7eac4a1,Latin America (Costa Rica),13 or older,"no, only English or Spanish",no,2025-08-13_19h28.12.939,empathy_intonation_perc_control,2024.2.4,Win32,60.24096386,5ffe516acbc37a4ae7eac4a1,68817205a84113384fffdfe3,689d1f41a7da59d7c12263e8,,,,,,,,,,,,./stim/wavs/cuban_match_interrogative-total-yn_Mariano-habla-del-tiempo.wav,1,,,251.7456,253.979,1,1,1.7266,,0,79,79,10,1,11,1,cuban,,,,,,,,,,,,,,,,,,,,,,,,,,,,,,,,,,,,,,,,,,,,,,,,,,,,,,,,
,,,,,,,,,5ffe516acbc37a4ae7eac4a1,Latin America (Costa Rica),13 or older,"no, only English or Spanish",no,2025-08-13_19h28.12.939,empathy_intonation_perc_control,2024.2.4,Win32,60.24096386,5ffe516acbc37a4ae7eac4a1,68817205a84113384fffdfe3,689d1f41a7da59d7c12263e8,,,,,,,,,,,,./stim/wavs/puertorican_mismatch_interrogative-total-yn_El-hombre-mira-la-luna.wav,1,,,253.9799,256.2372,0,0,1.7241,,0,80,80,39,1,40,1,puertorican,,,,,,,,,,,,,,,,,,,,,,,,,,,,,,,,,,,,,,,,,,,,,,,,,,,,,,,,
,,,,,,,,,5ffe516acbc37a4ae7eac4a1,Latin America (Costa Rica),13 or older,"no, only English or Spanish",no,2025-08-13_19h28.12.939,empathy_intonation_perc_control,2024.2.4,Win32,60.24096386,5ffe516acbc37a4ae7eac4a1,68817205a84113384fffdfe3,689d1f41a7da59d7c12263e8,,,,,,,,,,,,./stim/wavs/cuban_match_declarative-broad-focus_Mariano-habla-del-tiempo.wav,0,,,256.2395,258.5085,1,0,1.7453,,0,81,81,54,1,55,0,cuban,,,,,,,,,,,,,,,,,,,,,,,,,,,,,,,,,,,,,,,,,,,,,,,,,,,,,,,,
,,,,,,,,,5ffe516acbc37a4ae7eac4a1,Latin America (Costa Rica),13 or older,"no, only English or Spanish",no,2025-08-13_19h28.12.939,empathy_intonation_perc_control,2024.2.4,Win32,60.24096386,5ffe516acbc37a4ae7eac4a1,68817205a84113384fffdfe3,689d1f41a7da59d7c12263e8,,,,,,,,,,,,./stim/wavs/castilian_match_declarative-broad-focus_Maria-bebe-el-vino.wav,0,,,258.5094,260.7551,1,0,1.7287,,0,82,82,47,1,48,0,castilian,,,,,,,,,,,,,,,,,,,,,,,,,,,,,,,,,,,,,,,,,,,,,,,,,,,,,,,,
,,,,,,,,,5ffe516acbc37a4ae7eac4a1,Latin America (Costa Rica),13 or older,"no, only English or Spanish",no,2025-08-13_19h28.12.939,empathy_intonation_perc_control,2024.2.4,Win32,60.24096386,5ffe516acbc37a4ae7eac4a1,68817205a84113384fffdfe3,689d1f41a7da59d7c12263e8,,,,,,,,,,,,./stim/wavs/castilian_match_interrogative-total-yn_Emilio-ama-la-marcha.wav,1,,,260.7562,263.065,0,0,1.7728,,0,83,83,1,1,2,0,castilian,,,,,,,,,,,,,,,,,,,,,,,,,,,,,,,,,,,,,,,,,,,,,,,,,,,,,,,,
,,,,,,,,,5ffe516acbc37a4ae7eac4a1,Latin America (Costa Rica),13 or older,"no, only English or Spanish",no,2025-08-13_19h28.12.939,empathy_intonation_perc_control,2024.2.4,Win32,60.24096386,5ffe516acbc37a4ae7eac4a1,68817205a84113384fffdfe3,689d1f41a7da59d7c12263e8,,,,,,,,,,,,./stim/wavs/puertorican_match_declarative-broad-focus_Maria-bebe-el-vino.wav,0,,,263.066,265.2123,0,1,1.6073,,0,84,84,67,1,68,0,puertorican,,,,,,,,,,,,,,,,,,,,,,,,,,,,,,,,,,,,,,,,,,,,,,,,,,,,,,,,
,,,,,,,,,5ffe516acbc37a4ae7eac4a1,Latin America (Costa Rica),13 or older,"no, only English or Spanish",no,2025-08-13_19h28.12.939,empathy_intonation_perc_control,2024.2.4,Win32,60.24096386,5ffe516acbc37a4ae7eac4a1,68817205a84113384fffdfe3,689d1f41a7da59d7c12263e8,,,,,,,,,,,,./stim/wavs/mexican_mismatch_interrogative-total-yn_El-nino-oye-el-rio.wav,1,,,265.2138,267.2495,0,0,1.514,,0,85,85,35,1,36,0,mexican,,,,,,,,,,,,,,,,,,,,,,,,,,,,,,,,,,,,,,,,,,,,,,,,,,,,,,,,
,,,,,,,,,5ffe516acbc37a4ae7eac4a1,Latin America (Costa Rica),13 or older,"no, only English or Spanish",no,2025-08-13_19h28.12.939,empathy_intonation_perc_control,2024.2.4,Win32,60.24096386,5ffe516acbc37a4ae7eac4a1,68817205a84113384fffdfe3,689d1f41a7da59d7c12263e8,,,,,,,,,,,,./stim/wavs/cuban_match_interrogative-total-yn_Ana-lleva-el-abrigo.wav,1,,,267.2505,269.4252,0,0,1.6404,,0,86,86,6,1,7,1,cuban,,,,,,,,,,,,,,,,,,,,,,,,,,,,,,,,,,,,,,,,,,,,,,,,,,,,,,,,
,,,,,,,,,5ffe516acbc37a4ae7eac4a1,Latin America (Costa Rica),13 or older,"no, only English or Spanish",no,2025-08-13_19h28.12.939,empathy_intonation_perc_control,2024.2.4,Win32,60.24096386,5ffe516acbc37a4ae7eac4a1,68817205a84113384fffdfe3,689d1f41a7da59d7c12263e8,,,,,,,,,,,,./stim/wavs/castilian_mismatch_interrogative-total-yn_La-maestra-vive-en-Paris.wav,1,,,269.4267,272.0894,0,0,2.1223,,0,87,87,24,1,25,0,castilian,,,,,,,,,,,,,,,,,,,,,,,,,,,,,,,,,,,,,,,,,,,,,,,,,,,,,,,,
,,,,,,,"Great! Now we will move on. The next task consists of about 60 trials, in each of which you will see a string of letters. 
  
  Your task is to decide whether this is a real Spanish word or not.", (press the spacebar to continue),5ffe516acbc37a4ae7eac4a1,Latin America (Costa Rica),13 or older,"no, only English or Spanish",no,2025-08-13_19h28.12.939,empathy_intonation_perc_control,2024.2.4,Win32,60.24096386,5ffe516acbc37a4ae7eac4a1,68817205a84113384fffdfe3,689d1f41a7da59d7c12263e8,,,,,,,,,,,,,,,,,,,,,,,,,,,,,,272.101,280.0002,0,0,0,0,1,,,,,,,,,,,,,,,,,,,,,,,,,,,,,,,,,,,,,,,,,,,,,,,,,
,,,,,,,"If you think it is an existing Spanish word, you type '1' (for 'REAL'), and if you think it is not an existing Spanish word, you type '0' (for 'FAKE').", (press the spacebar to continue),5ffe516acbc37a4ae7eac4a1,Latin America (Costa Rica),13 or older,"no, only English or Spanish",no,2025-08-13_19h28.12.939,empathy_intonation_perc_control,2024.2.4,Win32,60.24096386,5ffe516acbc37a4ae7eac4a1,68817205a84113384fffdfe3,689d1f41a7da59d7c12263e8,,,,,,,,,,,,,,,,,,,,,,,,,,,,,,280.0032,285.9774,0,1,1,1,1,,,,,,,,,,,,,,,,,,,,,,,,,,,,,,,,,,,,,,,,,,,,,,,,,
,,,,,,,"If you are sure that the word exists, even though you don’t know its exact meaning, you may still respond '1' (REAL). 
  
  But if you are not sure if it is an existing word, you should respond '0' (FAKE).
  
  Let's do a practice round...", (press the spacebar to continue),5ffe516acbc37a4ae7eac4a1,Latin America (Costa Rica),13 or older,"no, only English or Spanish",no,2025-08-13_19h28.12.939,empathy_intonation_perc_control,2024.2.4,Win32,60.24096386,5ffe516acbc37a4ae7eac4a1,68817205a84113384fffdfe3,689d1f41a7da59d7c12263e8,,,,,,,,,,,,,,,,,,,,,,,,,,,,,,285.9816,298.697,0,2,2,2,1,,,,,,,,,,,,,,,,,,,,,,,,,,,,,,,,,,,,,,,,,,,,,,,,,
,,,,,,,,,5ffe516acbc37a4ae7eac4a1,Latin America (Costa Rica),13 or older,"no, only English or Spanish",no,2025-08-13_19h28.12.939,empathy_intonation_perc_control,2024.2.4,Win32,60.24096386,5ffe516acbc37a4ae7eac4a1,68817205a84113384fffdfe3,689d1f41a7da59d7c12263e8,,,,,,,,,,,,,0,,,,,,,,,,,,,,,,,,,,,,,,298.7051,303.2105,0,1,3.9797,,303.2109,304.2095,0,0,0,0,1,0,depiste,REAL,FAKE,,,,,,,,,,,,,,,,,,,,,,,,,,,,,,,,
,,,,,,,,,5ffe516acbc37a4ae7eac4a1,Latin America (Costa Rica),13 or older,"no, only English or Spanish",no,2025-08-13_19h28.12.939,empathy_intonation_perc_control,2024.2.4,Win32,60.24096386,5ffe516acbc37a4ae7eac4a1,68817205a84113384fffdfe3,689d1f41a7da59d7c12263e8,,,,,,,,,,,,,1,,,,,,,,,,,,,,,,,,,,,,,,304.2148,305.7413,1,1,0.9985,,305.7415,306.7401,0,1,1,1,1,0,sí,REAL,FAKE,,,,,,,,,,,,,,,,,,,,,,,,,,,,,,,,
,,,,,,,,,5ffe516acbc37a4ae7eac4a1,Latin America (Costa Rica),13 or older,"no, only English or Spanish",no,2025-08-13_19h28.12.939,empathy_intonation_perc_control,2024.2.4,Win32,60.24096386,5ffe516acbc37a4ae7eac4a1,68817205a84113384fffdfe3,689d1f41a7da59d7c12263e8,,,,,,,,,,,,,0,,,,,,,,,,,,,,,,,,,,,,,,306.7428,308.5056,0,1,1.2296,,308.5056,309.5043,0,2,2,2,1,0,coné,REAL,FAKE,,,,,,,,,,,,,,,,,,,,,,,,,,,,,,,,
,,,,,,,,,5ffe516acbc37a4ae7eac4a1,Latin America (Costa Rica),13 or older,"no, only English or Spanish",no,2025-08-13_19h28.12.939,empathy_intonation_perc_control,2024.2.4,Win32,60.24096386,5ffe516acbc37a4ae7eac4a1,68817205a84113384fffdfe3,689d1f41a7da59d7c12263e8,,,,,,,,,,,,,0,,,,,,,,,,,,,,,,,,,,,,,,309.5066,311.1863,1,0,1.1466,,311.1888,312.1854,0,3,3,3,1,0,calpar,REAL,FAKE,,,,,,,,,,,,,,,,,,,,,,,,,,,,,,,,
,,,,,,,,,5ffe516acbc37a4ae7eac4a1,Latin America (Costa Rica),13 or older,"no, only English or Spanish",no,2025-08-13_19h28.12.939,empathy_intonation_perc_control,2024.2.4,Win32,60.24096386,5ffe516acbc37a4ae7eac4a1,68817205a84113384fffdfe3,689d1f41a7da59d7c12263e8,,,,,,,,,,,,,0,,,,,,,,,,,,,,,,,,,,,,,,312.1883,313.633,0,1,0.9205,,313.6339,314.6335,0,4,4,4,1,0,joten,REAL,FAKE,,,,,,,,,,,,,,,,,,,,,,,,,,,,,,,,
,,,,,,,,,5ffe516acbc37a4ae7eac4a1,Latin America (Costa Rica),13 or older,"no, only English or Spanish",no,2025-08-13_19h28.12.939,empathy_intonation_perc_control,2024.2.4,Win32,60.24096386,5ffe516acbc37a4ae7eac4a1,68817205a84113384fffdfe3,689d1f41a7da59d7c12263e8,,,,,,,,,,,,,1,,,,,,,,,,,,,,,,,,,,,,,,314.6354,316.6647,0,0,1.5049,,316.6662,317.6635,0,5,5,5,1,0,sacapuntas,REAL,FAKE,,,,,,,,,,,,,,,,,,,,,,,,,,,,,,,,
,,,,,,,,,5ffe516acbc37a4ae7eac4a1,Latin America (Costa Rica),13 or older,"no, only English or Spanish",no,2025-08-13_19h28.12.939,empathy_intonation_perc_control,2024.2.4,Win32,60.24096386,5ffe516acbc37a4ae7eac4a1,68817205a84113384fffdfe3,689d1f41a7da59d7c12263e8,,,,,,,,,,,,,0,,,,,,,,,,,,,,,,,,,,,,,,317.6657,319.8281,0,1,1.6281,,319.8293,320.8278,0,6,6,6,1,0,priba,REAL,FAKE,,,,,,,,,,,,,,,,,,,,,,,,,,,,,,,,
,,,,,,,,,5ffe516acbc37a4ae7eac4a1,Latin America (Costa Rica),13 or older,"no, only English or Spanish",no,2025-08-13_19h28.12.939,empathy_intonation_perc_control,2024.2.4,Win32,60.24096386,5ffe516acbc37a4ae7eac4a1,68817205a84113384fffdfe3,689d1f41a7da59d7c12263e8,,,,,,,,,,,,,0,,,,,,,,,,,,,,,,,,,,,,,,320.83,322.5421,0,1,1.1816,,322.5423,323.5414,0,7,7,7,1,0,pelasula,REAL,FAKE,,,,,,,,,,,,,,,,,,,,,,,,,,,,,,,,
,,,,,,,,,5ffe516acbc37a4ae7eac4a1,Latin America (Costa Rica),13 or older,"no, only English or Spanish",no,2025-08-13_19h28.12.939,empathy_intonation_perc_control,2024.2.4,Win32,60.24096386,5ffe516acbc37a4ae7eac4a1,68817205a84113384fffdfe3,689d1f41a7da59d7c12263e8,,,,,,,,,,,,,1,,,,,,,,,,,,,,,,,,,,,,,,323.5434,324.8568,1,1,0.7795,,324.8571,325.8559,0,8,8,8,1,0,bien,REAL,FAKE,,,,,,,,,,,,,,,,,,,,,,,,,,,,,,,,
,,,,,,,,,5ffe516acbc37a4ae7eac4a1,Latin America (Costa Rica),13 or older,"no, only English or Spanish",no,2025-08-13_19h28.12.939,empathy_intonation_perc_control,2024.2.4,Win32,60.24096386,5ffe516acbc37a4ae7eac4a1,68817205a84113384fffdfe3,689d1f41a7da59d7c12263e8,,,,,,,,,,,,,1,,,,,,,,,,,,,,,,,,,,,,,,325.858,326.9728,1,1,0.5904,,326.9729,327.9709,0,9,9,9,1,0,casa,REAL,FAKE,,,,,,,,,,,,,,,,,,,,,,,,,,,,,,,,
,,,,,,,,,5ffe516acbc37a4ae7eac4a1,Latin America (Costa Rica),13 or older,"no, only English or Spanish",no,2025-08-13_19h28.12.939,empathy_intonation_perc_control,2024.2.4,Win32,60.24096386,5ffe516acbc37a4ae7eac4a1,68817205a84113384fffdfe3,689d1f41a7da59d7c12263e8,,,,,,,,,,,,,0,,,,,,,,,,,,,,,,,,,,,,,,327.973,329.6355,1,0,1.1275,,329.6371,330.6346,0,10,10,10,1,0,lejo,REAL,FAKE,,,,,,,,,,,,,,,,,,,,,,,,,,,,,,,,
,,,,,,,,,5ffe516acbc37a4ae7eac4a1,Latin America (Costa Rica),13 or older,"no, only English or Spanish",no,2025-08-13_19h28.12.939,empathy_intonation_perc_control,2024.2.4,Win32,60.24096386,5ffe516acbc37a4ae7eac4a1,68817205a84113384fffdfe3,689d1f41a7da59d7c12263e8,,,,,,,,,,,,,0,,,,,,,,,,,,,,,,,,,,,,,,330.6367,332.1497,0,1,0.9806,,332.151,333.1493,0,11,11,11,1,0,pretantas,REAL,FAKE,,,,,,,,,,,,,,,,,,,,,,,,,,,,,,,,
,,,,,,,,,5ffe516acbc37a4ae7eac4a1,Latin America (Costa Rica),13 or older,"no, only English or Spanish",no,2025-08-13_19h28.12.939,empathy_intonation_perc_control,2024.2.4,Win32,60.24096386,5ffe516acbc37a4ae7eac4a1,68817205a84113384fffdfe3,689d1f41a7da59d7c12263e8,,,,,,,,,,,,,,,,,,,,,,,,,,,,,,,,,,,,,,,,,,,,,,,,,,,,,,333.1499,335.1812,,,,,,,,,,,,,,,,,,,,,,,,,,,,,,
,,,,,,,,,5ffe516acbc37a4ae7eac4a1,Latin America (Costa Rica),13 or older,"no, only English or Spanish",no,2025-08-13_19h28.12.939,empathy_intonation_perc_control,2024.2.4,Win32,60.24096386,5ffe516acbc37a4ae7eac4a1,68817205a84113384fffdfe3,689d1f41a7da59d7c12263e8,,,,,,,,,,,,,0,,,,,,,,,,,,,,,,,,,,,,,,,,,,,,,,,,,,,47,cartinar,,,,,335.193,336.8289,0,1,1.1204,,0,0,0,46,1,REAL,FAKE,,,,,,,,,,,,,,,,,
,,,,,,,,,5ffe516acbc37a4ae7eac4a1,Latin America (Costa Rica),13 or older,"no, only English or Spanish",no,2025-08-13_19h28.12.939,empathy_intonation_perc_control,2024.2.4,Win32,60.24096386,5ffe516acbc37a4ae7eac4a1,68817205a84113384fffdfe3,689d1f41a7da59d7c12263e8,,,,,,,,,,,,,0,,,,,,,,,,,,,,,,,,,,,,,,,,,,,,,,,,,,,87,grodo,,,,,336.8314,338.8945,0,1,1.5389,,0,1,1,86,1,REAL,FAKE,,,,,,,,,,,,,,,,,
,,,,,,,,,5ffe516acbc37a4ae7eac4a1,Latin America (Costa Rica),13 or older,"no, only English or Spanish",no,2025-08-13_19h28.12.939,empathy_intonation_perc_control,2024.2.4,Win32,60.24096386,5ffe516acbc37a4ae7eac4a1,68817205a84113384fffdfe3,689d1f41a7da59d7c12263e8,,,,,,,,,,,,,0,,,,,,,,,,,,,,,,,,,,,,,,,,,,,,,,,,,,,66,hacido,,,,,338.8964,340.9252,1,0,1.4956,,0,2,2,65,1,REAL,FAKE,,,,,,,,,,,,,,,,,
,,,,,,,,,5ffe516acbc37a4ae7eac4a1,Latin America (Costa Rica),13 or older,"no, only English or Spanish",no,2025-08-13_19h28.12.939,empathy_intonation_perc_control,2024.2.4,Win32,60.24096386,5ffe516acbc37a4ae7eac4a1,68817205a84113384fffdfe3,689d1f41a7da59d7c12263e8,,,,,,,,,,,,,0,,,,,,,,,,,,,,,,,,,,,,,,,,,,,,,,,,,,,23,lampera,,,,,340.9279,343.1565,1,0,1.6954,,0,3,3,22,1,REAL,FAKE,,,,,,,,,,,,,,,,,
,,,,,,,,,5ffe516acbc37a4ae7eac4a1,Latin America (Costa Rica),13 or older,"no, only English or Spanish",no,2025-08-13_19h28.12.939,empathy_intonation_perc_control,2024.2.4,Win32,60.24096386,5ffe516acbc37a4ae7eac4a1,68817205a84113384fffdfe3,689d1f41a7da59d7c12263e8,,,,,,,,,,,,,1,,,,,,,,,,,,,,,,,,,,,,,,,,,,,,,,,,,,,11,cenefa,,,,,343.1588,344.5222,0,0,0.829,,0,4,4,10,1,REAL,FAKE,,,,,,,,,,,,,,,,,
,,,,,,,,,5ffe516acbc37a4ae7eac4a1,Latin America (Costa Rica),13 or older,"no, only English or Spanish",no,2025-08-13_19h28.12.939,empathy_intonation_perc_control,2024.2.4,Win32,60.24096386,5ffe516acbc37a4ae7eac4a1,68817205a84113384fffdfe3,689d1f41a7da59d7c12263e8,,,,,,,,,,,,,1,,,,,,,,,,,,,,,,,,,,,,,,,,,,,,,,,,,,,56,musgo,,,,,344.524,345.8538,0,0,0.7964,,0,5,5,55,1,REAL,FAKE,,,,,,,,,,,,,,,,,
,,,,,,,,,5ffe516acbc37a4ae7eac4a1,Latin America (Costa Rica),13 or older,"no, only English or Spanish",no,2025-08-13_19h28.12.939,empathy_intonation_perc_control,2024.2.4,Win32,60.24096386,5ffe516acbc37a4ae7eac4a1,68817205a84113384fffdfe3,689d1f41a7da59d7c12263e8,,,,,,,,,,,,,1,,,,,,,,,,,,,,,,,,,,,,,,,,,,,,,,,,,,,54,fomentar,,,,,345.8558,347.6846,1,1,1.3047,,0,6,6,53,1,REAL,FAKE,,,,,,,,,,,,,,,,,
,,,,,,,,,5ffe516acbc37a4ae7eac4a1,Latin America (Costa Rica),13 or older,"no, only English or Spanish",no,2025-08-13_19h28.12.939,empathy_intonation_perc_control,2024.2.4,Win32,60.24096386,5ffe516acbc37a4ae7eac4a1,68817205a84113384fffdfe3,689d1f41a7da59d7c12263e8,,,,,,,,,,,,,0,,,,,,,,,,,,,,,,,,,,,,,,,,,,,,,,,,,,,53,vegada,,,,,347.6866,349.2174,0,1,0.9937,,0,7,7,52,1,REAL,FAKE,,,,,,,,,,,,,,,,,
,,,,,,,,,5ffe516acbc37a4ae7eac4a1,Latin America (Costa Rica),13 or older,"no, only English or Spanish",no,2025-08-13_19h28.12.939,empathy_intonation_perc_control,2024.2.4,Win32,60.24096386,5ffe516acbc37a4ae7eac4a1,68817205a84113384fffdfe3,689d1f41a7da59d7c12263e8,,,,,,,,,,,,,0,,,,,,,,,,,,,,,,,,,,,,,,,,,,,,,,,,,,,58,plaudir,,,,,349.2191,350.782,0,1,1.0353,,0,8,8,57,1,REAL,FAKE,,,,,,,,,,,,,,,,,
,,,,,,,,,5ffe516acbc37a4ae7eac4a1,Latin America (Costa Rica),13 or older,"no, only English or Spanish",no,2025-08-13_19h28.12.939,empathy_intonation_perc_control,2024.2.4,Win32,60.24096386,5ffe516acbc37a4ae7eac4a1,68817205a84113384fffdfe3,689d1f41a7da59d7c12263e8,,,,,,,,,,,,,1,,,,,,,,,,,,,,,,,,,,,,,,,,,,,,,,,,,,,28,merodear,,,,,350.7837,352.4801,0,0,1.1702,,0,9,9,27,1,REAL,FAKE,,,,,,,,,,,,,,,,,
,,,,,,,,,5ffe516acbc37a4ae7eac4a1,Latin America (Costa Rica),13 or older,"no, only English or Spanish",no,2025-08-13_19h28.12.939,empathy_intonation_perc_control,2024.2.4,Win32,60.24096386,5ffe516acbc37a4ae7eac4a1,68817205a84113384fffdfe3,689d1f41a7da59d7c12263e8,,,,,,,,,,,,,1,,,,,,,,,,,,,,,,,,,,,,,,,,,,,,,,,,,,,69,engatusar,,,,,352.4814,354.4797,0,0,1.4636,,0,10,10,68,1,REAL,FAKE,,,,,,,,,,,,,,,,,
,,,,,,,,,5ffe516acbc37a4ae7eac4a1,Latin America (Costa Rica),13 or older,"no, only English or Spanish",no,2025-08-13_19h28.12.939,empathy_intonation_perc_control,2024.2.4,Win32,60.24096386,5ffe516acbc37a4ae7eac4a1,68817205a84113384fffdfe3,689d1f41a7da59d7c12263e8,,,,,,,,,,,,,1,,,,,,,,,,,,,,,,,,,,,,,,,,,,,,,,,,,,,31,pandilla,,,,,354.4816,356.0111,1,1,0.9955,,0,11,11,30,1,REAL,FAKE,,,,,,,,,,,,,,,,,
,,,,,,,,,5ffe516acbc37a4ae7eac4a1,Latin America (Costa Rica),13 or older,"no, only English or Spanish",no,2025-08-13_19h28.12.939,empathy_intonation_perc_control,2024.2.4,Win32,60.24096386,5ffe516acbc37a4ae7eac4a1,68817205a84113384fffdfe3,689d1f41a7da59d7c12263e8,,,,,,,,,,,,,0,,,,,,,,,,,,,,,,,,,,,,,,,,,,,,,,,,,,,18,arsa,,,,,356.0132,357.4085,0,1,0.863,,0,12,12,17,1,REAL,FAKE,,,,,,,,,,,,,,,,,
,,,,,,,,,5ffe516acbc37a4ae7eac4a1,Latin America (Costa Rica),13 or older,"no, only English or Spanish",no,2025-08-13_19h28.12.939,empathy_intonation_perc_control,2024.2.4,Win32,60.24096386,5ffe516acbc37a4ae7eac4a1,68817205a84113384fffdfe3,689d1f41a7da59d7c12263e8,,,,,,,,,,,,,1,,,,,,,,,,,,,,,,,,,,,,,,,,,,,,,,,,,,,64,orgulloso,,,,,357.4096,358.9245,1,1,1.0013,,0,13,13,63,1,REAL,FAKE,,,,,,,,,,,,,,,,,
,,,,,,,,,5ffe516acbc37a4ae7eac4a1,Latin America (Costa Rica),13 or older,"no, only English or Spanish",no,2025-08-13_19h28.12.939,empathy_intonation_perc_control,2024.2.4,Win32,60.24096386,5ffe516acbc37a4ae7eac4a1,68817205a84113384fffdfe3,689d1f41a7da59d7c12263e8,,,,,,,,,,,,,1,,,,,,,,,,,,,,,,,,,,,,,,,,,,,,,,,,,,,20,ávido,,,,,358.9293,360.5563,1,1,1.1005,,0,14,14,19,1,REAL,FAKE,,,,,,,,,,,,,,,,,
,,,,,,,,,5ffe516acbc37a4ae7eac4a1,Latin America (Costa Rica),13 or older,"no, only English or Spanish",no,2025-08-13_19h28.12.939,empathy_intonation_perc_control,2024.2.4,Win32,60.24096386,5ffe516acbc37a4ae7eac4a1,68817205a84113384fffdfe3,689d1f41a7da59d7c12263e8,,,,,,,,,,,,,1,,,,,,,,,,,,,,,,,,,,,,,,,,,,,,,,,,,,,88,acantilado,,,,,360.5581,362.1216,0,0,1.0332,,0,15,15,87,1,REAL,FAKE,,,,,,,,,,,,,,,,,
,,,,,,,,,5ffe516acbc37a4ae7eac4a1,Latin America (Costa Rica),13 or older,"no, only English or Spanish",no,2025-08-13_19h28.12.939,empathy_intonation_perc_control,2024.2.4,Win32,60.24096386,5ffe516acbc37a4ae7eac4a1,68817205a84113384fffdfe3,689d1f41a7da59d7c12263e8,,,,,,,,,,,,,1,,,,,,,,,,,,,,,,,,,,,,,,,,,,,,,,,,,,,81,pozo,,,,,362.1236,363.421,0,0,0.7781,,0,16,16,80,1,REAL,FAKE,,,,,,,,,,,,,,,,,
,,,,,,,,,5ffe516acbc37a4ae7eac4a1,Latin America (Costa Rica),13 or older,"no, only English or Spanish",no,2025-08-13_19h28.12.939,empathy_intonation_perc_control,2024.2.4,Win32,60.24096386,5ffe516acbc37a4ae7eac4a1,68817205a84113384fffdfe3,689d1f41a7da59d7c12263e8,,,,,,,,,,,,,0,,,,,,,,,,,,,,,,,,,,,,,,,,,,,,,,,,,,,74,cintro,,,,,363.4229,365.2854,0,1,1.3303,,0,17,17,73,1,REAL,FAKE,,,,,,,,,,,,,,,,,
,,,,,,,,,5ffe516acbc37a4ae7eac4a1,Latin America (Costa Rica),13 or older,"no, only English or Spanish",no,2025-08-13_19h28.12.939,empathy_intonation_perc_control,2024.2.4,Win32,60.24096386,5ffe516acbc37a4ae7eac4a1,68817205a84113384fffdfe3,689d1f41a7da59d7c12263e8,,,,,,,,,,,,,1,,,,,,,,,,,,,,,,,,,,,,,,,,,,,,,,,,,,,14,yunque,,,,,365.2887,366.5843,0,0,0.763,,0,18,18,13,1,REAL,FAKE,,,,,,,,,,,,,,,,,
,,,,,,,,,5ffe516acbc37a4ae7eac4a1,Latin America (Costa Rica),13 or older,"no, only English or Spanish",no,2025-08-13_19h28.12.939,empathy_intonation_perc_control,2024.2.4,Win32,60.24096386,5ffe516acbc37a4ae7eac4a1,68817205a84113384fffdfe3,689d1f41a7da59d7c12263e8,,,,,,,,,,,,,0,,,,,,,,,,,,,,,,,,,,,,,,,,,,,,,,,,,,,92,click the 0 key.,,,,,366.5872,369.6326,0,1,2.5118,,0,19,19,91,1,REAL,FAKE,,,,,,,,,,,,,,,,,
,,,,,,,,,5ffe516acbc37a4ae7eac4a1,Latin America (Costa Rica),13 or older,"no, only English or Spanish",no,2025-08-13_19h28.12.939,empathy_intonation_perc_control,2024.2.4,Win32,60.24096386,5ffe516acbc37a4ae7eac4a1,68817205a84113384fffdfe3,689d1f41a7da59d7c12263e8,,,,,,,,,,,,,1,,,,,,,,,,,,,,,,,,,,,,,,,,,,,,,,,,,,,67,cabello,,,,,369.6346,371.1631,1,1,1.0034,,0,20,20,66,1,REAL,FAKE,,,,,,,,,,,,,,,,,
,,,,,,,,,5ffe516acbc37a4ae7eac4a1,Latin America (Costa Rica),13 or older,"no, only English or Spanish",no,2025-08-13_19h28.12.939,empathy_intonation_perc_control,2024.2.4,Win32,60.24096386,5ffe516acbc37a4ae7eac4a1,68817205a84113384fffdfe3,689d1f41a7da59d7c12263e8,,,,,,,,,,,,,0,,,,,,,,,,,,,,,,,,,,,,,,,,,,,,,,,,,,,50,flamida,,,,,371.1646,372.6787,0,1,0.9793,,0,21,21,49,1,REAL,FAKE,,,,,,,,,,,,,,,,,
,,,,,,,,,5ffe516acbc37a4ae7eac4a1,Latin America (Costa Rica),13 or older,"no, only English or Spanish",no,2025-08-13_19h28.12.939,empathy_intonation_perc_control,2024.2.4,Win32,60.24096386,5ffe516acbc37a4ae7eac4a1,68817205a84113384fffdfe3,689d1f41a7da59d7c12263e8,,,,,,,,,,,,,1,,,,,,,,,,,,,,,,,,,,,,,,,,,,,,,,,,,,,51,candado,,,,,372.6808,374.4271,0,0,1.2124,,0,22,22,50,1,REAL,FAKE,,,,,,,,,,,,,,,,,
,,,,,,,,,5ffe516acbc37a4ae7eac4a1,Latin America (Costa Rica),13 or older,"no, only English or Spanish",no,2025-08-13_19h28.12.939,empathy_intonation_perc_control,2024.2.4,Win32,60.24096386,5ffe516acbc37a4ae7eac4a1,68817205a84113384fffdfe3,689d1f41a7da59d7c12263e8,,,,,,,,,,,,,1,,,,,,,,,,,,,,,,,,,,,,,,,,,,,,,,,,,,,46,martillo,,,,,374.4295,377.4912,0,0,2.5378,,0,23,23,45,1,REAL,FAKE,,,,,,,,,,,,,,,,,
,,,,,,,,,5ffe516acbc37a4ae7eac4a1,Latin America (Costa Rica),13 or older,"no, only English or Spanish",no,2025-08-13_19h28.12.939,empathy_intonation_perc_control,2024.2.4,Win32,60.24096386,5ffe516acbc37a4ae7eac4a1,68817205a84113384fffdfe3,689d1f41a7da59d7c12263e8,,,,,,,,,,,,,1,,,,,,,,,,,,,,,,,,,,,,,,,,,,,,,,,,,,,73,hervidor,,,,,377.4928,378.7562,0,0,0.7321,,0,24,24,72,1,REAL,FAKE,,,,,,,,,,,,,,,,,
,,,,,,,,,5ffe516acbc37a4ae7eac4a1,Latin America (Costa Rica),13 or older,"no, only English or Spanish",no,2025-08-13_19h28.12.939,empathy_intonation_perc_control,2024.2.4,Win32,60.24096386,5ffe516acbc37a4ae7eac4a1,68817205a84113384fffdfe3,689d1f41a7da59d7c12263e8,,,,,,,,,,,,,0,,,,,,,,,,,,,,,,,,,,,,,,,,,,,,,,,,,,,82,empirador,,,,,378.7579,380.3882,1,0,1.0971,,0,25,25,81,1,REAL,FAKE,,,,,,,,,,,,,,,,,
,,,,,,,,,5ffe516acbc37a4ae7eac4a1,Latin America (Costa Rica),13 or older,"no, only English or Spanish",no,2025-08-13_19h28.12.939,empathy_intonation_perc_control,2024.2.4,Win32,60.24096386,5ffe516acbc37a4ae7eac4a1,68817205a84113384fffdfe3,689d1f41a7da59d7c12263e8,,,,,,,,,,,,,1,,,,,,,,,,,,,,,,,,,,,,,,,,,,,,,,,,,,,55,nevar,,,,,380.3899,381.8697,1,1,0.9482,,0,26,26,54,1,REAL,FAKE,,,,,,,,,,,,,,,,,
,,,,,,,,,5ffe516acbc37a4ae7eac4a1,Latin America (Costa Rica),13 or older,"no, only English or Spanish",no,2025-08-13_19h28.12.939,empathy_intonation_perc_control,2024.2.4,Win32,60.24096386,5ffe516acbc37a4ae7eac4a1,68817205a84113384fffdfe3,689d1f41a7da59d7c12263e8,,,,,,,,,,,,,1,,,,,,,,,,,,,,,,,,,,,,,,,,,,,,,,,,,,,61,seda,,,,,381.8714,383.4532,0,0,1.0558,,0,27,27,60,1,REAL,FAKE,,,,,,,,,,,,,,,,,
,,,,,,,,,5ffe516acbc37a4ae7eac4a1,Latin America (Costa Rica),13 or older,"no, only English or Spanish",no,2025-08-13_19h28.12.939,empathy_intonation_perc_control,2024.2.4,Win32,60.24096386,5ffe516acbc37a4ae7eac4a1,68817205a84113384fffdfe3,689d1f41a7da59d7c12263e8,,,,,,,,,,,,,1,,,,,,,,,,,,,,,,,,,,,,,,,,,,,,,,,,,,,3,pulmones,,,,,383.4547,385.1001,0,0,1.1126,,0,28,28,2,1,REAL,FAKE,,,,,,,,,,,,,,,,,
,,,,,,,,,5ffe516acbc37a4ae7eac4a1,Latin America (Costa Rica),13 or older,"no, only English or Spanish",no,2025-08-13_19h28.12.939,empathy_intonation_perc_control,2024.2.4,Win32,60.24096386,5ffe516acbc37a4ae7eac4a1,68817205a84113384fffdfe3,689d1f41a7da59d7c12263e8,,,,,,,,,,,,,1,,,,,,,,,,,,,,,,,,,,,,,,,,,,,,,,,,,,,44,cuchara,,,,,385.1022,386.4988,1,1,0.8677,,0,29,29,43,1,REAL,FAKE,,,,,,,,,,,,,,,,,
,,,,,,,,,5ffe516acbc37a4ae7eac4a1,Latin America (Costa Rica),13 or older,"no, only English or Spanish",no,2025-08-13_19h28.12.939,empathy_intonation_perc_control,2024.2.4,Win32,60.24096386,5ffe516acbc37a4ae7eac4a1,68817205a84113384fffdfe3,689d1f41a7da59d7c12263e8,,,,,,,,,,,,,1,,,,,,,,,,,,,,,,,,,,,,,,,,,,,,,,,,,,,6,tergiversar,,,,,386.5003,387.9475,0,0,0.9204,,0,30,30,5,1,REAL,FAKE,,,,,,,,,,,,,,,,,
,,,,,,,,,5ffe516acbc37a4ae7eac4a1,Latin America (Costa Rica),13 or older,"no, only English or Spanish",no,2025-08-13_19h28.12.939,empathy_intonation_perc_control,2024.2.4,Win32,60.24096386,5ffe516acbc37a4ae7eac4a1,68817205a84113384fffdfe3,689d1f41a7da59d7c12263e8,,,,,,,,,,,,,1,,,,,,,,,,,,,,,,,,,,,,,,,,,,,,,,,,,,,2,pellizcar,,,,,387.9494,389.763,0,0,1.2783,,0,31,31,1,1,REAL,FAKE,,,,,,,,,,,,,,,,,
,,,,,,,,,5ffe516acbc37a4ae7eac4a1,Latin America (Costa Rica),13 or older,"no, only English or Spanish",no,2025-08-13_19h28.12.939,empathy_intonation_perc_control,2024.2.4,Win32,60.24096386,5ffe516acbc37a4ae7eac4a1,68817205a84113384fffdfe3,689d1f41a7da59d7c12263e8,,,,,,,,,,,,,1,,,,,,,,,,,,,,,,,,,,,,,,,,,,,,,,,,,,,90,clavel,,,,,389.7651,391.2785,0,0,0.9796,,0,32,32,89,1,REAL,FAKE,,,,,,,,,,,,,,,,,
,,,,,,,,,5ffe516acbc37a4ae7eac4a1,Latin America (Costa Rica),13 or older,"no, only English or Spanish",no,2025-08-13_19h28.12.939,empathy_intonation_perc_control,2024.2.4,Win32,60.24096386,5ffe516acbc37a4ae7eac4a1,68817205a84113384fffdfe3,689d1f41a7da59d7c12263e8,,,,,,,,,,,,,1,,,,,,,,,,,,,,,,,,,,,,,,,,,,,,,,,,,,,41,rebuscar,,,,,391.2805,392.5762,0,0,0.7712,,0,33,33,40,1,REAL,FAKE,,,,,,,,,,,,,,,,,
,,,,,,,,,5ffe516acbc37a4ae7eac4a1,Latin America (Costa Rica),13 or older,"no, only English or Spanish",no,2025-08-13_19h28.12.939,empathy_intonation_perc_control,2024.2.4,Win32,60.24096386,5ffe516acbc37a4ae7eac4a1,68817205a84113384fffdfe3,689d1f41a7da59d7c12263e8,,,,,,,,,,,,,1,,,,,,,,,,,,,,,,,,,,,,,,,,,,,,,,,,,,,9,hacha,,,,,392.5778,394.2086,0,0,1.0982,,0,34,34,8,1,REAL,FAKE,,,,,,,,,,,,,,,,,
,,,,,,,,,5ffe516acbc37a4ae7eac4a1,Latin America (Costa Rica),13 or older,"no, only English or Spanish",no,2025-08-13_19h28.12.939,empathy_intonation_perc_control,2024.2.4,Win32,60.24096386,5ffe516acbc37a4ae7eac4a1,68817205a84113384fffdfe3,689d1f41a7da59d7c12263e8,,,,,,,,,,,,,0,,,,,,,,,,,,,,,,,,,,,,,,,,,,,,,,,,,,,10,antar,,,,,394.2104,395.6569,1,0,0.9125,,0,35,35,9,1,REAL,FAKE,,,,,,,,,,,,,,,,,
,,,,,,,,,5ffe516acbc37a4ae7eac4a1,Latin America (Costa Rica),13 or older,"no, only English or Spanish",no,2025-08-13_19h28.12.939,empathy_intonation_perc_control,2024.2.4,Win32,60.24096386,5ffe516acbc37a4ae7eac4a1,68817205a84113384fffdfe3,689d1f41a7da59d7c12263e8,,,,,,,,,,,,,1,,,,,,,,,,,,,,,,,,,,,,,,,,,,,,,,,,,,,5,zapato,,,,,395.6589,397.056,1,1,0.8632,,0,36,36,4,1,REAL,FAKE,,,,,,,,,,,,,,,,,
,,,,,,,,,5ffe516acbc37a4ae7eac4a1,Latin America (Costa Rica),13 or older,"no, only English or Spanish",no,2025-08-13_19h28.12.939,empathy_intonation_perc_control,2024.2.4,Win32,60.24096386,5ffe516acbc37a4ae7eac4a1,68817205a84113384fffdfe3,689d1f41a7da59d7c12263e8,,,,,,,,,,,,,0,,,,,,,,,,,,,,,,,,,,,,,,,,,,,,,,,,,,,21,capillo,,,,,397.0579,398.5879,0,1,1.0001,,0,37,37,20,1,REAL,FAKE,,,,,,,,,,,,,,,,,
,,,,,,,,,5ffe516acbc37a4ae7eac4a1,Latin America (Costa Rica),13 or older,"no, only English or Spanish",no,2025-08-13_19h28.12.939,empathy_intonation_perc_control,2024.2.4,Win32,60.24096386,5ffe516acbc37a4ae7eac4a1,68817205a84113384fffdfe3,689d1f41a7da59d7c12263e8,,,,,,,,,,,,,1,,,,,,,,,,,,,,,,,,,,,,,,,,,,,,,,,,,,,25,bisagra,,,,,398.5898,399.9867,0,0,0.8626,,0,38,38,24,1,REAL,FAKE,,,,,,,,,,,,,,,,,
,,,,,,,,,5ffe516acbc37a4ae7eac4a1,Latin America (Costa Rica),13 or older,"no, only English or Spanish",no,2025-08-13_19h28.12.939,empathy_intonation_perc_control,2024.2.4,Win32,60.24096386,5ffe516acbc37a4ae7eac4a1,68817205a84113384fffdfe3,689d1f41a7da59d7c12263e8,,,,,,,,,,,,,0,,,,,,,,,,,,,,,,,,,,,,,,,,,,,,,,,,,,,84,escuto,,,,,399.9886,401.4685,0,1,0.9477,,0,39,39,83,1,REAL,FAKE,,,,,,,,,,,,,,,,,
,,,,,,,,,5ffe516acbc37a4ae7eac4a1,Latin America (Costa Rica),13 or older,"no, only English or Spanish",no,2025-08-13_19h28.12.939,empathy_intonation_perc_control,2024.2.4,Win32,60.24096386,5ffe516acbc37a4ae7eac4a1,68817205a84113384fffdfe3,689d1f41a7da59d7c12263e8,,,,,,,,,,,,,1,,,,,,,,,,,,,,,,,,,,,,,,,,,,,,,,,,,,,89,prisa,,,,,401.4703,402.9179,1,1,0.9139,,0,40,40,88,1,REAL,FAKE,,,,,,,,,,,,,,,,,
,,,,,,,,,5ffe516acbc37a4ae7eac4a1,Latin America (Costa Rica),13 or older,"no, only English or Spanish",no,2025-08-13_19h28.12.939,empathy_intonation_perc_control,2024.2.4,Win32,60.24096386,5ffe516acbc37a4ae7eac4a1,68817205a84113384fffdfe3,689d1f41a7da59d7c12263e8,,,,,,,,,,,,,1,,,,,,,,,,,,,,,,,,,,,,,,,,,,,,,,,,,,,37,granuja,,,,,402.9201,404.4652,0,0,1.0198,,0,41,41,36,1,REAL,FAKE,,,,,,,,,,,,,,,,,
,,,,,,,,,5ffe516acbc37a4ae7eac4a1,Latin America (Costa Rica),13 or older,"no, only English or Spanish",no,2025-08-13_19h28.12.939,empathy_intonation_perc_control,2024.2.4,Win32,60.24096386,5ffe516acbc37a4ae7eac4a1,68817205a84113384fffdfe3,689d1f41a7da59d7c12263e8,,,,,,,,,,,,,1,,,,,,,,,,,,,,,,,,,,,,,,,,,,,,,,,,,,,36,loro,,,,,404.4667,405.6812,0,0,0.679,,0,42,42,35,1,REAL,FAKE,,,,,,,,,,,,,,,,,
,,,,,,,,,5ffe516acbc37a4ae7eac4a1,Latin America (Costa Rica),13 or older,"no, only English or Spanish",no,2025-08-13_19h28.12.939,empathy_intonation_perc_control,2024.2.4,Win32,60.24096386,5ffe516acbc37a4ae7eac4a1,68817205a84113384fffdfe3,689d1f41a7da59d7c12263e8,,,,,,,,,,,,,1,,,,,,,,,,,,,,,,,,,,,,,,,,,,,,,,,,,,,60,matar,,,,,405.6835,407.1465,1,1,0.9403,,0,43,43,59,1,REAL,FAKE,,,,,,,,,,,,,,,,,
,,,,,,,,,5ffe516acbc37a4ae7eac4a1,Latin America (Costa Rica),13 or older,"no, only English or Spanish",no,2025-08-13_19h28.12.939,empathy_intonation_perc_control,2024.2.4,Win32,60.24096386,5ffe516acbc37a4ae7eac4a1,68817205a84113384fffdfe3,689d1f41a7da59d7c12263e8,,,,,,,,,,,,,0,,,,,,,,,,,,,,,,,,,,,,,,,,,,,,,,,,,,,19,brecedad,,,,,407.1485,408.4951,0,1,0.8116,,0,44,44,18,1,REAL,FAKE,,,,,,,,,,,,,,,,,
,,,,,,,,,5ffe516acbc37a4ae7eac4a1,Latin America (Costa Rica),13 or older,"no, only English or Spanish",no,2025-08-13_19h28.12.939,empathy_intonation_perc_control,2024.2.4,Win32,60.24096386,5ffe516acbc37a4ae7eac4a1,68817205a84113384fffdfe3,689d1f41a7da59d7c12263e8,,,,,,,,,,,,,1,,,,,,,,,,,,,,,,,,,,,,,,,,,,,,,,,,,,,68,alegre,,,,,408.4977,409.9106,1,1,0.8798,,0,45,45,67,1,REAL,FAKE,,,,,,,,,,,,,,,,,
,,,,,,,,,5ffe516acbc37a4ae7eac4a1,Latin America (Costa Rica),13 or older,"no, only English or Spanish",no,2025-08-13_19h28.12.939,empathy_intonation_perc_control,2024.2.4,Win32,60.24096386,5ffe516acbc37a4ae7eac4a1,68817205a84113384fffdfe3,689d1f41a7da59d7c12263e8,,,,,,,,,,,,,1,,,,,,,,,,,,,,,,,,,,,,,,,,,,,,,,,,,,,52,camisa,,,,,409.9123,411.1929,1,1,0.7465,,0,46,46,51,1,REAL,FAKE,,,,,,,,,,,,,,,,,
,,,,,,,,,5ffe516acbc37a4ae7eac4a1,Latin America (Costa Rica),13 or older,"no, only English or Spanish",no,2025-08-13_19h28.12.939,empathy_intonation_perc_control,2024.2.4,Win32,60.24096386,5ffe516acbc37a4ae7eac4a1,68817205a84113384fffdfe3,689d1f41a7da59d7c12263e8,,,,,,,,,,,,,0,,,,,,,,,,,,,,,,,,,,,,,,,,,,,,,,,,,,,16,abracer,,,,,411.1948,412.7584,0,1,1.0393,,0,47,47,15,1,REAL,FAKE,,,,,,,,,,,,,,,,,
,,,,,,,,,5ffe516acbc37a4ae7eac4a1,Latin America (Costa Rica),13 or older,"no, only English or Spanish",no,2025-08-13_19h28.12.939,empathy_intonation_perc_control,2024.2.4,Win32,60.24096386,5ffe516acbc37a4ae7eac4a1,68817205a84113384fffdfe3,689d1f41a7da59d7c12263e8,,,,,,,,,,,,,1,,,,,,,,,,,,,,,,,,,,,,,,,,,,,,,,,,,,,75,yacer,,,,,412.7607,414.1067,0,0,0.817,,0,48,48,74,1,REAL,FAKE,,,,,,,,,,,,,,,,,
,,,,,,,,,5ffe516acbc37a4ae7eac4a1,Latin America (Costa Rica),13 or older,"no, only English or Spanish",no,2025-08-13_19h28.12.939,empathy_intonation_perc_control,2024.2.4,Win32,60.24096386,5ffe516acbc37a4ae7eac4a1,68817205a84113384fffdfe3,689d1f41a7da59d7c12263e8,,,,,,,,,,,,,0,,,,,,,,,,,,,,,,,,,,,,,,,,,,,,,,,,,,,30,alardio,,,,,414.1083,415.6715,0,1,1.0315,,0,49,49,29,1,REAL,FAKE,,,,,,,,,,,,,,,,,
,,,,,,,,,5ffe516acbc37a4ae7eac4a1,Latin America (Costa Rica),13 or older,"no, only English or Spanish",no,2025-08-13_19h28.12.939,empathy_intonation_perc_control,2024.2.4,Win32,60.24096386,5ffe516acbc37a4ae7eac4a1,68817205a84113384fffdfe3,689d1f41a7da59d7c12263e8,,,,,,,,,,,,,1,,,,,,,,,,,,,,,,,,,,,,,,,,,,,,,,,,,,,43,canela,,,,,415.6734,417.204,1,1,0.9958,,0,50,50,42,1,REAL,FAKE,,,,,,,,,,,,,,,,,
,,,,,,,,,5ffe516acbc37a4ae7eac4a1,Latin America (Costa Rica),13 or older,"no, only English or Spanish",no,2025-08-13_19h28.12.939,empathy_intonation_perc_control,2024.2.4,Win32,60.24096386,5ffe516acbc37a4ae7eac4a1,68817205a84113384fffdfe3,689d1f41a7da59d7c12263e8,,,,,,,,,,,,,1,,,,,,,,,,,,,,,,,,,,,,,,,,,,,,,,,,,,,45,jilguero,,,,,417.2062,418.3862,0,0,0.6485,,0,51,51,44,1,REAL,FAKE,,,,,,,,,,,,,,,,,
,,,,,,,,,5ffe516acbc37a4ae7eac4a1,Latin America (Costa Rica),13 or older,"no, only English or Spanish",no,2025-08-13_19h28.12.939,empathy_intonation_perc_control,2024.2.4,Win32,60.24096386,5ffe516acbc37a4ae7eac4a1,68817205a84113384fffdfe3,689d1f41a7da59d7c12263e8,,,,,,,,,,,,,1,,,,,,,,,,,,,,,,,,,,,,,,,,,,,,,,,,,,,12,asesinato,,,,,418.388,420.1007,1,1,1.1865,,0,52,52,11,1,REAL,FAKE,,,,,,,,,,,,,,,,,
,,,,,,,,,5ffe516acbc37a4ae7eac4a1,Latin America (Costa Rica),13 or older,"no, only English or Spanish",no,2025-08-13_19h28.12.939,empathy_intonation_perc_control,2024.2.4,Win32,60.24096386,5ffe516acbc37a4ae7eac4a1,68817205a84113384fffdfe3,689d1f41a7da59d7c12263e8,,,,,,,,,,,,,1,,,,,,,,,,,,,,,,,,,,,,,,,,,,,,,,,,,,,62,flaco,,,,,420.1025,421.4997,1,1,0.8722,,0,53,53,61,1,REAL,FAKE,,,,,,,,,,,,,,,,,
,,,,,,,,,5ffe516acbc37a4ae7eac4a1,Latin America (Costa Rica),13 or older,"no, only English or Spanish",no,2025-08-13_19h28.12.939,empathy_intonation_perc_control,2024.2.4,Win32,60.24096386,5ffe516acbc37a4ae7eac4a1,68817205a84113384fffdfe3,689d1f41a7da59d7c12263e8,,,,,,,,,,,,,0,,,,,,,,,,,,,,,,,,,,,,,,,,,,,,,,,,,,,33,pauca,,,,,421.5013,422.7152,0,1,0.6798,,0,54,54,32,1,REAL,FAKE,,,,,,,,,,,,,,,,,
,,,,,,,,,5ffe516acbc37a4ae7eac4a1,Latin America (Costa Rica),13 or older,"no, only English or Spanish",no,2025-08-13_19h28.12.939,empathy_intonation_perc_control,2024.2.4,Win32,60.24096386,5ffe516acbc37a4ae7eac4a1,68817205a84113384fffdfe3,689d1f41a7da59d7c12263e8,,,,,,,,,,,,,1,,,,,,,,,,,,,,,,,,,,,,,,,,,,,,,,,,,,,49,ganar,,,,,422.7173,424.431,1,1,1.1795,,0,55,55,48,1,REAL,FAKE,,,,,,,,,,,,,,,,,
,,,,,,,,,5ffe516acbc37a4ae7eac4a1,Latin America (Costa Rica),13 or older,"no, only English or Spanish",no,2025-08-13_19h28.12.939,empathy_intonation_perc_control,2024.2.4,Win32,60.24096386,5ffe516acbc37a4ae7eac4a1,68817205a84113384fffdfe3,689d1f41a7da59d7c12263e8,,,,,,,,,,,,,0,,,,,,,,,,,,,,,,,,,,,,,,,,,,,,,,,,,,,70,temblo,,,,,424.433,425.6622,0,1,0.7015,,0,56,56,69,1,REAL,FAKE,,,,,,,,,,,,,,,,,
,,,,,,,,,5ffe516acbc37a4ae7eac4a1,Latin America (Costa Rica),13 or older,"no, only English or Spanish",no,2025-08-13_19h28.12.939,empathy_intonation_perc_control,2024.2.4,Win32,60.24096386,5ffe516acbc37a4ae7eac4a1,68817205a84113384fffdfe3,689d1f41a7da59d7c12263e8,,,,,,,,,,,,,0,,,,,,,,,,,,,,,,,,,,,,,,,,,,,,,,,,,,,72,pemición,,,,,425.6652,427.2944,0,1,1.0966,,0,57,57,71,1,REAL,FAKE,,,,,,,,,,,,,,,,,
,,,,,,,,,5ffe516acbc37a4ae7eac4a1,Latin America (Costa Rica),13 or older,"no, only English or Spanish",no,2025-08-13_19h28.12.939,empathy_intonation_perc_control,2024.2.4,Win32,60.24096386,5ffe516acbc37a4ae7eac4a1,68817205a84113384fffdfe3,689d1f41a7da59d7c12263e8,,,,,,,,,,,,,1,,,,,,,,,,,,,,,,,,,,,,,,,,,,,,,,,,,,,13,helar,,,,,427.2962,428.7927,0,0,0.9637,,0,58,58,12,1,REAL,FAKE,,,,,,,,,,,,,,,,,
,,,,,,,,,5ffe516acbc37a4ae7eac4a1,Latin America (Costa Rica),13 or older,"no, only English or Spanish",no,2025-08-13_19h28.12.939,empathy_intonation_perc_control,2024.2.4,Win32,60.24096386,5ffe516acbc37a4ae7eac4a1,68817205a84113384fffdfe3,689d1f41a7da59d7c12263e8,,,,,,,,,,,,,1,,,,,,,,,,,,,,,,,,,,,,,,,,,,,,,,,,,,,71,polvoriento,,,,,428.7946,430.8911,0,0,1.5631,,0,59,59,70,1,REAL,FAKE,,,,,,,,,,,,,,,,,
,,,,,,,,,5ffe516acbc37a4ae7eac4a1,Latin America (Costa Rica),13 or older,"no, only English or Spanish",no,2025-08-13_19h28.12.939,empathy_intonation_perc_control,2024.2.4,Win32,60.24096386,5ffe516acbc37a4ae7eac4a1,68817205a84113384fffdfe3,689d1f41a7da59d7c12263e8,,,,,,,,,,,,,1,,,,,,,,,,,,,,,,,,,,,,,,,,,,,,,,,,,,,78,frondoso,,,,,430.8932,432.2572,0,0,0.8389,,0,60,60,77,1,REAL,FAKE,,,,,,,,,,,,,,,,,
,,,,,,,,,5ffe516acbc37a4ae7eac4a1,Latin America (Costa Rica),13 or older,"no, only English or Spanish",no,2025-08-13_19h28.12.939,empathy_intonation_perc_control,2024.2.4,Win32,60.24096386,5ffe516acbc37a4ae7eac4a1,68817205a84113384fffdfe3,689d1f41a7da59d7c12263e8,,,,,,,,,,,,,1,,,,,,,,,,,,,,,,,,,,,,,,,,,,,,,,,,,,,26,secuestro,,,,,432.259,434.9381,1,1,2.1458,,0,61,61,25,1,REAL,FAKE,,,,,,,,,,,,,,,,,
,,,,,,,,,5ffe516acbc37a4ae7eac4a1,Latin America (Costa Rica),13 or older,"no, only English or Spanish",no,2025-08-13_19h28.12.939,empathy_intonation_perc_control,2024.2.4,Win32,60.24096386,5ffe516acbc37a4ae7eac4a1,68817205a84113384fffdfe3,689d1f41a7da59d7c12263e8,,,,,,,,,,,,,0,,,,,,,,,,,,,,,,,,,,,,,,,,,,,,,,,,,,,8,cadeña,,,,,434.9409,436.4857,0,1,1.0128,,0,62,62,7,1,REAL,FAKE,,,,,,,,,,,,,,,,,
,,,,,,,,,5ffe516acbc37a4ae7eac4a1,Latin America (Costa Rica),13 or older,"no, only English or Spanish",no,2025-08-13_19h28.12.939,empathy_intonation_perc_control,2024.2.4,Win32,60.24096386,5ffe516acbc37a4ae7eac4a1,68817205a84113384fffdfe3,689d1f41a7da59d7c12263e8,,,,,,,,,,,,,0,,,,,,,,,,,,,,,,,,,,,,,,,,,,,,,,,,,,,29,decar,,,,,436.4873,438.7171,1,0,1.6969,,0,63,63,28,1,REAL,FAKE,,,,,,,,,,,,,,,,,
,,,,,,,,,5ffe516acbc37a4ae7eac4a1,Latin America (Costa Rica),13 or older,"no, only English or Spanish",no,2025-08-13_19h28.12.939,empathy_intonation_perc_control,2024.2.4,Win32,60.24096386,5ffe516acbc37a4ae7eac4a1,68817205a84113384fffdfe3,689d1f41a7da59d7c12263e8,,,,,,,,,,,,,0,,,,,,,,,,,,,,,,,,,,,,,,,,,,,,,,,,,,,42,cadallo,,,,,438.7191,440.1824,0,1,0.9298,,0,64,64,41,1,REAL,FAKE,,,,,,,,,,,,,,,,,
,,,,,,,,,5ffe516acbc37a4ae7eac4a1,Latin America (Costa Rica),13 or older,"no, only English or Spanish",no,2025-08-13_19h28.12.939,empathy_intonation_perc_control,2024.2.4,Win32,60.24096386,5ffe516acbc37a4ae7eac4a1,68817205a84113384fffdfe3,689d1f41a7da59d7c12263e8,,,,,,,,,,,,,1,,,,,,,,,,,,,,,,,,,,,,,,,,,,,,,,,,,,,57,tacaño,,,,,440.1845,441.831,1,1,1.1141,,0,65,65,56,1,REAL,FAKE,,,,,,,,,,,,,,,,,
,,,,,,,,,5ffe516acbc37a4ae7eac4a1,Latin America (Costa Rica),13 or older,"no, only English or Spanish",no,2025-08-13_19h28.12.939,empathy_intonation_perc_control,2024.2.4,Win32,60.24096386,5ffe516acbc37a4ae7eac4a1,68817205a84113384fffdfe3,689d1f41a7da59d7c12263e8,,,,,,,,,,,,,1,,,,,,,,,,,,,,,,,,,,,,,,,,,,,,,,,,,,,83,guante,,,,,441.8326,443.612,1,1,1.2514,,0,66,66,82,1,REAL,FAKE,,,,,,,,,,,,,,,,,
,,,,,,,,,5ffe516acbc37a4ae7eac4a1,Latin America (Costa Rica),13 or older,"no, only English or Spanish",no,2025-08-13_19h28.12.939,empathy_intonation_perc_control,2024.2.4,Win32,60.24096386,5ffe516acbc37a4ae7eac4a1,68817205a84113384fffdfe3,689d1f41a7da59d7c12263e8,,,,,,,,,,,,,1,,,,,,,,,,,,,,,,,,,,,,,,,,,,,,,,,,,,,24,látigo,,,,,443.6136,444.961,0,0,0.8127,,0,67,67,23,1,REAL,FAKE,,,,,,,,,,,,,,,,,
,,,,,,,,,5ffe516acbc37a4ae7eac4a1,Latin America (Costa Rica),13 or older,"no, only English or Spanish",no,2025-08-13_19h28.12.939,empathy_intonation_perc_control,2024.2.4,Win32,60.24096386,5ffe516acbc37a4ae7eac4a1,68817205a84113384fffdfe3,689d1f41a7da59d7c12263e8,,,,,,,,,,,,,1,,,,,,,,,,,,,,,,,,,,,,,,,,,,,,,,,,,,,80,hormiga,,,,,444.9629,446.1766,0,0,0.6799,,0,68,68,79,1,REAL,FAKE,,,,,,,,,,,,,,,,,
,,,,,,,,,5ffe516acbc37a4ae7eac4a1,Latin America (Costa Rica),13 or older,"no, only English or Spanish",no,2025-08-13_19h28.12.939,empathy_intonation_perc_control,2024.2.4,Win32,60.24096386,5ffe516acbc37a4ae7eac4a1,68817205a84113384fffdfe3,689d1f41a7da59d7c12263e8,,,,,,,,,,,,,0,,,,,,,,,,,,,,,,,,,,,,,,,,,,,,,,,,,,,1,terzo,,,,,446.1782,447.776,1,0,1.0646,,0,69,69,0,1,REAL,FAKE,,,,,,,,,,,,,,,,,
,,,,,,,,,5ffe516acbc37a4ae7eac4a1,Latin America (Costa Rica),13 or older,"no, only English or Spanish",no,2025-08-13_19h28.12.939,empathy_intonation_perc_control,2024.2.4,Win32,60.24096386,5ffe516acbc37a4ae7eac4a1,68817205a84113384fffdfe3,689d1f41a7da59d7c12263e8,,,,,,,,,,,,,1,,,,,,,,,,,,,,,,,,,,,,,,,,,,,,,,,,,,,77,tiburón,,,,,447.7778,449.1906,1,1,0.8788,,0,70,70,76,1,REAL,FAKE,,,,,,,,,,,,,,,,,
,,,,,,,,,5ffe516acbc37a4ae7eac4a1,Latin America (Costa Rica),13 or older,"no, only English or Spanish",no,2025-08-13_19h28.12.939,empathy_intonation_perc_control,2024.2.4,Win32,60.24096386,5ffe516acbc37a4ae7eac4a1,68817205a84113384fffdfe3,689d1f41a7da59d7c12263e8,,,,,,,,,,,,,0,,,,,,,,,,,,,,,,,,,,,,,,,,,,,,,,,,,,,63,esposante,,,,,449.1927,450.7557,0,1,1.0317,,0,71,71,62,1,REAL,FAKE,,,,,,,,,,,,,,,,,
,,,,,,,,,5ffe516acbc37a4ae7eac4a1,Latin America (Costa Rica),13 or older,"no, only English or Spanish",no,2025-08-13_19h28.12.939,empathy_intonation_perc_control,2024.2.4,Win32,60.24096386,5ffe516acbc37a4ae7eac4a1,68817205a84113384fffdfe3,689d1f41a7da59d7c12263e8,,,,,,,,,,,,,1,,,,,,,,,,,,,,,,,,,,,,,,,,,,,,,,,,,,,34,aviso,,,,,450.7576,452.1207,1,1,0.8301,,0,72,72,33,1,REAL,FAKE,,,,,,,,,,,,,,,,,
,,,,,,,,,5ffe516acbc37a4ae7eac4a1,Latin America (Costa Rica),13 or older,"no, only English or Spanish",no,2025-08-13_19h28.12.939,empathy_intonation_perc_control,2024.2.4,Win32,60.24096386,5ffe516acbc37a4ae7eac4a1,68817205a84113384fffdfe3,689d1f41a7da59d7c12263e8,,,,,,,,,,,,,1,,,,,,,,,,,,,,,,,,,,,,,,,,,,,,,,,,,,,40,alfombra,,,,,452.1223,453.587,1,1,0.9307,,0,73,73,39,1,REAL,FAKE,,,,,,,,,,,,,,,,,
,,,,,,,,,5ffe516acbc37a4ae7eac4a1,Latin America (Costa Rica),13 or older,"no, only English or Spanish",no,2025-08-13_19h28.12.939,empathy_intonation_perc_control,2024.2.4,Win32,60.24096386,5ffe516acbc37a4ae7eac4a1,68817205a84113384fffdfe3,689d1f41a7da59d7c12263e8,,,,,,,,,,,,,1,,,,,,,,,,,,,,,,,,,,,,,,,,,,,,,,,,,,,85,laúd,,,,,453.5897,454.902,0,0,0.7838,,0,74,74,84,1,REAL,FAKE,,,,,,,,,,,,,,,,,
,,,,,,,,,5ffe516acbc37a4ae7eac4a1,Latin America (Costa Rica),13 or older,"no, only English or Spanish",no,2025-08-13_19h28.12.939,empathy_intonation_perc_control,2024.2.4,Win32,60.24096386,5ffe516acbc37a4ae7eac4a1,68817205a84113384fffdfe3,689d1f41a7da59d7c12263e8,,,,,,,,,,,,,1,,,,,,,,,,,,,,,,,,,,,,,,,,,,,,,,,,,,,38,estornudar,,,,,454.9036,456.2841,0,0,0.8463,,0,75,75,37,1,REAL,FAKE,,,,,,,,,,,,,,,,,
,,,,,,,,,5ffe516acbc37a4ae7eac4a1,Latin America (Costa Rica),13 or older,"no, only English or Spanish",no,2025-08-13_19h28.12.939,empathy_intonation_perc_control,2024.2.4,Win32,60.24096386,5ffe516acbc37a4ae7eac4a1,68817205a84113384fffdfe3,689d1f41a7da59d7c12263e8,,,,,,,,,,,,,1,,,,,,,,,,,,,,,,,,,,,,,,,,,,,,,,,,,,,15,regar,,,,,456.2862,457.833,0,0,1.0135,,0,76,76,14,1,REAL,FAKE,,,,,,,,,,,,,,,,,
,,,,,,,,,5ffe516acbc37a4ae7eac4a1,Latin America (Costa Rica),13 or older,"no, only English or Spanish",no,2025-08-13_19h28.12.939,empathy_intonation_perc_control,2024.2.4,Win32,60.24096386,5ffe516acbc37a4ae7eac4a1,68817205a84113384fffdfe3,689d1f41a7da59d7c12263e8,,,,,,,,,,,,,1,,,,,,,,,,,,,,,,,,,,,,,,,,,,,,,,,,,,,76,atar,,,,,457.8356,459.115,0,0,0.7461,,0,77,77,75,1,REAL,FAKE,,,,,,,,,,,,,,,,,
,,,,,,,,,5ffe516acbc37a4ae7eac4a1,Latin America (Costa Rica),13 or older,"no, only English or Spanish",no,2025-08-13_19h28.12.939,empathy_intonation_perc_control,2024.2.4,Win32,60.24096386,5ffe516acbc37a4ae7eac4a1,68817205a84113384fffdfe3,689d1f41a7da59d7c12263e8,,,,,,,,,,,,,1,,,,,,,,,,,,,,,,,,,,,,,,,,,,,,,,,,,,,86,barato,,,,,459.1172,460.4798,1,1,0.8349,,0,78,78,85,1,REAL,FAKE,,,,,,,,,,,,,,,,,
,,,,,,,,,5ffe516acbc37a4ae7eac4a1,Latin America (Costa Rica),13 or older,"no, only English or Spanish",no,2025-08-13_19h28.12.939,empathy_intonation_perc_control,2024.2.4,Win32,60.24096386,5ffe516acbc37a4ae7eac4a1,68817205a84113384fffdfe3,689d1f41a7da59d7c12263e8,,,,,,,,,,,,,0,,,,,,,,,,,,,,,,,,,,,,,,,,,,,,,,,,,,,79,tropaje,,,,,460.4817,461.6949,0,1,0.6878,,0,79,79,78,1,REAL,FAKE,,,,,,,,,,,,,,,,,
,,,,,,,,,5ffe516acbc37a4ae7eac4a1,Latin America (Costa Rica),13 or older,"no, only English or Spanish",no,2025-08-13_19h28.12.939,empathy_intonation_perc_control,2024.2.4,Win32,60.24096386,5ffe516acbc37a4ae7eac4a1,68817205a84113384fffdfe3,689d1f41a7da59d7c12263e8,,,,,,,,,,,,,1,,,,,,,,,,,,,,,,,,,,,,,,,,,,,,,,,,,,,22,lacayo,,,,,461.6961,462.8952,0,0,0.6669,,0,80,80,21,1,REAL,FAKE,,,,,,,,,,,,,,,,,
,,,,,,,,,5ffe516acbc37a4ae7eac4a1,Latin America (Costa Rica),13 or older,"no, only English or Spanish",no,2025-08-13_19h28.12.939,empathy_intonation_perc_control,2024.2.4,Win32,60.24096386,5ffe516acbc37a4ae7eac4a1,68817205a84113384fffdfe3,689d1f41a7da59d7c12263e8,,,,,,,,,,,,,1,,,,,,,,,,,,,,,,,,,,,,,,,,,,,,,,,,,,,59,besar,,,,,462.8974,464.26,1,1,0.8295,,0,81,81,58,1,REAL,FAKE,,,,,,,,,,,,,,,,,
,,,,,,,,,5ffe516acbc37a4ae7eac4a1,Latin America (Costa Rica),13 or older,"no, only English or Spanish",no,2025-08-13_19h28.12.939,empathy_intonation_perc_control,2024.2.4,Win32,60.24096386,5ffe516acbc37a4ae7eac4a1,68817205a84113384fffdfe3,689d1f41a7da59d7c12263e8,,,,,,,,,,,,,0,,,,,,,,,,,,,,,,,,,,,,,,,,,,,,,,,,,,,27,acutación,,,,,464.2619,465.6245,0,1,0.8359,,0,82,82,26,1,REAL,FAKE,,,,,,,,,,,,,,,,,
,,,,,,,,,5ffe516acbc37a4ae7eac4a1,Latin America (Costa Rica),13 or older,"no, only English or Spanish",no,2025-08-13_19h28.12.939,empathy_intonation_perc_control,2024.2.4,Win32,60.24096386,5ffe516acbc37a4ae7eac4a1,68817205a84113384fffdfe3,689d1f41a7da59d7c12263e8,,,,,,,,,,,,,1,,,,,,,,,,,,,,,,,,,,,,,,,,,,,,,,,,,,,7,pésimo,,,,,465.626,467.1747,0,0,1.0233,,0,83,83,6,1,REAL,FAKE,,,,,,,,,,,,,,,,,
,,,,,,,,,5ffe516acbc37a4ae7eac4a1,Latin America (Costa Rica),13 or older,"no, only English or Spanish",no,2025-08-13_19h28.12.939,empathy_intonation_perc_control,2024.2.4,Win32,60.24096386,5ffe516acbc37a4ae7eac4a1,68817205a84113384fffdfe3,689d1f41a7da59d7c12263e8,,,,,,,,,,,,,1,,,,,,,,,,,,,,,,,,,,,,,,,,,,,,,,,,,,,91,click the 1 key.,,,,,467.1767,469.139,1,1,1.4322,,0,84,84,90,1,REAL,FAKE,,,,,,,,,,,,,,,,,
,,,,,,,,,5ffe516acbc37a4ae7eac4a1,Latin America (Costa Rica),13 or older,"no, only English or Spanish",no,2025-08-13_19h28.12.939,empathy_intonation_perc_control,2024.2.4,Win32,60.24096386,5ffe516acbc37a4ae7eac4a1,68817205a84113384fffdfe3,689d1f41a7da59d7c12263e8,,,,,,,,,,,,,1,,,,,,,,,,,,,,,,,,,,,,,,,,,,,,,,,,,,,39,torpe,,,,,469.1407,470.3554,0,0,0.6827,,0,85,85,38,1,REAL,FAKE,,,,,,,,,,,,,,,,,
,,,,,,,,,5ffe516acbc37a4ae7eac4a1,Latin America (Costa Rica),13 or older,"no, only English or Spanish",no,2025-08-13_19h28.12.939,empathy_intonation_perc_control,2024.2.4,Win32,60.24096386,5ffe516acbc37a4ae7eac4a1,68817205a84113384fffdfe3,689d1f41a7da59d7c12263e8,,,,,,,,,,,,,0,,,,,,,,,,,,,,,,,,,,,,,,,,,,,,,,,,,,,4,batillón,,,,,470.3573,471.8522,0,1,0.9704,,0,86,86,3,1,REAL,FAKE,,,,,,,,,,,,,,,,,
,,,,,,,,,5ffe516acbc37a4ae7eac4a1,Latin America (Costa Rica),13 or older,"no, only English or Spanish",no,2025-08-13_19h28.12.939,empathy_intonation_perc_control,2024.2.4,Win32,60.24096386,5ffe516acbc37a4ae7eac4a1,68817205a84113384fffdfe3,689d1f41a7da59d7c12263e8,,,,,,,,,,,,,0,,,,,,,,,,,,,,,,,,,,,,,,,,,,,,,,,,,,,17,floroso,,,,,471.8539,473.4345,0,1,1.0629,,0,87,87,16,1,REAL,FAKE,,,,,,,,,,,,,,,,,
,,,,,,,,,5ffe516acbc37a4ae7eac4a1,Latin America (Costa Rica),13 or older,"no, only English or Spanish",no,2025-08-13_19h28.12.939,empathy_intonation_perc_control,2024.2.4,Win32,60.24096386,5ffe516acbc37a4ae7eac4a1,68817205a84113384fffdfe3,689d1f41a7da59d7c12263e8,,,,,,,,,,,,,1,,,,,,,,,,,,,,,,,,,,,,,,,,,,,,,,,,,,,48,ladrón,,,,,473.4363,474.734,1,1,0.7641,,0,88,88,47,1,REAL,FAKE,,,,,,,,,,,,,,,,,
,,,,,,,,,5ffe516acbc37a4ae7eac4a1,Latin America (Costa Rica),13 or older,"no, only English or Spanish",no,2025-08-13_19h28.12.939,empathy_intonation_perc_control,2024.2.4,Win32,60.24096386,5ffe516acbc37a4ae7eac4a1,68817205a84113384fffdfe3,689d1f41a7da59d7c12263e8,,,,,,,,,,,,,1,,,,,,,,,,,,,,,,,,,,,,,,,,,,,,,,,,,,,65,bizcocho,,,,,474.7357,476.0822,0,0,0.8129,,0,89,89,64,1,REAL,FAKE,,,,,,,,,,,,,,,,,
,,,,,,,,,5ffe516acbc37a4ae7eac4a1,Latin America (Costa Rica),13 or older,"no, only English or Spanish",no,2025-08-13_19h28.12.939,empathy_intonation_perc_control,2024.2.4,Win32,60.24096386,5ffe516acbc37a4ae7eac4a1,68817205a84113384fffdfe3,689d1f41a7da59d7c12263e8,,,,,,,,,,,,,0,,,,,,,,,,,,,,,,,,,,,,,,,,,,,,,,,,,,,35,rompido,,,,,476.0841,477.8963,1,0,1.2868,,0,90,90,34,1,REAL,FAKE,,,,,,,,,,,,,,,,,
,,,,,,,,,5ffe516acbc37a4ae7eac4a1,Latin America (Costa Rica),13 or older,"no, only English or Spanish",no,2025-08-13_19h28.12.939,empathy_intonation_perc_control,2024.2.4,Win32,60.24096386,5ffe516acbc37a4ae7eac4a1,68817205a84113384fffdfe3,689d1f41a7da59d7c12263e8,,,,,,,,,,,,,0,,,,,,,,,,,,,,,,,,,,,,,,,,,,,,,,,,,,,32,fatacidad,,,,,477.898,479.1457,0,1,0.717,,0,91,91,31,1,REAL,FAKE,,,,,,,,,,,,,,,,,
,,,,,,,,,5ffe516acbc37a4ae7eac4a1,Latin America (Costa Rica),13 or older,"no, only English or Spanish",no,2025-08-13_19h28.12.939,empathy_intonation_perc_control,2024.2.4,Win32,60.24096386,5ffe516acbc37a4ae7eac4a1,68817205a84113384fffdfe3,689d1f41a7da59d7c12263e8,,,,,,,,,,,,,,,,,,,,,,,,,,,,,,,,,,,,,,,,,,,,,,,,,,,,,,,,,,,,,,,,,,,,,479.1465,488.0538,,,,,,,,,,,,,,,
,,,,,,,,,5ffe516acbc37a4ae7eac4a1,Latin America (Costa Rica),13 or older,"no, only English or Spanish",no,2025-08-13_19h28.12.939,empathy_intonation_perc_control,2024.2.4,Win32,60.24096386,5ffe516acbc37a4ae7eac4a1,68817205a84113384fffdfe3,689d1f41a7da59d7c12263e8,,,,,,,,,,,,,,,,,,,,,,,,,,,1,,,,,,,,,,,,,,,,,,,,,,,,,,,,,,,,,,,,,,,,,,,,488.0664,492.5003,slightly disagree,0,0,0,0,1,I can easily tell if someone else wants to enter a conversation.,1,0,1,0,,
,,,,,,,,,5ffe516acbc37a4ae7eac4a1,Latin America (Costa Rica),13 or older,"no, only English or Spanish",no,2025-08-13_19h28.12.939,empathy_intonation_perc_control,2024.2.4,Win32,60.24096386,5ffe516acbc37a4ae7eac4a1,68817205a84113384fffdfe3,689d1f41a7da59d7c12263e8,,,,,,,,,,,,,,,,,,,,,,,,,,,2,,,,,,,,,,,,,,,,,,,,,,,,,,,,,,,,,,,,,,,,,,,,492.5036,494.7316,slightly agree,0,1,1,1,1,I prefer animals to humans.,0,1,0,0,,
,,,,,,,,,5ffe516acbc37a4ae7eac4a1,Latin America (Costa Rica),13 or older,"no, only English or Spanish",no,2025-08-13_19h28.12.939,empathy_intonation_perc_control,2024.2.4,Win32,60.24096386,5ffe516acbc37a4ae7eac4a1,68817205a84113384fffdfe3,689d1f41a7da59d7c12263e8,,,,,,,,,,,,,,,,,,,,,,,,,,,3,,,,,,,,,,,,,,,,,,,,,,,,,,,,,,,,,,,,,,,,,,,,494.7359,497.9333,slightly disagree,0,2,2,2,1,I try to keep up with the current trends and fashions.,0,1,0,0,,
,,,,,,,,,5ffe516acbc37a4ae7eac4a1,Latin America (Costa Rica),13 or older,"no, only English or Spanish",no,2025-08-13_19h28.12.939,empathy_intonation_perc_control,2024.2.4,Win32,60.24096386,5ffe516acbc37a4ae7eac4a1,68817205a84113384fffdfe3,689d1f41a7da59d7c12263e8,,,,,,,,,,,,,,,,,,,,,,,,,,,4,,,,,,,,,,,,,,,,,,,,,,,,,,,,,,,,,,,,,,,,,,,,497.9368,503.923,slightly agree,0,3,3,3,1,"I find it difficult to explain to others things that I understand easily,   when they don't understand it first time.",1,0,0,1,,
,,,,,,,,,5ffe516acbc37a4ae7eac4a1,Latin America (Costa Rica),13 or older,"no, only English or Spanish",no,2025-08-13_19h28.12.939,empathy_intonation_perc_control,2024.2.4,Win32,60.24096386,5ffe516acbc37a4ae7eac4a1,68817205a84113384fffdfe3,689d1f41a7da59d7c12263e8,,,,,,,,,,,,,,,,,,,,,,,,,,,5,,,,,,,,,,,,,,,,,,,,,,,,,,,,,,,,,,,,,,,,,,,,503.9254,506.0211,slightly disagree,0,4,4,4,1,I dream most nights.,0,1,0,0,,
,,,,,,,,,5ffe516acbc37a4ae7eac4a1,Latin America (Costa Rica),13 or older,"no, only English or Spanish",no,2025-08-13_19h28.12.939,empathy_intonation_perc_control,2024.2.4,Win32,60.24096386,5ffe516acbc37a4ae7eac4a1,68817205a84113384fffdfe3,689d1f41a7da59d7c12263e8,,,,,,,,,,,,,,,,,,,,,,,,,,,6,,,,,,,,,,,,,,,,,,,,,,,,,,,,,,,,,,,,,,,,,,,,506.0243,508.9515,slightly agree,0,5,5,5,1,I really enjoy caring for other people.,1,0,1,0,,
,,,,,,,,,5ffe516acbc37a4ae7eac4a1,Latin America (Costa Rica),13 or older,"no, only English or Spanish",no,2025-08-13_19h28.12.939,empathy_intonation_perc_control,2024.2.4,Win32,60.24096386,5ffe516acbc37a4ae7eac4a1,68817205a84113384fffdfe3,689d1f41a7da59d7c12263e8,,,,,,,,,,,,,,,,,,,,,,,,,,,7,,,,,,,,,,,,,,,,,,,,,,,,,,,,,,,,,,,,,,,,,,,,508.9547,511.3715,slightly agree,0,6,6,6,1,I try to solve my own problems rather than discussing them with others.,0,1,0,0,,
,,,,,,,,,5ffe516acbc37a4ae7eac4a1,Latin America (Costa Rica),13 or older,"no, only English or Spanish",no,2025-08-13_19h28.12.939,empathy_intonation_perc_control,2024.2.4,Win32,60.24096386,5ffe516acbc37a4ae7eac4a1,68817205a84113384fffdfe3,689d1f41a7da59d7c12263e8,,,,,,,,,,,,,,,,,,,,,,,,,,,8,,,,,,,,,,,,,,,,,,,,,,,,,,,,,,,,,,,,,,,,,,,,511.3729,514.1353,strongly agree,0,7,7,7,1,I find it hard to know what to do in a social situation.,1,0,0,1,,
,,,,,,,,,5ffe516acbc37a4ae7eac4a1,Latin America (Costa Rica),13 or older,"no, only English or Spanish",no,2025-08-13_19h28.12.939,empathy_intonation_perc_control,2024.2.4,Win32,60.24096386,5ffe516acbc37a4ae7eac4a1,68817205a84113384fffdfe3,689d1f41a7da59d7c12263e8,,,,,,,,,,,,,,,,,,,,,,,,,,,9,,,,,,,,,,,,,,,,,,,,,,,,,,,,,,,,,,,,,,,,,,,,514.1367,518.0097,strongly disagree,0,8,8,8,1,I am at my best first thing in the morning.,0,1,0,0,,
,,,,,,,,,5ffe516acbc37a4ae7eac4a1,Latin America (Costa Rica),13 or older,"no, only English or Spanish",no,2025-08-13_19h28.12.939,empathy_intonation_perc_control,2024.2.4,Win32,60.24096386,5ffe516acbc37a4ae7eac4a1,68817205a84113384fffdfe3,689d1f41a7da59d7c12263e8,,,,,,,,,,,,,,,,,,,,,,,,,,,10,,,,,,,,,,,,,,,,,,,,,,,,,,,,,,,,,,,,,,,,,,,,518.0131,523.306,slightly agree,0,9,9,9,1,People often tell me that I went too far in driving my point home in a discussion.,1,0,0,1,,
,,,,,,,,,5ffe516acbc37a4ae7eac4a1,Latin America (Costa Rica),13 or older,"no, only English or Spanish",no,2025-08-13_19h28.12.939,empathy_intonation_perc_control,2024.2.4,Win32,60.24096386,5ffe516acbc37a4ae7eac4a1,68817205a84113384fffdfe3,689d1f41a7da59d7c12263e8,,,,,,,,,,,,,,,,,,,,,,,,,,,11,,,,,,,,,,,,,,,,,,,,,,,,,,,,,,,,,,,,,,,,,,,,523.3088,526.6419,strongly disagree,0,10,10,10,1,It doesn't bother me too much if I am late meeting a friend.,1,0,0,1,,
,,,,,,,,,5ffe516acbc37a4ae7eac4a1,Latin America (Costa Rica),13 or older,"no, only English or Spanish",no,2025-08-13_19h28.12.939,empathy_intonation_perc_control,2024.2.4,Win32,60.24096386,5ffe516acbc37a4ae7eac4a1,68817205a84113384fffdfe3,689d1f41a7da59d7c12263e8,,,,,,,,,,,,,,,,,,,,,,,,,,,12,,,,,,,,,,,,,,,,,,,,,,,,,,,,,,,,,,,,,,,,,,,,526.644,530.1196,slightly disagree,0,11,11,11,1,"Friendships and relationships are just too difficult, so I tend not to 
  bother with them.",1,0,0,1,,
,,,,,,,,,5ffe516acbc37a4ae7eac4a1,Latin America (Costa Rica),13 or older,"no, only English or Spanish",no,2025-08-13_19h28.12.939,empathy_intonation_perc_control,2024.2.4,Win32,60.24096386,5ffe516acbc37a4ae7eac4a1,68817205a84113384fffdfe3,689d1f41a7da59d7c12263e8,,,,,,,,,,,,,,,,,,,,,,,,,,,13,,,,,,,,,,,,,,,,,,,,,,,,,,,,,,,,,,,,,,,,,,,,530.1217,532.3696,slightly disagree,0,12,12,12,1,"I would never break a law, no matter how minor.",0,1,0,0,,
,,,,,,,,,5ffe516acbc37a4ae7eac4a1,Latin America (Costa Rica),13 or older,"no, only English or Spanish",no,2025-08-13_19h28.12.939,empathy_intonation_perc_control,2024.2.4,Win32,60.24096386,5ffe516acbc37a4ae7eac4a1,68817205a84113384fffdfe3,689d1f41a7da59d7c12263e8,,,,,,,,,,,,,,,,,,,,,,,,,,,14,,,,,,,,,,,,,,,,,,,,,,,,,,,,,,,,,,,,,,,,,,,,532.3716,536.2324,slightly agree,0,13,13,13,1,I often find it difficult to judge if something is rude or polite.,1,0,0,1,,
,,,,,,,,,5ffe516acbc37a4ae7eac4a1,Latin America (Costa Rica),13 or older,"no, only English or Spanish",no,2025-08-13_19h28.12.939,empathy_intonation_perc_control,2024.2.4,Win32,60.24096386,5ffe516acbc37a4ae7eac4a1,68817205a84113384fffdfe3,689d1f41a7da59d7c12263e8,,,,,,,,,,,,,,,,,,,,,,,,,,,15,,,,,,,,,,,,,,,,,,,,,,,,,,,,,,,,,,,,,,,,,,,,536.234,541.2772,slightly agree,0,14,14,14,1,"In a conversation, I tend to focus on my own thoughts rather than on what 
  my listener might be thinking.",1,0,0,1,,
