instructions_2afc.started,instructions_2afc.stopped,instructions_2afc_loop.thisRepN,instructions_2afc_loop.thisTrialN,instructions_2afc_loop.thisN,instructions_2afc_loop.thisIndex,instructions_2afc_loop.ran,instructions_text,continue_text,participant_id,"What variety of Spanish are you most familiar with? (e.g., Peruvian, Spanish, Mexican)",At what age did you begin learning Spanish?,Are you proficient in any languages other than English/Spanish?,"Are you familiar with Caribbean (e.g., Caribbean, Puerto Rican) or Galician Spanish?",date,expName,psychopyVersion,OS,frameRate,id,study_id,session,practice_2afc.started,practice_2afc.stopped,key_resp_2afc_practice.keys,key_resp_2afc_practice.corr,key_resp_2afc_practice.rt,key_resp_2afc_practice.duration,trials_2afc_practice_loop.thisRepN,trials_2afc_practice_loop.thisTrialN,trials_2afc_practice_loop.thisN,trials_2afc_practice_loop.thisIndex,trials_2afc_practice_loop.ran,path,correct_response,check_2afc.started,check_2afc.stopped,trial_2afc.started,trial_2afc.stopped,key_resp_2afc_trial.keys,key_resp_2afc_trial.corr,key_resp_2afc_trial.rt,key_resp_2afc_trial.duration,trials_2afc_loop.thisRepN,trials_2afc_loop.thisTrialN,trials_2afc_loop.thisN,trials_2afc_loop.thisIndex,trials_2afc_loop.ran,item_num,target,variety,instructions_lextale.started,instructions_lextale.stopped,instructions_lextale_loop.thisRepN,instructions_lextale_loop.thisTrialN,instructions_lextale_loop.thisN,instructions_lextale_loop.thisIndex,instructions_lextale_loop.ran,practice_lextale.started,practice_lextale.stopped,key_resp_lextale_practice.keys,key_resp_lextale_practice.corr,key_resp_lextale_practice.rt,key_resp_lextale_practice.duration,practice_feedback_lextale.started,practice_feedback_lextale.stopped,trials_lextale_practice_loop.thisRepN,trials_lextale_practice_loop.thisTrialN,trials_lextale_practice_loop.thisN,trials_lextale_practice_loop.thisIndex,trials_lextale_practice_loop.ran,stim,word,prac_button_real,prac_button_false,check_lextale.started,check_lextale.stopped,trial_lextale.started,trial_lextale.stopped,key_resp_lextale_trial.keys,key_resp_lextale_trial.corr,key_resp_lextale_trial.rt,key_resp_lextale_trial.duration,trials_lextale_loop.thisRepN,trials_lextale_loop.thisTrialN,trials_lextale_loop.thisN,trials_lextale_loop.thisIndex,trials_lextale_loop.ran,button_real,button_false,instructions_eq.started,instructions_eq.stopped,trial_eq.started,trial_eq.stopped,slider_eq_trial.response,trials_eq_loop.thisRepN,trials_eq_loop.thisTrialN,trials_eq_loop.thisN,trials_eq_loop.thisIndex,trials_eq_loop.ran,item,is_test_item,is_distractor,is_agree_score,is_disagree_score,end_exp.started,end_exp.stopped
0.0133,7.43,0,0,0,0,1,"In the following task you are going to hear a series of utterances. 

  You will decide if the utterances sound like questions or not using your keyboard.", (press the spacebar to continue),60370d269f029917f89b4514,"Mexican, Puerto Rican, New Yoriquen",13 or older,"no, only English or Spanish",yes,2025-08-12_15h22.00.908,empathy_intonation_perc_control,2024.2.4,Win32,60.24096386,60370d269f029917f89b4514,68817205a84113384fffdfe3,689b940454a62c92078eaeb9,,,,,,,,,,,,,,,,,,,,,,,,,,,,,,,,,,,,,,,,,,,,,,,,,,,,,,,,,,,,,,,,,,,,,,,,,,,,,,,,,,,,,
7.4323,15.0496,0,1,1,1,1,"If you believe the utterance is a question, type '1' (for 'yes') and if you do not 
  believe it is a question type '0' (for 'no').

  Let's practice a bit...", (press the spacebar to continue),60370d269f029917f89b4514,"Mexican, Puerto Rican, New Yoriquen",13 or older,"no, only English or Spanish",yes,2025-08-12_15h22.00.908,empathy_intonation_perc_control,2024.2.4,Win32,60.24096386,60370d269f029917f89b4514,68817205a84113384fffdfe3,689b940454a62c92078eaeb9,,,,,,,,,,,,,,,,,,,,,,,,,,,,,,,,,,,,,,,,,,,,,,,,,,,,,,,,,,,,,,,,,,,,,,,,,,,,,,,,,,,,,
,,,,,,,,,60370d269f029917f89b4514,"Mexican, Puerto Rican, New Yoriquen",13 or older,"no, only English or Spanish",yes,2025-08-12_15h22.00.908,empathy_intonation_perc_control,2024.2.4,Win32,60.24096386,60370d269f029917f89b4514,68817205a84113384fffdfe3,689b940454a62c92078eaeb9,15.0611,19.2018,0,0,3.6244,,0,0,0,2,1,./stim/wavs/chilean_question_filler_Mi-padre-cantaba-bien.wav,1,,,,,,,,,,,,,,,,,,,,,,,,,,,,,,,,,,,,,,,,,,,,,,,,,,,,,,,,,,,,,,,,,,,,,,,,
,,,,,,,,,60370d269f029917f89b4514,"Mexican, Puerto Rican, New Yoriquen",13 or older,"no, only English or Spanish",yes,2025-08-12_15h22.00.908,empathy_intonation_perc_control,2024.2.4,Win32,60.24096386,60370d269f029917f89b4514,68817205a84113384fffdfe3,689b940454a62c92078eaeb9,19.203,22.7689,1,1,3.0393,,0,1,1,0,1,./stim/wavs/castilian_question_filler_Mi-esposo-conoce-al-chico.wav,1,,,,,,,,,,,,,,,,,,,,,,,,,,,,,,,,,,,,,,,,,,,,,,,,,,,,,,,,,,,,,,,,,,,,,,,,
,,,,,,,,,60370d269f029917f89b4514,"Mexican, Puerto Rican, New Yoriquen",13 or older,"no, only English or Spanish",yes,2025-08-12_15h22.00.908,empathy_intonation_perc_control,2024.2.4,Win32,60.24096386,60370d269f029917f89b4514,68817205a84113384fffdfe3,689b940454a62c92078eaeb9,22.77,25.12,1,1,1.8282,,0,2,2,1,1,./stim/wavs/argentine_question_filler_Mi-vecino-habla-mucho.wav,1,,,,,,,,,,,,,,,,,,,,,,,,,,,,,,,,,,,,,,,,,,,,,,,,,,,,,,,,,,,,,,,,,,,,,,,,
,,,,,,,,,60370d269f029917f89b4514,"Mexican, Puerto Rican, New Yoriquen",13 or older,"no, only English or Spanish",yes,2025-08-12_15h22.00.908,empathy_intonation_perc_control,2024.2.4,Win32,60.24096386,60370d269f029917f89b4514,68817205a84113384fffdfe3,689b940454a62c92078eaeb9,25.1208,27.7379,0,1,2.0905,,0,3,3,7,1,./stim/wavs/puertorican_statement_filler_La-nina-pinta-con-su-amiga.wav,0,,,,,,,,,,,,,,,,,,,,,,,,,,,,,,,,,,,,,,,,,,,,,,,,,,,,,,,,,,,,,,,,,,,,,,,,
,,,,,,,,,60370d269f029917f89b4514,"Mexican, Puerto Rican, New Yoriquen",13 or older,"no, only English or Spanish",yes,2025-08-12_15h22.00.908,empathy_intonation_perc_control,2024.2.4,Win32,60.24096386,60370d269f029917f89b4514,68817205a84113384fffdfe3,689b940454a62c92078eaeb9,27.7389,30.1889,0,1,1.9254,,0,4,4,4,1,./stim/wavs/cuban_statement_filler_Cocinabas-por-la-noche.wav,0,,,,,,,,,,,,,,,,,,,,,,,,,,,,,,,,,,,,,,,,,,,,,,,,,,,,,,,,,,,,,,,,,,,,,,,,
,,,,,,,,,60370d269f029917f89b4514,"Mexican, Puerto Rican, New Yoriquen",13 or older,"no, only English or Spanish",yes,2025-08-12_15h22.00.908,empathy_intonation_perc_control,2024.2.4,Win32,60.24096386,60370d269f029917f89b4514,68817205a84113384fffdfe3,689b940454a62c92078eaeb9,30.1897,33.1565,0,1,2.4345,,0,5,5,6,1,./stim/wavs/peruvian_statement_filler_El-nino-habla-con-su-madre.wav,0,,,,,,,,,,,,,,,,,,,,,,,,,,,,,,,,,,,,,,,,,,,,,,,,,,,,,,,,,,,,,,,,,,,,,,,,
,,,,,,,,,60370d269f029917f89b4514,"Mexican, Puerto Rican, New Yoriquen",13 or older,"no, only English or Spanish",yes,2025-08-12_15h22.00.908,empathy_intonation_perc_control,2024.2.4,Win32,60.24096386,60370d269f029917f89b4514,68817205a84113384fffdfe3,689b940454a62c92078eaeb9,33.1573,35.8282,1,1,2.1503,,0,6,6,3,1,./stim/wavs/mexican_question_filler_Felipe-no-tiene-contrasena.wav,1,,,,,,,,,,,,,,,,,,,,,,,,,,,,,,,,,,,,,,,,,,,,,,,,,,,,,,,,,,,,,,,,,,,,,,,,
,,,,,,,,,60370d269f029917f89b4514,"Mexican, Puerto Rican, New Yoriquen",13 or older,"no, only English or Spanish",yes,2025-08-12_15h22.00.908,empathy_intonation_perc_control,2024.2.4,Win32,60.24096386,60370d269f029917f89b4514,68817205a84113384fffdfe3,689b940454a62c92078eaeb9,35.8289,38.6081,0,1,2.2623,,0,7,7,5,1,./stim/wavs/andalusian_statement_filler_Alberto-nunca-se-afeita.wav,0,,,,,,,,,,,,,,,,,,,,,,,,,,,,,,,,,,,,,,,,,,,,,,,,,,,,,,,,,,,,,,,,,,,,,,,,
,,,,,,,,,60370d269f029917f89b4514,"Mexican, Puerto Rican, New Yoriquen",13 or older,"no, only English or Spanish",yes,2025-08-12_15h22.00.908,empathy_intonation_perc_control,2024.2.4,Win32,60.24096386,60370d269f029917f89b4514,68817205a84113384fffdfe3,689b940454a62c92078eaeb9,,,,,,,,,,,,,,38.6084,42.7438,,,,,,,,,,,,,,,,,,,,,,,,,,,,,,,,,,,,,,,,,,,,,,,,,,,,,,,,,,,,,,,,,,,,,,
,,,,,,,,,60370d269f029917f89b4514,"Mexican, Puerto Rican, New Yoriquen",13 or older,"no, only English or Spanish",yes,2025-08-12_15h22.00.908,empathy_intonation_perc_control,2024.2.4,Win32,60.24096386,60370d269f029917f89b4514,68817205a84113384fffdfe3,689b940454a62c92078eaeb9,,,,,,,,,,,,./stim/wavs/puertorican_match_interrogative-total-yn_Manuela-vende-el-carro.wav,1,,,42.7544,45.2115,0,0,1.9399,,0,0,0,22,1,23,1,puertorican,,,,,,,,,,,,,,,,,,,,,,,,,,,,,,,,,,,,,,,,,,,,,,,,,,,,,,,,
,,,,,,,,,60370d269f029917f89b4514,"Mexican, Puerto Rican, New Yoriquen",13 or older,"no, only English or Spanish",yes,2025-08-12_15h22.00.908,empathy_intonation_perc_control,2024.2.4,Win32,60.24096386,60370d269f029917f89b4514,68817205a84113384fffdfe3,689b940454a62c92078eaeb9,,,,,,,,,,,,./stim/wavs/castilian_mismatch_interrogative-total-yn_Mi-tia-odia-la-lluvia.wav,1,,,45.2124,47.5288,1,1,1.7865,,0,1,1,28,1,29,0,castilian,,,,,,,,,,,,,,,,,,,,,,,,,,,,,,,,,,,,,,,,,,,,,,,,,,,,,,,,
,,,,,,,,,60370d269f029917f89b4514,"Mexican, Puerto Rican, New Yoriquen",13 or older,"no, only English or Spanish",yes,2025-08-12_15h22.00.908,empathy_intonation_perc_control,2024.2.4,Win32,60.24096386,60370d269f029917f89b4514,68817205a84113384fffdfe3,689b940454a62c92078eaeb9,,,,,,,,,,,,./stim/wavs/castilian_mismatch_declarative-broad-focus_La-nina-lava-el-plato.wav,0,,,47.5295,49.9631,0,1,1.9012,,0,2,2,70,1,71,0,castilian,,,,,,,,,,,,,,,,,,,,,,,,,,,,,,,,,,,,,,,,,,,,,,,,,,,,,,,,
,,,,,,,,,60370d269f029917f89b4514,"Mexican, Puerto Rican, New Yoriquen",13 or older,"no, only English or Spanish",yes,2025-08-12_15h22.00.908,empathy_intonation_perc_control,2024.2.4,Win32,60.24096386,60370d269f029917f89b4514,68817205a84113384fffdfe3,689b940454a62c92078eaeb9,,,,,,,,,,,,./stim/wavs/cuban_mismatch_interrogative-total-yn_El-hombre-mira-la-luna.wav,1,,,49.9639,52.1305,0,0,1.6442,,0,3,3,29,1,30,1,cuban,,,,,,,,,,,,,,,,,,,,,,,,,,,,,,,,,,,,,,,,,,,,,,,,,,,,,,,,
,,,,,,,,,60370d269f029917f89b4514,"Mexican, Puerto Rican, New Yoriquen",13 or older,"no, only English or Spanish",yes,2025-08-12_15h22.00.908,empathy_intonation_perc_control,2024.2.4,Win32,60.24096386,60370d269f029917f89b4514,68817205a84113384fffdfe3,689b940454a62c92078eaeb9,,,,,,,,,,,,./stim/wavs/cuban_match_interrogative-total-yn_Marta-abre-el-regalo.wav,1,,,52.1312,54.2146,0,0,1.5506,,0,4,4,11,1,12,1,cuban,,,,,,,,,,,,,,,,,,,,,,,,,,,,,,,,,,,,,,,,,,,,,,,,,,,,,,,,
,,,,,,,,,60370d269f029917f89b4514,"Mexican, Puerto Rican, New Yoriquen",13 or older,"no, only English or Spanish",yes,2025-08-12_15h22.00.908,empathy_intonation_perc_control,2024.2.4,Win32,60.24096386,60370d269f029917f89b4514,68817205a84113384fffdfe3,689b940454a62c92078eaeb9,,,,,,,,,,,,./stim/wavs/castilian_match_declarative-broad-focus_Mariano-habla-del-tiempo.wav,0,,,54.2152,56.649,0,1,1.905,,0,5,5,48,1,49,0,castilian,,,,,,,,,,,,,,,,,,,,,,,,,,,,,,,,,,,,,,,,,,,,,,,,,,,,,,,,
,,,,,,,,,60370d269f029917f89b4514,"Mexican, Puerto Rican, New Yoriquen",13 or older,"no, only English or Spanish",yes,2025-08-12_15h22.00.908,empathy_intonation_perc_control,2024.2.4,Win32,60.24096386,60370d269f029917f89b4514,68817205a84113384fffdfe3,689b940454a62c92078eaeb9,,,,,,,,,,,,./stim/wavs/mexican_mismatch_declarative-broad-focus_Mi-novio-viene-del-lago.wav,0,,,56.6498,58.683,0,1,1.5045,,0,6,6,81,1,82,0,mexican,,,,,,,,,,,,,,,,,,,,,,,,,,,,,,,,,,,,,,,,,,,,,,,,,,,,,,,,
,,,,,,,,,60370d269f029917f89b4514,"Mexican, Puerto Rican, New Yoriquen",13 or older,"no, only English or Spanish",yes,2025-08-12_15h22.00.908,empathy_intonation_perc_control,2024.2.4,Win32,60.24096386,60370d269f029917f89b4514,68817205a84113384fffdfe3,689b940454a62c92078eaeb9,,,,,,,,,,,,./stim/wavs/mexican_mismatch_interrogative-total-yn_El-hombre-mira-la-luna.wav,1,,,58.6836,60.8839,1,1,1.6761,,0,7,7,34,1,35,0,mexican,,,,,,,,,,,,,,,,,,,,,,,,,,,,,,,,,,,,,,,,,,,,,,,,,,,,,,,,
,,,,,,,,,60370d269f029917f89b4514,"Mexican, Puerto Rican, New Yoriquen",13 or older,"no, only English or Spanish",yes,2025-08-12_15h22.00.908,empathy_intonation_perc_control,2024.2.4,Win32,60.24096386,60370d269f029917f89b4514,68817205a84113384fffdfe3,689b940454a62c92078eaeb9,,,,,,,,,,,,./stim/wavs/mexican_mismatch_interrogative-total-yn_La-maestra-vive-en-Paris.wav,1,,,60.8845,63.4348,1,1,2.0176,,0,8,8,36,1,37,0,mexican,,,,,,,,,,,,,,,,,,,,,,,,,,,,,,,,,,,,,,,,,,,,,,,,,,,,,,,,
,,,,,,,,,60370d269f029917f89b4514,"Mexican, Puerto Rican, New Yoriquen",13 or older,"no, only English or Spanish",yes,2025-08-12_15h22.00.908,empathy_intonation_perc_control,2024.2.4,Win32,60.24096386,60370d269f029917f89b4514,68817205a84113384fffdfe3,689b940454a62c92078eaeb9,,,,,,,,,,,,./stim/wavs/mexican_match_interrogative-total-yn_Mariano-habla-del-tiempo.wav,1,,,63.4354,65.7353,1,1,1.7782,,0,9,9,16,1,17,0,mexican,,,,,,,,,,,,,,,,,,,,,,,,,,,,,,,,,,,,,,,,,,,,,,,,,,,,,,,,
,,,,,,,,,60370d269f029917f89b4514,"Mexican, Puerto Rican, New Yoriquen",13 or older,"no, only English or Spanish",yes,2025-08-12_15h22.00.908,empathy_intonation_perc_control,2024.2.4,Win32,60.24096386,60370d269f029917f89b4514,68817205a84113384fffdfe3,689b940454a62c92078eaeb9,,,,,,,,,,,,./stim/wavs/mexican_match_interrogative-total-yn_Marta-abre-el-regalo.wav,1,,,65.7358,67.7196,1,1,1.4559,,0,10,10,17,1,18,0,mexican,,,,,,,,,,,,,,,,,,,,,,,,,,,,,,,,,,,,,,,,,,,,,,,,,,,,,,,,
,,,,,,,,,60370d269f029917f89b4514,"Mexican, Puerto Rican, New Yoriquen",13 or older,"no, only English or Spanish",yes,2025-08-12_15h22.00.908,empathy_intonation_perc_control,2024.2.4,Win32,60.24096386,60370d269f029917f89b4514,68817205a84113384fffdfe3,689b940454a62c92078eaeb9,,,,,,,,,,,,./stim/wavs/cuban_match_interrogative-total-yn_Daniel-iba-a-Bolivia.wav,1,,,67.7202,69.8704,0,0,1.6276,,0,11,11,7,1,8,1,cuban,,,,,,,,,,,,,,,,,,,,,,,,,,,,,,,,,,,,,,,,,,,,,,,,,,,,,,,,
,,,,,,,,,60370d269f029917f89b4514,"Mexican, Puerto Rican, New Yoriquen",13 or older,"no, only English or Spanish",yes,2025-08-12_15h22.00.908,empathy_intonation_perc_control,2024.2.4,Win32,60.24096386,60370d269f029917f89b4514,68817205a84113384fffdfe3,689b940454a62c92078eaeb9,,,,,,,,,,,,./stim/wavs/castilian_mismatch_declarative-broad-focus_Mi-tia-odia-la-lluvia.wav,0,,,69.8711,72.1383,0,1,1.7375,,0,12,12,72,1,73,0,castilian,,,,,,,,,,,,,,,,,,,,,,,,,,,,,,,,,,,,,,,,,,,,,,,,,,,,,,,,
,,,,,,,,,60370d269f029917f89b4514,"Mexican, Puerto Rican, New Yoriquen",13 or older,"no, only English or Spanish",yes,2025-08-12_15h22.00.908,empathy_intonation_perc_control,2024.2.4,Win32,60.24096386,60370d269f029917f89b4514,68817205a84113384fffdfe3,689b940454a62c92078eaeb9,,,,,,,,,,,,./stim/wavs/mexican_match_declarative-broad-focus_Daniel-iba-a-Bolivia.wav,0,,,72.1391,74.1556,0,1,1.489,,0,13,13,57,1,58,0,mexican,,,,,,,,,,,,,,,,,,,,,,,,,,,,,,,,,,,,,,,,,,,,,,,,,,,,,,,,
,,,,,,,,,60370d269f029917f89b4514,"Mexican, Puerto Rican, New Yoriquen",13 or older,"no, only English or Spanish",yes,2025-08-12_15h22.00.908,empathy_intonation_perc_control,2024.2.4,Win32,60.24096386,60370d269f029917f89b4514,68817205a84113384fffdfe3,689b940454a62c92078eaeb9,,,,,,,,,,,,./stim/wavs/castilian_match_declarative-broad-focus_Emilio-ama-la-marcha.wav,0,,,74.1562,76.4396,0,1,1.7574,,0,14,14,45,1,46,0,castilian,,,,,,,,,,,,,,,,,,,,,,,,,,,,,,,,,,,,,,,,,,,,,,,,,,,,,,,,
,,,,,,,,,60370d269f029917f89b4514,"Mexican, Puerto Rican, New Yoriquen",13 or older,"no, only English or Spanish",yes,2025-08-12_15h22.00.908,empathy_intonation_perc_control,2024.2.4,Win32,60.24096386,60370d269f029917f89b4514,68817205a84113384fffdfe3,689b940454a62c92078eaeb9,,,,,,,,,,,,./stim/wavs/cuban_match_interrogative-total-yn_Maria-bebe-el-vino.wav,1,,,76.4402,78.7242,0,0,1.7507,,0,15,15,9,1,10,1,cuban,,,,,,,,,,,,,,,,,,,,,,,,,,,,,,,,,,,,,,,,,,,,,,,,,,,,,,,,
,,,,,,,,,60370d269f029917f89b4514,"Mexican, Puerto Rican, New Yoriquen",13 or older,"no, only English or Spanish",yes,2025-08-12_15h22.00.908,empathy_intonation_perc_control,2024.2.4,Win32,60.24096386,60370d269f029917f89b4514,68817205a84113384fffdfe3,689b940454a62c92078eaeb9,,,,,,,,,,,,./stim/wavs/cuban_match_declarative-broad-focus_Manuela-vende-el-carro.wav,0,,,78.7248,80.9415,0,1,1.6911,,0,16,16,52,1,53,0,cuban,,,,,,,,,,,,,,,,,,,,,,,,,,,,,,,,,,,,,,,,,,,,,,,,,,,,,,,,
,,,,,,,,,60370d269f029917f89b4514,"Mexican, Puerto Rican, New Yoriquen",13 or older,"no, only English or Spanish",yes,2025-08-12_15h22.00.908,empathy_intonation_perc_control,2024.2.4,Win32,60.24096386,60370d269f029917f89b4514,68817205a84113384fffdfe3,689b940454a62c92078eaeb9,,,,,,,,,,,,./stim/wavs/castilian_mismatch_declarative-broad-focus_La-maestra-vive-en-Paris.wav,0,,,80.9422,83.4088,0,1,1.9455,,0,17,17,69,1,70,0,castilian,,,,,,,,,,,,,,,,,,,,,,,,,,,,,,,,,,,,,,,,,,,,,,,,,,,,,,,,
,,,,,,,,,60370d269f029917f89b4514,"Mexican, Puerto Rican, New Yoriquen",13 or older,"no, only English or Spanish",yes,2025-08-12_15h22.00.908,empathy_intonation_perc_control,2024.2.4,Win32,60.24096386,60370d269f029917f89b4514,68817205a84113384fffdfe3,689b940454a62c92078eaeb9,,,,,,,,,,,,./stim/wavs/cuban_match_declarative-broad-focus_Ana-lleva-el-abrigo.wav,0,,,83.4096,85.5267,0,1,1.588,,0,18,18,50,1,51,0,cuban,,,,,,,,,,,,,,,,,,,,,,,,,,,,,,,,,,,,,,,,,,,,,,,,,,,,,,,,
,,,,,,,,,60370d269f029917f89b4514,"Mexican, Puerto Rican, New Yoriquen",13 or older,"no, only English or Spanish",yes,2025-08-12_15h22.00.908,empathy_intonation_perc_control,2024.2.4,Win32,60.24096386,60370d269f029917f89b4514,68817205a84113384fffdfe3,689b940454a62c92078eaeb9,,,,,,,,,,,,./stim/wavs/castilian_match_declarative-broad-focus_Maria-bebe-el-vino.wav,0,,,85.5275,87.6274,0,1,1.57,,0,19,19,47,1,48,0,castilian,,,,,,,,,,,,,,,,,,,,,,,,,,,,,,,,,,,,,,,,,,,,,,,,,,,,,,,,
,,,,,,,,,60370d269f029917f89b4514,"Mexican, Puerto Rican, New Yoriquen",13 or older,"no, only English or Spanish",yes,2025-08-12_15h22.00.908,empathy_intonation_perc_control,2024.2.4,Win32,60.24096386,60370d269f029917f89b4514,68817205a84113384fffdfe3,689b940454a62c92078eaeb9,,,,,,,,,,,,./stim/wavs/castilian_match_declarative-broad-focus_David-leia-el-libro.wav,0,,,87.6279,89.895,0,1,1.7339,,0,20,20,44,1,45,0,castilian,,,,,,,,,,,,,,,,,,,,,,,,,,,,,,,,,,,,,,,,,,,,,,,,,,,,,,,,
,,,,,,,,,60370d269f029917f89b4514,"Mexican, Puerto Rican, New Yoriquen",13 or older,"no, only English or Spanish",yes,2025-08-12_15h22.00.908,empathy_intonation_perc_control,2024.2.4,Win32,60.24096386,60370d269f029917f89b4514,68817205a84113384fffdfe3,689b940454a62c92078eaeb9,,,,,,,,,,,,./stim/wavs/cuban_mismatch_declarative-broad-focus_Mi-tia-odia-la-lluvia.wav,0,,,89.8956,92.2123,0,1,1.7892,,0,21,21,77,1,78,0,cuban,,,,,,,,,,,,,,,,,,,,,,,,,,,,,,,,,,,,,,,,,,,,,,,,,,,,,,,,
,,,,,,,,,60370d269f029917f89b4514,"Mexican, Puerto Rican, New Yoriquen",13 or older,"no, only English or Spanish",yes,2025-08-12_15h22.00.908,empathy_intonation_perc_control,2024.2.4,Win32,60.24096386,60370d269f029917f89b4514,68817205a84113384fffdfe3,689b940454a62c92078eaeb9,,,,,,,,,,,,./stim/wavs/castilian_match_interrogative-total-yn_Manuela-vende-el-carro.wav,1,,,92.213,94.4633,0,0,1.7226,,0,22,22,2,1,3,0,castilian,,,,,,,,,,,,,,,,,,,,,,,,,,,,,,,,,,,,,,,,,,,,,,,,,,,,,,,,
,,,,,,,,,60370d269f029917f89b4514,"Mexican, Puerto Rican, New Yoriquen",13 or older,"no, only English or Spanish",yes,2025-08-12_15h22.00.908,empathy_intonation_perc_control,2024.2.4,Win32,60.24096386,60370d269f029917f89b4514,68817205a84113384fffdfe3,689b940454a62c92078eaeb9,,,,,,,,,,,,./stim/wavs/mexican_match_interrogative-total-yn_Ana-lleva-el-abrigo.wav,1,,,94.4639,96.5809,1,1,1.5962,,0,23,23,12,1,13,0,mexican,,,,,,,,,,,,,,,,,,,,,,,,,,,,,,,,,,,,,,,,,,,,,,,,,,,,,,,,
,,,,,,,,,60370d269f029917f89b4514,"Mexican, Puerto Rican, New Yoriquen",13 or older,"no, only English or Spanish",yes,2025-08-12_15h22.00.908,empathy_intonation_perc_control,2024.2.4,Win32,60.24096386,60370d269f029917f89b4514,68817205a84113384fffdfe3,689b940454a62c92078eaeb9,,,,,,,,,,,,./stim/wavs/puertorican_match_interrogative-total-yn_Ana-lleva-el-abrigo.wav,1,,,96.5815,98.7982,0,0,1.6947,,0,24,24,18,1,19,1,puertorican,,,,,,,,,,,,,,,,,,,,,,,,,,,,,,,,,,,,,,,,,,,,,,,,,,,,,,,,
,,,,,,,,,60370d269f029917f89b4514,"Mexican, Puerto Rican, New Yoriquen",13 or older,"no, only English or Spanish",yes,2025-08-12_15h22.00.908,empathy_intonation_perc_control,2024.2.4,Win32,60.24096386,60370d269f029917f89b4514,68817205a84113384fffdfe3,689b940454a62c92078eaeb9,,,,,,,,,,,,./stim/wavs/mexican_match_declarative-broad-focus_Mariano-habla-del-tiempo.wav,0,,,98.799,101.1325,0,1,1.8087,,0,25,25,60,1,61,0,mexican,,,,,,,,,,,,,,,,,,,,,,,,,,,,,,,,,,,,,,,,,,,,,,,,,,,,,,,,
,,,,,,,,,60370d269f029917f89b4514,"Mexican, Puerto Rican, New Yoriquen",13 or older,"no, only English or Spanish",yes,2025-08-12_15h22.00.908,empathy_intonation_perc_control,2024.2.4,Win32,60.24096386,60370d269f029917f89b4514,68817205a84113384fffdfe3,689b940454a62c92078eaeb9,,,,,,,,,,,,./stim/wavs/puertorican_match_interrogative-total-yn_Emilio-ama-la-marcha.wav,1,,,101.1332,103.2835,0,0,1.625,,0,26,26,21,1,22,1,puertorican,,,,,,,,,,,,,,,,,,,,,,,,,,,,,,,,,,,,,,,,,,,,,,,,,,,,,,,,
,,,,,,,,,60370d269f029917f89b4514,"Mexican, Puerto Rican, New Yoriquen",13 or older,"no, only English or Spanish",yes,2025-08-12_15h22.00.908,empathy_intonation_perc_control,2024.2.4,Win32,60.24096386,60370d269f029917f89b4514,68817205a84113384fffdfe3,689b940454a62c92078eaeb9,,,,,,,,,,,,./stim/wavs/castilian_match_interrogative-total-yn_Marta-abre-el-regalo.wav,1,,,103.2841,105.7174,1,1,1.9126,,0,27,27,5,1,6,0,castilian,,,,,,,,,,,,,,,,,,,,,,,,,,,,,,,,,,,,,,,,,,,,,,,,,,,,,,,,
,,,,,,,,,60370d269f029917f89b4514,"Mexican, Puerto Rican, New Yoriquen",13 or older,"no, only English or Spanish",yes,2025-08-12_15h22.00.908,empathy_intonation_perc_control,2024.2.4,Win32,60.24096386,60370d269f029917f89b4514,68817205a84113384fffdfe3,689b940454a62c92078eaeb9,,,,,,,,,,,,./stim/wavs/puertorican_match_declarative-broad-focus_Manuela-vende-el-carro.wav,0,,,105.7202,107.8518,0,1,1.6115,,0,28,28,66,1,67,0,puertorican,,,,,,,,,,,,,,,,,,,,,,,,,,,,,,,,,,,,,,,,,,,,,,,,,,,,,,,,
,,,,,,,,,60370d269f029917f89b4514,"Mexican, Puerto Rican, New Yoriquen",13 or older,"no, only English or Spanish",yes,2025-08-12_15h22.00.908,empathy_intonation_perc_control,2024.2.4,Win32,60.24096386,60370d269f029917f89b4514,68817205a84113384fffdfe3,689b940454a62c92078eaeb9,,,,,,,,,,,,./stim/wavs/puertorican_match_declarative-broad-focus_Maria-bebe-el-vino.wav,0,,,107.8525,110.2862,1,0,1.901,,0,29,29,67,1,68,0,puertorican,,,,,,,,,,,,,,,,,,,,,,,,,,,,,,,,,,,,,,,,,,,,,,,,,,,,,,,,
,,,,,,,,,60370d269f029917f89b4514,"Mexican, Puerto Rican, New Yoriquen",13 or older,"no, only English or Spanish",yes,2025-08-12_15h22.00.908,empathy_intonation_perc_control,2024.2.4,Win32,60.24096386,60370d269f029917f89b4514,68817205a84113384fffdfe3,689b940454a62c92078eaeb9,,,,,,,,,,,,./stim/wavs/castilian_match_interrogative-total-yn_David-leia-el-libro.wav,1,,,110.2869,112.8202,1,1,2.0129,,0,30,30,0,1,1,0,castilian,,,,,,,,,,,,,,,,,,,,,,,,,,,,,,,,,,,,,,,,,,,,,,,,,,,,,,,,
,,,,,,,,,60370d269f029917f89b4514,"Mexican, Puerto Rican, New Yoriquen",13 or older,"no, only English or Spanish",yes,2025-08-12_15h22.00.908,empathy_intonation_perc_control,2024.2.4,Win32,60.24096386,60370d269f029917f89b4514,68817205a84113384fffdfe3,689b940454a62c92078eaeb9,,,,,,,,,,,,./stim/wavs/mexican_mismatch_declarative-broad-focus_Mi-tia-odia-la-lluvia.wav,0,,,112.8209,115.1377,0,1,1.7949,,0,31,31,82,1,83,0,mexican,,,,,,,,,,,,,,,,,,,,,,,,,,,,,,,,,,,,,,,,,,,,,,,,,,,,,,,,
,,,,,,,,,60370d269f029917f89b4514,"Mexican, Puerto Rican, New Yoriquen",13 or older,"no, only English or Spanish",yes,2025-08-12_15h22.00.908,empathy_intonation_perc_control,2024.2.4,Win32,60.24096386,60370d269f029917f89b4514,68817205a84113384fffdfe3,689b940454a62c92078eaeb9,,,,,,,,,,,,./stim/wavs/puertorican_match_declarative-broad-focus_Ana-lleva-el-abrigo.wav,0,,,115.1385,117.1219,0,1,1.4612,,0,32,32,62,1,63,0,puertorican,,,,,,,,,,,,,,,,,,,,,,,,,,,,,,,,,,,,,,,,,,,,,,,,,,,,,,,,
,,,,,,,,,60370d269f029917f89b4514,"Mexican, Puerto Rican, New Yoriquen",13 or older,"no, only English or Spanish",yes,2025-08-12_15h22.00.908,empathy_intonation_perc_control,2024.2.4,Win32,60.24096386,60370d269f029917f89b4514,68817205a84113384fffdfe3,689b940454a62c92078eaeb9,,,,,,,,,,,,./stim/wavs/cuban_mismatch_declarative-broad-focus_El-hombre-mira-la-luna.wav,0,,,117.1226,119.1893,0,1,1.5363,,0,33,33,74,1,75,0,cuban,,,,,,,,,,,,,,,,,,,,,,,,,,,,,,,,,,,,,,,,,,,,,,,,,,,,,,,,
,,,,,,,,,60370d269f029917f89b4514,"Mexican, Puerto Rican, New Yoriquen",13 or older,"no, only English or Spanish",yes,2025-08-12_15h22.00.908,empathy_intonation_perc_control,2024.2.4,Win32,60.24096386,60370d269f029917f89b4514,68817205a84113384fffdfe3,689b940454a62c92078eaeb9,,,,,,,,,,,,./stim/wavs/mexican_match_declarative-broad-focus_David-leia-el-libro.wav,0,,,119.1899,121.457,0,1,1.7399,,0,34,34,58,1,59,0,mexican,,,,,,,,,,,,,,,,,,,,,,,,,,,,,,,,,,,,,,,,,,,,,,,,,,,,,,,,
,,,,,,,,,60370d269f029917f89b4514,"Mexican, Puerto Rican, New Yoriquen",13 or older,"no, only English or Spanish",yes,2025-08-12_15h22.00.908,empathy_intonation_perc_control,2024.2.4,Win32,60.24096386,60370d269f029917f89b4514,68817205a84113384fffdfe3,689b940454a62c92078eaeb9,,,,,,,,,,,,./stim/wavs/castilian_mismatch_interrogative-total-yn_Mi-madre-come-la-fruta.wav,1,,,121.4579,123.8246,1,1,1.8342,,0,35,35,26,1,27,0,castilian,,,,,,,,,,,,,,,,,,,,,,,,,,,,,,,,,,,,,,,,,,,,,,,,,,,,,,,,
,,,,,,,,,60370d269f029917f89b4514,"Mexican, Puerto Rican, New Yoriquen",13 or older,"no, only English or Spanish",yes,2025-08-12_15h22.00.908,empathy_intonation_perc_control,2024.2.4,Win32,60.24096386,60370d269f029917f89b4514,68817205a84113384fffdfe3,689b940454a62c92078eaeb9,,,,,,,,,,,,./stim/wavs/mexican_mismatch_interrogative-total-yn_Mi-tia-odia-la-lluvia.wav,1,,,123.8254,126.0254,1,1,1.6771,,0,36,36,38,1,39,0,mexican,,,,,,,,,,,,,,,,,,,,,,,,,,,,,,,,,,,,,,,,,,,,,,,,,,,,,,,,
,,,,,,,,,60370d269f029917f89b4514,"Mexican, Puerto Rican, New Yoriquen",13 or older,"no, only English or Spanish",yes,2025-08-12_15h22.00.908,empathy_intonation_perc_control,2024.2.4,Win32,60.24096386,60370d269f029917f89b4514,68817205a84113384fffdfe3,689b940454a62c92078eaeb9,,,,,,,,,,,,./stim/wavs/mexican_match_declarative-broad-focus_Ana-lleva-el-abrigo.wav,0,,,126.0261,128.0094,0,1,1.4554,,0,37,37,56,1,57,0,mexican,,,,,,,,,,,,,,,,,,,,,,,,,,,,,,,,,,,,,,,,,,,,,,,,,,,,,,,,
,,,,,,,,,60370d269f029917f89b4514,"Mexican, Puerto Rican, New Yoriquen",13 or older,"no, only English or Spanish",yes,2025-08-12_15h22.00.908,empathy_intonation_perc_control,2024.2.4,Win32,60.24096386,60370d269f029917f89b4514,68817205a84113384fffdfe3,689b940454a62c92078eaeb9,,,,,,,,,,,,./stim/wavs/mexican_match_interrogative-total-yn_David-leia-el-libro.wav,1,,,128.01,130.3104,1,1,1.784,,0,38,38,14,1,15,0,mexican,,,,,,,,,,,,,,,,,,,,,,,,,,,,,,,,,,,,,,,,,,,,,,,,,,,,,,,,
,,,,,,,,,60370d269f029917f89b4514,"Mexican, Puerto Rican, New Yoriquen",13 or older,"no, only English or Spanish",yes,2025-08-12_15h22.00.908,empathy_intonation_perc_control,2024.2.4,Win32,60.24096386,60370d269f029917f89b4514,68817205a84113384fffdfe3,689b940454a62c92078eaeb9,,,,,,,,,,,,./stim/wavs/mexican_mismatch_declarative-broad-focus_El-bebe-comia-muy-bien.wav,0,,,130.3111,133.3117,1,0,2.4775,,0,39,39,78,1,79,0,mexican,,,,,,,,,,,,,,,,,,,,,,,,,,,,,,,,,,,,,,,,,,,,,,,,,,,,,,,,
,,,,,,,,,60370d269f029917f89b4514,"Mexican, Puerto Rican, New Yoriquen",13 or older,"no, only English or Spanish",yes,2025-08-12_15h22.00.908,empathy_intonation_perc_control,2024.2.4,Win32,60.24096386,60370d269f029917f89b4514,68817205a84113384fffdfe3,689b940454a62c92078eaeb9,,,,,,,,,,,,./stim/wavs/cuban_mismatch_declarative-broad-focus_Mi-novio-viene-del-lago.wav,0,,,133.3123,135.7794,0,1,1.9344,,0,40,40,76,1,77,0,cuban,,,,,,,,,,,,,,,,,,,,,,,,,,,,,,,,,,,,,,,,,,,,,,,,,,,,,,,,
,,,,,,,,,60370d269f029917f89b4514,"Mexican, Puerto Rican, New Yoriquen",13 or older,"no, only English or Spanish",yes,2025-08-12_15h22.00.908,empathy_intonation_perc_control,2024.2.4,Win32,60.24096386,60370d269f029917f89b4514,68817205a84113384fffdfe3,689b940454a62c92078eaeb9,,,,,,,,,,,,./stim/wavs/castilian_match_declarative-broad-focus_Marta-abre-el-regalo.wav,0,,,135.7802,138.13,0,1,1.8281,,0,41,41,49,1,50,0,castilian,,,,,,,,,,,,,,,,,,,,,,,,,,,,,,,,,,,,,,,,,,,,,,,,,,,,,,,,
,,,,,,,,,60370d269f029917f89b4514,"Mexican, Puerto Rican, New Yoriquen",13 or older,"no, only English or Spanish",yes,2025-08-12_15h22.00.908,empathy_intonation_perc_control,2024.2.4,Win32,60.24096386,60370d269f029917f89b4514,68817205a84113384fffdfe3,689b940454a62c92078eaeb9,,,,,,,,,,,,./stim/wavs/cuban_mismatch_interrogative-total-yn_Mi-tia-odia-la-lluvia.wav,1,,,138.1307,140.4144,0,0,1.7577,,0,42,42,33,1,34,1,cuban,,,,,,,,,,,,,,,,,,,,,,,,,,,,,,,,,,,,,,,,,,,,,,,,,,,,,,,,
,,,,,,,,,60370d269f029917f89b4514,"Mexican, Puerto Rican, New Yoriquen",13 or older,"no, only English or Spanish",yes,2025-08-12_15h22.00.908,empathy_intonation_perc_control,2024.2.4,Win32,60.24096386,60370d269f029917f89b4514,68817205a84113384fffdfe3,689b940454a62c92078eaeb9,,,,,,,,,,,,./stim/wavs/cuban_match_declarative-broad-focus_Daniel-iba-a-Bolivia.wav,0,,,140.4151,143.0486,0,1,2.1006,,0,43,43,51,1,52,0,cuban,,,,,,,,,,,,,,,,,,,,,,,,,,,,,,,,,,,,,,,,,,,,,,,,,,,,,,,,
,,,,,,,,,60370d269f029917f89b4514,"Mexican, Puerto Rican, New Yoriquen",13 or older,"no, only English or Spanish",yes,2025-08-12_15h22.00.908,empathy_intonation_perc_control,2024.2.4,Win32,60.24096386,60370d269f029917f89b4514,68817205a84113384fffdfe3,689b940454a62c92078eaeb9,,,,,,,,,,,,./stim/wavs/castilian_match_interrogative-total-yn_Emilio-ama-la-marcha.wav,1,,,143.0494,145.5329,1,1,1.9507,,0,44,44,1,1,2,0,castilian,,,,,,,,,,,,,,,,,,,,,,,,,,,,,,,,,,,,,,,,,,,,,,,,,,,,,,,,
,,,,,,,,,60370d269f029917f89b4514,"Mexican, Puerto Rican, New Yoriquen",13 or older,"no, only English or Spanish",yes,2025-08-12_15h22.00.908,empathy_intonation_perc_control,2024.2.4,Win32,60.24096386,60370d269f029917f89b4514,68817205a84113384fffdfe3,689b940454a62c92078eaeb9,,,,,,,,,,,,./stim/wavs/puertorican_mismatch_declarative-broad-focus_El-nino-oye-el-rio.wav,0,,,145.5335,147.7339,0,1,1.6717,,0,45,45,85,1,86,0,puertorican,,,,,,,,,,,,,,,,,,,,,,,,,,,,,,,,,,,,,,,,,,,,,,,,,,,,,,,,
,,,,,,,,,60370d269f029917f89b4514,"Mexican, Puerto Rican, New Yoriquen",13 or older,"no, only English or Spanish",yes,2025-08-12_15h22.00.908,empathy_intonation_perc_control,2024.2.4,Win32,60.24096386,60370d269f029917f89b4514,68817205a84113384fffdfe3,689b940454a62c92078eaeb9,,,,,,,,,,,,./stim/wavs/mexican_mismatch_declarative-broad-focus_La-maestra-vive-en-Paris.wav,0,,,147.7346,150.0847,0,1,1.8229,,0,46,46,80,1,81,0,mexican,,,,,,,,,,,,,,,,,,,,,,,,,,,,,,,,,,,,,,,,,,,,,,,,,,,,,,,,
,,,,,,,,,60370d269f029917f89b4514,"Mexican, Puerto Rican, New Yoriquen",13 or older,"no, only English or Spanish",yes,2025-08-12_15h22.00.908,empathy_intonation_perc_control,2024.2.4,Win32,60.24096386,60370d269f029917f89b4514,68817205a84113384fffdfe3,689b940454a62c92078eaeb9,,,,,,,,,,,,./stim/wavs/castilian_match_declarative-broad-focus_Manuela-vende-el-carro.wav,0,,,150.0857,152.5523,0,1,1.9438,,0,47,47,46,1,47,0,castilian,,,,,,,,,,,,,,,,,,,,,,,,,,,,,,,,,,,,,,,,,,,,,,,,,,,,,,,,
,,,,,,,,,60370d269f029917f89b4514,"Mexican, Puerto Rican, New Yoriquen",13 or older,"no, only English or Spanish",yes,2025-08-12_15h22.00.908,empathy_intonation_perc_control,2024.2.4,Win32,60.24096386,60370d269f029917f89b4514,68817205a84113384fffdfe3,689b940454a62c92078eaeb9,,,,,,,,,,,,./stim/wavs/cuban_mismatch_interrogative-total-yn_Mi-madre-come-la-fruta.wav,1,,,152.5529,154.9697,0,0,1.8879,,0,48,48,31,1,32,1,cuban,,,,,,,,,,,,,,,,,,,,,,,,,,,,,,,,,,,,,,,,,,,,,,,,,,,,,,,,
,,,,,,,,,60370d269f029917f89b4514,"Mexican, Puerto Rican, New Yoriquen",13 or older,"no, only English or Spanish",yes,2025-08-12_15h22.00.908,empathy_intonation_perc_control,2024.2.4,Win32,60.24096386,60370d269f029917f89b4514,68817205a84113384fffdfe3,689b940454a62c92078eaeb9,,,,,,,,,,,,./stim/wavs/puertorican_mismatch_interrogative-total-yn_El-nino-oye-el-rio.wav,1,,,154.9703,157.4042,0,0,1.9024,,0,49,49,40,1,41,1,puertorican,,,,,,,,,,,,,,,,,,,,,,,,,,,,,,,,,,,,,,,,,,,,,,,,,,,,,,,,
,,,,,,,,,60370d269f029917f89b4514,"Mexican, Puerto Rican, New Yoriquen",13 or older,"no, only English or Spanish",yes,2025-08-12_15h22.00.908,empathy_intonation_perc_control,2024.2.4,Win32,60.24096386,60370d269f029917f89b4514,68817205a84113384fffdfe3,689b940454a62c92078eaeb9,,,,,,,,,,,,./stim/wavs/castilian_mismatch_declarative-broad-focus_Mi-novio-viene-del-lago.wav,0,,,157.4049,159.8218,0,1,1.8907,,0,50,50,71,1,72,0,castilian,,,,,,,,,,,,,,,,,,,,,,,,,,,,,,,,,,,,,,,,,,,,,,,,,,,,,,,,
,,,,,,,,,60370d269f029917f89b4514,"Mexican, Puerto Rican, New Yoriquen",13 or older,"no, only English or Spanish",yes,2025-08-12_15h22.00.908,empathy_intonation_perc_control,2024.2.4,Win32,60.24096386,60370d269f029917f89b4514,68817205a84113384fffdfe3,689b940454a62c92078eaeb9,,,,,,,,,,,,./stim/wavs/cuban_match_declarative-broad-focus_Mariano-habla-del-tiempo.wav,0,,,159.8225,162.2227,0,1,1.8699,,0,51,51,54,1,55,0,cuban,,,,,,,,,,,,,,,,,,,,,,,,,,,,,,,,,,,,,,,,,,,,,,,,,,,,,,,,
,,,,,,,,,60370d269f029917f89b4514,"Mexican, Puerto Rican, New Yoriquen",13 or older,"no, only English or Spanish",yes,2025-08-12_15h22.00.908,empathy_intonation_perc_control,2024.2.4,Win32,60.24096386,60370d269f029917f89b4514,68817205a84113384fffdfe3,689b940454a62c92078eaeb9,,,,,,,,,,,,./stim/wavs/puertorican_match_declarative-broad-focus_Emilio-ama-la-marcha.wav,0,,,162.2233,164.5735,0,1,1.8179,,0,52,52,65,1,66,0,puertorican,,,,,,,,,,,,,,,,,,,,,,,,,,,,,,,,,,,,,,,,,,,,,,,,,,,,,,,,
,,,,,,,,,60370d269f029917f89b4514,"Mexican, Puerto Rican, New Yoriquen",13 or older,"no, only English or Spanish",yes,2025-08-12_15h22.00.908,empathy_intonation_perc_control,2024.2.4,Win32,60.24096386,60370d269f029917f89b4514,68817205a84113384fffdfe3,689b940454a62c92078eaeb9,,,,,,,,,,,,./stim/wavs/puertorican_match_interrogative-total-yn_Daniel-iba-a-Bolivia.wav,1,,,164.5742,166.8245,0,0,1.7256,,0,53,53,19,1,20,1,puertorican,,,,,,,,,,,,,,,,,,,,,,,,,,,,,,,,,,,,,,,,,,,,,,,,,,,,,,,,
,,,,,,,,,60370d269f029917f89b4514,"Mexican, Puerto Rican, New Yoriquen",13 or older,"no, only English or Spanish",yes,2025-08-12_15h22.00.908,empathy_intonation_perc_control,2024.2.4,Win32,60.24096386,60370d269f029917f89b4514,68817205a84113384fffdfe3,689b940454a62c92078eaeb9,,,,,,,,,,,,./stim/wavs/puertorican_mismatch_interrogative-total-yn_La-maestra-vive-en-Paris.wav,1,,,166.8252,169.2422,0,0,1.8863,,0,54,54,41,1,42,1,puertorican,,,,,,,,,,,,,,,,,,,,,,,,,,,,,,,,,,,,,,,,,,,,,,,,,,,,,,,,
,,,,,,,,,60370d269f029917f89b4514,"Mexican, Puerto Rican, New Yoriquen",13 or older,"no, only English or Spanish",yes,2025-08-12_15h22.00.908,empathy_intonation_perc_control,2024.2.4,Win32,60.24096386,60370d269f029917f89b4514,68817205a84113384fffdfe3,689b940454a62c92078eaeb9,,,,,,,,,,,,./stim/wavs/puertorican_mismatch_declarative-broad-focus_El-hombre-mira-la-luna.wav,0,,,169.2428,171.4263,0,1,1.6589,,0,55,55,84,1,85,0,puertorican,,,,,,,,,,,,,,,,,,,,,,,,,,,,,,,,,,,,,,,,,,,,,,,,,,,,,,,,
,,,,,,,,,60370d269f029917f89b4514,"Mexican, Puerto Rican, New Yoriquen",13 or older,"no, only English or Spanish",yes,2025-08-12_15h22.00.908,empathy_intonation_perc_control,2024.2.4,Win32,60.24096386,60370d269f029917f89b4514,68817205a84113384fffdfe3,689b940454a62c92078eaeb9,,,,,,,,,,,,./stim/wavs/cuban_match_declarative-broad-focus_Maria-bebe-el-vino.wav,0,,,171.427,173.5601,0,1,1.6052,,0,56,56,53,1,54,0,cuban,,,,,,,,,,,,,,,,,,,,,,,,,,,,,,,,,,,,,,,,,,,,,,,,,,,,,,,,
,,,,,,,,,60370d269f029917f89b4514,"Mexican, Puerto Rican, New Yoriquen",13 or older,"no, only English or Spanish",yes,2025-08-12_15h22.00.908,empathy_intonation_perc_control,2024.2.4,Win32,60.24096386,60370d269f029917f89b4514,68817205a84113384fffdfe3,689b940454a62c92078eaeb9,,,,,,,,,,,,./stim/wavs/castilian_mismatch_interrogative-total-yn_La-maestra-vive-en-Paris.wav,1,,,173.5607,176.2113,1,1,2.1177,,0,57,57,24,1,25,0,castilian,,,,,,,,,,,,,,,,,,,,,,,,,,,,,,,,,,,,,,,,,,,,,,,,,,,,,,,,
,,,,,,,,,60370d269f029917f89b4514,"Mexican, Puerto Rican, New Yoriquen",13 or older,"no, only English or Spanish",yes,2025-08-12_15h22.00.908,empathy_intonation_perc_control,2024.2.4,Win32,60.24096386,60370d269f029917f89b4514,68817205a84113384fffdfe3,689b940454a62c92078eaeb9,,,,,,,,,,,,./stim/wavs/cuban_mismatch_interrogative-total-yn_El-nino-oye-el-rio.wav,1,,,176.2119,178.5289,0,0,1.7847,,0,58,58,30,1,31,1,cuban,,,,,,,,,,,,,,,,,,,,,,,,,,,,,,,,,,,,,,,,,,,,,,,,,,,,,,,,
,,,,,,,,,60370d269f029917f89b4514,"Mexican, Puerto Rican, New Yoriquen",13 or older,"no, only English or Spanish",yes,2025-08-12_15h22.00.908,empathy_intonation_perc_control,2024.2.4,Win32,60.24096386,60370d269f029917f89b4514,68817205a84113384fffdfe3,689b940454a62c92078eaeb9,,,,,,,,,,,,./stim/wavs/puertorican_mismatch_declarative-broad-focus_El-bebe-comia-muy-bien.wav,0,,,178.5297,180.7632,0,1,1.7137,,0,59,59,83,1,84,0,puertorican,,,,,,,,,,,,,,,,,,,,,,,,,,,,,,,,,,,,,,,,,,,,,,,,,,,,,,,,
,,,,,,,,,60370d269f029917f89b4514,"Mexican, Puerto Rican, New Yoriquen",13 or older,"no, only English or Spanish",yes,2025-08-12_15h22.00.908,empathy_intonation_perc_control,2024.2.4,Win32,60.24096386,60370d269f029917f89b4514,68817205a84113384fffdfe3,689b940454a62c92078eaeb9,,,,,,,,,,,,./stim/wavs/mexican_match_declarative-broad-focus_Emilio-ama-la-marcha.wav,0,,,180.7639,183.2138,0,1,1.9182,,0,60,60,59,1,60,0,mexican,,,,,,,,,,,,,,,,,,,,,,,,,,,,,,,,,,,,,,,,,,,,,,,,,,,,,,,,
,,,,,,,,,60370d269f029917f89b4514,"Mexican, Puerto Rican, New Yoriquen",13 or older,"no, only English or Spanish",yes,2025-08-12_15h22.00.908,empathy_intonation_perc_control,2024.2.4,Win32,60.24096386,60370d269f029917f89b4514,68817205a84113384fffdfe3,689b940454a62c92078eaeb9,,,,,,,,,,,,./stim/wavs/puertorican_mismatch_interrogative-total-yn_El-hombre-mira-la-luna.wav,1,,,183.2141,185.7482,1,1,2.0245,,0,61,61,39,1,40,1,puertorican,,,,,,,,,,,,,,,,,,,,,,,,,,,,,,,,,,,,,,,,,,,,,,,,,,,,,,,,
,,,,,,,,,60370d269f029917f89b4514,"Mexican, Puerto Rican, New Yoriquen",13 or older,"no, only English or Spanish",yes,2025-08-12_15h22.00.908,empathy_intonation_perc_control,2024.2.4,Win32,60.24096386,60370d269f029917f89b4514,68817205a84113384fffdfe3,689b940454a62c92078eaeb9,,,,,,,,,,,,./stim/wavs/puertorican_mismatch_declarative-broad-focus_La-nina-lava-el-plato.wav,0,,,185.7489,188.1827,0,1,1.9108,,0,62,62,87,1,88,0,puertorican,,,,,,,,,,,,,,,,,,,,,,,,,,,,,,,,,,,,,,,,,,,,,,,,,,,,,,,,
,,,,,,,,,60370d269f029917f89b4514,"Mexican, Puerto Rican, New Yoriquen",13 or older,"no, only English or Spanish",yes,2025-08-12_15h22.00.908,empathy_intonation_perc_control,2024.2.4,Win32,60.24096386,60370d269f029917f89b4514,68817205a84113384fffdfe3,689b940454a62c92078eaeb9,,,,,,,,,,,,./stim/wavs/cuban_match_interrogative-total-yn_Manuela-vende-el-carro.wav,1,,,188.1833,190.2706,0,0,1.5669,,0,63,63,8,1,9,1,cuban,,,,,,,,,,,,,,,,,,,,,,,,,,,,,,,,,,,,,,,,,,,,,,,,,,,,,,,,
,,,,,,,,,60370d269f029917f89b4514,"Mexican, Puerto Rican, New Yoriquen",13 or older,"no, only English or Spanish",yes,2025-08-12_15h22.00.908,empathy_intonation_perc_control,2024.2.4,Win32,60.24096386,60370d269f029917f89b4514,68817205a84113384fffdfe3,689b940454a62c92078eaeb9,,,,,,,,,,,,./stim/wavs/castilian_mismatch_interrogative-total-yn_La-nina-lava-el-plato.wav,1,,,190.2712,192.9009,1,1,2.1056,,0,64,64,25,1,26,0,castilian,,,,,,,,,,,,,,,,,,,,,,,,,,,,,,,,,,,,,,,,,,,,,,,,,,,,,,,,
,,,,,,,,,60370d269f029917f89b4514,"Mexican, Puerto Rican, New Yoriquen",13 or older,"no, only English or Spanish",yes,2025-08-12_15h22.00.908,empathy_intonation_perc_control,2024.2.4,Win32,60.24096386,60370d269f029917f89b4514,68817205a84113384fffdfe3,689b940454a62c92078eaeb9,,,,,,,,,,,,./stim/wavs/puertorican_mismatch_interrogative-total-yn_Mi-madre-come-la-fruta.wav,1,,,192.9016,195.1518,0,0,1.717,,0,65,65,43,1,44,1,puertorican,,,,,,,,,,,,,,,,,,,,,,,,,,,,,,,,,,,,,,,,,,,,,,,,,,,,,,,,
,,,,,,,,,60370d269f029917f89b4514,"Mexican, Puerto Rican, New Yoriquen",13 or older,"no, only English or Spanish",yes,2025-08-12_15h22.00.908,empathy_intonation_perc_control,2024.2.4,Win32,60.24096386,60370d269f029917f89b4514,68817205a84113384fffdfe3,689b940454a62c92078eaeb9,,,,,,,,,,,,./stim/wavs/castilian_mismatch_declarative-broad-focus_El-nino-oye-el-rio.wav,0,,,195.1525,198.1863,0,1,2.5128,,0,66,66,68,1,69,0,castilian,,,,,,,,,,,,,,,,,,,,,,,,,,,,,,,,,,,,,,,,,,,,,,,,,,,,,,,,
,,,,,,,,,60370d269f029917f89b4514,"Mexican, Puerto Rican, New Yoriquen",13 or older,"no, only English or Spanish",yes,2025-08-12_15h22.00.908,empathy_intonation_perc_control,2024.2.4,Win32,60.24096386,60370d269f029917f89b4514,68817205a84113384fffdfe3,689b940454a62c92078eaeb9,,,,,,,,,,,,./stim/wavs/cuban_mismatch_declarative-broad-focus_El-bebe-comia-muy-bien.wav,0,,,198.1869,200.6706,0,1,1.9512,,0,67,67,73,1,74,0,cuban,,,,,,,,,,,,,,,,,,,,,,,,,,,,,,,,,,,,,,,,,,,,,,,,,,,,,,,,
,,,,,,,,,60370d269f029917f89b4514,"Mexican, Puerto Rican, New Yoriquen",13 or older,"no, only English or Spanish",yes,2025-08-12_15h22.00.908,empathy_intonation_perc_control,2024.2.4,Win32,60.24096386,60370d269f029917f89b4514,68817205a84113384fffdfe3,689b940454a62c92078eaeb9,,,,,,,,,,,,./stim/wavs/cuban_mismatch_interrogative-total-yn_Mi-novio-viene-del-lago.wav,1,,,200.6713,203.4052,0,0,2.2056,,0,68,68,32,1,33,1,cuban,,,,,,,,,,,,,,,,,,,,,,,,,,,,,,,,,,,,,,,,,,,,,,,,,,,,,,,,
,,,,,,,,,60370d269f029917f89b4514,"Mexican, Puerto Rican, New Yoriquen",13 or older,"no, only English or Spanish",yes,2025-08-12_15h22.00.908,empathy_intonation_perc_control,2024.2.4,Win32,60.24096386,60370d269f029917f89b4514,68817205a84113384fffdfe3,689b940454a62c92078eaeb9,,,,,,,,,,,,./stim/wavs/cuban_match_declarative-broad-focus_Marta-abre-el-regalo.wav,0,,,203.4058,205.7892,0,1,1.8628,,0,69,69,55,1,56,0,cuban,,,,,,,,,,,,,,,,,,,,,,,,,,,,,,,,,,,,,,,,,,,,,,,,,,,,,,,,
,,,,,,,,,60370d269f029917f89b4514,"Mexican, Puerto Rican, New Yoriquen",13 or older,"no, only English or Spanish",yes,2025-08-12_15h22.00.908,empathy_intonation_perc_control,2024.2.4,Win32,60.24096386,60370d269f029917f89b4514,68817205a84113384fffdfe3,689b940454a62c92078eaeb9,,,,,,,,,,,,./stim/wavs/puertorican_match_declarative-broad-focus_David-leia-el-libro.wav,0,,,205.7899,208.0401,0,1,1.7191,,0,70,70,64,1,65,0,puertorican,,,,,,,,,,,,,,,,,,,,,,,,,,,,,,,,,,,,,,,,,,,,,,,,,,,,,,,,
,,,,,,,,,60370d269f029917f89b4514,"Mexican, Puerto Rican, New Yoriquen",13 or older,"no, only English or Spanish",yes,2025-08-12_15h22.00.908,empathy_intonation_perc_control,2024.2.4,Win32,60.24096386,60370d269f029917f89b4514,68817205a84113384fffdfe3,689b940454a62c92078eaeb9,,,,,,,,,,,,./stim/wavs/mexican_mismatch_declarative-broad-focus_El-hombre-mira-la-luna.wav,0,,,208.0408,210.1908,0,1,1.6454,,0,71,71,79,1,80,0,mexican,,,,,,,,,,,,,,,,,,,,,,,,,,,,,,,,,,,,,,,,,,,,,,,,,,,,,,,,
,,,,,,,,,60370d269f029917f89b4514,"Mexican, Puerto Rican, New Yoriquen",13 or older,"no, only English or Spanish",yes,2025-08-12_15h22.00.908,empathy_intonation_perc_control,2024.2.4,Win32,60.24096386,60370d269f029917f89b4514,68817205a84113384fffdfe3,689b940454a62c92078eaeb9,,,,,,,,,,,,./stim/wavs/puertorican_match_interrogative-total-yn_David-leia-el-libro.wav,1,,,210.1914,212.7419,0,0,2.026,,0,72,72,20,1,21,1,puertorican,,,,,,,,,,,,,,,,,,,,,,,,,,,,,,,,,,,,,,,,,,,,,,,,,,,,,,,,
,,,,,,,,,60370d269f029917f89b4514,"Mexican, Puerto Rican, New Yoriquen",13 or older,"no, only English or Spanish",yes,2025-08-12_15h22.00.908,empathy_intonation_perc_control,2024.2.4,Win32,60.24096386,60370d269f029917f89b4514,68817205a84113384fffdfe3,689b940454a62c92078eaeb9,,,,,,,,,,,,./stim/wavs/castilian_mismatch_interrogative-total-yn_Mi-novio-viene-del-lago.wav,1,,,212.7425,215.2429,1,1,1.9773,,0,73,73,27,1,28,0,castilian,,,,,,,,,,,,,,,,,,,,,,,,,,,,,,,,,,,,,,,,,,,,,,,,,,,,,,,,
,,,,,,,,,60370d269f029917f89b4514,"Mexican, Puerto Rican, New Yoriquen",13 or older,"no, only English or Spanish",yes,2025-08-12_15h22.00.908,empathy_intonation_perc_control,2024.2.4,Win32,60.24096386,60370d269f029917f89b4514,68817205a84113384fffdfe3,689b940454a62c92078eaeb9,,,,,,,,,,,,./stim/wavs/mexican_match_interrogative-total-yn_Daniel-iba-a-Bolivia.wav,1,,,215.2437,217.6274,1,1,1.8517,,0,74,74,13,1,14,0,mexican,,,,,,,,,,,,,,,,,,,,,,,,,,,,,,,,,,,,,,,,,,,,,,,,,,,,,,,,
,,,,,,,,,60370d269f029917f89b4514,"Mexican, Puerto Rican, New Yoriquen",13 or older,"no, only English or Spanish",yes,2025-08-12_15h22.00.908,empathy_intonation_perc_control,2024.2.4,Win32,60.24096386,60370d269f029917f89b4514,68817205a84113384fffdfe3,689b940454a62c92078eaeb9,,,,,,,,,,,,./stim/wavs/mexican_match_declarative-broad-focus_Marta-abre-el-regalo.wav,0,,,217.6281,219.8947,0,1,1.7345,,0,75,75,61,1,62,0,mexican,,,,,,,,,,,,,,,,,,,,,,,,,,,,,,,,,,,,,,,,,,,,,,,,,,,,,,,,
,,,,,,,,,60370d269f029917f89b4514,"Mexican, Puerto Rican, New Yoriquen",13 or older,"no, only English or Spanish",yes,2025-08-12_15h22.00.908,empathy_intonation_perc_control,2024.2.4,Win32,60.24096386,60370d269f029917f89b4514,68817205a84113384fffdfe3,689b940454a62c92078eaeb9,,,,,,,,,,,,./stim/wavs/puertorican_mismatch_declarative-broad-focus_La-maestra-vive-en-Paris.wav,0,,,219.8952,222.229,0,1,1.8009,,0,76,76,86,1,87,0,puertorican,,,,,,,,,,,,,,,,,,,,,,,,,,,,,,,,,,,,,,,,,,,,,,,,,,,,,,,,
,,,,,,,,,60370d269f029917f89b4514,"Mexican, Puerto Rican, New Yoriquen",13 or older,"no, only English or Spanish",yes,2025-08-12_15h22.00.908,empathy_intonation_perc_control,2024.2.4,Win32,60.24096386,60370d269f029917f89b4514,68817205a84113384fffdfe3,689b940454a62c92078eaeb9,,,,,,,,,,,,./stim/wavs/mexican_match_interrogative-total-yn_Emilio-ama-la-marcha.wav,1,,,222.2299,224.4464,1,1,1.6953,,0,77,77,15,1,16,0,mexican,,,,,,,,,,,,,,,,,,,,,,,,,,,,,,,,,,,,,,,,,,,,,,,,,,,,,,,,
,,,,,,,,,60370d269f029917f89b4514,"Mexican, Puerto Rican, New Yoriquen",13 or older,"no, only English or Spanish",yes,2025-08-12_15h22.00.908,empathy_intonation_perc_control,2024.2.4,Win32,60.24096386,60370d269f029917f89b4514,68817205a84113384fffdfe3,689b940454a62c92078eaeb9,,,,,,,,,,,,./stim/wavs/cuban_match_interrogative-total-yn_Mariano-habla-del-tiempo.wav,1,,,224.4475,226.8807,0,0,1.9046,,0,78,78,10,1,11,1,cuban,,,,,,,,,,,,,,,,,,,,,,,,,,,,,,,,,,,,,,,,,,,,,,,,,,,,,,,,
,,,,,,,,,60370d269f029917f89b4514,"Mexican, Puerto Rican, New Yoriquen",13 or older,"no, only English or Spanish",yes,2025-08-12_15h22.00.908,empathy_intonation_perc_control,2024.2.4,Win32,60.24096386,60370d269f029917f89b4514,68817205a84113384fffdfe3,689b940454a62c92078eaeb9,,,,,,,,,,,,./stim/wavs/puertorican_match_declarative-broad-focus_Daniel-iba-a-Bolivia.wav,0,,,226.8814,229.1151,0,1,1.711,,0,79,79,63,1,64,0,puertorican,,,,,,,,,,,,,,,,,,,,,,,,,,,,,,,,,,,,,,,,,,,,,,,,,,,,,,,,
,,,,,,,,,60370d269f029917f89b4514,"Mexican, Puerto Rican, New Yoriquen",13 or older,"no, only English or Spanish",yes,2025-08-12_15h22.00.908,empathy_intonation_perc_control,2024.2.4,Win32,60.24096386,60370d269f029917f89b4514,68817205a84113384fffdfe3,689b940454a62c92078eaeb9,,,,,,,,,,,,./stim/wavs/puertorican_match_interrogative-total-yn_Maria-bebe-el-vino.wav,1,,,229.1157,231.2993,1,1,1.6632,,0,80,80,23,1,24,1,puertorican,,,,,,,,,,,,,,,,,,,,,,,,,,,,,,,,,,,,,,,,,,,,,,,,,,,,,,,,
,,,,,,,,,60370d269f029917f89b4514,"Mexican, Puerto Rican, New Yoriquen",13 or older,"no, only English or Spanish",yes,2025-08-12_15h22.00.908,empathy_intonation_perc_control,2024.2.4,Win32,60.24096386,60370d269f029917f89b4514,68817205a84113384fffdfe3,689b940454a62c92078eaeb9,,,,,,,,,,,,./stim/wavs/puertorican_mismatch_interrogative-total-yn_La-nina-lava-el-plato.wav,1,,,231.3,233.5165,0,0,1.6893,,0,81,81,42,1,43,1,puertorican,,,,,,,,,,,,,,,,,,,,,,,,,,,,,,,,,,,,,,,,,,,,,,,,,,,,,,,,
,,,,,,,,,60370d269f029917f89b4514,"Mexican, Puerto Rican, New Yoriquen",13 or older,"no, only English or Spanish",yes,2025-08-12_15h22.00.908,empathy_intonation_perc_control,2024.2.4,Win32,60.24096386,60370d269f029917f89b4514,68817205a84113384fffdfe3,689b940454a62c92078eaeb9,,,,,,,,,,,,./stim/wavs/mexican_mismatch_interrogative-total-yn_El-nino-oye-el-rio.wav,1,,,233.5172,235.6842,1,1,1.6363,,0,82,82,35,1,36,0,mexican,,,,,,,,,,,,,,,,,,,,,,,,,,,,,,,,,,,,,,,,,,,,,,,,,,,,,,,,
,,,,,,,,,60370d269f029917f89b4514,"Mexican, Puerto Rican, New Yoriquen",13 or older,"no, only English or Spanish",yes,2025-08-12_15h22.00.908,empathy_intonation_perc_control,2024.2.4,Win32,60.24096386,60370d269f029917f89b4514,68817205a84113384fffdfe3,689b940454a62c92078eaeb9,,,,,,,,,,,,./stim/wavs/cuban_mismatch_declarative-broad-focus_La-nina-lava-el-plato.wav,0,,,235.6849,237.9182,0,1,1.7052,,0,83,83,75,1,76,0,cuban,,,,,,,,,,,,,,,,,,,,,,,,,,,,,,,,,,,,,,,,,,,,,,,,,,,,,,,,
,,,,,,,,,60370d269f029917f89b4514,"Mexican, Puerto Rican, New Yoriquen",13 or older,"no, only English or Spanish",yes,2025-08-12_15h22.00.908,empathy_intonation_perc_control,2024.2.4,Win32,60.24096386,60370d269f029917f89b4514,68817205a84113384fffdfe3,689b940454a62c92078eaeb9,,,,,,,,,,,,./stim/wavs/castilian_match_interrogative-total-yn_Mariano-habla-del-tiempo.wav,1,,,237.9188,240.5534,1,1,2.1043,,0,84,84,4,1,5,0,castilian,,,,,,,,,,,,,,,,,,,,,,,,,,,,,,,,,,,,,,,,,,,,,,,,,,,,,,,,
,,,,,,,,,60370d269f029917f89b4514,"Mexican, Puerto Rican, New Yoriquen",13 or older,"no, only English or Spanish",yes,2025-08-12_15h22.00.908,empathy_intonation_perc_control,2024.2.4,Win32,60.24096386,60370d269f029917f89b4514,68817205a84113384fffdfe3,689b940454a62c92078eaeb9,,,,,,,,,,,,./stim/wavs/mexican_mismatch_interrogative-total-yn_Mi-novio-viene-del-lago.wav,1,,,240.5539,243.0702,1,1,1.9927,,0,85,85,37,1,38,0,mexican,,,,,,,,,,,,,,,,,,,,,,,,,,,,,,,,,,,,,,,,,,,,,,,,,,,,,,,,
,,,,,,,,,60370d269f029917f89b4514,"Mexican, Puerto Rican, New Yoriquen",13 or older,"no, only English or Spanish",yes,2025-08-12_15h22.00.908,empathy_intonation_perc_control,2024.2.4,Win32,60.24096386,60370d269f029917f89b4514,68817205a84113384fffdfe3,689b940454a62c92078eaeb9,,,,,,,,,,,,./stim/wavs/cuban_match_interrogative-total-yn_Ana-lleva-el-abrigo.wav,1,,,243.071,245.0544,0,0,1.4506,,0,86,86,6,1,7,1,cuban,,,,,,,,,,,,,,,,,,,,,,,,,,,,,,,,,,,,,,,,,,,,,,,,,,,,,,,,
,,,,,,,,,60370d269f029917f89b4514,"Mexican, Puerto Rican, New Yoriquen",13 or older,"no, only English or Spanish",yes,2025-08-12_15h22.00.908,empathy_intonation_perc_control,2024.2.4,Win32,60.24096386,60370d269f029917f89b4514,68817205a84113384fffdfe3,689b940454a62c92078eaeb9,,,,,,,,,,,,./stim/wavs/castilian_match_interrogative-total-yn_Maria-bebe-el-vino.wav,1,,,245.0551,247.2219,1,1,1.6339,,0,87,87,3,1,4,0,castilian,,,,,,,,,,,,,,,,,,,,,,,,,,,,,,,,,,,,,,,,,,,,,,,,,,,,,,,,
,,,,,,,"Great! Now we will move on. The next task consists of about 60 trials, in each of which you will see a string of letters. 
  
  Your task is to decide whether this is a real Spanish word or not.", (press the spacebar to continue),60370d269f029917f89b4514,"Mexican, Puerto Rican, New Yoriquen",13 or older,"no, only English or Spanish",yes,2025-08-12_15h22.00.908,empathy_intonation_perc_control,2024.2.4,Win32,60.24096386,60370d269f029917f89b4514,68817205a84113384fffdfe3,689b940454a62c92078eaeb9,,,,,,,,,,,,,,,,,,,,,,,,,,,,,,247.2292,255.5923,0,0,0,0,1,,,,,,,,,,,,,,,,,,,,,,,,,,,,,,,,,,,,,,,,,,,,,,,,,
,,,,,,,"If you think it is an existing Spanish word, you type '1' (for 'REAL'), and if you think it is not an existing Spanish word, you type '0' (for 'FAKE').", (press the spacebar to continue),60370d269f029917f89b4514,"Mexican, Puerto Rican, New Yoriquen",13 or older,"no, only English or Spanish",yes,2025-08-12_15h22.00.908,empathy_intonation_perc_control,2024.2.4,Win32,60.24096386,60370d269f029917f89b4514,68817205a84113384fffdfe3,689b940454a62c92078eaeb9,,,,,,,,,,,,,,,,,,,,,,,,,,,,,,255.5954,260.3772,0,1,1,1,1,,,,,,,,,,,,,,,,,,,,,,,,,,,,,,,,,,,,,,,,,,,,,,,,,
,,,,,,,"If you are sure that the word exists, even though you don’t know its exact meaning, you may still respond '1' (REAL). 
  
  But if you are not sure if it is an existing word, you should respond '0' (FAKE).
  
  Let's do a practice round...", (press the spacebar to continue),60370d269f029917f89b4514,"Mexican, Puerto Rican, New Yoriquen",13 or older,"no, only English or Spanish",yes,2025-08-12_15h22.00.908,empathy_intonation_perc_control,2024.2.4,Win32,60.24096386,60370d269f029917f89b4514,68817205a84113384fffdfe3,689b940454a62c92078eaeb9,,,,,,,,,,,,,,,,,,,,,,,,,,,,,,260.3801,267.0297,0,2,2,2,1,,,,,,,,,,,,,,,,,,,,,,,,,,,,,,,,,,,,,,,,,,,,,,,,,
,,,,,,,,,60370d269f029917f89b4514,"Mexican, Puerto Rican, New Yoriquen",13 or older,"no, only English or Spanish",yes,2025-08-12_15h22.00.908,empathy_intonation_perc_control,2024.2.4,Win32,60.24096386,60370d269f029917f89b4514,68817205a84113384fffdfe3,689b940454a62c92078eaeb9,,,,,,,,,,,,,0,,,,,,,,,,,,,,,,,,,,,,,,267.036,270.2313,0,1,2.6607,,270.2316,271.2313,0,0,0,0,1,0,depiste,REAL,FAKE,,,,,,,,,,,,,,,,,,,,,,,,,,,,,,,,
,,,,,,,,,60370d269f029917f89b4514,"Mexican, Puerto Rican, New Yoriquen",13 or older,"no, only English or Spanish",yes,2025-08-12_15h22.00.908,empathy_intonation_perc_control,2024.2.4,Win32,60.24096386,60370d269f029917f89b4514,68817205a84113384fffdfe3,689b940454a62c92078eaeb9,,,,,,,,,,,,,1,,,,,,,,,,,,,,,,,,,,,,,,271.233,272.5815,1,1,0.8021,,272.5816,273.582,0,1,1,1,1,0,sí,REAL,FAKE,,,,,,,,,,,,,,,,,,,,,,,,,,,,,,,,
,,,,,,,,,60370d269f029917f89b4514,"Mexican, Puerto Rican, New Yoriquen",13 or older,"no, only English or Spanish",yes,2025-08-12_15h22.00.908,empathy_intonation_perc_control,2024.2.4,Win32,60.24096386,60370d269f029917f89b4514,68817205a84113384fffdfe3,689b940454a62c92078eaeb9,,,,,,,,,,,,,0,,,,,,,,,,,,,,,,,,,,,,,,273.5837,275.5827,0,1,1.4614,,275.5828,276.5833,0,2,2,2,1,0,coné,REAL,FAKE,,,,,,,,,,,,,,,,,,,,,,,,,,,,,,,,
,,,,,,,,,60370d269f029917f89b4514,"Mexican, Puerto Rican, New Yoriquen",13 or older,"no, only English or Spanish",yes,2025-08-12_15h22.00.908,empathy_intonation_perc_control,2024.2.4,Win32,60.24096386,60370d269f029917f89b4514,68817205a84113384fffdfe3,689b940454a62c92078eaeb9,,,,,,,,,,,,,0,,,,,,,,,,,,,,,,,,,,,,,,276.5848,278.2173,0,1,1.094,,278.2173,279.2176,0,3,3,3,1,0,calpar,REAL,FAKE,,,,,,,,,,,,,,,,,,,,,,,,,,,,,,,,
,,,,,,,,,60370d269f029917f89b4514,"Mexican, Puerto Rican, New Yoriquen",13 or older,"no, only English or Spanish",yes,2025-08-12_15h22.00.908,empathy_intonation_perc_control,2024.2.4,Win32,60.24096386,60370d269f029917f89b4514,68817205a84113384fffdfe3,689b940454a62c92078eaeb9,,,,,,,,,,,,,0,,,,,,,,,,,,,,,,,,,,,,,,279.2192,280.569,0,1,0.8061,,280.569,281.5686,0,4,4,4,1,0,joten,REAL,FAKE,,,,,,,,,,,,,,,,,,,,,,,,,,,,,,,,
,,,,,,,,,60370d269f029917f89b4514,"Mexican, Puerto Rican, New Yoriquen",13 or older,"no, only English or Spanish",yes,2025-08-12_15h22.00.908,empathy_intonation_perc_control,2024.2.4,Win32,60.24096386,60370d269f029917f89b4514,68817205a84113384fffdfe3,689b940454a62c92078eaeb9,,,,,,,,,,,,,1,,,,,,,,,,,,,,,,,,,,,,,,281.5697,283.8026,1,1,1.6853,,283.8027,284.8031,0,5,5,5,1,0,sacapuntas,REAL,FAKE,,,,,,,,,,,,,,,,,,,,,,,,,,,,,,,,
,,,,,,,,,60370d269f029917f89b4514,"Mexican, Puerto Rican, New Yoriquen",13 or older,"no, only English or Spanish",yes,2025-08-12_15h22.00.908,empathy_intonation_perc_control,2024.2.4,Win32,60.24096386,60370d269f029917f89b4514,68817205a84113384fffdfe3,689b940454a62c92078eaeb9,,,,,,,,,,,,,0,,,,,,,,,,,,,,,,,,,,,,,,284.8046,286.7206,1,0,1.3682,,286.7222,287.7209,0,6,6,6,1,0,priba,REAL,FAKE,,,,,,,,,,,,,,,,,,,,,,,,,,,,,,,,
,,,,,,,,,60370d269f029917f89b4514,"Mexican, Puerto Rican, New Yoriquen",13 or older,"no, only English or Spanish",yes,2025-08-12_15h22.00.908,empathy_intonation_perc_control,2024.2.4,Win32,60.24096386,60370d269f029917f89b4514,68817205a84113384fffdfe3,689b940454a62c92078eaeb9,,,,,,,,,,,,,0,,,,,,,,,,,,,,,,,,,,,,,,287.722,290.0381,0,1,1.7795,,290.0389,291.0388,0,7,7,7,1,0,pelasula,REAL,FAKE,,,,,,,,,,,,,,,,,,,,,,,,,,,,,,,,
,,,,,,,,,60370d269f029917f89b4514,"Mexican, Puerto Rican, New Yoriquen",13 or older,"no, only English or Spanish",yes,2025-08-12_15h22.00.908,empathy_intonation_perc_control,2024.2.4,Win32,60.24096386,60370d269f029917f89b4514,68817205a84113384fffdfe3,689b940454a62c92078eaeb9,,,,,,,,,,,,,1,,,,,,,,,,,,,,,,,,,,,,,,291.0402,292.4727,1,1,0.8884,,292.4728,293.473,0,8,8,8,1,0,bien,REAL,FAKE,,,,,,,,,,,,,,,,,,,,,,,,,,,,,,,,
,,,,,,,,,60370d269f029917f89b4514,"Mexican, Puerto Rican, New Yoriquen",13 or older,"no, only English or Spanish",yes,2025-08-12_15h22.00.908,empathy_intonation_perc_control,2024.2.4,Win32,60.24096386,60370d269f029917f89b4514,68817205a84113384fffdfe3,689b940454a62c92078eaeb9,,,,,,,,,,,,,1,,,,,,,,,,,,,,,,,,,,,,,,293.4742,294.7904,1,1,0.7682,,294.7905,295.7905,0,9,9,9,1,0,casa,REAL,FAKE,,,,,,,,,,,,,,,,,,,,,,,,,,,,,,,,
,,,,,,,,,60370d269f029917f89b4514,"Mexican, Puerto Rican, New Yoriquen",13 or older,"no, only English or Spanish",yes,2025-08-12_15h22.00.908,empathy_intonation_perc_control,2024.2.4,Win32,60.24096386,60370d269f029917f89b4514,68817205a84113384fffdfe3,689b940454a62c92078eaeb9,,,,,,,,,,,,,0,,,,,,,,,,,,,,,,,,,,,,,,295.7916,297.5245,1,0,1.1864,,297.5255,298.5248,0,10,10,10,1,0,lejo,REAL,FAKE,,,,,,,,,,,,,,,,,,,,,,,,,,,,,,,,
,,,,,,,,,60370d269f029917f89b4514,"Mexican, Puerto Rican, New Yoriquen",13 or older,"no, only English or Spanish",yes,2025-08-12_15h22.00.908,empathy_intonation_perc_control,2024.2.4,Win32,60.24096386,60370d269f029917f89b4514,68817205a84113384fffdfe3,689b940454a62c92078eaeb9,,,,,,,,,,,,,0,,,,,,,,,,,,,,,,,,,,,,,,298.526,300.5769,0,1,1.5097,,300.5776,301.5761,0,11,11,11,1,0,pretantas,REAL,FAKE,,,,,,,,,,,,,,,,,,,,,,,,,,,,,,,,
,,,,,,,,,60370d269f029917f89b4514,"Mexican, Puerto Rican, New Yoriquen",13 or older,"no, only English or Spanish",yes,2025-08-12_15h22.00.908,empathy_intonation_perc_control,2024.2.4,Win32,60.24096386,60370d269f029917f89b4514,68817205a84113384fffdfe3,689b940454a62c92078eaeb9,,,,,,,,,,,,,,,,,,,,,,,,,,,,,,,,,,,,,,,,,,,,,,,,,,,,,,301.5766,303.1771,,,,,,,,,,,,,,,,,,,,,,,,,,,,,,
,,,,,,,,,60370d269f029917f89b4514,"Mexican, Puerto Rican, New Yoriquen",13 or older,"no, only English or Spanish",yes,2025-08-12_15h22.00.908,empathy_intonation_perc_control,2024.2.4,Win32,60.24096386,60370d269f029917f89b4514,68817205a84113384fffdfe3,689b940454a62c92078eaeb9,,,,,,,,,,,,,1,,,,,,,,,,,,,,,,,,,,,,,,,,,,,,,,,,,,,73,hervidor,,,,,303.1874,305.3611,0,0,1.6346,,0,0,0,72,1,REAL,FAKE,,,,,,,,,,,,,,,,,
,,,,,,,,,60370d269f029917f89b4514,"Mexican, Puerto Rican, New Yoriquen",13 or older,"no, only English or Spanish",yes,2025-08-12_15h22.00.908,empathy_intonation_perc_control,2024.2.4,Win32,60.24096386,60370d269f029917f89b4514,68817205a84113384fffdfe3,689b940454a62c92078eaeb9,,,,,,,,,,,,,1,,,,,,,,,,,,,,,,,,,,,,,,,,,,,,,,,,,,,64,orgulloso,,,,,305.3628,306.8114,1,1,0.9015,,0,1,1,63,1,REAL,FAKE,,,,,,,,,,,,,,,,,
,,,,,,,,,60370d269f029917f89b4514,"Mexican, Puerto Rican, New Yoriquen",13 or older,"no, only English or Spanish",yes,2025-08-12_15h22.00.908,empathy_intonation_perc_control,2024.2.4,Win32,60.24096386,60370d269f029917f89b4514,68817205a84113384fffdfe3,689b940454a62c92078eaeb9,,,,,,,,,,,,,0,,,,,,,,,,,,,,,,,,,,,,,,,,,,,,,,,,,,,18,arsa,,,,,306.8125,308.5122,0,1,1.1582,,0,2,2,17,1,REAL,FAKE,,,,,,,,,,,,,,,,,
,,,,,,,,,60370d269f029917f89b4514,"Mexican, Puerto Rican, New Yoriquen",13 or older,"no, only English or Spanish",yes,2025-08-12_15h22.00.908,empathy_intonation_perc_control,2024.2.4,Win32,60.24096386,60370d269f029917f89b4514,68817205a84113384fffdfe3,689b940454a62c92078eaeb9,,,,,,,,,,,,,0,,,,,,,,,,,,,,,,,,,,,,,,,,,,,,,,,,,,,35,rompido,,,,,308.5141,310.463,1,0,1.4015,,0,3,3,34,1,REAL,FAKE,,,,,,,,,,,,,,,,,
,,,,,,,,,60370d269f029917f89b4514,"Mexican, Puerto Rican, New Yoriquen",13 or older,"no, only English or Spanish",yes,2025-08-12_15h22.00.908,empathy_intonation_perc_control,2024.2.4,Win32,60.24096386,60370d269f029917f89b4514,68817205a84113384fffdfe3,689b940454a62c92078eaeb9,,,,,,,,,,,,,1,,,,,,,,,,,,,,,,,,,,,,,,,,,,,,,,,,,,,36,loro,,,,,310.4642,312.0801,0,0,1.077,,0,4,4,35,1,REAL,FAKE,,,,,,,,,,,,,,,,,
,,,,,,,,,60370d269f029917f89b4514,"Mexican, Puerto Rican, New Yoriquen",13 or older,"no, only English or Spanish",yes,2025-08-12_15h22.00.908,empathy_intonation_perc_control,2024.2.4,Win32,60.24096386,60370d269f029917f89b4514,68817205a84113384fffdfe3,689b940454a62c92078eaeb9,,,,,,,,,,,,,1,,,,,,,,,,,,,,,,,,,,,,,,,,,,,,,,,,,,,13,helar,,,,,312.0814,313.8476,1,1,1.2393,,0,5,5,12,1,REAL,FAKE,,,,,,,,,,,,,,,,,
,,,,,,,,,60370d269f029917f89b4514,"Mexican, Puerto Rican, New Yoriquen",13 or older,"no, only English or Spanish",yes,2025-08-12_15h22.00.908,empathy_intonation_perc_control,2024.2.4,Win32,60.24096386,60370d269f029917f89b4514,68817205a84113384fffdfe3,689b940454a62c92078eaeb9,,,,,,,,,,,,,1,,,,,,,,,,,,,,,,,,,,,,,,,,,,,,,,,,,,,38,estornudar,,,,,313.8488,315.9982,0,0,1.6014,,0,6,6,37,1,REAL,FAKE,,,,,,,,,,,,,,,,,
,,,,,,,,,60370d269f029917f89b4514,"Mexican, Puerto Rican, New Yoriquen",13 or older,"no, only English or Spanish",yes,2025-08-12_15h22.00.908,empathy_intonation_perc_control,2024.2.4,Win32,60.24096386,60370d269f029917f89b4514,68817205a84113384fffdfe3,689b940454a62c92078eaeb9,,,,,,,,,,,,,1,,,,,,,,,,,,,,,,,,,,,,,,,,,,,,,,,,,,,45,jilguero,,,,,315.9992,317.7991,0,0,1.2563,,0,7,7,44,1,REAL,FAKE,,,,,,,,,,,,,,,,,
,,,,,,,,,60370d269f029917f89b4514,"Mexican, Puerto Rican, New Yoriquen",13 or older,"no, only English or Spanish",yes,2025-08-12_15h22.00.908,empathy_intonation_perc_control,2024.2.4,Win32,60.24096386,60370d269f029917f89b4514,68817205a84113384fffdfe3,689b940454a62c92078eaeb9,,,,,,,,,,,,,0,,,,,,,,,,,,,,,,,,,,,,,,,,,,,,,,,,,,,42,cadallo,,,,,317.8003,319.6998,1,0,1.3517,,0,8,8,41,1,REAL,FAKE,,,,,,,,,,,,,,,,,
,,,,,,,,,60370d269f029917f89b4514,"Mexican, Puerto Rican, New Yoriquen",13 or older,"no, only English or Spanish",yes,2025-08-12_15h22.00.908,empathy_intonation_perc_control,2024.2.4,Win32,60.24096386,60370d269f029917f89b4514,68817205a84113384fffdfe3,689b940454a62c92078eaeb9,,,,,,,,,,,,,1,,,,,,,,,,,,,,,,,,,,,,,,,,,,,,,,,,,,,62,flaco,,,,,319.7016,321.2503,1,1,1.0098,,0,9,9,61,1,REAL,FAKE,,,,,,,,,,,,,,,,,
,,,,,,,,,60370d269f029917f89b4514,"Mexican, Puerto Rican, New Yoriquen",13 or older,"no, only English or Spanish",yes,2025-08-12_15h22.00.908,empathy_intonation_perc_control,2024.2.4,Win32,60.24096386,60370d269f029917f89b4514,68817205a84113384fffdfe3,689b940454a62c92078eaeb9,,,,,,,,,,,,,1,,,,,,,,,,,,,,,,,,,,,,,,,,,,,,,,,,,,,14,yunque,,,,,321.252,322.7508,1,1,0.9515,,0,10,10,13,1,REAL,FAKE,,,,,,,,,,,,,,,,,
,,,,,,,,,60370d269f029917f89b4514,"Mexican, Puerto Rican, New Yoriquen",13 or older,"no, only English or Spanish",yes,2025-08-12_15h22.00.908,empathy_intonation_perc_control,2024.2.4,Win32,60.24096386,60370d269f029917f89b4514,68817205a84113384fffdfe3,689b940454a62c92078eaeb9,,,,,,,,,,,,,1,,,,,,,,,,,,,,,,,,,,,,,,,,,,,,,,,,,,,86,barato,,,,,322.752,324.1514,1,1,0.8514,,0,11,11,85,1,REAL,FAKE,,,,,,,,,,,,,,,,,
,,,,,,,,,60370d269f029917f89b4514,"Mexican, Puerto Rican, New Yoriquen",13 or older,"no, only English or Spanish",yes,2025-08-12_15h22.00.908,empathy_intonation_perc_control,2024.2.4,Win32,60.24096386,60370d269f029917f89b4514,68817205a84113384fffdfe3,689b940454a62c92078eaeb9,,,,,,,,,,,,,0,,,,,,,,,,,,,,,,,,,,,,,,,,,,,,,,,,,,,66,hacido,,,,,324.1527,326.986,0,1,2.2929,,0,12,12,65,1,REAL,FAKE,,,,,,,,,,,,,,,,,
,,,,,,,,,60370d269f029917f89b4514,"Mexican, Puerto Rican, New Yoriquen",13 or older,"no, only English or Spanish",yes,2025-08-12_15h22.00.908,empathy_intonation_perc_control,2024.2.4,Win32,60.24096386,60370d269f029917f89b4514,68817205a84113384fffdfe3,689b940454a62c92078eaeb9,,,,,,,,,,,,,1,,,,,,,,,,,,,,,,,,,,,,,,,,,,,,,,,,,,,22,lacayo,,,,,326.9873,328.5029,0,0,0.9799,,0,13,13,21,1,REAL,FAKE,,,,,,,,,,,,,,,,,
,,,,,,,,,60370d269f029917f89b4514,"Mexican, Puerto Rican, New Yoriquen",13 or older,"no, only English or Spanish",yes,2025-08-12_15h22.00.908,empathy_intonation_perc_control,2024.2.4,Win32,60.24096386,60370d269f029917f89b4514,68817205a84113384fffdfe3,689b940454a62c92078eaeb9,,,,,,,,,,,,,1,,,,,,,,,,,,,,,,,,,,,,,,,,,,,,,,,,,,,25,bisagra,,,,,328.504,330.554,0,0,1.5017,,0,14,14,24,1,REAL,FAKE,,,,,,,,,,,,,,,,,
,,,,,,,,,60370d269f029917f89b4514,"Mexican, Puerto Rican, New Yoriquen",13 or older,"no, only English or Spanish",yes,2025-08-12_15h22.00.908,empathy_intonation_perc_control,2024.2.4,Win32,60.24096386,60370d269f029917f89b4514,68817205a84113384fffdfe3,689b940454a62c92078eaeb9,,,,,,,,,,,,,1,,,,,,,,,,,,,,,,,,,,,,,,,,,,,,,,,,,,,59,besar,,,,,330.5552,331.9878,1,1,0.8856,,0,15,15,58,1,REAL,FAKE,,,,,,,,,,,,,,,,,
,,,,,,,,,60370d269f029917f89b4514,"Mexican, Puerto Rican, New Yoriquen",13 or older,"no, only English or Spanish",yes,2025-08-12_15h22.00.908,empathy_intonation_perc_control,2024.2.4,Win32,60.24096386,60370d269f029917f89b4514,68817205a84113384fffdfe3,689b940454a62c92078eaeb9,,,,,,,,,,,,,1,,,,,,,,,,,,,,,,,,,,,,,,,,,,,,,,,,,,,43,canela,,,,,331.989,333.3549,1,1,0.8274,,0,16,16,42,1,REAL,FAKE,,,,,,,,,,,,,,,,,
,,,,,,,,,60370d269f029917f89b4514,"Mexican, Puerto Rican, New Yoriquen",13 or older,"no, only English or Spanish",yes,2025-08-12_15h22.00.908,empathy_intonation_perc_control,2024.2.4,Win32,60.24096386,60370d269f029917f89b4514,68817205a84113384fffdfe3,689b940454a62c92078eaeb9,,,,,,,,,,,,,1,,,,,,,,,,,,,,,,,,,,,,,,,,,,,,,,,,,,,28,merodear,,,,,333.3562,335.6559,0,0,1.7559,,0,17,17,27,1,REAL,FAKE,,,,,,,,,,,,,,,,,
,,,,,,,,,60370d269f029917f89b4514,"Mexican, Puerto Rican, New Yoriquen",13 or older,"no, only English or Spanish",yes,2025-08-12_15h22.00.908,empathy_intonation_perc_control,2024.2.4,Win32,60.24096386,60370d269f029917f89b4514,68817205a84113384fffdfe3,689b940454a62c92078eaeb9,,,,,,,,,,,,,1,,,,,,,,,,,,,,,,,,,,,,,,,,,,,,,,,,,,,76,atar,,,,,335.657,337.8233,0,0,1.6253,,0,18,18,75,1,REAL,FAKE,,,,,,,,,,,,,,,,,
,,,,,,,,,60370d269f029917f89b4514,"Mexican, Puerto Rican, New Yoriquen",13 or older,"no, only English or Spanish",yes,2025-08-12_15h22.00.908,empathy_intonation_perc_control,2024.2.4,Win32,60.24096386,60370d269f029917f89b4514,68817205a84113384fffdfe3,689b940454a62c92078eaeb9,,,,,,,,,,,,,0,,,,,,,,,,,,,,,,,,,,,,,,,,,,,,,,,,,,,74,cintro,,,,,337.8245,339.4404,1,0,1.0736,,0,19,19,73,1,REAL,FAKE,,,,,,,,,,,,,,,,,
,,,,,,,,,60370d269f029917f89b4514,"Mexican, Puerto Rican, New Yoriquen",13 or older,"no, only English or Spanish",yes,2025-08-12_15h22.00.908,empathy_intonation_perc_control,2024.2.4,Win32,60.24096386,60370d269f029917f89b4514,68817205a84113384fffdfe3,689b940454a62c92078eaeb9,,,,,,,,,,,,,1,,,,,,,,,,,,,,,,,,,,,,,,,,,,,,,,,,,,,55,nevar,,,,,339.4415,341.3247,1,1,1.3395,,0,20,20,54,1,REAL,FAKE,,,,,,,,,,,,,,,,,
,,,,,,,,,60370d269f029917f89b4514,"Mexican, Puerto Rican, New Yoriquen",13 or older,"no, only English or Spanish",yes,2025-08-12_15h22.00.908,empathy_intonation_perc_control,2024.2.4,Win32,60.24096386,60370d269f029917f89b4514,68817205a84113384fffdfe3,689b940454a62c92078eaeb9,,,,,,,,,,,,,1,,,,,,,,,,,,,,,,,,,,,,,,,,,,,,,,,,,,,85,laúd,,,,,341.3266,343.0586,0,0,1.193,,0,21,21,84,1,REAL,FAKE,,,,,,,,,,,,,,,,,
,,,,,,,,,60370d269f029917f89b4514,"Mexican, Puerto Rican, New Yoriquen",13 or older,"no, only English or Spanish",yes,2025-08-12_15h22.00.908,empathy_intonation_perc_control,2024.2.4,Win32,60.24096386,60370d269f029917f89b4514,68817205a84113384fffdfe3,689b940454a62c92078eaeb9,,,,,,,,,,,,,1,,,,,,,,,,,,,,,,,,,,,,,,,,,,,,,,,,,,,89,prisa,,,,,343.0598,344.5935,1,1,0.9949,,0,22,22,88,1,REAL,FAKE,,,,,,,,,,,,,,,,,
,,,,,,,,,60370d269f029917f89b4514,"Mexican, Puerto Rican, New Yoriquen",13 or older,"no, only English or Spanish",yes,2025-08-12_15h22.00.908,empathy_intonation_perc_control,2024.2.4,Win32,60.24096386,60370d269f029917f89b4514,68817205a84113384fffdfe3,689b940454a62c92078eaeb9,,,,,,,,,,,,,1,,,,,,,,,,,,,,,,,,,,,,,,,,,,,,,,,,,,,68,alegre,,,,,344.5945,345.9766,1,1,0.8409,,0,23,23,67,1,REAL,FAKE,,,,,,,,,,,,,,,,,
,,,,,,,,,60370d269f029917f89b4514,"Mexican, Puerto Rican, New Yoriquen",13 or older,"no, only English or Spanish",yes,2025-08-12_15h22.00.908,empathy_intonation_perc_control,2024.2.4,Win32,60.24096386,60370d269f029917f89b4514,68817205a84113384fffdfe3,689b940454a62c92078eaeb9,,,,,,,,,,,,,0,,,,,,,,,,,,,,,,,,,,,,,,,,,,,,,,,,,,,29,decar,,,,,345.9777,347.7605,0,1,1.2397,,0,24,24,28,1,REAL,FAKE,,,,,,,,,,,,,,,,,
,,,,,,,,,60370d269f029917f89b4514,"Mexican, Puerto Rican, New Yoriquen",13 or older,"no, only English or Spanish",yes,2025-08-12_15h22.00.908,empathy_intonation_perc_control,2024.2.4,Win32,60.24096386,60370d269f029917f89b4514,68817205a84113384fffdfe3,689b940454a62c92078eaeb9,,,,,,,,,,,,,0,,,,,,,,,,,,,,,,,,,,,,,,,,,,,,,,,,,,,10,antar,,,,,347.7617,349.711,0,1,1.4044,,0,25,25,9,1,REAL,FAKE,,,,,,,,,,,,,,,,,
,,,,,,,,,60370d269f029917f89b4514,"Mexican, Puerto Rican, New Yoriquen",13 or older,"no, only English or Spanish",yes,2025-08-12_15h22.00.908,empathy_intonation_perc_control,2024.2.4,Win32,60.24096386,60370d269f029917f89b4514,68817205a84113384fffdfe3,689b940454a62c92078eaeb9,,,,,,,,,,,,,1,,,,,,,,,,,,,,,,,,,,,,,,,,,,,,,,,,,,,24,látigo,,,,,349.7127,351.4784,0,0,1.2261,,0,26,26,23,1,REAL,FAKE,,,,,,,,,,,,,,,,,
,,,,,,,,,60370d269f029917f89b4514,"Mexican, Puerto Rican, New Yoriquen",13 or older,"no, only English or Spanish",yes,2025-08-12_15h22.00.908,empathy_intonation_perc_control,2024.2.4,Win32,60.24096386,60370d269f029917f89b4514,68817205a84113384fffdfe3,689b940454a62c92078eaeb9,,,,,,,,,,,,,0,,,,,,,,,,,,,,,,,,,,,,,,,,,,,,,,,,,,,17,floroso,,,,,351.4796,353.3127,1,0,1.2851,,0,27,27,16,1,REAL,FAKE,,,,,,,,,,,,,,,,,
,,,,,,,,,60370d269f029917f89b4514,"Mexican, Puerto Rican, New Yoriquen",13 or older,"no, only English or Spanish",yes,2025-08-12_15h22.00.908,empathy_intonation_perc_control,2024.2.4,Win32,60.24096386,60370d269f029917f89b4514,68817205a84113384fffdfe3,689b940454a62c92078eaeb9,,,,,,,,,,,,,1,,,,,,,,,,,,,,,,,,,,,,,,,,,,,,,,,,,,,15,regar,,,,,353.3139,355.28,0,0,1.4267,,0,28,28,14,1,REAL,FAKE,,,,,,,,,,,,,,,,,
,,,,,,,,,60370d269f029917f89b4514,"Mexican, Puerto Rican, New Yoriquen",13 or older,"no, only English or Spanish",yes,2025-08-12_15h22.00.908,empathy_intonation_perc_control,2024.2.4,Win32,60.24096386,60370d269f029917f89b4514,68817205a84113384fffdfe3,689b940454a62c92078eaeb9,,,,,,,,,,,,,1,,,,,,,,,,,,,,,,,,,,,,,,,,,,,,,,,,,,,77,tiburón,,,,,355.2819,356.8976,1,1,1.0806,,0,29,29,76,1,REAL,FAKE,,,,,,,,,,,,,,,,,
,,,,,,,,,60370d269f029917f89b4514,"Mexican, Puerto Rican, New Yoriquen",13 or older,"no, only English or Spanish",yes,2025-08-12_15h22.00.908,empathy_intonation_perc_control,2024.2.4,Win32,60.24096386,60370d269f029917f89b4514,68817205a84113384fffdfe3,689b940454a62c92078eaeb9,,,,,,,,,,,,,1,,,,,,,,,,,,,,,,,,,,,,,,,,,,,,,,,,,,,39,torpe,,,,,356.8987,358.4811,1,1,1.0389,,0,30,30,38,1,REAL,FAKE,,,,,,,,,,,,,,,,,
,,,,,,,,,60370d269f029917f89b4514,"Mexican, Puerto Rican, New Yoriquen",13 or older,"no, only English or Spanish",yes,2025-08-12_15h22.00.908,empathy_intonation_perc_control,2024.2.4,Win32,60.24096386,60370d269f029917f89b4514,68817205a84113384fffdfe3,689b940454a62c92078eaeb9,,,,,,,,,,,,,0,,,,,,,,,,,,,,,,,,,,,,,,,,,,,,,,,,,,,70,temblo,,,,,358.4825,360.3653,0,1,1.3551,,0,31,31,69,1,REAL,FAKE,,,,,,,,,,,,,,,,,
,,,,,,,,,60370d269f029917f89b4514,"Mexican, Puerto Rican, New Yoriquen",13 or older,"no, only English or Spanish",yes,2025-08-12_15h22.00.908,empathy_intonation_perc_control,2024.2.4,Win32,60.24096386,60370d269f029917f89b4514,68817205a84113384fffdfe3,689b940454a62c92078eaeb9,,,,,,,,,,,,,1,,,,,,,,,,,,,,,,,,,,,,,,,,,,,,,,,,,,,44,cuchara,,,,,360.3664,362.666,1,1,1.7651,,0,32,32,43,1,REAL,FAKE,,,,,,,,,,,,,,,,,
,,,,,,,,,60370d269f029917f89b4514,"Mexican, Puerto Rican, New Yoriquen",13 or older,"no, only English or Spanish",yes,2025-08-12_15h22.00.908,empathy_intonation_perc_control,2024.2.4,Win32,60.24096386,60370d269f029917f89b4514,68817205a84113384fffdfe3,689b940454a62c92078eaeb9,,,,,,,,,,,,,1,,,,,,,,,,,,,,,,,,,,,,,,,,,,,,,,,,,,,90,clavel,,,,,362.6668,364.2834,0,0,1.0881,,0,33,33,89,1,REAL,FAKE,,,,,,,,,,,,,,,,,
,,,,,,,,,60370d269f029917f89b4514,"Mexican, Puerto Rican, New Yoriquen",13 or older,"no, only English or Spanish",yes,2025-08-12_15h22.00.908,empathy_intonation_perc_control,2024.2.4,Win32,60.24096386,60370d269f029917f89b4514,68817205a84113384fffdfe3,689b940454a62c92078eaeb9,,,,,,,,,,,,,1,,,,,,,,,,,,,,,,,,,,,,,,,,,,,,,,,,,,,78,frondoso,,,,,364.2844,366.0173,0,0,1.198,,0,34,34,77,1,REAL,FAKE,,,,,,,,,,,,,,,,,
,,,,,,,,,60370d269f029917f89b4514,"Mexican, Puerto Rican, New Yoriquen",13 or older,"no, only English or Spanish",yes,2025-08-12_15h22.00.908,empathy_intonation_perc_control,2024.2.4,Win32,60.24096386,60370d269f029917f89b4514,68817205a84113384fffdfe3,689b940454a62c92078eaeb9,,,,,,,,,,,,,0,,,,,,,,,,,,,,,,,,,,,,,,,,,,,,,,,,,,,4,batillón,,,,,366.0184,368.8516,0,1,2.3043,,0,35,35,3,1,REAL,FAKE,,,,,,,,,,,,,,,,,
,,,,,,,,,60370d269f029917f89b4514,"Mexican, Puerto Rican, New Yoriquen",13 or older,"no, only English or Spanish",yes,2025-08-12_15h22.00.908,empathy_intonation_perc_control,2024.2.4,Win32,60.24096386,60370d269f029917f89b4514,68817205a84113384fffdfe3,689b940454a62c92078eaeb9,,,,,,,,,,,,,0,,,,,,,,,,,,,,,,,,,,,,,,,,,,,,,,,,,,,84,escuto,,,,,368.8527,372.0195,0,1,2.6312,,0,36,36,83,1,REAL,FAKE,,,,,,,,,,,,,,,,,
,,,,,,,,,60370d269f029917f89b4514,"Mexican, Puerto Rican, New Yoriquen",13 or older,"no, only English or Spanish",yes,2025-08-12_15h22.00.908,empathy_intonation_perc_control,2024.2.4,Win32,60.24096386,60370d269f029917f89b4514,68817205a84113384fffdfe3,689b940454a62c92078eaeb9,,,,,,,,,,,,,0,,,,,,,,,,,,,,,,,,,,,,,,,,,,,,,,,,,,,8,cadeña,,,,,372.0212,373.7204,1,0,1.1911,,0,37,37,7,1,REAL,FAKE,,,,,,,,,,,,,,,,,
,,,,,,,,,60370d269f029917f89b4514,"Mexican, Puerto Rican, New Yoriquen",13 or older,"no, only English or Spanish",yes,2025-08-12_15h22.00.908,empathy_intonation_perc_control,2024.2.4,Win32,60.24096386,60370d269f029917f89b4514,68817205a84113384fffdfe3,689b940454a62c92078eaeb9,,,,,,,,,,,,,1,,,,,,,,,,,,,,,,,,,,,,,,,,,,,,,,,,,,,5,zapato,,,,,373.7218,375.1876,1,1,0.9349,,0,38,38,4,1,REAL,FAKE,,,,,,,,,,,,,,,,,
,,,,,,,,,60370d269f029917f89b4514,"Mexican, Puerto Rican, New Yoriquen",13 or older,"no, only English or Spanish",yes,2025-08-12_15h22.00.908,empathy_intonation_perc_control,2024.2.4,Win32,60.24096386,60370d269f029917f89b4514,68817205a84113384fffdfe3,689b940454a62c92078eaeb9,,,,,,,,,,,,,1,,,,,,,,,,,,,,,,,,,,,,,,,,,,,,,,,,,,,67,cabello,,,,,375.1885,376.5713,1,1,0.858,,0,39,39,66,1,REAL,FAKE,,,,,,,,,,,,,,,,,
,,,,,,,,,60370d269f029917f89b4514,"Mexican, Puerto Rican, New Yoriquen",13 or older,"no, only English or Spanish",yes,2025-08-12_15h22.00.908,empathy_intonation_perc_control,2024.2.4,Win32,60.24096386,60370d269f029917f89b4514,68817205a84113384fffdfe3,689b940454a62c92078eaeb9,,,,,,,,,,,,,1,,,,,,,,,,,,,,,,,,,,,,,,,,,,,,,,,,,,,48,ladrón,,,,,376.5723,378.0554,1,1,0.9715,,0,40,40,47,1,REAL,FAKE,,,,,,,,,,,,,,,,,
,,,,,,,,,60370d269f029917f89b4514,"Mexican, Puerto Rican, New Yoriquen",13 or older,"no, only English or Spanish",yes,2025-08-12_15h22.00.908,empathy_intonation_perc_control,2024.2.4,Win32,60.24096386,60370d269f029917f89b4514,68817205a84113384fffdfe3,689b940454a62c92078eaeb9,,,,,,,,,,,,,1,,,,,,,,,,,,,,,,,,,,,,,,,,,,,,,,,,,,,6,tergiversar,,,,,378.0566,379.7227,0,0,1.1376,,0,41,41,5,1,REAL,FAKE,,,,,,,,,,,,,,,,,
,,,,,,,,,60370d269f029917f89b4514,"Mexican, Puerto Rican, New Yoriquen",13 or older,"no, only English or Spanish",yes,2025-08-12_15h22.00.908,empathy_intonation_perc_control,2024.2.4,Win32,60.24096386,60370d269f029917f89b4514,68817205a84113384fffdfe3,689b940454a62c92078eaeb9,,,,,,,,,,,,,1,,,,,,,,,,,,,,,,,,,,,,,,,,,,,,,,,,,,,71,polvoriento,,,,,379.7238,381.8401,0,0,1.5845,,0,42,42,70,1,REAL,FAKE,,,,,,,,,,,,,,,,,
,,,,,,,,,60370d269f029917f89b4514,"Mexican, Puerto Rican, New Yoriquen",13 or older,"no, only English or Spanish",yes,2025-08-12_15h22.00.908,empathy_intonation_perc_control,2024.2.4,Win32,60.24096386,60370d269f029917f89b4514,68817205a84113384fffdfe3,689b940454a62c92078eaeb9,,,,,,,,,,,,,0,,,,,,,,,,,,,,,,,,,,,,,,,,,,,,,,,,,,,30,alardio,,,,,381.8411,384.3746,0,1,2.0053,,0,43,43,29,1,REAL,FAKE,,,,,,,,,,,,,,,,,
,,,,,,,,,60370d269f029917f89b4514,"Mexican, Puerto Rican, New Yoriquen",13 or older,"no, only English or Spanish",yes,2025-08-12_15h22.00.908,empathy_intonation_perc_control,2024.2.4,Win32,60.24096386,60370d269f029917f89b4514,68817205a84113384fffdfe3,689b940454a62c92078eaeb9,,,,,,,,,,,,,0,,,,,,,,,,,,,,,,,,,,,,,,,,,,,,,,,,,,,50,flamida,,,,,384.3756,386.5419,1,0,1.6415,,0,44,44,49,1,REAL,FAKE,,,,,,,,,,,,,,,,,
,,,,,,,,,60370d269f029917f89b4514,"Mexican, Puerto Rican, New Yoriquen",13 or older,"no, only English or Spanish",yes,2025-08-12_15h22.00.908,empathy_intonation_perc_control,2024.2.4,Win32,60.24096386,60370d269f029917f89b4514,68817205a84113384fffdfe3,689b940454a62c92078eaeb9,,,,,,,,,,,,,0,,,,,,,,,,,,,,,,,,,,,,,,,,,,,,,,,,,,,82,empirador,,,,,386.5431,388.4632,1,0,1.3816,,0,45,45,81,1,REAL,FAKE,,,,,,,,,,,,,,,,,
,,,,,,,,,60370d269f029917f89b4514,"Mexican, Puerto Rican, New Yoriquen",13 or older,"no, only English or Spanish",yes,2025-08-12_15h22.00.908,empathy_intonation_perc_control,2024.2.4,Win32,60.24096386,60370d269f029917f89b4514,68817205a84113384fffdfe3,689b940454a62c92078eaeb9,,,,,,,,,,,,,1,,,,,,,,,,,,,,,,,,,,,,,,,,,,,,,,,,,,,57,tacaño,,,,,388.4641,390.2768,1,1,1.2872,,0,46,46,56,1,REAL,FAKE,,,,,,,,,,,,,,,,,
,,,,,,,,,60370d269f029917f89b4514,"Mexican, Puerto Rican, New Yoriquen",13 or older,"no, only English or Spanish",yes,2025-08-12_15h22.00.908,empathy_intonation_perc_control,2024.2.4,Win32,60.24096386,60370d269f029917f89b4514,68817205a84113384fffdfe3,689b940454a62c92078eaeb9,,,,,,,,,,,,,0,,,,,,,,,,,,,,,,,,,,,,,,,,,,,,,,,,,,,47,cartinar,,,,,390.278,392.7777,0,1,1.973,,0,47,47,46,1,REAL,FAKE,,,,,,,,,,,,,,,,,
,,,,,,,,,60370d269f029917f89b4514,"Mexican, Puerto Rican, New Yoriquen",13 or older,"no, only English or Spanish",yes,2025-08-12_15h22.00.908,empathy_intonation_perc_control,2024.2.4,Win32,60.24096386,60370d269f029917f89b4514,68817205a84113384fffdfe3,689b940454a62c92078eaeb9,,,,,,,,,,,,,1,,,,,,,,,,,,,,,,,,,,,,,,,,,,,,,,,,,,,88,acantilado,,,,,392.7786,395.2787,0,0,1.9692,,0,48,48,87,1,REAL,FAKE,,,,,,,,,,,,,,,,,
,,,,,,,,,60370d269f029917f89b4514,"Mexican, Puerto Rican, New Yoriquen",13 or older,"no, only English or Spanish",yes,2025-08-12_15h22.00.908,empathy_intonation_perc_control,2024.2.4,Win32,60.24096386,60370d269f029917f89b4514,68817205a84113384fffdfe3,689b940454a62c92078eaeb9,,,,,,,,,,,,,1,,,,,,,,,,,,,,,,,,,,,,,,,,,,,,,,,,,,,26,secuestro,,,,,395.2798,396.7957,1,1,0.9889,,0,49,49,25,1,REAL,FAKE,,,,,,,,,,,,,,,,,
,,,,,,,,,60370d269f029917f89b4514,"Mexican, Puerto Rican, New Yoriquen",13 or older,"no, only English or Spanish",yes,2025-08-12_15h22.00.908,empathy_intonation_perc_control,2024.2.4,Win32,60.24096386,60370d269f029917f89b4514,68817205a84113384fffdfe3,689b940454a62c92078eaeb9,,,,,,,,,,,,,1,,,,,,,,,,,,,,,,,,,,,,,,,,,,,,,,,,,,,3,pulmones,,,,,396.7969,398.4466,1,1,1.1188,,0,50,50,2,1,REAL,FAKE,,,,,,,,,,,,,,,,,
,,,,,,,,,60370d269f029917f89b4514,"Mexican, Puerto Rican, New Yoriquen",13 or older,"no, only English or Spanish",yes,2025-08-12_15h22.00.908,empathy_intonation_perc_control,2024.2.4,Win32,60.24096386,60370d269f029917f89b4514,68817205a84113384fffdfe3,689b940454a62c92078eaeb9,,,,,,,,,,,,,1,,,,,,,,,,,,,,,,,,,,,,,,,,,,,,,,,,,,,34,aviso,,,,,398.4477,399.9969,1,1,1.0244,,0,51,51,33,1,REAL,FAKE,,,,,,,,,,,,,,,,,
,,,,,,,,,60370d269f029917f89b4514,"Mexican, Puerto Rican, New Yoriquen",13 or older,"no, only English or Spanish",yes,2025-08-12_15h22.00.908,empathy_intonation_perc_control,2024.2.4,Win32,60.24096386,60370d269f029917f89b4514,68817205a84113384fffdfe3,689b940454a62c92078eaeb9,,,,,,,,,,,,,0,,,,,,,,,,,,,,,,,,,,,,,,,,,,,,,,,,,,,53,vegada,,,,,399.998,401.9145,0,1,1.4088,,0,52,52,52,1,REAL,FAKE,,,,,,,,,,,,,,,,,
,,,,,,,,,60370d269f029917f89b4514,"Mexican, Puerto Rican, New Yoriquen",13 or older,"no, only English or Spanish",yes,2025-08-12_15h22.00.908,empathy_intonation_perc_control,2024.2.4,Win32,60.24096386,60370d269f029917f89b4514,68817205a84113384fffdfe3,689b940454a62c92078eaeb9,,,,,,,,,,,,,1,,,,,,,,,,,,,,,,,,,,,,,,,,,,,,,,,,,,,46,martillo,,,,,401.9157,403.4984,0,0,1.055,,0,53,53,45,1,REAL,FAKE,,,,,,,,,,,,,,,,,
,,,,,,,,,60370d269f029917f89b4514,"Mexican, Puerto Rican, New Yoriquen",13 or older,"no, only English or Spanish",yes,2025-08-12_15h22.00.908,empathy_intonation_perc_control,2024.2.4,Win32,60.24096386,60370d269f029917f89b4514,68817205a84113384fffdfe3,689b940454a62c92078eaeb9,,,,,,,,,,,,,1,,,,,,,,,,,,,,,,,,,,,,,,,,,,,,,,,,,,,75,yacer,,,,,403.4994,405.2326,0,0,1.1991,,0,54,54,74,1,REAL,FAKE,,,,,,,,,,,,,,,,,
,,,,,,,,,60370d269f029917f89b4514,"Mexican, Puerto Rican, New Yoriquen",13 or older,"no, only English or Spanish",yes,2025-08-12_15h22.00.908,empathy_intonation_perc_control,2024.2.4,Win32,60.24096386,60370d269f029917f89b4514,68817205a84113384fffdfe3,689b940454a62c92078eaeb9,,,,,,,,,,,,,1,,,,,,,,,,,,,,,,,,,,,,,,,,,,,,,,,,,,,91,click the 1 key.,,,,,405.2347,407.4832,1,1,1.7238,,0,55,55,90,1,REAL,FAKE,,,,,,,,,,,,,,,,,
,,,,,,,,,60370d269f029917f89b4514,"Mexican, Puerto Rican, New Yoriquen",13 or older,"no, only English or Spanish",yes,2025-08-12_15h22.00.908,empathy_intonation_perc_control,2024.2.4,Win32,60.24096386,60370d269f029917f89b4514,68817205a84113384fffdfe3,689b940454a62c92078eaeb9,,,,,,,,,,,,,0,,,,,,,,,,,,,,,,,,,,,,,,,,,,,,,,,,,,,63,esposante,,,,,407.4842,409.9844,0,1,1.9723,,0,56,56,62,1,REAL,FAKE,,,,,,,,,,,,,,,,,
,,,,,,,,,60370d269f029917f89b4514,"Mexican, Puerto Rican, New Yoriquen",13 or older,"no, only English or Spanish",yes,2025-08-12_15h22.00.908,empathy_intonation_perc_control,2024.2.4,Win32,60.24096386,60370d269f029917f89b4514,68817205a84113384fffdfe3,689b940454a62c92078eaeb9,,,,,,,,,,,,,1,,,,,,,,,,,,,,,,,,,,,,,,,,,,,,,,,,,,,49,ganar,,,,,409.9855,411.4682,1,1,0.947,,0,57,57,48,1,REAL,FAKE,,,,,,,,,,,,,,,,,
,,,,,,,,,60370d269f029917f89b4514,"Mexican, Puerto Rican, New Yoriquen",13 or older,"no, only English or Spanish",yes,2025-08-12_15h22.00.908,empathy_intonation_perc_control,2024.2.4,Win32,60.24096386,60370d269f029917f89b4514,68817205a84113384fffdfe3,689b940454a62c92078eaeb9,,,,,,,,,,,,,1,,,,,,,,,,,,,,,,,,,,,,,,,,,,,,,,,,,,,52,camisa,,,,,411.4694,412.8189,1,1,0.8142,,0,58,58,51,1,REAL,FAKE,,,,,,,,,,,,,,,,,
,,,,,,,,,60370d269f029917f89b4514,"Mexican, Puerto Rican, New Yoriquen",13 or older,"no, only English or Spanish",yes,2025-08-12_15h22.00.908,empathy_intonation_perc_control,2024.2.4,Win32,60.24096386,60370d269f029917f89b4514,68817205a84113384fffdfe3,689b940454a62c92078eaeb9,,,,,,,,,,,,,1,,,,,,,,,,,,,,,,,,,,,,,,,,,,,,,,,,,,,83,guante,,,,,412.8203,414.4861,1,1,1.1344,,0,59,59,82,1,REAL,FAKE,,,,,,,,,,,,,,,,,
,,,,,,,,,60370d269f029917f89b4514,"Mexican, Puerto Rican, New Yoriquen",13 or older,"no, only English or Spanish",yes,2025-08-12_15h22.00.908,empathy_intonation_perc_control,2024.2.4,Win32,60.24096386,60370d269f029917f89b4514,68817205a84113384fffdfe3,689b940454a62c92078eaeb9,,,,,,,,,,,,,1,,,,,,,,,,,,,,,,,,,,,,,,,,,,,,,,,,,,,54,fomentar,,,,,414.487,416.5368,1,1,1.5153,,0,60,60,53,1,REAL,FAKE,,,,,,,,,,,,,,,,,
,,,,,,,,,60370d269f029917f89b4514,"Mexican, Puerto Rican, New Yoriquen",13 or older,"no, only English or Spanish",yes,2025-08-12_15h22.00.908,empathy_intonation_perc_control,2024.2.4,Win32,60.24096386,60370d269f029917f89b4514,68817205a84113384fffdfe3,689b940454a62c92078eaeb9,,,,,,,,,,,,,1,,,,,,,,,,,,,,,,,,,,,,,,,,,,,,,,,,,,,40,alfombra,,,,,416.5378,418.9377,1,1,1.8658,,0,61,61,39,1,REAL,FAKE,,,,,,,,,,,,,,,,,
,,,,,,,,,60370d269f029917f89b4514,"Mexican, Puerto Rican, New Yoriquen",13 or older,"no, only English or Spanish",yes,2025-08-12_15h22.00.908,empathy_intonation_perc_control,2024.2.4,Win32,60.24096386,60370d269f029917f89b4514,68817205a84113384fffdfe3,689b940454a62c92078eaeb9,,,,,,,,,,,,,1,,,,,,,,,,,,,,,,,,,,,,,,,,,,,,,,,,,,,56,musgo,,,,,418.9387,420.4884,0,0,1.0216,,0,62,62,55,1,REAL,FAKE,,,,,,,,,,,,,,,,,
,,,,,,,,,60370d269f029917f89b4514,"Mexican, Puerto Rican, New Yoriquen",13 or older,"no, only English or Spanish",yes,2025-08-12_15h22.00.908,empathy_intonation_perc_control,2024.2.4,Win32,60.24096386,60370d269f029917f89b4514,68817205a84113384fffdfe3,689b940454a62c92078eaeb9,,,,,,,,,,,,,1,,,,,,,,,,,,,,,,,,,,,,,,,,,,,,,,,,,,,81,pozo,,,,,420.4894,423.2393,0,0,2.2206,,0,63,63,80,1,REAL,FAKE,,,,,,,,,,,,,,,,,
,,,,,,,,,60370d269f029917f89b4514,"Mexican, Puerto Rican, New Yoriquen",13 or older,"no, only English or Spanish",yes,2025-08-12_15h22.00.908,empathy_intonation_perc_control,2024.2.4,Win32,60.24096386,60370d269f029917f89b4514,68817205a84113384fffdfe3,689b940454a62c92078eaeb9,,,,,,,,,,,,,0,,,,,,,,,,,,,,,,,,,,,,,,,,,,,,,,,,,,,79,tropaje,,,,,423.2403,425.0901,0,1,1.3136,,0,64,64,78,1,REAL,FAKE,,,,,,,,,,,,,,,,,
,,,,,,,,,60370d269f029917f89b4514,"Mexican, Puerto Rican, New Yoriquen",13 or older,"no, only English or Spanish",yes,2025-08-12_15h22.00.908,empathy_intonation_perc_control,2024.2.4,Win32,60.24096386,60370d269f029917f89b4514,68817205a84113384fffdfe3,689b940454a62c92078eaeb9,,,,,,,,,,,,,0,,,,,,,,,,,,,,,,,,,,,,,,,,,,,,,,,,,,,19,brecedad,,,,,425.0912,427.0741,0,1,1.4562,,0,65,65,18,1,REAL,FAKE,,,,,,,,,,,,,,,,,
,,,,,,,,,60370d269f029917f89b4514,"Mexican, Puerto Rican, New Yoriquen",13 or older,"no, only English or Spanish",yes,2025-08-12_15h22.00.908,empathy_intonation_perc_control,2024.2.4,Win32,60.24096386,60370d269f029917f89b4514,68817205a84113384fffdfe3,689b940454a62c92078eaeb9,,,,,,,,,,,,,1,,,,,,,,,,,,,,,,,,,,,,,,,,,,,,,,,,,,,61,seda,,,,,427.0751,428.7916,1,1,1.1891,,0,66,66,60,1,REAL,FAKE,,,,,,,,,,,,,,,,,
,,,,,,,,,60370d269f029917f89b4514,"Mexican, Puerto Rican, New Yoriquen",13 or older,"no, only English or Spanish",yes,2025-08-12_15h22.00.908,empathy_intonation_perc_control,2024.2.4,Win32,60.24096386,60370d269f029917f89b4514,68817205a84113384fffdfe3,689b940454a62c92078eaeb9,,,,,,,,,,,,,1,,,,,,,,,,,,,,,,,,,,,,,,,,,,,,,,,,,,,2,pellizcar,,,,,428.7929,430.3754,0,0,1.0535,,0,67,67,1,1,REAL,FAKE,,,,,,,,,,,,,,,,,
,,,,,,,,,60370d269f029917f89b4514,"Mexican, Puerto Rican, New Yoriquen",13 or older,"no, only English or Spanish",yes,2025-08-12_15h22.00.908,empathy_intonation_perc_control,2024.2.4,Win32,60.24096386,60370d269f029917f89b4514,68817205a84113384fffdfe3,689b940454a62c92078eaeb9,,,,,,,,,,,,,1,,,,,,,,,,,,,,,,,,,,,,,,,,,,,,,,,,,,,65,bizcocho,,,,,430.3764,432.0428,1,1,1.135,,0,68,68,64,1,REAL,FAKE,,,,,,,,,,,,,,,,,
,,,,,,,,,60370d269f029917f89b4514,"Mexican, Puerto Rican, New Yoriquen",13 or older,"no, only English or Spanish",yes,2025-08-12_15h22.00.908,empathy_intonation_perc_control,2024.2.4,Win32,60.24096386,60370d269f029917f89b4514,68817205a84113384fffdfe3,689b940454a62c92078eaeb9,,,,,,,,,,,,,1,,,,,,,,,,,,,,,,,,,,,,,,,,,,,,,,,,,,,51,candado,,,,,432.0437,434.3935,1,1,1.8156,,0,69,69,50,1,REAL,FAKE,,,,,,,,,,,,,,,,,
,,,,,,,,,60370d269f029917f89b4514,"Mexican, Puerto Rican, New Yoriquen",13 or older,"no, only English or Spanish",yes,2025-08-12_15h22.00.908,empathy_intonation_perc_control,2024.2.4,Win32,60.24096386,60370d269f029917f89b4514,68817205a84113384fffdfe3,689b940454a62c92078eaeb9,,,,,,,,,,,,,0,,,,,,,,,,,,,,,,,,,,,,,,,,,,,,,,,,,,,16,abracer,,,,,434.3946,437.5613,0,1,2.6313,,0,70,70,15,1,REAL,FAKE,,,,,,,,,,,,,,,,,
,,,,,,,,,60370d269f029917f89b4514,"Mexican, Puerto Rican, New Yoriquen",13 or older,"no, only English or Spanish",yes,2025-08-12_15h22.00.908,empathy_intonation_perc_control,2024.2.4,Win32,60.24096386,60370d269f029917f89b4514,68817205a84113384fffdfe3,689b940454a62c92078eaeb9,,,,,,,,,,,,,0,,,,,,,,,,,,,,,,,,,,,,,,,,,,,,,,,,,,,58,plaudir,,,,,437.5623,439.1954,0,1,1.0994,,0,71,71,57,1,REAL,FAKE,,,,,,,,,,,,,,,,,
,,,,,,,,,60370d269f029917f89b4514,"Mexican, Puerto Rican, New Yoriquen",13 or older,"no, only English or Spanish",yes,2025-08-12_15h22.00.908,empathy_intonation_perc_control,2024.2.4,Win32,60.24096386,60370d269f029917f89b4514,68817205a84113384fffdfe3,689b940454a62c92078eaeb9,,,,,,,,,,,,,0,,,,,,,,,,,,,,,,,,,,,,,,,,,,,,,,,,,,,23,lampera,,,,,439.1964,440.8628,0,1,1.1314,,0,72,72,22,1,REAL,FAKE,,,,,,,,,,,,,,,,,
,,,,,,,,,60370d269f029917f89b4514,"Mexican, Puerto Rican, New Yoriquen",13 or older,"no, only English or Spanish",yes,2025-08-12_15h22.00.908,empathy_intonation_perc_control,2024.2.4,Win32,60.24096386,60370d269f029917f89b4514,68817205a84113384fffdfe3,689b940454a62c92078eaeb9,,,,,,,,,,,,,1,,,,,,,,,,,,,,,,,,,,,,,,,,,,,,,,,,,,,37,granuja,,,,,440.8638,443.5305,0,0,2.1335,,0,73,73,36,1,REAL,FAKE,,,,,,,,,,,,,,,,,
,,,,,,,,,60370d269f029917f89b4514,"Mexican, Puerto Rican, New Yoriquen",13 or older,"no, only English or Spanish",yes,2025-08-12_15h22.00.908,empathy_intonation_perc_control,2024.2.4,Win32,60.24096386,60370d269f029917f89b4514,68817205a84113384fffdfe3,689b940454a62c92078eaeb9,,,,,,,,,,,,,1,,,,,,,,,,,,,,,,,,,,,,,,,,,,,,,,,,,,,80,hormiga,,,,,443.5317,446.0649,0,0,1.9978,,0,74,74,79,1,REAL,FAKE,,,,,,,,,,,,,,,,,
,,,,,,,,,60370d269f029917f89b4514,"Mexican, Puerto Rican, New Yoriquen",13 or older,"no, only English or Spanish",yes,2025-08-12_15h22.00.908,empathy_intonation_perc_control,2024.2.4,Win32,60.24096386,60370d269f029917f89b4514,68817205a84113384fffdfe3,689b940454a62c92078eaeb9,,,,,,,,,,,,,1,,,,,,,,,,,,,,,,,,,,,,,,,,,,,,,,,,,,,60,matar,,,,,446.066,447.5654,1,1,0.9647,,0,75,75,59,1,REAL,FAKE,,,,,,,,,,,,,,,,,
,,,,,,,,,60370d269f029917f89b4514,"Mexican, Puerto Rican, New Yoriquen",13 or older,"no, only English or Spanish",yes,2025-08-12_15h22.00.908,empathy_intonation_perc_control,2024.2.4,Win32,60.24096386,60370d269f029917f89b4514,68817205a84113384fffdfe3,689b940454a62c92078eaeb9,,,,,,,,,,,,,0,,,,,,,,,,,,,,,,,,,,,,,,,,,,,,,,,,,,,27,acutación,,,,,447.5664,450.0999,0,1,2.0079,,0,76,76,26,1,REAL,FAKE,,,,,,,,,,,,,,,,,
,,,,,,,,,60370d269f029917f89b4514,"Mexican, Puerto Rican, New Yoriquen",13 or older,"no, only English or Spanish",yes,2025-08-12_15h22.00.908,empathy_intonation_perc_control,2024.2.4,Win32,60.24096386,60370d269f029917f89b4514,68817205a84113384fffdfe3,689b940454a62c92078eaeb9,,,,,,,,,,,,,1,,,,,,,,,,,,,,,,,,,,,,,,,,,,,,,,,,,,,9,hacha,,,,,450.101,452.2838,1,1,1.648,,0,77,77,8,1,REAL,FAKE,,,,,,,,,,,,,,,,,
,,,,,,,,,60370d269f029917f89b4514,"Mexican, Puerto Rican, New Yoriquen",13 or older,"no, only English or Spanish",yes,2025-08-12_15h22.00.908,empathy_intonation_perc_control,2024.2.4,Win32,60.24096386,60370d269f029917f89b4514,68817205a84113384fffdfe3,689b940454a62c92078eaeb9,,,,,,,,,,,,,1,,,,,,,,,,,,,,,,,,,,,,,,,,,,,,,,,,,,,31,pandilla,,,,,452.2848,453.9509,1,1,1.1307,,0,78,78,30,1,REAL,FAKE,,,,,,,,,,,,,,,,,
,,,,,,,,,60370d269f029917f89b4514,"Mexican, Puerto Rican, New Yoriquen",13 or older,"no, only English or Spanish",yes,2025-08-12_15h22.00.908,empathy_intonation_perc_control,2024.2.4,Win32,60.24096386,60370d269f029917f89b4514,68817205a84113384fffdfe3,689b940454a62c92078eaeb9,,,,,,,,,,,,,0,,,,,,,,,,,,,,,,,,,,,,,,,,,,,,,,,,,,,33,pauca,,,,,453.9519,455.8352,0,1,1.3573,,0,79,79,32,1,REAL,FAKE,,,,,,,,,,,,,,,,,
,,,,,,,,,60370d269f029917f89b4514,"Mexican, Puerto Rican, New Yoriquen",13 or older,"no, only English or Spanish",yes,2025-08-12_15h22.00.908,empathy_intonation_perc_control,2024.2.4,Win32,60.24096386,60370d269f029917f89b4514,68817205a84113384fffdfe3,689b940454a62c92078eaeb9,,,,,,,,,,,,,1,,,,,,,,,,,,,,,,,,,,,,,,,,,,,,,,,,,,,11,cenefa,,,,,455.8362,457.5858,0,0,1.2211,,0,80,80,10,1,REAL,FAKE,,,,,,,,,,,,,,,,,
,,,,,,,,,60370d269f029917f89b4514,"Mexican, Puerto Rican, New Yoriquen",13 or older,"no, only English or Spanish",yes,2025-08-12_15h22.00.908,empathy_intonation_perc_control,2024.2.4,Win32,60.24096386,60370d269f029917f89b4514,68817205a84113384fffdfe3,689b940454a62c92078eaeb9,,,,,,,,,,,,,0,,,,,,,,,,,,,,,,,,,,,,,,,,,,,,,,,,,,,92,click the 0 key.,,,,,457.587,459.62,0,1,1.4982,,0,81,81,91,1,REAL,FAKE,,,,,,,,,,,,,,,,,
,,,,,,,,,60370d269f029917f89b4514,"Mexican, Puerto Rican, New Yoriquen",13 or older,"no, only English or Spanish",yes,2025-08-12_15h22.00.908,empathy_intonation_perc_control,2024.2.4,Win32,60.24096386,60370d269f029917f89b4514,68817205a84113384fffdfe3,689b940454a62c92078eaeb9,,,,,,,,,,,,,1,,,,,,,,,,,,,,,,,,,,,,,,,,,,,,,,,,,,,12,asesinato,,,,,459.621,462.8544,1,1,2.6977,,0,82,82,11,1,REAL,FAKE,,,,,,,,,,,,,,,,,
,,,,,,,,,60370d269f029917f89b4514,"Mexican, Puerto Rican, New Yoriquen",13 or older,"no, only English or Spanish",yes,2025-08-12_15h22.00.908,empathy_intonation_perc_control,2024.2.4,Win32,60.24096386,60370d269f029917f89b4514,68817205a84113384fffdfe3,689b940454a62c92078eaeb9,,,,,,,,,,,,,1,,,,,,,,,,,,,,,,,,,,,,,,,,,,,,,,,,,,,69,engatusar,,,,,462.8555,466.0391,0,0,2.6501,,0,83,83,68,1,REAL,FAKE,,,,,,,,,,,,,,,,,
,,,,,,,,,60370d269f029917f89b4514,"Mexican, Puerto Rican, New Yoriquen",13 or older,"no, only English or Spanish",yes,2025-08-12_15h22.00.908,empathy_intonation_perc_control,2024.2.4,Win32,60.24096386,60370d269f029917f89b4514,68817205a84113384fffdfe3,689b940454a62c92078eaeb9,,,,,,,,,,,,,0,,,,,,,,,,,,,,,,,,,,,,,,,,,,,,,,,,,,,32,fatacidad,,,,,466.0404,468.4734,0,1,1.8968,,0,84,84,31,1,REAL,FAKE,,,,,,,,,,,,,,,,,
,,,,,,,,,60370d269f029917f89b4514,"Mexican, Puerto Rican, New Yoriquen",13 or older,"no, only English or Spanish",yes,2025-08-12_15h22.00.908,empathy_intonation_perc_control,2024.2.4,Win32,60.24096386,60370d269f029917f89b4514,68817205a84113384fffdfe3,689b940454a62c92078eaeb9,,,,,,,,,,,,,1,,,,,,,,,,,,,,,,,,,,,,,,,,,,,,,,,,,,,41,rebuscar,,,,,468.4746,470.1906,0,0,1.1853,,0,85,85,40,1,REAL,FAKE,,,,,,,,,,,,,,,,,
,,,,,,,,,60370d269f029917f89b4514,"Mexican, Puerto Rican, New Yoriquen",13 or older,"no, only English or Spanish",yes,2025-08-12_15h22.00.908,empathy_intonation_perc_control,2024.2.4,Win32,60.24096386,60370d269f029917f89b4514,68817205a84113384fffdfe3,689b940454a62c92078eaeb9,,,,,,,,,,,,,0,,,,,,,,,,,,,,,,,,,,,,,,,,,,,,,,,,,,,21,capillo,,,,,470.1915,472.4915,0,1,1.7697,,0,86,86,20,1,REAL,FAKE,,,,,,,,,,,,,,,,,
,,,,,,,,,60370d269f029917f89b4514,"Mexican, Puerto Rican, New Yoriquen",13 or older,"no, only English or Spanish",yes,2025-08-12_15h22.00.908,empathy_intonation_perc_control,2024.2.4,Win32,60.24096386,60370d269f029917f89b4514,68817205a84113384fffdfe3,689b940454a62c92078eaeb9,,,,,,,,,,,,,0,,,,,,,,,,,,,,,,,,,,,,,,,,,,,,,,,,,,,1,terzo,,,,,472.4925,474.5424,0,1,1.514,,0,87,87,0,1,REAL,FAKE,,,,,,,,,,,,,,,,,
,,,,,,,,,60370d269f029917f89b4514,"Mexican, Puerto Rican, New Yoriquen",13 or older,"no, only English or Spanish",yes,2025-08-12_15h22.00.908,empathy_intonation_perc_control,2024.2.4,Win32,60.24096386,60370d269f029917f89b4514,68817205a84113384fffdfe3,689b940454a62c92078eaeb9,,,,,,,,,,,,,1,,,,,,,,,,,,,,,,,,,,,,,,,,,,,,,,,,,,,7,pésimo,,,,,474.5434,476.4597,0,0,1.3802,,0,88,88,6,1,REAL,FAKE,,,,,,,,,,,,,,,,,
,,,,,,,,,60370d269f029917f89b4514,"Mexican, Puerto Rican, New Yoriquen",13 or older,"no, only English or Spanish",yes,2025-08-12_15h22.00.908,empathy_intonation_perc_control,2024.2.4,Win32,60.24096386,60370d269f029917f89b4514,68817205a84113384fffdfe3,689b940454a62c92078eaeb9,,,,,,,,,,,,,0,,,,,,,,,,,,,,,,,,,,,,,,,,,,,,,,,,,,,72,pemición,,,,,476.4606,478.1605,0,1,1.1703,,0,89,89,71,1,REAL,FAKE,,,,,,,,,,,,,,,,,
,,,,,,,,,60370d269f029917f89b4514,"Mexican, Puerto Rican, New Yoriquen",13 or older,"no, only English or Spanish",yes,2025-08-12_15h22.00.908,empathy_intonation_perc_control,2024.2.4,Win32,60.24096386,60370d269f029917f89b4514,68817205a84113384fffdfe3,689b940454a62c92078eaeb9,,,,,,,,,,,,,0,,,,,,,,,,,,,,,,,,,,,,,,,,,,,,,,,,,,,87,grodo,,,,,478.1615,479.7109,0,1,1.021,,0,90,90,86,1,REAL,FAKE,,,,,,,,,,,,,,,,,
,,,,,,,,,60370d269f029917f89b4514,"Mexican, Puerto Rican, New Yoriquen",13 or older,"no, only English or Spanish",yes,2025-08-12_15h22.00.908,empathy_intonation_perc_control,2024.2.4,Win32,60.24096386,60370d269f029917f89b4514,68817205a84113384fffdfe3,689b940454a62c92078eaeb9,,,,,,,,,,,,,1,,,,,,,,,,,,,,,,,,,,,,,,,,,,,,,,,,,,,20,ávido,,,,,479.7118,481.5616,0,0,1.3144,,0,91,91,19,1,REAL,FAKE,,,,,,,,,,,,,,,,,
,,,,,,,,,60370d269f029917f89b4514,"Mexican, Puerto Rican, New Yoriquen",13 or older,"no, only English or Spanish",yes,2025-08-12_15h22.00.908,empathy_intonation_perc_control,2024.2.4,Win32,60.24096386,60370d269f029917f89b4514,68817205a84113384fffdfe3,689b940454a62c92078eaeb9,,,,,,,,,,,,,,,,,,,,,,,,,,,,,,,,,,,,,,,,,,,,,,,,,,,,,,,,,,,,,,,,,,,,,481.562,490.0485,,,,,,,,,,,,,,,
,,,,,,,,,60370d269f029917f89b4514,"Mexican, Puerto Rican, New Yoriquen",13 or older,"no, only English or Spanish",yes,2025-08-12_15h22.00.908,empathy_intonation_perc_control,2024.2.4,Win32,60.24096386,60370d269f029917f89b4514,68817205a84113384fffdfe3,689b940454a62c92078eaeb9,,,,,,,,,,,,,,,,,,,,,,,,,,,1,,,,,,,,,,,,,,,,,,,,,,,,,,,,,,,,,,,,,,,,,,,,490.0574,494.5499,slightly agree,0,0,0,0,1,I can easily tell if someone else wants to enter a conversation.,1,0,1,0,,
,,,,,,,,,60370d269f029917f89b4514,"Mexican, Puerto Rican, New Yoriquen",13 or older,"no, only English or Spanish",yes,2025-08-12_15h22.00.908,empathy_intonation_perc_control,2024.2.4,Win32,60.24096386,60370d269f029917f89b4514,68817205a84113384fffdfe3,689b940454a62c92078eaeb9,,,,,,,,,,,,,,,,,,,,,,,,,,,2,,,,,,,,,,,,,,,,,,,,,,,,,,,,,,,,,,,,,,,,,,,,494.5513,501.8692,slightly agree,0,1,1,1,1,I prefer animals to humans.,0,1,0,0,,
,,,,,,,,,60370d269f029917f89b4514,"Mexican, Puerto Rican, New Yoriquen",13 or older,"no, only English or Spanish",yes,2025-08-12_15h22.00.908,empathy_intonation_perc_control,2024.2.4,Win32,60.24096386,60370d269f029917f89b4514,68817205a84113384fffdfe3,689b940454a62c92078eaeb9,,,,,,,,,,,,,,,,,,,,,,,,,,,3,,,,,,,,,,,,,,,,,,,,,,,,,,,,,,,,,,,,,,,,,,,,501.8705,506.0543,slightly disagree,0,2,2,2,1,I try to keep up with the current trends and fashions.,0,1,0,0,,
,,,,,,,,,60370d269f029917f89b4514,"Mexican, Puerto Rican, New Yoriquen",13 or older,"no, only English or Spanish",yes,2025-08-12_15h22.00.908,empathy_intonation_perc_control,2024.2.4,Win32,60.24096386,60370d269f029917f89b4514,68817205a84113384fffdfe3,689b940454a62c92078eaeb9,,,,,,,,,,,,,,,,,,,,,,,,,,,4,,,,,,,,,,,,,,,,,,,,,,,,,,,,,,,,,,,,,,,,,,,,506.0557,515.1408,strongly agree,0,3,3,3,1,"I find it difficult to explain to others things that I understand easily,   when they don't understand it first time.",1,0,0,1,,
,,,,,,,,,60370d269f029917f89b4514,"Mexican, Puerto Rican, New Yoriquen",13 or older,"no, only English or Spanish",yes,2025-08-12_15h22.00.908,empathy_intonation_perc_control,2024.2.4,Win32,60.24096386,60370d269f029917f89b4514,68817205a84113384fffdfe3,689b940454a62c92078eaeb9,,,,,,,,,,,,,,,,,,,,,,,,,,,5,,,,,,,,,,,,,,,,,,,,,,,,,,,,,,,,,,,,,,,,,,,,515.1417,518.0756,slightly disagree,0,4,4,4,1,I dream most nights.,0,1,0,0,,
,,,,,,,,,60370d269f029917f89b4514,"Mexican, Puerto Rican, New Yoriquen",13 or older,"no, only English or Spanish",yes,2025-08-12_15h22.00.908,empathy_intonation_perc_control,2024.2.4,Win32,60.24096386,60370d269f029917f89b4514,68817205a84113384fffdfe3,689b940454a62c92078eaeb9,,,,,,,,,,,,,,,,,,,,,,,,,,,6,,,,,,,,,,,,,,,,,,,,,,,,,,,,,,,,,,,,,,,,,,,,518.0766,521.5935,slightly agree,0,5,5,5,1,I really enjoy caring for other people.,1,0,1,0,,
,,,,,,,,,60370d269f029917f89b4514,"Mexican, Puerto Rican, New Yoriquen",13 or older,"no, only English or Spanish",yes,2025-08-12_15h22.00.908,empathy_intonation_perc_control,2024.2.4,Win32,60.24096386,60370d269f029917f89b4514,68817205a84113384fffdfe3,689b940454a62c92078eaeb9,,,,,,,,,,,,,,,,,,,,,,,,,,,7,,,,,,,,,,,,,,,,,,,,,,,,,,,,,,,,,,,,,,,,,,,,521.5947,525.9954,strongly agree,0,6,6,6,1,I try to solve my own problems rather than discussing them with others.,0,1,0,0,,
,,,,,,,,,60370d269f029917f89b4514,"Mexican, Puerto Rican, New Yoriquen",13 or older,"no, only English or Spanish",yes,2025-08-12_15h22.00.908,empathy_intonation_perc_control,2024.2.4,Win32,60.24096386,60370d269f029917f89b4514,68817205a84113384fffdfe3,689b940454a62c92078eaeb9,,,,,,,,,,,,,,,,,,,,,,,,,,,8,,,,,,,,,,,,,,,,,,,,,,,,,,,,,,,,,,,,,,,,,,,,525.9964,529.9968,slightly disagree,0,7,7,7,1,I find it hard to know what to do in a social situation.,1,0,0,1,,
,,,,,,,,,60370d269f029917f89b4514,"Mexican, Puerto Rican, New Yoriquen",13 or older,"no, only English or Spanish",yes,2025-08-12_15h22.00.908,empathy_intonation_perc_control,2024.2.4,Win32,60.24096386,60370d269f029917f89b4514,68817205a84113384fffdfe3,689b940454a62c92078eaeb9,,,,,,,,,,,,,,,,,,,,,,,,,,,9,,,,,,,,,,,,,,,,,,,,,,,,,,,,,,,,,,,,,,,,,,,,529.9978,533.7983,strongly disagree,0,8,8,8,1,I am at my best first thing in the morning.,0,1,0,0,,
