instructions_2afc.started,instructions_2afc.stopped,instructions_2afc_loop.thisRepN,instructions_2afc_loop.thisTrialN,instructions_2afc_loop.thisN,instructions_2afc_loop.thisIndex,instructions_2afc_loop.ran,instructions_text,continue_text,participant_id,"What variety of Spanish are you most familiar with? (e.g., Peruvian, Spanish, Mexican)",At what age did you begin learning Spanish?,Are you proficient in any languages other than English/Spanish?,"Are you familiar with Caribbean (e.g., Caribbean, Puerto Rican) or Galician Spanish?",date,expName,psychopyVersion,OS,frameRate,id,study_id,session,practice_2afc.started,practice_2afc.stopped,key_resp_2afc_practice.keys,key_resp_2afc_practice.corr,key_resp_2afc_practice.rt,key_resp_2afc_practice.duration,trials_2afc_practice_loop.thisRepN,trials_2afc_practice_loop.thisTrialN,trials_2afc_practice_loop.thisN,trials_2afc_practice_loop.thisIndex,trials_2afc_practice_loop.ran,path,correct_response,check_2afc.started,check_2afc.stopped,trial_2afc.started,trial_2afc.stopped,key_resp_2afc_trial.keys,key_resp_2afc_trial.corr,key_resp_2afc_trial.rt,key_resp_2afc_trial.duration,trials_2afc_loop.thisRepN,trials_2afc_loop.thisTrialN,trials_2afc_loop.thisN,trials_2afc_loop.thisIndex,trials_2afc_loop.ran,item_num,target,variety,instructions_lextale.started,instructions_lextale.stopped,instructions_lextale_loop.thisRepN,instructions_lextale_loop.thisTrialN,instructions_lextale_loop.thisN,instructions_lextale_loop.thisIndex,instructions_lextale_loop.ran,practice_lextale.started,practice_lextale.stopped,key_resp_lextale_practice.keys,key_resp_lextale_practice.corr,key_resp_lextale_practice.rt,key_resp_lextale_practice.duration,practice_feedback_lextale.started,practice_feedback_lextale.stopped,trials_lextale_practice_loop.thisRepN,trials_lextale_practice_loop.thisTrialN,trials_lextale_practice_loop.thisN,trials_lextale_practice_loop.thisIndex,trials_lextale_practice_loop.ran,stim,word,prac_button_real,prac_button_false,check_lextale.started,check_lextale.stopped,trial_lextale.started,trial_lextale.stopped,key_resp_lextale_trial.keys,key_resp_lextale_trial.corr,key_resp_lextale_trial.rt,key_resp_lextale_trial.duration,trials_lextale_loop.thisRepN,trials_lextale_loop.thisTrialN,trials_lextale_loop.thisN,trials_lextale_loop.thisIndex,trials_lextale_loop.ran,button_real,button_false,instructions_eq.started,instructions_eq.stopped,trial_eq.started,trial_eq.stopped,slider_eq_trial.response,trials_eq_loop.thisRepN,trials_eq_loop.thisTrialN,trials_eq_loop.thisN,trials_eq_loop.thisIndex,trials_eq_loop.ran,item,is_test_item,is_distractor,is_agree_score,is_disagree_score,end_exp.started,end_exp.stopped
0.0149,7.1523,0,0,0,0,1,"In the following task you are going to hear a series of utterances. 

  You will decide if the utterances sound like questions or not using your keyboard.", (press the spacebar to continue),60cbabd69ddfb4d7243a1e38,Spanish,13 or older,"no, only English or Spanish",no,2025-07-24_09h49.39.931,empathy_intonation_perc_control,2024.2.4,Win32,59.88023952,60cbabd69ddfb4d7243a1e38,68817205a84113384fffdfe3,688239eb4a44cb1be9057769,,,,,,,,,,,,,,,,,,,,,,,,,,,,,,,,,,,,,,,,,,,,,,,,,,,,,,,,,,,,,,,,,,,,,,,,,,,,,,,,,,,,,
7.1571,16.4743,0,1,1,1,1,"If you believe the utterance is a question, type '1' (for 'yes') and if you do not 
  believe it is a question type '0' (for 'no').

  Let's practice a bit...", (press the spacebar to continue),60cbabd69ddfb4d7243a1e38,Spanish,13 or older,"no, only English or Spanish",no,2025-07-24_09h49.39.931,empathy_intonation_perc_control,2024.2.4,Win32,59.88023952,60cbabd69ddfb4d7243a1e38,68817205a84113384fffdfe3,688239eb4a44cb1be9057769,,,,,,,,,,,,,,,,,,,,,,,,,,,,,,,,,,,,,,,,,,,,,,,,,,,,,,,,,,,,,,,,,,,,,,,,,,,,,,,,,,,,,
,,,,,,,,,60cbabd69ddfb4d7243a1e38,Spanish,13 or older,"no, only English or Spanish",no,2025-07-24_09h49.39.931,empathy_intonation_perc_control,2024.2.4,Win32,59.88023952,60cbabd69ddfb4d7243a1e38,68817205a84113384fffdfe3,688239eb4a44cb1be9057769,16.4973,19.6738,1,1,2.6648,,0,0,0,3,1,./stim/wavs/mexican_question_filler_Felipe-no-tiene-contrasena.wav,1,,,,,,,,,,,,,,,,,,,,,,,,,,,,,,,,,,,,,,,,,,,,,,,,,,,,,,,,,,,,,,,,,,,,,,,,
,,,,,,,,,60cbabd69ddfb4d7243a1e38,Spanish,13 or older,"no, only English or Spanish",no,2025-07-24_09h49.39.931,empathy_intonation_perc_control,2024.2.4,Win32,59.88023952,60cbabd69ddfb4d7243a1e38,68817205a84113384fffdfe3,688239eb4a44cb1be9057769,19.6754,21.9171,0,1,1.7265,,0,1,1,4,1,./stim/wavs/cuban_statement_filler_Cocinabas-por-la-noche.wav,0,,,,,,,,,,,,,,,,,,,,,,,,,,,,,,,,,,,,,,,,,,,,,,,,,,,,,,,,,,,,,,,,,,,,,,,,
,,,,,,,,,60cbabd69ddfb4d7243a1e38,Spanish,13 or older,"no, only English or Spanish",no,2025-07-24_09h49.39.931,empathy_intonation_perc_control,2024.2.4,Win32,59.88023952,60cbabd69ddfb4d7243a1e38,68817205a84113384fffdfe3,688239eb4a44cb1be9057769,21.9174,24.7718,0,1,2.3312,,0,2,2,6,1,./stim/wavs/peruvian_statement_filler_El-nino-habla-con-su-madre.wav,0,,,,,,,,,,,,,,,,,,,,,,,,,,,,,,,,,,,,,,,,,,,,,,,,,,,,,,,,,,,,,,,,,,,,,,,,
,,,,,,,,,60cbabd69ddfb4d7243a1e38,Spanish,13 or older,"no, only English or Spanish",no,2025-07-24_09h49.39.931,empathy_intonation_perc_control,2024.2.4,Win32,59.88023952,60cbabd69ddfb4d7243a1e38,68817205a84113384fffdfe3,688239eb4a44cb1be9057769,24.7725,27.0026,1,1,1.7117,,0,3,3,2,1,./stim/wavs/chilean_question_filler_Mi-padre-cantaba-bien.wav,1,,,,,,,,,,,,,,,,,,,,,,,,,,,,,,,,,,,,,,,,,,,,,,,,,,,,,,,,,,,,,,,,,,,,,,,,
,,,,,,,,,60cbabd69ddfb4d7243a1e38,Spanish,13 or older,"no, only English or Spanish",no,2025-07-24_09h49.39.931,empathy_intonation_perc_control,2024.2.4,Win32,59.88023952,60cbabd69ddfb4d7243a1e38,68817205a84113384fffdfe3,688239eb4a44cb1be9057769,27.0029,29.5265,0,1,2.0032,,0,4,4,5,1,./stim/wavs/andalusian_statement_filler_Alberto-nunca-se-afeita.wav,0,,,,,,,,,,,,,,,,,,,,,,,,,,,,,,,,,,,,,,,,,,,,,,,,,,,,,,,,,,,,,,,,,,,,,,,,
,,,,,,,,,60cbabd69ddfb4d7243a1e38,Spanish,13 or older,"no, only English or Spanish",no,2025-07-24_09h49.39.931,empathy_intonation_perc_control,2024.2.4,Win32,59.88023952,60cbabd69ddfb4d7243a1e38,68817205a84113384fffdfe3,688239eb4a44cb1be9057769,29.5273,31.9711,0,1,1.9304,,0,5,5,7,1,./stim/wavs/puertorican_statement_filler_La-nina-pinta-con-su-amiga.wav,0,,,,,,,,,,,,,,,,,,,,,,,,,,,,,,,,,,,,,,,,,,,,,,,,,,,,,,,,,,,,,,,,,,,,,,,,
,,,,,,,,,60cbabd69ddfb4d7243a1e38,Spanish,13 or older,"no, only English or Spanish",no,2025-07-24_09h49.39.931,empathy_intonation_perc_control,2024.2.4,Win32,59.88023952,60cbabd69ddfb4d7243a1e38,68817205a84113384fffdfe3,688239eb4a44cb1be9057769,31.972,33.9879,1,1,1.497,,0,6,6,1,1,./stim/wavs/argentine_question_filler_Mi-vecino-habla-mucho.wav,1,,,,,,,,,,,,,,,,,,,,,,,,,,,,,,,,,,,,,,,,,,,,,,,,,,,,,,,,,,,,,,,,,,,,,,,,
,,,,,,,,,60cbabd69ddfb4d7243a1e38,Spanish,13 or older,"no, only English or Spanish",no,2025-07-24_09h49.39.931,empathy_intonation_perc_control,2024.2.4,Win32,59.88023952,60cbabd69ddfb4d7243a1e38,68817205a84113384fffdfe3,688239eb4a44cb1be9057769,33.9887,36.4532,1,1,1.9477,,0,7,7,0,1,./stim/wavs/castilian_question_filler_Mi-esposo-conoce-al-chico.wav,1,,,,,,,,,,,,,,,,,,,,,,,,,,,,,,,,,,,,,,,,,,,,,,,,,,,,,,,,,,,,,,,,,,,,,,,,
,,,,,,,,,60cbabd69ddfb4d7243a1e38,Spanish,13 or older,"no, only English or Spanish",no,2025-07-24_09h49.39.931,empathy_intonation_perc_control,2024.2.4,Win32,59.88023952,60cbabd69ddfb4d7243a1e38,68817205a84113384fffdfe3,688239eb4a44cb1be9057769,,,,,,,,,,,,,,36.4537,38.5925,,,,,,,,,,,,,,,,,,,,,,,,,,,,,,,,,,,,,,,,,,,,,,,,,,,,,,,,,,,,,,,,,,,,,,
,,,,,,,,,60cbabd69ddfb4d7243a1e38,Spanish,13 or older,"no, only English or Spanish",no,2025-07-24_09h49.39.931,empathy_intonation_perc_control,2024.2.4,Win32,59.88023952,60cbabd69ddfb4d7243a1e38,68817205a84113384fffdfe3,688239eb4a44cb1be9057769,,,,,,,,,,,,./stim/wavs/castilian_match_declarative-broad-focus_Emilio-ama-la-marcha.wav,0,,,38.6177,40.9876,0,1,1.8549,,0,0,0,45,1,46,0,castilian,,,,,,,,,,,,,,,,,,,,,,,,,,,,,,,,,,,,,,,,,,,,,,,,,,,,,,,,
,,,,,,,,,60cbabd69ddfb4d7243a1e38,Spanish,13 or older,"no, only English or Spanish",no,2025-07-24_09h49.39.931,empathy_intonation_perc_control,2024.2.4,Win32,59.88023952,60cbabd69ddfb4d7243a1e38,68817205a84113384fffdfe3,688239eb4a44cb1be9057769,,,,,,,,,,,,./stim/wavs/mexican_mismatch_declarative-broad-focus_El-bebe-comia-muy-bien.wav,0,,,40.9879,43.3622,0,1,1.8536,,0,1,1,78,1,79,0,mexican,,,,,,,,,,,,,,,,,,,,,,,,,,,,,,,,,,,,,,,,,,,,,,,,,,,,,,,,
,,,,,,,,,60cbabd69ddfb4d7243a1e38,Spanish,13 or older,"no, only English or Spanish",no,2025-07-24_09h49.39.931,empathy_intonation_perc_control,2024.2.4,Win32,59.88023952,60cbabd69ddfb4d7243a1e38,68817205a84113384fffdfe3,688239eb4a44cb1be9057769,,,,,,,,,,,,./stim/wavs/puertorican_match_interrogative-total-yn_David-leia-el-libro.wav,1,,,43.3631,45.5413,0,0,1.6658,,0,2,2,20,1,21,1,puertorican,,,,,,,,,,,,,,,,,,,,,,,,,,,,,,,,,,,,,,,,,,,,,,,,,,,,,,,,
,,,,,,,,,60cbabd69ddfb4d7243a1e38,Spanish,13 or older,"no, only English or Spanish",no,2025-07-24_09h49.39.931,empathy_intonation_perc_control,2024.2.4,Win32,59.88023952,60cbabd69ddfb4d7243a1e38,68817205a84113384fffdfe3,688239eb4a44cb1be9057769,,,,,,,,,,,,./stim/wavs/cuban_match_declarative-broad-focus_Manuela-vende-el-carro.wav,0,,,45.5417,47.9462,0,1,1.8877,,0,3,3,52,1,53,0,cuban,,,,,,,,,,,,,,,,,,,,,,,,,,,,,,,,,,,,,,,,,,,,,,,,,,,,,,,,
,,,,,,,,,60cbabd69ddfb4d7243a1e38,Spanish,13 or older,"no, only English or Spanish",no,2025-07-24_09h49.39.931,empathy_intonation_perc_control,2024.2.4,Win32,59.88023952,60cbabd69ddfb4d7243a1e38,68817205a84113384fffdfe3,688239eb4a44cb1be9057769,,,,,,,,,,,,./stim/wavs/castilian_mismatch_declarative-broad-focus_Mi-novio-viene-del-lago.wav,0,,,47.9468,50.7092,0,1,2.2494,,0,4,4,71,1,72,0,castilian,,,,,,,,,,,,,,,,,,,,,,,,,,,,,,,,,,,,,,,,,,,,,,,,,,,,,,,,
,,,,,,,,,60cbabd69ddfb4d7243a1e38,Spanish,13 or older,"no, only English or Spanish",no,2025-07-24_09h49.39.931,empathy_intonation_perc_control,2024.2.4,Win32,59.88023952,60cbabd69ddfb4d7243a1e38,68817205a84113384fffdfe3,688239eb4a44cb1be9057769,,,,,,,,,,,,./stim/wavs/castilian_mismatch_interrogative-total-yn_La-maestra-vive-en-Paris.wav,1,,,50.71,53.2583,1,1,2.0314,,0,5,5,24,1,25,0,castilian,,,,,,,,,,,,,,,,,,,,,,,,,,,,,,,,,,,,,,,,,,,,,,,,,,,,,,,,
,,,,,,,,,60cbabd69ddfb4d7243a1e38,Spanish,13 or older,"no, only English or Spanish",no,2025-07-24_09h49.39.931,empathy_intonation_perc_control,2024.2.4,Win32,59.88023952,60cbabd69ddfb4d7243a1e38,68817205a84113384fffdfe3,688239eb4a44cb1be9057769,,,,,,,,,,,,./stim/wavs/castilian_mismatch_declarative-broad-focus_El-nino-oye-el-rio.wav,0,,,53.2592,55.5927,0,1,1.8162,,0,6,6,68,1,69,0,castilian,,,,,,,,,,,,,,,,,,,,,,,,,,,,,,,,,,,,,,,,,,,,,,,,,,,,,,,,
,,,,,,,,,60cbabd69ddfb4d7243a1e38,Spanish,13 or older,"no, only English or Spanish",no,2025-07-24_09h49.39.931,empathy_intonation_perc_control,2024.2.4,Win32,59.88023952,60cbabd69ddfb4d7243a1e38,68817205a84113384fffdfe3,688239eb4a44cb1be9057769,,,,,,,,,,,,./stim/wavs/cuban_match_interrogative-total-yn_Marta-abre-el-regalo.wav,1,,,55.5932,57.7849,0,0,1.6577,,0,7,7,11,1,12,1,cuban,,,,,,,,,,,,,,,,,,,,,,,,,,,,,,,,,,,,,,,,,,,,,,,,,,,,,,,,
,,,,,,,,,60cbabd69ddfb4d7243a1e38,Spanish,13 or older,"no, only English or Spanish",no,2025-07-24_09h49.39.931,empathy_intonation_perc_control,2024.2.4,Win32,59.88023952,60cbabd69ddfb4d7243a1e38,68817205a84113384fffdfe3,688239eb4a44cb1be9057769,,,,,,,,,,,,./stim/wavs/mexican_match_interrogative-total-yn_Daniel-iba-a-Bolivia.wav,1,,,57.7856,60.0278,1,1,1.7166,,0,8,8,13,1,14,0,mexican,,,,,,,,,,,,,,,,,,,,,,,,,,,,,,,,,,,,,,,,,,,,,,,,,,,,,,,,
,,,,,,,,,60cbabd69ddfb4d7243a1e38,Spanish,13 or older,"no, only English or Spanish",no,2025-07-24_09h49.39.931,empathy_intonation_perc_control,2024.2.4,Win32,59.88023952,60cbabd69ddfb4d7243a1e38,68817205a84113384fffdfe3,688239eb4a44cb1be9057769,,,,,,,,,,,,./stim/wavs/mexican_match_declarative-broad-focus_Emilio-ama-la-marcha.wav,0,,,60.0285,62.3491,0,1,1.8063,,0,9,9,59,1,60,0,mexican,,,,,,,,,,,,,,,,,,,,,,,,,,,,,,,,,,,,,,,,,,,,,,,,,,,,,,,,
,,,,,,,,,60cbabd69ddfb4d7243a1e38,Spanish,13 or older,"no, only English or Spanish",no,2025-07-24_09h49.39.931,empathy_intonation_perc_control,2024.2.4,Win32,59.88023952,60cbabd69ddfb4d7243a1e38,68817205a84113384fffdfe3,688239eb4a44cb1be9057769,,,,,,,,,,,,./stim/wavs/cuban_match_declarative-broad-focus_Maria-bebe-el-vino.wav,0,,,62.3498,64.5066,0,1,1.6455,,0,10,10,53,1,54,0,cuban,,,,,,,,,,,,,,,,,,,,,,,,,,,,,,,,,,,,,,,,,,,,,,,,,,,,,,,,
,,,,,,,,,60cbabd69ddfb4d7243a1e38,Spanish,13 or older,"no, only English or Spanish",no,2025-07-24_09h49.39.931,empathy_intonation_perc_control,2024.2.4,Win32,59.88023952,60cbabd69ddfb4d7243a1e38,68817205a84113384fffdfe3,688239eb4a44cb1be9057769,,,,,,,,,,,,./stim/wavs/castilian_match_interrogative-total-yn_Maria-bebe-el-vino.wav,1,,,64.5074,66.6091,1,1,1.5822,,0,11,11,3,1,4,0,castilian,,,,,,,,,,,,,,,,,,,,,,,,,,,,,,,,,,,,,,,,,,,,,,,,,,,,,,,,
,,,,,,,,,60cbabd69ddfb4d7243a1e38,Spanish,13 or older,"no, only English or Spanish",no,2025-07-24_09h49.39.931,empathy_intonation_perc_control,2024.2.4,Win32,59.88023952,60cbabd69ddfb4d7243a1e38,68817205a84113384fffdfe3,688239eb4a44cb1be9057769,,,,,,,,,,,,./stim/wavs/cuban_mismatch_interrogative-total-yn_El-hombre-mira-la-luna.wav,1,,,66.6097,68.7284,0,0,1.5931,,0,12,12,29,1,30,1,cuban,,,,,,,,,,,,,,,,,,,,,,,,,,,,,,,,,,,,,,,,,,,,,,,,,,,,,,,,
,,,,,,,,,60cbabd69ddfb4d7243a1e38,Spanish,13 or older,"no, only English or Spanish",no,2025-07-24_09h49.39.931,empathy_intonation_perc_control,2024.2.4,Win32,59.88023952,60cbabd69ddfb4d7243a1e38,68817205a84113384fffdfe3,688239eb4a44cb1be9057769,,,,,,,,,,,,./stim/wavs/mexican_match_declarative-broad-focus_Daniel-iba-a-Bolivia.wav,0,,,68.7292,71.4569,0,1,2.2123,,0,13,13,57,1,58,0,mexican,,,,,,,,,,,,,,,,,,,,,,,,,,,,,,,,,,,,,,,,,,,,,,,,,,,,,,,,
,,,,,,,,,60cbabd69ddfb4d7243a1e38,Spanish,13 or older,"no, only English or Spanish",no,2025-07-24_09h49.39.931,empathy_intonation_perc_control,2024.2.4,Win32,59.88023952,60cbabd69ddfb4d7243a1e38,68817205a84113384fffdfe3,688239eb4a44cb1be9057769,,,,,,,,,,,,./stim/wavs/mexican_mismatch_declarative-broad-focus_El-hombre-mira-la-luna.wav,0,,,71.4572,73.6332,0,1,1.6561,,0,14,14,79,1,80,0,mexican,,,,,,,,,,,,,,,,,,,,,,,,,,,,,,,,,,,,,,,,,,,,,,,,,,,,,,,,
,,,,,,,,,60cbabd69ddfb4d7243a1e38,Spanish,13 or older,"no, only English or Spanish",no,2025-07-24_09h49.39.931,empathy_intonation_perc_control,2024.2.4,Win32,59.88023952,60cbabd69ddfb4d7243a1e38,68817205a84113384fffdfe3,688239eb4a44cb1be9057769,,,,,,,,,,,,./stim/wavs/cuban_mismatch_interrogative-total-yn_El-nino-oye-el-rio.wav,1,,,73.634,75.6819,0,0,1.5311,,0,15,15,30,1,31,1,cuban,,,,,,,,,,,,,,,,,,,,,,,,,,,,,,,,,,,,,,,,,,,,,,,,,,,,,,,,
,,,,,,,,,60cbabd69ddfb4d7243a1e38,Spanish,13 or older,"no, only English or Spanish",no,2025-07-24_09h49.39.931,empathy_intonation_perc_control,2024.2.4,Win32,59.88023952,60cbabd69ddfb4d7243a1e38,68817205a84113384fffdfe3,688239eb4a44cb1be9057769,,,,,,,,,,,,./stim/wavs/cuban_match_declarative-broad-focus_Daniel-iba-a-Bolivia.wav,0,,,75.6827,78.1501,0,1,1.9556,,0,16,16,51,1,52,0,cuban,,,,,,,,,,,,,,,,,,,,,,,,,,,,,,,,,,,,,,,,,,,,,,,,,,,,,,,,
,,,,,,,,,60cbabd69ddfb4d7243a1e38,Spanish,13 or older,"no, only English or Spanish",no,2025-07-24_09h49.39.931,empathy_intonation_perc_control,2024.2.4,Win32,59.88023952,60cbabd69ddfb4d7243a1e38,68817205a84113384fffdfe3,688239eb4a44cb1be9057769,,,,,,,,,,,,./stim/wavs/castilian_mismatch_interrogative-total-yn_Mi-novio-viene-del-lago.wav,1,,,78.1506,80.5494,1,1,1.8874,,0,17,17,27,1,28,0,castilian,,,,,,,,,,,,,,,,,,,,,,,,,,,,,,,,,,,,,,,,,,,,,,,,,,,,,,,,
,,,,,,,,,60cbabd69ddfb4d7243a1e38,Spanish,13 or older,"no, only English or Spanish",no,2025-07-24_09h49.39.931,empathy_intonation_perc_control,2024.2.4,Win32,59.88023952,60cbabd69ddfb4d7243a1e38,68817205a84113384fffdfe3,688239eb4a44cb1be9057769,,,,,,,,,,,,./stim/wavs/mexican_mismatch_declarative-broad-focus_La-maestra-vive-en-Paris.wav,0,,,80.55,82.9585,0,1,1.8971,,0,18,18,80,1,81,0,mexican,,,,,,,,,,,,,,,,,,,,,,,,,,,,,,,,,,,,,,,,,,,,,,,,,,,,,,,,
,,,,,,,,,60cbabd69ddfb4d7243a1e38,Spanish,13 or older,"no, only English or Spanish",no,2025-07-24_09h49.39.931,empathy_intonation_perc_control,2024.2.4,Win32,59.88023952,60cbabd69ddfb4d7243a1e38,68817205a84113384fffdfe3,688239eb4a44cb1be9057769,,,,,,,,,,,,./stim/wavs/cuban_mismatch_declarative-broad-focus_El-hombre-mira-la-luna.wav,0,,,82.959,85.2805,0,1,1.8008,,0,19,19,74,1,75,0,cuban,,,,,,,,,,,,,,,,,,,,,,,,,,,,,,,,,,,,,,,,,,,,,,,,,,,,,,,,
,,,,,,,,,60cbabd69ddfb4d7243a1e38,Spanish,13 or older,"no, only English or Spanish",no,2025-07-24_09h49.39.931,empathy_intonation_perc_control,2024.2.4,Win32,59.88023952,60cbabd69ddfb4d7243a1e38,68817205a84113384fffdfe3,688239eb4a44cb1be9057769,,,,,,,,,,,,./stim/wavs/castilian_match_interrogative-total-yn_Marta-abre-el-regalo.wav,1,,,85.2812,87.5093,1,1,1.7144,,0,20,20,5,1,6,0,castilian,,,,,,,,,,,,,,,,,,,,,,,,,,,,,,,,,,,,,,,,,,,,,,,,,,,,,,,,
,,,,,,,,,60cbabd69ddfb4d7243a1e38,Spanish,13 or older,"no, only English or Spanish",no,2025-07-24_09h49.39.931,empathy_intonation_perc_control,2024.2.4,Win32,59.88023952,60cbabd69ddfb4d7243a1e38,68817205a84113384fffdfe3,688239eb4a44cb1be9057769,,,,,,,,,,,,./stim/wavs/castilian_mismatch_declarative-broad-focus_La-maestra-vive-en-Paris.wav,0,,,87.5099,90.0951,0,1,2.0653,,0,21,21,69,1,70,0,castilian,,,,,,,,,,,,,,,,,,,,,,,,,,,,,,,,,,,,,,,,,,,,,,,,,,,,,,,,
,,,,,,,,,60cbabd69ddfb4d7243a1e38,Spanish,13 or older,"no, only English or Spanish",no,2025-07-24_09h49.39.931,empathy_intonation_perc_control,2024.2.4,Win32,59.88023952,60cbabd69ddfb4d7243a1e38,68817205a84113384fffdfe3,688239eb4a44cb1be9057769,,,,,,,,,,,,./stim/wavs/cuban_match_interrogative-total-yn_Ana-lleva-el-abrigo.wav,1,,,90.0958,92.4507,0,0,1.8373,,0,22,22,6,1,7,1,cuban,,,,,,,,,,,,,,,,,,,,,,,,,,,,,,,,,,,,,,,,,,,,,,,,,,,,,,,,
,,,,,,,,,60cbabd69ddfb4d7243a1e38,Spanish,13 or older,"no, only English or Spanish",no,2025-07-24_09h49.39.931,empathy_intonation_perc_control,2024.2.4,Win32,59.88023952,60cbabd69ddfb4d7243a1e38,68817205a84113384fffdfe3,688239eb4a44cb1be9057769,,,,,,,,,,,,./stim/wavs/castilian_match_declarative-broad-focus_Manuela-vende-el-carro.wav,0,,,92.4515,94.8089,0,1,1.8457,,0,23,23,46,1,47,0,castilian,,,,,,,,,,,,,,,,,,,,,,,,,,,,,,,,,,,,,,,,,,,,,,,,,,,,,,,,
,,,,,,,,,60cbabd69ddfb4d7243a1e38,Spanish,13 or older,"no, only English or Spanish",no,2025-07-24_09h49.39.931,empathy_intonation_perc_control,2024.2.4,Win32,59.88023952,60cbabd69ddfb4d7243a1e38,68817205a84113384fffdfe3,688239eb4a44cb1be9057769,,,,,,,,,,,,./stim/wavs/puertorican_mismatch_declarative-broad-focus_El-nino-oye-el-rio.wav,0,,,94.8092,96.828,0,1,1.4987,,0,24,24,85,1,86,0,puertorican,,,,,,,,,,,,,,,,,,,,,,,,,,,,,,,,,,,,,,,,,,,,,,,,,,,,,,,,
,,,,,,,,,60cbabd69ddfb4d7243a1e38,Spanish,13 or older,"no, only English or Spanish",no,2025-07-24_09h49.39.931,empathy_intonation_perc_control,2024.2.4,Win32,59.88023952,60cbabd69ddfb4d7243a1e38,68817205a84113384fffdfe3,688239eb4a44cb1be9057769,,,,,,,,,,,,./stim/wavs/puertorican_match_declarative-broad-focus_David-leia-el-libro.wav,0,,,96.8285,98.8972,0,1,1.5502,,0,25,25,64,1,65,0,puertorican,,,,,,,,,,,,,,,,,,,,,,,,,,,,,,,,,,,,,,,,,,,,,,,,,,,,,,,,
,,,,,,,,,60cbabd69ddfb4d7243a1e38,Spanish,13 or older,"no, only English or Spanish",no,2025-07-24_09h49.39.931,empathy_intonation_perc_control,2024.2.4,Win32,59.88023952,60cbabd69ddfb4d7243a1e38,68817205a84113384fffdfe3,688239eb4a44cb1be9057769,,,,,,,,,,,,./stim/wavs/cuban_match_declarative-broad-focus_Ana-lleva-el-abrigo.wav,0,,,98.8978,101.0544,0,1,1.6412,,0,26,26,50,1,51,0,cuban,,,,,,,,,,,,,,,,,,,,,,,,,,,,,,,,,,,,,,,,,,,,,,,,,,,,,,,,
,,,,,,,,,60cbabd69ddfb4d7243a1e38,Spanish,13 or older,"no, only English or Spanish",no,2025-07-24_09h49.39.931,empathy_intonation_perc_control,2024.2.4,Win32,59.88023952,60cbabd69ddfb4d7243a1e38,68817205a84113384fffdfe3,688239eb4a44cb1be9057769,,,,,,,,,,,,./stim/wavs/puertorican_mismatch_declarative-broad-focus_La-maestra-vive-en-Paris.wav,0,,,101.0549,103.3761,0,1,1.8127,,0,27,27,86,1,87,0,puertorican,,,,,,,,,,,,,,,,,,,,,,,,,,,,,,,,,,,,,,,,,,,,,,,,,,,,,,,,
,,,,,,,,,60cbabd69ddfb4d7243a1e38,Spanish,13 or older,"no, only English or Spanish",no,2025-07-24_09h49.39.931,empathy_intonation_perc_control,2024.2.4,Win32,59.88023952,60cbabd69ddfb4d7243a1e38,68817205a84113384fffdfe3,688239eb4a44cb1be9057769,,,,,,,,,,,,./stim/wavs/castilian_match_declarative-broad-focus_Maria-bebe-el-vino.wav,0,,,103.3767,105.6596,0,1,1.7619,,0,28,28,47,1,48,0,castilian,,,,,,,,,,,,,,,,,,,,,,,,,,,,,,,,,,,,,,,,,,,,,,,,,,,,,,,,
,,,,,,,,,60cbabd69ddfb4d7243a1e38,Spanish,13 or older,"no, only English or Spanish",no,2025-07-24_09h49.39.931,empathy_intonation_perc_control,2024.2.4,Win32,59.88023952,60cbabd69ddfb4d7243a1e38,68817205a84113384fffdfe3,688239eb4a44cb1be9057769,,,,,,,,,,,,./stim/wavs/castilian_match_declarative-broad-focus_Mariano-habla-del-tiempo.wav,0,,,105.6599,108.1958,0,1,2.0154,,0,29,29,48,1,49,0,castilian,,,,,,,,,,,,,,,,,,,,,,,,,,,,,,,,,,,,,,,,,,,,,,,,,,,,,,,,
,,,,,,,,,60cbabd69ddfb4d7243a1e38,Spanish,13 or older,"no, only English or Spanish",no,2025-07-24_09h49.39.931,empathy_intonation_perc_control,2024.2.4,Win32,59.88023952,60cbabd69ddfb4d7243a1e38,68817205a84113384fffdfe3,688239eb4a44cb1be9057769,,,,,,,,,,,,./stim/wavs/mexican_mismatch_interrogative-total-yn_El-hombre-mira-la-luna.wav,1,,,108.1965,110.2183,1,1,1.5036,,0,30,30,34,1,35,0,mexican,,,,,,,,,,,,,,,,,,,,,,,,,,,,,,,,,,,,,,,,,,,,,,,,,,,,,,,,
,,,,,,,,,60cbabd69ddfb4d7243a1e38,Spanish,13 or older,"no, only English or Spanish",no,2025-07-24_09h49.39.931,empathy_intonation_perc_control,2024.2.4,Win32,59.88023952,60cbabd69ddfb4d7243a1e38,68817205a84113384fffdfe3,688239eb4a44cb1be9057769,,,,,,,,,,,,./stim/wavs/mexican_mismatch_interrogative-total-yn_El-nino-oye-el-rio.wav,1,,,110.2191,112.3949,1,1,1.656,,0,31,31,35,1,36,0,mexican,,,,,,,,,,,,,,,,,,,,,,,,,,,,,,,,,,,,,,,,,,,,,,,,,,,,,,,,
,,,,,,,,,60cbabd69ddfb4d7243a1e38,Spanish,13 or older,"no, only English or Spanish",no,2025-07-24_09h49.39.931,empathy_intonation_perc_control,2024.2.4,Win32,59.88023952,60cbabd69ddfb4d7243a1e38,68817205a84113384fffdfe3,688239eb4a44cb1be9057769,,,,,,,,,,,,./stim/wavs/mexican_match_interrogative-total-yn_Mariano-habla-del-tiempo.wav,1,,,112.3954,114.753,1,1,1.8379,,0,32,32,16,1,17,0,mexican,,,,,,,,,,,,,,,,,,,,,,,,,,,,,,,,,,,,,,,,,,,,,,,,,,,,,,,,
,,,,,,,,,60cbabd69ddfb4d7243a1e38,Spanish,13 or older,"no, only English or Spanish",no,2025-07-24_09h49.39.931,empathy_intonation_perc_control,2024.2.4,Win32,59.88023952,60cbabd69ddfb4d7243a1e38,68817205a84113384fffdfe3,688239eb4a44cb1be9057769,,,,,,,,,,,,./stim/wavs/castilian_mismatch_interrogative-total-yn_La-nina-lava-el-plato.wav,1,,,114.7539,117.1788,1,1,1.9136,,0,33,33,25,1,26,0,castilian,,,,,,,,,,,,,,,,,,,,,,,,,,,,,,,,,,,,,,,,,,,,,,,,,,,,,,,,
,,,,,,,,,60cbabd69ddfb4d7243a1e38,Spanish,13 or older,"no, only English or Spanish",no,2025-07-24_09h49.39.931,empathy_intonation_perc_control,2024.2.4,Win32,59.88023952,60cbabd69ddfb4d7243a1e38,68817205a84113384fffdfe3,688239eb4a44cb1be9057769,,,,,,,,,,,,./stim/wavs/castilian_match_interrogative-total-yn_Manuela-vende-el-carro.wav,1,,,117.1795,119.7387,1,1,2.0407,,0,34,34,2,1,3,0,castilian,,,,,,,,,,,,,,,,,,,,,,,,,,,,,,,,,,,,,,,,,,,,,,,,,,,,,,,,
,,,,,,,,,60cbabd69ddfb4d7243a1e38,Spanish,13 or older,"no, only English or Spanish",no,2025-07-24_09h49.39.931,empathy_intonation_perc_control,2024.2.4,Win32,59.88023952,60cbabd69ddfb4d7243a1e38,68817205a84113384fffdfe3,688239eb4a44cb1be9057769,,,,,,,,,,,,./stim/wavs/castilian_match_interrogative-total-yn_Emilio-ama-la-marcha.wav,1,,,119.7394,123.1591,0,0,2.9104,,0,35,35,1,1,2,0,castilian,,,,,,,,,,,,,,,,,,,,,,,,,,,,,,,,,,,,,,,,,,,,,,,,,,,,,,,,
,,,,,,,,,60cbabd69ddfb4d7243a1e38,Spanish,13 or older,"no, only English or Spanish",no,2025-07-24_09h49.39.931,empathy_intonation_perc_control,2024.2.4,Win32,59.88023952,60cbabd69ddfb4d7243a1e38,68817205a84113384fffdfe3,688239eb4a44cb1be9057769,,,,,,,,,,,,./stim/wavs/puertorican_mismatch_declarative-broad-focus_El-hombre-mira-la-luna.wav,0,,,123.1595,125.5987,0,1,1.9177,0.0002,0,36,36,84,1,85,0,puertorican,,,,,,,,,,,,,,,,,,,,,,,,,,,,,,,,,,,,,,,,,,,,,,,,,,,,,,,,
,,,,,,,,,60cbabd69ddfb4d7243a1e38,Spanish,13 or older,"no, only English or Spanish",no,2025-07-24_09h49.39.931,empathy_intonation_perc_control,2024.2.4,Win32,59.88023952,60cbabd69ddfb4d7243a1e38,68817205a84113384fffdfe3,688239eb4a44cb1be9057769,,,,,,,,,,,,./stim/wavs/puertorican_match_interrogative-total-yn_Ana-lleva-el-abrigo.wav,1,,,125.5991,127.7296,1,1,1.6146,,0,37,37,18,1,19,1,puertorican,,,,,,,,,,,,,,,,,,,,,,,,,,,,,,,,,,,,,,,,,,,,,,,,,,,,,,,,
,,,,,,,,,60cbabd69ddfb4d7243a1e38,Spanish,13 or older,"no, only English or Spanish",no,2025-07-24_09h49.39.931,empathy_intonation_perc_control,2024.2.4,Win32,59.88023952,60cbabd69ddfb4d7243a1e38,68817205a84113384fffdfe3,688239eb4a44cb1be9057769,,,,,,,,,,,,./stim/wavs/cuban_match_declarative-broad-focus_Marta-abre-el-regalo.wav,0,,,127.7302,129.9504,0,1,1.7007,,0,38,38,55,1,56,0,cuban,,,,,,,,,,,,,,,,,,,,,,,,,,,,,,,,,,,,,,,,,,,,,,,,,,,,,,,,
,,,,,,,,,60cbabd69ddfb4d7243a1e38,Spanish,13 or older,"no, only English or Spanish",no,2025-07-24_09h49.39.931,empathy_intonation_perc_control,2024.2.4,Win32,59.88023952,60cbabd69ddfb4d7243a1e38,68817205a84113384fffdfe3,688239eb4a44cb1be9057769,,,,,,,,,,,,./stim/wavs/castilian_match_interrogative-total-yn_David-leia-el-libro.wav,1,,,129.9512,132.1828,1,1,1.7162,,0,39,39,0,1,1,0,castilian,,,,,,,,,,,,,,,,,,,,,,,,,,,,,,,,,,,,,,,,,,,,,,,,,,,,,,,,
,,,,,,,,,60cbabd69ddfb4d7243a1e38,Spanish,13 or older,"no, only English or Spanish",no,2025-07-24_09h49.39.931,empathy_intonation_perc_control,2024.2.4,Win32,59.88023952,60cbabd69ddfb4d7243a1e38,68817205a84113384fffdfe3,688239eb4a44cb1be9057769,,,,,,,,,,,,./stim/wavs/castilian_match_interrogative-total-yn_Mariano-habla-del-tiempo.wav,1,,,132.1832,134.5644,1,1,1.8649,,0,40,40,4,1,5,0,castilian,,,,,,,,,,,,,,,,,,,,,,,,,,,,,,,,,,,,,,,,,,,,,,,,,,,,,,,,
,,,,,,,,,60cbabd69ddfb4d7243a1e38,Spanish,13 or older,"no, only English or Spanish",no,2025-07-24_09h49.39.931,empathy_intonation_perc_control,2024.2.4,Win32,59.88023952,60cbabd69ddfb4d7243a1e38,68817205a84113384fffdfe3,688239eb4a44cb1be9057769,,,,,,,,,,,,./stim/wavs/mexican_mismatch_interrogative-total-yn_La-maestra-vive-en-Paris.wav,1,,,134.5651,136.8942,1,1,1.8103,,0,41,41,36,1,37,0,mexican,,,,,,,,,,,,,,,,,,,,,,,,,,,,,,,,,,,,,,,,,,,,,,,,,,,,,,,,
,,,,,,,,,60cbabd69ddfb4d7243a1e38,Spanish,13 or older,"no, only English or Spanish",no,2025-07-24_09h49.39.931,empathy_intonation_perc_control,2024.2.4,Win32,59.88023952,60cbabd69ddfb4d7243a1e38,68817205a84113384fffdfe3,688239eb4a44cb1be9057769,,,,,,,,,,,,./stim/wavs/puertorican_match_declarative-broad-focus_Emilio-ama-la-marcha.wav,0,,,136.895,139.0039,0,1,1.5872,,0,42,42,65,1,66,0,puertorican,,,,,,,,,,,,,,,,,,,,,,,,,,,,,,,,,,,,,,,,,,,,,,,,,,,,,,,,
,,,,,,,,,60cbabd69ddfb4d7243a1e38,Spanish,13 or older,"no, only English or Spanish",no,2025-07-24_09h49.39.931,empathy_intonation_perc_control,2024.2.4,Win32,59.88023952,60cbabd69ddfb4d7243a1e38,68817205a84113384fffdfe3,688239eb4a44cb1be9057769,,,,,,,,,,,,./stim/wavs/cuban_mismatch_interrogative-total-yn_Mi-madre-come-la-fruta.wav,1,,,139.0047,141.4625,0,0,1.9451,,0,43,43,31,1,32,1,cuban,,,,,,,,,,,,,,,,,,,,,,,,,,,,,,,,,,,,,,,,,,,,,,,,,,,,,,,,
,,,,,,,,,60cbabd69ddfb4d7243a1e38,Spanish,13 or older,"no, only English or Spanish",no,2025-07-24_09h49.39.931,empathy_intonation_perc_control,2024.2.4,Win32,59.88023952,60cbabd69ddfb4d7243a1e38,68817205a84113384fffdfe3,688239eb4a44cb1be9057769,,,,,,,,,,,,./stim/wavs/castilian_mismatch_interrogative-total-yn_Mi-madre-come-la-fruta.wav,1,,,141.463,144.0803,1,1,2.0966,,0,44,44,26,1,27,0,castilian,,,,,,,,,,,,,,,,,,,,,,,,,,,,,,,,,,,,,,,,,,,,,,,,,,,,,,,,
,,,,,,,,,60cbabd69ddfb4d7243a1e38,Spanish,13 or older,"no, only English or Spanish",no,2025-07-24_09h49.39.931,empathy_intonation_perc_control,2024.2.4,Win32,59.88023952,60cbabd69ddfb4d7243a1e38,68817205a84113384fffdfe3,688239eb4a44cb1be9057769,,,,,,,,,,,,./stim/wavs/puertorican_mismatch_interrogative-total-yn_La-nina-lava-el-plato.wav,1,,,144.0806,146.3146,0,0,1.7136,,0,45,45,42,1,43,1,puertorican,,,,,,,,,,,,,,,,,,,,,,,,,,,,,,,,,,,,,,,,,,,,,,,,,,,,,,,,
,,,,,,,,,60cbabd69ddfb4d7243a1e38,Spanish,13 or older,"no, only English or Spanish",no,2025-07-24_09h49.39.931,empathy_intonation_perc_control,2024.2.4,Win32,59.88023952,60cbabd69ddfb4d7243a1e38,68817205a84113384fffdfe3,688239eb4a44cb1be9057769,,,,,,,,,,,,./stim/wavs/cuban_match_interrogative-total-yn_Mariano-habla-del-tiempo.wav,1,,,146.3149,148.7391,0,0,1.9052,,0,46,46,10,1,11,1,cuban,,,,,,,,,,,,,,,,,,,,,,,,,,,,,,,,,,,,,,,,,,,,,,,,,,,,,,,,
,,,,,,,,,60cbabd69ddfb4d7243a1e38,Spanish,13 or older,"no, only English or Spanish",no,2025-07-24_09h49.39.931,empathy_intonation_perc_control,2024.2.4,Win32,59.88023952,60cbabd69ddfb4d7243a1e38,68817205a84113384fffdfe3,688239eb4a44cb1be9057769,,,,,,,,,,,,./stim/wavs/cuban_match_interrogative-total-yn_Manuela-vende-el-carro.wav,1,,,148.7398,150.8989,0,0,1.6471,,0,47,47,8,1,9,1,cuban,,,,,,,,,,,,,,,,,,,,,,,,,,,,,,,,,,,,,,,,,,,,,,,,,,,,,,,,
,,,,,,,,,60cbabd69ddfb4d7243a1e38,Spanish,13 or older,"no, only English or Spanish",no,2025-07-24_09h49.39.931,empathy_intonation_perc_control,2024.2.4,Win32,59.88023952,60cbabd69ddfb4d7243a1e38,68817205a84113384fffdfe3,688239eb4a44cb1be9057769,,,,,,,,,,,,./stim/wavs/puertorican_mismatch_interrogative-total-yn_Mi-madre-come-la-fruta.wav,1,,,150.8996,153.0351,0,0,1.6171,,0,48,48,43,1,44,1,puertorican,,,,,,,,,,,,,,,,,,,,,,,,,,,,,,,,,,,,,,,,,,,,,,,,,,,,,,,,
,,,,,,,,,60cbabd69ddfb4d7243a1e38,Spanish,13 or older,"no, only English or Spanish",no,2025-07-24_09h49.39.931,empathy_intonation_perc_control,2024.2.4,Win32,59.88023952,60cbabd69ddfb4d7243a1e38,68817205a84113384fffdfe3,688239eb4a44cb1be9057769,,,,,,,,,,,,./stim/wavs/mexican_match_declarative-broad-focus_Ana-lleva-el-abrigo.wav,0,,,153.0357,155.1315,0,1,1.5801,,0,49,49,56,1,57,0,mexican,,,,,,,,,,,,,,,,,,,,,,,,,,,,,,,,,,,,,,,,,,,,,,,,,,,,,,,,
,,,,,,,,,60cbabd69ddfb4d7243a1e38,Spanish,13 or older,"no, only English or Spanish",no,2025-07-24_09h49.39.931,empathy_intonation_perc_control,2024.2.4,Win32,59.88023952,60cbabd69ddfb4d7243a1e38,68817205a84113384fffdfe3,688239eb4a44cb1be9057769,,,,,,,,,,,,./stim/wavs/puertorican_match_declarative-broad-focus_Maria-bebe-el-vino.wav,0,,,155.1319,157.3625,1,0,1.722,,0,50,50,67,1,68,0,puertorican,,,,,,,,,,,,,,,,,,,,,,,,,,,,,,,,,,,,,,,,,,,,,,,,,,,,,,,,
,,,,,,,,,60cbabd69ddfb4d7243a1e38,Spanish,13 or older,"no, only English or Spanish",no,2025-07-24_09h49.39.931,empathy_intonation_perc_control,2024.2.4,Win32,59.88023952,60cbabd69ddfb4d7243a1e38,68817205a84113384fffdfe3,688239eb4a44cb1be9057769,,,,,,,,,,,,./stim/wavs/cuban_match_interrogative-total-yn_Maria-bebe-el-vino.wav,1,,,157.3633,159.719,0,0,1.8339,,0,51,51,9,1,10,1,cuban,,,,,,,,,,,,,,,,,,,,,,,,,,,,,,,,,,,,,,,,,,,,,,,,,,,,,,,,
,,,,,,,,,60cbabd69ddfb4d7243a1e38,Spanish,13 or older,"no, only English or Spanish",no,2025-07-24_09h49.39.931,empathy_intonation_perc_control,2024.2.4,Win32,59.88023952,60cbabd69ddfb4d7243a1e38,68817205a84113384fffdfe3,688239eb4a44cb1be9057769,,,,,,,,,,,,./stim/wavs/cuban_mismatch_declarative-broad-focus_Mi-tia-odia-la-lluvia.wav,0,,,159.7196,161.9864,0,1,1.7507,,0,52,52,77,1,78,0,cuban,,,,,,,,,,,,,,,,,,,,,,,,,,,,,,,,,,,,,,,,,,,,,,,,,,,,,,,,
,,,,,,,,,60cbabd69ddfb4d7243a1e38,Spanish,13 or older,"no, only English or Spanish",no,2025-07-24_09h49.39.931,empathy_intonation_perc_control,2024.2.4,Win32,59.88023952,60cbabd69ddfb4d7243a1e38,68817205a84113384fffdfe3,688239eb4a44cb1be9057769,,,,,,,,,,,,./stim/wavs/mexican_match_interrogative-total-yn_Ana-lleva-el-abrigo.wav,1,,,161.987,163.9805,1,1,1.4778,,0,53,53,12,1,13,0,mexican,,,,,,,,,,,,,,,,,,,,,,,,,,,,,,,,,,,,,,,,,,,,,,,,,,,,,,,,
,,,,,,,,,60cbabd69ddfb4d7243a1e38,Spanish,13 or older,"no, only English or Spanish",no,2025-07-24_09h49.39.931,empathy_intonation_perc_control,2024.2.4,Win32,59.88023952,60cbabd69ddfb4d7243a1e38,68817205a84113384fffdfe3,688239eb4a44cb1be9057769,,,,,,,,,,,,./stim/wavs/puertorican_mismatch_declarative-broad-focus_El-bebe-comia-muy-bien.wav,0,,,163.9811,166.3882,0,1,1.8855,,0,54,54,83,1,84,0,puertorican,,,,,,,,,,,,,,,,,,,,,,,,,,,,,,,,,,,,,,,,,,,,,,,,,,,,,,,,
,,,,,,,,,60cbabd69ddfb4d7243a1e38,Spanish,13 or older,"no, only English or Spanish",no,2025-07-24_09h49.39.931,empathy_intonation_perc_control,2024.2.4,Win32,59.88023952,60cbabd69ddfb4d7243a1e38,68817205a84113384fffdfe3,688239eb4a44cb1be9057769,,,,,,,,,,,,./stim/wavs/puertorican_mismatch_interrogative-total-yn_La-maestra-vive-en-Paris.wav,1,,,166.3889,168.684,0,0,1.7812,,0,55,55,41,1,42,1,puertorican,,,,,,,,,,,,,,,,,,,,,,,,,,,,,,,,,,,,,,,,,,,,,,,,,,,,,,,,
,,,,,,,,,60cbabd69ddfb4d7243a1e38,Spanish,13 or older,"no, only English or Spanish",no,2025-07-24_09h49.39.931,empathy_intonation_perc_control,2024.2.4,Win32,59.88023952,60cbabd69ddfb4d7243a1e38,68817205a84113384fffdfe3,688239eb4a44cb1be9057769,,,,,,,,,,,,./stim/wavs/cuban_mismatch_declarative-broad-focus_El-bebe-comia-muy-bien.wav,0,,,168.6845,170.655,0,1,1.4518,,0,56,56,73,1,74,0,cuban,,,,,,,,,,,,,,,,,,,,,,,,,,,,,,,,,,,,,,,,,,,,,,,,,,,,,,,,
,,,,,,,,,60cbabd69ddfb4d7243a1e38,Spanish,13 or older,"no, only English or Spanish",no,2025-07-24_09h49.39.931,empathy_intonation_perc_control,2024.2.4,Win32,59.88023952,60cbabd69ddfb4d7243a1e38,68817205a84113384fffdfe3,688239eb4a44cb1be9057769,,,,,,,,,,,,./stim/wavs/mexican_mismatch_declarative-broad-focus_Mi-novio-viene-del-lago.wav,0,,,170.6556,172.7517,0,1,1.5812,,0,57,57,81,1,82,0,mexican,,,,,,,,,,,,,,,,,,,,,,,,,,,,,,,,,,,,,,,,,,,,,,,,,,,,,,,,
,,,,,,,,,60cbabd69ddfb4d7243a1e38,Spanish,13 or older,"no, only English or Spanish",no,2025-07-24_09h49.39.931,empathy_intonation_perc_control,2024.2.4,Win32,59.88023952,60cbabd69ddfb4d7243a1e38,68817205a84113384fffdfe3,688239eb4a44cb1be9057769,,,,,,,,,,,,./stim/wavs/mexican_match_interrogative-total-yn_Marta-abre-el-regalo.wav,1,,,172.7525,174.8378,1,1,1.5677,,0,58,58,17,1,18,0,mexican,,,,,,,,,,,,,,,,,,,,,,,,,,,,,,,,,,,,,,,,,,,,,,,,,,,,,,,,
,,,,,,,,,60cbabd69ddfb4d7243a1e38,Spanish,13 or older,"no, only English or Spanish",no,2025-07-24_09h49.39.931,empathy_intonation_perc_control,2024.2.4,Win32,59.88023952,60cbabd69ddfb4d7243a1e38,68817205a84113384fffdfe3,688239eb4a44cb1be9057769,,,,,,,,,,,,./stim/wavs/castilian_match_declarative-broad-focus_Marta-abre-el-regalo.wav,0,,,174.8385,177.1877,0,1,1.8343,,0,59,59,49,1,50,0,castilian,,,,,,,,,,,,,,,,,,,,,,,,,,,,,,,,,,,,,,,,,,,,,,,,,,,,,,,,
,,,,,,,,,60cbabd69ddfb4d7243a1e38,Spanish,13 or older,"no, only English or Spanish",no,2025-07-24_09h49.39.931,empathy_intonation_perc_control,2024.2.4,Win32,59.88023952,60cbabd69ddfb4d7243a1e38,68817205a84113384fffdfe3,688239eb4a44cb1be9057769,,,,,,,,,,,,./stim/wavs/puertorican_match_declarative-broad-focus_Ana-lleva-el-abrigo.wav,0,,,177.1882,179.0845,0,1,1.3807,,0,60,60,62,1,63,0,puertorican,,,,,,,,,,,,,,,,,,,,,,,,,,,,,,,,,,,,,,,,,,,,,,,,,,,,,,,,
,,,,,,,,,60cbabd69ddfb4d7243a1e38,Spanish,13 or older,"no, only English or Spanish",no,2025-07-24_09h49.39.931,empathy_intonation_perc_control,2024.2.4,Win32,59.88023952,60cbabd69ddfb4d7243a1e38,68817205a84113384fffdfe3,688239eb4a44cb1be9057769,,,,,,,,,,,,./stim/wavs/mexican_match_declarative-broad-focus_Mariano-habla-del-tiempo.wav,0,,,179.085,181.2059,0,1,1.6021,,0,61,61,60,1,61,0,mexican,,,,,,,,,,,,,,,,,,,,,,,,,,,,,,,,,,,,,,,,,,,,,,,,,,,,,,,,
,,,,,,,,,60cbabd69ddfb4d7243a1e38,Spanish,13 or older,"no, only English or Spanish",no,2025-07-24_09h49.39.931,empathy_intonation_perc_control,2024.2.4,Win32,59.88023952,60cbabd69ddfb4d7243a1e38,68817205a84113384fffdfe3,688239eb4a44cb1be9057769,,,,,,,,,,,,./stim/wavs/puertorican_mismatch_interrogative-total-yn_El-hombre-mira-la-luna.wav,1,,,181.2067,183.2829,1,1,1.5498,,0,62,62,39,1,40,1,puertorican,,,,,,,,,,,,,,,,,,,,,,,,,,,,,,,,,,,,,,,,,,,,,,,,,,,,,,,,
,,,,,,,,,60cbabd69ddfb4d7243a1e38,Spanish,13 or older,"no, only English or Spanish",no,2025-07-24_09h49.39.931,empathy_intonation_perc_control,2024.2.4,Win32,59.88023952,60cbabd69ddfb4d7243a1e38,68817205a84113384fffdfe3,688239eb4a44cb1be9057769,,,,,,,,,,,,./stim/wavs/cuban_match_interrogative-total-yn_Daniel-iba-a-Bolivia.wav,1,,,183.2838,185.5649,0,0,1.7609,,0,63,63,7,1,8,1,cuban,,,,,,,,,,,,,,,,,,,,,,,,,,,,,,,,,,,,,,,,,,,,,,,,,,,,,,,,
,,,,,,,,,60cbabd69ddfb4d7243a1e38,Spanish,13 or older,"no, only English or Spanish",no,2025-07-24_09h49.39.931,empathy_intonation_perc_control,2024.2.4,Win32,59.88023952,60cbabd69ddfb4d7243a1e38,68817205a84113384fffdfe3,688239eb4a44cb1be9057769,,,,,,,,,,,,./stim/wavs/cuban_mismatch_interrogative-total-yn_Mi-novio-viene-del-lago.wav,1,,,185.5656,187.7191,0,0,1.6322,,0,64,64,32,1,33,1,cuban,,,,,,,,,,,,,,,,,,,,,,,,,,,,,,,,,,,,,,,,,,,,,,,,,,,,,,,,
,,,,,,,,,60cbabd69ddfb4d7243a1e38,Spanish,13 or older,"no, only English or Spanish",no,2025-07-24_09h49.39.931,empathy_intonation_perc_control,2024.2.4,Win32,59.88023952,60cbabd69ddfb4d7243a1e38,68817205a84113384fffdfe3,688239eb4a44cb1be9057769,,,,,,,,,,,,./stim/wavs/cuban_mismatch_interrogative-total-yn_Mi-tia-odia-la-lluvia.wav,1,,,187.7197,189.8628,0,0,1.6246,,0,65,65,33,1,34,1,cuban,,,,,,,,,,,,,,,,,,,,,,,,,,,,,,,,,,,,,,,,,,,,,,,,,,,,,,,,
,,,,,,,,,60cbabd69ddfb4d7243a1e38,Spanish,13 or older,"no, only English or Spanish",no,2025-07-24_09h49.39.931,empathy_intonation_perc_control,2024.2.4,Win32,59.88023952,60cbabd69ddfb4d7243a1e38,68817205a84113384fffdfe3,688239eb4a44cb1be9057769,,,,,,,,,,,,./stim/wavs/mexican_match_declarative-broad-focus_David-leia-el-libro.wav,0,,,189.8636,191.9664,0,1,1.579,,0,66,66,58,1,59,0,mexican,,,,,,,,,,,,,,,,,,,,,,,,,,,,,,,,,,,,,,,,,,,,,,,,,,,,,,,,
,,,,,,,,,60cbabd69ddfb4d7243a1e38,Spanish,13 or older,"no, only English or Spanish",no,2025-07-24_09h49.39.931,empathy_intonation_perc_control,2024.2.4,Win32,59.88023952,60cbabd69ddfb4d7243a1e38,68817205a84113384fffdfe3,688239eb4a44cb1be9057769,,,,,,,,,,,,./stim/wavs/puertorican_mismatch_declarative-broad-focus_La-nina-lava-el-plato.wav,0,,,191.9666,194.0208,0,1,1.5324,,0,67,67,87,1,88,0,puertorican,,,,,,,,,,,,,,,,,,,,,,,,,,,,,,,,,,,,,,,,,,,,,,,,,,,,,,,,
,,,,,,,,,60cbabd69ddfb4d7243a1e38,Spanish,13 or older,"no, only English or Spanish",no,2025-07-24_09h49.39.931,empathy_intonation_perc_control,2024.2.4,Win32,59.88023952,60cbabd69ddfb4d7243a1e38,68817205a84113384fffdfe3,688239eb4a44cb1be9057769,,,,,,,,,,,,./stim/wavs/cuban_match_declarative-broad-focus_Mariano-habla-del-tiempo.wav,0,,,194.0214,196.3628,0,1,1.8233,,0,68,68,54,1,55,0,cuban,,,,,,,,,,,,,,,,,,,,,,,,,,,,,,,,,,,,,,,,,,,,,,,,,,,,,,,,
,,,,,,,,,60cbabd69ddfb4d7243a1e38,Spanish,13 or older,"no, only English or Spanish",no,2025-07-24_09h49.39.931,empathy_intonation_perc_control,2024.2.4,Win32,59.88023952,60cbabd69ddfb4d7243a1e38,68817205a84113384fffdfe3,688239eb4a44cb1be9057769,,,,,,,,,,,,./stim/wavs/mexican_mismatch_declarative-broad-focus_Mi-tia-odia-la-lluvia.wav,0,,,196.3634,198.4267,0,1,1.5548,,0,69,69,82,1,83,0,mexican,,,,,,,,,,,,,,,,,,,,,,,,,,,,,,,,,,,,,,,,,,,,,,,,,,,,,,,,
,,,,,,,,,60cbabd69ddfb4d7243a1e38,Spanish,13 or older,"no, only English or Spanish",no,2025-07-24_09h49.39.931,empathy_intonation_perc_control,2024.2.4,Win32,59.88023952,60cbabd69ddfb4d7243a1e38,68817205a84113384fffdfe3,688239eb4a44cb1be9057769,,,,,,,,,,,,./stim/wavs/puertorican_match_interrogative-total-yn_Daniel-iba-a-Bolivia.wav,1,,,198.4274,201.3888,1,1,2.4504,,0,70,70,19,1,20,1,puertorican,,,,,,,,,,,,,,,,,,,,,,,,,,,,,,,,,,,,,,,,,,,,,,,,,,,,,,,,
,,,,,,,,,60cbabd69ddfb4d7243a1e38,Spanish,13 or older,"no, only English or Spanish",no,2025-07-24_09h49.39.931,empathy_intonation_perc_control,2024.2.4,Win32,59.88023952,60cbabd69ddfb4d7243a1e38,68817205a84113384fffdfe3,688239eb4a44cb1be9057769,,,,,,,,,,,,./stim/wavs/puertorican_match_declarative-broad-focus_Daniel-iba-a-Bolivia.wav,0,,,201.3892,203.6851,0,1,1.7807,,0,71,71,63,1,64,0,puertorican,,,,,,,,,,,,,,,,,,,,,,,,,,,,,,,,,,,,,,,,,,,,,,,,,,,,,,,,
,,,,,,,,,60cbabd69ddfb4d7243a1e38,Spanish,13 or older,"no, only English or Spanish",no,2025-07-24_09h49.39.931,empathy_intonation_perc_control,2024.2.4,Win32,59.88023952,60cbabd69ddfb4d7243a1e38,68817205a84113384fffdfe3,688239eb4a44cb1be9057769,,,,,,,,,,,,./stim/wavs/puertorican_mismatch_interrogative-total-yn_El-nino-oye-el-rio.wav,1,,,203.6857,205.8524,0,0,1.6468,,0,72,72,40,1,41,1,puertorican,,,,,,,,,,,,,,,,,,,,,,,,,,,,,,,,,,,,,,,,,,,,,,,,,,,,,,,,
,,,,,,,,,60cbabd69ddfb4d7243a1e38,Spanish,13 or older,"no, only English or Spanish",no,2025-07-24_09h49.39.931,empathy_intonation_perc_control,2024.2.4,Win32,59.88023952,60cbabd69ddfb4d7243a1e38,68817205a84113384fffdfe3,688239eb4a44cb1be9057769,,,,,,,,,,,,./stim/wavs/mexican_mismatch_interrogative-total-yn_Mi-novio-viene-del-lago.wav,1,,,205.8527,208.1888,1,1,1.8167,,0,73,73,37,1,38,0,mexican,,,,,,,,,,,,,,,,,,,,,,,,,,,,,,,,,,,,,,,,,,,,,,,,,,,,,,,,
,,,,,,,,,60cbabd69ddfb4d7243a1e38,Spanish,13 or older,"no, only English or Spanish",no,2025-07-24_09h49.39.931,empathy_intonation_perc_control,2024.2.4,Win32,59.88023952,60cbabd69ddfb4d7243a1e38,68817205a84113384fffdfe3,688239eb4a44cb1be9057769,,,,,,,,,,,,./stim/wavs/cuban_mismatch_declarative-broad-focus_La-nina-lava-el-plato.wav,0,,,208.1895,210.3513,0,1,1.6448,,0,74,74,75,1,76,0,cuban,,,,,,,,,,,,,,,,,,,,,,,,,,,,,,,,,,,,,,,,,,,,,,,,,,,,,,,,
,,,,,,,,,60cbabd69ddfb4d7243a1e38,Spanish,13 or older,"no, only English or Spanish",no,2025-07-24_09h49.39.931,empathy_intonation_perc_control,2024.2.4,Win32,59.88023952,60cbabd69ddfb4d7243a1e38,68817205a84113384fffdfe3,688239eb4a44cb1be9057769,,,,,,,,,,,,./stim/wavs/castilian_mismatch_interrogative-total-yn_Mi-tia-odia-la-lluvia.wav,1,,,210.3519,212.5987,1,1,1.7257,,0,75,75,28,1,29,0,castilian,,,,,,,,,,,,,,,,,,,,,,,,,,,,,,,,,,,,,,,,,,,,,,,,,,,,,,,,
,,,,,,,,,60cbabd69ddfb4d7243a1e38,Spanish,13 or older,"no, only English or Spanish",no,2025-07-24_09h49.39.931,empathy_intonation_perc_control,2024.2.4,Win32,59.88023952,60cbabd69ddfb4d7243a1e38,68817205a84113384fffdfe3,688239eb4a44cb1be9057769,,,,,,,,,,,,./stim/wavs/puertorican_match_declarative-broad-focus_Manuela-vende-el-carro.wav,0,,,212.5995,214.669,0,1,1.5456,,0,76,76,66,1,67,0,puertorican,,,,,,,,,,,,,,,,,,,,,,,,,,,,,,,,,,,,,,,,,,,,,,,,,,,,,,,,
,,,,,,,,,60cbabd69ddfb4d7243a1e38,Spanish,13 or older,"no, only English or Spanish",no,2025-07-24_09h49.39.931,empathy_intonation_perc_control,2024.2.4,Win32,59.88023952,60cbabd69ddfb4d7243a1e38,68817205a84113384fffdfe3,688239eb4a44cb1be9057769,,,,,,,,,,,,./stim/wavs/mexican_match_interrogative-total-yn_Emilio-ama-la-marcha.wav,1,,,214.6692,216.8086,1,1,1.6193,,0,77,77,15,1,16,0,mexican,,,,,,,,,,,,,,,,,,,,,,,,,,,,,,,,,,,,,,,,,,,,,,,,,,,,,,,,
,,,,,,,,,60cbabd69ddfb4d7243a1e38,Spanish,13 or older,"no, only English or Spanish",no,2025-07-24_09h49.39.931,empathy_intonation_perc_control,2024.2.4,Win32,59.88023952,60cbabd69ddfb4d7243a1e38,68817205a84113384fffdfe3,688239eb4a44cb1be9057769,,,,,,,,,,,,./stim/wavs/cuban_mismatch_declarative-broad-focus_Mi-novio-viene-del-lago.wav,0,,,216.8093,218.988,0,1,1.6644,,0,78,78,76,1,77,0,cuban,,,,,,,,,,,,,,,,,,,,,,,,,,,,,,,,,,,,,,,,,,,,,,,,,,,,,,,,
,,,,,,,,,60cbabd69ddfb4d7243a1e38,Spanish,13 or older,"no, only English or Spanish",no,2025-07-24_09h49.39.931,empathy_intonation_perc_control,2024.2.4,Win32,59.88023952,60cbabd69ddfb4d7243a1e38,68817205a84113384fffdfe3,688239eb4a44cb1be9057769,,,,,,,,,,,,./stim/wavs/castilian_mismatch_declarative-broad-focus_Mi-tia-odia-la-lluvia.wav,0,,,218.9887,221.1674,0,1,1.6602,,0,79,79,72,1,73,0,castilian,,,,,,,,,,,,,,,,,,,,,,,,,,,,,,,,,,,,,,,,,,,,,,,,,,,,,,,,
,,,,,,,,,60cbabd69ddfb4d7243a1e38,Spanish,13 or older,"no, only English or Spanish",no,2025-07-24_09h49.39.931,empathy_intonation_perc_control,2024.2.4,Win32,59.88023952,60cbabd69ddfb4d7243a1e38,68817205a84113384fffdfe3,688239eb4a44cb1be9057769,,,,,,,,,,,,./stim/wavs/castilian_mismatch_declarative-broad-focus_La-nina-lava-el-plato.wav,0,,,221.1679,223.4595,0,1,1.7695,,0,80,80,70,1,71,0,castilian,,,,,,,,,,,,,,,,,,,,,,,,,,,,,,,,,,,,,,,,,,,,,,,,,,,,,,,,
,,,,,,,,,60cbabd69ddfb4d7243a1e38,Spanish,13 or older,"no, only English or Spanish",no,2025-07-24_09h49.39.931,empathy_intonation_perc_control,2024.2.4,Win32,59.88023952,60cbabd69ddfb4d7243a1e38,68817205a84113384fffdfe3,688239eb4a44cb1be9057769,,,,,,,,,,,,./stim/wavs/puertorican_match_interrogative-total-yn_Manuela-vende-el-carro.wav,1,,,223.4601,225.9186,0,0,1.9444,,0,81,81,22,1,23,1,puertorican,,,,,,,,,,,,,,,,,,,,,,,,,,,,,,,,,,,,,,,,,,,,,,,,,,,,,,,,
,,,,,,,,,60cbabd69ddfb4d7243a1e38,Spanish,13 or older,"no, only English or Spanish",no,2025-07-24_09h49.39.931,empathy_intonation_perc_control,2024.2.4,Win32,59.88023952,60cbabd69ddfb4d7243a1e38,68817205a84113384fffdfe3,688239eb4a44cb1be9057769,,,,,,,,,,,,./stim/wavs/mexican_match_interrogative-total-yn_David-leia-el-libro.wav,1,,,225.9192,228.1049,1,1,1.6639,,0,82,82,14,1,15,0,mexican,,,,,,,,,,,,,,,,,,,,,,,,,,,,,,,,,,,,,,,,,,,,,,,,,,,,,,,,
,,,,,,,,,60cbabd69ddfb4d7243a1e38,Spanish,13 or older,"no, only English or Spanish",no,2025-07-24_09h49.39.931,empathy_intonation_perc_control,2024.2.4,Win32,59.88023952,60cbabd69ddfb4d7243a1e38,68817205a84113384fffdfe3,688239eb4a44cb1be9057769,,,,,,,,,,,,./stim/wavs/puertorican_match_interrogative-total-yn_Maria-bebe-el-vino.wav,1,,,228.1056,230.5551,1,1,1.9305,,0,83,83,23,1,24,1,puertorican,,,,,,,,,,,,,,,,,,,,,,,,,,,,,,,,,,,,,,,,,,,,,,,,,,,,,,,,
,,,,,,,,,60cbabd69ddfb4d7243a1e38,Spanish,13 or older,"no, only English or Spanish",no,2025-07-24_09h49.39.931,empathy_intonation_perc_control,2024.2.4,Win32,59.88023952,60cbabd69ddfb4d7243a1e38,68817205a84113384fffdfe3,688239eb4a44cb1be9057769,,,,,,,,,,,,./stim/wavs/mexican_mismatch_interrogative-total-yn_Mi-tia-odia-la-lluvia.wav,1,,,230.5556,233.0562,1,1,1.982,,0,84,84,38,1,39,0,mexican,,,,,,,,,,,,,,,,,,,,,,,,,,,,,,,,,,,,,,,,,,,,,,,,,,,,,,,,
,,,,,,,,,60cbabd69ddfb4d7243a1e38,Spanish,13 or older,"no, only English or Spanish",no,2025-07-24_09h49.39.931,empathy_intonation_perc_control,2024.2.4,Win32,59.88023952,60cbabd69ddfb4d7243a1e38,68817205a84113384fffdfe3,688239eb4a44cb1be9057769,,,,,,,,,,,,./stim/wavs/puertorican_match_interrogative-total-yn_Emilio-ama-la-marcha.wav,1,,,233.0567,235.2175,0,0,1.6424,,0,85,85,21,1,22,1,puertorican,,,,,,,,,,,,,,,,,,,,,,,,,,,,,,,,,,,,,,,,,,,,,,,,,,,,,,,,
,,,,,,,,,60cbabd69ddfb4d7243a1e38,Spanish,13 or older,"no, only English or Spanish",no,2025-07-24_09h49.39.931,empathy_intonation_perc_control,2024.2.4,Win32,59.88023952,60cbabd69ddfb4d7243a1e38,68817205a84113384fffdfe3,688239eb4a44cb1be9057769,,,,,,,,,,,,./stim/wavs/castilian_match_declarative-broad-focus_David-leia-el-libro.wav,0,,,235.2188,237.5615,0,1,1.8193,,0,86,86,44,1,45,0,castilian,,,,,,,,,,,,,,,,,,,,,,,,,,,,,,,,,,,,,,,,,,,,,,,,,,,,,,,,
,,,,,,,,,60cbabd69ddfb4d7243a1e38,Spanish,13 or older,"no, only English or Spanish",no,2025-07-24_09h49.39.931,empathy_intonation_perc_control,2024.2.4,Win32,59.88023952,60cbabd69ddfb4d7243a1e38,68817205a84113384fffdfe3,688239eb4a44cb1be9057769,,,,,,,,,,,,./stim/wavs/mexican_match_declarative-broad-focus_Marta-abre-el-regalo.wav,0,,,237.5623,239.7227,0,1,1.6471,,0,87,87,61,1,62,0,mexican,,,,,,,,,,,,,,,,,,,,,,,,,,,,,,,,,,,,,,,,,,,,,,,,,,,,,,,,
,,,,,,,"Great! Now we will move on. The next task consists of about 60 trials, in each of which you will see a string of letters. 
  
  Your task is to decide whether this is a real Spanish word or not.", (press the spacebar to continue),60cbabd69ddfb4d7243a1e38,Spanish,13 or older,"no, only English or Spanish",no,2025-07-24_09h49.39.931,empathy_intonation_perc_control,2024.2.4,Win32,59.88023952,60cbabd69ddfb4d7243a1e38,68817205a84113384fffdfe3,688239eb4a44cb1be9057769,,,,,,,,,,,,,,,,,,,,,,,,,,,,,,239.7349,248.0764,0,0,0,0,1,,,,,,,,,,,,,,,,,,,,,,,,,,,,,,,,,,,,,,,,,,,,,,,,,
,,,,,,,"If you think it is an existing Spanish word, you type '1' (for 'REAL'), and if you think it is not an existing Spanish word, you type '0' (for 'FAKE').", (press the spacebar to continue),60cbabd69ddfb4d7243a1e38,Spanish,13 or older,"no, only English or Spanish",no,2025-07-24_09h49.39.931,empathy_intonation_perc_control,2024.2.4,Win32,59.88023952,60cbabd69ddfb4d7243a1e38,68817205a84113384fffdfe3,688239eb4a44cb1be9057769,,,,,,,,,,,,,,,,,,,,,,,,,,,,,,248.0799,252.139,0,1,1,1,1,,,,,,,,,,,,,,,,,,,,,,,,,,,,,,,,,,,,,,,,,,,,,,,,,
,,,,,,,"If you are sure that the word exists, even though you don’t know its exact meaning, you may still respond '1' (REAL). 
  
  But if you are not sure if it is an existing word, you should respond '0' (FAKE).
  
  Let's do a practice round...", (press the spacebar to continue),60cbabd69ddfb4d7243a1e38,Spanish,13 or older,"no, only English or Spanish",no,2025-07-24_09h49.39.931,empathy_intonation_perc_control,2024.2.4,Win32,59.88023952,60cbabd69ddfb4d7243a1e38,68817205a84113384fffdfe3,688239eb4a44cb1be9057769,,,,,,,,,,,,,,,,,,,,,,,,,,,,,,252.1418,257.2743,0,2,2,2,1,,,,,,,,,,,,,,,,,,,,,,,,,,,,,,,,,,,,,,,,,,,,,,,,,
,,,,,,,,,60cbabd69ddfb4d7243a1e38,Spanish,13 or older,"no, only English or Spanish",no,2025-07-24_09h49.39.931,empathy_intonation_perc_control,2024.2.4,Win32,59.88023952,60cbabd69ddfb4d7243a1e38,68817205a84113384fffdfe3,688239eb4a44cb1be9057769,,,,,,,,,,,,,0,,,,,,,,,,,,,,,,,,,,,,,,257.2866,261.1705,1,0,3.3541,,261.1707,262.169,0,0,0,0,1,0,depiste,REAL,FAKE,,,,,,,,,,,,,,,,,,,,,,,,,,,,,,,,
,,,,,,,,,60cbabd69ddfb4d7243a1e38,Spanish,13 or older,"no, only English or Spanish",no,2025-07-24_09h49.39.931,empathy_intonation_perc_control,2024.2.4,Win32,59.88023952,60cbabd69ddfb4d7243a1e38,68817205a84113384fffdfe3,688239eb4a44cb1be9057769,,,,,,,,,,,,,1,,,,,,,,,,,,,,,,,,,,,,,,262.1707,264.0301,1,1,1.3306,,264.0309,265.0194,0,1,1,1,1,0,sí,REAL,FAKE,,,,,,,,,,,,,,,,,,,,,,,,,,,,,,,,
,,,,,,,,,60cbabd69ddfb4d7243a1e38,Spanish,13 or older,"no, only English or Spanish",no,2025-07-24_09h49.39.931,empathy_intonation_perc_control,2024.2.4,Win32,59.88023952,60cbabd69ddfb4d7243a1e38,68817205a84113384fffdfe3,688239eb4a44cb1be9057769,,,,,,,,,,,,,0,,,,,,,,,,,,,,,,,,,,,,,,265.0222,266.9563,1,0,1.3959,,266.9569,267.9532,0,2,2,2,1,0,coné,REAL,FAKE,,,,,,,,,,,,,,,,,,,,,,,,,,,,,,,,
,,,,,,,,,60cbabd69ddfb4d7243a1e38,Spanish,13 or older,"no, only English or Spanish",no,2025-07-24_09h49.39.931,empathy_intonation_perc_control,2024.2.4,Win32,59.88023952,60cbabd69ddfb4d7243a1e38,68817205a84113384fffdfe3,688239eb4a44cb1be9057769,,,,,,,,,,,,,0,,,,,,,,,,,,,,,,,,,,,,,,267.9547,269.4448,1,0,0.9501,,269.4448,270.4364,0,3,3,3,1,0,calpar,REAL,FAKE,,,,,,,,,,,,,,,,,,,,,,,,,,,,,,,,
,,,,,,,,,60cbabd69ddfb4d7243a1e38,Spanish,13 or older,"no, only English or Spanish",no,2025-07-24_09h49.39.931,empathy_intonation_perc_control,2024.2.4,Win32,59.88023952,60cbabd69ddfb4d7243a1e38,68817205a84113384fffdfe3,688239eb4a44cb1be9057769,,,,,,,,,,,,,0,,,,,,,,,,,,,,,,,,,,,,,,270.4389,271.8597,0,1,0.881,,271.8604,272.8538,0,4,4,4,1,0,joten,REAL,FAKE,,,,,,,,,,,,,,,,,,,,,,,,,,,,,,,,
,,,,,,,,,60cbabd69ddfb4d7243a1e38,Spanish,13 or older,"no, only English or Spanish",no,2025-07-24_09h49.39.931,empathy_intonation_perc_control,2024.2.4,Win32,59.88023952,60cbabd69ddfb4d7243a1e38,68817205a84113384fffdfe3,688239eb4a44cb1be9057769,,,,,,,,,,,,,1,,,,,,,,,,,,,,,,,,,,,,,,272.8551,275.1788,0,0,1.7835,,275.1792,276.1789,0,5,5,5,1,0,sacapuntas,REAL,FAKE,,,,,,,,,,,,,,,,,,,,,,,,,,,,,,,,
,,,,,,,,,60cbabd69ddfb4d7243a1e38,Spanish,13 or older,"no, only English or Spanish",no,2025-07-24_09h49.39.931,empathy_intonation_perc_control,2024.2.4,Win32,59.88023952,60cbabd69ddfb4d7243a1e38,68817205a84113384fffdfe3,688239eb4a44cb1be9057769,,,,,,,,,,,,,0,,,,,,,,,,,,,,,,,,,,,,,,276.1801,277.7093,0,1,0.997,,277.71,278.7036,0,6,6,6,1,0,priba,REAL,FAKE,,,,,,,,,,,,,,,,,,,,,,,,,,,,,,,,
,,,,,,,,,60cbabd69ddfb4d7243a1e38,Spanish,13 or older,"no, only English or Spanish",no,2025-07-24_09h49.39.931,empathy_intonation_perc_control,2024.2.4,Win32,59.88023952,60cbabd69ddfb4d7243a1e38,68817205a84113384fffdfe3,688239eb4a44cb1be9057769,,,,,,,,,,,,,0,,,,,,,,,,,,,,,,,,,,,,,,278.7052,280.2631,0,1,1.0336,,280.2632,281.2533,0,7,7,7,1,0,pelasula,REAL,FAKE,,,,,,,,,,,,,,,,,,,,,,,,,,,,,,,,
,,,,,,,,,60cbabd69ddfb4d7243a1e38,Spanish,13 or older,"no, only English or Spanish",no,2025-07-24_09h49.39.931,empathy_intonation_perc_control,2024.2.4,Win32,59.88023952,60cbabd69ddfb4d7243a1e38,68817205a84113384fffdfe3,688239eb4a44cb1be9057769,,,,,,,,,,,,,1,,,,,,,,,,,,,,,,,,,,,,,,281.2542,282.444,1,1,0.6492,,282.4441,283.4367,0,8,8,8,1,0,bien,REAL,FAKE,,,,,,,,,,,,,,,,,,,,,,,,,,,,,,,,
,,,,,,,,,60cbabd69ddfb4d7243a1e38,Spanish,13 or older,"no, only English or Spanish",no,2025-07-24_09h49.39.931,empathy_intonation_perc_control,2024.2.4,Win32,59.88023952,60cbabd69ddfb4d7243a1e38,68817205a84113384fffdfe3,688239eb4a44cb1be9057769,,,,,,,,,,,,,1,,,,,,,,,,,,,,,,,,,,,,,,283.4375,284.694,1,1,0.7152,,284.6941,285.6865,0,9,9,9,1,0,casa,REAL,FAKE,,,,,,,,,,,,,,,,,,,,,,,,,,,,,,,,
,,,,,,,,,60cbabd69ddfb4d7243a1e38,Spanish,13 or older,"no, only English or Spanish",no,2025-07-24_09h49.39.931,empathy_intonation_perc_control,2024.2.4,Win32,59.88023952,60cbabd69ddfb4d7243a1e38,68817205a84113384fffdfe3,688239eb4a44cb1be9057769,,,,,,,,,,,,,0,,,,,,,,,,,,,,,,,,,,,,,,285.6872,287.0732,1,0,0.8608,,287.0744,288.0713,0,10,10,10,1,0,lejo,REAL,FAKE,,,,,,,,,,,,,,,,,,,,,,,,,,,,,,,,
,,,,,,,,,60cbabd69ddfb4d7243a1e38,Spanish,13 or older,"no, only English or Spanish",no,2025-07-24_09h49.39.931,empathy_intonation_perc_control,2024.2.4,Win32,59.88023952,60cbabd69ddfb4d7243a1e38,68817205a84113384fffdfe3,688239eb4a44cb1be9057769,,,,,,,,,,,,,0,,,,,,,,,,,,,,,,,,,,,,,,288.0732,289.6621,0,1,1.0501,,289.6627,290.6537,0,11,11,11,1,0,pretantas,REAL,FAKE,,,,,,,,,,,,,,,,,,,,,,,,,,,,,,,,
,,,,,,,,,60cbabd69ddfb4d7243a1e38,Spanish,13 or older,"no, only English or Spanish",no,2025-07-24_09h49.39.931,empathy_intonation_perc_control,2024.2.4,Win32,59.88023952,60cbabd69ddfb4d7243a1e38,68817205a84113384fffdfe3,688239eb4a44cb1be9057769,,,,,,,,,,,,,,,,,,,,,,,,,,,,,,,,,,,,,,,,,,,,,,,,,,,,,,290.654,291.594,,,,,,,,,,,,,,,,,,,,,,,,,,,,,,
,,,,,,,,,60cbabd69ddfb4d7243a1e38,Spanish,13 or older,"no, only English or Spanish",no,2025-07-24_09h49.39.931,empathy_intonation_perc_control,2024.2.4,Win32,59.88023952,60cbabd69ddfb4d7243a1e38,68817205a84113384fffdfe3,688239eb4a44cb1be9057769,,,,,,,,,,,,,1,,,,,,,,,,,,,,,,,,,,,,,,,,,,,,,,,,,,,31,pandilla,,,,,291.6236,293.2079,1,1,1.0584,,0,0,0,30,1,REAL,FAKE,,,,,,,,,,,,,,,,,
,,,,,,,,,60cbabd69ddfb4d7243a1e38,Spanish,13 or older,"no, only English or Spanish",no,2025-07-24_09h49.39.931,empathy_intonation_perc_control,2024.2.4,Win32,59.88023952,60cbabd69ddfb4d7243a1e38,68817205a84113384fffdfe3,688239eb4a44cb1be9057769,,,,,,,,,,,,,0,,,,,,,,,,,,,,,,,,,,,,,,,,,,,,,,,,,,,53,vegada,,,,,293.2095,294.5434,0,1,0.8079,,0,1,1,52,1,REAL,FAKE,,,,,,,,,,,,,,,,,
,,,,,,,,,60cbabd69ddfb4d7243a1e38,Spanish,13 or older,"no, only English or Spanish",no,2025-07-24_09h49.39.931,empathy_intonation_perc_control,2024.2.4,Win32,59.88023952,60cbabd69ddfb4d7243a1e38,68817205a84113384fffdfe3,688239eb4a44cb1be9057769,,,,,,,,,,,,,0,,,,,,,,,,,,,,,,,,,,,,,,,,,,,,,,,,,,,42,cadallo,,,,,294.5449,296.0662,0,1,1.0003,,0,2,2,41,1,REAL,FAKE,,,,,,,,,,,,,,,,,
,,,,,,,,,60cbabd69ddfb4d7243a1e38,Spanish,13 or older,"no, only English or Spanish",no,2025-07-24_09h49.39.931,empathy_intonation_perc_control,2024.2.4,Win32,59.88023952,60cbabd69ddfb4d7243a1e38,68817205a84113384fffdfe3,688239eb4a44cb1be9057769,,,,,,,,,,,,,0,,,,,,,,,,,,,,,,,,,,,,,,,,,,,,,,,,,,,33,pauca,,,,,296.0668,297.673,0,1,1.0925,,0,3,3,32,1,REAL,FAKE,,,,,,,,,,,,,,,,,
,,,,,,,,,60cbabd69ddfb4d7243a1e38,Spanish,13 or older,"no, only English or Spanish",no,2025-07-24_09h49.39.931,empathy_intonation_perc_control,2024.2.4,Win32,59.88023952,60cbabd69ddfb4d7243a1e38,68817205a84113384fffdfe3,688239eb4a44cb1be9057769,,,,,,,,,,,,,1,,,,,,,,,,,,,,,,,,,,,,,,,,,,,,,,,,,,,7,pésimo,,,,,297.6737,299.0747,1,1,0.8724,,0,4,4,6,1,REAL,FAKE,,,,,,,,,,,,,,,,,
,,,,,,,,,60cbabd69ddfb4d7243a1e38,Spanish,13 or older,"no, only English or Spanish",no,2025-07-24_09h49.39.931,empathy_intonation_perc_control,2024.2.4,Win32,59.88023952,60cbabd69ddfb4d7243a1e38,68817205a84113384fffdfe3,688239eb4a44cb1be9057769,,,,,,,,,,,,,1,,,,,,,,,,,,,,,,,,,,,,,,,,,,,,,,,,,,,45,jilguero,,,,,299.0763,301.278,0,0,1.678,,0,5,5,44,1,REAL,FAKE,,,,,,,,,,,,,,,,,
,,,,,,,,,60cbabd69ddfb4d7243a1e38,Spanish,13 or older,"no, only English or Spanish",no,2025-07-24_09h49.39.931,empathy_intonation_perc_control,2024.2.4,Win32,59.88023952,60cbabd69ddfb4d7243a1e38,68817205a84113384fffdfe3,688239eb4a44cb1be9057769,,,,,,,,,,,,,1,,,,,,,,,,,,,,,,,,,,,,,,,,,,,,,,,,,,,14,yunque,,,,,301.2792,303.0333,0,0,1.2319,,0,6,6,13,1,REAL,FAKE,,,,,,,,,,,,,,,,,
,,,,,,,,,60cbabd69ddfb4d7243a1e38,Spanish,13 or older,"no, only English or Spanish",no,2025-07-24_09h49.39.931,empathy_intonation_perc_control,2024.2.4,Win32,59.88023952,60cbabd69ddfb4d7243a1e38,68817205a84113384fffdfe3,688239eb4a44cb1be9057769,,,,,,,,,,,,,1,,,,,,,,,,,,,,,,,,,,,,,,,,,,,,,,,,,,,41,rebuscar,,,,,303.0347,304.3761,0,0,0.8246,,0,7,7,40,1,REAL,FAKE,,,,,,,,,,,,,,,,,
,,,,,,,,,60cbabd69ddfb4d7243a1e38,Spanish,13 or older,"no, only English or Spanish",no,2025-07-24_09h49.39.931,empathy_intonation_perc_control,2024.2.4,Win32,59.88023952,60cbabd69ddfb4d7243a1e38,68817205a84113384fffdfe3,688239eb4a44cb1be9057769,,,,,,,,,,,,,1,,,,,,,,,,,,,,,,,,,,,,,,,,,,,,,,,,,,,68,alegre,,,,,304.3776,305.7485,0,0,0.8475,,0,8,8,67,1,REAL,FAKE,,,,,,,,,,,,,,,,,
,,,,,,,,,60cbabd69ddfb4d7243a1e38,Spanish,13 or older,"no, only English or Spanish",no,2025-07-24_09h49.39.931,empathy_intonation_perc_control,2024.2.4,Win32,59.88023952,60cbabd69ddfb4d7243a1e38,68817205a84113384fffdfe3,688239eb4a44cb1be9057769,,,,,,,,,,,,,1,,,,,,,,,,,,,,,,,,,,,,,,,,,,,,,,,,,,,2,pellizcar,,,,,305.7493,307.2999,0,0,1.0356,,0,9,9,1,1,REAL,FAKE,,,,,,,,,,,,,,,,,
,,,,,,,,,60cbabd69ddfb4d7243a1e38,Spanish,13 or older,"no, only English or Spanish",no,2025-07-24_09h49.39.931,empathy_intonation_perc_control,2024.2.4,Win32,59.88023952,60cbabd69ddfb4d7243a1e38,68817205a84113384fffdfe3,688239eb4a44cb1be9057769,,,,,,,,,,,,,1,,,,,,,,,,,,,,,,,,,,,,,,,,,,,,,,,,,,,9,hacha,,,,,307.301,308.611,1,1,0.7927,,0,10,10,8,1,REAL,FAKE,,,,,,,,,,,,,,,,,
,,,,,,,,,60cbabd69ddfb4d7243a1e38,Spanish,13 or older,"no, only English or Spanish",no,2025-07-24_09h49.39.931,empathy_intonation_perc_control,2024.2.4,Win32,59.88023952,60cbabd69ddfb4d7243a1e38,68817205a84113384fffdfe3,688239eb4a44cb1be9057769,,,,,,,,,,,,,1,,,,,,,,,,,,,,,,,,,,,,,,,,,,,,,,,,,,,54,fomentar,,,,,308.6123,310.0941,0,0,0.9575,,0,11,11,53,1,REAL,FAKE,,,,,,,,,,,,,,,,,
,,,,,,,,,60cbabd69ddfb4d7243a1e38,Spanish,13 or older,"no, only English or Spanish",no,2025-07-24_09h49.39.931,empathy_intonation_perc_control,2024.2.4,Win32,59.88023952,60cbabd69ddfb4d7243a1e38,68817205a84113384fffdfe3,688239eb4a44cb1be9057769,,,,,,,,,,,,,1,,,,,,,,,,,,,,,,,,,,,,,,,,,,,,,,,,,,,55,nevar,,,,,310.0954,312.0117,1,1,1.3953,,0,12,12,54,1,REAL,FAKE,,,,,,,,,,,,,,,,,
,,,,,,,,,60cbabd69ddfb4d7243a1e38,Spanish,13 or older,"no, only English or Spanish",no,2025-07-24_09h49.39.931,empathy_intonation_perc_control,2024.2.4,Win32,59.88023952,60cbabd69ddfb4d7243a1e38,68817205a84113384fffdfe3,688239eb4a44cb1be9057769,,,,,,,,,,,,,1,,,,,,,,,,,,,,,,,,,,,,,,,,,,,,,,,,,,,71,polvoriento,,,,,312.0122,313.286,0,0,0.7504,,0,13,13,70,1,REAL,FAKE,,,,,,,,,,,,,,,,,
,,,,,,,,,60cbabd69ddfb4d7243a1e38,Spanish,13 or older,"no, only English or Spanish",no,2025-07-24_09h49.39.931,empathy_intonation_perc_control,2024.2.4,Win32,59.88023952,60cbabd69ddfb4d7243a1e38,68817205a84113384fffdfe3,688239eb4a44cb1be9057769,,,,,,,,,,,,,0,,,,,,,,,,,,,,,,,,,,,,,,,,,,,,,,,,,,,47,cartinar,,,,,313.2872,315.2887,0,1,1.4736,,0,14,14,46,1,REAL,FAKE,,,,,,,,,,,,,,,,,
,,,,,,,,,60cbabd69ddfb4d7243a1e38,Spanish,13 or older,"no, only English or Spanish",no,2025-07-24_09h49.39.931,empathy_intonation_perc_control,2024.2.4,Win32,59.88023952,60cbabd69ddfb4d7243a1e38,68817205a84113384fffdfe3,688239eb4a44cb1be9057769,,,,,,,,,,,,,0,,,,,,,,,,,,,,,,,,,,,,,,,,,,,,,,,,,,,29,decar,,,,,315.2901,317.0529,1,0,1.2378,,0,15,15,28,1,REAL,FAKE,,,,,,,,,,,,,,,,,
,,,,,,,,,60cbabd69ddfb4d7243a1e38,Spanish,13 or older,"no, only English or Spanish",no,2025-07-24_09h49.39.931,empathy_intonation_perc_control,2024.2.4,Win32,59.88023952,60cbabd69ddfb4d7243a1e38,68817205a84113384fffdfe3,688239eb4a44cb1be9057769,,,,,,,,,,,,,0,,,,,,,,,,,,,,,,,,,,,,,,,,,,,,,,,,,,,70,temblo,,,,,317.0541,318.7126,0,1,1.131,,0,16,16,69,1,REAL,FAKE,,,,,,,,,,,,,,,,,
,,,,,,,,,60cbabd69ddfb4d7243a1e38,Spanish,13 or older,"no, only English or Spanish",no,2025-07-24_09h49.39.931,empathy_intonation_perc_control,2024.2.4,Win32,59.88023952,60cbabd69ddfb4d7243a1e38,68817205a84113384fffdfe3,688239eb4a44cb1be9057769,,,,,,,,,,,,,0,,,,,,,,,,,,,,,,,,,,,,,,,,,,,,,,,,,,,18,arsa,,,,,318.7138,320.0439,1,0,0.7948,,0,17,17,17,1,REAL,FAKE,,,,,,,,,,,,,,,,,
,,,,,,,,,60cbabd69ddfb4d7243a1e38,Spanish,13 or older,"no, only English or Spanish",no,2025-07-24_09h49.39.931,empathy_intonation_perc_control,2024.2.4,Win32,59.88023952,60cbabd69ddfb4d7243a1e38,68817205a84113384fffdfe3,688239eb4a44cb1be9057769,,,,,,,,,,,,,1,,,,,,,,,,,,,,,,,,,,,,,,,,,,,,,,,,,,,34,aviso,,,,,320.0451,321.5747,1,1,0.9923,,0,18,18,33,1,REAL,FAKE,,,,,,,,,,,,,,,,,
,,,,,,,,,60cbabd69ddfb4d7243a1e38,Spanish,13 or older,"no, only English or Spanish",no,2025-07-24_09h49.39.931,empathy_intonation_perc_control,2024.2.4,Win32,59.88023952,60cbabd69ddfb4d7243a1e38,68817205a84113384fffdfe3,688239eb4a44cb1be9057769,,,,,,,,,,,,,1,,,,,,,,,,,,,,,,,,,,,,,,,,,,,,,,,,,,,64,orgulloso,,,,,321.5754,322.6792,0,0,0.5633,,0,19,19,63,1,REAL,FAKE,,,,,,,,,,,,,,,,,
,,,,,,,,,60cbabd69ddfb4d7243a1e38,Spanish,13 or older,"no, only English or Spanish",no,2025-07-24_09h49.39.931,empathy_intonation_perc_control,2024.2.4,Win32,59.88023952,60cbabd69ddfb4d7243a1e38,68817205a84113384fffdfe3,688239eb4a44cb1be9057769,,,,,,,,,,,,,1,,,,,,,,,,,,,,,,,,,,,,,,,,,,,,,,,,,,,13,helar,,,,,322.6807,323.8458,0,0,0.6296,,0,20,20,12,1,REAL,FAKE,,,,,,,,,,,,,,,,,
,,,,,,,,,60cbabd69ddfb4d7243a1e38,Spanish,13 or older,"no, only English or Spanish",no,2025-07-24_09h49.39.931,empathy_intonation_perc_control,2024.2.4,Win32,59.88023952,60cbabd69ddfb4d7243a1e38,68817205a84113384fffdfe3,688239eb4a44cb1be9057769,,,,,,,,,,,,,0,,,,,,,,,,,,,,,,,,,,,,,,,,,,,,,,,,,,,27,acutación,,,,,323.8478,325.3332,1,0,0.9507,,0,21,21,26,1,REAL,FAKE,,,,,,,,,,,,,,,,,
,,,,,,,,,60cbabd69ddfb4d7243a1e38,Spanish,13 or older,"no, only English or Spanish",no,2025-07-24_09h49.39.931,empathy_intonation_perc_control,2024.2.4,Win32,59.88023952,60cbabd69ddfb4d7243a1e38,68817205a84113384fffdfe3,688239eb4a44cb1be9057769,,,,,,,,,,,,,0,,,,,,,,,,,,,,,,,,,,,,,,,,,,,,,,,,,,,92,click the 0 key.,,,,,325.3347,328.2829,0,1,2.4181,,0,22,22,91,1,REAL,FAKE,,,,,,,,,,,,,,,,,
,,,,,,,,,60cbabd69ddfb4d7243a1e38,Spanish,13 or older,"no, only English or Spanish",no,2025-07-24_09h49.39.931,empathy_intonation_perc_control,2024.2.4,Win32,59.88023952,60cbabd69ddfb4d7243a1e38,68817205a84113384fffdfe3,688239eb4a44cb1be9057769,,,,,,,,,,,,,0,,,,,,,,,,,,,,,,,,,,,,,,,,,,,,,,,,,,,8,cadeña,,,,,328.2851,330.2546,1,0,1.4376,,0,23,23,7,1,REAL,FAKE,,,,,,,,,,,,,,,,,
,,,,,,,,,60cbabd69ddfb4d7243a1e38,Spanish,13 or older,"no, only English or Spanish",no,2025-07-24_09h49.39.931,empathy_intonation_perc_control,2024.2.4,Win32,59.88023952,60cbabd69ddfb4d7243a1e38,68817205a84113384fffdfe3,688239eb4a44cb1be9057769,,,,,,,,,,,,,0,,,,,,,,,,,,,,,,,,,,,,,,,,,,,,,,,,,,,1,terzo,,,,,330.2556,331.5327,0,1,0.7493,,0,24,24,0,1,REAL,FAKE,,,,,,,,,,,,,,,,,
,,,,,,,,,60cbabd69ddfb4d7243a1e38,Spanish,13 or older,"no, only English or Spanish",no,2025-07-24_09h49.39.931,empathy_intonation_perc_control,2024.2.4,Win32,59.88023952,60cbabd69ddfb4d7243a1e38,68817205a84113384fffdfe3,688239eb4a44cb1be9057769,,,,,,,,,,,,,0,,,,,,,,,,,,,,,,,,,,,,,,,,,,,,,,,,,,,23,lampera,,,,,331.5338,332.9478,1,0,0.8824,,0,25,25,22,1,REAL,FAKE,,,,,,,,,,,,,,,,,
,,,,,,,,,60cbabd69ddfb4d7243a1e38,Spanish,13 or older,"no, only English or Spanish",no,2025-07-24_09h49.39.931,empathy_intonation_perc_control,2024.2.4,Win32,59.88023952,60cbabd69ddfb4d7243a1e38,68817205a84113384fffdfe3,688239eb4a44cb1be9057769,,,,,,,,,,,,,1,,,,,,,,,,,,,,,,,,,,,,,,,,,,,,,,,,,,,78,frondoso,,,,,332.9489,334.2307,0,0,0.7476,,0,26,26,77,1,REAL,FAKE,,,,,,,,,,,,,,,,,
,,,,,,,,,60cbabd69ddfb4d7243a1e38,Spanish,13 or older,"no, only English or Spanish",no,2025-07-24_09h49.39.931,empathy_intonation_perc_control,2024.2.4,Win32,59.88023952,60cbabd69ddfb4d7243a1e38,68817205a84113384fffdfe3,688239eb4a44cb1be9057769,,,,,,,,,,,,,0,,,,,,,,,,,,,,,,,,,,,,,,,,,,,,,,,,,,,19,brecedad,,,,,334.2318,335.4943,0,1,0.7289,,0,27,27,18,1,REAL,FAKE,,,,,,,,,,,,,,,,,
,,,,,,,,,60cbabd69ddfb4d7243a1e38,Spanish,13 or older,"no, only English or Spanish",no,2025-07-24_09h49.39.931,empathy_intonation_perc_control,2024.2.4,Win32,59.88023952,60cbabd69ddfb4d7243a1e38,68817205a84113384fffdfe3,688239eb4a44cb1be9057769,,,,,,,,,,,,,1,,,,,,,,,,,,,,,,,,,,,,,,,,,,,,,,,,,,,90,clavel,,,,,335.495,336.7818,0,0,0.7483,,0,28,28,89,1,REAL,FAKE,,,,,,,,,,,,,,,,,
,,,,,,,,,60cbabd69ddfb4d7243a1e38,Spanish,13 or older,"no, only English or Spanish",no,2025-07-24_09h49.39.931,empathy_intonation_perc_control,2024.2.4,Win32,59.88023952,60cbabd69ddfb4d7243a1e38,68817205a84113384fffdfe3,688239eb4a44cb1be9057769,,,,,,,,,,,,,0,,,,,,,,,,,,,,,,,,,,,,,,,,,,,,,,,,,,,32,fatacidad,,,,,336.7829,339.2967,0,1,1.9793,,0,29,29,31,1,REAL,FAKE,,,,,,,,,,,,,,,,,
,,,,,,,,,60cbabd69ddfb4d7243a1e38,Spanish,13 or older,"no, only English or Spanish",no,2025-07-24_09h49.39.931,empathy_intonation_perc_control,2024.2.4,Win32,59.88023952,60cbabd69ddfb4d7243a1e38,68817205a84113384fffdfe3,688239eb4a44cb1be9057769,,,,,,,,,,,,,0,,,,,,,,,,,,,,,,,,,,,,,,,,,,,,,,,,,,,72,pemición,,,,,339.2977,340.7314,1,0,0.8976,,0,30,30,71,1,REAL,FAKE,,,,,,,,,,,,,,,,,
,,,,,,,,,60cbabd69ddfb4d7243a1e38,Spanish,13 or older,"no, only English or Spanish",no,2025-07-24_09h49.39.931,empathy_intonation_perc_control,2024.2.4,Win32,59.88023952,60cbabd69ddfb4d7243a1e38,68817205a84113384fffdfe3,688239eb4a44cb1be9057769,,,,,,,,,,,,,1,,,,,,,,,,,,,,,,,,,,,,,,,,,,,,,,,,,,,86,barato,,,,,340.7325,342.2648,1,1,0.9987,,0,31,31,85,1,REAL,FAKE,,,,,,,,,,,,,,,,,
,,,,,,,,,60cbabd69ddfb4d7243a1e38,Spanish,13 or older,"no, only English or Spanish",no,2025-07-24_09h49.39.931,empathy_intonation_perc_control,2024.2.4,Win32,59.88023952,60cbabd69ddfb4d7243a1e38,68817205a84113384fffdfe3,688239eb4a44cb1be9057769,,,,,,,,,,,,,0,,,,,,,,,,,,,,,,,,,,,,,,,,,,,,,,,,,,,16,abracer,,,,,342.2659,343.4295,0,1,0.6282,,0,32,32,15,1,REAL,FAKE,,,,,,,,,,,,,,,,,
,,,,,,,,,60cbabd69ddfb4d7243a1e38,Spanish,13 or older,"no, only English or Spanish",no,2025-07-24_09h49.39.931,empathy_intonation_perc_control,2024.2.4,Win32,59.88023952,60cbabd69ddfb4d7243a1e38,68817205a84113384fffdfe3,688239eb4a44cb1be9057769,,,,,,,,,,,,,1,,,,,,,,,,,,,,,,,,,,,,,,,,,,,,,,,,,,,36,loro,,,,,343.4305,344.8006,1,1,0.8324,,0,33,33,35,1,REAL,FAKE,,,,,,,,,,,,,,,,,
,,,,,,,,,60cbabd69ddfb4d7243a1e38,Spanish,13 or older,"no, only English or Spanish",no,2025-07-24_09h49.39.931,empathy_intonation_perc_control,2024.2.4,Win32,59.88023952,60cbabd69ddfb4d7243a1e38,68817205a84113384fffdfe3,688239eb4a44cb1be9057769,,,,,,,,,,,,,1,,,,,,,,,,,,,,,,,,,,,,,,,,,,,,,,,,,,,77,tiburón,,,,,344.8017,345.9782,0,0,0.6448,,0,34,34,76,1,REAL,FAKE,,,,,,,,,,,,,,,,,
,,,,,,,,,60cbabd69ddfb4d7243a1e38,Spanish,13 or older,"no, only English or Spanish",no,2025-07-24_09h49.39.931,empathy_intonation_perc_control,2024.2.4,Win32,59.88023952,60cbabd69ddfb4d7243a1e38,68817205a84113384fffdfe3,688239eb4a44cb1be9057769,,,,,,,,,,,,,1,,,,,,,,,,,,,,,,,,,,,,,,,,,,,,,,,,,,,28,merodear,,,,,345.979,347.6486,0,0,1.1298,,0,35,35,27,1,REAL,FAKE,,,,,,,,,,,,,,,,,
,,,,,,,,,60cbabd69ddfb4d7243a1e38,Spanish,13 or older,"no, only English or Spanish",no,2025-07-24_09h49.39.931,empathy_intonation_perc_control,2024.2.4,Win32,59.88023952,60cbabd69ddfb4d7243a1e38,68817205a84113384fffdfe3,688239eb4a44cb1be9057769,,,,,,,,,,,,,1,,,,,,,,,,,,,,,,,,,,,,,,,,,,,,,,,,,,,46,martillo,,,,,347.6499,348.8728,1,1,0.6879,,0,36,36,45,1,REAL,FAKE,,,,,,,,,,,,,,,,,
,,,,,,,,,60cbabd69ddfb4d7243a1e38,Spanish,13 or older,"no, only English or Spanish",no,2025-07-24_09h49.39.931,empathy_intonation_perc_control,2024.2.4,Win32,59.88023952,60cbabd69ddfb4d7243a1e38,68817205a84113384fffdfe3,688239eb4a44cb1be9057769,,,,,,,,,,,,,0,,,,,,,,,,,,,,,,,,,,,,,,,,,,,,,,,,,,,66,hacido,,,,,348.874,350.2827,1,0,0.881,,0,37,37,65,1,REAL,FAKE,,,,,,,,,,,,,,,,,
,,,,,,,,,60cbabd69ddfb4d7243a1e38,Spanish,13 or older,"no, only English or Spanish",no,2025-07-24_09h49.39.931,empathy_intonation_perc_control,2024.2.4,Win32,59.88023952,60cbabd69ddfb4d7243a1e38,68817205a84113384fffdfe3,688239eb4a44cb1be9057769,,,,,,,,,,,,,1,,,,,,,,,,,,,,,,,,,,,,,,,,,,,,,,,,,,,43,canela,,,,,350.2839,351.9011,0,0,1.0831,,0,38,38,42,1,REAL,FAKE,,,,,,,,,,,,,,,,,
,,,,,,,,,60cbabd69ddfb4d7243a1e38,Spanish,13 or older,"no, only English or Spanish",no,2025-07-24_09h49.39.931,empathy_intonation_perc_control,2024.2.4,Win32,59.88023952,60cbabd69ddfb4d7243a1e38,68817205a84113384fffdfe3,688239eb4a44cb1be9057769,,,,,,,,,,,,,1,,,,,,,,,,,,,,,,,,,,,,,,,,,,,,,,,,,,,83,guante,,,,,351.9022,354.0365,0,0,1.6023,,0,39,39,82,1,REAL,FAKE,,,,,,,,,,,,,,,,,
,,,,,,,,,60cbabd69ddfb4d7243a1e38,Spanish,13 or older,"no, only English or Spanish",no,2025-07-24_09h49.39.931,empathy_intonation_perc_control,2024.2.4,Win32,59.88023952,60cbabd69ddfb4d7243a1e38,68817205a84113384fffdfe3,688239eb4a44cb1be9057769,,,,,,,,,,,,,1,,,,,,,,,,,,,,,,,,,,,,,,,,,,,,,,,,,,,56,musgo,,,,,354.0377,355.1802,0,0,0.6114,,0,40,40,55,1,REAL,FAKE,,,,,,,,,,,,,,,,,
,,,,,,,,,60cbabd69ddfb4d7243a1e38,Spanish,13 or older,"no, only English or Spanish",no,2025-07-24_09h49.39.931,empathy_intonation_perc_control,2024.2.4,Win32,59.88023952,60cbabd69ddfb4d7243a1e38,68817205a84113384fffdfe3,688239eb4a44cb1be9057769,,,,,,,,,,,,,1,,,,,,,,,,,,,,,,,,,,,,,,,,,,,,,,,,,,,39,torpe,,,,,355.1812,356.5285,0,0,0.8102,,0,41,41,38,1,REAL,FAKE,,,,,,,,,,,,,,,,,
,,,,,,,,,60cbabd69ddfb4d7243a1e38,Spanish,13 or older,"no, only English or Spanish",no,2025-07-24_09h49.39.931,empathy_intonation_perc_control,2024.2.4,Win32,59.88023952,60cbabd69ddfb4d7243a1e38,68817205a84113384fffdfe3,688239eb4a44cb1be9057769,,,,,,,,,,,,,1,,,,,,,,,,,,,,,,,,,,,,,,,,,,,,,,,,,,,65,bizcocho,,,,,356.5292,357.8807,0,0,0.8133,,0,42,42,64,1,REAL,FAKE,,,,,,,,,,,,,,,,,
,,,,,,,,,60cbabd69ddfb4d7243a1e38,Spanish,13 or older,"no, only English or Spanish",no,2025-07-24_09h49.39.931,empathy_intonation_perc_control,2024.2.4,Win32,59.88023952,60cbabd69ddfb4d7243a1e38,68817205a84113384fffdfe3,688239eb4a44cb1be9057769,,,,,,,,,,,,,1,,,,,,,,,,,,,,,,,,,,,,,,,,,,,,,,,,,,,37,granuja,,,,,357.8819,360.0205,1,1,1.6016,,0,43,43,36,1,REAL,FAKE,,,,,,,,,,,,,,,,,
,,,,,,,,,60cbabd69ddfb4d7243a1e38,Spanish,13 or older,"no, only English or Spanish",no,2025-07-24_09h49.39.931,empathy_intonation_perc_control,2024.2.4,Win32,59.88023952,60cbabd69ddfb4d7243a1e38,68817205a84113384fffdfe3,688239eb4a44cb1be9057769,,,,,,,,,,,,,0,,,,,,,,,,,,,,,,,,,,,,,,,,,,,,,,,,,,,35,rompido,,,,,360.022,361.2686,0,1,0.715,,0,44,44,34,1,REAL,FAKE,,,,,,,,,,,,,,,,,
,,,,,,,,,60cbabd69ddfb4d7243a1e38,Spanish,13 or older,"no, only English or Spanish",no,2025-07-24_09h49.39.931,empathy_intonation_perc_control,2024.2.4,Win32,59.88023952,60cbabd69ddfb4d7243a1e38,68817205a84113384fffdfe3,688239eb4a44cb1be9057769,,,,,,,,,,,,,1,,,,,,,,,,,,,,,,,,,,,,,,,,,,,,,,,,,,,69,engatusar,,,,,361.2699,362.5564,0,0,0.7529,,0,45,45,68,1,REAL,FAKE,,,,,,,,,,,,,,,,,
,,,,,,,,,60cbabd69ddfb4d7243a1e38,Spanish,13 or older,"no, only English or Spanish",no,2025-07-24_09h49.39.931,empathy_intonation_perc_control,2024.2.4,Win32,59.88023952,60cbabd69ddfb4d7243a1e38,68817205a84113384fffdfe3,688239eb4a44cb1be9057769,,,,,,,,,,,,,1,,,,,,,,,,,,,,,,,,,,,,,,,,,,,,,,,,,,,52,camisa,,,,,362.5575,363.6548,1,1,0.5694,,0,46,46,51,1,REAL,FAKE,,,,,,,,,,,,,,,,,
,,,,,,,,,60cbabd69ddfb4d7243a1e38,Spanish,13 or older,"no, only English or Spanish",no,2025-07-24_09h49.39.931,empathy_intonation_perc_control,2024.2.4,Win32,59.88023952,60cbabd69ddfb4d7243a1e38,68817205a84113384fffdfe3,688239eb4a44cb1be9057769,,,,,,,,,,,,,1,,,,,,,,,,,,,,,,,,,,,,,,,,,,,,,,,,,,,57,tacaño,,,,,363.6564,364.9527,1,1,0.7671,,0,47,47,56,1,REAL,FAKE,,,,,,,,,,,,,,,,,
,,,,,,,,,60cbabd69ddfb4d7243a1e38,Spanish,13 or older,"no, only English or Spanish",no,2025-07-24_09h49.39.931,empathy_intonation_perc_control,2024.2.4,Win32,59.88023952,60cbabd69ddfb4d7243a1e38,68817205a84113384fffdfe3,688239eb4a44cb1be9057769,,,,,,,,,,,,,0,,,,,,,,,,,,,,,,,,,,,,,,,,,,,,,,,,,,,21,capillo,,,,,364.954,366.6018,0,1,1.1168,,0,48,48,20,1,REAL,FAKE,,,,,,,,,,,,,,,,,
,,,,,,,,,60cbabd69ddfb4d7243a1e38,Spanish,13 or older,"no, only English or Spanish",no,2025-07-24_09h49.39.931,empathy_intonation_perc_control,2024.2.4,Win32,59.88023952,60cbabd69ddfb4d7243a1e38,68817205a84113384fffdfe3,688239eb4a44cb1be9057769,,,,,,,,,,,,,1,,,,,,,,,,,,,,,,,,,,,,,,,,,,,,,,,,,,,76,atar,,,,,366.6026,368.7057,0,0,1.5701,,0,49,49,75,1,REAL,FAKE,,,,,,,,,,,,,,,,,
,,,,,,,,,60cbabd69ddfb4d7243a1e38,Spanish,13 or older,"no, only English or Spanish",no,2025-07-24_09h49.39.931,empathy_intonation_perc_control,2024.2.4,Win32,59.88023952,60cbabd69ddfb4d7243a1e38,68817205a84113384fffdfe3,688239eb4a44cb1be9057769,,,,,,,,,,,,,1,,,,,,,,,,,,,,,,,,,,,,,,,,,,,,,,,,,,,60,matar,,,,,368.7068,370.2147,1,1,0.9786,,0,50,50,59,1,REAL,FAKE,,,,,,,,,,,,,,,,,
,,,,,,,,,60cbabd69ddfb4d7243a1e38,Spanish,13 or older,"no, only English or Spanish",no,2025-07-24_09h49.39.931,empathy_intonation_perc_control,2024.2.4,Win32,59.88023952,60cbabd69ddfb4d7243a1e38,68817205a84113384fffdfe3,688239eb4a44cb1be9057769,,,,,,,,,,,,,1,,,,,,,,,,,,,,,,,,,,,,,,,,,,,,,,,,,,,11,cenefa,,,,,370.2158,371.4658,0,0,0.7136,,0,51,51,10,1,REAL,FAKE,,,,,,,,,,,,,,,,,
,,,,,,,,,60cbabd69ddfb4d7243a1e38,Spanish,13 or older,"no, only English or Spanish",no,2025-07-24_09h49.39.931,empathy_intonation_perc_control,2024.2.4,Win32,59.88023952,60cbabd69ddfb4d7243a1e38,68817205a84113384fffdfe3,688239eb4a44cb1be9057769,,,,,,,,,,,,,1,,,,,,,,,,,,,,,,,,,,,,,,,,,,,,,,,,,,,81,pozo,,,,,371.4663,372.7528,0,0,0.7488,,0,52,52,80,1,REAL,FAKE,,,,,,,,,,,,,,,,,
,,,,,,,,,60cbabd69ddfb4d7243a1e38,Spanish,13 or older,"no, only English or Spanish",no,2025-07-24_09h49.39.931,empathy_intonation_perc_control,2024.2.4,Win32,59.88023952,60cbabd69ddfb4d7243a1e38,68817205a84113384fffdfe3,688239eb4a44cb1be9057769,,,,,,,,,,,,,1,,,,,,,,,,,,,,,,,,,,,,,,,,,,,,,,,,,,,44,cuchara,,,,,372.754,374.7342,0,0,1.4473,,0,53,53,43,1,REAL,FAKE,,,,,,,,,,,,,,,,,
,,,,,,,,,60cbabd69ddfb4d7243a1e38,Spanish,13 or older,"no, only English or Spanish",no,2025-07-24_09h49.39.931,empathy_intonation_perc_control,2024.2.4,Win32,59.88023952,60cbabd69ddfb4d7243a1e38,68817205a84113384fffdfe3,688239eb4a44cb1be9057769,,,,,,,,,,,,,1,,,,,,,,,,,,,,,,,,,,,,,,,,,,,,,,,,,,,48,ladrón,,,,,374.7353,376.0738,1,1,0.8041,,0,54,54,47,1,REAL,FAKE,,,,,,,,,,,,,,,,,
,,,,,,,,,60cbabd69ddfb4d7243a1e38,Spanish,13 or older,"no, only English or Spanish",no,2025-07-24_09h49.39.931,empathy_intonation_perc_control,2024.2.4,Win32,59.88023952,60cbabd69ddfb4d7243a1e38,68817205a84113384fffdfe3,688239eb4a44cb1be9057769,,,,,,,,,,,,,0,,,,,,,,,,,,,,,,,,,,,,,,,,,,,,,,,,,,,74,cintro,,,,,376.0749,378.4655,1,0,1.862,,0,55,55,73,1,REAL,FAKE,,,,,,,,,,,,,,,,,
,,,,,,,,,60cbabd69ddfb4d7243a1e38,Spanish,13 or older,"no, only English or Spanish",no,2025-07-24_09h49.39.931,empathy_intonation_perc_control,2024.2.4,Win32,59.88023952,60cbabd69ddfb4d7243a1e38,68817205a84113384fffdfe3,688239eb4a44cb1be9057769,,,,,,,,,,,,,1,,,,,,,,,,,,,,,,,,,,,,,,,,,,,,,,,,,,,62,flaco,,,,,378.4669,379.6186,0,0,0.615,,0,56,56,61,1,REAL,FAKE,,,,,,,,,,,,,,,,,
,,,,,,,,,60cbabd69ddfb4d7243a1e38,Spanish,13 or older,"no, only English or Spanish",no,2025-07-24_09h49.39.931,empathy_intonation_perc_control,2024.2.4,Win32,59.88023952,60cbabd69ddfb4d7243a1e38,68817205a84113384fffdfe3,688239eb4a44cb1be9057769,,,,,,,,,,,,,1,,,,,,,,,,,,,,,,,,,,,,,,,,,,,,,,,,,,,61,seda,,,,,379.6198,381.1038,0,0,0.9668,,0,57,57,60,1,REAL,FAKE,,,,,,,,,,,,,,,,,
,,,,,,,,,60cbabd69ddfb4d7243a1e38,Spanish,13 or older,"no, only English or Spanish",no,2025-07-24_09h49.39.931,empathy_intonation_perc_control,2024.2.4,Win32,59.88023952,60cbabd69ddfb4d7243a1e38,68817205a84113384fffdfe3,688239eb4a44cb1be9057769,,,,,,,,,,,,,1,,,,,,,,,,,,,,,,,,,,,,,,,,,,,,,,,,,,,24,látigo,,,,,381.1048,382.3179,1,1,0.6817,,0,58,58,23,1,REAL,FAKE,,,,,,,,,,,,,,,,,
,,,,,,,,,60cbabd69ddfb4d7243a1e38,Spanish,13 or older,"no, only English or Spanish",no,2025-07-24_09h49.39.931,empathy_intonation_perc_control,2024.2.4,Win32,59.88023952,60cbabd69ddfb4d7243a1e38,68817205a84113384fffdfe3,688239eb4a44cb1be9057769,,,,,,,,,,,,,1,,,,,,,,,,,,,,,,,,,,,,,,,,,,,,,,,,,,,91,click the 1 key.,,,,,382.3191,384.2823,1,1,1.428,,0,59,59,90,1,REAL,FAKE,,,,,,,,,,,,,,,,,
,,,,,,,,,60cbabd69ddfb4d7243a1e38,Spanish,13 or older,"no, only English or Spanish",no,2025-07-24_09h49.39.931,empathy_intonation_perc_control,2024.2.4,Win32,59.88023952,60cbabd69ddfb4d7243a1e38,68817205a84113384fffdfe3,688239eb4a44cb1be9057769,,,,,,,,,,,,,0,,,,,,,,,,,,,,,,,,,,,,,,,,,,,,,,,,,,,58,plaudir,,,,,384.2835,386.8488,0,1,2.0284,,0,60,60,57,1,REAL,FAKE,,,,,,,,,,,,,,,,,
,,,,,,,,,60cbabd69ddfb4d7243a1e38,Spanish,13 or older,"no, only English or Spanish",no,2025-07-24_09h49.39.931,empathy_intonation_perc_control,2024.2.4,Win32,59.88023952,60cbabd69ddfb4d7243a1e38,68817205a84113384fffdfe3,688239eb4a44cb1be9057769,,,,,,,,,,,,,1,,,,,,,,,,,,,,,,,,,,,,,,,,,,,,,,,,,,,67,cabello,,,,,386.8494,388.0324,1,1,0.6453,,0,61,61,66,1,REAL,FAKE,,,,,,,,,,,,,,,,,
,,,,,,,,,60cbabd69ddfb4d7243a1e38,Spanish,13 or older,"no, only English or Spanish",no,2025-07-24_09h49.39.931,empathy_intonation_perc_control,2024.2.4,Win32,59.88023952,60cbabd69ddfb4d7243a1e38,68817205a84113384fffdfe3,688239eb4a44cb1be9057769,,,,,,,,,,,,,1,,,,,,,,,,,,,,,,,,,,,,,,,,,,,,,,,,,,,73,hervidor,,,,,388.0333,389.1665,0,0,0.5956,,0,62,62,72,1,REAL,FAKE,,,,,,,,,,,,,,,,,
,,,,,,,,,60cbabd69ddfb4d7243a1e38,Spanish,13 or older,"no, only English or Spanish",no,2025-07-24_09h49.39.931,empathy_intonation_perc_control,2024.2.4,Win32,59.88023952,60cbabd69ddfb4d7243a1e38,68817205a84113384fffdfe3,688239eb4a44cb1be9057769,,,,,,,,,,,,,0,,,,,,,,,,,,,,,,,,,,,,,,,,,,,,,,,,,,,30,alardio,,,,,389.1675,390.3997,0,1,0.6954,,0,63,63,29,1,REAL,FAKE,,,,,,,,,,,,,,,,,
,,,,,,,,,60cbabd69ddfb4d7243a1e38,Spanish,13 or older,"no, only English or Spanish",no,2025-07-24_09h49.39.931,empathy_intonation_perc_control,2024.2.4,Win32,59.88023952,60cbabd69ddfb4d7243a1e38,68817205a84113384fffdfe3,688239eb4a44cb1be9057769,,,,,,,,,,,,,1,,,,,,,,,,,,,,,,,,,,,,,,,,,,,,,,,,,,,89,prisa,,,,,390.4005,391.8361,1,1,0.8969,,0,64,64,88,1,REAL,FAKE,,,,,,,,,,,,,,,,,
,,,,,,,,,60cbabd69ddfb4d7243a1e38,Spanish,13 or older,"no, only English or Spanish",no,2025-07-24_09h49.39.931,empathy_intonation_perc_control,2024.2.4,Win32,59.88023952,60cbabd69ddfb4d7243a1e38,68817205a84113384fffdfe3,688239eb4a44cb1be9057769,,,,,,,,,,,,,1,,,,,,,,,,,,,,,,,,,,,,,,,,,,,,,,,,,,,15,regar,,,,,391.8372,392.9276,0,0,0.5569,,0,65,65,14,1,REAL,FAKE,,,,,,,,,,,,,,,,,
,,,,,,,,,60cbabd69ddfb4d7243a1e38,Spanish,13 or older,"no, only English or Spanish",no,2025-07-24_09h49.39.931,empathy_intonation_perc_control,2024.2.4,Win32,59.88023952,60cbabd69ddfb4d7243a1e38,68817205a84113384fffdfe3,688239eb4a44cb1be9057769,,,,,,,,,,,,,1,,,,,,,,,,,,,,,,,,,,,,,,,,,,,,,,,,,,,51,candado,,,,,392.9287,394.6665,1,1,1.2116,,0,66,66,50,1,REAL,FAKE,,,,,,,,,,,,,,,,,
,,,,,,,,,60cbabd69ddfb4d7243a1e38,Spanish,13 or older,"no, only English or Spanish",no,2025-07-24_09h49.39.931,empathy_intonation_perc_control,2024.2.4,Win32,59.88023952,60cbabd69ddfb4d7243a1e38,68817205a84113384fffdfe3,688239eb4a44cb1be9057769,,,,,,,,,,,,,1,,,,,,,,,,,,,,,,,,,,,,,,,,,,,,,,,,,,,80,hormiga,,,,,394.6671,396.0195,0,0,0.8155,,0,67,67,79,1,REAL,FAKE,,,,,,,,,,,,,,,,,
,,,,,,,,,60cbabd69ddfb4d7243a1e38,Spanish,13 or older,"no, only English or Spanish",no,2025-07-24_09h49.39.931,empathy_intonation_perc_control,2024.2.4,Win32,59.88023952,60cbabd69ddfb4d7243a1e38,68817205a84113384fffdfe3,688239eb4a44cb1be9057769,,,,,,,,,,,,,1,,,,,,,,,,,,,,,,,,,,,,,,,,,,,,,,,,,,,20,ávido,,,,,396.0205,397.3856,1,1,0.8306,,0,68,68,19,1,REAL,FAKE,,,,,,,,,,,,,,,,,
,,,,,,,,,60cbabd69ddfb4d7243a1e38,Spanish,13 or older,"no, only English or Spanish",no,2025-07-24_09h49.39.931,empathy_intonation_perc_control,2024.2.4,Win32,59.88023952,60cbabd69ddfb4d7243a1e38,68817205a84113384fffdfe3,688239eb4a44cb1be9057769,,,,,,,,,,,,,1,,,,,,,,,,,,,,,,,,,,,,,,,,,,,,,,,,,,,3,pulmones,,,,,397.3867,398.6347,0,0,0.7119,,0,69,69,2,1,REAL,FAKE,,,,,,,,,,,,,,,,,
,,,,,,,,,60cbabd69ddfb4d7243a1e38,Spanish,13 or older,"no, only English or Spanish",no,2025-07-24_09h49.39.931,empathy_intonation_perc_control,2024.2.4,Win32,59.88023952,60cbabd69ddfb4d7243a1e38,68817205a84113384fffdfe3,688239eb4a44cb1be9057769,,,,,,,,,,,,,1,,,,,,,,,,,,,,,,,,,,,,,,,,,,,,,,,,,,,59,besar,,,,,398.6358,399.7495,0,0,0.5767,,0,70,70,58,1,REAL,FAKE,,,,,,,,,,,,,,,,,
,,,,,,,,,60cbabd69ddfb4d7243a1e38,Spanish,13 or older,"no, only English or Spanish",no,2025-07-24_09h49.39.931,empathy_intonation_perc_control,2024.2.4,Win32,59.88023952,60cbabd69ddfb4d7243a1e38,68817205a84113384fffdfe3,688239eb4a44cb1be9057769,,,,,,,,,,,,,1,,,,,,,,,,,,,,,,,,,,,,,,,,,,,,,,,,,,,75,yacer,,,,,399.7503,401.0204,0,0,0.7318,,0,71,71,74,1,REAL,FAKE,,,,,,,,,,,,,,,,,
,,,,,,,,,60cbabd69ddfb4d7243a1e38,Spanish,13 or older,"no, only English or Spanish",no,2025-07-24_09h49.39.931,empathy_intonation_perc_control,2024.2.4,Win32,59.88023952,60cbabd69ddfb4d7243a1e38,68817205a84113384fffdfe3,688239eb4a44cb1be9057769,,,,,,,,,,,,,1,,,,,,,,,,,,,,,,,,,,,,,,,,,,,,,,,,,,,5,zapato,,,,,401.021,402.1432,0,0,0.5885,,0,72,72,4,1,REAL,FAKE,,,,,,,,,,,,,,,,,
,,,,,,,,,60cbabd69ddfb4d7243a1e38,Spanish,13 or older,"no, only English or Spanish",no,2025-07-24_09h49.39.931,empathy_intonation_perc_control,2024.2.4,Win32,59.88023952,60cbabd69ddfb4d7243a1e38,68817205a84113384fffdfe3,688239eb4a44cb1be9057769,,,,,,,,,,,,,0,,,,,,,,,,,,,,,,,,,,,,,,,,,,,,,,,,,,,63,esposante,,,,,402.1442,403.4448,0,1,0.7716,,0,73,73,62,1,REAL,FAKE,,,,,,,,,,,,,,,,,
,,,,,,,,,60cbabd69ddfb4d7243a1e38,Spanish,13 or older,"no, only English or Spanish",no,2025-07-24_09h49.39.931,empathy_intonation_perc_control,2024.2.4,Win32,59.88023952,60cbabd69ddfb4d7243a1e38,68817205a84113384fffdfe3,688239eb4a44cb1be9057769,,,,,,,,,,,,,1,,,,,,,,,,,,,,,,,,,,,,,,,,,,,,,,,,,,,49,ganar,,,,,403.4458,404.8667,0,0,0.8936,,0,74,74,48,1,REAL,FAKE,,,,,,,,,,,,,,,,,
,,,,,,,,,60cbabd69ddfb4d7243a1e38,Spanish,13 or older,"no, only English or Spanish",no,2025-07-24_09h49.39.931,empathy_intonation_perc_control,2024.2.4,Win32,59.88023952,60cbabd69ddfb4d7243a1e38,68817205a84113384fffdfe3,688239eb4a44cb1be9057769,,,,,,,,,,,,,1,,,,,,,,,,,,,,,,,,,,,,,,,,,,,,,,,,,,,38,estornudar,,,,,404.8679,406.1503,0,0,0.7458,,0,75,75,37,1,REAL,FAKE,,,,,,,,,,,,,,,,,
,,,,,,,,,60cbabd69ddfb4d7243a1e38,Spanish,13 or older,"no, only English or Spanish",no,2025-07-24_09h49.39.931,empathy_intonation_perc_control,2024.2.4,Win32,59.88023952,60cbabd69ddfb4d7243a1e38,68817205a84113384fffdfe3,688239eb4a44cb1be9057769,,,,,,,,,,,,,1,,,,,,,,,,,,,,,,,,,,,,,,,,,,,,,,,,,,,25,bisagra,,,,,406.1509,407.8077,1,1,1.118,,0,76,76,24,1,REAL,FAKE,,,,,,,,,,,,,,,,,
,,,,,,,,,60cbabd69ddfb4d7243a1e38,Spanish,13 or older,"no, only English or Spanish",no,2025-07-24_09h49.39.931,empathy_intonation_perc_control,2024.2.4,Win32,59.88023952,60cbabd69ddfb4d7243a1e38,68817205a84113384fffdfe3,688239eb4a44cb1be9057769,,,,,,,,,,,,,0,,,,,,,,,,,,,,,,,,,,,,,,,,,,,,,,,,,,,79,tropaje,,,,,407.8087,409.2195,0,1,0.8795,,0,77,77,78,1,REAL,FAKE,,,,,,,,,,,,,,,,,
,,,,,,,,,60cbabd69ddfb4d7243a1e38,Spanish,13 or older,"no, only English or Spanish",no,2025-07-24_09h49.39.931,empathy_intonation_perc_control,2024.2.4,Win32,59.88023952,60cbabd69ddfb4d7243a1e38,68817205a84113384fffdfe3,688239eb4a44cb1be9057769,,,,,,,,,,,,,0,,,,,,,,,,,,,,,,,,,,,,,,,,,,,,,,,,,,,87,grodo,,,,,409.2205,410.5292,0,1,0.7731,,0,78,78,86,1,REAL,FAKE,,,,,,,,,,,,,,,,,
,,,,,,,,,60cbabd69ddfb4d7243a1e38,Spanish,13 or older,"no, only English or Spanish",no,2025-07-24_09h49.39.931,empathy_intonation_perc_control,2024.2.4,Win32,59.88023952,60cbabd69ddfb4d7243a1e38,68817205a84113384fffdfe3,688239eb4a44cb1be9057769,,,,,,,,,,,,,1,,,,,,,,,,,,,,,,,,,,,,,,,,,,,,,,,,,,,12,asesinato,,,,,410.5301,412.0037,1,1,0.9468,,0,79,79,11,1,REAL,FAKE,,,,,,,,,,,,,,,,,
,,,,,,,,,60cbabd69ddfb4d7243a1e38,Spanish,13 or older,"no, only English or Spanish",no,2025-07-24_09h49.39.931,empathy_intonation_perc_control,2024.2.4,Win32,59.88023952,60cbabd69ddfb4d7243a1e38,68817205a84113384fffdfe3,688239eb4a44cb1be9057769,,,,,,,,,,,,,1,,,,,,,,,,,,,,,,,,,,,,,,,,,,,,,,,,,,,85,laúd,,,,,412.0054,413.2538,1,1,0.7149,,0,80,80,84,1,REAL,FAKE,,,,,,,,,,,,,,,,,
,,,,,,,,,60cbabd69ddfb4d7243a1e38,Spanish,13 or older,"no, only English or Spanish",no,2025-07-24_09h49.39.931,empathy_intonation_perc_control,2024.2.4,Win32,59.88023952,60cbabd69ddfb4d7243a1e38,68817205a84113384fffdfe3,688239eb4a44cb1be9057769,,,,,,,,,,,,,0,,,,,,,,,,,,,,,,,,,,,,,,,,,,,,,,,,,,,82,empirador,,,,,413.255,414.5873,0,1,0.7975,,0,81,81,81,1,REAL,FAKE,,,,,,,,,,,,,,,,,
,,,,,,,,,60cbabd69ddfb4d7243a1e38,Spanish,13 or older,"no, only English or Spanish",no,2025-07-24_09h49.39.931,empathy_intonation_perc_control,2024.2.4,Win32,59.88023952,60cbabd69ddfb4d7243a1e38,68817205a84113384fffdfe3,688239eb4a44cb1be9057769,,,,,,,,,,,,,0,,,,,,,,,,,,,,,,,,,,,,,,,,,,,,,,,,,,,17,floroso,,,,,414.5883,415.9169,1,0,0.7923,,0,82,82,16,1,REAL,FAKE,,,,,,,,,,,,,,,,,
,,,,,,,,,60cbabd69ddfb4d7243a1e38,Spanish,13 or older,"no, only English or Spanish",no,2025-07-24_09h49.39.931,empathy_intonation_perc_control,2024.2.4,Win32,59.88023952,60cbabd69ddfb4d7243a1e38,68817205a84113384fffdfe3,688239eb4a44cb1be9057769,,,,,,,,,,,,,0,,,,,,,,,,,,,,,,,,,,,,,,,,,,,,,,,,,,,4,batillón,,,,,415.9177,417.2505,0,1,0.7949,,0,83,83,3,1,REAL,FAKE,,,,,,,,,,,,,,,,,
,,,,,,,,,60cbabd69ddfb4d7243a1e38,Spanish,13 or older,"no, only English or Spanish",no,2025-07-24_09h49.39.931,empathy_intonation_perc_control,2024.2.4,Win32,59.88023952,60cbabd69ddfb4d7243a1e38,68817205a84113384fffdfe3,688239eb4a44cb1be9057769,,,,,,,,,,,,,0,,,,,,,,,,,,,,,,,,,,,,,,,,,,,,,,,,,,,84,escuto,,,,,417.2512,418.6238,0,1,0.8349,,0,84,84,83,1,REAL,FAKE,,,,,,,,,,,,,,,,,
,,,,,,,,,60cbabd69ddfb4d7243a1e38,Spanish,13 or older,"no, only English or Spanish",no,2025-07-24_09h49.39.931,empathy_intonation_perc_control,2024.2.4,Win32,59.88023952,60cbabd69ddfb4d7243a1e38,68817205a84113384fffdfe3,688239eb4a44cb1be9057769,,,,,,,,,,,,,0,,,,,,,,,,,,,,,,,,,,,,,,,,,,,,,,,,,,,10,antar,,,,,418.6243,419.852,0,1,0.7118,,0,85,85,9,1,REAL,FAKE,,,,,,,,,,,,,,,,,
,,,,,,,,,60cbabd69ddfb4d7243a1e38,Spanish,13 or older,"no, only English or Spanish",no,2025-07-24_09h49.39.931,empathy_intonation_perc_control,2024.2.4,Win32,59.88023952,60cbabd69ddfb4d7243a1e38,68817205a84113384fffdfe3,688239eb4a44cb1be9057769,,,,,,,,,,,,,1,,,,,,,,,,,,,,,,,,,,,,,,,,,,,,,,,,,,,22,lacayo,,,,,419.8526,421.1778,0,0,0.7876,,0,86,86,21,1,REAL,FAKE,,,,,,,,,,,,,,,,,
,,,,,,,,,60cbabd69ddfb4d7243a1e38,Spanish,13 or older,"no, only English or Spanish",no,2025-07-24_09h49.39.931,empathy_intonation_perc_control,2024.2.4,Win32,59.88023952,60cbabd69ddfb4d7243a1e38,68817205a84113384fffdfe3,688239eb4a44cb1be9057769,,,,,,,,,,,,,1,,,,,,,,,,,,,,,,,,,,,,,,,,,,,,,,,,,,,40,alfombra,,,,,421.1788,422.5383,1,1,0.8316,,0,87,87,39,1,REAL,FAKE,,,,,,,,,,,,,,,,,
,,,,,,,,,60cbabd69ddfb4d7243a1e38,Spanish,13 or older,"no, only English or Spanish",no,2025-07-24_09h49.39.931,empathy_intonation_perc_control,2024.2.4,Win32,59.88023952,60cbabd69ddfb4d7243a1e38,68817205a84113384fffdfe3,688239eb4a44cb1be9057769,,,,,,,,,,,,,1,,,,,,,,,,,,,,,,,,,,,,,,,,,,,,,,,,,,,26,secuestro,,,,,422.5394,423.7698,1,1,0.696,,0,88,88,25,1,REAL,FAKE,,,,,,,,,,,,,,,,,
,,,,,,,,,60cbabd69ddfb4d7243a1e38,Spanish,13 or older,"no, only English or Spanish",no,2025-07-24_09h49.39.931,empathy_intonation_perc_control,2024.2.4,Win32,59.88023952,60cbabd69ddfb4d7243a1e38,68817205a84113384fffdfe3,688239eb4a44cb1be9057769,,,,,,,,,,,,,1,,,,,,,,,,,,,,,,,,,,,,,,,,,,,,,,,,,,,88,acantilado,,,,,423.7703,425.0458,0,0,0.7379,,0,89,89,87,1,REAL,FAKE,,,,,,,,,,,,,,,,,
,,,,,,,,,60cbabd69ddfb4d7243a1e38,Spanish,13 or older,"no, only English or Spanish",no,2025-07-24_09h49.39.931,empathy_intonation_perc_control,2024.2.4,Win32,59.88023952,60cbabd69ddfb4d7243a1e38,68817205a84113384fffdfe3,688239eb4a44cb1be9057769,,,,,,,,,,,,,0,,,,,,,,,,,,,,,,,,,,,,,,,,,,,,,,,,,,,50,flamida,,,,,425.047,426.5207,1,0,0.947,,0,90,90,49,1,REAL,FAKE,,,,,,,,,,,,,,,,,
,,,,,,,,,60cbabd69ddfb4d7243a1e38,Spanish,13 or older,"no, only English or Spanish",no,2025-07-24_09h49.39.931,empathy_intonation_perc_control,2024.2.4,Win32,59.88023952,60cbabd69ddfb4d7243a1e38,68817205a84113384fffdfe3,688239eb4a44cb1be9057769,,,,,,,,,,,,,1,,,,,,,,,,,,,,,,,,,,,,,,,,,,,,,,,,,,,6,tergiversar,,,,,426.5218,427.755,0,0,0.6965,,0,91,91,5,1,REAL,FAKE,,,,,,,,,,,,,,,,,
,,,,,,,,,60cbabd69ddfb4d7243a1e38,Spanish,13 or older,"no, only English or Spanish",no,2025-07-24_09h49.39.931,empathy_intonation_perc_control,2024.2.4,Win32,59.88023952,60cbabd69ddfb4d7243a1e38,68817205a84113384fffdfe3,688239eb4a44cb1be9057769,,,,,,,,,,,,,,,,,,,,,,,,,,,,,,,,,,,,,,,,,,,,,,,,,,,,,,,,,,,,,,,,,,,,,427.7554,436.286,,,,,,,,,,,,,,,
,,,,,,,,,60cbabd69ddfb4d7243a1e38,Spanish,13 or older,"no, only English or Spanish",no,2025-07-24_09h49.39.931,empathy_intonation_perc_control,2024.2.4,Win32,59.88023952,60cbabd69ddfb4d7243a1e38,68817205a84113384fffdfe3,688239eb4a44cb1be9057769,,,,,,,,,,,,,,,,,,,,,,,,,,,1,,,,,,,,,,,,,,,,,,,,,,,,,,,,,,,,,,,,,,,,,,,,436.3117,444.6302,strongly disagree,0,0,0,0,1,I can easily tell if someone else wants to enter a conversation.,1,0,1,0,,
,,,,,,,,,60cbabd69ddfb4d7243a1e38,Spanish,13 or older,"no, only English or Spanish",no,2025-07-24_09h49.39.931,empathy_intonation_perc_control,2024.2.4,Win32,59.88023952,60cbabd69ddfb4d7243a1e38,68817205a84113384fffdfe3,688239eb4a44cb1be9057769,,,,,,,,,,,,,,,,,,,,,,,,,,,2,,,,,,,,,,,,,,,,,,,,,,,,,,,,,,,,,,,,,,,,,,,,444.6333,448.6562,slightly agree,0,1,1,1,1,I prefer animals to humans.,0,1,0,0,,
,,,,,,,,,60cbabd69ddfb4d7243a1e38,Spanish,13 or older,"no, only English or Spanish",no,2025-07-24_09h49.39.931,empathy_intonation_perc_control,2024.2.4,Win32,59.88023952,60cbabd69ddfb4d7243a1e38,68817205a84113384fffdfe3,688239eb4a44cb1be9057769,,,,,,,,,,,,,,,,,,,,,,,,,,,3,,,,,,,,,,,,,,,,,,,,,,,,,,,,,,,,,,,,,,,,,,,,448.6586,454.1271,slightly agree,0,2,2,2,1,I try to keep up with the current trends and fashions.,0,1,0,0,,
,,,,,,,,,60cbabd69ddfb4d7243a1e38,Spanish,13 or older,"no, only English or Spanish",no,2025-07-24_09h49.39.931,empathy_intonation_perc_control,2024.2.4,Win32,59.88023952,60cbabd69ddfb4d7243a1e38,68817205a84113384fffdfe3,688239eb4a44cb1be9057769,,,,,,,,,,,,,,,,,,,,,,,,,,,4,,,,,,,,,,,,,,,,,,,,,,,,,,,,,,,,,,,,,,,,,,,,454.13,459.6793,slightly disagree,0,3,3,3,1,"I find it difficult to explain to others things that I understand easily,   when they don't understand it first time.",1,0,0,1,,
,,,,,,,,,60cbabd69ddfb4d7243a1e38,Spanish,13 or older,"no, only English or Spanish",no,2025-07-24_09h49.39.931,empathy_intonation_perc_control,2024.2.4,Win32,59.88023952,60cbabd69ddfb4d7243a1e38,68817205a84113384fffdfe3,688239eb4a44cb1be9057769,,,,,,,,,,,,,,,,,,,,,,,,,,,5,,,,,,,,,,,,,,,,,,,,,,,,,,,,,,,,,,,,,,,,,,,,459.6812,462.4118,slightly agree,0,4,4,4,1,I dream most nights.,0,1,0,0,,
,,,,,,,,,60cbabd69ddfb4d7243a1e38,Spanish,13 or older,"no, only English or Spanish",no,2025-07-24_09h49.39.931,empathy_intonation_perc_control,2024.2.4,Win32,59.88023952,60cbabd69ddfb4d7243a1e38,68817205a84113384fffdfe3,688239eb4a44cb1be9057769,,,,,,,,,,,,,,,,,,,,,,,,,,,6,,,,,,,,,,,,,,,,,,,,,,,,,,,,,,,,,,,,,,,,,,,,462.4138,464.6422,slightly agree,0,5,5,5,1,I really enjoy caring for other people.,1,0,1,0,,
,,,,,,,,,60cbabd69ddfb4d7243a1e38,Spanish,13 or older,"no, only English or Spanish",no,2025-07-24_09h49.39.931,empathy_intonation_perc_control,2024.2.4,Win32,59.88023952,60cbabd69ddfb4d7243a1e38,68817205a84113384fffdfe3,688239eb4a44cb1be9057769,,,,,,,,,,,,,,,,,,,,,,,,,,,7,,,,,,,,,,,,,,,,,,,,,,,,,,,,,,,,,,,,,,,,,,,,464.6444,468.4308,slightly agree,0,6,6,6,1,I try to solve my own problems rather than discussing them with others.,0,1,0,0,,
,,,,,,,,,60cbabd69ddfb4d7243a1e38,Spanish,13 or older,"no, only English or Spanish",no,2025-07-24_09h49.39.931,empathy_intonation_perc_control,2024.2.4,Win32,59.88023952,60cbabd69ddfb4d7243a1e38,68817205a84113384fffdfe3,688239eb4a44cb1be9057769,,,,,,,,,,,,,,,,,,,,,,,,,,,8,,,,,,,,,,,,,,,,,,,,,,,,,,,,,,,,,,,,,,,,,,,,468.4327,472.0794,strongly disagree,0,7,7,7,1,I find it hard to know what to do in a social situation.,1,0,0,1,,
,,,,,,,,,60cbabd69ddfb4d7243a1e38,Spanish,13 or older,"no, only English or Spanish",no,2025-07-24_09h49.39.931,empathy_intonation_perc_control,2024.2.4,Win32,59.88023952,60cbabd69ddfb4d7243a1e38,68817205a84113384fffdfe3,688239eb4a44cb1be9057769,,,,,,,,,,,,,,,,,,,,,,,,,,,9,,,,,,,,,,,,,,,,,,,,,,,,,,,,,,,,,,,,,,,,,,,,472.081,474.9082,slightly disagree,0,8,8,8,1,I am at my best first thing in the morning.,0,1,0,0,,
,,,,,,,,,60cbabd69ddfb4d7243a1e38,Spanish,13 or older,"no, only English or Spanish",no,2025-07-24_09h49.39.931,empathy_intonation_perc_control,2024.2.4,Win32,59.88023952,60cbabd69ddfb4d7243a1e38,68817205a84113384fffdfe3,688239eb4a44cb1be9057769,,,,,,,,,,,,,,,,,,,,,,,,,,,10,,,,,,,,,,,,,,,,,,,,,,,,,,,,,,,,,,,,,,,,,,,,474.9105,478.0653,slightly disagree,0,9,9,9,1,People often tell me that I went too far in driving my point home in a discussion.,1,0,0,1,,
,,,,,,,,,60cbabd69ddfb4d7243a1e38,Spanish,13 or older,"no, only English or Spanish",no,2025-07-24_09h49.39.931,empathy_intonation_perc_control,2024.2.4,Win32,59.88023952,60cbabd69ddfb4d7243a1e38,68817205a84113384fffdfe3,688239eb4a44cb1be9057769,,,,,,,,,,,,,,,,,,,,,,,,,,,11,,,,,,,,,,,,,,,,,,,,,,,,,,,,,,,,,,,,,,,,,,,,478.0667,483.4121,strongly disagree,0,10,10,10,1,It doesn't bother me too much if I am late meeting a friend.,1,0,0,1,,
,,,,,,,,,60cbabd69ddfb4d7243a1e38,Spanish,13 or older,"no, only English or Spanish",no,2025-07-24_09h49.39.931,empathy_intonation_perc_control,2024.2.4,Win32,59.88023952,60cbabd69ddfb4d7243a1e38,68817205a84113384fffdfe3,688239eb4a44cb1be9057769,,,,,,,,,,,,,,,,,,,,,,,,,,,12,,,,,,,,,,,,,,,,,,,,,,,,,,,,,,,,,,,,,,,,,,,,483.4145,486.6759,strongly disagree,0,11,11,11,1,"Friendships and relationships are just too difficult, so I tend not to 
  bother with them.",1,0,0,1,,
,,,,,,,,,60cbabd69ddfb4d7243a1e38,Spanish,13 or older,"no, only English or Spanish",no,2025-07-24_09h49.39.931,empathy_intonation_perc_control,2024.2.4,Win32,59.88023952,60cbabd69ddfb4d7243a1e38,68817205a84113384fffdfe3,688239eb4a44cb1be9057769,,,,,,,,,,,,,,,,,,,,,,,,,,,13,,,,,,,,,,,,,,,,,,,,,,,,,,,,,,,,,,,,,,,,,,,,486.6775,490.1129,slightly agree,0,12,12,12,1,"I would never break a law, no matter how minor.",0,1,0,0,,
,,,,,,,,,60cbabd69ddfb4d7243a1e38,Spanish,13 or older,"no, only English or Spanish",no,2025-07-24_09h49.39.931,empathy_intonation_perc_control,2024.2.4,Win32,59.88023952,60cbabd69ddfb4d7243a1e38,68817205a84113384fffdfe3,688239eb4a44cb1be9057769,,,,,,,,,,,,,,,,,,,,,,,,,,,14,,,,,,,,,,,,,,,,,,,,,,,,,,,,,,,,,,,,,,,,,,,,490.1138,495.2382,strongly disagree,0,13,13,13,1,I often find it difficult to judge if something is rude or polite.,1,0,0,1,,
,,,,,,,,,60cbabd69ddfb4d7243a1e38,Spanish,13 or older,"no, only English or Spanish",no,2025-07-24_09h49.39.931,empathy_intonation_perc_control,2024.2.4,Win32,59.88023952,60cbabd69ddfb4d7243a1e38,68817205a84113384fffdfe3,688239eb4a44cb1be9057769,,,,,,,,,,,,,,,,,,,,,,,,,,,15,,,,,,,,,,,,,,,,,,,,,,,,,,,,,,,,,,,,,,,,,,,,495.2407,499.4955,strongly disagree,0,14,14,14,1,"In a conversation, I tend to focus on my own thoughts rather than on what 
  my listener might be thinking.",1,0,0,1,,
,,,,,,,,,60cbabd69ddfb4d7243a1e38,Spanish,13 or older,"no, only English or Spanish",no,2025-07-24_09h49.39.931,empathy_intonation_perc_control,2024.2.4,Win32,59.88023952,60cbabd69ddfb4d7243a1e38,68817205a84113384fffdfe3,688239eb4a44cb1be9057769,,,,,,,,,,,,,,,,,,,,,,,,,,,16,,,,,,,,,,,,,,,,,,,,,,,,,,,,,,,,,,,,,,,,,,,,499.4973,504.3943,slightly disagree,0,15,15,15,1,I prefer practical jokes to verbal humor.,0,1,0,0,,
,,,,,,,,,60cbabd69ddfb4d7243a1e38,Spanish,13 or older,"no, only English or Spanish",no,2025-07-24_09h49.39.931,empathy_intonation_perc_control,2024.2.4,Win32,59.88023952,60cbabd69ddfb4d7243a1e38,68817205a84113384fffdfe3,688239eb4a44cb1be9057769,,,,,,,,,,,,,,,,,,,,,,,,,,,17,,,,,,,,,,,,,,,,,,,,,,,,,,,,,,,,,,,,,,,,,,,,504.396,506.9315,slightly agree,0,16,16,16,1,I live life for today rather than the future.,0,1,0,0,,
,,,,,,,,,60cbabd69ddfb4d7243a1e38,Spanish,13 or older,"no, only English or Spanish",no,2025-07-24_09h49.39.931,empathy_intonation_perc_control,2024.2.4,Win32,59.88023952,60cbabd69ddfb4d7243a1e38,68817205a84113384fffdfe3,688239eb4a44cb1be9057769,,,,,,,,,,,,,,,,,,,,,,,,,,,18,,,,,,,,,,,,,,,,,,,,,,,,,,,,,,,,,,,,,,,,,,,,506.9326,510.5871,strongly disagree,0,17,17,17,1,"When I was a child, I enjoyed cutting up worms to see what would happen.",1,0,0,1,,
,,,,,,,,,60cbabd69ddfb4d7243a1e38,Spanish,13 or older,"no, only English or Spanish",no,2025-07-24_09h49.39.931,empathy_intonation_perc_control,2024.2.4,Win32,59.88023952,60cbabd69ddfb4d7243a1e38,68817205a84113384fffdfe3,688239eb4a44cb1be9057769,,,,,,,,,,,,,,,,,,,,,,,,,,,19,,,,,,,,,,,,,,,,,,,,,,,,,,,,,,,,,,,,,,,,,,,,510.589,516.0835,slightly agree,0,18,18,18,1,I can pick up quickly if someone says one thing but means another.,1,0,1,0,,
,,,,,,,,,60cbabd69ddfb4d7243a1e38,Spanish,13 or older,"no, only English or Spanish",no,2025-07-24_09h49.39.931,empathy_intonation_perc_control,2024.2.4,Win32,59.88023952,60cbabd69ddfb4d7243a1e38,68817205a84113384fffdfe3,688239eb4a44cb1be9057769,,,,,,,,,,,,,,,,,,,,,,,,,,,20,,,,,,,,,,,,,,,,,,,,,,,,,,,,,,,,,,,,,,,,,,,,516.085,519.3951,slightly agree,0,19,19,19,1,I tend to have very strong opinions about morality.,0,1,0,0,,
,,,,,,,,,60cbabd69ddfb4d7243a1e38,Spanish,13 or older,"no, only English or Spanish",no,2025-07-24_09h49.39.931,empathy_intonation_perc_control,2024.2.4,Win32,59.88023952,60cbabd69ddfb4d7243a1e38,68817205a84113384fffdfe3,688239eb4a44cb1be9057769,,,,,,,,,,,,,,,,,,,,,,,,,,,21,,,,,,,,,,,,,,,,,,,,,,,,,,,,,,,,,,,,,,,,,,,,519.3972,522.9307,strongly disagree,0,20,20,20,1,It is hard for me to see why some things upset people so much.,1,0,0,1,,
,,,,,,,,,60cbabd69ddfb4d7243a1e38,Spanish,13 or older,"no, only English or Spanish",no,2025-07-24_09h49.39.931,empathy_intonation_perc_control,2024.2.4,Win32,59.88023952,60cbabd69ddfb4d7243a1e38,68817205a84113384fffdfe3,688239eb4a44cb1be9057769,,,,,,,,,,,,,,,,,,,,,,,,,,,22,,,,,,,,,,,,,,,,,,,,,,,,,,,,,,,,,,,,,,,,,,,,522.9323,525.9781,slightly agree,0,21,21,21,1,I find it easy to put myself in somebody else's shoes.,1,0,1,0,,
,,,,,,,,,60cbabd69ddfb4d7243a1e38,Spanish,13 or older,"no, only English or Spanish",no,2025-07-24_09h49.39.931,empathy_intonation_perc_control,2024.2.4,Win32,59.88023952,60cbabd69ddfb4d7243a1e38,68817205a84113384fffdfe3,688239eb4a44cb1be9057769,,,,,,,,,,,,,,,,,,,,,,,,,,,23,,,,,,,,,,,,,,,,,,,,,,,,,,,,,,,,,,,,,,,,,,,,525.979,528.5665,slightly agree,0,22,22,22,1,I think that good manners are the most important thing a parent can teach their child.,0,1,0,0,,
,,,,,,,,,60cbabd69ddfb4d7243a1e38,Spanish,13 or older,"no, only English or Spanish",no,2025-07-24_09h49.39.931,empathy_intonation_perc_control,2024.2.4,Win32,59.88023952,60cbabd69ddfb4d7243a1e38,68817205a84113384fffdfe3,688239eb4a44cb1be9057769,,,,,,,,,,,,,,,,,,,,,,,,,,,24,,,,,,,,,,,,,,,,,,,,,,,,,,,,,,,,,,,,,,,,,,,,528.5682,531.6297,slightly agree,0,23,23,23,1,I like to do things on the spur of the moment.,0,1,0,0,,
,,,,,,,,,60cbabd69ddfb4d7243a1e38,Spanish,13 or older,"no, only English or Spanish",no,2025-07-24_09h49.39.931,empathy_intonation_perc_control,2024.2.4,Win32,59.88023952,60cbabd69ddfb4d7243a1e38,68817205a84113384fffdfe3,688239eb4a44cb1be9057769,,,,,,,,,,,,,,,,,,,,,,,,,,,25,,,,,,,,,,,,,,,,,,,,,,,,,,,,,,,,,,,,,,,,,,,,531.6314,533.596,slightly agree,0,24,24,24,1,I am good at predicting how someone will feel.,1,0,1,0,,
