instructions_2afc.started,instructions_2afc.stopped,instructions_2afc_loop.thisRepN,instructions_2afc_loop.thisTrialN,instructions_2afc_loop.thisN,instructions_2afc_loop.thisIndex,instructions_2afc_loop.ran,instructions_text,continue_text,participant_id,"What variety of Spanish are you most familiar with? (e.g., Peruvian, Spanish, Mexican)",At what age did you begin learning Spanish?,Are you proficient in any languages other than English/Spanish?,"Are you familiar with Caribbean (e.g., Caribbean, Puerto Rican) or Galician Spanish?",date,expName,psychopyVersion,OS,frameRate,id,study_id,session,practice_2afc.started,practice_2afc.stopped,key_resp_2afc_practice.keys,key_resp_2afc_practice.corr,key_resp_2afc_practice.rt,key_resp_2afc_practice.duration,trials_2afc_practice_loop.thisRepN,trials_2afc_practice_loop.thisTrialN,trials_2afc_practice_loop.thisN,trials_2afc_practice_loop.thisIndex,trials_2afc_practice_loop.ran,path,correct_response,check_2afc.started,check_2afc.stopped,trial_2afc.started,trial_2afc.stopped,key_resp_2afc_trial.keys,key_resp_2afc_trial.corr,key_resp_2afc_trial.rt,key_resp_2afc_trial.duration,trials_2afc_loop.thisRepN,trials_2afc_loop.thisTrialN,trials_2afc_loop.thisN,trials_2afc_loop.thisIndex,trials_2afc_loop.ran,item_num,target,variety,instructions_lextale.started,instructions_lextale.stopped,instructions_lextale_loop.thisRepN,instructions_lextale_loop.thisTrialN,instructions_lextale_loop.thisN,instructions_lextale_loop.thisIndex,instructions_lextale_loop.ran,practice_lextale.started,practice_lextale.stopped,key_resp_lextale_practice.keys,key_resp_lextale_practice.corr,key_resp_lextale_practice.rt,key_resp_lextale_practice.duration,practice_feedback_lextale.started,practice_feedback_lextale.stopped,trials_lextale_practice_loop.thisRepN,trials_lextale_practice_loop.thisTrialN,trials_lextale_practice_loop.thisN,trials_lextale_practice_loop.thisIndex,trials_lextale_practice_loop.ran,stim,word,prac_button_real,prac_button_false,check_lextale.started,check_lextale.stopped,trial_lextale.started,trial_lextale.stopped,key_resp_lextale_trial.keys,key_resp_lextale_trial.corr,key_resp_lextale_trial.rt,key_resp_lextale_trial.duration,trials_lextale_loop.thisRepN,trials_lextale_loop.thisTrialN,trials_lextale_loop.thisN,trials_lextale_loop.thisIndex,trials_lextale_loop.ran,button_real,button_false,instructions_eq.started,instructions_eq.stopped,trial_eq.started,trial_eq.stopped,slider_eq_trial.response,trials_eq_loop.thisRepN,trials_eq_loop.thisTrialN,trials_eq_loop.thisN,trials_eq_loop.thisIndex,trials_eq_loop.ran,item,is_test_item,is_distractor,is_agree_score,is_disagree_score,end_exp.started,end_exp.stopped
0.0096,37.8972,0,0,0,0,1,"In the following task you are going to hear a series of utterances. 

  You will decide if the utterances sound like questions or not using your keyboard.", (press the spacebar to continue),60f5d5e358c70ad7a534bc50,Spanish,13 or older,"no, only English or Spanish",no,2025-07-24_11h15.52.728,empathy_intonation_perc_control,2024.2.4,MacIntel,59.88023952,60f5d5e358c70ad7a534bc50,68817205a84113384fffdfe3,68824dfe748df164f818dc44,,,,,,,,,,,,,,,,,,,,,,,,,,,,,,,,,,,,,,,,,,,,,,,,,,,,,,,,,,,,,,,,,,,,,,,,,,,,,,,,,,,,,
37.8995,43.4805,0,1,1,1,1,"If you believe the utterance is a question, type '1' (for 'yes') and if you do not 
  believe it is a question type '0' (for 'no').

  Let's practice a bit...", (press the spacebar to continue),60f5d5e358c70ad7a534bc50,Spanish,13 or older,"no, only English or Spanish",no,2025-07-24_11h15.52.728,empathy_intonation_perc_control,2024.2.4,MacIntel,59.88023952,60f5d5e358c70ad7a534bc50,68817205a84113384fffdfe3,68824dfe748df164f818dc44,,,,,,,,,,,,,,,,,,,,,,,,,,,,,,,,,,,,,,,,,,,,,,,,,,,,,,,,,,,,,,,,,,,,,,,,,,,,,,,,,,,,,
,,,,,,,,,60f5d5e358c70ad7a534bc50,Spanish,13 or older,"no, only English or Spanish",no,2025-07-24_11h15.52.728,empathy_intonation_perc_control,2024.2.4,MacIntel,59.88023952,60f5d5e358c70ad7a534bc50,68817205a84113384fffdfe3,68824dfe748df164f818dc44,43.4925,45.8643,0,1,1.8579,,0,0,0,4,1,./stim/wavs/cuban_statement_filler_Cocinabas-por-la-noche.wav,0,,,,,,,,,,,,,,,,,,,,,,,,,,,,,,,,,,,,,,,,,,,,,,,,,,,,,,,,,,,,,,,,,,,,,,,,
,,,,,,,,,60f5d5e358c70ad7a534bc50,Spanish,13 or older,"no, only English or Spanish",no,2025-07-24_11h15.52.728,empathy_intonation_perc_control,2024.2.4,MacIntel,59.88023952,60f5d5e358c70ad7a534bc50,68817205a84113384fffdfe3,68824dfe748df164f818dc44,45.8652,48.5977,0,1,2.2003,,0,1,1,6,1,./stim/wavs/peruvian_statement_filler_El-nino-habla-con-su-madre.wav,0,,,,,,,,,,,,,,,,,,,,,,,,,,,,,,,,,,,,,,,,,,,,,,,,,,,,,,,,,,,,,,,,,,,,,,,,
,,,,,,,,,60f5d5e358c70ad7a534bc50,Spanish,13 or older,"no, only English or Spanish",no,2025-07-24_11h15.52.728,empathy_intonation_perc_control,2024.2.4,MacIntel,59.88023952,60f5d5e358c70ad7a534bc50,68817205a84113384fffdfe3,68824dfe748df164f818dc44,48.5986,51.0143,1,1,1.8934,,0,2,2,0,1,./stim/wavs/castilian_question_filler_Mi-esposo-conoce-al-chico.wav,1,,,,,,,,,,,,,,,,,,,,,,,,,,,,,,,,,,,,,,,,,,,,,,,,,,,,,,,,,,,,,,,,,,,,,,,,
,,,,,,,,,60f5d5e358c70ad7a534bc50,Spanish,13 or older,"no, only English or Spanish",no,2025-07-24_11h15.52.728,empathy_intonation_perc_control,2024.2.4,MacIntel,59.88023952,60f5d5e358c70ad7a534bc50,68817205a84113384fffdfe3,68824dfe748df164f818dc44,51.0149,53.3809,1,1,1.8421,,0,3,3,1,1,./stim/wavs/argentine_question_filler_Mi-vecino-habla-mucho.wav,1,,,,,,,,,,,,,,,,,,,,,,,,,,,,,,,,,,,,,,,,,,,,,,,,,,,,,,,,,,,,,,,,,,,,,,,,
,,,,,,,,,60f5d5e358c70ad7a534bc50,Spanish,13 or older,"no, only English or Spanish",no,2025-07-24_11h15.52.728,empathy_intonation_perc_control,2024.2.4,MacIntel,59.88023952,60f5d5e358c70ad7a534bc50,68817205a84113384fffdfe3,68824dfe748df164f818dc44,53.3816,55.647,1,1,1.7396,,0,4,4,2,1,./stim/wavs/chilean_question_filler_Mi-padre-cantaba-bien.wav,1,,,,,,,,,,,,,,,,,,,,,,,,,,,,,,,,,,,,,,,,,,,,,,,,,,,,,,,,,,,,,,,,,,,,,,,,
,,,,,,,,,60f5d5e358c70ad7a534bc50,Spanish,13 or older,"no, only English or Spanish",no,2025-07-24_11h15.52.728,empathy_intonation_perc_control,2024.2.4,MacIntel,59.88023952,60f5d5e358c70ad7a534bc50,68817205a84113384fffdfe3,68824dfe748df164f818dc44,55.6474,57.9641,0,1,1.7992,,0,5,5,7,1,./stim/wavs/puertorican_statement_filler_La-nina-pinta-con-su-amiga.wav,0,,,,,,,,,,,,,,,,,,,,,,,,,,,,,,,,,,,,,,,,,,,,,,,,,,,,,,,,,,,,,,,,,,,,,,,,
,,,,,,,,,60f5d5e358c70ad7a534bc50,Spanish,13 or older,"no, only English or Spanish",no,2025-07-24_11h15.52.728,empathy_intonation_perc_control,2024.2.4,MacIntel,59.88023952,60f5d5e358c70ad7a534bc50,68817205a84113384fffdfe3,68824dfe748df164f818dc44,57.9643,60.3148,0,0,1.819,,0,6,6,3,1,./stim/wavs/mexican_question_filler_Felipe-no-tiene-contrasena.wav,1,,,,,,,,,,,,,,,,,,,,,,,,,,,,,,,,,,,,,,,,,,,,,,,,,,,,,,,,,,,,,,,,,,,,,,,,
,,,,,,,,,60f5d5e358c70ad7a534bc50,Spanish,13 or older,"no, only English or Spanish",no,2025-07-24_11h15.52.728,empathy_intonation_perc_control,2024.2.4,MacIntel,59.88023952,60f5d5e358c70ad7a534bc50,68817205a84113384fffdfe3,68824dfe748df164f818dc44,60.3155,62.631,0,1,1.7917,,0,7,7,5,1,./stim/wavs/andalusian_statement_filler_Alberto-nunca-se-afeita.wav,0,,,,,,,,,,,,,,,,,,,,,,,,,,,,,,,,,,,,,,,,,,,,,,,,,,,,,,,,,,,,,,,,,,,,,,,,
,,,,,,,,,60f5d5e358c70ad7a534bc50,Spanish,13 or older,"no, only English or Spanish",no,2025-07-24_11h15.52.728,empathy_intonation_perc_control,2024.2.4,MacIntel,59.88023952,60f5d5e358c70ad7a534bc50,68817205a84113384fffdfe3,68824dfe748df164f818dc44,,,,,,,,,,,,,,62.6313,66.2319,,,,,,,,,,,,,,,,,,,,,,,,,,,,,,,,,,,,,,,,,,,,,,,,,,,,,,,,,,,,,,,,,,,,,,
,,,,,,,,,60f5d5e358c70ad7a534bc50,Spanish,13 or older,"no, only English or Spanish",no,2025-07-24_11h15.52.728,empathy_intonation_perc_control,2024.2.4,MacIntel,59.88023952,60f5d5e358c70ad7a534bc50,68817205a84113384fffdfe3,68824dfe748df164f818dc44,,,,,,,,,,,,./stim/wavs/cuban_mismatch_interrogative-total-yn_El-nino-oye-el-rio.wav,1,,,66.2401,68.3488,0,0,1.5857,,0,0,0,30,1,31,1,cuban,,,,,,,,,,,,,,,,,,,,,,,,,,,,,,,,,,,,,,,,,,,,,,,,,,,,,,,,
,,,,,,,,,60f5d5e358c70ad7a534bc50,Spanish,13 or older,"no, only English or Spanish",no,2025-07-24_11h15.52.728,empathy_intonation_perc_control,2024.2.4,MacIntel,59.88023952,60f5d5e358c70ad7a534bc50,68817205a84113384fffdfe3,68824dfe748df164f818dc44,,,,,,,,,,,,./stim/wavs/puertorican_match_interrogative-total-yn_Ana-lleva-el-abrigo.wav,1,,,68.3496,70.6819,1,1,1.8013,,0,1,1,18,1,19,1,puertorican,,,,,,,,,,,,,,,,,,,,,,,,,,,,,,,,,,,,,,,,,,,,,,,,,,,,,,,,
,,,,,,,,,60f5d5e358c70ad7a534bc50,Spanish,13 or older,"no, only English or Spanish",no,2025-07-24_11h15.52.728,empathy_intonation_perc_control,2024.2.4,MacIntel,59.88023952,60f5d5e358c70ad7a534bc50,68817205a84113384fffdfe3,68824dfe748df164f818dc44,,,,,,,,,,,,./stim/wavs/cuban_match_declarative-broad-focus_Maria-bebe-el-vino.wav,0,,,70.6827,72.7821,0,1,1.568,,0,2,2,53,1,54,0,cuban,,,,,,,,,,,,,,,,,,,,,,,,,,,,,,,,,,,,,,,,,,,,,,,,,,,,,,,,
,,,,,,,,,60f5d5e358c70ad7a534bc50,Spanish,13 or older,"no, only English or Spanish",no,2025-07-24_11h15.52.728,empathy_intonation_perc_control,2024.2.4,MacIntel,59.88023952,60f5d5e358c70ad7a534bc50,68817205a84113384fffdfe3,68824dfe748df164f818dc44,,,,,,,,,,,,./stim/wavs/cuban_match_interrogative-total-yn_Maria-bebe-el-vino.wav,1,,,72.7829,74.9487,0,0,1.6342,,0,3,3,9,1,10,1,cuban,,,,,,,,,,,,,,,,,,,,,,,,,,,,,,,,,,,,,,,,,,,,,,,,,,,,,,,,
,,,,,,,,,60f5d5e358c70ad7a534bc50,Spanish,13 or older,"no, only English or Spanish",no,2025-07-24_11h15.52.728,empathy_intonation_perc_control,2024.2.4,MacIntel,59.88023952,60f5d5e358c70ad7a534bc50,68817205a84113384fffdfe3,68824dfe748df164f818dc44,,,,,,,,,,,,./stim/wavs/mexican_match_interrogative-total-yn_Ana-lleva-el-abrigo.wav,1,,,74.9493,77.3986,1,1,1.9166,,0,4,4,12,1,13,0,mexican,,,,,,,,,,,,,,,,,,,,,,,,,,,,,,,,,,,,,,,,,,,,,,,,,,,,,,,,
,,,,,,,,,60f5d5e358c70ad7a534bc50,Spanish,13 or older,"no, only English or Spanish",no,2025-07-24_11h15.52.728,empathy_intonation_perc_control,2024.2.4,MacIntel,59.88023952,60f5d5e358c70ad7a534bc50,68817205a84113384fffdfe3,68824dfe748df164f818dc44,,,,,,,,,,,,./stim/wavs/puertorican_match_declarative-broad-focus_Manuela-vende-el-carro.wav,0,,,77.3993,79.6987,0,1,1.7683,,0,5,5,66,1,67,0,puertorican,,,,,,,,,,,,,,,,,,,,,,,,,,,,,,,,,,,,,,,,,,,,,,,,,,,,,,,,
,,,,,,,,,60f5d5e358c70ad7a534bc50,Spanish,13 or older,"no, only English or Spanish",no,2025-07-24_11h15.52.728,empathy_intonation_perc_control,2024.2.4,MacIntel,59.88023952,60f5d5e358c70ad7a534bc50,68817205a84113384fffdfe3,68824dfe748df164f818dc44,,,,,,,,,,,,./stim/wavs/cuban_match_interrogative-total-yn_Daniel-iba-a-Bolivia.wav,1,,,79.6995,82.199,0,0,1.9762,,0,6,6,7,1,8,1,cuban,,,,,,,,,,,,,,,,,,,,,,,,,,,,,,,,,,,,,,,,,,,,,,,,,,,,,,,,
,,,,,,,,,60f5d5e358c70ad7a534bc50,Spanish,13 or older,"no, only English or Spanish",no,2025-07-24_11h15.52.728,empathy_intonation_perc_control,2024.2.4,MacIntel,59.88023952,60f5d5e358c70ad7a534bc50,68817205a84113384fffdfe3,68824dfe748df164f818dc44,,,,,,,,,,,,./stim/wavs/puertorican_match_interrogative-total-yn_Maria-bebe-el-vino.wav,1,,,82.1995,84.6657,0,0,1.935,,0,7,7,23,1,24,1,puertorican,,,,,,,,,,,,,,,,,,,,,,,,,,,,,,,,,,,,,,,,,,,,,,,,,,,,,,,,
,,,,,,,,,60f5d5e358c70ad7a534bc50,Spanish,13 or older,"no, only English or Spanish",no,2025-07-24_11h15.52.728,empathy_intonation_perc_control,2024.2.4,MacIntel,59.88023952,60f5d5e358c70ad7a534bc50,68817205a84113384fffdfe3,68824dfe748df164f818dc44,,,,,,,,,,,,./stim/wavs/cuban_mismatch_interrogative-total-yn_El-hombre-mira-la-luna.wav,1,,,84.6663,86.7654,0,0,1.5742,,0,8,8,29,1,30,1,cuban,,,,,,,,,,,,,,,,,,,,,,,,,,,,,,,,,,,,,,,,,,,,,,,,,,,,,,,,
,,,,,,,,,60f5d5e358c70ad7a534bc50,Spanish,13 or older,"no, only English or Spanish",no,2025-07-24_11h15.52.728,empathy_intonation_perc_control,2024.2.4,MacIntel,59.88023952,60f5d5e358c70ad7a534bc50,68817205a84113384fffdfe3,68824dfe748df164f818dc44,,,,,,,,,,,,./stim/wavs/mexican_mismatch_declarative-broad-focus_El-hombre-mira-la-luna.wav,0,,,86.7657,88.9493,0,1,1.6688,,0,9,9,79,1,80,0,mexican,,,,,,,,,,,,,,,,,,,,,,,,,,,,,,,,,,,,,,,,,,,,,,,,,,,,,,,,
,,,,,,,,,60f5d5e358c70ad7a534bc50,Spanish,13 or older,"no, only English or Spanish",no,2025-07-24_11h15.52.728,empathy_intonation_perc_control,2024.2.4,MacIntel,59.88023952,60f5d5e358c70ad7a534bc50,68817205a84113384fffdfe3,68824dfe748df164f818dc44,,,,,,,,,,,,./stim/wavs/puertorican_mismatch_interrogative-total-yn_La-nina-lava-el-plato.wav,1,,,88.9499,91.549,1,1,2.0669,,0,10,10,42,1,43,1,puertorican,,,,,,,,,,,,,,,,,,,,,,,,,,,,,,,,,,,,,,,,,,,,,,,,,,,,,,,,
,,,,,,,,,60f5d5e358c70ad7a534bc50,Spanish,13 or older,"no, only English or Spanish",no,2025-07-24_11h15.52.728,empathy_intonation_perc_control,2024.2.4,MacIntel,59.88023952,60f5d5e358c70ad7a534bc50,68817205a84113384fffdfe3,68824dfe748df164f818dc44,,,,,,,,,,,,./stim/wavs/puertorican_mismatch_interrogative-total-yn_Mi-madre-come-la-fruta.wav,1,,,91.5494,93.7328,0,0,1.6505,,0,11,11,43,1,44,1,puertorican,,,,,,,,,,,,,,,,,,,,,,,,,,,,,,,,,,,,,,,,,,,,,,,,,,,,,,,,
,,,,,,,,,60f5d5e358c70ad7a534bc50,Spanish,13 or older,"no, only English or Spanish",no,2025-07-24_11h15.52.728,empathy_intonation_perc_control,2024.2.4,MacIntel,59.88023952,60f5d5e358c70ad7a534bc50,68817205a84113384fffdfe3,68824dfe748df164f818dc44,,,,,,,,,,,,./stim/wavs/puertorican_match_declarative-broad-focus_Daniel-iba-a-Bolivia.wav,0,,,93.7335,95.8328,0,1,1.5691,,0,12,12,63,1,64,0,puertorican,,,,,,,,,,,,,,,,,,,,,,,,,,,,,,,,,,,,,,,,,,,,,,,,,,,,,,,,
,,,,,,,,,60f5d5e358c70ad7a534bc50,Spanish,13 or older,"no, only English or Spanish",no,2025-07-24_11h15.52.728,empathy_intonation_perc_control,2024.2.4,MacIntel,59.88023952,60f5d5e358c70ad7a534bc50,68817205a84113384fffdfe3,68824dfe748df164f818dc44,,,,,,,,,,,,./stim/wavs/castilian_mismatch_declarative-broad-focus_Mi-novio-viene-del-lago.wav,0,,,95.8336,98.3164,0,1,1.9505,,0,13,13,71,1,72,0,castilian,,,,,,,,,,,,,,,,,,,,,,,,,,,,,,,,,,,,,,,,,,,,,,,,,,,,,,,,
,,,,,,,,,60f5d5e358c70ad7a534bc50,Spanish,13 or older,"no, only English or Spanish",no,2025-07-24_11h15.52.728,empathy_intonation_perc_control,2024.2.4,MacIntel,59.88023952,60f5d5e358c70ad7a534bc50,68817205a84113384fffdfe3,68824dfe748df164f818dc44,,,,,,,,,,,,./stim/wavs/cuban_match_interrogative-total-yn_Ana-lleva-el-abrigo.wav,1,,,98.3171,100.7663,0,0,1.9177,,0,14,14,6,1,7,1,cuban,,,,,,,,,,,,,,,,,,,,,,,,,,,,,,,,,,,,,,,,,,,,,,,,,,,,,,,,
,,,,,,,,,60f5d5e358c70ad7a534bc50,Spanish,13 or older,"no, only English or Spanish",no,2025-07-24_11h15.52.728,empathy_intonation_perc_control,2024.2.4,MacIntel,59.88023952,60f5d5e358c70ad7a534bc50,68817205a84113384fffdfe3,68824dfe748df164f818dc44,,,,,,,,,,,,./stim/wavs/cuban_match_declarative-broad-focus_Daniel-iba-a-Bolivia.wav,0,,,100.7669,103.6832,0,1,2.3827,,0,15,15,51,1,52,0,cuban,,,,,,,,,,,,,,,,,,,,,,,,,,,,,,,,,,,,,,,,,,,,,,,,,,,,,,,,
,,,,,,,,,60f5d5e358c70ad7a534bc50,Spanish,13 or older,"no, only English or Spanish",no,2025-07-24_11h15.52.728,empathy_intonation_perc_control,2024.2.4,MacIntel,59.88023952,60f5d5e358c70ad7a534bc50,68817205a84113384fffdfe3,68824dfe748df164f818dc44,,,,,,,,,,,,./stim/wavs/cuban_match_declarative-broad-focus_Marta-abre-el-regalo.wav,0,,,103.6839,105.8333,0,1,1.6172,,0,16,16,55,1,56,0,cuban,,,,,,,,,,,,,,,,,,,,,,,,,,,,,,,,,,,,,,,,,,,,,,,,,,,,,,,,
,,,,,,,,,60f5d5e358c70ad7a534bc50,Spanish,13 or older,"no, only English or Spanish",no,2025-07-24_11h15.52.728,empathy_intonation_perc_control,2024.2.4,MacIntel,59.88023952,60f5d5e358c70ad7a534bc50,68817205a84113384fffdfe3,68824dfe748df164f818dc44,,,,,,,,,,,,./stim/wavs/castilian_match_declarative-broad-focus_Emilio-ama-la-marcha.wav,0,,,105.8341,108.1833,0,1,1.8255,,0,17,17,45,1,46,0,castilian,,,,,,,,,,,,,,,,,,,,,,,,,,,,,,,,,,,,,,,,,,,,,,,,,,,,,,,,
,,,,,,,,,60f5d5e358c70ad7a534bc50,Spanish,13 or older,"no, only English or Spanish",no,2025-07-24_11h15.52.728,empathy_intonation_perc_control,2024.2.4,MacIntel,59.88023952,60f5d5e358c70ad7a534bc50,68817205a84113384fffdfe3,68824dfe748df164f818dc44,,,,,,,,,,,,./stim/wavs/puertorican_mismatch_declarative-broad-focus_La-maestra-vive-en-Paris.wav,0,,,108.1837,110.6659,0,1,1.9595,,0,18,18,86,1,87,0,puertorican,,,,,,,,,,,,,,,,,,,,,,,,,,,,,,,,,,,,,,,,,,,,,,,,,,,,,,,,
,,,,,,,,,60f5d5e358c70ad7a534bc50,Spanish,13 or older,"no, only English or Spanish",no,2025-07-24_11h15.52.728,empathy_intonation_perc_control,2024.2.4,MacIntel,59.88023952,60f5d5e358c70ad7a534bc50,68817205a84113384fffdfe3,68824dfe748df164f818dc44,,,,,,,,,,,,./stim/wavs/mexican_mismatch_declarative-broad-focus_La-maestra-vive-en-Paris.wav,0,,,110.6667,112.9502,0,1,1.7765,,0,19,19,80,1,81,0,mexican,,,,,,,,,,,,,,,,,,,,,,,,,,,,,,,,,,,,,,,,,,,,,,,,,,,,,,,,
,,,,,,,,,60f5d5e358c70ad7a534bc50,Spanish,13 or older,"no, only English or Spanish",no,2025-07-24_11h15.52.728,empathy_intonation_perc_control,2024.2.4,MacIntel,59.88023952,60f5d5e358c70ad7a534bc50,68817205a84113384fffdfe3,68824dfe748df164f818dc44,,,,,,,,,,,,./stim/wavs/mexican_match_declarative-broad-focus_Emilio-ama-la-marcha.wav,0,,,112.9507,115.3339,0,1,1.8605,,0,20,20,59,1,60,0,mexican,,,,,,,,,,,,,,,,,,,,,,,,,,,,,,,,,,,,,,,,,,,,,,,,,,,,,,,,
,,,,,,,,,60f5d5e358c70ad7a534bc50,Spanish,13 or older,"no, only English or Spanish",no,2025-07-24_11h15.52.728,empathy_intonation_perc_control,2024.2.4,MacIntel,59.88023952,60f5d5e358c70ad7a534bc50,68817205a84113384fffdfe3,68824dfe748df164f818dc44,,,,,,,,,,,,./stim/wavs/castilian_mismatch_interrogative-total-yn_La-nina-lava-el-plato.wav,1,,,115.3345,117.5335,1,1,1.6779,,0,21,21,25,1,26,0,castilian,,,,,,,,,,,,,,,,,,,,,,,,,,,,,,,,,,,,,,,,,,,,,,,,,,,,,,,,
,,,,,,,,,60f5d5e358c70ad7a534bc50,Spanish,13 or older,"no, only English or Spanish",no,2025-07-24_11h15.52.728,empathy_intonation_perc_control,2024.2.4,MacIntel,59.88023952,60f5d5e358c70ad7a534bc50,68817205a84113384fffdfe3,68824dfe748df164f818dc44,,,,,,,,,,,,./stim/wavs/mexican_match_declarative-broad-focus_David-leia-el-libro.wav,0,,,117.5341,120.3327,0,1,2.2749,,0,22,22,58,1,59,0,mexican,,,,,,,,,,,,,,,,,,,,,,,,,,,,,,,,,,,,,,,,,,,,,,,,,,,,,,,,
,,,,,,,,,60f5d5e358c70ad7a534bc50,Spanish,13 or older,"no, only English or Spanish",no,2025-07-24_11h15.52.728,empathy_intonation_perc_control,2024.2.4,MacIntel,59.88023952,60f5d5e358c70ad7a534bc50,68817205a84113384fffdfe3,68824dfe748df164f818dc44,,,,,,,,,,,,./stim/wavs/cuban_mismatch_declarative-broad-focus_Mi-tia-odia-la-lluvia.wav,0,,,120.333,122.5512,0,1,1.712,,0,23,23,77,1,78,0,cuban,,,,,,,,,,,,,,,,,,,,,,,,,,,,,,,,,,,,,,,,,,,,,,,,,,,,,,,,
,,,,,,,,,60f5d5e358c70ad7a534bc50,Spanish,13 or older,"no, only English or Spanish",no,2025-07-24_11h15.52.728,empathy_intonation_perc_control,2024.2.4,MacIntel,59.88023952,60f5d5e358c70ad7a534bc50,68817205a84113384fffdfe3,68824dfe748df164f818dc44,,,,,,,,,,,,./stim/wavs/puertorican_mismatch_interrogative-total-yn_La-maestra-vive-en-Paris.wav,1,,,122.5518,125.0173,1,1,1.9433,,0,24,24,41,1,42,1,puertorican,,,,,,,,,,,,,,,,,,,,,,,,,,,,,,,,,,,,,,,,,,,,,,,,,,,,,,,,
,,,,,,,,,60f5d5e358c70ad7a534bc50,Spanish,13 or older,"no, only English or Spanish",no,2025-07-24_11h15.52.728,empathy_intonation_perc_control,2024.2.4,MacIntel,59.88023952,60f5d5e358c70ad7a534bc50,68817205a84113384fffdfe3,68824dfe748df164f818dc44,,,,,,,,,,,,./stim/wavs/mexican_mismatch_interrogative-total-yn_El-hombre-mira-la-luna.wav,1,,,125.0179,126.9343,1,1,1.3826,,0,25,25,34,1,35,0,mexican,,,,,,,,,,,,,,,,,,,,,,,,,,,,,,,,,,,,,,,,,,,,,,,,,,,,,,,,
,,,,,,,,,60f5d5e358c70ad7a534bc50,Spanish,13 or older,"no, only English or Spanish",no,2025-07-24_11h15.52.728,empathy_intonation_perc_control,2024.2.4,MacIntel,59.88023952,60f5d5e358c70ad7a534bc50,68817205a84113384fffdfe3,68824dfe748df164f818dc44,,,,,,,,,,,,./stim/wavs/mexican_match_interrogative-total-yn_David-leia-el-libro.wav,1,,,126.935,128.9177,1,1,1.4599,,0,26,26,14,1,15,0,mexican,,,,,,,,,,,,,,,,,,,,,,,,,,,,,,,,,,,,,,,,,,,,,,,,,,,,,,,,
,,,,,,,,,60f5d5e358c70ad7a534bc50,Spanish,13 or older,"no, only English or Spanish",no,2025-07-24_11h15.52.728,empathy_intonation_perc_control,2024.2.4,MacIntel,59.88023952,60f5d5e358c70ad7a534bc50,68817205a84113384fffdfe3,68824dfe748df164f818dc44,,,,,,,,,,,,./stim/wavs/puertorican_match_declarative-broad-focus_David-leia-el-libro.wav,0,,,128.9183,130.9843,0,1,1.5342,,0,27,27,64,1,65,0,puertorican,,,,,,,,,,,,,,,,,,,,,,,,,,,,,,,,,,,,,,,,,,,,,,,,,,,,,,,,
,,,,,,,,,60f5d5e358c70ad7a534bc50,Spanish,13 or older,"no, only English or Spanish",no,2025-07-24_11h15.52.728,empathy_intonation_perc_control,2024.2.4,MacIntel,59.88023952,60f5d5e358c70ad7a534bc50,68817205a84113384fffdfe3,68824dfe748df164f818dc44,,,,,,,,,,,,./stim/wavs/castilian_match_interrogative-total-yn_Maria-bebe-el-vino.wav,1,,,130.9851,132.9178,1,1,1.4009,,0,28,28,3,1,4,0,castilian,,,,,,,,,,,,,,,,,,,,,,,,,,,,,,,,,,,,,,,,,,,,,,,,,,,,,,,,
,,,,,,,,,60f5d5e358c70ad7a534bc50,Spanish,13 or older,"no, only English or Spanish",no,2025-07-24_11h15.52.728,empathy_intonation_perc_control,2024.2.4,MacIntel,59.88023952,60f5d5e358c70ad7a534bc50,68817205a84113384fffdfe3,68824dfe748df164f818dc44,,,,,,,,,,,,./stim/wavs/castilian_match_interrogative-total-yn_Manuela-vende-el-carro.wav,1,,,132.9183,135.1509,1,1,1.7088,,0,29,29,2,1,3,0,castilian,,,,,,,,,,,,,,,,,,,,,,,,,,,,,,,,,,,,,,,,,,,,,,,,,,,,,,,,
,,,,,,,,,60f5d5e358c70ad7a534bc50,Spanish,13 or older,"no, only English or Spanish",no,2025-07-24_11h15.52.728,empathy_intonation_perc_control,2024.2.4,MacIntel,59.88023952,60f5d5e358c70ad7a534bc50,68817205a84113384fffdfe3,68824dfe748df164f818dc44,,,,,,,,,,,,./stim/wavs/puertorican_match_interrogative-total-yn_Emilio-ama-la-marcha.wav,1,,,135.1512,137.1681,1,1,1.5108,,0,30,30,21,1,22,1,puertorican,,,,,,,,,,,,,,,,,,,,,,,,,,,,,,,,,,,,,,,,,,,,,,,,,,,,,,,,
,,,,,,,,,60f5d5e358c70ad7a534bc50,Spanish,13 or older,"no, only English or Spanish",no,2025-07-24_11h15.52.728,empathy_intonation_perc_control,2024.2.4,MacIntel,59.88023952,60f5d5e358c70ad7a534bc50,68817205a84113384fffdfe3,68824dfe748df164f818dc44,,,,,,,,,,,,./stim/wavs/mexican_match_declarative-broad-focus_Ana-lleva-el-abrigo.wav,0,,,137.1688,139.2846,0,1,1.5915,,0,31,31,56,1,57,0,mexican,,,,,,,,,,,,,,,,,,,,,,,,,,,,,,,,,,,,,,,,,,,,,,,,,,,,,,,,
,,,,,,,,,60f5d5e358c70ad7a534bc50,Spanish,13 or older,"no, only English or Spanish",no,2025-07-24_11h15.52.728,empathy_intonation_perc_control,2024.2.4,MacIntel,59.88023952,60f5d5e358c70ad7a534bc50,68817205a84113384fffdfe3,68824dfe748df164f818dc44,,,,,,,,,,,,./stim/wavs/castilian_mismatch_declarative-broad-focus_El-nino-oye-el-rio.wav,0,,,139.2852,141.5681,0,1,1.7527,,0,32,32,68,1,69,0,castilian,,,,,,,,,,,,,,,,,,,,,,,,,,,,,,,,,,,,,,,,,,,,,,,,,,,,,,,,
,,,,,,,,,60f5d5e358c70ad7a534bc50,Spanish,13 or older,"no, only English or Spanish",no,2025-07-24_11h15.52.728,empathy_intonation_perc_control,2024.2.4,MacIntel,59.88023952,60f5d5e358c70ad7a534bc50,68817205a84113384fffdfe3,68824dfe748df164f818dc44,,,,,,,,,,,,./stim/wavs/mexican_match_declarative-broad-focus_Daniel-iba-a-Bolivia.wav,0,,,141.5687,143.5682,0,1,1.4665,,0,33,33,57,1,58,0,mexican,,,,,,,,,,,,,,,,,,,,,,,,,,,,,,,,,,,,,,,,,,,,,,,,,,,,,,,,
,,,,,,,,,60f5d5e358c70ad7a534bc50,Spanish,13 or older,"no, only English or Spanish",no,2025-07-24_11h15.52.728,empathy_intonation_perc_control,2024.2.4,MacIntel,59.88023952,60f5d5e358c70ad7a534bc50,68817205a84113384fffdfe3,68824dfe748df164f818dc44,,,,,,,,,,,,./stim/wavs/puertorican_mismatch_declarative-broad-focus_La-nina-lava-el-plato.wav,0,,,143.5688,146.0016,0,1,1.9007,,0,34,34,87,1,88,0,puertorican,,,,,,,,,,,,,,,,,,,,,,,,,,,,,,,,,,,,,,,,,,,,,,,,,,,,,,,,
,,,,,,,,,60f5d5e358c70ad7a534bc50,Spanish,13 or older,"no, only English or Spanish",no,2025-07-24_11h15.52.728,empathy_intonation_perc_control,2024.2.4,MacIntel,59.88023952,60f5d5e358c70ad7a534bc50,68817205a84113384fffdfe3,68824dfe748df164f818dc44,,,,,,,,,,,,./stim/wavs/mexican_mismatch_declarative-broad-focus_El-bebe-comia-muy-bien.wav,0,,,146.0023,148.8842,1,0,2.3512,,0,35,35,78,1,79,0,mexican,,,,,,,,,,,,,,,,,,,,,,,,,,,,,,,,,,,,,,,,,,,,,,,,,,,,,,,,
,,,,,,,,,60f5d5e358c70ad7a534bc50,Spanish,13 or older,"no, only English or Spanish",no,2025-07-24_11h15.52.728,empathy_intonation_perc_control,2024.2.4,MacIntel,59.88023952,60f5d5e358c70ad7a534bc50,68817205a84113384fffdfe3,68824dfe748df164f818dc44,,,,,,,,,,,,./stim/wavs/castilian_match_declarative-broad-focus_David-leia-el-libro.wav,0,,,148.8848,151.2185,0,1,1.827,,0,36,36,44,1,45,0,castilian,,,,,,,,,,,,,,,,,,,,,,,,,,,,,,,,,,,,,,,,,,,,,,,,,,,,,,,,
,,,,,,,,,60f5d5e358c70ad7a534bc50,Spanish,13 or older,"no, only English or Spanish",no,2025-07-24_11h15.52.728,empathy_intonation_perc_control,2024.2.4,MacIntel,59.88023952,60f5d5e358c70ad7a534bc50,68817205a84113384fffdfe3,68824dfe748df164f818dc44,,,,,,,,,,,,./stim/wavs/cuban_match_declarative-broad-focus_Manuela-vende-el-carro.wav,0,,,151.2192,153.5684,0,1,1.826,,0,37,37,52,1,53,0,cuban,,,,,,,,,,,,,,,,,,,,,,,,,,,,,,,,,,,,,,,,,,,,,,,,,,,,,,,,
,,,,,,,,,60f5d5e358c70ad7a534bc50,Spanish,13 or older,"no, only English or Spanish",no,2025-07-24_11h15.52.728,empathy_intonation_perc_control,2024.2.4,MacIntel,59.88023952,60f5d5e358c70ad7a534bc50,68817205a84113384fffdfe3,68824dfe748df164f818dc44,,,,,,,,,,,,./stim/wavs/mexican_match_interrogative-total-yn_Mariano-habla-del-tiempo.wav,1,,,153.569,155.8845,1,1,1.7837,,0,38,38,16,1,17,0,mexican,,,,,,,,,,,,,,,,,,,,,,,,,,,,,,,,,,,,,,,,,,,,,,,,,,,,,,,,
,,,,,,,,,60f5d5e358c70ad7a534bc50,Spanish,13 or older,"no, only English or Spanish",no,2025-07-24_11h15.52.728,empathy_intonation_perc_control,2024.2.4,MacIntel,59.88023952,60f5d5e358c70ad7a534bc50,68817205a84113384fffdfe3,68824dfe748df164f818dc44,,,,,,,,,,,,./stim/wavs/castilian_mismatch_interrogative-total-yn_Mi-madre-come-la-fruta.wav,1,,,155.8851,158.1177,1,1,1.7174,,0,39,39,26,1,27,0,castilian,,,,,,,,,,,,,,,,,,,,,,,,,,,,,,,,,,,,,,,,,,,,,,,,,,,,,,,,
,,,,,,,,,60f5d5e358c70ad7a534bc50,Spanish,13 or older,"no, only English or Spanish",no,2025-07-24_11h15.52.728,empathy_intonation_perc_control,2024.2.4,MacIntel,59.88023952,60f5d5e358c70ad7a534bc50,68817205a84113384fffdfe3,68824dfe748df164f818dc44,,,,,,,,,,,,./stim/wavs/cuban_mismatch_declarative-broad-focus_El-bebe-comia-muy-bien.wav,0,,,158.118,160.4847,0,1,1.8497,,0,40,40,73,1,74,0,cuban,,,,,,,,,,,,,,,,,,,,,,,,,,,,,,,,,,,,,,,,,,,,,,,,,,,,,,,,
,,,,,,,,,60f5d5e358c70ad7a534bc50,Spanish,13 or older,"no, only English or Spanish",no,2025-07-24_11h15.52.728,empathy_intonation_perc_control,2024.2.4,MacIntel,59.88023952,60f5d5e358c70ad7a534bc50,68817205a84113384fffdfe3,68824dfe748df164f818dc44,,,,,,,,,,,,./stim/wavs/cuban_match_declarative-broad-focus_Mariano-habla-del-tiempo.wav,0,,,160.4854,163.0848,0,1,2.0761,,0,41,41,54,1,55,0,cuban,,,,,,,,,,,,,,,,,,,,,,,,,,,,,,,,,,,,,,,,,,,,,,,,,,,,,,,,
,,,,,,,,,60f5d5e358c70ad7a534bc50,Spanish,13 or older,"no, only English or Spanish",no,2025-07-24_11h15.52.728,empathy_intonation_perc_control,2024.2.4,MacIntel,59.88023952,60f5d5e358c70ad7a534bc50,68817205a84113384fffdfe3,68824dfe748df164f818dc44,,,,,,,,,,,,./stim/wavs/puertorican_mismatch_declarative-broad-focus_El-nino-oye-el-rio.wav,0,,,163.0854,165.685,1,0,2.0692,,0,42,42,85,1,86,0,puertorican,,,,,,,,,,,,,,,,,,,,,,,,,,,,,,,,,,,,,,,,,,,,,,,,,,,,,,,,
,,,,,,,,,60f5d5e358c70ad7a534bc50,Spanish,13 or older,"no, only English or Spanish",no,2025-07-24_11h15.52.728,empathy_intonation_perc_control,2024.2.4,MacIntel,59.88023952,60f5d5e358c70ad7a534bc50,68817205a84113384fffdfe3,68824dfe748df164f818dc44,,,,,,,,,,,,./stim/wavs/cuban_mismatch_interrogative-total-yn_Mi-tia-odia-la-lluvia.wav,1,,,165.6856,168.0194,1,1,1.8025,,0,43,43,33,1,34,1,cuban,,,,,,,,,,,,,,,,,,,,,,,,,,,,,,,,,,,,,,,,,,,,,,,,,,,,,,,,
,,,,,,,,,60f5d5e358c70ad7a534bc50,Spanish,13 or older,"no, only English or Spanish",no,2025-07-24_11h15.52.728,empathy_intonation_perc_control,2024.2.4,MacIntel,59.88023952,60f5d5e358c70ad7a534bc50,68817205a84113384fffdfe3,68824dfe748df164f818dc44,,,,,,,,,,,,./stim/wavs/castilian_mismatch_interrogative-total-yn_Mi-novio-viene-del-lago.wav,1,,,168.02,170.486,1,1,1.9444,,0,44,44,27,1,28,0,castilian,,,,,,,,,,,,,,,,,,,,,,,,,,,,,,,,,,,,,,,,,,,,,,,,,,,,,,,,
,,,,,,,,,60f5d5e358c70ad7a534bc50,Spanish,13 or older,"no, only English or Spanish",no,2025-07-24_11h15.52.728,empathy_intonation_perc_control,2024.2.4,MacIntel,59.88023952,60f5d5e358c70ad7a534bc50,68817205a84113384fffdfe3,68824dfe748df164f818dc44,,,,,,,,,,,,./stim/wavs/cuban_mismatch_declarative-broad-focus_El-hombre-mira-la-luna.wav,0,,,170.4867,172.4694,0,1,1.4583,,0,45,45,74,1,75,0,cuban,,,,,,,,,,,,,,,,,,,,,,,,,,,,,,,,,,,,,,,,,,,,,,,,,,,,,,,,
,,,,,,,,,60f5d5e358c70ad7a534bc50,Spanish,13 or older,"no, only English or Spanish",no,2025-07-24_11h15.52.728,empathy_intonation_perc_control,2024.2.4,MacIntel,59.88023952,60f5d5e358c70ad7a534bc50,68817205a84113384fffdfe3,68824dfe748df164f818dc44,,,,,,,,,,,,./stim/wavs/cuban_match_declarative-broad-focus_Ana-lleva-el-abrigo.wav,0,,,172.4698,174.7029,0,1,1.6997,,0,46,46,50,1,51,0,cuban,,,,,,,,,,,,,,,,,,,,,,,,,,,,,,,,,,,,,,,,,,,,,,,,,,,,,,,,
,,,,,,,,,60f5d5e358c70ad7a534bc50,Spanish,13 or older,"no, only English or Spanish",no,2025-07-24_11h15.52.728,empathy_intonation_perc_control,2024.2.4,MacIntel,59.88023952,60f5d5e358c70ad7a534bc50,68817205a84113384fffdfe3,68824dfe748df164f818dc44,,,,,,,,,,,,./stim/wavs/cuban_match_interrogative-total-yn_Marta-abre-el-regalo.wav,1,,,174.7035,176.7196,1,1,1.4836,,0,47,47,11,1,12,1,cuban,,,,,,,,,,,,,,,,,,,,,,,,,,,,,,,,,,,,,,,,,,,,,,,,,,,,,,,,
,,,,,,,,,60f5d5e358c70ad7a534bc50,Spanish,13 or older,"no, only English or Spanish",no,2025-07-24_11h15.52.728,empathy_intonation_perc_control,2024.2.4,MacIntel,59.88023952,60f5d5e358c70ad7a534bc50,68817205a84113384fffdfe3,68824dfe748df164f818dc44,,,,,,,,,,,,./stim/wavs/cuban_mismatch_interrogative-total-yn_Mi-novio-viene-del-lago.wav,1,,,176.7202,179.0865,1,1,1.844,,0,48,48,32,1,33,1,cuban,,,,,,,,,,,,,,,,,,,,,,,,,,,,,,,,,,,,,,,,,,,,,,,,,,,,,,,,
,,,,,,,,,60f5d5e358c70ad7a534bc50,Spanish,13 or older,"no, only English or Spanish",no,2025-07-24_11h15.52.728,empathy_intonation_perc_control,2024.2.4,MacIntel,59.88023952,60f5d5e358c70ad7a534bc50,68817205a84113384fffdfe3,68824dfe748df164f818dc44,,,,,,,,,,,,./stim/wavs/mexican_match_interrogative-total-yn_Daniel-iba-a-Bolivia.wav,1,,,179.087,181.1856,1,1,1.568,,0,49,49,13,1,14,0,mexican,,,,,,,,,,,,,,,,,,,,,,,,,,,,,,,,,,,,,,,,,,,,,,,,,,,,,,,,
,,,,,,,,,60f5d5e358c70ad7a534bc50,Spanish,13 or older,"no, only English or Spanish",no,2025-07-24_11h15.52.728,empathy_intonation_perc_control,2024.2.4,MacIntel,59.88023952,60f5d5e358c70ad7a534bc50,68817205a84113384fffdfe3,68824dfe748df164f818dc44,,,,,,,,,,,,./stim/wavs/puertorican_match_declarative-broad-focus_Maria-bebe-el-vino.wav,0,,,181.1862,183.1033,1,0,1.393,,0,50,50,67,1,68,0,puertorican,,,,,,,,,,,,,,,,,,,,,,,,,,,,,,,,,,,,,,,,,,,,,,,,,,,,,,,,
,,,,,,,,,60f5d5e358c70ad7a534bc50,Spanish,13 or older,"no, only English or Spanish",no,2025-07-24_11h15.52.728,empathy_intonation_perc_control,2024.2.4,MacIntel,59.88023952,60f5d5e358c70ad7a534bc50,68817205a84113384fffdfe3,68824dfe748df164f818dc44,,,,,,,,,,,,./stim/wavs/castilian_mismatch_declarative-broad-focus_Mi-tia-odia-la-lluvia.wav,0,,,183.1039,185.5868,0,1,1.9533,,0,51,51,72,1,73,0,castilian,,,,,,,,,,,,,,,,,,,,,,,,,,,,,,,,,,,,,,,,,,,,,,,,,,,,,,,,
,,,,,,,,,60f5d5e358c70ad7a534bc50,Spanish,13 or older,"no, only English or Spanish",no,2025-07-24_11h15.52.728,empathy_intonation_perc_control,2024.2.4,MacIntel,59.88023952,60f5d5e358c70ad7a534bc50,68817205a84113384fffdfe3,68824dfe748df164f818dc44,,,,,,,,,,,,./stim/wavs/cuban_match_interrogative-total-yn_Manuela-vende-el-carro.wav,1,,,185.5875,187.6859,0,0,1.5656,,0,52,52,8,1,9,1,cuban,,,,,,,,,,,,,,,,,,,,,,,,,,,,,,,,,,,,,,,,,,,,,,,,,,,,,,,,
,,,,,,,,,60f5d5e358c70ad7a534bc50,Spanish,13 or older,"no, only English or Spanish",no,2025-07-24_11h15.52.728,empathy_intonation_perc_control,2024.2.4,MacIntel,59.88023952,60f5d5e358c70ad7a534bc50,68817205a84113384fffdfe3,68824dfe748df164f818dc44,,,,,,,,,,,,./stim/wavs/cuban_mismatch_interrogative-total-yn_Mi-madre-come-la-fruta.wav,1,,,187.6866,189.9869,1,1,1.7829,,0,53,53,31,1,32,1,cuban,,,,,,,,,,,,,,,,,,,,,,,,,,,,,,,,,,,,,,,,,,,,,,,,,,,,,,,,
,,,,,,,,,60f5d5e358c70ad7a534bc50,Spanish,13 or older,"no, only English or Spanish",no,2025-07-24_11h15.52.728,empathy_intonation_perc_control,2024.2.4,MacIntel,59.88023952,60f5d5e358c70ad7a534bc50,68817205a84113384fffdfe3,68824dfe748df164f818dc44,,,,,,,,,,,,./stim/wavs/cuban_mismatch_declarative-broad-focus_Mi-novio-viene-del-lago.wav,0,,,189.9875,192.1866,0,1,1.6769,,0,54,54,76,1,77,0,cuban,,,,,,,,,,,,,,,,,,,,,,,,,,,,,,,,,,,,,,,,,,,,,,,,,,,,,,,,
,,,,,,,,,60f5d5e358c70ad7a534bc50,Spanish,13 or older,"no, only English or Spanish",no,2025-07-24_11h15.52.728,empathy_intonation_perc_control,2024.2.4,MacIntel,59.88023952,60f5d5e358c70ad7a534bc50,68817205a84113384fffdfe3,68824dfe748df164f818dc44,,,,,,,,,,,,./stim/wavs/mexican_match_interrogative-total-yn_Emilio-ama-la-marcha.wav,1,,,192.1873,194.2376,1,1,1.5276,,0,55,55,15,1,16,0,mexican,,,,,,,,,,,,,,,,,,,,,,,,,,,,,,,,,,,,,,,,,,,,,,,,,,,,,,,,
,,,,,,,,,60f5d5e358c70ad7a534bc50,Spanish,13 or older,"no, only English or Spanish",no,2025-07-24_11h15.52.728,empathy_intonation_perc_control,2024.2.4,MacIntel,59.88023952,60f5d5e358c70ad7a534bc50,68817205a84113384fffdfe3,68824dfe748df164f818dc44,,,,,,,,,,,,./stim/wavs/castilian_match_declarative-broad-focus_Marta-abre-el-regalo.wav,0,,,194.2383,196.6372,0,1,1.8685,,0,56,56,49,1,50,0,castilian,,,,,,,,,,,,,,,,,,,,,,,,,,,,,,,,,,,,,,,,,,,,,,,,,,,,,,,,
,,,,,,,,,60f5d5e358c70ad7a534bc50,Spanish,13 or older,"no, only English or Spanish",no,2025-07-24_11h15.52.728,empathy_intonation_perc_control,2024.2.4,MacIntel,59.88023952,60f5d5e358c70ad7a534bc50,68817205a84113384fffdfe3,68824dfe748df164f818dc44,,,,,,,,,,,,./stim/wavs/mexican_mismatch_interrogative-total-yn_Mi-novio-viene-del-lago.wav,1,,,196.6382,198.7213,1,1,1.5615,,0,57,57,37,1,38,0,mexican,,,,,,,,,,,,,,,,,,,,,,,,,,,,,,,,,,,,,,,,,,,,,,,,,,,,,,,,
,,,,,,,,,60f5d5e358c70ad7a534bc50,Spanish,13 or older,"no, only English or Spanish",no,2025-07-24_11h15.52.728,empathy_intonation_perc_control,2024.2.4,MacIntel,59.88023952,60f5d5e358c70ad7a534bc50,68817205a84113384fffdfe3,68824dfe748df164f818dc44,,,,,,,,,,,,./stim/wavs/castilian_match_declarative-broad-focus_Maria-bebe-el-vino.wav,0,,,198.7219,201.2041,0,1,1.9487,,0,58,58,47,1,48,0,castilian,,,,,,,,,,,,,,,,,,,,,,,,,,,,,,,,,,,,,,,,,,,,,,,,,,,,,,,,
,,,,,,,,,60f5d5e358c70ad7a534bc50,Spanish,13 or older,"no, only English or Spanish",no,2025-07-24_11h15.52.728,empathy_intonation_perc_control,2024.2.4,MacIntel,59.88023952,60f5d5e358c70ad7a534bc50,68817205a84113384fffdfe3,68824dfe748df164f818dc44,,,,,,,,,,,,./stim/wavs/cuban_mismatch_declarative-broad-focus_La-nina-lava-el-plato.wav,0,,,201.2047,203.4044,0,1,1.6674,,0,59,59,75,1,76,0,cuban,,,,,,,,,,,,,,,,,,,,,,,,,,,,,,,,,,,,,,,,,,,,,,,,,,,,,,,,
,,,,,,,,,60f5d5e358c70ad7a534bc50,Spanish,13 or older,"no, only English or Spanish",no,2025-07-24_11h15.52.728,empathy_intonation_perc_control,2024.2.4,MacIntel,59.88023952,60f5d5e358c70ad7a534bc50,68817205a84113384fffdfe3,68824dfe748df164f818dc44,,,,,,,,,,,,./stim/wavs/castilian_match_declarative-broad-focus_Manuela-vende-el-carro.wav,0,,,203.405,205.854,0,1,1.9179,,0,60,60,46,1,47,0,castilian,,,,,,,,,,,,,,,,,,,,,,,,,,,,,,,,,,,,,,,,,,,,,,,,,,,,,,,,
,,,,,,,,,60f5d5e358c70ad7a534bc50,Spanish,13 or older,"no, only English or Spanish",no,2025-07-24_11h15.52.728,empathy_intonation_perc_control,2024.2.4,MacIntel,59.88023952,60f5d5e358c70ad7a534bc50,68817205a84113384fffdfe3,68824dfe748df164f818dc44,,,,,,,,,,,,./stim/wavs/mexican_mismatch_interrogative-total-yn_El-nino-oye-el-rio.wav,1,,,205.8542,208.0211,1,1,1.6503,,0,61,61,35,1,36,0,mexican,,,,,,,,,,,,,,,,,,,,,,,,,,,,,,,,,,,,,,,,,,,,,,,,,,,,,,,,
,,,,,,,,,60f5d5e358c70ad7a534bc50,Spanish,13 or older,"no, only English or Spanish",no,2025-07-24_11h15.52.728,empathy_intonation_perc_control,2024.2.4,MacIntel,59.88023952,60f5d5e358c70ad7a534bc50,68817205a84113384fffdfe3,68824dfe748df164f818dc44,,,,,,,,,,,,./stim/wavs/puertorican_match_interrogative-total-yn_Daniel-iba-a-Bolivia.wav,1,,,208.0219,210.4044,0,0,1.8594,,0,62,62,19,1,20,1,puertorican,,,,,,,,,,,,,,,,,,,,,,,,,,,,,,,,,,,,,,,,,,,,,,,,,,,,,,,,
,,,,,,,,,60f5d5e358c70ad7a534bc50,Spanish,13 or older,"no, only English or Spanish",no,2025-07-24_11h15.52.728,empathy_intonation_perc_control,2024.2.4,MacIntel,59.88023952,60f5d5e358c70ad7a534bc50,68817205a84113384fffdfe3,68824dfe748df164f818dc44,,,,,,,,,,,,./stim/wavs/puertorican_match_interrogative-total-yn_David-leia-el-libro.wav,1,,,210.405,213.0204,0,0,2.0835,,0,63,63,20,1,21,1,puertorican,,,,,,,,,,,,,,,,,,,,,,,,,,,,,,,,,,,,,,,,,,,,,,,,,,,,,,,,
,,,,,,,,,60f5d5e358c70ad7a534bc50,Spanish,13 or older,"no, only English or Spanish",no,2025-07-24_11h15.52.728,empathy_intonation_perc_control,2024.2.4,MacIntel,59.88023952,60f5d5e358c70ad7a534bc50,68817205a84113384fffdfe3,68824dfe748df164f818dc44,,,,,,,,,,,,./stim/wavs/puertorican_match_interrogative-total-yn_Manuela-vende-el-carro.wav,1,,,213.021,214.8712,1,1,1.3424,,0,64,64,22,1,23,1,puertorican,,,,,,,,,,,,,,,,,,,,,,,,,,,,,,,,,,,,,,,,,,,,,,,,,,,,,,,,
,,,,,,,,,60f5d5e358c70ad7a534bc50,Spanish,13 or older,"no, only English or Spanish",no,2025-07-24_11h15.52.728,empathy_intonation_perc_control,2024.2.4,MacIntel,59.88023952,60f5d5e358c70ad7a534bc50,68817205a84113384fffdfe3,68824dfe748df164f818dc44,,,,,,,,,,,,./stim/wavs/castilian_match_interrogative-total-yn_David-leia-el-libro.wav,1,,,214.8715,216.9549,1,1,1.553,,0,65,65,0,1,1,0,castilian,,,,,,,,,,,,,,,,,,,,,,,,,,,,,,,,,,,,,,,,,,,,,,,,,,,,,,,,
,,,,,,,,,60f5d5e358c70ad7a534bc50,Spanish,13 or older,"no, only English or Spanish",no,2025-07-24_11h15.52.728,empathy_intonation_perc_control,2024.2.4,MacIntel,59.88023952,60f5d5e358c70ad7a534bc50,68817205a84113384fffdfe3,68824dfe748df164f818dc44,,,,,,,,,,,,./stim/wavs/castilian_mismatch_declarative-broad-focus_La-nina-lava-el-plato.wav,0,,,216.9556,219.4881,0,1,2.0089,,0,66,66,70,1,71,0,castilian,,,,,,,,,,,,,,,,,,,,,,,,,,,,,,,,,,,,,,,,,,,,,,,,,,,,,,,,
,,,,,,,,,60f5d5e358c70ad7a534bc50,Spanish,13 or older,"no, only English or Spanish",no,2025-07-24_11h15.52.728,empathy_intonation_perc_control,2024.2.4,MacIntel,59.88023952,60f5d5e358c70ad7a534bc50,68817205a84113384fffdfe3,68824dfe748df164f818dc44,,,,,,,,,,,,./stim/wavs/puertorican_mismatch_interrogative-total-yn_El-hombre-mira-la-luna.wav,1,,,219.4886,221.7208,1,1,1.7098,,0,67,67,39,1,40,1,puertorican,,,,,,,,,,,,,,,,,,,,,,,,,,,,,,,,,,,,,,,,,,,,,,,,,,,,,,,,
,,,,,,,,,60f5d5e358c70ad7a534bc50,Spanish,13 or older,"no, only English or Spanish",no,2025-07-24_11h15.52.728,empathy_intonation_perc_control,2024.2.4,MacIntel,59.88023952,60f5d5e358c70ad7a534bc50,68817205a84113384fffdfe3,68824dfe748df164f818dc44,,,,,,,,,,,,./stim/wavs/castilian_mismatch_interrogative-total-yn_Mi-tia-odia-la-lluvia.wav,1,,,221.7213,223.855,1,1,1.6104,,0,68,68,28,1,29,0,castilian,,,,,,,,,,,,,,,,,,,,,,,,,,,,,,,,,,,,,,,,,,,,,,,,,,,,,,,,
,,,,,,,,,60f5d5e358c70ad7a534bc50,Spanish,13 or older,"no, only English or Spanish",no,2025-07-24_11h15.52.728,empathy_intonation_perc_control,2024.2.4,MacIntel,59.88023952,60f5d5e358c70ad7a534bc50,68817205a84113384fffdfe3,68824dfe748df164f818dc44,,,,,,,,,,,,./stim/wavs/castilian_mismatch_interrogative-total-yn_La-maestra-vive-en-Paris.wav,1,,,223.8556,226.2885,1,1,1.9011,,0,69,69,24,1,25,0,castilian,,,,,,,,,,,,,,,,,,,,,,,,,,,,,,,,,,,,,,,,,,,,,,,,,,,,,,,,
,,,,,,,,,60f5d5e358c70ad7a534bc50,Spanish,13 or older,"no, only English or Spanish",no,2025-07-24_11h15.52.728,empathy_intonation_perc_control,2024.2.4,MacIntel,59.88023952,60f5d5e358c70ad7a534bc50,68817205a84113384fffdfe3,68824dfe748df164f818dc44,,,,,,,,,,,,./stim/wavs/mexican_mismatch_interrogative-total-yn_La-maestra-vive-en-Paris.wav,1,,,226.2889,228.4721,1,1,1.6495,,0,70,70,36,1,37,0,mexican,,,,,,,,,,,,,,,,,,,,,,,,,,,,,,,,,,,,,,,,,,,,,,,,,,,,,,,,
,,,,,,,,,60f5d5e358c70ad7a534bc50,Spanish,13 or older,"no, only English or Spanish",no,2025-07-24_11h15.52.728,empathy_intonation_perc_control,2024.2.4,MacIntel,59.88023952,60f5d5e358c70ad7a534bc50,68817205a84113384fffdfe3,68824dfe748df164f818dc44,,,,,,,,,,,,./stim/wavs/castilian_match_declarative-broad-focus_Mariano-habla-del-tiempo.wav,0,,,228.4727,230.9053,0,1,1.8984,,0,71,71,48,1,49,0,castilian,,,,,,,,,,,,,,,,,,,,,,,,,,,,,,,,,,,,,,,,,,,,,,,,,,,,,,,,
,,,,,,,,,60f5d5e358c70ad7a534bc50,Spanish,13 or older,"no, only English or Spanish",no,2025-07-24_11h15.52.728,empathy_intonation_perc_control,2024.2.4,MacIntel,59.88023952,60f5d5e358c70ad7a534bc50,68817205a84113384fffdfe3,68824dfe748df164f818dc44,,,,,,,,,,,,./stim/wavs/puertorican_match_declarative-broad-focus_Emilio-ama-la-marcha.wav,0,,,230.9059,233.0388,0,1,1.6019,,0,72,72,65,1,66,0,puertorican,,,,,,,,,,,,,,,,,,,,,,,,,,,,,,,,,,,,,,,,,,,,,,,,,,,,,,,,
,,,,,,,,,60f5d5e358c70ad7a534bc50,Spanish,13 or older,"no, only English or Spanish",no,2025-07-24_11h15.52.728,empathy_intonation_perc_control,2024.2.4,MacIntel,59.88023952,60f5d5e358c70ad7a534bc50,68817205a84113384fffdfe3,68824dfe748df164f818dc44,,,,,,,,,,,,./stim/wavs/puertorican_match_declarative-broad-focus_Ana-lleva-el-abrigo.wav,0,,,233.0395,235.2391,0,1,1.6782,,0,73,73,62,1,63,0,puertorican,,,,,,,,,,,,,,,,,,,,,,,,,,,,,,,,,,,,,,,,,,,,,,,,,,,,,,,,
,,,,,,,,,60f5d5e358c70ad7a534bc50,Spanish,13 or older,"no, only English or Spanish",no,2025-07-24_11h15.52.728,empathy_intonation_perc_control,2024.2.4,MacIntel,59.88023952,60f5d5e358c70ad7a534bc50,68817205a84113384fffdfe3,68824dfe748df164f818dc44,,,,,,,,,,,,./stim/wavs/mexican_match_declarative-broad-focus_Marta-abre-el-regalo.wav,0,,,235.2397,237.3548,0,1,1.5932,,0,74,74,61,1,62,0,mexican,,,,,,,,,,,,,,,,,,,,,,,,,,,,,,,,,,,,,,,,,,,,,,,,,,,,,,,,
,,,,,,,,,60f5d5e358c70ad7a534bc50,Spanish,13 or older,"no, only English or Spanish",no,2025-07-24_11h15.52.728,empathy_intonation_perc_control,2024.2.4,MacIntel,59.88023952,60f5d5e358c70ad7a534bc50,68817205a84113384fffdfe3,68824dfe748df164f818dc44,,,,,,,,,,,,./stim/wavs/mexican_match_interrogative-total-yn_Marta-abre-el-regalo.wav,1,,,237.3553,239.2392,1,1,1.3784,,0,75,75,17,1,18,0,mexican,,,,,,,,,,,,,,,,,,,,,,,,,,,,,,,,,,,,,,,,,,,,,,,,,,,,,,,,
,,,,,,,,,60f5d5e358c70ad7a534bc50,Spanish,13 or older,"no, only English or Spanish",no,2025-07-24_11h15.52.728,empathy_intonation_perc_control,2024.2.4,MacIntel,59.88023952,60f5d5e358c70ad7a534bc50,68817205a84113384fffdfe3,68824dfe748df164f818dc44,,,,,,,,,,,,./stim/wavs/castilian_match_interrogative-total-yn_Emilio-ama-la-marcha.wav,1,,,239.2394,241.4726,1,1,1.6992,,0,76,76,1,1,2,0,castilian,,,,,,,,,,,,,,,,,,,,,,,,,,,,,,,,,,,,,,,,,,,,,,,,,,,,,,,,
,,,,,,,,,60f5d5e358c70ad7a534bc50,Spanish,13 or older,"no, only English or Spanish",no,2025-07-24_11h15.52.728,empathy_intonation_perc_control,2024.2.4,MacIntel,59.88023952,60f5d5e358c70ad7a534bc50,68817205a84113384fffdfe3,68824dfe748df164f818dc44,,,,,,,,,,,,./stim/wavs/castilian_mismatch_declarative-broad-focus_La-maestra-vive-en-Paris.wav,0,,,241.4733,243.8889,0,1,1.8918,,0,77,77,69,1,70,0,castilian,,,,,,,,,,,,,,,,,,,,,,,,,,,,,,,,,,,,,,,,,,,,,,,,,,,,,,,,
,,,,,,,,,60f5d5e358c70ad7a534bc50,Spanish,13 or older,"no, only English or Spanish",no,2025-07-24_11h15.52.728,empathy_intonation_perc_control,2024.2.4,MacIntel,59.88023952,60f5d5e358c70ad7a534bc50,68817205a84113384fffdfe3,68824dfe748df164f818dc44,,,,,,,,,,,,./stim/wavs/mexican_match_declarative-broad-focus_Mariano-habla-del-tiempo.wav,0,,,243.8894,245.9727,0,1,1.5506,,0,78,78,60,1,61,0,mexican,,,,,,,,,,,,,,,,,,,,,,,,,,,,,,,,,,,,,,,,,,,,,,,,,,,,,,,,
,,,,,,,,,60f5d5e358c70ad7a534bc50,Spanish,13 or older,"no, only English or Spanish",no,2025-07-24_11h15.52.728,empathy_intonation_perc_control,2024.2.4,MacIntel,59.88023952,60f5d5e358c70ad7a534bc50,68817205a84113384fffdfe3,68824dfe748df164f818dc44,,,,,,,,,,,,./stim/wavs/mexican_mismatch_interrogative-total-yn_Mi-tia-odia-la-lluvia.wav,1,,,245.9734,248.1897,1,1,1.684,,0,79,79,38,1,39,0,mexican,,,,,,,,,,,,,,,,,,,,,,,,,,,,,,,,,,,,,,,,,,,,,,,,,,,,,,,,
,,,,,,,,,60f5d5e358c70ad7a534bc50,Spanish,13 or older,"no, only English or Spanish",no,2025-07-24_11h15.52.728,empathy_intonation_perc_control,2024.2.4,MacIntel,59.88023952,60f5d5e358c70ad7a534bc50,68817205a84113384fffdfe3,68824dfe748df164f818dc44,,,,,,,,,,,,./stim/wavs/mexican_mismatch_declarative-broad-focus_Mi-novio-viene-del-lago.wav,0,,,248.1903,250.5063,0,1,1.7938,,0,80,80,81,1,82,0,mexican,,,,,,,,,,,,,,,,,,,,,,,,,,,,,,,,,,,,,,,,,,,,,,,,,,,,,,,,
,,,,,,,,,60f5d5e358c70ad7a534bc50,Spanish,13 or older,"no, only English or Spanish",no,2025-07-24_11h15.52.728,empathy_intonation_perc_control,2024.2.4,MacIntel,59.88023952,60f5d5e358c70ad7a534bc50,68817205a84113384fffdfe3,68824dfe748df164f818dc44,,,,,,,,,,,,./stim/wavs/castilian_match_interrogative-total-yn_Mariano-habla-del-tiempo.wav,1,,,250.5071,252.9893,1,1,1.9489,,0,81,81,4,1,5,0,castilian,,,,,,,,,,,,,,,,,,,,,,,,,,,,,,,,,,,,,,,,,,,,,,,,,,,,,,,,
,,,,,,,,,60f5d5e358c70ad7a534bc50,Spanish,13 or older,"no, only English or Spanish",no,2025-07-24_11h15.52.728,empathy_intonation_perc_control,2024.2.4,MacIntel,59.88023952,60f5d5e358c70ad7a534bc50,68817205a84113384fffdfe3,68824dfe748df164f818dc44,,,,,,,,,,,,./stim/wavs/puertorican_mismatch_declarative-broad-focus_El-hombre-mira-la-luna.wav,0,,,252.9897,255.2399,0,1,1.7277,,0,82,82,84,1,85,0,puertorican,,,,,,,,,,,,,,,,,,,,,,,,,,,,,,,,,,,,,,,,,,,,,,,,,,,,,,,,
,,,,,,,,,60f5d5e358c70ad7a534bc50,Spanish,13 or older,"no, only English or Spanish",no,2025-07-24_11h15.52.728,empathy_intonation_perc_control,2024.2.4,MacIntel,59.88023952,60f5d5e358c70ad7a534bc50,68817205a84113384fffdfe3,68824dfe748df164f818dc44,,,,,,,,,,,,./stim/wavs/puertorican_mismatch_interrogative-total-yn_El-nino-oye-el-rio.wav,1,,,255.2405,257.3733,1,1,1.6004,,0,83,83,40,1,41,1,puertorican,,,,,,,,,,,,,,,,,,,,,,,,,,,,,,,,,,,,,,,,,,,,,,,,,,,,,,,,
,,,,,,,,,60f5d5e358c70ad7a534bc50,Spanish,13 or older,"no, only English or Spanish",no,2025-07-24_11h15.52.728,empathy_intonation_perc_control,2024.2.4,MacIntel,59.88023952,60f5d5e358c70ad7a534bc50,68817205a84113384fffdfe3,68824dfe748df164f818dc44,,,,,,,,,,,,./stim/wavs/puertorican_mismatch_declarative-broad-focus_El-bebe-comia-muy-bien.wav,0,,,257.374,260.2733,1,0,2.3681,,0,84,84,83,1,84,0,puertorican,,,,,,,,,,,,,,,,,,,,,,,,,,,,,,,,,,,,,,,,,,,,,,,,,,,,,,,,
,,,,,,,,,60f5d5e358c70ad7a534bc50,Spanish,13 or older,"no, only English or Spanish",no,2025-07-24_11h15.52.728,empathy_intonation_perc_control,2024.2.4,MacIntel,59.88023952,60f5d5e358c70ad7a534bc50,68817205a84113384fffdfe3,68824dfe748df164f818dc44,,,,,,,,,,,,./stim/wavs/castilian_match_interrogative-total-yn_Marta-abre-el-regalo.wav,1,,,260.274,262.3735,1,1,1.567,,0,85,85,5,1,6,0,castilian,,,,,,,,,,,,,,,,,,,,,,,,,,,,,,,,,,,,,,,,,,,,,,,,,,,,,,,,
,,,,,,,,,60f5d5e358c70ad7a534bc50,Spanish,13 or older,"no, only English or Spanish",no,2025-07-24_11h15.52.728,empathy_intonation_perc_control,2024.2.4,MacIntel,59.88023952,60f5d5e358c70ad7a534bc50,68817205a84113384fffdfe3,68824dfe748df164f818dc44,,,,,,,,,,,,./stim/wavs/cuban_match_interrogative-total-yn_Mariano-habla-del-tiempo.wav,1,,,262.374,264.7404,0,0,1.8322,,0,86,86,10,1,11,1,cuban,,,,,,,,,,,,,,,,,,,,,,,,,,,,,,,,,,,,,,,,,,,,,,,,,,,,,,,,
,,,,,,,,,60f5d5e358c70ad7a534bc50,Spanish,13 or older,"no, only English or Spanish",no,2025-07-24_11h15.52.728,empathy_intonation_perc_control,2024.2.4,MacIntel,59.88023952,60f5d5e358c70ad7a534bc50,68817205a84113384fffdfe3,68824dfe748df164f818dc44,,,,,,,,,,,,./stim/wavs/mexican_mismatch_declarative-broad-focus_Mi-tia-odia-la-lluvia.wav,0,,,264.7412,266.8069,0,1,1.5438,,0,87,87,82,1,83,0,mexican,,,,,,,,,,,,,,,,,,,,,,,,,,,,,,,,,,,,,,,,,,,,,,,,,,,,,,,,
,,,,,,,"Great! Now we will move on. The next task consists of about 60 trials, in each of which you will see a string of letters. 
  
  Your task is to decide whether this is a real Spanish word or not.", (press the spacebar to continue),60f5d5e358c70ad7a534bc50,Spanish,13 or older,"no, only English or Spanish",no,2025-07-24_11h15.52.728,empathy_intonation_perc_control,2024.2.4,MacIntel,59.88023952,60f5d5e358c70ad7a534bc50,68817205a84113384fffdfe3,68824dfe748df164f818dc44,,,,,,,,,,,,,,,,,,,,,,,,,,,,,,266.8117,273.8245,0,0,0,0,1,,,,,,,,,,,,,,,,,,,,,,,,,,,,,,,,,,,,,,,,,,,,,,,,,
,,,,,,,"If you think it is an existing Spanish word, you type '1' (for 'REAL'), and if you think it is not an existing Spanish word, you type '0' (for 'FAKE').", (press the spacebar to continue),60f5d5e358c70ad7a534bc50,Spanish,13 or older,"no, only English or Spanish",no,2025-07-24_11h15.52.728,empathy_intonation_perc_control,2024.2.4,MacIntel,59.88023952,60f5d5e358c70ad7a534bc50,68817205a84113384fffdfe3,68824dfe748df164f818dc44,,,,,,,,,,,,,,,,,,,,,,,,,,,,,,273.827,281.4078,0,1,1,1,1,,,,,,,,,,,,,,,,,,,,,,,,,,,,,,,,,,,,,,,,,,,,,,,,,
,,,,,,,"If you are sure that the word exists, even though you don’t know its exact meaning, you may still respond '1' (REAL). 
  
  But if you are not sure if it is an existing word, you should respond '0' (FAKE).
  
  Let's do a practice round...", (press the spacebar to continue),60f5d5e358c70ad7a534bc50,Spanish,13 or older,"no, only English or Spanish",no,2025-07-24_11h15.52.728,empathy_intonation_perc_control,2024.2.4,MacIntel,59.88023952,60f5d5e358c70ad7a534bc50,68817205a84113384fffdfe3,68824dfe748df164f818dc44,,,,,,,,,,,,,,,,,,,,,,,,,,,,,,281.41,292.3751,0,2,2,2,1,,,,,,,,,,,,,,,,,,,,,,,,,,,,,,,,,,,,,,,,,,,,,,,,,
,,,,,,,,,60f5d5e358c70ad7a534bc50,Spanish,13 or older,"no, only English or Spanish",no,2025-07-24_11h15.52.728,empathy_intonation_perc_control,2024.2.4,MacIntel,59.88023952,60f5d5e358c70ad7a534bc50,68817205a84113384fffdfe3,68824dfe748df164f818dc44,,,,,,,,,,,,,0,,,,,,,,,,,,,,,,,,,,,,,,292.3802,294.9585,0,1,2.0501,,294.9587,295.9586,0,0,0,0,1,0,depiste,REAL,FAKE,,,,,,,,,,,,,,,,,,,,,,,,,,,,,,,,
,,,,,,,,,60f5d5e358c70ad7a534bc50,Spanish,13 or older,"no, only English or Spanish",no,2025-07-24_11h15.52.728,empathy_intonation_perc_control,2024.2.4,MacIntel,59.88023952,60f5d5e358c70ad7a534bc50,68817205a84113384fffdfe3,68824dfe748df164f818dc44,,,,,,,,,,,,,1,,,,,,,,,,,,,,,,,,,,,,,,295.9607,297.7084,1,1,1.215,,297.7084,298.7086,0,1,1,1,1,0,sí,REAL,FAKE,,,,,,,,,,,,,,,,,,,,,,,,,,,,,,,,
,,,,,,,,,60f5d5e358c70ad7a534bc50,Spanish,13 or older,"no, only English or Spanish",no,2025-07-24_11h15.52.728,empathy_intonation_perc_control,2024.2.4,MacIntel,59.88023952,60f5d5e358c70ad7a534bc50,68817205a84113384fffdfe3,68824dfe748df164f818dc44,,,,,,,,,,,,,0,,,,,,,,,,,,,,,,,,,,,,,,298.71,300.6751,0,1,1.4232,,300.6752,301.6753,0,2,2,2,1,0,coné,REAL,FAKE,,,,,,,,,,,,,,,,,,,,,,,,,,,,,,,,
,,,,,,,,,60f5d5e358c70ad7a534bc50,Spanish,13 or older,"no, only English or Spanish",no,2025-07-24_11h15.52.728,empathy_intonation_perc_control,2024.2.4,MacIntel,59.88023952,60f5d5e358c70ad7a534bc50,68817205a84113384fffdfe3,68824dfe748df164f818dc44,,,,,,,,,,,,,0,,,,,,,,,,,,,,,,,,,,,,,,301.6766,303.4753,0,1,1.2573,,303.4754,304.4756,0,3,3,3,1,0,calpar,REAL,FAKE,,,,,,,,,,,,,,,,,,,,,,,,,,,,,,,,
,,,,,,,,,60f5d5e358c70ad7a534bc50,Spanish,13 or older,"no, only English or Spanish",no,2025-07-24_11h15.52.728,empathy_intonation_perc_control,2024.2.4,MacIntel,59.88023952,60f5d5e358c70ad7a534bc50,68817205a84113384fffdfe3,68824dfe748df164f818dc44,,,,,,,,,,,,,0,,,,,,,,,,,,,,,,,,,,,,,,304.4769,305.9421,0,1,0.933,,305.9421,306.9423,0,4,4,4,1,0,joten,REAL,FAKE,,,,,,,,,,,,,,,,,,,,,,,,,,,,,,,,
,,,,,,,,,60f5d5e358c70ad7a534bc50,Spanish,13 or older,"no, only English or Spanish",no,2025-07-24_11h15.52.728,empathy_intonation_perc_control,2024.2.4,MacIntel,59.88023952,60f5d5e358c70ad7a534bc50,68817205a84113384fffdfe3,68824dfe748df164f818dc44,,,,,,,,,,,,,1,,,,,,,,,,,,,,,,,,,,,,,,306.9436,308.6087,0,0,1.1343,,308.6096,309.6089,0,5,5,5,1,0,sacapuntas,REAL,FAKE,,,,,,,,,,,,,,,,,,,,,,,,,,,,,,,,
,,,,,,,,,60f5d5e358c70ad7a534bc50,Spanish,13 or older,"no, only English or Spanish",no,2025-07-24_11h15.52.728,empathy_intonation_perc_control,2024.2.4,MacIntel,59.88023952,60f5d5e358c70ad7a534bc50,68817205a84113384fffdfe3,68824dfe748df164f818dc44,,,,,,,,,,,,,0,,,,,,,,,,,,,,,,,,,,,,,,309.6103,311.1257,0,1,0.9753,,311.1265,312.1258,0,6,6,6,1,0,priba,REAL,FAKE,,,,,,,,,,,,,,,,,,,,,,,,,,,,,,,,
,,,,,,,,,60f5d5e358c70ad7a534bc50,Spanish,13 or older,"no, only English or Spanish",no,2025-07-24_11h15.52.728,empathy_intonation_perc_control,2024.2.4,MacIntel,59.88023952,60f5d5e358c70ad7a534bc50,68817205a84113384fffdfe3,68824dfe748df164f818dc44,,,,,,,,,,,,,0,,,,,,,,,,,,,,,,,,,,,,,,312.1271,313.5091,0,1,0.8415,,313.5092,314.5092,0,7,7,7,1,0,pelasula,REAL,FAKE,,,,,,,,,,,,,,,,,,,,,,,,,,,,,,,,
,,,,,,,,,60f5d5e358c70ad7a534bc50,Spanish,13 or older,"no, only English or Spanish",no,2025-07-24_11h15.52.728,empathy_intonation_perc_control,2024.2.4,MacIntel,59.88023952,60f5d5e358c70ad7a534bc50,68817205a84113384fffdfe3,68824dfe748df164f818dc44,,,,,,,,,,,,,1,,,,,,,,,,,,,,,,,,,,,,,,314.5105,315.9757,1,1,0.9317,,315.9758,316.976,0,8,8,8,1,0,bien,REAL,FAKE,,,,,,,,,,,,,,,,,,,,,,,,,,,,,,,,
,,,,,,,,,60f5d5e358c70ad7a534bc50,Spanish,13 or older,"no, only English or Spanish",no,2025-07-24_11h15.52.728,empathy_intonation_perc_control,2024.2.4,MacIntel,59.88023952,60f5d5e358c70ad7a534bc50,68817205a84113384fffdfe3,68824dfe748df164f818dc44,,,,,,,,,,,,,1,,,,,,,,,,,,,,,,,,,,,,,,316.9771,318.3259,1,1,0.8086,,318.326,319.326,0,9,9,9,1,0,casa,REAL,FAKE,,,,,,,,,,,,,,,,,,,,,,,,,,,,,,,,
,,,,,,,,,60f5d5e358c70ad7a534bc50,Spanish,13 or older,"no, only English or Spanish",no,2025-07-24_11h15.52.728,empathy_intonation_perc_control,2024.2.4,MacIntel,59.88023952,60f5d5e358c70ad7a534bc50,68817205a84113384fffdfe3,68824dfe748df164f818dc44,,,,,,,,,,,,,0,,,,,,,,,,,,,,,,,,,,,,,,319.3273,320.7761,0,1,0.9078,,320.7762,321.7761,0,10,10,10,1,0,lejo,REAL,FAKE,,,,,,,,,,,,,,,,,,,,,,,,,,,,,,,,
,,,,,,,,,60f5d5e358c70ad7a534bc50,Spanish,13 or older,"no, only English or Spanish",no,2025-07-24_11h15.52.728,empathy_intonation_perc_control,2024.2.4,MacIntel,59.88023952,60f5d5e358c70ad7a534bc50,68817205a84113384fffdfe3,68824dfe748df164f818dc44,,,,,,,,,,,,,0,,,,,,,,,,,,,,,,,,,,,,,,321.7775,324.0751,1,0,1.7635,,324.0759,325.0764,0,11,11,11,1,0,pretantas,REAL,FAKE,,,,,,,,,,,,,,,,,,,,,,,,,,,,,,,,
,,,,,,,,,60f5d5e358c70ad7a534bc50,Spanish,13 or older,"no, only English or Spanish",no,2025-07-24_11h15.52.728,empathy_intonation_perc_control,2024.2.4,MacIntel,59.88023952,60f5d5e358c70ad7a534bc50,68817205a84113384fffdfe3,68824dfe748df164f818dc44,,,,,,,,,,,,,,,,,,,,,,,,,,,,,,,,,,,,,,,,,,,,,,,,,,,,,,325.0769,328.2256,,,,,,,,,,,,,,,,,,,,,,,,,,,,,,
,,,,,,,,,60f5d5e358c70ad7a534bc50,Spanish,13 or older,"no, only English or Spanish",no,2025-07-24_11h15.52.728,empathy_intonation_perc_control,2024.2.4,MacIntel,59.88023952,60f5d5e358c70ad7a534bc50,68817205a84113384fffdfe3,68824dfe748df164f818dc44,,,,,,,,,,,,,1,,,,,,,,,,,,,,,,,,,,,,,,,,,,,,,,,,,,,20,ávido,,,,,328.2363,330.2427,0,0,1.4814,,0,0,0,19,1,REAL,FAKE,,,,,,,,,,,,,,,,,
,,,,,,,,,60f5d5e358c70ad7a534bc50,Spanish,13 or older,"no, only English or Spanish",no,2025-07-24_11h15.52.728,empathy_intonation_perc_control,2024.2.4,MacIntel,59.88023952,60f5d5e358c70ad7a534bc50,68817205a84113384fffdfe3,68824dfe748df164f818dc44,,,,,,,,,,,,,1,,,,,,,,,,,,,,,,,,,,,,,,,,,,,,,,,,,,,41,rebuscar,,,,,330.2441,331.7766,0,0,0.9994,,0,1,1,40,1,REAL,FAKE,,,,,,,,,,,,,,,,,
,,,,,,,,,60f5d5e358c70ad7a534bc50,Spanish,13 or older,"no, only English or Spanish",no,2025-07-24_11h15.52.728,empathy_intonation_perc_control,2024.2.4,MacIntel,59.88023952,60f5d5e358c70ad7a534bc50,68817205a84113384fffdfe3,68824dfe748df164f818dc44,,,,,,,,,,,,,1,,,,,,,,,,,,,,,,,,,,,,,,,,,,,,,,,,,,,24,látigo,,,,,331.7778,333.0432,0,0,0.7238,,0,2,2,23,1,REAL,FAKE,,,,,,,,,,,,,,,,,
,,,,,,,,,60f5d5e358c70ad7a534bc50,Spanish,13 or older,"no, only English or Spanish",no,2025-07-24_11h15.52.728,empathy_intonation_perc_control,2024.2.4,MacIntel,59.88023952,60f5d5e358c70ad7a534bc50,68817205a84113384fffdfe3,68824dfe748df164f818dc44,,,,,,,,,,,,,1,,,,,,,,,,,,,,,,,,,,,,,,,,,,,,,,,,,,,57,tacaño,,,,,333.0443,334.243,0,0,0.6552,,0,3,3,56,1,REAL,FAKE,,,,,,,,,,,,,,,,,
,,,,,,,,,60f5d5e358c70ad7a534bc50,Spanish,13 or older,"no, only English or Spanish",no,2025-07-24_11h15.52.728,empathy_intonation_perc_control,2024.2.4,MacIntel,59.88023952,60f5d5e358c70ad7a534bc50,68817205a84113384fffdfe3,68824dfe748df164f818dc44,,,,,,,,,,,,,1,,,,,,,,,,,,,,,,,,,,,,,,,,,,,,,,,,,,,44,cuchara,,,,,334.2438,336.2265,1,1,1.4579,,0,4,4,43,1,REAL,FAKE,,,,,,,,,,,,,,,,,
,,,,,,,,,60f5d5e358c70ad7a534bc50,Spanish,13 or older,"no, only English or Spanish",no,2025-07-24_11h15.52.728,empathy_intonation_perc_control,2024.2.4,MacIntel,59.88023952,60f5d5e358c70ad7a534bc50,68817205a84113384fffdfe3,68824dfe748df164f818dc44,,,,,,,,,,,,,0,,,,,,,,,,,,,,,,,,,,,,,,,,,,,,,,,,,,,29,decar,,,,,336.2274,337.5433,0,1,0.7814,,0,5,5,28,1,REAL,FAKE,,,,,,,,,,,,,,,,,
,,,,,,,,,60f5d5e358c70ad7a534bc50,Spanish,13 or older,"no, only English or Spanish",no,2025-07-24_11h15.52.728,empathy_intonation_perc_control,2024.2.4,MacIntel,59.88023952,60f5d5e358c70ad7a534bc50,68817205a84113384fffdfe3,68824dfe748df164f818dc44,,,,,,,,,,,,,0,,,,,,,,,,,,,,,,,,,,,,,,,,,,,,,,,,,,,58,plaudir,,,,,337.5446,338.7103,0,1,0.6393,,0,6,6,57,1,REAL,FAKE,,,,,,,,,,,,,,,,,
,,,,,,,,,60f5d5e358c70ad7a534bc50,Spanish,13 or older,"no, only English or Spanish",no,2025-07-24_11h15.52.728,empathy_intonation_perc_control,2024.2.4,MacIntel,59.88023952,60f5d5e358c70ad7a534bc50,68817205a84113384fffdfe3,68824dfe748df164f818dc44,,,,,,,,,,,,,1,,,,,,,,,,,,,,,,,,,,,,,,,,,,,,,,,,,,,77,tiburón,,,,,338.7114,339.9437,0,0,0.7065,,0,7,7,76,1,REAL,FAKE,,,,,,,,,,,,,,,,,
,,,,,,,,,60f5d5e358c70ad7a534bc50,Spanish,13 or older,"no, only English or Spanish",no,2025-07-24_11h15.52.728,empathy_intonation_perc_control,2024.2.4,MacIntel,59.88023952,60f5d5e358c70ad7a534bc50,68817205a84113384fffdfe3,68824dfe748df164f818dc44,,,,,,,,,,,,,1,,,,,,,,,,,,,,,,,,,,,,,,,,,,,,,,,,,,,55,nevar,,,,,339.9448,341.2268,0,0,0.7456,,0,8,8,54,1,REAL,FAKE,,,,,,,,,,,,,,,,,
,,,,,,,,,60f5d5e358c70ad7a534bc50,Spanish,13 or older,"no, only English or Spanish",no,2025-07-24_11h15.52.728,empathy_intonation_perc_control,2024.2.4,MacIntel,59.88023952,60f5d5e358c70ad7a534bc50,68817205a84113384fffdfe3,68824dfe748df164f818dc44,,,,,,,,,,,,,1,,,,,,,,,,,,,,,,,,,,,,,,,,,,,,,,,,,,,39,torpe,,,,,341.2278,342.3936,0,0,0.6395,,0,9,9,38,1,REAL,FAKE,,,,,,,,,,,,,,,,,
,,,,,,,,,60f5d5e358c70ad7a534bc50,Spanish,13 or older,"no, only English or Spanish",no,2025-07-24_11h15.52.728,empathy_intonation_perc_control,2024.2.4,MacIntel,59.88023952,60f5d5e358c70ad7a534bc50,68817205a84113384fffdfe3,68824dfe748df164f818dc44,,,,,,,,,,,,,1,,,,,,,,,,,,,,,,,,,,,,,,,,,,,,,,,,,,,71,polvoriento,,,,,342.3947,343.6603,0,0,0.7283,,0,10,10,70,1,REAL,FAKE,,,,,,,,,,,,,,,,,
,,,,,,,,,60f5d5e358c70ad7a534bc50,Spanish,13 or older,"no, only English or Spanish",no,2025-07-24_11h15.52.728,empathy_intonation_perc_control,2024.2.4,MacIntel,59.88023952,60f5d5e358c70ad7a534bc50,68817205a84113384fffdfe3,68824dfe748df164f818dc44,,,,,,,,,,,,,0,,,,,,,,,,,,,,,,,,,,,,,,,,,,,,,,,,,,,30,alardio,,,,,343.6612,344.9598,0,1,0.7623,,0,11,11,29,1,REAL,FAKE,,,,,,,,,,,,,,,,,
,,,,,,,,,60f5d5e358c70ad7a534bc50,Spanish,13 or older,"no, only English or Spanish",no,2025-07-24_11h15.52.728,empathy_intonation_perc_control,2024.2.4,MacIntel,59.88023952,60f5d5e358c70ad7a534bc50,68817205a84113384fffdfe3,68824dfe748df164f818dc44,,,,,,,,,,,,,1,,,,,,,,,,,,,,,,,,,,,,,,,,,,,,,,,,,,,68,alegre,,,,,344.9604,346.3605,0,0,0.888,,0,12,12,67,1,REAL,FAKE,,,,,,,,,,,,,,,,,
,,,,,,,,,60f5d5e358c70ad7a534bc50,Spanish,13 or older,"no, only English or Spanish",no,2025-07-24_11h15.52.728,empathy_intonation_perc_control,2024.2.4,MacIntel,59.88023952,60f5d5e358c70ad7a534bc50,68817205a84113384fffdfe3,68824dfe748df164f818dc44,,,,,,,,,,,,,0,,,,,,,,,,,,,,,,,,,,,,,,,,,,,,,,,,,,,21,capillo,,,,,346.3617,347.6772,0,1,0.7789,,0,13,13,20,1,REAL,FAKE,,,,,,,,,,,,,,,,,
,,,,,,,,,60f5d5e358c70ad7a534bc50,Spanish,13 or older,"no, only English or Spanish",no,2025-07-24_11h15.52.728,empathy_intonation_perc_control,2024.2.4,MacIntel,59.88023952,60f5d5e358c70ad7a534bc50,68817205a84113384fffdfe3,68824dfe748df164f818dc44,,,,,,,,,,,,,1,,,,,,,,,,,,,,,,,,,,,,,,,,,,,,,,,,,,,25,bisagra,,,,,347.6786,349.0262,0,0,0.8134,,0,14,14,24,1,REAL,FAKE,,,,,,,,,,,,,,,,,
,,,,,,,,,60f5d5e358c70ad7a534bc50,Spanish,13 or older,"no, only English or Spanish",no,2025-07-24_11h15.52.728,empathy_intonation_perc_control,2024.2.4,MacIntel,59.88023952,60f5d5e358c70ad7a534bc50,68817205a84113384fffdfe3,68824dfe748df164f818dc44,,,,,,,,,,,,,1,,,,,,,,,,,,,,,,,,,,,,,,,,,,,,,,,,,,,54,fomentar,,,,,349.0274,350.294,0,0,0.7223,,0,15,15,53,1,REAL,FAKE,,,,,,,,,,,,,,,,,
,,,,,,,,,60f5d5e358c70ad7a534bc50,Spanish,13 or older,"no, only English or Spanish",no,2025-07-24_11h15.52.728,empathy_intonation_perc_control,2024.2.4,MacIntel,59.88023952,60f5d5e358c70ad7a534bc50,68817205a84113384fffdfe3,68824dfe748df164f818dc44,,,,,,,,,,,,,1,,,,,,,,,,,,,,,,,,,,,,,,,,,,,,,,,,,,,36,loro,,,,,350.2951,351.8275,0,0,0.996,,0,16,16,35,1,REAL,FAKE,,,,,,,,,,,,,,,,,
,,,,,,,,,60f5d5e358c70ad7a534bc50,Spanish,13 or older,"no, only English or Spanish",no,2025-07-24_11h15.52.728,empathy_intonation_perc_control,2024.2.4,MacIntel,59.88023952,60f5d5e358c70ad7a534bc50,68817205a84113384fffdfe3,68824dfe748df164f818dc44,,,,,,,,,,,,,1,,,,,,,,,,,,,,,,,,,,,,,,,,,,,,,,,,,,,73,hervidor,,,,,351.8291,353.1605,0,0,0.7973,,0,17,17,72,1,REAL,FAKE,,,,,,,,,,,,,,,,,
,,,,,,,,,60f5d5e358c70ad7a534bc50,Spanish,13 or older,"no, only English or Spanish",no,2025-07-24_11h15.52.728,empathy_intonation_perc_control,2024.2.4,MacIntel,59.88023952,60f5d5e358c70ad7a534bc50,68817205a84113384fffdfe3,68824dfe748df164f818dc44,,,,,,,,,,,,,1,,,,,,,,,,,,,,,,,,,,,,,,,,,,,,,,,,,,,62,flaco,,,,,353.1612,354.4941,1,1,0.8092,,0,18,18,61,1,REAL,FAKE,,,,,,,,,,,,,,,,,
,,,,,,,,,60f5d5e358c70ad7a534bc50,Spanish,13 or older,"no, only English or Spanish",no,2025-07-24_11h15.52.728,empathy_intonation_perc_control,2024.2.4,MacIntel,59.88023952,60f5d5e358c70ad7a534bc50,68817205a84113384fffdfe3,68824dfe748df164f818dc44,,,,,,,,,,,,,1,,,,,,,,,,,,,,,,,,,,,,,,,,,,,,,,,,,,,76,atar,,,,,354.4951,355.8776,0,0,0.8487,,0,19,19,75,1,REAL,FAKE,,,,,,,,,,,,,,,,,
,,,,,,,,,60f5d5e358c70ad7a534bc50,Spanish,13 or older,"no, only English or Spanish",no,2025-07-24_11h15.52.728,empathy_intonation_perc_control,2024.2.4,MacIntel,59.88023952,60f5d5e358c70ad7a534bc50,68817205a84113384fffdfe3,68824dfe748df164f818dc44,,,,,,,,,,,,,1,,,,,,,,,,,,,,,,,,,,,,,,,,,,,,,,,,,,,7,pésimo,,,,,355.8789,357.1276,0,0,0.7123,,0,20,20,6,1,REAL,FAKE,,,,,,,,,,,,,,,,,
,,,,,,,,,60f5d5e358c70ad7a534bc50,Spanish,13 or older,"no, only English or Spanish",no,2025-07-24_11h15.52.728,empathy_intonation_perc_control,2024.2.4,MacIntel,59.88023952,60f5d5e358c70ad7a534bc50,68817205a84113384fffdfe3,68824dfe748df164f818dc44,,,,,,,,,,,,,1,,,,,,,,,,,,,,,,,,,,,,,,,,,,,,,,,,,,,13,helar,,,,,357.1287,358.36,0,0,0.6956,,0,21,21,12,1,REAL,FAKE,,,,,,,,,,,,,,,,,
,,,,,,,,,60f5d5e358c70ad7a534bc50,Spanish,13 or older,"no, only English or Spanish",no,2025-07-24_11h15.52.728,empathy_intonation_perc_control,2024.2.4,MacIntel,59.88023952,60f5d5e358c70ad7a534bc50,68817205a84113384fffdfe3,68824dfe748df164f818dc44,,,,,,,,,,,,,1,,,,,,,,,,,,,,,,,,,,,,,,,,,,,,,,,,,,,85,laúd,,,,,358.3613,359.561,0,0,0.6623,,0,22,22,84,1,REAL,FAKE,,,,,,,,,,,,,,,,,
,,,,,,,,,60f5d5e358c70ad7a534bc50,Spanish,13 or older,"no, only English or Spanish",no,2025-07-24_11h15.52.728,empathy_intonation_perc_control,2024.2.4,MacIntel,59.88023952,60f5d5e358c70ad7a534bc50,68817205a84113384fffdfe3,68824dfe748df164f818dc44,,,,,,,,,,,,,0,,,,,,,,,,,,,,,,,,,,,,,,,,,,,,,,,,,,,4,batillón,,,,,359.562,360.7434,0,1,0.644,,0,23,23,3,1,REAL,FAKE,,,,,,,,,,,,,,,,,
,,,,,,,,,60f5d5e358c70ad7a534bc50,Spanish,13 or older,"no, only English or Spanish",no,2025-07-24_11h15.52.728,empathy_intonation_perc_control,2024.2.4,MacIntel,59.88023952,60f5d5e358c70ad7a534bc50,68817205a84113384fffdfe3,68824dfe748df164f818dc44,,,,,,,,,,,,,1,,,,,,,,,,,,,,,,,,,,,,,,,,,,,,,,,,,,,43,canela,,,,,360.7445,361.9777,0,0,0.7227,,0,24,24,42,1,REAL,FAKE,,,,,,,,,,,,,,,,,
,,,,,,,,,60f5d5e358c70ad7a534bc50,Spanish,13 or older,"no, only English or Spanish",no,2025-07-24_11h15.52.728,empathy_intonation_perc_control,2024.2.4,MacIntel,59.88023952,60f5d5e358c70ad7a534bc50,68817205a84113384fffdfe3,68824dfe748df164f818dc44,,,,,,,,,,,,,1,,,,,,,,,,,,,,,,,,,,,,,,,,,,,,,,,,,,,28,merodear,,,,,361.9789,363.228,0,0,0.7225,,0,25,25,27,1,REAL,FAKE,,,,,,,,,,,,,,,,,
,,,,,,,,,60f5d5e358c70ad7a534bc50,Spanish,13 or older,"no, only English or Spanish",no,2025-07-24_11h15.52.728,empathy_intonation_perc_control,2024.2.4,MacIntel,59.88023952,60f5d5e358c70ad7a534bc50,68817205a84113384fffdfe3,68824dfe748df164f818dc44,,,,,,,,,,,,,1,,,,,,,,,,,,,,,,,,,,,,,,,,,,,,,,,,,,,83,guante,,,,,363.2292,364.6937,0,0,0.9297,,0,26,26,82,1,REAL,FAKE,,,,,,,,,,,,,,,,,
,,,,,,,,,60f5d5e358c70ad7a534bc50,Spanish,13 or older,"no, only English or Spanish",no,2025-07-24_11h15.52.728,empathy_intonation_perc_control,2024.2.4,MacIntel,59.88023952,60f5d5e358c70ad7a534bc50,68817205a84113384fffdfe3,68824dfe748df164f818dc44,,,,,,,,,,,,,0,,,,,,,,,,,,,,,,,,,,,,,,,,,,,,,,,,,,,10,antar,,,,,364.6947,366.2781,0,1,1.0607,,0,27,27,9,1,REAL,FAKE,,,,,,,,,,,,,,,,,
,,,,,,,,,60f5d5e358c70ad7a534bc50,Spanish,13 or older,"no, only English or Spanish",no,2025-07-24_11h15.52.728,empathy_intonation_perc_control,2024.2.4,MacIntel,59.88023952,60f5d5e358c70ad7a534bc50,68817205a84113384fffdfe3,68824dfe748df164f818dc44,,,,,,,,,,,,,0,,,,,,,,,,,,,,,,,,,,,,,,,,,,,,,,,,,,,18,arsa,,,,,366.2792,367.5269,0,1,0.7222,,0,28,28,17,1,REAL,FAKE,,,,,,,,,,,,,,,,,
,,,,,,,,,60f5d5e358c70ad7a534bc50,Spanish,13 or older,"no, only English or Spanish",no,2025-07-24_11h15.52.728,empathy_intonation_perc_control,2024.2.4,MacIntel,59.88023952,60f5d5e358c70ad7a534bc50,68817205a84113384fffdfe3,68824dfe748df164f818dc44,,,,,,,,,,,,,1,,,,,,,,,,,,,,,,,,,,,,,,,,,,,,,,,,,,,2,pellizcar,,,,,367.528,368.7781,0,0,0.7263,,0,29,29,1,1,REAL,FAKE,,,,,,,,,,,,,,,,,
,,,,,,,,,60f5d5e358c70ad7a534bc50,Spanish,13 or older,"no, only English or Spanish",no,2025-07-24_11h15.52.728,empathy_intonation_perc_control,2024.2.4,MacIntel,59.88023952,60f5d5e358c70ad7a534bc50,68817205a84113384fffdfe3,68824dfe748df164f818dc44,,,,,,,,,,,,,0,,,,,,,,,,,,,,,,,,,,,,,,,,,,,,,,,,,,,82,empirador,,,,,368.7793,370.1782,0,1,0.8729,,0,30,30,81,1,REAL,FAKE,,,,,,,,,,,,,,,,,
,,,,,,,,,60f5d5e358c70ad7a534bc50,Spanish,13 or older,"no, only English or Spanish",no,2025-07-24_11h15.52.728,empathy_intonation_perc_control,2024.2.4,MacIntel,59.88023952,60f5d5e358c70ad7a534bc50,68817205a84113384fffdfe3,68824dfe748df164f818dc44,,,,,,,,,,,,,1,,,,,,,,,,,,,,,,,,,,,,,,,,,,,,,,,,,,,3,pulmones,,,,,370.1791,371.7615,0,0,1.0453,,0,31,31,2,1,REAL,FAKE,,,,,,,,,,,,,,,,,
,,,,,,,,,60f5d5e358c70ad7a534bc50,Spanish,13 or older,"no, only English or Spanish",no,2025-07-24_11h15.52.728,empathy_intonation_perc_control,2024.2.4,MacIntel,59.88023952,60f5d5e358c70ad7a534bc50,68817205a84113384fffdfe3,68824dfe748df164f818dc44,,,,,,,,,,,,,0,,,,,,,,,,,,,,,,,,,,,,,,,,,,,,,,,,,,,50,flamida,,,,,371.7624,373.1782,0,1,0.8727,,0,32,32,49,1,REAL,FAKE,,,,,,,,,,,,,,,,,
,,,,,,,,,60f5d5e358c70ad7a534bc50,Spanish,13 or older,"no, only English or Spanish",no,2025-07-24_11h15.52.728,empathy_intonation_perc_control,2024.2.4,MacIntel,59.88023952,60f5d5e358c70ad7a534bc50,68817205a84113384fffdfe3,68824dfe748df164f818dc44,,,,,,,,,,,,,1,,,,,,,,,,,,,,,,,,,,,,,,,,,,,,,,,,,,,86,barato,,,,,373.1794,375.462,0,0,1.7567,,0,33,33,85,1,REAL,FAKE,,,,,,,,,,,,,,,,,
,,,,,,,,,60f5d5e358c70ad7a534bc50,Spanish,13 or older,"no, only English or Spanish",no,2025-07-24_11h15.52.728,empathy_intonation_perc_control,2024.2.4,MacIntel,59.88023952,60f5d5e358c70ad7a534bc50,68817205a84113384fffdfe3,68824dfe748df164f818dc44,,,,,,,,,,,,,0,,,,,,,,,,,,,,,,,,,,,,,,,,,,,,,,,,,,,19,brecedad,,,,,375.4632,376.8448,0,1,0.8419,,0,34,34,18,1,REAL,FAKE,,,,,,,,,,,,,,,,,
,,,,,,,,,60f5d5e358c70ad7a534bc50,Spanish,13 or older,"no, only English or Spanish",no,2025-07-24_11h15.52.728,empathy_intonation_perc_control,2024.2.4,MacIntel,59.88023952,60f5d5e358c70ad7a534bc50,68817205a84113384fffdfe3,68824dfe748df164f818dc44,,,,,,,,,,,,,1,,,,,,,,,,,,,,,,,,,,,,,,,,,,,,,,,,,,,12,asesinato,,,,,376.8458,378.0942,0,0,0.7168,,0,35,35,11,1,REAL,FAKE,,,,,,,,,,,,,,,,,
,,,,,,,,,60f5d5e358c70ad7a534bc50,Spanish,13 or older,"no, only English or Spanish",no,2025-07-24_11h15.52.728,empathy_intonation_perc_control,2024.2.4,MacIntel,59.88023952,60f5d5e358c70ad7a534bc50,68817205a84113384fffdfe3,68824dfe748df164f818dc44,,,,,,,,,,,,,0,,,,,,,,,,,,,,,,,,,,,,,,,,,,,,,,,,,,,84,escuto,,,,,378.0951,379.5287,0,1,0.912,,0,36,36,83,1,REAL,FAKE,,,,,,,,,,,,,,,,,
,,,,,,,,,60f5d5e358c70ad7a534bc50,Spanish,13 or older,"no, only English or Spanish",no,2025-07-24_11h15.52.728,empathy_intonation_perc_control,2024.2.4,MacIntel,59.88023952,60f5d5e358c70ad7a534bc50,68817205a84113384fffdfe3,68824dfe748df164f818dc44,,,,,,,,,,,,,1,,,,,,,,,,,,,,,,,,,,,,,,,,,,,,,,,,,,,49,ganar,,,,,379.5298,380.8943,0,0,0.8302,,0,37,37,48,1,REAL,FAKE,,,,,,,,,,,,,,,,,
,,,,,,,,,60f5d5e358c70ad7a534bc50,Spanish,13 or older,"no, only English or Spanish",no,2025-07-24_11h15.52.728,empathy_intonation_perc_control,2024.2.4,MacIntel,59.88023952,60f5d5e358c70ad7a534bc50,68817205a84113384fffdfe3,68824dfe748df164f818dc44,,,,,,,,,,,,,1,,,,,,,,,,,,,,,,,,,,,,,,,,,,,,,,,,,,,6,tergiversar,,,,,380.8953,382.8455,0,0,1.4136,,0,38,38,5,1,REAL,FAKE,,,,,,,,,,,,,,,,,
,,,,,,,,,60f5d5e358c70ad7a534bc50,Spanish,13 or older,"no, only English or Spanish",no,2025-07-24_11h15.52.728,empathy_intonation_perc_control,2024.2.4,MacIntel,59.88023952,60f5d5e358c70ad7a534bc50,68817205a84113384fffdfe3,68824dfe748df164f818dc44,,,,,,,,,,,,,1,,,,,,,,,,,,,,,,,,,,,,,,,,,,,,,,,,,,,51,candado,,,,,382.8467,386.5622,1,1,3.1798,,0,39,39,50,1,REAL,FAKE,,,,,,,,,,,,,,,,,
,,,,,,,,,60f5d5e358c70ad7a534bc50,Spanish,13 or older,"no, only English or Spanish",no,2025-07-24_11h15.52.728,empathy_intonation_perc_control,2024.2.4,MacIntel,59.88023952,60f5d5e358c70ad7a534bc50,68817205a84113384fffdfe3,68824dfe748df164f818dc44,,,,,,,,,,,,,1,,,,,,,,,,,,,,,,,,,,,,,,,,,,,,,,,,,,,69,engatusar,,,,,386.5632,387.7789,0,0,0.6889,,0,40,40,68,1,REAL,FAKE,,,,,,,,,,,,,,,,,
,,,,,,,,,60f5d5e358c70ad7a534bc50,Spanish,13 or older,"no, only English or Spanish",no,2025-07-24_11h15.52.728,empathy_intonation_perc_control,2024.2.4,MacIntel,59.88023952,60f5d5e358c70ad7a534bc50,68817205a84113384fffdfe3,68824dfe748df164f818dc44,,,,,,,,,,,,,1,,,,,,,,,,,,,,,,,,,,,,,,,,,,,,,,,,,,,34,aviso,,,,,387.7798,389.0122,0,0,0.6983,,0,41,41,33,1,REAL,FAKE,,,,,,,,,,,,,,,,,
,,,,,,,,,60f5d5e358c70ad7a534bc50,Spanish,13 or older,"no, only English or Spanish",no,2025-07-24_11h15.52.728,empathy_intonation_perc_control,2024.2.4,MacIntel,59.88023952,60f5d5e358c70ad7a534bc50,68817205a84113384fffdfe3,68824dfe748df164f818dc44,,,,,,,,,,,,,0,,,,,,,,,,,,,,,,,,,,,,,,,,,,,,,,,,,,,42,cadallo,,,,,389.0129,390.4457,0,1,0.8992,,0,42,42,41,1,REAL,FAKE,,,,,,,,,,,,,,,,,
,,,,,,,,,60f5d5e358c70ad7a534bc50,Spanish,13 or older,"no, only English or Spanish",no,2025-07-24_11h15.52.728,empathy_intonation_perc_control,2024.2.4,MacIntel,59.88023952,60f5d5e358c70ad7a534bc50,68817205a84113384fffdfe3,68824dfe748df164f818dc44,,,,,,,,,,,,,0,,,,,,,,,,,,,,,,,,,,,,,,,,,,,,,,,,,,,66,hacido,,,,,390.4469,393.2292,0,1,2.2545,,0,43,43,65,1,REAL,FAKE,,,,,,,,,,,,,,,,,
,,,,,,,,,60f5d5e358c70ad7a534bc50,Spanish,13 or older,"no, only English or Spanish",no,2025-07-24_11h15.52.728,empathy_intonation_perc_control,2024.2.4,MacIntel,59.88023952,60f5d5e358c70ad7a534bc50,68817205a84113384fffdfe3,68824dfe748df164f818dc44,,,,,,,,,,,,,1,,,,,,,,,,,,,,,,,,,,,,,,,,,,,,,,,,,,,88,acantilado,,,,,393.2302,394.5115,0,0,0.7419,,0,44,44,87,1,REAL,FAKE,,,,,,,,,,,,,,,,,
,,,,,,,,,60f5d5e358c70ad7a534bc50,Spanish,13 or older,"no, only English or Spanish",no,2025-07-24_11h15.52.728,empathy_intonation_perc_control,2024.2.4,MacIntel,59.88023952,60f5d5e358c70ad7a534bc50,68817205a84113384fffdfe3,68824dfe748df164f818dc44,,,,,,,,,,,,,1,,,,,,,,,,,,,,,,,,,,,,,,,,,,,,,,,,,,,61,seda,,,,,394.5127,395.7958,0,0,0.7711,,0,45,45,60,1,REAL,FAKE,,,,,,,,,,,,,,,,,
,,,,,,,,,60f5d5e358c70ad7a534bc50,Spanish,13 or older,"no, only English or Spanish",no,2025-07-24_11h15.52.728,empathy_intonation_perc_control,2024.2.4,MacIntel,59.88023952,60f5d5e358c70ad7a534bc50,68817205a84113384fffdfe3,68824dfe748df164f818dc44,,,,,,,,,,,,,1,,,,,,,,,,,,,,,,,,,,,,,,,,,,,,,,,,,,,11,cenefa,,,,,395.7966,396.9961,0,0,0.6623,,0,46,46,10,1,REAL,FAKE,,,,,,,,,,,,,,,,,
,,,,,,,,,60f5d5e358c70ad7a534bc50,Spanish,13 or older,"no, only English or Spanish",no,2025-07-24_11h15.52.728,empathy_intonation_perc_control,2024.2.4,MacIntel,59.88023952,60f5d5e358c70ad7a534bc50,68817205a84113384fffdfe3,68824dfe748df164f818dc44,,,,,,,,,,,,,0,,,,,,,,,,,,,,,,,,,,,,,,,,,,,,,,,,,,,8,cadeña,,,,,396.9972,399.1452,0,1,1.6132,,0,47,47,7,1,REAL,FAKE,,,,,,,,,,,,,,,,,
,,,,,,,,,60f5d5e358c70ad7a534bc50,Spanish,13 or older,"no, only English or Spanish",no,2025-07-24_11h15.52.728,empathy_intonation_perc_control,2024.2.4,MacIntel,59.88023952,60f5d5e358c70ad7a534bc50,68817205a84113384fffdfe3,68824dfe748df164f818dc44,,,,,,,,,,,,,0,,,,,,,,,,,,,,,,,,,,,,,,,,,,,,,,,,,,,35,rompido,,,,,399.1462,400.5127,0,1,0.8462,,0,48,48,34,1,REAL,FAKE,,,,,,,,,,,,,,,,,
,,,,,,,,,60f5d5e358c70ad7a534bc50,Spanish,13 or older,"no, only English or Spanish",no,2025-07-24_11h15.52.728,empathy_intonation_perc_control,2024.2.4,MacIntel,59.88023952,60f5d5e358c70ad7a534bc50,68817205a84113384fffdfe3,68824dfe748df164f818dc44,,,,,,,,,,,,,1,,,,,,,,,,,,,,,,,,,,,,,,,,,,,,,,,,,,,91,click the 1 key.,,,,,400.5137,402.0953,1,1,1.038,,0,49,49,90,1,REAL,FAKE,,,,,,,,,,,,,,,,,
,,,,,,,,,60f5d5e358c70ad7a534bc50,Spanish,13 or older,"no, only English or Spanish",no,2025-07-24_11h15.52.728,empathy_intonation_perc_control,2024.2.4,MacIntel,59.88023952,60f5d5e358c70ad7a534bc50,68817205a84113384fffdfe3,68824dfe748df164f818dc44,,,,,,,,,,,,,1,,,,,,,,,,,,,,,,,,,,,,,,,,,,,,,,,,,,,60,matar,,,,,402.0964,403.463,0,0,0.8481,,0,50,50,59,1,REAL,FAKE,,,,,,,,,,,,,,,,,
,,,,,,,,,60f5d5e358c70ad7a534bc50,Spanish,13 or older,"no, only English or Spanish",no,2025-07-24_11h15.52.728,empathy_intonation_perc_control,2024.2.4,MacIntel,59.88023952,60f5d5e358c70ad7a534bc50,68817205a84113384fffdfe3,68824dfe748df164f818dc44,,,,,,,,,,,,,0,,,,,,,,,,,,,,,,,,,,,,,,,,,,,,,,,,,,,47,cartinar,,,,,403.4642,404.8131,0,1,0.8082,,0,51,51,46,1,REAL,FAKE,,,,,,,,,,,,,,,,,
,,,,,,,,,60f5d5e358c70ad7a534bc50,Spanish,13 or older,"no, only English or Spanish",no,2025-07-24_11h15.52.728,empathy_intonation_perc_control,2024.2.4,MacIntel,59.88023952,60f5d5e358c70ad7a534bc50,68817205a84113384fffdfe3,68824dfe748df164f818dc44,,,,,,,,,,,,,1,,,,,,,,,,,,,,,,,,,,,,,,,,,,,,,,,,,,,48,ladrón,,,,,404.8144,406.0459,0,0,0.6997,,0,52,52,47,1,REAL,FAKE,,,,,,,,,,,,,,,,,
,,,,,,,,,60f5d5e358c70ad7a534bc50,Spanish,13 or older,"no, only English or Spanish",no,2025-07-24_11h15.52.728,empathy_intonation_perc_control,2024.2.4,MacIntel,59.88023952,60f5d5e358c70ad7a534bc50,68817205a84113384fffdfe3,68824dfe748df164f818dc44,,,,,,,,,,,,,0,,,,,,,,,,,,,,,,,,,,,,,,,,,,,,,,,,,,,70,temblo,,,,,406.0471,407.4462,0,1,0.8535,,0,53,53,69,1,REAL,FAKE,,,,,,,,,,,,,,,,,
,,,,,,,,,60f5d5e358c70ad7a534bc50,Spanish,13 or older,"no, only English or Spanish",no,2025-07-24_11h15.52.728,empathy_intonation_perc_control,2024.2.4,MacIntel,59.88023952,60f5d5e358c70ad7a534bc50,68817205a84113384fffdfe3,68824dfe748df164f818dc44,,,,,,,,,,,,,1,,,,,,,,,,,,,,,,,,,,,,,,,,,,,,,,,,,,,64,orgulloso,,,,,407.4469,408.9133,0,0,0.9213,,0,54,54,63,1,REAL,FAKE,,,,,,,,,,,,,,,,,
,,,,,,,,,60f5d5e358c70ad7a534bc50,Spanish,13 or older,"no, only English or Spanish",no,2025-07-24_11h15.52.728,empathy_intonation_perc_control,2024.2.4,MacIntel,59.88023952,60f5d5e358c70ad7a534bc50,68817205a84113384fffdfe3,68824dfe748df164f818dc44,,,,,,,,,,,,,1,,,,,,,,,,,,,,,,,,,,,,,,,,,,,,,,,,,,,59,besar,,,,,408.9143,410.3472,0,0,0.8961,,0,55,55,58,1,REAL,FAKE,,,,,,,,,,,,,,,,,
,,,,,,,,,60f5d5e358c70ad7a534bc50,Spanish,13 or older,"no, only English or Spanish",no,2025-07-24_11h15.52.728,empathy_intonation_perc_control,2024.2.4,MacIntel,59.88023952,60f5d5e358c70ad7a534bc50,68817205a84113384fffdfe3,68824dfe748df164f818dc44,,,,,,,,,,,,,1,,,,,,,,,,,,,,,,,,,,,,,,,,,,,,,,,,,,,75,yacer,,,,,410.3482,411.68,0,0,0.7892,,0,56,56,74,1,REAL,FAKE,,,,,,,,,,,,,,,,,
,,,,,,,,,60f5d5e358c70ad7a534bc50,Spanish,13 or older,"no, only English or Spanish",no,2025-07-24_11h15.52.728,empathy_intonation_perc_control,2024.2.4,MacIntel,59.88023952,60f5d5e358c70ad7a534bc50,68817205a84113384fffdfe3,68824dfe748df164f818dc44,,,,,,,,,,,,,1,,,,,,,,,,,,,,,,,,,,,,,,,,,,,,,,,,,,,67,cabello,,,,,411.6812,415.1298,1,1,2.9228,,0,57,57,66,1,REAL,FAKE,,,,,,,,,,,,,,,,,
,,,,,,,,,60f5d5e358c70ad7a534bc50,Spanish,13 or older,"no, only English or Spanish",no,2025-07-24_11h15.52.728,empathy_intonation_perc_control,2024.2.4,MacIntel,59.88023952,60f5d5e358c70ad7a534bc50,68817205a84113384fffdfe3,68824dfe748df164f818dc44,,,,,,,,,,,,,0,,,,,,,,,,,,,,,,,,,,,,,,,,,,,,,,,,,,,92,click the 0 key.,,,,,415.1307,416.7969,0,1,1.1205,,0,58,58,91,1,REAL,FAKE,,,,,,,,,,,,,,,,,
,,,,,,,,,60f5d5e358c70ad7a534bc50,Spanish,13 or older,"no, only English or Spanish",no,2025-07-24_11h15.52.728,empathy_intonation_perc_control,2024.2.4,MacIntel,59.88023952,60f5d5e358c70ad7a534bc50,68817205a84113384fffdfe3,68824dfe748df164f818dc44,,,,,,,,,,,,,1,,,,,,,,,,,,,,,,,,,,,,,,,,,,,,,,,,,,,38,estornudar,,,,,416.798,423.5972,0,0,6.2729,,0,59,59,37,1,REAL,FAKE,,,,,,,,,,,,,,,,,
,,,,,,,,,60f5d5e358c70ad7a534bc50,Spanish,13 or older,"no, only English or Spanish",no,2025-07-24_11h15.52.728,empathy_intonation_perc_control,2024.2.4,MacIntel,59.88023952,60f5d5e358c70ad7a534bc50,68817205a84113384fffdfe3,68824dfe748df164f818dc44,,,,,,,,,,,,,1,,,,,,,,,,,,,,,,,,,,,,,,,,,,,,,,,,,,,89,prisa,,,,,423.5983,424.9306,0,0,0.8016,,0,60,60,88,1,REAL,FAKE,,,,,,,,,,,,,,,,,
,,,,,,,,,60f5d5e358c70ad7a534bc50,Spanish,13 or older,"no, only English or Spanish",no,2025-07-24_11h15.52.728,empathy_intonation_perc_control,2024.2.4,MacIntel,59.88023952,60f5d5e358c70ad7a534bc50,68817205a84113384fffdfe3,68824dfe748df164f818dc44,,,,,,,,,,,,,1,,,,,,,,,,,,,,,,,,,,,,,,,,,,,,,,,,,,,22,lacayo,,,,,424.9317,428.4629,0,0,3.0046,,0,61,61,21,1,REAL,FAKE,,,,,,,,,,,,,,,,,
,,,,,,,,,60f5d5e358c70ad7a534bc50,Spanish,13 or older,"no, only English or Spanish",no,2025-07-24_11h15.52.728,empathy_intonation_perc_control,2024.2.4,MacIntel,59.88023952,60f5d5e358c70ad7a534bc50,68817205a84113384fffdfe3,68824dfe748df164f818dc44,,,,,,,,,,,,,0,,,,,,,,,,,,,,,,,,,,,,,,,,,,,,,,,,,,,53,vegada,,,,,428.4635,430.4309,0,1,1.4381,,0,62,62,52,1,REAL,FAKE,,,,,,,,,,,,,,,,,
,,,,,,,,,60f5d5e358c70ad7a534bc50,Spanish,13 or older,"no, only English or Spanish",no,2025-07-24_11h15.52.728,empathy_intonation_perc_control,2024.2.4,MacIntel,59.88023952,60f5d5e358c70ad7a534bc50,68817205a84113384fffdfe3,68824dfe748df164f818dc44,,,,,,,,,,,,,0,,,,,,,,,,,,,,,,,,,,,,,,,,,,,,,,,,,,,1,terzo,,,,,430.4319,431.8976,0,1,0.9228,,0,63,63,0,1,REAL,FAKE,,,,,,,,,,,,,,,,,
,,,,,,,,,60f5d5e358c70ad7a534bc50,Spanish,13 or older,"no, only English or Spanish",no,2025-07-24_11h15.52.728,empathy_intonation_perc_control,2024.2.4,MacIntel,59.88023952,60f5d5e358c70ad7a534bc50,68817205a84113384fffdfe3,68824dfe748df164f818dc44,,,,,,,,,,,,,0,,,,,,,,,,,,,,,,,,,,,,,,,,,,,,,,,,,,,16,abracer,,,,,431.8987,433.4309,0,1,1.0059,,0,64,64,15,1,REAL,FAKE,,,,,,,,,,,,,,,,,
,,,,,,,,,60f5d5e358c70ad7a534bc50,Spanish,13 or older,"no, only English or Spanish",no,2025-07-24_11h15.52.728,empathy_intonation_perc_control,2024.2.4,MacIntel,59.88023952,60f5d5e358c70ad7a534bc50,68817205a84113384fffdfe3,68824dfe748df164f818dc44,,,,,,,,,,,,,0,,,,,,,,,,,,,,,,,,,,,,,,,,,,,,,,,,,,,27,acutación,,,,,433.432,435.414,0,1,1.4457,,0,65,65,26,1,REAL,FAKE,,,,,,,,,,,,,,,,,
,,,,,,,,,60f5d5e358c70ad7a534bc50,Spanish,13 or older,"no, only English or Spanish",no,2025-07-24_11h15.52.728,empathy_intonation_perc_control,2024.2.4,MacIntel,59.88023952,60f5d5e358c70ad7a534bc50,68817205a84113384fffdfe3,68824dfe748df164f818dc44,,,,,,,,,,,,,0,,,,,,,,,,,,,,,,,,,,,,,,,,,,,,,,,,,,,87,grodo,,,,,435.4151,436.7646,0,1,0.8181,,0,66,66,86,1,REAL,FAKE,,,,,,,,,,,,,,,,,
,,,,,,,,,60f5d5e358c70ad7a534bc50,Spanish,13 or older,"no, only English or Spanish",no,2025-07-24_11h15.52.728,empathy_intonation_perc_control,2024.2.4,MacIntel,59.88023952,60f5d5e358c70ad7a534bc50,68817205a84113384fffdfe3,68824dfe748df164f818dc44,,,,,,,,,,,,,1,,,,,,,,,,,,,,,,,,,,,,,,,,,,,,,,,,,,,56,musgo,,,,,436.7655,438.0644,0,0,0.7723,,0,67,67,55,1,REAL,FAKE,,,,,,,,,,,,,,,,,
,,,,,,,,,60f5d5e358c70ad7a534bc50,Spanish,13 or older,"no, only English or Spanish",no,2025-07-24_11h15.52.728,empathy_intonation_perc_control,2024.2.4,MacIntel,59.88023952,60f5d5e358c70ad7a534bc50,68817205a84113384fffdfe3,68824dfe748df164f818dc44,,,,,,,,,,,,,1,,,,,,,,,,,,,,,,,,,,,,,,,,,,,,,,,,,,,9,hacha,,,,,438.0654,439.4636,0,0,0.8611,,0,68,68,8,1,REAL,FAKE,,,,,,,,,,,,,,,,,
,,,,,,,,,60f5d5e358c70ad7a534bc50,Spanish,13 or older,"no, only English or Spanish",no,2025-07-24_11h15.52.728,empathy_intonation_perc_control,2024.2.4,MacIntel,59.88023952,60f5d5e358c70ad7a534bc50,68817205a84113384fffdfe3,68824dfe748df164f818dc44,,,,,,,,,,,,,1,,,,,,,,,,,,,,,,,,,,,,,,,,,,,,,,,,,,,15,regar,,,,,439.4648,440.747,0,0,0.7596,,0,69,69,14,1,REAL,FAKE,,,,,,,,,,,,,,,,,
,,,,,,,,,60f5d5e358c70ad7a534bc50,Spanish,13 or older,"no, only English or Spanish",no,2025-07-24_11h15.52.728,empathy_intonation_perc_control,2024.2.4,MacIntel,59.88023952,60f5d5e358c70ad7a534bc50,68817205a84113384fffdfe3,68824dfe748df164f818dc44,,,,,,,,,,,,,1,,,,,,,,,,,,,,,,,,,,,,,,,,,,,,,,,,,,,31,pandilla,,,,,440.7479,442.7638,0,0,1.5068,,0,70,70,30,1,REAL,FAKE,,,,,,,,,,,,,,,,,
,,,,,,,,,60f5d5e358c70ad7a534bc50,Spanish,13 or older,"no, only English or Spanish",no,2025-07-24_11h15.52.728,empathy_intonation_perc_control,2024.2.4,MacIntel,59.88023952,60f5d5e358c70ad7a534bc50,68817205a84113384fffdfe3,68824dfe748df164f818dc44,,,,,,,,,,,,,1,,,,,,,,,,,,,,,,,,,,,,,,,,,,,,,,,,,,,81,pozo,,,,,442.7644,443.8972,0,0,0.5983,,0,71,71,80,1,REAL,FAKE,,,,,,,,,,,,,,,,,
,,,,,,,,,60f5d5e358c70ad7a534bc50,Spanish,13 or older,"no, only English or Spanish",no,2025-07-24_11h15.52.728,empathy_intonation_perc_control,2024.2.4,MacIntel,59.88023952,60f5d5e358c70ad7a534bc50,68817205a84113384fffdfe3,68824dfe748df164f818dc44,,,,,,,,,,,,,1,,,,,,,,,,,,,,,,,,,,,,,,,,,,,,,,,,,,,26,secuestro,,,,,443.8982,445.098,0,0,0.6805,,0,72,72,25,1,REAL,FAKE,,,,,,,,,,,,,,,,,
,,,,,,,,,60f5d5e358c70ad7a534bc50,Spanish,13 or older,"no, only English or Spanish",no,2025-07-24_11h15.52.728,empathy_intonation_perc_control,2024.2.4,MacIntel,59.88023952,60f5d5e358c70ad7a534bc50,68817205a84113384fffdfe3,68824dfe748df164f818dc44,,,,,,,,,,,,,0,,,,,,,,,,,,,,,,,,,,,,,,,,,,,,,,,,,,,63,esposante,,,,,445.099,446.4484,0,1,0.8127,,0,73,73,62,1,REAL,FAKE,,,,,,,,,,,,,,,,,
,,,,,,,,,60f5d5e358c70ad7a534bc50,Spanish,13 or older,"no, only English or Spanish",no,2025-07-24_11h15.52.728,empathy_intonation_perc_control,2024.2.4,MacIntel,59.88023952,60f5d5e358c70ad7a534bc50,68817205a84113384fffdfe3,68824dfe748df164f818dc44,,,,,,,,,,,,,1,,,,,,,,,,,,,,,,,,,,,,,,,,,,,,,,,,,,,90,clavel,,,,,446.4497,447.6308,0,0,0.6548,,0,74,74,89,1,REAL,FAKE,,,,,,,,,,,,,,,,,
,,,,,,,,,60f5d5e358c70ad7a534bc50,Spanish,13 or older,"no, only English or Spanish",no,2025-07-24_11h15.52.728,empathy_intonation_perc_control,2024.2.4,MacIntel,59.88023952,60f5d5e358c70ad7a534bc50,68817205a84113384fffdfe3,68824dfe748df164f818dc44,,,,,,,,,,,,,0,,,,,,,,,,,,,,,,,,,,,,,,,,,,,,,,,,,,,72,pemición,,,,,447.6319,448.9147,0,1,0.7443,,0,75,75,71,1,REAL,FAKE,,,,,,,,,,,,,,,,,
,,,,,,,,,60f5d5e358c70ad7a534bc50,Spanish,13 or older,"no, only English or Spanish",no,2025-07-24_11h15.52.728,empathy_intonation_perc_control,2024.2.4,MacIntel,59.88023952,60f5d5e358c70ad7a534bc50,68817205a84113384fffdfe3,68824dfe748df164f818dc44,,,,,,,,,,,,,1,,,,,,,,,,,,,,,,,,,,,,,,,,,,,,,,,,,,,65,bizcocho,,,,,448.9155,450.2317,0,0,0.7789,,0,76,76,64,1,REAL,FAKE,,,,,,,,,,,,,,,,,
,,,,,,,,,60f5d5e358c70ad7a534bc50,Spanish,13 or older,"no, only English or Spanish",no,2025-07-24_11h15.52.728,empathy_intonation_perc_control,2024.2.4,MacIntel,59.88023952,60f5d5e358c70ad7a534bc50,68817205a84113384fffdfe3,68824dfe748df164f818dc44,,,,,,,,,,,,,1,,,,,,,,,,,,,,,,,,,,,,,,,,,,,,,,,,,,,78,frondoso,,,,,450.2327,451.5642,0,0,0.7939,,0,77,77,77,1,REAL,FAKE,,,,,,,,,,,,,,,,,
,,,,,,,,,60f5d5e358c70ad7a534bc50,Spanish,13 or older,"no, only English or Spanish",no,2025-07-24_11h15.52.728,empathy_intonation_perc_control,2024.2.4,MacIntel,59.88023952,60f5d5e358c70ad7a534bc50,68817205a84113384fffdfe3,68824dfe748df164f818dc44,,,,,,,,,,,,,1,,,,,,,,,,,,,,,,,,,,,,,,,,,,,,,,,,,,,40,alfombra,,,,,451.5651,452.7485,0,0,0.6609,,0,78,78,39,1,REAL,FAKE,,,,,,,,,,,,,,,,,
,,,,,,,,,60f5d5e358c70ad7a534bc50,Spanish,13 or older,"no, only English or Spanish",no,2025-07-24_11h15.52.728,empathy_intonation_perc_control,2024.2.4,MacIntel,59.88023952,60f5d5e358c70ad7a534bc50,68817205a84113384fffdfe3,68824dfe748df164f818dc44,,,,,,,,,,,,,1,,,,,,,,,,,,,,,,,,,,,,,,,,,,,,,,,,,,,80,hormiga,,,,,452.7497,454.2155,0,0,0.9421,,0,79,79,79,1,REAL,FAKE,,,,,,,,,,,,,,,,,
,,,,,,,,,60f5d5e358c70ad7a534bc50,Spanish,13 or older,"no, only English or Spanish",no,2025-07-24_11h15.52.728,empathy_intonation_perc_control,2024.2.4,MacIntel,59.88023952,60f5d5e358c70ad7a534bc50,68817205a84113384fffdfe3,68824dfe748df164f818dc44,,,,,,,,,,,,,0,,,,,,,,,,,,,,,,,,,,,,,,,,,,,,,,,,,,,33,pauca,,,,,454.2165,455.431,0,1,0.6837,,0,80,80,32,1,REAL,FAKE,,,,,,,,,,,,,,,,,
,,,,,,,,,60f5d5e358c70ad7a534bc50,Spanish,13 or older,"no, only English or Spanish",no,2025-07-24_11h15.52.728,empathy_intonation_perc_control,2024.2.4,MacIntel,59.88023952,60f5d5e358c70ad7a534bc50,68817205a84113384fffdfe3,68824dfe748df164f818dc44,,,,,,,,,,,,,0,,,,,,,,,,,,,,,,,,,,,,,,,,,,,,,,,,,,,23,lampera,,,,,455.4321,456.5652,0,1,0.5991,,0,81,81,22,1,REAL,FAKE,,,,,,,,,,,,,,,,,
,,,,,,,,,60f5d5e358c70ad7a534bc50,Spanish,13 or older,"no, only English or Spanish",no,2025-07-24_11h15.52.728,empathy_intonation_perc_control,2024.2.4,MacIntel,59.88023952,60f5d5e358c70ad7a534bc50,68817205a84113384fffdfe3,68824dfe748df164f818dc44,,,,,,,,,,,,,0,,,,,,,,,,,,,,,,,,,,,,,,,,,,,,,,,,,,,74,cintro,,,,,456.5665,457.9809,0,1,0.8889,,0,82,82,73,1,REAL,FAKE,,,,,,,,,,,,,,,,,
,,,,,,,,,60f5d5e358c70ad7a534bc50,Spanish,13 or older,"no, only English or Spanish",no,2025-07-24_11h15.52.728,empathy_intonation_perc_control,2024.2.4,MacIntel,59.88023952,60f5d5e358c70ad7a534bc50,68817205a84113384fffdfe3,68824dfe748df164f818dc44,,,,,,,,,,,,,1,,,,,,,,,,,,,,,,,,,,,,,,,,,,,,,,,,,,,45,jilguero,,,,,457.982,459.099,0,0,0.6011,,0,83,83,44,1,REAL,FAKE,,,,,,,,,,,,,,,,,
,,,,,,,,,60f5d5e358c70ad7a534bc50,Spanish,13 or older,"no, only English or Spanish",no,2025-07-24_11h15.52.728,empathy_intonation_perc_control,2024.2.4,MacIntel,59.88023952,60f5d5e358c70ad7a534bc50,68817205a84113384fffdfe3,68824dfe748df164f818dc44,,,,,,,,,,,,,1,,,,,,,,,,,,,,,,,,,,,,,,,,,,,,,,,,,,,46,martillo,,,,,459.1002,460.4645,0,0,0.8308,,0,84,84,45,1,REAL,FAKE,,,,,,,,,,,,,,,,,
,,,,,,,,,60f5d5e358c70ad7a534bc50,Spanish,13 or older,"no, only English or Spanish",no,2025-07-24_11h15.52.728,empathy_intonation_perc_control,2024.2.4,MacIntel,59.88023952,60f5d5e358c70ad7a534bc50,68817205a84113384fffdfe3,68824dfe748df164f818dc44,,,,,,,,,,,,,0,,,,,,,,,,,,,,,,,,,,,,,,,,,,,,,,,,,,,79,tropaje,,,,,460.4655,461.6321,0,1,0.6504,,0,85,85,78,1,REAL,FAKE,,,,,,,,,,,,,,,,,
,,,,,,,,,60f5d5e358c70ad7a534bc50,Spanish,13 or older,"no, only English or Spanish",no,2025-07-24_11h15.52.728,empathy_intonation_perc_control,2024.2.4,MacIntel,59.88023952,60f5d5e358c70ad7a534bc50,68817205a84113384fffdfe3,68824dfe748df164f818dc44,,,,,,,,,,,,,0,,,,,,,,,,,,,,,,,,,,,,,,,,,,,,,,,,,,,32,fatacidad,,,,,461.6334,462.9491,0,1,0.7905,,0,86,86,31,1,REAL,FAKE,,,,,,,,,,,,,,,,,
,,,,,,,,,60f5d5e358c70ad7a534bc50,Spanish,13 or older,"no, only English or Spanish",no,2025-07-24_11h15.52.728,empathy_intonation_perc_control,2024.2.4,MacIntel,59.88023952,60f5d5e358c70ad7a534bc50,68817205a84113384fffdfe3,68824dfe748df164f818dc44,,,,,,,,,,,,,1,,,,,,,,,,,,,,,,,,,,,,,,,,,,,,,,,,,,,52,camisa,,,,,462.9502,466.2823,1,1,2.7937,,0,87,87,51,1,REAL,FAKE,,,,,,,,,,,,,,,,,
,,,,,,,,,60f5d5e358c70ad7a534bc50,Spanish,13 or older,"no, only English or Spanish",no,2025-07-24_11h15.52.728,empathy_intonation_perc_control,2024.2.4,MacIntel,59.88023952,60f5d5e358c70ad7a534bc50,68817205a84113384fffdfe3,68824dfe748df164f818dc44,,,,,,,,,,,,,1,,,,,,,,,,,,,,,,,,,,,,,,,,,,,,,,,,,,,37,granuja,,,,,466.2831,467.5158,0,0,0.6987,,0,88,88,36,1,REAL,FAKE,,,,,,,,,,,,,,,,,
,,,,,,,,,60f5d5e358c70ad7a534bc50,Spanish,13 or older,"no, only English or Spanish",no,2025-07-24_11h15.52.728,empathy_intonation_perc_control,2024.2.4,MacIntel,59.88023952,60f5d5e358c70ad7a534bc50,68817205a84113384fffdfe3,68824dfe748df164f818dc44,,,,,,,,,,,,,1,,,,,,,,,,,,,,,,,,,,,,,,,,,,,,,,,,,,,5,zapato,,,,,467.5169,468.8651,0,0,0.8213,,0,89,89,4,1,REAL,FAKE,,,,,,,,,,,,,,,,,
,,,,,,,,,60f5d5e358c70ad7a534bc50,Spanish,13 or older,"no, only English or Spanish",no,2025-07-24_11h15.52.728,empathy_intonation_perc_control,2024.2.4,MacIntel,59.88023952,60f5d5e358c70ad7a534bc50,68817205a84113384fffdfe3,68824dfe748df164f818dc44,,,,,,,,,,,,,1,,,,,,,,,,,,,,,,,,,,,,,,,,,,,,,,,,,,,14,yunque,,,,,468.8657,469.9828,0,0,0.6076,,0,90,90,13,1,REAL,FAKE,,,,,,,,,,,,,,,,,
,,,,,,,,,60f5d5e358c70ad7a534bc50,Spanish,13 or older,"no, only English or Spanish",no,2025-07-24_11h15.52.728,empathy_intonation_perc_control,2024.2.4,MacIntel,59.88023952,60f5d5e358c70ad7a534bc50,68817205a84113384fffdfe3,68824dfe748df164f818dc44,,,,,,,,,,,,,0,,,,,,,,,,,,,,,,,,,,,,,,,,,,,,,,,,,,,17,floroso,,,,,469.9841,471.1493,0,1,0.6296,,0,91,91,16,1,REAL,FAKE,,,,,,,,,,,,,,,,,
,,,,,,,,,60f5d5e358c70ad7a534bc50,Spanish,13 or older,"no, only English or Spanish",no,2025-07-24_11h15.52.728,empathy_intonation_perc_control,2024.2.4,MacIntel,59.88023952,60f5d5e358c70ad7a534bc50,68817205a84113384fffdfe3,68824dfe748df164f818dc44,,,,,,,,,,,,,,,,,,,,,,,,,,,,,,,,,,,,,,,,,,,,,,,,,,,,,,,,,,,,,,,,,,,,,471.1497,479.3169,,,,,,,,,,,,,,,
,,,,,,,,,60f5d5e358c70ad7a534bc50,Spanish,13 or older,"no, only English or Spanish",no,2025-07-24_11h15.52.728,empathy_intonation_perc_control,2024.2.4,MacIntel,59.88023952,60f5d5e358c70ad7a534bc50,68817205a84113384fffdfe3,68824dfe748df164f818dc44,,,,,,,,,,,,,,,,,,,,,,,,,,,1,,,,,,,,,,,,,,,,,,,,,,,,,,,,,,,,,,,,,,,,,,,,479.3285,482.6995,slightly agree,0,0,0,0,1,I can easily tell if someone else wants to enter a conversation.,1,0,1,0,,
,,,,,,,,,60f5d5e358c70ad7a534bc50,Spanish,13 or older,"no, only English or Spanish",no,2025-07-24_11h15.52.728,empathy_intonation_perc_control,2024.2.4,MacIntel,59.88023952,60f5d5e358c70ad7a534bc50,68817205a84113384fffdfe3,68824dfe748df164f818dc44,,,,,,,,,,,,,,,,,,,,,,,,,,,2,,,,,,,,,,,,,,,,,,,,,,,,,,,,,,,,,,,,,,,,,,,,482.7003,487.5165,slightly agree,0,1,1,1,1,I prefer animals to humans.,0,1,0,0,,
,,,,,,,,,60f5d5e358c70ad7a534bc50,Spanish,13 or older,"no, only English or Spanish",no,2025-07-24_11h15.52.728,empathy_intonation_perc_control,2024.2.4,MacIntel,59.88023952,60f5d5e358c70ad7a534bc50,68817205a84113384fffdfe3,68824dfe748df164f818dc44,,,,,,,,,,,,,,,,,,,,,,,,,,,3,,,,,,,,,,,,,,,,,,,,,,,,,,,,,,,,,,,,,,,,,,,,487.5176,495.1668,slightly disagree,0,2,2,2,1,I try to keep up with the current trends and fashions.,0,1,0,0,,
,,,,,,,,,60f5d5e358c70ad7a534bc50,Spanish,13 or older,"no, only English or Spanish",no,2025-07-24_11h15.52.728,empathy_intonation_perc_control,2024.2.4,MacIntel,59.88023952,60f5d5e358c70ad7a534bc50,68817205a84113384fffdfe3,68824dfe748df164f818dc44,,,,,,,,,,,,,,,,,,,,,,,,,,,4,,,,,,,,,,,,,,,,,,,,,,,,,,,,,,,,,,,,,,,,,,,,495.1682,502.4672,slightly agree,0,3,3,3,1,"I find it difficult to explain to others things that I understand easily,   when they don't understand it first time.",1,0,0,1,,
,,,,,,,,,60f5d5e358c70ad7a534bc50,Spanish,13 or older,"no, only English or Spanish",no,2025-07-24_11h15.52.728,empathy_intonation_perc_control,2024.2.4,MacIntel,59.88023952,60f5d5e358c70ad7a534bc50,68817205a84113384fffdfe3,68824dfe748df164f818dc44,,,,,,,,,,,,,,,,,,,,,,,,,,,5,,,,,,,,,,,,,,,,,,,,,,,,,,,,,,,,,,,,,,,,,,,,502.4682,506.1173,slightly agree,0,4,4,4,1,I dream most nights.,0,1,0,0,,
,,,,,,,,,60f5d5e358c70ad7a534bc50,Spanish,13 or older,"no, only English or Spanish",no,2025-07-24_11h15.52.728,empathy_intonation_perc_control,2024.2.4,MacIntel,59.88023952,60f5d5e358c70ad7a534bc50,68817205a84113384fffdfe3,68824dfe748df164f818dc44,,,,,,,,,,,,,,,,,,,,,,,,,,,6,,,,,,,,,,,,,,,,,,,,,,,,,,,,,,,,,,,,,,,,,,,,506.1183,508.2673,slightly agree,0,5,5,5,1,I really enjoy caring for other people.,1,0,1,0,,
,,,,,,,,,60f5d5e358c70ad7a534bc50,Spanish,13 or older,"no, only English or Spanish",no,2025-07-24_11h15.52.728,empathy_intonation_perc_control,2024.2.4,MacIntel,59.88023952,60f5d5e358c70ad7a534bc50,68817205a84113384fffdfe3,68824dfe748df164f818dc44,,,,,,,,,,,,,,,,,,,,,,,,,,,7,,,,,,,,,,,,,,,,,,,,,,,,,,,,,,,,,,,,,,,,,,,,508.2682,510.8014,slightly agree,0,6,6,6,1,I try to solve my own problems rather than discussing them with others.,0,1,0,0,,
,,,,,,,,,60f5d5e358c70ad7a534bc50,Spanish,13 or older,"no, only English or Spanish",no,2025-07-24_11h15.52.728,empathy_intonation_perc_control,2024.2.4,MacIntel,59.88023952,60f5d5e358c70ad7a534bc50,68817205a84113384fffdfe3,68824dfe748df164f818dc44,,,,,,,,,,,,,,,,,,,,,,,,,,,8,,,,,,,,,,,,,,,,,,,,,,,,,,,,,,,,,,,,,,,,,,,,510.8023,514.0177,slightly disagree,0,7,7,7,1,I find it hard to know what to do in a social situation.,1,0,0,1,,
,,,,,,,,,60f5d5e358c70ad7a534bc50,Spanish,13 or older,"no, only English or Spanish",no,2025-07-24_11h15.52.728,empathy_intonation_perc_control,2024.2.4,MacIntel,59.88023952,60f5d5e358c70ad7a534bc50,68817205a84113384fffdfe3,68824dfe748df164f818dc44,,,,,,,,,,,,,,,,,,,,,,,,,,,9,,,,,,,,,,,,,,,,,,,,,,,,,,,,,,,,,,,,,,,,,,,,514.0187,517.2679,slightly disagree,0,8,8,8,1,I am at my best first thing in the morning.,0,1,0,0,,
,,,,,,,,,60f5d5e358c70ad7a534bc50,Spanish,13 or older,"no, only English or Spanish",no,2025-07-24_11h15.52.728,empathy_intonation_perc_control,2024.2.4,MacIntel,59.88023952,60f5d5e358c70ad7a534bc50,68817205a84113384fffdfe3,68824dfe748df164f818dc44,,,,,,,,,,,,,,,,,,,,,,,,,,,10,,,,,,,,,,,,,,,,,,,,,,,,,,,,,,,,,,,,,,,,,,,,517.2691,522.0015,slightly disagree,0,9,9,9,1,People often tell me that I went too far in driving my point home in a discussion.,1,0,0,1,,
,,,,,,,,,60f5d5e358c70ad7a534bc50,Spanish,13 or older,"no, only English or Spanish",no,2025-07-24_11h15.52.728,empathy_intonation_perc_control,2024.2.4,MacIntel,59.88023952,60f5d5e358c70ad7a534bc50,68817205a84113384fffdfe3,68824dfe748df164f818dc44,,,,,,,,,,,,,,,,,,,,,,,,,,,11,,,,,,,,,,,,,,,,,,,,,,,,,,,,,,,,,,,,,,,,,,,,522.0031,526.1514,strongly disagree,0,10,10,10,1,It doesn't bother me too much if I am late meeting a friend.,1,0,0,1,,
,,,,,,,,,60f5d5e358c70ad7a534bc50,Spanish,13 or older,"no, only English or Spanish",no,2025-07-24_11h15.52.728,empathy_intonation_perc_control,2024.2.4,MacIntel,59.88023952,60f5d5e358c70ad7a534bc50,68817205a84113384fffdfe3,68824dfe748df164f818dc44,,,,,,,,,,,,,,,,,,,,,,,,,,,12,,,,,,,,,,,,,,,,,,,,,,,,,,,,,,,,,,,,,,,,,,,,526.1525,529.935,slightly disagree,0,11,11,11,1,"Friendships and relationships are just too difficult, so I tend not to 
  bother with them.",1,0,0,1,,
,,,,,,,,,60f5d5e358c70ad7a534bc50,Spanish,13 or older,"no, only English or Spanish",no,2025-07-24_11h15.52.728,empathy_intonation_perc_control,2024.2.4,MacIntel,59.88023952,60f5d5e358c70ad7a534bc50,68817205a84113384fffdfe3,68824dfe748df164f818dc44,,,,,,,,,,,,,,,,,,,,,,,,,,,13,,,,,,,,,,,,,,,,,,,,,,,,,,,,,,,,,,,,,,,,,,,,529.9361,532.6018,strongly disagree,0,12,12,12,1,"I would never break a law, no matter how minor.",0,1,0,0,,
,,,,,,,,,60f5d5e358c70ad7a534bc50,Spanish,13 or older,"no, only English or Spanish",no,2025-07-24_11h15.52.728,empathy_intonation_perc_control,2024.2.4,MacIntel,59.88023952,60f5d5e358c70ad7a534bc50,68817205a84113384fffdfe3,68824dfe748df164f818dc44,,,,,,,,,,,,,,,,,,,,,,,,,,,14,,,,,,,,,,,,,,,,,,,,,,,,,,,,,,,,,,,,,,,,,,,,532.6028,536.1518,slightly disagree,0,13,13,13,1,I often find it difficult to judge if something is rude or polite.,1,0,0,1,,
,,,,,,,,,60f5d5e358c70ad7a534bc50,Spanish,13 or older,"no, only English or Spanish",no,2025-07-24_11h15.52.728,empathy_intonation_perc_control,2024.2.4,MacIntel,59.88023952,60f5d5e358c70ad7a534bc50,68817205a84113384fffdfe3,68824dfe748df164f818dc44,,,,,,,,,,,,,,,,,,,,,,,,,,,15,,,,,,,,,,,,,,,,,,,,,,,,,,,,,,,,,,,,,,,,,,,,536.1528,542.1859,slightly disagree,0,14,14,14,1,"In a conversation, I tend to focus on my own thoughts rather than on what 
  my listener might be thinking.",1,0,0,1,,
,,,,,,,,,60f5d5e358c70ad7a534bc50,Spanish,13 or older,"no, only English or Spanish",no,2025-07-24_11h15.52.728,empathy_intonation_perc_control,2024.2.4,MacIntel,59.88023952,60f5d5e358c70ad7a534bc50,68817205a84113384fffdfe3,68824dfe748df164f818dc44,,,,,,,,,,,,,,,,,,,,,,,,,,,16,,,,,,,,,,,,,,,,,,,,,,,,,,,,,,,,,,,,,,,,,,,,542.1869,545.8191,strongly disagree,0,15,15,15,1,I prefer practical jokes to verbal humor.,0,1,0,0,,
,,,,,,,,,60f5d5e358c70ad7a534bc50,Spanish,13 or older,"no, only English or Spanish",no,2025-07-24_11h15.52.728,empathy_intonation_perc_control,2024.2.4,MacIntel,59.88023952,60f5d5e358c70ad7a534bc50,68817205a84113384fffdfe3,68824dfe748df164f818dc44,,,,,,,,,,,,,,,,,,,,,,,,,,,17,,,,,,,,,,,,,,,,,,,,,,,,,,,,,,,,,,,,,,,,,,,,545.8203,549.6694,slightly agree,0,16,16,16,1,I live life for today rather than the future.,0,1,0,0,,
,,,,,,,,,60f5d5e358c70ad7a534bc50,Spanish,13 or older,"no, only English or Spanish",no,2025-07-24_11h15.52.728,empathy_intonation_perc_control,2024.2.4,MacIntel,59.88023952,60f5d5e358c70ad7a534bc50,68817205a84113384fffdfe3,68824dfe748df164f818dc44,,,,,,,,,,,,,,,,,,,,,,,,,,,18,,,,,,,,,,,,,,,,,,,,,,,,,,,,,,,,,,,,,,,,,,,,549.6708,553.6028,strongly disagree,0,17,17,17,1,"When I was a child, I enjoyed cutting up worms to see what would happen.",1,0,0,1,,
,,,,,,,,,60f5d5e358c70ad7a534bc50,Spanish,13 or older,"no, only English or Spanish",no,2025-07-24_11h15.52.728,empathy_intonation_perc_control,2024.2.4,MacIntel,59.88023952,60f5d5e358c70ad7a534bc50,68817205a84113384fffdfe3,68824dfe748df164f818dc44,,,,,,,,,,,,,,,,,,,,,,,,,,,19,,,,,,,,,,,,,,,,,,,,,,,,,,,,,,,,,,,,,,,,,,,,553.6042,557.2697,slightly disagree,0,18,18,18,1,I can pick up quickly if someone says one thing but means another.,1,0,1,0,,
,,,,,,,,,60f5d5e358c70ad7a534bc50,Spanish,13 or older,"no, only English or Spanish",no,2025-07-24_11h15.52.728,empathy_intonation_perc_control,2024.2.4,MacIntel,59.88023952,60f5d5e358c70ad7a534bc50,68817205a84113384fffdfe3,68824dfe748df164f818dc44,,,,,,,,,,,,,,,,,,,,,,,,,,,20,,,,,,,,,,,,,,,,,,,,,,,,,,,,,,,,,,,,,,,,,,,,557.2706,561.7364,slightly agree,0,19,19,19,1,I tend to have very strong opinions about morality.,0,1,0,0,,
,,,,,,,,,60f5d5e358c70ad7a534bc50,Spanish,13 or older,"no, only English or Spanish",no,2025-07-24_11h15.52.728,empathy_intonation_perc_control,2024.2.4,MacIntel,59.88023952,60f5d5e358c70ad7a534bc50,68817205a84113384fffdfe3,68824dfe748df164f818dc44,,,,,,,,,,,,,,,,,,,,,,,,,,,21,,,,,,,,,,,,,,,,,,,,,,,,,,,,,,,,,,,,,,,,,,,,561.7375,566.1699,slightly disagree,0,20,20,20,1,It is hard for me to see why some things upset people so much.,1,0,0,1,,
,,,,,,,,,60f5d5e358c70ad7a534bc50,Spanish,13 or older,"no, only English or Spanish",no,2025-07-24_11h15.52.728,empathy_intonation_perc_control,2024.2.4,MacIntel,59.88023952,60f5d5e358c70ad7a534bc50,68817205a84113384fffdfe3,68824dfe748df164f818dc44,,,,,,,,,,,,,,,,,,,,,,,,,,,22,,,,,,,,,,,,,,,,,,,,,,,,,,,,,,,,,,,,,,,,,,,,566.1709,569.1868,slightly agree,0,21,21,21,1,I find it easy to put myself in somebody else's shoes.,1,0,1,0,,
,,,,,,,,,60f5d5e358c70ad7a534bc50,Spanish,13 or older,"no, only English or Spanish",no,2025-07-24_11h15.52.728,empathy_intonation_perc_control,2024.2.4,MacIntel,59.88023952,60f5d5e358c70ad7a534bc50,68817205a84113384fffdfe3,68824dfe748df164f818dc44,,,,,,,,,,,,,,,,,,,,,,,,,,,23,,,,,,,,,,,,,,,,,,,,,,,,,,,,,,,,,,,,,,,,,,,,569.1877,572.6204,strongly disagree,0,22,22,22,1,I think that good manners are the most important thing a parent can teach their child.,0,1,0,0,,
