instructions_2afc.started,instructions_2afc.stopped,instructions_2afc_loop.thisRepN,instructions_2afc_loop.thisTrialN,instructions_2afc_loop.thisN,instructions_2afc_loop.thisIndex,instructions_2afc_loop.ran,instructions_text,continue_text,participant_id,"What variety of Spanish are you most familiar with? (e.g., Peruvian, Spanish, Mexican)",At what age did you begin learning Spanish?,Are you proficient in any languages other than English/Spanish?,"Are you familiar with Caribbean (e.g., Caribbean, Puerto Rican) or Galician Spanish?",date,expName,psychopyVersion,OS,frameRate,id,study_id,session,practice_2afc.started,practice_2afc.stopped,key_resp_2afc_practice.keys,key_resp_2afc_practice.corr,key_resp_2afc_practice.rt,key_resp_2afc_practice.duration,trials_2afc_practice_loop.thisRepN,trials_2afc_practice_loop.thisTrialN,trials_2afc_practice_loop.thisN,trials_2afc_practice_loop.thisIndex,trials_2afc_practice_loop.ran,path,correct_response,check_2afc.started,check_2afc.stopped,trial_2afc.started,trial_2afc.stopped,key_resp_2afc_trial.keys,key_resp_2afc_trial.corr,key_resp_2afc_trial.rt,key_resp_2afc_trial.duration,trials_2afc_loop.thisRepN,trials_2afc_loop.thisTrialN,trials_2afc_loop.thisN,trials_2afc_loop.thisIndex,trials_2afc_loop.ran,item_num,target,variety,instructions_lextale.started,instructions_lextale.stopped,instructions_lextale_loop.thisRepN,instructions_lextale_loop.thisTrialN,instructions_lextale_loop.thisN,instructions_lextale_loop.thisIndex,instructions_lextale_loop.ran,practice_lextale.started,practice_lextale.stopped,key_resp_lextale_practice.keys,key_resp_lextale_practice.corr,key_resp_lextale_practice.rt,key_resp_lextale_practice.duration,practice_feedback_lextale.started,practice_feedback_lextale.stopped,trials_lextale_practice_loop.thisRepN,trials_lextale_practice_loop.thisTrialN,trials_lextale_practice_loop.thisN,trials_lextale_practice_loop.thisIndex,trials_lextale_practice_loop.ran,stim,word,prac_button_real,prac_button_false,check_lextale.started,check_lextale.stopped,trial_lextale.started,trial_lextale.stopped,key_resp_lextale_trial.keys,key_resp_lextale_trial.corr,key_resp_lextale_trial.rt,key_resp_lextale_trial.duration,trials_lextale_loop.thisRepN,trials_lextale_loop.thisTrialN,trials_lextale_loop.thisN,trials_lextale_loop.thisIndex,trials_lextale_loop.ran,button_real,button_false,instructions_eq.started,instructions_eq.stopped,trial_eq.started,trial_eq.stopped,slider_eq_trial.response,trials_eq_loop.thisRepN,trials_eq_loop.thisTrialN,trials_eq_loop.thisN,trials_eq_loop.thisIndex,trials_eq_loop.ran,item,is_test_item,is_distractor,is_agree_score,is_disagree_score,end_exp.started,end_exp.stopped
0.0158,2.6533,0,0,0,0,1,"In the following task you are going to hear a series of utterances. 

  You will decide if the utterances sound like questions or not using your keyboard.", (press the spacebar to continue),60fed4a51b41974258558dbe,mexican,13 or older,"yes, I am fluent in another language",no,2025-07-24_09h26.03.345,empathy_intonation_perc_control,2024.2.4,Win32,59.88023952,60fed4a51b41974258558dbe,68817205a84113384fffdfe3,68823425bf2384fd07e0fc8d,,,,,,,,,,,,,,,,,,,,,,,,,,,,,,,,,,,,,,,,,,,,,,,,,,,,,,,,,,,,,,,,,,,,,,,,,,,,,,,,,,,,,
2.654,29.6197,0,1,1,1,1,"If you believe the utterance is a question, type '1' (for 'yes') and if you do not 
  believe it is a question type '0' (for 'no').

  Let's practice a bit...", (press the spacebar to continue),60fed4a51b41974258558dbe,mexican,13 or older,"yes, I am fluent in another language",no,2025-07-24_09h26.03.345,empathy_intonation_perc_control,2024.2.4,Win32,59.88023952,60fed4a51b41974258558dbe,68817205a84113384fffdfe3,68823425bf2384fd07e0fc8d,,,,,,,,,,,,,,,,,,,,,,,,,,,,,,,,,,,,,,,,,,,,,,,,,,,,,,,,,,,,,,,,,,,,,,,,,,,,,,,,,,,,,
,,,,,,,,,60fed4a51b41974258558dbe,mexican,13 or older,"yes, I am fluent in another language",no,2025-07-24_09h26.03.345,empathy_intonation_perc_control,2024.2.4,Win32,59.88023952,60fed4a51b41974258558dbe,68817205a84113384fffdfe3,68823425bf2384fd07e0fc8d,29.6288,39.1698,1,0,9.0278,,0,0,0,7,1,./stim/wavs/puertorican_statement_filler_La-nina-pinta-con-su-amiga.wav,0,,,,,,,,,,,,,,,,,,,,,,,,,,,,,,,,,,,,,,,,,,,,,,,,,,,,,,,,,,,,,,,,,,,,,,,,
,,,,,,,,,60fed4a51b41974258558dbe,mexican,13 or older,"yes, I am fluent in another language",no,2025-07-24_09h26.03.345,empathy_intonation_perc_control,2024.2.4,Win32,59.88023952,60fed4a51b41974258558dbe,68817205a84113384fffdfe3,68823425bf2384fd07e0fc8d,39.1708,43.2695,0,0,3.5667,,0,1,1,3,1,./stim/wavs/mexican_question_filler_Felipe-no-tiene-contrasena.wav,1,,,,,,,,,,,,,,,,,,,,,,,,,,,,,,,,,,,,,,,,,,,,,,,,,,,,,,,,,,,,,,,,,,,,,,,,
,,,,,,,,,60fed4a51b41974258558dbe,mexican,13 or older,"yes, I am fluent in another language",no,2025-07-24_09h26.03.345,empathy_intonation_perc_control,2024.2.4,Win32,59.88023952,60fed4a51b41974258558dbe,68817205a84113384fffdfe3,68823425bf2384fd07e0fc8d,43.2704,46.8363,0,1,3.0338,,0,2,2,4,1,./stim/wavs/cuban_statement_filler_Cocinabas-por-la-noche.wav,0,,,,,,,,,,,,,,,,,,,,,,,,,,,,,,,,,,,,,,,,,,,,,,,,,,,,,,,,,,,,,,,,,,,,,,,,
,,,,,,,,,60fed4a51b41974258558dbe,mexican,13 or older,"yes, I am fluent in another language",no,2025-07-24_09h26.03.345,empathy_intonation_perc_control,2024.2.4,Win32,59.88023952,60fed4a51b41974258558dbe,68817205a84113384fffdfe3,68823425bf2384fd07e0fc8d,46.837,49.7529,1,0,2.3961,,0,3,3,5,1,./stim/wavs/andalusian_statement_filler_Alberto-nunca-se-afeita.wav,0,,,,,,,,,,,,,,,,,,,,,,,,,,,,,,,,,,,,,,,,,,,,,,,,,,,,,,,,,,,,,,,,,,,,,,,,
,,,,,,,,,60fed4a51b41974258558dbe,mexican,13 or older,"yes, I am fluent in another language",no,2025-07-24_09h26.03.345,empathy_intonation_perc_control,2024.2.4,Win32,59.88023952,60fed4a51b41974258558dbe,68817205a84113384fffdfe3,68823425bf2384fd07e0fc8d,49.754,52.0362,1,1,1.7504,,0,4,4,1,1,./stim/wavs/argentine_question_filler_Mi-vecino-habla-mucho.wav,1,,,,,,,,,,,,,,,,,,,,,,,,,,,,,,,,,,,,,,,,,,,,,,,,,,,,,,,,,,,,,,,,,,,,,,,,
,,,,,,,,,60fed4a51b41974258558dbe,mexican,13 or older,"yes, I am fluent in another language",no,2025-07-24_09h26.03.345,empathy_intonation_perc_control,2024.2.4,Win32,59.88023952,60fed4a51b41974258558dbe,68817205a84113384fffdfe3,68823425bf2384fd07e0fc8d,52.037,54.7029,0,0,2.139,,0,5,5,2,1,./stim/wavs/chilean_question_filler_Mi-padre-cantaba-bien.wav,1,,,,,,,,,,,,,,,,,,,,,,,,,,,,,,,,,,,,,,,,,,,,,,,,,,,,,,,,,,,,,,,,,,,,,,,,
,,,,,,,,,60fed4a51b41974258558dbe,mexican,13 or older,"yes, I am fluent in another language",no,2025-07-24_09h26.03.345,empathy_intonation_perc_control,2024.2.4,Win32,59.88023952,60fed4a51b41974258558dbe,68817205a84113384fffdfe3,68823425bf2384fd07e0fc8d,54.7039,57.0695,0,0,1.8402,,0,6,6,0,1,./stim/wavs/castilian_question_filler_Mi-esposo-conoce-al-chico.wav,1,,,,,,,,,,,,,,,,,,,,,,,,,,,,,,,,,,,,,,,,,,,,,,,,,,,,,,,,,,,,,,,,,,,,,,,,
,,,,,,,,,60fed4a51b41974258558dbe,mexican,13 or older,"yes, I am fluent in another language",no,2025-07-24_09h26.03.345,empathy_intonation_perc_control,2024.2.4,Win32,59.88023952,60fed4a51b41974258558dbe,68817205a84113384fffdfe3,68823425bf2384fd07e0fc8d,57.0702,66.0528,1,0,8.458,,0,7,7,6,1,./stim/wavs/peruvian_statement_filler_El-nino-habla-con-su-madre.wav,0,,,,,,,,,,,,,,,,,,,,,,,,,,,,,,,,,,,,,,,,,,,,,,,,,,,,,,,,,,,,,,,,,,,,,,,,
,,,,,,,,,60fed4a51b41974258558dbe,mexican,13 or older,"yes, I am fluent in another language",no,2025-07-24_09h26.03.345,empathy_intonation_perc_control,2024.2.4,Win32,59.88023952,60fed4a51b41974258558dbe,68817205a84113384fffdfe3,68823425bf2384fd07e0fc8d,,,,,,,,,,,,,,66.0533,77.9536,,,,,,,,,,,,,,,,,,,,,,,,,,,,,,,,,,,,,,,,,,,,,,,,,,,,,,,,,,,,,,,,,,,,,,
,,,,,,,,,60fed4a51b41974258558dbe,mexican,13 or older,"yes, I am fluent in another language",no,2025-07-24_09h26.03.345,empathy_intonation_perc_control,2024.2.4,Win32,59.88023952,60fed4a51b41974258558dbe,68817205a84113384fffdfe3,68823425bf2384fd07e0fc8d,,,,,,,,,,,,./stim/wavs/castilian_match_declarative-broad-focus_Maria-bebe-el-vino.wav,0,,,77.9617,80.0365,0,1,1.5515,,0,0,0,47,1,48,0,castilian,,,,,,,,,,,,,,,,,,,,,,,,,,,,,,,,,,,,,,,,,,,,,,,,,,,,,,,,
,,,,,,,,,60fed4a51b41974258558dbe,mexican,13 or older,"yes, I am fluent in another language",no,2025-07-24_09h26.03.345,empathy_intonation_perc_control,2024.2.4,Win32,59.88023952,60fed4a51b41974258558dbe,68817205a84113384fffdfe3,68823425bf2384fd07e0fc8d,,,,,,,,,,,,./stim/wavs/cuban_match_declarative-broad-focus_Marta-abre-el-regalo.wav,0,,,80.0372,81.9695,0,1,1.4111,,0,1,1,55,1,56,0,cuban,,,,,,,,,,,,,,,,,,,,,,,,,,,,,,,,,,,,,,,,,,,,,,,,,,,,,,,,
,,,,,,,,,60fed4a51b41974258558dbe,mexican,13 or older,"yes, I am fluent in another language",no,2025-07-24_09h26.03.345,empathy_intonation_perc_control,2024.2.4,Win32,59.88023952,60fed4a51b41974258558dbe,68817205a84113384fffdfe3,68823425bf2384fd07e0fc8d,,,,,,,,,,,,./stim/wavs/puertorican_mismatch_interrogative-total-yn_El-nino-oye-el-rio.wav,1,,,81.9702,83.9194,0,0,1.4297,,0,2,2,40,1,41,1,puertorican,,,,,,,,,,,,,,,,,,,,,,,,,,,,,,,,,,,,,,,,,,,,,,,,,,,,,,,,
,,,,,,,,,60fed4a51b41974258558dbe,mexican,13 or older,"yes, I am fluent in another language",no,2025-07-24_09h26.03.345,empathy_intonation_perc_control,2024.2.4,Win32,59.88023952,60fed4a51b41974258558dbe,68817205a84113384fffdfe3,68823425bf2384fd07e0fc8d,,,,,,,,,,,,./stim/wavs/mexican_match_interrogative-total-yn_Ana-lleva-el-abrigo.wav,1,,,83.9202,86.0195,1,1,1.5683,,0,3,3,12,1,13,0,mexican,,,,,,,,,,,,,,,,,,,,,,,,,,,,,,,,,,,,,,,,,,,,,,,,,,,,,,,,
,,,,,,,,,60fed4a51b41974258558dbe,mexican,13 or older,"yes, I am fluent in another language",no,2025-07-24_09h26.03.345,empathy_intonation_perc_control,2024.2.4,Win32,59.88023952,60fed4a51b41974258558dbe,68817205a84113384fffdfe3,68823425bf2384fd07e0fc8d,,,,,,,,,,,,./stim/wavs/mexican_match_declarative-broad-focus_Emilio-ama-la-marcha.wav,0,,,86.0203,88.2529,1,0,1.708,,0,4,4,59,1,60,0,mexican,,,,,,,,,,,,,,,,,,,,,,,,,,,,,,,,,,,,,,,,,,,,,,,,,,,,,,,,
,,,,,,,,,60fed4a51b41974258558dbe,mexican,13 or older,"yes, I am fluent in another language",no,2025-07-24_09h26.03.345,empathy_intonation_perc_control,2024.2.4,Win32,59.88023952,60fed4a51b41974258558dbe,68817205a84113384fffdfe3,68823425bf2384fd07e0fc8d,,,,,,,,,,,,./stim/wavs/puertorican_mismatch_interrogative-total-yn_El-hombre-mira-la-luna.wav,1,,,88.254,90.27,1,1,1.4909,,0,5,5,39,1,40,1,puertorican,,,,,,,,,,,,,,,,,,,,,,,,,,,,,,,,,,,,,,,,,,,,,,,,,,,,,,,,
,,,,,,,,,60fed4a51b41974258558dbe,mexican,13 or older,"yes, I am fluent in another language",no,2025-07-24_09h26.03.345,empathy_intonation_perc_control,2024.2.4,Win32,59.88023952,60fed4a51b41974258558dbe,68817205a84113384fffdfe3,68823425bf2384fd07e0fc8d,,,,,,,,,,,,./stim/wavs/mexican_match_declarative-broad-focus_Marta-abre-el-regalo.wav,0,,,90.2707,92.6698,0,1,1.8744,,0,6,6,61,1,62,0,mexican,,,,,,,,,,,,,,,,,,,,,,,,,,,,,,,,,,,,,,,,,,,,,,,,,,,,,,,,
,,,,,,,,,60fed4a51b41974258558dbe,mexican,13 or older,"yes, I am fluent in another language",no,2025-07-24_09h26.03.345,empathy_intonation_perc_control,2024.2.4,Win32,59.88023952,60fed4a51b41974258558dbe,68817205a84113384fffdfe3,68823425bf2384fd07e0fc8d,,,,,,,,,,,,./stim/wavs/mexican_match_declarative-broad-focus_Ana-lleva-el-abrigo.wav,0,,,92.6707,94.4194,0,1,1.2261,,0,7,7,56,1,57,0,mexican,,,,,,,,,,,,,,,,,,,,,,,,,,,,,,,,,,,,,,,,,,,,,,,,,,,,,,,,
,,,,,,,,,60fed4a51b41974258558dbe,mexican,13 or older,"yes, I am fluent in another language",no,2025-07-24_09h26.03.345,empathy_intonation_perc_control,2024.2.4,Win32,59.88023952,60fed4a51b41974258558dbe,68817205a84113384fffdfe3,68823425bf2384fd07e0fc8d,,,,,,,,,,,,./stim/wavs/castilian_mismatch_interrogative-total-yn_La-nina-lava-el-plato.wav,1,,,94.4203,96.5861,1,1,1.6359,,0,8,8,25,1,26,0,castilian,,,,,,,,,,,,,,,,,,,,,,,,,,,,,,,,,,,,,,,,,,,,,,,,,,,,,,,,
,,,,,,,,,60fed4a51b41974258558dbe,mexican,13 or older,"yes, I am fluent in another language",no,2025-07-24_09h26.03.345,empathy_intonation_perc_control,2024.2.4,Win32,59.88023952,60fed4a51b41974258558dbe,68817205a84113384fffdfe3,68823425bf2384fd07e0fc8d,,,,,,,,,,,,./stim/wavs/puertorican_match_interrogative-total-yn_Emilio-ama-la-marcha.wav,1,,,96.5868,98.9028,1,1,1.7899,,0,9,9,21,1,22,1,puertorican,,,,,,,,,,,,,,,,,,,,,,,,,,,,,,,,,,,,,,,,,,,,,,,,,,,,,,,,
,,,,,,,,,60fed4a51b41974258558dbe,mexican,13 or older,"yes, I am fluent in another language",no,2025-07-24_09h26.03.345,empathy_intonation_perc_control,2024.2.4,Win32,59.88023952,60fed4a51b41974258558dbe,68817205a84113384fffdfe3,68823425bf2384fd07e0fc8d,,,,,,,,,,,,./stim/wavs/mexican_match_interrogative-total-yn_Marta-abre-el-regalo.wav,1,,,98.9041,101.2695,0,0,1.8334,,0,10,10,17,1,18,0,mexican,,,,,,,,,,,,,,,,,,,,,,,,,,,,,,,,,,,,,,,,,,,,,,,,,,,,,,,,
,,,,,,,,,60fed4a51b41974258558dbe,mexican,13 or older,"yes, I am fluent in another language",no,2025-07-24_09h26.03.345,empathy_intonation_perc_control,2024.2.4,Win32,59.88023952,60fed4a51b41974258558dbe,68817205a84113384fffdfe3,68823425bf2384fd07e0fc8d,,,,,,,,,,,,./stim/wavs/mexican_mismatch_declarative-broad-focus_Mi-novio-viene-del-lago.wav,0,,,101.2702,103.3195,0,1,1.5172,,0,11,11,81,1,82,0,mexican,,,,,,,,,,,,,,,,,,,,,,,,,,,,,,,,,,,,,,,,,,,,,,,,,,,,,,,,
,,,,,,,,,60fed4a51b41974258558dbe,mexican,13 or older,"yes, I am fluent in another language",no,2025-07-24_09h26.03.345,empathy_intonation_perc_control,2024.2.4,Win32,59.88023952,60fed4a51b41974258558dbe,68817205a84113384fffdfe3,68823425bf2384fd07e0fc8d,,,,,,,,,,,,./stim/wavs/castilian_match_interrogative-total-yn_David-leia-el-libro.wav,1,,,103.3203,106.186,0,0,2.3451,,0,12,12,0,1,1,0,castilian,,,,,,,,,,,,,,,,,,,,,,,,,,,,,,,,,,,,,,,,,,,,,,,,,,,,,,,,
,,,,,,,,,60fed4a51b41974258558dbe,mexican,13 or older,"yes, I am fluent in another language",no,2025-07-24_09h26.03.345,empathy_intonation_perc_control,2024.2.4,Win32,59.88023952,60fed4a51b41974258558dbe,68817205a84113384fffdfe3,68823425bf2384fd07e0fc8d,,,,,,,,,,,,./stim/wavs/castilian_mismatch_declarative-broad-focus_La-nina-lava-el-plato.wav,0,,,106.1867,108.5195,0,1,1.8003,,0,13,13,70,1,71,0,castilian,,,,,,,,,,,,,,,,,,,,,,,,,,,,,,,,,,,,,,,,,,,,,,,,,,,,,,,,
,,,,,,,,,60fed4a51b41974258558dbe,mexican,13 or older,"yes, I am fluent in another language",no,2025-07-24_09h26.03.345,empathy_intonation_perc_control,2024.2.4,Win32,59.88023952,60fed4a51b41974258558dbe,68817205a84113384fffdfe3,68823425bf2384fd07e0fc8d,,,,,,,,,,,,./stim/wavs/mexican_match_interrogative-total-yn_Emilio-ama-la-marcha.wav,1,,,108.5204,110.9861,1,1,1.9363,,0,14,14,15,1,16,0,mexican,,,,,,,,,,,,,,,,,,,,,,,,,,,,,,,,,,,,,,,,,,,,,,,,,,,,,,,,
,,,,,,,,,60fed4a51b41974258558dbe,mexican,13 or older,"yes, I am fluent in another language",no,2025-07-24_09h26.03.345,empathy_intonation_perc_control,2024.2.4,Win32,59.88023952,60fed4a51b41974258558dbe,68817205a84113384fffdfe3,68823425bf2384fd07e0fc8d,,,,,,,,,,,,./stim/wavs/castilian_match_declarative-broad-focus_Emilio-ama-la-marcha.wav,0,,,110.9869,113.2694,0,1,1.7502,,0,15,15,45,1,46,0,castilian,,,,,,,,,,,,,,,,,,,,,,,,,,,,,,,,,,,,,,,,,,,,,,,,,,,,,,,,
,,,,,,,,,60fed4a51b41974258558dbe,mexican,13 or older,"yes, I am fluent in another language",no,2025-07-24_09h26.03.345,empathy_intonation_perc_control,2024.2.4,Win32,59.88023952,60fed4a51b41974258558dbe,68817205a84113384fffdfe3,68823425bf2384fd07e0fc8d,,,,,,,,,,,,./stim/wavs/mexican_match_declarative-broad-focus_Mariano-habla-del-tiempo.wav,0,,,113.2701,115.7694,0,1,1.9702,,0,16,16,60,1,61,0,mexican,,,,,,,,,,,,,,,,,,,,,,,,,,,,,,,,,,,,,,,,,,,,,,,,,,,,,,,,
,,,,,,,,,60fed4a51b41974258558dbe,mexican,13 or older,"yes, I am fluent in another language",no,2025-07-24_09h26.03.345,empathy_intonation_perc_control,2024.2.4,Win32,59.88023952,60fed4a51b41974258558dbe,68817205a84113384fffdfe3,68823425bf2384fd07e0fc8d,,,,,,,,,,,,./stim/wavs/cuban_match_declarative-broad-focus_Daniel-iba-a-Bolivia.wav,0,,,115.7702,117.553,0,1,1.2544,,0,17,17,51,1,52,0,cuban,,,,,,,,,,,,,,,,,,,,,,,,,,,,,,,,,,,,,,,,,,,,,,,,,,,,,,,,
,,,,,,,,,60fed4a51b41974258558dbe,mexican,13 or older,"yes, I am fluent in another language",no,2025-07-24_09h26.03.345,empathy_intonation_perc_control,2024.2.4,Win32,59.88023952,60fed4a51b41974258558dbe,68817205a84113384fffdfe3,68823425bf2384fd07e0fc8d,,,,,,,,,,,,./stim/wavs/castilian_match_interrogative-total-yn_Mariano-habla-del-tiempo.wav,1,,,117.5544,119.7861,1,1,1.7026,,0,18,18,4,1,5,0,castilian,,,,,,,,,,,,,,,,,,,,,,,,,,,,,,,,,,,,,,,,,,,,,,,,,,,,,,,,
,,,,,,,,,60fed4a51b41974258558dbe,mexican,13 or older,"yes, I am fluent in another language",no,2025-07-24_09h26.03.345,empathy_intonation_perc_control,2024.2.4,Win32,59.88023952,60fed4a51b41974258558dbe,68817205a84113384fffdfe3,68823425bf2384fd07e0fc8d,,,,,,,,,,,,./stim/wavs/puertorican_mismatch_declarative-broad-focus_La-nina-lava-el-plato.wav,0,,,119.7869,122.0027,0,1,1.6855,,0,19,19,87,1,88,0,puertorican,,,,,,,,,,,,,,,,,,,,,,,,,,,,,,,,,,,,,,,,,,,,,,,,,,,,,,,,
,,,,,,,,,60fed4a51b41974258558dbe,mexican,13 or older,"yes, I am fluent in another language",no,2025-07-24_09h26.03.345,empathy_intonation_perc_control,2024.2.4,Win32,59.88023952,60fed4a51b41974258558dbe,68817205a84113384fffdfe3,68823425bf2384fd07e0fc8d,,,,,,,,,,,,./stim/wavs/puertorican_match_declarative-broad-focus_David-leia-el-libro.wav,0,,,122.0036,123.9694,1,0,1.4368,,0,20,20,64,1,65,0,puertorican,,,,,,,,,,,,,,,,,,,,,,,,,,,,,,,,,,,,,,,,,,,,,,,,,,,,,,,,
,,,,,,,,,60fed4a51b41974258558dbe,mexican,13 or older,"yes, I am fluent in another language",no,2025-07-24_09h26.03.345,empathy_intonation_perc_control,2024.2.4,Win32,59.88023952,60fed4a51b41974258558dbe,68817205a84113384fffdfe3,68823425bf2384fd07e0fc8d,,,,,,,,,,,,./stim/wavs/cuban_mismatch_interrogative-total-yn_Mi-tia-odia-la-lluvia.wav,1,,,123.9701,126.1195,1,1,1.6172,,0,21,21,33,1,34,1,cuban,,,,,,,,,,,,,,,,,,,,,,,,,,,,,,,,,,,,,,,,,,,,,,,,,,,,,,,,
,,,,,,,,,60fed4a51b41974258558dbe,mexican,13 or older,"yes, I am fluent in another language",no,2025-07-24_09h26.03.345,empathy_intonation_perc_control,2024.2.4,Win32,59.88023952,60fed4a51b41974258558dbe,68817205a84113384fffdfe3,68823425bf2384fd07e0fc8d,,,,,,,,,,,,./stim/wavs/castilian_match_interrogative-total-yn_Manuela-vende-el-carro.wav,1,,,126.1202,128.3198,1,1,1.681,,0,22,22,2,1,3,0,castilian,,,,,,,,,,,,,,,,,,,,,,,,,,,,,,,,,,,,,,,,,,,,,,,,,,,,,,,,
,,,,,,,,,60fed4a51b41974258558dbe,mexican,13 or older,"yes, I am fluent in another language",no,2025-07-24_09h26.03.345,empathy_intonation_perc_control,2024.2.4,Win32,59.88023952,60fed4a51b41974258558dbe,68817205a84113384fffdfe3,68823425bf2384fd07e0fc8d,,,,,,,,,,,,./stim/wavs/puertorican_match_declarative-broad-focus_Manuela-vende-el-carro.wav,0,,,128.3205,130.1694,0,1,1.3203,,0,23,23,66,1,67,0,puertorican,,,,,,,,,,,,,,,,,,,,,,,,,,,,,,,,,,,,,,,,,,,,,,,,,,,,,,,,
,,,,,,,,,60fed4a51b41974258558dbe,mexican,13 or older,"yes, I am fluent in another language",no,2025-07-24_09h26.03.345,empathy_intonation_perc_control,2024.2.4,Win32,59.88023952,60fed4a51b41974258558dbe,68817205a84113384fffdfe3,68823425bf2384fd07e0fc8d,,,,,,,,,,,,./stim/wavs/puertorican_match_declarative-broad-focus_Ana-lleva-el-abrigo.wav,0,,,130.1702,132.186,0,1,1.495,,0,24,24,62,1,63,0,puertorican,,,,,,,,,,,,,,,,,,,,,,,,,,,,,,,,,,,,,,,,,,,,,,,,,,,,,,,,
,,,,,,,,,60fed4a51b41974258558dbe,mexican,13 or older,"yes, I am fluent in another language",no,2025-07-24_09h26.03.345,empathy_intonation_perc_control,2024.2.4,Win32,59.88023952,60fed4a51b41974258558dbe,68817205a84113384fffdfe3,68823425bf2384fd07e0fc8d,,,,,,,,,,,,./stim/wavs/mexican_mismatch_interrogative-total-yn_El-nino-oye-el-rio.wav,1,,,132.1865,134.2027,1,1,1.4934,,0,25,25,35,1,36,0,mexican,,,,,,,,,,,,,,,,,,,,,,,,,,,,,,,,,,,,,,,,,,,,,,,,,,,,,,,,
,,,,,,,,,60fed4a51b41974258558dbe,mexican,13 or older,"yes, I am fluent in another language",no,2025-07-24_09h26.03.345,empathy_intonation_perc_control,2024.2.4,Win32,59.88023952,60fed4a51b41974258558dbe,68817205a84113384fffdfe3,68823425bf2384fd07e0fc8d,,,,,,,,,,,,./stim/wavs/cuban_match_interrogative-total-yn_Marta-abre-el-regalo.wav,1,,,134.2034,136.2861,0,0,1.5571,,0,26,26,11,1,12,1,cuban,,,,,,,,,,,,,,,,,,,,,,,,,,,,,,,,,,,,,,,,,,,,,,,,,,,,,,,,
,,,,,,,,,60fed4a51b41974258558dbe,mexican,13 or older,"yes, I am fluent in another language",no,2025-07-24_09h26.03.345,empathy_intonation_perc_control,2024.2.4,Win32,59.88023952,60fed4a51b41974258558dbe,68817205a84113384fffdfe3,68823425bf2384fd07e0fc8d,,,,,,,,,,,,./stim/wavs/mexican_mismatch_interrogative-total-yn_La-maestra-vive-en-Paris.wav,1,,,136.2868,138.5028,1,1,1.6838,,0,27,27,36,1,37,0,mexican,,,,,,,,,,,,,,,,,,,,,,,,,,,,,,,,,,,,,,,,,,,,,,,,,,,,,,,,
,,,,,,,,,60fed4a51b41974258558dbe,mexican,13 or older,"yes, I am fluent in another language",no,2025-07-24_09h26.03.345,empathy_intonation_perc_control,2024.2.4,Win32,59.88023952,60fed4a51b41974258558dbe,68817205a84113384fffdfe3,68823425bf2384fd07e0fc8d,,,,,,,,,,,,./stim/wavs/castilian_mismatch_interrogative-total-yn_La-maestra-vive-en-Paris.wav,1,,,138.5035,140.9694,1,1,1.9369,,0,28,28,24,1,25,0,castilian,,,,,,,,,,,,,,,,,,,,,,,,,,,,,,,,,,,,,,,,,,,,,,,,,,,,,,,,
,,,,,,,,,60fed4a51b41974258558dbe,mexican,13 or older,"yes, I am fluent in another language",no,2025-07-24_09h26.03.345,empathy_intonation_perc_control,2024.2.4,Win32,59.88023952,60fed4a51b41974258558dbe,68817205a84113384fffdfe3,68823425bf2384fd07e0fc8d,,,,,,,,,,,,./stim/wavs/cuban_mismatch_declarative-broad-focus_La-nina-lava-el-plato.wav,0,,,140.9701,142.7861,0,1,1.2869,,0,29,29,75,1,76,0,cuban,,,,,,,,,,,,,,,,,,,,,,,,,,,,,,,,,,,,,,,,,,,,,,,,,,,,,,,,
,,,,,,,,,60fed4a51b41974258558dbe,mexican,13 or older,"yes, I am fluent in another language",no,2025-07-24_09h26.03.345,empathy_intonation_perc_control,2024.2.4,Win32,59.88023952,60fed4a51b41974258558dbe,68817205a84113384fffdfe3,68823425bf2384fd07e0fc8d,,,,,,,,,,,,./stim/wavs/mexican_mismatch_interrogative-total-yn_Mi-novio-viene-del-lago.wav,1,,,142.7868,144.8028,0,0,1.4853,,0,30,30,37,1,38,0,mexican,,,,,,,,,,,,,,,,,,,,,,,,,,,,,,,,,,,,,,,,,,,,,,,,,,,,,,,,
,,,,,,,,,60fed4a51b41974258558dbe,mexican,13 or older,"yes, I am fluent in another language",no,2025-07-24_09h26.03.345,empathy_intonation_perc_control,2024.2.4,Win32,59.88023952,60fed4a51b41974258558dbe,68817205a84113384fffdfe3,68823425bf2384fd07e0fc8d,,,,,,,,,,,,./stim/wavs/cuban_mismatch_interrogative-total-yn_El-nino-oye-el-rio.wav,1,,,144.8035,146.8362,0,0,1.5012,,0,31,31,30,1,31,1,cuban,,,,,,,,,,,,,,,,,,,,,,,,,,,,,,,,,,,,,,,,,,,,,,,,,,,,,,,,
,,,,,,,,,60fed4a51b41974258558dbe,mexican,13 or older,"yes, I am fluent in another language",no,2025-07-24_09h26.03.345,empathy_intonation_perc_control,2024.2.4,Win32,59.88023952,60fed4a51b41974258558dbe,68817205a84113384fffdfe3,68823425bf2384fd07e0fc8d,,,,,,,,,,,,./stim/wavs/cuban_match_declarative-broad-focus_Manuela-vende-el-carro.wav,0,,,146.8368,148.6528,0,1,1.2836,,0,32,32,52,1,53,0,cuban,,,,,,,,,,,,,,,,,,,,,,,,,,,,,,,,,,,,,,,,,,,,,,,,,,,,,,,,
,,,,,,,,,60fed4a51b41974258558dbe,mexican,13 or older,"yes, I am fluent in another language",no,2025-07-24_09h26.03.345,empathy_intonation_perc_control,2024.2.4,Win32,59.88023952,60fed4a51b41974258558dbe,68817205a84113384fffdfe3,68823425bf2384fd07e0fc8d,,,,,,,,,,,,./stim/wavs/mexican_mismatch_interrogative-total-yn_El-hombre-mira-la-luna.wav,1,,,148.6536,150.4528,0,0,1.2676,,0,33,33,34,1,35,0,mexican,,,,,,,,,,,,,,,,,,,,,,,,,,,,,,,,,,,,,,,,,,,,,,,,,,,,,,,,
,,,,,,,,,60fed4a51b41974258558dbe,mexican,13 or older,"yes, I am fluent in another language",no,2025-07-24_09h26.03.345,empathy_intonation_perc_control,2024.2.4,Win32,59.88023952,60fed4a51b41974258558dbe,68817205a84113384fffdfe3,68823425bf2384fd07e0fc8d,,,,,,,,,,,,./stim/wavs/cuban_match_interrogative-total-yn_Daniel-iba-a-Bolivia.wav,1,,,150.4536,152.4527,1,1,1.4752,,0,34,34,7,1,8,1,cuban,,,,,,,,,,,,,,,,,,,,,,,,,,,,,,,,,,,,,,,,,,,,,,,,,,,,,,,,
,,,,,,,,,60fed4a51b41974258558dbe,mexican,13 or older,"yes, I am fluent in another language",no,2025-07-24_09h26.03.345,empathy_intonation_perc_control,2024.2.4,Win32,59.88023952,60fed4a51b41974258558dbe,68817205a84113384fffdfe3,68823425bf2384fd07e0fc8d,,,,,,,,,,,,./stim/wavs/cuban_match_interrogative-total-yn_Ana-lleva-el-abrigo.wav,1,,,152.4535,154.1029,1,1,1.1172,,0,35,35,6,1,7,1,cuban,,,,,,,,,,,,,,,,,,,,,,,,,,,,,,,,,,,,,,,,,,,,,,,,,,,,,,,,
,,,,,,,,,60fed4a51b41974258558dbe,mexican,13 or older,"yes, I am fluent in another language",no,2025-07-24_09h26.03.345,empathy_intonation_perc_control,2024.2.4,Win32,59.88023952,60fed4a51b41974258558dbe,68817205a84113384fffdfe3,68823425bf2384fd07e0fc8d,,,,,,,,,,,,./stim/wavs/puertorican_mismatch_interrogative-total-yn_Mi-madre-come-la-fruta.wav,1,,,154.1036,168.2193,0,0,13.5934,,0,36,36,43,1,44,1,puertorican,,,,,,,,,,,,,,,,,,,,,,,,,,,,,,,,,,,,,,,,,,,,,,,,,,,,,,,,
,,,,,,,,,60fed4a51b41974258558dbe,mexican,13 or older,"yes, I am fluent in another language",no,2025-07-24_09h26.03.345,empathy_intonation_perc_control,2024.2.4,Win32,59.88023952,60fed4a51b41974258558dbe,68817205a84113384fffdfe3,68823425bf2384fd07e0fc8d,,,,,,,,,,,,./stim/wavs/castilian_match_declarative-broad-focus_Manuela-vende-el-carro.wav,0,,,168.2199,170.8027,1,0,2.0609,,0,37,37,46,1,47,0,castilian,,,,,,,,,,,,,,,,,,,,,,,,,,,,,,,,,,,,,,,,,,,,,,,,,,,,,,,,
,,,,,,,,,60fed4a51b41974258558dbe,mexican,13 or older,"yes, I am fluent in another language",no,2025-07-24_09h26.03.345,empathy_intonation_perc_control,2024.2.4,Win32,59.88023952,60fed4a51b41974258558dbe,68817205a84113384fffdfe3,68823425bf2384fd07e0fc8d,,,,,,,,,,,,./stim/wavs/cuban_match_declarative-broad-focus_Ana-lleva-el-abrigo.wav,0,,,170.8033,172.8884,1,0,1.5663,,0,38,38,50,1,51,0,cuban,,,,,,,,,,,,,,,,,,,,,,,,,,,,,,,,,,,,,,,,,,,,,,,,,,,,,,,,
,,,,,,,,,60fed4a51b41974258558dbe,mexican,13 or older,"yes, I am fluent in another language",no,2025-07-24_09h26.03.345,empathy_intonation_perc_control,2024.2.4,Win32,59.88023952,60fed4a51b41974258558dbe,68817205a84113384fffdfe3,68823425bf2384fd07e0fc8d,,,,,,,,,,,,./stim/wavs/castilian_mismatch_declarative-broad-focus_La-maestra-vive-en-Paris.wav,0,,,172.8888,175.1194,0,1,1.7005,,0,39,39,69,1,70,0,castilian,,,,,,,,,,,,,,,,,,,,,,,,,,,,,,,,,,,,,,,,,,,,,,,,,,,,,,,,
,,,,,,,,,60fed4a51b41974258558dbe,mexican,13 or older,"yes, I am fluent in another language",no,2025-07-24_09h26.03.345,empathy_intonation_perc_control,2024.2.4,Win32,59.88023952,60fed4a51b41974258558dbe,68817205a84113384fffdfe3,68823425bf2384fd07e0fc8d,,,,,,,,,,,,./stim/wavs/cuban_mismatch_interrogative-total-yn_Mi-novio-viene-del-lago.wav,1,,,175.12,177.4193,0,0,1.7772,,0,40,40,32,1,33,1,cuban,,,,,,,,,,,,,,,,,,,,,,,,,,,,,,,,,,,,,,,,,,,,,,,,,,,,,,,,
,,,,,,,,,60fed4a51b41974258558dbe,mexican,13 or older,"yes, I am fluent in another language",no,2025-07-24_09h26.03.345,empathy_intonation_perc_control,2024.2.4,Win32,59.88023952,60fed4a51b41974258558dbe,68817205a84113384fffdfe3,68823425bf2384fd07e0fc8d,,,,,,,,,,,,./stim/wavs/castilian_mismatch_interrogative-total-yn_Mi-madre-come-la-fruta.wav,1,,,177.4201,180.5361,0,0,2.5888,,0,41,41,26,1,27,0,castilian,,,,,,,,,,,,,,,,,,,,,,,,,,,,,,,,,,,,,,,,,,,,,,,,,,,,,,,,
,,,,,,,,,60fed4a51b41974258558dbe,mexican,13 or older,"yes, I am fluent in another language",no,2025-07-24_09h26.03.345,empathy_intonation_perc_control,2024.2.4,Win32,59.88023952,60fed4a51b41974258558dbe,68817205a84113384fffdfe3,68823425bf2384fd07e0fc8d,,,,,,,,,,,,./stim/wavs/castilian_match_interrogative-total-yn_Maria-bebe-el-vino.wav,1,,,180.5367,183.0028,1,1,1.9445,,0,42,42,3,1,4,0,castilian,,,,,,,,,,,,,,,,,,,,,,,,,,,,,,,,,,,,,,,,,,,,,,,,,,,,,,,,
,,,,,,,,,60fed4a51b41974258558dbe,mexican,13 or older,"yes, I am fluent in another language",no,2025-07-24_09h26.03.345,empathy_intonation_perc_control,2024.2.4,Win32,59.88023952,60fed4a51b41974258558dbe,68817205a84113384fffdfe3,68823425bf2384fd07e0fc8d,,,,,,,,,,,,./stim/wavs/castilian_match_interrogative-total-yn_Marta-abre-el-regalo.wav,1,,,183.0037,185.2361,1,1,1.7092,,0,43,43,5,1,6,0,castilian,,,,,,,,,,,,,,,,,,,,,,,,,,,,,,,,,,,,,,,,,,,,,,,,,,,,,,,,
,,,,,,,,,60fed4a51b41974258558dbe,mexican,13 or older,"yes, I am fluent in another language",no,2025-07-24_09h26.03.345,empathy_intonation_perc_control,2024.2.4,Win32,59.88023952,60fed4a51b41974258558dbe,68817205a84113384fffdfe3,68823425bf2384fd07e0fc8d,,,,,,,,,,,,./stim/wavs/puertorican_match_interrogative-total-yn_Maria-bebe-el-vino.wav,1,,,185.2367,187.0694,0,0,1.3078,,0,44,44,23,1,24,1,puertorican,,,,,,,,,,,,,,,,,,,,,,,,,,,,,,,,,,,,,,,,,,,,,,,,,,,,,,,,
,,,,,,,,,60fed4a51b41974258558dbe,mexican,13 or older,"yes, I am fluent in another language",no,2025-07-24_09h26.03.345,empathy_intonation_perc_control,2024.2.4,Win32,59.88023952,60fed4a51b41974258558dbe,68817205a84113384fffdfe3,68823425bf2384fd07e0fc8d,,,,,,,,,,,,./stim/wavs/castilian_mismatch_declarative-broad-focus_El-nino-oye-el-rio.wav,0,,,187.0701,189.2193,0,1,1.6269,,0,45,45,68,1,69,0,castilian,,,,,,,,,,,,,,,,,,,,,,,,,,,,,,,,,,,,,,,,,,,,,,,,,,,,,,,,
,,,,,,,,,60fed4a51b41974258558dbe,mexican,13 or older,"yes, I am fluent in another language",no,2025-07-24_09h26.03.345,empathy_intonation_perc_control,2024.2.4,Win32,59.88023952,60fed4a51b41974258558dbe,68817205a84113384fffdfe3,68823425bf2384fd07e0fc8d,,,,,,,,,,,,./stim/wavs/puertorican_match_interrogative-total-yn_Ana-lleva-el-abrigo.wav,1,,,189.2204,191.7195,1,1,1.9726,,0,46,46,18,1,19,1,puertorican,,,,,,,,,,,,,,,,,,,,,,,,,,,,,,,,,,,,,,,,,,,,,,,,,,,,,,,,
,,,,,,,,,60fed4a51b41974258558dbe,mexican,13 or older,"yes, I am fluent in another language",no,2025-07-24_09h26.03.345,empathy_intonation_perc_control,2024.2.4,Win32,59.88023952,60fed4a51b41974258558dbe,68817205a84113384fffdfe3,68823425bf2384fd07e0fc8d,,,,,,,,,,,,./stim/wavs/cuban_match_declarative-broad-focus_Mariano-habla-del-tiempo.wav,0,,,191.7203,202.4027,1,0,10.1614,,0,47,47,54,1,55,0,cuban,,,,,,,,,,,,,,,,,,,,,,,,,,,,,,,,,,,,,,,,,,,,,,,,,,,,,,,,
,,,,,,,,,60fed4a51b41974258558dbe,mexican,13 or older,"yes, I am fluent in another language",no,2025-07-24_09h26.03.345,empathy_intonation_perc_control,2024.2.4,Win32,59.88023952,60fed4a51b41974258558dbe,68817205a84113384fffdfe3,68823425bf2384fd07e0fc8d,,,,,,,,,,,,./stim/wavs/puertorican_match_declarative-broad-focus_Daniel-iba-a-Bolivia.wav,0,,,202.4036,204.5696,0,1,1.6458,,0,48,48,63,1,64,0,puertorican,,,,,,,,,,,,,,,,,,,,,,,,,,,,,,,,,,,,,,,,,,,,,,,,,,,,,,,,
,,,,,,,,,60fed4a51b41974258558dbe,mexican,13 or older,"yes, I am fluent in another language",no,2025-07-24_09h26.03.345,empathy_intonation_perc_control,2024.2.4,Win32,59.88023952,60fed4a51b41974258558dbe,68817205a84113384fffdfe3,68823425bf2384fd07e0fc8d,,,,,,,,,,,,./stim/wavs/puertorican_match_declarative-broad-focus_Maria-bebe-el-vino.wav,0,,,204.5703,207.3527,1,0,2.2634,,0,49,49,67,1,68,0,puertorican,,,,,,,,,,,,,,,,,,,,,,,,,,,,,,,,,,,,,,,,,,,,,,,,,,,,,,,,
,,,,,,,,,60fed4a51b41974258558dbe,mexican,13 or older,"yes, I am fluent in another language",no,2025-07-24_09h26.03.345,empathy_intonation_perc_control,2024.2.4,Win32,59.88023952,60fed4a51b41974258558dbe,68817205a84113384fffdfe3,68823425bf2384fd07e0fc8d,,,,,,,,,,,,./stim/wavs/mexican_mismatch_declarative-broad-focus_La-maestra-vive-en-Paris.wav,0,,,207.3535,209.5694,1,0,1.6874,,0,50,50,80,1,81,0,mexican,,,,,,,,,,,,,,,,,,,,,,,,,,,,,,,,,,,,,,,,,,,,,,,,,,,,,,,,
,,,,,,,,,60fed4a51b41974258558dbe,mexican,13 or older,"yes, I am fluent in another language",no,2025-07-24_09h26.03.345,empathy_intonation_perc_control,2024.2.4,Win32,59.88023952,60fed4a51b41974258558dbe,68817205a84113384fffdfe3,68823425bf2384fd07e0fc8d,,,,,,,,,,,,./stim/wavs/mexican_mismatch_declarative-broad-focus_El-bebe-comia-muy-bien.wav,0,,,209.57,211.6026,0,1,1.5116,,0,51,51,78,1,79,0,mexican,,,,,,,,,,,,,,,,,,,,,,,,,,,,,,,,,,,,,,,,,,,,,,,,,,,,,,,,
,,,,,,,,,60fed4a51b41974258558dbe,mexican,13 or older,"yes, I am fluent in another language",no,2025-07-24_09h26.03.345,empathy_intonation_perc_control,2024.2.4,Win32,59.88023952,60fed4a51b41974258558dbe,68817205a84113384fffdfe3,68823425bf2384fd07e0fc8d,,,,,,,,,,,,./stim/wavs/cuban_match_interrogative-total-yn_Mariano-habla-del-tiempo.wav,1,,,211.6033,213.6527,0,0,1.5174,,0,52,52,10,1,11,1,cuban,,,,,,,,,,,,,,,,,,,,,,,,,,,,,,,,,,,,,,,,,,,,,,,,,,,,,,,,
,,,,,,,,,60fed4a51b41974258558dbe,mexican,13 or older,"yes, I am fluent in another language",no,2025-07-24_09h26.03.345,empathy_intonation_perc_control,2024.2.4,Win32,59.88023952,60fed4a51b41974258558dbe,68817205a84113384fffdfe3,68823425bf2384fd07e0fc8d,,,,,,,,,,,,./stim/wavs/mexican_mismatch_declarative-broad-focus_El-hombre-mira-la-luna.wav,0,,,213.6534,215.7859,0,1,1.6118,,0,53,53,79,1,80,0,mexican,,,,,,,,,,,,,,,,,,,,,,,,,,,,,,,,,,,,,,,,,,,,,,,,,,,,,,,,
,,,,,,,,,60fed4a51b41974258558dbe,mexican,13 or older,"yes, I am fluent in another language",no,2025-07-24_09h26.03.345,empathy_intonation_perc_control,2024.2.4,Win32,59.88023952,60fed4a51b41974258558dbe,68817205a84113384fffdfe3,68823425bf2384fd07e0fc8d,,,,,,,,,,,,./stim/wavs/puertorican_mismatch_declarative-broad-focus_El-nino-oye-el-rio.wav,0,,,215.7867,217.986,0,1,1.6783,,0,54,54,85,1,86,0,puertorican,,,,,,,,,,,,,,,,,,,,,,,,,,,,,,,,,,,,,,,,,,,,,,,,,,,,,,,,
,,,,,,,,,60fed4a51b41974258558dbe,mexican,13 or older,"yes, I am fluent in another language",no,2025-07-24_09h26.03.345,empathy_intonation_perc_control,2024.2.4,Win32,59.88023952,60fed4a51b41974258558dbe,68817205a84113384fffdfe3,68823425bf2384fd07e0fc8d,,,,,,,,,,,,./stim/wavs/puertorican_mismatch_interrogative-total-yn_La-maestra-vive-en-Paris.wav,1,,,217.9868,220.1361,1,1,1.6304,,0,55,55,41,1,42,1,puertorican,,,,,,,,,,,,,,,,,,,,,,,,,,,,,,,,,,,,,,,,,,,,,,,,,,,,,,,,
,,,,,,,,,60fed4a51b41974258558dbe,mexican,13 or older,"yes, I am fluent in another language",no,2025-07-24_09h26.03.345,empathy_intonation_perc_control,2024.2.4,Win32,59.88023952,60fed4a51b41974258558dbe,68817205a84113384fffdfe3,68823425bf2384fd07e0fc8d,,,,,,,,,,,,./stim/wavs/castilian_match_declarative-broad-focus_Marta-abre-el-regalo.wav,0,,,220.1367,222.2527,0,1,1.5848,,0,56,56,49,1,50,0,castilian,,,,,,,,,,,,,,,,,,,,,,,,,,,,,,,,,,,,,,,,,,,,,,,,,,,,,,,,
,,,,,,,,,60fed4a51b41974258558dbe,mexican,13 or older,"yes, I am fluent in another language",no,2025-07-24_09h26.03.345,empathy_intonation_perc_control,2024.2.4,Win32,59.88023952,60fed4a51b41974258558dbe,68817205a84113384fffdfe3,68823425bf2384fd07e0fc8d,,,,,,,,,,,,./stim/wavs/cuban_match_declarative-broad-focus_Maria-bebe-el-vino.wav,0,,,222.2535,224.6194,0,1,1.8358,,0,57,57,53,1,54,0,cuban,,,,,,,,,,,,,,,,,,,,,,,,,,,,,,,,,,,,,,,,,,,,,,,,,,,,,,,,
,,,,,,,,,60fed4a51b41974258558dbe,mexican,13 or older,"yes, I am fluent in another language",no,2025-07-24_09h26.03.345,empathy_intonation_perc_control,2024.2.4,Win32,59.88023952,60fed4a51b41974258558dbe,68817205a84113384fffdfe3,68823425bf2384fd07e0fc8d,,,,,,,,,,,,./stim/wavs/puertorican_mismatch_declarative-broad-focus_El-bebe-comia-muy-bien.wav,0,,,224.62,226.636,0,1,1.4935,,0,58,58,83,1,84,0,puertorican,,,,,,,,,,,,,,,,,,,,,,,,,,,,,,,,,,,,,,,,,,,,,,,,,,,,,,,,
,,,,,,,,,60fed4a51b41974258558dbe,mexican,13 or older,"yes, I am fluent in another language",no,2025-07-24_09h26.03.345,empathy_intonation_perc_control,2024.2.4,Win32,59.88023952,60fed4a51b41974258558dbe,68817205a84113384fffdfe3,68823425bf2384fd07e0fc8d,,,,,,,,,,,,./stim/wavs/castilian_match_declarative-broad-focus_Mariano-habla-del-tiempo.wav,0,,,226.6371,229.136,0,1,1.9668,,0,59,59,48,1,49,0,castilian,,,,,,,,,,,,,,,,,,,,,,,,,,,,,,,,,,,,,,,,,,,,,,,,,,,,,,,,
,,,,,,,,,60fed4a51b41974258558dbe,mexican,13 or older,"yes, I am fluent in another language",no,2025-07-24_09h26.03.345,empathy_intonation_perc_control,2024.2.4,Win32,59.88023952,60fed4a51b41974258558dbe,68817205a84113384fffdfe3,68823425bf2384fd07e0fc8d,,,,,,,,,,,,./stim/wavs/puertorican_mismatch_declarative-broad-focus_La-maestra-vive-en-Paris.wav,0,,,229.1366,231.3193,1,0,1.6562,,0,60,60,86,1,87,0,puertorican,,,,,,,,,,,,,,,,,,,,,,,,,,,,,,,,,,,,,,,,,,,,,,,,,,,,,,,,
,,,,,,,,,60fed4a51b41974258558dbe,mexican,13 or older,"yes, I am fluent in another language",no,2025-07-24_09h26.03.345,empathy_intonation_perc_control,2024.2.4,Win32,59.88023952,60fed4a51b41974258558dbe,68817205a84113384fffdfe3,68823425bf2384fd07e0fc8d,,,,,,,,,,,,./stim/wavs/mexican_match_interrogative-total-yn_Daniel-iba-a-Bolivia.wav,1,,,231.32,233.3694,1,1,1.5212,,0,61,61,13,1,14,0,mexican,,,,,,,,,,,,,,,,,,,,,,,,,,,,,,,,,,,,,,,,,,,,,,,,,,,,,,,,
,,,,,,,,,60fed4a51b41974258558dbe,mexican,13 or older,"yes, I am fluent in another language",no,2025-07-24_09h26.03.345,empathy_intonation_perc_control,2024.2.4,Win32,59.88023952,60fed4a51b41974258558dbe,68817205a84113384fffdfe3,68823425bf2384fd07e0fc8d,,,,,,,,,,,,./stim/wavs/cuban_match_interrogative-total-yn_Maria-bebe-el-vino.wav,1,,,233.3701,235.586,0,0,1.6872,,0,62,62,9,1,10,1,cuban,,,,,,,,,,,,,,,,,,,,,,,,,,,,,,,,,,,,,,,,,,,,,,,,,,,,,,,,
,,,,,,,,,60fed4a51b41974258558dbe,mexican,13 or older,"yes, I am fluent in another language",no,2025-07-24_09h26.03.345,empathy_intonation_perc_control,2024.2.4,Win32,59.88023952,60fed4a51b41974258558dbe,68817205a84113384fffdfe3,68823425bf2384fd07e0fc8d,,,,,,,,,,,,./stim/wavs/mexican_match_declarative-broad-focus_Daniel-iba-a-Bolivia.wav,0,,,235.5866,256.2694,1,0,20.1511,,0,63,63,57,1,58,0,mexican,,,,,,,,,,,,,,,,,,,,,,,,,,,,,,,,,,,,,,,,,,,,,,,,,,,,,,,,
,,,,,,,,,60fed4a51b41974258558dbe,mexican,13 or older,"yes, I am fluent in another language",no,2025-07-24_09h26.03.345,empathy_intonation_perc_control,2024.2.4,Win32,59.88023952,60fed4a51b41974258558dbe,68817205a84113384fffdfe3,68823425bf2384fd07e0fc8d,,,,,,,,,,,,./stim/wavs/cuban_mismatch_interrogative-total-yn_El-hombre-mira-la-luna.wav,1,,,256.2702,268.5693,1,1,11.7799,,0,64,64,29,1,30,1,cuban,,,,,,,,,,,,,,,,,,,,,,,,,,,,,,,,,,,,,,,,,,,,,,,,,,,,,,,,
,,,,,,,,,60fed4a51b41974258558dbe,mexican,13 or older,"yes, I am fluent in another language",no,2025-07-24_09h26.03.345,empathy_intonation_perc_control,2024.2.4,Win32,59.88023952,60fed4a51b41974258558dbe,68817205a84113384fffdfe3,68823425bf2384fd07e0fc8d,,,,,,,,,,,,./stim/wavs/puertorican_mismatch_interrogative-total-yn_La-nina-lava-el-plato.wav,1,,,268.5698,271.2526,0,0,2.1518,,0,65,65,42,1,43,1,puertorican,,,,,,,,,,,,,,,,,,,,,,,,,,,,,,,,,,,,,,,,,,,,,,,,,,,,,,,,
,,,,,,,,,60fed4a51b41974258558dbe,mexican,13 or older,"yes, I am fluent in another language",no,2025-07-24_09h26.03.345,empathy_intonation_perc_control,2024.2.4,Win32,59.88023952,60fed4a51b41974258558dbe,68817205a84113384fffdfe3,68823425bf2384fd07e0fc8d,,,,,,,,,,,,./stim/wavs/puertorican_match_declarative-broad-focus_Emilio-ama-la-marcha.wav,0,,,271.2533,276.7693,1,0,4.9884,,0,66,66,65,1,66,0,puertorican,,,,,,,,,,,,,,,,,,,,,,,,,,,,,,,,,,,,,,,,,,,,,,,,,,,,,,,,
,,,,,,,,,60fed4a51b41974258558dbe,mexican,13 or older,"yes, I am fluent in another language",no,2025-07-24_09h26.03.345,empathy_intonation_perc_control,2024.2.4,Win32,59.88023952,60fed4a51b41974258558dbe,68817205a84113384fffdfe3,68823425bf2384fd07e0fc8d,,,,,,,,,,,,./stim/wavs/castilian_mismatch_interrogative-total-yn_Mi-tia-odia-la-lluvia.wav,1,,,276.7699,279.1526,0,0,1.8557,,0,67,67,28,1,29,0,castilian,,,,,,,,,,,,,,,,,,,,,,,,,,,,,,,,,,,,,,,,,,,,,,,,,,,,,,,,
,,,,,,,,,60fed4a51b41974258558dbe,mexican,13 or older,"yes, I am fluent in another language",no,2025-07-24_09h26.03.345,empathy_intonation_perc_control,2024.2.4,Win32,59.88023952,60fed4a51b41974258558dbe,68817205a84113384fffdfe3,68823425bf2384fd07e0fc8d,,,,,,,,,,,,./stim/wavs/mexican_mismatch_declarative-broad-focus_Mi-tia-odia-la-lluvia.wav,0,,,279.1534,281.1026,0,1,1.4171,,0,68,68,82,1,83,0,mexican,,,,,,,,,,,,,,,,,,,,,,,,,,,,,,,,,,,,,,,,,,,,,,,,,,,,,,,,
,,,,,,,,,60fed4a51b41974258558dbe,mexican,13 or older,"yes, I am fluent in another language",no,2025-07-24_09h26.03.345,empathy_intonation_perc_control,2024.2.4,Win32,59.88023952,60fed4a51b41974258558dbe,68817205a84113384fffdfe3,68823425bf2384fd07e0fc8d,,,,,,,,,,,,./stim/wavs/puertorican_match_interrogative-total-yn_Daniel-iba-a-Bolivia.wav,1,,,281.1034,284.3026,1,1,2.6672,,0,69,69,19,1,20,1,puertorican,,,,,,,,,,,,,,,,,,,,,,,,,,,,,,,,,,,,,,,,,,,,,,,,,,,,,,,,
,,,,,,,,,60fed4a51b41974258558dbe,mexican,13 or older,"yes, I am fluent in another language",no,2025-07-24_09h26.03.345,empathy_intonation_perc_control,2024.2.4,Win32,59.88023952,60fed4a51b41974258558dbe,68817205a84113384fffdfe3,68823425bf2384fd07e0fc8d,,,,,,,,,,,,./stim/wavs/castilian_match_interrogative-total-yn_Emilio-ama-la-marcha.wav,1,,,284.3034,286.9529,0,0,2.1306,,0,70,70,1,1,2,0,castilian,,,,,,,,,,,,,,,,,,,,,,,,,,,,,,,,,,,,,,,,,,,,,,,,,,,,,,,,
,,,,,,,,,60fed4a51b41974258558dbe,mexican,13 or older,"yes, I am fluent in another language",no,2025-07-24_09h26.03.345,empathy_intonation_perc_control,2024.2.4,Win32,59.88023952,60fed4a51b41974258558dbe,68817205a84113384fffdfe3,68823425bf2384fd07e0fc8d,,,,,,,,,,,,./stim/wavs/mexican_match_declarative-broad-focus_David-leia-el-libro.wav,0,,,286.9539,289.2359,0,1,1.7607,,0,71,71,58,1,59,0,mexican,,,,,,,,,,,,,,,,,,,,,,,,,,,,,,,,,,,,,,,,,,,,,,,,,,,,,,,,
,,,,,,,,,60fed4a51b41974258558dbe,mexican,13 or older,"yes, I am fluent in another language",no,2025-07-24_09h26.03.345,empathy_intonation_perc_control,2024.2.4,Win32,59.88023952,60fed4a51b41974258558dbe,68817205a84113384fffdfe3,68823425bf2384fd07e0fc8d,,,,,,,,,,,,./stim/wavs/puertorican_match_interrogative-total-yn_Manuela-vende-el-carro.wav,1,,,289.2366,290.8858,0,0,1.1252,,0,72,72,22,1,23,1,puertorican,,,,,,,,,,,,,,,,,,,,,,,,,,,,,,,,,,,,,,,,,,,,,,,,,,,,,,,,
,,,,,,,,,60fed4a51b41974258558dbe,mexican,13 or older,"yes, I am fluent in another language",no,2025-07-24_09h26.03.345,empathy_intonation_perc_control,2024.2.4,Win32,59.88023952,60fed4a51b41974258558dbe,68817205a84113384fffdfe3,68823425bf2384fd07e0fc8d,,,,,,,,,,,,./stim/wavs/castilian_mismatch_declarative-broad-focus_Mi-novio-viene-del-lago.wav,0,,,290.8864,295.3527,1,0,3.9392,,0,73,73,71,1,72,0,castilian,,,,,,,,,,,,,,,,,,,,,,,,,,,,,,,,,,,,,,,,,,,,,,,,,,,,,,,,
,,,,,,,,,60fed4a51b41974258558dbe,mexican,13 or older,"yes, I am fluent in another language",no,2025-07-24_09h26.03.345,empathy_intonation_perc_control,2024.2.4,Win32,59.88023952,60fed4a51b41974258558dbe,68817205a84113384fffdfe3,68823425bf2384fd07e0fc8d,,,,,,,,,,,,./stim/wavs/cuban_mismatch_declarative-broad-focus_El-hombre-mira-la-luna.wav,0,,,295.3534,297.1859,1,0,1.3041,,0,74,74,74,1,75,0,cuban,,,,,,,,,,,,,,,,,,,,,,,,,,,,,,,,,,,,,,,,,,,,,,,,,,,,,,,,
,,,,,,,,,60fed4a51b41974258558dbe,mexican,13 or older,"yes, I am fluent in another language",no,2025-07-24_09h26.03.345,empathy_intonation_perc_control,2024.2.4,Win32,59.88023952,60fed4a51b41974258558dbe,68817205a84113384fffdfe3,68823425bf2384fd07e0fc8d,,,,,,,,,,,,./stim/wavs/mexican_mismatch_interrogative-total-yn_Mi-tia-odia-la-lluvia.wav,1,,,297.1866,299.2692,1,1,1.5594,,0,75,75,38,1,39,0,mexican,,,,,,,,,,,,,,,,,,,,,,,,,,,,,,,,,,,,,,,,,,,,,,,,,,,,,,,,
,,,,,,,,,60fed4a51b41974258558dbe,mexican,13 or older,"yes, I am fluent in another language",no,2025-07-24_09h26.03.345,empathy_intonation_perc_control,2024.2.4,Win32,59.88023952,60fed4a51b41974258558dbe,68817205a84113384fffdfe3,68823425bf2384fd07e0fc8d,,,,,,,,,,,,./stim/wavs/mexican_match_interrogative-total-yn_Mariano-habla-del-tiempo.wav,1,,,299.2699,301.4692,0,0,1.6686,,0,76,76,16,1,17,0,mexican,,,,,,,,,,,,,,,,,,,,,,,,,,,,,,,,,,,,,,,,,,,,,,,,,,,,,,,,
,,,,,,,,,60fed4a51b41974258558dbe,mexican,13 or older,"yes, I am fluent in another language",no,2025-07-24_09h26.03.345,empathy_intonation_perc_control,2024.2.4,Win32,59.88023952,60fed4a51b41974258558dbe,68817205a84113384fffdfe3,68823425bf2384fd07e0fc8d,,,,,,,,,,,,./stim/wavs/mexican_match_interrogative-total-yn_David-leia-el-libro.wav,1,,,301.4701,323.5192,1,1,21.5241,,0,77,77,14,1,15,0,mexican,,,,,,,,,,,,,,,,,,,,,,,,,,,,,,,,,,,,,,,,,,,,,,,,,,,,,,,,
,,,,,,,,,60fed4a51b41974258558dbe,mexican,13 or older,"yes, I am fluent in another language",no,2025-07-24_09h26.03.345,empathy_intonation_perc_control,2024.2.4,Win32,59.88023952,60fed4a51b41974258558dbe,68817205a84113384fffdfe3,68823425bf2384fd07e0fc8d,,,,,,,,,,,,./stim/wavs/castilian_mismatch_interrogative-total-yn_Mi-novio-viene-del-lago.wav,1,,,323.5199,329.8526,1,1,5.8021,,0,78,78,27,1,28,0,castilian,,,,,,,,,,,,,,,,,,,,,,,,,,,,,,,,,,,,,,,,,,,,,,,,,,,,,,,,
,,,,,,,,,60fed4a51b41974258558dbe,mexican,13 or older,"yes, I am fluent in another language",no,2025-07-24_09h26.03.345,empathy_intonation_perc_control,2024.2.4,Win32,59.88023952,60fed4a51b41974258558dbe,68817205a84113384fffdfe3,68823425bf2384fd07e0fc8d,,,,,,,,,,,,./stim/wavs/puertorican_mismatch_declarative-broad-focus_El-hombre-mira-la-luna.wav,0,,,329.8534,332.5691,1,0,2.1969,,0,79,79,84,1,85,0,puertorican,,,,,,,,,,,,,,,,,,,,,,,,,,,,,,,,,,,,,,,,,,,,,,,,,,,,,,,,
,,,,,,,,,60fed4a51b41974258558dbe,mexican,13 or older,"yes, I am fluent in another language",no,2025-07-24_09h26.03.345,empathy_intonation_perc_control,2024.2.4,Win32,59.88023952,60fed4a51b41974258558dbe,68817205a84113384fffdfe3,68823425bf2384fd07e0fc8d,,,,,,,,,,,,./stim/wavs/cuban_mismatch_declarative-broad-focus_Mi-novio-viene-del-lago.wav,0,,,332.57,336.0358,0,1,2.9441,,0,80,80,76,1,77,0,cuban,,,,,,,,,,,,,,,,,,,,,,,,,,,,,,,,,,,,,,,,,,,,,,,,,,,,,,,,
,,,,,,,,,60fed4a51b41974258558dbe,mexican,13 or older,"yes, I am fluent in another language",no,2025-07-24_09h26.03.345,empathy_intonation_perc_control,2024.2.4,Win32,59.88023952,60fed4a51b41974258558dbe,68817205a84113384fffdfe3,68823425bf2384fd07e0fc8d,,,,,,,,,,,,./stim/wavs/cuban_match_interrogative-total-yn_Manuela-vende-el-carro.wav,1,,,336.0367,338.7693,1,1,2.2055,,0,81,81,8,1,9,1,cuban,,,,,,,,,,,,,,,,,,,,,,,,,,,,,,,,,,,,,,,,,,,,,,,,,,,,,,,,
,,,,,,,,,60fed4a51b41974258558dbe,mexican,13 or older,"yes, I am fluent in another language",no,2025-07-24_09h26.03.345,empathy_intonation_perc_control,2024.2.4,Win32,59.88023952,60fed4a51b41974258558dbe,68817205a84113384fffdfe3,68823425bf2384fd07e0fc8d,,,,,,,,,,,,./stim/wavs/cuban_mismatch_interrogative-total-yn_Mi-madre-come-la-fruta.wav,1,,,338.7699,340.9526,0,0,1.6565,,0,82,82,31,1,32,1,cuban,,,,,,,,,,,,,,,,,,,,,,,,,,,,,,,,,,,,,,,,,,,,,,,,,,,,,,,,
,,,,,,,,,60fed4a51b41974258558dbe,mexican,13 or older,"yes, I am fluent in another language",no,2025-07-24_09h26.03.345,empathy_intonation_perc_control,2024.2.4,Win32,59.88023952,60fed4a51b41974258558dbe,68817205a84113384fffdfe3,68823425bf2384fd07e0fc8d,,,,,,,,,,,,./stim/wavs/castilian_match_declarative-broad-focus_David-leia-el-libro.wav,0,,,340.9532,343.3858,0,1,1.9048,,0,83,83,44,1,45,0,castilian,,,,,,,,,,,,,,,,,,,,,,,,,,,,,,,,,,,,,,,,,,,,,,,,,,,,,,,,
,,,,,,,,,60fed4a51b41974258558dbe,mexican,13 or older,"yes, I am fluent in another language",no,2025-07-24_09h26.03.345,empathy_intonation_perc_control,2024.2.4,Win32,59.88023952,60fed4a51b41974258558dbe,68817205a84113384fffdfe3,68823425bf2384fd07e0fc8d,,,,,,,,,,,,./stim/wavs/puertorican_match_interrogative-total-yn_David-leia-el-libro.wav,1,,,343.3865,345.3192,0,0,1.3999,,0,84,84,20,1,21,1,puertorican,,,,,,,,,,,,,,,,,,,,,,,,,,,,,,,,,,,,,,,,,,,,,,,,,,,,,,,,
,,,,,,,,,60fed4a51b41974258558dbe,mexican,13 or older,"yes, I am fluent in another language",no,2025-07-24_09h26.03.345,empathy_intonation_perc_control,2024.2.4,Win32,59.88023952,60fed4a51b41974258558dbe,68817205a84113384fffdfe3,68823425bf2384fd07e0fc8d,,,,,,,,,,,,./stim/wavs/castilian_mismatch_declarative-broad-focus_Mi-tia-odia-la-lluvia.wav,0,,,345.3199,347.8025,0,1,1.9625,,0,85,85,72,1,73,0,castilian,,,,,,,,,,,,,,,,,,,,,,,,,,,,,,,,,,,,,,,,,,,,,,,,,,,,,,,,
,,,,,,,,,60fed4a51b41974258558dbe,mexican,13 or older,"yes, I am fluent in another language",no,2025-07-24_09h26.03.345,empathy_intonation_perc_control,2024.2.4,Win32,59.88023952,60fed4a51b41974258558dbe,68817205a84113384fffdfe3,68823425bf2384fd07e0fc8d,,,,,,,,,,,,./stim/wavs/cuban_mismatch_declarative-broad-focus_El-bebe-comia-muy-bien.wav,0,,,347.8031,349.8025,0,1,1.4791,,0,86,86,73,1,74,0,cuban,,,,,,,,,,,,,,,,,,,,,,,,,,,,,,,,,,,,,,,,,,,,,,,,,,,,,,,,
,,,,,,,,,60fed4a51b41974258558dbe,mexican,13 or older,"yes, I am fluent in another language",no,2025-07-24_09h26.03.345,empathy_intonation_perc_control,2024.2.4,Win32,59.88023952,60fed4a51b41974258558dbe,68817205a84113384fffdfe3,68823425bf2384fd07e0fc8d,,,,,,,,,,,,./stim/wavs/cuban_mismatch_declarative-broad-focus_Mi-tia-odia-la-lluvia.wav,0,,,349.8033,352.386,0,1,2.0546,,0,87,87,77,1,78,0,cuban,,,,,,,,,,,,,,,,,,,,,,,,,,,,,,,,,,,,,,,,,,,,,,,,,,,,,,,,
,,,,,,,"Great! Now we will move on. The next task consists of about 60 trials, in each of which you will see a string of letters. 
  
  Your task is to decide whether this is a real Spanish word or not.", (press the spacebar to continue),60fed4a51b41974258558dbe,mexican,13 or older,"yes, I am fluent in another language",no,2025-07-24_09h26.03.345,empathy_intonation_perc_control,2024.2.4,Win32,59.88023952,60fed4a51b41974258558dbe,68817205a84113384fffdfe3,68823425bf2384fd07e0fc8d,,,,,,,,,,,,,,,,,,,,,,,,,,,,,,352.3908,360.0863,0,0,0,0,1,,,,,,,,,,,,,,,,,,,,,,,,,,,,,,,,,,,,,,,,,,,,,,,,,
,,,,,,,"If you think it is an existing Spanish word, you type '1' (for 'REAL'), and if you think it is not an existing Spanish word, you type '0' (for 'FAKE').", (press the spacebar to continue),60fed4a51b41974258558dbe,mexican,13 or older,"yes, I am fluent in another language",no,2025-07-24_09h26.03.345,empathy_intonation_perc_control,2024.2.4,Win32,59.88023952,60fed4a51b41974258558dbe,68817205a84113384fffdfe3,68823425bf2384fd07e0fc8d,,,,,,,,,,,,,,,,,,,,,,,,,,,,,,360.0887,364.4198,0,1,1,1,1,,,,,,,,,,,,,,,,,,,,,,,,,,,,,,,,,,,,,,,,,,,,,,,,,
,,,,,,,"If you are sure that the word exists, even though you don’t know its exact meaning, you may still respond '1' (REAL). 
  
  But if you are not sure if it is an existing word, you should respond '0' (FAKE).
  
  Let's do a practice round...", (press the spacebar to continue),60fed4a51b41974258558dbe,mexican,13 or older,"yes, I am fluent in another language",no,2025-07-24_09h26.03.345,empathy_intonation_perc_control,2024.2.4,Win32,59.88023952,60fed4a51b41974258558dbe,68817205a84113384fffdfe3,68823425bf2384fd07e0fc8d,,,,,,,,,,,,,,,,,,,,,,,,,,,,,,364.4217,414.286,0,2,2,2,1,,,,,,,,,,,,,,,,,,,,,,,,,,,,,,,,,,,,,,,,,,,,,,,,,
,,,,,,,,,60fed4a51b41974258558dbe,mexican,13 or older,"yes, I am fluent in another language",no,2025-07-24_09h26.03.345,empathy_intonation_perc_control,2024.2.4,Win32,59.88023952,60fed4a51b41974258558dbe,68817205a84113384fffdfe3,68823425bf2384fd07e0fc8d,,,,,,,,,,,,,0,,,,,,,,,,,,,,,,,,,,,,,,414.2906,418.0361,0,1,3.2036,,418.0364,419.0361,0,0,0,0,1,0,depiste,REAL,FAKE,,,,,,,,,,,,,,,,,,,,,,,,,,,,,,,,
,,,,,,,,,60fed4a51b41974258558dbe,mexican,13 or older,"yes, I am fluent in another language",no,2025-07-24_09h26.03.345,empathy_intonation_perc_control,2024.2.4,Win32,59.88023952,60fed4a51b41974258558dbe,68817205a84113384fffdfe3,68823425bf2384fd07e0fc8d,,,,,,,,,,,,,1,,,,,,,,,,,,,,,,,,,,,,,,419.0374,420.3196,1,1,0.7346,,420.3197,421.3192,0,1,1,1,1,0,sí,REAL,FAKE,,,,,,,,,,,,,,,,,,,,,,,,,,,,,,,,
,,,,,,,,,60fed4a51b41974258558dbe,mexican,13 or older,"yes, I am fluent in another language",no,2025-07-24_09h26.03.345,empathy_intonation_perc_control,2024.2.4,Win32,59.88023952,60fed4a51b41974258558dbe,68817205a84113384fffdfe3,68823425bf2384fd07e0fc8d,,,,,,,,,,,,,0,,,,,,,,,,,,,,,,,,,,,,,,421.3209,424.1858,1,0,2.3223,,424.1871,425.1857,0,2,2,2,1,0,coné,REAL,FAKE,,,,,,,,,,,,,,,,,,,,,,,,,,,,,,,,
,,,,,,,,,60fed4a51b41974258558dbe,mexican,13 or older,"yes, I am fluent in another language",no,2025-07-24_09h26.03.345,empathy_intonation_perc_control,2024.2.4,Win32,59.88023952,60fed4a51b41974258558dbe,68817205a84113384fffdfe3,68823425bf2384fd07e0fc8d,,,,,,,,,,,,,0,,,,,,,,,,,,,,,,,,,,,,,,425.1869,426.6691,1,0,0.9438,,426.6692,427.6691,0,3,3,3,1,0,calpar,REAL,FAKE,,,,,,,,,,,,,,,,,,,,,,,,,,,,,,,,
,,,,,,,,,60fed4a51b41974258558dbe,mexican,13 or older,"yes, I am fluent in another language",no,2025-07-24_09h26.03.345,empathy_intonation_perc_control,2024.2.4,Win32,59.88023952,60fed4a51b41974258558dbe,68817205a84113384fffdfe3,68823425bf2384fd07e0fc8d,,,,,,,,,,,,,0,,,,,,,,,,,,,,,,,,,,,,,,427.6708,428.8525,0,1,0.6362,,428.8533,429.8525,0,4,4,4,1,0,joten,REAL,FAKE,,,,,,,,,,,,,,,,,,,,,,,,,,,,,,,,
,,,,,,,,,60fed4a51b41974258558dbe,mexican,13 or older,"yes, I am fluent in another language",no,2025-07-24_09h26.03.345,empathy_intonation_perc_control,2024.2.4,Win32,59.88023952,60fed4a51b41974258558dbe,68817205a84113384fffdfe3,68823425bf2384fd07e0fc8d,,,,,,,,,,,,,1,,,,,,,,,,,,,,,,,,,,,,,,429.8541,434.3695,0,0,3.9689,,434.3705,435.3699,0,5,5,5,1,0,sacapuntas,REAL,FAKE,,,,,,,,,,,,,,,,,,,,,,,,,,,,,,,,
,,,,,,,,,60fed4a51b41974258558dbe,mexican,13 or older,"yes, I am fluent in another language",no,2025-07-24_09h26.03.345,empathy_intonation_perc_control,2024.2.4,Win32,59.88023952,60fed4a51b41974258558dbe,68817205a84113384fffdfe3,68823425bf2384fd07e0fc8d,,,,,,,,,,,,,0,,,,,,,,,,,,,,,,,,,,,,,,435.3711,436.6025,0,1,0.6967,,436.6033,437.603,0,6,6,6,1,0,priba,REAL,FAKE,,,,,,,,,,,,,,,,,,,,,,,,,,,,,,,,
,,,,,,,,,60fed4a51b41974258558dbe,mexican,13 or older,"yes, I am fluent in another language",no,2025-07-24_09h26.03.345,empathy_intonation_perc_control,2024.2.4,Win32,59.88023952,60fed4a51b41974258558dbe,68817205a84113384fffdfe3,68823425bf2384fd07e0fc8d,,,,,,,,,,,,,0,,,,,,,,,,,,,,,,,,,,,,,,437.6044,439.5025,0,1,1.3599,,439.5025,440.503,0,7,7,7,1,0,pelasula,REAL,FAKE,,,,,,,,,,,,,,,,,,,,,,,,,,,,,,,,
,,,,,,,,,60fed4a51b41974258558dbe,mexican,13 or older,"yes, I am fluent in another language",no,2025-07-24_09h26.03.345,empathy_intonation_perc_control,2024.2.4,Win32,59.88023952,60fed4a51b41974258558dbe,68817205a84113384fffdfe3,68823425bf2384fd07e0fc8d,,,,,,,,,,,,,1,,,,,,,,,,,,,,,,,,,,,,,,440.5041,441.619,1,1,0.5794,,441.619,442.6191,0,8,8,8,1,0,bien,REAL,FAKE,,,,,,,,,,,,,,,,,,,,,,,,,,,,,,,,
,,,,,,,,,60fed4a51b41974258558dbe,mexican,13 or older,"yes, I am fluent in another language",no,2025-07-24_09h26.03.345,empathy_intonation_perc_control,2024.2.4,Win32,59.88023952,60fed4a51b41974258558dbe,68817205a84113384fffdfe3,68823425bf2384fd07e0fc8d,,,,,,,,,,,,,1,,,,,,,,,,,,,,,,,,,,,,,,442.6206,443.7358,1,1,0.5678,,443.7359,444.7357,0,9,9,9,1,0,casa,REAL,FAKE,,,,,,,,,,,,,,,,,,,,,,,,,,,,,,,,
,,,,,,,,,60fed4a51b41974258558dbe,mexican,13 or older,"yes, I am fluent in another language",no,2025-07-24_09h26.03.345,empathy_intonation_perc_control,2024.2.4,Win32,59.88023952,60fed4a51b41974258558dbe,68817205a84113384fffdfe3,68823425bf2384fd07e0fc8d,,,,,,,,,,,,,0,,,,,,,,,,,,,,,,,,,,,,,,444.7368,446.5694,1,0,1.2846,,446.5708,447.5691,0,10,10,10,1,0,lejo,REAL,FAKE,,,,,,,,,,,,,,,,,,,,,,,,,,,,,,,,
,,,,,,,,,60fed4a51b41974258558dbe,mexican,13 or older,"yes, I am fluent in another language",no,2025-07-24_09h26.03.345,empathy_intonation_perc_control,2024.2.4,Win32,59.88023952,60fed4a51b41974258558dbe,68817205a84113384fffdfe3,68823425bf2384fd07e0fc8d,,,,,,,,,,,,,0,,,,,,,,,,,,,,,,,,,,,,,,447.5704,451.9525,0,1,3.8407,,451.9534,452.9528,0,11,11,11,1,0,pretantas,REAL,FAKE,,,,,,,,,,,,,,,,,,,,,,,,,,,,,,,,
,,,,,,,,,60fed4a51b41974258558dbe,mexican,13 or older,"yes, I am fluent in another language",no,2025-07-24_09h26.03.345,empathy_intonation_perc_control,2024.2.4,Win32,59.88023952,60fed4a51b41974258558dbe,68817205a84113384fffdfe3,68823425bf2384fd07e0fc8d,,,,,,,,,,,,,,,,,,,,,,,,,,,,,,,,,,,,,,,,,,,,,,,,,,,,,,452.9535,482.6037,,,,,,,,,,,,,,,,,,,,,,,,,,,,,,
,,,,,,,,,60fed4a51b41974258558dbe,mexican,13 or older,"yes, I am fluent in another language",no,2025-07-24_09h26.03.345,empathy_intonation_perc_control,2024.2.4,Win32,59.88023952,60fed4a51b41974258558dbe,68817205a84113384fffdfe3,68823425bf2384fd07e0fc8d,,,,,,,,,,,,,0,,,,,,,,,,,,,,,,,,,,,,,,,,,,,,,,,,,,,27,acutación,,,,,482.6113,486.6861,0,1,3.5354,,0,0,0,26,1,REAL,FAKE,,,,,,,,,,,,,,,,,
,,,,,,,,,60fed4a51b41974258558dbe,mexican,13 or older,"yes, I am fluent in another language",no,2025-07-24_09h26.03.345,empathy_intonation_perc_control,2024.2.4,Win32,59.88023952,60fed4a51b41974258558dbe,68817205a84113384fffdfe3,68823425bf2384fd07e0fc8d,,,,,,,,,,,,,0,,,,,,,,,,,,,,,,,,,,,,,,,,,,,,,,,,,,,16,abracer,,,,,486.6874,489.0195,1,0,1.7881,,0,1,1,15,1,REAL,FAKE,,,,,,,,,,,,,,,,,
,,,,,,,,,60fed4a51b41974258558dbe,mexican,13 or older,"yes, I am fluent in another language",no,2025-07-24_09h26.03.345,empathy_intonation_perc_control,2024.2.4,Win32,59.88023952,60fed4a51b41974258558dbe,68817205a84113384fffdfe3,68823425bf2384fd07e0fc8d,,,,,,,,,,,,,0,,,,,,,,,,,,,,,,,,,,,,,,,,,,,,,,,,,,,19,brecedad,,,,,489.0208,491.2024,0,1,1.6471,,0,2,2,18,1,REAL,FAKE,,,,,,,,,,,,,,,,,
,,,,,,,,,60fed4a51b41974258558dbe,mexican,13 or older,"yes, I am fluent in another language",no,2025-07-24_09h26.03.345,empathy_intonation_perc_control,2024.2.4,Win32,59.88023952,60fed4a51b41974258558dbe,68817205a84113384fffdfe3,68823425bf2384fd07e0fc8d,,,,,,,,,,,,,1,,,,,,,,,,,,,,,,,,,,,,,,,,,,,,,,,,,,,85,laúd,,,,,491.2039,506.269,0,0,14.5283,,0,3,3,84,1,REAL,FAKE,,,,,,,,,,,,,,,,,
,,,,,,,,,60fed4a51b41974258558dbe,mexican,13 or older,"yes, I am fluent in another language",no,2025-07-24_09h26.03.345,empathy_intonation_perc_control,2024.2.4,Win32,59.88023952,60fed4a51b41974258558dbe,68817205a84113384fffdfe3,68823425bf2384fd07e0fc8d,,,,,,,,,,,,,1,,,,,,,,,,,,,,,,,,,,,,,,,,,,,,,,,,,,,24,látigo,,,,,506.2706,508.5191,0,0,1.7012,,0,4,4,23,1,REAL,FAKE,,,,,,,,,,,,,,,,,
,,,,,,,,,60fed4a51b41974258558dbe,mexican,13 or older,"yes, I am fluent in another language",no,2025-07-24_09h26.03.345,empathy_intonation_perc_control,2024.2.4,Win32,59.88023952,60fed4a51b41974258558dbe,68817205a84113384fffdfe3,68823425bf2384fd07e0fc8d,,,,,,,,,,,,,1,,,,,,,,,,,,,,,,,,,,,,,,,,,,,,,,,,,,,61,seda,,,,,508.5201,513.0691,1,1,4.0111,,0,5,5,60,1,REAL,FAKE,,,,,,,,,,,,,,,,,
,,,,,,,,,60fed4a51b41974258558dbe,mexican,13 or older,"yes, I am fluent in another language",no,2025-07-24_09h26.03.345,empathy_intonation_perc_control,2024.2.4,Win32,59.88023952,60fed4a51b41974258558dbe,68817205a84113384fffdfe3,68823425bf2384fd07e0fc8d,,,,,,,,,,,,,0,,,,,,,,,,,,,,,,,,,,,,,,,,,,,,,,,,,,,1,terzo,,,,,513.0702,517.1035,0,1,3.4853,,0,6,6,0,1,REAL,FAKE,,,,,,,,,,,,,,,,,
,,,,,,,,,60fed4a51b41974258558dbe,mexican,13 or older,"yes, I am fluent in another language",no,2025-07-24_09h26.03.345,empathy_intonation_perc_control,2024.2.4,Win32,59.88023952,60fed4a51b41974258558dbe,68817205a84113384fffdfe3,68823425bf2384fd07e0fc8d,,,,,,,,,,,,,1,,,,,,,,,,,,,,,,,,,,,,,,,,,,,,,,,,,,,56,musgo,,,,,517.1048,518.9024,0,0,1.2599,,0,7,7,55,1,REAL,FAKE,,,,,,,,,,,,,,,,,
,,,,,,,,,60fed4a51b41974258558dbe,mexican,13 or older,"yes, I am fluent in another language",no,2025-07-24_09h26.03.345,empathy_intonation_perc_control,2024.2.4,Win32,59.88023952,60fed4a51b41974258558dbe,68817205a84113384fffdfe3,68823425bf2384fd07e0fc8d,,,,,,,,,,,,,0,,,,,,,,,,,,,,,,,,,,,,,,,,,,,,,,,,,,,35,rompido,,,,,518.9036,521.6038,0,1,2.1646,,0,8,8,34,1,REAL,FAKE,,,,,,,,,,,,,,,,,
,,,,,,,,,60fed4a51b41974258558dbe,mexican,13 or older,"yes, I am fluent in another language",no,2025-07-24_09h26.03.345,empathy_intonation_perc_control,2024.2.4,Win32,59.88023952,60fed4a51b41974258558dbe,68817205a84113384fffdfe3,68823425bf2384fd07e0fc8d,,,,,,,,,,,,,1,,,,,,,,,,,,,,,,,,,,,,,,,,,,,,,,,,,,,64,orgulloso,,,,,521.6045,526.1032,1,1,3.9597,,0,9,9,63,1,REAL,FAKE,,,,,,,,,,,,,,,,,
,,,,,,,,,60fed4a51b41974258558dbe,mexican,13 or older,"yes, I am fluent in another language",no,2025-07-24_09h26.03.345,empathy_intonation_perc_control,2024.2.4,Win32,59.88023952,60fed4a51b41974258558dbe,68817205a84113384fffdfe3,68823425bf2384fd07e0fc8d,,,,,,,,,,,,,1,,,,,,,,,,,,,,,,,,,,,,,,,,,,,,,,,,,,,41,rebuscar,,,,,526.1042,529.2192,1,1,2.5805,,0,10,10,40,1,REAL,FAKE,,,,,,,,,,,,,,,,,
,,,,,,,,,60fed4a51b41974258558dbe,mexican,13 or older,"yes, I am fluent in another language",no,2025-07-24_09h26.03.345,empathy_intonation_perc_control,2024.2.4,Win32,59.88023952,60fed4a51b41974258558dbe,68817205a84113384fffdfe3,68823425bf2384fd07e0fc8d,,,,,,,,,,,,,0,,,,,,,,,,,,,,,,,,,,,,,,,,,,,,,,,,,,,23,lampera,,,,,529.2204,536.2856,1,0,6.5273,,0,11,11,22,1,REAL,FAKE,,,,,,,,,,,,,,,,,
,,,,,,,,,60fed4a51b41974258558dbe,mexican,13 or older,"yes, I am fluent in another language",no,2025-07-24_09h26.03.345,empathy_intonation_perc_control,2024.2.4,Win32,59.88023952,60fed4a51b41974258558dbe,68817205a84113384fffdfe3,68823425bf2384fd07e0fc8d,,,,,,,,,,,,,0,,,,,,,,,,,,,,,,,,,,,,,,,,,,,,,,,,,,,29,decar,,,,,536.2866,539.0695,0,1,2.2367,,0,12,12,28,1,REAL,FAKE,,,,,,,,,,,,,,,,,
,,,,,,,,,60fed4a51b41974258558dbe,mexican,13 or older,"yes, I am fluent in another language",no,2025-07-24_09h26.03.345,empathy_intonation_perc_control,2024.2.4,Win32,59.88023952,60fed4a51b41974258558dbe,68817205a84113384fffdfe3,68823425bf2384fd07e0fc8d,,,,,,,,,,,,,1,,,,,,,,,,,,,,,,,,,,,,,,,,,,,,,,,,,,,44,cuchara,,,,,539.0708,546.7027,1,1,7.0853,,0,13,13,43,1,REAL,FAKE,,,,,,,,,,,,,,,,,
,,,,,,,,,60fed4a51b41974258558dbe,mexican,13 or older,"yes, I am fluent in another language",no,2025-07-24_09h26.03.345,empathy_intonation_perc_control,2024.2.4,Win32,59.88023952,60fed4a51b41974258558dbe,68817205a84113384fffdfe3,68823425bf2384fd07e0fc8d,,,,,,,,,,,,,1,,,,,,,,,,,,,,,,,,,,,,,,,,,,,,,,,,,,,65,bizcocho,,,,,546.7043,548.5358,1,1,1.2928,,0,14,14,64,1,REAL,FAKE,,,,,,,,,,,,,,,,,
,,,,,,,,,60fed4a51b41974258558dbe,mexican,13 or older,"yes, I am fluent in another language",no,2025-07-24_09h26.03.345,empathy_intonation_perc_control,2024.2.4,Win32,59.88023952,60fed4a51b41974258558dbe,68817205a84113384fffdfe3,68823425bf2384fd07e0fc8d,,,,,,,,,,,,,0,,,,,,,,,,,,,,,,,,,,,,,,,,,,,,,,,,,,,87,grodo,,,,,548.5372,560.6357,0,1,11.5634,,0,15,15,86,1,REAL,FAKE,,,,,,,,,,,,,,,,,
,,,,,,,,,60fed4a51b41974258558dbe,mexican,13 or older,"yes, I am fluent in another language",no,2025-07-24_09h26.03.345,empathy_intonation_perc_control,2024.2.4,Win32,59.88023952,60fed4a51b41974258558dbe,68817205a84113384fffdfe3,68823425bf2384fd07e0fc8d,,,,,,,,,,,,,1,,,,,,,,,,,,,,,,,,,,,,,,,,,,,,,,,,,,,15,regar,,,,,560.6367,563.5888,1,1,2.4168,,0,16,16,14,1,REAL,FAKE,,,,,,,,,,,,,,,,,
,,,,,,,,,60fed4a51b41974258558dbe,mexican,13 or older,"yes, I am fluent in another language",no,2025-07-24_09h26.03.345,empathy_intonation_perc_control,2024.2.4,Win32,59.88023952,60fed4a51b41974258558dbe,68817205a84113384fffdfe3,68823425bf2384fd07e0fc8d,,,,,,,,,,,,,1,,,,,,,,,,,,,,,,,,,,,,,,,,,,,,,,,,,,,9,hacha,,,,,563.5897,581.0194,1,1,16.8842,,0,17,17,8,1,REAL,FAKE,,,,,,,,,,,,,,,,,
,,,,,,,,,60fed4a51b41974258558dbe,mexican,13 or older,"yes, I am fluent in another language",no,2025-07-24_09h26.03.345,empathy_intonation_perc_control,2024.2.4,Win32,59.88023952,60fed4a51b41974258558dbe,68817205a84113384fffdfe3,68823425bf2384fd07e0fc8d,,,,,,,,,,,,,1,,,,,,,,,,,,,,,,,,,,,,,,,,,,,,,,,,,,,40,alfombra,,,,,581.0208,593.1692,0,0,11.6084,,0,18,18,39,1,REAL,FAKE,,,,,,,,,,,,,,,,,
,,,,,,,,,60fed4a51b41974258558dbe,mexican,13 or older,"yes, I am fluent in another language",no,2025-07-24_09h26.03.345,empathy_intonation_perc_control,2024.2.4,Win32,59.88023952,60fed4a51b41974258558dbe,68817205a84113384fffdfe3,68823425bf2384fd07e0fc8d,,,,,,,,,,,,,1,,,,,,,,,,,,,,,,,,,,,,,,,,,,,,,,,,,,,49,ganar,,,,,593.1708,594.8689,0,0,1.1619,,0,19,19,48,1,REAL,FAKE,,,,,,,,,,,,,,,,,
,,,,,,,,,60fed4a51b41974258558dbe,mexican,13 or older,"yes, I am fluent in another language",no,2025-07-24_09h26.03.345,empathy_intonation_perc_control,2024.2.4,Win32,59.88023952,60fed4a51b41974258558dbe,68817205a84113384fffdfe3,68823425bf2384fd07e0fc8d,,,,,,,,,,,,,1,,,,,,,,,,,,,,,,,,,,,,,,,,,,,,,,,,,,,6,tergiversar,,,,,594.8704,601.2218,0,0,5.8165,,0,20,20,5,1,REAL,FAKE,,,,,,,,,,,,,,,,,
,,,,,,,,,60fed4a51b41974258558dbe,mexican,13 or older,"yes, I am fluent in another language",no,2025-07-24_09h26.03.345,empathy_intonation_perc_control,2024.2.4,Win32,59.88023952,60fed4a51b41974258558dbe,68817205a84113384fffdfe3,68823425bf2384fd07e0fc8d,,,,,,,,,,,,,1,,,,,,,,,,,,,,,,,,,,,,,,,,,,,,,,,,,,,12,asesinato,,,,,601.2224,604.003,0,0,2.234,,0,21,21,11,1,REAL,FAKE,,,,,,,,,,,,,,,,,
,,,,,,,,,60fed4a51b41974258558dbe,mexican,13 or older,"yes, I am fluent in another language",no,2025-07-24_09h26.03.345,empathy_intonation_perc_control,2024.2.4,Win32,59.88023952,60fed4a51b41974258558dbe,68817205a84113384fffdfe3,68823425bf2384fd07e0fc8d,,,,,,,,,,,,,1,,,,,,,,,,,,,,,,,,,,,,,,,,,,,,,,,,,,,55,nevar,,,,,604.004,605.669,1,1,1.1285,,0,22,22,54,1,REAL,FAKE,,,,,,,,,,,,,,,,,
,,,,,,,,,60fed4a51b41974258558dbe,mexican,13 or older,"yes, I am fluent in another language",no,2025-07-24_09h26.03.345,empathy_intonation_perc_control,2024.2.4,Win32,59.88023952,60fed4a51b41974258558dbe,68817205a84113384fffdfe3,68823425bf2384fd07e0fc8d,,,,,,,,,,,,,1,,,,,,,,,,,,,,,,,,,,,,,,,,,,,,,,,,,,,52,camisa,,,,,605.67,607.5356,1,1,1.3258,,0,23,23,51,1,REAL,FAKE,,,,,,,,,,,,,,,,,
,,,,,,,,,60fed4a51b41974258558dbe,mexican,13 or older,"yes, I am fluent in another language",no,2025-07-24_09h26.03.345,empathy_intonation_perc_control,2024.2.4,Win32,59.88023952,60fed4a51b41974258558dbe,68817205a84113384fffdfe3,68823425bf2384fd07e0fc8d,,,,,,,,,,,,,1,,,,,,,,,,,,,,,,,,,,,,,,,,,,,,,,,,,,,78,frondoso,,,,,607.5368,609.6858,0,0,1.6113,,0,24,24,77,1,REAL,FAKE,,,,,,,,,,,,,,,,,
,,,,,,,,,60fed4a51b41974258558dbe,mexican,13 or older,"yes, I am fluent in another language",no,2025-07-24_09h26.03.345,empathy_intonation_perc_control,2024.2.4,Win32,59.88023952,60fed4a51b41974258558dbe,68817205a84113384fffdfe3,68823425bf2384fd07e0fc8d,,,,,,,,,,,,,1,,,,,,,,,,,,,,,,,,,,,,,,,,,,,,,,,,,,,88,acantilado,,,,,609.6869,611.6194,0,0,1.3977,,0,25,25,87,1,REAL,FAKE,,,,,,,,,,,,,,,,,
,,,,,,,,,60fed4a51b41974258558dbe,mexican,13 or older,"yes, I am fluent in another language",no,2025-07-24_09h26.03.345,empathy_intonation_perc_control,2024.2.4,Win32,59.88023952,60fed4a51b41974258558dbe,68817205a84113384fffdfe3,68823425bf2384fd07e0fc8d,,,,,,,,,,,,,1,,,,,,,,,,,,,,,,,,,,,,,,,,,,,,,,,,,,,11,cenefa,,,,,611.6202,617.2522,0,0,5.0971,,0,26,26,10,1,REAL,FAKE,,,,,,,,,,,,,,,,,
,,,,,,,,,60fed4a51b41974258558dbe,mexican,13 or older,"yes, I am fluent in another language",no,2025-07-24_09h26.03.345,empathy_intonation_perc_control,2024.2.4,Win32,59.88023952,60fed4a51b41974258558dbe,68817205a84113384fffdfe3,68823425bf2384fd07e0fc8d,,,,,,,,,,,,,0,,,,,,,,,,,,,,,,,,,,,,,,,,,,,,,,,,,,,92,click the 0 key.,,,,,617.2538,620.0357,0,1,2.2386,,0,27,27,91,1,REAL,FAKE,,,,,,,,,,,,,,,,,
,,,,,,,,,60fed4a51b41974258558dbe,mexican,13 or older,"yes, I am fluent in another language",no,2025-07-24_09h26.03.345,empathy_intonation_perc_control,2024.2.4,Win32,59.88023952,60fed4a51b41974258558dbe,68817205a84113384fffdfe3,68823425bf2384fd07e0fc8d,,,,,,,,,,,,,1,,,,,,,,,,,,,,,,,,,,,,,,,,,,,,,,,,,,,80,hormiga,,,,,620.0367,621.8856,0,0,1.3034,,0,28,28,79,1,REAL,FAKE,,,,,,,,,,,,,,,,,
,,,,,,,,,60fed4a51b41974258558dbe,mexican,13 or older,"yes, I am fluent in another language",no,2025-07-24_09h26.03.345,empathy_intonation_perc_control,2024.2.4,Win32,59.88023952,60fed4a51b41974258558dbe,68817205a84113384fffdfe3,68823425bf2384fd07e0fc8d,,,,,,,,,,,,,0,,,,,,,,,,,,,,,,,,,,,,,,,,,,,,,,,,,,,47,cartinar,,,,,621.8867,623.6856,0,1,1.2614,,0,29,29,46,1,REAL,FAKE,,,,,,,,,,,,,,,,,
,,,,,,,,,60fed4a51b41974258558dbe,mexican,13 or older,"yes, I am fluent in another language",no,2025-07-24_09h26.03.345,empathy_intonation_perc_control,2024.2.4,Win32,59.88023952,60fed4a51b41974258558dbe,68817205a84113384fffdfe3,68823425bf2384fd07e0fc8d,,,,,,,,,,,,,0,,,,,,,,,,,,,,,,,,,,,,,,,,,,,,,,,,,,,21,capillo,,,,,623.6866,625.8356,1,0,1.6052,,0,30,30,20,1,REAL,FAKE,,,,,,,,,,,,,,,,,
,,,,,,,,,60fed4a51b41974258558dbe,mexican,13 or older,"yes, I am fluent in another language",no,2025-07-24_09h26.03.345,empathy_intonation_perc_control,2024.2.4,Win32,59.88023952,60fed4a51b41974258558dbe,68817205a84113384fffdfe3,68823425bf2384fd07e0fc8d,,,,,,,,,,,,,0,,,,,,,,,,,,,,,,,,,,,,,,,,,,,,,,,,,,,79,tropaje,,,,,625.8369,627.6689,0,1,1.2955,,0,31,31,78,1,REAL,FAKE,,,,,,,,,,,,,,,,,
,,,,,,,,,60fed4a51b41974258558dbe,mexican,13 or older,"yes, I am fluent in another language",no,2025-07-24_09h26.03.345,empathy_intonation_perc_control,2024.2.4,Win32,59.88023952,60fed4a51b41974258558dbe,68817205a84113384fffdfe3,68823425bf2384fd07e0fc8d,,,,,,,,,,,,,1,,,,,,,,,,,,,,,,,,,,,,,,,,,,,,,,,,,,,51,candado,,,,,627.6699,629.2692,1,1,1.0539,,0,32,32,50,1,REAL,FAKE,,,,,,,,,,,,,,,,,
,,,,,,,,,60fed4a51b41974258558dbe,mexican,13 or older,"yes, I am fluent in another language",no,2025-07-24_09h26.03.345,empathy_intonation_perc_control,2024.2.4,Win32,59.88023952,60fed4a51b41974258558dbe,68817205a84113384fffdfe3,68823425bf2384fd07e0fc8d,,,,,,,,,,,,,1,,,,,,,,,,,,,,,,,,,,,,,,,,,,,,,,,,,,,45,jilguero,,,,,629.2707,635.8522,0,0,6.0464,,0,33,33,44,1,REAL,FAKE,,,,,,,,,,,,,,,,,
,,,,,,,,,60fed4a51b41974258558dbe,mexican,13 or older,"yes, I am fluent in another language",no,2025-07-24_09h26.03.345,empathy_intonation_perc_control,2024.2.4,Win32,59.88023952,60fed4a51b41974258558dbe,68817205a84113384fffdfe3,68823425bf2384fd07e0fc8d,,,,,,,,,,,,,1,,,,,,,,,,,,,,,,,,,,,,,,,,,,,,,,,,,,,91,click the 1 key.,,,,,635.8535,637.5691,1,1,1.1747,,0,34,34,90,1,REAL,FAKE,,,,,,,,,,,,,,,,,
,,,,,,,,,60fed4a51b41974258558dbe,mexican,13 or older,"yes, I am fluent in another language",no,2025-07-24_09h26.03.345,empathy_intonation_perc_control,2024.2.4,Win32,59.88023952,60fed4a51b41974258558dbe,68817205a84113384fffdfe3,68823425bf2384fd07e0fc8d,,,,,,,,,,,,,1,,,,,,,,,,,,,,,,,,,,,,,,,,,,,,,,,,,,,2,pellizcar,,,,,637.5707,639.3189,0,0,1.2024,,0,35,35,1,1,REAL,FAKE,,,,,,,,,,,,,,,,,
,,,,,,,,,60fed4a51b41974258558dbe,mexican,13 or older,"yes, I am fluent in another language",no,2025-07-24_09h26.03.345,empathy_intonation_perc_control,2024.2.4,Win32,59.88023952,60fed4a51b41974258558dbe,68817205a84113384fffdfe3,68823425bf2384fd07e0fc8d,,,,,,,,,,,,,1,,,,,,,,,,,,,,,,,,,,,,,,,,,,,,,,,,,,,38,estornudar,,,,,639.3199,642.6193,0,0,2.7512,,0,36,36,37,1,REAL,FAKE,,,,,,,,,,,,,,,,,
,,,,,,,,,60fed4a51b41974258558dbe,mexican,13 or older,"yes, I am fluent in another language",no,2025-07-24_09h26.03.345,empathy_intonation_perc_control,2024.2.4,Win32,59.88023952,60fed4a51b41974258558dbe,68817205a84113384fffdfe3,68823425bf2384fd07e0fc8d,,,,,,,,,,,,,1,,,,,,,,,,,,,,,,,,,,,,,,,,,,,,,,,,,,,62,flaco,,,,,642.6209,644.3857,1,1,1.224,,0,37,37,61,1,REAL,FAKE,,,,,,,,,,,,,,,,,
,,,,,,,,,60fed4a51b41974258558dbe,mexican,13 or older,"yes, I am fluent in another language",no,2025-07-24_09h26.03.345,empathy_intonation_perc_control,2024.2.4,Win32,59.88023952,60fed4a51b41974258558dbe,68817205a84113384fffdfe3,68823425bf2384fd07e0fc8d,,,,,,,,,,,,,1,,,,,,,,,,,,,,,,,,,,,,,,,,,,,,,,,,,,,39,torpe,,,,,644.3867,645.4855,1,1,0.5622,,0,38,38,38,1,REAL,FAKE,,,,,,,,,,,,,,,,,
,,,,,,,,,60fed4a51b41974258558dbe,mexican,13 or older,"yes, I am fluent in another language",no,2025-07-24_09h26.03.345,empathy_intonation_perc_control,2024.2.4,Win32,59.88023952,60fed4a51b41974258558dbe,68817205a84113384fffdfe3,68823425bf2384fd07e0fc8d,,,,,,,,,,,,,1,,,,,,,,,,,,,,,,,,,,,,,,,,,,,,,,,,,,,54,fomentar,,,,,645.4866,646.6688,1,1,0.6457,,0,39,39,53,1,REAL,FAKE,,,,,,,,,,,,,,,,,
,,,,,,,,,60fed4a51b41974258558dbe,mexican,13 or older,"yes, I am fluent in another language",no,2025-07-24_09h26.03.345,empathy_intonation_perc_control,2024.2.4,Win32,59.88023952,60fed4a51b41974258558dbe,68817205a84113384fffdfe3,68823425bf2384fd07e0fc8d,,,,,,,,,,,,,0,,,,,,,,,,,,,,,,,,,,,,,,,,,,,,,,,,,,,53,vegada,,,,,646.6699,647.8522,1,0,0.6381,,0,40,40,52,1,REAL,FAKE,,,,,,,,,,,,,,,,,
,,,,,,,,,60fed4a51b41974258558dbe,mexican,13 or older,"yes, I am fluent in another language",no,2025-07-24_09h26.03.345,empathy_intonation_perc_control,2024.2.4,Win32,59.88023952,60fed4a51b41974258558dbe,68817205a84113384fffdfe3,68823425bf2384fd07e0fc8d,,,,,,,,,,,,,1,,,,,,,,,,,,,,,,,,,,,,,,,,,,,,,,,,,,,13,helar,,,,,647.8533,648.9522,1,1,0.5589,,0,41,41,12,1,REAL,FAKE,,,,,,,,,,,,,,,,,
,,,,,,,,,60fed4a51b41974258558dbe,mexican,13 or older,"yes, I am fluent in another language",no,2025-07-24_09h26.03.345,empathy_intonation_perc_control,2024.2.4,Win32,59.88023952,60fed4a51b41974258558dbe,68817205a84113384fffdfe3,68823425bf2384fd07e0fc8d,,,,,,,,,,,,,1,,,,,,,,,,,,,,,,,,,,,,,,,,,,,,,,,,,,,31,pandilla,,,,,648.9533,651.0358,1,1,1.5392,,0,42,42,30,1,REAL,FAKE,,,,,,,,,,,,,,,,,
,,,,,,,,,60fed4a51b41974258558dbe,mexican,13 or older,"yes, I am fluent in another language",no,2025-07-24_09h26.03.345,empathy_intonation_perc_control,2024.2.4,Win32,59.88023952,60fed4a51b41974258558dbe,68817205a84113384fffdfe3,68823425bf2384fd07e0fc8d,,,,,,,,,,,,,1,,,,,,,,,,,,,,,,,,,,,,,,,,,,,,,,,,,,,46,martillo,,,,,651.0367,653.219,0,0,1.6399,,0,43,43,45,1,REAL,FAKE,,,,,,,,,,,,,,,,,
,,,,,,,,,60fed4a51b41974258558dbe,mexican,13 or older,"yes, I am fluent in another language",no,2025-07-24_09h26.03.345,empathy_intonation_perc_control,2024.2.4,Win32,59.88023952,60fed4a51b41974258558dbe,68817205a84113384fffdfe3,68823425bf2384fd07e0fc8d,,,,,,,,,,,,,0,,,,,,,,,,,,,,,,,,,,,,,,,,,,,,,,,,,,,84,escuto,,,,,653.2209,655.0364,1,0,1.2679,,0,44,44,83,1,REAL,FAKE,,,,,,,,,,,,,,,,,
,,,,,,,,,60fed4a51b41974258558dbe,mexican,13 or older,"yes, I am fluent in another language",no,2025-07-24_09h26.03.345,empathy_intonation_perc_control,2024.2.4,Win32,59.88023952,60fed4a51b41974258558dbe,68817205a84113384fffdfe3,68823425bf2384fd07e0fc8d,,,,,,,,,,,,,1,,,,,,,,,,,,,,,,,,,,,,,,,,,,,,,,,,,,,20,ávido,,,,,655.0373,657.2025,0,0,1.6183,,0,45,45,19,1,REAL,FAKE,,,,,,,,,,,,,,,,,
,,,,,,,,,60fed4a51b41974258558dbe,mexican,13 or older,"yes, I am fluent in another language",no,2025-07-24_09h26.03.345,empathy_intonation_perc_control,2024.2.4,Win32,59.88023952,60fed4a51b41974258558dbe,68817205a84113384fffdfe3,68823425bf2384fd07e0fc8d,,,,,,,,,,,,,1,,,,,,,,,,,,,,,,,,,,,,,,,,,,,,,,,,,,,48,ladrón,,,,,657.2041,658.5025,0,0,0.7529,,0,46,46,47,1,REAL,FAKE,,,,,,,,,,,,,,,,,
,,,,,,,,,60fed4a51b41974258558dbe,mexican,13 or older,"yes, I am fluent in another language",no,2025-07-24_09h26.03.345,empathy_intonation_perc_control,2024.2.4,Win32,59.88023952,60fed4a51b41974258558dbe,68817205a84113384fffdfe3,68823425bf2384fd07e0fc8d,,,,,,,,,,,,,1,,,,,,,,,,,,,,,,,,,,,,,,,,,,,,,,,,,,,7,pésimo,,,,,658.5042,660.2855,0,0,1.2453,,0,47,47,6,1,REAL,FAKE,,,,,,,,,,,,,,,,,
,,,,,,,,,60fed4a51b41974258558dbe,mexican,13 or older,"yes, I am fluent in another language",no,2025-07-24_09h26.03.345,empathy_intonation_perc_control,2024.2.4,Win32,59.88023952,60fed4a51b41974258558dbe,68817205a84113384fffdfe3,68823425bf2384fd07e0fc8d,,,,,,,,,,,,,1,,,,,,,,,,,,,,,,,,,,,,,,,,,,,,,,,,,,,34,aviso,,,,,660.2866,662.019,0,0,1.1845,,0,48,48,33,1,REAL,FAKE,,,,,,,,,,,,,,,,,
,,,,,,,,,60fed4a51b41974258558dbe,mexican,13 or older,"yes, I am fluent in another language",no,2025-07-24_09h26.03.345,empathy_intonation_perc_control,2024.2.4,Win32,59.88023952,60fed4a51b41974258558dbe,68817205a84113384fffdfe3,68823425bf2384fd07e0fc8d,,,,,,,,,,,,,1,,,,,,,,,,,,,,,,,,,,,,,,,,,,,,,,,,,,,36,loro,,,,,662.0199,663.6858,1,1,1.1201,,0,49,49,35,1,REAL,FAKE,,,,,,,,,,,,,,,,,
,,,,,,,,,60fed4a51b41974258558dbe,mexican,13 or older,"yes, I am fluent in another language",no,2025-07-24_09h26.03.345,empathy_intonation_perc_control,2024.2.4,Win32,59.88023952,60fed4a51b41974258558dbe,68817205a84113384fffdfe3,68823425bf2384fd07e0fc8d,,,,,,,,,,,,,0,,,,,,,,,,,,,,,,,,,,,,,,,,,,,,,,,,,,,50,flamida,,,,,663.687,669.5522,0,1,5.326,,0,50,50,49,1,REAL,FAKE,,,,,,,,,,,,,,,,,
,,,,,,,,,60fed4a51b41974258558dbe,mexican,13 or older,"yes, I am fluent in another language",no,2025-07-24_09h26.03.345,empathy_intonation_perc_control,2024.2.4,Win32,59.88023952,60fed4a51b41974258558dbe,68817205a84113384fffdfe3,68823425bf2384fd07e0fc8d,,,,,,,,,,,,,1,,,,,,,,,,,,,,,,,,,,,,,,,,,,,,,,,,,,,77,tiburón,,,,,669.5536,674.1355,0,0,4.0432,,0,51,51,76,1,REAL,FAKE,,,,,,,,,,,,,,,,,
,,,,,,,,,60fed4a51b41974258558dbe,mexican,13 or older,"yes, I am fluent in another language",no,2025-07-24_09h26.03.345,empathy_intonation_perc_control,2024.2.4,Win32,59.88023952,60fed4a51b41974258558dbe,68817205a84113384fffdfe3,68823425bf2384fd07e0fc8d,,,,,,,,,,,,,0,,,,,,,,,,,,,,,,,,,,,,,,,,,,,,,,,,,,,82,empirador,,,,,674.1365,676.4523,0,1,1.7804,,0,52,52,81,1,REAL,FAKE,,,,,,,,,,,,,,,,,
,,,,,,,,,60fed4a51b41974258558dbe,mexican,13 or older,"yes, I am fluent in another language",no,2025-07-24_09h26.03.345,empathy_intonation_perc_control,2024.2.4,Win32,59.88023952,60fed4a51b41974258558dbe,68817205a84113384fffdfe3,68823425bf2384fd07e0fc8d,,,,,,,,,,,,,1,,,,,,,,,,,,,,,,,,,,,,,,,,,,,,,,,,,,,67,cabello,,,,,676.4534,678.3855,1,1,1.3914,,0,53,53,66,1,REAL,FAKE,,,,,,,,,,,,,,,,,
,,,,,,,,,60fed4a51b41974258558dbe,mexican,13 or older,"yes, I am fluent in another language",no,2025-07-24_09h26.03.345,empathy_intonation_perc_control,2024.2.4,Win32,59.88023952,60fed4a51b41974258558dbe,68817205a84113384fffdfe3,68823425bf2384fd07e0fc8d,,,,,,,,,,,,,1,,,,,,,,,,,,,,,,,,,,,,,,,,,,,,,,,,,,,28,merodear,,,,,678.3866,682.4357,0,0,3.5059,,0,54,54,27,1,REAL,FAKE,,,,,,,,,,,,,,,,,
,,,,,,,,,60fed4a51b41974258558dbe,mexican,13 or older,"yes, I am fluent in another language",no,2025-07-24_09h26.03.345,empathy_intonation_perc_control,2024.2.4,Win32,59.88023952,60fed4a51b41974258558dbe,68817205a84113384fffdfe3,68823425bf2384fd07e0fc8d,,,,,,,,,,,,,1,,,,,,,,,,,,,,,,,,,,,,,,,,,,,,,,,,,,,60,matar,,,,,682.4368,684.7021,1,1,1.7287,,0,55,55,59,1,REAL,FAKE,,,,,,,,,,,,,,,,,
,,,,,,,,,60fed4a51b41974258558dbe,mexican,13 or older,"yes, I am fluent in another language",no,2025-07-24_09h26.03.345,empathy_intonation_perc_control,2024.2.4,Win32,59.88023952,60fed4a51b41974258558dbe,68817205a84113384fffdfe3,68823425bf2384fd07e0fc8d,,,,,,,,,,,,,0,,,,,,,,,,,,,,,,,,,,,,,,,,,,,,,,,,,,,10,antar,,,,,684.7035,686.2522,0,1,1.0132,,0,56,56,9,1,REAL,FAKE,,,,,,,,,,,,,,,,,
,,,,,,,,,60fed4a51b41974258558dbe,mexican,13 or older,"yes, I am fluent in another language",no,2025-07-24_09h26.03.345,empathy_intonation_perc_control,2024.2.4,Win32,59.88023952,60fed4a51b41974258558dbe,68817205a84113384fffdfe3,68823425bf2384fd07e0fc8d,,,,,,,,,,,,,0,,,,,,,,,,,,,,,,,,,,,,,,,,,,,,,,,,,,,63,esposante,,,,,686.2533,688.0522,0,1,1.264,,0,57,57,62,1,REAL,FAKE,,,,,,,,,,,,,,,,,
,,,,,,,,,60fed4a51b41974258558dbe,mexican,13 or older,"yes, I am fluent in another language",no,2025-07-24_09h26.03.345,empathy_intonation_perc_control,2024.2.4,Win32,59.88023952,60fed4a51b41974258558dbe,68817205a84113384fffdfe3,68823425bf2384fd07e0fc8d,,,,,,,,,,,,,1,,,,,,,,,,,,,,,,,,,,,,,,,,,,,,,,,,,,,37,granuja,,,,,688.0534,690.0024,0,0,1.4008,,0,58,58,36,1,REAL,FAKE,,,,,,,,,,,,,,,,,
,,,,,,,,,60fed4a51b41974258558dbe,mexican,13 or older,"yes, I am fluent in another language",no,2025-07-24_09h26.03.345,empathy_intonation_perc_control,2024.2.4,Win32,59.88023952,60fed4a51b41974258558dbe,68817205a84113384fffdfe3,68823425bf2384fd07e0fc8d,,,,,,,,,,,,,1,,,,,,,,,,,,,,,,,,,,,,,,,,,,,,,,,,,,,43,canela,,,,,690.0035,691.9688,1,1,1.4253,,0,59,59,42,1,REAL,FAKE,,,,,,,,,,,,,,,,,
,,,,,,,,,60fed4a51b41974258558dbe,mexican,13 or older,"yes, I am fluent in another language",no,2025-07-24_09h26.03.345,empathy_intonation_perc_control,2024.2.4,Win32,59.88023952,60fed4a51b41974258558dbe,68817205a84113384fffdfe3,68823425bf2384fd07e0fc8d,,,,,,,,,,,,,0,,,,,,,,,,,,,,,,,,,,,,,,,,,,,,,,,,,,,4,batillón,,,,,691.9699,693.869,1,0,1.3624,,0,60,60,3,1,REAL,FAKE,,,,,,,,,,,,,,,,,
,,,,,,,,,60fed4a51b41974258558dbe,mexican,13 or older,"yes, I am fluent in another language",no,2025-07-24_09h26.03.345,empathy_intonation_perc_control,2024.2.4,Win32,59.88023952,60fed4a51b41974258558dbe,68817205a84113384fffdfe3,68823425bf2384fd07e0fc8d,,,,,,,,,,,,,1,,,,,,,,,,,,,,,,,,,,,,,,,,,,,,,,,,,,,26,secuestro,,,,,693.8701,695.9856,0,0,1.5748,,0,61,61,25,1,REAL,FAKE,,,,,,,,,,,,,,,,,
,,,,,,,,,60fed4a51b41974258558dbe,mexican,13 or older,"yes, I am fluent in another language",no,2025-07-24_09h26.03.345,empathy_intonation_perc_control,2024.2.4,Win32,59.88023952,60fed4a51b41974258558dbe,68817205a84113384fffdfe3,68823425bf2384fd07e0fc8d,,,,,,,,,,,,,0,,,,,,,,,,,,,,,,,,,,,,,,,,,,,,,,,,,,,58,plaudir,,,,,695.9869,697.3692,0,1,0.8343,,0,62,62,57,1,REAL,FAKE,,,,,,,,,,,,,,,,,
,,,,,,,,,60fed4a51b41974258558dbe,mexican,13 or older,"yes, I am fluent in another language",no,2025-07-24_09h26.03.345,empathy_intonation_perc_control,2024.2.4,Win32,59.88023952,60fed4a51b41974258558dbe,68817205a84113384fffdfe3,68823425bf2384fd07e0fc8d,,,,,,,,,,,,,1,,,,,,,,,,,,,,,,,,,,,,,,,,,,,,,,,,,,,14,yunque,,,,,697.3706,698.5354,0,0,0.6268,,0,63,63,13,1,REAL,FAKE,,,,,,,,,,,,,,,,,
,,,,,,,,,60fed4a51b41974258558dbe,mexican,13 or older,"yes, I am fluent in another language",no,2025-07-24_09h26.03.345,empathy_intonation_perc_control,2024.2.4,Win32,59.88023952,60fed4a51b41974258558dbe,68817205a84113384fffdfe3,68823425bf2384fd07e0fc8d,,,,,,,,,,,,,0,,,,,,,,,,,,,,,,,,,,,,,,,,,,,,,,,,,,,18,arsa,,,,,698.5364,699.822,0,1,0.7503,,0,64,64,17,1,REAL,FAKE,,,,,,,,,,,,,,,,,
,,,,,,,,,60fed4a51b41974258558dbe,mexican,13 or older,"yes, I am fluent in another language",no,2025-07-24_09h26.03.345,empathy_intonation_perc_control,2024.2.4,Win32,59.88023952,60fed4a51b41974258558dbe,68817205a84113384fffdfe3,68823425bf2384fd07e0fc8d,,,,,,,,,,,,,0,,,,,,,,,,,,,,,,,,,,,,,,,,,,,,,,,,,,,42,cadallo,,,,,699.8228,701.5525,1,0,1.1847,,0,65,65,41,1,REAL,FAKE,,,,,,,,,,,,,,,,,
,,,,,,,,,60fed4a51b41974258558dbe,mexican,13 or older,"yes, I am fluent in another language",no,2025-07-24_09h26.03.345,empathy_intonation_perc_control,2024.2.4,Win32,59.88023952,60fed4a51b41974258558dbe,68817205a84113384fffdfe3,68823425bf2384fd07e0fc8d,,,,,,,,,,,,,1,,,,,,,,,,,,,,,,,,,,,,,,,,,,,,,,,,,,,86,barato,,,,,701.5537,704.8218,0,0,2.7337,,0,66,66,85,1,REAL,FAKE,,,,,,,,,,,,,,,,,
,,,,,,,,,60fed4a51b41974258558dbe,mexican,13 or older,"yes, I am fluent in another language",no,2025-07-24_09h26.03.345,empathy_intonation_perc_control,2024.2.4,Win32,59.88023952,60fed4a51b41974258558dbe,68817205a84113384fffdfe3,68823425bf2384fd07e0fc8d,,,,,,,,,,,,,1,,,,,,,,,,,,,,,,,,,,,,,,,,,,,,,,,,,,,76,atar,,,,,704.8225,707.9191,0,0,2.5529,,0,67,67,75,1,REAL,FAKE,,,,,,,,,,,,,,,,,
,,,,,,,,,60fed4a51b41974258558dbe,mexican,13 or older,"yes, I am fluent in another language",no,2025-07-24_09h26.03.345,empathy_intonation_perc_control,2024.2.4,Win32,59.88023952,60fed4a51b41974258558dbe,68817205a84113384fffdfe3,68823425bf2384fd07e0fc8d,,,,,,,,,,,,,1,,,,,,,,,,,,,,,,,,,,,,,,,,,,,,,,,,,,,75,yacer,,,,,707.9211,712.1022,1,1,3.6367,,0,68,68,74,1,REAL,FAKE,,,,,,,,,,,,,,,,,
,,,,,,,,,60fed4a51b41974258558dbe,mexican,13 or older,"yes, I am fluent in another language",no,2025-07-24_09h26.03.345,empathy_intonation_perc_control,2024.2.4,Win32,59.88023952,60fed4a51b41974258558dbe,68817205a84113384fffdfe3,68823425bf2384fd07e0fc8d,,,,,,,,,,,,,0,,,,,,,,,,,,,,,,,,,,,,,,,,,,,,,,,,,,,8,cadeña,,,,,712.1035,723.9024,0,1,11.2536,,0,69,69,7,1,REAL,FAKE,,,,,,,,,,,,,,,,,
,,,,,,,,,60fed4a51b41974258558dbe,mexican,13 or older,"yes, I am fluent in another language",no,2025-07-24_09h26.03.345,empathy_intonation_perc_control,2024.2.4,Win32,59.88023952,60fed4a51b41974258558dbe,68817205a84113384fffdfe3,68823425bf2384fd07e0fc8d,,,,,,,,,,,,,1,,,,,,,,,,,,,,,,,,,,,,,,,,,,,,,,,,,,,73,hervidor,,,,,723.9039,737.7858,0,0,13.344,,0,70,70,72,1,REAL,FAKE,,,,,,,,,,,,,,,,,
,,,,,,,,,60fed4a51b41974258558dbe,mexican,13 or older,"yes, I am fluent in another language",no,2025-07-24_09h26.03.345,empathy_intonation_perc_control,2024.2.4,Win32,59.88023952,60fed4a51b41974258558dbe,68817205a84113384fffdfe3,68823425bf2384fd07e0fc8d,,,,,,,,,,,,,0,,,,,,,,,,,,,,,,,,,,,,,,,,,,,,,,,,,,,33,pauca,,,,,737.7868,739.9857,0,1,1.6582,,0,71,71,32,1,REAL,FAKE,,,,,,,,,,,,,,,,,
,,,,,,,,,60fed4a51b41974258558dbe,mexican,13 or older,"yes, I am fluent in another language",no,2025-07-24_09h26.03.345,empathy_intonation_perc_control,2024.2.4,Win32,59.88023952,60fed4a51b41974258558dbe,68817205a84113384fffdfe3,68823425bf2384fd07e0fc8d,,,,,,,,,,,,,1,,,,,,,,,,,,,,,,,,,,,,,,,,,,,,,,,,,,,22,lacayo,,,,,739.9868,747.8354,0,0,7.3065,,0,72,72,21,1,REAL,FAKE,,,,,,,,,,,,,,,,,
,,,,,,,,,60fed4a51b41974258558dbe,mexican,13 or older,"yes, I am fluent in another language",no,2025-07-24_09h26.03.345,empathy_intonation_perc_control,2024.2.4,Win32,59.88023952,60fed4a51b41974258558dbe,68817205a84113384fffdfe3,68823425bf2384fd07e0fc8d,,,,,,,,,,,,,1,,,,,,,,,,,,,,,,,,,,,,,,,,,,,,,,,,,,,89,prisa,,,,,747.8366,750.7524,1,1,2.3765,,0,73,73,88,1,REAL,FAKE,,,,,,,,,,,,,,,,,
,,,,,,,,,60fed4a51b41974258558dbe,mexican,13 or older,"yes, I am fluent in another language",no,2025-07-24_09h26.03.345,empathy_intonation_perc_control,2024.2.4,Win32,59.88023952,60fed4a51b41974258558dbe,68817205a84113384fffdfe3,68823425bf2384fd07e0fc8d,,,,,,,,,,,,,1,,,,,,,,,,,,,,,,,,,,,,,,,,,,,,,,,,,,,71,polvoriento,,,,,750.7539,752.5021,0,0,1.2036,,0,74,74,70,1,REAL,FAKE,,,,,,,,,,,,,,,,,
,,,,,,,,,60fed4a51b41974258558dbe,mexican,13 or older,"yes, I am fluent in another language",no,2025-07-24_09h26.03.345,empathy_intonation_perc_control,2024.2.4,Win32,59.88023952,60fed4a51b41974258558dbe,68817205a84113384fffdfe3,68823425bf2384fd07e0fc8d,,,,,,,,,,,,,1,,,,,,,,,,,,,,,,,,,,,,,,,,,,,,,,,,,,,3,pulmones,,,,,752.5034,754.4188,1,1,1.3736,,0,75,75,2,1,REAL,FAKE,,,,,,,,,,,,,,,,,
,,,,,,,,,60fed4a51b41974258558dbe,mexican,13 or older,"yes, I am fluent in another language",no,2025-07-24_09h26.03.345,empathy_intonation_perc_control,2024.2.4,Win32,59.88023952,60fed4a51b41974258558dbe,68817205a84113384fffdfe3,68823425bf2384fd07e0fc8d,,,,,,,,,,,,,0,,,,,,,,,,,,,,,,,,,,,,,,,,,,,,,,,,,,,72,pemición,,,,,754.42,756.1187,0,1,1.1616,,0,76,76,71,1,REAL,FAKE,,,,,,,,,,,,,,,,,
,,,,,,,,,60fed4a51b41974258558dbe,mexican,13 or older,"yes, I am fluent in another language",no,2025-07-24_09h26.03.345,empathy_intonation_perc_control,2024.2.4,Win32,59.88023952,60fed4a51b41974258558dbe,68817205a84113384fffdfe3,68823425bf2384fd07e0fc8d,,,,,,,,,,,,,1,,,,,,,,,,,,,,,,,,,,,,,,,,,,,,,,,,,,,5,zapato,,,,,756.1198,757.8855,1,1,1.2291,,0,77,77,4,1,REAL,FAKE,,,,,,,,,,,,,,,,,
,,,,,,,,,60fed4a51b41974258558dbe,mexican,13 or older,"yes, I am fluent in another language",no,2025-07-24_09h26.03.345,empathy_intonation_perc_control,2024.2.4,Win32,59.88023952,60fed4a51b41974258558dbe,68817205a84113384fffdfe3,68823425bf2384fd07e0fc8d,,,,,,,,,,,,,1,,,,,,,,,,,,,,,,,,,,,,,,,,,,,,,,,,,,,69,engatusar,,,,,757.8863,759.8378,0,0,1.4164,,0,78,78,68,1,REAL,FAKE,,,,,,,,,,,,,,,,,
,,,,,,,,,60fed4a51b41974258558dbe,mexican,13 or older,"yes, I am fluent in another language",no,2025-07-24_09h26.03.345,empathy_intonation_perc_control,2024.2.4,Win32,59.88023952,60fed4a51b41974258558dbe,68817205a84113384fffdfe3,68823425bf2384fd07e0fc8d,,,,,,,,,,,,,0,,,,,,,,,,,,,,,,,,,,,,,,,,,,,,,,,,,,,74,cintro,,,,,759.8385,769.5522,0,1,9.1692,,0,79,79,73,1,REAL,FAKE,,,,,,,,,,,,,,,,,
,,,,,,,,,60fed4a51b41974258558dbe,mexican,13 or older,"yes, I am fluent in another language",no,2025-07-24_09h26.03.345,empathy_intonation_perc_control,2024.2.4,Win32,59.88023952,60fed4a51b41974258558dbe,68817205a84113384fffdfe3,68823425bf2384fd07e0fc8d,,,,,,,,,,,,,0,,,,,,,,,,,,,,,,,,,,,,,,,,,,,,,,,,,,,32,fatacidad,,,,,769.5533,772.8689,0,1,2.7719,,0,80,80,31,1,REAL,FAKE,,,,,,,,,,,,,,,,,
,,,,,,,,,60fed4a51b41974258558dbe,mexican,13 or older,"yes, I am fluent in another language",no,2025-07-24_09h26.03.345,empathy_intonation_perc_control,2024.2.4,Win32,59.88023952,60fed4a51b41974258558dbe,68817205a84113384fffdfe3,68823425bf2384fd07e0fc8d,,,,,,,,,,,,,1,,,,,,,,,,,,,,,,,,,,,,,,,,,,,,,,,,,,,57,tacaño,,,,,772.8703,774.8355,1,1,1.4236,,0,81,81,56,1,REAL,FAKE,,,,,,,,,,,,,,,,,
,,,,,,,,,60fed4a51b41974258558dbe,mexican,13 or older,"yes, I am fluent in another language",no,2025-07-24_09h26.03.345,empathy_intonation_perc_control,2024.2.4,Win32,59.88023952,60fed4a51b41974258558dbe,68817205a84113384fffdfe3,68823425bf2384fd07e0fc8d,,,,,,,,,,,,,0,,,,,,,,,,,,,,,,,,,,,,,,,,,,,,,,,,,,,17,floroso,,,,,774.8367,797.4524,1,0,22.068,,0,82,82,16,1,REAL,FAKE,,,,,,,,,,,,,,,,,
,,,,,,,,,60fed4a51b41974258558dbe,mexican,13 or older,"yes, I am fluent in another language",no,2025-07-24_09h26.03.345,empathy_intonation_perc_control,2024.2.4,Win32,59.88023952,60fed4a51b41974258558dbe,68817205a84113384fffdfe3,68823425bf2384fd07e0fc8d,,,,,,,,,,,,,0,,,,,,,,,,,,,,,,,,,,,,,,,,,,,,,,,,,,,70,temblo,,,,,797.4542,799.2853,0,1,1.2966,,0,83,83,69,1,REAL,FAKE,,,,,,,,,,,,,,,,,
,,,,,,,,,60fed4a51b41974258558dbe,mexican,13 or older,"yes, I am fluent in another language",no,2025-07-24_09h26.03.345,empathy_intonation_perc_control,2024.2.4,Win32,59.88023952,60fed4a51b41974258558dbe,68817205a84113384fffdfe3,68823425bf2384fd07e0fc8d,,,,,,,,,,,,,0,,,,,,,,,,,,,,,,,,,,,,,,,,,,,,,,,,,,,66,hacido,,,,,799.2865,800.8855,1,0,1.0628,,0,84,84,65,1,REAL,FAKE,,,,,,,,,,,,,,,,,
,,,,,,,,,60fed4a51b41974258558dbe,mexican,13 or older,"yes, I am fluent in another language",no,2025-07-24_09h26.03.345,empathy_intonation_perc_control,2024.2.4,Win32,59.88023952,60fed4a51b41974258558dbe,68817205a84113384fffdfe3,68823425bf2384fd07e0fc8d,,,,,,,,,,,,,1,,,,,,,,,,,,,,,,,,,,,,,,,,,,,,,,,,,,,59,besar,,,,,800.8864,802.5187,1,1,1.0947,,0,85,85,58,1,REAL,FAKE,,,,,,,,,,,,,,,,,
,,,,,,,,,60fed4a51b41974258558dbe,mexican,13 or older,"yes, I am fluent in another language",no,2025-07-24_09h26.03.345,empathy_intonation_perc_control,2024.2.4,Win32,59.88023952,60fed4a51b41974258558dbe,68817205a84113384fffdfe3,68823425bf2384fd07e0fc8d,,,,,,,,,,,,,0,,,,,,,,,,,,,,,,,,,,,,,,,,,,,,,,,,,,,30,alardio,,,,,802.5197,804.8522,0,1,1.7897,,0,86,86,29,1,REAL,FAKE,,,,,,,,,,,,,,,,,
,,,,,,,,,60fed4a51b41974258558dbe,mexican,13 or older,"yes, I am fluent in another language",no,2025-07-24_09h26.03.345,empathy_intonation_perc_control,2024.2.4,Win32,59.88023952,60fed4a51b41974258558dbe,68817205a84113384fffdfe3,68823425bf2384fd07e0fc8d,,,,,,,,,,,,,1,,,,,,,,,,,,,,,,,,,,,,,,,,,,,,,,,,,,,90,clavel,,,,,804.8533,808.0021,0,0,2.601,,0,87,87,89,1,REAL,FAKE,,,,,,,,,,,,,,,,,
,,,,,,,,,60fed4a51b41974258558dbe,mexican,13 or older,"yes, I am fluent in another language",no,2025-07-24_09h26.03.345,empathy_intonation_perc_control,2024.2.4,Win32,59.88023952,60fed4a51b41974258558dbe,68817205a84113384fffdfe3,68823425bf2384fd07e0fc8d,,,,,,,,,,,,,1,,,,,,,,,,,,,,,,,,,,,,,,,,,,,,,,,,,,,25,bisagra,,,,,808.0031,809.8534,0,0,1.3151,,0,88,88,24,1,REAL,FAKE,,,,,,,,,,,,,,,,,
,,,,,,,,,60fed4a51b41974258558dbe,mexican,13 or older,"yes, I am fluent in another language",no,2025-07-24_09h26.03.345,empathy_intonation_perc_control,2024.2.4,Win32,59.88023952,60fed4a51b41974258558dbe,68817205a84113384fffdfe3,68823425bf2384fd07e0fc8d,,,,,,,,,,,,,1,,,,,,,,,,,,,,,,,,,,,,,,,,,,,,,,,,,,,68,alegre,,,,,809.8541,811.6555,1,1,1.2673,,0,89,89,67,1,REAL,FAKE,,,,,,,,,,,,,,,,,
,,,,,,,,,60fed4a51b41974258558dbe,mexican,13 or older,"yes, I am fluent in another language",no,2025-07-24_09h26.03.345,empathy_intonation_perc_control,2024.2.4,Win32,59.88023952,60fed4a51b41974258558dbe,68817205a84113384fffdfe3,68823425bf2384fd07e0fc8d,,,,,,,,,,,,,1,,,,,,,,,,,,,,,,,,,,,,,,,,,,,,,,,,,,,81,pozo,,,,,811.6565,814.2687,0,0,2.072,,0,90,90,80,1,REAL,FAKE,,,,,,,,,,,,,,,,,
,,,,,,,,,60fed4a51b41974258558dbe,mexican,13 or older,"yes, I am fluent in another language",no,2025-07-24_09h26.03.345,empathy_intonation_perc_control,2024.2.4,Win32,59.88023952,60fed4a51b41974258558dbe,68817205a84113384fffdfe3,68823425bf2384fd07e0fc8d,,,,,,,,,,,,,1,,,,,,,,,,,,,,,,,,,,,,,,,,,,,,,,,,,,,83,guante,,,,,814.2697,816.3186,0,0,1.5119,,0,91,91,82,1,REAL,FAKE,,,,,,,,,,,,,,,,,
,,,,,,,,,60fed4a51b41974258558dbe,mexican,13 or older,"yes, I am fluent in another language",no,2025-07-24_09h26.03.345,empathy_intonation_perc_control,2024.2.4,Win32,59.88023952,60fed4a51b41974258558dbe,68817205a84113384fffdfe3,68823425bf2384fd07e0fc8d,,,,,,,,,,,,,,,,,,,,,,,,,,,,,,,,,,,,,,,,,,,,,,,,,,,,,,,,,,,,,,,,,,,,,816.3191,930.203,,,,,,,,,,,,,,,
,,,,,,,,,60fed4a51b41974258558dbe,mexican,13 or older,"yes, I am fluent in another language",no,2025-07-24_09h26.03.345,empathy_intonation_perc_control,2024.2.4,Win32,59.88023952,60fed4a51b41974258558dbe,68817205a84113384fffdfe3,68823425bf2384fd07e0fc8d,,,,,,,,,,,,,,,,,,,,,,,,,,,1,,,,,,,,,,,,,,,,,,,,,,,,,,,,,,,,,,,,,,,,,,,,930.2124,934.6688,strongly agree,0,0,0,0,1,I can easily tell if someone else wants to enter a conversation.,1,0,1,0,,
,,,,,,,,,60fed4a51b41974258558dbe,mexican,13 or older,"yes, I am fluent in another language",no,2025-07-24_09h26.03.345,empathy_intonation_perc_control,2024.2.4,Win32,59.88023952,60fed4a51b41974258558dbe,68817205a84113384fffdfe3,68823425bf2384fd07e0fc8d,,,,,,,,,,,,,,,,,,,,,,,,,,,2,,,,,,,,,,,,,,,,,,,,,,,,,,,,,,,,,,,,,,,,,,,,934.6711,935.5687,strongly agree,0,1,1,1,1,I prefer animals to humans.,0,1,0,0,,
,,,,,,,,,60fed4a51b41974258558dbe,mexican,13 or older,"yes, I am fluent in another language",no,2025-07-24_09h26.03.345,empathy_intonation_perc_control,2024.2.4,Win32,59.88023952,60fed4a51b41974258558dbe,68817205a84113384fffdfe3,68823425bf2384fd07e0fc8d,,,,,,,,,,,,,,,,,,,,,,,,,,,3,,,,,,,,,,,,,,,,,,,,,,,,,,,,,,,,,,,,,,,,,,,,935.5704,937.6854,slightly disagree,0,2,2,2,1,I try to keep up with the current trends and fashions.,0,1,0,0,,
,,,,,,,,,60fed4a51b41974258558dbe,mexican,13 or older,"yes, I am fluent in another language",no,2025-07-24_09h26.03.345,empathy_intonation_perc_control,2024.2.4,Win32,59.88023952,60fed4a51b41974258558dbe,68817205a84113384fffdfe3,68823425bf2384fd07e0fc8d,,,,,,,,,,,,,,,,,,,,,,,,,,,4,,,,,,,,,,,,,,,,,,,,,,,,,,,,,,,,,,,,,,,,,,,,937.6873,941.4188,slightly agree,0,3,3,3,1,"I find it difficult to explain to others things that I understand easily,   when they don't understand it first time.",1,0,0,1,,
,,,,,,,,,60fed4a51b41974258558dbe,mexican,13 or older,"yes, I am fluent in another language",no,2025-07-24_09h26.03.345,empathy_intonation_perc_control,2024.2.4,Win32,59.88023952,60fed4a51b41974258558dbe,68817205a84113384fffdfe3,68823425bf2384fd07e0fc8d,,,,,,,,,,,,,,,,,,,,,,,,,,,5,,,,,,,,,,,,,,,,,,,,,,,,,,,,,,,,,,,,,,,,,,,,941.4203,943.2686,strongly agree,0,4,4,4,1,I dream most nights.,0,1,0,0,,
,,,,,,,,,60fed4a51b41974258558dbe,mexican,13 or older,"yes, I am fluent in another language",no,2025-07-24_09h26.03.345,empathy_intonation_perc_control,2024.2.4,Win32,59.88023952,60fed4a51b41974258558dbe,68817205a84113384fffdfe3,68823425bf2384fd07e0fc8d,,,,,,,,,,,,,,,,,,,,,,,,,,,6,,,,,,,,,,,,,,,,,,,,,,,,,,,,,,,,,,,,,,,,,,,,943.2701,945.6853,slightly disagree,0,5,5,5,1,I really enjoy caring for other people.,1,0,1,0,,
,,,,,,,,,60fed4a51b41974258558dbe,mexican,13 or older,"yes, I am fluent in another language",no,2025-07-24_09h26.03.345,empathy_intonation_perc_control,2024.2.4,Win32,59.88023952,60fed4a51b41974258558dbe,68817205a84113384fffdfe3,68823425bf2384fd07e0fc8d,,,,,,,,,,,,,,,,,,,,,,,,,,,7,,,,,,,,,,,,,,,,,,,,,,,,,,,,,,,,,,,,,,,,,,,,945.687,947.502,strongly agree,0,6,6,6,1,I try to solve my own problems rather than discussing them with others.,0,1,0,0,,
,,,,,,,,,60fed4a51b41974258558dbe,mexican,13 or older,"yes, I am fluent in another language",no,2025-07-24_09h26.03.345,empathy_intonation_perc_control,2024.2.4,Win32,59.88023952,60fed4a51b41974258558dbe,68817205a84113384fffdfe3,68823425bf2384fd07e0fc8d,,,,,,,,,,,,,,,,,,,,,,,,,,,8,,,,,,,,,,,,,,,,,,,,,,,,,,,,,,,,,,,,,,,,,,,,947.5033,948.8521,strongly agree,0,7,7,7,1,I find it hard to know what to do in a social situation.,1,0,0,1,,
,,,,,,,,,60fed4a51b41974258558dbe,mexican,13 or older,"yes, I am fluent in another language",no,2025-07-24_09h26.03.345,empathy_intonation_perc_control,2024.2.4,Win32,59.88023952,60fed4a51b41974258558dbe,68817205a84113384fffdfe3,68823425bf2384fd07e0fc8d,,,,,,,,,,,,,,,,,,,,,,,,,,,9,,,,,,,,,,,,,,,,,,,,,,,,,,,,,,,,,,,,,,,,,,,,948.8536,951.5523,slightly disagree,0,8,8,8,1,I am at my best first thing in the morning.,0,1,0,0,,
,,,,,,,,,60fed4a51b41974258558dbe,mexican,13 or older,"yes, I am fluent in another language",no,2025-07-24_09h26.03.345,empathy_intonation_perc_control,2024.2.4,Win32,59.88023952,60fed4a51b41974258558dbe,68817205a84113384fffdfe3,68823425bf2384fd07e0fc8d,,,,,,,,,,,,,,,,,,,,,,,,,,,10,,,,,,,,,,,,,,,,,,,,,,,,,,,,,,,,,,,,,,,,,,,,951.5543,954.4353,slightly agree,0,9,9,9,1,People often tell me that I went too far in driving my point home in a discussion.,1,0,0,1,,
,,,,,,,,,60fed4a51b41974258558dbe,mexican,13 or older,"yes, I am fluent in another language",no,2025-07-24_09h26.03.345,empathy_intonation_perc_control,2024.2.4,Win32,59.88023952,60fed4a51b41974258558dbe,68817205a84113384fffdfe3,68823425bf2384fd07e0fc8d,,,,,,,,,,,,,,,,,,,,,,,,,,,11,,,,,,,,,,,,,,,,,,,,,,,,,,,,,,,,,,,,,,,,,,,,954.4364,1062.2519,strongly disagree,0,10,10,10,1,It doesn't bother me too much if I am late meeting a friend.,1,0,0,1,,
,,,,,,,,,60fed4a51b41974258558dbe,mexican,13 or older,"yes, I am fluent in another language",no,2025-07-24_09h26.03.345,empathy_intonation_perc_control,2024.2.4,Win32,59.88023952,60fed4a51b41974258558dbe,68817205a84113384fffdfe3,68823425bf2384fd07e0fc8d,,,,,,,,,,,,,,,,,,,,,,,,,,,12,,,,,,,,,,,,,,,,,,,,,,,,,,,,,,,,,,,,,,,,,,,,1062.2539,1064.7025,strongly disagree,0,11,11,11,1,"Friendships and relationships are just too difficult, so I tend not to 
  bother with them.",1,0,0,1,,
,,,,,,,,,60fed4a51b41974258558dbe,mexican,13 or older,"yes, I am fluent in another language",no,2025-07-24_09h26.03.345,empathy_intonation_perc_control,2024.2.4,Win32,59.88023952,60fed4a51b41974258558dbe,68817205a84113384fffdfe3,68823425bf2384fd07e0fc8d,,,,,,,,,,,,,,,,,,,,,,,,,,,13,,,,,,,,,,,,,,,,,,,,,,,,,,,,,,,,,,,,,,,,,,,,1064.7035,1066.019,strongly disagree,0,12,12,12,1,"I would never break a law, no matter how minor.",0,1,0,0,,
,,,,,,,,,60fed4a51b41974258558dbe,mexican,13 or older,"yes, I am fluent in another language",no,2025-07-24_09h26.03.345,empathy_intonation_perc_control,2024.2.4,Win32,59.88023952,60fed4a51b41974258558dbe,68817205a84113384fffdfe3,68823425bf2384fd07e0fc8d,,,,,,,,,,,,,,,,,,,,,,,,,,,14,,,,,,,,,,,,,,,,,,,,,,,,,,,,,,,,,,,,,,,,,,,,1066.0207,1072.7186,strongly disagree,0,13,13,13,1,I often find it difficult to judge if something is rude or polite.,1,0,0,1,,
,,,,,,,,,60fed4a51b41974258558dbe,mexican,13 or older,"yes, I am fluent in another language",no,2025-07-24_09h26.03.345,empathy_intonation_perc_control,2024.2.4,Win32,59.88023952,60fed4a51b41974258558dbe,68817205a84113384fffdfe3,68823425bf2384fd07e0fc8d,,,,,,,,,,,,,,,,,,,,,,,,,,,15,,,,,,,,,,,,,,,,,,,,,,,,,,,,,,,,,,,,,,,,,,,,1072.7203,1075.5355,strongly disagree,0,14,14,14,1,"In a conversation, I tend to focus on my own thoughts rather than on what 
  my listener might be thinking.",1,0,0,1,,
,,,,,,,,,60fed4a51b41974258558dbe,mexican,13 or older,"yes, I am fluent in another language",no,2025-07-24_09h26.03.345,empathy_intonation_perc_control,2024.2.4,Win32,59.88023952,60fed4a51b41974258558dbe,68817205a84113384fffdfe3,68823425bf2384fd07e0fc8d,,,,,,,,,,,,,,,,,,,,,,,,,,,16,,,,,,,,,,,,,,,,,,,,,,,,,,,,,,,,,,,,,,,,,,,,1075.537,1077.5021,strongly disagree,0,15,15,15,1,I prefer practical jokes to verbal humor.,0,1,0,0,,
,,,,,,,,,60fed4a51b41974258558dbe,mexican,13 or older,"yes, I am fluent in another language",no,2025-07-24_09h26.03.345,empathy_intonation_perc_control,2024.2.4,Win32,59.88023952,60fed4a51b41974258558dbe,68817205a84113384fffdfe3,68823425bf2384fd07e0fc8d,,,,,,,,,,,,,,,,,,,,,,,,,,,17,,,,,,,,,,,,,,,,,,,,,,,,,,,,,,,,,,,,,,,,,,,,1077.504,1080.7216,slightly agree,0,16,16,16,1,I live life for today rather than the future.,0,1,0,0,,
,,,,,,,,,60fed4a51b41974258558dbe,mexican,13 or older,"yes, I am fluent in another language",no,2025-07-24_09h26.03.345,empathy_intonation_perc_control,2024.2.4,Win32,59.88023952,60fed4a51b41974258558dbe,68817205a84113384fffdfe3,68823425bf2384fd07e0fc8d,,,,,,,,,,,,,,,,,,,,,,,,,,,18,,,,,,,,,,,,,,,,,,,,,,,,,,,,,,,,,,,,,,,,,,,,1080.7228,1083.4385,strongly disagree,0,17,17,17,1,"When I was a child, I enjoyed cutting up worms to see what would happen.",1,0,0,1,,
,,,,,,,,,60fed4a51b41974258558dbe,mexican,13 or older,"yes, I am fluent in another language",no,2025-07-24_09h26.03.345,empathy_intonation_perc_control,2024.2.4,Win32,59.88023952,60fed4a51b41974258558dbe,68817205a84113384fffdfe3,68823425bf2384fd07e0fc8d,,,,,,,,,,,,,,,,,,,,,,,,,,,19,,,,,,,,,,,,,,,,,,,,,,,,,,,,,,,,,,,,,,,,,,,,1083.44,1085.8689,strongly agree,0,18,18,18,1,I can pick up quickly if someone says one thing but means another.,1,0,1,0,,
,,,,,,,,,60fed4a51b41974258558dbe,mexican,13 or older,"yes, I am fluent in another language",no,2025-07-24_09h26.03.345,empathy_intonation_perc_control,2024.2.4,Win32,59.88023952,60fed4a51b41974258558dbe,68817205a84113384fffdfe3,68823425bf2384fd07e0fc8d,,,,,,,,,,,,,,,,,,,,,,,,,,,20,,,,,,,,,,,,,,,,,,,,,,,,,,,,,,,,,,,,,,,,,,,,1085.8707,1195.4352,slightly agree,0,19,19,19,1,I tend to have very strong opinions about morality.,0,1,0,0,,
