instructions_2afc.started,instructions_2afc.stopped,instructions_2afc_loop.thisRepN,instructions_2afc_loop.thisTrialN,instructions_2afc_loop.thisN,instructions_2afc_loop.thisIndex,instructions_2afc_loop.ran,instructions_text,continue_text,participant_id,"What variety of Spanish are you most familiar with? (e.g., Peruvian, Spanish, Mexican)",At what age did you begin learning Spanish?,Are you proficient in any languages other than English/Spanish?,"Are you familiar with Caribbean (e.g., Caribbean, Puerto Rican) or Galician Spanish?",date,expName,psychopyVersion,OS,frameRate,id,study_id,session,practice_2afc.started,practice_2afc.stopped,key_resp_2afc_practice.keys,key_resp_2afc_practice.corr,key_resp_2afc_practice.rt,key_resp_2afc_practice.duration,trials_2afc_practice_loop.thisRepN,trials_2afc_practice_loop.thisTrialN,trials_2afc_practice_loop.thisN,trials_2afc_practice_loop.thisIndex,trials_2afc_practice_loop.ran,path,correct_response,check_2afc.started,check_2afc.stopped,trial_2afc.started,trial_2afc.stopped,key_resp_2afc_trial.keys,key_resp_2afc_trial.corr,key_resp_2afc_trial.rt,key_resp_2afc_trial.duration,trials_2afc_loop.thisRepN,trials_2afc_loop.thisTrialN,trials_2afc_loop.thisN,trials_2afc_loop.thisIndex,trials_2afc_loop.ran,item_num,target,variety,instructions_lextale.started,instructions_lextale.stopped,instructions_lextale_loop.thisRepN,instructions_lextale_loop.thisTrialN,instructions_lextale_loop.thisN,instructions_lextale_loop.thisIndex,instructions_lextale_loop.ran,practice_lextale.started,practice_lextale.stopped,key_resp_lextale_practice.keys,key_resp_lextale_practice.corr,key_resp_lextale_practice.rt,key_resp_lextale_practice.duration,practice_feedback_lextale.started,practice_feedback_lextale.stopped,trials_lextale_practice_loop.thisRepN,trials_lextale_practice_loop.thisTrialN,trials_lextale_practice_loop.thisN,trials_lextale_practice_loop.thisIndex,trials_lextale_practice_loop.ran,stim,word,prac_button_real,prac_button_false,check_lextale.started,check_lextale.stopped,trial_lextale.started,trial_lextale.stopped,key_resp_lextale_trial.keys,key_resp_lextale_trial.corr,key_resp_lextale_trial.rt,key_resp_lextale_trial.duration,trials_lextale_loop.thisRepN,trials_lextale_loop.thisTrialN,trials_lextale_loop.thisN,trials_lextale_loop.thisIndex,trials_lextale_loop.ran,button_real,button_false,instructions_eq.started,instructions_eq.stopped,trial_eq.started,trial_eq.stopped,slider_eq_trial.response,trials_eq_loop.thisRepN,trials_eq_loop.thisTrialN,trials_eq_loop.thisN,trials_eq_loop.thisIndex,trials_eq_loop.ran,item,is_test_item,is_distractor,is_agree_score,is_disagree_score,end_exp.started,end_exp.stopped
0.0074,4.0737,0,0,0,0,1,"In the following task you are going to hear a series of utterances. 

  You will decide if the utterances sound like questions or not using your keyboard.", (press the spacebar to continue),61086c714ebfaefbb62531b2,Spanish,13 or older,"no, only English or Spanish",yes,2025-08-10_15h55.30.074,empathy_intonation_perc_control,2024.2.4,MacIntel,60.24096386,61086c714ebfaefbb62531b2,68817205a84113384fffdfe3,6898f905a84459d6bc8ada11,,,,,,,,,,,,,,,,,,,,,,,,,,,,,,,,,,,,,,,,,,,,,,,,,,,,,,,,,,,,,,,,,,,,,,,,,,,,,,,,,,,,,
4.0752,21.7899,0,1,1,1,1,"If you believe the utterance is a question, type '1' (for 'yes') and if you do not 
  believe it is a question type '0' (for 'no').

  Let's practice a bit...", (press the spacebar to continue),61086c714ebfaefbb62531b2,Spanish,13 or older,"no, only English or Spanish",yes,2025-08-10_15h55.30.074,empathy_intonation_perc_control,2024.2.4,MacIntel,60.24096386,61086c714ebfaefbb62531b2,68817205a84113384fffdfe3,6898f905a84459d6bc8ada11,,,,,,,,,,,,,,,,,,,,,,,,,,,,,,,,,,,,,,,,,,,,,,,,,,,,,,,,,,,,,,,,,,,,,,,,,,,,,,,,,,,,,
,,,,,,,,,61086c714ebfaefbb62531b2,Spanish,13 or older,"no, only English or Spanish",yes,2025-08-10_15h55.30.074,empathy_intonation_perc_control,2024.2.4,MacIntel,60.24096386,61086c714ebfaefbb62531b2,68817205a84113384fffdfe3,6898f905a84459d6bc8ada11,21.7972,27.4568,0,0,5.1336,,0,0,0,2,1,./stim/wavs/chilean_question_filler_Mi-padre-cantaba-bien.wav,1,,,,,,,,,,,,,,,,,,,,,,,,,,,,,,,,,,,,,,,,,,,,,,,,,,,,,,,,,,,,,,,,,,,,,,,,
,,,,,,,,,61086c714ebfaefbb62531b2,Spanish,13 or older,"no, only English or Spanish",yes,2025-08-10_15h55.30.074,empathy_intonation_perc_control,2024.2.4,MacIntel,60.24096386,61086c714ebfaefbb62531b2,68817205a84113384fffdfe3,6898f905a84459d6bc8ada11,27.4594,30.9558,1,0,2.9699,,0,1,1,7,1,./stim/wavs/puertorican_statement_filler_La-nina-pinta-con-su-amiga.wav,0,,,,,,,,,,,,,,,,,,,,,,,,,,,,,,,,,,,,,,,,,,,,,,,,,,,,,,,,,,,,,,,,,,,,,,,,
,,,,,,,,,61086c714ebfaefbb62531b2,Spanish,13 or older,"no, only English or Spanish",yes,2025-08-10_15h55.30.074,empathy_intonation_perc_control,2024.2.4,MacIntel,60.24096386,61086c714ebfaefbb62531b2,68817205a84113384fffdfe3,6898f905a84459d6bc8ada11,30.9564,36.7563,0,0,5.273,,0,2,2,1,1,./stim/wavs/argentine_question_filler_Mi-vecino-habla-mucho.wav,1,,,,,,,,,,,,,,,,,,,,,,,,,,,,,,,,,,,,,,,,,,,,,,,,,,,,,,,,,,,,,,,,,,,,,,,,
,,,,,,,,,61086c714ebfaefbb62531b2,Spanish,13 or older,"no, only English or Spanish",yes,2025-08-10_15h55.30.074,empathy_intonation_perc_control,2024.2.4,MacIntel,60.24096386,61086c714ebfaefbb62531b2,68817205a84113384fffdfe3,6898f905a84459d6bc8ada11,36.7574,39.7896,1,0,2.4979,,0,3,3,6,1,./stim/wavs/peruvian_statement_filler_El-nino-habla-con-su-madre.wav,0,,,,,,,,,,,,,,,,,,,,,,,,,,,,,,,,,,,,,,,,,,,,,,,,,,,,,,,,,,,,,,,,,,,,,,,,
,,,,,,,,,61086c714ebfaefbb62531b2,Spanish,13 or older,"no, only English or Spanish",yes,2025-08-10_15h55.30.074,empathy_intonation_perc_control,2024.2.4,MacIntel,60.24096386,61086c714ebfaefbb62531b2,68817205a84113384fffdfe3,6898f905a84459d6bc8ada11,39.7909,42.2726,0,0,1.9555,,0,4,4,0,1,./stim/wavs/castilian_question_filler_Mi-esposo-conoce-al-chico.wav,1,,,,,,,,,,,,,,,,,,,,,,,,,,,,,,,,,,,,,,,,,,,,,,,,,,,,,,,,,,,,,,,,,,,,,,,,
,,,,,,,,,61086c714ebfaefbb62531b2,Spanish,13 or older,"no, only English or Spanish",yes,2025-08-10_15h55.30.074,empathy_intonation_perc_control,2024.2.4,MacIntel,60.24096386,61086c714ebfaefbb62531b2,68817205a84113384fffdfe3,6898f905a84459d6bc8ada11,42.2731,44.6225,1,0,1.8151,,0,5,5,5,1,./stim/wavs/andalusian_statement_filler_Alberto-nunca-se-afeita.wav,0,,,,,,,,,,,,,,,,,,,,,,,,,,,,,,,,,,,,,,,,,,,,,,,,,,,,,,,,,,,,,,,,,,,,,,,,
,,,,,,,,,61086c714ebfaefbb62531b2,Spanish,13 or older,"no, only English or Spanish",yes,2025-08-10_15h55.30.074,empathy_intonation_perc_control,2024.2.4,MacIntel,60.24096386,61086c714ebfaefbb62531b2,68817205a84113384fffdfe3,6898f905a84459d6bc8ada11,44.6232,47.1727,0,0,2.0204,,0,6,6,3,1,./stim/wavs/mexican_question_filler_Felipe-no-tiene-contrasena.wav,1,,,,,,,,,,,,,,,,,,,,,,,,,,,,,,,,,,,,,,,,,,,,,,,,,,,,,,,,,,,,,,,,,,,,,,,,
,,,,,,,,,61086c714ebfaefbb62531b2,Spanish,13 or older,"no, only English or Spanish",yes,2025-08-10_15h55.30.074,empathy_intonation_perc_control,2024.2.4,MacIntel,60.24096386,61086c714ebfaefbb62531b2,68817205a84113384fffdfe3,6898f905a84459d6bc8ada11,47.1733,51.9227,1,0,4.2157,,0,7,7,4,1,./stim/wavs/cuban_statement_filler_Cocinabas-por-la-noche.wav,0,,,,,,,,,,,,,,,,,,,,,,,,,,,,,,,,,,,,,,,,,,,,,,,,,,,,,,,,,,,,,,,,,,,,,,,,
,,,,,,,,,61086c714ebfaefbb62531b2,Spanish,13 or older,"no, only English or Spanish",yes,2025-08-10_15h55.30.074,empathy_intonation_perc_control,2024.2.4,MacIntel,60.24096386,61086c714ebfaefbb62531b2,68817205a84113384fffdfe3,6898f905a84459d6bc8ada11,,,,,,,,,,,,,,51.9234,55.4911,,,,,,,,,,,,,,,,,,,,,,,,,,,,,,,,,,,,,,,,,,,,,,,,,,,,,,,,,,,,,,,,,,,,,,
,,,,,,,,,61086c714ebfaefbb62531b2,Spanish,13 or older,"no, only English or Spanish",yes,2025-08-10_15h55.30.074,empathy_intonation_perc_control,2024.2.4,MacIntel,60.24096386,61086c714ebfaefbb62531b2,68817205a84113384fffdfe3,6898f905a84459d6bc8ada11,,,,,,,,,,,,./stim/wavs/castilian_match_interrogative-total-yn_Emilio-ama-la-marcha.wav,1,,,55.503,61.1389,1,1,5.1181,,0,0,0,1,1,2,0,castilian,,,,,,,,,,,,,,,,,,,,,,,,,,,,,,,,,,,,,,,,,,,,,,,,,,,,,,,,
,,,,,,,,,61086c714ebfaefbb62531b2,Spanish,13 or older,"no, only English or Spanish",yes,2025-08-10_15h55.30.074,empathy_intonation_perc_control,2024.2.4,MacIntel,60.24096386,61086c714ebfaefbb62531b2,68817205a84113384fffdfe3,6898f905a84459d6bc8ada11,,,,,,,,,,,,./stim/wavs/cuban_mismatch_interrogative-total-yn_Mi-novio-viene-del-lago.wav,1,,,61.1395,63.4393,0,0,1.7675,,0,1,1,32,1,33,1,cuban,,,,,,,,,,,,,,,,,,,,,,,,,,,,,,,,,,,,,,,,,,,,,,,,,,,,,,,,
,,,,,,,,,61086c714ebfaefbb62531b2,Spanish,13 or older,"no, only English or Spanish",yes,2025-08-10_15h55.30.074,empathy_intonation_perc_control,2024.2.4,MacIntel,60.24096386,61086c714ebfaefbb62531b2,68817205a84113384fffdfe3,6898f905a84459d6bc8ada11,,,,,,,,,,,,./stim/wavs/mexican_mismatch_declarative-broad-focus_Mi-tia-odia-la-lluvia.wav,0,,,63.44,65.839,0,1,1.8777,,0,2,2,82,1,83,0,mexican,,,,,,,,,,,,,,,,,,,,,,,,,,,,,,,,,,,,,,,,,,,,,,,,,,,,,,,,
,,,,,,,,,61086c714ebfaefbb62531b2,Spanish,13 or older,"no, only English or Spanish",yes,2025-08-10_15h55.30.074,empathy_intonation_perc_control,2024.2.4,MacIntel,60.24096386,61086c714ebfaefbb62531b2,68817205a84113384fffdfe3,6898f905a84459d6bc8ada11,,,,,,,,,,,,./stim/wavs/cuban_match_interrogative-total-yn_Marta-abre-el-regalo.wav,1,,,65.8396,70.4391,0,0,4.0654,,0,3,3,11,1,12,1,cuban,,,,,,,,,,,,,,,,,,,,,,,,,,,,,,,,,,,,,,,,,,,,,,,,,,,,,,,,
,,,,,,,,,61086c714ebfaefbb62531b2,Spanish,13 or older,"no, only English or Spanish",yes,2025-08-10_15h55.30.074,empathy_intonation_perc_control,2024.2.4,MacIntel,60.24096386,61086c714ebfaefbb62531b2,68817205a84113384fffdfe3,6898f905a84459d6bc8ada11,,,,,,,,,,,,./stim/wavs/mexican_mismatch_declarative-broad-focus_Mi-novio-viene-del-lago.wav,0,,,70.4396,72.9718,0,1,2.0007,,0,4,4,81,1,82,0,mexican,,,,,,,,,,,,,,,,,,,,,,,,,,,,,,,,,,,,,,,,,,,,,,,,,,,,,,,,
,,,,,,,,,61086c714ebfaefbb62531b2,Spanish,13 or older,"no, only English or Spanish",yes,2025-08-10_15h55.30.074,empathy_intonation_perc_control,2024.2.4,MacIntel,60.24096386,61086c714ebfaefbb62531b2,68817205a84113384fffdfe3,6898f905a84459d6bc8ada11,,,,,,,,,,,,./stim/wavs/castilian_mismatch_interrogative-total-yn_Mi-madre-come-la-fruta.wav,1,,,72.9725,75.3228,1,1,1.8366,,0,5,5,26,1,27,0,castilian,,,,,,,,,,,,,,,,,,,,,,,,,,,,,,,,,,,,,,,,,,,,,,,,,,,,,,,,
,,,,,,,,,61086c714ebfaefbb62531b2,Spanish,13 or older,"no, only English or Spanish",yes,2025-08-10_15h55.30.074,empathy_intonation_perc_control,2024.2.4,MacIntel,60.24096386,61086c714ebfaefbb62531b2,68817205a84113384fffdfe3,6898f905a84459d6bc8ada11,,,,,,,,,,,,./stim/wavs/puertorican_match_interrogative-total-yn_Emilio-ama-la-marcha.wav,1,,,75.3236,77.4555,0,0,1.5994,,0,6,6,21,1,22,1,puertorican,,,,,,,,,,,,,,,,,,,,,,,,,,,,,,,,,,,,,,,,,,,,,,,,,,,,,,,,
,,,,,,,,,61086c714ebfaefbb62531b2,Spanish,13 or older,"no, only English or Spanish",yes,2025-08-10_15h55.30.074,empathy_intonation_perc_control,2024.2.4,MacIntel,60.24096386,61086c714ebfaefbb62531b2,68817205a84113384fffdfe3,6898f905a84459d6bc8ada11,,,,,,,,,,,,./stim/wavs/cuban_match_interrogative-total-yn_Manuela-vende-el-carro.wav,1,,,77.4574,79.806,0,0,1.8177,,0,7,7,8,1,9,1,cuban,,,,,,,,,,,,,,,,,,,,,,,,,,,,,,,,,,,,,,,,,,,,,,,,,,,,,,,,
,,,,,,,,,61086c714ebfaefbb62531b2,Spanish,13 or older,"no, only English or Spanish",yes,2025-08-10_15h55.30.074,empathy_intonation_perc_control,2024.2.4,MacIntel,60.24096386,61086c714ebfaefbb62531b2,68817205a84113384fffdfe3,6898f905a84459d6bc8ada11,,,,,,,,,,,,./stim/wavs/mexican_mismatch_interrogative-total-yn_La-maestra-vive-en-Paris.wav,1,,,79.8066,82.3387,1,1,1.9997,,0,8,8,36,1,37,0,mexican,,,,,,,,,,,,,,,,,,,,,,,,,,,,,,,,,,,,,,,,,,,,,,,,,,,,,,,,
,,,,,,,,,61086c714ebfaefbb62531b2,Spanish,13 or older,"no, only English or Spanish",yes,2025-08-10_15h55.30.074,empathy_intonation_perc_control,2024.2.4,MacIntel,60.24096386,61086c714ebfaefbb62531b2,68817205a84113384fffdfe3,6898f905a84459d6bc8ada11,,,,,,,,,,,,./stim/wavs/cuban_mismatch_declarative-broad-focus_La-nina-lava-el-plato.wav,0,,,82.3393,84.4223,0,1,1.5657,,0,9,9,75,1,76,0,cuban,,,,,,,,,,,,,,,,,,,,,,,,,,,,,,,,,,,,,,,,,,,,,,,,,,,,,,,,
,,,,,,,,,61086c714ebfaefbb62531b2,Spanish,13 or older,"no, only English or Spanish",yes,2025-08-10_15h55.30.074,empathy_intonation_perc_control,2024.2.4,MacIntel,60.24096386,61086c714ebfaefbb62531b2,68817205a84113384fffdfe3,6898f905a84459d6bc8ada11,,,,,,,,,,,,./stim/wavs/mexican_match_interrogative-total-yn_Ana-lleva-el-abrigo.wav,1,,,84.4227,86.4058,0,0,1.449,,0,10,10,12,1,13,0,mexican,,,,,,,,,,,,,,,,,,,,,,,,,,,,,,,,,,,,,,,,,,,,,,,,,,,,,,,,
,,,,,,,,,61086c714ebfaefbb62531b2,Spanish,13 or older,"no, only English or Spanish",yes,2025-08-10_15h55.30.074,empathy_intonation_perc_control,2024.2.4,MacIntel,60.24096386,61086c714ebfaefbb62531b2,68817205a84113384fffdfe3,6898f905a84459d6bc8ada11,,,,,,,,,,,,./stim/wavs/castilian_mismatch_interrogative-total-yn_Mi-tia-odia-la-lluvia.wav,1,,,86.4062,88.639,1,1,1.6999,,0,11,11,28,1,29,0,castilian,,,,,,,,,,,,,,,,,,,,,,,,,,,,,,,,,,,,,,,,,,,,,,,,,,,,,,,,
,,,,,,,,,61086c714ebfaefbb62531b2,Spanish,13 or older,"no, only English or Spanish",yes,2025-08-10_15h55.30.074,empathy_intonation_perc_control,2024.2.4,MacIntel,60.24096386,61086c714ebfaefbb62531b2,68817205a84113384fffdfe3,6898f905a84459d6bc8ada11,,,,,,,,,,,,./stim/wavs/castilian_mismatch_declarative-broad-focus_El-nino-oye-el-rio.wav,0,,,88.6399,91.2556,0,1,2.0826,,0,12,12,68,1,69,0,castilian,,,,,,,,,,,,,,,,,,,,,,,,,,,,,,,,,,,,,,,,,,,,,,,,,,,,,,,,
,,,,,,,,,61086c714ebfaefbb62531b2,Spanish,13 or older,"no, only English or Spanish",yes,2025-08-10_15h55.30.074,empathy_intonation_perc_control,2024.2.4,MacIntel,60.24096386,61086c714ebfaefbb62531b2,68817205a84113384fffdfe3,6898f905a84459d6bc8ada11,,,,,,,,,,,,./stim/wavs/castilian_match_interrogative-total-yn_Manuela-vende-el-carro.wav,1,,,91.2561,93.6218,1,1,1.8361,,0,13,13,2,1,3,0,castilian,,,,,,,,,,,,,,,,,,,,,,,,,,,,,,,,,,,,,,,,,,,,,,,,,,,,,,,,
,,,,,,,,,61086c714ebfaefbb62531b2,Spanish,13 or older,"no, only English or Spanish",yes,2025-08-10_15h55.30.074,empathy_intonation_perc_control,2024.2.4,MacIntel,60.24096386,61086c714ebfaefbb62531b2,68817205a84113384fffdfe3,6898f905a84459d6bc8ada11,,,,,,,,,,,,./stim/wavs/puertorican_match_interrogative-total-yn_Manuela-vende-el-carro.wav,1,,,93.6224,95.7388,0,0,1.6007,,0,14,14,22,1,23,1,puertorican,,,,,,,,,,,,,,,,,,,,,,,,,,,,,,,,,,,,,,,,,,,,,,,,,,,,,,,,
,,,,,,,,,61086c714ebfaefbb62531b2,Spanish,13 or older,"no, only English or Spanish",yes,2025-08-10_15h55.30.074,empathy_intonation_perc_control,2024.2.4,MacIntel,60.24096386,61086c714ebfaefbb62531b2,68817205a84113384fffdfe3,6898f905a84459d6bc8ada11,,,,,,,,,,,,./stim/wavs/cuban_match_declarative-broad-focus_Ana-lleva-el-abrigo.wav,0,,,95.7395,97.823,0,1,1.5508,,0,15,15,50,1,51,0,cuban,,,,,,,,,,,,,,,,,,,,,,,,,,,,,,,,,,,,,,,,,,,,,,,,,,,,,,,,
,,,,,,,,,61086c714ebfaefbb62531b2,Spanish,13 or older,"no, only English or Spanish",yes,2025-08-10_15h55.30.074,empathy_intonation_perc_control,2024.2.4,MacIntel,60.24096386,61086c714ebfaefbb62531b2,68817205a84113384fffdfe3,6898f905a84459d6bc8ada11,,,,,,,,,,,,./stim/wavs/castilian_mismatch_declarative-broad-focus_Mi-tia-odia-la-lluvia.wav,0,,,97.8238,100.0727,0,1,1.718,,0,16,16,72,1,73,0,castilian,,,,,,,,,,,,,,,,,,,,,,,,,,,,,,,,,,,,,,,,,,,,,,,,,,,,,,,,
,,,,,,,,,61086c714ebfaefbb62531b2,Spanish,13 or older,"no, only English or Spanish",yes,2025-08-10_15h55.30.074,empathy_intonation_perc_control,2024.2.4,MacIntel,60.24096386,61086c714ebfaefbb62531b2,68817205a84113384fffdfe3,6898f905a84459d6bc8ada11,,,,,,,,,,,,./stim/wavs/castilian_match_declarative-broad-focus_Manuela-vende-el-carro.wav,0,,,100.0735,102.8726,0,1,2.2667,,0,17,17,46,1,47,0,castilian,,,,,,,,,,,,,,,,,,,,,,,,,,,,,,,,,,,,,,,,,,,,,,,,,,,,,,,,
,,,,,,,,,61086c714ebfaefbb62531b2,Spanish,13 or older,"no, only English or Spanish",yes,2025-08-10_15h55.30.074,empathy_intonation_perc_control,2024.2.4,MacIntel,60.24096386,61086c714ebfaefbb62531b2,68817205a84113384fffdfe3,6898f905a84459d6bc8ada11,,,,,,,,,,,,./stim/wavs/puertorican_mismatch_interrogative-total-yn_El-hombre-mira-la-luna.wav,1,,,102.8733,107.372,1,1,3.9729,,0,18,18,39,1,40,1,puertorican,,,,,,,,,,,,,,,,,,,,,,,,,,,,,,,,,,,,,,,,,,,,,,,,,,,,,,,,
,,,,,,,,,61086c714ebfaefbb62531b2,Spanish,13 or older,"no, only English or Spanish",yes,2025-08-10_15h55.30.074,empathy_intonation_perc_control,2024.2.4,MacIntel,60.24096386,61086c714ebfaefbb62531b2,68817205a84113384fffdfe3,6898f905a84459d6bc8ada11,,,,,,,,,,,,./stim/wavs/puertorican_match_declarative-broad-focus_David-leia-el-libro.wav,0,,,107.373,109.689,0,1,1.793,,0,19,19,64,1,65,0,puertorican,,,,,,,,,,,,,,,,,,,,,,,,,,,,,,,,,,,,,,,,,,,,,,,,,,,,,,,,
,,,,,,,,,61086c714ebfaefbb62531b2,Spanish,13 or older,"no, only English or Spanish",yes,2025-08-10_15h55.30.074,empathy_intonation_perc_control,2024.2.4,MacIntel,60.24096386,61086c714ebfaefbb62531b2,68817205a84113384fffdfe3,6898f905a84459d6bc8ada11,,,,,,,,,,,,./stim/wavs/puertorican_match_declarative-broad-focus_Maria-bebe-el-vino.wav,0,,,109.6897,111.7051,0,1,1.4834,,0,20,20,67,1,68,0,puertorican,,,,,,,,,,,,,,,,,,,,,,,,,,,,,,,,,,,,,,,,,,,,,,,,,,,,,,,,
,,,,,,,,,61086c714ebfaefbb62531b2,Spanish,13 or older,"no, only English or Spanish",yes,2025-08-10_15h55.30.074,empathy_intonation_perc_control,2024.2.4,MacIntel,60.24096386,61086c714ebfaefbb62531b2,68817205a84113384fffdfe3,6898f905a84459d6bc8ada11,,,,,,,,,,,,./stim/wavs/mexican_match_declarative-broad-focus_Daniel-iba-a-Bolivia.wav,0,,,111.7057,113.756,0,1,1.5353,,0,21,21,57,1,58,0,mexican,,,,,,,,,,,,,,,,,,,,,,,,,,,,,,,,,,,,,,,,,,,,,,,,,,,,,,,,
,,,,,,,,,61086c714ebfaefbb62531b2,Spanish,13 or older,"no, only English or Spanish",yes,2025-08-10_15h55.30.074,empathy_intonation_perc_control,2024.2.4,MacIntel,60.24096386,61086c714ebfaefbb62531b2,68817205a84113384fffdfe3,6898f905a84459d6bc8ada11,,,,,,,,,,,,./stim/wavs/mexican_mismatch_declarative-broad-focus_La-maestra-vive-en-Paris.wav,0,,,113.7566,116.1723,0,1,1.887,,0,22,22,80,1,81,0,mexican,,,,,,,,,,,,,,,,,,,,,,,,,,,,,,,,,,,,,,,,,,,,,,,,,,,,,,,,
,,,,,,,,,61086c714ebfaefbb62531b2,Spanish,13 or older,"no, only English or Spanish",yes,2025-08-10_15h55.30.074,empathy_intonation_perc_control,2024.2.4,MacIntel,60.24096386,61086c714ebfaefbb62531b2,68817205a84113384fffdfe3,6898f905a84459d6bc8ada11,,,,,,,,,,,,./stim/wavs/mexican_match_declarative-broad-focus_David-leia-el-libro.wav,0,,,116.1732,118.3556,0,1,1.6496,,0,23,23,58,1,59,0,mexican,,,,,,,,,,,,,,,,,,,,,,,,,,,,,,,,,,,,,,,,,,,,,,,,,,,,,,,,
,,,,,,,,,61086c714ebfaefbb62531b2,Spanish,13 or older,"no, only English or Spanish",yes,2025-08-10_15h55.30.074,empathy_intonation_perc_control,2024.2.4,MacIntel,60.24096386,61086c714ebfaefbb62531b2,68817205a84113384fffdfe3,6898f905a84459d6bc8ada11,,,,,,,,,,,,./stim/wavs/cuban_match_interrogative-total-yn_Mariano-habla-del-tiempo.wav,1,,,118.3561,120.7561,0,0,1.8668,,0,24,24,10,1,11,1,cuban,,,,,,,,,,,,,,,,,,,,,,,,,,,,,,,,,,,,,,,,,,,,,,,,,,,,,,,,
,,,,,,,,,61086c714ebfaefbb62531b2,Spanish,13 or older,"no, only English or Spanish",yes,2025-08-10_15h55.30.074,empathy_intonation_perc_control,2024.2.4,MacIntel,60.24096386,61086c714ebfaefbb62531b2,68817205a84113384fffdfe3,6898f905a84459d6bc8ada11,,,,,,,,,,,,./stim/wavs/castilian_match_interrogative-total-yn_Marta-abre-el-regalo.wav,1,,,120.7568,123.2384,1,1,1.951,,0,25,25,5,1,6,0,castilian,,,,,,,,,,,,,,,,,,,,,,,,,,,,,,,,,,,,,,,,,,,,,,,,,,,,,,,,
,,,,,,,,,61086c714ebfaefbb62531b2,Spanish,13 or older,"no, only English or Spanish",yes,2025-08-10_15h55.30.074,empathy_intonation_perc_control,2024.2.4,MacIntel,60.24096386,61086c714ebfaefbb62531b2,68817205a84113384fffdfe3,6898f905a84459d6bc8ada11,,,,,,,,,,,,./stim/wavs/cuban_match_declarative-broad-focus_Maria-bebe-el-vino.wav,0,,,123.2389,125.7228,0,1,1.9719,,0,26,26,53,1,54,0,cuban,,,,,,,,,,,,,,,,,,,,,,,,,,,,,,,,,,,,,,,,,,,,,,,,,,,,,,,,
,,,,,,,,,61086c714ebfaefbb62531b2,Spanish,13 or older,"no, only English or Spanish",yes,2025-08-10_15h55.30.074,empathy_intonation_perc_control,2024.2.4,MacIntel,60.24096386,61086c714ebfaefbb62531b2,68817205a84113384fffdfe3,6898f905a84459d6bc8ada11,,,,,,,,,,,,./stim/wavs/castilian_match_declarative-broad-focus_Emilio-ama-la-marcha.wav,0,,,125.7237,128.1223,0,1,1.8669,,0,27,27,45,1,46,0,castilian,,,,,,,,,,,,,,,,,,,,,,,,,,,,,,,,,,,,,,,,,,,,,,,,,,,,,,,,
,,,,,,,,,61086c714ebfaefbb62531b2,Spanish,13 or older,"no, only English or Spanish",yes,2025-08-10_15h55.30.074,empathy_intonation_perc_control,2024.2.4,MacIntel,60.24096386,61086c714ebfaefbb62531b2,68817205a84113384fffdfe3,6898f905a84459d6bc8ada11,,,,,,,,,,,,./stim/wavs/castilian_match_declarative-broad-focus_Marta-abre-el-regalo.wav,0,,,128.1228,130.6389,0,1,1.9929,,0,28,28,49,1,50,0,castilian,,,,,,,,,,,,,,,,,,,,,,,,,,,,,,,,,,,,,,,,,,,,,,,,,,,,,,,,
,,,,,,,,,61086c714ebfaefbb62531b2,Spanish,13 or older,"no, only English or Spanish",yes,2025-08-10_15h55.30.074,empathy_intonation_perc_control,2024.2.4,MacIntel,60.24096386,61086c714ebfaefbb62531b2,68817205a84113384fffdfe3,6898f905a84459d6bc8ada11,,,,,,,,,,,,./stim/wavs/cuban_mismatch_interrogative-total-yn_Mi-tia-odia-la-lluvia.wav,1,,,130.6396,132.7894,0,0,1.6179,,0,29,29,33,1,34,1,cuban,,,,,,,,,,,,,,,,,,,,,,,,,,,,,,,,,,,,,,,,,,,,,,,,,,,,,,,,
,,,,,,,,,61086c714ebfaefbb62531b2,Spanish,13 or older,"no, only English or Spanish",yes,2025-08-10_15h55.30.074,empathy_intonation_perc_control,2024.2.4,MacIntel,60.24096386,61086c714ebfaefbb62531b2,68817205a84113384fffdfe3,6898f905a84459d6bc8ada11,,,,,,,,,,,,./stim/wavs/puertorican_mismatch_declarative-broad-focus_La-nina-lava-el-plato.wav,0,,,132.79,135.2059,0,1,1.8828,,0,30,30,87,1,88,0,puertorican,,,,,,,,,,,,,,,,,,,,,,,,,,,,,,,,,,,,,,,,,,,,,,,,,,,,,,,,
,,,,,,,,,61086c714ebfaefbb62531b2,Spanish,13 or older,"no, only English or Spanish",yes,2025-08-10_15h55.30.074,empathy_intonation_perc_control,2024.2.4,MacIntel,60.24096386,61086c714ebfaefbb62531b2,68817205a84113384fffdfe3,6898f905a84459d6bc8ada11,,,,,,,,,,,,./stim/wavs/cuban_mismatch_declarative-broad-focus_Mi-novio-viene-del-lago.wav,0,,,135.2065,137.6388,0,1,1.909,,0,31,31,76,1,77,0,cuban,,,,,,,,,,,,,,,,,,,,,,,,,,,,,,,,,,,,,,,,,,,,,,,,,,,,,,,,
,,,,,,,,,61086c714ebfaefbb62531b2,Spanish,13 or older,"no, only English or Spanish",yes,2025-08-10_15h55.30.074,empathy_intonation_perc_control,2024.2.4,MacIntel,60.24096386,61086c714ebfaefbb62531b2,68817205a84113384fffdfe3,6898f905a84459d6bc8ada11,,,,,,,,,,,,./stim/wavs/puertorican_match_declarative-broad-focus_Ana-lleva-el-abrigo.wav,0,,,137.6392,139.722,0,1,1.5502,,0,32,32,62,1,63,0,puertorican,,,,,,,,,,,,,,,,,,,,,,,,,,,,,,,,,,,,,,,,,,,,,,,,,,,,,,,,
,,,,,,,,,61086c714ebfaefbb62531b2,Spanish,13 or older,"no, only English or Spanish",yes,2025-08-10_15h55.30.074,empathy_intonation_perc_control,2024.2.4,MacIntel,60.24096386,61086c714ebfaefbb62531b2,68817205a84113384fffdfe3,6898f905a84459d6bc8ada11,,,,,,,,,,,,./stim/wavs/castilian_match_declarative-broad-focus_Mariano-habla-del-tiempo.wav,0,,,139.7226,142.5389,0,1,2.3007,,0,33,33,48,1,49,0,castilian,,,,,,,,,,,,,,,,,,,,,,,,,,,,,,,,,,,,,,,,,,,,,,,,,,,,,,,,
,,,,,,,,,61086c714ebfaefbb62531b2,Spanish,13 or older,"no, only English or Spanish",yes,2025-08-10_15h55.30.074,empathy_intonation_perc_control,2024.2.4,MacIntel,60.24096386,61086c714ebfaefbb62531b2,68817205a84113384fffdfe3,6898f905a84459d6bc8ada11,,,,,,,,,,,,./stim/wavs/mexican_match_interrogative-total-yn_David-leia-el-libro.wav,1,,,142.5395,144.6889,1,1,1.6159,,0,34,34,14,1,15,0,mexican,,,,,,,,,,,,,,,,,,,,,,,,,,,,,,,,,,,,,,,,,,,,,,,,,,,,,,,,
,,,,,,,,,61086c714ebfaefbb62531b2,Spanish,13 or older,"no, only English or Spanish",yes,2025-08-10_15h55.30.074,empathy_intonation_perc_control,2024.2.4,MacIntel,60.24096386,61086c714ebfaefbb62531b2,68817205a84113384fffdfe3,6898f905a84459d6bc8ada11,,,,,,,,,,,,./stim/wavs/mexican_mismatch_interrogative-total-yn_Mi-tia-odia-la-lluvia.wav,1,,,144.6894,147.2055,1,1,1.9837,,0,35,35,38,1,39,0,mexican,,,,,,,,,,,,,,,,,,,,,,,,,,,,,,,,,,,,,,,,,,,,,,,,,,,,,,,,
,,,,,,,,,61086c714ebfaefbb62531b2,Spanish,13 or older,"no, only English or Spanish",yes,2025-08-10_15h55.30.074,empathy_intonation_perc_control,2024.2.4,MacIntel,60.24096386,61086c714ebfaefbb62531b2,68817205a84113384fffdfe3,6898f905a84459d6bc8ada11,,,,,,,,,,,,./stim/wavs/cuban_match_interrogative-total-yn_Maria-bebe-el-vino.wav,1,,,147.206,149.3225,0,0,1.5842,,0,36,36,9,1,10,1,cuban,,,,,,,,,,,,,,,,,,,,,,,,,,,,,,,,,,,,,,,,,,,,,,,,,,,,,,,,
,,,,,,,,,61086c714ebfaefbb62531b2,Spanish,13 or older,"no, only English or Spanish",yes,2025-08-10_15h55.30.074,empathy_intonation_perc_control,2024.2.4,MacIntel,60.24096386,61086c714ebfaefbb62531b2,68817205a84113384fffdfe3,6898f905a84459d6bc8ada11,,,,,,,,,,,,./stim/wavs/mexican_mismatch_declarative-broad-focus_El-hombre-mira-la-luna.wav,0,,,149.3234,151.5051,0,1,1.6501,,0,37,37,79,1,80,0,mexican,,,,,,,,,,,,,,,,,,,,,,,,,,,,,,,,,,,,,,,,,,,,,,,,,,,,,,,,
,,,,,,,,,61086c714ebfaefbb62531b2,Spanish,13 or older,"no, only English or Spanish",yes,2025-08-10_15h55.30.074,empathy_intonation_perc_control,2024.2.4,MacIntel,60.24096386,61086c714ebfaefbb62531b2,68817205a84113384fffdfe3,6898f905a84459d6bc8ada11,,,,,,,,,,,,./stim/wavs/mexican_mismatch_interrogative-total-yn_El-nino-oye-el-rio.wav,1,,,151.5056,153.7883,1,1,1.7711,,0,38,38,35,1,36,0,mexican,,,,,,,,,,,,,,,,,,,,,,,,,,,,,,,,,,,,,,,,,,,,,,,,,,,,,,,,
,,,,,,,,,61086c714ebfaefbb62531b2,Spanish,13 or older,"no, only English or Spanish",yes,2025-08-10_15h55.30.074,empathy_intonation_perc_control,2024.2.4,MacIntel,60.24096386,61086c714ebfaefbb62531b2,68817205a84113384fffdfe3,6898f905a84459d6bc8ada11,,,,,,,,,,,,./stim/wavs/puertorican_mismatch_declarative-broad-focus_El-hombre-mira-la-luna.wav,0,,,153.7887,155.9892,0,1,1.6764,,0,39,39,84,1,85,0,puertorican,,,,,,,,,,,,,,,,,,,,,,,,,,,,,,,,,,,,,,,,,,,,,,,,,,,,,,,,
,,,,,,,,,61086c714ebfaefbb62531b2,Spanish,13 or older,"no, only English or Spanish",yes,2025-08-10_15h55.30.074,empathy_intonation_perc_control,2024.2.4,MacIntel,60.24096386,61086c714ebfaefbb62531b2,68817205a84113384fffdfe3,6898f905a84459d6bc8ada11,,,,,,,,,,,,./stim/wavs/castilian_match_interrogative-total-yn_David-leia-el-libro.wav,1,,,155.9897,158.3389,1,1,1.8244,,0,40,40,0,1,1,0,castilian,,,,,,,,,,,,,,,,,,,,,,,,,,,,,,,,,,,,,,,,,,,,,,,,,,,,,,,,
,,,,,,,,,61086c714ebfaefbb62531b2,Spanish,13 or older,"no, only English or Spanish",yes,2025-08-10_15h55.30.074,empathy_intonation_perc_control,2024.2.4,MacIntel,60.24096386,61086c714ebfaefbb62531b2,68817205a84113384fffdfe3,6898f905a84459d6bc8ada11,,,,,,,,,,,,./stim/wavs/puertorican_match_declarative-broad-focus_Daniel-iba-a-Bolivia.wav,0,,,158.3392,160.5725,0,1,1.7002,,0,41,41,63,1,64,0,puertorican,,,,,,,,,,,,,,,,,,,,,,,,,,,,,,,,,,,,,,,,,,,,,,,,,,,,,,,,
,,,,,,,,,61086c714ebfaefbb62531b2,Spanish,13 or older,"no, only English or Spanish",yes,2025-08-10_15h55.30.074,empathy_intonation_perc_control,2024.2.4,MacIntel,60.24096386,61086c714ebfaefbb62531b2,68817205a84113384fffdfe3,6898f905a84459d6bc8ada11,,,,,,,,,,,,./stim/wavs/mexican_mismatch_declarative-broad-focus_El-bebe-comia-muy-bien.wav,0,,,160.5734,162.7887,0,1,1.6844,,0,42,42,78,1,79,0,mexican,,,,,,,,,,,,,,,,,,,,,,,,,,,,,,,,,,,,,,,,,,,,,,,,,,,,,,,,
,,,,,,,,,61086c714ebfaefbb62531b2,Spanish,13 or older,"no, only English or Spanish",yes,2025-08-10_15h55.30.074,empathy_intonation_perc_control,2024.2.4,MacIntel,60.24096386,61086c714ebfaefbb62531b2,68817205a84113384fffdfe3,6898f905a84459d6bc8ada11,,,,,,,,,,,,./stim/wavs/puertorican_match_declarative-broad-focus_Emilio-ama-la-marcha.wav,0,,,162.7894,165.1389,0,1,1.8183,,0,43,43,65,1,66,0,puertorican,,,,,,,,,,,,,,,,,,,,,,,,,,,,,,,,,,,,,,,,,,,,,,,,,,,,,,,,
,,,,,,,,,61086c714ebfaefbb62531b2,Spanish,13 or older,"no, only English or Spanish",yes,2025-08-10_15h55.30.074,empathy_intonation_perc_control,2024.2.4,MacIntel,60.24096386,61086c714ebfaefbb62531b2,68817205a84113384fffdfe3,6898f905a84459d6bc8ada11,,,,,,,,,,,,./stim/wavs/puertorican_mismatch_interrogative-total-yn_El-nino-oye-el-rio.wav,1,,,165.1393,167.3225,0,0,1.6596,,0,44,44,40,1,41,1,puertorican,,,,,,,,,,,,,,,,,,,,,,,,,,,,,,,,,,,,,,,,,,,,,,,,,,,,,,,,
,,,,,,,,,61086c714ebfaefbb62531b2,Spanish,13 or older,"no, only English or Spanish",yes,2025-08-10_15h55.30.074,empathy_intonation_perc_control,2024.2.4,MacIntel,60.24096386,61086c714ebfaefbb62531b2,68817205a84113384fffdfe3,6898f905a84459d6bc8ada11,,,,,,,,,,,,./stim/wavs/mexican_match_declarative-broad-focus_Ana-lleva-el-abrigo.wav,0,,,167.323,169.3224,0,1,1.4755,,0,45,45,56,1,57,0,mexican,,,,,,,,,,,,,,,,,,,,,,,,,,,,,,,,,,,,,,,,,,,,,,,,,,,,,,,,
,,,,,,,,,61086c714ebfaefbb62531b2,Spanish,13 or older,"no, only English or Spanish",yes,2025-08-10_15h55.30.074,empathy_intonation_perc_control,2024.2.4,MacIntel,60.24096386,61086c714ebfaefbb62531b2,68817205a84113384fffdfe3,6898f905a84459d6bc8ada11,,,,,,,,,,,,./stim/wavs/castilian_match_interrogative-total-yn_Mariano-habla-del-tiempo.wav,1,,,169.3231,171.889,1,1,2.0355,,0,46,46,4,1,5,0,castilian,,,,,,,,,,,,,,,,,,,,,,,,,,,,,,,,,,,,,,,,,,,,,,,,,,,,,,,,
,,,,,,,,,61086c714ebfaefbb62531b2,Spanish,13 or older,"no, only English or Spanish",yes,2025-08-10_15h55.30.074,empathy_intonation_perc_control,2024.2.4,MacIntel,60.24096386,61086c714ebfaefbb62531b2,68817205a84113384fffdfe3,6898f905a84459d6bc8ada11,,,,,,,,,,,,./stim/wavs/castilian_mismatch_declarative-broad-focus_La-nina-lava-el-plato.wav,0,,,171.8896,174.4724,0,1,2.0512,,0,47,47,70,1,71,0,castilian,,,,,,,,,,,,,,,,,,,,,,,,,,,,,,,,,,,,,,,,,,,,,,,,,,,,,,,,
,,,,,,,,,61086c714ebfaefbb62531b2,Spanish,13 or older,"no, only English or Spanish",yes,2025-08-10_15h55.30.074,empathy_intonation_perc_control,2024.2.4,MacIntel,60.24096386,61086c714ebfaefbb62531b2,68817205a84113384fffdfe3,6898f905a84459d6bc8ada11,,,,,,,,,,,,./stim/wavs/cuban_match_declarative-broad-focus_Mariano-habla-del-tiempo.wav,0,,,174.4735,176.9891,0,1,1.9884,,0,48,48,54,1,55,0,cuban,,,,,,,,,,,,,,,,,,,,,,,,,,,,,,,,,,,,,,,,,,,,,,,,,,,,,,,,
,,,,,,,,,61086c714ebfaefbb62531b2,Spanish,13 or older,"no, only English or Spanish",yes,2025-08-10_15h55.30.074,empathy_intonation_perc_control,2024.2.4,MacIntel,60.24096386,61086c714ebfaefbb62531b2,68817205a84113384fffdfe3,6898f905a84459d6bc8ada11,,,,,,,,,,,,./stim/wavs/puertorican_match_interrogative-total-yn_Ana-lleva-el-abrigo.wav,1,,,176.9898,179.0213,0,0,1.5062,,0,49,49,18,1,19,1,puertorican,,,,,,,,,,,,,,,,,,,,,,,,,,,,,,,,,,,,,,,,,,,,,,,,,,,,,,,,
,,,,,,,,,61086c714ebfaefbb62531b2,Spanish,13 or older,"no, only English or Spanish",yes,2025-08-10_15h55.30.074,empathy_intonation_perc_control,2024.2.4,MacIntel,60.24096386,61086c714ebfaefbb62531b2,68817205a84113384fffdfe3,6898f905a84459d6bc8ada11,,,,,,,,,,,,./stim/wavs/castilian_mismatch_declarative-broad-focus_Mi-novio-viene-del-lago.wav,0,,,179.0217,181.5551,0,1,2.0172,,0,50,50,71,1,72,0,castilian,,,,,,,,,,,,,,,,,,,,,,,,,,,,,,,,,,,,,,,,,,,,,,,,,,,,,,,,
,,,,,,,,,61086c714ebfaefbb62531b2,Spanish,13 or older,"no, only English or Spanish",yes,2025-08-10_15h55.30.074,empathy_intonation_perc_control,2024.2.4,MacIntel,60.24096386,61086c714ebfaefbb62531b2,68817205a84113384fffdfe3,6898f905a84459d6bc8ada11,,,,,,,,,,,,./stim/wavs/puertorican_mismatch_interrogative-total-yn_La-nina-lava-el-plato.wav,1,,,181.5557,183.6225,0,0,1.553,,0,51,51,42,1,43,1,puertorican,,,,,,,,,,,,,,,,,,,,,,,,,,,,,,,,,,,,,,,,,,,,,,,,,,,,,,,,
,,,,,,,,,61086c714ebfaefbb62531b2,Spanish,13 or older,"no, only English or Spanish",yes,2025-08-10_15h55.30.074,empathy_intonation_perc_control,2024.2.4,MacIntel,60.24096386,61086c714ebfaefbb62531b2,68817205a84113384fffdfe3,6898f905a84459d6bc8ada11,,,,,,,,,,,,./stim/wavs/mexican_match_declarative-broad-focus_Mariano-habla-del-tiempo.wav,0,,,183.6232,185.855,0,1,1.7008,,0,52,52,60,1,61,0,mexican,,,,,,,,,,,,,,,,,,,,,,,,,,,,,,,,,,,,,,,,,,,,,,,,,,,,,,,,
,,,,,,,,,61086c714ebfaefbb62531b2,Spanish,13 or older,"no, only English or Spanish",yes,2025-08-10_15h55.30.074,empathy_intonation_perc_control,2024.2.4,MacIntel,60.24096386,61086c714ebfaefbb62531b2,68817205a84113384fffdfe3,6898f905a84459d6bc8ada11,,,,,,,,,,,,./stim/wavs/puertorican_mismatch_interrogative-total-yn_Mi-madre-come-la-fruta.wav,1,,,185.8559,187.989,0,0,1.6219,,0,53,53,43,1,44,1,puertorican,,,,,,,,,,,,,,,,,,,,,,,,,,,,,,,,,,,,,,,,,,,,,,,,,,,,,,,,
,,,,,,,,,61086c714ebfaefbb62531b2,Spanish,13 or older,"no, only English or Spanish",yes,2025-08-10_15h55.30.074,empathy_intonation_perc_control,2024.2.4,MacIntel,60.24096386,61086c714ebfaefbb62531b2,68817205a84113384fffdfe3,6898f905a84459d6bc8ada11,,,,,,,,,,,,./stim/wavs/mexican_mismatch_interrogative-total-yn_El-hombre-mira-la-luna.wav,1,,,187.9898,190.7225,1,1,2.2011,,0,54,54,34,1,35,0,mexican,,,,,,,,,,,,,,,,,,,,,,,,,,,,,,,,,,,,,,,,,,,,,,,,,,,,,,,,
,,,,,,,,,61086c714ebfaefbb62531b2,Spanish,13 or older,"no, only English or Spanish",yes,2025-08-10_15h55.30.074,empathy_intonation_perc_control,2024.2.4,MacIntel,60.24096386,61086c714ebfaefbb62531b2,68817205a84113384fffdfe3,6898f905a84459d6bc8ada11,,,,,,,,,,,,./stim/wavs/cuban_match_declarative-broad-focus_Daniel-iba-a-Bolivia.wav,0,,,190.7231,193.089,0,1,1.8331,,0,55,55,51,1,52,0,cuban,,,,,,,,,,,,,,,,,,,,,,,,,,,,,,,,,,,,,,,,,,,,,,,,,,,,,,,,
,,,,,,,,,61086c714ebfaefbb62531b2,Spanish,13 or older,"no, only English or Spanish",yes,2025-08-10_15h55.30.074,empathy_intonation_perc_control,2024.2.4,MacIntel,60.24096386,61086c714ebfaefbb62531b2,68817205a84113384fffdfe3,6898f905a84459d6bc8ada11,,,,,,,,,,,,./stim/wavs/cuban_match_interrogative-total-yn_Daniel-iba-a-Bolivia.wav,1,,,193.0896,195.4388,0,0,1.8259,,0,56,56,7,1,8,1,cuban,,,,,,,,,,,,,,,,,,,,,,,,,,,,,,,,,,,,,,,,,,,,,,,,,,,,,,,,
,,,,,,,,,61086c714ebfaefbb62531b2,Spanish,13 or older,"no, only English or Spanish",yes,2025-08-10_15h55.30.074,empathy_intonation_perc_control,2024.2.4,MacIntel,60.24096386,61086c714ebfaefbb62531b2,68817205a84113384fffdfe3,6898f905a84459d6bc8ada11,,,,,,,,,,,,./stim/wavs/castilian_match_declarative-broad-focus_Maria-bebe-el-vino.wav,0,,,195.4393,197.74,0,1,1.7649,,0,57,57,47,1,48,0,castilian,,,,,,,,,,,,,,,,,,,,,,,,,,,,,,,,,,,,,,,,,,,,,,,,,,,,,,,,
,,,,,,,,,61086c714ebfaefbb62531b2,Spanish,13 or older,"no, only English or Spanish",yes,2025-08-10_15h55.30.074,empathy_intonation_perc_control,2024.2.4,MacIntel,60.24096386,61086c714ebfaefbb62531b2,68817205a84113384fffdfe3,6898f905a84459d6bc8ada11,,,,,,,,,,,,./stim/wavs/cuban_match_declarative-broad-focus_Manuela-vende-el-carro.wav,0,,,197.7426,199.9216,0,1,1.6565,,0,58,58,52,1,53,0,cuban,,,,,,,,,,,,,,,,,,,,,,,,,,,,,,,,,,,,,,,,,,,,,,,,,,,,,,,,
,,,,,,,,,61086c714ebfaefbb62531b2,Spanish,13 or older,"no, only English or Spanish",yes,2025-08-10_15h55.30.074,empathy_intonation_perc_control,2024.2.4,MacIntel,60.24096386,61086c714ebfaefbb62531b2,68817205a84113384fffdfe3,6898f905a84459d6bc8ada11,,,,,,,,,,,,./stim/wavs/puertorican_match_interrogative-total-yn_Daniel-iba-a-Bolivia.wav,1,,,199.9226,202.1555,0,0,1.7067,,0,59,59,19,1,20,1,puertorican,,,,,,,,,,,,,,,,,,,,,,,,,,,,,,,,,,,,,,,,,,,,,,,,,,,,,,,,
,,,,,,,,,61086c714ebfaefbb62531b2,Spanish,13 or older,"no, only English or Spanish",yes,2025-08-10_15h55.30.074,empathy_intonation_perc_control,2024.2.4,MacIntel,60.24096386,61086c714ebfaefbb62531b2,68817205a84113384fffdfe3,6898f905a84459d6bc8ada11,,,,,,,,,,,,./stim/wavs/castilian_mismatch_interrogative-total-yn_Mi-novio-viene-del-lago.wav,1,,,202.156,204.5725,1,1,1.8842,,0,60,60,27,1,28,0,castilian,,,,,,,,,,,,,,,,,,,,,,,,,,,,,,,,,,,,,,,,,,,,,,,,,,,,,,,,
,,,,,,,,,61086c714ebfaefbb62531b2,Spanish,13 or older,"no, only English or Spanish",yes,2025-08-10_15h55.30.074,empathy_intonation_perc_control,2024.2.4,MacIntel,60.24096386,61086c714ebfaefbb62531b2,68817205a84113384fffdfe3,6898f905a84459d6bc8ada11,,,,,,,,,,,,./stim/wavs/puertorican_match_interrogative-total-yn_Maria-bebe-el-vino.wav,1,,,204.5731,206.3055,0,0,1.2007,,0,61,61,23,1,24,1,puertorican,,,,,,,,,,,,,,,,,,,,,,,,,,,,,,,,,,,,,,,,,,,,,,,,,,,,,,,,
,,,,,,,,,61086c714ebfaefbb62531b2,Spanish,13 or older,"no, only English or Spanish",yes,2025-08-10_15h55.30.074,empathy_intonation_perc_control,2024.2.4,MacIntel,60.24096386,61086c714ebfaefbb62531b2,68817205a84113384fffdfe3,6898f905a84459d6bc8ada11,,,,,,,,,,,,./stim/wavs/mexican_match_interrogative-total-yn_Daniel-iba-a-Bolivia.wav,1,,,206.306,208.7726,1,1,1.9335,,0,62,62,13,1,14,0,mexican,,,,,,,,,,,,,,,,,,,,,,,,,,,,,,,,,,,,,,,,,,,,,,,,,,,,,,,,
,,,,,,,,,61086c714ebfaefbb62531b2,Spanish,13 or older,"no, only English or Spanish",yes,2025-08-10_15h55.30.074,empathy_intonation_perc_control,2024.2.4,MacIntel,60.24096386,61086c714ebfaefbb62531b2,68817205a84113384fffdfe3,6898f905a84459d6bc8ada11,,,,,,,,,,,,./stim/wavs/cuban_mismatch_declarative-broad-focus_Mi-tia-odia-la-lluvia.wav,0,,,208.7734,211.0223,0,1,1.7224,,0,63,63,77,1,78,0,cuban,,,,,,,,,,,,,,,,,,,,,,,,,,,,,,,,,,,,,,,,,,,,,,,,,,,,,,,,
,,,,,,,,,61086c714ebfaefbb62531b2,Spanish,13 or older,"no, only English or Spanish",yes,2025-08-10_15h55.30.074,empathy_intonation_perc_control,2024.2.4,MacIntel,60.24096386,61086c714ebfaefbb62531b2,68817205a84113384fffdfe3,6898f905a84459d6bc8ada11,,,,,,,,,,,,./stim/wavs/castilian_mismatch_interrogative-total-yn_La-maestra-vive-en-Paris.wav,1,,,211.0229,213.5392,0,0,1.9853,,0,64,64,24,1,25,0,castilian,,,,,,,,,,,,,,,,,,,,,,,,,,,,,,,,,,,,,,,,,,,,,,,,,,,,,,,,
,,,,,,,,,61086c714ebfaefbb62531b2,Spanish,13 or older,"no, only English or Spanish",yes,2025-08-10_15h55.30.074,empathy_intonation_perc_control,2024.2.4,MacIntel,60.24096386,61086c714ebfaefbb62531b2,68817205a84113384fffdfe3,6898f905a84459d6bc8ada11,,,,,,,,,,,,./stim/wavs/puertorican_mismatch_declarative-broad-focus_El-bebe-comia-muy-bien.wav,0,,,213.5401,215.7882,0,1,1.7161,,0,65,65,83,1,84,0,puertorican,,,,,,,,,,,,,,,,,,,,,,,,,,,,,,,,,,,,,,,,,,,,,,,,,,,,,,,,
,,,,,,,,,61086c714ebfaefbb62531b2,Spanish,13 or older,"no, only English or Spanish",yes,2025-08-10_15h55.30.074,empathy_intonation_perc_control,2024.2.4,MacIntel,60.24096386,61086c714ebfaefbb62531b2,68817205a84113384fffdfe3,6898f905a84459d6bc8ada11,,,,,,,,,,,,./stim/wavs/mexican_match_declarative-broad-focus_Marta-abre-el-regalo.wav,0,,,215.7887,217.8726,0,1,1.5697,,0,66,66,61,1,62,0,mexican,,,,,,,,,,,,,,,,,,,,,,,,,,,,,,,,,,,,,,,,,,,,,,,,,,,,,,,,
,,,,,,,,,61086c714ebfaefbb62531b2,Spanish,13 or older,"no, only English or Spanish",yes,2025-08-10_15h55.30.074,empathy_intonation_perc_control,2024.2.4,MacIntel,60.24096386,61086c714ebfaefbb62531b2,68817205a84113384fffdfe3,6898f905a84459d6bc8ada11,,,,,,,,,,,,./stim/wavs/puertorican_mismatch_declarative-broad-focus_El-nino-oye-el-rio.wav,0,,,217.8735,219.9891,0,1,1.5857,,0,67,67,85,1,86,0,puertorican,,,,,,,,,,,,,,,,,,,,,,,,,,,,,,,,,,,,,,,,,,,,,,,,,,,,,,,,
,,,,,,,,,61086c714ebfaefbb62531b2,Spanish,13 or older,"no, only English or Spanish",yes,2025-08-10_15h55.30.074,empathy_intonation_perc_control,2024.2.4,MacIntel,60.24096386,61086c714ebfaefbb62531b2,68817205a84113384fffdfe3,6898f905a84459d6bc8ada11,,,,,,,,,,,,./stim/wavs/cuban_match_interrogative-total-yn_Ana-lleva-el-abrigo.wav,1,,,219.9899,222.1392,0,0,1.6182,,0,68,68,6,1,7,1,cuban,,,,,,,,,,,,,,,,,,,,,,,,,,,,,,,,,,,,,,,,,,,,,,,,,,,,,,,,
,,,,,,,,,61086c714ebfaefbb62531b2,Spanish,13 or older,"no, only English or Spanish",yes,2025-08-10_15h55.30.074,empathy_intonation_perc_control,2024.2.4,MacIntel,60.24096386,61086c714ebfaefbb62531b2,68817205a84113384fffdfe3,6898f905a84459d6bc8ada11,,,,,,,,,,,,./stim/wavs/cuban_mismatch_interrogative-total-yn_Mi-madre-come-la-fruta.wav,1,,,222.1398,224.4052,0,0,1.7332,,0,69,69,31,1,32,1,cuban,,,,,,,,,,,,,,,,,,,,,,,,,,,,,,,,,,,,,,,,,,,,,,,,,,,,,,,,
,,,,,,,,,61086c714ebfaefbb62531b2,Spanish,13 or older,"no, only English or Spanish",yes,2025-08-10_15h55.30.074,empathy_intonation_perc_control,2024.2.4,MacIntel,60.24096386,61086c714ebfaefbb62531b2,68817205a84113384fffdfe3,6898f905a84459d6bc8ada11,,,,,,,,,,,,./stim/wavs/puertorican_mismatch_declarative-broad-focus_La-maestra-vive-en-Paris.wav,0,,,224.4057,226.6056,0,1,1.6733,,0,70,70,86,1,87,0,puertorican,,,,,,,,,,,,,,,,,,,,,,,,,,,,,,,,,,,,,,,,,,,,,,,,,,,,,,,,
,,,,,,,,,61086c714ebfaefbb62531b2,Spanish,13 or older,"no, only English or Spanish",yes,2025-08-10_15h55.30.074,empathy_intonation_perc_control,2024.2.4,MacIntel,60.24096386,61086c714ebfaefbb62531b2,68817205a84113384fffdfe3,6898f905a84459d6bc8ada11,,,,,,,,,,,,./stim/wavs/cuban_mismatch_declarative-broad-focus_El-bebe-comia-muy-bien.wav,0,,,226.6059,228.7222,0,1,1.5838,,0,71,71,73,1,74,0,cuban,,,,,,,,,,,,,,,,,,,,,,,,,,,,,,,,,,,,,,,,,,,,,,,,,,,,,,,,
,,,,,,,,,61086c714ebfaefbb62531b2,Spanish,13 or older,"no, only English or Spanish",yes,2025-08-10_15h55.30.074,empathy_intonation_perc_control,2024.2.4,MacIntel,60.24096386,61086c714ebfaefbb62531b2,68817205a84113384fffdfe3,6898f905a84459d6bc8ada11,,,,,,,,,,,,./stim/wavs/puertorican_match_declarative-broad-focus_Manuela-vende-el-carro.wav,0,,,228.7227,230.9215,0,1,1.6669,,0,72,72,66,1,67,0,puertorican,,,,,,,,,,,,,,,,,,,,,,,,,,,,,,,,,,,,,,,,,,,,,,,,,,,,,,,,
,,,,,,,,,61086c714ebfaefbb62531b2,Spanish,13 or older,"no, only English or Spanish",yes,2025-08-10_15h55.30.074,empathy_intonation_perc_control,2024.2.4,MacIntel,60.24096386,61086c714ebfaefbb62531b2,68817205a84113384fffdfe3,6898f905a84459d6bc8ada11,,,,,,,,,,,,./stim/wavs/cuban_mismatch_interrogative-total-yn_El-hombre-mira-la-luna.wav,1,,,230.9226,232.9551,0,0,1.5051,,0,73,73,29,1,30,1,cuban,,,,,,,,,,,,,,,,,,,,,,,,,,,,,,,,,,,,,,,,,,,,,,,,,,,,,,,,
,,,,,,,,,61086c714ebfaefbb62531b2,Spanish,13 or older,"no, only English or Spanish",yes,2025-08-10_15h55.30.074,empathy_intonation_perc_control,2024.2.4,MacIntel,60.24096386,61086c714ebfaefbb62531b2,68817205a84113384fffdfe3,6898f905a84459d6bc8ada11,,,,,,,,,,,,./stim/wavs/puertorican_match_interrogative-total-yn_David-leia-el-libro.wav,1,,,232.956,235.1557,0,0,1.6704,,0,74,74,20,1,21,1,puertorican,,,,,,,,,,,,,,,,,,,,,,,,,,,,,,,,,,,,,,,,,,,,,,,,,,,,,,,,
,,,,,,,,,61086c714ebfaefbb62531b2,Spanish,13 or older,"no, only English or Spanish",yes,2025-08-10_15h55.30.074,empathy_intonation_perc_control,2024.2.4,MacIntel,60.24096386,61086c714ebfaefbb62531b2,68817205a84113384fffdfe3,6898f905a84459d6bc8ada11,,,,,,,,,,,,./stim/wavs/mexican_match_interrogative-total-yn_Mariano-habla-del-tiempo.wav,1,,,235.1564,237.4221,0,0,1.7332,,0,75,75,16,1,17,0,mexican,,,,,,,,,,,,,,,,,,,,,,,,,,,,,,,,,,,,,,,,,,,,,,,,,,,,,,,,
,,,,,,,,,61086c714ebfaefbb62531b2,Spanish,13 or older,"no, only English or Spanish",yes,2025-08-10_15h55.30.074,empathy_intonation_perc_control,2024.2.4,MacIntel,60.24096386,61086c714ebfaefbb62531b2,68817205a84113384fffdfe3,6898f905a84459d6bc8ada11,,,,,,,,,,,,./stim/wavs/castilian_mismatch_declarative-broad-focus_La-maestra-vive-en-Paris.wav,0,,,237.4229,239.8051,0,1,1.8501,,0,76,76,69,1,70,0,castilian,,,,,,,,,,,,,,,,,,,,,,,,,,,,,,,,,,,,,,,,,,,,,,,,,,,,,,,,
,,,,,,,,,61086c714ebfaefbb62531b2,Spanish,13 or older,"no, only English or Spanish",yes,2025-08-10_15h55.30.074,empathy_intonation_perc_control,2024.2.4,MacIntel,60.24096386,61086c714ebfaefbb62531b2,68817205a84113384fffdfe3,6898f905a84459d6bc8ada11,,,,,,,,,,,,./stim/wavs/mexican_match_declarative-broad-focus_Emilio-ama-la-marcha.wav,0,,,239.8067,242.1058,0,1,1.7675,,0,77,77,59,1,60,0,mexican,,,,,,,,,,,,,,,,,,,,,,,,,,,,,,,,,,,,,,,,,,,,,,,,,,,,,,,,
,,,,,,,,,61086c714ebfaefbb62531b2,Spanish,13 or older,"no, only English or Spanish",yes,2025-08-10_15h55.30.074,empathy_intonation_perc_control,2024.2.4,MacIntel,60.24096386,61086c714ebfaefbb62531b2,68817205a84113384fffdfe3,6898f905a84459d6bc8ada11,,,,,,,,,,,,./stim/wavs/cuban_mismatch_declarative-broad-focus_El-hombre-mira-la-luna.wav,0,,,242.1068,244.1556,0,1,1.5166,,0,78,78,74,1,75,0,cuban,,,,,,,,,,,,,,,,,,,,,,,,,,,,,,,,,,,,,,,,,,,,,,,,,,,,,,,,
,,,,,,,,,61086c714ebfaefbb62531b2,Spanish,13 or older,"no, only English or Spanish",yes,2025-08-10_15h55.30.074,empathy_intonation_perc_control,2024.2.4,MacIntel,60.24096386,61086c714ebfaefbb62531b2,68817205a84113384fffdfe3,6898f905a84459d6bc8ada11,,,,,,,,,,,,./stim/wavs/mexican_match_interrogative-total-yn_Marta-abre-el-regalo.wav,1,,,244.1561,246.1719,0,0,1.4883,,0,79,79,17,1,18,0,mexican,,,,,,,,,,,,,,,,,,,,,,,,,,,,,,,,,,,,,,,,,,,,,,,,,,,,,,,,
,,,,,,,,,61086c714ebfaefbb62531b2,Spanish,13 or older,"no, only English or Spanish",yes,2025-08-10_15h55.30.074,empathy_intonation_perc_control,2024.2.4,MacIntel,60.24096386,61086c714ebfaefbb62531b2,68817205a84113384fffdfe3,6898f905a84459d6bc8ada11,,,,,,,,,,,,./stim/wavs/puertorican_mismatch_interrogative-total-yn_La-maestra-vive-en-Paris.wav,1,,,246.1722,248.5061,0,0,1.8108,,0,80,80,41,1,42,1,puertorican,,,,,,,,,,,,,,,,,,,,,,,,,,,,,,,,,,,,,,,,,,,,,,,,,,,,,,,,
,,,,,,,,,61086c714ebfaefbb62531b2,Spanish,13 or older,"no, only English or Spanish",yes,2025-08-10_15h55.30.074,empathy_intonation_perc_control,2024.2.4,MacIntel,60.24096386,61086c714ebfaefbb62531b2,68817205a84113384fffdfe3,6898f905a84459d6bc8ada11,,,,,,,,,,,,./stim/wavs/castilian_match_declarative-broad-focus_David-leia-el-libro.wav,0,,,248.5072,250.9889,0,1,1.951,,0,81,81,44,1,45,0,castilian,,,,,,,,,,,,,,,,,,,,,,,,,,,,,,,,,,,,,,,,,,,,,,,,,,,,,,,,
,,,,,,,,,61086c714ebfaefbb62531b2,Spanish,13 or older,"no, only English or Spanish",yes,2025-08-10_15h55.30.074,empathy_intonation_perc_control,2024.2.4,MacIntel,60.24096386,61086c714ebfaefbb62531b2,68817205a84113384fffdfe3,6898f905a84459d6bc8ada11,,,,,,,,,,,,./stim/wavs/castilian_mismatch_interrogative-total-yn_La-nina-lava-el-plato.wav,1,,,250.9898,254.0228,1,1,2.5105,,0,82,82,25,1,26,0,castilian,,,,,,,,,,,,,,,,,,,,,,,,,,,,,,,,,,,,,,,,,,,,,,,,,,,,,,,,
,,,,,,,,,61086c714ebfaefbb62531b2,Spanish,13 or older,"no, only English or Spanish",yes,2025-08-10_15h55.30.074,empathy_intonation_perc_control,2024.2.4,MacIntel,60.24096386,61086c714ebfaefbb62531b2,68817205a84113384fffdfe3,6898f905a84459d6bc8ada11,,,,,,,,,,,,./stim/wavs/mexican_mismatch_interrogative-total-yn_Mi-novio-viene-del-lago.wav,1,,,254.024,256.0559,0,0,1.5016,,0,83,83,37,1,38,0,mexican,,,,,,,,,,,,,,,,,,,,,,,,,,,,,,,,,,,,,,,,,,,,,,,,,,,,,,,,
,,,,,,,,,61086c714ebfaefbb62531b2,Spanish,13 or older,"no, only English or Spanish",yes,2025-08-10_15h55.30.074,empathy_intonation_perc_control,2024.2.4,MacIntel,60.24096386,61086c714ebfaefbb62531b2,68817205a84113384fffdfe3,6898f905a84459d6bc8ada11,,,,,,,,,,,,./stim/wavs/cuban_mismatch_interrogative-total-yn_El-nino-oye-el-rio.wav,1,,,256.0568,257.9225,0,0,1.3355,,0,84,84,30,1,31,1,cuban,,,,,,,,,,,,,,,,,,,,,,,,,,,,,,,,,,,,,,,,,,,,,,,,,,,,,,,,
,,,,,,,,,61086c714ebfaefbb62531b2,Spanish,13 or older,"no, only English or Spanish",yes,2025-08-10_15h55.30.074,empathy_intonation_perc_control,2024.2.4,MacIntel,60.24096386,61086c714ebfaefbb62531b2,68817205a84113384fffdfe3,6898f905a84459d6bc8ada11,,,,,,,,,,,,./stim/wavs/castilian_match_interrogative-total-yn_Maria-bebe-el-vino.wav,1,,,257.9234,260.0386,1,1,1.5886,,0,85,85,3,1,4,0,castilian,,,,,,,,,,,,,,,,,,,,,,,,,,,,,,,,,,,,,,,,,,,,,,,,,,,,,,,,
,,,,,,,,,61086c714ebfaefbb62531b2,Spanish,13 or older,"no, only English or Spanish",yes,2025-08-10_15h55.30.074,empathy_intonation_perc_control,2024.2.4,MacIntel,60.24096386,61086c714ebfaefbb62531b2,68817205a84113384fffdfe3,6898f905a84459d6bc8ada11,,,,,,,,,,,,./stim/wavs/mexican_match_interrogative-total-yn_Emilio-ama-la-marcha.wav,1,,,260.0391,262.2223,0,0,1.6498,,0,86,86,15,1,16,0,mexican,,,,,,,,,,,,,,,,,,,,,,,,,,,,,,,,,,,,,,,,,,,,,,,,,,,,,,,,
,,,,,,,,,61086c714ebfaefbb62531b2,Spanish,13 or older,"no, only English or Spanish",yes,2025-08-10_15h55.30.074,empathy_intonation_perc_control,2024.2.4,MacIntel,60.24096386,61086c714ebfaefbb62531b2,68817205a84113384fffdfe3,6898f905a84459d6bc8ada11,,,,,,,,,,,,./stim/wavs/cuban_match_declarative-broad-focus_Marta-abre-el-regalo.wav,0,,,262.2228,264.5385,0,1,1.7848,,0,87,87,55,1,56,0,cuban,,,,,,,,,,,,,,,,,,,,,,,,,,,,,,,,,,,,,,,,,,,,,,,,,,,,,,,,
,,,,,,,"Great! Now we will move on. The next task consists of about 60 trials, in each of which you will see a string of letters. 
  
  Your task is to decide whether this is a real Spanish word or not.", (press the spacebar to continue),61086c714ebfaefbb62531b2,Spanish,13 or older,"no, only English or Spanish",yes,2025-08-10_15h55.30.074,empathy_intonation_perc_control,2024.2.4,MacIntel,60.24096386,61086c714ebfaefbb62531b2,68817205a84113384fffdfe3,6898f905a84459d6bc8ada11,,,,,,,,,,,,,,,,,,,,,,,,,,,,,,264.5454,270.6394,0,0,0,0,1,,,,,,,,,,,,,,,,,,,,,,,,,,,,,,,,,,,,,,,,,,,,,,,,,
,,,,,,,"If you think it is an existing Spanish word, you type '1' (for 'REAL'), and if you think it is not an existing Spanish word, you type '0' (for 'FAKE').", (press the spacebar to continue),61086c714ebfaefbb62531b2,Spanish,13 or older,"no, only English or Spanish",yes,2025-08-10_15h55.30.074,empathy_intonation_perc_control,2024.2.4,MacIntel,60.24096386,61086c714ebfaefbb62531b2,68817205a84113384fffdfe3,6898f905a84459d6bc8ada11,,,,,,,,,,,,,,,,,,,,,,,,,,,,,,270.6419,276.9721,0,1,1,1,1,,,,,,,,,,,,,,,,,,,,,,,,,,,,,,,,,,,,,,,,,,,,,,,,,
,,,,,,,"If you are sure that the word exists, even though you don’t know its exact meaning, you may still respond '1' (REAL). 
  
  But if you are not sure if it is an existing word, you should respond '0' (FAKE).
  
  Let's do a practice round...", (press the spacebar to continue),61086c714ebfaefbb62531b2,Spanish,13 or older,"no, only English or Spanish",yes,2025-08-10_15h55.30.074,empathy_intonation_perc_control,2024.2.4,MacIntel,60.24096386,61086c714ebfaefbb62531b2,68817205a84113384fffdfe3,6898f905a84459d6bc8ada11,,,,,,,,,,,,,,,,,,,,,,,,,,,,,,276.9742,283.3055,0,2,2,2,1,,,,,,,,,,,,,,,,,,,,,,,,,,,,,,,,,,,,,,,,,,,,,,,,,
,,,,,,,,,61086c714ebfaefbb62531b2,Spanish,13 or older,"no, only English or Spanish",yes,2025-08-10_15h55.30.074,empathy_intonation_perc_control,2024.2.4,MacIntel,60.24096386,61086c714ebfaefbb62531b2,68817205a84113384fffdfe3,6898f905a84459d6bc8ada11,,,,,,,,,,,,,0,,,,,,,,,,,,,,,,,,,,,,,,283.3126,285.5722,1,0,1.7201,,285.5724,286.5726,0,0,0,0,1,0,depiste,REAL,FAKE,,,,,,,,,,,,,,,,,,,,,,,,,,,,,,,,
,,,,,,,,,61086c714ebfaefbb62531b2,Spanish,13 or older,"no, only English or Spanish",yes,2025-08-10_15h55.30.074,empathy_intonation_perc_control,2024.2.4,MacIntel,60.24096386,61086c714ebfaefbb62531b2,68817205a84113384fffdfe3,6898f905a84459d6bc8ada11,,,,,,,,,,,,,1,,,,,,,,,,,,,,,,,,,,,,,,286.5748,288.022,1,1,0.905,,288.0232,289.0226,0,1,1,1,1,0,sí,REAL,FAKE,,,,,,,,,,,,,,,,,,,,,,,,,,,,,,,,
,,,,,,,,,61086c714ebfaefbb62531b2,Spanish,13 or older,"no, only English or Spanish",yes,2025-08-10_15h55.30.074,empathy_intonation_perc_control,2024.2.4,MacIntel,60.24096386,61086c714ebfaefbb62531b2,68817205a84113384fffdfe3,6898f905a84459d6bc8ada11,,,,,,,,,,,,,0,,,,,,,,,,,,,,,,,,,,,,,,289.0239,291.4886,1,0,1.9211,,291.4892,292.4888,0,2,2,2,1,0,coné,REAL,FAKE,,,,,,,,,,,,,,,,,,,,,,,,,,,,,,,,
,,,,,,,,,61086c714ebfaefbb62531b2,Spanish,13 or older,"no, only English or Spanish",yes,2025-08-10_15h55.30.074,empathy_intonation_perc_control,2024.2.4,MacIntel,60.24096386,61086c714ebfaefbb62531b2,68817205a84113384fffdfe3,6898f905a84459d6bc8ada11,,,,,,,,,,,,,0,,,,,,,,,,,,,,,,,,,,,,,,292.4905,294.0055,0,1,0.975,,294.0063,295.0057,0,3,3,3,1,0,calpar,REAL,FAKE,,,,,,,,,,,,,,,,,,,,,,,,,,,,,,,,
,,,,,,,,,61086c714ebfaefbb62531b2,Spanish,13 or older,"no, only English or Spanish",yes,2025-08-10_15h55.30.074,empathy_intonation_perc_control,2024.2.4,MacIntel,60.24096386,61086c714ebfaefbb62531b2,68817205a84113384fffdfe3,6898f905a84459d6bc8ada11,,,,,,,,,,,,,0,,,,,,,,,,,,,,,,,,,,,,,,295.0085,296.2885,0,1,0.7263,,296.2885,297.2885,0,4,4,4,1,0,joten,REAL,FAKE,,,,,,,,,,,,,,,,,,,,,,,,,,,,,,,,
,,,,,,,,,61086c714ebfaefbb62531b2,Spanish,13 or older,"no, only English or Spanish",yes,2025-08-10_15h55.30.074,empathy_intonation_perc_control,2024.2.4,MacIntel,60.24096386,61086c714ebfaefbb62531b2,68817205a84113384fffdfe3,6898f905a84459d6bc8ada11,,,,,,,,,,,,,1,,,,,,,,,,,,,,,,,,,,,,,,297.2904,299.239,1,1,1.3905,,299.2392,300.2388,0,5,5,5,1,0,sacapuntas,REAL,FAKE,,,,,,,,,,,,,,,,,,,,,,,,,,,,,,,,
,,,,,,,,,61086c714ebfaefbb62531b2,Spanish,13 or older,"no, only English or Spanish",yes,2025-08-10_15h55.30.074,empathy_intonation_perc_control,2024.2.4,MacIntel,60.24096386,61086c714ebfaefbb62531b2,68817205a84113384fffdfe3,6898f905a84459d6bc8ada11,,,,,,,,,,,,,0,,,,,,,,,,,,,,,,,,,,,,,,300.2406,301.655,0,1,0.8668,,301.655,302.6556,0,6,6,6,1,0,priba,REAL,FAKE,,,,,,,,,,,,,,,,,,,,,,,,,,,,,,,,
,,,,,,,,,61086c714ebfaefbb62531b2,Spanish,13 or older,"no, only English or Spanish",yes,2025-08-10_15h55.30.074,empathy_intonation_perc_control,2024.2.4,MacIntel,60.24096386,61086c714ebfaefbb62531b2,68817205a84113384fffdfe3,6898f905a84459d6bc8ada11,,,,,,,,,,,,,0,,,,,,,,,,,,,,,,,,,,,,,,302.6571,304.6218,0,1,1.421,,304.6218,305.6219,0,7,7,7,1,0,pelasula,REAL,FAKE,,,,,,,,,,,,,,,,,,,,,,,,,,,,,,,,
,,,,,,,,,61086c714ebfaefbb62531b2,Spanish,13 or older,"no, only English or Spanish",yes,2025-08-10_15h55.30.074,empathy_intonation_perc_control,2024.2.4,MacIntel,60.24096386,61086c714ebfaefbb62531b2,68817205a84113384fffdfe3,6898f905a84459d6bc8ada11,,,,,,,,,,,,,1,,,,,,,,,,,,,,,,,,,,,,,,305.6226,306.7379,1,1,0.5781,,306.738,307.7388,0,8,8,8,1,0,bien,REAL,FAKE,,,,,,,,,,,,,,,,,,,,,,,,,,,,,,,,
,,,,,,,,,61086c714ebfaefbb62531b2,Spanish,13 or older,"no, only English or Spanish",yes,2025-08-10_15h55.30.074,empathy_intonation_perc_control,2024.2.4,MacIntel,60.24096386,61086c714ebfaefbb62531b2,68817205a84113384fffdfe3,6898f905a84459d6bc8ada11,,,,,,,,,,,,,1,,,,,,,,,,,,,,,,,,,,,,,,307.7404,308.8399,1,1,0.5613,,308.84,309.8389,0,9,9,9,1,0,casa,REAL,FAKE,,,,,,,,,,,,,,,,,,,,,,,,,,,,,,,,
,,,,,,,,,61086c714ebfaefbb62531b2,Spanish,13 or older,"no, only English or Spanish",yes,2025-08-10_15h55.30.074,empathy_intonation_perc_control,2024.2.4,MacIntel,60.24096386,61086c714ebfaefbb62531b2,68817205a84113384fffdfe3,6898f905a84459d6bc8ada11,,,,,,,,,,,,,0,,,,,,,,,,,,,,,,,,,,,,,,309.8403,311.1054,1,0,0.7213,,311.106,312.1055,0,10,10,10,1,0,lejo,REAL,FAKE,,,,,,,,,,,,,,,,,,,,,,,,,,,,,,,,
,,,,,,,,,61086c714ebfaefbb62531b2,Spanish,13 or older,"no, only English or Spanish",yes,2025-08-10_15h55.30.074,empathy_intonation_perc_control,2024.2.4,MacIntel,60.24096386,61086c714ebfaefbb62531b2,68817205a84113384fffdfe3,6898f905a84459d6bc8ada11,,,,,,,,,,,,,0,,,,,,,,,,,,,,,,,,,,,,,,312.1072,313.9555,0,1,1.3106,,313.9561,314.9555,0,11,11,11,1,0,pretantas,REAL,FAKE,,,,,,,,,,,,,,,,,,,,,,,,,,,,,,,,
,,,,,,,,,61086c714ebfaefbb62531b2,Spanish,13 or older,"no, only English or Spanish",yes,2025-08-10_15h55.30.074,empathy_intonation_perc_control,2024.2.4,MacIntel,60.24096386,61086c714ebfaefbb62531b2,68817205a84113384fffdfe3,6898f905a84459d6bc8ada11,,,,,,,,,,,,,,,,,,,,,,,,,,,,,,,,,,,,,,,,,,,,,,,,,,,,,,314.9563,320.8724,,,,,,,,,,,,,,,,,,,,,,,,,,,,,,
,,,,,,,,,61086c714ebfaefbb62531b2,Spanish,13 or older,"no, only English or Spanish",yes,2025-08-10_15h55.30.074,empathy_intonation_perc_control,2024.2.4,MacIntel,60.24096386,61086c714ebfaefbb62531b2,68817205a84113384fffdfe3,6898f905a84459d6bc8ada11,,,,,,,,,,,,,1,,,,,,,,,,,,,,,,,,,,,,,,,,,,,,,,,,,,,77,tiburón,,,,,320.8805,322.8227,0,0,1.4144,,0,0,0,76,1,REAL,FAKE,,,,,,,,,,,,,,,,,
,,,,,,,,,61086c714ebfaefbb62531b2,Spanish,13 or older,"no, only English or Spanish",yes,2025-08-10_15h55.30.074,empathy_intonation_perc_control,2024.2.4,MacIntel,60.24096386,61086c714ebfaefbb62531b2,68817205a84113384fffdfe3,6898f905a84459d6bc8ada11,,,,,,,,,,,,,1,,,,,,,,,,,,,,,,,,,,,,,,,,,,,,,,,,,,,85,laúd,,,,,322.8244,324.1056,0,0,0.7374,,0,1,1,84,1,REAL,FAKE,,,,,,,,,,,,,,,,,
,,,,,,,,,61086c714ebfaefbb62531b2,Spanish,13 or older,"no, only English or Spanish",yes,2025-08-10_15h55.30.074,empathy_intonation_perc_control,2024.2.4,MacIntel,60.24096386,61086c714ebfaefbb62531b2,68817205a84113384fffdfe3,6898f905a84459d6bc8ada11,,,,,,,,,,,,,1,,,,,,,,,,,,,,,,,,,,,,,,,,,,,,,,,,,,,90,clavel,,,,,324.1067,325.3051,0,0,0.6587,,0,2,2,89,1,REAL,FAKE,,,,,,,,,,,,,,,,,
,,,,,,,,,61086c714ebfaefbb62531b2,Spanish,13 or older,"no, only English or Spanish",yes,2025-08-10_15h55.30.074,empathy_intonation_perc_control,2024.2.4,MacIntel,60.24096386,61086c714ebfaefbb62531b2,68817205a84113384fffdfe3,6898f905a84459d6bc8ada11,,,,,,,,,,,,,1,,,,,,,,,,,,,,,,,,,,,,,,,,,,,,,,,,,,,83,guante,,,,,325.3062,326.5888,1,1,0.7399,,0,3,3,82,1,REAL,FAKE,,,,,,,,,,,,,,,,,
,,,,,,,,,61086c714ebfaefbb62531b2,Spanish,13 or older,"no, only English or Spanish",yes,2025-08-10_15h55.30.074,empathy_intonation_perc_control,2024.2.4,MacIntel,60.24096386,61086c714ebfaefbb62531b2,68817205a84113384fffdfe3,6898f905a84459d6bc8ada11,,,,,,,,,,,,,0,,,,,,,,,,,,,,,,,,,,,,,,,,,,,,,,,,,,,53,vegada,,,,,326.5904,328.2389,0,1,1.1072,,0,4,4,52,1,REAL,FAKE,,,,,,,,,,,,,,,,,
,,,,,,,,,61086c714ebfaefbb62531b2,Spanish,13 or older,"no, only English or Spanish",yes,2025-08-10_15h55.30.074,empathy_intonation_perc_control,2024.2.4,MacIntel,60.24096386,61086c714ebfaefbb62531b2,68817205a84113384fffdfe3,6898f905a84459d6bc8ada11,,,,,,,,,,,,,1,,,,,,,,,,,,,,,,,,,,,,,,,,,,,,,,,,,,,13,helar,,,,,328.2403,329.4052,0,0,0.6284,,0,5,5,12,1,REAL,FAKE,,,,,,,,,,,,,,,,,
,,,,,,,,,61086c714ebfaefbb62531b2,Spanish,13 or older,"no, only English or Spanish",yes,2025-08-10_15h55.30.074,empathy_intonation_perc_control,2024.2.4,MacIntel,60.24096386,61086c714ebfaefbb62531b2,68817205a84113384fffdfe3,6898f905a84459d6bc8ada11,,,,,,,,,,,,,1,,,,,,,,,,,,,,,,,,,,,,,,,,,,,,,,,,,,,69,engatusar,,,,,329.4061,331.0389,1,1,1.0937,,0,6,6,68,1,REAL,FAKE,,,,,,,,,,,,,,,,,
,,,,,,,,,61086c714ebfaefbb62531b2,Spanish,13 or older,"no, only English or Spanish",yes,2025-08-10_15h55.30.074,empathy_intonation_perc_control,2024.2.4,MacIntel,60.24096386,61086c714ebfaefbb62531b2,68817205a84113384fffdfe3,6898f905a84459d6bc8ada11,,,,,,,,,,,,,1,,,,,,,,,,,,,,,,,,,,,,,,,,,,,,,,,,,,,22,lacayo,,,,,331.0404,332.2889,0,0,0.7045,,0,7,7,21,1,REAL,FAKE,,,,,,,,,,,,,,,,,
,,,,,,,,,61086c714ebfaefbb62531b2,Spanish,13 or older,"no, only English or Spanish",yes,2025-08-10_15h55.30.074,empathy_intonation_perc_control,2024.2.4,MacIntel,60.24096386,61086c714ebfaefbb62531b2,68817205a84113384fffdfe3,6898f905a84459d6bc8ada11,,,,,,,,,,,,,1,,,,,,,,,,,,,,,,,,,,,,,,,,,,,,,,,,,,,28,merodear,,,,,332.2897,333.5213,0,0,0.6919,,0,8,8,27,1,REAL,FAKE,,,,,,,,,,,,,,,,,
,,,,,,,,,61086c714ebfaefbb62531b2,Spanish,13 or older,"no, only English or Spanish",yes,2025-08-10_15h55.30.074,empathy_intonation_perc_control,2024.2.4,MacIntel,60.24096386,61086c714ebfaefbb62531b2,68817205a84113384fffdfe3,6898f905a84459d6bc8ada11,,,,,,,,,,,,,1,,,,,,,,,,,,,,,,,,,,,,,,,,,,,,,,,,,,,37,granuja,,,,,333.5224,334.8555,1,1,0.8109,,0,9,9,36,1,REAL,FAKE,,,,,,,,,,,,,,,,,
,,,,,,,,,61086c714ebfaefbb62531b2,Spanish,13 or older,"no, only English or Spanish",yes,2025-08-10_15h55.30.074,empathy_intonation_perc_control,2024.2.4,MacIntel,60.24096386,61086c714ebfaefbb62531b2,68817205a84113384fffdfe3,6898f905a84459d6bc8ada11,,,,,,,,,,,,,0,,,,,,,,,,,,,,,,,,,,,,,,,,,,,,,,,,,,,8,cadeña,,,,,334.8565,336.2212,1,0,0.8221,,0,10,10,7,1,REAL,FAKE,,,,,,,,,,,,,,,,,
,,,,,,,,,61086c714ebfaefbb62531b2,Spanish,13 or older,"no, only English or Spanish",yes,2025-08-10_15h55.30.074,empathy_intonation_perc_control,2024.2.4,MacIntel,60.24096386,61086c714ebfaefbb62531b2,68817205a84113384fffdfe3,6898f905a84459d6bc8ada11,,,,,,,,,,,,,1,,,,,,,,,,,,,,,,,,,,,,,,,,,,,,,,,,,,,55,nevar,,,,,336.2221,337.5721,0,0,0.8244,,0,11,11,54,1,REAL,FAKE,,,,,,,,,,,,,,,,,
,,,,,,,,,61086c714ebfaefbb62531b2,Spanish,13 or older,"no, only English or Spanish",yes,2025-08-10_15h55.30.074,empathy_intonation_perc_control,2024.2.4,MacIntel,60.24096386,61086c714ebfaefbb62531b2,68817205a84113384fffdfe3,6898f905a84459d6bc8ada11,,,,,,,,,,,,,1,,,,,,,,,,,,,,,,,,,,,,,,,,,,,,,,,,,,,44,cuchara,,,,,337.5734,339.3555,0,0,1.2424,,0,12,12,43,1,REAL,FAKE,,,,,,,,,,,,,,,,,
,,,,,,,,,61086c714ebfaefbb62531b2,Spanish,13 or older,"no, only English or Spanish",yes,2025-08-10_15h55.30.074,empathy_intonation_perc_control,2024.2.4,MacIntel,60.24096386,61086c714ebfaefbb62531b2,68817205a84113384fffdfe3,6898f905a84459d6bc8ada11,,,,,,,,,,,,,1,,,,,,,,,,,,,,,,,,,,,,,,,,,,,,,,,,,,,45,jilguero,,,,,339.3569,340.6385,0,0,0.7364,,0,13,13,44,1,REAL,FAKE,,,,,,,,,,,,,,,,,
,,,,,,,,,61086c714ebfaefbb62531b2,Spanish,13 or older,"no, only English or Spanish",yes,2025-08-10_15h55.30.074,empathy_intonation_perc_control,2024.2.4,MacIntel,60.24096386,61086c714ebfaefbb62531b2,68817205a84113384fffdfe3,6898f905a84459d6bc8ada11,,,,,,,,,,,,,1,,,,,,,,,,,,,,,,,,,,,,,,,,,,,,,,,,,,,49,ganar,,,,,340.6392,341.7384,1,1,0.5545,,0,14,14,48,1,REAL,FAKE,,,,,,,,,,,,,,,,,
,,,,,,,,,61086c714ebfaefbb62531b2,Spanish,13 or older,"no, only English or Spanish",yes,2025-08-10_15h55.30.074,empathy_intonation_perc_control,2024.2.4,MacIntel,60.24096386,61086c714ebfaefbb62531b2,68817205a84113384fffdfe3,6898f905a84459d6bc8ada11,,,,,,,,,,,,,0,,,,,,,,,,,,,,,,,,,,,,,,,,,,,,,,,,,,,4,batillón,,,,,341.7391,343.2043,1,0,0.9411,,0,15,15,3,1,REAL,FAKE,,,,,,,,,,,,,,,,,
,,,,,,,,,61086c714ebfaefbb62531b2,Spanish,13 or older,"no, only English or Spanish",yes,2025-08-10_15h55.30.074,empathy_intonation_perc_control,2024.2.4,MacIntel,60.24096386,61086c714ebfaefbb62531b2,68817205a84113384fffdfe3,6898f905a84459d6bc8ada11,,,,,,,,,,,,,0,,,,,,,,,,,,,,,,,,,,,,,,,,,,,,,,,,,,,17,floroso,,,,,343.2057,344.5555,1,0,0.8245,,0,16,16,16,1,REAL,FAKE,,,,,,,,,,,,,,,,,
,,,,,,,,,61086c714ebfaefbb62531b2,Spanish,13 or older,"no, only English or Spanish",yes,2025-08-10_15h55.30.074,empathy_intonation_perc_control,2024.2.4,MacIntel,60.24096386,61086c714ebfaefbb62531b2,68817205a84113384fffdfe3,6898f905a84459d6bc8ada11,,,,,,,,,,,,,0,,,,,,,,,,,,,,,,,,,,,,,,,,,,,,,,,,,,,50,flamida,,,,,344.5565,346.1055,0,1,1.0066,,0,17,17,49,1,REAL,FAKE,,,,,,,,,,,,,,,,,
,,,,,,,,,61086c714ebfaefbb62531b2,Spanish,13 or older,"no, only English or Spanish",yes,2025-08-10_15h55.30.074,empathy_intonation_perc_control,2024.2.4,MacIntel,60.24096386,61086c714ebfaefbb62531b2,68817205a84113384fffdfe3,6898f905a84459d6bc8ada11,,,,,,,,,,,,,0,,,,,,,,,,,,,,,,,,,,,,,,,,,,,,,,,,,,,74,cintro,,,,,346.107,348.622,1,0,1.9726,,0,18,18,73,1,REAL,FAKE,,,,,,,,,,,,,,,,,
,,,,,,,,,61086c714ebfaefbb62531b2,Spanish,13 or older,"no, only English or Spanish",yes,2025-08-10_15h55.30.074,empathy_intonation_perc_control,2024.2.4,MacIntel,60.24096386,61086c714ebfaefbb62531b2,68817205a84113384fffdfe3,6898f905a84459d6bc8ada11,,,,,,,,,,,,,0,,,,,,,,,,,,,,,,,,,,,,,,,,,,,,,,,,,,,19,brecedad,,,,,348.6232,349.9219,0,1,0.758,,0,19,19,18,1,REAL,FAKE,,,,,,,,,,,,,,,,,
,,,,,,,,,61086c714ebfaefbb62531b2,Spanish,13 or older,"no, only English or Spanish",yes,2025-08-10_15h55.30.074,empathy_intonation_perc_control,2024.2.4,MacIntel,60.24096386,61086c714ebfaefbb62531b2,68817205a84113384fffdfe3,6898f905a84459d6bc8ada11,,,,,,,,,,,,,1,,,,,,,,,,,,,,,,,,,,,,,,,,,,,,,,,,,,,54,fomentar,,,,,349.9233,351.0552,0,0,0.5885,,0,20,20,53,1,REAL,FAKE,,,,,,,,,,,,,,,,,
,,,,,,,,,61086c714ebfaefbb62531b2,Spanish,13 or older,"no, only English or Spanish",yes,2025-08-10_15h55.30.074,empathy_intonation_perc_control,2024.2.4,MacIntel,60.24096386,61086c714ebfaefbb62531b2,68817205a84113384fffdfe3,6898f905a84459d6bc8ada11,,,,,,,,,,,,,1,,,,,,,,,,,,,,,,,,,,,,,,,,,,,,,,,,,,,36,loro,,,,,351.056,352.172,0,0,0.5782,,0,21,21,35,1,REAL,FAKE,,,,,,,,,,,,,,,,,
,,,,,,,,,61086c714ebfaefbb62531b2,Spanish,13 or older,"no, only English or Spanish",yes,2025-08-10_15h55.30.074,empathy_intonation_perc_control,2024.2.4,MacIntel,60.24096386,61086c714ebfaefbb62531b2,68817205a84113384fffdfe3,6898f905a84459d6bc8ada11,,,,,,,,,,,,,0,,,,,,,,,,,,,,,,,,,,,,,,,,,,,,,,,,,,,70,temblo,,,,,352.1732,353.3721,0,1,0.6545,,0,22,22,69,1,REAL,FAKE,,,,,,,,,,,,,,,,,
,,,,,,,,,61086c714ebfaefbb62531b2,Spanish,13 or older,"no, only English or Spanish",yes,2025-08-10_15h55.30.074,empathy_intonation_perc_control,2024.2.4,MacIntel,60.24096386,61086c714ebfaefbb62531b2,68817205a84113384fffdfe3,6898f905a84459d6bc8ada11,,,,,,,,,,,,,0,,,,,,,,,,,,,,,,,,,,,,,,,,,,,,,,,,,,,32,fatacidad,,,,,353.3733,354.7555,1,0,0.8472,,0,23,23,31,1,REAL,FAKE,,,,,,,,,,,,,,,,,
,,,,,,,,,61086c714ebfaefbb62531b2,Spanish,13 or older,"no, only English or Spanish",yes,2025-08-10_15h55.30.074,empathy_intonation_perc_control,2024.2.4,MacIntel,60.24096386,61086c714ebfaefbb62531b2,68817205a84113384fffdfe3,6898f905a84459d6bc8ada11,,,,,,,,,,,,,0,,,,,,,,,,,,,,,,,,,,,,,,,,,,,,,,,,,,,23,lampera,,,,,354.7564,356.4051,1,0,1.1075,,0,24,24,22,1,REAL,FAKE,,,,,,,,,,,,,,,,,
,,,,,,,,,61086c714ebfaefbb62531b2,Spanish,13 or older,"no, only English or Spanish",yes,2025-08-10_15h55.30.074,empathy_intonation_perc_control,2024.2.4,MacIntel,60.24096386,61086c714ebfaefbb62531b2,68817205a84113384fffdfe3,6898f905a84459d6bc8ada11,,,,,,,,,,,,,1,,,,,,,,,,,,,,,,,,,,,,,,,,,,,,,,,,,,,62,flaco,,,,,356.4061,357.7217,1,1,0.7819,,0,25,25,61,1,REAL,FAKE,,,,,,,,,,,,,,,,,
,,,,,,,,,61086c714ebfaefbb62531b2,Spanish,13 or older,"no, only English or Spanish",yes,2025-08-10_15h55.30.074,empathy_intonation_perc_control,2024.2.4,MacIntel,60.24096386,61086c714ebfaefbb62531b2,68817205a84113384fffdfe3,6898f905a84459d6bc8ada11,,,,,,,,,,,,,1,,,,,,,,,,,,,,,,,,,,,,,,,,,,,,,,,,,,,60,matar,,,,,357.7225,358.8555,0,0,0.5912,,0,26,26,59,1,REAL,FAKE,,,,,,,,,,,,,,,,,
,,,,,,,,,61086c714ebfaefbb62531b2,Spanish,13 or older,"no, only English or Spanish",yes,2025-08-10_15h55.30.074,empathy_intonation_perc_control,2024.2.4,MacIntel,60.24096386,61086c714ebfaefbb62531b2,68817205a84113384fffdfe3,6898f905a84459d6bc8ada11,,,,,,,,,,,,,1,,,,,,,,,,,,,,,,,,,,,,,,,,,,,,,,,,,,,78,frondoso,,,,,358.8567,360.1888,0,0,0.7949,,0,27,27,77,1,REAL,FAKE,,,,,,,,,,,,,,,,,
,,,,,,,,,61086c714ebfaefbb62531b2,Spanish,13 or older,"no, only English or Spanish",yes,2025-08-10_15h55.30.074,empathy_intonation_perc_control,2024.2.4,MacIntel,60.24096386,61086c714ebfaefbb62531b2,68817205a84113384fffdfe3,6898f905a84459d6bc8ada11,,,,,,,,,,,,,0,,,,,,,,,,,,,,,,,,,,,,,,,,,,,,,,,,,,,87,grodo,,,,,360.19,361.7221,0,1,0.9926,,0,28,28,86,1,REAL,FAKE,,,,,,,,,,,,,,,,,
,,,,,,,,,61086c714ebfaefbb62531b2,Spanish,13 or older,"no, only English or Spanish",yes,2025-08-10_15h55.30.074,empathy_intonation_perc_control,2024.2.4,MacIntel,60.24096386,61086c714ebfaefbb62531b2,68817205a84113384fffdfe3,6898f905a84459d6bc8ada11,,,,,,,,,,,,,1,,,,,,,,,,,,,,,,,,,,,,,,,,,,,,,,,,,,,31,pandilla,,,,,361.7231,363.2054,1,1,0.9445,,0,29,29,30,1,REAL,FAKE,,,,,,,,,,,,,,,,,
,,,,,,,,,61086c714ebfaefbb62531b2,Spanish,13 or older,"no, only English or Spanish",yes,2025-08-10_15h55.30.074,empathy_intonation_perc_control,2024.2.4,MacIntel,60.24096386,61086c714ebfaefbb62531b2,68817205a84113384fffdfe3,6898f905a84459d6bc8ada11,,,,,,,,,,,,,0,,,,,,,,,,,,,,,,,,,,,,,,,,,,,,,,,,,,,27,acutación,,,,,363.2064,365.4051,1,0,1.6541,,0,30,30,26,1,REAL,FAKE,,,,,,,,,,,,,,,,,
,,,,,,,,,61086c714ebfaefbb62531b2,Spanish,13 or older,"no, only English or Spanish",yes,2025-08-10_15h55.30.074,empathy_intonation_perc_control,2024.2.4,MacIntel,60.24096386,61086c714ebfaefbb62531b2,68817205a84113384fffdfe3,6898f905a84459d6bc8ada11,,,,,,,,,,,,,1,,,,,,,,,,,,,,,,,,,,,,,,,,,,,,,,,,,,,81,pozo,,,,,365.4061,366.5387,0,0,0.586,,0,31,31,80,1,REAL,FAKE,,,,,,,,,,,,,,,,,
,,,,,,,,,61086c714ebfaefbb62531b2,Spanish,13 or older,"no, only English or Spanish",yes,2025-08-10_15h55.30.074,empathy_intonation_perc_control,2024.2.4,MacIntel,60.24096386,61086c714ebfaefbb62531b2,68817205a84113384fffdfe3,6898f905a84459d6bc8ada11,,,,,,,,,,,,,0,,,,,,,,,,,,,,,,,,,,,,,,,,,,,,,,,,,,,35,rompido,,,,,366.54,368.1719,0,1,1.0974,,0,32,32,34,1,REAL,FAKE,,,,,,,,,,,,,,,,,
,,,,,,,,,61086c714ebfaefbb62531b2,Spanish,13 or older,"no, only English or Spanish",yes,2025-08-10_15h55.30.074,empathy_intonation_perc_control,2024.2.4,MacIntel,60.24096386,61086c714ebfaefbb62531b2,68817205a84113384fffdfe3,6898f905a84459d6bc8ada11,,,,,,,,,,,,,1,,,,,,,,,,,,,,,,,,,,,,,,,,,,,,,,,,,,,26,secuestro,,,,,368.1731,369.3717,0,0,0.6539,,0,33,33,25,1,REAL,FAKE,,,,,,,,,,,,,,,,,
,,,,,,,,,61086c714ebfaefbb62531b2,Spanish,13 or older,"no, only English or Spanish",yes,2025-08-10_15h55.30.074,empathy_intonation_perc_control,2024.2.4,MacIntel,60.24096386,61086c714ebfaefbb62531b2,68817205a84113384fffdfe3,6898f905a84459d6bc8ada11,,,,,,,,,,,,,0,,,,,,,,,,,,,,,,,,,,,,,,,,,,,,,,,,,,,16,abracer,,,,,369.3724,370.655,0,1,0.7351,,0,34,34,15,1,REAL,FAKE,,,,,,,,,,,,,,,,,
,,,,,,,,,61086c714ebfaefbb62531b2,Spanish,13 or older,"no, only English or Spanish",yes,2025-08-10_15h55.30.074,empathy_intonation_perc_control,2024.2.4,MacIntel,60.24096386,61086c714ebfaefbb62531b2,68817205a84113384fffdfe3,6898f905a84459d6bc8ada11,,,,,,,,,,,,,1,,,,,,,,,,,,,,,,,,,,,,,,,,,,,,,,,,,,,75,yacer,,,,,370.6558,371.8554,0,0,0.6559,,0,35,35,74,1,REAL,FAKE,,,,,,,,,,,,,,,,,
,,,,,,,,,61086c714ebfaefbb62531b2,Spanish,13 or older,"no, only English or Spanish",yes,2025-08-10_15h55.30.074,empathy_intonation_perc_control,2024.2.4,MacIntel,60.24096386,61086c714ebfaefbb62531b2,68817205a84113384fffdfe3,6898f905a84459d6bc8ada11,,,,,,,,,,,,,1,,,,,,,,,,,,,,,,,,,,,,,,,,,,,,,,,,,,,67,cabello,,,,,371.8566,373.0887,1,1,0.6893,,0,36,36,66,1,REAL,FAKE,,,,,,,,,,,,,,,,,
,,,,,,,,,61086c714ebfaefbb62531b2,Spanish,13 or older,"no, only English or Spanish",yes,2025-08-10_15h55.30.074,empathy_intonation_perc_control,2024.2.4,MacIntel,60.24096386,61086c714ebfaefbb62531b2,68817205a84113384fffdfe3,6898f905a84459d6bc8ada11,,,,,,,,,,,,,1,,,,,,,,,,,,,,,,,,,,,,,,,,,,,,,,,,,,,51,candado,,,,,373.0902,374.3718,0,0,0.7404,,0,37,37,50,1,REAL,FAKE,,,,,,,,,,,,,,,,,
,,,,,,,,,61086c714ebfaefbb62531b2,Spanish,13 or older,"no, only English or Spanish",yes,2025-08-10_15h55.30.074,empathy_intonation_perc_control,2024.2.4,MacIntel,60.24096386,61086c714ebfaefbb62531b2,68817205a84113384fffdfe3,6898f905a84459d6bc8ada11,,,,,,,,,,,,,1,,,,,,,,,,,,,,,,,,,,,,,,,,,,,,,,,,,,,76,atar,,,,,374.3728,376.3552,0,0,1.4383,,0,38,38,75,1,REAL,FAKE,,,,,,,,,,,,,,,,,
,,,,,,,,,61086c714ebfaefbb62531b2,Spanish,13 or older,"no, only English or Spanish",yes,2025-08-10_15h55.30.074,empathy_intonation_perc_control,2024.2.4,MacIntel,60.24096386,61086c714ebfaefbb62531b2,68817205a84113384fffdfe3,6898f905a84459d6bc8ada11,,,,,,,,,,,,,1,,,,,,,,,,,,,,,,,,,,,,,,,,,,,,,,,,,,,20,ávido,,,,,376.3576,378.4218,0,0,1.5194,,0,39,39,19,1,REAL,FAKE,,,,,,,,,,,,,,,,,
,,,,,,,,,61086c714ebfaefbb62531b2,Spanish,13 or older,"no, only English or Spanish",yes,2025-08-10_15h55.30.074,empathy_intonation_perc_control,2024.2.4,MacIntel,60.24096386,61086c714ebfaefbb62531b2,68817205a84113384fffdfe3,6898f905a84459d6bc8ada11,,,,,,,,,,,,,0,,,,,,,,,,,,,,,,,,,,,,,,,,,,,,,,,,,,,18,arsa,,,,,378.4231,379.8549,0,1,0.8703,,0,40,40,17,1,REAL,FAKE,,,,,,,,,,,,,,,,,
,,,,,,,,,61086c714ebfaefbb62531b2,Spanish,13 or older,"no, only English or Spanish",yes,2025-08-10_15h55.30.074,empathy_intonation_perc_control,2024.2.4,MacIntel,60.24096386,61086c714ebfaefbb62531b2,68817205a84113384fffdfe3,6898f905a84459d6bc8ada11,,,,,,,,,,,,,1,,,,,,,,,,,,,,,,,,,,,,,,,,,,,,,,,,,,,3,pulmones,,,,,379.8558,381.1221,1,1,0.7204,,0,41,41,2,1,REAL,FAKE,,,,,,,,,,,,,,,,,
,,,,,,,,,61086c714ebfaefbb62531b2,Spanish,13 or older,"no, only English or Spanish",yes,2025-08-10_15h55.30.074,empathy_intonation_perc_control,2024.2.4,MacIntel,60.24096386,61086c714ebfaefbb62531b2,68817205a84113384fffdfe3,6898f905a84459d6bc8ada11,,,,,,,,,,,,,1,,,,,,,,,,,,,,,,,,,,,,,,,,,,,,,,,,,,,41,rebuscar,,,,,381.1232,382.1388,0,0,0.4726,,0,42,42,40,1,REAL,FAKE,,,,,,,,,,,,,,,,,
,,,,,,,,,61086c714ebfaefbb62531b2,Spanish,13 or older,"no, only English or Spanish",yes,2025-08-10_15h55.30.074,empathy_intonation_perc_control,2024.2.4,MacIntel,60.24096386,61086c714ebfaefbb62531b2,68817205a84113384fffdfe3,6898f905a84459d6bc8ada11,,,,,,,,,,,,,0,,,,,,,,,,,,,,,,,,,,,,,,,,,,,,,,,,,,,63,esposante,,,,,382.1401,383.2719,1,0,0.6054,,0,43,43,62,1,REAL,FAKE,,,,,,,,,,,,,,,,,
,,,,,,,,,61086c714ebfaefbb62531b2,Spanish,13 or older,"no, only English or Spanish",yes,2025-08-10_15h55.30.074,empathy_intonation_perc_control,2024.2.4,MacIntel,60.24096386,61086c714ebfaefbb62531b2,68817205a84113384fffdfe3,6898f905a84459d6bc8ada11,,,,,,,,,,,,,1,,,,,,,,,,,,,,,,,,,,,,,,,,,,,,,,,,,,,43,canela,,,,,383.2734,384.3721,0,0,0.5733,,0,44,44,42,1,REAL,FAKE,,,,,,,,,,,,,,,,,
,,,,,,,,,61086c714ebfaefbb62531b2,Spanish,13 or older,"no, only English or Spanish",yes,2025-08-10_15h55.30.074,empathy_intonation_perc_control,2024.2.4,MacIntel,60.24096386,61086c714ebfaefbb62531b2,68817205a84113384fffdfe3,6898f905a84459d6bc8ada11,,,,,,,,,,,,,1,,,,,,,,,,,,,,,,,,,,,,,,,,,,,,,,,,,,,5,zapato,,,,,384.3735,385.8219,1,1,0.9142,,0,45,45,4,1,REAL,FAKE,,,,,,,,,,,,,,,,,
,,,,,,,,,61086c714ebfaefbb62531b2,Spanish,13 or older,"no, only English or Spanish",yes,2025-08-10_15h55.30.074,empathy_intonation_perc_control,2024.2.4,MacIntel,60.24096386,61086c714ebfaefbb62531b2,68817205a84113384fffdfe3,6898f905a84459d6bc8ada11,,,,,,,,,,,,,1,,,,,,,,,,,,,,,,,,,,,,,,,,,,,,,,,,,,,71,polvoriento,,,,,385.8231,387.2885,0,0,0.9235,,0,46,46,70,1,REAL,FAKE,,,,,,,,,,,,,,,,,
,,,,,,,,,61086c714ebfaefbb62531b2,Spanish,13 or older,"no, only English or Spanish",yes,2025-08-10_15h55.30.074,empathy_intonation_perc_control,2024.2.4,MacIntel,60.24096386,61086c714ebfaefbb62531b2,68817205a84113384fffdfe3,6898f905a84459d6bc8ada11,,,,,,,,,,,,,1,,,,,,,,,,,,,,,,,,,,,,,,,,,,,,,,,,,,,25,bisagra,,,,,387.2897,388.6218,0,0,0.791,,0,47,47,24,1,REAL,FAKE,,,,,,,,,,,,,,,,,
,,,,,,,,,61086c714ebfaefbb62531b2,Spanish,13 or older,"no, only English or Spanish",yes,2025-08-10_15h55.30.074,empathy_intonation_perc_control,2024.2.4,MacIntel,60.24096386,61086c714ebfaefbb62531b2,68817205a84113384fffdfe3,6898f905a84459d6bc8ada11,,,,,,,,,,,,,0,,,,,,,,,,,,,,,,,,,,,,,,,,,,,,,,,,,,,92,click the 0 key.,,,,,388.6228,390.7887,0,1,1.6176,,0,48,48,91,1,REAL,FAKE,,,,,,,,,,,,,,,,,
,,,,,,,,,61086c714ebfaefbb62531b2,Spanish,13 or older,"no, only English or Spanish",yes,2025-08-10_15h55.30.074,empathy_intonation_perc_control,2024.2.4,MacIntel,60.24096386,61086c714ebfaefbb62531b2,68817205a84113384fffdfe3,6898f905a84459d6bc8ada11,,,,,,,,,,,,,1,,,,,,,,,,,,,,,,,,,,,,,,,,,,,,,,,,,,,38,estornudar,,,,,390.7901,393.6383,0,0,2.293,,0,49,49,37,1,REAL,FAKE,,,,,,,,,,,,,,,,,
,,,,,,,,,61086c714ebfaefbb62531b2,Spanish,13 or older,"no, only English or Spanish",yes,2025-08-10_15h55.30.074,empathy_intonation_perc_control,2024.2.4,MacIntel,60.24096386,61086c714ebfaefbb62531b2,68817205a84113384fffdfe3,6898f905a84459d6bc8ada11,,,,,,,,,,,,,0,,,,,,,,,,,,,,,,,,,,,,,,,,,,,,,,,,,,,58,plaudir,,,,,393.6391,394.9221,1,0,0.7366,,0,50,50,57,1,REAL,FAKE,,,,,,,,,,,,,,,,,
,,,,,,,,,61086c714ebfaefbb62531b2,Spanish,13 or older,"no, only English or Spanish",yes,2025-08-10_15h55.30.074,empathy_intonation_perc_control,2024.2.4,MacIntel,60.24096386,61086c714ebfaefbb62531b2,68817205a84113384fffdfe3,6898f905a84459d6bc8ada11,,,,,,,,,,,,,1,,,,,,,,,,,,,,,,,,,,,,,,,,,,,,,,,,,,,57,tacaño,,,,,394.9234,396.2383,1,1,0.768,,0,51,51,56,1,REAL,FAKE,,,,,,,,,,,,,,,,,
,,,,,,,,,61086c714ebfaefbb62531b2,Spanish,13 or older,"no, only English or Spanish",yes,2025-08-10_15h55.30.074,empathy_intonation_perc_control,2024.2.4,MacIntel,60.24096386,61086c714ebfaefbb62531b2,68817205a84113384fffdfe3,6898f905a84459d6bc8ada11,,,,,,,,,,,,,1,,,,,,,,,,,,,,,,,,,,,,,,,,,,,,,,,,,,,34,aviso,,,,,396.2389,397.3383,0,0,0.5549,,0,52,52,33,1,REAL,FAKE,,,,,,,,,,,,,,,,,
,,,,,,,,,61086c714ebfaefbb62531b2,Spanish,13 or older,"no, only English or Spanish",yes,2025-08-10_15h55.30.074,empathy_intonation_perc_control,2024.2.4,MacIntel,60.24096386,61086c714ebfaefbb62531b2,68817205a84113384fffdfe3,6898f905a84459d6bc8ada11,,,,,,,,,,,,,0,,,,,,,,,,,,,,,,,,,,,,,,,,,,,,,,,,,,,84,escuto,,,,,397.3393,398.455,0,1,0.5791,,0,53,53,83,1,REAL,FAKE,,,,,,,,,,,,,,,,,
,,,,,,,,,61086c714ebfaefbb62531b2,Spanish,13 or older,"no, only English or Spanish",yes,2025-08-10_15h55.30.074,empathy_intonation_perc_control,2024.2.4,MacIntel,60.24096386,61086c714ebfaefbb62531b2,68817205a84113384fffdfe3,6898f905a84459d6bc8ada11,,,,,,,,,,,,,1,,,,,,,,,,,,,,,,,,,,,,,,,,,,,,,,,,,,,2,pellizcar,,,,,398.4558,399.555,0,0,0.5582,,0,54,54,1,1,REAL,FAKE,,,,,,,,,,,,,,,,,
,,,,,,,,,61086c714ebfaefbb62531b2,Spanish,13 or older,"no, only English or Spanish",yes,2025-08-10_15h55.30.074,empathy_intonation_perc_control,2024.2.4,MacIntel,60.24096386,61086c714ebfaefbb62531b2,68817205a84113384fffdfe3,6898f905a84459d6bc8ada11,,,,,,,,,,,,,1,,,,,,,,,,,,,,,,,,,,,,,,,,,,,,,,,,,,,59,besar,,,,,399.5556,400.7553,1,1,0.6568,,0,55,55,58,1,REAL,FAKE,,,,,,,,,,,,,,,,,
,,,,,,,,,61086c714ebfaefbb62531b2,Spanish,13 or older,"no, only English or Spanish",yes,2025-08-10_15h55.30.074,empathy_intonation_perc_control,2024.2.4,MacIntel,60.24096386,61086c714ebfaefbb62531b2,68817205a84113384fffdfe3,6898f905a84459d6bc8ada11,,,,,,,,,,,,,0,,,,,,,,,,,,,,,,,,,,,,,,,,,,,,,,,,,,,79,tropaje,,,,,400.7566,402.0054,0,1,0.7115,,0,56,56,78,1,REAL,FAKE,,,,,,,,,,,,,,,,,
,,,,,,,,,61086c714ebfaefbb62531b2,Spanish,13 or older,"no, only English or Spanish",yes,2025-08-10_15h55.30.074,empathy_intonation_perc_control,2024.2.4,MacIntel,60.24096386,61086c714ebfaefbb62531b2,68817205a84113384fffdfe3,6898f905a84459d6bc8ada11,,,,,,,,,,,,,1,,,,,,,,,,,,,,,,,,,,,,,,,,,,,,,,,,,,,39,torpe,,,,,402.0066,403.1718,0,0,0.6313,,0,57,57,38,1,REAL,FAKE,,,,,,,,,,,,,,,,,
,,,,,,,,,61086c714ebfaefbb62531b2,Spanish,13 or older,"no, only English or Spanish",yes,2025-08-10_15h55.30.074,empathy_intonation_perc_control,2024.2.4,MacIntel,60.24096386,61086c714ebfaefbb62531b2,68817205a84113384fffdfe3,6898f905a84459d6bc8ada11,,,,,,,,,,,,,1,,,,,,,,,,,,,,,,,,,,,,,,,,,,,,,,,,,,,68,alegre,,,,,403.1733,404.2714,0,0,0.5603,,0,58,58,67,1,REAL,FAKE,,,,,,,,,,,,,,,,,
,,,,,,,,,61086c714ebfaefbb62531b2,Spanish,13 or older,"no, only English or Spanish",yes,2025-08-10_15h55.30.074,empathy_intonation_perc_control,2024.2.4,MacIntel,60.24096386,61086c714ebfaefbb62531b2,68817205a84113384fffdfe3,6898f905a84459d6bc8ada11,,,,,,,,,,,,,1,,,,,,,,,,,,,,,,,,,,,,,,,,,,,,,,,,,,,80,hormiga,,,,,404.2728,405.2552,0,0,0.4374,,0,59,59,79,1,REAL,FAKE,,,,,,,,,,,,,,,,,
,,,,,,,,,61086c714ebfaefbb62531b2,Spanish,13 or older,"no, only English or Spanish",yes,2025-08-10_15h55.30.074,empathy_intonation_perc_control,2024.2.4,MacIntel,60.24096386,61086c714ebfaefbb62531b2,68817205a84113384fffdfe3,6898f905a84459d6bc8ada11,,,,,,,,,,,,,0,,,,,,,,,,,,,,,,,,,,,,,,,,,,,,,,,,,,,33,pauca,,,,,405.2561,406.4711,0,1,0.6789,,0,60,60,32,1,REAL,FAKE,,,,,,,,,,,,,,,,,
,,,,,,,,,61086c714ebfaefbb62531b2,Spanish,13 or older,"no, only English or Spanish",yes,2025-08-10_15h55.30.074,empathy_intonation_perc_control,2024.2.4,MacIntel,60.24096386,61086c714ebfaefbb62531b2,68817205a84113384fffdfe3,6898f905a84459d6bc8ada11,,,,,,,,,,,,,0,,,,,,,,,,,,,,,,,,,,,,,,,,,,,,,,,,,,,66,hacido,,,,,406.4719,407.5719,0,1,0.5735,,0,61,61,65,1,REAL,FAKE,,,,,,,,,,,,,,,,,
,,,,,,,,,61086c714ebfaefbb62531b2,Spanish,13 or older,"no, only English or Spanish",yes,2025-08-10_15h55.30.074,empathy_intonation_perc_control,2024.2.4,MacIntel,60.24096386,61086c714ebfaefbb62531b2,68817205a84113384fffdfe3,6898f905a84459d6bc8ada11,,,,,,,,,,,,,1,,,,,,,,,,,,,,,,,,,,,,,,,,,,,,,,,,,,,61,seda,,,,,407.573,409.0053,1,1,0.8875,,0,62,62,60,1,REAL,FAKE,,,,,,,,,,,,,,,,,
,,,,,,,,,61086c714ebfaefbb62531b2,Spanish,13 or older,"no, only English or Spanish",yes,2025-08-10_15h55.30.074,empathy_intonation_perc_control,2024.2.4,MacIntel,60.24096386,61086c714ebfaefbb62531b2,68817205a84113384fffdfe3,6898f905a84459d6bc8ada11,,,,,,,,,,,,,1,,,,,,,,,,,,,,,,,,,,,,,,,,,,,,,,,,,,,11,cenefa,,,,,409.0067,410.7721,1,1,1.2205,,0,63,63,10,1,REAL,FAKE,,,,,,,,,,,,,,,,,
,,,,,,,,,61086c714ebfaefbb62531b2,Spanish,13 or older,"no, only English or Spanish",yes,2025-08-10_15h55.30.074,empathy_intonation_perc_control,2024.2.4,MacIntel,60.24096386,61086c714ebfaefbb62531b2,68817205a84113384fffdfe3,6898f905a84459d6bc8ada11,,,,,,,,,,,,,1,,,,,,,,,,,,,,,,,,,,,,,,,,,,,,,,,,,,,88,acantilado,,,,,410.7733,412.7385,0,0,1.4244,,0,64,64,87,1,REAL,FAKE,,,,,,,,,,,,,,,,,
,,,,,,,,,61086c714ebfaefbb62531b2,Spanish,13 or older,"no, only English or Spanish",yes,2025-08-10_15h55.30.074,empathy_intonation_perc_control,2024.2.4,MacIntel,60.24096386,61086c714ebfaefbb62531b2,68817205a84113384fffdfe3,6898f905a84459d6bc8ada11,,,,,,,,,,,,,1,,,,,,,,,,,,,,,,,,,,,,,,,,,,,,,,,,,,,12,asesinato,,,,,412.7398,414.0219,0,0,0.7389,,0,65,65,11,1,REAL,FAKE,,,,,,,,,,,,,,,,,
,,,,,,,,,61086c714ebfaefbb62531b2,Spanish,13 or older,"no, only English or Spanish",yes,2025-08-10_15h55.30.074,empathy_intonation_perc_control,2024.2.4,MacIntel,60.24096386,61086c714ebfaefbb62531b2,68817205a84113384fffdfe3,6898f905a84459d6bc8ada11,,,,,,,,,,,,,0,,,,,,,,,,,,,,,,,,,,,,,,,,,,,,,,,,,,,1,terzo,,,,,414.0232,415.1053,0,1,0.5416,,0,66,66,0,1,REAL,FAKE,,,,,,,,,,,,,,,,,
,,,,,,,,,61086c714ebfaefbb62531b2,Spanish,13 or older,"no, only English or Spanish",yes,2025-08-10_15h55.30.074,empathy_intonation_perc_control,2024.2.4,MacIntel,60.24096386,61086c714ebfaefbb62531b2,68817205a84113384fffdfe3,6898f905a84459d6bc8ada11,,,,,,,,,,,,,1,,,,,,,,,,,,,,,,,,,,,,,,,,,,,,,,,,,,,7,pésimo,,,,,415.1068,416.2052,0,0,0.5706,,0,67,67,6,1,REAL,FAKE,,,,,,,,,,,,,,,,,
,,,,,,,,,61086c714ebfaefbb62531b2,Spanish,13 or older,"no, only English or Spanish",yes,2025-08-10_15h55.30.074,empathy_intonation_perc_control,2024.2.4,MacIntel,60.24096386,61086c714ebfaefbb62531b2,68817205a84113384fffdfe3,6898f905a84459d6bc8ada11,,,,,,,,,,,,,0,,,,,,,,,,,,,,,,,,,,,,,,,,,,,,,,,,,,,72,pemición,,,,,416.2066,417.3553,1,0,0.6109,,0,68,68,71,1,REAL,FAKE,,,,,,,,,,,,,,,,,
,,,,,,,,,61086c714ebfaefbb62531b2,Spanish,13 or older,"no, only English or Spanish",yes,2025-08-10_15h55.30.074,empathy_intonation_perc_control,2024.2.4,MacIntel,60.24096386,61086c714ebfaefbb62531b2,68817205a84113384fffdfe3,6898f905a84459d6bc8ada11,,,,,,,,,,,,,1,,,,,,,,,,,,,,,,,,,,,,,,,,,,,,,,,,,,,52,camisa,,,,,417.3566,418.8051,1,1,0.9135,,0,69,69,51,1,REAL,FAKE,,,,,,,,,,,,,,,,,
,,,,,,,,,61086c714ebfaefbb62531b2,Spanish,13 or older,"no, only English or Spanish",yes,2025-08-10_15h55.30.074,empathy_intonation_perc_control,2024.2.4,MacIntel,60.24096386,61086c714ebfaefbb62531b2,68817205a84113384fffdfe3,6898f905a84459d6bc8ada11,,,,,,,,,,,,,1,,,,,,,,,,,,,,,,,,,,,,,,,,,,,,,,,,,,,73,hervidor,,,,,418.8063,420.0214,0,0,0.6709,,0,70,70,72,1,REAL,FAKE,,,,,,,,,,,,,,,,,
,,,,,,,,,61086c714ebfaefbb62531b2,Spanish,13 or older,"no, only English or Spanish",yes,2025-08-10_15h55.30.074,empathy_intonation_perc_control,2024.2.4,MacIntel,60.24096386,61086c714ebfaefbb62531b2,68817205a84113384fffdfe3,6898f905a84459d6bc8ada11,,,,,,,,,,,,,0,,,,,,,,,,,,,,,,,,,,,,,,,,,,,,,,,,,,,47,cartinar,,,,,420.0228,421.105,0,1,0.5489,,0,71,71,46,1,REAL,FAKE,,,,,,,,,,,,,,,,,
,,,,,,,,,61086c714ebfaefbb62531b2,Spanish,13 or older,"no, only English or Spanish",yes,2025-08-10_15h55.30.074,empathy_intonation_perc_control,2024.2.4,MacIntel,60.24096386,61086c714ebfaefbb62531b2,68817205a84113384fffdfe3,6898f905a84459d6bc8ada11,,,,,,,,,,,,,1,,,,,,,,,,,,,,,,,,,,,,,,,,,,,,,,,,,,,9,hacha,,,,,421.106,422.2554,1,1,0.622,,0,72,72,8,1,REAL,FAKE,,,,,,,,,,,,,,,,,
,,,,,,,,,61086c714ebfaefbb62531b2,Spanish,13 or older,"no, only English or Spanish",yes,2025-08-10_15h55.30.074,empathy_intonation_perc_control,2024.2.4,MacIntel,60.24096386,61086c714ebfaefbb62531b2,68817205a84113384fffdfe3,6898f905a84459d6bc8ada11,,,,,,,,,,,,,1,,,,,,,,,,,,,,,,,,,,,,,,,,,,,,,,,,,,,86,barato,,,,,422.2569,423.2719,0,0,0.4812,,0,73,73,85,1,REAL,FAKE,,,,,,,,,,,,,,,,,
,,,,,,,,,61086c714ebfaefbb62531b2,Spanish,13 or older,"no, only English or Spanish",yes,2025-08-10_15h55.30.074,empathy_intonation_perc_control,2024.2.4,MacIntel,60.24096386,61086c714ebfaefbb62531b2,68817205a84113384fffdfe3,6898f905a84459d6bc8ada11,,,,,,,,,,,,,1,,,,,,,,,,,,,,,,,,,,,,,,,,,,,,,,,,,,,56,musgo,,,,,423.2734,424.4216,0,0,0.6092,,0,74,74,55,1,REAL,FAKE,,,,,,,,,,,,,,,,,
,,,,,,,,,61086c714ebfaefbb62531b2,Spanish,13 or older,"no, only English or Spanish",yes,2025-08-10_15h55.30.074,empathy_intonation_perc_control,2024.2.4,MacIntel,60.24096386,61086c714ebfaefbb62531b2,68817205a84113384fffdfe3,6898f905a84459d6bc8ada11,,,,,,,,,,,,,1,,,,,,,,,,,,,,,,,,,,,,,,,,,,,,,,,,,,,91,click the 1 key.,,,,,424.4223,426.1886,1,1,1.2199,,0,75,75,90,1,REAL,FAKE,,,,,,,,,,,,,,,,,
,,,,,,,,,61086c714ebfaefbb62531b2,Spanish,13 or older,"no, only English or Spanish",yes,2025-08-10_15h55.30.074,empathy_intonation_perc_control,2024.2.4,MacIntel,60.24096386,61086c714ebfaefbb62531b2,68817205a84113384fffdfe3,6898f905a84459d6bc8ada11,,,,,,,,,,,,,0,,,,,,,,,,,,,,,,,,,,,,,,,,,,,,,,,,,,,29,decar,,,,,426.1896,427.6381,1,0,0.915,,0,76,76,28,1,REAL,FAKE,,,,,,,,,,,,,,,,,
,,,,,,,,,61086c714ebfaefbb62531b2,Spanish,13 or older,"no, only English or Spanish",yes,2025-08-10_15h55.30.074,empathy_intonation_perc_control,2024.2.4,MacIntel,60.24096386,61086c714ebfaefbb62531b2,68817205a84113384fffdfe3,6898f905a84459d6bc8ada11,,,,,,,,,,,,,1,,,,,,,,,,,,,,,,,,,,,,,,,,,,,,,,,,,,,6,tergiversar,,,,,427.6389,428.8219,0,0,0.6402,,0,77,77,5,1,REAL,FAKE,,,,,,,,,,,,,,,,,
,,,,,,,,,61086c714ebfaefbb62531b2,Spanish,13 or older,"no, only English or Spanish",yes,2025-08-10_15h55.30.074,empathy_intonation_perc_control,2024.2.4,MacIntel,60.24096386,61086c714ebfaefbb62531b2,68817205a84113384fffdfe3,6898f905a84459d6bc8ada11,,,,,,,,,,,,,0,,,,,,,,,,,,,,,,,,,,,,,,,,,,,,,,,,,,,30,alardio,,,,,428.8231,429.9882,0,1,0.6225,,0,78,78,29,1,REAL,FAKE,,,,,,,,,,,,,,,,,
,,,,,,,,,61086c714ebfaefbb62531b2,Spanish,13 or older,"no, only English or Spanish",yes,2025-08-10_15h55.30.074,empathy_intonation_perc_control,2024.2.4,MacIntel,60.24096386,61086c714ebfaefbb62531b2,68817205a84113384fffdfe3,6898f905a84459d6bc8ada11,,,,,,,,,,,,,1,,,,,,,,,,,,,,,,,,,,,,,,,,,,,,,,,,,,,15,regar,,,,,429.9895,431.2055,0,0,0.6886,,0,79,79,14,1,REAL,FAKE,,,,,,,,,,,,,,,,,
,,,,,,,,,61086c714ebfaefbb62531b2,Spanish,13 or older,"no, only English or Spanish",yes,2025-08-10_15h55.30.074,empathy_intonation_perc_control,2024.2.4,MacIntel,60.24096386,61086c714ebfaefbb62531b2,68817205a84113384fffdfe3,6898f905a84459d6bc8ada11,,,,,,,,,,,,,1,,,,,,,,,,,,,,,,,,,,,,,,,,,,,,,,,,,,,64,orgulloso,,,,,431.2064,432.2378,0,0,0.4916,,0,80,80,63,1,REAL,FAKE,,,,,,,,,,,,,,,,,
,,,,,,,,,61086c714ebfaefbb62531b2,Spanish,13 or older,"no, only English or Spanish",yes,2025-08-10_15h55.30.074,empathy_intonation_perc_control,2024.2.4,MacIntel,60.24096386,61086c714ebfaefbb62531b2,68817205a84113384fffdfe3,6898f905a84459d6bc8ada11,,,,,,,,,,,,,1,,,,,,,,,,,,,,,,,,,,,,,,,,,,,,,,,,,,,46,martillo,,,,,432.2387,433.2051,0,0,0.4523,,0,81,81,45,1,REAL,FAKE,,,,,,,,,,,,,,,,,
,,,,,,,,,61086c714ebfaefbb62531b2,Spanish,13 or older,"no, only English or Spanish",yes,2025-08-10_15h55.30.074,empathy_intonation_perc_control,2024.2.4,MacIntel,60.24096386,61086c714ebfaefbb62531b2,68817205a84113384fffdfe3,6898f905a84459d6bc8ada11,,,,,,,,,,,,,1,,,,,,,,,,,,,,,,,,,,,,,,,,,,,,,,,,,,,48,ladrón,,,,,433.2063,434.3718,1,1,0.6384,,0,82,82,47,1,REAL,FAKE,,,,,,,,,,,,,,,,,
,,,,,,,,,61086c714ebfaefbb62531b2,Spanish,13 or older,"no, only English or Spanish",yes,2025-08-10_15h55.30.074,empathy_intonation_perc_control,2024.2.4,MacIntel,60.24096386,61086c714ebfaefbb62531b2,68817205a84113384fffdfe3,6898f905a84459d6bc8ada11,,,,,,,,,,,,,0,,,,,,,,,,,,,,,,,,,,,,,,,,,,,,,,,,,,,21,capillo,,,,,434.3731,435.472,1,0,0.5538,,0,83,83,20,1,REAL,FAKE,,,,,,,,,,,,,,,,,
,,,,,,,,,61086c714ebfaefbb62531b2,Spanish,13 or older,"no, only English or Spanish",yes,2025-08-10_15h55.30.074,empathy_intonation_perc_control,2024.2.4,MacIntel,60.24096386,61086c714ebfaefbb62531b2,68817205a84113384fffdfe3,6898f905a84459d6bc8ada11,,,,,,,,,,,,,0,,,,,,,,,,,,,,,,,,,,,,,,,,,,,,,,,,,,,10,antar,,,,,435.4731,436.6381,0,1,0.6317,,0,84,84,9,1,REAL,FAKE,,,,,,,,,,,,,,,,,
,,,,,,,,,61086c714ebfaefbb62531b2,Spanish,13 or older,"no, only English or Spanish",yes,2025-08-10_15h55.30.074,empathy_intonation_perc_control,2024.2.4,MacIntel,60.24096386,61086c714ebfaefbb62531b2,68817205a84113384fffdfe3,6898f905a84459d6bc8ada11,,,,,,,,,,,,,1,,,,,,,,,,,,,,,,,,,,,,,,,,,,,,,,,,,,,40,alfombra,,,,,436.64,437.8218,0,0,0.6429,,0,85,85,39,1,REAL,FAKE,,,,,,,,,,,,,,,,,
,,,,,,,,,61086c714ebfaefbb62531b2,Spanish,13 or older,"no, only English or Spanish",yes,2025-08-10_15h55.30.074,empathy_intonation_perc_control,2024.2.4,MacIntel,60.24096386,61086c714ebfaefbb62531b2,68817205a84113384fffdfe3,6898f905a84459d6bc8ada11,,,,,,,,,,,,,1,,,,,,,,,,,,,,,,,,,,,,,,,,,,,,,,,,,,,89,prisa,,,,,437.8235,438.8383,0,0,0.4771,,0,86,86,88,1,REAL,FAKE,,,,,,,,,,,,,,,,,
,,,,,,,,,61086c714ebfaefbb62531b2,Spanish,13 or older,"no, only English or Spanish",yes,2025-08-10_15h55.30.074,empathy_intonation_perc_control,2024.2.4,MacIntel,60.24096386,61086c714ebfaefbb62531b2,68817205a84113384fffdfe3,6898f905a84459d6bc8ada11,,,,,,,,,,,,,0,,,,,,,,,,,,,,,,,,,,,,,,,,,,,,,,,,,,,42,cadallo,,,,,438.8396,439.8715,1,0,0.4938,,0,87,87,41,1,REAL,FAKE,,,,,,,,,,,,,,,,,
,,,,,,,,,61086c714ebfaefbb62531b2,Spanish,13 or older,"no, only English or Spanish",yes,2025-08-10_15h55.30.074,empathy_intonation_perc_control,2024.2.4,MacIntel,60.24096386,61086c714ebfaefbb62531b2,68817205a84113384fffdfe3,6898f905a84459d6bc8ada11,,,,,,,,,,,,,1,,,,,,,,,,,,,,,,,,,,,,,,,,,,,,,,,,,,,65,bizcocho,,,,,439.8723,440.9554,0,0,0.5454,,0,88,88,64,1,REAL,FAKE,,,,,,,,,,,,,,,,,
,,,,,,,,,61086c714ebfaefbb62531b2,Spanish,13 or older,"no, only English or Spanish",yes,2025-08-10_15h55.30.074,empathy_intonation_perc_control,2024.2.4,MacIntel,60.24096386,61086c714ebfaefbb62531b2,68817205a84113384fffdfe3,6898f905a84459d6bc8ada11,,,,,,,,,,,,,1,,,,,,,,,,,,,,,,,,,,,,,,,,,,,,,,,,,,,14,yunque,,,,,440.9569,442.0376,0,0,0.5395,,0,89,89,13,1,REAL,FAKE,,,,,,,,,,,,,,,,,
,,,,,,,,,61086c714ebfaefbb62531b2,Spanish,13 or older,"no, only English or Spanish",yes,2025-08-10_15h55.30.074,empathy_intonation_perc_control,2024.2.4,MacIntel,60.24096386,61086c714ebfaefbb62531b2,68817205a84113384fffdfe3,6898f905a84459d6bc8ada11,,,,,,,,,,,,,0,,,,,,,,,,,,,,,,,,,,,,,,,,,,,,,,,,,,,82,empirador,,,,,442.0389,443.2546,0,1,0.6951,,0,90,90,81,1,REAL,FAKE,,,,,,,,,,,,,,,,,
,,,,,,,,,61086c714ebfaefbb62531b2,Spanish,13 or older,"no, only English or Spanish",yes,2025-08-10_15h55.30.074,empathy_intonation_perc_control,2024.2.4,MacIntel,60.24096386,61086c714ebfaefbb62531b2,68817205a84113384fffdfe3,6898f905a84459d6bc8ada11,,,,,,,,,,,,,1,,,,,,,,,,,,,,,,,,,,,,,,,,,,,,,,,,,,,24,látigo,,,,,443.2555,444.4715,0,0,0.6903,,0,91,91,23,1,REAL,FAKE,,,,,,,,,,,,,,,,,
,,,,,,,,,61086c714ebfaefbb62531b2,Spanish,13 or older,"no, only English or Spanish",yes,2025-08-10_15h55.30.074,empathy_intonation_perc_control,2024.2.4,MacIntel,60.24096386,61086c714ebfaefbb62531b2,68817205a84113384fffdfe3,6898f905a84459d6bc8ada11,,,,,,,,,,,,,,,,,,,,,,,,,,,,,,,,,,,,,,,,,,,,,,,,,,,,,,,,,,,,,,,,,,,,,444.472,455.422,,,,,,,,,,,,,,,
,,,,,,,,,61086c714ebfaefbb62531b2,Spanish,13 or older,"no, only English or Spanish",yes,2025-08-10_15h55.30.074,empathy_intonation_perc_control,2024.2.4,MacIntel,60.24096386,61086c714ebfaefbb62531b2,68817205a84113384fffdfe3,6898f905a84459d6bc8ada11,,,,,,,,,,,,,,,,,,,,,,,,,,,1,,,,,,,,,,,,,,,,,,,,,,,,,,,,,,,,,,,,,,,,,,,,455.4308,461.6039,slightly agree,0,0,0,0,1,I can easily tell if someone else wants to enter a conversation.,1,0,1,0,,
,,,,,,,,,61086c714ebfaefbb62531b2,Spanish,13 or older,"no, only English or Spanish",yes,2025-08-10_15h55.30.074,empathy_intonation_perc_control,2024.2.4,MacIntel,60.24096386,61086c714ebfaefbb62531b2,68817205a84113384fffdfe3,6898f905a84459d6bc8ada11,,,,,,,,,,,,,,,,,,,,,,,,,,,2,,,,,,,,,,,,,,,,,,,,,,,,,,,,,,,,,,,,,,,,,,,,461.6044,466.4548,strongly agree,0,1,1,1,1,I prefer animals to humans.,0,1,0,0,,
,,,,,,,,,61086c714ebfaefbb62531b2,Spanish,13 or older,"no, only English or Spanish",yes,2025-08-10_15h55.30.074,empathy_intonation_perc_control,2024.2.4,MacIntel,60.24096386,61086c714ebfaefbb62531b2,68817205a84113384fffdfe3,6898f905a84459d6bc8ada11,,,,,,,,,,,,,,,,,,,,,,,,,,,3,,,,,,,,,,,,,,,,,,,,,,,,,,,,,,,,,,,,,,,,,,,,466.4554,468.5381,slightly agree,0,2,2,2,1,I try to keep up with the current trends and fashions.,0,1,0,0,,
,,,,,,,,,61086c714ebfaefbb62531b2,Spanish,13 or older,"no, only English or Spanish",yes,2025-08-10_15h55.30.074,empathy_intonation_perc_control,2024.2.4,MacIntel,60.24096386,61086c714ebfaefbb62531b2,68817205a84113384fffdfe3,6898f905a84459d6bc8ada11,,,,,,,,,,,,,,,,,,,,,,,,,,,4,,,,,,,,,,,,,,,,,,,,,,,,,,,,,,,,,,,,,,,,,,,,468.5391,481.6216,slightly agree,0,3,3,3,1,"I find it difficult to explain to others things that I understand easily,   when they don't understand it first time.",1,0,0,1,,
,,,,,,,,,61086c714ebfaefbb62531b2,Spanish,13 or older,"no, only English or Spanish",yes,2025-08-10_15h55.30.074,empathy_intonation_perc_control,2024.2.4,MacIntel,60.24096386,61086c714ebfaefbb62531b2,68817205a84113384fffdfe3,6898f905a84459d6bc8ada11,,,,,,,,,,,,,,,,,,,,,,,,,,,5,,,,,,,,,,,,,,,,,,,,,,,,,,,,,,,,,,,,,,,,,,,,481.6228,484.1881,slightly disagree,0,4,4,4,1,I dream most nights.,0,1,0,0,,
,,,,,,,,,61086c714ebfaefbb62531b2,Spanish,13 or older,"no, only English or Spanish",yes,2025-08-10_15h55.30.074,empathy_intonation_perc_control,2024.2.4,MacIntel,60.24096386,61086c714ebfaefbb62531b2,68817205a84113384fffdfe3,6898f905a84459d6bc8ada11,,,,,,,,,,,,,,,,,,,,,,,,,,,6,,,,,,,,,,,,,,,,,,,,,,,,,,,,,,,,,,,,,,,,,,,,484.189,485.7881,slightly agree,0,5,5,5,1,I really enjoy caring for other people.,1,0,1,0,,
,,,,,,,,,61086c714ebfaefbb62531b2,Spanish,13 or older,"no, only English or Spanish",yes,2025-08-10_15h55.30.074,empathy_intonation_perc_control,2024.2.4,MacIntel,60.24096386,61086c714ebfaefbb62531b2,68817205a84113384fffdfe3,6898f905a84459d6bc8ada11,,,,,,,,,,,,,,,,,,,,,,,,,,,7,,,,,,,,,,,,,,,,,,,,,,,,,,,,,,,,,,,,,,,,,,,,485.789,489.7548,strongly agree,0,6,6,6,1,I try to solve my own problems rather than discussing them with others.,0,1,0,0,,
,,,,,,,,,61086c714ebfaefbb62531b2,Spanish,13 or older,"no, only English or Spanish",yes,2025-08-10_15h55.30.074,empathy_intonation_perc_control,2024.2.4,MacIntel,60.24096386,61086c714ebfaefbb62531b2,68817205a84113384fffdfe3,6898f905a84459d6bc8ada11,,,,,,,,,,,,,,,,,,,,,,,,,,,8,,,,,,,,,,,,,,,,,,,,,,,,,,,,,,,,,,,,,,,,,,,,489.7557,491.5372,slightly agree,0,7,7,7,1,I find it hard to know what to do in a social situation.,1,0,0,1,,
,,,,,,,,,61086c714ebfaefbb62531b2,Spanish,13 or older,"no, only English or Spanish",yes,2025-08-10_15h55.30.074,empathy_intonation_perc_control,2024.2.4,MacIntel,60.24096386,61086c714ebfaefbb62531b2,68817205a84113384fffdfe3,6898f905a84459d6bc8ada11,,,,,,,,,,,,,,,,,,,,,,,,,,,9,,,,,,,,,,,,,,,,,,,,,,,,,,,,,,,,,,,,,,,,,,,,491.538,493.9548,slightly disagree,0,8,8,8,1,I am at my best first thing in the morning.,0,1,0,0,,
,,,,,,,,,61086c714ebfaefbb62531b2,Spanish,13 or older,"no, only English or Spanish",yes,2025-08-10_15h55.30.074,empathy_intonation_perc_control,2024.2.4,MacIntel,60.24096386,61086c714ebfaefbb62531b2,68817205a84113384fffdfe3,6898f905a84459d6bc8ada11,,,,,,,,,,,,,,,,,,,,,,,,,,,10,,,,,,,,,,,,,,,,,,,,,,,,,,,,,,,,,,,,,,,,,,,,493.9558,497.1878,slightly agree,0,9,9,9,1,People often tell me that I went too far in driving my point home in a discussion.,1,0,0,1,,
,,,,,,,,,61086c714ebfaefbb62531b2,Spanish,13 or older,"no, only English or Spanish",yes,2025-08-10_15h55.30.074,empathy_intonation_perc_control,2024.2.4,MacIntel,60.24096386,61086c714ebfaefbb62531b2,68817205a84113384fffdfe3,6898f905a84459d6bc8ada11,,,,,,,,,,,,,,,,,,,,,,,,,,,11,,,,,,,,,,,,,,,,,,,,,,,,,,,,,,,,,,,,,,,,,,,,497.1886,500.4711,slightly disagree,0,10,10,10,1,It doesn't bother me too much if I am late meeting a friend.,1,0,0,1,,
,,,,,,,,,61086c714ebfaefbb62531b2,Spanish,13 or older,"no, only English or Spanish",yes,2025-08-10_15h55.30.074,empathy_intonation_perc_control,2024.2.4,MacIntel,60.24096386,61086c714ebfaefbb62531b2,68817205a84113384fffdfe3,6898f905a84459d6bc8ada11,,,,,,,,,,,,,,,,,,,,,,,,,,,12,,,,,,,,,,,,,,,,,,,,,,,,,,,,,,,,,,,,,,,,,,,,500.4725,503.088,slightly disagree,0,11,11,11,1,"Friendships and relationships are just too difficult, so I tend not to 
  bother with them.",1,0,0,1,,
,,,,,,,,,61086c714ebfaefbb62531b2,Spanish,13 or older,"no, only English or Spanish",yes,2025-08-10_15h55.30.074,empathy_intonation_perc_control,2024.2.4,MacIntel,60.24096386,61086c714ebfaefbb62531b2,68817205a84113384fffdfe3,6898f905a84459d6bc8ada11,,,,,,,,,,,,,,,,,,,,,,,,,,,13,,,,,,,,,,,,,,,,,,,,,,,,,,,,,,,,,,,,,,,,,,,,503.0889,505.2047,slightly disagree,0,12,12,12,1,"I would never break a law, no matter how minor.",0,1,0,0,,
,,,,,,,,,61086c714ebfaefbb62531b2,Spanish,13 or older,"no, only English or Spanish",yes,2025-08-10_15h55.30.074,empathy_intonation_perc_control,2024.2.4,MacIntel,60.24096386,61086c714ebfaefbb62531b2,68817205a84113384fffdfe3,6898f905a84459d6bc8ada11,,,,,,,,,,,,,,,,,,,,,,,,,,,14,,,,,,,,,,,,,,,,,,,,,,,,,,,,,,,,,,,,,,,,,,,,505.2055,510.1714,slightly agree,0,13,13,13,1,I often find it difficult to judge if something is rude or polite.,1,0,0,1,,
,,,,,,,,,61086c714ebfaefbb62531b2,Spanish,13 or older,"no, only English or Spanish",yes,2025-08-10_15h55.30.074,empathy_intonation_perc_control,2024.2.4,MacIntel,60.24096386,61086c714ebfaefbb62531b2,68817205a84113384fffdfe3,6898f905a84459d6bc8ada11,,,,,,,,,,,,,,,,,,,,,,,,,,,15,,,,,,,,,,,,,,,,,,,,,,,,,,,,,,,,,,,,,,,,,,,,510.1724,513.4548,slightly agree,0,14,14,14,1,"In a conversation, I tend to focus on my own thoughts rather than on what 
  my listener might be thinking.",1,0,0,1,,
,,,,,,,,,61086c714ebfaefbb62531b2,Spanish,13 or older,"no, only English or Spanish",yes,2025-08-10_15h55.30.074,empathy_intonation_perc_control,2024.2.4,MacIntel,60.24096386,61086c714ebfaefbb62531b2,68817205a84113384fffdfe3,6898f905a84459d6bc8ada11,,,,,,,,,,,,,,,,,,,,,,,,,,,16,,,,,,,,,,,,,,,,,,,,,,,,,,,,,,,,,,,,,,,,,,,,513.4557,517.3547,slightly agree,0,15,15,15,1,I prefer practical jokes to verbal humor.,0,1,0,0,,
,,,,,,,,,61086c714ebfaefbb62531b2,Spanish,13 or older,"no, only English or Spanish",yes,2025-08-10_15h55.30.074,empathy_intonation_perc_control,2024.2.4,MacIntel,60.24096386,61086c714ebfaefbb62531b2,68817205a84113384fffdfe3,6898f905a84459d6bc8ada11,,,,,,,,,,,,,,,,,,,,,,,,,,,17,,,,,,,,,,,,,,,,,,,,,,,,,,,,,,,,,,,,,,,,,,,,517.3555,521.588,slightly disagree,0,16,16,16,1,I live life for today rather than the future.,0,1,0,0,,
,,,,,,,,,61086c714ebfaefbb62531b2,Spanish,13 or older,"no, only English or Spanish",yes,2025-08-10_15h55.30.074,empathy_intonation_perc_control,2024.2.4,MacIntel,60.24096386,61086c714ebfaefbb62531b2,68817205a84113384fffdfe3,6898f905a84459d6bc8ada11,,,,,,,,,,,,,,,,,,,,,,,,,,,18,,,,,,,,,,,,,,,,,,,,,,,,,,,,,,,,,,,,,,,,,,,,521.589,524.1714,strongly disagree,0,17,17,17,1,"When I was a child, I enjoyed cutting up worms to see what would happen.",1,0,0,1,,
,,,,,,,,,61086c714ebfaefbb62531b2,Spanish,13 or older,"no, only English or Spanish",yes,2025-08-10_15h55.30.074,empathy_intonation_perc_control,2024.2.4,MacIntel,60.24096386,61086c714ebfaefbb62531b2,68817205a84113384fffdfe3,6898f905a84459d6bc8ada11,,,,,,,,,,,,,,,,,,,,,,,,,,,19,,,,,,,,,,,,,,,,,,,,,,,,,,,,,,,,,,,,,,,,,,,,524.1723,527.5547,slightly agree,0,18,18,18,1,I can pick up quickly if someone says one thing but means another.,1,0,1,0,,
,,,,,,,,,61086c714ebfaefbb62531b2,Spanish,13 or older,"no, only English or Spanish",yes,2025-08-10_15h55.30.074,empathy_intonation_perc_control,2024.2.4,MacIntel,60.24096386,61086c714ebfaefbb62531b2,68817205a84113384fffdfe3,6898f905a84459d6bc8ada11,,,,,,,,,,,,,,,,,,,,,,,,,,,20,,,,,,,,,,,,,,,,,,,,,,,,,,,,,,,,,,,,,,,,,,,,527.5553,528.7047,slightly agree,0,19,19,19,1,I tend to have very strong opinions about morality.,0,1,0,0,,
,,,,,,,,,61086c714ebfaefbb62531b2,Spanish,13 or older,"no, only English or Spanish",yes,2025-08-10_15h55.30.074,empathy_intonation_perc_control,2024.2.4,MacIntel,60.24096386,61086c714ebfaefbb62531b2,68817205a84113384fffdfe3,6898f905a84459d6bc8ada11,,,,,,,,,,,,,,,,,,,,,,,,,,,21,,,,,,,,,,,,,,,,,,,,,,,,,,,,,,,,,,,,,,,,,,,,528.7056,533.5547,slightly disagree,0,20,20,20,1,It is hard for me to see why some things upset people so much.,1,0,0,1,,
,,,,,,,,,61086c714ebfaefbb62531b2,Spanish,13 or older,"no, only English or Spanish",yes,2025-08-10_15h55.30.074,empathy_intonation_perc_control,2024.2.4,MacIntel,60.24096386,61086c714ebfaefbb62531b2,68817205a84113384fffdfe3,6898f905a84459d6bc8ada11,,,,,,,,,,,,,,,,,,,,,,,,,,,22,,,,,,,,,,,,,,,,,,,,,,,,,,,,,,,,,,,,,,,,,,,,533.5556,535.538,slightly disagree,0,21,21,21,1,I find it easy to put myself in somebody else's shoes.,1,0,1,0,,
,,,,,,,,,61086c714ebfaefbb62531b2,Spanish,13 or older,"no, only English or Spanish",yes,2025-08-10_15h55.30.074,empathy_intonation_perc_control,2024.2.4,MacIntel,60.24096386,61086c714ebfaefbb62531b2,68817205a84113384fffdfe3,6898f905a84459d6bc8ada11,,,,,,,,,,,,,,,,,,,,,,,,,,,23,,,,,,,,,,,,,,,,,,,,,,,,,,,,,,,,,,,,,,,,,,,,535.539,539.8714,slightly agree,0,22,22,22,1,I think that good manners are the most important thing a parent can teach their child.,0,1,0,0,,
