instructions_2afc.started,instructions_2afc.stopped,instructions_2afc_loop.thisRepN,instructions_2afc_loop.thisTrialN,instructions_2afc_loop.thisN,instructions_2afc_loop.thisIndex,instructions_2afc_loop.ran,instructions_text,continue_text,participant_id,"What variety of Spanish are you most familiar with? (e.g., Peruvian, Spanish, Mexican)",At what age did you begin learning Spanish?,Are you proficient in any languages other than English/Spanish?,"Are you familiar with Caribbean (e.g., Caribbean, Puerto Rican) or Galician Spanish?",date,expName,psychopyVersion,OS,frameRate,id,study_id,session,practice_2afc.started,practice_2afc.stopped,key_resp_2afc_practice.keys,key_resp_2afc_practice.corr,key_resp_2afc_practice.rt,key_resp_2afc_practice.duration,trials_2afc_practice_loop.thisRepN,trials_2afc_practice_loop.thisTrialN,trials_2afc_practice_loop.thisN,trials_2afc_practice_loop.thisIndex,trials_2afc_practice_loop.ran,path,correct_response,check_2afc.started,check_2afc.stopped,trial_2afc.started,trial_2afc.stopped,key_resp_2afc_trial.keys,key_resp_2afc_trial.corr,key_resp_2afc_trial.rt,key_resp_2afc_trial.duration,trials_2afc_loop.thisRepN,trials_2afc_loop.thisTrialN,trials_2afc_loop.thisN,trials_2afc_loop.thisIndex,trials_2afc_loop.ran,item_num,target,variety,instructions_lextale.started,instructions_lextale.stopped,instructions_lextale_loop.thisRepN,instructions_lextale_loop.thisTrialN,instructions_lextale_loop.thisN,instructions_lextale_loop.thisIndex,instructions_lextale_loop.ran,practice_lextale.started,practice_lextale.stopped,key_resp_lextale_practice.keys,key_resp_lextale_practice.corr,key_resp_lextale_practice.rt,key_resp_lextale_practice.duration,practice_feedback_lextale.started,practice_feedback_lextale.stopped,trials_lextale_practice_loop.thisRepN,trials_lextale_practice_loop.thisTrialN,trials_lextale_practice_loop.thisN,trials_lextale_practice_loop.thisIndex,trials_lextale_practice_loop.ran,stim,word,prac_button_real,prac_button_false,check_lextale.started,check_lextale.stopped,trial_lextale.started,trial_lextale.stopped,key_resp_lextale_trial.keys,key_resp_lextale_trial.corr,key_resp_lextale_trial.rt,key_resp_lextale_trial.duration,trials_lextale_loop.thisRepN,trials_lextale_loop.thisTrialN,trials_lextale_loop.thisN,trials_lextale_loop.thisIndex,trials_lextale_loop.ran,button_real,button_false,instructions_eq.started,instructions_eq.stopped,trial_eq.started,trial_eq.stopped,slider_eq_trial.response,trials_eq_loop.thisRepN,trials_eq_loop.thisTrialN,trials_eq_loop.thisN,trials_eq_loop.thisIndex,trials_eq_loop.ran,item,is_test_item,is_distractor,is_agree_score,is_disagree_score,end_exp.started,end_exp.stopped
0.0191,4.7683,0,0,0,0,1,"In the following task you are going to hear a series of utterances. 

  You will decide if the utterances sound like questions or not using your keyboard.", (press the spacebar to continue),6108c4f7300885ce920eb3c5,Spanish,13 or older,"no, only English or Spanish",no,2025-07-24_10h50.49.053,empathy_intonation_perc_control,2024.2.4,Win32,59.88023952,6108c4f7300885ce920eb3c5,68817205a84113384fffdfe3,68824806707eb8f4025ff33c,,,,,,,,,,,,,,,,,,,,,,,,,,,,,,,,,,,,,,,,,,,,,,,,,,,,,,,,,,,,,,,,,,,,,,,,,,,,,,,,,,,,,
4.7729,15.416,0,1,1,1,1,"If you believe the utterance is a question, type '1' (for 'yes') and if you do not 
  believe it is a question type '0' (for 'no').

  Let's practice a bit...", (press the spacebar to continue),6108c4f7300885ce920eb3c5,Spanish,13 or older,"no, only English or Spanish",no,2025-07-24_10h50.49.053,empathy_intonation_perc_control,2024.2.4,Win32,59.88023952,6108c4f7300885ce920eb3c5,68817205a84113384fffdfe3,68824806707eb8f4025ff33c,,,,,,,,,,,,,,,,,,,,,,,,,,,,,,,,,,,,,,,,,,,,,,,,,,,,,,,,,,,,,,,,,,,,,,,,,,,,,,,,,,,,,
,,,,,,,,,6108c4f7300885ce920eb3c5,Spanish,13 or older,"no, only English or Spanish",no,2025-07-24_10h50.49.053,empathy_intonation_perc_control,2024.2.4,Win32,59.88023952,6108c4f7300885ce920eb3c5,68817205a84113384fffdfe3,68824806707eb8f4025ff33c,15.4337,17.8828,1,1,1.915,,0,0,0,2,1,./stim/wavs/chilean_question_filler_Mi-padre-cantaba-bien.wav,1,,,,,,,,,,,,,,,,,,,,,,,,,,,,,,,,,,,,,,,,,,,,,,,,,,,,,,,,,,,,,,,,,,,,,,,,
,,,,,,,,,6108c4f7300885ce920eb3c5,Spanish,13 or older,"no, only English or Spanish",no,2025-07-24_10h50.49.053,empathy_intonation_perc_control,2024.2.4,Win32,59.88023952,6108c4f7300885ce920eb3c5,68817205a84113384fffdfe3,68824806707eb8f4025ff33c,17.8837,20.2491,1,1,1.8273,,0,1,1,3,1,./stim/wavs/mexican_question_filler_Felipe-no-tiene-contrasena.wav,1,,,,,,,,,,,,,,,,,,,,,,,,,,,,,,,,,,,,,,,,,,,,,,,,,,,,,,,,,,,,,,,,,,,,,,,,
,,,,,,,,,6108c4f7300885ce920eb3c5,Spanish,13 or older,"no, only English or Spanish",no,2025-07-24_10h50.49.053,empathy_intonation_perc_control,2024.2.4,Win32,59.88023952,6108c4f7300885ce920eb3c5,68817205a84113384fffdfe3,68824806707eb8f4025ff33c,20.2499,22.8656,0,1,2.0899,,0,2,2,7,1,./stim/wavs/puertorican_statement_filler_La-nina-pinta-con-su-amiga.wav,0,,,,,,,,,,,,,,,,,,,,,,,,,,,,,,,,,,,,,,,,,,,,,,,,,,,,,,,,,,,,,,,,,,,,,,,,
,,,,,,,,,6108c4f7300885ce920eb3c5,Spanish,13 or older,"no, only English or Spanish",no,2025-07-24_10h50.49.053,empathy_intonation_perc_control,2024.2.4,Win32,59.88023952,6108c4f7300885ce920eb3c5,68817205a84113384fffdfe3,68824806707eb8f4025ff33c,22.8662,25.7154,1,1,2.31,,0,3,3,1,1,./stim/wavs/argentine_question_filler_Mi-vecino-habla-mucho.wav,1,,,,,,,,,,,,,,,,,,,,,,,,,,,,,,,,,,,,,,,,,,,,,,,,,,,,,,,,,,,,,,,,,,,,,,,,
,,,,,,,,,6108c4f7300885ce920eb3c5,Spanish,13 or older,"no, only English or Spanish",no,2025-07-24_10h50.49.053,empathy_intonation_perc_control,2024.2.4,Win32,59.88023952,6108c4f7300885ce920eb3c5,68817205a84113384fffdfe3,68824806707eb8f4025ff33c,25.7159,27.8487,1,0,1.6066,,0,4,4,4,1,./stim/wavs/cuban_statement_filler_Cocinabas-por-la-noche.wav,0,,,,,,,,,,,,,,,,,,,,,,,,,,,,,,,,,,,,,,,,,,,,,,,,,,,,,,,,,,,,,,,,,,,,,,,,
,,,,,,,,,6108c4f7300885ce920eb3c5,Spanish,13 or older,"no, only English or Spanish",no,2025-07-24_10h50.49.053,empathy_intonation_perc_control,2024.2.4,Win32,59.88023952,6108c4f7300885ce920eb3c5,68817205a84113384fffdfe3,68824806707eb8f4025ff33c,27.8495,30.1987,1,1,1.823,,0,5,5,0,1,./stim/wavs/castilian_question_filler_Mi-esposo-conoce-al-chico.wav,1,,,,,,,,,,,,,,,,,,,,,,,,,,,,,,,,,,,,,,,,,,,,,,,,,,,,,,,,,,,,,,,,,,,,,,,,
,,,,,,,,,6108c4f7300885ce920eb3c5,Spanish,13 or older,"no, only English or Spanish",no,2025-07-24_10h50.49.053,empathy_intonation_perc_control,2024.2.4,Win32,59.88023952,6108c4f7300885ce920eb3c5,68817205a84113384fffdfe3,68824806707eb8f4025ff33c,30.1992,32.8488,0,1,2.1167,,0,6,6,6,1,./stim/wavs/peruvian_statement_filler_El-nino-habla-con-su-madre.wav,0,,,,,,,,,,,,,,,,,,,,,,,,,,,,,,,,,,,,,,,,,,,,,,,,,,,,,,,,,,,,,,,,,,,,,,,,
,,,,,,,,,6108c4f7300885ce920eb3c5,Spanish,13 or older,"no, only English or Spanish",no,2025-07-24_10h50.49.053,empathy_intonation_perc_control,2024.2.4,Win32,59.88023952,6108c4f7300885ce920eb3c5,68817205a84113384fffdfe3,68824806707eb8f4025ff33c,32.8495,35.2321,0,1,1.8491,,0,7,7,5,1,./stim/wavs/andalusian_statement_filler_Alberto-nunca-se-afeita.wav,0,,,,,,,,,,,,,,,,,,,,,,,,,,,,,,,,,,,,,,,,,,,,,,,,,,,,,,,,,,,,,,,,,,,,,,,,
,,,,,,,,,6108c4f7300885ce920eb3c5,Spanish,13 or older,"no, only English or Spanish",no,2025-07-24_10h50.49.053,empathy_intonation_perc_control,2024.2.4,Win32,59.88023952,6108c4f7300885ce920eb3c5,68817205a84113384fffdfe3,68824806707eb8f4025ff33c,,,,,,,,,,,,,,35.2327,38.9491,,,,,,,,,,,,,,,,,,,,,,,,,,,,,,,,,,,,,,,,,,,,,,,,,,,,,,,,,,,,,,,,,,,,,,
,,,,,,,,,6108c4f7300885ce920eb3c5,Spanish,13 or older,"no, only English or Spanish",no,2025-07-24_10h50.49.053,empathy_intonation_perc_control,2024.2.4,Win32,59.88023952,6108c4f7300885ce920eb3c5,68817205a84113384fffdfe3,68824806707eb8f4025ff33c,,,,,,,,,,,,./stim/wavs/puertorican_mismatch_declarative-broad-focus_La-maestra-vive-en-Paris.wav,0,,,38.9669,41.1837,0,1,1.691,,0,0,0,86,1,87,0,puertorican,,,,,,,,,,,,,,,,,,,,,,,,,,,,,,,,,,,,,,,,,,,,,,,,,,,,,,,,
,,,,,,,,,6108c4f7300885ce920eb3c5,Spanish,13 or older,"no, only English or Spanish",no,2025-07-24_10h50.49.053,empathy_intonation_perc_control,2024.2.4,Win32,59.88023952,6108c4f7300885ce920eb3c5,68817205a84113384fffdfe3,68824806707eb8f4025ff33c,,,,,,,,,,,,./stim/wavs/mexican_match_interrogative-total-yn_Ana-lleva-el-abrigo.wav,1,,,41.1845,43.1322,1,1,1.4168,,0,1,1,12,1,13,0,mexican,,,,,,,,,,,,,,,,,,,,,,,,,,,,,,,,,,,,,,,,,,,,,,,,,,,,,,,,
,,,,,,,,,6108c4f7300885ce920eb3c5,Spanish,13 or older,"no, only English or Spanish",no,2025-07-24_10h50.49.053,empathy_intonation_perc_control,2024.2.4,Win32,59.88023952,6108c4f7300885ce920eb3c5,68817205a84113384fffdfe3,68824806707eb8f4025ff33c,,,,,,,,,,,,./stim/wavs/cuban_mismatch_declarative-broad-focus_Mi-tia-odia-la-lluvia.wav,0,,,43.1332,45.7988,0,1,2.1334,,0,2,2,77,1,78,0,cuban,,,,,,,,,,,,,,,,,,,,,,,,,,,,,,,,,,,,,,,,,,,,,,,,,,,,,,,,
,,,,,,,,,6108c4f7300885ce920eb3c5,Spanish,13 or older,"no, only English or Spanish",no,2025-07-24_10h50.49.053,empathy_intonation_perc_control,2024.2.4,Win32,59.88023952,6108c4f7300885ce920eb3c5,68817205a84113384fffdfe3,68824806707eb8f4025ff33c,,,,,,,,,,,,./stim/wavs/castilian_match_declarative-broad-focus_Manuela-vende-el-carro.wav,0,,,45.7998,48.2154,0,1,1.8834,,0,3,3,46,1,47,0,castilian,,,,,,,,,,,,,,,,,,,,,,,,,,,,,,,,,,,,,,,,,,,,,,,,,,,,,,,,
,,,,,,,,,6108c4f7300885ce920eb3c5,Spanish,13 or older,"no, only English or Spanish",no,2025-07-24_10h50.49.053,empathy_intonation_perc_control,2024.2.4,Win32,59.88023952,6108c4f7300885ce920eb3c5,68817205a84113384fffdfe3,68824806707eb8f4025ff33c,,,,,,,,,,,,./stim/wavs/castilian_mismatch_interrogative-total-yn_La-nina-lava-el-plato.wav,1,,,48.2161,50.3653,1,1,1.6233,,0,4,4,25,1,26,0,castilian,,,,,,,,,,,,,,,,,,,,,,,,,,,,,,,,,,,,,,,,,,,,,,,,,,,,,,,,
,,,,,,,,,6108c4f7300885ce920eb3c5,Spanish,13 or older,"no, only English or Spanish",no,2025-07-24_10h50.49.053,empathy_intonation_perc_control,2024.2.4,Win32,59.88023952,6108c4f7300885ce920eb3c5,68817205a84113384fffdfe3,68824806707eb8f4025ff33c,,,,,,,,,,,,./stim/wavs/castilian_match_interrogative-total-yn_David-leia-el-libro.wav,1,,,50.3662,52.6321,1,1,1.7401,,0,5,5,0,1,1,0,castilian,,,,,,,,,,,,,,,,,,,,,,,,,,,,,,,,,,,,,,,,,,,,,,,,,,,,,,,,
,,,,,,,,,6108c4f7300885ce920eb3c5,Spanish,13 or older,"no, only English or Spanish",no,2025-07-24_10h50.49.053,empathy_intonation_perc_control,2024.2.4,Win32,59.88023952,6108c4f7300885ce920eb3c5,68817205a84113384fffdfe3,68824806707eb8f4025ff33c,,,,,,,,,,,,./stim/wavs/cuban_mismatch_interrogative-total-yn_El-nino-oye-el-rio.wav,1,,,52.6329,54.9985,0,0,1.8394,,0,6,6,30,1,31,1,cuban,,,,,,,,,,,,,,,,,,,,,,,,,,,,,,,,,,,,,,,,,,,,,,,,,,,,,,,,
,,,,,,,,,6108c4f7300885ce920eb3c5,Spanish,13 or older,"no, only English or Spanish",no,2025-07-24_10h50.49.053,empathy_intonation_perc_control,2024.2.4,Win32,59.88023952,6108c4f7300885ce920eb3c5,68817205a84113384fffdfe3,68824806707eb8f4025ff33c,,,,,,,,,,,,./stim/wavs/puertorican_match_interrogative-total-yn_Daniel-iba-a-Bolivia.wav,1,,,54.999,57.1819,0,0,1.6445,,0,7,7,19,1,20,1,puertorican,,,,,,,,,,,,,,,,,,,,,,,,,,,,,,,,,,,,,,,,,,,,,,,,,,,,,,,,
,,,,,,,,,6108c4f7300885ce920eb3c5,Spanish,13 or older,"no, only English or Spanish",no,2025-07-24_10h50.49.053,empathy_intonation_perc_control,2024.2.4,Win32,59.88023952,6108c4f7300885ce920eb3c5,68817205a84113384fffdfe3,68824806707eb8f4025ff33c,,,,,,,,,,,,./stim/wavs/castilian_mismatch_interrogative-total-yn_La-maestra-vive-en-Paris.wav,1,,,57.1828,59.5154,1,1,1.8001,,0,8,8,24,1,25,0,castilian,,,,,,,,,,,,,,,,,,,,,,,,,,,,,,,,,,,,,,,,,,,,,,,,,,,,,,,,
,,,,,,,,,6108c4f7300885ce920eb3c5,Spanish,13 or older,"no, only English or Spanish",no,2025-07-24_10h50.49.053,empathy_intonation_perc_control,2024.2.4,Win32,59.88023952,6108c4f7300885ce920eb3c5,68817205a84113384fffdfe3,68824806707eb8f4025ff33c,,,,,,,,,,,,./stim/wavs/puertorican_match_declarative-broad-focus_Emilio-ama-la-marcha.wav,0,,,59.5162,61.6,0,1,1.5568,,0,9,9,65,1,66,0,puertorican,,,,,,,,,,,,,,,,,,,,,,,,,,,,,,,,,,,,,,,,,,,,,,,,,,,,,,,,
,,,,,,,,,6108c4f7300885ce920eb3c5,Spanish,13 or older,"no, only English or Spanish",no,2025-07-24_10h50.49.053,empathy_intonation_perc_control,2024.2.4,Win32,59.88023952,6108c4f7300885ce920eb3c5,68817205a84113384fffdfe3,68824806707eb8f4025ff33c,,,,,,,,,,,,./stim/wavs/mexican_mismatch_interrogative-total-yn_El-nino-oye-el-rio.wav,1,,,61.6007,63.6156,1,1,1.4838,,0,10,10,35,1,36,0,mexican,,,,,,,,,,,,,,,,,,,,,,,,,,,,,,,,,,,,,,,,,,,,,,,,,,,,,,,,
,,,,,,,,,6108c4f7300885ce920eb3c5,Spanish,13 or older,"no, only English or Spanish",no,2025-07-24_10h50.49.053,empathy_intonation_perc_control,2024.2.4,Win32,59.88023952,6108c4f7300885ce920eb3c5,68817205a84113384fffdfe3,68824806707eb8f4025ff33c,,,,,,,,,,,,./stim/wavs/castilian_mismatch_interrogative-total-yn_Mi-novio-viene-del-lago.wav,1,,,63.6164,66.0985,1,1,1.944,,0,11,11,27,1,28,0,castilian,,,,,,,,,,,,,,,,,,,,,,,,,,,,,,,,,,,,,,,,,,,,,,,,,,,,,,,,
,,,,,,,,,6108c4f7300885ce920eb3c5,Spanish,13 or older,"no, only English or Spanish",no,2025-07-24_10h50.49.053,empathy_intonation_perc_control,2024.2.4,Win32,59.88023952,6108c4f7300885ce920eb3c5,68817205a84113384fffdfe3,68824806707eb8f4025ff33c,,,,,,,,,,,,./stim/wavs/puertorican_match_interrogative-total-yn_Manuela-vende-el-carro.wav,1,,,66.0994,68.482,1,1,1.8505,,0,12,12,22,1,23,1,puertorican,,,,,,,,,,,,,,,,,,,,,,,,,,,,,,,,,,,,,,,,,,,,,,,,,,,,,,,,
,,,,,,,,,6108c4f7300885ce920eb3c5,Spanish,13 or older,"no, only English or Spanish",no,2025-07-24_10h50.49.053,empathy_intonation_perc_control,2024.2.4,Win32,59.88023952,6108c4f7300885ce920eb3c5,68817205a84113384fffdfe3,68824806707eb8f4025ff33c,,,,,,,,,,,,./stim/wavs/castilian_match_interrogative-total-yn_Mariano-habla-del-tiempo.wav,1,,,68.4829,70.8152,1,1,1.8065,,0,13,13,4,1,5,0,castilian,,,,,,,,,,,,,,,,,,,,,,,,,,,,,,,,,,,,,,,,,,,,,,,,,,,,,,,,
,,,,,,,,,6108c4f7300885ce920eb3c5,Spanish,13 or older,"no, only English or Spanish",no,2025-07-24_10h50.49.053,empathy_intonation_perc_control,2024.2.4,Win32,59.88023952,6108c4f7300885ce920eb3c5,68817205a84113384fffdfe3,68824806707eb8f4025ff33c,,,,,,,,,,,,./stim/wavs/puertorican_match_declarative-broad-focus_Maria-bebe-el-vino.wav,0,,,70.8159,72.9652,0,1,1.6168,,0,14,14,67,1,68,0,puertorican,,,,,,,,,,,,,,,,,,,,,,,,,,,,,,,,,,,,,,,,,,,,,,,,,,,,,,,,
,,,,,,,,,6108c4f7300885ce920eb3c5,Spanish,13 or older,"no, only English or Spanish",no,2025-07-24_10h50.49.053,empathy_intonation_perc_control,2024.2.4,Win32,59.88023952,6108c4f7300885ce920eb3c5,68817205a84113384fffdfe3,68824806707eb8f4025ff33c,,,,,,,,,,,,./stim/wavs/cuban_match_declarative-broad-focus_Manuela-vende-el-carro.wav,0,,,72.9661,75.1827,0,1,1.6851,,0,15,15,52,1,53,0,cuban,,,,,,,,,,,,,,,,,,,,,,,,,,,,,,,,,,,,,,,,,,,,,,,,,,,,,,,,
,,,,,,,,,6108c4f7300885ce920eb3c5,Spanish,13 or older,"no, only English or Spanish",no,2025-07-24_10h50.49.053,empathy_intonation_perc_control,2024.2.4,Win32,59.88023952,6108c4f7300885ce920eb3c5,68817205a84113384fffdfe3,68824806707eb8f4025ff33c,,,,,,,,,,,,./stim/wavs/castilian_match_declarative-broad-focus_Marta-abre-el-regalo.wav,0,,,75.1836,77.3653,0,1,1.6503,,0,16,16,49,1,50,0,castilian,,,,,,,,,,,,,,,,,,,,,,,,,,,,,,,,,,,,,,,,,,,,,,,,,,,,,,,,
,,,,,,,,,6108c4f7300885ce920eb3c5,Spanish,13 or older,"no, only English or Spanish",no,2025-07-24_10h50.49.053,empathy_intonation_perc_control,2024.2.4,Win32,59.88023952,6108c4f7300885ce920eb3c5,68817205a84113384fffdfe3,68824806707eb8f4025ff33c,,,,,,,,,,,,./stim/wavs/cuban_match_interrogative-total-yn_Marta-abre-el-regalo.wav,1,,,77.366,79.3506,1,1,1.453,,0,17,17,11,1,12,1,cuban,,,,,,,,,,,,,,,,,,,,,,,,,,,,,,,,,,,,,,,,,,,,,,,,,,,,,,,,
,,,,,,,,,6108c4f7300885ce920eb3c5,Spanish,13 or older,"no, only English or Spanish",no,2025-07-24_10h50.49.053,empathy_intonation_perc_control,2024.2.4,Win32,59.88023952,6108c4f7300885ce920eb3c5,68817205a84113384fffdfe3,68824806707eb8f4025ff33c,,,,,,,,,,,,./stim/wavs/castilian_mismatch_declarative-broad-focus_La-maestra-vive-en-Paris.wav,0,,,79.3511,81.7483,0,1,1.8673,,0,18,18,69,1,70,0,castilian,,,,,,,,,,,,,,,,,,,,,,,,,,,,,,,,,,,,,,,,,,,,,,,,,,,,,,,,
,,,,,,,,,6108c4f7300885ce920eb3c5,Spanish,13 or older,"no, only English or Spanish",no,2025-07-24_10h50.49.053,empathy_intonation_perc_control,2024.2.4,Win32,59.88023952,6108c4f7300885ce920eb3c5,68817205a84113384fffdfe3,68824806707eb8f4025ff33c,,,,,,,,,,,,./stim/wavs/castilian_mismatch_declarative-broad-focus_El-nino-oye-el-rio.wav,0,,,81.7489,84.0816,0,1,1.8004,,0,19,19,68,1,69,0,castilian,,,,,,,,,,,,,,,,,,,,,,,,,,,,,,,,,,,,,,,,,,,,,,,,,,,,,,,,
,,,,,,,,,6108c4f7300885ce920eb3c5,Spanish,13 or older,"no, only English or Spanish",no,2025-07-24_10h50.49.053,empathy_intonation_perc_control,2024.2.4,Win32,59.88023952,6108c4f7300885ce920eb3c5,68817205a84113384fffdfe3,68824806707eb8f4025ff33c,,,,,,,,,,,,./stim/wavs/puertorican_match_interrogative-total-yn_David-leia-el-libro.wav,1,,,84.0827,86.0983,1,1,1.4896,,0,20,20,20,1,21,1,puertorican,,,,,,,,,,,,,,,,,,,,,,,,,,,,,,,,,,,,,,,,,,,,,,,,,,,,,,,,
,,,,,,,,,6108c4f7300885ce920eb3c5,Spanish,13 or older,"no, only English or Spanish",no,2025-07-24_10h50.49.053,empathy_intonation_perc_control,2024.2.4,Win32,59.88023952,6108c4f7300885ce920eb3c5,68817205a84113384fffdfe3,68824806707eb8f4025ff33c,,,,,,,,,,,,./stim/wavs/cuban_mismatch_interrogative-total-yn_El-hombre-mira-la-luna.wav,1,,,86.0987,88.0987,1,1,1.4607,,0,21,21,29,1,30,1,cuban,,,,,,,,,,,,,,,,,,,,,,,,,,,,,,,,,,,,,,,,,,,,,,,,,,,,,,,,
,,,,,,,,,6108c4f7300885ce920eb3c5,Spanish,13 or older,"no, only English or Spanish",no,2025-07-24_10h50.49.053,empathy_intonation_perc_control,2024.2.4,Win32,59.88023952,6108c4f7300885ce920eb3c5,68817205a84113384fffdfe3,68824806707eb8f4025ff33c,,,,,,,,,,,,./stim/wavs/castilian_mismatch_interrogative-total-yn_Mi-madre-come-la-fruta.wav,1,,,88.0994,90.465,1,1,1.8336,,0,22,22,26,1,27,0,castilian,,,,,,,,,,,,,,,,,,,,,,,,,,,,,,,,,,,,,,,,,,,,,,,,,,,,,,,,
,,,,,,,,,6108c4f7300885ce920eb3c5,Spanish,13 or older,"no, only English or Spanish",no,2025-07-24_10h50.49.053,empathy_intonation_perc_control,2024.2.4,Win32,59.88023952,6108c4f7300885ce920eb3c5,68817205a84113384fffdfe3,68824806707eb8f4025ff33c,,,,,,,,,,,,./stim/wavs/puertorican_match_declarative-broad-focus_Daniel-iba-a-Bolivia.wav,0,,,90.4659,92.7824,0,1,1.7911,,0,23,23,63,1,64,0,puertorican,,,,,,,,,,,,,,,,,,,,,,,,,,,,,,,,,,,,,,,,,,,,,,,,,,,,,,,,
,,,,,,,,,6108c4f7300885ce920eb3c5,Spanish,13 or older,"no, only English or Spanish",no,2025-07-24_10h50.49.053,empathy_intonation_perc_control,2024.2.4,Win32,59.88023952,6108c4f7300885ce920eb3c5,68817205a84113384fffdfe3,68824806707eb8f4025ff33c,,,,,,,,,,,,./stim/wavs/castilian_mismatch_interrogative-total-yn_Mi-tia-odia-la-lluvia.wav,1,,,92.7832,94.9817,1,1,1.6734,,0,24,24,28,1,29,0,castilian,,,,,,,,,,,,,,,,,,,,,,,,,,,,,,,,,,,,,,,,,,,,,,,,,,,,,,,,
,,,,,,,,,6108c4f7300885ce920eb3c5,Spanish,13 or older,"no, only English or Spanish",no,2025-07-24_10h50.49.053,empathy_intonation_perc_control,2024.2.4,Win32,59.88023952,6108c4f7300885ce920eb3c5,68817205a84113384fffdfe3,68824806707eb8f4025ff33c,,,,,,,,,,,,./stim/wavs/castilian_match_declarative-broad-focus_Mariano-habla-del-tiempo.wav,0,,,94.9829,97.3981,0,1,1.8832,,0,25,25,48,1,49,0,castilian,,,,,,,,,,,,,,,,,,,,,,,,,,,,,,,,,,,,,,,,,,,,,,,,,,,,,,,,
,,,,,,,,,6108c4f7300885ce920eb3c5,Spanish,13 or older,"no, only English or Spanish",no,2025-07-24_10h50.49.053,empathy_intonation_perc_control,2024.2.4,Win32,59.88023952,6108c4f7300885ce920eb3c5,68817205a84113384fffdfe3,68824806707eb8f4025ff33c,,,,,,,,,,,,./stim/wavs/castilian_match_interrogative-total-yn_Maria-bebe-el-vino.wav,1,,,97.3987,99.415,1,1,1.4901,,0,26,26,3,1,4,0,castilian,,,,,,,,,,,,,,,,,,,,,,,,,,,,,,,,,,,,,,,,,,,,,,,,,,,,,,,,
,,,,,,,,,6108c4f7300885ce920eb3c5,Spanish,13 or older,"no, only English or Spanish",no,2025-07-24_10h50.49.053,empathy_intonation_perc_control,2024.2.4,Win32,59.88023952,6108c4f7300885ce920eb3c5,68817205a84113384fffdfe3,68824806707eb8f4025ff33c,,,,,,,,,,,,./stim/wavs/mexican_mismatch_interrogative-total-yn_La-maestra-vive-en-Paris.wav,1,,,99.4156,101.7648,1,1,1.8232,,0,27,27,36,1,37,0,mexican,,,,,,,,,,,,,,,,,,,,,,,,,,,,,,,,,,,,,,,,,,,,,,,,,,,,,,,,
,,,,,,,,,6108c4f7300885ce920eb3c5,Spanish,13 or older,"no, only English or Spanish",no,2025-07-24_10h50.49.053,empathy_intonation_perc_control,2024.2.4,Win32,59.88023952,6108c4f7300885ce920eb3c5,68817205a84113384fffdfe3,68824806707eb8f4025ff33c,,,,,,,,,,,,./stim/wavs/puertorican_mismatch_declarative-broad-focus_El-hombre-mira-la-luna.wav,0,,,101.7653,104.0981,0,1,1.8003,,0,28,28,84,1,85,0,puertorican,,,,,,,,,,,,,,,,,,,,,,,,,,,,,,,,,,,,,,,,,,,,,,,,,,,,,,,,
,,,,,,,,,6108c4f7300885ce920eb3c5,Spanish,13 or older,"no, only English or Spanish",no,2025-07-24_10h50.49.053,empathy_intonation_perc_control,2024.2.4,Win32,59.88023952,6108c4f7300885ce920eb3c5,68817205a84113384fffdfe3,68824806707eb8f4025ff33c,,,,,,,,,,,,./stim/wavs/puertorican_mismatch_declarative-broad-focus_El-nino-oye-el-rio.wav,0,,,104.0987,106.0647,0,1,1.4401,,0,29,29,85,1,86,0,puertorican,,,,,,,,,,,,,,,,,,,,,,,,,,,,,,,,,,,,,,,,,,,,,,,,,,,,,,,,
,,,,,,,,,6108c4f7300885ce920eb3c5,Spanish,13 or older,"no, only English or Spanish",no,2025-07-24_10h50.49.053,empathy_intonation_perc_control,2024.2.4,Win32,59.88023952,6108c4f7300885ce920eb3c5,68817205a84113384fffdfe3,68824806707eb8f4025ff33c,,,,,,,,,,,,./stim/wavs/mexican_mismatch_interrogative-total-yn_Mi-novio-viene-del-lago.wav,1,,,106.0654,108.3981,1,1,1.8005,,0,30,30,37,1,38,0,mexican,,,,,,,,,,,,,,,,,,,,,,,,,,,,,,,,,,,,,,,,,,,,,,,,,,,,,,,,
,,,,,,,,,6108c4f7300885ce920eb3c5,Spanish,13 or older,"no, only English or Spanish",no,2025-07-24_10h50.49.053,empathy_intonation_perc_control,2024.2.4,Win32,59.88023952,6108c4f7300885ce920eb3c5,68817205a84113384fffdfe3,68824806707eb8f4025ff33c,,,,,,,,,,,,./stim/wavs/mexican_match_declarative-broad-focus_Mariano-habla-del-tiempo.wav,0,,,108.3988,110.4981,0,1,1.5692,,0,31,31,60,1,61,0,mexican,,,,,,,,,,,,,,,,,,,,,,,,,,,,,,,,,,,,,,,,,,,,,,,,,,,,,,,,
,,,,,,,,,6108c4f7300885ce920eb3c5,Spanish,13 or older,"no, only English or Spanish",no,2025-07-24_10h50.49.053,empathy_intonation_perc_control,2024.2.4,Win32,59.88023952,6108c4f7300885ce920eb3c5,68817205a84113384fffdfe3,68824806707eb8f4025ff33c,,,,,,,,,,,,./stim/wavs/mexican_mismatch_interrogative-total-yn_Mi-tia-odia-la-lluvia.wav,1,,,110.4988,112.4983,1,1,1.4669,,0,32,32,38,1,39,0,mexican,,,,,,,,,,,,,,,,,,,,,,,,,,,,,,,,,,,,,,,,,,,,,,,,,,,,,,,,
,,,,,,,,,6108c4f7300885ce920eb3c5,Spanish,13 or older,"no, only English or Spanish",no,2025-07-24_10h50.49.053,empathy_intonation_perc_control,2024.2.4,Win32,59.88023952,6108c4f7300885ce920eb3c5,68817205a84113384fffdfe3,68824806707eb8f4025ff33c,,,,,,,,,,,,./stim/wavs/mexican_match_interrogative-total-yn_David-leia-el-libro.wav,1,,,112.4992,114.565,1,1,1.5337,,0,33,33,14,1,15,0,mexican,,,,,,,,,,,,,,,,,,,,,,,,,,,,,,,,,,,,,,,,,,,,,,,,,,,,,,,,
,,,,,,,,,6108c4f7300885ce920eb3c5,Spanish,13 or older,"no, only English or Spanish",no,2025-07-24_10h50.49.053,empathy_intonation_perc_control,2024.2.4,Win32,59.88023952,6108c4f7300885ce920eb3c5,68817205a84113384fffdfe3,68824806707eb8f4025ff33c,,,,,,,,,,,,./stim/wavs/cuban_match_declarative-broad-focus_Marta-abre-el-regalo.wav,0,,,114.5657,116.715,0,1,1.6109,,0,34,34,55,1,56,0,cuban,,,,,,,,,,,,,,,,,,,,,,,,,,,,,,,,,,,,,,,,,,,,,,,,,,,,,,,,
,,,,,,,,,6108c4f7300885ce920eb3c5,Spanish,13 or older,"no, only English or Spanish",no,2025-07-24_10h50.49.053,empathy_intonation_perc_control,2024.2.4,Win32,59.88023952,6108c4f7300885ce920eb3c5,68817205a84113384fffdfe3,68824806707eb8f4025ff33c,,,,,,,,,,,,./stim/wavs/mexican_match_interrogative-total-yn_Daniel-iba-a-Bolivia.wav,1,,,116.716,118.8483,0,0,1.6008,,0,35,35,13,1,14,0,mexican,,,,,,,,,,,,,,,,,,,,,,,,,,,,,,,,,,,,,,,,,,,,,,,,,,,,,,,,
,,,,,,,,,6108c4f7300885ce920eb3c5,Spanish,13 or older,"no, only English or Spanish",no,2025-07-24_10h50.49.053,empathy_intonation_perc_control,2024.2.4,Win32,59.88023952,6108c4f7300885ce920eb3c5,68817205a84113384fffdfe3,68824806707eb8f4025ff33c,,,,,,,,,,,,./stim/wavs/puertorican_match_declarative-broad-focus_Manuela-vende-el-carro.wav,0,,,118.8493,120.9147,0,1,1.5289,,0,36,36,66,1,67,0,puertorican,,,,,,,,,,,,,,,,,,,,,,,,,,,,,,,,,,,,,,,,,,,,,,,,,,,,,,,,
,,,,,,,,,6108c4f7300885ce920eb3c5,Spanish,13 or older,"no, only English or Spanish",no,2025-07-24_10h50.49.053,empathy_intonation_perc_control,2024.2.4,Win32,59.88023952,6108c4f7300885ce920eb3c5,68817205a84113384fffdfe3,68824806707eb8f4025ff33c,,,,,,,,,,,,./stim/wavs/cuban_match_declarative-broad-focus_Mariano-habla-del-tiempo.wav,0,,,120.9156,123.2981,0,1,1.8568,,0,37,37,54,1,55,0,cuban,,,,,,,,,,,,,,,,,,,,,,,,,,,,,,,,,,,,,,,,,,,,,,,,,,,,,,,,
,,,,,,,,,6108c4f7300885ce920eb3c5,Spanish,13 or older,"no, only English or Spanish",no,2025-07-24_10h50.49.053,empathy_intonation_perc_control,2024.2.4,Win32,59.88023952,6108c4f7300885ce920eb3c5,68817205a84113384fffdfe3,68824806707eb8f4025ff33c,,,,,,,,,,,,./stim/wavs/cuban_mismatch_interrogative-total-yn_Mi-madre-come-la-fruta.wav,1,,,123.299,125.4317,1,1,1.5943,,0,38,38,31,1,32,1,cuban,,,,,,,,,,,,,,,,,,,,,,,,,,,,,,,,,,,,,,,,,,,,,,,,,,,,,,,,
,,,,,,,,,6108c4f7300885ce920eb3c5,Spanish,13 or older,"no, only English or Spanish",no,2025-07-24_10h50.49.053,empathy_intonation_perc_control,2024.2.4,Win32,59.88023952,6108c4f7300885ce920eb3c5,68817205a84113384fffdfe3,68824806707eb8f4025ff33c,,,,,,,,,,,,./stim/wavs/castilian_mismatch_declarative-broad-focus_Mi-tia-odia-la-lluvia.wav,0,,,125.4323,127.6814,0,1,1.7109,,0,39,39,72,1,73,0,castilian,,,,,,,,,,,,,,,,,,,,,,,,,,,,,,,,,,,,,,,,,,,,,,,,,,,,,,,,
,,,,,,,,,6108c4f7300885ce920eb3c5,Spanish,13 or older,"no, only English or Spanish",no,2025-07-24_10h50.49.053,empathy_intonation_perc_control,2024.2.4,Win32,59.88023952,6108c4f7300885ce920eb3c5,68817205a84113384fffdfe3,68824806707eb8f4025ff33c,,,,,,,,,,,,./stim/wavs/cuban_match_interrogative-total-yn_Manuela-vende-el-carro.wav,1,,,127.6822,129.6648,1,1,1.4506,,0,40,40,8,1,9,1,cuban,,,,,,,,,,,,,,,,,,,,,,,,,,,,,,,,,,,,,,,,,,,,,,,,,,,,,,,,
,,,,,,,,,6108c4f7300885ce920eb3c5,Spanish,13 or older,"no, only English or Spanish",no,2025-07-24_10h50.49.053,empathy_intonation_perc_control,2024.2.4,Win32,59.88023952,6108c4f7300885ce920eb3c5,68817205a84113384fffdfe3,68824806707eb8f4025ff33c,,,,,,,,,,,,./stim/wavs/cuban_match_declarative-broad-focus_Daniel-iba-a-Bolivia.wav,0,,,129.6656,131.6478,0,1,1.4436,,0,41,41,51,1,52,0,cuban,,,,,,,,,,,,,,,,,,,,,,,,,,,,,,,,,,,,,,,,,,,,,,,,,,,,,,,,
,,,,,,,,,6108c4f7300885ce920eb3c5,Spanish,13 or older,"no, only English or Spanish",no,2025-07-24_10h50.49.053,empathy_intonation_perc_control,2024.2.4,Win32,59.88023952,6108c4f7300885ce920eb3c5,68817205a84113384fffdfe3,68824806707eb8f4025ff33c,,,,,,,,,,,,./stim/wavs/mexican_match_interrogative-total-yn_Emilio-ama-la-marcha.wav,1,,,131.6485,133.6813,1,1,1.5068,,0,42,42,15,1,16,0,mexican,,,,,,,,,,,,,,,,,,,,,,,,,,,,,,,,,,,,,,,,,,,,,,,,,,,,,,,,
,,,,,,,,,6108c4f7300885ce920eb3c5,Spanish,13 or older,"no, only English or Spanish",no,2025-07-24_10h50.49.053,empathy_intonation_perc_control,2024.2.4,Win32,59.88023952,6108c4f7300885ce920eb3c5,68817205a84113384fffdfe3,68824806707eb8f4025ff33c,,,,,,,,,,,,./stim/wavs/mexican_match_declarative-broad-focus_Emilio-ama-la-marcha.wav,0,,,133.6824,135.9652,0,1,1.7587,,0,43,43,59,1,60,0,mexican,,,,,,,,,,,,,,,,,,,,,,,,,,,,,,,,,,,,,,,,,,,,,,,,,,,,,,,,
,,,,,,,,,6108c4f7300885ce920eb3c5,Spanish,13 or older,"no, only English or Spanish",no,2025-07-24_10h50.49.053,empathy_intonation_perc_control,2024.2.4,Win32,59.88023952,6108c4f7300885ce920eb3c5,68817205a84113384fffdfe3,68824806707eb8f4025ff33c,,,,,,,,,,,,./stim/wavs/mexican_match_declarative-broad-focus_Marta-abre-el-regalo.wav,0,,,135.9658,137.9311,0,1,1.434,,0,44,44,61,1,62,0,mexican,,,,,,,,,,,,,,,,,,,,,,,,,,,,,,,,,,,,,,,,,,,,,,,,,,,,,,,,
,,,,,,,,,6108c4f7300885ce920eb3c5,Spanish,13 or older,"no, only English or Spanish",no,2025-07-24_10h50.49.053,empathy_intonation_perc_control,2024.2.4,Win32,59.88023952,6108c4f7300885ce920eb3c5,68817205a84113384fffdfe3,68824806707eb8f4025ff33c,,,,,,,,,,,,./stim/wavs/castilian_match_interrogative-total-yn_Emilio-ama-la-marcha.wav,1,,,137.9317,140.0146,1,1,1.5506,,0,45,45,1,1,2,0,castilian,,,,,,,,,,,,,,,,,,,,,,,,,,,,,,,,,,,,,,,,,,,,,,,,,,,,,,,,
,,,,,,,,,6108c4f7300885ce920eb3c5,Spanish,13 or older,"no, only English or Spanish",no,2025-07-24_10h50.49.053,empathy_intonation_perc_control,2024.2.4,Win32,59.88023952,6108c4f7300885ce920eb3c5,68817205a84113384fffdfe3,68824806707eb8f4025ff33c,,,,,,,,,,,,./stim/wavs/cuban_mismatch_declarative-broad-focus_Mi-novio-viene-del-lago.wav,0,,,140.0154,142.1479,0,1,1.6002,,0,46,46,76,1,77,0,cuban,,,,,,,,,,,,,,,,,,,,,,,,,,,,,,,,,,,,,,,,,,,,,,,,,,,,,,,,
,,,,,,,,,6108c4f7300885ce920eb3c5,Spanish,13 or older,"no, only English or Spanish",no,2025-07-24_10h50.49.053,empathy_intonation_perc_control,2024.2.4,Win32,59.88023952,6108c4f7300885ce920eb3c5,68817205a84113384fffdfe3,68824806707eb8f4025ff33c,,,,,,,,,,,,./stim/wavs/castilian_match_interrogative-total-yn_Marta-abre-el-regalo.wav,1,,,142.1489,144.2977,1,1,1.617,,0,47,47,5,1,6,0,castilian,,,,,,,,,,,,,,,,,,,,,,,,,,,,,,,,,,,,,,,,,,,,,,,,,,,,,,,,
,,,,,,,,,6108c4f7300885ce920eb3c5,Spanish,13 or older,"no, only English or Spanish",no,2025-07-24_10h50.49.053,empathy_intonation_perc_control,2024.2.4,Win32,59.88023952,6108c4f7300885ce920eb3c5,68817205a84113384fffdfe3,68824806707eb8f4025ff33c,,,,,,,,,,,,./stim/wavs/cuban_match_interrogative-total-yn_Maria-bebe-el-vino.wav,1,,,144.2986,146.4157,0,0,1.5854,,0,48,48,9,1,10,1,cuban,,,,,,,,,,,,,,,,,,,,,,,,,,,,,,,,,,,,,,,,,,,,,,,,,,,,,,,,
,,,,,,,,,6108c4f7300885ce920eb3c5,Spanish,13 or older,"no, only English or Spanish",no,2025-07-24_10h50.49.053,empathy_intonation_perc_control,2024.2.4,Win32,59.88023952,6108c4f7300885ce920eb3c5,68817205a84113384fffdfe3,68824806707eb8f4025ff33c,,,,,,,,,,,,./stim/wavs/mexican_match_declarative-broad-focus_Daniel-iba-a-Bolivia.wav,0,,,146.4165,148.4644,0,1,1.5233,,0,49,49,57,1,58,0,mexican,,,,,,,,,,,,,,,,,,,,,,,,,,,,,,,,,,,,,,,,,,,,,,,,,,,,,,,,
,,,,,,,,,6108c4f7300885ce920eb3c5,Spanish,13 or older,"no, only English or Spanish",no,2025-07-24_10h50.49.053,empathy_intonation_perc_control,2024.2.4,Win32,59.88023952,6108c4f7300885ce920eb3c5,68817205a84113384fffdfe3,68824806707eb8f4025ff33c,,,,,,,,,,,,./stim/wavs/cuban_match_declarative-broad-focus_Maria-bebe-el-vino.wav,0,,,148.4652,150.5311,0,1,1.5335,,0,50,50,53,1,54,0,cuban,,,,,,,,,,,,,,,,,,,,,,,,,,,,,,,,,,,,,,,,,,,,,,,,,,,,,,,,
,,,,,,,,,6108c4f7300885ce920eb3c5,Spanish,13 or older,"no, only English or Spanish",no,2025-07-24_10h50.49.053,empathy_intonation_perc_control,2024.2.4,Win32,59.88023952,6108c4f7300885ce920eb3c5,68817205a84113384fffdfe3,68824806707eb8f4025ff33c,,,,,,,,,,,,./stim/wavs/puertorican_mismatch_declarative-broad-focus_El-bebe-comia-muy-bien.wav,0,,,150.532,152.6978,0,1,1.6337,,0,51,51,83,1,84,0,puertorican,,,,,,,,,,,,,,,,,,,,,,,,,,,,,,,,,,,,,,,,,,,,,,,,,,,,,,,,
,,,,,,,,,6108c4f7300885ce920eb3c5,Spanish,13 or older,"no, only English or Spanish",no,2025-07-24_10h50.49.053,empathy_intonation_perc_control,2024.2.4,Win32,59.88023952,6108c4f7300885ce920eb3c5,68817205a84113384fffdfe3,68824806707eb8f4025ff33c,,,,,,,,,,,,./stim/wavs/castilian_match_declarative-broad-focus_Emilio-ama-la-marcha.wav,0,,,152.6984,154.831,1,0,1.6001,,0,52,52,45,1,46,0,castilian,,,,,,,,,,,,,,,,,,,,,,,,,,,,,,,,,,,,,,,,,,,,,,,,,,,,,,,,
,,,,,,,,,6108c4f7300885ce920eb3c5,Spanish,13 or older,"no, only English or Spanish",no,2025-07-24_10h50.49.053,empathy_intonation_perc_control,2024.2.4,Win32,59.88023952,6108c4f7300885ce920eb3c5,68817205a84113384fffdfe3,68824806707eb8f4025ff33c,,,,,,,,,,,,./stim/wavs/cuban_mismatch_interrogative-total-yn_Mi-novio-viene-del-lago.wav,1,,,154.8317,157.0975,1,1,1.7336,,0,53,53,32,1,33,1,cuban,,,,,,,,,,,,,,,,,,,,,,,,,,,,,,,,,,,,,,,,,,,,,,,,,,,,,,,,
,,,,,,,,,6108c4f7300885ce920eb3c5,Spanish,13 or older,"no, only English or Spanish",no,2025-07-24_10h50.49.053,empathy_intonation_perc_control,2024.2.4,Win32,59.88023952,6108c4f7300885ce920eb3c5,68817205a84113384fffdfe3,68824806707eb8f4025ff33c,,,,,,,,,,,,./stim/wavs/mexican_match_declarative-broad-focus_Ana-lleva-el-abrigo.wav,0,,,157.0984,159.3978,0,1,1.7672,,0,54,54,56,1,57,0,mexican,,,,,,,,,,,,,,,,,,,,,,,,,,,,,,,,,,,,,,,,,,,,,,,,,,,,,,,,
,,,,,,,,,6108c4f7300885ce920eb3c5,Spanish,13 or older,"no, only English or Spanish",no,2025-07-24_10h50.49.053,empathy_intonation_perc_control,2024.2.4,Win32,59.88023952,6108c4f7300885ce920eb3c5,68817205a84113384fffdfe3,68824806707eb8f4025ff33c,,,,,,,,,,,,./stim/wavs/castilian_match_declarative-broad-focus_David-leia-el-libro.wav,0,,,159.3995,161.7478,0,1,1.8169,,0,55,55,44,1,45,0,castilian,,,,,,,,,,,,,,,,,,,,,,,,,,,,,,,,,,,,,,,,,,,,,,,,,,,,,,,,
,,,,,,,,,6108c4f7300885ce920eb3c5,Spanish,13 or older,"no, only English or Spanish",no,2025-07-24_10h50.49.053,empathy_intonation_perc_control,2024.2.4,Win32,59.88023952,6108c4f7300885ce920eb3c5,68817205a84113384fffdfe3,68824806707eb8f4025ff33c,,,,,,,,,,,,./stim/wavs/cuban_match_declarative-broad-focus_Ana-lleva-el-abrigo.wav,0,,,161.7485,163.9641,0,1,1.6901,,0,56,56,50,1,51,0,cuban,,,,,,,,,,,,,,,,,,,,,,,,,,,,,,,,,,,,,,,,,,,,,,,,,,,,,,,,
,,,,,,,,,6108c4f7300885ce920eb3c5,Spanish,13 or older,"no, only English or Spanish",no,2025-07-24_10h50.49.053,empathy_intonation_perc_control,2024.2.4,Win32,59.88023952,6108c4f7300885ce920eb3c5,68817205a84113384fffdfe3,68824806707eb8f4025ff33c,,,,,,,,,,,,./stim/wavs/castilian_mismatch_declarative-broad-focus_Mi-novio-viene-del-lago.wav,0,,,163.9648,166.2643,0,1,1.7734,,0,57,57,71,1,72,0,castilian,,,,,,,,,,,,,,,,,,,,,,,,,,,,,,,,,,,,,,,,,,,,,,,,,,,,,,,,
,,,,,,,,,6108c4f7300885ce920eb3c5,Spanish,13 or older,"no, only English or Spanish",no,2025-07-24_10h50.49.053,empathy_intonation_perc_control,2024.2.4,Win32,59.88023952,6108c4f7300885ce920eb3c5,68817205a84113384fffdfe3,68824806707eb8f4025ff33c,,,,,,,,,,,,./stim/wavs/puertorican_match_interrogative-total-yn_Ana-lleva-el-abrigo.wav,1,,,166.265,168.1147,1,1,1.3172,,0,58,58,18,1,19,1,puertorican,,,,,,,,,,,,,,,,,,,,,,,,,,,,,,,,,,,,,,,,,,,,,,,,,,,,,,,,
,,,,,,,,,6108c4f7300885ce920eb3c5,Spanish,13 or older,"no, only English or Spanish",no,2025-07-24_10h50.49.053,empathy_intonation_perc_control,2024.2.4,Win32,59.88023952,6108c4f7300885ce920eb3c5,68817205a84113384fffdfe3,68824806707eb8f4025ff33c,,,,,,,,,,,,./stim/wavs/castilian_mismatch_declarative-broad-focus_La-nina-lava-el-plato.wav,0,,,168.1154,170.3812,0,1,1.7325,,0,59,59,70,1,71,0,castilian,,,,,,,,,,,,,,,,,,,,,,,,,,,,,,,,,,,,,,,,,,,,,,,,,,,,,,,,
,,,,,,,,,6108c4f7300885ce920eb3c5,Spanish,13 or older,"no, only English or Spanish",no,2025-07-24_10h50.49.053,empathy_intonation_perc_control,2024.2.4,Win32,59.88023952,6108c4f7300885ce920eb3c5,68817205a84113384fffdfe3,68824806707eb8f4025ff33c,,,,,,,,,,,,./stim/wavs/puertorican_match_declarative-broad-focus_David-leia-el-libro.wav,0,,,170.382,172.4309,0,1,1.5172,,0,60,60,64,1,65,0,puertorican,,,,,,,,,,,,,,,,,,,,,,,,,,,,,,,,,,,,,,,,,,,,,,,,,,,,,,,,
,,,,,,,,,6108c4f7300885ce920eb3c5,Spanish,13 or older,"no, only English or Spanish",no,2025-07-24_10h50.49.053,empathy_intonation_perc_control,2024.2.4,Win32,59.88023952,6108c4f7300885ce920eb3c5,68817205a84113384fffdfe3,68824806707eb8f4025ff33c,,,,,,,,,,,,./stim/wavs/cuban_match_interrogative-total-yn_Ana-lleva-el-abrigo.wav,1,,,172.4318,174.2808,0,0,1.3234,,0,61,61,6,1,7,1,cuban,,,,,,,,,,,,,,,,,,,,,,,,,,,,,,,,,,,,,,,,,,,,,,,,,,,,,,,,
,,,,,,,,,6108c4f7300885ce920eb3c5,Spanish,13 or older,"no, only English or Spanish",no,2025-07-24_10h50.49.053,empathy_intonation_perc_control,2024.2.4,Win32,59.88023952,6108c4f7300885ce920eb3c5,68817205a84113384fffdfe3,68824806707eb8f4025ff33c,,,,,,,,,,,,./stim/wavs/mexican_mismatch_declarative-broad-focus_Mi-tia-odia-la-lluvia.wav,0,,,174.2813,176.3309,0,1,1.5229,,0,62,62,82,1,83,0,mexican,,,,,,,,,,,,,,,,,,,,,,,,,,,,,,,,,,,,,,,,,,,,,,,,,,,,,,,,
,,,,,,,,,6108c4f7300885ce920eb3c5,Spanish,13 or older,"no, only English or Spanish",no,2025-07-24_10h50.49.053,empathy_intonation_perc_control,2024.2.4,Win32,59.88023952,6108c4f7300885ce920eb3c5,68817205a84113384fffdfe3,68824806707eb8f4025ff33c,,,,,,,,,,,,./stim/wavs/mexican_match_interrogative-total-yn_Mariano-habla-del-tiempo.wav,1,,,176.3318,178.6476,1,1,1.7836,,0,63,63,16,1,17,0,mexican,,,,,,,,,,,,,,,,,,,,,,,,,,,,,,,,,,,,,,,,,,,,,,,,,,,,,,,,
,,,,,,,,,6108c4f7300885ce920eb3c5,Spanish,13 or older,"no, only English or Spanish",no,2025-07-24_10h50.49.053,empathy_intonation_perc_control,2024.2.4,Win32,59.88023952,6108c4f7300885ce920eb3c5,68817205a84113384fffdfe3,68824806707eb8f4025ff33c,,,,,,,,,,,,./stim/wavs/mexican_mismatch_interrogative-total-yn_El-hombre-mira-la-luna.wav,1,,,178.6487,180.781,1,1,1.6064,,0,64,64,34,1,35,0,mexican,,,,,,,,,,,,,,,,,,,,,,,,,,,,,,,,,,,,,,,,,,,,,,,,,,,,,,,,
,,,,,,,,,6108c4f7300885ce920eb3c5,Spanish,13 or older,"no, only English or Spanish",no,2025-07-24_10h50.49.053,empathy_intonation_perc_control,2024.2.4,Win32,59.88023952,6108c4f7300885ce920eb3c5,68817205a84113384fffdfe3,68824806707eb8f4025ff33c,,,,,,,,,,,,./stim/wavs/puertorican_match_interrogative-total-yn_Emilio-ama-la-marcha.wav,1,,,180.7818,182.8309,1,1,1.5167,,0,65,65,21,1,22,1,puertorican,,,,,,,,,,,,,,,,,,,,,,,,,,,,,,,,,,,,,,,,,,,,,,,,,,,,,,,,
,,,,,,,,,6108c4f7300885ce920eb3c5,Spanish,13 or older,"no, only English or Spanish",no,2025-07-24_10h50.49.053,empathy_intonation_perc_control,2024.2.4,Win32,59.88023952,6108c4f7300885ce920eb3c5,68817205a84113384fffdfe3,68824806707eb8f4025ff33c,,,,,,,,,,,,./stim/wavs/puertorican_mismatch_interrogative-total-yn_La-maestra-vive-en-Paris.wav,1,,,182.8317,185.5644,1,1,2.2065,,0,66,66,41,1,42,1,puertorican,,,,,,,,,,,,,,,,,,,,,,,,,,,,,,,,,,,,,,,,,,,,,,,,,,,,,,,,
,,,,,,,,,6108c4f7300885ce920eb3c5,Spanish,13 or older,"no, only English or Spanish",no,2025-07-24_10h50.49.053,empathy_intonation_perc_control,2024.2.4,Win32,59.88023952,6108c4f7300885ce920eb3c5,68817205a84113384fffdfe3,68824806707eb8f4025ff33c,,,,,,,,,,,,./stim/wavs/castilian_match_interrogative-total-yn_Manuela-vende-el-carro.wav,1,,,185.5652,187.8642,1,1,1.7671,,0,67,67,2,1,3,0,castilian,,,,,,,,,,,,,,,,,,,,,,,,,,,,,,,,,,,,,,,,,,,,,,,,,,,,,,,,
,,,,,,,,,6108c4f7300885ce920eb3c5,Spanish,13 or older,"no, only English or Spanish",no,2025-07-24_10h50.49.053,empathy_intonation_perc_control,2024.2.4,Win32,59.88023952,6108c4f7300885ce920eb3c5,68817205a84113384fffdfe3,68824806707eb8f4025ff33c,,,,,,,,,,,,./stim/wavs/cuban_match_interrogative-total-yn_Daniel-iba-a-Bolivia.wav,1,,,187.865,189.9143,1,1,1.517,,0,68,68,7,1,8,1,cuban,,,,,,,,,,,,,,,,,,,,,,,,,,,,,,,,,,,,,,,,,,,,,,,,,,,,,,,,
,,,,,,,,,6108c4f7300885ce920eb3c5,Spanish,13 or older,"no, only English or Spanish",no,2025-07-24_10h50.49.053,empathy_intonation_perc_control,2024.2.4,Win32,59.88023952,6108c4f7300885ce920eb3c5,68817205a84113384fffdfe3,68824806707eb8f4025ff33c,,,,,,,,,,,,./stim/wavs/puertorican_mismatch_interrogative-total-yn_La-nina-lava-el-plato.wav,1,,,189.9149,191.9642,1,1,1.5174,,0,69,69,42,1,43,1,puertorican,,,,,,,,,,,,,,,,,,,,,,,,,,,,,,,,,,,,,,,,,,,,,,,,,,,,,,,,
,,,,,,,,,6108c4f7300885ce920eb3c5,Spanish,13 or older,"no, only English or Spanish",no,2025-07-24_10h50.49.053,empathy_intonation_perc_control,2024.2.4,Win32,59.88023952,6108c4f7300885ce920eb3c5,68817205a84113384fffdfe3,68824806707eb8f4025ff33c,,,,,,,,,,,,./stim/wavs/cuban_mismatch_declarative-broad-focus_La-nina-lava-el-plato.wav,0,,,191.9649,193.9473,1,0,1.4504,,0,70,70,75,1,76,0,cuban,,,,,,,,,,,,,,,,,,,,,,,,,,,,,,,,,,,,,,,,,,,,,,,,,,,,,,,,
,,,,,,,,,6108c4f7300885ce920eb3c5,Spanish,13 or older,"no, only English or Spanish",no,2025-07-24_10h50.49.053,empathy_intonation_perc_control,2024.2.4,Win32,59.88023952,6108c4f7300885ce920eb3c5,68817205a84113384fffdfe3,68824806707eb8f4025ff33c,,,,,,,,,,,,./stim/wavs/puertorican_mismatch_declarative-broad-focus_La-nina-lava-el-plato.wav,0,,,193.9479,196.0474,0,1,1.5731,,0,71,71,87,1,88,0,puertorican,,,,,,,,,,,,,,,,,,,,,,,,,,,,,,,,,,,,,,,,,,,,,,,,,,,,,,,,
,,,,,,,,,6108c4f7300885ce920eb3c5,Spanish,13 or older,"no, only English or Spanish",no,2025-07-24_10h50.49.053,empathy_intonation_perc_control,2024.2.4,Win32,59.88023952,6108c4f7300885ce920eb3c5,68817205a84113384fffdfe3,68824806707eb8f4025ff33c,,,,,,,,,,,,./stim/wavs/cuban_mismatch_declarative-broad-focus_El-hombre-mira-la-luna.wav,0,,,196.0481,198.3639,0,1,1.7836,,0,72,72,74,1,75,0,cuban,,,,,,,,,,,,,,,,,,,,,,,,,,,,,,,,,,,,,,,,,,,,,,,,,,,,,,,,
,,,,,,,,,6108c4f7300885ce920eb3c5,Spanish,13 or older,"no, only English or Spanish",no,2025-07-24_10h50.49.053,empathy_intonation_perc_control,2024.2.4,Win32,59.88023952,6108c4f7300885ce920eb3c5,68817205a84113384fffdfe3,68824806707eb8f4025ff33c,,,,,,,,,,,,./stim/wavs/mexican_match_interrogative-total-yn_Marta-abre-el-regalo.wav,1,,,198.3644,200.281,1,1,1.3837,,0,73,73,17,1,18,0,mexican,,,,,,,,,,,,,,,,,,,,,,,,,,,,,,,,,,,,,,,,,,,,,,,,,,,,,,,,
,,,,,,,,,6108c4f7300885ce920eb3c5,Spanish,13 or older,"no, only English or Spanish",no,2025-07-24_10h50.49.053,empathy_intonation_perc_control,2024.2.4,Win32,59.88023952,6108c4f7300885ce920eb3c5,68817205a84113384fffdfe3,68824806707eb8f4025ff33c,,,,,,,,,,,,./stim/wavs/mexican_mismatch_declarative-broad-focus_El-hombre-mira-la-luna.wav,0,,,200.2817,202.4472,0,1,1.6335,,0,74,74,79,1,80,0,mexican,,,,,,,,,,,,,,,,,,,,,,,,,,,,,,,,,,,,,,,,,,,,,,,,,,,,,,,,
,,,,,,,,,6108c4f7300885ce920eb3c5,Spanish,13 or older,"no, only English or Spanish",no,2025-07-24_10h50.49.053,empathy_intonation_perc_control,2024.2.4,Win32,59.88023952,6108c4f7300885ce920eb3c5,68817205a84113384fffdfe3,68824806707eb8f4025ff33c,,,,,,,,,,,,./stim/wavs/cuban_mismatch_interrogative-total-yn_Mi-tia-odia-la-lluvia.wav,1,,,202.4477,204.7305,1,1,1.7567,,0,75,75,33,1,34,1,cuban,,,,,,,,,,,,,,,,,,,,,,,,,,,,,,,,,,,,,,,,,,,,,,,,,,,,,,,,
,,,,,,,,,6108c4f7300885ce920eb3c5,Spanish,13 or older,"no, only English or Spanish",no,2025-07-24_10h50.49.053,empathy_intonation_perc_control,2024.2.4,Win32,59.88023952,6108c4f7300885ce920eb3c5,68817205a84113384fffdfe3,68824806707eb8f4025ff33c,,,,,,,,,,,,./stim/wavs/puertorican_mismatch_interrogative-total-yn_El-hombre-mira-la-luna.wav,1,,,204.731,206.8474,1,1,1.5836,,0,76,76,39,1,40,1,puertorican,,,,,,,,,,,,,,,,,,,,,,,,,,,,,,,,,,,,,,,,,,,,,,,,,,,,,,,,
,,,,,,,,,6108c4f7300885ce920eb3c5,Spanish,13 or older,"no, only English or Spanish",no,2025-07-24_10h50.49.053,empathy_intonation_perc_control,2024.2.4,Win32,59.88023952,6108c4f7300885ce920eb3c5,68817205a84113384fffdfe3,68824806707eb8f4025ff33c,,,,,,,,,,,,./stim/wavs/puertorican_mismatch_interrogative-total-yn_El-nino-oye-el-rio.wav,1,,,206.8483,208.8309,1,1,1.4504,,0,77,77,40,1,41,1,puertorican,,,,,,,,,,,,,,,,,,,,,,,,,,,,,,,,,,,,,,,,,,,,,,,,,,,,,,,,
,,,,,,,,,6108c4f7300885ce920eb3c5,Spanish,13 or older,"no, only English or Spanish",no,2025-07-24_10h50.49.053,empathy_intonation_perc_control,2024.2.4,Win32,59.88023952,6108c4f7300885ce920eb3c5,68817205a84113384fffdfe3,68824806707eb8f4025ff33c,,,,,,,,,,,,./stim/wavs/puertorican_mismatch_interrogative-total-yn_Mi-madre-come-la-fruta.wav,1,,,208.8317,210.8473,0,0,1.49,,0,78,78,43,1,44,1,puertorican,,,,,,,,,,,,,,,,,,,,,,,,,,,,,,,,,,,,,,,,,,,,,,,,,,,,,,,,
,,,,,,,,,6108c4f7300885ce920eb3c5,Spanish,13 or older,"no, only English or Spanish",no,2025-07-24_10h50.49.053,empathy_intonation_perc_control,2024.2.4,Win32,59.88023952,6108c4f7300885ce920eb3c5,68817205a84113384fffdfe3,68824806707eb8f4025ff33c,,,,,,,,,,,,./stim/wavs/mexican_mismatch_declarative-broad-focus_La-maestra-vive-en-Paris.wav,0,,,210.8481,213.064,0,1,1.6837,,0,79,79,80,1,81,0,mexican,,,,,,,,,,,,,,,,,,,,,,,,,,,,,,,,,,,,,,,,,,,,,,,,,,,,,,,,
,,,,,,,,,6108c4f7300885ce920eb3c5,Spanish,13 or older,"no, only English or Spanish",no,2025-07-24_10h50.49.053,empathy_intonation_perc_control,2024.2.4,Win32,59.88023952,6108c4f7300885ce920eb3c5,68817205a84113384fffdfe3,68824806707eb8f4025ff33c,,,,,,,,,,,,./stim/wavs/puertorican_match_declarative-broad-focus_Ana-lleva-el-abrigo.wav,0,,,213.0647,214.9805,0,1,1.3838,,0,80,80,62,1,63,0,puertorican,,,,,,,,,,,,,,,,,,,,,,,,,,,,,,,,,,,,,,,,,,,,,,,,,,,,,,,,
,,,,,,,,,6108c4f7300885ce920eb3c5,Spanish,13 or older,"no, only English or Spanish",no,2025-07-24_10h50.49.053,empathy_intonation_perc_control,2024.2.4,Win32,59.88023952,6108c4f7300885ce920eb3c5,68817205a84113384fffdfe3,68824806707eb8f4025ff33c,,,,,,,,,,,,./stim/wavs/puertorican_match_interrogative-total-yn_Maria-bebe-el-vino.wav,1,,,214.9811,216.7308,1,1,1.2234,,0,81,81,23,1,24,1,puertorican,,,,,,,,,,,,,,,,,,,,,,,,,,,,,,,,,,,,,,,,,,,,,,,,,,,,,,,,
,,,,,,,,,6108c4f7300885ce920eb3c5,Spanish,13 or older,"no, only English or Spanish",no,2025-07-24_10h50.49.053,empathy_intonation_perc_control,2024.2.4,Win32,59.88023952,6108c4f7300885ce920eb3c5,68817205a84113384fffdfe3,68824806707eb8f4025ff33c,,,,,,,,,,,,./stim/wavs/mexican_mismatch_declarative-broad-focus_Mi-novio-viene-del-lago.wav,0,,,216.7318,218.8638,0,1,1.6,,0,82,82,81,1,82,0,mexican,,,,,,,,,,,,,,,,,,,,,,,,,,,,,,,,,,,,,,,,,,,,,,,,,,,,,,,,
,,,,,,,,,6108c4f7300885ce920eb3c5,Spanish,13 or older,"no, only English or Spanish",no,2025-07-24_10h50.49.053,empathy_intonation_perc_control,2024.2.4,Win32,59.88023952,6108c4f7300885ce920eb3c5,68817205a84113384fffdfe3,68824806707eb8f4025ff33c,,,,,,,,,,,,./stim/wavs/cuban_mismatch_declarative-broad-focus_El-bebe-comia-muy-bien.wav,0,,,218.8642,220.9472,0,1,1.5441,,0,83,83,73,1,74,0,cuban,,,,,,,,,,,,,,,,,,,,,,,,,,,,,,,,,,,,,,,,,,,,,,,,,,,,,,,,
,,,,,,,,,6108c4f7300885ce920eb3c5,Spanish,13 or older,"no, only English or Spanish",no,2025-07-24_10h50.49.053,empathy_intonation_perc_control,2024.2.4,Win32,59.88023952,6108c4f7300885ce920eb3c5,68817205a84113384fffdfe3,68824806707eb8f4025ff33c,,,,,,,,,,,,./stim/wavs/cuban_match_interrogative-total-yn_Mariano-habla-del-tiempo.wav,1,,,220.9479,223.0141,1,1,1.5338,,0,84,84,10,1,11,1,cuban,,,,,,,,,,,,,,,,,,,,,,,,,,,,,,,,,,,,,,,,,,,,,,,,,,,,,,,,
,,,,,,,,,6108c4f7300885ce920eb3c5,Spanish,13 or older,"no, only English or Spanish",no,2025-07-24_10h50.49.053,empathy_intonation_perc_control,2024.2.4,Win32,59.88023952,6108c4f7300885ce920eb3c5,68817205a84113384fffdfe3,68824806707eb8f4025ff33c,,,,,,,,,,,,./stim/wavs/castilian_match_declarative-broad-focus_Maria-bebe-el-vino.wav,0,,,223.0149,225.247,0,1,1.6943,,0,85,85,47,1,48,0,castilian,,,,,,,,,,,,,,,,,,,,,,,,,,,,,,,,,,,,,,,,,,,,,,,,,,,,,,,,
,,,,,,,,,6108c4f7300885ce920eb3c5,Spanish,13 or older,"no, only English or Spanish",no,2025-07-24_10h50.49.053,empathy_intonation_perc_control,2024.2.4,Win32,59.88023952,6108c4f7300885ce920eb3c5,68817205a84113384fffdfe3,68824806707eb8f4025ff33c,,,,,,,,,,,,./stim/wavs/mexican_match_declarative-broad-focus_David-leia-el-libro.wav,0,,,225.2478,227.4138,0,1,1.64,,0,86,86,58,1,59,0,mexican,,,,,,,,,,,,,,,,,,,,,,,,,,,,,,,,,,,,,,,,,,,,,,,,,,,,,,,,
,,,,,,,,,6108c4f7300885ce920eb3c5,Spanish,13 or older,"no, only English or Spanish",no,2025-07-24_10h50.49.053,empathy_intonation_perc_control,2024.2.4,Win32,59.88023952,6108c4f7300885ce920eb3c5,68817205a84113384fffdfe3,68824806707eb8f4025ff33c,,,,,,,,,,,,./stim/wavs/mexican_mismatch_declarative-broad-focus_El-bebe-comia-muy-bien.wav,0,,,227.4146,229.7305,1,0,1.784,,0,87,87,78,1,79,0,mexican,,,,,,,,,,,,,,,,,,,,,,,,,,,,,,,,,,,,,,,,,,,,,,,,,,,,,,,,
,,,,,,,"Great! Now we will move on. The next task consists of about 60 trials, in each of which you will see a string of letters. 
  
  Your task is to decide whether this is a real Spanish word or not.", (press the spacebar to continue),6108c4f7300885ce920eb3c5,Spanish,13 or older,"no, only English or Spanish",no,2025-07-24_10h50.49.053,empathy_intonation_perc_control,2024.2.4,Win32,59.88023952,6108c4f7300885ce920eb3c5,68817205a84113384fffdfe3,68824806707eb8f4025ff33c,,,,,,,,,,,,,,,,,,,,,,,,,,,,,,229.7389,236.2973,0,0,0,0,1,,,,,,,,,,,,,,,,,,,,,,,,,,,,,,,,,,,,,,,,,,,,,,,,,
,,,,,,,"If you think it is an existing Spanish word, you type '1' (for 'REAL'), and if you think it is not an existing Spanish word, you type '0' (for 'FAKE').", (press the spacebar to continue),6108c4f7300885ce920eb3c5,Spanish,13 or older,"no, only English or Spanish",no,2025-07-24_10h50.49.053,empathy_intonation_perc_control,2024.2.4,Win32,59.88023952,6108c4f7300885ce920eb3c5,68817205a84113384fffdfe3,68824806707eb8f4025ff33c,,,,,,,,,,,,,,,,,,,,,,,,,,,,,,236.3012,239.5974,0,1,1,1,1,,,,,,,,,,,,,,,,,,,,,,,,,,,,,,,,,,,,,,,,,,,,,,,,,
,,,,,,,"If you are sure that the word exists, even though you don’t know its exact meaning, you may still respond '1' (REAL). 
  
  But if you are not sure if it is an existing word, you should respond '0' (FAKE).
  
  Let's do a practice round...", (press the spacebar to continue),6108c4f7300885ce920eb3c5,Spanish,13 or older,"no, only English or Spanish",no,2025-07-24_10h50.49.053,empathy_intonation_perc_control,2024.2.4,Win32,59.88023952,6108c4f7300885ce920eb3c5,68817205a84113384fffdfe3,68824806707eb8f4025ff33c,,,,,,,,,,,,,,,,,,,,,,,,,,,,,,239.6008,242.1147,0,2,2,2,1,,,,,,,,,,,,,,,,,,,,,,,,,,,,,,,,,,,,,,,,,,,,,,,,,
,,,,,,,,,6108c4f7300885ce920eb3c5,Spanish,13 or older,"no, only English or Spanish",no,2025-07-24_10h50.49.053,empathy_intonation_perc_control,2024.2.4,Win32,59.88023952,6108c4f7300885ce920eb3c5,68817205a84113384fffdfe3,68824806707eb8f4025ff33c,,,,,,,,,,,,,0,,,,,,,,,,,,,,,,,,,,,,,,242.1222,244.7644,0,1,2.1176,,244.7648,245.764,0,0,0,0,1,0,depiste,REAL,FAKE,,,,,,,,,,,,,,,,,,,,,,,,,,,,,,,,
,,,,,,,,,6108c4f7300885ce920eb3c5,Spanish,13 or older,"no, only English or Spanish",no,2025-07-24_10h50.49.053,empathy_intonation_perc_control,2024.2.4,Win32,59.88023952,6108c4f7300885ce920eb3c5,68817205a84113384fffdfe3,68824806707eb8f4025ff33c,,,,,,,,,,,,,1,,,,,,,,,,,,,,,,,,,,,,,,245.7659,247.4468,1,1,1.1405,,247.4468,248.4469,0,1,1,1,1,0,sí,REAL,FAKE,,,,,,,,,,,,,,,,,,,,,,,,,,,,,,,,
,,,,,,,,,6108c4f7300885ce920eb3c5,Spanish,13 or older,"no, only English or Spanish",no,2025-07-24_10h50.49.053,empathy_intonation_perc_control,2024.2.4,Win32,59.88023952,6108c4f7300885ce920eb3c5,68817205a84113384fffdfe3,68824806707eb8f4025ff33c,,,,,,,,,,,,,0,,,,,,,,,,,,,,,,,,,,,,,,248.4493,250.1803,0,1,1.2005,,250.1804,251.1803,0,2,2,2,1,0,coné,REAL,FAKE,,,,,,,,,,,,,,,,,,,,,,,,,,,,,,,,
,,,,,,,,,6108c4f7300885ce920eb3c5,Spanish,13 or older,"no, only English or Spanish",no,2025-07-24_10h50.49.053,empathy_intonation_perc_control,2024.2.4,Win32,59.88023952,6108c4f7300885ce920eb3c5,68817205a84113384fffdfe3,68824806707eb8f4025ff33c,,,,,,,,,,,,,0,,,,,,,,,,,,,,,,,,,,,,,,251.1821,252.7304,1,0,1.0166,,252.7323,253.7308,0,3,3,3,1,0,calpar,REAL,FAKE,,,,,,,,,,,,,,,,,,,,,,,,,,,,,,,,
,,,,,,,,,6108c4f7300885ce920eb3c5,Spanish,13 or older,"no, only English or Spanish",no,2025-07-24_10h50.49.053,empathy_intonation_perc_control,2024.2.4,Win32,59.88023952,6108c4f7300885ce920eb3c5,68817205a84113384fffdfe3,68824806707eb8f4025ff33c,,,,,,,,,,,,,0,,,,,,,,,,,,,,,,,,,,,,,,253.7323,255.3469,0,1,1.0764,,255.3479,256.3469,0,4,4,4,1,0,joten,REAL,FAKE,,,,,,,,,,,,,,,,,,,,,,,,,,,,,,,,
,,,,,,,,,6108c4f7300885ce920eb3c5,Spanish,13 or older,"no, only English or Spanish",no,2025-07-24_10h50.49.053,empathy_intonation_perc_control,2024.2.4,Win32,59.88023952,6108c4f7300885ce920eb3c5,68817205a84113384fffdfe3,68824806707eb8f4025ff33c,,,,,,,,,,,,,1,,,,,,,,,,,,,,,,,,,,,,,,256.3484,257.73,0,0,0.849,,257.731,258.73,0,5,5,5,1,0,sacapuntas,REAL,FAKE,,,,,,,,,,,,,,,,,,,,,,,,,,,,,,,,
,,,,,,,,,6108c4f7300885ce920eb3c5,Spanish,13 or older,"no, only English or Spanish",no,2025-07-24_10h50.49.053,empathy_intonation_perc_control,2024.2.4,Win32,59.88023952,6108c4f7300885ce920eb3c5,68817205a84113384fffdfe3,68824806707eb8f4025ff33c,,,,,,,,,,,,,0,,,,,,,,,,,,,,,,,,,,,,,,258.7316,260.28,0,1,1.0173,,260.2809,261.2803,0,6,6,6,1,0,priba,REAL,FAKE,,,,,,,,,,,,,,,,,,,,,,,,,,,,,,,,
,,,,,,,,,6108c4f7300885ce920eb3c5,Spanish,13 or older,"no, only English or Spanish",no,2025-07-24_10h50.49.053,empathy_intonation_perc_control,2024.2.4,Win32,59.88023952,6108c4f7300885ce920eb3c5,68817205a84113384fffdfe3,68824806707eb8f4025ff33c,,,,,,,,,,,,,0,,,,,,,,,,,,,,,,,,,,,,,,261.2816,262.5968,1,0,0.776,,262.5977,263.597,0,7,7,7,1,0,pelasula,REAL,FAKE,,,,,,,,,,,,,,,,,,,,,,,,,,,,,,,,
,,,,,,,,,6108c4f7300885ce920eb3c5,Spanish,13 or older,"no, only English or Spanish",no,2025-07-24_10h50.49.053,empathy_intonation_perc_control,2024.2.4,Win32,59.88023952,6108c4f7300885ce920eb3c5,68817205a84113384fffdfe3,68824806707eb8f4025ff33c,,,,,,,,,,,,,1,,,,,,,,,,,,,,,,,,,,,,,,263.5987,264.7971,1,1,0.6609,,264.7982,265.7967,0,8,8,8,1,0,bien,REAL,FAKE,,,,,,,,,,,,,,,,,,,,,,,,,,,,,,,,
,,,,,,,,,6108c4f7300885ce920eb3c5,Spanish,13 or older,"no, only English or Spanish",no,2025-07-24_10h50.49.053,empathy_intonation_perc_control,2024.2.4,Win32,59.88023952,6108c4f7300885ce920eb3c5,68817205a84113384fffdfe3,68824806707eb8f4025ff33c,,,,,,,,,,,,,1,,,,,,,,,,,,,,,,,,,,,,,,265.798,267.0145,1,1,0.6838,,267.0145,268.0132,0,9,9,9,1,0,casa,REAL,FAKE,,,,,,,,,,,,,,,,,,,,,,,,,,,,,,,,
,,,,,,,,,6108c4f7300885ce920eb3c5,Spanish,13 or older,"no, only English or Spanish",no,2025-07-24_10h50.49.053,empathy_intonation_perc_control,2024.2.4,Win32,59.88023952,6108c4f7300885ce920eb3c5,68817205a84113384fffdfe3,68824806707eb8f4025ff33c,,,,,,,,,,,,,0,,,,,,,,,,,,,,,,,,,,,,,,268.0143,269.2634,1,0,0.7146,,269.2643,270.2634,0,10,10,10,1,0,lejo,REAL,FAKE,,,,,,,,,,,,,,,,,,,,,,,,,,,,,,,,
,,,,,,,,,6108c4f7300885ce920eb3c5,Spanish,13 or older,"no, only English or Spanish",no,2025-07-24_10h50.49.053,empathy_intonation_perc_control,2024.2.4,Win32,59.88023952,6108c4f7300885ce920eb3c5,68817205a84113384fffdfe3,68824806707eb8f4025ff33c,,,,,,,,,,,,,0,,,,,,,,,,,,,,,,,,,,,,,,270.265,271.5137,1,0,0.7169,,271.5138,272.5133,0,11,11,11,1,0,pretantas,REAL,FAKE,,,,,,,,,,,,,,,,,,,,,,,,,,,,,,,,
,,,,,,,,,6108c4f7300885ce920eb3c5,Spanish,13 or older,"no, only English or Spanish",no,2025-07-24_10h50.49.053,empathy_intonation_perc_control,2024.2.4,Win32,59.88023952,6108c4f7300885ce920eb3c5,68817205a84113384fffdfe3,68824806707eb8f4025ff33c,,,,,,,,,,,,,,,,,,,,,,,,,,,,,,,,,,,,,,,,,,,,,,,,,,,,,,272.514,273.9479,,,,,,,,,,,,,,,,,,,,,,,,,,,,,,
,,,,,,,,,6108c4f7300885ce920eb3c5,Spanish,13 or older,"no, only English or Spanish",no,2025-07-24_10h50.49.053,empathy_intonation_perc_control,2024.2.4,Win32,59.88023952,6108c4f7300885ce920eb3c5,68817205a84113384fffdfe3,68824806707eb8f4025ff33c,,,,,,,,,,,,,1,,,,,,,,,,,,,,,,,,,,,,,,,,,,,,,,,,,,,46,martillo,,,,,273.962,275.5306,1,1,1.0423,,0,0,0,45,1,REAL,FAKE,,,,,,,,,,,,,,,,,
,,,,,,,,,6108c4f7300885ce920eb3c5,Spanish,13 or older,"no, only English or Spanish",no,2025-07-24_10h50.49.053,empathy_intonation_perc_control,2024.2.4,Win32,59.88023952,6108c4f7300885ce920eb3c5,68817205a84113384fffdfe3,68824806707eb8f4025ff33c,,,,,,,,,,,,,1,,,,,,,,,,,,,,,,,,,,,,,,,,,,,,,,,,,,,86,barato,,,,,275.532,277.8969,1,1,1.8329,,0,1,1,85,1,REAL,FAKE,,,,,,,,,,,,,,,,,
,,,,,,,,,6108c4f7300885ce920eb3c5,Spanish,13 or older,"no, only English or Spanish",no,2025-07-24_10h50.49.053,empathy_intonation_perc_control,2024.2.4,Win32,59.88023952,6108c4f7300885ce920eb3c5,68817205a84113384fffdfe3,68824806707eb8f4025ff33c,,,,,,,,,,,,,0,,,,,,,,,,,,,,,,,,,,,,,,,,,,,,,,,,,,,33,pauca,,,,,277.8982,279.3631,0,1,0.9319,,0,2,2,32,1,REAL,FAKE,,,,,,,,,,,,,,,,,
,,,,,,,,,6108c4f7300885ce920eb3c5,Spanish,13 or older,"no, only English or Spanish",no,2025-07-24_10h50.49.053,empathy_intonation_perc_control,2024.2.4,Win32,59.88023952,6108c4f7300885ce920eb3c5,68817205a84113384fffdfe3,68824806707eb8f4025ff33c,,,,,,,,,,,,,1,,,,,,,,,,,,,,,,,,,,,,,,,,,,,,,,,,,,,69,engatusar,,,,,279.3652,281.4134,0,0,1.5093,,0,3,3,68,1,REAL,FAKE,,,,,,,,,,,,,,,,,
,,,,,,,,,6108c4f7300885ce920eb3c5,Spanish,13 or older,"no, only English or Spanish",no,2025-07-24_10h50.49.053,empathy_intonation_perc_control,2024.2.4,Win32,59.88023952,6108c4f7300885ce920eb3c5,68817205a84113384fffdfe3,68824806707eb8f4025ff33c,,,,,,,,,,,,,0,,,,,,,,,,,,,,,,,,,,,,,,,,,,,,,,,,,,,84,escuto,,,,,281.415,282.6799,1,0,0.727,,0,4,4,83,1,REAL,FAKE,,,,,,,,,,,,,,,,,
,,,,,,,,,6108c4f7300885ce920eb3c5,Spanish,13 or older,"no, only English or Spanish",no,2025-07-24_10h50.49.053,empathy_intonation_perc_control,2024.2.4,Win32,59.88023952,6108c4f7300885ce920eb3c5,68817205a84113384fffdfe3,68824806707eb8f4025ff33c,,,,,,,,,,,,,0,,,,,,,,,,,,,,,,,,,,,,,,,,,,,,,,,,,,,79,tropaje,,,,,282.6815,284.0799,1,0,0.8593,,0,5,5,78,1,REAL,FAKE,,,,,,,,,,,,,,,,,
,,,,,,,,,6108c4f7300885ce920eb3c5,Spanish,13 or older,"no, only English or Spanish",no,2025-07-24_10h50.49.053,empathy_intonation_perc_control,2024.2.4,Win32,59.88023952,6108c4f7300885ce920eb3c5,68817205a84113384fffdfe3,68824806707eb8f4025ff33c,,,,,,,,,,,,,0,,,,,,,,,,,,,,,,,,,,,,,,,,,,,,,,,,,,,27,acutación,,,,,284.0821,285.28,1,0,0.6593,,0,6,6,26,1,REAL,FAKE,,,,,,,,,,,,,,,,,
,,,,,,,,,6108c4f7300885ce920eb3c5,Spanish,13 or older,"no, only English or Spanish",no,2025-07-24_10h50.49.053,empathy_intonation_perc_control,2024.2.4,Win32,59.88023952,6108c4f7300885ce920eb3c5,68817205a84113384fffdfe3,68824806707eb8f4025ff33c,,,,,,,,,,,,,1,,,,,,,,,,,,,,,,,,,,,,,,,,,,,,,,,,,,,49,ganar,,,,,285.2814,286.6468,0,0,0.8336,,0,7,7,48,1,REAL,FAKE,,,,,,,,,,,,,,,,,
,,,,,,,,,6108c4f7300885ce920eb3c5,Spanish,13 or older,"no, only English or Spanish",no,2025-07-24_10h50.49.053,empathy_intonation_perc_control,2024.2.4,Win32,59.88023952,6108c4f7300885ce920eb3c5,68817205a84113384fffdfe3,68824806707eb8f4025ff33c,,,,,,,,,,,,,1,,,,,,,,,,,,,,,,,,,,,,,,,,,,,,,,,,,,,22,lacayo,,,,,286.6488,288.18,0,0,0.9943,,0,8,8,21,1,REAL,FAKE,,,,,,,,,,,,,,,,,
,,,,,,,,,6108c4f7300885ce920eb3c5,Spanish,13 or older,"no, only English or Spanish",no,2025-07-24_10h50.49.053,empathy_intonation_perc_control,2024.2.4,Win32,59.88023952,6108c4f7300885ce920eb3c5,68817205a84113384fffdfe3,68824806707eb8f4025ff33c,,,,,,,,,,,,,0,,,,,,,,,,,,,,,,,,,,,,,,,,,,,,,,,,,,,10,antar,,,,,288.1815,289.5484,0,1,0.8281,,0,9,9,9,1,REAL,FAKE,,,,,,,,,,,,,,,,,
,,,,,,,,,6108c4f7300885ce920eb3c5,Spanish,13 or older,"no, only English or Spanish",no,2025-07-24_10h50.49.053,empathy_intonation_perc_control,2024.2.4,Win32,59.88023952,6108c4f7300885ce920eb3c5,68817205a84113384fffdfe3,68824806707eb8f4025ff33c,,,,,,,,,,,,,1,,,,,,,,,,,,,,,,,,,,,,,,,,,,,,,,,,,,,24,látigo,,,,,289.5499,291.08,1,1,0.9929,,0,10,10,23,1,REAL,FAKE,,,,,,,,,,,,,,,,,
,,,,,,,,,6108c4f7300885ce920eb3c5,Spanish,13 or older,"no, only English or Spanish",no,2025-07-24_10h50.49.053,empathy_intonation_perc_control,2024.2.4,Win32,59.88023952,6108c4f7300885ce920eb3c5,68817205a84113384fffdfe3,68824806707eb8f4025ff33c,,,,,,,,,,,,,0,,,,,,,,,,,,,,,,,,,,,,,,,,,,,,,,,,,,,32,fatacidad,,,,,291.0818,295.0629,1,0,3.4506,,0,11,11,31,1,REAL,FAKE,,,,,,,,,,,,,,,,,
,,,,,,,,,6108c4f7300885ce920eb3c5,Spanish,13 or older,"no, only English or Spanish",no,2025-07-24_10h50.49.053,empathy_intonation_perc_control,2024.2.4,Win32,59.88023952,6108c4f7300885ce920eb3c5,68817205a84113384fffdfe3,68824806707eb8f4025ff33c,,,,,,,,,,,,,1,,,,,,,,,,,,,,,,,,,,,,,,,,,,,,,,,,,,,89,prisa,,,,,295.0643,296.4142,0,0,0.817,,0,12,12,88,1,REAL,FAKE,,,,,,,,,,,,,,,,,
,,,,,,,,,6108c4f7300885ce920eb3c5,Spanish,13 or older,"no, only English or Spanish",no,2025-07-24_10h50.49.053,empathy_intonation_perc_control,2024.2.4,Win32,59.88023952,6108c4f7300885ce920eb3c5,68817205a84113384fffdfe3,68824806707eb8f4025ff33c,,,,,,,,,,,,,1,,,,,,,,,,,,,,,,,,,,,,,,,,,,,,,,,,,,,2,pellizcar,,,,,296.4159,298.2467,0,0,1.2905,,0,13,13,1,1,REAL,FAKE,,,,,,,,,,,,,,,,,
,,,,,,,,,6108c4f7300885ce920eb3c5,Spanish,13 or older,"no, only English or Spanish",no,2025-07-24_10h50.49.053,empathy_intonation_perc_control,2024.2.4,Win32,59.88023952,6108c4f7300885ce920eb3c5,68817205a84113384fffdfe3,68824806707eb8f4025ff33c,,,,,,,,,,,,,1,,,,,,,,,,,,,,,,,,,,,,,,,,,,,,,,,,,,,62,flaco,,,,,298.2482,299.7132,1,1,0.9277,,0,14,14,61,1,REAL,FAKE,,,,,,,,,,,,,,,,,
,,,,,,,,,6108c4f7300885ce920eb3c5,Spanish,13 or older,"no, only English or Spanish",no,2025-07-24_10h50.49.053,empathy_intonation_perc_control,2024.2.4,Win32,59.88023952,6108c4f7300885ce920eb3c5,68817205a84113384fffdfe3,68824806707eb8f4025ff33c,,,,,,,,,,,,,1,,,,,,,,,,,,,,,,,,,,,,,,,,,,,,,,,,,,,64,orgulloso,,,,,299.7147,301.1965,0,0,0.9424,,0,15,15,63,1,REAL,FAKE,,,,,,,,,,,,,,,,,
,,,,,,,,,6108c4f7300885ce920eb3c5,Spanish,13 or older,"no, only English or Spanish",no,2025-07-24_10h50.49.053,empathy_intonation_perc_control,2024.2.4,Win32,59.88023952,6108c4f7300885ce920eb3c5,68817205a84113384fffdfe3,68824806707eb8f4025ff33c,,,,,,,,,,,,,1,,,,,,,,,,,,,,,,,,,,,,,,,,,,,,,,,,,,,13,helar,,,,,301.1985,302.4131,0,0,0.676,,0,16,16,12,1,REAL,FAKE,,,,,,,,,,,,,,,,,
,,,,,,,,,6108c4f7300885ce920eb3c5,Spanish,13 or older,"no, only English or Spanish",no,2025-07-24_10h50.49.053,empathy_intonation_perc_control,2024.2.4,Win32,59.88023952,6108c4f7300885ce920eb3c5,68817205a84113384fffdfe3,68824806707eb8f4025ff33c,,,,,,,,,,,,,0,,,,,,,,,,,,,,,,,,,,,,,,,,,,,,,,,,,,,35,rompido,,,,,302.4144,304.663,0,1,1.717,,0,17,17,34,1,REAL,FAKE,,,,,,,,,,,,,,,,,
,,,,,,,,,6108c4f7300885ce920eb3c5,Spanish,13 or older,"no, only English or Spanish",no,2025-07-24_10h50.49.053,empathy_intonation_perc_control,2024.2.4,Win32,59.88023952,6108c4f7300885ce920eb3c5,68817205a84113384fffdfe3,68824806707eb8f4025ff33c,,,,,,,,,,,,,0,,,,,,,,,,,,,,,,,,,,,,,,,,,,,,,,,,,,,42,cadallo,,,,,304.6645,305.9138,1,0,0.7169,,0,18,18,41,1,REAL,FAKE,,,,,,,,,,,,,,,,,
,,,,,,,,,6108c4f7300885ce920eb3c5,Spanish,13 or older,"no, only English or Spanish",no,2025-07-24_10h50.49.053,empathy_intonation_perc_control,2024.2.4,Win32,59.88023952,6108c4f7300885ce920eb3c5,68817205a84113384fffdfe3,68824806707eb8f4025ff33c,,,,,,,,,,,,,1,,,,,,,,,,,,,,,,,,,,,,,,,,,,,,,,,,,,,81,pozo,,,,,305.9151,307.8633,0,0,1.4094,,0,19,19,80,1,REAL,FAKE,,,,,,,,,,,,,,,,,
,,,,,,,,,6108c4f7300885ce920eb3c5,Spanish,13 or older,"no, only English or Spanish",no,2025-07-24_10h50.49.053,empathy_intonation_perc_control,2024.2.4,Win32,59.88023952,6108c4f7300885ce920eb3c5,68817205a84113384fffdfe3,68824806707eb8f4025ff33c,,,,,,,,,,,,,1,,,,,,,,,,,,,,,,,,,,,,,,,,,,,,,,,,,,,48,ladrón,,,,,307.8647,309.0631,1,1,0.667,,0,20,20,47,1,REAL,FAKE,,,,,,,,,,,,,,,,,
,,,,,,,,,6108c4f7300885ce920eb3c5,Spanish,13 or older,"no, only English or Spanish",no,2025-07-24_10h50.49.053,empathy_intonation_perc_control,2024.2.4,Win32,59.88023952,6108c4f7300885ce920eb3c5,68817205a84113384fffdfe3,68824806707eb8f4025ff33c,,,,,,,,,,,,,0,,,,,,,,,,,,,,,,,,,,,,,,,,,,,,,,,,,,,82,empirador,,,,,309.0646,310.7297,0,1,1.1223,,0,21,21,81,1,REAL,FAKE,,,,,,,,,,,,,,,,,
,,,,,,,,,6108c4f7300885ce920eb3c5,Spanish,13 or older,"no, only English or Spanish",no,2025-07-24_10h50.49.053,empathy_intonation_perc_control,2024.2.4,Win32,59.88023952,6108c4f7300885ce920eb3c5,68817205a84113384fffdfe3,68824806707eb8f4025ff33c,,,,,,,,,,,,,1,,,,,,,,,,,,,,,,,,,,,,,,,,,,,,,,,,,,,90,clavel,,,,,310.7317,312.4462,0,0,1.1761,,0,22,22,89,1,REAL,FAKE,,,,,,,,,,,,,,,,,
,,,,,,,,,6108c4f7300885ce920eb3c5,Spanish,13 or older,"no, only English or Spanish",no,2025-07-24_10h50.49.053,empathy_intonation_perc_control,2024.2.4,Win32,59.88023952,6108c4f7300885ce920eb3c5,68817205a84113384fffdfe3,68824806707eb8f4025ff33c,,,,,,,,,,,,,0,,,,,,,,,,,,,,,,,,,,,,,,,,,,,,,,,,,,,87,grodo,,,,,312.4477,314.1817,0,1,1.2008,,0,23,23,86,1,REAL,FAKE,,,,,,,,,,,,,,,,,
,,,,,,,,,6108c4f7300885ce920eb3c5,Spanish,13 or older,"no, only English or Spanish",no,2025-07-24_10h50.49.053,empathy_intonation_perc_control,2024.2.4,Win32,59.88023952,6108c4f7300885ce920eb3c5,68817205a84113384fffdfe3,68824806707eb8f4025ff33c,,,,,,,,,,,,,0,,,,,,,,,,,,,,,,,,,,,,,,,,,,,,,,,,,,,74,cintro,,,,,314.1828,315.6131,0,1,0.8926,,0,24,24,73,1,REAL,FAKE,,,,,,,,,,,,,,,,,
,,,,,,,,,6108c4f7300885ce920eb3c5,Spanish,13 or older,"no, only English or Spanish",no,2025-07-24_10h50.49.053,empathy_intonation_perc_control,2024.2.4,Win32,59.88023952,6108c4f7300885ce920eb3c5,68817205a84113384fffdfe3,68824806707eb8f4025ff33c,,,,,,,,,,,,,0,,,,,,,,,,,,,,,,,,,,,,,,,,,,,,,,,,,,,8,cadeña,,,,,315.615,316.8297,1,0,0.6823,,0,25,25,7,1,REAL,FAKE,,,,,,,,,,,,,,,,,
,,,,,,,,,6108c4f7300885ce920eb3c5,Spanish,13 or older,"no, only English or Spanish",no,2025-07-24_10h50.49.053,empathy_intonation_perc_control,2024.2.4,Win32,59.88023952,6108c4f7300885ce920eb3c5,68817205a84113384fffdfe3,68824806707eb8f4025ff33c,,,,,,,,,,,,,1,,,,,,,,,,,,,,,,,,,,,,,,,,,,,,,,,,,,,45,jilguero,,,,,316.8313,318.9644,0,0,1.5928,,0,26,26,44,1,REAL,FAKE,,,,,,,,,,,,,,,,,
,,,,,,,,,6108c4f7300885ce920eb3c5,Spanish,13 or older,"no, only English or Spanish",no,2025-07-24_10h50.49.053,empathy_intonation_perc_control,2024.2.4,Win32,59.88023952,6108c4f7300885ce920eb3c5,68817205a84113384fffdfe3,68824806707eb8f4025ff33c,,,,,,,,,,,,,1,,,,,,,,,,,,,,,,,,,,,,,,,,,,,,,,,,,,,57,tacaño,,,,,318.9658,320.1647,1,1,0.6694,,0,27,27,56,1,REAL,FAKE,,,,,,,,,,,,,,,,,
,,,,,,,,,6108c4f7300885ce920eb3c5,Spanish,13 or older,"no, only English or Spanish",no,2025-07-24_10h50.49.053,empathy_intonation_perc_control,2024.2.4,Win32,59.88023952,6108c4f7300885ce920eb3c5,68817205a84113384fffdfe3,68824806707eb8f4025ff33c,,,,,,,,,,,,,0,,,,,,,,,,,,,,,,,,,,,,,,,,,,,,,,,,,,,66,hacido,,,,,320.1655,321.5631,1,0,0.853,,0,28,28,65,1,REAL,FAKE,,,,,,,,,,,,,,,,,
,,,,,,,,,6108c4f7300885ce920eb3c5,Spanish,13 or older,"no, only English or Spanish",no,2025-07-24_10h50.49.053,empathy_intonation_perc_control,2024.2.4,Win32,59.88023952,6108c4f7300885ce920eb3c5,68817205a84113384fffdfe3,68824806707eb8f4025ff33c,,,,,,,,,,,,,0,,,,,,,,,,,,,,,,,,,,,,,,,,,,,,,,,,,,,58,plaudir,,,,,321.5643,322.9803,0,1,0.8769,,0,29,29,57,1,REAL,FAKE,,,,,,,,,,,,,,,,,
,,,,,,,,,6108c4f7300885ce920eb3c5,Spanish,13 or older,"no, only English or Spanish",no,2025-07-24_10h50.49.053,empathy_intonation_perc_control,2024.2.4,Win32,59.88023952,6108c4f7300885ce920eb3c5,68817205a84113384fffdfe3,68824806707eb8f4025ff33c,,,,,,,,,,,,,1,,,,,,,,,,,,,,,,,,,,,,,,,,,,,,,,,,,,,12,asesinato,,,,,322.9819,324.663,0,0,1.15,,0,30,30,11,1,REAL,FAKE,,,,,,,,,,,,,,,,,
,,,,,,,,,6108c4f7300885ce920eb3c5,Spanish,13 or older,"no, only English or Spanish",no,2025-07-24_10h50.49.053,empathy_intonation_perc_control,2024.2.4,Win32,59.88023952,6108c4f7300885ce920eb3c5,68817205a84113384fffdfe3,68824806707eb8f4025ff33c,,,,,,,,,,,,,1,,,,,,,,,,,,,,,,,,,,,,,,,,,,,,,,,,,,,68,alegre,,,,,324.6645,326.014,0,0,0.8087,,0,31,31,67,1,REAL,FAKE,,,,,,,,,,,,,,,,,
,,,,,,,,,6108c4f7300885ce920eb3c5,Spanish,13 or older,"no, only English or Spanish",no,2025-07-24_10h50.49.053,empathy_intonation_perc_control,2024.2.4,Win32,59.88023952,6108c4f7300885ce920eb3c5,68817205a84113384fffdfe3,68824806707eb8f4025ff33c,,,,,,,,,,,,,1,,,,,,,,,,,,,,,,,,,,,,,,,,,,,,,,,,,,,75,yacer,,,,,326.0153,327.5296,0,0,0.9777,,0,32,32,74,1,REAL,FAKE,,,,,,,,,,,,,,,,,
,,,,,,,,,6108c4f7300885ce920eb3c5,Spanish,13 or older,"no, only English or Spanish",no,2025-07-24_10h50.49.053,empathy_intonation_perc_control,2024.2.4,Win32,59.88023952,6108c4f7300885ce920eb3c5,68817205a84113384fffdfe3,68824806707eb8f4025ff33c,,,,,,,,,,,,,1,,,,,,,,,,,,,,,,,,,,,,,,,,,,,,,,,,,,,83,guante,,,,,327.5309,328.7629,1,1,0.6868,,0,33,33,82,1,REAL,FAKE,,,,,,,,,,,,,,,,,
,,,,,,,,,6108c4f7300885ce920eb3c5,Spanish,13 or older,"no, only English or Spanish",no,2025-07-24_10h50.49.053,empathy_intonation_perc_control,2024.2.4,Win32,59.88023952,6108c4f7300885ce920eb3c5,68817205a84113384fffdfe3,68824806707eb8f4025ff33c,,,,,,,,,,,,,1,,,,,,,,,,,,,,,,,,,,,,,,,,,,,,,,,,,,,40,alfombra,,,,,328.7643,330.5794,0,0,1.2759,,0,34,34,39,1,REAL,FAKE,,,,,,,,,,,,,,,,,
,,,,,,,,,6108c4f7300885ce920eb3c5,Spanish,13 or older,"no, only English or Spanish",no,2025-07-24_10h50.49.053,empathy_intonation_perc_control,2024.2.4,Win32,59.88023952,6108c4f7300885ce920eb3c5,68817205a84113384fffdfe3,68824806707eb8f4025ff33c,,,,,,,,,,,,,1,,,,,,,,,,,,,,,,,,,,,,,,,,,,,,,,,,,,,80,hormiga,,,,,330.5807,331.8626,1,1,0.7499,,0,35,35,79,1,REAL,FAKE,,,,,,,,,,,,,,,,,
,,,,,,,,,6108c4f7300885ce920eb3c5,Spanish,13 or older,"no, only English or Spanish",no,2025-07-24_10h50.49.053,empathy_intonation_perc_control,2024.2.4,Win32,59.88023952,6108c4f7300885ce920eb3c5,68817205a84113384fffdfe3,68824806707eb8f4025ff33c,,,,,,,,,,,,,0,,,,,,,,,,,,,,,,,,,,,,,,,,,,,,,,,,,,,63,esposante,,,,,331.8637,333.3296,1,0,0.926,,0,36,36,62,1,REAL,FAKE,,,,,,,,,,,,,,,,,
,,,,,,,,,6108c4f7300885ce920eb3c5,Spanish,13 or older,"no, only English or Spanish",no,2025-07-24_10h50.49.053,empathy_intonation_perc_control,2024.2.4,Win32,59.88023952,6108c4f7300885ce920eb3c5,68817205a84113384fffdfe3,68824806707eb8f4025ff33c,,,,,,,,,,,,,1,,,,,,,,,,,,,,,,,,,,,,,,,,,,,,,,,,,,,85,laúd,,,,,333.3309,335.0296,1,1,1.158,,0,37,37,84,1,REAL,FAKE,,,,,,,,,,,,,,,,,
,,,,,,,,,6108c4f7300885ce920eb3c5,Spanish,13 or older,"no, only English or Spanish",no,2025-07-24_10h50.49.053,empathy_intonation_perc_control,2024.2.4,Win32,59.88023952,6108c4f7300885ce920eb3c5,68817205a84113384fffdfe3,68824806707eb8f4025ff33c,,,,,,,,,,,,,1,,,,,,,,,,,,,,,,,,,,,,,,,,,,,,,,,,,,,55,nevar,,,,,335.0312,336.2628,0,0,0.7005,,0,38,38,54,1,REAL,FAKE,,,,,,,,,,,,,,,,,
,,,,,,,,,6108c4f7300885ce920eb3c5,Spanish,13 or older,"no, only English or Spanish",no,2025-07-24_10h50.49.053,empathy_intonation_perc_control,2024.2.4,Win32,59.88023952,6108c4f7300885ce920eb3c5,68817205a84113384fffdfe3,68824806707eb8f4025ff33c,,,,,,,,,,,,,1,,,,,,,,,,,,,,,,,,,,,,,,,,,,,,,,,,,,,6,tergiversar,,,,,336.2642,337.7463,0,0,0.9422,,0,39,39,5,1,REAL,FAKE,,,,,,,,,,,,,,,,,
,,,,,,,,,6108c4f7300885ce920eb3c5,Spanish,13 or older,"no, only English or Spanish",no,2025-07-24_10h50.49.053,empathy_intonation_perc_control,2024.2.4,Win32,59.88023952,6108c4f7300885ce920eb3c5,68817205a84113384fffdfe3,68824806707eb8f4025ff33c,,,,,,,,,,,,,1,,,,,,,,,,,,,,,,,,,,,,,,,,,,,,,,,,,,,7,pésimo,,,,,337.7476,339.196,1,1,0.9093,,0,40,40,6,1,REAL,FAKE,,,,,,,,,,,,,,,,,
,,,,,,,,,6108c4f7300885ce920eb3c5,Spanish,13 or older,"no, only English or Spanish",no,2025-07-24_10h50.49.053,empathy_intonation_perc_control,2024.2.4,Win32,59.88023952,6108c4f7300885ce920eb3c5,68817205a84113384fffdfe3,68824806707eb8f4025ff33c,,,,,,,,,,,,,0,,,,,,,,,,,,,,,,,,,,,,,,,,,,,,,,,,,,,18,arsa,,,,,339.1974,340.5963,0,1,0.8669,,0,41,41,17,1,REAL,FAKE,,,,,,,,,,,,,,,,,
,,,,,,,,,6108c4f7300885ce920eb3c5,Spanish,13 or older,"no, only English or Spanish",no,2025-07-24_10h50.49.053,empathy_intonation_perc_control,2024.2.4,Win32,59.88023952,6108c4f7300885ce920eb3c5,68817205a84113384fffdfe3,68824806707eb8f4025ff33c,,,,,,,,,,,,,0,,,,,,,,,,,,,,,,,,,,,,,,,,,,,,,,,,,,,53,vegada,,,,,340.5978,341.9626,0,1,0.8264,,0,42,42,52,1,REAL,FAKE,,,,,,,,,,,,,,,,,
,,,,,,,,,6108c4f7300885ce920eb3c5,Spanish,13 or older,"no, only English or Spanish",no,2025-07-24_10h50.49.053,empathy_intonation_perc_control,2024.2.4,Win32,59.88023952,6108c4f7300885ce920eb3c5,68817205a84113384fffdfe3,68824806707eb8f4025ff33c,,,,,,,,,,,,,1,,,,,,,,,,,,,,,,,,,,,,,,,,,,,,,,,,,,,59,besar,,,,,341.9642,343.1461,0,0,0.6367,,0,43,43,58,1,REAL,FAKE,,,,,,,,,,,,,,,,,
,,,,,,,,,6108c4f7300885ce920eb3c5,Spanish,13 or older,"no, only English or Spanish",no,2025-07-24_10h50.49.053,empathy_intonation_perc_control,2024.2.4,Win32,59.88023952,6108c4f7300885ce920eb3c5,68817205a84113384fffdfe3,68824806707eb8f4025ff33c,,,,,,,,,,,,,1,,,,,,,,,,,,,,,,,,,,,,,,,,,,,,,,,,,,,71,polvoriento,,,,,343.1477,344.5629,0,0,0.8835,,0,44,44,70,1,REAL,FAKE,,,,,,,,,,,,,,,,,
,,,,,,,,,6108c4f7300885ce920eb3c5,Spanish,13 or older,"no, only English or Spanish",no,2025-07-24_10h50.49.053,empathy_intonation_perc_control,2024.2.4,Win32,59.88023952,6108c4f7300885ce920eb3c5,68817205a84113384fffdfe3,68824806707eb8f4025ff33c,,,,,,,,,,,,,0,,,,,,,,,,,,,,,,,,,,,,,,,,,,,,,,,,,,,70,temblo,,,,,344.5643,345.8628,0,1,0.7671,,0,45,45,69,1,REAL,FAKE,,,,,,,,,,,,,,,,,
,,,,,,,,,6108c4f7300885ce920eb3c5,Spanish,13 or older,"no, only English or Spanish",no,2025-07-24_10h50.49.053,empathy_intonation_perc_control,2024.2.4,Win32,59.88023952,6108c4f7300885ce920eb3c5,68817205a84113384fffdfe3,68824806707eb8f4025ff33c,,,,,,,,,,,,,1,,,,,,,,,,,,,,,,,,,,,,,,,,,,,,,,,,,,,77,tiburón,,,,,345.8642,347.1957,1,1,0.7927,,0,46,46,76,1,REAL,FAKE,,,,,,,,,,,,,,,,,
,,,,,,,,,6108c4f7300885ce920eb3c5,Spanish,13 or older,"no, only English or Spanish",no,2025-07-24_10h50.49.053,empathy_intonation_perc_control,2024.2.4,Win32,59.88023952,6108c4f7300885ce920eb3c5,68817205a84113384fffdfe3,68824806707eb8f4025ff33c,,,,,,,,,,,,,1,,,,,,,,,,,,,,,,,,,,,,,,,,,,,,,,,,,,,78,frondoso,,,,,347.1978,348.496,0,0,0.7594,,0,47,47,77,1,REAL,FAKE,,,,,,,,,,,,,,,,,
,,,,,,,,,6108c4f7300885ce920eb3c5,Spanish,13 or older,"no, only English or Spanish",no,2025-07-24_10h50.49.053,empathy_intonation_perc_control,2024.2.4,Win32,59.88023952,6108c4f7300885ce920eb3c5,68817205a84113384fffdfe3,68824806707eb8f4025ff33c,,,,,,,,,,,,,1,,,,,,,,,,,,,,,,,,,,,,,,,,,,,,,,,,,,,61,seda,,,,,348.4977,349.646,0,0,0.617,,0,48,48,60,1,REAL,FAKE,,,,,,,,,,,,,,,,,
,,,,,,,,,6108c4f7300885ce920eb3c5,Spanish,13 or older,"no, only English or Spanish",no,2025-07-24_10h50.49.053,empathy_intonation_perc_control,2024.2.4,Win32,59.88023952,6108c4f7300885ce920eb3c5,68817205a84113384fffdfe3,68824806707eb8f4025ff33c,,,,,,,,,,,,,0,,,,,,,,,,,,,,,,,,,,,,,,,,,,,,,,,,,,,72,pemición,,,,,349.6475,351.0128,0,1,0.8334,,0,49,49,71,1,REAL,FAKE,,,,,,,,,,,,,,,,,
,,,,,,,,,6108c4f7300885ce920eb3c5,Spanish,13 or older,"no, only English or Spanish",no,2025-07-24_10h50.49.053,empathy_intonation_perc_control,2024.2.4,Win32,59.88023952,6108c4f7300885ce920eb3c5,68817205a84113384fffdfe3,68824806707eb8f4025ff33c,,,,,,,,,,,,,1,,,,,,,,,,,,,,,,,,,,,,,,,,,,,,,,,,,,,38,estornudar,,,,,351.0141,352.3959,0,0,0.8429,,0,50,50,37,1,REAL,FAKE,,,,,,,,,,,,,,,,,
,,,,,,,,,6108c4f7300885ce920eb3c5,Spanish,13 or older,"no, only English or Spanish",no,2025-07-24_10h50.49.053,empathy_intonation_perc_control,2024.2.4,Win32,59.88023952,6108c4f7300885ce920eb3c5,68817205a84113384fffdfe3,68824806707eb8f4025ff33c,,,,,,,,,,,,,1,,,,,,,,,,,,,,,,,,,,,,,,,,,,,,,,,,,,,60,matar,,,,,352.3975,353.6131,0,0,0.676,,0,51,51,59,1,REAL,FAKE,,,,,,,,,,,,,,,,,
,,,,,,,,,6108c4f7300885ce920eb3c5,Spanish,13 or older,"no, only English or Spanish",no,2025-07-24_10h50.49.053,empathy_intonation_perc_control,2024.2.4,Win32,59.88023952,6108c4f7300885ce920eb3c5,68817205a84113384fffdfe3,68824806707eb8f4025ff33c,,,,,,,,,,,,,0,,,,,,,,,,,,,,,,,,,,,,,,,,,,,,,,,,,,,29,decar,,,,,353.6144,354.8293,0,1,0.6774,,0,52,52,28,1,REAL,FAKE,,,,,,,,,,,,,,,,,
,,,,,,,,,6108c4f7300885ce920eb3c5,Spanish,13 or older,"no, only English or Spanish",no,2025-07-24_10h50.49.053,empathy_intonation_perc_control,2024.2.4,Win32,59.88023952,6108c4f7300885ce920eb3c5,68817205a84113384fffdfe3,68824806707eb8f4025ff33c,,,,,,,,,,,,,1,,,,,,,,,,,,,,,,,,,,,,,,,,,,,,,,,,,,,25,bisagra,,,,,354.8305,356.2794,0,0,0.9097,,0,53,53,24,1,REAL,FAKE,,,,,,,,,,,,,,,,,
,,,,,,,,,6108c4f7300885ce920eb3c5,Spanish,13 or older,"no, only English or Spanish",no,2025-07-24_10h50.49.053,empathy_intonation_perc_control,2024.2.4,Win32,59.88023952,6108c4f7300885ce920eb3c5,68817205a84113384fffdfe3,68824806707eb8f4025ff33c,,,,,,,,,,,,,1,,,,,,,,,,,,,,,,,,,,,,,,,,,,,,,,,,,,,65,bizcocho,,,,,356.281,357.4125,0,0,0.5924,,0,54,54,64,1,REAL,FAKE,,,,,,,,,,,,,,,,,
,,,,,,,,,6108c4f7300885ce920eb3c5,Spanish,13 or older,"no, only English or Spanish",no,2025-07-24_10h50.49.053,empathy_intonation_perc_control,2024.2.4,Win32,59.88023952,6108c4f7300885ce920eb3c5,68817205a84113384fffdfe3,68824806707eb8f4025ff33c,,,,,,,,,,,,,1,,,,,,,,,,,,,,,,,,,,,,,,,,,,,,,,,,,,,31,pandilla,,,,,357.4136,358.6792,0,0,0.7265,,0,55,55,30,1,REAL,FAKE,,,,,,,,,,,,,,,,,
,,,,,,,,,6108c4f7300885ce920eb3c5,Spanish,13 or older,"no, only English or Spanish",no,2025-07-24_10h50.49.053,empathy_intonation_perc_control,2024.2.4,Win32,59.88023952,6108c4f7300885ce920eb3c5,68817205a84113384fffdfe3,68824806707eb8f4025ff33c,,,,,,,,,,,,,1,,,,,,,,,,,,,,,,,,,,,,,,,,,,,,,,,,,,,37,granuja,,,,,358.6806,360.0293,1,1,0.8107,,0,56,56,36,1,REAL,FAKE,,,,,,,,,,,,,,,,,
,,,,,,,,,6108c4f7300885ce920eb3c5,Spanish,13 or older,"no, only English or Spanish",no,2025-07-24_10h50.49.053,empathy_intonation_perc_control,2024.2.4,Win32,59.88023952,6108c4f7300885ce920eb3c5,68817205a84113384fffdfe3,68824806707eb8f4025ff33c,,,,,,,,,,,,,1,,,,,,,,,,,,,,,,,,,,,,,,,,,,,,,,,,,,,41,rebuscar,,,,,360.0306,361.3627,0,0,0.8005,,0,57,57,40,1,REAL,FAKE,,,,,,,,,,,,,,,,,
,,,,,,,,,6108c4f7300885ce920eb3c5,Spanish,13 or older,"no, only English or Spanish",no,2025-07-24_10h50.49.053,empathy_intonation_perc_control,2024.2.4,Win32,59.88023952,6108c4f7300885ce920eb3c5,68817205a84113384fffdfe3,68824806707eb8f4025ff33c,,,,,,,,,,,,,1,,,,,,,,,,,,,,,,,,,,,,,,,,,,,,,,,,,,,91,click the 1 key.,,,,,361.3651,363.3626,1,1,1.4592,,0,58,58,90,1,REAL,FAKE,,,,,,,,,,,,,,,,,
,,,,,,,,,6108c4f7300885ce920eb3c5,Spanish,13 or older,"no, only English or Spanish",no,2025-07-24_10h50.49.053,empathy_intonation_perc_control,2024.2.4,Win32,59.88023952,6108c4f7300885ce920eb3c5,68817205a84113384fffdfe3,68824806707eb8f4025ff33c,,,,,,,,,,,,,0,,,,,,,,,,,,,,,,,,,,,,,,,,,,,,,,,,,,,50,flamida,,,,,363.3641,364.9792,0,1,1.0776,,0,59,59,49,1,REAL,FAKE,,,,,,,,,,,,,,,,,
,,,,,,,,,6108c4f7300885ce920eb3c5,Spanish,13 or older,"no, only English or Spanish",no,2025-07-24_10h50.49.053,empathy_intonation_perc_control,2024.2.4,Win32,59.88023952,6108c4f7300885ce920eb3c5,68817205a84113384fffdfe3,68824806707eb8f4025ff33c,,,,,,,,,,,,,1,,,,,,,,,,,,,,,,,,,,,,,,,,,,,,,,,,,,,14,yunque,,,,,364.9807,366.2792,0,0,0.7592,,0,60,60,13,1,REAL,FAKE,,,,,,,,,,,,,,,,,
,,,,,,,,,6108c4f7300885ce920eb3c5,Spanish,13 or older,"no, only English or Spanish",no,2025-07-24_10h50.49.053,empathy_intonation_perc_control,2024.2.4,Win32,59.88023952,6108c4f7300885ce920eb3c5,68817205a84113384fffdfe3,68824806707eb8f4025ff33c,,,,,,,,,,,,,1,,,,,,,,,,,,,,,,,,,,,,,,,,,,,,,,,,,,,11,cenefa,,,,,366.2806,367.7124,0,0,0.887,,0,61,61,10,1,REAL,FAKE,,,,,,,,,,,,,,,,,
,,,,,,,,,6108c4f7300885ce920eb3c5,Spanish,13 or older,"no, only English or Spanish",no,2025-07-24_10h50.49.053,empathy_intonation_perc_control,2024.2.4,Win32,59.88023952,6108c4f7300885ce920eb3c5,68817205a84113384fffdfe3,68824806707eb8f4025ff33c,,,,,,,,,,,,,0,,,,,,,,,,,,,,,,,,,,,,,,,,,,,,,,,,,,,17,floroso,,,,,367.7137,369.1802,0,1,0.9316,,0,62,62,16,1,REAL,FAKE,,,,,,,,,,,,,,,,,
,,,,,,,,,6108c4f7300885ce920eb3c5,Spanish,13 or older,"no, only English or Spanish",no,2025-07-24_10h50.49.053,empathy_intonation_perc_control,2024.2.4,Win32,59.88023952,6108c4f7300885ce920eb3c5,68817205a84113384fffdfe3,68824806707eb8f4025ff33c,,,,,,,,,,,,,1,,,,,,,,,,,,,,,,,,,,,,,,,,,,,,,,,,,,,3,pulmones,,,,,369.1814,370.8458,1,1,1.1266,,0,63,63,2,1,REAL,FAKE,,,,,,,,,,,,,,,,,
,,,,,,,,,6108c4f7300885ce920eb3c5,Spanish,13 or older,"no, only English or Spanish",no,2025-07-24_10h50.49.053,empathy_intonation_perc_control,2024.2.4,Win32,59.88023952,6108c4f7300885ce920eb3c5,68817205a84113384fffdfe3,68824806707eb8f4025ff33c,,,,,,,,,,,,,0,,,,,,,,,,,,,,,,,,,,,,,,,,,,,,,,,,,,,4,batillón,,,,,370.8474,372.0134,1,0,0.6336,,0,64,64,3,1,REAL,FAKE,,,,,,,,,,,,,,,,,
,,,,,,,,,6108c4f7300885ce920eb3c5,Spanish,13 or older,"no, only English or Spanish",no,2025-07-24_10h50.49.053,empathy_intonation_perc_control,2024.2.4,Win32,59.88023952,6108c4f7300885ce920eb3c5,68817205a84113384fffdfe3,68824806707eb8f4025ff33c,,,,,,,,,,,,,1,,,,,,,,,,,,,,,,,,,,,,,,,,,,,,,,,,,,,15,regar,,,,,372.0147,373.3625,0,0,0.8098,,0,65,65,14,1,REAL,FAKE,,,,,,,,,,,,,,,,,
,,,,,,,,,6108c4f7300885ce920eb3c5,Spanish,13 or older,"no, only English or Spanish",no,2025-07-24_10h50.49.053,empathy_intonation_perc_control,2024.2.4,Win32,59.88023952,6108c4f7300885ce920eb3c5,68817205a84113384fffdfe3,68824806707eb8f4025ff33c,,,,,,,,,,,,,1,,,,,,,,,,,,,,,,,,,,,,,,,,,,,,,,,,,,,52,camisa,,,,,373.3639,374.7461,0,0,0.837,,0,66,66,51,1,REAL,FAKE,,,,,,,,,,,,,,,,,
,,,,,,,,,6108c4f7300885ce920eb3c5,Spanish,13 or older,"no, only English or Spanish",no,2025-07-24_10h50.49.053,empathy_intonation_perc_control,2024.2.4,Win32,59.88023952,6108c4f7300885ce920eb3c5,68817205a84113384fffdfe3,68824806707eb8f4025ff33c,,,,,,,,,,,,,1,,,,,,,,,,,,,,,,,,,,,,,,,,,,,,,,,,,,,88,acantilado,,,,,374.7477,376.0122,1,1,0.733,,0,67,67,87,1,REAL,FAKE,,,,,,,,,,,,,,,,,
,,,,,,,,,6108c4f7300885ce920eb3c5,Spanish,13 or older,"no, only English or Spanish",no,2025-07-24_10h50.49.053,empathy_intonation_perc_control,2024.2.4,Win32,59.88023952,6108c4f7300885ce920eb3c5,68817205a84113384fffdfe3,68824806707eb8f4025ff33c,,,,,,,,,,,,,1,,,,,,,,,,,,,,,,,,,,,,,,,,,,,,,,,,,,,28,merodear,,,,,376.0135,377.8291,0,0,1.2838,,0,68,68,27,1,REAL,FAKE,,,,,,,,,,,,,,,,,
,,,,,,,,,6108c4f7300885ce920eb3c5,Spanish,13 or older,"no, only English or Spanish",no,2025-07-24_10h50.49.053,empathy_intonation_perc_control,2024.2.4,Win32,59.88023952,6108c4f7300885ce920eb3c5,68817205a84113384fffdfe3,68824806707eb8f4025ff33c,,,,,,,,,,,,,1,,,,,,,,,,,,,,,,,,,,,,,,,,,,,,,,,,,,,76,atar,,,,,377.8304,379.1481,0,0,0.7784,,0,69,69,75,1,REAL,FAKE,,,,,,,,,,,,,,,,,
,,,,,,,,,6108c4f7300885ce920eb3c5,Spanish,13 or older,"no, only English or Spanish",no,2025-07-24_10h50.49.053,empathy_intonation_perc_control,2024.2.4,Win32,59.88023952,6108c4f7300885ce920eb3c5,68817205a84113384fffdfe3,68824806707eb8f4025ff33c,,,,,,,,,,,,,1,,,,,,,,,,,,,,,,,,,,,,,,,,,,,,,,,,,,,51,candado,,,,,379.149,381.3461,0,0,1.6609,,0,70,70,50,1,REAL,FAKE,,,,,,,,,,,,,,,,,
,,,,,,,,,6108c4f7300885ce920eb3c5,Spanish,13 or older,"no, only English or Spanish",no,2025-07-24_10h50.49.053,empathy_intonation_perc_control,2024.2.4,Win32,59.88023952,6108c4f7300885ce920eb3c5,68817205a84113384fffdfe3,68824806707eb8f4025ff33c,,,,,,,,,,,,,0,,,,,,,,,,,,,,,,,,,,,,,,,,,,,,,,,,,,,47,cartinar,,,,,381.3475,382.7632,0,1,0.8853,,0,71,71,46,1,REAL,FAKE,,,,,,,,,,,,,,,,,
,,,,,,,,,6108c4f7300885ce920eb3c5,Spanish,13 or older,"no, only English or Spanish",no,2025-07-24_10h50.49.053,empathy_intonation_perc_control,2024.2.4,Win32,59.88023952,6108c4f7300885ce920eb3c5,68817205a84113384fffdfe3,68824806707eb8f4025ff33c,,,,,,,,,,,,,1,,,,,,,,,,,,,,,,,,,,,,,,,,,,,,,,,,,,,9,hacha,,,,,382.7646,384.1456,1,1,0.8427,,0,72,72,8,1,REAL,FAKE,,,,,,,,,,,,,,,,,
,,,,,,,,,6108c4f7300885ce920eb3c5,Spanish,13 or older,"no, only English or Spanish",no,2025-07-24_10h50.49.053,empathy_intonation_perc_control,2024.2.4,Win32,59.88023952,6108c4f7300885ce920eb3c5,68817205a84113384fffdfe3,68824806707eb8f4025ff33c,,,,,,,,,,,,,1,,,,,,,,,,,,,,,,,,,,,,,,,,,,,,,,,,,,,20,ávido,,,,,384.1467,385.2288,1,1,0.5428,,0,73,73,19,1,REAL,FAKE,,,,,,,,,,,,,,,,,
,,,,,,,,,6108c4f7300885ce920eb3c5,Spanish,13 or older,"no, only English or Spanish",no,2025-07-24_10h50.49.053,empathy_intonation_perc_control,2024.2.4,Win32,59.88023952,6108c4f7300885ce920eb3c5,68817205a84113384fffdfe3,68824806707eb8f4025ff33c,,,,,,,,,,,,,0,,,,,,,,,,,,,,,,,,,,,,,,,,,,,,,,,,,,,21,capillo,,,,,385.2303,386.429,1,0,0.6665,,0,74,74,20,1,REAL,FAKE,,,,,,,,,,,,,,,,,
,,,,,,,,,6108c4f7300885ce920eb3c5,Spanish,13 or older,"no, only English or Spanish",no,2025-07-24_10h50.49.053,empathy_intonation_perc_control,2024.2.4,Win32,59.88023952,6108c4f7300885ce920eb3c5,68817205a84113384fffdfe3,68824806707eb8f4025ff33c,,,,,,,,,,,,,1,,,,,,,,,,,,,,,,,,,,,,,,,,,,,,,,,,,,,44,cuchara,,,,,386.4305,387.7289,0,0,0.7609,,0,75,75,43,1,REAL,FAKE,,,,,,,,,,,,,,,,,
,,,,,,,,,6108c4f7300885ce920eb3c5,Spanish,13 or older,"no, only English or Spanish",no,2025-07-24_10h50.49.053,empathy_intonation_perc_control,2024.2.4,Win32,59.88023952,6108c4f7300885ce920eb3c5,68817205a84113384fffdfe3,68824806707eb8f4025ff33c,,,,,,,,,,,,,1,,,,,,,,,,,,,,,,,,,,,,,,,,,,,,,,,,,,,54,fomentar,,,,,387.7304,389.1121,0,0,0.8421,,0,76,76,53,1,REAL,FAKE,,,,,,,,,,,,,,,,,
,,,,,,,,,6108c4f7300885ce920eb3c5,Spanish,13 or older,"no, only English or Spanish",no,2025-07-24_10h50.49.053,empathy_intonation_perc_control,2024.2.4,Win32,59.88023952,6108c4f7300885ce920eb3c5,68817205a84113384fffdfe3,68824806707eb8f4025ff33c,,,,,,,,,,,,,1,,,,,,,,,,,,,,,,,,,,,,,,,,,,,,,,,,,,,36,loro,,,,,389.1136,390.2958,0,0,0.6428,,0,77,77,35,1,REAL,FAKE,,,,,,,,,,,,,,,,,
,,,,,,,,,6108c4f7300885ce920eb3c5,Spanish,13 or older,"no, only English or Spanish",no,2025-07-24_10h50.49.053,empathy_intonation_perc_control,2024.2.4,Win32,59.88023952,6108c4f7300885ce920eb3c5,68817205a84113384fffdfe3,68824806707eb8f4025ff33c,,,,,,,,,,,,,0,,,,,,,,,,,,,,,,,,,,,,,,,,,,,,,,,,,,,1,terzo,,,,,390.2971,391.6292,0,1,0.8006,,0,78,78,0,1,REAL,FAKE,,,,,,,,,,,,,,,,,
,,,,,,,,,6108c4f7300885ce920eb3c5,Spanish,13 or older,"no, only English or Spanish",no,2025-07-24_10h50.49.053,empathy_intonation_perc_control,2024.2.4,Win32,59.88023952,6108c4f7300885ce920eb3c5,68817205a84113384fffdfe3,68824806707eb8f4025ff33c,,,,,,,,,,,,,0,,,,,,,,,,,,,,,,,,,,,,,,,,,,,,,,,,,,,30,alardio,,,,,391.6306,393.1798,0,1,1.0176,,0,79,79,29,1,REAL,FAKE,,,,,,,,,,,,,,,,,
,,,,,,,,,6108c4f7300885ce920eb3c5,Spanish,13 or older,"no, only English or Spanish",no,2025-07-24_10h50.49.053,empathy_intonation_perc_control,2024.2.4,Win32,59.88023952,6108c4f7300885ce920eb3c5,68817205a84113384fffdfe3,68824806707eb8f4025ff33c,,,,,,,,,,,,,1,,,,,,,,,,,,,,,,,,,,,,,,,,,,,,,,,,,,,73,hervidor,,,,,393.1809,395.1289,1,1,1.4089,,0,80,80,72,1,REAL,FAKE,,,,,,,,,,,,,,,,,
,,,,,,,,,6108c4f7300885ce920eb3c5,Spanish,13 or older,"no, only English or Spanish",no,2025-07-24_10h50.49.053,empathy_intonation_perc_control,2024.2.4,Win32,59.88023952,6108c4f7300885ce920eb3c5,68817205a84113384fffdfe3,68824806707eb8f4025ff33c,,,,,,,,,,,,,1,,,,,,,,,,,,,,,,,,,,,,,,,,,,,,,,,,,,,5,zapato,,,,,395.1303,396.5122,1,1,0.8441,,0,81,81,4,1,REAL,FAKE,,,,,,,,,,,,,,,,,
,,,,,,,,,6108c4f7300885ce920eb3c5,Spanish,13 or older,"no, only English or Spanish",no,2025-07-24_10h50.49.053,empathy_intonation_perc_control,2024.2.4,Win32,59.88023952,6108c4f7300885ce920eb3c5,68817205a84113384fffdfe3,68824806707eb8f4025ff33c,,,,,,,,,,,,,0,,,,,,,,,,,,,,,,,,,,,,,,,,,,,,,,,,,,,19,brecedad,,,,,396.5137,397.9126,1,0,0.8591,,0,82,82,18,1,REAL,FAKE,,,,,,,,,,,,,,,,,
,,,,,,,,,6108c4f7300885ce920eb3c5,Spanish,13 or older,"no, only English or Spanish",no,2025-07-24_10h50.49.053,empathy_intonation_perc_control,2024.2.4,Win32,59.88023952,6108c4f7300885ce920eb3c5,68817205a84113384fffdfe3,68824806707eb8f4025ff33c,,,,,,,,,,,,,1,,,,,,,,,,,,,,,,,,,,,,,,,,,,,,,,,,,,,39,torpe,,,,,397.9141,399.1957,1,1,0.7428,,0,83,83,38,1,REAL,FAKE,,,,,,,,,,,,,,,,,
,,,,,,,,,6108c4f7300885ce920eb3c5,Spanish,13 or older,"no, only English or Spanish",no,2025-07-24_10h50.49.053,empathy_intonation_perc_control,2024.2.4,Win32,59.88023952,6108c4f7300885ce920eb3c5,68817205a84113384fffdfe3,68824806707eb8f4025ff33c,,,,,,,,,,,,,1,,,,,,,,,,,,,,,,,,,,,,,,,,,,,,,,,,,,,34,aviso,,,,,399.1972,400.446,0,0,0.7171,,0,84,84,33,1,REAL,FAKE,,,,,,,,,,,,,,,,,
,,,,,,,,,6108c4f7300885ce920eb3c5,Spanish,13 or older,"no, only English or Spanish",no,2025-07-24_10h50.49.053,empathy_intonation_perc_control,2024.2.4,Win32,59.88023952,6108c4f7300885ce920eb3c5,68817205a84113384fffdfe3,68824806707eb8f4025ff33c,,,,,,,,,,,,,0,,,,,,,,,,,,,,,,,,,,,,,,,,,,,,,,,,,,,92,click the 0 key.,,,,,400.4476,402.1622,0,1,1.1758,,0,85,85,91,1,REAL,FAKE,,,,,,,,,,,,,,,,,
,,,,,,,,,6108c4f7300885ce920eb3c5,Spanish,13 or older,"no, only English or Spanish",no,2025-07-24_10h50.49.053,empathy_intonation_perc_control,2024.2.4,Win32,59.88023952,6108c4f7300885ce920eb3c5,68817205a84113384fffdfe3,68824806707eb8f4025ff33c,,,,,,,,,,,,,1,,,,,,,,,,,,,,,,,,,,,,,,,,,,,,,,,,,,,67,cabello,,,,,402.1641,403.579,0,0,0.8761,,0,86,86,66,1,REAL,FAKE,,,,,,,,,,,,,,,,,
,,,,,,,,,6108c4f7300885ce920eb3c5,Spanish,13 or older,"no, only English or Spanish",no,2025-07-24_10h50.49.053,empathy_intonation_perc_control,2024.2.4,Win32,59.88023952,6108c4f7300885ce920eb3c5,68817205a84113384fffdfe3,68824806707eb8f4025ff33c,,,,,,,,,,,,,1,,,,,,,,,,,,,,,,,,,,,,,,,,,,,,,,,,,,,56,musgo,,,,,403.5803,404.8459,0,0,0.7338,,0,87,87,55,1,REAL,FAKE,,,,,,,,,,,,,,,,,
,,,,,,,,,6108c4f7300885ce920eb3c5,Spanish,13 or older,"no, only English or Spanish",no,2025-07-24_10h50.49.053,empathy_intonation_perc_control,2024.2.4,Win32,59.88023952,6108c4f7300885ce920eb3c5,68817205a84113384fffdfe3,68824806707eb8f4025ff33c,,,,,,,,,,,,,0,,,,,,,,,,,,,,,,,,,,,,,,,,,,,,,,,,,,,16,abracer,,,,,404.8474,406.3622,0,1,0.9702,,0,88,88,15,1,REAL,FAKE,,,,,,,,,,,,,,,,,
,,,,,,,,,6108c4f7300885ce920eb3c5,Spanish,13 or older,"no, only English or Spanish",no,2025-07-24_10h50.49.053,empathy_intonation_perc_control,2024.2.4,Win32,59.88023952,6108c4f7300885ce920eb3c5,68817205a84113384fffdfe3,68824806707eb8f4025ff33c,,,,,,,,,,,,,1,,,,,,,,,,,,,,,,,,,,,,,,,,,,,,,,,,,,,43,canela,,,,,406.3637,408.0288,1,1,1.126,,0,89,89,42,1,REAL,FAKE,,,,,,,,,,,,,,,,,
,,,,,,,,,6108c4f7300885ce920eb3c5,Spanish,13 or older,"no, only English or Spanish",no,2025-07-24_10h50.49.053,empathy_intonation_perc_control,2024.2.4,Win32,59.88023952,6108c4f7300885ce920eb3c5,68817205a84113384fffdfe3,68824806707eb8f4025ff33c,,,,,,,,,,,,,1,,,,,,,,,,,,,,,,,,,,,,,,,,,,,,,,,,,,,26,secuestro,,,,,408.0303,409.3786,0,0,0.8171,,0,90,90,25,1,REAL,FAKE,,,,,,,,,,,,,,,,,
,,,,,,,,,6108c4f7300885ce920eb3c5,Spanish,13 or older,"no, only English or Spanish",no,2025-07-24_10h50.49.053,empathy_intonation_perc_control,2024.2.4,Win32,59.88023952,6108c4f7300885ce920eb3c5,68817205a84113384fffdfe3,68824806707eb8f4025ff33c,,,,,,,,,,,,,0,,,,,,,,,,,,,,,,,,,,,,,,,,,,,,,,,,,,,23,lampera,,,,,409.3803,410.7454,0,1,0.8261,,0,91,91,22,1,REAL,FAKE,,,,,,,,,,,,,,,,,
,,,,,,,,,6108c4f7300885ce920eb3c5,Spanish,13 or older,"no, only English or Spanish",no,2025-07-24_10h50.49.053,empathy_intonation_perc_control,2024.2.4,Win32,59.88023952,6108c4f7300885ce920eb3c5,68817205a84113384fffdfe3,68824806707eb8f4025ff33c,,,,,,,,,,,,,,,,,,,,,,,,,,,,,,,,,,,,,,,,,,,,,,,,,,,,,,,,,,,,,,,,,,,,,410.7461,418.0468,,,,,,,,,,,,,,,
,,,,,,,,,6108c4f7300885ce920eb3c5,Spanish,13 or older,"no, only English or Spanish",no,2025-07-24_10h50.49.053,empathy_intonation_perc_control,2024.2.4,Win32,59.88023952,6108c4f7300885ce920eb3c5,68817205a84113384fffdfe3,68824806707eb8f4025ff33c,,,,,,,,,,,,,,,,,,,,,,,,,,,1,,,,,,,,,,,,,,,,,,,,,,,,,,,,,,,,,,,,,,,,,,,,418.0628,422.1805,strongly agree,0,0,0,0,1,I can easily tell if someone else wants to enter a conversation.,1,0,1,0,,
,,,,,,,,,6108c4f7300885ce920eb3c5,Spanish,13 or older,"no, only English or Spanish",no,2025-07-24_10h50.49.053,empathy_intonation_perc_control,2024.2.4,Win32,59.88023952,6108c4f7300885ce920eb3c5,68817205a84113384fffdfe3,68824806707eb8f4025ff33c,,,,,,,,,,,,,,,,,,,,,,,,,,,2,,,,,,,,,,,,,,,,,,,,,,,,,,,,,,,,,,,,,,,,,,,,422.1825,424.8961,slightly agree,0,1,1,1,1,I prefer animals to humans.,0,1,0,0,,
,,,,,,,,,6108c4f7300885ce920eb3c5,Spanish,13 or older,"no, only English or Spanish",no,2025-07-24_10h50.49.053,empathy_intonation_perc_control,2024.2.4,Win32,59.88023952,6108c4f7300885ce920eb3c5,68817205a84113384fffdfe3,68824806707eb8f4025ff33c,,,,,,,,,,,,,,,,,,,,,,,,,,,3,,,,,,,,,,,,,,,,,,,,,,,,,,,,,,,,,,,,,,,,,,,,424.8982,427.2123,strongly agree,0,2,2,2,1,I try to keep up with the current trends and fashions.,0,1,0,0,,
,,,,,,,,,6108c4f7300885ce920eb3c5,Spanish,13 or older,"no, only English or Spanish",no,2025-07-24_10h50.49.053,empathy_intonation_perc_control,2024.2.4,Win32,59.88023952,6108c4f7300885ce920eb3c5,68817205a84113384fffdfe3,68824806707eb8f4025ff33c,,,,,,,,,,,,,,,,,,,,,,,,,,,4,,,,,,,,,,,,,,,,,,,,,,,,,,,,,,,,,,,,,,,,,,,,427.2146,432.9454,strongly agree,0,3,3,3,1,"I find it difficult to explain to others things that I understand easily,   when they don't understand it first time.",1,0,0,1,,
,,,,,,,,,6108c4f7300885ce920eb3c5,Spanish,13 or older,"no, only English or Spanish",no,2025-07-24_10h50.49.053,empathy_intonation_perc_control,2024.2.4,Win32,59.88023952,6108c4f7300885ce920eb3c5,68817205a84113384fffdfe3,68824806707eb8f4025ff33c,,,,,,,,,,,,,,,,,,,,,,,,,,,5,,,,,,,,,,,,,,,,,,,,,,,,,,,,,,,,,,,,,,,,,,,,432.9467,434.7124,strongly agree,0,4,4,4,1,I dream most nights.,0,1,0,0,,
,,,,,,,,,6108c4f7300885ce920eb3c5,Spanish,13 or older,"no, only English or Spanish",no,2025-07-24_10h50.49.053,empathy_intonation_perc_control,2024.2.4,Win32,59.88023952,6108c4f7300885ce920eb3c5,68817205a84113384fffdfe3,68824806707eb8f4025ff33c,,,,,,,,,,,,,,,,,,,,,,,,,,,6,,,,,,,,,,,,,,,,,,,,,,,,,,,,,,,,,,,,,,,,,,,,434.714,436.0961,strongly agree,0,5,5,5,1,I really enjoy caring for other people.,1,0,1,0,,
,,,,,,,,,6108c4f7300885ce920eb3c5,Spanish,13 or older,"no, only English or Spanish",no,2025-07-24_10h50.49.053,empathy_intonation_perc_control,2024.2.4,Win32,59.88023952,6108c4f7300885ce920eb3c5,68817205a84113384fffdfe3,68824806707eb8f4025ff33c,,,,,,,,,,,,,,,,,,,,,,,,,,,7,,,,,,,,,,,,,,,,,,,,,,,,,,,,,,,,,,,,,,,,,,,,436.0978,440.2454,strongly disagree,0,6,6,6,1,I try to solve my own problems rather than discussing them with others.,0,1,0,0,,
,,,,,,,,,6108c4f7300885ce920eb3c5,Spanish,13 or older,"no, only English or Spanish",no,2025-07-24_10h50.49.053,empathy_intonation_perc_control,2024.2.4,Win32,59.88023952,6108c4f7300885ce920eb3c5,68817205a84113384fffdfe3,68824806707eb8f4025ff33c,,,,,,,,,,,,,,,,,,,,,,,,,,,8,,,,,,,,,,,,,,,,,,,,,,,,,,,,,,,,,,,,,,,,,,,,440.2472,442.2125,strongly disagree,0,7,7,7,1,I find it hard to know what to do in a social situation.,1,0,0,1,,
,,,,,,,,,6108c4f7300885ce920eb3c5,Spanish,13 or older,"no, only English or Spanish",no,2025-07-24_10h50.49.053,empathy_intonation_perc_control,2024.2.4,Win32,59.88023952,6108c4f7300885ce920eb3c5,68817205a84113384fffdfe3,68824806707eb8f4025ff33c,,,,,,,,,,,,,,,,,,,,,,,,,,,9,,,,,,,,,,,,,,,,,,,,,,,,,,,,,,,,,,,,,,,,,,,,442.2141,444.012,strongly disagree,0,8,8,8,1,I am at my best first thing in the morning.,0,1,0,0,,
,,,,,,,,,6108c4f7300885ce920eb3c5,Spanish,13 or older,"no, only English or Spanish",no,2025-07-24_10h50.49.053,empathy_intonation_perc_control,2024.2.4,Win32,59.88023952,6108c4f7300885ce920eb3c5,68817205a84113384fffdfe3,68824806707eb8f4025ff33c,,,,,,,,,,,,,,,,,,,,,,,,,,,10,,,,,,,,,,,,,,,,,,,,,,,,,,,,,,,,,,,,,,,,,,,,444.0141,447.362,strongly disagree,0,9,9,9,1,People often tell me that I went too far in driving my point home in a discussion.,1,0,0,1,,
,,,,,,,,,6108c4f7300885ce920eb3c5,Spanish,13 or older,"no, only English or Spanish",no,2025-07-24_10h50.49.053,empathy_intonation_perc_control,2024.2.4,Win32,59.88023952,6108c4f7300885ce920eb3c5,68817205a84113384fffdfe3,68824806707eb8f4025ff33c,,,,,,,,,,,,,,,,,,,,,,,,,,,11,,,,,,,,,,,,,,,,,,,,,,,,,,,,,,,,,,,,,,,,,,,,447.3636,451.6116,strongly disagree,0,10,10,10,1,It doesn't bother me too much if I am late meeting a friend.,1,0,0,1,,
,,,,,,,,,6108c4f7300885ce920eb3c5,Spanish,13 or older,"no, only English or Spanish",no,2025-07-24_10h50.49.053,empathy_intonation_perc_control,2024.2.4,Win32,59.88023952,6108c4f7300885ce920eb3c5,68817205a84113384fffdfe3,68824806707eb8f4025ff33c,,,,,,,,,,,,,,,,,,,,,,,,,,,12,,,,,,,,,,,,,,,,,,,,,,,,,,,,,,,,,,,,,,,,,,,,451.6135,454.2785,strongly disagree,0,11,11,11,1,"Friendships and relationships are just too difficult, so I tend not to 
  bother with them.",1,0,0,1,,
,,,,,,,,,6108c4f7300885ce920eb3c5,Spanish,13 or older,"no, only English or Spanish",no,2025-07-24_10h50.49.053,empathy_intonation_perc_control,2024.2.4,Win32,59.88023952,6108c4f7300885ce920eb3c5,68817205a84113384fffdfe3,68824806707eb8f4025ff33c,,,,,,,,,,,,,,,,,,,,,,,,,,,13,,,,,,,,,,,,,,,,,,,,,,,,,,,,,,,,,,,,,,,,,,,,454.2801,457.4955,slightly agree,0,12,12,12,1,"I would never break a law, no matter how minor.",0,1,0,0,,
,,,,,,,,,6108c4f7300885ce920eb3c5,Spanish,13 or older,"no, only English or Spanish",no,2025-07-24_10h50.49.053,empathy_intonation_perc_control,2024.2.4,Win32,59.88023952,6108c4f7300885ce920eb3c5,68817205a84113384fffdfe3,68824806707eb8f4025ff33c,,,,,,,,,,,,,,,,,,,,,,,,,,,14,,,,,,,,,,,,,,,,,,,,,,,,,,,,,,,,,,,,,,,,,,,,457.4971,460.9301,strongly disagree,0,13,13,13,1,I often find it difficult to judge if something is rude or polite.,1,0,0,1,,
,,,,,,,,,6108c4f7300885ce920eb3c5,Spanish,13 or older,"no, only English or Spanish",no,2025-07-24_10h50.49.053,empathy_intonation_perc_control,2024.2.4,Win32,59.88023952,6108c4f7300885ce920eb3c5,68817205a84113384fffdfe3,68824806707eb8f4025ff33c,,,,,,,,,,,,,,,,,,,,,,,,,,,15,,,,,,,,,,,,,,,,,,,,,,,,,,,,,,,,,,,,,,,,,,,,460.9313,465.5783,slightly agree,0,14,14,14,1,"In a conversation, I tend to focus on my own thoughts rather than on what 
  my listener might be thinking.",1,0,0,1,,
,,,,,,,,,6108c4f7300885ce920eb3c5,Spanish,13 or older,"no, only English or Spanish",no,2025-07-24_10h50.49.053,empathy_intonation_perc_control,2024.2.4,Win32,59.88023952,6108c4f7300885ce920eb3c5,68817205a84113384fffdfe3,68824806707eb8f4025ff33c,,,,,,,,,,,,,,,,,,,,,,,,,,,16,,,,,,,,,,,,,,,,,,,,,,,,,,,,,,,,,,,,,,,,,,,,465.5801,471.078,strongly disagree,0,15,15,15,1,I prefer practical jokes to verbal humor.,0,1,0,0,,
,,,,,,,,,6108c4f7300885ce920eb3c5,Spanish,13 or older,"no, only English or Spanish",no,2025-07-24_10h50.49.053,empathy_intonation_perc_control,2024.2.4,Win32,59.88023952,6108c4f7300885ce920eb3c5,68817205a84113384fffdfe3,68824806707eb8f4025ff33c,,,,,,,,,,,,,,,,,,,,,,,,,,,17,,,,,,,,,,,,,,,,,,,,,,,,,,,,,,,,,,,,,,,,,,,,471.0794,475.078,slightly agree,0,16,16,16,1,I live life for today rather than the future.,0,1,0,0,,
,,,,,,,,,6108c4f7300885ce920eb3c5,Spanish,13 or older,"no, only English or Spanish",no,2025-07-24_10h50.49.053,empathy_intonation_perc_control,2024.2.4,Win32,59.88023952,6108c4f7300885ce920eb3c5,68817205a84113384fffdfe3,68824806707eb8f4025ff33c,,,,,,,,,,,,,,,,,,,,,,,,,,,18,,,,,,,,,,,,,,,,,,,,,,,,,,,,,,,,,,,,,,,,,,,,475.0802,477.5952,strongly disagree,0,17,17,17,1,"When I was a child, I enjoyed cutting up worms to see what would happen.",1,0,0,1,,
,,,,,,,,,6108c4f7300885ce920eb3c5,Spanish,13 or older,"no, only English or Spanish",no,2025-07-24_10h50.49.053,empathy_intonation_perc_control,2024.2.4,Win32,59.88023952,6108c4f7300885ce920eb3c5,68817205a84113384fffdfe3,68824806707eb8f4025ff33c,,,,,,,,,,,,,,,,,,,,,,,,,,,19,,,,,,,,,,,,,,,,,,,,,,,,,,,,,,,,,,,,,,,,,,,,477.5968,480.5285,strongly agree,0,18,18,18,1,I can pick up quickly if someone says one thing but means another.,1,0,1,0,,
,,,,,,,,,6108c4f7300885ce920eb3c5,Spanish,13 or older,"no, only English or Spanish",no,2025-07-24_10h50.49.053,empathy_intonation_perc_control,2024.2.4,Win32,59.88023952,6108c4f7300885ce920eb3c5,68817205a84113384fffdfe3,68824806707eb8f4025ff33c,,,,,,,,,,,,,,,,,,,,,,,,,,,20,,,,,,,,,,,,,,,,,,,,,,,,,,,,,,,,,,,,,,,,,,,,480.5302,483.3119,slightly agree,0,19,19,19,1,I tend to have very strong opinions about morality.,0,1,0,0,,
,,,,,,,,,6108c4f7300885ce920eb3c5,Spanish,13 or older,"no, only English or Spanish",no,2025-07-24_10h50.49.053,empathy_intonation_perc_control,2024.2.4,Win32,59.88023952,6108c4f7300885ce920eb3c5,68817205a84113384fffdfe3,68824806707eb8f4025ff33c,,,,,,,,,,,,,,,,,,,,,,,,,,,21,,,,,,,,,,,,,,,,,,,,,,,,,,,,,,,,,,,,,,,,,,,,483.3135,486.2283,strongly disagree,0,20,20,20,1,It is hard for me to see why some things upset people so much.,1,0,0,1,,
,,,,,,,,,6108c4f7300885ce920eb3c5,Spanish,13 or older,"no, only English or Spanish",no,2025-07-24_10h50.49.053,empathy_intonation_perc_control,2024.2.4,Win32,59.88023952,6108c4f7300885ce920eb3c5,68817205a84113384fffdfe3,68824806707eb8f4025ff33c,,,,,,,,,,,,,,,,,,,,,,,,,,,22,,,,,,,,,,,,,,,,,,,,,,,,,,,,,,,,,,,,,,,,,,,,486.2302,488.4948,strongly agree,0,21,21,21,1,I find it easy to put myself in somebody else's shoes.,1,0,1,0,,
,,,,,,,,,6108c4f7300885ce920eb3c5,Spanish,13 or older,"no, only English or Spanish",no,2025-07-24_10h50.49.053,empathy_intonation_perc_control,2024.2.4,Win32,59.88023952,6108c4f7300885ce920eb3c5,68817205a84113384fffdfe3,68824806707eb8f4025ff33c,,,,,,,,,,,,,,,,,,,,,,,,,,,23,,,,,,,,,,,,,,,,,,,,,,,,,,,,,,,,,,,,,,,,,,,,488.4963,492.2115,slightly agree,0,22,22,22,1,I think that good manners are the most important thing a parent can teach their child.,0,1,0,0,,
,,,,,,,,,6108c4f7300885ce920eb3c5,Spanish,13 or older,"no, only English or Spanish",no,2025-07-24_10h50.49.053,empathy_intonation_perc_control,2024.2.4,Win32,59.88023952,6108c4f7300885ce920eb3c5,68817205a84113384fffdfe3,68824806707eb8f4025ff33c,,,,,,,,,,,,,,,,,,,,,,,,,,,24,,,,,,,,,,,,,,,,,,,,,,,,,,,,,,,,,,,,,,,,,,,,492.2133,495.1116,slightly agree,0,23,23,23,1,I like to do things on the spur of the moment.,0,1,0,0,,
,,,,,,,,,6108c4f7300885ce920eb3c5,Spanish,13 or older,"no, only English or Spanish",no,2025-07-24_10h50.49.053,empathy_intonation_perc_control,2024.2.4,Win32,59.88023952,6108c4f7300885ce920eb3c5,68817205a84113384fffdfe3,68824806707eb8f4025ff33c,,,,,,,,,,,,,,,,,,,,,,,,,,,25,,,,,,,,,,,,,,,,,,,,,,,,,,,,,,,,,,,,,,,,,,,,495.113,496.9787,strongly agree,0,24,24,24,1,I am good at predicting how someone will feel.,1,0,1,0,,
