instructions_2afc.started,instructions_2afc.stopped,instructions_2afc_loop.thisRepN,instructions_2afc_loop.thisTrialN,instructions_2afc_loop.thisN,instructions_2afc_loop.thisIndex,instructions_2afc_loop.ran,instructions_text,continue_text,participant_id,"What variety of Spanish are you most familiar with? (e.g., Peruvian, Spanish, Mexican)",At what age did you begin learning Spanish?,Are you proficient in any languages other than English/Spanish?,"Are you familiar with Caribbean (e.g., Caribbean, Puerto Rican) or Galician Spanish?",date,expName,psychopyVersion,OS,frameRate,id,study_id,session,practice_2afc.started,practice_2afc.stopped,key_resp_2afc_practice.keys,key_resp_2afc_practice.corr,key_resp_2afc_practice.rt,key_resp_2afc_practice.duration,trials_2afc_practice_loop.thisRepN,trials_2afc_practice_loop.thisTrialN,trials_2afc_practice_loop.thisN,trials_2afc_practice_loop.thisIndex,trials_2afc_practice_loop.ran,path,correct_response,check_2afc.started,check_2afc.stopped,trial_2afc.started,trial_2afc.stopped,key_resp_2afc_trial.keys,key_resp_2afc_trial.corr,key_resp_2afc_trial.rt,key_resp_2afc_trial.duration,trials_2afc_loop.thisRepN,trials_2afc_loop.thisTrialN,trials_2afc_loop.thisN,trials_2afc_loop.thisIndex,trials_2afc_loop.ran,item_num,target,variety,instructions_lextale.started,instructions_lextale.stopped,instructions_lextale_loop.thisRepN,instructions_lextale_loop.thisTrialN,instructions_lextale_loop.thisN,instructions_lextale_loop.thisIndex,instructions_lextale_loop.ran,practice_lextale.started,practice_lextale.stopped,key_resp_lextale_practice.keys,key_resp_lextale_practice.corr,key_resp_lextale_practice.rt,key_resp_lextale_practice.duration,practice_feedback_lextale.started,practice_feedback_lextale.stopped,trials_lextale_practice_loop.thisRepN,trials_lextale_practice_loop.thisTrialN,trials_lextale_practice_loop.thisN,trials_lextale_practice_loop.thisIndex,trials_lextale_practice_loop.ran,stim,word,prac_button_real,prac_button_false,check_lextale.started,check_lextale.stopped,trial_lextale.started,trial_lextale.stopped,key_resp_lextale_trial.keys,key_resp_lextale_trial.corr,key_resp_lextale_trial.rt,key_resp_lextale_trial.duration,trials_lextale_loop.thisRepN,trials_lextale_loop.thisTrialN,trials_lextale_loop.thisN,trials_lextale_loop.thisIndex,trials_lextale_loop.ran,button_real,button_false,instructions_eq.started,instructions_eq.stopped,trial_eq.started,trial_eq.stopped,slider_eq_trial.response,trials_eq_loop.thisRepN,trials_eq_loop.thisTrialN,trials_eq_loop.thisN,trials_eq_loop.thisIndex,trials_eq_loop.ran,item,is_test_item,is_distractor,is_agree_score,is_disagree_score,end_exp.started,end_exp.stopped
0.0083,9.176,0,0,0,0,1,"In the following task you are going to hear a series of utterances. 

  You will decide if the utterances sound like questions or not using your keyboard.", (press the spacebar to continue),61088c529cff73b187d19e6d,Spanish,13 or older,"yes, I am fluent in another language",no,2026-01-21_21h10.58.205,empathy_intonation_perc_control,2024.2.4,MacIntel,121.9512195,61088c529cff73b187d19e6d,69712dc693a3960bdb483245,697187103db7d25b45aa5870,,,,,,,,,,,,,,,,,,,,,,,,,,,,,,,,,,,,,,,,,,,,,,,,,,,,,,,,,,,,,,,,,,,,,,,,,,,,,,,,,,,,,
9.1766,17.1271,0,1,1,1,1,"If you believe the utterance is a question, type '1' (for 'yes') and if you do not 
  believe it is a question type '0' (for 'no').

  Let's practice a bit...", (press the spacebar to continue),61088c529cff73b187d19e6d,Spanish,13 or older,"yes, I am fluent in another language",no,2026-01-21_21h10.58.205,empathy_intonation_perc_control,2024.2.4,MacIntel,121.9512195,61088c529cff73b187d19e6d,69712dc693a3960bdb483245,697187103db7d25b45aa5870,,,,,,,,,,,,,,,,,,,,,,,,,,,,,,,,,,,,,,,,,,,,,,,,,,,,,,,,,,,,,,,,,,,,,,,,,,,,,,,,,,,,,
,,,,,,,,,61088c529cff73b187d19e6d,Spanish,13 or older,"yes, I am fluent in another language",no,2026-01-21_21h10.58.205,empathy_intonation_perc_control,2024.2.4,MacIntel,121.9512195,61088c529cff73b187d19e6d,69712dc693a3960bdb483245,697187103db7d25b45aa5870,17.1387,20.3924,0,1,2.7439,,0,0,0,6,1,./stim/wavs/peruvian_statement_filler_El-nino-habla-con-su-madre.wav,0,,,,,,,,,,,,,,,,,,,,,,,,,,,,,,,,,,,,,,,,,,,,,,,,,,,,,,,,,,,,,,,,,,,,,,,,
,,,,,,,,,61088c529cff73b187d19e6d,Spanish,13 or older,"yes, I am fluent in another language",no,2026-01-21_21h10.58.205,empathy_intonation_perc_control,2024.2.4,MacIntel,121.9512195,61088c529cff73b187d19e6d,69712dc693a3960bdb483245,697187103db7d25b45aa5870,20.3935,23.2255,1,1,2.3167,,0,1,1,0,1,./stim/wavs/castilian_question_filler_Mi-esposo-conoce-al-chico.wav,1,,,,,,,,,,,,,,,,,,,,,,,,,,,,,,,,,,,,,,,,,,,,,,,,,,,,,,,,,,,,,,,,,,,,,,,,
,,,,,,,,,61088c529cff73b187d19e6d,Spanish,13 or older,"yes, I am fluent in another language",no,2026-01-21_21h10.58.205,empathy_intonation_perc_control,2024.2.4,MacIntel,121.9512195,61088c529cff73b187d19e6d,69712dc693a3960bdb483245,697187103db7d25b45aa5870,23.2262,25.641,1,1,1.9009,,0,2,2,3,1,./stim/wavs/mexican_question_filler_Felipe-no-tiene-contrasena.wav,1,,,,,,,,,,,,,,,,,,,,,,,,,,,,,,,,,,,,,,,,,,,,,,,,,,,,,,,,,,,,,,,,,,,,,,,,
,,,,,,,,,61088c529cff73b187d19e6d,Spanish,13 or older,"yes, I am fluent in another language",no,2026-01-21_21h10.58.205,empathy_intonation_perc_control,2024.2.4,MacIntel,121.9512195,61088c529cff73b187d19e6d,69712dc693a3960bdb483245,697187103db7d25b45aa5870,25.6415,27.6329,0,0,1.483,,0,3,3,2,1,./stim/wavs/chilean_question_filler_Mi-padre-cantaba-bien.wav,1,,,,,,,,,,,,,,,,,,,,,,,,,,,,,,,,,,,,,,,,,,,,,,,,,,,,,,,,,,,,,,,,,,,,,,,,
,,,,,,,,,61088c529cff73b187d19e6d,Spanish,13 or older,"yes, I am fluent in another language",no,2026-01-21_21h10.58.205,empathy_intonation_perc_control,2024.2.4,MacIntel,121.9512195,61088c529cff73b187d19e6d,69712dc693a3960bdb483245,697187103db7d25b45aa5870,27.6336,29.958,0,1,1.8167,,0,4,4,4,1,./stim/wavs/cuban_statement_filler_Cocinabas-por-la-noche.wav,0,,,,,,,,,,,,,,,,,,,,,,,,,,,,,,,,,,,,,,,,,,,,,,,,,,,,,,,,,,,,,,,,,,,,,,,,
,,,,,,,,,61088c529cff73b187d19e6d,Spanish,13 or older,"yes, I am fluent in another language",no,2026-01-21_21h10.58.205,empathy_intonation_perc_control,2024.2.4,MacIntel,121.9512195,61088c529cff73b187d19e6d,69712dc693a3960bdb483245,697187103db7d25b45aa5870,29.9589,32.2338,0,1,1.7613,,0,5,5,5,1,./stim/wavs/andalusian_statement_filler_Alberto-nunca-se-afeita.wav,0,,,,,,,,,,,,,,,,,,,,,,,,,,,,,,,,,,,,,,,,,,,,,,,,,,,,,,,,,,,,,,,,,,,,,,,,
,,,,,,,,,61088c529cff73b187d19e6d,Spanish,13 or older,"yes, I am fluent in another language",no,2026-01-21_21h10.58.205,empathy_intonation_perc_control,2024.2.4,MacIntel,121.9512195,61088c529cff73b187d19e6d,69712dc693a3960bdb483245,697187103db7d25b45aa5870,32.2346,34.6498,0,1,1.9022,,0,6,6,7,1,./stim/wavs/puertorican_statement_filler_La-nina-pinta-con-su-amiga.wav,0,,,,,,,,,,,,,,,,,,,,,,,,,,,,,,,,,,,,,,,,,,,,,,,,,,,,,,,,,,,,,,,,,,,,,,,,
,,,,,,,,,61088c529cff73b187d19e6d,Spanish,13 or older,"yes, I am fluent in another language",no,2026-01-21_21h10.58.205,empathy_intonation_perc_control,2024.2.4,MacIntel,121.9512195,61088c529cff73b187d19e6d,69712dc693a3960bdb483245,697187103db7d25b45aa5870,34.6504,36.6587,1,1,1.5015,,0,7,7,1,1,./stim/wavs/argentine_question_filler_Mi-vecino-habla-mucho.wav,1,,,,,,,,,,,,,,,,,,,,,,,,,,,,,,,,,,,,,,,,,,,,,,,,,,,,,,,,,,,,,,,,,,,,,,,,
,,,,,,,,,61088c529cff73b187d19e6d,Spanish,13 or older,"yes, I am fluent in another language",no,2026-01-21_21h10.58.205,empathy_intonation_perc_control,2024.2.4,MacIntel,121.9512195,61088c529cff73b187d19e6d,69712dc693a3960bdb483245,697187103db7d25b45aa5870,,,,,,,,,,,,,,36.6591,39.6674,,,,,,,,,,,,,,,,,,,,,,,,,,,,,,,,,,,,,,,,,,,,,,,,,,,,,,,,,,,,,,,,,,,,,,
,,,,,,,,,61088c529cff73b187d19e6d,Spanish,13 or older,"yes, I am fluent in another language",no,2026-01-21_21h10.58.205,empathy_intonation_perc_control,2024.2.4,MacIntel,121.9512195,61088c529cff73b187d19e6d,69712dc693a3960bdb483245,697187103db7d25b45aa5870,,,,,,,,,,,,./stim/wavs/mexican_match_declarative-broad-focus_David-leia-el-libro.wav,0,,,39.678,41.8508,0,1,1.6586,,0,0,0,58,1,59,0,mexican,,,,,,,,,,,,,,,,,,,,,,,,,,,,,,,,,,,,,,,,,,,,,,,,,,,,,,,,
,,,,,,,,,61088c529cff73b187d19e6d,Spanish,13 or older,"yes, I am fluent in another language",no,2026-01-21_21h10.58.205,empathy_intonation_perc_control,2024.2.4,MacIntel,121.9512195,61088c529cff73b187d19e6d,69712dc693a3960bdb483245,697187103db7d25b45aa5870,,,,,,,,,,,,./stim/wavs/castilian_mismatch_interrogative-total-yn_La-nina-lava-el-plato.wav,1,,,41.8516,44.1746,1,1,1.8096,,0,1,1,25,1,26,0,castilian,,,,,,,,,,,,,,,,,,,,,,,,,,,,,,,,,,,,,,,,,,,,,,,,,,,,,,,,
,,,,,,,,,61088c529cff73b187d19e6d,Spanish,13 or older,"yes, I am fluent in another language",no,2026-01-21_21h10.58.205,empathy_intonation_perc_control,2024.2.4,MacIntel,121.9512195,61088c529cff73b187d19e6d,69712dc693a3960bdb483245,697187103db7d25b45aa5870,,,,,,,,,,,,./stim/wavs/mexican_mismatch_declarative-broad-focus_El-hombre-mira-la-luna.wav,0,,,44.1752,46.4504,0,1,1.7606,,0,2,2,79,1,80,0,mexican,,,,,,,,,,,,,,,,,,,,,,,,,,,,,,,,,,,,,,,,,,,,,,,,,,,,,,,,
,,,,,,,,,61088c529cff73b187d19e6d,Spanish,13 or older,"yes, I am fluent in another language",no,2026-01-21_21h10.58.205,empathy_intonation_perc_control,2024.2.4,MacIntel,121.9512195,61088c529cff73b187d19e6d,69712dc693a3960bdb483245,697187103db7d25b45aa5870,,,,,,,,,,,,./stim/wavs/mexican_match_interrogative-total-yn_Ana-lleva-el-abrigo.wav,1,,,46.451,48.5005,1,1,1.534,,0,3,3,12,1,13,0,mexican,,,,,,,,,,,,,,,,,,,,,,,,,,,,,,,,,,,,,,,,,,,,,,,,,,,,,,,,
,,,,,,,,,61088c529cff73b187d19e6d,Spanish,13 or older,"yes, I am fluent in another language",no,2026-01-21_21h10.58.205,empathy_intonation_perc_control,2024.2.4,MacIntel,121.9512195,61088c529cff73b187d19e6d,69712dc693a3960bdb483245,697187103db7d25b45aa5870,,,,,,,,,,,,./stim/wavs/cuban_match_interrogative-total-yn_Mariano-habla-del-tiempo.wav,1,,,48.5013,51.3418,0,0,2.3263,,0,4,4,10,1,11,1,cuban,,,,,,,,,,,,,,,,,,,,,,,,,,,,,,,,,,,,,,,,,,,,,,,,,,,,,,,,
,,,,,,,,,61088c529cff73b187d19e6d,Spanish,13 or older,"yes, I am fluent in another language",no,2026-01-21_21h10.58.205,empathy_intonation_perc_control,2024.2.4,MacIntel,121.9512195,61088c529cff73b187d19e6d,69712dc693a3960bdb483245,697187103db7d25b45aa5870,,,,,,,,,,,,./stim/wavs/puertorican_mismatch_declarative-broad-focus_La-maestra-vive-en-Paris.wav,0,,,51.3422,53.6171,0,1,1.7601,,0,5,5,86,1,87,0,puertorican,,,,,,,,,,,,,,,,,,,,,,,,,,,,,,,,,,,,,,,,,,,,,,,,,,,,,,,,
,,,,,,,,,61088c529cff73b187d19e6d,Spanish,13 or older,"yes, I am fluent in another language",no,2026-01-21_21h10.58.205,empathy_intonation_perc_control,2024.2.4,MacIntel,121.9512195,61088c529cff73b187d19e6d,69712dc693a3960bdb483245,697187103db7d25b45aa5870,,,,,,,,,,,,./stim/wavs/castilian_match_interrogative-total-yn_Maria-bebe-el-vino.wav,1,,,53.6178,55.7088,1,1,1.5776,,0,6,6,3,1,4,0,castilian,,,,,,,,,,,,,,,,,,,,,,,,,,,,,,,,,,,,,,,,,,,,,,,,,,,,,,,,
,,,,,,,,,61088c529cff73b187d19e6d,Spanish,13 or older,"yes, I am fluent in another language",no,2026-01-21_21h10.58.205,empathy_intonation_perc_control,2024.2.4,MacIntel,121.9512195,61088c529cff73b187d19e6d,69712dc693a3960bdb483245,697187103db7d25b45aa5870,,,,,,,,,,,,./stim/wavs/cuban_match_declarative-broad-focus_Daniel-iba-a-Bolivia.wav,0,,,55.7094,58.2085,0,1,1.9855,,0,7,7,51,1,52,0,cuban,,,,,,,,,,,,,,,,,,,,,,,,,,,,,,,,,,,,,,,,,,,,,,,,,,,,,,,,
,,,,,,,,,61088c529cff73b187d19e6d,Spanish,13 or older,"yes, I am fluent in another language",no,2026-01-21_21h10.58.205,empathy_intonation_perc_control,2024.2.4,MacIntel,121.9512195,61088c529cff73b187d19e6d,69712dc693a3960bdb483245,697187103db7d25b45aa5870,,,,,,,,,,,,./stim/wavs/castilian_match_declarative-broad-focus_Manuela-vende-el-carro.wav,0,,,58.2088,60.575,0,1,1.8507,,0,8,8,46,1,47,0,castilian,,,,,,,,,,,,,,,,,,,,,,,,,,,,,,,,,,,,,,,,,,,,,,,,,,,,,,,,
,,,,,,,,,61088c529cff73b187d19e6d,Spanish,13 or older,"yes, I am fluent in another language",no,2026-01-21_21h10.58.205,empathy_intonation_perc_control,2024.2.4,MacIntel,121.9512195,61088c529cff73b187d19e6d,69712dc693a3960bdb483245,697187103db7d25b45aa5870,,,,,,,,,,,,./stim/wavs/cuban_mismatch_declarative-broad-focus_El-bebe-comia-muy-bien.wav,0,,,60.5755,62.5837,0,1,1.4922,,0,9,9,73,1,74,0,cuban,,,,,,,,,,,,,,,,,,,,,,,,,,,,,,,,,,,,,,,,,,,,,,,,,,,,,,,,
,,,,,,,,,61088c529cff73b187d19e6d,Spanish,13 or older,"yes, I am fluent in another language",no,2026-01-21_21h10.58.205,empathy_intonation_perc_control,2024.2.4,MacIntel,121.9512195,61088c529cff73b187d19e6d,69712dc693a3960bdb483245,697187103db7d25b45aa5870,,,,,,,,,,,,./stim/wavs/mexican_match_interrogative-total-yn_Daniel-iba-a-Bolivia.wav,1,,,62.5845,64.8252,1,1,1.729,,0,10,10,13,1,14,0,mexican,,,,,,,,,,,,,,,,,,,,,,,,,,,,,,,,,,,,,,,,,,,,,,,,,,,,,,,,
,,,,,,,,,61088c529cff73b187d19e6d,Spanish,13 or older,"yes, I am fluent in another language",no,2026-01-21_21h10.58.205,empathy_intonation_perc_control,2024.2.4,MacIntel,121.9512195,61088c529cff73b187d19e6d,69712dc693a3960bdb483245,697187103db7d25b45aa5870,,,,,,,,,,,,./stim/wavs/cuban_mismatch_declarative-broad-focus_Mi-novio-viene-del-lago.wav,0,,,64.8257,67.0084,0,1,1.6648,,0,11,11,76,1,77,0,cuban,,,,,,,,,,,,,,,,,,,,,,,,,,,,,,,,,,,,,,,,,,,,,,,,,,,,,,,,
,,,,,,,,,61088c529cff73b187d19e6d,Spanish,13 or older,"yes, I am fluent in another language",no,2026-01-21_21h10.58.205,empathy_intonation_perc_control,2024.2.4,MacIntel,121.9512195,61088c529cff73b187d19e6d,69712dc693a3960bdb483245,697187103db7d25b45aa5870,,,,,,,,,,,,./stim/wavs/mexican_mismatch_declarative-broad-focus_El-bebe-comia-muy-bien.wav,0,,,67.0087,69.2171,0,1,1.6933,,0,12,12,78,1,79,0,mexican,,,,,,,,,,,,,,,,,,,,,,,,,,,,,,,,,,,,,,,,,,,,,,,,,,,,,,,,
,,,,,,,,,61088c529cff73b187d19e6d,Spanish,13 or older,"yes, I am fluent in another language",no,2026-01-21_21h10.58.205,empathy_intonation_perc_control,2024.2.4,MacIntel,121.9512195,61088c529cff73b187d19e6d,69712dc693a3960bdb483245,697187103db7d25b45aa5870,,,,,,,,,,,,./stim/wavs/puertorican_match_interrogative-total-yn_Emilio-ama-la-marcha.wav,1,,,69.2178,71.8503,0,0,2.1165,,0,13,13,21,1,22,1,puertorican,,,,,,,,,,,,,,,,,,,,,,,,,,,,,,,,,,,,,,,,,,,,,,,,,,,,,,,,
,,,,,,,,,61088c529cff73b187d19e6d,Spanish,13 or older,"yes, I am fluent in another language",no,2026-01-21_21h10.58.205,empathy_intonation_perc_control,2024.2.4,MacIntel,121.9512195,61088c529cff73b187d19e6d,69712dc693a3960bdb483245,697187103db7d25b45aa5870,,,,,,,,,,,,./stim/wavs/castilian_mismatch_declarative-broad-focus_Mi-novio-viene-del-lago.wav,0,,,71.8508,74.217,0,1,1.8536,,0,14,14,71,1,72,0,castilian,,,,,,,,,,,,,,,,,,,,,,,,,,,,,,,,,,,,,,,,,,,,,,,,,,,,,,,,
,,,,,,,,,61088c529cff73b187d19e6d,Spanish,13 or older,"yes, I am fluent in another language",no,2026-01-21_21h10.58.205,empathy_intonation_perc_control,2024.2.4,MacIntel,121.9512195,61088c529cff73b187d19e6d,69712dc693a3960bdb483245,697187103db7d25b45aa5870,,,,,,,,,,,,./stim/wavs/puertorican_match_declarative-broad-focus_Manuela-vende-el-carro.wav,0,,,74.2176,76.5836,0,1,1.8499,,0,15,15,66,1,67,0,puertorican,,,,,,,,,,,,,,,,,,,,,,,,,,,,,,,,,,,,,,,,,,,,,,,,,,,,,,,,
,,,,,,,,,61088c529cff73b187d19e6d,Spanish,13 or older,"yes, I am fluent in another language",no,2026-01-21_21h10.58.205,empathy_intonation_perc_control,2024.2.4,MacIntel,121.9512195,61088c529cff73b187d19e6d,69712dc693a3960bdb483245,697187103db7d25b45aa5870,,,,,,,,,,,,./stim/wavs/mexican_mismatch_declarative-broad-focus_Mi-novio-viene-del-lago.wav,0,,,76.5839,78.7834,0,1,1.6851,,0,16,16,81,1,82,0,mexican,,,,,,,,,,,,,,,,,,,,,,,,,,,,,,,,,,,,,,,,,,,,,,,,,,,,,,,,
,,,,,,,,,61088c529cff73b187d19e6d,Spanish,13 or older,"yes, I am fluent in another language",no,2026-01-21_21h10.58.205,empathy_intonation_perc_control,2024.2.4,MacIntel,121.9512195,61088c529cff73b187d19e6d,69712dc693a3960bdb483245,697187103db7d25b45aa5870,,,,,,,,,,,,./stim/wavs/cuban_mismatch_interrogative-total-yn_El-hombre-mira-la-luna.wav,1,,,78.7838,81.0584,0,0,1.7579,,0,17,17,29,1,30,1,cuban,,,,,,,,,,,,,,,,,,,,,,,,,,,,,,,,,,,,,,,,,,,,,,,,,,,,,,,,
,,,,,,,,,61088c529cff73b187d19e6d,Spanish,13 or older,"yes, I am fluent in another language",no,2026-01-21_21h10.58.205,empathy_intonation_perc_control,2024.2.4,MacIntel,121.9512195,61088c529cff73b187d19e6d,69712dc693a3960bdb483245,697187103db7d25b45aa5870,,,,,,,,,,,,./stim/wavs/cuban_mismatch_declarative-broad-focus_El-hombre-mira-la-luna.wav,0,,,81.0589,83.1251,0,1,1.5507,,0,18,18,74,1,75,0,cuban,,,,,,,,,,,,,,,,,,,,,,,,,,,,,,,,,,,,,,,,,,,,,,,,,,,,,,,,
,,,,,,,,,61088c529cff73b187d19e6d,Spanish,13 or older,"yes, I am fluent in another language",no,2026-01-21_21h10.58.205,empathy_intonation_perc_control,2024.2.4,MacIntel,121.9512195,61088c529cff73b187d19e6d,69712dc693a3960bdb483245,697187103db7d25b45aa5870,,,,,,,,,,,,./stim/wavs/mexican_match_declarative-broad-focus_Ana-lleva-el-abrigo.wav,0,,,83.1255,85.2168,0,1,1.5756,,0,19,19,56,1,57,0,mexican,,,,,,,,,,,,,,,,,,,,,,,,,,,,,,,,,,,,,,,,,,,,,,,,,,,,,,,,
,,,,,,,,,61088c529cff73b187d19e6d,Spanish,13 or older,"yes, I am fluent in another language",no,2026-01-21_21h10.58.205,empathy_intonation_perc_control,2024.2.4,MacIntel,121.9512195,61088c529cff73b187d19e6d,69712dc693a3960bdb483245,697187103db7d25b45aa5870,,,,,,,,,,,,./stim/wavs/castilian_match_interrogative-total-yn_David-leia-el-libro.wav,1,,,85.2171,87.9169,1,1,2.1827,,0,20,20,0,1,1,0,castilian,,,,,,,,,,,,,,,,,,,,,,,,,,,,,,,,,,,,,,,,,,,,,,,,,,,,,,,,
,,,,,,,,,61088c529cff73b187d19e6d,Spanish,13 or older,"yes, I am fluent in another language",no,2026-01-21_21h10.58.205,empathy_intonation_perc_control,2024.2.4,MacIntel,121.9512195,61088c529cff73b187d19e6d,69712dc693a3960bdb483245,697187103db7d25b45aa5870,,,,,,,,,,,,./stim/wavs/puertorican_mismatch_interrogative-total-yn_La-maestra-vive-en-Paris.wav,1,,,87.9175,90.517,0,0,2.0856,,0,21,21,41,1,42,1,puertorican,,,,,,,,,,,,,,,,,,,,,,,,,,,,,,,,,,,,,,,,,,,,,,,,,,,,,,,,
,,,,,,,,,61088c529cff73b187d19e6d,Spanish,13 or older,"yes, I am fluent in another language",no,2026-01-21_21h10.58.205,empathy_intonation_perc_control,2024.2.4,MacIntel,121.9512195,61088c529cff73b187d19e6d,69712dc693a3960bdb483245,697187103db7d25b45aa5870,,,,,,,,,,,,./stim/wavs/cuban_match_interrogative-total-yn_Manuela-vende-el-carro.wav,1,,,90.5177,92.7667,0,0,1.7355,,0,22,22,8,1,9,1,cuban,,,,,,,,,,,,,,,,,,,,,,,,,,,,,,,,,,,,,,,,,,,,,,,,,,,,,,,,
,,,,,,,,,61088c529cff73b187d19e6d,Spanish,13 or older,"yes, I am fluent in another language",no,2026-01-21_21h10.58.205,empathy_intonation_perc_control,2024.2.4,MacIntel,121.9512195,61088c529cff73b187d19e6d,69712dc693a3960bdb483245,697187103db7d25b45aa5870,,,,,,,,,,,,./stim/wavs/mexican_mismatch_interrogative-total-yn_El-hombre-mira-la-luna.wav,1,,,92.7673,94.7419,1,1,1.4606,,0,23,23,34,1,35,0,mexican,,,,,,,,,,,,,,,,,,,,,,,,,,,,,,,,,,,,,,,,,,,,,,,,,,,,,,,,
,,,,,,,,,61088c529cff73b187d19e6d,Spanish,13 or older,"yes, I am fluent in another language",no,2026-01-21_21h10.58.205,empathy_intonation_perc_control,2024.2.4,MacIntel,121.9512195,61088c529cff73b187d19e6d,69712dc693a3960bdb483245,697187103db7d25b45aa5870,,,,,,,,,,,,./stim/wavs/cuban_mismatch_interrogative-total-yn_Mi-novio-viene-del-lago.wav,1,,,94.7424,96.8752,0,0,1.6176,,0,24,24,32,1,33,1,cuban,,,,,,,,,,,,,,,,,,,,,,,,,,,,,,,,,,,,,,,,,,,,,,,,,,,,,,,,
,,,,,,,,,61088c529cff73b187d19e6d,Spanish,13 or older,"yes, I am fluent in another language",no,2026-01-21_21h10.58.205,empathy_intonation_perc_control,2024.2.4,MacIntel,121.9512195,61088c529cff73b187d19e6d,69712dc693a3960bdb483245,697187103db7d25b45aa5870,,,,,,,,,,,,./stim/wavs/mexican_match_declarative-broad-focus_Daniel-iba-a-Bolivia.wav,0,,,96.8757,99.1167,0,1,1.7245,,0,25,25,57,1,58,0,mexican,,,,,,,,,,,,,,,,,,,,,,,,,,,,,,,,,,,,,,,,,,,,,,,,,,,,,,,,
,,,,,,,,,61088c529cff73b187d19e6d,Spanish,13 or older,"yes, I am fluent in another language",no,2026-01-21_21h10.58.205,empathy_intonation_perc_control,2024.2.4,MacIntel,121.9512195,61088c529cff73b187d19e6d,69712dc693a3960bdb483245,697187103db7d25b45aa5870,,,,,,,,,,,,./stim/wavs/cuban_mismatch_interrogative-total-yn_Mi-madre-come-la-fruta.wav,1,,,99.117,101.4338,0,0,1.8015,,0,26,26,31,1,32,1,cuban,,,,,,,,,,,,,,,,,,,,,,,,,,,,,,,,,,,,,,,,,,,,,,,,,,,,,,,,
,,,,,,,,,61088c529cff73b187d19e6d,Spanish,13 or older,"yes, I am fluent in another language",no,2026-01-21_21h10.58.205,empathy_intonation_perc_control,2024.2.4,MacIntel,121.9512195,61088c529cff73b187d19e6d,69712dc693a3960bdb483245,697187103db7d25b45aa5870,,,,,,,,,,,,./stim/wavs/cuban_match_declarative-broad-focus_Maria-bebe-el-vino.wav,0,,,101.4346,103.7337,0,1,1.7845,,0,27,27,53,1,54,0,cuban,,,,,,,,,,,,,,,,,,,,,,,,,,,,,,,,,,,,,,,,,,,,,,,,,,,,,,,,
,,,,,,,,,61088c529cff73b187d19e6d,Spanish,13 or older,"yes, I am fluent in another language",no,2026-01-21_21h10.58.205,empathy_intonation_perc_control,2024.2.4,MacIntel,121.9512195,61088c529cff73b187d19e6d,69712dc693a3960bdb483245,697187103db7d25b45aa5870,,,,,,,,,,,,./stim/wavs/mexican_mismatch_interrogative-total-yn_Mi-novio-viene-del-lago.wav,1,,,103.7343,105.866,1,1,1.6186,,0,28,28,37,1,38,0,mexican,,,,,,,,,,,,,,,,,,,,,,,,,,,,,,,,,,,,,,,,,,,,,,,,,,,,,,,,
,,,,,,,,,61088c529cff73b187d19e6d,Spanish,13 or older,"yes, I am fluent in another language",no,2026-01-21_21h10.58.205,empathy_intonation_perc_control,2024.2.4,MacIntel,121.9512195,61088c529cff73b187d19e6d,69712dc693a3960bdb483245,697187103db7d25b45aa5870,,,,,,,,,,,,./stim/wavs/castilian_mismatch_declarative-broad-focus_La-maestra-vive-en-Paris.wav,0,,,105.8667,108.4498,0,1,2.0773,,0,29,29,69,1,70,0,castilian,,,,,,,,,,,,,,,,,,,,,,,,,,,,,,,,,,,,,,,,,,,,,,,,,,,,,,,,
,,,,,,,,,61088c529cff73b187d19e6d,Spanish,13 or older,"yes, I am fluent in another language",no,2026-01-21_21h10.58.205,empathy_intonation_perc_control,2024.2.4,MacIntel,121.9512195,61088c529cff73b187d19e6d,69712dc693a3960bdb483245,697187103db7d25b45aa5870,,,,,,,,,,,,./stim/wavs/mexican_match_interrogative-total-yn_Marta-abre-el-regalo.wav,1,,,108.4503,110.6083,1,1,1.6429,,0,30,30,17,1,18,0,mexican,,,,,,,,,,,,,,,,,,,,,,,,,,,,,,,,,,,,,,,,,,,,,,,,,,,,,,,,
,,,,,,,,,61088c529cff73b187d19e6d,Spanish,13 or older,"yes, I am fluent in another language",no,2026-01-21_21h10.58.205,empathy_intonation_perc_control,2024.2.4,MacIntel,121.9512195,61088c529cff73b187d19e6d,69712dc693a3960bdb483245,697187103db7d25b45aa5870,,,,,,,,,,,,./stim/wavs/castilian_mismatch_interrogative-total-yn_La-maestra-vive-en-Paris.wav,1,,,110.6087,113.2919,1,1,2.1688,,0,31,31,24,1,25,0,castilian,,,,,,,,,,,,,,,,,,,,,,,,,,,,,,,,,,,,,,,,,,,,,,,,,,,,,,,,
,,,,,,,,,61088c529cff73b187d19e6d,Spanish,13 or older,"yes, I am fluent in another language",no,2026-01-21_21h10.58.205,empathy_intonation_perc_control,2024.2.4,MacIntel,121.9512195,61088c529cff73b187d19e6d,69712dc693a3960bdb483245,697187103db7d25b45aa5870,,,,,,,,,,,,./stim/wavs/cuban_match_declarative-broad-focus_Mariano-habla-del-tiempo.wav,0,,,113.2925,115.6918,0,1,1.8849,,0,32,32,54,1,55,0,cuban,,,,,,,,,,,,,,,,,,,,,,,,,,,,,,,,,,,,,,,,,,,,,,,,,,,,,,,,
,,,,,,,,,61088c529cff73b187d19e6d,Spanish,13 or older,"yes, I am fluent in another language",no,2026-01-21_21h10.58.205,empathy_intonation_perc_control,2024.2.4,MacIntel,121.9512195,61088c529cff73b187d19e6d,69712dc693a3960bdb483245,697187103db7d25b45aa5870,,,,,,,,,,,,./stim/wavs/puertorican_match_interrogative-total-yn_David-leia-el-libro.wav,1,,,115.6924,118.6082,0,0,2.399,,0,33,33,20,1,21,1,puertorican,,,,,,,,,,,,,,,,,,,,,,,,,,,,,,,,,,,,,,,,,,,,,,,,,,,,,,,,
,,,,,,,,,61088c529cff73b187d19e6d,Spanish,13 or older,"yes, I am fluent in another language",no,2026-01-21_21h10.58.205,empathy_intonation_perc_control,2024.2.4,MacIntel,121.9512195,61088c529cff73b187d19e6d,69712dc693a3960bdb483245,697187103db7d25b45aa5870,,,,,,,,,,,,./stim/wavs/mexican_match_declarative-broad-focus_Mariano-habla-del-tiempo.wav,0,,,118.6085,120.8419,0,1,1.7207,,0,34,34,60,1,61,0,mexican,,,,,,,,,,,,,,,,,,,,,,,,,,,,,,,,,,,,,,,,,,,,,,,,,,,,,,,,
,,,,,,,,,61088c529cff73b187d19e6d,Spanish,13 or older,"yes, I am fluent in another language",no,2026-01-21_21h10.58.205,empathy_intonation_perc_control,2024.2.4,MacIntel,121.9512195,61088c529cff73b187d19e6d,69712dc693a3960bdb483245,697187103db7d25b45aa5870,,,,,,,,,,,,./stim/wavs/mexican_mismatch_declarative-broad-focus_Mi-tia-odia-la-lluvia.wav,0,,,120.8425,123.1751,0,1,1.8168,,0,35,35,82,1,83,0,mexican,,,,,,,,,,,,,,,,,,,,,,,,,,,,,,,,,,,,,,,,,,,,,,,,,,,,,,,,
,,,,,,,,,61088c529cff73b187d19e6d,Spanish,13 or older,"yes, I am fluent in another language",no,2026-01-21_21h10.58.205,empathy_intonation_perc_control,2024.2.4,MacIntel,121.9512195,61088c529cff73b187d19e6d,69712dc693a3960bdb483245,697187103db7d25b45aa5870,,,,,,,,,,,,./stim/wavs/castilian_match_declarative-broad-focus_Emilio-ama-la-marcha.wav,0,,,123.1757,125.675,0,1,1.9855,,0,36,36,45,1,46,0,castilian,,,,,,,,,,,,,,,,,,,,,,,,,,,,,,,,,,,,,,,,,,,,,,,,,,,,,,,,
,,,,,,,,,61088c529cff73b187d19e6d,Spanish,13 or older,"yes, I am fluent in another language",no,2026-01-21_21h10.58.205,empathy_intonation_perc_control,2024.2.4,MacIntel,121.9512195,61088c529cff73b187d19e6d,69712dc693a3960bdb483245,697187103db7d25b45aa5870,,,,,,,,,,,,./stim/wavs/cuban_mismatch_interrogative-total-yn_Mi-tia-odia-la-lluvia.wav,1,,,125.6758,129.4503,0,0,3.2595,,0,37,37,33,1,34,1,cuban,,,,,,,,,,,,,,,,,,,,,,,,,,,,,,,,,,,,,,,,,,,,,,,,,,,,,,,,
,,,,,,,,,61088c529cff73b187d19e6d,Spanish,13 or older,"yes, I am fluent in another language",no,2026-01-21_21h10.58.205,empathy_intonation_perc_control,2024.2.4,MacIntel,121.9512195,61088c529cff73b187d19e6d,69712dc693a3960bdb483245,697187103db7d25b45aa5870,,,,,,,,,,,,./stim/wavs/puertorican_match_declarative-broad-focus_Emilio-ama-la-marcha.wav,0,,,129.451,131.6668,0,1,1.7028,,0,38,38,65,1,66,0,puertorican,,,,,,,,,,,,,,,,,,,,,,,,,,,,,,,,,,,,,,,,,,,,,,,,,,,,,,,,
,,,,,,,,,61088c529cff73b187d19e6d,Spanish,13 or older,"yes, I am fluent in another language",no,2026-01-21_21h10.58.205,empathy_intonation_perc_control,2024.2.4,MacIntel,121.9512195,61088c529cff73b187d19e6d,69712dc693a3960bdb483245,697187103db7d25b45aa5870,,,,,,,,,,,,./stim/wavs/castilian_match_declarative-broad-focus_Maria-bebe-el-vino.wav,0,,,131.6673,134.1251,0,1,1.9429,,0,39,39,47,1,48,0,castilian,,,,,,,,,,,,,,,,,,,,,,,,,,,,,,,,,,,,,,,,,,,,,,,,,,,,,,,,
,,,,,,,,,61088c529cff73b187d19e6d,Spanish,13 or older,"yes, I am fluent in another language",no,2026-01-21_21h10.58.205,empathy_intonation_perc_control,2024.2.4,MacIntel,121.9512195,61088c529cff73b187d19e6d,69712dc693a3960bdb483245,697187103db7d25b45aa5870,,,,,,,,,,,,./stim/wavs/castilian_match_declarative-broad-focus_Mariano-habla-del-tiempo.wav,0,,,134.1257,136.7743,0,1,2.1343,,0,40,40,48,1,49,0,castilian,,,,,,,,,,,,,,,,,,,,,,,,,,,,,,,,,,,,,,,,,,,,,,,,,,,,,,,,
,,,,,,,,,61088c529cff73b187d19e6d,Spanish,13 or older,"yes, I am fluent in another language",no,2026-01-21_21h10.58.205,empathy_intonation_perc_control,2024.2.4,MacIntel,121.9512195,61088c529cff73b187d19e6d,69712dc693a3960bdb483245,697187103db7d25b45aa5870,,,,,,,,,,,,./stim/wavs/cuban_match_declarative-broad-focus_Manuela-vende-el-carro.wav,0,,,136.7751,139.1332,0,1,1.8422,,0,41,41,52,1,53,0,cuban,,,,,,,,,,,,,,,,,,,,,,,,,,,,,,,,,,,,,,,,,,,,,,,,,,,,,,,,
,,,,,,,,,61088c529cff73b187d19e6d,Spanish,13 or older,"yes, I am fluent in another language",no,2026-01-21_21h10.58.205,empathy_intonation_perc_control,2024.2.4,MacIntel,121.9512195,61088c529cff73b187d19e6d,69712dc693a3960bdb483245,697187103db7d25b45aa5870,,,,,,,,,,,,./stim/wavs/mexican_mismatch_declarative-broad-focus_La-maestra-vive-en-Paris.wav,0,,,139.1334,141.4667,0,1,1.8157,,0,42,42,80,1,81,0,mexican,,,,,,,,,,,,,,,,,,,,,,,,,,,,,,,,,,,,,,,,,,,,,,,,,,,,,,,,
,,,,,,,,,61088c529cff73b187d19e6d,Spanish,13 or older,"yes, I am fluent in another language",no,2026-01-21_21h10.58.205,empathy_intonation_perc_control,2024.2.4,MacIntel,121.9512195,61088c529cff73b187d19e6d,69712dc693a3960bdb483245,697187103db7d25b45aa5870,,,,,,,,,,,,./stim/wavs/castilian_mismatch_declarative-broad-focus_El-nino-oye-el-rio.wav,0,,,141.4669,145.1501,0,1,3.1679,,0,43,43,68,1,69,0,castilian,,,,,,,,,,,,,,,,,,,,,,,,,,,,,,,,,,,,,,,,,,,,,,,,,,,,,,,,
,,,,,,,,,61088c529cff73b187d19e6d,Spanish,13 or older,"yes, I am fluent in another language",no,2026-01-21_21h10.58.205,empathy_intonation_perc_control,2024.2.4,MacIntel,121.9512195,61088c529cff73b187d19e6d,69712dc693a3960bdb483245,697187103db7d25b45aa5870,,,,,,,,,,,,./stim/wavs/puertorican_mismatch_interrogative-total-yn_El-hombre-mira-la-luna.wav,1,,,145.1508,147.1082,1,1,1.4412,,0,44,44,39,1,40,1,puertorican,,,,,,,,,,,,,,,,,,,,,,,,,,,,,,,,,,,,,,,,,,,,,,,,,,,,,,,,
,,,,,,,,,61088c529cff73b187d19e6d,Spanish,13 or older,"yes, I am fluent in another language",no,2026-01-21_21h10.58.205,empathy_intonation_perc_control,2024.2.4,MacIntel,121.9512195,61088c529cff73b187d19e6d,69712dc693a3960bdb483245,697187103db7d25b45aa5870,,,,,,,,,,,,./stim/wavs/castilian_match_interrogative-total-yn_Manuela-vende-el-carro.wav,1,,,147.1086,149.5251,1,1,1.9019,,0,45,45,2,1,3,0,castilian,,,,,,,,,,,,,,,,,,,,,,,,,,,,,,,,,,,,,,,,,,,,,,,,,,,,,,,,
,,,,,,,,,61088c529cff73b187d19e6d,Spanish,13 or older,"yes, I am fluent in another language",no,2026-01-21_21h10.58.205,empathy_intonation_perc_control,2024.2.4,MacIntel,121.9512195,61088c529cff73b187d19e6d,69712dc693a3960bdb483245,697187103db7d25b45aa5870,,,,,,,,,,,,./stim/wavs/cuban_match_interrogative-total-yn_Marta-abre-el-regalo.wav,1,,,149.5257,152.3074,0,0,2.2703,,0,46,46,11,1,12,1,cuban,,,,,,,,,,,,,,,,,,,,,,,,,,,,,,,,,,,,,,,,,,,,,,,,,,,,,,,,
,,,,,,,,,61088c529cff73b187d19e6d,Spanish,13 or older,"yes, I am fluent in another language",no,2026-01-21_21h10.58.205,empathy_intonation_perc_control,2024.2.4,MacIntel,121.9512195,61088c529cff73b187d19e6d,69712dc693a3960bdb483245,697187103db7d25b45aa5870,,,,,,,,,,,,./stim/wavs/puertorican_mismatch_declarative-broad-focus_La-nina-lava-el-plato.wav,0,,,152.308,154.3834,0,1,1.5675,,0,47,47,87,1,88,0,puertorican,,,,,,,,,,,,,,,,,,,,,,,,,,,,,,,,,,,,,,,,,,,,,,,,,,,,,,,,
,,,,,,,,,61088c529cff73b187d19e6d,Spanish,13 or older,"yes, I am fluent in another language",no,2026-01-21_21h10.58.205,empathy_intonation_perc_control,2024.2.4,MacIntel,121.9512195,61088c529cff73b187d19e6d,69712dc693a3960bdb483245,697187103db7d25b45aa5870,,,,,,,,,,,,./stim/wavs/cuban_match_interrogative-total-yn_Daniel-iba-a-Bolivia.wav,1,,,154.3842,159.2583,0,0,4.3587,,0,48,48,7,1,8,1,cuban,,,,,,,,,,,,,,,,,,,,,,,,,,,,,,,,,,,,,,,,,,,,,,,,,,,,,,,,
,,,,,,,,,61088c529cff73b187d19e6d,Spanish,13 or older,"yes, I am fluent in another language",no,2026-01-21_21h10.58.205,empathy_intonation_perc_control,2024.2.4,MacIntel,121.9512195,61088c529cff73b187d19e6d,69712dc693a3960bdb483245,697187103db7d25b45aa5870,,,,,,,,,,,,./stim/wavs/puertorican_mismatch_interrogative-total-yn_El-nino-oye-el-rio.wav,1,,,159.2587,161.6918,0,0,1.9178,,0,49,49,40,1,41,1,puertorican,,,,,,,,,,,,,,,,,,,,,,,,,,,,,,,,,,,,,,,,,,,,,,,,,,,,,,,,
,,,,,,,,,61088c529cff73b187d19e6d,Spanish,13 or older,"yes, I am fluent in another language",no,2026-01-21_21h10.58.205,empathy_intonation_perc_control,2024.2.4,MacIntel,121.9512195,61088c529cff73b187d19e6d,69712dc693a3960bdb483245,697187103db7d25b45aa5870,,,,,,,,,,,,./stim/wavs/puertorican_mismatch_interrogative-total-yn_Mi-madre-come-la-fruta.wav,1,,,161.6923,166.5408,0,0,4.3332,,0,50,50,43,1,44,1,puertorican,,,,,,,,,,,,,,,,,,,,,,,,,,,,,,,,,,,,,,,,,,,,,,,,,,,,,,,,
,,,,,,,,,61088c529cff73b187d19e6d,Spanish,13 or older,"yes, I am fluent in another language",no,2026-01-21_21h10.58.205,empathy_intonation_perc_control,2024.2.4,MacIntel,121.9512195,61088c529cff73b187d19e6d,69712dc693a3960bdb483245,697187103db7d25b45aa5870,,,,,,,,,,,,./stim/wavs/cuban_mismatch_declarative-broad-focus_Mi-tia-odia-la-lluvia.wav,0,,,166.5415,168.825,0,1,1.7699,,0,51,51,77,1,78,0,cuban,,,,,,,,,,,,,,,,,,,,,,,,,,,,,,,,,,,,,,,,,,,,,,,,,,,,,,,,
,,,,,,,,,61088c529cff73b187d19e6d,Spanish,13 or older,"yes, I am fluent in another language",no,2026-01-21_21h10.58.205,empathy_intonation_perc_control,2024.2.4,MacIntel,121.9512195,61088c529cff73b187d19e6d,69712dc693a3960bdb483245,697187103db7d25b45aa5870,,,,,,,,,,,,./stim/wavs/mexican_match_interrogative-total-yn_Mariano-habla-del-tiempo.wav,1,,,168.8255,171.0914,1,1,1.7491,,0,52,52,16,1,17,0,mexican,,,,,,,,,,,,,,,,,,,,,,,,,,,,,,,,,,,,,,,,,,,,,,,,,,,,,,,,
,,,,,,,,,61088c529cff73b187d19e6d,Spanish,13 or older,"yes, I am fluent in another language",no,2026-01-21_21h10.58.205,empathy_intonation_perc_control,2024.2.4,MacIntel,121.9512195,61088c529cff73b187d19e6d,69712dc693a3960bdb483245,697187103db7d25b45aa5870,,,,,,,,,,,,./stim/wavs/castilian_mismatch_interrogative-total-yn_Mi-madre-come-la-fruta.wav,1,,,171.0919,173.3666,1,1,1.7588,,0,53,53,26,1,27,0,castilian,,,,,,,,,,,,,,,,,,,,,,,,,,,,,,,,,,,,,,,,,,,,,,,,,,,,,,,,
,,,,,,,,,61088c529cff73b187d19e6d,Spanish,13 or older,"yes, I am fluent in another language",no,2026-01-21_21h10.58.205,empathy_intonation_perc_control,2024.2.4,MacIntel,121.9512195,61088c529cff73b187d19e6d,69712dc693a3960bdb483245,697187103db7d25b45aa5870,,,,,,,,,,,,./stim/wavs/mexican_mismatch_interrogative-total-yn_El-nino-oye-el-rio.wav,1,,,173.367,175.5249,1,1,1.6429,,0,54,54,35,1,36,0,mexican,,,,,,,,,,,,,,,,,,,,,,,,,,,,,,,,,,,,,,,,,,,,,,,,,,,,,,,,
,,,,,,,,,61088c529cff73b187d19e6d,Spanish,13 or older,"yes, I am fluent in another language",no,2026-01-21_21h10.58.205,empathy_intonation_perc_control,2024.2.4,MacIntel,121.9512195,61088c529cff73b187d19e6d,69712dc693a3960bdb483245,697187103db7d25b45aa5870,,,,,,,,,,,,./stim/wavs/cuban_mismatch_interrogative-total-yn_El-nino-oye-el-rio.wav,1,,,175.5256,177.8249,0,0,1.7835,,0,55,55,30,1,31,1,cuban,,,,,,,,,,,,,,,,,,,,,,,,,,,,,,,,,,,,,,,,,,,,,,,,,,,,,,,,
,,,,,,,,,61088c529cff73b187d19e6d,Spanish,13 or older,"yes, I am fluent in another language",no,2026-01-21_21h10.58.205,empathy_intonation_perc_control,2024.2.4,MacIntel,121.9512195,61088c529cff73b187d19e6d,69712dc693a3960bdb483245,697187103db7d25b45aa5870,,,,,,,,,,,,./stim/wavs/puertorican_mismatch_declarative-broad-focus_El-nino-oye-el-rio.wav,0,,,177.8255,179.816,0,1,1.4769,,0,56,56,85,1,86,0,puertorican,,,,,,,,,,,,,,,,,,,,,,,,,,,,,,,,,,,,,,,,,,,,,,,,,,,,,,,,
,,,,,,,,,61088c529cff73b187d19e6d,Spanish,13 or older,"yes, I am fluent in another language",no,2026-01-21_21h10.58.205,empathy_intonation_perc_control,2024.2.4,MacIntel,121.9512195,61088c529cff73b187d19e6d,69712dc693a3960bdb483245,697187103db7d25b45aa5870,,,,,,,,,,,,./stim/wavs/castilian_match_interrogative-total-yn_Emilio-ama-la-marcha.wav,1,,,179.8166,181.9581,1,1,1.6352,,0,57,57,1,1,2,0,castilian,,,,,,,,,,,,,,,,,,,,,,,,,,,,,,,,,,,,,,,,,,,,,,,,,,,,,,,,
,,,,,,,,,61088c529cff73b187d19e6d,Spanish,13 or older,"yes, I am fluent in another language",no,2026-01-21_21h10.58.205,empathy_intonation_perc_control,2024.2.4,MacIntel,121.9512195,61088c529cff73b187d19e6d,69712dc693a3960bdb483245,697187103db7d25b45aa5870,,,,,,,,,,,,./stim/wavs/mexican_mismatch_interrogative-total-yn_Mi-tia-odia-la-lluvia.wav,1,,,181.9583,183.9915,1,1,1.5167,,0,58,58,38,1,39,0,mexican,,,,,,,,,,,,,,,,,,,,,,,,,,,,,,,,,,,,,,,,,,,,,,,,,,,,,,,,
,,,,,,,,,61088c529cff73b187d19e6d,Spanish,13 or older,"yes, I am fluent in another language",no,2026-01-21_21h10.58.205,empathy_intonation_perc_control,2024.2.4,MacIntel,121.9512195,61088c529cff73b187d19e6d,69712dc693a3960bdb483245,697187103db7d25b45aa5870,,,,,,,,,,,,./stim/wavs/castilian_mismatch_interrogative-total-yn_Mi-tia-odia-la-lluvia.wav,1,,,183.9918,186.0666,1,1,1.5589,,0,59,59,28,1,29,0,castilian,,,,,,,,,,,,,,,,,,,,,,,,,,,,,,,,,,,,,,,,,,,,,,,,,,,,,,,,
,,,,,,,,,61088c529cff73b187d19e6d,Spanish,13 or older,"yes, I am fluent in another language",no,2026-01-21_21h10.58.205,empathy_intonation_perc_control,2024.2.4,MacIntel,121.9512195,61088c529cff73b187d19e6d,69712dc693a3960bdb483245,697187103db7d25b45aa5870,,,,,,,,,,,,./stim/wavs/puertorican_match_declarative-broad-focus_Maria-bebe-el-vino.wav,0,,,186.0671,189.4658,1,0,2.8846,,0,60,60,67,1,68,0,puertorican,,,,,,,,,,,,,,,,,,,,,,,,,,,,,,,,,,,,,,,,,,,,,,,,,,,,,,,,
,,,,,,,,,61088c529cff73b187d19e6d,Spanish,13 or older,"yes, I am fluent in another language",no,2026-01-21_21h10.58.205,empathy_intonation_perc_control,2024.2.4,MacIntel,121.9512195,61088c529cff73b187d19e6d,69712dc693a3960bdb483245,697187103db7d25b45aa5870,,,,,,,,,,,,./stim/wavs/puertorican_mismatch_declarative-broad-focus_El-bebe-comia-muy-bien.wav,0,,,189.4663,191.6412,0,1,1.6686,,0,61,61,83,1,84,0,puertorican,,,,,,,,,,,,,,,,,,,,,,,,,,,,,,,,,,,,,,,,,,,,,,,,,,,,,,,,
,,,,,,,,,61088c529cff73b187d19e6d,Spanish,13 or older,"yes, I am fluent in another language",no,2026-01-21_21h10.58.205,empathy_intonation_perc_control,2024.2.4,MacIntel,121.9512195,61088c529cff73b187d19e6d,69712dc693a3960bdb483245,697187103db7d25b45aa5870,,,,,,,,,,,,./stim/wavs/castilian_mismatch_declarative-broad-focus_Mi-tia-odia-la-lluvia.wav,0,,,191.6417,193.841,0,1,1.6907,,0,62,62,72,1,73,0,castilian,,,,,,,,,,,,,,,,,,,,,,,,,,,,,,,,,,,,,,,,,,,,,,,,,,,,,,,,
,,,,,,,,,61088c529cff73b187d19e6d,Spanish,13 or older,"yes, I am fluent in another language",no,2026-01-21_21h10.58.205,empathy_intonation_perc_control,2024.2.4,MacIntel,121.9512195,61088c529cff73b187d19e6d,69712dc693a3960bdb483245,697187103db7d25b45aa5870,,,,,,,,,,,,./stim/wavs/mexican_match_interrogative-total-yn_Emilio-ama-la-marcha.wav,1,,,193.8415,195.9525,1,1,1.6006,,0,63,63,15,1,16,0,mexican,,,,,,,,,,,,,,,,,,,,,,,,,,,,,,,,,,,,,,,,,,,,,,,,,,,,,,,,
,,,,,,,,,61088c529cff73b187d19e6d,Spanish,13 or older,"yes, I am fluent in another language",no,2026-01-21_21h10.58.205,empathy_intonation_perc_control,2024.2.4,MacIntel,121.9512195,61088c529cff73b187d19e6d,69712dc693a3960bdb483245,697187103db7d25b45aa5870,,,,,,,,,,,,./stim/wavs/puertorican_match_interrogative-total-yn_Maria-bebe-el-vino.wav,1,,,195.9528,198.2083,0,0,1.7467,,0,64,64,23,1,24,1,puertorican,,,,,,,,,,,,,,,,,,,,,,,,,,,,,,,,,,,,,,,,,,,,,,,,,,,,,,,,
,,,,,,,,,61088c529cff73b187d19e6d,Spanish,13 or older,"yes, I am fluent in another language",no,2026-01-21_21h10.58.205,empathy_intonation_perc_control,2024.2.4,MacIntel,121.9512195,61088c529cff73b187d19e6d,69712dc693a3960bdb483245,697187103db7d25b45aa5870,,,,,,,,,,,,./stim/wavs/mexican_match_declarative-broad-focus_Emilio-ama-la-marcha.wav,0,,,198.2092,200.3581,1,0,1.6329,,0,65,65,59,1,60,0,mexican,,,,,,,,,,,,,,,,,,,,,,,,,,,,,,,,,,,,,,,,,,,,,,,,,,,,,,,,
,,,,,,,,,61088c529cff73b187d19e6d,Spanish,13 or older,"yes, I am fluent in another language",no,2026-01-21_21h10.58.205,empathy_intonation_perc_control,2024.2.4,MacIntel,121.9512195,61088c529cff73b187d19e6d,69712dc693a3960bdb483245,697187103db7d25b45aa5870,,,,,,,,,,,,./stim/wavs/puertorican_match_interrogative-total-yn_Manuela-vende-el-carro.wav,1,,,200.3588,202.5583,0,0,1.6837,,0,66,66,22,1,23,1,puertorican,,,,,,,,,,,,,,,,,,,,,,,,,,,,,,,,,,,,,,,,,,,,,,,,,,,,,,,,
,,,,,,,,,61088c529cff73b187d19e6d,Spanish,13 or older,"yes, I am fluent in another language",no,2026-01-21_21h10.58.205,empathy_intonation_perc_control,2024.2.4,MacIntel,121.9512195,61088c529cff73b187d19e6d,69712dc693a3960bdb483245,697187103db7d25b45aa5870,,,,,,,,,,,,./stim/wavs/puertorican_mismatch_declarative-broad-focus_El-hombre-mira-la-luna.wav,0,,,202.5588,204.8332,0,1,1.7622,,0,67,67,84,1,85,0,puertorican,,,,,,,,,,,,,,,,,,,,,,,,,,,,,,,,,,,,,,,,,,,,,,,,,,,,,,,,
,,,,,,,,,61088c529cff73b187d19e6d,Spanish,13 or older,"yes, I am fluent in another language",no,2026-01-21_21h10.58.205,empathy_intonation_perc_control,2024.2.4,MacIntel,121.9512195,61088c529cff73b187d19e6d,69712dc693a3960bdb483245,697187103db7d25b45aa5870,,,,,,,,,,,,./stim/wavs/castilian_mismatch_interrogative-total-yn_Mi-novio-viene-del-lago.wav,1,,,204.8338,207.4084,1,1,2.0621,,0,68,68,27,1,28,0,castilian,,,,,,,,,,,,,,,,,,,,,,,,,,,,,,,,,,,,,,,,,,,,,,,,,,,,,,,,
,,,,,,,,,61088c529cff73b187d19e6d,Spanish,13 or older,"yes, I am fluent in another language",no,2026-01-21_21h10.58.205,empathy_intonation_perc_control,2024.2.4,MacIntel,121.9512195,61088c529cff73b187d19e6d,69712dc693a3960bdb483245,697187103db7d25b45aa5870,,,,,,,,,,,,./stim/wavs/cuban_mismatch_declarative-broad-focus_La-nina-lava-el-plato.wav,0,,,207.4093,209.6749,0,1,1.7512,,0,69,69,75,1,76,0,cuban,,,,,,,,,,,,,,,,,,,,,,,,,,,,,,,,,,,,,,,,,,,,,,,,,,,,,,,,
,,,,,,,,,61088c529cff73b187d19e6d,Spanish,13 or older,"yes, I am fluent in another language",no,2026-01-21_21h10.58.205,empathy_intonation_perc_control,2024.2.4,MacIntel,121.9512195,61088c529cff73b187d19e6d,69712dc693a3960bdb483245,697187103db7d25b45aa5870,,,,,,,,,,,,./stim/wavs/puertorican_match_interrogative-total-yn_Daniel-iba-a-Bolivia.wav,1,,,209.6758,212.0666,0,0,1.8748,,0,70,70,19,1,20,1,puertorican,,,,,,,,,,,,,,,,,,,,,,,,,,,,,,,,,,,,,,,,,,,,,,,,,,,,,,,,
,,,,,,,,,61088c529cff73b187d19e6d,Spanish,13 or older,"yes, I am fluent in another language",no,2026-01-21_21h10.58.205,empathy_intonation_perc_control,2024.2.4,MacIntel,121.9512195,61088c529cff73b187d19e6d,69712dc693a3960bdb483245,697187103db7d25b45aa5870,,,,,,,,,,,,./stim/wavs/castilian_mismatch_declarative-broad-focus_La-nina-lava-el-plato.wav,0,,,212.0671,214.7666,0,1,2.1861,,0,71,71,70,1,71,0,castilian,,,,,,,,,,,,,,,,,,,,,,,,,,,,,,,,,,,,,,,,,,,,,,,,,,,,,,,,
,,,,,,,,,61088c529cff73b187d19e6d,Spanish,13 or older,"yes, I am fluent in another language",no,2026-01-21_21h10.58.205,empathy_intonation_perc_control,2024.2.4,MacIntel,121.9512195,61088c529cff73b187d19e6d,69712dc693a3960bdb483245,697187103db7d25b45aa5870,,,,,,,,,,,,./stim/wavs/mexican_mismatch_interrogative-total-yn_La-maestra-vive-en-Paris.wav,1,,,214.7671,217.1162,1,1,1.832,,0,72,72,36,1,37,0,mexican,,,,,,,,,,,,,,,,,,,,,,,,,,,,,,,,,,,,,,,,,,,,,,,,,,,,,,,,
,,,,,,,,,61088c529cff73b187d19e6d,Spanish,13 or older,"yes, I am fluent in another language",no,2026-01-21_21h10.58.205,empathy_intonation_perc_control,2024.2.4,MacIntel,121.9512195,61088c529cff73b187d19e6d,69712dc693a3960bdb483245,697187103db7d25b45aa5870,,,,,,,,,,,,./stim/wavs/castilian_match_interrogative-total-yn_Mariano-habla-del-tiempo.wav,1,,,217.1167,219.9831,1,1,2.3494,,0,73,73,4,1,5,0,castilian,,,,,,,,,,,,,,,,,,,,,,,,,,,,,,,,,,,,,,,,,,,,,,,,,,,,,,,,
,,,,,,,,,61088c529cff73b187d19e6d,Spanish,13 or older,"yes, I am fluent in another language",no,2026-01-21_21h10.58.205,empathy_intonation_perc_control,2024.2.4,MacIntel,121.9512195,61088c529cff73b187d19e6d,69712dc693a3960bdb483245,697187103db7d25b45aa5870,,,,,,,,,,,,./stim/wavs/cuban_match_interrogative-total-yn_Maria-bebe-el-vino.wav,1,,,219.9834,222.7999,0,0,2.3014,,0,74,74,9,1,10,1,cuban,,,,,,,,,,,,,,,,,,,,,,,,,,,,,,,,,,,,,,,,,,,,,,,,,,,,,,,,
,,,,,,,,,61088c529cff73b187d19e6d,Spanish,13 or older,"yes, I am fluent in another language",no,2026-01-21_21h10.58.205,empathy_intonation_perc_control,2024.2.4,MacIntel,121.9512195,61088c529cff73b187d19e6d,69712dc693a3960bdb483245,697187103db7d25b45aa5870,,,,,,,,,,,,./stim/wavs/puertorican_match_declarative-broad-focus_David-leia-el-libro.wav,0,,,222.8004,224.8663,0,1,1.5511,,0,75,75,64,1,65,0,puertorican,,,,,,,,,,,,,,,,,,,,,,,,,,,,,,,,,,,,,,,,,,,,,,,,,,,,,,,,
,,,,,,,,,61088c529cff73b187d19e6d,Spanish,13 or older,"yes, I am fluent in another language",no,2026-01-21_21h10.58.205,empathy_intonation_perc_control,2024.2.4,MacIntel,121.9512195,61088c529cff73b187d19e6d,69712dc693a3960bdb483245,697187103db7d25b45aa5870,,,,,,,,,,,,./stim/wavs/puertorican_mismatch_interrogative-total-yn_La-nina-lava-el-plato.wav,1,,,224.8667,226.9331,0,0,1.5501,,0,76,76,42,1,43,1,puertorican,,,,,,,,,,,,,,,,,,,,,,,,,,,,,,,,,,,,,,,,,,,,,,,,,,,,,,,,
,,,,,,,,,61088c529cff73b187d19e6d,Spanish,13 or older,"yes, I am fluent in another language",no,2026-01-21_21h10.58.205,empathy_intonation_perc_control,2024.2.4,MacIntel,121.9512195,61088c529cff73b187d19e6d,69712dc693a3960bdb483245,697187103db7d25b45aa5870,,,,,,,,,,,,./stim/wavs/puertorican_match_declarative-broad-focus_Ana-lleva-el-abrigo.wav,0,,,226.9337,228.8581,0,1,1.4084,,0,77,77,62,1,63,0,puertorican,,,,,,,,,,,,,,,,,,,,,,,,,,,,,,,,,,,,,,,,,,,,,,,,,,,,,,,,
,,,,,,,,,61088c529cff73b187d19e6d,Spanish,13 or older,"yes, I am fluent in another language",no,2026-01-21_21h10.58.205,empathy_intonation_perc_control,2024.2.4,MacIntel,121.9512195,61088c529cff73b187d19e6d,69712dc693a3960bdb483245,697187103db7d25b45aa5870,,,,,,,,,,,,./stim/wavs/puertorican_match_declarative-broad-focus_Daniel-iba-a-Bolivia.wav,0,,,228.8586,231.6331,0,1,2.2582,,0,78,78,63,1,64,0,puertorican,,,,,,,,,,,,,,,,,,,,,,,,,,,,,,,,,,,,,,,,,,,,,,,,,,,,,,,,
,,,,,,,,,61088c529cff73b187d19e6d,Spanish,13 or older,"yes, I am fluent in another language",no,2026-01-21_21h10.58.205,empathy_intonation_perc_control,2024.2.4,MacIntel,121.9512195,61088c529cff73b187d19e6d,69712dc693a3960bdb483245,697187103db7d25b45aa5870,,,,,,,,,,,,./stim/wavs/cuban_match_declarative-broad-focus_Marta-abre-el-regalo.wav,0,,,231.6337,233.7581,0,1,1.6102,,0,79,79,55,1,56,0,cuban,,,,,,,,,,,,,,,,,,,,,,,,,,,,,,,,,,,,,,,,,,,,,,,,,,,,,,,,
,,,,,,,,,61088c529cff73b187d19e6d,Spanish,13 or older,"yes, I am fluent in another language",no,2026-01-21_21h10.58.205,empathy_intonation_perc_control,2024.2.4,MacIntel,121.9512195,61088c529cff73b187d19e6d,69712dc693a3960bdb483245,697187103db7d25b45aa5870,,,,,,,,,,,,./stim/wavs/castilian_match_interrogative-total-yn_Marta-abre-el-regalo.wav,1,,,233.7587,236.133,1,1,1.859,,0,80,80,5,1,6,0,castilian,,,,,,,,,,,,,,,,,,,,,,,,,,,,,,,,,,,,,,,,,,,,,,,,,,,,,,,,
,,,,,,,,,61088c529cff73b187d19e6d,Spanish,13 or older,"yes, I am fluent in another language",no,2026-01-21_21h10.58.205,empathy_intonation_perc_control,2024.2.4,MacIntel,121.9512195,61088c529cff73b187d19e6d,69712dc693a3960bdb483245,697187103db7d25b45aa5870,,,,,,,,,,,,./stim/wavs/puertorican_match_interrogative-total-yn_Ana-lleva-el-abrigo.wav,1,,,236.1336,238.0247,0,0,1.3761,,0,81,81,18,1,19,1,puertorican,,,,,,,,,,,,,,,,,,,,,,,,,,,,,,,,,,,,,,,,,,,,,,,,,,,,,,,,
,,,,,,,,,61088c529cff73b187d19e6d,Spanish,13 or older,"yes, I am fluent in another language",no,2026-01-21_21h10.58.205,empathy_intonation_perc_control,2024.2.4,MacIntel,121.9512195,61088c529cff73b187d19e6d,69712dc693a3960bdb483245,697187103db7d25b45aa5870,,,,,,,,,,,,./stim/wavs/cuban_match_interrogative-total-yn_Ana-lleva-el-abrigo.wav,1,,,238.0253,240.1498,0,0,1.6086,,0,82,82,6,1,7,1,cuban,,,,,,,,,,,,,,,,,,,,,,,,,,,,,,,,,,,,,,,,,,,,,,,,,,,,,,,,
,,,,,,,,,61088c529cff73b187d19e6d,Spanish,13 or older,"yes, I am fluent in another language",no,2026-01-21_21h10.58.205,empathy_intonation_perc_control,2024.2.4,MacIntel,121.9512195,61088c529cff73b187d19e6d,69712dc693a3960bdb483245,697187103db7d25b45aa5870,,,,,,,,,,,,./stim/wavs/mexican_match_declarative-broad-focus_Marta-abre-el-regalo.wav,0,,,240.1505,242.2664,0,1,1.6006,,0,83,83,61,1,62,0,mexican,,,,,,,,,,,,,,,,,,,,,,,,,,,,,,,,,,,,,,,,,,,,,,,,,,,,,,,,
,,,,,,,,,61088c529cff73b187d19e6d,Spanish,13 or older,"yes, I am fluent in another language",no,2026-01-21_21h10.58.205,empathy_intonation_perc_control,2024.2.4,MacIntel,121.9512195,61088c529cff73b187d19e6d,69712dc693a3960bdb483245,697187103db7d25b45aa5870,,,,,,,,,,,,./stim/wavs/castilian_match_declarative-broad-focus_Marta-abre-el-regalo.wav,0,,,242.2671,244.8413,0,1,2.0551,,0,84,84,49,1,50,0,castilian,,,,,,,,,,,,,,,,,,,,,,,,,,,,,,,,,,,,,,,,,,,,,,,,,,,,,,,,
,,,,,,,,,61088c529cff73b187d19e6d,Spanish,13 or older,"yes, I am fluent in another language",no,2026-01-21_21h10.58.205,empathy_intonation_perc_control,2024.2.4,MacIntel,121.9512195,61088c529cff73b187d19e6d,69712dc693a3960bdb483245,697187103db7d25b45aa5870,,,,,,,,,,,,./stim/wavs/mexican_match_interrogative-total-yn_David-leia-el-libro.wav,1,,,244.8418,246.874,1,1,1.518,,0,85,85,14,1,15,0,mexican,,,,,,,,,,,,,,,,,,,,,,,,,,,,,,,,,,,,,,,,,,,,,,,,,,,,,,,,
,,,,,,,,,61088c529cff73b187d19e6d,Spanish,13 or older,"yes, I am fluent in another language",no,2026-01-21_21h10.58.205,empathy_intonation_perc_control,2024.2.4,MacIntel,121.9512195,61088c529cff73b187d19e6d,69712dc693a3960bdb483245,697187103db7d25b45aa5870,,,,,,,,,,,,./stim/wavs/castilian_match_declarative-broad-focus_David-leia-el-libro.wav,0,,,246.8756,249.4748,0,1,2.0806,,0,86,86,44,1,45,0,castilian,,,,,,,,,,,,,,,,,,,,,,,,,,,,,,,,,,,,,,,,,,,,,,,,,,,,,,,,
,,,,,,,,,61088c529cff73b187d19e6d,Spanish,13 or older,"yes, I am fluent in another language",no,2026-01-21_21h10.58.205,empathy_intonation_perc_control,2024.2.4,MacIntel,121.9512195,61088c529cff73b187d19e6d,69712dc693a3960bdb483245,697187103db7d25b45aa5870,,,,,,,,,,,,./stim/wavs/cuban_match_declarative-broad-focus_Ana-lleva-el-abrigo.wav,0,,,249.4753,251.7496,0,1,1.7584,,0,87,87,50,1,51,0,cuban,,,,,,,,,,,,,,,,,,,,,,,,,,,,,,,,,,,,,,,,,,,,,,,,,,,,,,,,
,,,,,,,"Great! Now we will move on. The next task consists of about 60 trials, in each of which you will see a string of letters. 
  
  Your task is to decide whether this is a real Spanish word or not.", (press the spacebar to continue),61088c529cff73b187d19e6d,Spanish,13 or older,"yes, I am fluent in another language",no,2026-01-21_21h10.58.205,empathy_intonation_perc_control,2024.2.4,MacIntel,121.9512195,61088c529cff73b187d19e6d,69712dc693a3960bdb483245,697187103db7d25b45aa5870,,,,,,,,,,,,,,,,,,,,,,,,,,,,,,251.7526,259.0414,0,0,0,0,1,,,,,,,,,,,,,,,,,,,,,,,,,,,,,,,,,,,,,,,,,,,,,,,,,
,,,,,,,"If you think it is an existing Spanish word, you type '1' (for 'REAL'), and if you think it is not an existing Spanish word, you type '0' (for 'FAKE').", (press the spacebar to continue),61088c529cff73b187d19e6d,Spanish,13 or older,"yes, I am fluent in another language",no,2026-01-21_21h10.58.205,empathy_intonation_perc_control,2024.2.4,MacIntel,121.9512195,61088c529cff73b187d19e6d,69712dc693a3960bdb483245,697187103db7d25b45aa5870,,,,,,,,,,,,,,,,,,,,,,,,,,,,,,259.0426,262.8494,0,1,1,1,1,,,,,,,,,,,,,,,,,,,,,,,,,,,,,,,,,,,,,,,,,,,,,,,,,
,,,,,,,"If you are sure that the word exists, even though you don’t know its exact meaning, you may still respond '1' (REAL). 
  
  But if you are not sure if it is an existing word, you should respond '0' (FAKE).
  
  Let's do a practice round...", (press the spacebar to continue),61088c529cff73b187d19e6d,Spanish,13 or older,"yes, I am fluent in another language",no,2026-01-21_21h10.58.205,empathy_intonation_perc_control,2024.2.4,MacIntel,121.9512195,61088c529cff73b187d19e6d,69712dc693a3960bdb483245,697187103db7d25b45aa5870,,,,,,,,,,,,,,,,,,,,,,,,,,,,,,262.8513,266.6665,0,2,2,2,1,,,,,,,,,,,,,,,,,,,,,,,,,,,,,,,,,,,,,,,,,,,,,,,,,
,,,,,,,,,61088c529cff73b187d19e6d,Spanish,13 or older,"yes, I am fluent in another language",no,2026-01-21_21h10.58.205,empathy_intonation_perc_control,2024.2.4,MacIntel,121.9512195,61088c529cff73b187d19e6d,69712dc693a3960bdb483245,697187103db7d25b45aa5870,,,,,,,,,,,,,0,,,,,,,,,,,,,,,,,,,,,,,,266.6731,270.7499,1,0,3.5595,,270.7502,271.75,0,0,0,0,1,0,depiste,REAL,FAKE,,,,,,,,,,,,,,,,,,,,,,,,,,,,,,,,
,,,,,,,,,61088c529cff73b187d19e6d,Spanish,13 or older,"yes, I am fluent in another language",no,2026-01-21_21h10.58.205,empathy_intonation_perc_control,2024.2.4,MacIntel,121.9512195,61088c529cff73b187d19e6d,69712dc693a3960bdb483245,697187103db7d25b45aa5870,,,,,,,,,,,,,1,,,,,,,,,,,,,,,,,,,,,,,,271.7517,273.7246,1,1,1.4514,,273.7256,274.7247,0,1,1,1,1,0,sí,REAL,FAKE,,,,,,,,,,,,,,,,,,,,,,,,,,,,,,,,
,,,,,,,,,61088c529cff73b187d19e6d,Spanish,13 or older,"yes, I am fluent in another language",no,2026-01-21_21h10.58.205,empathy_intonation_perc_control,2024.2.4,MacIntel,121.9512195,61088c529cff73b187d19e6d,69712dc693a3960bdb483245,697187103db7d25b45aa5870,,,,,,,,,,,,,0,,,,,,,,,,,,,,,,,,,,,,,,274.7259,278.908,0,1,3.6636,,278.9081,279.908,0,2,2,2,1,0,coné,REAL,FAKE,,,,,,,,,,,,,,,,,,,,,,,,,,,,,,,,
,,,,,,,,,61088c529cff73b187d19e6d,Spanish,13 or older,"yes, I am fluent in another language",no,2026-01-21_21h10.58.205,empathy_intonation_perc_control,2024.2.4,MacIntel,121.9512195,61088c529cff73b187d19e6d,69712dc693a3960bdb483245,697187103db7d25b45aa5870,,,,,,,,,,,,,0,,,,,,,,,,,,,,,,,,,,,,,,279.9094,281.7157,0,1,1.276,,281.7157,282.7163,0,3,3,3,1,0,calpar,REAL,FAKE,,,,,,,,,,,,,,,,,,,,,,,,,,,,,,,,
,,,,,,,,,61088c529cff73b187d19e6d,Spanish,13 or older,"yes, I am fluent in another language",no,2026-01-21_21h10.58.205,empathy_intonation_perc_control,2024.2.4,MacIntel,121.9512195,61088c529cff73b187d19e6d,69712dc693a3960bdb483245,697187103db7d25b45aa5870,,,,,,,,,,,,,0,,,,,,,,,,,,,,,,,,,,,,,,282.7175,284.8247,0,1,1.583,,284.8247,285.8246,0,4,4,4,1,0,joten,REAL,FAKE,,,,,,,,,,,,,,,,,,,,,,,,,,,,,,,,
,,,,,,,,,61088c529cff73b187d19e6d,Spanish,13 or older,"yes, I am fluent in another language",no,2026-01-21_21h10.58.205,empathy_intonation_perc_control,2024.2.4,MacIntel,121.9512195,61088c529cff73b187d19e6d,69712dc693a3960bdb483245,697187103db7d25b45aa5870,,,,,,,,,,,,,1,,,,,,,,,,,,,,,,,,,,,,,,285.826,288.9246,0,0,2.5721,,288.9254,289.9244,0,5,5,5,1,0,sacapuntas,REAL,FAKE,,,,,,,,,,,,,,,,,,,,,,,,,,,,,,,,
,,,,,,,,,61088c529cff73b187d19e6d,Spanish,13 or older,"yes, I am fluent in another language",no,2026-01-21_21h10.58.205,empathy_intonation_perc_control,2024.2.4,MacIntel,121.9512195,61088c529cff73b187d19e6d,69712dc693a3960bdb483245,697187103db7d25b45aa5870,,,,,,,,,,,,,0,,,,,,,,,,,,,,,,,,,,,,,,289.9248,292.6331,1,0,2.188,,292.6332,293.6332,0,6,6,6,1,0,priba,REAL,FAKE,,,,,,,,,,,,,,,,,,,,,,,,,,,,,,,,
,,,,,,,,,61088c529cff73b187d19e6d,Spanish,13 or older,"yes, I am fluent in another language",no,2026-01-21_21h10.58.205,empathy_intonation_perc_control,2024.2.4,MacIntel,121.9512195,61088c529cff73b187d19e6d,69712dc693a3960bdb483245,697187103db7d25b45aa5870,,,,,,,,,,,,,0,,,,,,,,,,,,,,,,,,,,,,,,293.6343,296.1662,0,1,1.9999,,296.1669,297.1663,0,7,7,7,1,0,pelasula,REAL,FAKE,,,,,,,,,,,,,,,,,,,,,,,,,,,,,,,,
,,,,,,,,,61088c529cff73b187d19e6d,Spanish,13 or older,"yes, I am fluent in another language",no,2026-01-21_21h10.58.205,empathy_intonation_perc_control,2024.2.4,MacIntel,121.9512195,61088c529cff73b187d19e6d,69712dc693a3960bdb483245,697187103db7d25b45aa5870,,,,,,,,,,,,,1,,,,,,,,,,,,,,,,,,,,,,,,297.1673,299.8244,1,1,2.134,,299.8244,300.8246,0,8,8,8,1,0,bien,REAL,FAKE,,,,,,,,,,,,,,,,,,,,,,,,,,,,,,,,
,,,,,,,,,61088c529cff73b187d19e6d,Spanish,13 or older,"yes, I am fluent in another language",no,2026-01-21_21h10.58.205,empathy_intonation_perc_control,2024.2.4,MacIntel,121.9512195,61088c529cff73b187d19e6d,69712dc693a3960bdb483245,697187103db7d25b45aa5870,,,,,,,,,,,,,1,,,,,,,,,,,,,,,,,,,,,,,,300.8258,302.1914,1,1,0.8401,,302.1914,303.1912,0,9,9,9,1,0,casa,REAL,FAKE,,,,,,,,,,,,,,,,,,,,,,,,,,,,,,,,
,,,,,,,,,61088c529cff73b187d19e6d,Spanish,13 or older,"yes, I am fluent in another language",no,2026-01-21_21h10.58.205,empathy_intonation_perc_control,2024.2.4,MacIntel,121.9512195,61088c529cff73b187d19e6d,69712dc693a3960bdb483245,697187103db7d25b45aa5870,,,,,,,,,,,,,0,,,,,,,,,,,,,,,,,,,,,,,,303.1923,305.0992,1,0,1.3809,,305.0997,306.0996,0,10,10,10,1,0,lejo,REAL,FAKE,,,,,,,,,,,,,,,,,,,,,,,,,,,,,,,,
,,,,,,,,,61088c529cff73b187d19e6d,Spanish,13 or older,"yes, I am fluent in another language",no,2026-01-21_21h10.58.205,empathy_intonation_perc_control,2024.2.4,MacIntel,121.9512195,61088c529cff73b187d19e6d,69712dc693a3960bdb483245,697187103db7d25b45aa5870,,,,,,,,,,,,,0,,,,,,,,,,,,,,,,,,,,,,,,306.1009,307.508,1,0,0.8862,,307.508,308.508,0,11,11,11,1,0,pretantas,REAL,FAKE,,,,,,,,,,,,,,,,,,,,,,,,,,,,,,,,
,,,,,,,,,61088c529cff73b187d19e6d,Spanish,13 or older,"yes, I am fluent in another language",no,2026-01-21_21h10.58.205,empathy_intonation_perc_control,2024.2.4,MacIntel,121.9512195,61088c529cff73b187d19e6d,69712dc693a3960bdb483245,697187103db7d25b45aa5870,,,,,,,,,,,,,,,,,,,,,,,,,,,,,,,,,,,,,,,,,,,,,,,,,,,,,,308.5084,310.2832,,,,,,,,,,,,,,,,,,,,,,,,,,,,,,
,,,,,,,,,61088c529cff73b187d19e6d,Spanish,13 or older,"yes, I am fluent in another language",no,2026-01-21_21h10.58.205,empathy_intonation_perc_control,2024.2.4,MacIntel,121.9512195,61088c529cff73b187d19e6d,69712dc693a3960bdb483245,697187103db7d25b45aa5870,,,,,,,,,,,,,1,,,,,,,,,,,,,,,,,,,,,,,,,,,,,,,,,,,,,65,bizcocho,,,,,310.2924,312.0161,0,0,1.2039,,0,0,0,64,1,REAL,FAKE,,,,,,,,,,,,,,,,,
,,,,,,,,,61088c529cff73b187d19e6d,Spanish,13 or older,"yes, I am fluent in another language",no,2026-01-21_21h10.58.205,empathy_intonation_perc_control,2024.2.4,MacIntel,121.9512195,61088c529cff73b187d19e6d,69712dc693a3960bdb483245,697187103db7d25b45aa5870,,,,,,,,,,,,,1,,,,,,,,,,,,,,,,,,,,,,,,,,,,,,,,,,,,,26,secuestro,,,,,312.0165,313.9663,1,1,1.4248,,0,1,1,25,1,REAL,FAKE,,,,,,,,,,,,,,,,,
,,,,,,,,,61088c529cff73b187d19e6d,Spanish,13 or older,"yes, I am fluent in another language",no,2026-01-21_21h10.58.205,empathy_intonation_perc_control,2024.2.4,MacIntel,121.9512195,61088c529cff73b187d19e6d,69712dc693a3960bdb483245,697187103db7d25b45aa5870,,,,,,,,,,,,,0,,,,,,,,,,,,,,,,,,,,,,,,,,,,,,,,,,,,,23,lampera,,,,,313.9673,317.6077,0,1,3.1162,,0,2,2,22,1,REAL,FAKE,,,,,,,,,,,,,,,,,
,,,,,,,,,61088c529cff73b187d19e6d,Spanish,13 or older,"yes, I am fluent in another language",no,2026-01-21_21h10.58.205,empathy_intonation_perc_control,2024.2.4,MacIntel,121.9512195,61088c529cff73b187d19e6d,69712dc693a3960bdb483245,697187103db7d25b45aa5870,,,,,,,,,,,,,1,,,,,,,,,,,,,,,,,,,,,,,,,,,,,,,,,,,,,40,alfombra,,,,,317.6088,319.2159,0,0,1.0546,,0,3,3,39,1,REAL,FAKE,,,,,,,,,,,,,,,,,
,,,,,,,,,61088c529cff73b187d19e6d,Spanish,13 or older,"yes, I am fluent in another language",no,2026-01-21_21h10.58.205,empathy_intonation_perc_control,2024.2.4,MacIntel,121.9512195,61088c529cff73b187d19e6d,69712dc693a3960bdb483245,697187103db7d25b45aa5870,,,,,,,,,,,,,1,,,,,,,,,,,,,,,,,,,,,,,,,,,,,,,,,,,,,36,loro,,,,,319.2166,321.1907,1,1,1.4549,,0,4,4,35,1,REAL,FAKE,,,,,,,,,,,,,,,,,
,,,,,,,,,61088c529cff73b187d19e6d,Spanish,13 or older,"yes, I am fluent in another language",no,2026-01-21_21h10.58.205,empathy_intonation_perc_control,2024.2.4,MacIntel,121.9512195,61088c529cff73b187d19e6d,69712dc693a3960bdb483245,697187103db7d25b45aa5870,,,,,,,,,,,,,0,,,,,,,,,,,,,,,,,,,,,,,,,,,,,,,,,,,,,79,tropaje,,,,,321.1915,324.5078,0,1,2.7912,,0,5,5,78,1,REAL,FAKE,,,,,,,,,,,,,,,,,
,,,,,,,,,61088c529cff73b187d19e6d,Spanish,13 or older,"yes, I am fluent in another language",no,2026-01-21_21h10.58.205,empathy_intonation_perc_control,2024.2.4,MacIntel,121.9512195,61088c529cff73b187d19e6d,69712dc693a3960bdb483245,697187103db7d25b45aa5870,,,,,,,,,,,,,1,,,,,,,,,,,,,,,,,,,,,,,,,,,,,,,,,,,,,2,pellizcar,,,,,324.5089,326.9413,1,1,1.9059,,0,6,6,1,1,REAL,FAKE,,,,,,,,,,,,,,,,,
,,,,,,,,,61088c529cff73b187d19e6d,Spanish,13 or older,"yes, I am fluent in another language",no,2026-01-21_21h10.58.205,empathy_intonation_perc_control,2024.2.4,MacIntel,121.9512195,61088c529cff73b187d19e6d,69712dc693a3960bdb483245,697187103db7d25b45aa5870,,,,,,,,,,,,,1,,,,,,,,,,,,,,,,,,,,,,,,,,,,,,,,,,,,,5,zapato,,,,,326.9425,328.8913,1,1,1.418,,0,7,7,4,1,REAL,FAKE,,,,,,,,,,,,,,,,,
,,,,,,,,,61088c529cff73b187d19e6d,Spanish,13 or older,"yes, I am fluent in another language",no,2026-01-21_21h10.58.205,empathy_intonation_perc_control,2024.2.4,MacIntel,121.9512195,61088c529cff73b187d19e6d,69712dc693a3960bdb483245,697187103db7d25b45aa5870,,,,,,,,,,,,,1,,,,,,,,,,,,,,,,,,,,,,,,,,,,,,,,,,,,,20,ávido,,,,,328.8927,330.9495,1,1,1.5211,,0,8,8,19,1,REAL,FAKE,,,,,,,,,,,,,,,,,
,,,,,,,,,61088c529cff73b187d19e6d,Spanish,13 or older,"yes, I am fluent in another language",no,2026-01-21_21h10.58.205,empathy_intonation_perc_control,2024.2.4,MacIntel,121.9512195,61088c529cff73b187d19e6d,69712dc693a3960bdb483245,697187103db7d25b45aa5870,,,,,,,,,,,,,1,,,,,,,,,,,,,,,,,,,,,,,,,,,,,,,,,,,,,6,tergiversar,,,,,330.9502,332.6828,0,0,1.1957,,0,9,9,5,1,REAL,FAKE,,,,,,,,,,,,,,,,,
,,,,,,,,,61088c529cff73b187d19e6d,Spanish,13 or older,"yes, I am fluent in another language",no,2026-01-21_21h10.58.205,empathy_intonation_perc_control,2024.2.4,MacIntel,121.9512195,61088c529cff73b187d19e6d,69712dc693a3960bdb483245,697187103db7d25b45aa5870,,,,,,,,,,,,,0,,,,,,,,,,,,,,,,,,,,,,,,,,,,,,,,,,,,,21,capillo,,,,,332.6838,335.1159,1,0,1.9071,,0,10,10,20,1,REAL,FAKE,,,,,,,,,,,,,,,,,
,,,,,,,,,61088c529cff73b187d19e6d,Spanish,13 or older,"yes, I am fluent in another language",no,2026-01-21_21h10.58.205,empathy_intonation_perc_control,2024.2.4,MacIntel,121.9512195,61088c529cff73b187d19e6d,69712dc693a3960bdb483245,697187103db7d25b45aa5870,,,,,,,,,,,,,1,,,,,,,,,,,,,,,,,,,,,,,,,,,,,,,,,,,,,25,bisagra,,,,,335.1166,336.5319,0,0,0.8816,,0,11,11,24,1,REAL,FAKE,,,,,,,,,,,,,,,,,
,,,,,,,,,61088c529cff73b187d19e6d,Spanish,13 or older,"yes, I am fluent in another language",no,2026-01-21_21h10.58.205,empathy_intonation_perc_control,2024.2.4,MacIntel,121.9512195,61088c529cff73b187d19e6d,69712dc693a3960bdb483245,697187103db7d25b45aa5870,,,,,,,,,,,,,1,,,,,,,,,,,,,,,,,,,,,,,,,,,,,,,,,,,,,76,atar,,,,,336.5331,338.7738,0,0,1.7333,,0,12,12,75,1,REAL,FAKE,,,,,,,,,,,,,,,,,
,,,,,,,,,61088c529cff73b187d19e6d,Spanish,13 or older,"yes, I am fluent in another language",no,2026-01-21_21h10.58.205,empathy_intonation_perc_control,2024.2.4,MacIntel,121.9512195,61088c529cff73b187d19e6d,69712dc693a3960bdb483245,697187103db7d25b45aa5870,,,,,,,,,,,,,1,,,,,,,,,,,,,,,,,,,,,,,,,,,,,,,,,,,,,77,tiburón,,,,,338.7748,340.3828,1,1,1.0796,,0,13,13,76,1,REAL,FAKE,,,,,,,,,,,,,,,,,
,,,,,,,,,61088c529cff73b187d19e6d,Spanish,13 or older,"yes, I am fluent in another language",no,2026-01-21_21h10.58.205,empathy_intonation_perc_control,2024.2.4,MacIntel,121.9512195,61088c529cff73b187d19e6d,69712dc693a3960bdb483245,697187103db7d25b45aa5870,,,,,,,,,,,,,1,,,,,,,,,,,,,,,,,,,,,,,,,,,,,,,,,,,,,78,frondoso,,,,,340.384,342.3578,0,0,1.4447,,0,14,14,77,1,REAL,FAKE,,,,,,,,,,,,,,,,,
,,,,,,,,,61088c529cff73b187d19e6d,Spanish,13 or older,"yes, I am fluent in another language",no,2026-01-21_21h10.58.205,empathy_intonation_perc_control,2024.2.4,MacIntel,121.9512195,61088c529cff73b187d19e6d,69712dc693a3960bdb483245,697187103db7d25b45aa5870,,,,,,,,,,,,,1,,,,,,,,,,,,,,,,,,,,,,,,,,,,,,,,,,,,,49,ganar,,,,,342.3587,343.9404,0,0,1.0538,,0,15,15,48,1,REAL,FAKE,,,,,,,,,,,,,,,,,
,,,,,,,,,61088c529cff73b187d19e6d,Spanish,13 or older,"yes, I am fluent in another language",no,2026-01-21_21h10.58.205,empathy_intonation_perc_control,2024.2.4,MacIntel,121.9512195,61088c529cff73b187d19e6d,69712dc693a3960bdb483245,697187103db7d25b45aa5870,,,,,,,,,,,,,0,,,,,,,,,,,,,,,,,,,,,,,,,,,,,,,,,,,,,47,cartinar,,,,,343.9414,345.5746,1,0,1.1162,,0,16,16,46,1,REAL,FAKE,,,,,,,,,,,,,,,,,
,,,,,,,,,61088c529cff73b187d19e6d,Spanish,13 or older,"yes, I am fluent in another language",no,2026-01-21_21h10.58.205,empathy_intonation_perc_control,2024.2.4,MacIntel,121.9512195,61088c529cff73b187d19e6d,69712dc693a3960bdb483245,697187103db7d25b45aa5870,,,,,,,,,,,,,1,,,,,,,,,,,,,,,,,,,,,,,,,,,,,,,,,,,,,67,cabello,,,,,345.5754,346.9328,1,1,0.8333,,0,17,17,66,1,REAL,FAKE,,,,,,,,,,,,,,,,,
,,,,,,,,,61088c529cff73b187d19e6d,Spanish,13 or older,"yes, I am fluent in another language",no,2026-01-21_21h10.58.205,empathy_intonation_perc_control,2024.2.4,MacIntel,121.9512195,61088c529cff73b187d19e6d,69712dc693a3960bdb483245,697187103db7d25b45aa5870,,,,,,,,,,,,,0,,,,,,,,,,,,,,,,,,,,,,,,,,,,,,,,,,,,,74,cintro,,,,,346.9337,348.266,1,0,0.8027,,0,18,18,73,1,REAL,FAKE,,,,,,,,,,,,,,,,,
,,,,,,,,,61088c529cff73b187d19e6d,Spanish,13 or older,"yes, I am fluent in another language",no,2026-01-21_21h10.58.205,empathy_intonation_perc_control,2024.2.4,MacIntel,121.9512195,61088c529cff73b187d19e6d,69712dc693a3960bdb483245,697187103db7d25b45aa5870,,,,,,,,,,,,,1,,,,,,,,,,,,,,,,,,,,,,,,,,,,,,,,,,,,,24,látigo,,,,,348.267,349.616,0,0,0.8263,,0,19,19,23,1,REAL,FAKE,,,,,,,,,,,,,,,,,
,,,,,,,,,61088c529cff73b187d19e6d,Spanish,13 or older,"yes, I am fluent in another language",no,2026-01-21_21h10.58.205,empathy_intonation_perc_control,2024.2.4,MacIntel,121.9512195,61088c529cff73b187d19e6d,69712dc693a3960bdb483245,697187103db7d25b45aa5870,,,,,,,,,,,,,1,,,,,,,,,,,,,,,,,,,,,,,,,,,,,,,,,,,,,38,estornudar,,,,,349.6172,351.4162,0,0,1.2739,,0,20,20,37,1,REAL,FAKE,,,,,,,,,,,,,,,,,
,,,,,,,,,61088c529cff73b187d19e6d,Spanish,13 or older,"yes, I am fluent in another language",no,2026-01-21_21h10.58.205,empathy_intonation_perc_control,2024.2.4,MacIntel,121.9512195,61088c529cff73b187d19e6d,69712dc693a3960bdb483245,697187103db7d25b45aa5870,,,,,,,,,,,,,1,,,,,,,,,,,,,,,,,,,,,,,,,,,,,,,,,,,,,9,hacha,,,,,351.4174,353.2911,1,1,1.3491,,0,21,21,8,1,REAL,FAKE,,,,,,,,,,,,,,,,,
,,,,,,,,,61088c529cff73b187d19e6d,Spanish,13 or older,"yes, I am fluent in another language",no,2026-01-21_21h10.58.205,empathy_intonation_perc_control,2024.2.4,MacIntel,121.9512195,61088c529cff73b187d19e6d,69712dc693a3960bdb483245,697187103db7d25b45aa5870,,,,,,,,,,,,,1,,,,,,,,,,,,,,,,,,,,,,,,,,,,,,,,,,,,,91,click the 1 key.,,,,,353.2924,355.5911,1,1,1.7706,,0,22,22,90,1,REAL,FAKE,,,,,,,,,,,,,,,,,
,,,,,,,,,61088c529cff73b187d19e6d,Spanish,13 or older,"yes, I am fluent in another language",no,2026-01-21_21h10.58.205,empathy_intonation_perc_control,2024.2.4,MacIntel,121.9512195,61088c529cff73b187d19e6d,69712dc693a3960bdb483245,697187103db7d25b45aa5870,,,,,,,,,,,,,1,,,,,,,,,,,,,,,,,,,,,,,,,,,,,,,,,,,,,60,matar,,,,,355.5919,359.5244,1,1,3.4076,,0,23,23,59,1,REAL,FAKE,,,,,,,,,,,,,,,,,
,,,,,,,,,61088c529cff73b187d19e6d,Spanish,13 or older,"yes, I am fluent in another language",no,2026-01-21_21h10.58.205,empathy_intonation_perc_control,2024.2.4,MacIntel,121.9512195,61088c529cff73b187d19e6d,69712dc693a3960bdb483245,697187103db7d25b45aa5870,,,,,,,,,,,,,0,,,,,,,,,,,,,,,,,,,,,,,,,,,,,,,,,,,,,82,empirador,,,,,359.5256,361.2825,1,0,1.23,,0,24,24,81,1,REAL,FAKE,,,,,,,,,,,,,,,,,
,,,,,,,,,61088c529cff73b187d19e6d,Spanish,13 or older,"yes, I am fluent in another language",no,2026-01-21_21h10.58.205,empathy_intonation_perc_control,2024.2.4,MacIntel,121.9512195,61088c529cff73b187d19e6d,69712dc693a3960bdb483245,697187103db7d25b45aa5870,,,,,,,,,,,,,0,,,,,,,,,,,,,,,,,,,,,,,,,,,,,,,,,,,,,84,escuto,,,,,361.283,362.6827,0,1,0.8843,,0,25,25,83,1,REAL,FAKE,,,,,,,,,,,,,,,,,
,,,,,,,,,61088c529cff73b187d19e6d,Spanish,13 or older,"yes, I am fluent in another language",no,2026-01-21_21h10.58.205,empathy_intonation_perc_control,2024.2.4,MacIntel,121.9512195,61088c529cff73b187d19e6d,69712dc693a3960bdb483245,697187103db7d25b45aa5870,,,,,,,,,,,,,0,,,,,,,,,,,,,,,,,,,,,,,,,,,,,,,,,,,,,42,cadallo,,,,,362.684,365.6493,1,0,2.4348,,0,26,26,41,1,REAL,FAKE,,,,,,,,,,,,,,,,,
,,,,,,,,,61088c529cff73b187d19e6d,Spanish,13 or older,"yes, I am fluent in another language",no,2026-01-21_21h10.58.205,empathy_intonation_perc_control,2024.2.4,MacIntel,121.9512195,61088c529cff73b187d19e6d,69712dc693a3960bdb483245,697187103db7d25b45aa5870,,,,,,,,,,,,,1,,,,,,,,,,,,,,,,,,,,,,,,,,,,,,,,,,,,,61,seda,,,,,365.6505,368.091,0,0,1.9151,,0,27,27,60,1,REAL,FAKE,,,,,,,,,,,,,,,,,
,,,,,,,,,61088c529cff73b187d19e6d,Spanish,13 or older,"yes, I am fluent in another language",no,2026-01-21_21h10.58.205,empathy_intonation_perc_control,2024.2.4,MacIntel,121.9512195,61088c529cff73b187d19e6d,69712dc693a3960bdb483245,697187103db7d25b45aa5870,,,,,,,,,,,,,1,,,,,,,,,,,,,,,,,,,,,,,,,,,,,,,,,,,,,68,alegre,,,,,368.0919,370.1741,1,1,1.5584,,0,28,28,67,1,REAL,FAKE,,,,,,,,,,,,,,,,,
,,,,,,,,,61088c529cff73b187d19e6d,Spanish,13 or older,"yes, I am fluent in another language",no,2026-01-21_21h10.58.205,empathy_intonation_perc_control,2024.2.4,MacIntel,121.9512195,61088c529cff73b187d19e6d,69712dc693a3960bdb483245,697187103db7d25b45aa5870,,,,,,,,,,,,,1,,,,,,,,,,,,,,,,,,,,,,,,,,,,,,,,,,,,,37,granuja,,,,,370.1745,371.8651,0,0,1.1738,,0,29,29,36,1,REAL,FAKE,,,,,,,,,,,,,,,,,
,,,,,,,,,61088c529cff73b187d19e6d,Spanish,13 or older,"yes, I am fluent in another language",no,2026-01-21_21h10.58.205,empathy_intonation_perc_control,2024.2.4,MacIntel,121.9512195,61088c529cff73b187d19e6d,69712dc693a3960bdb483245,697187103db7d25b45aa5870,,,,,,,,,,,,,0,,,,,,,,,,,,,,,,,,,,,,,,,,,,,,,,,,,,,72,pemición,,,,,371.866,373.9325,0,1,1.5414,,0,30,30,71,1,REAL,FAKE,,,,,,,,,,,,,,,,,
,,,,,,,,,61088c529cff73b187d19e6d,Spanish,13 or older,"yes, I am fluent in another language",no,2026-01-21_21h10.58.205,empathy_intonation_perc_control,2024.2.4,MacIntel,121.9512195,61088c529cff73b187d19e6d,69712dc693a3960bdb483245,697187103db7d25b45aa5870,,,,,,,,,,,,,0,,,,,,,,,,,,,,,,,,,,,,,,,,,,,,,,,,,,,10,antar,,,,,373.9335,375.4494,0,1,0.9879,,0,31,31,9,1,REAL,FAKE,,,,,,,,,,,,,,,,,
,,,,,,,,,61088c529cff73b187d19e6d,Spanish,13 or older,"yes, I am fluent in another language",no,2026-01-21_21h10.58.205,empathy_intonation_perc_control,2024.2.4,MacIntel,121.9512195,61088c529cff73b187d19e6d,69712dc693a3960bdb483245,697187103db7d25b45aa5870,,,,,,,,,,,,,1,,,,,,,,,,,,,,,,,,,,,,,,,,,,,,,,,,,,,7,pésimo,,,,,375.4507,377.3491,0,0,1.3795,,0,32,32,6,1,REAL,FAKE,,,,,,,,,,,,,,,,,
,,,,,,,,,61088c529cff73b187d19e6d,Spanish,13 or older,"yes, I am fluent in another language",no,2026-01-21_21h10.58.205,empathy_intonation_perc_control,2024.2.4,MacIntel,121.9512195,61088c529cff73b187d19e6d,69712dc693a3960bdb483245,697187103db7d25b45aa5870,,,,,,,,,,,,,1,,,,,,,,,,,,,,,,,,,,,,,,,,,,,,,,,,,,,80,hormiga,,,,,377.3499,379.3241,0,0,1.4455,,0,33,33,79,1,REAL,FAKE,,,,,,,,,,,,,,,,,
,,,,,,,,,61088c529cff73b187d19e6d,Spanish,13 or older,"yes, I am fluent in another language",no,2026-01-21_21h10.58.205,empathy_intonation_perc_control,2024.2.4,MacIntel,121.9512195,61088c529cff73b187d19e6d,69712dc693a3960bdb483245,697187103db7d25b45aa5870,,,,,,,,,,,,,0,,,,,,,,,,,,,,,,,,,,,,,,,,,,,,,,,,,,,18,arsa,,,,,379.3246,380.9741,0,1,1.114,,0,34,34,17,1,REAL,FAKE,,,,,,,,,,,,,,,,,
,,,,,,,,,61088c529cff73b187d19e6d,Spanish,13 or older,"yes, I am fluent in another language",no,2026-01-21_21h10.58.205,empathy_intonation_perc_control,2024.2.4,MacIntel,121.9512195,61088c529cff73b187d19e6d,69712dc693a3960bdb483245,697187103db7d25b45aa5870,,,,,,,,,,,,,0,,,,,,,,,,,,,,,,,,,,,,,,,,,,,,,,,,,,,33,pauca,,,,,380.9749,382.3407,0,1,0.8228,,0,35,35,32,1,REAL,FAKE,,,,,,,,,,,,,,,,,
,,,,,,,,,61088c529cff73b187d19e6d,Spanish,13 or older,"yes, I am fluent in another language",no,2026-01-21_21h10.58.205,empathy_intonation_perc_control,2024.2.4,MacIntel,121.9512195,61088c529cff73b187d19e6d,69712dc693a3960bdb483245,697187103db7d25b45aa5870,,,,,,,,,,,,,1,,,,,,,,,,,,,,,,,,,,,,,,,,,,,,,,,,,,,11,cenefa,,,,,382.3411,384.1745,0,0,1.3089,,0,36,36,10,1,REAL,FAKE,,,,,,,,,,,,,,,,,
,,,,,,,,,61088c529cff73b187d19e6d,Spanish,13 or older,"yes, I am fluent in another language",no,2026-01-21_21h10.58.205,empathy_intonation_perc_control,2024.2.4,MacIntel,121.9512195,61088c529cff73b187d19e6d,69712dc693a3960bdb483245,697187103db7d25b45aa5870,,,,,,,,,,,,,1,,,,,,,,,,,,,,,,,,,,,,,,,,,,,,,,,,,,,83,guante,,,,,384.1757,385.941,0,0,1.2466,,0,37,37,82,1,REAL,FAKE,,,,,,,,,,,,,,,,,
,,,,,,,,,61088c529cff73b187d19e6d,Spanish,13 or older,"yes, I am fluent in another language",no,2026-01-21_21h10.58.205,empathy_intonation_perc_control,2024.2.4,MacIntel,121.9512195,61088c529cff73b187d19e6d,69712dc693a3960bdb483245,697187103db7d25b45aa5870,,,,,,,,,,,,,1,,,,,,,,,,,,,,,,,,,,,,,,,,,,,,,,,,,,,71,polvoriento,,,,,385.9425,388.1159,0,0,1.6428,,0,38,38,70,1,REAL,FAKE,,,,,,,,,,,,,,,,,
,,,,,,,,,61088c529cff73b187d19e6d,Spanish,13 or older,"yes, I am fluent in another language",no,2026-01-21_21h10.58.205,empathy_intonation_perc_control,2024.2.4,MacIntel,121.9512195,61088c529cff73b187d19e6d,69712dc693a3960bdb483245,697187103db7d25b45aa5870,,,,,,,,,,,,,1,,,,,,,,,,,,,,,,,,,,,,,,,,,,,,,,,,,,,45,jilguero,,,,,388.1169,389.416,0,0,0.7712,,0,39,39,44,1,REAL,FAKE,,,,,,,,,,,,,,,,,
,,,,,,,,,61088c529cff73b187d19e6d,Spanish,13 or older,"yes, I am fluent in another language",no,2026-01-21_21h10.58.205,empathy_intonation_perc_control,2024.2.4,MacIntel,121.9512195,61088c529cff73b187d19e6d,69712dc693a3960bdb483245,697187103db7d25b45aa5870,,,,,,,,,,,,,1,,,,,,,,,,,,,,,,,,,,,,,,,,,,,,,,,,,,,86,barato,,,,,389.417,391.2326,1,1,1.2929,,0,40,40,85,1,REAL,FAKE,,,,,,,,,,,,,,,,,
,,,,,,,,,61088c529cff73b187d19e6d,Spanish,13 or older,"yes, I am fluent in another language",no,2026-01-21_21h10.58.205,empathy_intonation_perc_control,2024.2.4,MacIntel,121.9512195,61088c529cff73b187d19e6d,69712dc693a3960bdb483245,697187103db7d25b45aa5870,,,,,,,,,,,,,1,,,,,,,,,,,,,,,,,,,,,,,,,,,,,,,,,,,,,46,martillo,,,,,391.2336,393.1076,1,1,1.3504,,0,41,41,45,1,REAL,FAKE,,,,,,,,,,,,,,,,,
,,,,,,,,,61088c529cff73b187d19e6d,Spanish,13 or older,"yes, I am fluent in another language",no,2026-01-21_21h10.58.205,empathy_intonation_perc_control,2024.2.4,MacIntel,121.9512195,61088c529cff73b187d19e6d,69712dc693a3960bdb483245,697187103db7d25b45aa5870,,,,,,,,,,,,,0,,,,,,,,,,,,,,,,,,,,,,,,,,,,,,,,,,,,,17,floroso,,,,,393.1086,394.5327,1,0,0.9005,,0,42,42,16,1,REAL,FAKE,,,,,,,,,,,,,,,,,
,,,,,,,,,61088c529cff73b187d19e6d,Spanish,13 or older,"yes, I am fluent in another language",no,2026-01-21_21h10.58.205,empathy_intonation_perc_control,2024.2.4,MacIntel,121.9512195,61088c529cff73b187d19e6d,69712dc693a3960bdb483245,697187103db7d25b45aa5870,,,,,,,,,,,,,0,,,,,,,,,,,,,,,,,,,,,,,,,,,,,,,,,,,,,92,click the 0 key.,,,,,394.534,396.3996,0,1,1.3443,,0,43,43,91,1,REAL,FAKE,,,,,,,,,,,,,,,,,
,,,,,,,,,61088c529cff73b187d19e6d,Spanish,13 or older,"yes, I am fluent in another language",no,2026-01-21_21h10.58.205,empathy_intonation_perc_control,2024.2.4,MacIntel,121.9512195,61088c529cff73b187d19e6d,69712dc693a3960bdb483245,697187103db7d25b45aa5870,,,,,,,,,,,,,1,,,,,,,,,,,,,,,,,,,,,,,,,,,,,,,,,,,,,56,musgo,,,,,396.4009,397.9568,0,0,1.0318,,0,44,44,55,1,REAL,FAKE,,,,,,,,,,,,,,,,,
,,,,,,,,,61088c529cff73b187d19e6d,Spanish,13 or older,"yes, I am fluent in another language",no,2026-01-21_21h10.58.205,empathy_intonation_perc_control,2024.2.4,MacIntel,121.9512195,61088c529cff73b187d19e6d,69712dc693a3960bdb483245,697187103db7d25b45aa5870,,,,,,,,,,,,,1,,,,,,,,,,,,,,,,,,,,,,,,,,,,,,,,,,,,,62,flaco,,,,,397.9581,399.7825,1,1,1.2965,,0,45,45,61,1,REAL,FAKE,,,,,,,,,,,,,,,,,
,,,,,,,,,61088c529cff73b187d19e6d,Spanish,13 or older,"yes, I am fluent in another language",no,2026-01-21_21h10.58.205,empathy_intonation_perc_control,2024.2.4,MacIntel,121.9512195,61088c529cff73b187d19e6d,69712dc693a3960bdb483245,697187103db7d25b45aa5870,,,,,,,,,,,,,0,,,,,,,,,,,,,,,,,,,,,,,,,,,,,,,,,,,,,50,flamida,,,,,399.7837,401.0984,1,0,0.787,,0,46,46,49,1,REAL,FAKE,,,,,,,,,,,,,,,,,
,,,,,,,,,61088c529cff73b187d19e6d,Spanish,13 or older,"yes, I am fluent in another language",no,2026-01-21_21h10.58.205,empathy_intonation_perc_control,2024.2.4,MacIntel,121.9512195,61088c529cff73b187d19e6d,69712dc693a3960bdb483245,697187103db7d25b45aa5870,,,,,,,,,,,,,0,,,,,,,,,,,,,,,,,,,,,,,,,,,,,,,,,,,,,87,grodo,,,,,401.0991,402.4325,0,1,0.817,,0,47,47,86,1,REAL,FAKE,,,,,,,,,,,,,,,,,
,,,,,,,,,61088c529cff73b187d19e6d,Spanish,13 or older,"yes, I am fluent in another language",no,2026-01-21_21h10.58.205,empathy_intonation_perc_control,2024.2.4,MacIntel,121.9512195,61088c529cff73b187d19e6d,69712dc693a3960bdb483245,697187103db7d25b45aa5870,,,,,,,,,,,,,0,,,,,,,,,,,,,,,,,,,,,,,,,,,,,,,,,,,,,66,hacido,,,,,402.4335,403.9824,0,1,1.0231,,0,48,48,65,1,REAL,FAKE,,,,,,,,,,,,,,,,,
,,,,,,,,,61088c529cff73b187d19e6d,Spanish,13 or older,"yes, I am fluent in another language",no,2026-01-21_21h10.58.205,empathy_intonation_perc_control,2024.2.4,MacIntel,121.9512195,61088c529cff73b187d19e6d,69712dc693a3960bdb483245,697187103db7d25b45aa5870,,,,,,,,,,,,,0,,,,,,,,,,,,,,,,,,,,,,,,,,,,,,,,,,,,,1,terzo,,,,,403.9829,405.8827,1,0,1.3735,,0,49,49,0,1,REAL,FAKE,,,,,,,,,,,,,,,,,
,,,,,,,,,61088c529cff73b187d19e6d,Spanish,13 or older,"yes, I am fluent in another language",no,2026-01-21_21h10.58.205,empathy_intonation_perc_control,2024.2.4,MacIntel,121.9512195,61088c529cff73b187d19e6d,69712dc693a3960bdb483245,697187103db7d25b45aa5870,,,,,,,,,,,,,1,,,,,,,,,,,,,,,,,,,,,,,,,,,,,,,,,,,,,15,regar,,,,,405.8836,407.1743,0,0,0.7662,,0,50,50,14,1,REAL,FAKE,,,,,,,,,,,,,,,,,
,,,,,,,,,61088c529cff73b187d19e6d,Spanish,13 or older,"yes, I am fluent in another language",no,2026-01-21_21h10.58.205,empathy_intonation_perc_control,2024.2.4,MacIntel,121.9512195,61088c529cff73b187d19e6d,69712dc693a3960bdb483245,697187103db7d25b45aa5870,,,,,,,,,,,,,1,,,,,,,,,,,,,,,,,,,,,,,,,,,,,,,,,,,,,31,pandilla,,,,,407.1753,408.7659,0,0,1.0658,,0,51,51,30,1,REAL,FAKE,,,,,,,,,,,,,,,,,
,,,,,,,,,61088c529cff73b187d19e6d,Spanish,13 or older,"yes, I am fluent in another language",no,2026-01-21_21h10.58.205,empathy_intonation_perc_control,2024.2.4,MacIntel,121.9512195,61088c529cff73b187d19e6d,69712dc693a3960bdb483245,697187103db7d25b45aa5870,,,,,,,,,,,,,1,,,,,,,,,,,,,,,,,,,,,,,,,,,,,,,,,,,,,34,aviso,,,,,408.7669,410.4576,0,0,1.1649,,0,52,52,33,1,REAL,FAKE,,,,,,,,,,,,,,,,,
,,,,,,,,,61088c529cff73b187d19e6d,Spanish,13 or older,"yes, I am fluent in another language",no,2026-01-21_21h10.58.205,empathy_intonation_perc_control,2024.2.4,MacIntel,121.9512195,61088c529cff73b187d19e6d,69712dc693a3960bdb483245,697187103db7d25b45aa5870,,,,,,,,,,,,,0,,,,,,,,,,,,,,,,,,,,,,,,,,,,,,,,,,,,,30,alardio,,,,,410.4585,412.024,0,1,1.0425,,0,53,53,29,1,REAL,FAKE,,,,,,,,,,,,,,,,,
,,,,,,,,,61088c529cff73b187d19e6d,Spanish,13 or older,"yes, I am fluent in another language",no,2026-01-21_21h10.58.205,empathy_intonation_perc_control,2024.2.4,MacIntel,121.9512195,61088c529cff73b187d19e6d,69712dc693a3960bdb483245,697187103db7d25b45aa5870,,,,,,,,,,,,,1,,,,,,,,,,,,,,,,,,,,,,,,,,,,,,,,,,,,,69,engatusar,,,,,412.0243,413.341,0,0,0.7999,,0,54,54,68,1,REAL,FAKE,,,,,,,,,,,,,,,,,
,,,,,,,,,61088c529cff73b187d19e6d,Spanish,13 or older,"yes, I am fluent in another language",no,2026-01-21_21h10.58.205,empathy_intonation_perc_control,2024.2.4,MacIntel,121.9512195,61088c529cff73b187d19e6d,69712dc693a3960bdb483245,697187103db7d25b45aa5870,,,,,,,,,,,,,0,,,,,,,,,,,,,,,,,,,,,,,,,,,,,,,,,,,,,8,cadeña,,,,,413.342,415.8154,0,1,1.9521,,0,55,55,7,1,REAL,FAKE,,,,,,,,,,,,,,,,,
,,,,,,,,,61088c529cff73b187d19e6d,Spanish,13 or older,"yes, I am fluent in another language",no,2026-01-21_21h10.58.205,empathy_intonation_perc_control,2024.2.4,MacIntel,121.9512195,61088c529cff73b187d19e6d,69712dc693a3960bdb483245,697187103db7d25b45aa5870,,,,,,,,,,,,,1,,,,,,,,,,,,,,,,,,,,,,,,,,,,,,,,,,,,,85,laúd,,,,,415.8164,416.9824,0,0,0.6404,,0,56,56,84,1,REAL,FAKE,,,,,,,,,,,,,,,,,
,,,,,,,,,61088c529cff73b187d19e6d,Spanish,13 or older,"yes, I am fluent in another language",no,2026-01-21_21h10.58.205,empathy_intonation_perc_control,2024.2.4,MacIntel,121.9512195,61088c529cff73b187d19e6d,69712dc693a3960bdb483245,697187103db7d25b45aa5870,,,,,,,,,,,,,0,,,,,,,,,,,,,,,,,,,,,,,,,,,,,,,,,,,,,58,plaudir,,,,,416.9828,418.3825,0,1,0.8829,,0,57,57,57,1,REAL,FAKE,,,,,,,,,,,,,,,,,
,,,,,,,,,61088c529cff73b187d19e6d,Spanish,13 or older,"yes, I am fluent in another language",no,2026-01-21_21h10.58.205,empathy_intonation_perc_control,2024.2.4,MacIntel,121.9512195,61088c529cff73b187d19e6d,69712dc693a3960bdb483245,697187103db7d25b45aa5870,,,,,,,,,,,,,1,,,,,,,,,,,,,,,,,,,,,,,,,,,,,,,,,,,,,64,orgulloso,,,,,418.3839,419.6491,0,0,0.7451,,0,58,58,63,1,REAL,FAKE,,,,,,,,,,,,,,,,,
,,,,,,,,,61088c529cff73b187d19e6d,Spanish,13 or older,"yes, I am fluent in another language",no,2026-01-21_21h10.58.205,empathy_intonation_perc_control,2024.2.4,MacIntel,121.9512195,61088c529cff73b187d19e6d,69712dc693a3960bdb483245,697187103db7d25b45aa5870,,,,,,,,,,,,,0,,,,,,,,,,,,,,,,,,,,,,,,,,,,,,,,,,,,,70,temblo,,,,,419.6501,421.174,1,0,1.0002,,0,59,59,69,1,REAL,FAKE,,,,,,,,,,,,,,,,,
,,,,,,,,,61088c529cff73b187d19e6d,Spanish,13 or older,"yes, I am fluent in another language",no,2026-01-21_21h10.58.205,empathy_intonation_perc_control,2024.2.4,MacIntel,121.9512195,61088c529cff73b187d19e6d,69712dc693a3960bdb483245,697187103db7d25b45aa5870,,,,,,,,,,,,,1,,,,,,,,,,,,,,,,,,,,,,,,,,,,,,,,,,,,,57,tacaño,,,,,421.1746,424.0742,0,0,2.3751,,0,60,60,56,1,REAL,FAKE,,,,,,,,,,,,,,,,,
,,,,,,,,,61088c529cff73b187d19e6d,Spanish,13 or older,"yes, I am fluent in another language",no,2026-01-21_21h10.58.205,empathy_intonation_perc_control,2024.2.4,MacIntel,121.9512195,61088c529cff73b187d19e6d,69712dc693a3960bdb483245,697187103db7d25b45aa5870,,,,,,,,,,,,,1,,,,,,,,,,,,,,,,,,,,,,,,,,,,,,,,,,,,,28,merodear,,,,,424.0751,425.7992,0,0,1.1996,,0,61,61,27,1,REAL,FAKE,,,,,,,,,,,,,,,,,
,,,,,,,,,61088c529cff73b187d19e6d,Spanish,13 or older,"yes, I am fluent in another language",no,2026-01-21_21h10.58.205,empathy_intonation_perc_control,2024.2.4,MacIntel,121.9512195,61088c529cff73b187d19e6d,69712dc693a3960bdb483245,697187103db7d25b45aa5870,,,,,,,,,,,,,0,,,,,,,,,,,,,,,,,,,,,,,,,,,,,,,,,,,,,35,rompido,,,,,425.8002,427.4241,0,1,1.1006,,0,62,62,34,1,REAL,FAKE,,,,,,,,,,,,,,,,,
,,,,,,,,,61088c529cff73b187d19e6d,Spanish,13 or older,"yes, I am fluent in another language",no,2026-01-21_21h10.58.205,empathy_intonation_perc_control,2024.2.4,MacIntel,121.9512195,61088c529cff73b187d19e6d,69712dc693a3960bdb483245,697187103db7d25b45aa5870,,,,,,,,,,,,,1,,,,,,,,,,,,,,,,,,,,,,,,,,,,,,,,,,,,,41,rebuscar,,,,,427.4252,428.6817,0,0,0.7315,,0,63,63,40,1,REAL,FAKE,,,,,,,,,,,,,,,,,
,,,,,,,,,61088c529cff73b187d19e6d,Spanish,13 or older,"yes, I am fluent in another language",no,2026-01-21_21h10.58.205,empathy_intonation_perc_control,2024.2.4,MacIntel,121.9512195,61088c529cff73b187d19e6d,69712dc693a3960bdb483245,697187103db7d25b45aa5870,,,,,,,,,,,,,1,,,,,,,,,,,,,,,,,,,,,,,,,,,,,,,,,,,,,13,helar,,,,,428.6827,429.9742,0,0,0.7669,,0,64,64,12,1,REAL,FAKE,,,,,,,,,,,,,,,,,
,,,,,,,,,61088c529cff73b187d19e6d,Spanish,13 or older,"yes, I am fluent in another language",no,2026-01-21_21h10.58.205,empathy_intonation_perc_control,2024.2.4,MacIntel,121.9512195,61088c529cff73b187d19e6d,69712dc693a3960bdb483245,697187103db7d25b45aa5870,,,,,,,,,,,,,1,,,,,,,,,,,,,,,,,,,,,,,,,,,,,,,,,,,,,73,hervidor,,,,,429.9752,431.2242,0,0,0.7257,,0,65,65,72,1,REAL,FAKE,,,,,,,,,,,,,,,,,
,,,,,,,,,61088c529cff73b187d19e6d,Spanish,13 or older,"yes, I am fluent in another language",no,2026-01-21_21h10.58.205,empathy_intonation_perc_control,2024.2.4,MacIntel,121.9512195,61088c529cff73b187d19e6d,69712dc693a3960bdb483245,697187103db7d25b45aa5870,,,,,,,,,,,,,1,,,,,,,,,,,,,,,,,,,,,,,,,,,,,,,,,,,,,88,acantilado,,,,,431.2251,433.0817,0,0,1.3331,,0,66,66,87,1,REAL,FAKE,,,,,,,,,,,,,,,,,
,,,,,,,,,61088c529cff73b187d19e6d,Spanish,13 or older,"yes, I am fluent in another language",no,2026-01-21_21h10.58.205,empathy_intonation_perc_control,2024.2.4,MacIntel,121.9512195,61088c529cff73b187d19e6d,69712dc693a3960bdb483245,697187103db7d25b45aa5870,,,,,,,,,,,,,1,,,,,,,,,,,,,,,,,,,,,,,,,,,,,,,,,,,,,44,cuchara,,,,,433.0823,436.1984,1,1,2.5984,,0,67,67,43,1,REAL,FAKE,,,,,,,,,,,,,,,,,
,,,,,,,,,61088c529cff73b187d19e6d,Spanish,13 or older,"yes, I am fluent in another language",no,2026-01-21_21h10.58.205,empathy_intonation_perc_control,2024.2.4,MacIntel,121.9512195,61088c529cff73b187d19e6d,69712dc693a3960bdb483245,697187103db7d25b45aa5870,,,,,,,,,,,,,1,,,,,,,,,,,,,,,,,,,,,,,,,,,,,,,,,,,,,59,besar,,,,,436.1989,437.4146,1,1,0.689,,0,68,68,58,1,REAL,FAKE,,,,,,,,,,,,,,,,,
,,,,,,,,,61088c529cff73b187d19e6d,Spanish,13 or older,"yes, I am fluent in another language",no,2026-01-21_21h10.58.205,empathy_intonation_perc_control,2024.2.4,MacIntel,121.9512195,61088c529cff73b187d19e6d,69712dc693a3960bdb483245,697187103db7d25b45aa5870,,,,,,,,,,,,,1,,,,,,,,,,,,,,,,,,,,,,,,,,,,,,,,,,,,,55,nevar,,,,,437.4152,440.4405,1,1,2.5132,,0,69,69,54,1,REAL,FAKE,,,,,,,,,,,,,,,,,
,,,,,,,,,61088c529cff73b187d19e6d,Spanish,13 or older,"yes, I am fluent in another language",no,2026-01-21_21h10.58.205,empathy_intonation_perc_control,2024.2.4,MacIntel,121.9512195,61088c529cff73b187d19e6d,69712dc693a3960bdb483245,697187103db7d25b45aa5870,,,,,,,,,,,,,1,,,,,,,,,,,,,,,,,,,,,,,,,,,,,,,,,,,,,54,fomentar,,,,,440.4412,442.0326,0,0,1.0537,,0,70,70,53,1,REAL,FAKE,,,,,,,,,,,,,,,,,
,,,,,,,,,61088c529cff73b187d19e6d,Spanish,13 or older,"yes, I am fluent in another language",no,2026-01-21_21h10.58.205,empathy_intonation_perc_control,2024.2.4,MacIntel,121.9512195,61088c529cff73b187d19e6d,69712dc693a3960bdb483245,697187103db7d25b45aa5870,,,,,,,,,,,,,0,,,,,,,,,,,,,,,,,,,,,,,,,,,,,,,,,,,,,53,vegada,,,,,442.0339,444.2241,1,0,1.6664,,0,71,71,52,1,REAL,FAKE,,,,,,,,,,,,,,,,,
,,,,,,,,,61088c529cff73b187d19e6d,Spanish,13 or older,"yes, I am fluent in another language",no,2026-01-21_21h10.58.205,empathy_intonation_perc_control,2024.2.4,MacIntel,121.9512195,61088c529cff73b187d19e6d,69712dc693a3960bdb483245,697187103db7d25b45aa5870,,,,,,,,,,,,,1,,,,,,,,,,,,,,,,,,,,,,,,,,,,,,,,,,,,,14,yunque,,,,,444.2252,445.5488,0,0,0.8013,,0,72,72,13,1,REAL,FAKE,,,,,,,,,,,,,,,,,
,,,,,,,,,61088c529cff73b187d19e6d,Spanish,13 or older,"yes, I am fluent in another language",no,2026-01-21_21h10.58.205,empathy_intonation_perc_control,2024.2.4,MacIntel,121.9512195,61088c529cff73b187d19e6d,69712dc693a3960bdb483245,697187103db7d25b45aa5870,,,,,,,,,,,,,0,,,,,,,,,,,,,,,,,,,,,,,,,,,,,,,,,,,,,63,esposante,,,,,445.5492,448.0655,1,0,1.9943,,0,73,73,62,1,REAL,FAKE,,,,,,,,,,,,,,,,,
,,,,,,,,,61088c529cff73b187d19e6d,Spanish,13 or older,"yes, I am fluent in another language",no,2026-01-21_21h10.58.205,empathy_intonation_perc_control,2024.2.4,MacIntel,121.9512195,61088c529cff73b187d19e6d,69712dc693a3960bdb483245,697187103db7d25b45aa5870,,,,,,,,,,,,,0,,,,,,,,,,,,,,,,,,,,,,,,,,,,,,,,,,,,,16,abracer,,,,,448.066,450.5239,1,0,1.936,,0,74,74,15,1,REAL,FAKE,,,,,,,,,,,,,,,,,
,,,,,,,,,61088c529cff73b187d19e6d,Spanish,13 or older,"yes, I am fluent in another language",no,2026-01-21_21h10.58.205,empathy_intonation_perc_control,2024.2.4,MacIntel,121.9512195,61088c529cff73b187d19e6d,69712dc693a3960bdb483245,697187103db7d25b45aa5870,,,,,,,,,,,,,1,,,,,,,,,,,,,,,,,,,,,,,,,,,,,,,,,,,,,81,pozo,,,,,450.5242,452.1908,0,0,1.1457,,0,75,75,80,1,REAL,FAKE,,,,,,,,,,,,,,,,,
,,,,,,,,,61088c529cff73b187d19e6d,Spanish,13 or older,"yes, I am fluent in another language",no,2026-01-21_21h10.58.205,empathy_intonation_perc_control,2024.2.4,MacIntel,121.9512195,61088c529cff73b187d19e6d,69712dc693a3960bdb483245,697187103db7d25b45aa5870,,,,,,,,,,,,,1,,,,,,,,,,,,,,,,,,,,,,,,,,,,,,,,,,,,,22,lacayo,,,,,452.1916,453.399,0,0,0.6833,,0,76,76,21,1,REAL,FAKE,,,,,,,,,,,,,,,,,
,,,,,,,,,61088c529cff73b187d19e6d,Spanish,13 or older,"yes, I am fluent in another language",no,2026-01-21_21h10.58.205,empathy_intonation_perc_control,2024.2.4,MacIntel,121.9512195,61088c529cff73b187d19e6d,69712dc693a3960bdb483245,697187103db7d25b45aa5870,,,,,,,,,,,,,1,,,,,,,,,,,,,,,,,,,,,,,,,,,,,,,,,,,,,51,candado,,,,,453.4,455.4903,1,1,1.5655,,0,77,77,50,1,REAL,FAKE,,,,,,,,,,,,,,,,,
,,,,,,,,,61088c529cff73b187d19e6d,Spanish,13 or older,"yes, I am fluent in another language",no,2026-01-21_21h10.58.205,empathy_intonation_perc_control,2024.2.4,MacIntel,121.9512195,61088c529cff73b187d19e6d,69712dc693a3960bdb483245,697187103db7d25b45aa5870,,,,,,,,,,,,,0,,,,,,,,,,,,,,,,,,,,,,,,,,,,,,,,,,,,,29,decar,,,,,455.4913,457.5066,0,1,1.4867,,0,78,78,28,1,REAL,FAKE,,,,,,,,,,,,,,,,,
,,,,,,,,,61088c529cff73b187d19e6d,Spanish,13 or older,"yes, I am fluent in another language",no,2026-01-21_21h10.58.205,empathy_intonation_perc_control,2024.2.4,MacIntel,121.9512195,61088c529cff73b187d19e6d,69712dc693a3960bdb483245,697187103db7d25b45aa5870,,,,,,,,,,,,,0,,,,,,,,,,,,,,,,,,,,,,,,,,,,,,,,,,,,,27,acutación,,,,,457.5078,458.749,0,1,0.7266,,0,79,79,26,1,REAL,FAKE,,,,,,,,,,,,,,,,,
,,,,,,,,,61088c529cff73b187d19e6d,Spanish,13 or older,"yes, I am fluent in another language",no,2026-01-21_21h10.58.205,empathy_intonation_perc_control,2024.2.4,MacIntel,121.9512195,61088c529cff73b187d19e6d,69712dc693a3960bdb483245,697187103db7d25b45aa5870,,,,,,,,,,,,,1,,,,,,,,,,,,,,,,,,,,,,,,,,,,,,,,,,,,,39,torpe,,,,,458.75,460.3065,1,1,1.0365,,0,80,80,38,1,REAL,FAKE,,,,,,,,,,,,,,,,,
,,,,,,,,,61088c529cff73b187d19e6d,Spanish,13 or older,"yes, I am fluent in another language",no,2026-01-21_21h10.58.205,empathy_intonation_perc_control,2024.2.4,MacIntel,121.9512195,61088c529cff73b187d19e6d,69712dc693a3960bdb483245,697187103db7d25b45aa5870,,,,,,,,,,,,,1,,,,,,,,,,,,,,,,,,,,,,,,,,,,,,,,,,,,,75,yacer,,,,,460.3076,461.5741,0,0,0.7515,,0,81,81,74,1,REAL,FAKE,,,,,,,,,,,,,,,,,
,,,,,,,,,61088c529cff73b187d19e6d,Spanish,13 or older,"yes, I am fluent in another language",no,2026-01-21_21h10.58.205,empathy_intonation_perc_control,2024.2.4,MacIntel,121.9512195,61088c529cff73b187d19e6d,69712dc693a3960bdb483245,697187103db7d25b45aa5870,,,,,,,,,,,,,1,,,,,,,,,,,,,,,,,,,,,,,,,,,,,,,,,,,,,12,asesinato,,,,,461.575,462.9565,0,0,0.8576,,0,82,82,11,1,REAL,FAKE,,,,,,,,,,,,,,,,,
,,,,,,,,,61088c529cff73b187d19e6d,Spanish,13 or older,"yes, I am fluent in another language",no,2026-01-21_21h10.58.205,empathy_intonation_perc_control,2024.2.4,MacIntel,121.9512195,61088c529cff73b187d19e6d,69712dc693a3960bdb483245,697187103db7d25b45aa5870,,,,,,,,,,,,,1,,,,,,,,,,,,,,,,,,,,,,,,,,,,,,,,,,,,,90,clavel,,,,,462.9573,467.5323,1,1,4.0589,,0,83,83,89,1,REAL,FAKE,,,,,,,,,,,,,,,,,
,,,,,,,,,61088c529cff73b187d19e6d,Spanish,13 or older,"yes, I am fluent in another language",no,2026-01-21_21h10.58.205,empathy_intonation_perc_control,2024.2.4,MacIntel,121.9512195,61088c529cff73b187d19e6d,69712dc693a3960bdb483245,697187103db7d25b45aa5870,,,,,,,,,,,,,1,,,,,,,,,,,,,,,,,,,,,,,,,,,,,,,,,,,,,3,pulmones,,,,,467.5333,469.6822,1,1,1.6183,,0,84,84,2,1,REAL,FAKE,,,,,,,,,,,,,,,,,
,,,,,,,,,61088c529cff73b187d19e6d,Spanish,13 or older,"yes, I am fluent in another language",no,2026-01-21_21h10.58.205,empathy_intonation_perc_control,2024.2.4,MacIntel,121.9512195,61088c529cff73b187d19e6d,69712dc693a3960bdb483245,697187103db7d25b45aa5870,,,,,,,,,,,,,0,,,,,,,,,,,,,,,,,,,,,,,,,,,,,,,,,,,,,19,brecedad,,,,,469.6833,471.1904,0,1,0.9779,,0,85,85,18,1,REAL,FAKE,,,,,,,,,,,,,,,,,
,,,,,,,,,61088c529cff73b187d19e6d,Spanish,13 or older,"yes, I am fluent in another language",no,2026-01-21_21h10.58.205,empathy_intonation_perc_control,2024.2.4,MacIntel,121.9512195,61088c529cff73b187d19e6d,69712dc693a3960bdb483245,697187103db7d25b45aa5870,,,,,,,,,,,,,1,,,,,,,,,,,,,,,,,,,,,,,,,,,,,,,,,,,,,52,camisa,,,,,471.1907,472.5154,1,1,0.8096,,0,86,86,51,1,REAL,FAKE,,,,,,,,,,,,,,,,,
,,,,,,,,,61088c529cff73b187d19e6d,Spanish,13 or older,"yes, I am fluent in another language",no,2026-01-21_21h10.58.205,empathy_intonation_perc_control,2024.2.4,MacIntel,121.9512195,61088c529cff73b187d19e6d,69712dc693a3960bdb483245,697187103db7d25b45aa5870,,,,,,,,,,,,,1,,,,,,,,,,,,,,,,,,,,,,,,,,,,,,,,,,,,,43,canela,,,,,472.5165,474.5401,1,1,1.504,,0,87,87,42,1,REAL,FAKE,,,,,,,,,,,,,,,,,
,,,,,,,,,61088c529cff73b187d19e6d,Spanish,13 or older,"yes, I am fluent in another language",no,2026-01-21_21h10.58.205,empathy_intonation_perc_control,2024.2.4,MacIntel,121.9512195,61088c529cff73b187d19e6d,69712dc693a3960bdb483245,697187103db7d25b45aa5870,,,,,,,,,,,,,1,,,,,,,,,,,,,,,,,,,,,,,,,,,,,,,,,,,,,89,prisa,,,,,474.5411,475.7989,0,0,0.7404,,0,88,88,88,1,REAL,FAKE,,,,,,,,,,,,,,,,,
,,,,,,,,,61088c529cff73b187d19e6d,Spanish,13 or older,"yes, I am fluent in another language",no,2026-01-21_21h10.58.205,empathy_intonation_perc_control,2024.2.4,MacIntel,121.9512195,61088c529cff73b187d19e6d,69712dc693a3960bdb483245,697187103db7d25b45aa5870,,,,,,,,,,,,,1,,,,,,,,,,,,,,,,,,,,,,,,,,,,,,,,,,,,,48,ladrón,,,,,475.7999,476.9646,0,0,0.6428,,0,89,89,47,1,REAL,FAKE,,,,,,,,,,,,,,,,,
,,,,,,,,,61088c529cff73b187d19e6d,Spanish,13 or older,"yes, I am fluent in another language",no,2026-01-21_21h10.58.205,empathy_intonation_perc_control,2024.2.4,MacIntel,121.9512195,61088c529cff73b187d19e6d,69712dc693a3960bdb483245,697187103db7d25b45aa5870,,,,,,,,,,,,,0,,,,,,,,,,,,,,,,,,,,,,,,,,,,,,,,,,,,,32,fatacidad,,,,,476.965,478.7983,0,1,1.319,,0,90,90,31,1,REAL,FAKE,,,,,,,,,,,,,,,,,
,,,,,,,,,61088c529cff73b187d19e6d,Spanish,13 or older,"yes, I am fluent in another language",no,2026-01-21_21h10.58.205,empathy_intonation_perc_control,2024.2.4,MacIntel,121.9512195,61088c529cff73b187d19e6d,69712dc693a3960bdb483245,697187103db7d25b45aa5870,,,,,,,,,,,,,0,,,,,,,,,,,,,,,,,,,,,,,,,,,,,,,,,,,,,4,batillón,,,,,478.8001,480.4906,1,0,1.146,,0,91,91,3,1,REAL,FAKE,,,,,,,,,,,,,,,,,
,,,,,,,,,61088c529cff73b187d19e6d,Spanish,13 or older,"yes, I am fluent in another language",no,2026-01-21_21h10.58.205,empathy_intonation_perc_control,2024.2.4,MacIntel,121.9512195,61088c529cff73b187d19e6d,69712dc693a3960bdb483245,697187103db7d25b45aa5870,,,,,,,,,,,,,,,,,,,,,,,,,,,,,,,,,,,,,,,,,,,,,,,,,,,,,,,,,,,,,,,,,,,,,480.491,485.4912,,,,,,,,,,,,,,,
,,,,,,,,,61088c529cff73b187d19e6d,Spanish,13 or older,"yes, I am fluent in another language",no,2026-01-21_21h10.58.205,empathy_intonation_perc_control,2024.2.4,MacIntel,121.9512195,61088c529cff73b187d19e6d,69712dc693a3960bdb483245,697187103db7d25b45aa5870,,,,,,,,,,,,,,,,,,,,,,,,,,,1,,,,,,,,,,,,,,,,,,,,,,,,,,,,,,,,,,,,,,,,,,,,485.5,491.6239,slightly agree,0,0,0,0,1,I can easily tell if someone else wants to enter a conversation.,1,0,1,0,,
,,,,,,,,,61088c529cff73b187d19e6d,Spanish,13 or older,"yes, I am fluent in another language",no,2026-01-21_21h10.58.205,empathy_intonation_perc_control,2024.2.4,MacIntel,121.9512195,61088c529cff73b187d19e6d,69712dc693a3960bdb483245,697187103db7d25b45aa5870,,,,,,,,,,,,,,,,,,,,,,,,,,,2,,,,,,,,,,,,,,,,,,,,,,,,,,,,,,,,,,,,,,,,,,,,491.625,493.9905,strongly agree,0,1,1,1,1,I prefer animals to humans.,0,1,0,0,,
,,,,,,,,,61088c529cff73b187d19e6d,Spanish,13 or older,"yes, I am fluent in another language",no,2026-01-21_21h10.58.205,empathy_intonation_perc_control,2024.2.4,MacIntel,121.9512195,61088c529cff73b187d19e6d,69712dc693a3960bdb483245,697187103db7d25b45aa5870,,,,,,,,,,,,,,,,,,,,,,,,,,,3,,,,,,,,,,,,,,,,,,,,,,,,,,,,,,,,,,,,,,,,,,,,493.9909,498.2238,slightly agree,0,2,2,2,1,I try to keep up with the current trends and fashions.,0,1,0,0,,
,,,,,,,,,61088c529cff73b187d19e6d,Spanish,13 or older,"yes, I am fluent in another language",no,2026-01-21_21h10.58.205,empathy_intonation_perc_control,2024.2.4,MacIntel,121.9512195,61088c529cff73b187d19e6d,69712dc693a3960bdb483245,697187103db7d25b45aa5870,,,,,,,,,,,,,,,,,,,,,,,,,,,4,,,,,,,,,,,,,,,,,,,,,,,,,,,,,,,,,,,,,,,,,,,,498.2256,510.0403,slightly agree,0,3,3,3,1,"I find it difficult to explain to others things that I understand easily,   when they don't understand it first time.",1,0,0,1,,
,,,,,,,,,61088c529cff73b187d19e6d,Spanish,13 or older,"yes, I am fluent in another language",no,2026-01-21_21h10.58.205,empathy_intonation_perc_control,2024.2.4,MacIntel,121.9512195,61088c529cff73b187d19e6d,69712dc693a3960bdb483245,697187103db7d25b45aa5870,,,,,,,,,,,,,,,,,,,,,,,,,,,5,,,,,,,,,,,,,,,,,,,,,,,,,,,,,,,,,,,,,,,,,,,,510.041,511.9156,strongly agree,0,4,4,4,1,I dream most nights.,0,1,0,0,,
,,,,,,,,,61088c529cff73b187d19e6d,Spanish,13 or older,"yes, I am fluent in another language",no,2026-01-21_21h10.58.205,empathy_intonation_perc_control,2024.2.4,MacIntel,121.9512195,61088c529cff73b187d19e6d,69712dc693a3960bdb483245,697187103db7d25b45aa5870,,,,,,,,,,,,,,,,,,,,,,,,,,,6,,,,,,,,,,,,,,,,,,,,,,,,,,,,,,,,,,,,,,,,,,,,511.9169,513.4736,strongly agree,0,5,5,5,1,I really enjoy caring for other people.,1,0,1,0,,
,,,,,,,,,61088c529cff73b187d19e6d,Spanish,13 or older,"yes, I am fluent in another language",no,2026-01-21_21h10.58.205,empathy_intonation_perc_control,2024.2.4,MacIntel,121.9512195,61088c529cff73b187d19e6d,69712dc693a3960bdb483245,697187103db7d25b45aa5870,,,,,,,,,,,,,,,,,,,,,,,,,,,7,,,,,,,,,,,,,,,,,,,,,,,,,,,,,,,,,,,,,,,,,,,,513.4745,515.1236,strongly agree,0,6,6,6,1,I try to solve my own problems rather than discussing them with others.,0,1,0,0,,
,,,,,,,,,61088c529cff73b187d19e6d,Spanish,13 or older,"yes, I am fluent in another language",no,2026-01-21_21h10.58.205,empathy_intonation_perc_control,2024.2.4,MacIntel,121.9512195,61088c529cff73b187d19e6d,69712dc693a3960bdb483245,697187103db7d25b45aa5870,,,,,,,,,,,,,,,,,,,,,,,,,,,8,,,,,,,,,,,,,,,,,,,,,,,,,,,,,,,,,,,,,,,,,,,,515.1241,518.1072,slightly disagree,0,7,7,7,1,I find it hard to know what to do in a social situation.,1,0,0,1,,
,,,,,,,,,61088c529cff73b187d19e6d,Spanish,13 or older,"yes, I am fluent in another language",no,2026-01-21_21h10.58.205,empathy_intonation_perc_control,2024.2.4,MacIntel,121.9512195,61088c529cff73b187d19e6d,69712dc693a3960bdb483245,697187103db7d25b45aa5870,,,,,,,,,,,,,,,,,,,,,,,,,,,9,,,,,,,,,,,,,,,,,,,,,,,,,,,,,,,,,,,,,,,,,,,,518.108,520.4069,strongly agree,0,8,8,8,1,I am at my best first thing in the morning.,0,1,0,0,,
,,,,,,,,,61088c529cff73b187d19e6d,Spanish,13 or older,"yes, I am fluent in another language",no,2026-01-21_21h10.58.205,empathy_intonation_perc_control,2024.2.4,MacIntel,121.9512195,61088c529cff73b187d19e6d,69712dc693a3960bdb483245,697187103db7d25b45aa5870,,,,,,,,,,,,,,,,,,,,,,,,,,,10,,,,,,,,,,,,,,,,,,,,,,,,,,,,,,,,,,,,,,,,,,,,520.4079,524.0736,slightly agree,0,9,9,9,1,People often tell me that I went too far in driving my point home in a discussion.,1,0,0,1,,
,,,,,,,,,61088c529cff73b187d19e6d,Spanish,13 or older,"yes, I am fluent in another language",no,2026-01-21_21h10.58.205,empathy_intonation_perc_control,2024.2.4,MacIntel,121.9512195,61088c529cff73b187d19e6d,69712dc693a3960bdb483245,697187103db7d25b45aa5870,,,,,,,,,,,,,,,,,,,,,,,,,,,11,,,,,,,,,,,,,,,,,,,,,,,,,,,,,,,,,,,,,,,,,,,,524.0744,527.8153,strongly disagree,0,10,10,10,1,It doesn't bother me too much if I am late meeting a friend.,1,0,0,1,,
,,,,,,,,,61088c529cff73b187d19e6d,Spanish,13 or older,"yes, I am fluent in another language",no,2026-01-21_21h10.58.205,empathy_intonation_perc_control,2024.2.4,MacIntel,121.9512195,61088c529cff73b187d19e6d,69712dc693a3960bdb483245,697187103db7d25b45aa5870,,,,,,,,,,,,,,,,,,,,,,,,,,,12,,,,,,,,,,,,,,,,,,,,,,,,,,,,,,,,,,,,,,,,,,,,527.8161,530.1319,slightly disagree,0,11,11,11,1,"Friendships and relationships are just too difficult, so I tend not to 
  bother with them.",1,0,0,1,,
,,,,,,,,,61088c529cff73b187d19e6d,Spanish,13 or older,"yes, I am fluent in another language",no,2026-01-21_21h10.58.205,empathy_intonation_perc_control,2024.2.4,MacIntel,121.9512195,61088c529cff73b187d19e6d,69712dc693a3960bdb483245,697187103db7d25b45aa5870,,,,,,,,,,,,,,,,,,,,,,,,,,,13,,,,,,,,,,,,,,,,,,,,,,,,,,,,,,,,,,,,,,,,,,,,530.1326,532.6148,slightly disagree,0,12,12,12,1,"I would never break a law, no matter how minor.",0,1,0,0,,
,,,,,,,,,61088c529cff73b187d19e6d,Spanish,13 or older,"yes, I am fluent in another language",no,2026-01-21_21h10.58.205,empathy_intonation_perc_control,2024.2.4,MacIntel,121.9512195,61088c529cff73b187d19e6d,69712dc693a3960bdb483245,697187103db7d25b45aa5870,,,,,,,,,,,,,,,,,,,,,,,,,,,14,,,,,,,,,,,,,,,,,,,,,,,,,,,,,,,,,,,,,,,,,,,,532.6154,537.2069,strongly disagree,0,13,13,13,1,I often find it difficult to judge if something is rude or polite.,1,0,0,1,,
,,,,,,,,,61088c529cff73b187d19e6d,Spanish,13 or older,"yes, I am fluent in another language",no,2026-01-21_21h10.58.205,empathy_intonation_perc_control,2024.2.4,MacIntel,121.9512195,61088c529cff73b187d19e6d,69712dc693a3960bdb483245,697187103db7d25b45aa5870,,,,,,,,,,,,,,,,,,,,,,,,,,,15,,,,,,,,,,,,,,,,,,,,,,,,,,,,,,,,,,,,,,,,,,,,537.2075,541.2901,slightly disagree,0,14,14,14,1,"In a conversation, I tend to focus on my own thoughts rather than on what 
  my listener might be thinking.",1,0,0,1,,
,,,,,,,,,61088c529cff73b187d19e6d,Spanish,13 or older,"yes, I am fluent in another language",no,2026-01-21_21h10.58.205,empathy_intonation_perc_control,2024.2.4,MacIntel,121.9512195,61088c529cff73b187d19e6d,69712dc693a3960bdb483245,697187103db7d25b45aa5870,,,,,,,,,,,,,,,,,,,,,,,,,,,16,,,,,,,,,,,,,,,,,,,,,,,,,,,,,,,,,,,,,,,,,,,,541.2908,544.9068,strongly disagree,0,15,15,15,1,I prefer practical jokes to verbal humor.,0,1,0,0,,
,,,,,,,,,61088c529cff73b187d19e6d,Spanish,13 or older,"yes, I am fluent in another language",no,2026-01-21_21h10.58.205,empathy_intonation_perc_control,2024.2.4,MacIntel,121.9512195,61088c529cff73b187d19e6d,69712dc693a3960bdb483245,697187103db7d25b45aa5870,,,,,,,,,,,,,,,,,,,,,,,,,,,17,,,,,,,,,,,,,,,,,,,,,,,,,,,,,,,,,,,,,,,,,,,,544.9074,547.8902,slightly disagree,0,16,16,16,1,I live life for today rather than the future.,0,1,0,0,,
,,,,,,,,,61088c529cff73b187d19e6d,Spanish,13 or older,"yes, I am fluent in another language",no,2026-01-21_21h10.58.205,empathy_intonation_perc_control,2024.2.4,MacIntel,121.9512195,61088c529cff73b187d19e6d,69712dc693a3960bdb483245,697187103db7d25b45aa5870,,,,,,,,,,,,,,,,,,,,,,,,,,,18,,,,,,,,,,,,,,,,,,,,,,,,,,,,,,,,,,,,,,,,,,,,547.8911,551.0734,strongly disagree,0,17,17,17,1,"When I was a child, I enjoyed cutting up worms to see what would happen.",1,0,0,1,,
,,,,,,,,,61088c529cff73b187d19e6d,Spanish,13 or older,"yes, I am fluent in another language",no,2026-01-21_21h10.58.205,empathy_intonation_perc_control,2024.2.4,MacIntel,121.9512195,61088c529cff73b187d19e6d,69712dc693a3960bdb483245,697187103db7d25b45aa5870,,,,,,,,,,,,,,,,,,,,,,,,,,,19,,,,,,,,,,,,,,,,,,,,,,,,,,,,,,,,,,,,,,,,,,,,551.074,554.0068,strongly agree,0,18,18,18,1,I can pick up quickly if someone says one thing but means another.,1,0,1,0,,
