instructions_2afc.started,instructions_2afc.stopped,instructions_2afc_loop.thisRepN,instructions_2afc_loop.thisTrialN,instructions_2afc_loop.thisN,instructions_2afc_loop.thisIndex,instructions_2afc_loop.ran,instructions_text,continue_text,participant_id,"What variety of Spanish are you most familiar with? (e.g., Peruvian, Spanish, Mexican)",At what age did you begin learning Spanish?,Are you proficient in any languages other than English/Spanish?,"Are you familiar with Caribbean (e.g., Caribbean, Puerto Rican) or Galician Spanish?",date,expName,psychopyVersion,OS,frameRate,id,study_id,session,practice_2afc.started,practice_2afc.stopped,key_resp_2afc_practice.keys,key_resp_2afc_practice.corr,key_resp_2afc_practice.rt,key_resp_2afc_practice.duration,trials_2afc_practice_loop.thisRepN,trials_2afc_practice_loop.thisTrialN,trials_2afc_practice_loop.thisN,trials_2afc_practice_loop.thisIndex,trials_2afc_practice_loop.ran,path,correct_response,check_2afc.started,check_2afc.stopped,trial_2afc.started,trial_2afc.stopped,key_resp_2afc_trial.keys,key_resp_2afc_trial.corr,key_resp_2afc_trial.rt,key_resp_2afc_trial.duration,trials_2afc_loop.thisRepN,trials_2afc_loop.thisTrialN,trials_2afc_loop.thisN,trials_2afc_loop.thisIndex,trials_2afc_loop.ran,item_num,target,variety,instructions_lextale.started,instructions_lextale.stopped,instructions_lextale_loop.thisRepN,instructions_lextale_loop.thisTrialN,instructions_lextale_loop.thisN,instructions_lextale_loop.thisIndex,instructions_lextale_loop.ran,practice_lextale.started,practice_lextale.stopped,key_resp_lextale_practice.keys,key_resp_lextale_practice.corr,key_resp_lextale_practice.rt,key_resp_lextale_practice.duration,practice_feedback_lextale.started,practice_feedback_lextale.stopped,trials_lextale_practice_loop.thisRepN,trials_lextale_practice_loop.thisTrialN,trials_lextale_practice_loop.thisN,trials_lextale_practice_loop.thisIndex,trials_lextale_practice_loop.ran,stim,word,prac_button_real,prac_button_false,check_lextale.started,check_lextale.stopped,trial_lextale.started,trial_lextale.stopped,key_resp_lextale_trial.keys,key_resp_lextale_trial.corr,key_resp_lextale_trial.rt,key_resp_lextale_trial.duration,trials_lextale_loop.thisRepN,trials_lextale_loop.thisTrialN,trials_lextale_loop.thisN,trials_lextale_loop.thisIndex,trials_lextale_loop.ran,button_real,button_false,instructions_eq.started,instructions_eq.stopped,trial_eq.started,trial_eq.stopped,slider_eq_trial.response,trials_eq_loop.thisRepN,trials_eq_loop.thisTrialN,trials_eq_loop.thisN,trials_eq_loop.thisIndex,trials_eq_loop.ran,item,is_test_item,is_distractor,is_agree_score,is_disagree_score,end_exp.started,end_exp.stopped
0.0082,6.3299,0,0,0,0,1,"In the following task you are going to hear a series of utterances. 

  You will decide if the utterances sound like questions or not using your keyboard.", (press the spacebar to continue),61141ef53317a3f90b098b66,spanish,13 or older,"no, only English or Spanish",no,2025-07-24_10h24.37.246,empathy_intonation_perc_control,2024.2.4,MacIntel,59.88023952,61141ef53317a3f90b098b66,68817205a84113384fffdfe3,688241fef4eda33f13a8a307,,,,,,,,,,,,,,,,,,,,,,,,,,,,,,,,,,,,,,,,,,,,,,,,,,,,,,,,,,,,,,,,,,,,,,,,,,,,,,,,,,,,,
6.3302,14.9144,0,1,1,1,1,"If you believe the utterance is a question, type '1' (for 'yes') and if you do not 
  believe it is a question type '0' (for 'no').

  Let's practice a bit...", (press the spacebar to continue),61141ef53317a3f90b098b66,spanish,13 or older,"no, only English or Spanish",no,2025-07-24_10h24.37.246,empathy_intonation_perc_control,2024.2.4,MacIntel,59.88023952,61141ef53317a3f90b098b66,68817205a84113384fffdfe3,688241fef4eda33f13a8a307,,,,,,,,,,,,,,,,,,,,,,,,,,,,,,,,,,,,,,,,,,,,,,,,,,,,,,,,,,,,,,,,,,,,,,,,,,,,,,,,,,,,,
,,,,,,,,,61141ef53317a3f90b098b66,spanish,13 or older,"no, only English or Spanish",no,2025-07-24_10h24.37.246,empathy_intonation_perc_control,2024.2.4,MacIntel,59.88023952,61141ef53317a3f90b098b66,68817205a84113384fffdfe3,688241fef4eda33f13a8a307,14.9194,18.3142,1,1,2.8822,,0,0,0,3,1,./stim/wavs/mexican_question_filler_Felipe-no-tiene-contrasena.wav,1,,,,,,,,,,,,,,,,,,,,,,,,,,,,,,,,,,,,,,,,,,,,,,,,,,,,,,,,,,,,,,,,,,,,,,,,
,,,,,,,,,61141ef53317a3f90b098b66,spanish,13 or older,"no, only English or Spanish",no,2025-07-24_10h24.37.246,empathy_intonation_perc_control,2024.2.4,MacIntel,59.88023952,61141ef53317a3f90b098b66,68817205a84113384fffdfe3,688241fef4eda33f13a8a307,18.3146,21.1475,0,1,2.3317,,0,1,1,5,1,./stim/wavs/andalusian_statement_filler_Alberto-nunca-se-afeita.wav,0,,,,,,,,,,,,,,,,,,,,,,,,,,,,,,,,,,,,,,,,,,,,,,,,,,,,,,,,,,,,,,,,,,,,,,,,
,,,,,,,,,61141ef53317a3f90b098b66,spanish,13 or older,"no, only English or Spanish",no,2025-07-24_10h24.37.246,empathy_intonation_perc_control,2024.2.4,MacIntel,59.88023952,61141ef53317a3f90b098b66,68817205a84113384fffdfe3,688241fef4eda33f13a8a307,21.1479,23.6475,1,1,1.9828,,0,2,2,0,1,./stim/wavs/castilian_question_filler_Mi-esposo-conoce-al-chico.wav,1,,,,,,,,,,,,,,,,,,,,,,,,,,,,,,,,,,,,,,,,,,,,,,,,,,,,,,,,,,,,,,,,,,,,,,,,
,,,,,,,,,61141ef53317a3f90b098b66,spanish,13 or older,"no, only English or Spanish",no,2025-07-24_10h24.37.246,empathy_intonation_perc_control,2024.2.4,MacIntel,59.88023952,61141ef53317a3f90b098b66,68817205a84113384fffdfe3,688241fef4eda33f13a8a307,23.6478,26.448,0,1,2.283,,0,3,3,4,1,./stim/wavs/cuban_statement_filler_Cocinabas-por-la-noche.wav,0,,,,,,,,,,,,,,,,,,,,,,,,,,,,,,,,,,,,,,,,,,,,,,,,,,,,,,,,,,,,,,,,,,,,,,,,
,,,,,,,,,61141ef53317a3f90b098b66,spanish,13 or older,"no, only English or Spanish",no,2025-07-24_10h24.37.246,empathy_intonation_perc_control,2024.2.4,MacIntel,59.88023952,61141ef53317a3f90b098b66,68817205a84113384fffdfe3,688241fef4eda33f13a8a307,26.4482,29.3642,0,1,2.3998,,0,4,4,7,1,./stim/wavs/puertorican_statement_filler_La-nina-pinta-con-su-amiga.wav,0,,,,,,,,,,,,,,,,,,,,,,,,,,,,,,,,,,,,,,,,,,,,,,,,,,,,,,,,,,,,,,,,,,,,,,,,
,,,,,,,,,61141ef53317a3f90b098b66,spanish,13 or older,"no, only English or Spanish",no,2025-07-24_10h24.37.246,empathy_intonation_perc_control,2024.2.4,MacIntel,59.88023952,61141ef53317a3f90b098b66,68817205a84113384fffdfe3,688241fef4eda33f13a8a307,29.3645,32.3639,0,1,2.4822,,0,5,5,6,1,./stim/wavs/peruvian_statement_filler_El-nino-habla-con-su-madre.wav,0,,,,,,,,,,,,,,,,,,,,,,,,,,,,,,,,,,,,,,,,,,,,,,,,,,,,,,,,,,,,,,,,,,,,,,,,
,,,,,,,,,61141ef53317a3f90b098b66,spanish,13 or older,"no, only English or Spanish",no,2025-07-24_10h24.37.246,empathy_intonation_perc_control,2024.2.4,MacIntel,59.88023952,61141ef53317a3f90b098b66,68817205a84113384fffdfe3,688241fef4eda33f13a8a307,32.3643,34.7474,1,1,1.8659,,0,6,6,1,1,./stim/wavs/argentine_question_filler_Mi-vecino-habla-mucho.wav,1,,,,,,,,,,,,,,,,,,,,,,,,,,,,,,,,,,,,,,,,,,,,,,,,,,,,,,,,,,,,,,,,,,,,,,,,
,,,,,,,,,61141ef53317a3f90b098b66,spanish,13 or older,"no, only English or Spanish",no,2025-07-24_10h24.37.246,empathy_intonation_perc_control,2024.2.4,MacIntel,59.88023952,61141ef53317a3f90b098b66,68817205a84113384fffdfe3,688241fef4eda33f13a8a307,34.7477,37.514,0,0,2.2489,,0,7,7,2,1,./stim/wavs/chilean_question_filler_Mi-padre-cantaba-bien.wav,1,,,,,,,,,,,,,,,,,,,,,,,,,,,,,,,,,,,,,,,,,,,,,,,,,,,,,,,,,,,,,,,,,,,,,,,,
,,,,,,,,,61141ef53317a3f90b098b66,spanish,13 or older,"no, only English or Spanish",no,2025-07-24_10h24.37.246,empathy_intonation_perc_control,2024.2.4,MacIntel,59.88023952,61141ef53317a3f90b098b66,68817205a84113384fffdfe3,688241fef4eda33f13a8a307,,,,,,,,,,,,,,37.5141,40.1847,,,,,,,,,,,,,,,,,,,,,,,,,,,,,,,,,,,,,,,,,,,,,,,,,,,,,,,,,,,,,,,,,,,,,,
,,,,,,,,,61141ef53317a3f90b098b66,spanish,13 or older,"no, only English or Spanish",no,2025-07-24_10h24.37.246,empathy_intonation_perc_control,2024.2.4,MacIntel,59.88023952,61141ef53317a3f90b098b66,68817205a84113384fffdfe3,688241fef4eda33f13a8a307,,,,,,,,,,,,./stim/wavs/mexican_match_interrogative-total-yn_Mariano-habla-del-tiempo.wav,1,,,40.189,42.2812,1,1,1.5789,,0,0,0,16,1,17,0,mexican,,,,,,,,,,,,,,,,,,,,,,,,,,,,,,,,,,,,,,,,,,,,,,,,,,,,,,,,
,,,,,,,,,61141ef53317a3f90b098b66,spanish,13 or older,"no, only English or Spanish",no,2025-07-24_10h24.37.246,empathy_intonation_perc_control,2024.2.4,MacIntel,59.88023952,61141ef53317a3f90b098b66,68817205a84113384fffdfe3,688241fef4eda33f13a8a307,,,,,,,,,,,,./stim/wavs/puertorican_match_declarative-broad-focus_Emilio-ama-la-marcha.wav,0,,,42.2815,44.2979,0,1,1.4995,,0,1,1,65,1,66,0,puertorican,,,,,,,,,,,,,,,,,,,,,,,,,,,,,,,,,,,,,,,,,,,,,,,,,,,,,,,,
,,,,,,,,,61141ef53317a3f90b098b66,spanish,13 or older,"no, only English or Spanish",no,2025-07-24_10h24.37.246,empathy_intonation_perc_control,2024.2.4,MacIntel,59.88023952,61141ef53317a3f90b098b66,68817205a84113384fffdfe3,688241fef4eda33f13a8a307,,,,,,,,,,,,./stim/wavs/mexican_match_interrogative-total-yn_David-leia-el-libro.wav,1,,,44.2982,46.6313,1,1,1.8163,,0,2,2,14,1,15,0,mexican,,,,,,,,,,,,,,,,,,,,,,,,,,,,,,,,,,,,,,,,,,,,,,,,,,,,,,,,
,,,,,,,,,61141ef53317a3f90b098b66,spanish,13 or older,"no, only English or Spanish",no,2025-07-24_10h24.37.246,empathy_intonation_perc_control,2024.2.4,MacIntel,59.88023952,61141ef53317a3f90b098b66,68817205a84113384fffdfe3,688241fef4eda33f13a8a307,,,,,,,,,,,,./stim/wavs/castilian_mismatch_interrogative-total-yn_Mi-tia-odia-la-lluvia.wav,1,,,46.6315,49.2146,1,1,2.0664,,0,3,3,28,1,29,0,castilian,,,,,,,,,,,,,,,,,,,,,,,,,,,,,,,,,,,,,,,,,,,,,,,,,,,,,,,,
,,,,,,,,,61141ef53317a3f90b098b66,spanish,13 or older,"no, only English or Spanish",no,2025-07-24_10h24.37.246,empathy_intonation_perc_control,2024.2.4,MacIntel,59.88023952,61141ef53317a3f90b098b66,68817205a84113384fffdfe3,688241fef4eda33f13a8a307,,,,,,,,,,,,./stim/wavs/cuban_mismatch_declarative-broad-focus_Mi-tia-odia-la-lluvia.wav,0,,,49.2149,52.1141,0,1,2.3828,,0,4,4,77,1,78,0,cuban,,,,,,,,,,,,,,,,,,,,,,,,,,,,,,,,,,,,,,,,,,,,,,,,,,,,,,,,
,,,,,,,,,61141ef53317a3f90b098b66,spanish,13 or older,"no, only English or Spanish",no,2025-07-24_10h24.37.246,empathy_intonation_perc_control,2024.2.4,MacIntel,59.88023952,61141ef53317a3f90b098b66,68817205a84113384fffdfe3,688241fef4eda33f13a8a307,,,,,,,,,,,,./stim/wavs/castilian_mismatch_declarative-broad-focus_El-nino-oye-el-rio.wav,0,,,52.1144,54.6316,0,1,2.0165,,0,5,5,68,1,69,0,castilian,,,,,,,,,,,,,,,,,,,,,,,,,,,,,,,,,,,,,,,,,,,,,,,,,,,,,,,,
,,,,,,,,,61141ef53317a3f90b098b66,spanish,13 or older,"no, only English or Spanish",no,2025-07-24_10h24.37.246,empathy_intonation_perc_control,2024.2.4,MacIntel,59.88023952,61141ef53317a3f90b098b66,68817205a84113384fffdfe3,688241fef4eda33f13a8a307,,,,,,,,,,,,./stim/wavs/puertorican_match_declarative-broad-focus_Ana-lleva-el-abrigo.wav,0,,,54.6319,56.6148,0,1,1.4664,,0,6,6,62,1,63,0,puertorican,,,,,,,,,,,,,,,,,,,,,,,,,,,,,,,,,,,,,,,,,,,,,,,,,,,,,,,,
,,,,,,,,,61141ef53317a3f90b098b66,spanish,13 or older,"no, only English or Spanish",no,2025-07-24_10h24.37.246,empathy_intonation_perc_control,2024.2.4,MacIntel,59.88023952,61141ef53317a3f90b098b66,68817205a84113384fffdfe3,688241fef4eda33f13a8a307,,,,,,,,,,,,./stim/wavs/cuban_mismatch_declarative-broad-focus_La-nina-lava-el-plato.wav,0,,,56.6151,58.7314,0,1,1.5997,,0,7,7,75,1,76,0,cuban,,,,,,,,,,,,,,,,,,,,,,,,,,,,,,,,,,,,,,,,,,,,,,,,,,,,,,,,
,,,,,,,,,61141ef53317a3f90b098b66,spanish,13 or older,"no, only English or Spanish",no,2025-07-24_10h24.37.246,empathy_intonation_perc_control,2024.2.4,MacIntel,59.88023952,61141ef53317a3f90b098b66,68817205a84113384fffdfe3,688241fef4eda33f13a8a307,,,,,,,,,,,,./stim/wavs/mexican_match_declarative-broad-focus_David-leia-el-libro.wav,0,,,58.7318,60.7979,0,1,1.5654,,0,8,8,58,1,59,0,mexican,,,,,,,,,,,,,,,,,,,,,,,,,,,,,,,,,,,,,,,,,,,,,,,,,,,,,,,,
,,,,,,,,,61141ef53317a3f90b098b66,spanish,13 or older,"no, only English or Spanish",no,2025-07-24_10h24.37.246,empathy_intonation_perc_control,2024.2.4,MacIntel,59.88023952,61141ef53317a3f90b098b66,68817205a84113384fffdfe3,688241fef4eda33f13a8a307,,,,,,,,,,,,./stim/wavs/castilian_match_declarative-broad-focus_Marta-abre-el-regalo.wav,0,,,60.7981,63.0645,0,1,1.7494,,0,9,9,49,1,50,0,castilian,,,,,,,,,,,,,,,,,,,,,,,,,,,,,,,,,,,,,,,,,,,,,,,,,,,,,,,,
,,,,,,,,,61141ef53317a3f90b098b66,spanish,13 or older,"no, only English or Spanish",no,2025-07-24_10h24.37.246,empathy_intonation_perc_control,2024.2.4,MacIntel,59.88023952,61141ef53317a3f90b098b66,68817205a84113384fffdfe3,688241fef4eda33f13a8a307,,,,,,,,,,,,./stim/wavs/puertorican_mismatch_interrogative-total-yn_La-nina-lava-el-plato.wav,1,,,63.0647,65.1482,0,0,1.5666,,0,10,10,42,1,43,1,puertorican,,,,,,,,,,,,,,,,,,,,,,,,,,,,,,,,,,,,,,,,,,,,,,,,,,,,,,,,
,,,,,,,,,61141ef53317a3f90b098b66,spanish,13 or older,"no, only English or Spanish",no,2025-07-24_10h24.37.246,empathy_intonation_perc_control,2024.2.4,MacIntel,59.88023952,61141ef53317a3f90b098b66,68817205a84113384fffdfe3,688241fef4eda33f13a8a307,,,,,,,,,,,,./stim/wavs/castilian_match_interrogative-total-yn_Emilio-ama-la-marcha.wav,1,,,65.1484,67.4147,1,1,1.7639,,0,11,11,1,1,2,0,castilian,,,,,,,,,,,,,,,,,,,,,,,,,,,,,,,,,,,,,,,,,,,,,,,,,,,,,,,,
,,,,,,,,,61141ef53317a3f90b098b66,spanish,13 or older,"no, only English or Spanish",no,2025-07-24_10h24.37.246,empathy_intonation_perc_control,2024.2.4,MacIntel,59.88023952,61141ef53317a3f90b098b66,68817205a84113384fffdfe3,688241fef4eda33f13a8a307,,,,,,,,,,,,./stim/wavs/puertorican_match_interrogative-total-yn_Emilio-ama-la-marcha.wav,1,,,67.415,70.0983,1,1,2.1665,,0,12,12,21,1,22,1,puertorican,,,,,,,,,,,,,,,,,,,,,,,,,,,,,,,,,,,,,,,,,,,,,,,,,,,,,,,,
,,,,,,,,,61141ef53317a3f90b098b66,spanish,13 or older,"no, only English or Spanish",no,2025-07-24_10h24.37.246,empathy_intonation_perc_control,2024.2.4,MacIntel,59.88023952,61141ef53317a3f90b098b66,68817205a84113384fffdfe3,688241fef4eda33f13a8a307,,,,,,,,,,,,./stim/wavs/puertorican_mismatch_declarative-broad-focus_El-nino-oye-el-rio.wav,0,,,70.0986,72.2976,0,1,1.6824,,0,13,13,85,1,86,0,puertorican,,,,,,,,,,,,,,,,,,,,,,,,,,,,,,,,,,,,,,,,,,,,,,,,,,,,,,,,
,,,,,,,,,61141ef53317a3f90b098b66,spanish,13 or older,"no, only English or Spanish",no,2025-07-24_10h24.37.246,empathy_intonation_perc_control,2024.2.4,MacIntel,59.88023952,61141ef53317a3f90b098b66,68817205a84113384fffdfe3,688241fef4eda33f13a8a307,,,,,,,,,,,,./stim/wavs/mexican_mismatch_declarative-broad-focus_El-hombre-mira-la-luna.wav,0,,,72.2979,74.5312,0,1,1.7161,,0,14,14,79,1,80,0,mexican,,,,,,,,,,,,,,,,,,,,,,,,,,,,,,,,,,,,,,,,,,,,,,,,,,,,,,,,
,,,,,,,,,61141ef53317a3f90b098b66,spanish,13 or older,"no, only English or Spanish",no,2025-07-24_10h24.37.246,empathy_intonation_perc_control,2024.2.4,MacIntel,59.88023952,61141ef53317a3f90b098b66,68817205a84113384fffdfe3,688241fef4eda33f13a8a307,,,,,,,,,,,,./stim/wavs/puertorican_mismatch_declarative-broad-focus_El-bebe-comia-muy-bien.wav,0,,,74.5315,76.5481,0,1,1.4997,,0,15,15,83,1,84,0,puertorican,,,,,,,,,,,,,,,,,,,,,,,,,,,,,,,,,,,,,,,,,,,,,,,,,,,,,,,,
,,,,,,,,,61141ef53317a3f90b098b66,spanish,13 or older,"no, only English or Spanish",no,2025-07-24_10h24.37.246,empathy_intonation_perc_control,2024.2.4,MacIntel,59.88023952,61141ef53317a3f90b098b66,68817205a84113384fffdfe3,688241fef4eda33f13a8a307,,,,,,,,,,,,./stim/wavs/cuban_mismatch_interrogative-total-yn_El-nino-oye-el-rio.wav,1,,,76.5483,78.4813,0,0,1.4161,,0,16,16,30,1,31,1,cuban,,,,,,,,,,,,,,,,,,,,,,,,,,,,,,,,,,,,,,,,,,,,,,,,,,,,,,,,
,,,,,,,,,61141ef53317a3f90b098b66,spanish,13 or older,"no, only English or Spanish",no,2025-07-24_10h24.37.246,empathy_intonation_perc_control,2024.2.4,MacIntel,59.88023952,61141ef53317a3f90b098b66,68817205a84113384fffdfe3,688241fef4eda33f13a8a307,,,,,,,,,,,,./stim/wavs/puertorican_match_interrogative-total-yn_Maria-bebe-el-vino.wav,1,,,78.4816,81.0317,0,0,2.0331,,0,17,17,23,1,24,1,puertorican,,,,,,,,,,,,,,,,,,,,,,,,,,,,,,,,,,,,,,,,,,,,,,,,,,,,,,,,
,,,,,,,,,61141ef53317a3f90b098b66,spanish,13 or older,"no, only English or Spanish",no,2025-07-24_10h24.37.246,empathy_intonation_perc_control,2024.2.4,MacIntel,59.88023952,61141ef53317a3f90b098b66,68817205a84113384fffdfe3,688241fef4eda33f13a8a307,,,,,,,,,,,,./stim/wavs/cuban_mismatch_interrogative-total-yn_Mi-madre-come-la-fruta.wav,1,,,81.032,83.348,0,0,1.7996,,0,18,18,31,1,32,1,cuban,,,,,,,,,,,,,,,,,,,,,,,,,,,,,,,,,,,,,,,,,,,,,,,,,,,,,,,,
,,,,,,,,,61141ef53317a3f90b098b66,spanish,13 or older,"no, only English or Spanish",no,2025-07-24_10h24.37.246,empathy_intonation_perc_control,2024.2.4,MacIntel,59.88023952,61141ef53317a3f90b098b66,68817205a84113384fffdfe3,688241fef4eda33f13a8a307,,,,,,,,,,,,./stim/wavs/castilian_match_interrogative-total-yn_David-leia-el-libro.wav,1,,,83.3484,85.4483,1,1,1.583,,0,19,19,0,1,1,0,castilian,,,,,,,,,,,,,,,,,,,,,,,,,,,,,,,,,,,,,,,,,,,,,,,,,,,,,,,,
,,,,,,,,,61141ef53317a3f90b098b66,spanish,13 or older,"no, only English or Spanish",no,2025-07-24_10h24.37.246,empathy_intonation_perc_control,2024.2.4,MacIntel,59.88023952,61141ef53317a3f90b098b66,68817205a84113384fffdfe3,688241fef4eda33f13a8a307,,,,,,,,,,,,./stim/wavs/mexican_mismatch_declarative-broad-focus_La-maestra-vive-en-Paris.wav,0,,,85.4485,87.948,0,1,1.9832,,0,20,20,80,1,81,0,mexican,,,,,,,,,,,,,,,,,,,,,,,,,,,,,,,,,,,,,,,,,,,,,,,,,,,,,,,,
,,,,,,,,,61141ef53317a3f90b098b66,spanish,13 or older,"no, only English or Spanish",no,2025-07-24_10h24.37.246,empathy_intonation_perc_control,2024.2.4,MacIntel,59.88023952,61141ef53317a3f90b098b66,68817205a84113384fffdfe3,688241fef4eda33f13a8a307,,,,,,,,,,,,./stim/wavs/mexican_mismatch_declarative-broad-focus_Mi-novio-viene-del-lago.wav,0,,,87.9483,89.8985,0,1,1.4332,,0,21,21,81,1,82,0,mexican,,,,,,,,,,,,,,,,,,,,,,,,,,,,,,,,,,,,,,,,,,,,,,,,,,,,,,,,
,,,,,,,,,61141ef53317a3f90b098b66,spanish,13 or older,"no, only English or Spanish",no,2025-07-24_10h24.37.246,empathy_intonation_perc_control,2024.2.4,MacIntel,59.88023952,61141ef53317a3f90b098b66,68817205a84113384fffdfe3,688241fef4eda33f13a8a307,,,,,,,,,,,,./stim/wavs/cuban_match_declarative-broad-focus_Maria-bebe-el-vino.wav,0,,,89.8988,92.0648,0,1,1.6495,,0,22,22,53,1,54,0,cuban,,,,,,,,,,,,,,,,,,,,,,,,,,,,,,,,,,,,,,,,,,,,,,,,,,,,,,,,
,,,,,,,,,61141ef53317a3f90b098b66,spanish,13 or older,"no, only English or Spanish",no,2025-07-24_10h24.37.246,empathy_intonation_perc_control,2024.2.4,MacIntel,59.88023952,61141ef53317a3f90b098b66,68817205a84113384fffdfe3,688241fef4eda33f13a8a307,,,,,,,,,,,,./stim/wavs/cuban_match_declarative-broad-focus_Daniel-iba-a-Bolivia.wav,0,,,92.0651,94.3814,0,1,1.7995,,0,23,23,51,1,52,0,cuban,,,,,,,,,,,,,,,,,,,,,,,,,,,,,,,,,,,,,,,,,,,,,,,,,,,,,,,,
,,,,,,,,,61141ef53317a3f90b098b66,spanish,13 or older,"no, only English or Spanish",no,2025-07-24_10h24.37.246,empathy_intonation_perc_control,2024.2.4,MacIntel,59.88023952,61141ef53317a3f90b098b66,68817205a84113384fffdfe3,688241fef4eda33f13a8a307,,,,,,,,,,,,./stim/wavs/puertorican_match_interrogative-total-yn_Daniel-iba-a-Bolivia.wav,1,,,94.3817,96.3818,0,0,1.484,,0,24,24,19,1,20,1,puertorican,,,,,,,,,,,,,,,,,,,,,,,,,,,,,,,,,,,,,,,,,,,,,,,,,,,,,,,,
,,,,,,,,,61141ef53317a3f90b098b66,spanish,13 or older,"no, only English or Spanish",no,2025-07-24_10h24.37.246,empathy_intonation_perc_control,2024.2.4,MacIntel,59.88023952,61141ef53317a3f90b098b66,68817205a84113384fffdfe3,688241fef4eda33f13a8a307,,,,,,,,,,,,./stim/wavs/cuban_match_interrogative-total-yn_Mariano-habla-del-tiempo.wav,1,,,96.3822,98.6648,0,0,1.7661,,0,25,25,10,1,11,1,cuban,,,,,,,,,,,,,,,,,,,,,,,,,,,,,,,,,,,,,,,,,,,,,,,,,,,,,,,,
,,,,,,,,,61141ef53317a3f90b098b66,spanish,13 or older,"no, only English or Spanish",no,2025-07-24_10h24.37.246,empathy_intonation_perc_control,2024.2.4,MacIntel,59.88023952,61141ef53317a3f90b098b66,68817205a84113384fffdfe3,688241fef4eda33f13a8a307,,,,,,,,,,,,./stim/wavs/mexican_match_declarative-broad-focus_Daniel-iba-a-Bolivia.wav,0,,,98.6651,100.6486,0,1,1.4668,,0,26,26,57,1,58,0,mexican,,,,,,,,,,,,,,,,,,,,,,,,,,,,,,,,,,,,,,,,,,,,,,,,,,,,,,,,
,,,,,,,,,61141ef53317a3f90b098b66,spanish,13 or older,"no, only English or Spanish",no,2025-07-24_10h24.37.246,empathy_intonation_perc_control,2024.2.4,MacIntel,59.88023952,61141ef53317a3f90b098b66,68817205a84113384fffdfe3,688241fef4eda33f13a8a307,,,,,,,,,,,,./stim/wavs/castilian_match_declarative-broad-focus_Manuela-vende-el-carro.wav,0,,,100.6488,102.9983,0,1,1.8331,,0,27,27,46,1,47,0,castilian,,,,,,,,,,,,,,,,,,,,,,,,,,,,,,,,,,,,,,,,,,,,,,,,,,,,,,,,
,,,,,,,,,61141ef53317a3f90b098b66,spanish,13 or older,"no, only English or Spanish",no,2025-07-24_10h24.37.246,empathy_intonation_perc_control,2024.2.4,MacIntel,59.88023952,61141ef53317a3f90b098b66,68817205a84113384fffdfe3,688241fef4eda33f13a8a307,,,,,,,,,,,,./stim/wavs/mexican_mismatch_interrogative-total-yn_El-nino-oye-el-rio.wav,1,,,102.9986,105.6194,1,1,2.1187,,0,28,28,35,1,36,0,mexican,,,,,,,,,,,,,,,,,,,,,,,,,,,,,,,,,,,,,,,,,,,,,,,,,,,,,,,,
,,,,,,,,,61141ef53317a3f90b098b66,spanish,13 or older,"no, only English or Spanish",no,2025-07-24_10h24.37.246,empathy_intonation_perc_control,2024.2.4,MacIntel,59.88023952,61141ef53317a3f90b098b66,68817205a84113384fffdfe3,688241fef4eda33f13a8a307,,,,,,,,,,,,./stim/wavs/puertorican_mismatch_interrogative-total-yn_El-nino-oye-el-rio.wav,1,,,105.6195,108.0527,1,1,1.9166,,0,29,29,40,1,41,1,puertorican,,,,,,,,,,,,,,,,,,,,,,,,,,,,,,,,,,,,,,,,,,,,,,,,,,,,,,,,
,,,,,,,,,61141ef53317a3f90b098b66,spanish,13 or older,"no, only English or Spanish",no,2025-07-24_10h24.37.246,empathy_intonation_perc_control,2024.2.4,MacIntel,59.88023952,61141ef53317a3f90b098b66,68817205a84113384fffdfe3,688241fef4eda33f13a8a307,,,,,,,,,,,,./stim/wavs/puertorican_match_declarative-broad-focus_Manuela-vende-el-carro.wav,0,,,108.0529,110.603,0,1,2.0334,,0,30,30,66,1,67,0,puertorican,,,,,,,,,,,,,,,,,,,,,,,,,,,,,,,,,,,,,,,,,,,,,,,,,,,,,,,,
,,,,,,,,,61141ef53317a3f90b098b66,spanish,13 or older,"no, only English or Spanish",no,2025-07-24_10h24.37.246,empathy_intonation_perc_control,2024.2.4,MacIntel,59.88023952,61141ef53317a3f90b098b66,68817205a84113384fffdfe3,688241fef4eda33f13a8a307,,,,,,,,,,,,./stim/wavs/mexican_match_declarative-broad-focus_Ana-lleva-el-abrigo.wav,0,,,110.6032,112.9031,0,1,1.7834,,0,31,31,56,1,57,0,mexican,,,,,,,,,,,,,,,,,,,,,,,,,,,,,,,,,,,,,,,,,,,,,,,,,,,,,,,,
,,,,,,,,,61141ef53317a3f90b098b66,spanish,13 or older,"no, only English or Spanish",no,2025-07-24_10h24.37.246,empathy_intonation_perc_control,2024.2.4,MacIntel,59.88023952,61141ef53317a3f90b098b66,68817205a84113384fffdfe3,688241fef4eda33f13a8a307,,,,,,,,,,,,./stim/wavs/cuban_mismatch_declarative-broad-focus_El-bebe-comia-muy-bien.wav,0,,,112.9033,114.9354,0,1,1.5165,,0,32,32,73,1,74,0,cuban,,,,,,,,,,,,,,,,,,,,,,,,,,,,,,,,,,,,,,,,,,,,,,,,,,,,,,,,
,,,,,,,,,61141ef53317a3f90b098b66,spanish,13 or older,"no, only English or Spanish",no,2025-07-24_10h24.37.246,empathy_intonation_perc_control,2024.2.4,MacIntel,59.88023952,61141ef53317a3f90b098b66,68817205a84113384fffdfe3,688241fef4eda33f13a8a307,,,,,,,,,,,,./stim/wavs/cuban_match_declarative-broad-focus_Ana-lleva-el-abrigo.wav,0,,,114.9356,116.9856,0,1,1.5335,,0,33,33,50,1,51,0,cuban,,,,,,,,,,,,,,,,,,,,,,,,,,,,,,,,,,,,,,,,,,,,,,,,,,,,,,,,
,,,,,,,,,61141ef53317a3f90b098b66,spanish,13 or older,"no, only English or Spanish",no,2025-07-24_10h24.37.246,empathy_intonation_perc_control,2024.2.4,MacIntel,59.88023952,61141ef53317a3f90b098b66,68817205a84113384fffdfe3,688241fef4eda33f13a8a307,,,,,,,,,,,,./stim/wavs/castilian_match_interrogative-total-yn_Manuela-vende-el-carro.wav,1,,,116.9858,119.9032,1,1,2.401,,0,34,34,2,1,3,0,castilian,,,,,,,,,,,,,,,,,,,,,,,,,,,,,,,,,,,,,,,,,,,,,,,,,,,,,,,,
,,,,,,,,,61141ef53317a3f90b098b66,spanish,13 or older,"no, only English or Spanish",no,2025-07-24_10h24.37.246,empathy_intonation_perc_control,2024.2.4,MacIntel,59.88023952,61141ef53317a3f90b098b66,68817205a84113384fffdfe3,688241fef4eda33f13a8a307,,,,,,,,,,,,./stim/wavs/mexican_match_declarative-broad-focus_Emilio-ama-la-marcha.wav,0,,,119.9033,122.2029,0,1,1.7832,,0,35,35,59,1,60,0,mexican,,,,,,,,,,,,,,,,,,,,,,,,,,,,,,,,,,,,,,,,,,,,,,,,,,,,,,,,
,,,,,,,,,61141ef53317a3f90b098b66,spanish,13 or older,"no, only English or Spanish",no,2025-07-24_10h24.37.246,empathy_intonation_perc_control,2024.2.4,MacIntel,59.88023952,61141ef53317a3f90b098b66,68817205a84113384fffdfe3,688241fef4eda33f13a8a307,,,,,,,,,,,,./stim/wavs/cuban_mismatch_declarative-broad-focus_El-hombre-mira-la-luna.wav,0,,,122.203,124.2867,0,1,1.5669,,0,36,36,74,1,75,0,cuban,,,,,,,,,,,,,,,,,,,,,,,,,,,,,,,,,,,,,,,,,,,,,,,,,,,,,,,,
,,,,,,,,,61141ef53317a3f90b098b66,spanish,13 or older,"no, only English or Spanish",no,2025-07-24_10h24.37.246,empathy_intonation_perc_control,2024.2.4,MacIntel,59.88023952,61141ef53317a3f90b098b66,68817205a84113384fffdfe3,688241fef4eda33f13a8a307,,,,,,,,,,,,./stim/wavs/cuban_mismatch_declarative-broad-focus_Mi-novio-viene-del-lago.wav,0,,,124.287,126.4031,0,1,1.5997,,0,37,37,76,1,77,0,cuban,,,,,,,,,,,,,,,,,,,,,,,,,,,,,,,,,,,,,,,,,,,,,,,,,,,,,,,,
,,,,,,,,,61141ef53317a3f90b098b66,spanish,13 or older,"no, only English or Spanish",no,2025-07-24_10h24.37.246,empathy_intonation_perc_control,2024.2.4,MacIntel,59.88023952,61141ef53317a3f90b098b66,68817205a84113384fffdfe3,688241fef4eda33f13a8a307,,,,,,,,,,,,./stim/wavs/mexican_mismatch_interrogative-total-yn_Mi-novio-viene-del-lago.wav,1,,,126.4033,128.7031,1,1,1.7833,,0,38,38,37,1,38,0,mexican,,,,,,,,,,,,,,,,,,,,,,,,,,,,,,,,,,,,,,,,,,,,,,,,,,,,,,,,
,,,,,,,,,61141ef53317a3f90b098b66,spanish,13 or older,"no, only English or Spanish",no,2025-07-24_10h24.37.246,empathy_intonation_perc_control,2024.2.4,MacIntel,59.88023952,61141ef53317a3f90b098b66,68817205a84113384fffdfe3,688241fef4eda33f13a8a307,,,,,,,,,,,,./stim/wavs/puertorican_match_declarative-broad-focus_David-leia-el-libro.wav,0,,,128.7034,131.0198,0,1,1.8001,,0,39,39,64,1,65,0,puertorican,,,,,,,,,,,,,,,,,,,,,,,,,,,,,,,,,,,,,,,,,,,,,,,,,,,,,,,,
,,,,,,,,,61141ef53317a3f90b098b66,spanish,13 or older,"no, only English or Spanish",no,2025-07-24_10h24.37.246,empathy_intonation_perc_control,2024.2.4,MacIntel,59.88023952,61141ef53317a3f90b098b66,68817205a84113384fffdfe3,688241fef4eda33f13a8a307,,,,,,,,,,,,./stim/wavs/puertorican_mismatch_declarative-broad-focus_La-maestra-vive-en-Paris.wav,0,,,131.02,133.3032,0,1,1.7665,,0,40,40,86,1,87,0,puertorican,,,,,,,,,,,,,,,,,,,,,,,,,,,,,,,,,,,,,,,,,,,,,,,,,,,,,,,,
,,,,,,,,,61141ef53317a3f90b098b66,spanish,13 or older,"no, only English or Spanish",no,2025-07-24_10h24.37.246,empathy_intonation_perc_control,2024.2.4,MacIntel,59.88023952,61141ef53317a3f90b098b66,68817205a84113384fffdfe3,688241fef4eda33f13a8a307,,,,,,,,,,,,./stim/wavs/castilian_mismatch_interrogative-total-yn_La-nina-lava-el-plato.wav,1,,,133.3033,135.6699,1,1,1.8499,,0,41,41,25,1,26,0,castilian,,,,,,,,,,,,,,,,,,,,,,,,,,,,,,,,,,,,,,,,,,,,,,,,,,,,,,,,
,,,,,,,,,61141ef53317a3f90b098b66,spanish,13 or older,"no, only English or Spanish",no,2025-07-24_10h24.37.246,empathy_intonation_perc_control,2024.2.4,MacIntel,59.88023952,61141ef53317a3f90b098b66,68817205a84113384fffdfe3,688241fef4eda33f13a8a307,,,,,,,,,,,,./stim/wavs/castilian_mismatch_interrogative-total-yn_Mi-novio-viene-del-lago.wav,1,,,135.6701,137.9028,1,1,1.7164,,0,42,42,27,1,28,0,castilian,,,,,,,,,,,,,,,,,,,,,,,,,,,,,,,,,,,,,,,,,,,,,,,,,,,,,,,,
,,,,,,,,,61141ef53317a3f90b098b66,spanish,13 or older,"no, only English or Spanish",no,2025-07-24_10h24.37.246,empathy_intonation_perc_control,2024.2.4,MacIntel,59.88023952,61141ef53317a3f90b098b66,68817205a84113384fffdfe3,688241fef4eda33f13a8a307,,,,,,,,,,,,./stim/wavs/cuban_match_declarative-broad-focus_Manuela-vende-el-carro.wav,0,,,137.903,140.0865,0,1,1.6671,,0,43,43,52,1,53,0,cuban,,,,,,,,,,,,,,,,,,,,,,,,,,,,,,,,,,,,,,,,,,,,,,,,,,,,,,,,
,,,,,,,,,61141ef53317a3f90b098b66,spanish,13 or older,"no, only English or Spanish",no,2025-07-24_10h24.37.246,empathy_intonation_perc_control,2024.2.4,MacIntel,59.88023952,61141ef53317a3f90b098b66,68817205a84113384fffdfe3,688241fef4eda33f13a8a307,,,,,,,,,,,,./stim/wavs/castilian_match_interrogative-total-yn_Mariano-habla-del-tiempo.wav,1,,,140.0866,142.3031,1,1,1.6999,,0,44,44,4,1,5,0,castilian,,,,,,,,,,,,,,,,,,,,,,,,,,,,,,,,,,,,,,,,,,,,,,,,,,,,,,,,
,,,,,,,,,61141ef53317a3f90b098b66,spanish,13 or older,"no, only English or Spanish",no,2025-07-24_10h24.37.246,empathy_intonation_perc_control,2024.2.4,MacIntel,59.88023952,61141ef53317a3f90b098b66,68817205a84113384fffdfe3,688241fef4eda33f13a8a307,,,,,,,,,,,,./stim/wavs/cuban_match_interrogative-total-yn_Ana-lleva-el-abrigo.wav,1,,,142.3033,144.3032,0,0,1.4834,,0,45,45,6,1,7,1,cuban,,,,,,,,,,,,,,,,,,,,,,,,,,,,,,,,,,,,,,,,,,,,,,,,,,,,,,,,
,,,,,,,,,61141ef53317a3f90b098b66,spanish,13 or older,"no, only English or Spanish",no,2025-07-24_10h24.37.246,empathy_intonation_perc_control,2024.2.4,MacIntel,59.88023952,61141ef53317a3f90b098b66,68817205a84113384fffdfe3,688241fef4eda33f13a8a307,,,,,,,,,,,,./stim/wavs/mexican_match_interrogative-total-yn_Emilio-ama-la-marcha.wav,1,,,144.3034,146.2699,1,1,1.4504,,0,46,46,15,1,16,0,mexican,,,,,,,,,,,,,,,,,,,,,,,,,,,,,,,,,,,,,,,,,,,,,,,,,,,,,,,,
,,,,,,,,,61141ef53317a3f90b098b66,spanish,13 or older,"no, only English or Spanish",no,2025-07-24_10h24.37.246,empathy_intonation_perc_control,2024.2.4,MacIntel,59.88023952,61141ef53317a3f90b098b66,68817205a84113384fffdfe3,688241fef4eda33f13a8a307,,,,,,,,,,,,./stim/wavs/mexican_mismatch_interrogative-total-yn_Mi-tia-odia-la-lluvia.wav,1,,,146.2701,148.153,1,1,1.3663,,0,47,47,38,1,39,0,mexican,,,,,,,,,,,,,,,,,,,,,,,,,,,,,,,,,,,,,,,,,,,,,,,,,,,,,,,,
,,,,,,,,,61141ef53317a3f90b098b66,spanish,13 or older,"no, only English or Spanish",no,2025-07-24_10h24.37.246,empathy_intonation_perc_control,2024.2.4,MacIntel,59.88023952,61141ef53317a3f90b098b66,68817205a84113384fffdfe3,688241fef4eda33f13a8a307,,,,,,,,,,,,./stim/wavs/cuban_mismatch_interrogative-total-yn_Mi-tia-odia-la-lluvia.wav,1,,,148.1532,150.5699,1,1,1.9007,,0,48,48,33,1,34,1,cuban,,,,,,,,,,,,,,,,,,,,,,,,,,,,,,,,,,,,,,,,,,,,,,,,,,,,,,,,
,,,,,,,,,61141ef53317a3f90b098b66,spanish,13 or older,"no, only English or Spanish",no,2025-07-24_10h24.37.246,empathy_intonation_perc_control,2024.2.4,MacIntel,59.88023952,61141ef53317a3f90b098b66,68817205a84113384fffdfe3,688241fef4eda33f13a8a307,,,,,,,,,,,,./stim/wavs/puertorican_match_interrogative-total-yn_Manuela-vende-el-carro.wav,1,,,150.5701,152.9366,0,0,1.8503,,0,49,49,22,1,23,1,puertorican,,,,,,,,,,,,,,,,,,,,,,,,,,,,,,,,,,,,,,,,,,,,,,,,,,,,,,,,
,,,,,,,,,61141ef53317a3f90b098b66,spanish,13 or older,"no, only English or Spanish",no,2025-07-24_10h24.37.246,empathy_intonation_perc_control,2024.2.4,MacIntel,59.88023952,61141ef53317a3f90b098b66,68817205a84113384fffdfe3,688241fef4eda33f13a8a307,,,,,,,,,,,,./stim/wavs/castilian_mismatch_declarative-broad-focus_Mi-novio-viene-del-lago.wav,0,,,152.9368,155.1198,1,0,1.6671,,0,50,50,71,1,72,0,castilian,,,,,,,,,,,,,,,,,,,,,,,,,,,,,,,,,,,,,,,,,,,,,,,,,,,,,,,,
,,,,,,,,,61141ef53317a3f90b098b66,spanish,13 or older,"no, only English or Spanish",no,2025-07-24_10h24.37.246,empathy_intonation_perc_control,2024.2.4,MacIntel,59.88023952,61141ef53317a3f90b098b66,68817205a84113384fffdfe3,688241fef4eda33f13a8a307,,,,,,,,,,,,./stim/wavs/cuban_match_interrogative-total-yn_Marta-abre-el-regalo.wav,1,,,155.1199,157.2864,0,0,1.6497,,0,51,51,11,1,12,1,cuban,,,,,,,,,,,,,,,,,,,,,,,,,,,,,,,,,,,,,,,,,,,,,,,,,,,,,,,,
,,,,,,,,,61141ef53317a3f90b098b66,spanish,13 or older,"no, only English or Spanish",no,2025-07-24_10h24.37.246,empathy_intonation_perc_control,2024.2.4,MacIntel,59.88023952,61141ef53317a3f90b098b66,68817205a84113384fffdfe3,688241fef4eda33f13a8a307,,,,,,,,,,,,./stim/wavs/mexican_match_interrogative-total-yn_Daniel-iba-a-Bolivia.wav,1,,,157.2866,160.003,1,1,2.1996,,0,52,52,13,1,14,0,mexican,,,,,,,,,,,,,,,,,,,,,,,,,,,,,,,,,,,,,,,,,,,,,,,,,,,,,,,,
,,,,,,,,,61141ef53317a3f90b098b66,spanish,13 or older,"no, only English or Spanish",no,2025-07-24_10h24.37.246,empathy_intonation_perc_control,2024.2.4,MacIntel,59.88023952,61141ef53317a3f90b098b66,68817205a84113384fffdfe3,688241fef4eda33f13a8a307,,,,,,,,,,,,./stim/wavs/castilian_mismatch_declarative-broad-focus_La-nina-lava-el-plato.wav,0,,,160.0033,162.5197,0,1,1.9998,,0,53,53,70,1,71,0,castilian,,,,,,,,,,,,,,,,,,,,,,,,,,,,,,,,,,,,,,,,,,,,,,,,,,,,,,,,
,,,,,,,,,61141ef53317a3f90b098b66,spanish,13 or older,"no, only English or Spanish",no,2025-07-24_10h24.37.246,empathy_intonation_perc_control,2024.2.4,MacIntel,59.88023952,61141ef53317a3f90b098b66,68817205a84113384fffdfe3,688241fef4eda33f13a8a307,,,,,,,,,,,,./stim/wavs/mexican_mismatch_interrogative-total-yn_El-hombre-mira-la-luna.wav,1,,,162.5199,165.0032,1,1,1.9824,,0,54,54,34,1,35,0,mexican,,,,,,,,,,,,,,,,,,,,,,,,,,,,,,,,,,,,,,,,,,,,,,,,,,,,,,,,
,,,,,,,,,61141ef53317a3f90b098b66,spanish,13 or older,"no, only English or Spanish",no,2025-07-24_10h24.37.246,empathy_intonation_perc_control,2024.2.4,MacIntel,59.88023952,61141ef53317a3f90b098b66,68817205a84113384fffdfe3,688241fef4eda33f13a8a307,,,,,,,,,,,,./stim/wavs/castilian_match_declarative-broad-focus_Maria-bebe-el-vino.wav,0,,,165.0033,167.4533,0,1,1.9333,,0,55,55,47,1,48,0,castilian,,,,,,,,,,,,,,,,,,,,,,,,,,,,,,,,,,,,,,,,,,,,,,,,,,,,,,,,
,,,,,,,,,61141ef53317a3f90b098b66,spanish,13 or older,"no, only English or Spanish",no,2025-07-24_10h24.37.246,empathy_intonation_perc_control,2024.2.4,MacIntel,59.88023952,61141ef53317a3f90b098b66,68817205a84113384fffdfe3,688241fef4eda33f13a8a307,,,,,,,,,,,,./stim/wavs/puertorican_mismatch_declarative-broad-focus_La-nina-lava-el-plato.wav,0,,,167.4534,169.6194,0,1,1.6495,,0,56,56,87,1,88,0,puertorican,,,,,,,,,,,,,,,,,,,,,,,,,,,,,,,,,,,,,,,,,,,,,,,,,,,,,,,,
,,,,,,,,,61141ef53317a3f90b098b66,spanish,13 or older,"no, only English or Spanish",no,2025-07-24_10h24.37.246,empathy_intonation_perc_control,2024.2.4,MacIntel,59.88023952,61141ef53317a3f90b098b66,68817205a84113384fffdfe3,688241fef4eda33f13a8a307,,,,,,,,,,,,./stim/wavs/puertorican_match_declarative-broad-focus_Daniel-iba-a-Bolivia.wav,0,,,169.6195,171.9033,0,1,1.7669,,0,57,57,63,1,64,0,puertorican,,,,,,,,,,,,,,,,,,,,,,,,,,,,,,,,,,,,,,,,,,,,,,,,,,,,,,,,
,,,,,,,,,61141ef53317a3f90b098b66,spanish,13 or older,"no, only English or Spanish",no,2025-07-24_10h24.37.246,empathy_intonation_perc_control,2024.2.4,MacIntel,59.88023952,61141ef53317a3f90b098b66,68817205a84113384fffdfe3,688241fef4eda33f13a8a307,,,,,,,,,,,,./stim/wavs/puertorican_mismatch_interrogative-total-yn_El-hombre-mira-la-luna.wav,1,,,171.9034,174.4031,1,1,1.9835,,0,58,58,39,1,40,1,puertorican,,,,,,,,,,,,,,,,,,,,,,,,,,,,,,,,,,,,,,,,,,,,,,,,,,,,,,,,
,,,,,,,,,61141ef53317a3f90b098b66,spanish,13 or older,"no, only English or Spanish",no,2025-07-24_10h24.37.246,empathy_intonation_perc_control,2024.2.4,MacIntel,59.88023952,61141ef53317a3f90b098b66,68817205a84113384fffdfe3,688241fef4eda33f13a8a307,,,,,,,,,,,,./stim/wavs/mexican_match_interrogative-total-yn_Ana-lleva-el-abrigo.wav,1,,,174.4033,176.2365,1,1,1.3165,,0,59,59,12,1,13,0,mexican,,,,,,,,,,,,,,,,,,,,,,,,,,,,,,,,,,,,,,,,,,,,,,,,,,,,,,,,
,,,,,,,,,61141ef53317a3f90b098b66,spanish,13 or older,"no, only English or Spanish",no,2025-07-24_10h24.37.246,empathy_intonation_perc_control,2024.2.4,MacIntel,59.88023952,61141ef53317a3f90b098b66,68817205a84113384fffdfe3,688241fef4eda33f13a8a307,,,,,,,,,,,,./stim/wavs/cuban_match_interrogative-total-yn_Maria-bebe-el-vino.wav,1,,,176.2367,178.2365,0,0,1.4833,,0,60,60,9,1,10,1,cuban,,,,,,,,,,,,,,,,,,,,,,,,,,,,,,,,,,,,,,,,,,,,,,,,,,,,,,,,
,,,,,,,,,61141ef53317a3f90b098b66,spanish,13 or older,"no, only English or Spanish",no,2025-07-24_10h24.37.246,empathy_intonation_perc_control,2024.2.4,MacIntel,59.88023952,61141ef53317a3f90b098b66,68817205a84113384fffdfe3,688241fef4eda33f13a8a307,,,,,,,,,,,,./stim/wavs/castilian_mismatch_interrogative-total-yn_La-maestra-vive-en-Paris.wav,1,,,178.2367,180.4365,1,1,1.6835,,0,61,61,24,1,25,0,castilian,,,,,,,,,,,,,,,,,,,,,,,,,,,,,,,,,,,,,,,,,,,,,,,,,,,,,,,,
,,,,,,,,,61141ef53317a3f90b098b66,spanish,13 or older,"no, only English or Spanish",no,2025-07-24_10h24.37.246,empathy_intonation_perc_control,2024.2.4,MacIntel,59.88023952,61141ef53317a3f90b098b66,68817205a84113384fffdfe3,688241fef4eda33f13a8a307,,,,,,,,,,,,./stim/wavs/castilian_mismatch_declarative-broad-focus_La-maestra-vive-en-Paris.wav,0,,,180.4368,182.7365,1,0,1.7829,,0,62,62,69,1,70,0,castilian,,,,,,,,,,,,,,,,,,,,,,,,,,,,,,,,,,,,,,,,,,,,,,,,,,,,,,,,
,,,,,,,,,61141ef53317a3f90b098b66,spanish,13 or older,"no, only English or Spanish",no,2025-07-24_10h24.37.246,empathy_intonation_perc_control,2024.2.4,MacIntel,59.88023952,61141ef53317a3f90b098b66,68817205a84113384fffdfe3,688241fef4eda33f13a8a307,,,,,,,,,,,,./stim/wavs/mexican_match_declarative-broad-focus_Marta-abre-el-regalo.wav,0,,,182.7367,184.7367,0,1,1.4833,,0,63,63,61,1,62,0,mexican,,,,,,,,,,,,,,,,,,,,,,,,,,,,,,,,,,,,,,,,,,,,,,,,,,,,,,,,
,,,,,,,,,61141ef53317a3f90b098b66,spanish,13 or older,"no, only English or Spanish",no,2025-07-24_10h24.37.246,empathy_intonation_perc_control,2024.2.4,MacIntel,59.88023952,61141ef53317a3f90b098b66,68817205a84113384fffdfe3,688241fef4eda33f13a8a307,,,,,,,,,,,,./stim/wavs/castilian_match_declarative-broad-focus_Emilio-ama-la-marcha.wav,0,,,184.7368,186.8867,0,1,1.6334,,0,64,64,45,1,46,0,castilian,,,,,,,,,,,,,,,,,,,,,,,,,,,,,,,,,,,,,,,,,,,,,,,,,,,,,,,,
,,,,,,,,,61141ef53317a3f90b098b66,spanish,13 or older,"no, only English or Spanish",no,2025-07-24_10h24.37.246,empathy_intonation_perc_control,2024.2.4,MacIntel,59.88023952,61141ef53317a3f90b098b66,68817205a84113384fffdfe3,688241fef4eda33f13a8a307,,,,,,,,,,,,./stim/wavs/puertorican_mismatch_declarative-broad-focus_El-hombre-mira-la-luna.wav,0,,,186.8869,189.0198,0,1,1.6164,,0,65,65,84,1,85,0,puertorican,,,,,,,,,,,,,,,,,,,,,,,,,,,,,,,,,,,,,,,,,,,,,,,,,,,,,,,,
,,,,,,,,,61141ef53317a3f90b098b66,spanish,13 or older,"no, only English or Spanish",no,2025-07-24_10h24.37.246,empathy_intonation_perc_control,2024.2.4,MacIntel,59.88023952,61141ef53317a3f90b098b66,68817205a84113384fffdfe3,688241fef4eda33f13a8a307,,,,,,,,,,,,./stim/wavs/puertorican_match_declarative-broad-focus_Maria-bebe-el-vino.wav,0,,,189.02,191.1535,1,0,1.6169,,0,66,66,67,1,68,0,puertorican,,,,,,,,,,,,,,,,,,,,,,,,,,,,,,,,,,,,,,,,,,,,,,,,,,,,,,,,
,,,,,,,,,61141ef53317a3f90b098b66,spanish,13 or older,"no, only English or Spanish",no,2025-07-24_10h24.37.246,empathy_intonation_perc_control,2024.2.4,MacIntel,59.88023952,61141ef53317a3f90b098b66,68817205a84113384fffdfe3,688241fef4eda33f13a8a307,,,,,,,,,,,,./stim/wavs/mexican_mismatch_interrogative-total-yn_La-maestra-vive-en-Paris.wav,1,,,191.1536,193.5534,1,1,1.8833,,0,67,67,36,1,37,0,mexican,,,,,,,,,,,,,,,,,,,,,,,,,,,,,,,,,,,,,,,,,,,,,,,,,,,,,,,,
,,,,,,,,,61141ef53317a3f90b098b66,spanish,13 or older,"no, only English or Spanish",no,2025-07-24_10h24.37.246,empathy_intonation_perc_control,2024.2.4,MacIntel,59.88023952,61141ef53317a3f90b098b66,68817205a84113384fffdfe3,688241fef4eda33f13a8a307,,,,,,,,,,,,./stim/wavs/cuban_mismatch_interrogative-total-yn_El-hombre-mira-la-luna.wav,1,,,193.5536,195.6702,0,0,1.6001,,0,68,68,29,1,30,1,cuban,,,,,,,,,,,,,,,,,,,,,,,,,,,,,,,,,,,,,,,,,,,,,,,,,,,,,,,,
,,,,,,,,,61141ef53317a3f90b098b66,spanish,13 or older,"no, only English or Spanish",no,2025-07-24_10h24.37.246,empathy_intonation_perc_control,2024.2.4,MacIntel,59.88023952,61141ef53317a3f90b098b66,68817205a84113384fffdfe3,688241fef4eda33f13a8a307,,,,,,,,,,,,./stim/wavs/castilian_match_interrogative-total-yn_Maria-bebe-el-vino.wav,1,,,195.6703,197.6534,1,1,1.4668,,0,69,69,3,1,4,0,castilian,,,,,,,,,,,,,,,,,,,,,,,,,,,,,,,,,,,,,,,,,,,,,,,,,,,,,,,,
,,,,,,,,,61141ef53317a3f90b098b66,spanish,13 or older,"no, only English or Spanish",no,2025-07-24_10h24.37.246,empathy_intonation_perc_control,2024.2.4,MacIntel,59.88023952,61141ef53317a3f90b098b66,68817205a84113384fffdfe3,688241fef4eda33f13a8a307,,,,,,,,,,,,./stim/wavs/mexican_match_declarative-broad-focus_Mariano-habla-del-tiempo.wav,0,,,197.6536,199.8036,0,1,1.6335,,0,70,70,60,1,61,0,mexican,,,,,,,,,,,,,,,,,,,,,,,,,,,,,,,,,,,,,,,,,,,,,,,,,,,,,,,,
,,,,,,,,,61141ef53317a3f90b098b66,spanish,13 or older,"no, only English or Spanish",no,2025-07-24_10h24.37.246,empathy_intonation_perc_control,2024.2.4,MacIntel,59.88023952,61141ef53317a3f90b098b66,68817205a84113384fffdfe3,688241fef4eda33f13a8a307,,,,,,,,,,,,./stim/wavs/puertorican_mismatch_interrogative-total-yn_La-maestra-vive-en-Paris.wav,1,,,199.8037,202.1367,0,0,1.8167,,0,71,71,41,1,42,1,puertorican,,,,,,,,,,,,,,,,,,,,,,,,,,,,,,,,,,,,,,,,,,,,,,,,,,,,,,,,
,,,,,,,,,61141ef53317a3f90b098b66,spanish,13 or older,"no, only English or Spanish",no,2025-07-24_10h24.37.246,empathy_intonation_perc_control,2024.2.4,MacIntel,59.88023952,61141ef53317a3f90b098b66,68817205a84113384fffdfe3,688241fef4eda33f13a8a307,,,,,,,,,,,,./stim/wavs/cuban_match_declarative-broad-focus_Marta-abre-el-regalo.wav,0,,,202.1369,204.3032,0,1,1.6497,,0,72,72,55,1,56,0,cuban,,,,,,,,,,,,,,,,,,,,,,,,,,,,,,,,,,,,,,,,,,,,,,,,,,,,,,,,
,,,,,,,,,61141ef53317a3f90b098b66,spanish,13 or older,"no, only English or Spanish",no,2025-07-24_10h24.37.246,empathy_intonation_perc_control,2024.2.4,MacIntel,59.88023952,61141ef53317a3f90b098b66,68817205a84113384fffdfe3,688241fef4eda33f13a8a307,,,,,,,,,,,,./stim/wavs/mexican_mismatch_declarative-broad-focus_Mi-tia-odia-la-lluvia.wav,0,,,204.3034,206.3033,0,1,1.4833,,0,73,73,82,1,83,0,mexican,,,,,,,,,,,,,,,,,,,,,,,,,,,,,,,,,,,,,,,,,,,,,,,,,,,,,,,,
,,,,,,,,,61141ef53317a3f90b098b66,spanish,13 or older,"no, only English or Spanish",no,2025-07-24_10h24.37.246,empathy_intonation_perc_control,2024.2.4,MacIntel,59.88023952,61141ef53317a3f90b098b66,68817205a84113384fffdfe3,688241fef4eda33f13a8a307,,,,,,,,,,,,./stim/wavs/mexican_mismatch_declarative-broad-focus_El-bebe-comia-muy-bien.wav,0,,,206.3035,208.5199,0,1,1.6998,,0,74,74,78,1,79,0,mexican,,,,,,,,,,,,,,,,,,,,,,,,,,,,,,,,,,,,,,,,,,,,,,,,,,,,,,,,
,,,,,,,,,61141ef53317a3f90b098b66,spanish,13 or older,"no, only English or Spanish",no,2025-07-24_10h24.37.246,empathy_intonation_perc_control,2024.2.4,MacIntel,59.88023952,61141ef53317a3f90b098b66,68817205a84113384fffdfe3,688241fef4eda33f13a8a307,,,,,,,,,,,,./stim/wavs/cuban_match_interrogative-total-yn_Manuela-vende-el-carro.wav,1,,,208.52,210.8201,1,1,1.7836,,0,75,75,8,1,9,1,cuban,,,,,,,,,,,,,,,,,,,,,,,,,,,,,,,,,,,,,,,,,,,,,,,,,,,,,,,,
,,,,,,,,,61141ef53317a3f90b098b66,spanish,13 or older,"no, only English or Spanish",no,2025-07-24_10h24.37.246,empathy_intonation_perc_control,2024.2.4,MacIntel,59.88023952,61141ef53317a3f90b098b66,68817205a84113384fffdfe3,688241fef4eda33f13a8a307,,,,,,,,,,,,./stim/wavs/castilian_match_interrogative-total-yn_Marta-abre-el-regalo.wav,1,,,210.8203,212.9366,1,1,1.5999,,0,76,76,5,1,6,0,castilian,,,,,,,,,,,,,,,,,,,,,,,,,,,,,,,,,,,,,,,,,,,,,,,,,,,,,,,,
,,,,,,,,,61141ef53317a3f90b098b66,spanish,13 or older,"no, only English or Spanish",no,2025-07-24_10h24.37.246,empathy_intonation_perc_control,2024.2.4,MacIntel,59.88023952,61141ef53317a3f90b098b66,68817205a84113384fffdfe3,688241fef4eda33f13a8a307,,,,,,,,,,,,./stim/wavs/puertorican_mismatch_interrogative-total-yn_Mi-madre-come-la-fruta.wav,1,,,212.9368,215.2532,1,1,1.7999,,0,77,77,43,1,44,1,puertorican,,,,,,,,,,,,,,,,,,,,,,,,,,,,,,,,,,,,,,,,,,,,,,,,,,,,,,,,
,,,,,,,,,61141ef53317a3f90b098b66,spanish,13 or older,"no, only English or Spanish",no,2025-07-24_10h24.37.246,empathy_intonation_perc_control,2024.2.4,MacIntel,59.88023952,61141ef53317a3f90b098b66,68817205a84113384fffdfe3,688241fef4eda33f13a8a307,,,,,,,,,,,,./stim/wavs/mexican_match_interrogative-total-yn_Marta-abre-el-regalo.wav,1,,,215.2533,217.3365,1,1,1.5828,,0,78,78,17,1,18,0,mexican,,,,,,,,,,,,,,,,,,,,,,,,,,,,,,,,,,,,,,,,,,,,,,,,,,,,,,,,
,,,,,,,,,61141ef53317a3f90b098b66,spanish,13 or older,"no, only English or Spanish",no,2025-07-24_10h24.37.246,empathy_intonation_perc_control,2024.2.4,MacIntel,59.88023952,61141ef53317a3f90b098b66,68817205a84113384fffdfe3,688241fef4eda33f13a8a307,,,,,,,,,,,,./stim/wavs/cuban_match_declarative-broad-focus_Mariano-habla-del-tiempo.wav,0,,,217.3367,219.8698,0,1,2.0168,,0,79,79,54,1,55,0,cuban,,,,,,,,,,,,,,,,,,,,,,,,,,,,,,,,,,,,,,,,,,,,,,,,,,,,,,,,
,,,,,,,,,61141ef53317a3f90b098b66,spanish,13 or older,"no, only English or Spanish",no,2025-07-24_10h24.37.246,empathy_intonation_perc_control,2024.2.4,MacIntel,59.88023952,61141ef53317a3f90b098b66,68817205a84113384fffdfe3,688241fef4eda33f13a8a307,,,,,,,,,,,,./stim/wavs/castilian_match_declarative-broad-focus_David-leia-el-libro.wav,0,,,219.87,222.22,0,1,1.8332,,0,80,80,44,1,45,0,castilian,,,,,,,,,,,,,,,,,,,,,,,,,,,,,,,,,,,,,,,,,,,,,,,,,,,,,,,,
,,,,,,,,,61141ef53317a3f90b098b66,spanish,13 or older,"no, only English or Spanish",no,2025-07-24_10h24.37.246,empathy_intonation_perc_control,2024.2.4,MacIntel,59.88023952,61141ef53317a3f90b098b66,68817205a84113384fffdfe3,688241fef4eda33f13a8a307,,,,,,,,,,,,./stim/wavs/puertorican_match_interrogative-total-yn_David-leia-el-libro.wav,1,,,222.2202,224.1864,0,0,1.4498,,0,81,81,20,1,21,1,puertorican,,,,,,,,,,,,,,,,,,,,,,,,,,,,,,,,,,,,,,,,,,,,,,,,,,,,,,,,
,,,,,,,,,61141ef53317a3f90b098b66,spanish,13 or older,"no, only English or Spanish",no,2025-07-24_10h24.37.246,empathy_intonation_perc_control,2024.2.4,MacIntel,59.88023952,61141ef53317a3f90b098b66,68817205a84113384fffdfe3,688241fef4eda33f13a8a307,,,,,,,,,,,,./stim/wavs/puertorican_match_interrogative-total-yn_Ana-lleva-el-abrigo.wav,1,,,224.1867,226.1868,0,0,1.4977,,0,82,82,18,1,19,1,puertorican,,,,,,,,,,,,,,,,,,,,,,,,,,,,,,,,,,,,,,,,,,,,,,,,,,,,,,,,
,,,,,,,,,61141ef53317a3f90b098b66,spanish,13 or older,"no, only English or Spanish",no,2025-07-24_10h24.37.246,empathy_intonation_perc_control,2024.2.4,MacIntel,59.88023952,61141ef53317a3f90b098b66,68817205a84113384fffdfe3,688241fef4eda33f13a8a307,,,,,,,,,,,,./stim/wavs/cuban_mismatch_interrogative-total-yn_Mi-novio-viene-del-lago.wav,1,,,226.187,228.8201,1,1,2.1166,,0,83,83,32,1,33,1,cuban,,,,,,,,,,,,,,,,,,,,,,,,,,,,,,,,,,,,,,,,,,,,,,,,,,,,,,,,
,,,,,,,,,61141ef53317a3f90b098b66,spanish,13 or older,"no, only English or Spanish",no,2025-07-24_10h24.37.246,empathy_intonation_perc_control,2024.2.4,MacIntel,59.88023952,61141ef53317a3f90b098b66,68817205a84113384fffdfe3,688241fef4eda33f13a8a307,,,,,,,,,,,,./stim/wavs/castilian_match_declarative-broad-focus_Mariano-habla-del-tiempo.wav,0,,,228.8203,231.5365,1,0,2.1997,,0,84,84,48,1,49,0,castilian,,,,,,,,,,,,,,,,,,,,,,,,,,,,,,,,,,,,,,,,,,,,,,,,,,,,,,,,
,,,,,,,,,61141ef53317a3f90b098b66,spanish,13 or older,"no, only English or Spanish",no,2025-07-24_10h24.37.246,empathy_intonation_perc_control,2024.2.4,MacIntel,59.88023952,61141ef53317a3f90b098b66,68817205a84113384fffdfe3,688241fef4eda33f13a8a307,,,,,,,,,,,,./stim/wavs/castilian_mismatch_interrogative-total-yn_Mi-madre-come-la-fruta.wav,1,,,231.5367,233.753,1,1,1.6996,,0,85,85,26,1,27,0,castilian,,,,,,,,,,,,,,,,,,,,,,,,,,,,,,,,,,,,,,,,,,,,,,,,,,,,,,,,
,,,,,,,,,61141ef53317a3f90b098b66,spanish,13 or older,"no, only English or Spanish",no,2025-07-24_10h24.37.246,empathy_intonation_perc_control,2024.2.4,MacIntel,59.88023952,61141ef53317a3f90b098b66,68817205a84113384fffdfe3,688241fef4eda33f13a8a307,,,,,,,,,,,,./stim/wavs/cuban_match_interrogative-total-yn_Daniel-iba-a-Bolivia.wav,1,,,233.7532,235.7202,0,0,1.4501,,0,86,86,7,1,8,1,cuban,,,,,,,,,,,,,,,,,,,,,,,,,,,,,,,,,,,,,,,,,,,,,,,,,,,,,,,,
,,,,,,,,,61141ef53317a3f90b098b66,spanish,13 or older,"no, only English or Spanish",no,2025-07-24_10h24.37.246,empathy_intonation_perc_control,2024.2.4,MacIntel,59.88023952,61141ef53317a3f90b098b66,68817205a84113384fffdfe3,688241fef4eda33f13a8a307,,,,,,,,,,,,./stim/wavs/castilian_mismatch_declarative-broad-focus_Mi-tia-odia-la-lluvia.wav,0,,,235.7204,238.07,0,1,1.833,,0,87,87,72,1,73,0,castilian,,,,,,,,,,,,,,,,,,,,,,,,,,,,,,,,,,,,,,,,,,,,,,,,,,,,,,,,
,,,,,,,"Great! Now we will move on. The next task consists of about 60 trials, in each of which you will see a string of letters. 
  
  Your task is to decide whether this is a real Spanish word or not.", (press the spacebar to continue),61141ef53317a3f90b098b66,spanish,13 or older,"no, only English or Spanish",no,2025-07-24_10h24.37.246,empathy_intonation_perc_control,2024.2.4,MacIntel,59.88023952,61141ef53317a3f90b098b66,68817205a84113384fffdfe3,688241fef4eda33f13a8a307,,,,,,,,,,,,,,,,,,,,,,,,,,,,,,238.0721,254.1393,0,0,0,0,1,,,,,,,,,,,,,,,,,,,,,,,,,,,,,,,,,,,,,,,,,,,,,,,,,
,,,,,,,"If you think it is an existing Spanish word, you type '1' (for 'REAL'), and if you think it is not an existing Spanish word, you type '0' (for 'FAKE').", (press the spacebar to continue),61141ef53317a3f90b098b66,spanish,13 or older,"no, only English or Spanish",no,2025-07-24_10h24.37.246,empathy_intonation_perc_control,2024.2.4,MacIntel,59.88023952,61141ef53317a3f90b098b66,68817205a84113384fffdfe3,688241fef4eda33f13a8a307,,,,,,,,,,,,,,,,,,,,,,,,,,,,,,254.1398,258.8309,0,1,1,1,1,,,,,,,,,,,,,,,,,,,,,,,,,,,,,,,,,,,,,,,,,,,,,,,,,
,,,,,,,"If you are sure that the word exists, even though you don’t know its exact meaning, you may still respond '1' (REAL). 
  
  But if you are not sure if it is an existing word, you should respond '0' (FAKE).
  
  Let's do a practice round...", (press the spacebar to continue),61141ef53317a3f90b098b66,spanish,13 or older,"no, only English or Spanish",no,2025-07-24_10h24.37.246,empathy_intonation_perc_control,2024.2.4,MacIntel,59.88023952,61141ef53317a3f90b098b66,68817205a84113384fffdfe3,688241fef4eda33f13a8a307,,,,,,,,,,,,,,,,,,,,,,,,,,,,,,258.8315,263.9644,0,2,2,2,1,,,,,,,,,,,,,,,,,,,,,,,,,,,,,,,,,,,,,,,,,,,,,,,,,
,,,,,,,,,61141ef53317a3f90b098b66,spanish,13 or older,"no, only English or Spanish",no,2025-07-24_10h24.37.246,empathy_intonation_perc_control,2024.2.4,MacIntel,59.88023952,61141ef53317a3f90b098b66,68817205a84113384fffdfe3,688241fef4eda33f13a8a307,,,,,,,,,,,,,0,,,,,,,,,,,,,,,,,,,,,,,,263.9665,266.4327,1,0,1.9596,,266.4328,267.4322,0,0,0,0,1,0,depiste,REAL,FAKE,,,,,,,,,,,,,,,,,,,,,,,,,,,,,,,,
,,,,,,,,,61141ef53317a3f90b098b66,spanish,13 or older,"no, only English or Spanish",no,2025-07-24_10h24.37.246,empathy_intonation_perc_control,2024.2.4,MacIntel,59.88023952,61141ef53317a3f90b098b66,68817205a84113384fffdfe3,688241fef4eda33f13a8a307,,,,,,,,,,,,,1,,,,,,,,,,,,,,,,,,,,,,,,267.4326,269.2656,1,1,1.3163,,269.2659,270.2645,0,1,1,1,1,0,sí,REAL,FAKE,,,,,,,,,,,,,,,,,,,,,,,,,,,,,,,,
,,,,,,,,,61141ef53317a3f90b098b66,spanish,13 or older,"no, only English or Spanish",no,2025-07-24_10h24.37.246,empathy_intonation_perc_control,2024.2.4,MacIntel,59.88023952,61141ef53317a3f90b098b66,68817205a84113384fffdfe3,688241fef4eda33f13a8a307,,,,,,,,,,,,,0,,,,,,,,,,,,,,,,,,,,,,,,270.2651,271.9656,1,0,1.199,,271.9659,272.9653,0,2,2,2,1,0,coné,REAL,FAKE,,,,,,,,,,,,,,,,,,,,,,,,,,,,,,,,
,,,,,,,,,61141ef53317a3f90b098b66,spanish,13 or older,"no, only English or Spanish",no,2025-07-24_10h24.37.246,empathy_intonation_perc_control,2024.2.4,MacIntel,59.88023952,61141ef53317a3f90b098b66,68817205a84113384fffdfe3,688241fef4eda33f13a8a307,,,,,,,,,,,,,0,,,,,,,,,,,,,,,,,,,,,,,,272.9658,274.7322,0,1,1.2492,,274.7325,275.7322,0,3,3,3,1,0,calpar,REAL,FAKE,,,,,,,,,,,,,,,,,,,,,,,,,,,,,,,,
,,,,,,,,,61141ef53317a3f90b098b66,spanish,13 or older,"no, only English or Spanish",no,2025-07-24_10h24.37.246,empathy_intonation_perc_control,2024.2.4,MacIntel,59.88023952,61141ef53317a3f90b098b66,68817205a84113384fffdfe3,688241fef4eda33f13a8a307,,,,,,,,,,,,,0,,,,,,,,,,,,,,,,,,,,,,,,275.7326,277.1979,0,1,0.9482,,277.1979,278.1988,0,4,4,4,1,0,joten,REAL,FAKE,,,,,,,,,,,,,,,,,,,,,,,,,,,,,,,,
,,,,,,,,,61141ef53317a3f90b098b66,spanish,13 or older,"no, only English or Spanish",no,2025-07-24_10h24.37.246,empathy_intonation_perc_control,2024.2.4,MacIntel,59.88023952,61141ef53317a3f90b098b66,68817205a84113384fffdfe3,688241fef4eda33f13a8a307,,,,,,,,,,,,,1,,,,,,,,,,,,,,,,,,,,,,,,278.1991,279.7989,0,0,1.0825,,279.7992,280.7979,0,5,5,5,1,0,sacapuntas,REAL,FAKE,,,,,,,,,,,,,,,,,,,,,,,,,,,,,,,,
,,,,,,,,,61141ef53317a3f90b098b66,spanish,13 or older,"no, only English or Spanish",no,2025-07-24_10h24.37.246,empathy_intonation_perc_control,2024.2.4,MacIntel,59.88023952,61141ef53317a3f90b098b66,68817205a84113384fffdfe3,688241fef4eda33f13a8a307,,,,,,,,,,,,,0,,,,,,,,,,,,,,,,,,,,,,,,280.7984,282.6491,1,0,1.3502,,282.6491,283.6478,0,6,6,6,1,0,priba,REAL,FAKE,,,,,,,,,,,,,,,,,,,,,,,,,,,,,,,,
,,,,,,,,,61141ef53317a3f90b098b66,spanish,13 or older,"no, only English or Spanish",no,2025-07-24_10h24.37.246,empathy_intonation_perc_control,2024.2.4,MacIntel,59.88023952,61141ef53317a3f90b098b66,68817205a84113384fffdfe3,688241fef4eda33f13a8a307,,,,,,,,,,,,,0,,,,,,,,,,,,,,,,,,,,,,,,283.6483,285.4655,0,1,1.3165,,285.4658,286.4656,0,7,7,7,1,0,pelasula,REAL,FAKE,,,,,,,,,,,,,,,,,,,,,,,,,,,,,,,,
,,,,,,,,,61141ef53317a3f90b098b66,spanish,13 or older,"no, only English or Spanish",no,2025-07-24_10h24.37.246,empathy_intonation_perc_control,2024.2.4,MacIntel,59.88023952,61141ef53317a3f90b098b66,68817205a84113384fffdfe3,688241fef4eda33f13a8a307,,,,,,,,,,,,,1,,,,,,,,,,,,,,,,,,,,,,,,286.4659,287.9655,1,1,0.9829,,287.9656,288.9644,0,8,8,8,1,0,bien,REAL,FAKE,,,,,,,,,,,,,,,,,,,,,,,,,,,,,,,,
,,,,,,,,,61141ef53317a3f90b098b66,spanish,13 or older,"no, only English or Spanish",no,2025-07-24_10h24.37.246,empathy_intonation_perc_control,2024.2.4,MacIntel,59.88023952,61141ef53317a3f90b098b66,68817205a84113384fffdfe3,688241fef4eda33f13a8a307,,,,,,,,,,,,,1,,,,,,,,,,,,,,,,,,,,,,,,288.9648,290.1322,1,1,0.6651,,290.1322,291.1323,0,9,9,9,1,0,casa,REAL,FAKE,,,,,,,,,,,,,,,,,,,,,,,,,,,,,,,,
,,,,,,,,,61141ef53317a3f90b098b66,spanish,13 or older,"no, only English or Spanish",no,2025-07-24_10h24.37.246,empathy_intonation_perc_control,2024.2.4,MacIntel,59.88023952,61141ef53317a3f90b098b66,68817205a84113384fffdfe3,688241fef4eda33f13a8a307,,,,,,,,,,,,,0,,,,,,,,,,,,,,,,,,,,,,,,291.1326,293.0311,1,0,1.382,,293.0314,294.0321,0,10,10,10,1,0,lejo,REAL,FAKE,,,,,,,,,,,,,,,,,,,,,,,,,,,,,,,,
,,,,,,,,,61141ef53317a3f90b098b66,spanish,13 or older,"no, only English or Spanish",no,2025-07-24_10h24.37.246,empathy_intonation_perc_control,2024.2.4,MacIntel,59.88023952,61141ef53317a3f90b098b66,68817205a84113384fffdfe3,688241fef4eda33f13a8a307,,,,,,,,,,,,,0,,,,,,,,,,,,,,,,,,,,,,,,294.0326,295.6822,1,0,1.1334,,295.6823,296.6823,0,11,11,11,1,0,pretantas,REAL,FAKE,,,,,,,,,,,,,,,,,,,,,,,,,,,,,,,,
,,,,,,,,,61141ef53317a3f90b098b66,spanish,13 or older,"no, only English or Spanish",no,2025-07-24_10h24.37.246,empathy_intonation_perc_control,2024.2.4,MacIntel,59.88023952,61141ef53317a3f90b098b66,68817205a84113384fffdfe3,688241fef4eda33f13a8a307,,,,,,,,,,,,,,,,,,,,,,,,,,,,,,,,,,,,,,,,,,,,,,,,,,,,,,296.6824,298.0513,,,,,,,,,,,,,,,,,,,,,,,,,,,,,,
,,,,,,,,,61141ef53317a3f90b098b66,spanish,13 or older,"no, only English or Spanish",no,2025-07-24_10h24.37.246,empathy_intonation_perc_control,2024.2.4,MacIntel,59.88023952,61141ef53317a3f90b098b66,68817205a84113384fffdfe3,688241fef4eda33f13a8a307,,,,,,,,,,,,,0,,,,,,,,,,,,,,,,,,,,,,,,,,,,,,,,,,,,,63,esposante,,,,,298.0548,299.9347,0,1,1.3685,,0,0,0,62,1,REAL,FAKE,,,,,,,,,,,,,,,,,
,,,,,,,,,61141ef53317a3f90b098b66,spanish,13 or older,"no, only English or Spanish",no,2025-07-24_10h24.37.246,empathy_intonation_perc_control,2024.2.4,MacIntel,59.88023952,61141ef53317a3f90b098b66,68817205a84113384fffdfe3,688241fef4eda33f13a8a307,,,,,,,,,,,,,1,,,,,,,,,,,,,,,,,,,,,,,,,,,,,,,,,,,,,28,merodear,,,,,299.9351,301.4645,1,1,1.0155,,0,1,1,27,1,REAL,FAKE,,,,,,,,,,,,,,,,,
,,,,,,,,,61141ef53317a3f90b098b66,spanish,13 or older,"no, only English or Spanish",no,2025-07-24_10h24.37.246,empathy_intonation_perc_control,2024.2.4,MacIntel,59.88023952,61141ef53317a3f90b098b66,68817205a84113384fffdfe3,688241fef4eda33f13a8a307,,,,,,,,,,,,,0,,,,,,,,,,,,,,,,,,,,,,,,,,,,,,,,,,,,,84,escuto,,,,,301.4649,303.6154,0,1,1.6491,,0,2,2,83,1,REAL,FAKE,,,,,,,,,,,,,,,,,
,,,,,,,,,61141ef53317a3f90b098b66,spanish,13 or older,"no, only English or Spanish",no,2025-07-24_10h24.37.246,empathy_intonation_perc_control,2024.2.4,MacIntel,59.88023952,61141ef53317a3f90b098b66,68817205a84113384fffdfe3,688241fef4eda33f13a8a307,,,,,,,,,,,,,1,,,,,,,,,,,,,,,,,,,,,,,,,,,,,,,,,,,,,43,canela,,,,,303.6158,305.0989,1,1,0.9669,,0,3,3,42,1,REAL,FAKE,,,,,,,,,,,,,,,,,
,,,,,,,,,61141ef53317a3f90b098b66,spanish,13 or older,"no, only English or Spanish",no,2025-07-24_10h24.37.246,empathy_intonation_perc_control,2024.2.4,MacIntel,59.88023952,61141ef53317a3f90b098b66,68817205a84113384fffdfe3,688241fef4eda33f13a8a307,,,,,,,,,,,,,1,,,,,,,,,,,,,,,,,,,,,,,,,,,,,,,,,,,,,78,frondoso,,,,,305.0994,306.7489,0,0,1.132,,0,4,4,77,1,REAL,FAKE,,,,,,,,,,,,,,,,,
,,,,,,,,,61141ef53317a3f90b098b66,spanish,13 or older,"no, only English or Spanish",no,2025-07-24_10h24.37.246,empathy_intonation_perc_control,2024.2.4,MacIntel,59.88023952,61141ef53317a3f90b098b66,68817205a84113384fffdfe3,688241fef4eda33f13a8a307,,,,,,,,,,,,,0,,,,,,,,,,,,,,,,,,,,,,,,,,,,,,,,,,,,,19,brecedad,,,,,306.7492,308.2655,0,1,0.9991,,0,5,5,18,1,REAL,FAKE,,,,,,,,,,,,,,,,,
,,,,,,,,,61141ef53317a3f90b098b66,spanish,13 or older,"no, only English or Spanish",no,2025-07-24_10h24.37.246,empathy_intonation_perc_control,2024.2.4,MacIntel,59.88023952,61141ef53317a3f90b098b66,68817205a84113384fffdfe3,688241fef4eda33f13a8a307,,,,,,,,,,,,,1,,,,,,,,,,,,,,,,,,,,,,,,,,,,,,,,,,,,,13,helar,,,,,308.2658,309.6323,1,1,0.8498,,0,6,6,12,1,REAL,FAKE,,,,,,,,,,,,,,,,,
,,,,,,,,,61141ef53317a3f90b098b66,spanish,13 or older,"no, only English or Spanish",no,2025-07-24_10h24.37.246,empathy_intonation_perc_control,2024.2.4,MacIntel,59.88023952,61141ef53317a3f90b098b66,68817205a84113384fffdfe3,688241fef4eda33f13a8a307,,,,,,,,,,,,,1,,,,,,,,,,,,,,,,,,,,,,,,,,,,,,,,,,,,,62,flaco,,,,,309.6326,311.1321,1,1,0.9826,,0,7,7,61,1,REAL,FAKE,,,,,,,,,,,,,,,,,
,,,,,,,,,61141ef53317a3f90b098b66,spanish,13 or older,"no, only English or Spanish",no,2025-07-24_10h24.37.246,empathy_intonation_perc_control,2024.2.4,MacIntel,59.88023952,61141ef53317a3f90b098b66,68817205a84113384fffdfe3,688241fef4eda33f13a8a307,,,,,,,,,,,,,1,,,,,,,,,,,,,,,,,,,,,,,,,,,,,,,,,,,,,5,zapato,,,,,311.1326,312.6652,1,1,1.0161,,0,8,8,4,1,REAL,FAKE,,,,,,,,,,,,,,,,,
,,,,,,,,,61141ef53317a3f90b098b66,spanish,13 or older,"no, only English or Spanish",no,2025-07-24_10h24.37.246,empathy_intonation_perc_control,2024.2.4,MacIntel,59.88023952,61141ef53317a3f90b098b66,68817205a84113384fffdfe3,688241fef4eda33f13a8a307,,,,,,,,,,,,,0,,,,,,,,,,,,,,,,,,,,,,,,,,,,,,,,,,,,,16,abracer,,,,,312.6655,314.5988,1,0,1.4326,,0,9,9,15,1,REAL,FAKE,,,,,,,,,,,,,,,,,
,,,,,,,,,61141ef53317a3f90b098b66,spanish,13 or older,"no, only English or Spanish",no,2025-07-24_10h24.37.246,empathy_intonation_perc_control,2024.2.4,MacIntel,59.88023952,61141ef53317a3f90b098b66,68817205a84113384fffdfe3,688241fef4eda33f13a8a307,,,,,,,,,,,,,1,,,,,,,,,,,,,,,,,,,,,,,,,,,,,,,,,,,,,40,alfombra,,,,,314.5991,315.9155,0,0,0.7992,,0,10,10,39,1,REAL,FAKE,,,,,,,,,,,,,,,,,
,,,,,,,,,61141ef53317a3f90b098b66,spanish,13 or older,"no, only English or Spanish",no,2025-07-24_10h24.37.246,empathy_intonation_perc_control,2024.2.4,MacIntel,59.88023952,61141ef53317a3f90b098b66,68817205a84113384fffdfe3,688241fef4eda33f13a8a307,,,,,,,,,,,,,1,,,,,,,,,,,,,,,,,,,,,,,,,,,,,,,,,,,,,59,besar,,,,,315.9159,317.2489,1,1,0.8162,,0,11,11,58,1,REAL,FAKE,,,,,,,,,,,,,,,,,
,,,,,,,,,61141ef53317a3f90b098b66,spanish,13 or older,"no, only English or Spanish",no,2025-07-24_10h24.37.246,empathy_intonation_perc_control,2024.2.4,MacIntel,59.88023952,61141ef53317a3f90b098b66,68817205a84113384fffdfe3,688241fef4eda33f13a8a307,,,,,,,,,,,,,0,,,,,,,,,,,,,,,,,,,,,,,,,,,,,,,,,,,,,35,rompido,,,,,317.2493,319.2155,1,0,1.4494,,0,12,12,34,1,REAL,FAKE,,,,,,,,,,,,,,,,,
,,,,,,,,,61141ef53317a3f90b098b66,spanish,13 or older,"no, only English or Spanish",no,2025-07-24_10h24.37.246,empathy_intonation_perc_control,2024.2.4,MacIntel,59.88023952,61141ef53317a3f90b098b66,68817205a84113384fffdfe3,688241fef4eda33f13a8a307,,,,,,,,,,,,,1,,,,,,,,,,,,,,,,,,,,,,,,,,,,,,,,,,,,,71,polvoriento,,,,,319.216,320.649,0,0,0.9161,,0,13,13,70,1,REAL,FAKE,,,,,,,,,,,,,,,,,
,,,,,,,,,61141ef53317a3f90b098b66,spanish,13 or older,"no, only English or Spanish",no,2025-07-24_10h24.37.246,empathy_intonation_perc_control,2024.2.4,MacIntel,59.88023952,61141ef53317a3f90b098b66,68817205a84113384fffdfe3,688241fef4eda33f13a8a307,,,,,,,,,,,,,0,,,,,,,,,,,,,,,,,,,,,,,,,,,,,,,,,,,,,8,cadeña,,,,,320.6494,322.2987,0,1,1.1326,,0,14,14,7,1,REAL,FAKE,,,,,,,,,,,,,,,,,
,,,,,,,,,61141ef53317a3f90b098b66,spanish,13 or older,"no, only English or Spanish",no,2025-07-24_10h24.37.246,empathy_intonation_perc_control,2024.2.4,MacIntel,59.88023952,61141ef53317a3f90b098b66,68817205a84113384fffdfe3,688241fef4eda33f13a8a307,,,,,,,,,,,,,1,,,,,,,,,,,,,,,,,,,,,,,,,,,,,,,,,,,,,54,fomentar,,,,,322.2991,323.7488,0,0,0.9326,,0,15,15,53,1,REAL,FAKE,,,,,,,,,,,,,,,,,
,,,,,,,,,61141ef53317a3f90b098b66,spanish,13 or older,"no, only English or Spanish",no,2025-07-24_10h24.37.246,empathy_intonation_perc_control,2024.2.4,MacIntel,59.88023952,61141ef53317a3f90b098b66,68817205a84113384fffdfe3,688241fef4eda33f13a8a307,,,,,,,,,,,,,0,,,,,,,,,,,,,,,,,,,,,,,,,,,,,,,,,,,,,50,flamida,,,,,323.7491,326.0484,1,0,1.7821,,0,16,16,49,1,REAL,FAKE,,,,,,,,,,,,,,,,,
,,,,,,,,,61141ef53317a3f90b098b66,spanish,13 or older,"no, only English or Spanish",no,2025-07-24_10h24.37.246,empathy_intonation_perc_control,2024.2.4,MacIntel,59.88023952,61141ef53317a3f90b098b66,68817205a84113384fffdfe3,688241fef4eda33f13a8a307,,,,,,,,,,,,,1,,,,,,,,,,,,,,,,,,,,,,,,,,,,,,,,,,,,,81,pozo,,,,,326.0488,327.5321,0,0,0.9657,,0,17,17,80,1,REAL,FAKE,,,,,,,,,,,,,,,,,
,,,,,,,,,61141ef53317a3f90b098b66,spanish,13 or older,"no, only English or Spanish",no,2025-07-24_10h24.37.246,empathy_intonation_perc_control,2024.2.4,MacIntel,59.88023952,61141ef53317a3f90b098b66,68817205a84113384fffdfe3,688241fef4eda33f13a8a307,,,,,,,,,,,,,0,,,,,,,,,,,,,,,,,,,,,,,,,,,,,,,,,,,,,1,terzo,,,,,327.5324,329.299,0,1,1.2497,,0,18,18,0,1,REAL,FAKE,,,,,,,,,,,,,,,,,
,,,,,,,,,61141ef53317a3f90b098b66,spanish,13 or older,"no, only English or Spanish",no,2025-07-24_10h24.37.246,empathy_intonation_perc_control,2024.2.4,MacIntel,59.88023952,61141ef53317a3f90b098b66,68817205a84113384fffdfe3,688241fef4eda33f13a8a307,,,,,,,,,,,,,1,,,,,,,,,,,,,,,,,,,,,,,,,,,,,,,,,,,,,37,granuja,,,,,329.2995,331.3655,0,0,1.5488,,0,19,19,36,1,REAL,FAKE,,,,,,,,,,,,,,,,,
,,,,,,,,,61141ef53317a3f90b098b66,spanish,13 or older,"no, only English or Spanish",no,2025-07-24_10h24.37.246,empathy_intonation_perc_control,2024.2.4,MacIntel,59.88023952,61141ef53317a3f90b098b66,68817205a84113384fffdfe3,688241fef4eda33f13a8a307,,,,,,,,,,,,,1,,,,,,,,,,,,,,,,,,,,,,,,,,,,,,,,,,,,,51,candado,,,,,331.3661,333.2322,0,0,1.3496,,0,20,20,50,1,REAL,FAKE,,,,,,,,,,,,,,,,,
,,,,,,,,,61141ef53317a3f90b098b66,spanish,13 or older,"no, only English or Spanish",no,2025-07-24_10h24.37.246,empathy_intonation_perc_control,2024.2.4,MacIntel,59.88023952,61141ef53317a3f90b098b66,68817205a84113384fffdfe3,688241fef4eda33f13a8a307,,,,,,,,,,,,,0,,,,,,,,,,,,,,,,,,,,,,,,,,,,,,,,,,,,,33,pauca,,,,,333.2325,335.1489,0,1,1.4001,,0,21,21,32,1,REAL,FAKE,,,,,,,,,,,,,,,,,
,,,,,,,,,61141ef53317a3f90b098b66,spanish,13 or older,"no, only English or Spanish",no,2025-07-24_10h24.37.246,empathy_intonation_perc_control,2024.2.4,MacIntel,59.88023952,61141ef53317a3f90b098b66,68817205a84113384fffdfe3,688241fef4eda33f13a8a307,,,,,,,,,,,,,1,,,,,,,,,,,,,,,,,,,,,,,,,,,,,,,,,,,,,48,ladrón,,,,,335.1493,336.7155,0,0,1.0495,,0,22,22,47,1,REAL,FAKE,,,,,,,,,,,,,,,,,
,,,,,,,,,61141ef53317a3f90b098b66,spanish,13 or older,"no, only English or Spanish",no,2025-07-24_10h24.37.246,empathy_intonation_perc_control,2024.2.4,MacIntel,59.88023952,61141ef53317a3f90b098b66,68817205a84113384fffdfe3,688241fef4eda33f13a8a307,,,,,,,,,,,,,1,,,,,,,,,,,,,,,,,,,,,,,,,,,,,,,,,,,,,25,bisagra,,,,,336.7159,338.3321,0,0,1.0991,,0,23,23,24,1,REAL,FAKE,,,,,,,,,,,,,,,,,
,,,,,,,,,61141ef53317a3f90b098b66,spanish,13 or older,"no, only English or Spanish",no,2025-07-24_10h24.37.246,empathy_intonation_perc_control,2024.2.4,MacIntel,59.88023952,61141ef53317a3f90b098b66,68817205a84113384fffdfe3,688241fef4eda33f13a8a307,,,,,,,,,,,,,0,,,,,,,,,,,,,,,,,,,,,,,,,,,,,,,,,,,,,70,temblo,,,,,338.3325,339.8317,0,1,0.9989,,0,24,24,69,1,REAL,FAKE,,,,,,,,,,,,,,,,,
,,,,,,,,,61141ef53317a3f90b098b66,spanish,13 or older,"no, only English or Spanish",no,2025-07-24_10h24.37.246,empathy_intonation_perc_control,2024.2.4,MacIntel,59.88023952,61141ef53317a3f90b098b66,68817205a84113384fffdfe3,688241fef4eda33f13a8a307,,,,,,,,,,,,,1,,,,,,,,,,,,,,,,,,,,,,,,,,,,,,,,,,,,,83,guante,,,,,339.832,341.3987,0,0,1.0655,,0,25,25,82,1,REAL,FAKE,,,,,,,,,,,,,,,,,
,,,,,,,,,61141ef53317a3f90b098b66,spanish,13 or older,"no, only English or Spanish",no,2025-07-24_10h24.37.246,empathy_intonation_perc_control,2024.2.4,MacIntel,59.88023952,61141ef53317a3f90b098b66,68817205a84113384fffdfe3,688241fef4eda33f13a8a307,,,,,,,,,,,,,1,,,,,,,,,,,,,,,,,,,,,,,,,,,,,,,,,,,,,55,nevar,,,,,341.3991,342.8322,1,1,0.9157,,0,26,26,54,1,REAL,FAKE,,,,,,,,,,,,,,,,,
,,,,,,,,,61141ef53317a3f90b098b66,spanish,13 or older,"no, only English or Spanish",no,2025-07-24_10h24.37.246,empathy_intonation_perc_control,2024.2.4,MacIntel,59.88023952,61141ef53317a3f90b098b66,68817205a84113384fffdfe3,688241fef4eda33f13a8a307,,,,,,,,,,,,,1,,,,,,,,,,,,,,,,,,,,,,,,,,,,,,,,,,,,,6,tergiversar,,,,,342.8325,345.1318,0,0,1.7826,,0,27,27,5,1,REAL,FAKE,,,,,,,,,,,,,,,,,
,,,,,,,,,61141ef53317a3f90b098b66,spanish,13 or older,"no, only English or Spanish",no,2025-07-24_10h24.37.246,empathy_intonation_perc_control,2024.2.4,MacIntel,59.88023952,61141ef53317a3f90b098b66,68817205a84113384fffdfe3,688241fef4eda33f13a8a307,,,,,,,,,,,,,1,,,,,,,,,,,,,,,,,,,,,,,,,,,,,,,,,,,,,20,ávido,,,,,345.1322,347.1487,1,1,1.5108,,0,28,28,19,1,REAL,FAKE,,,,,,,,,,,,,,,,,
,,,,,,,,,61141ef53317a3f90b098b66,spanish,13 or older,"no, only English or Spanish",no,2025-07-24_10h24.37.246,empathy_intonation_perc_control,2024.2.4,MacIntel,59.88023952,61141ef53317a3f90b098b66,68817205a84113384fffdfe3,688241fef4eda33f13a8a307,,,,,,,,,,,,,1,,,,,,,,,,,,,,,,,,,,,,,,,,,,,,,,,,,,,77,tiburón,,,,,347.1493,348.7655,0,0,1.0995,,0,29,29,76,1,REAL,FAKE,,,,,,,,,,,,,,,,,
,,,,,,,,,61141ef53317a3f90b098b66,spanish,13 or older,"no, only English or Spanish",no,2025-07-24_10h24.37.246,empathy_intonation_perc_control,2024.2.4,MacIntel,59.88023952,61141ef53317a3f90b098b66,68817205a84113384fffdfe3,688241fef4eda33f13a8a307,,,,,,,,,,,,,1,,,,,,,,,,,,,,,,,,,,,,,,,,,,,,,,,,,,,56,musgo,,,,,348.7661,350.1822,0,0,0.8991,,0,30,30,55,1,REAL,FAKE,,,,,,,,,,,,,,,,,
,,,,,,,,,61141ef53317a3f90b098b66,spanish,13 or older,"no, only English or Spanish",no,2025-07-24_10h24.37.246,empathy_intonation_perc_control,2024.2.4,MacIntel,59.88023952,61141ef53317a3f90b098b66,68817205a84113384fffdfe3,688241fef4eda33f13a8a307,,,,,,,,,,,,,1,,,,,,,,,,,,,,,,,,,,,,,,,,,,,,,,,,,,,52,camisa,,,,,350.1828,352.0813,1,1,1.3815,,0,31,31,51,1,REAL,FAKE,,,,,,,,,,,,,,,,,
,,,,,,,,,61141ef53317a3f90b098b66,spanish,13 or older,"no, only English or Spanish",no,2025-07-24_10h24.37.246,empathy_intonation_perc_control,2024.2.4,MacIntel,59.88023952,61141ef53317a3f90b098b66,68817205a84113384fffdfe3,688241fef4eda33f13a8a307,,,,,,,,,,,,,1,,,,,,,,,,,,,,,,,,,,,,,,,,,,,,,,,,,,,68,alegre,,,,,352.0819,353.5154,0,0,0.9325,,0,32,32,67,1,REAL,FAKE,,,,,,,,,,,,,,,,,
,,,,,,,,,61141ef53317a3f90b098b66,spanish,13 or older,"no, only English or Spanish",no,2025-07-24_10h24.37.246,empathy_intonation_perc_control,2024.2.4,MacIntel,59.88023952,61141ef53317a3f90b098b66,68817205a84113384fffdfe3,688241fef4eda33f13a8a307,,,,,,,,,,,,,1,,,,,,,,,,,,,,,,,,,,,,,,,,,,,,,,,,,,,36,loro,,,,,353.5159,355.2155,0,0,1.1827,,0,33,33,35,1,REAL,FAKE,,,,,,,,,,,,,,,,,
,,,,,,,,,61141ef53317a3f90b098b66,spanish,13 or older,"no, only English or Spanish",no,2025-07-24_10h24.37.246,empathy_intonation_perc_control,2024.2.4,MacIntel,59.88023952,61141ef53317a3f90b098b66,68817205a84113384fffdfe3,688241fef4eda33f13a8a307,,,,,,,,,,,,,1,,,,,,,,,,,,,,,,,,,,,,,,,,,,,,,,,,,,,34,aviso,,,,,355.2161,356.7158,0,0,0.9827,,0,34,34,33,1,REAL,FAKE,,,,,,,,,,,,,,,,,
,,,,,,,,,61141ef53317a3f90b098b66,spanish,13 or older,"no, only English or Spanish",no,2025-07-24_10h24.37.246,empathy_intonation_perc_control,2024.2.4,MacIntel,59.88023952,61141ef53317a3f90b098b66,68817205a84113384fffdfe3,688241fef4eda33f13a8a307,,,,,,,,,,,,,1,,,,,,,,,,,,,,,,,,,,,,,,,,,,,,,,,,,,,22,lacayo,,,,,356.7163,358.3322,0,0,1.0989,,0,35,35,21,1,REAL,FAKE,,,,,,,,,,,,,,,,,
,,,,,,,,,61141ef53317a3f90b098b66,spanish,13 or older,"no, only English or Spanish",no,2025-07-24_10h24.37.246,empathy_intonation_perc_control,2024.2.4,MacIntel,59.88023952,61141ef53317a3f90b098b66,68817205a84113384fffdfe3,688241fef4eda33f13a8a307,,,,,,,,,,,,,0,,,,,,,,,,,,,,,,,,,,,,,,,,,,,,,,,,,,,27,acutación,,,,,358.3328,360.0656,1,0,1.2157,,0,36,36,26,1,REAL,FAKE,,,,,,,,,,,,,,,,,
,,,,,,,,,61141ef53317a3f90b098b66,spanish,13 or older,"no, only English or Spanish",no,2025-07-24_10h24.37.246,empathy_intonation_perc_control,2024.2.4,MacIntel,59.88023952,61141ef53317a3f90b098b66,68817205a84113384fffdfe3,688241fef4eda33f13a8a307,,,,,,,,,,,,,1,,,,,,,,,,,,,,,,,,,,,,,,,,,,,,,,,,,,,39,torpe,,,,,360.0662,361.7324,0,0,1.1493,,0,37,37,38,1,REAL,FAKE,,,,,,,,,,,,,,,,,
,,,,,,,,,61141ef53317a3f90b098b66,spanish,13 or older,"no, only English or Spanish",no,2025-07-24_10h24.37.246,empathy_intonation_perc_control,2024.2.4,MacIntel,59.88023952,61141ef53317a3f90b098b66,68817205a84113384fffdfe3,688241fef4eda33f13a8a307,,,,,,,,,,,,,0,,,,,,,,,,,,,,,,,,,,,,,,,,,,,,,,,,,,,18,arsa,,,,,361.7329,363.4657,0,1,1.2159,,0,38,38,17,1,REAL,FAKE,,,,,,,,,,,,,,,,,
,,,,,,,,,61141ef53317a3f90b098b66,spanish,13 or older,"no, only English or Spanish",no,2025-07-24_10h24.37.246,empathy_intonation_perc_control,2024.2.4,MacIntel,59.88023952,61141ef53317a3f90b098b66,68817205a84113384fffdfe3,688241fef4eda33f13a8a307,,,,,,,,,,,,,1,,,,,,,,,,,,,,,,,,,,,,,,,,,,,,,,,,,,,57,tacaño,,,,,363.4661,365.2822,0,0,1.2991,,0,39,39,56,1,REAL,FAKE,,,,,,,,,,,,,,,,,
,,,,,,,,,61141ef53317a3f90b098b66,spanish,13 or older,"no, only English or Spanish",no,2025-07-24_10h24.37.246,empathy_intonation_perc_control,2024.2.4,MacIntel,59.88023952,61141ef53317a3f90b098b66,68817205a84113384fffdfe3,688241fef4eda33f13a8a307,,,,,,,,,,,,,1,,,,,,,,,,,,,,,,,,,,,,,,,,,,,,,,,,,,,90,clavel,,,,,365.2827,366.8992,0,0,1.0995,,0,40,40,89,1,REAL,FAKE,,,,,,,,,,,,,,,,,
,,,,,,,,,61141ef53317a3f90b098b66,spanish,13 or older,"no, only English or Spanish",no,2025-07-24_10h24.37.246,empathy_intonation_perc_control,2024.2.4,MacIntel,59.88023952,61141ef53317a3f90b098b66,68817205a84113384fffdfe3,688241fef4eda33f13a8a307,,,,,,,,,,,,,1,,,,,,,,,,,,,,,,,,,,,,,,,,,,,,,,,,,,,73,hervidor,,,,,366.8995,368.7992,0,0,1.3827,,0,41,41,72,1,REAL,FAKE,,,,,,,,,,,,,,,,,
,,,,,,,,,61141ef53317a3f90b098b66,spanish,13 or older,"no, only English or Spanish",no,2025-07-24_10h24.37.246,empathy_intonation_perc_control,2024.2.4,MacIntel,59.88023952,61141ef53317a3f90b098b66,68817205a84113384fffdfe3,688241fef4eda33f13a8a307,,,,,,,,,,,,,0,,,,,,,,,,,,,,,,,,,,,,,,,,,,,,,,,,,,,21,capillo,,,,,368.7997,370.3655,0,1,1.0491,,0,42,42,20,1,REAL,FAKE,,,,,,,,,,,,,,,,,
,,,,,,,,,61141ef53317a3f90b098b66,spanish,13 or older,"no, only English or Spanish",no,2025-07-24_10h24.37.246,empathy_intonation_perc_control,2024.2.4,MacIntel,59.88023952,61141ef53317a3f90b098b66,68817205a84113384fffdfe3,688241fef4eda33f13a8a307,,,,,,,,,,,,,1,,,,,,,,,,,,,,,,,,,,,,,,,,,,,,,,,,,,,24,látigo,,,,,370.3661,372.1324,0,0,1.2492,,0,43,43,23,1,REAL,FAKE,,,,,,,,,,,,,,,,,
,,,,,,,,,61141ef53317a3f90b098b66,spanish,13 or older,"no, only English or Spanish",no,2025-07-24_10h24.37.246,empathy_intonation_perc_control,2024.2.4,MacIntel,59.88023952,61141ef53317a3f90b098b66,68817205a84113384fffdfe3,688241fef4eda33f13a8a307,,,,,,,,,,,,,1,,,,,,,,,,,,,,,,,,,,,,,,,,,,,,,,,,,,,91,click the 1 key.,,,,,372.1329,373.9663,1,1,1.3158,,0,44,44,90,1,REAL,FAKE,,,,,,,,,,,,,,,,,
,,,,,,,,,61141ef53317a3f90b098b66,spanish,13 or older,"no, only English or Spanish",no,2025-07-24_10h24.37.246,empathy_intonation_perc_control,2024.2.4,MacIntel,59.88023952,61141ef53317a3f90b098b66,68817205a84113384fffdfe3,688241fef4eda33f13a8a307,,,,,,,,,,,,,1,,,,,,,,,,,,,,,,,,,,,,,,,,,,,,,,,,,,,2,pellizcar,,,,,373.9666,375.9822,0,0,1.4993,,0,45,45,1,1,REAL,FAKE,,,,,,,,,,,,,,,,,
,,,,,,,,,61141ef53317a3f90b098b66,spanish,13 or older,"no, only English or Spanish",no,2025-07-24_10h24.37.246,empathy_intonation_perc_control,2024.2.4,MacIntel,59.88023952,61141ef53317a3f90b098b66,68817205a84113384fffdfe3,688241fef4eda33f13a8a307,,,,,,,,,,,,,0,,,,,,,,,,,,,,,,,,,,,,,,,,,,,,,,,,,,,79,tropaje,,,,,375.9828,377.4158,0,1,0.9159,,0,46,46,78,1,REAL,FAKE,,,,,,,,,,,,,,,,,
,,,,,,,,,61141ef53317a3f90b098b66,spanish,13 or older,"no, only English or Spanish",no,2025-07-24_10h24.37.246,empathy_intonation_perc_control,2024.2.4,MacIntel,59.88023952,61141ef53317a3f90b098b66,68817205a84113384fffdfe3,688241fef4eda33f13a8a307,,,,,,,,,,,,,1,,,,,,,,,,,,,,,,,,,,,,,,,,,,,,,,,,,,,26,secuestro,,,,,377.4163,378.9989,0,0,1.0656,,0,47,47,25,1,REAL,FAKE,,,,,,,,,,,,,,,,,
,,,,,,,,,61141ef53317a3f90b098b66,spanish,13 or older,"no, only English or Spanish",no,2025-07-24_10h24.37.246,empathy_intonation_perc_control,2024.2.4,MacIntel,59.88023952,61141ef53317a3f90b098b66,68817205a84113384fffdfe3,688241fef4eda33f13a8a307,,,,,,,,,,,,,0,,,,,,,,,,,,,,,,,,,,,,,,,,,,,,,,,,,,,17,floroso,,,,,378.9994,380.6655,0,1,1.1492,,0,48,48,16,1,REAL,FAKE,,,,,,,,,,,,,,,,,
,,,,,,,,,61141ef53317a3f90b098b66,spanish,13 or older,"no, only English or Spanish",no,2025-07-24_10h24.37.246,empathy_intonation_perc_control,2024.2.4,MacIntel,59.88023952,61141ef53317a3f90b098b66,68817205a84113384fffdfe3,688241fef4eda33f13a8a307,,,,,,,,,,,,,1,,,,,,,,,,,,,,,,,,,,,,,,,,,,,,,,,,,,,44,cuchara,,,,,380.666,382.1326,1,1,0.9494,,0,49,49,43,1,REAL,FAKE,,,,,,,,,,,,,,,,,
,,,,,,,,,61141ef53317a3f90b098b66,spanish,13 or older,"no, only English or Spanish",no,2025-07-24_10h24.37.246,empathy_intonation_perc_control,2024.2.4,MacIntel,59.88023952,61141ef53317a3f90b098b66,68817205a84113384fffdfe3,688241fef4eda33f13a8a307,,,,,,,,,,,,,0,,,,,,,,,,,,,,,,,,,,,,,,,,,,,,,,,,,,,66,hacido,,,,,382.133,383.5158,1,0,0.8659,,0,50,50,65,1,REAL,FAKE,,,,,,,,,,,,,,,,,
,,,,,,,,,61141ef53317a3f90b098b66,spanish,13 or older,"no, only English or Spanish",no,2025-07-24_10h24.37.246,empathy_intonation_perc_control,2024.2.4,MacIntel,59.88023952,61141ef53317a3f90b098b66,68817205a84113384fffdfe3,688241fef4eda33f13a8a307,,,,,,,,,,,,,0,,,,,,,,,,,,,,,,,,,,,,,,,,,,,,,,,,,,,92,click the 0 key.,,,,,383.5164,384.8157,0,1,0.7826,,0,51,51,91,1,REAL,FAKE,,,,,,,,,,,,,,,,,
,,,,,,,,,61141ef53317a3f90b098b66,spanish,13 or older,"no, only English or Spanish",no,2025-07-24_10h24.37.246,empathy_intonation_perc_control,2024.2.4,MacIntel,59.88023952,61141ef53317a3f90b098b66,68817205a84113384fffdfe3,688241fef4eda33f13a8a307,,,,,,,,,,,,,1,,,,,,,,,,,,,,,,,,,,,,,,,,,,,,,,,,,,,12,asesinato,,,,,384.8162,386.2655,0,0,0.9326,,0,52,52,11,1,REAL,FAKE,,,,,,,,,,,,,,,,,
,,,,,,,,,61141ef53317a3f90b098b66,spanish,13 or older,"no, only English or Spanish",no,2025-07-24_10h24.37.246,empathy_intonation_perc_control,2024.2.4,MacIntel,59.88023952,61141ef53317a3f90b098b66,68817205a84113384fffdfe3,688241fef4eda33f13a8a307,,,,,,,,,,,,,0,,,,,,,,,,,,,,,,,,,,,,,,,,,,,,,,,,,,,82,empirador,,,,,386.2661,387.8657,1,0,1.0826,,0,53,53,81,1,REAL,FAKE,,,,,,,,,,,,,,,,,
,,,,,,,,,61141ef53317a3f90b098b66,spanish,13 or older,"no, only English or Spanish",no,2025-07-24_10h24.37.246,empathy_intonation_perc_control,2024.2.4,MacIntel,59.88023952,61141ef53317a3f90b098b66,68817205a84113384fffdfe3,688241fef4eda33f13a8a307,,,,,,,,,,,,,1,,,,,,,,,,,,,,,,,,,,,,,,,,,,,,,,,,,,,11,cenefa,,,,,387.8661,389.0991,0,0,0.7158,,0,54,54,10,1,REAL,FAKE,,,,,,,,,,,,,,,,,
,,,,,,,,,61141ef53317a3f90b098b66,spanish,13 or older,"no, only English or Spanish",no,2025-07-24_10h24.37.246,empathy_intonation_perc_control,2024.2.4,MacIntel,59.88023952,61141ef53317a3f90b098b66,68817205a84113384fffdfe3,688241fef4eda33f13a8a307,,,,,,,,,,,,,0,,,,,,,,,,,,,,,,,,,,,,,,,,,,,,,,,,,,,32,fatacidad,,,,,389.0995,390.8989,0,1,1.2826,,0,55,55,31,1,REAL,FAKE,,,,,,,,,,,,,,,,,
,,,,,,,,,61141ef53317a3f90b098b66,spanish,13 or older,"no, only English or Spanish",no,2025-07-24_10h24.37.246,empathy_intonation_perc_control,2024.2.4,MacIntel,59.88023952,61141ef53317a3f90b098b66,68817205a84113384fffdfe3,688241fef4eda33f13a8a307,,,,,,,,,,,,,0,,,,,,,,,,,,,,,,,,,,,,,,,,,,,,,,,,,,,4,batillón,,,,,390.8993,392.6156,1,0,1.1994,,0,56,56,3,1,REAL,FAKE,,,,,,,,,,,,,,,,,
,,,,,,,,,61141ef53317a3f90b098b66,spanish,13 or older,"no, only English or Spanish",no,2025-07-24_10h24.37.246,empathy_intonation_perc_control,2024.2.4,MacIntel,59.88023952,61141ef53317a3f90b098b66,68817205a84113384fffdfe3,688241fef4eda33f13a8a307,,,,,,,,,,,,,0,,,,,,,,,,,,,,,,,,,,,,,,,,,,,,,,,,,,,10,antar,,,,,392.6159,394.2988,1,0,1.1659,,0,57,57,9,1,REAL,FAKE,,,,,,,,,,,,,,,,,
,,,,,,,,,61141ef53317a3f90b098b66,spanish,13 or older,"no, only English or Spanish",no,2025-07-24_10h24.37.246,empathy_intonation_perc_control,2024.2.4,MacIntel,59.88023952,61141ef53317a3f90b098b66,68817205a84113384fffdfe3,688241fef4eda33f13a8a307,,,,,,,,,,,,,1,,,,,,,,,,,,,,,,,,,,,,,,,,,,,,,,,,,,,69,engatusar,,,,,394.2992,396.0988,0,0,1.2991,,0,58,58,68,1,REAL,FAKE,,,,,,,,,,,,,,,,,
,,,,,,,,,61141ef53317a3f90b098b66,spanish,13 or older,"no, only English or Spanish",no,2025-07-24_10h24.37.246,empathy_intonation_perc_control,2024.2.4,MacIntel,59.88023952,61141ef53317a3f90b098b66,68817205a84113384fffdfe3,688241fef4eda33f13a8a307,,,,,,,,,,,,,1,,,,,,,,,,,,,,,,,,,,,,,,,,,,,,,,,,,,,7,pésimo,,,,,396.0992,398.0155,1,1,1.3992,,0,59,59,6,1,REAL,FAKE,,,,,,,,,,,,,,,,,
,,,,,,,,,61141ef53317a3f90b098b66,spanish,13 or older,"no, only English or Spanish",no,2025-07-24_10h24.37.246,empathy_intonation_perc_control,2024.2.4,MacIntel,59.88023952,61141ef53317a3f90b098b66,68817205a84113384fffdfe3,688241fef4eda33f13a8a307,,,,,,,,,,,,,1,,,,,,,,,,,,,,,,,,,,,,,,,,,,,,,,,,,,,15,regar,,,,,398.0158,399.3322,0,0,0.8159,,0,60,60,14,1,REAL,FAKE,,,,,,,,,,,,,,,,,
,,,,,,,,,61141ef53317a3f90b098b66,spanish,13 or older,"no, only English or Spanish",no,2025-07-24_10h24.37.246,empathy_intonation_perc_control,2024.2.4,MacIntel,59.88023952,61141ef53317a3f90b098b66,68817205a84113384fffdfe3,688241fef4eda33f13a8a307,,,,,,,,,,,,,1,,,,,,,,,,,,,,,,,,,,,,,,,,,,,,,,,,,,,41,rebuscar,,,,,399.3326,401.2847,1,1,1.4348,,0,61,61,40,1,REAL,FAKE,,,,,,,,,,,,,,,,,
,,,,,,,,,61141ef53317a3f90b098b66,spanish,13 or older,"no, only English or Spanish",no,2025-07-24_10h24.37.246,empathy_intonation_perc_control,2024.2.4,MacIntel,59.88023952,61141ef53317a3f90b098b66,68817205a84113384fffdfe3,688241fef4eda33f13a8a307,,,,,,,,,,,,,1,,,,,,,,,,,,,,,,,,,,,,,,,,,,,,,,,,,,,89,prisa,,,,,401.2851,402.916,1,1,1.1162,,0,62,62,88,1,REAL,FAKE,,,,,,,,,,,,,,,,,
,,,,,,,,,61141ef53317a3f90b098b66,spanish,13 or older,"no, only English or Spanish",no,2025-07-24_10h24.37.246,empathy_intonation_perc_control,2024.2.4,MacIntel,59.88023952,61141ef53317a3f90b098b66,68817205a84113384fffdfe3,688241fef4eda33f13a8a307,,,,,,,,,,,,,1,,,,,,,,,,,,,,,,,,,,,,,,,,,,,,,,,,,,,31,pandilla,,,,,402.9165,405.2155,0,0,1.7824,,0,63,63,30,1,REAL,FAKE,,,,,,,,,,,,,,,,,
,,,,,,,,,61141ef53317a3f90b098b66,spanish,13 or older,"no, only English or Spanish",no,2025-07-24_10h24.37.246,empathy_intonation_perc_control,2024.2.4,MacIntel,59.88023952,61141ef53317a3f90b098b66,68817205a84113384fffdfe3,688241fef4eda33f13a8a307,,,,,,,,,,,,,1,,,,,,,,,,,,,,,,,,,,,,,,,,,,,,,,,,,,,45,jilguero,,,,,405.2161,406.4989,0,0,0.7657,,0,64,64,44,1,REAL,FAKE,,,,,,,,,,,,,,,,,
,,,,,,,,,61141ef53317a3f90b098b66,spanish,13 or older,"no, only English or Spanish",no,2025-07-24_10h24.37.246,empathy_intonation_perc_control,2024.2.4,MacIntel,59.88023952,61141ef53317a3f90b098b66,68817205a84113384fffdfe3,688241fef4eda33f13a8a307,,,,,,,,,,,,,1,,,,,,,,,,,,,,,,,,,,,,,,,,,,,,,,,,,,,9,hacha,,,,,406.4994,407.9491,0,0,0.9326,,0,65,65,8,1,REAL,FAKE,,,,,,,,,,,,,,,,,
,,,,,,,,,61141ef53317a3f90b098b66,spanish,13 or older,"no, only English or Spanish",no,2025-07-24_10h24.37.246,empathy_intonation_perc_control,2024.2.4,MacIntel,59.88023952,61141ef53317a3f90b098b66,68817205a84113384fffdfe3,688241fef4eda33f13a8a307,,,,,,,,,,,,,0,,,,,,,,,,,,,,,,,,,,,,,,,,,,,,,,,,,,,72,pemición,,,,,407.9495,409.3826,0,1,0.916,,0,66,66,71,1,REAL,FAKE,,,,,,,,,,,,,,,,,
,,,,,,,,,61141ef53317a3f90b098b66,spanish,13 or older,"no, only English or Spanish",no,2025-07-24_10h24.37.246,empathy_intonation_perc_control,2024.2.4,MacIntel,59.88023952,61141ef53317a3f90b098b66,68817205a84113384fffdfe3,688241fef4eda33f13a8a307,,,,,,,,,,,,,0,,,,,,,,,,,,,,,,,,,,,,,,,,,,,,,,,,,,,87,grodo,,,,,409.383,410.9488,0,1,1.049,,0,67,67,86,1,REAL,FAKE,,,,,,,,,,,,,,,,,
,,,,,,,,,61141ef53317a3f90b098b66,spanish,13 or older,"no, only English or Spanish",no,2025-07-24_10h24.37.246,empathy_intonation_perc_control,2024.2.4,MacIntel,59.88023952,61141ef53317a3f90b098b66,68817205a84113384fffdfe3,688241fef4eda33f13a8a307,,,,,,,,,,,,,1,,,,,,,,,,,,,,,,,,,,,,,,,,,,,,,,,,,,,65,bizcocho,,,,,410.9494,412.649,0,0,1.1825,,0,68,68,64,1,REAL,FAKE,,,,,,,,,,,,,,,,,
,,,,,,,,,61141ef53317a3f90b098b66,spanish,13 or older,"no, only English or Spanish",no,2025-07-24_10h24.37.246,empathy_intonation_perc_control,2024.2.4,MacIntel,59.88023952,61141ef53317a3f90b098b66,68817205a84113384fffdfe3,688241fef4eda33f13a8a307,,,,,,,,,,,,,1,,,,,,,,,,,,,,,,,,,,,,,,,,,,,,,,,,,,,88,acantilado,,,,,412.6495,414.3827,0,0,1.2162,,0,69,69,87,1,REAL,FAKE,,,,,,,,,,,,,,,,,
,,,,,,,,,61141ef53317a3f90b098b66,spanish,13 or older,"no, only English or Spanish",no,2025-07-24_10h24.37.246,empathy_intonation_perc_control,2024.2.4,MacIntel,59.88023952,61141ef53317a3f90b098b66,68817205a84113384fffdfe3,688241fef4eda33f13a8a307,,,,,,,,,,,,,1,,,,,,,,,,,,,,,,,,,,,,,,,,,,,,,,,,,,,61,seda,,,,,414.3831,415.9323,0,0,1.0324,,0,70,70,60,1,REAL,FAKE,,,,,,,,,,,,,,,,,
,,,,,,,,,61141ef53317a3f90b098b66,spanish,13 or older,"no, only English or Spanish",no,2025-07-24_10h24.37.246,empathy_intonation_perc_control,2024.2.4,MacIntel,59.88023952,61141ef53317a3f90b098b66,68817205a84113384fffdfe3,688241fef4eda33f13a8a307,,,,,,,,,,,,,0,,,,,,,,,,,,,,,,,,,,,,,,,,,,,,,,,,,,,47,cartinar,,,,,415.9329,417.4988,1,0,1.0646,,0,71,71,46,1,REAL,FAKE,,,,,,,,,,,,,,,,,
,,,,,,,,,61141ef53317a3f90b098b66,spanish,13 or older,"no, only English or Spanish",no,2025-07-24_10h24.37.246,empathy_intonation_perc_control,2024.2.4,MacIntel,59.88023952,61141ef53317a3f90b098b66,68817205a84113384fffdfe3,688241fef4eda33f13a8a307,,,,,,,,,,,,,1,,,,,,,,,,,,,,,,,,,,,,,,,,,,,,,,,,,,,76,atar,,,,,417.4994,418.7323,0,0,0.7157,,0,72,72,75,1,REAL,FAKE,,,,,,,,,,,,,,,,,
,,,,,,,,,61141ef53317a3f90b098b66,spanish,13 or older,"no, only English or Spanish",no,2025-07-24_10h24.37.246,empathy_intonation_perc_control,2024.2.4,MacIntel,59.88023952,61141ef53317a3f90b098b66,68817205a84113384fffdfe3,688241fef4eda33f13a8a307,,,,,,,,,,,,,1,,,,,,,,,,,,,,,,,,,,,,,,,,,,,,,,,,,,,49,ganar,,,,,418.7328,419.9655,0,0,0.7157,,0,73,73,48,1,REAL,FAKE,,,,,,,,,,,,,,,,,
,,,,,,,,,61141ef53317a3f90b098b66,spanish,13 or older,"no, only English or Spanish",no,2025-07-24_10h24.37.246,empathy_intonation_perc_control,2024.2.4,MacIntel,59.88023952,61141ef53317a3f90b098b66,68817205a84113384fffdfe3,688241fef4eda33f13a8a307,,,,,,,,,,,,,1,,,,,,,,,,,,,,,,,,,,,,,,,,,,,,,,,,,,,67,cabello,,,,,419.966,421.4322,1,1,0.9657,,0,74,74,66,1,REAL,FAKE,,,,,,,,,,,,,,,,,
,,,,,,,,,61141ef53317a3f90b098b66,spanish,13 or older,"no, only English or Spanish",no,2025-07-24_10h24.37.246,empathy_intonation_perc_control,2024.2.4,MacIntel,59.88023952,61141ef53317a3f90b098b66,68817205a84113384fffdfe3,688241fef4eda33f13a8a307,,,,,,,,,,,,,1,,,,,,,,,,,,,,,,,,,,,,,,,,,,,,,,,,,,,3,pulmones,,,,,421.4329,423.2324,0,0,1.2825,,0,75,75,2,1,REAL,FAKE,,,,,,,,,,,,,,,,,
,,,,,,,,,61141ef53317a3f90b098b66,spanish,13 or older,"no, only English or Spanish",no,2025-07-24_10h24.37.246,empathy_intonation_perc_control,2024.2.4,MacIntel,59.88023952,61141ef53317a3f90b098b66,68817205a84113384fffdfe3,688241fef4eda33f13a8a307,,,,,,,,,,,,,1,,,,,,,,,,,,,,,,,,,,,,,,,,,,,,,,,,,,,38,estornudar,,,,,423.233,424.9328,0,0,1.1828,,0,76,76,37,1,REAL,FAKE,,,,,,,,,,,,,,,,,
,,,,,,,,,61141ef53317a3f90b098b66,spanish,13 or older,"no, only English or Spanish",no,2025-07-24_10h24.37.246,empathy_intonation_perc_control,2024.2.4,MacIntel,59.88023952,61141ef53317a3f90b098b66,68817205a84113384fffdfe3,688241fef4eda33f13a8a307,,,,,,,,,,,,,0,,,,,,,,,,,,,,,,,,,,,,,,,,,,,,,,,,,,,58,plaudir,,,,,424.9331,426.5321,0,1,1.0825,,0,77,77,57,1,REAL,FAKE,,,,,,,,,,,,,,,,,
,,,,,,,,,61141ef53317a3f90b098b66,spanish,13 or older,"no, only English or Spanish",no,2025-07-24_10h24.37.246,empathy_intonation_perc_control,2024.2.4,MacIntel,59.88023952,61141ef53317a3f90b098b66,68817205a84113384fffdfe3,688241fef4eda33f13a8a307,,,,,,,,,,,,,1,,,,,,,,,,,,,,,,,,,,,,,,,,,,,,,,,,,,,86,barato,,,,,426.5327,428.299,0,0,1.2491,,0,78,78,85,1,REAL,FAKE,,,,,,,,,,,,,,,,,
,,,,,,,,,61141ef53317a3f90b098b66,spanish,13 or older,"no, only English or Spanish",no,2025-07-24_10h24.37.246,empathy_intonation_perc_control,2024.2.4,MacIntel,59.88023952,61141ef53317a3f90b098b66,68817205a84113384fffdfe3,688241fef4eda33f13a8a307,,,,,,,,,,,,,0,,,,,,,,,,,,,,,,,,,,,,,,,,,,,,,,,,,,,30,alardio,,,,,428.2995,430.0989,0,1,1.2823,,0,79,79,29,1,REAL,FAKE,,,,,,,,,,,,,,,,,
,,,,,,,,,61141ef53317a3f90b098b66,spanish,13 or older,"no, only English or Spanish",no,2025-07-24_10h24.37.246,empathy_intonation_perc_control,2024.2.4,MacIntel,59.88023952,61141ef53317a3f90b098b66,68817205a84113384fffdfe3,688241fef4eda33f13a8a307,,,,,,,,,,,,,1,,,,,,,,,,,,,,,,,,,,,,,,,,,,,,,,,,,,,80,hormiga,,,,,430.0994,431.4656,0,0,0.8491,,0,80,80,79,1,REAL,FAKE,,,,,,,,,,,,,,,,,
,,,,,,,,,61141ef53317a3f90b098b66,spanish,13 or older,"no, only English or Spanish",no,2025-07-24_10h24.37.246,empathy_intonation_perc_control,2024.2.4,MacIntel,59.88023952,61141ef53317a3f90b098b66,68817205a84113384fffdfe3,688241fef4eda33f13a8a307,,,,,,,,,,,,,0,,,,,,,,,,,,,,,,,,,,,,,,,,,,,,,,,,,,,53,vegada,,,,,431.4662,433.0657,0,1,1.0825,,0,81,81,52,1,REAL,FAKE,,,,,,,,,,,,,,,,,
,,,,,,,,,61141ef53317a3f90b098b66,spanish,13 or older,"no, only English or Spanish",no,2025-07-24_10h24.37.246,empathy_intonation_perc_control,2024.2.4,MacIntel,59.88023952,61141ef53317a3f90b098b66,68817205a84113384fffdfe3,688241fef4eda33f13a8a307,,,,,,,,,,,,,0,,,,,,,,,,,,,,,,,,,,,,,,,,,,,,,,,,,,,74,cintro,,,,,433.0662,434.5989,0,1,1.0157,,0,82,82,73,1,REAL,FAKE,,,,,,,,,,,,,,,,,
,,,,,,,,,61141ef53317a3f90b098b66,spanish,13 or older,"no, only English or Spanish",no,2025-07-24_10h24.37.246,empathy_intonation_perc_control,2024.2.4,MacIntel,59.88023952,61141ef53317a3f90b098b66,68817205a84113384fffdfe3,688241fef4eda33f13a8a307,,,,,,,,,,,,,1,,,,,,,,,,,,,,,,,,,,,,,,,,,,,,,,,,,,,64,orgulloso,,,,,434.5995,436.0489,0,0,0.9323,,0,83,83,63,1,REAL,FAKE,,,,,,,,,,,,,,,,,
,,,,,,,,,61141ef53317a3f90b098b66,spanish,13 or older,"no, only English or Spanish",no,2025-07-24_10h24.37.246,empathy_intonation_perc_control,2024.2.4,MacIntel,59.88023952,61141ef53317a3f90b098b66,68817205a84113384fffdfe3,688241fef4eda33f13a8a307,,,,,,,,,,,,,1,,,,,,,,,,,,,,,,,,,,,,,,,,,,,,,,,,,,,14,yunque,,,,,436.0495,437.5492,0,0,0.9826,,0,84,84,13,1,REAL,FAKE,,,,,,,,,,,,,,,,,
,,,,,,,,,61141ef53317a3f90b098b66,spanish,13 or older,"no, only English or Spanish",no,2025-07-24_10h24.37.246,empathy_intonation_perc_control,2024.2.4,MacIntel,59.88023952,61141ef53317a3f90b098b66,68817205a84113384fffdfe3,688241fef4eda33f13a8a307,,,,,,,,,,,,,0,,,,,,,,,,,,,,,,,,,,,,,,,,,,,,,,,,,,,23,lampera,,,,,437.5497,438.9324,1,0,0.866,,0,85,85,22,1,REAL,FAKE,,,,,,,,,,,,,,,,,
,,,,,,,,,61141ef53317a3f90b098b66,spanish,13 or older,"no, only English or Spanish",no,2025-07-24_10h24.37.246,empathy_intonation_perc_control,2024.2.4,MacIntel,59.88023952,61141ef53317a3f90b098b66,68817205a84113384fffdfe3,688241fef4eda33f13a8a307,,,,,,,,,,,,,1,,,,,,,,,,,,,,,,,,,,,,,,,,,,,,,,,,,,,85,laúd,,,,,438.9329,440.2655,0,0,0.8155,,0,86,86,84,1,REAL,FAKE,,,,,,,,,,,,,,,,,
,,,,,,,,,61141ef53317a3f90b098b66,spanish,13 or older,"no, only English or Spanish",no,2025-07-24_10h24.37.246,empathy_intonation_perc_control,2024.2.4,MacIntel,59.88023952,61141ef53317a3f90b098b66,68817205a84113384fffdfe3,688241fef4eda33f13a8a307,,,,,,,,,,,,,1,,,,,,,,,,,,,,,,,,,,,,,,,,,,,,,,,,,,,60,matar,,,,,440.2661,441.6822,1,1,0.899,,0,87,87,59,1,REAL,FAKE,,,,,,,,,,,,,,,,,
,,,,,,,,,61141ef53317a3f90b098b66,spanish,13 or older,"no, only English or Spanish",no,2025-07-24_10h24.37.246,empathy_intonation_perc_control,2024.2.4,MacIntel,59.88023952,61141ef53317a3f90b098b66,68817205a84113384fffdfe3,688241fef4eda33f13a8a307,,,,,,,,,,,,,0,,,,,,,,,,,,,,,,,,,,,,,,,,,,,,,,,,,,,42,cadallo,,,,,441.6827,443.3322,0,1,1.1325,,0,88,88,41,1,REAL,FAKE,,,,,,,,,,,,,,,,,
,,,,,,,,,61141ef53317a3f90b098b66,spanish,13 or older,"no, only English or Spanish",no,2025-07-24_10h24.37.246,empathy_intonation_perc_control,2024.2.4,MacIntel,59.88023952,61141ef53317a3f90b098b66,68817205a84113384fffdfe3,688241fef4eda33f13a8a307,,,,,,,,,,,,,1,,,,,,,,,,,,,,,,,,,,,,,,,,,,,,,,,,,,,46,martillo,,,,,443.3328,444.8158,0,0,0.9657,,0,89,89,45,1,REAL,FAKE,,,,,,,,,,,,,,,,,
,,,,,,,,,61141ef53317a3f90b098b66,spanish,13 or older,"no, only English or Spanish",no,2025-07-24_10h24.37.246,empathy_intonation_perc_control,2024.2.4,MacIntel,59.88023952,61141ef53317a3f90b098b66,68817205a84113384fffdfe3,688241fef4eda33f13a8a307,,,,,,,,,,,,,1,,,,,,,,,,,,,,,,,,,,,,,,,,,,,,,,,,,,,75,yacer,,,,,444.8163,446.2155,0,0,0.8825,,0,90,90,74,1,REAL,FAKE,,,,,,,,,,,,,,,,,
,,,,,,,,,61141ef53317a3f90b098b66,spanish,13 or older,"no, only English or Spanish",no,2025-07-24_10h24.37.246,empathy_intonation_perc_control,2024.2.4,MacIntel,59.88023952,61141ef53317a3f90b098b66,68817205a84113384fffdfe3,688241fef4eda33f13a8a307,,,,,,,,,,,,,0,,,,,,,,,,,,,,,,,,,,,,,,,,,,,,,,,,,,,29,decar,,,,,446.2161,447.6155,1,0,0.8823,,0,91,91,28,1,REAL,FAKE,,,,,,,,,,,,,,,,,
,,,,,,,,,61141ef53317a3f90b098b66,spanish,13 or older,"no, only English or Spanish",no,2025-07-24_10h24.37.246,empathy_intonation_perc_control,2024.2.4,MacIntel,59.88023952,61141ef53317a3f90b098b66,68817205a84113384fffdfe3,688241fef4eda33f13a8a307,,,,,,,,,,,,,,,,,,,,,,,,,,,,,,,,,,,,,,,,,,,,,,,,,,,,,,,,,,,,,,,,,,,,,447.6157,454.5024,,,,,,,,,,,,,,,
,,,,,,,,,61141ef53317a3f90b098b66,spanish,13 or older,"no, only English or Spanish",no,2025-07-24_10h24.37.246,empathy_intonation_perc_control,2024.2.4,MacIntel,59.88023952,61141ef53317a3f90b098b66,68817205a84113384fffdfe3,688241fef4eda33f13a8a307,,,,,,,,,,,,,,,,,,,,,,,,,,,1,,,,,,,,,,,,,,,,,,,,,,,,,,,,,,,,,,,,,,,,,,,,454.5064,459.0689,slightly agree,0,0,0,0,1,I can easily tell if someone else wants to enter a conversation.,1,0,1,0,,
,,,,,,,,,61141ef53317a3f90b098b66,spanish,13 or older,"no, only English or Spanish",no,2025-07-24_10h24.37.246,empathy_intonation_perc_control,2024.2.4,MacIntel,59.88023952,61141ef53317a3f90b098b66,68817205a84113384fffdfe3,688241fef4eda33f13a8a307,,,,,,,,,,,,,,,,,,,,,,,,,,,2,,,,,,,,,,,,,,,,,,,,,,,,,,,,,,,,,,,,,,,,,,,,459.0695,461.8553,slightly disagree,0,1,1,1,1,I prefer animals to humans.,0,1,0,0,,
,,,,,,,,,61141ef53317a3f90b098b66,spanish,13 or older,"no, only English or Spanish",no,2025-07-24_10h24.37.246,empathy_intonation_perc_control,2024.2.4,MacIntel,59.88023952,61141ef53317a3f90b098b66,68817205a84113384fffdfe3,688241fef4eda33f13a8a307,,,,,,,,,,,,,,,,,,,,,,,,,,,3,,,,,,,,,,,,,,,,,,,,,,,,,,,,,,,,,,,,,,,,,,,,461.8558,464.2826,slightly agree,0,2,2,2,1,I try to keep up with the current trends and fashions.,0,1,0,0,,
,,,,,,,,,61141ef53317a3f90b098b66,spanish,13 or older,"no, only English or Spanish",no,2025-07-24_10h24.37.246,empathy_intonation_perc_control,2024.2.4,MacIntel,59.88023952,61141ef53317a3f90b098b66,68817205a84113384fffdfe3,688241fef4eda33f13a8a307,,,,,,,,,,,,,,,,,,,,,,,,,,,4,,,,,,,,,,,,,,,,,,,,,,,,,,,,,,,,,,,,,,,,,,,,464.2832,469.0143,slightly disagree,0,3,3,3,1,"I find it difficult to explain to others things that I understand easily,   when they don't understand it first time.",1,0,0,1,,
,,,,,,,,,61141ef53317a3f90b098b66,spanish,13 or older,"no, only English or Spanish",no,2025-07-24_10h24.37.246,empathy_intonation_perc_control,2024.2.4,MacIntel,59.88023952,61141ef53317a3f90b098b66,68817205a84113384fffdfe3,688241fef4eda33f13a8a307,,,,,,,,,,,,,,,,,,,,,,,,,,,5,,,,,,,,,,,,,,,,,,,,,,,,,,,,,,,,,,,,,,,,,,,,469.0148,471.1454,slightly agree,0,4,4,4,1,I dream most nights.,0,1,0,0,,
,,,,,,,,,61141ef53317a3f90b098b66,spanish,13 or older,"no, only English or Spanish",no,2025-07-24_10h24.37.246,empathy_intonation_perc_control,2024.2.4,MacIntel,59.88023952,61141ef53317a3f90b098b66,68817205a84113384fffdfe3,688241fef4eda33f13a8a307,,,,,,,,,,,,,,,,,,,,,,,,,,,6,,,,,,,,,,,,,,,,,,,,,,,,,,,,,,,,,,,,,,,,,,,,471.1459,472.8897,slightly agree,0,5,5,5,1,I really enjoy caring for other people.,1,0,1,0,,
,,,,,,,,,61141ef53317a3f90b098b66,spanish,13 or older,"no, only English or Spanish",no,2025-07-24_10h24.37.246,empathy_intonation_perc_control,2024.2.4,MacIntel,59.88023952,61141ef53317a3f90b098b66,68817205a84113384fffdfe3,688241fef4eda33f13a8a307,,,,,,,,,,,,,,,,,,,,,,,,,,,7,,,,,,,,,,,,,,,,,,,,,,,,,,,,,,,,,,,,,,,,,,,,472.8902,476.6541,strongly agree,0,6,6,6,1,I try to solve my own problems rather than discussing them with others.,0,1,0,0,,
,,,,,,,,,61141ef53317a3f90b098b66,spanish,13 or older,"no, only English or Spanish",no,2025-07-24_10h24.37.246,empathy_intonation_perc_control,2024.2.4,MacIntel,59.88023952,61141ef53317a3f90b098b66,68817205a84113384fffdfe3,688241fef4eda33f13a8a307,,,,,,,,,,,,,,,,,,,,,,,,,,,8,,,,,,,,,,,,,,,,,,,,,,,,,,,,,,,,,,,,,,,,,,,,476.6547,479.5698,slightly disagree,0,7,7,7,1,I find it hard to know what to do in a social situation.,1,0,0,1,,
,,,,,,,,,61141ef53317a3f90b098b66,spanish,13 or older,"no, only English or Spanish",no,2025-07-24_10h24.37.246,empathy_intonation_perc_control,2024.2.4,MacIntel,59.88023952,61141ef53317a3f90b098b66,68817205a84113384fffdfe3,688241fef4eda33f13a8a307,,,,,,,,,,,,,,,,,,,,,,,,,,,9,,,,,,,,,,,,,,,,,,,,,,,,,,,,,,,,,,,,,,,,,,,,479.5702,482.2469,slightly disagree,0,8,8,8,1,I am at my best first thing in the morning.,0,1,0,0,,
,,,,,,,,,61141ef53317a3f90b098b66,spanish,13 or older,"no, only English or Spanish",no,2025-07-24_10h24.37.246,empathy_intonation_perc_control,2024.2.4,MacIntel,59.88023952,61141ef53317a3f90b098b66,68817205a84113384fffdfe3,688241fef4eda33f13a8a307,,,,,,,,,,,,,,,,,,,,,,,,,,,10,,,,,,,,,,,,,,,,,,,,,,,,,,,,,,,,,,,,,,,,,,,,482.2474,487.0996,slightly agree,0,9,9,9,1,People often tell me that I went too far in driving my point home in a discussion.,1,0,0,1,,
,,,,,,,,,61141ef53317a3f90b098b66,spanish,13 or older,"no, only English or Spanish",no,2025-07-24_10h24.37.246,empathy_intonation_perc_control,2024.2.4,MacIntel,59.88023952,61141ef53317a3f90b098b66,68817205a84113384fffdfe3,688241fef4eda33f13a8a307,,,,,,,,,,,,,,,,,,,,,,,,,,,11,,,,,,,,,,,,,,,,,,,,,,,,,,,,,,,,,,,,,,,,,,,,487.1,490.3876,slightly disagree,0,10,10,10,1,It doesn't bother me too much if I am late meeting a friend.,1,0,0,1,,
,,,,,,,,,61141ef53317a3f90b098b66,spanish,13 or older,"no, only English or Spanish",no,2025-07-24_10h24.37.246,empathy_intonation_perc_control,2024.2.4,MacIntel,59.88023952,61141ef53317a3f90b098b66,68817205a84113384fffdfe3,688241fef4eda33f13a8a307,,,,,,,,,,,,,,,,,,,,,,,,,,,12,,,,,,,,,,,,,,,,,,,,,,,,,,,,,,,,,,,,,,,,,,,,490.3882,493.0455,slightly disagree,0,11,11,11,1,"Friendships and relationships are just too difficult, so I tend not to 
  bother with them.",1,0,0,1,,
,,,,,,,,,61141ef53317a3f90b098b66,spanish,13 or older,"no, only English or Spanish",no,2025-07-24_10h24.37.246,empathy_intonation_perc_control,2024.2.4,MacIntel,59.88023952,61141ef53317a3f90b098b66,68817205a84113384fffdfe3,688241fef4eda33f13a8a307,,,,,,,,,,,,,,,,,,,,,,,,,,,13,,,,,,,,,,,,,,,,,,,,,,,,,,,,,,,,,,,,,,,,,,,,493.0459,495.6641,slightly disagree,0,12,12,12,1,"I would never break a law, no matter how minor.",0,1,0,0,,
,,,,,,,,,61141ef53317a3f90b098b66,spanish,13 or older,"no, only English or Spanish",no,2025-07-24_10h24.37.246,empathy_intonation_perc_control,2024.2.4,MacIntel,59.88023952,61141ef53317a3f90b098b66,68817205a84113384fffdfe3,688241fef4eda33f13a8a307,,,,,,,,,,,,,,,,,,,,,,,,,,,14,,,,,,,,,,,,,,,,,,,,,,,,,,,,,,,,,,,,,,,,,,,,495.6645,498.3179,slightly disagree,0,13,13,13,1,I often find it difficult to judge if something is rude or polite.,1,0,0,1,,
,,,,,,,,,61141ef53317a3f90b098b66,spanish,13 or older,"no, only English or Spanish",no,2025-07-24_10h24.37.246,empathy_intonation_perc_control,2024.2.4,MacIntel,59.88023952,61141ef53317a3f90b098b66,68817205a84113384fffdfe3,688241fef4eda33f13a8a307,,,,,,,,,,,,,,,,,,,,,,,,,,,15,,,,,,,,,,,,,,,,,,,,,,,,,,,,,,,,,,,,,,,,,,,,498.3183,501.4994,slightly disagree,0,14,14,14,1,"In a conversation, I tend to focus on my own thoughts rather than on what 
  my listener might be thinking.",1,0,0,1,,
,,,,,,,,,61141ef53317a3f90b098b66,spanish,13 or older,"no, only English or Spanish",no,2025-07-24_10h24.37.246,empathy_intonation_perc_control,2024.2.4,MacIntel,59.88023952,61141ef53317a3f90b098b66,68817205a84113384fffdfe3,688241fef4eda33f13a8a307,,,,,,,,,,,,,,,,,,,,,,,,,,,16,,,,,,,,,,,,,,,,,,,,,,,,,,,,,,,,,,,,,,,,,,,,501.4998,504.2039,slightly disagree,0,15,15,15,1,I prefer practical jokes to verbal humor.,0,1,0,0,,
,,,,,,,,,61141ef53317a3f90b098b66,spanish,13 or older,"no, only English or Spanish",no,2025-07-24_10h24.37.246,empathy_intonation_perc_control,2024.2.4,MacIntel,59.88023952,61141ef53317a3f90b098b66,68817205a84113384fffdfe3,688241fef4eda33f13a8a307,,,,,,,,,,,,,,,,,,,,,,,,,,,17,,,,,,,,,,,,,,,,,,,,,,,,,,,,,,,,,,,,,,,,,,,,504.2044,508.3207,slightly agree,0,16,16,16,1,I live life for today rather than the future.,0,1,0,0,,
,,,,,,,,,61141ef53317a3f90b098b66,spanish,13 or older,"no, only English or Spanish",no,2025-07-24_10h24.37.246,empathy_intonation_perc_control,2024.2.4,MacIntel,59.88023952,61141ef53317a3f90b098b66,68817205a84113384fffdfe3,688241fef4eda33f13a8a307,,,,,,,,,,,,,,,,,,,,,,,,,,,18,,,,,,,,,,,,,,,,,,,,,,,,,,,,,,,,,,,,,,,,,,,,508.3212,511.1265,strongly disagree,0,17,17,17,1,"When I was a child, I enjoyed cutting up worms to see what would happen.",1,0,0,1,,
,,,,,,,,,61141ef53317a3f90b098b66,spanish,13 or older,"no, only English or Spanish",no,2025-07-24_10h24.37.246,empathy_intonation_perc_control,2024.2.4,MacIntel,59.88023952,61141ef53317a3f90b098b66,68817205a84113384fffdfe3,688241fef4eda33f13a8a307,,,,,,,,,,,,,,,,,,,,,,,,,,,19,,,,,,,,,,,,,,,,,,,,,,,,,,,,,,,,,,,,,,,,,,,,511.1274,516.158,slightly agree,0,18,18,18,1,I can pick up quickly if someone says one thing but means another.,1,0,1,0,,
,,,,,,,,,61141ef53317a3f90b098b66,spanish,13 or older,"no, only English or Spanish",no,2025-07-24_10h24.37.246,empathy_intonation_perc_control,2024.2.4,MacIntel,59.88023952,61141ef53317a3f90b098b66,68817205a84113384fffdfe3,688241fef4eda33f13a8a307,,,,,,,,,,,,,,,,,,,,,,,,,,,20,,,,,,,,,,,,,,,,,,,,,,,,,,,,,,,,,,,,,,,,,,,,516.1584,518.8457,slightly agree,0,19,19,19,1,I tend to have very strong opinions about morality.,0,1,0,0,,
,,,,,,,,,61141ef53317a3f90b098b66,spanish,13 or older,"no, only English or Spanish",no,2025-07-24_10h24.37.246,empathy_intonation_perc_control,2024.2.4,MacIntel,59.88023952,61141ef53317a3f90b098b66,68817205a84113384fffdfe3,688241fef4eda33f13a8a307,,,,,,,,,,,,,,,,,,,,,,,,,,,21,,,,,,,,,,,,,,,,,,,,,,,,,,,,,,,,,,,,,,,,,,,,518.8461,523.7288,slightly disagree,0,20,20,20,1,It is hard for me to see why some things upset people so much.,1,0,0,1,,
,,,,,,,,,61141ef53317a3f90b098b66,spanish,13 or older,"no, only English or Spanish",no,2025-07-24_10h24.37.246,empathy_intonation_perc_control,2024.2.4,MacIntel,59.88023952,61141ef53317a3f90b098b66,68817205a84113384fffdfe3,688241fef4eda33f13a8a307,,,,,,,,,,,,,,,,,,,,,,,,,,,22,,,,,,,,,,,,,,,,,,,,,,,,,,,,,,,,,,,,,,,,,,,,523.7291,525.9176,slightly agree,0,21,21,21,1,I find it easy to put myself in somebody else's shoes.,1,0,1,0,,
,,,,,,,,,61141ef53317a3f90b098b66,spanish,13 or older,"no, only English or Spanish",no,2025-07-24_10h24.37.246,empathy_intonation_perc_control,2024.2.4,MacIntel,59.88023952,61141ef53317a3f90b098b66,68817205a84113384fffdfe3,688241fef4eda33f13a8a307,,,,,,,,,,,,,,,,,,,,,,,,,,,23,,,,,,,,,,,,,,,,,,,,,,,,,,,,,,,,,,,,,,,,,,,,525.918,529.3947,slightly agree,0,22,22,22,1,I think that good manners are the most important thing a parent can teach their child.,0,1,0,0,,
