instructions_2afc.started,instructions_2afc.stopped,instructions_2afc_loop.thisRepN,instructions_2afc_loop.thisTrialN,instructions_2afc_loop.thisN,instructions_2afc_loop.thisIndex,instructions_2afc_loop.ran,instructions_text,continue_text,participant_id,"What variety of Spanish are you most familiar with? (e.g., Peruvian, Spanish, Mexican)",At what age did you begin learning Spanish?,Are you proficient in any languages other than English/Spanish?,"Are you familiar with Caribbean (e.g., Caribbean, Puerto Rican) or Galician Spanish?",date,expName,psychopyVersion,OS,frameRate,id,study_id,session,practice_2afc.started,practice_2afc.stopped,key_resp_2afc_practice.keys,key_resp_2afc_practice.corr,key_resp_2afc_practice.rt,key_resp_2afc_practice.duration,trials_2afc_practice_loop.thisRepN,trials_2afc_practice_loop.thisTrialN,trials_2afc_practice_loop.thisN,trials_2afc_practice_loop.thisIndex,trials_2afc_practice_loop.ran,path,correct_response,check_2afc.started,check_2afc.stopped,trial_2afc.started,trial_2afc.stopped,key_resp_2afc_trial.keys,key_resp_2afc_trial.corr,key_resp_2afc_trial.rt,key_resp_2afc_trial.duration,trials_2afc_loop.thisRepN,trials_2afc_loop.thisTrialN,trials_2afc_loop.thisN,trials_2afc_loop.thisIndex,trials_2afc_loop.ran,item_num,target,variety,instructions_lextale.started,instructions_lextale.stopped,instructions_lextale_loop.thisRepN,instructions_lextale_loop.thisTrialN,instructions_lextale_loop.thisN,instructions_lextale_loop.thisIndex,instructions_lextale_loop.ran,practice_lextale.started,practice_lextale.stopped,key_resp_lextale_practice.keys,key_resp_lextale_practice.corr,key_resp_lextale_practice.rt,key_resp_lextale_practice.duration,practice_feedback_lextale.started,practice_feedback_lextale.stopped,trials_lextale_practice_loop.thisRepN,trials_lextale_practice_loop.thisTrialN,trials_lextale_practice_loop.thisN,trials_lextale_practice_loop.thisIndex,trials_lextale_practice_loop.ran,stim,word,prac_button_real,prac_button_false,check_lextale.started,check_lextale.stopped,trial_lextale.started,trial_lextale.stopped,key_resp_lextale_trial.keys,key_resp_lextale_trial.corr,key_resp_lextale_trial.rt,key_resp_lextale_trial.duration,trials_lextale_loop.thisRepN,trials_lextale_loop.thisTrialN,trials_lextale_loop.thisN,trials_lextale_loop.thisIndex,trials_lextale_loop.ran,button_real,button_false,instructions_eq.started,instructions_eq.stopped,trial_eq.started,trial_eq.stopped,slider_eq_trial.response,trials_eq_loop.thisRepN,trials_eq_loop.thisTrialN,trials_eq_loop.thisN,trials_eq_loop.thisIndex,trials_eq_loop.ran,item,is_test_item,is_distractor,is_agree_score,is_disagree_score,end_exp.started,end_exp.stopped
0.0233,8.7477,0,0,0,0,1,"In the following task you are going to hear a series of utterances. 

  You will decide if the utterances sound like questions or not using your keyboard.", (press the spacebar to continue),6131ba00bd67d2702e9a3c8d,spanish,13 or older,"no, only English or Spanish",no,2025-07-23_20h35.34.569,empathy_intonation_perc_control,2024.2.4,MacIntel,58.47953216,6131ba00bd67d2702e9a3c8d,68817205a84113384fffdfe3,68817edcc5291d8a5b38d4bf,,,,,,,,,,,,,,,,,,,,,,,,,,,,,,,,,,,,,,,,,,,,,,,,,,,,,,,,,,,,,,,,,,,,,,,,,,,,,,,,,,,,,
8.749,19.8679,0,1,1,1,1,"If you believe the utterance is a question, type '1' (for 'yes') and if you do not 
  believe it is a question type '0' (for 'no').

  Let's practice a bit...", (press the spacebar to continue),6131ba00bd67d2702e9a3c8d,spanish,13 or older,"no, only English or Spanish",no,2025-07-23_20h35.34.569,empathy_intonation_perc_control,2024.2.4,MacIntel,58.47953216,6131ba00bd67d2702e9a3c8d,68817205a84113384fffdfe3,68817edcc5291d8a5b38d4bf,,,,,,,,,,,,,,,,,,,,,,,,,,,,,,,,,,,,,,,,,,,,,,,,,,,,,,,,,,,,,,,,,,,,,,,,,,,,,,,,,,,,,
,,,,,,,,,6131ba00bd67d2702e9a3c8d,spanish,13 or older,"no, only English or Spanish",no,2025-07-23_20h35.34.569,empathy_intonation_perc_control,2024.2.4,MacIntel,58.47953216,6131ba00bd67d2702e9a3c8d,68817205a84113384fffdfe3,68817edcc5291d8a5b38d4bf,19.8778,23.0195,0,1,2.6193,,0,0,0,7,1,./stim/wavs/puertorican_statement_filler_La-nina-pinta-con-su-amiga.wav,0,,,,,,,,,,,,,,,,,,,,,,,,,,,,,,,,,,,,,,,,,,,,,,,,,,,,,,,,,,,,,,,,,,,,,,,,
,,,,,,,,,6131ba00bd67d2702e9a3c8d,spanish,13 or older,"no, only English or Spanish",no,2025-07-23_20h35.34.569,empathy_intonation_perc_control,2024.2.4,MacIntel,58.47953216,6131ba00bd67d2702e9a3c8d,68817205a84113384fffdfe3,68817edcc5291d8a5b38d4bf,23.0203,26.7377,1,1,3.1908,,0,1,1,2,1,./stim/wavs/chilean_question_filler_Mi-padre-cantaba-bien.wav,1,,,,,,,,,,,,,,,,,,,,,,,,,,,,,,,,,,,,,,,,,,,,,,,,,,,,,,,,,,,,,,,,,,,,,,,,
,,,,,,,,,6131ba00bd67d2702e9a3c8d,spanish,13 or older,"no, only English or Spanish",no,2025-07-23_20h35.34.569,empathy_intonation_perc_control,2024.2.4,MacIntel,58.47953216,6131ba00bd67d2702e9a3c8d,68817205a84113384fffdfe3,68817edcc5291d8a5b38d4bf,26.7381,29.0718,0,1,1.8069,,0,2,2,5,1,./stim/wavs/andalusian_statement_filler_Alberto-nunca-se-afeita.wav,0,,,,,,,,,,,,,,,,,,,,,,,,,,,,,,,,,,,,,,,,,,,,,,,,,,,,,,,,,,,,,,,,,,,,,,,,
,,,,,,,,,6131ba00bd67d2702e9a3c8d,spanish,13 or older,"no, only English or Spanish",no,2025-07-23_20h35.34.569,empathy_intonation_perc_control,2024.2.4,MacIntel,58.47953216,6131ba00bd67d2702e9a3c8d,68817205a84113384fffdfe3,68817edcc5291d8a5b38d4bf,29.0723,32.2735,0,1,2.6852,,0,3,3,4,1,./stim/wavs/cuban_statement_filler_Cocinabas-por-la-noche.wav,0,,,,,,,,,,,,,,,,,,,,,,,,,,,,,,,,,,,,,,,,,,,,,,,,,,,,,,,,,,,,,,,,,,,,,,,,
,,,,,,,,,6131ba00bd67d2702e9a3c8d,spanish,13 or older,"no, only English or Spanish",no,2025-07-23_20h35.34.569,empathy_intonation_perc_control,2024.2.4,MacIntel,58.47953216,6131ba00bd67d2702e9a3c8d,68817205a84113384fffdfe3,68817edcc5291d8a5b38d4bf,32.274,35.5418,0,1,2.753,,0,4,4,6,1,./stim/wavs/peruvian_statement_filler_El-nino-habla-con-su-madre.wav,0,,,,,,,,,,,,,,,,,,,,,,,,,,,,,,,,,,,,,,,,,,,,,,,,,,,,,,,,,,,,,,,,,,,,,,,,
,,,,,,,,,6131ba00bd67d2702e9a3c8d,spanish,13 or older,"no, only English or Spanish",no,2025-07-23_20h35.34.569,empathy_intonation_perc_control,2024.2.4,MacIntel,58.47953216,6131ba00bd67d2702e9a3c8d,68817205a84113384fffdfe3,68817edcc5291d8a5b38d4bf,35.5422,38.043,1,1,1.9681,,0,5,5,1,1,./stim/wavs/argentine_question_filler_Mi-vecino-habla-mucho.wav,1,,,,,,,,,,,,,,,,,,,,,,,,,,,,,,,,,,,,,,,,,,,,,,,,,,,,,,,,,,,,,,,,,,,,,,,,
,,,,,,,,,6131ba00bd67d2702e9a3c8d,spanish,13 or older,"no, only English or Spanish",no,2025-07-23_20h35.34.569,empathy_intonation_perc_control,2024.2.4,MacIntel,58.47953216,6131ba00bd67d2702e9a3c8d,68817205a84113384fffdfe3,68817edcc5291d8a5b38d4bf,38.0434,40.8111,1,1,2.2404,,0,6,6,0,1,./stim/wavs/castilian_question_filler_Mi-esposo-conoce-al-chico.wav,1,,,,,,,,,,,,,,,,,,,,,,,,,,,,,,,,,,,,,,,,,,,,,,,,,,,,,,,,,,,,,,,,,,,,,,,,
,,,,,,,,,6131ba00bd67d2702e9a3c8d,spanish,13 or older,"no, only English or Spanish",no,2025-07-23_20h35.34.569,empathy_intonation_perc_control,2024.2.4,MacIntel,58.47953216,6131ba00bd67d2702e9a3c8d,68817205a84113384fffdfe3,68817edcc5291d8a5b38d4bf,40.8117,43.7294,1,1,2.4073,,0,7,7,3,1,./stim/wavs/mexican_question_filler_Felipe-no-tiene-contrasena.wav,1,,,,,,,,,,,,,,,,,,,,,,,,,,,,,,,,,,,,,,,,,,,,,,,,,,,,,,,,,,,,,,,,,,,,,,,,
,,,,,,,,,6131ba00bd67d2702e9a3c8d,spanish,13 or older,"no, only English or Spanish",no,2025-07-23_20h35.34.569,empathy_intonation_perc_control,2024.2.4,MacIntel,58.47953216,6131ba00bd67d2702e9a3c8d,68817205a84113384fffdfe3,68817edcc5291d8a5b38d4bf,,,,,,,,,,,,,,43.7296,47.097,,,,,,,,,,,,,,,,,,,,,,,,,,,,,,,,,,,,,,,,,,,,,,,,,,,,,,,,,,,,,,,,,,,,,,
,,,,,,,,,6131ba00bd67d2702e9a3c8d,spanish,13 or older,"no, only English or Spanish",no,2025-07-23_20h35.34.569,empathy_intonation_perc_control,2024.2.4,MacIntel,58.47953216,6131ba00bd67d2702e9a3c8d,68817205a84113384fffdfe3,68817edcc5291d8a5b38d4bf,,,,,,,,,,,,./stim/wavs/puertorican_mismatch_interrogative-total-yn_La-nina-lava-el-plato.wav,1,,,47.105,49.8486,0,0,2.2163,,0,0,0,42,1,43,1,puertorican,,,,,,,,,,,,,,,,,,,,,,,,,,,,,,,,,,,,,,,,,,,,,,,,,,,,,,,,
,,,,,,,,,6131ba00bd67d2702e9a3c8d,spanish,13 or older,"no, only English or Spanish",no,2025-07-23_20h35.34.569,empathy_intonation_perc_control,2024.2.4,MacIntel,58.47953216,6131ba00bd67d2702e9a3c8d,68817205a84113384fffdfe3,68817edcc5291d8a5b38d4bf,,,,,,,,,,,,./stim/wavs/castilian_mismatch_declarative-broad-focus_El-nino-oye-el-rio.wav,0,,,49.8491,52.2166,0,1,1.8409,,0,1,1,68,1,69,0,castilian,,,,,,,,,,,,,,,,,,,,,,,,,,,,,,,,,,,,,,,,,,,,,,,,,,,,,,,,
,,,,,,,,,6131ba00bd67d2702e9a3c8d,spanish,13 or older,"no, only English or Spanish",no,2025-07-23_20h35.34.569,empathy_intonation_perc_control,2024.2.4,MacIntel,58.47953216,6131ba00bd67d2702e9a3c8d,68817205a84113384fffdfe3,68817edcc5291d8a5b38d4bf,,,,,,,,,,,,./stim/wavs/mexican_mismatch_declarative-broad-focus_El-bebe-comia-muy-bien.wav,0,,,52.2171,54.9337,1,0,2.1858,,0,2,2,78,1,79,0,mexican,,,,,,,,,,,,,,,,,,,,,,,,,,,,,,,,,,,,,,,,,,,,,,,,,,,,,,,,
,,,,,,,,,6131ba00bd67d2702e9a3c8d,spanish,13 or older,"no, only English or Spanish",no,2025-07-23_20h35.34.569,empathy_intonation_perc_control,2024.2.4,MacIntel,58.47953216,6131ba00bd67d2702e9a3c8d,68817205a84113384fffdfe3,68817edcc5291d8a5b38d4bf,,,,,,,,,,,,./stim/wavs/castilian_match_interrogative-total-yn_David-leia-el-libro.wav,1,,,54.9342,57.3685,1,1,1.9237,,0,3,3,0,1,1,0,castilian,,,,,,,,,,,,,,,,,,,,,,,,,,,,,,,,,,,,,,,,,,,,,,,,,,,,,,,,
,,,,,,,,,6131ba00bd67d2702e9a3c8d,spanish,13 or older,"no, only English or Spanish",no,2025-07-23_20h35.34.569,empathy_intonation_perc_control,2024.2.4,MacIntel,58.47953216,6131ba00bd67d2702e9a3c8d,68817205a84113384fffdfe3,68817edcc5291d8a5b38d4bf,,,,,,,,,,,,./stim/wavs/cuban_mismatch_declarative-broad-focus_Mi-novio-viene-del-lago.wav,0,,,57.369,60.0033,0,1,2.103,,0,4,4,76,1,77,0,cuban,,,,,,,,,,,,,,,,,,,,,,,,,,,,,,,,,,,,,,,,,,,,,,,,,,,,,,,,
,,,,,,,,,6131ba00bd67d2702e9a3c8d,spanish,13 or older,"no, only English or Spanish",no,2025-07-23_20h35.34.569,empathy_intonation_perc_control,2024.2.4,MacIntel,58.47953216,6131ba00bd67d2702e9a3c8d,68817205a84113384fffdfe3,68817edcc5291d8a5b38d4bf,,,,,,,,,,,,./stim/wavs/castilian_match_interrogative-total-yn_Manuela-vende-el-carro.wav,1,,,60.0037,62.3378,1,1,1.806,,0,5,5,2,1,3,0,castilian,,,,,,,,,,,,,,,,,,,,,,,,,,,,,,,,,,,,,,,,,,,,,,,,,,,,,,,,
,,,,,,,,,6131ba00bd67d2702e9a3c8d,spanish,13 or older,"no, only English or Spanish",no,2025-07-23_20h35.34.569,empathy_intonation_perc_control,2024.2.4,MacIntel,58.47953216,6131ba00bd67d2702e9a3c8d,68817205a84113384fffdfe3,68817edcc5291d8a5b38d4bf,,,,,,,,,,,,./stim/wavs/puertorican_mismatch_declarative-broad-focus_La-maestra-vive-en-Paris.wav,0,,,62.3382,64.6385,0,1,1.7692,,0,6,6,86,1,87,0,puertorican,,,,,,,,,,,,,,,,,,,,,,,,,,,,,,,,,,,,,,,,,,,,,,,,,,,,,,,,
,,,,,,,,,6131ba00bd67d2702e9a3c8d,spanish,13 or older,"no, only English or Spanish",no,2025-07-23_20h35.34.569,empathy_intonation_perc_control,2024.2.4,MacIntel,58.47953216,6131ba00bd67d2702e9a3c8d,68817205a84113384fffdfe3,68817edcc5291d8a5b38d4bf,,,,,,,,,,,,./stim/wavs/cuban_match_interrogative-total-yn_Daniel-iba-a-Bolivia.wav,1,,,64.6388,67.607,0,0,2.4501,,0,7,7,7,1,8,1,cuban,,,,,,,,,,,,,,,,,,,,,,,,,,,,,,,,,,,,,,,,,,,,,,,,,,,,,,,,
,,,,,,,,,6131ba00bd67d2702e9a3c8d,spanish,13 or older,"no, only English or Spanish",no,2025-07-23_20h35.34.569,empathy_intonation_perc_control,2024.2.4,MacIntel,58.47953216,6131ba00bd67d2702e9a3c8d,68817205a84113384fffdfe3,68817edcc5291d8a5b38d4bf,,,,,,,,,,,,./stim/wavs/castilian_match_declarative-broad-focus_Maria-bebe-el-vino.wav,0,,,67.6078,69.8743,0,1,1.7559,,0,8,8,47,1,48,0,castilian,,,,,,,,,,,,,,,,,,,,,,,,,,,,,,,,,,,,,,,,,,,,,,,,,,,,,,,,
,,,,,,,,,6131ba00bd67d2702e9a3c8d,spanish,13 or older,"no, only English or Spanish",no,2025-07-23_20h35.34.569,empathy_intonation_perc_control,2024.2.4,MacIntel,58.47953216,6131ba00bd67d2702e9a3c8d,68817205a84113384fffdfe3,68817edcc5291d8a5b38d4bf,,,,,,,,,,,,./stim/wavs/puertorican_mismatch_declarative-broad-focus_El-nino-oye-el-rio.wav,0,,,69.8747,72.0427,0,1,1.6408,,0,9,9,85,1,86,0,puertorican,,,,,,,,,,,,,,,,,,,,,,,,,,,,,,,,,,,,,,,,,,,,,,,,,,,,,,,,
,,,,,,,,,6131ba00bd67d2702e9a3c8d,spanish,13 or older,"no, only English or Spanish",no,2025-07-23_20h35.34.569,empathy_intonation_perc_control,2024.2.4,MacIntel,58.47953216,6131ba00bd67d2702e9a3c8d,68817205a84113384fffdfe3,68817edcc5291d8a5b38d4bf,,,,,,,,,,,,./stim/wavs/cuban_match_interrogative-total-yn_Ana-lleva-el-abrigo.wav,1,,,72.043,75.1604,0,0,2.5895,,0,10,10,6,1,7,1,cuban,,,,,,,,,,,,,,,,,,,,,,,,,,,,,,,,,,,,,,,,,,,,,,,,,,,,,,,,
,,,,,,,,,6131ba00bd67d2702e9a3c8d,spanish,13 or older,"no, only English or Spanish",no,2025-07-23_20h35.34.569,empathy_intonation_perc_control,2024.2.4,MacIntel,58.47953216,6131ba00bd67d2702e9a3c8d,68817205a84113384fffdfe3,68817edcc5291d8a5b38d4bf,,,,,,,,,,,,./stim/wavs/castilian_match_declarative-broad-focus_David-leia-el-libro.wav,0,,,75.1609,77.5779,0,1,1.9009,,0,11,11,44,1,45,0,castilian,,,,,,,,,,,,,,,,,,,,,,,,,,,,,,,,,,,,,,,,,,,,,,,,,,,,,,,,
,,,,,,,,,6131ba00bd67d2702e9a3c8d,spanish,13 or older,"no, only English or Spanish",no,2025-07-23_20h35.34.569,empathy_intonation_perc_control,2024.2.4,MacIntel,58.47953216,6131ba00bd67d2702e9a3c8d,68817205a84113384fffdfe3,68817edcc5291d8a5b38d4bf,,,,,,,,,,,,./stim/wavs/mexican_mismatch_interrogative-total-yn_El-hombre-mira-la-luna.wav,1,,,77.5783,79.8456,1,1,1.75,,0,12,12,34,1,35,0,mexican,,,,,,,,,,,,,,,,,,,,,,,,,,,,,,,,,,,,,,,,,,,,,,,,,,,,,,,,
,,,,,,,,,6131ba00bd67d2702e9a3c8d,spanish,13 or older,"no, only English or Spanish",no,2025-07-23_20h35.34.569,empathy_intonation_perc_control,2024.2.4,MacIntel,58.47953216,6131ba00bd67d2702e9a3c8d,68817205a84113384fffdfe3,68817edcc5291d8a5b38d4bf,,,,,,,,,,,,./stim/wavs/puertorican_match_declarative-broad-focus_Daniel-iba-a-Bolivia.wav,0,,,79.846,82.0977,0,1,1.7428,,0,13,13,63,1,64,0,puertorican,,,,,,,,,,,,,,,,,,,,,,,,,,,,,,,,,,,,,,,,,,,,,,,,,,,,,,,,
,,,,,,,,,6131ba00bd67d2702e9a3c8d,spanish,13 or older,"no, only English or Spanish",no,2025-07-23_20h35.34.569,empathy_intonation_perc_control,2024.2.4,MacIntel,58.47953216,6131ba00bd67d2702e9a3c8d,68817205a84113384fffdfe3,68817edcc5291d8a5b38d4bf,,,,,,,,,,,,./stim/wavs/puertorican_match_interrogative-total-yn_Daniel-iba-a-Bolivia.wav,1,,,82.0981,84.7479,0,0,2.1188,,0,14,14,19,1,20,1,puertorican,,,,,,,,,,,,,,,,,,,,,,,,,,,,,,,,,,,,,,,,,,,,,,,,,,,,,,,,
,,,,,,,,,6131ba00bd67d2702e9a3c8d,spanish,13 or older,"no, only English or Spanish",no,2025-07-23_20h35.34.569,empathy_intonation_perc_control,2024.2.4,MacIntel,58.47953216,6131ba00bd67d2702e9a3c8d,68817205a84113384fffdfe3,68817edcc5291d8a5b38d4bf,,,,,,,,,,,,./stim/wavs/puertorican_match_declarative-broad-focus_Maria-bebe-el-vino.wav,0,,,84.7483,88.6665,1,0,3.4016,,0,15,15,67,1,68,0,puertorican,,,,,,,,,,,,,,,,,,,,,,,,,,,,,,,,,,,,,,,,,,,,,,,,,,,,,,,,
,,,,,,,,,6131ba00bd67d2702e9a3c8d,spanish,13 or older,"no, only English or Spanish",no,2025-07-23_20h35.34.569,empathy_intonation_perc_control,2024.2.4,MacIntel,58.47953216,6131ba00bd67d2702e9a3c8d,68817205a84113384fffdfe3,68817edcc5291d8a5b38d4bf,,,,,,,,,,,,./stim/wavs/cuban_match_declarative-broad-focus_Maria-bebe-el-vino.wav,0,,,88.6669,91.3346,0,1,2.1509,,0,16,16,53,1,54,0,cuban,,,,,,,,,,,,,,,,,,,,,,,,,,,,,,,,,,,,,,,,,,,,,,,,,,,,,,,,
,,,,,,,,,6131ba00bd67d2702e9a3c8d,spanish,13 or older,"no, only English or Spanish",no,2025-07-23_20h35.34.569,empathy_intonation_perc_control,2024.2.4,MacIntel,58.47953216,6131ba00bd67d2702e9a3c8d,68817205a84113384fffdfe3,68817edcc5291d8a5b38d4bf,,,,,,,,,,,,./stim/wavs/puertorican_mismatch_declarative-broad-focus_El-hombre-mira-la-luna.wav,0,,,91.335,93.9859,0,1,2.1394,,0,17,17,84,1,85,0,puertorican,,,,,,,,,,,,,,,,,,,,,,,,,,,,,,,,,,,,,,,,,,,,,,,,,,,,,,,,
,,,,,,,,,6131ba00bd67d2702e9a3c8d,spanish,13 or older,"no, only English or Spanish",no,2025-07-23_20h35.34.569,empathy_intonation_perc_control,2024.2.4,MacIntel,58.47953216,6131ba00bd67d2702e9a3c8d,68817205a84113384fffdfe3,68817edcc5291d8a5b38d4bf,,,,,,,,,,,,./stim/wavs/puertorican_match_interrogative-total-yn_Manuela-vende-el-carro.wav,1,,,93.9863,96.2873,0,0,1.7852,,0,18,18,22,1,23,1,puertorican,,,,,,,,,,,,,,,,,,,,,,,,,,,,,,,,,,,,,,,,,,,,,,,,,,,,,,,,
,,,,,,,,,6131ba00bd67d2702e9a3c8d,spanish,13 or older,"no, only English or Spanish",no,2025-07-23_20h35.34.569,empathy_intonation_perc_control,2024.2.4,MacIntel,58.47953216,6131ba00bd67d2702e9a3c8d,68817205a84113384fffdfe3,68817edcc5291d8a5b38d4bf,,,,,,,,,,,,./stim/wavs/castilian_match_declarative-broad-focus_Marta-abre-el-regalo.wav,0,,,96.2878,98.5885,0,1,1.7728,,0,19,19,49,1,50,0,castilian,,,,,,,,,,,,,,,,,,,,,,,,,,,,,,,,,,,,,,,,,,,,,,,,,,,,,,,,
,,,,,,,,,6131ba00bd67d2702e9a3c8d,spanish,13 or older,"no, only English or Spanish",no,2025-07-23_20h35.34.569,empathy_intonation_perc_control,2024.2.4,MacIntel,58.47953216,6131ba00bd67d2702e9a3c8d,68817205a84113384fffdfe3,68817edcc5291d8a5b38d4bf,,,,,,,,,,,,./stim/wavs/mexican_match_declarative-broad-focus_David-leia-el-libro.wav,0,,,98.5889,100.8225,0,1,1.7239,,0,20,20,58,1,59,0,mexican,,,,,,,,,,,,,,,,,,,,,,,,,,,,,,,,,,,,,,,,,,,,,,,,,,,,,,,,
,,,,,,,,,6131ba00bd67d2702e9a3c8d,spanish,13 or older,"no, only English or Spanish",no,2025-07-23_20h35.34.569,empathy_intonation_perc_control,2024.2.4,MacIntel,58.47953216,6131ba00bd67d2702e9a3c8d,68817205a84113384fffdfe3,68817edcc5291d8a5b38d4bf,,,,,,,,,,,,./stim/wavs/castilian_match_declarative-broad-focus_Manuela-vende-el-carro.wav,0,,,100.8228,103.5742,0,1,2.2361,,0,21,21,46,1,47,0,castilian,,,,,,,,,,,,,,,,,,,,,,,,,,,,,,,,,,,,,,,,,,,,,,,,,,,,,,,,
,,,,,,,,,6131ba00bd67d2702e9a3c8d,spanish,13 or older,"no, only English or Spanish",no,2025-07-23_20h35.34.569,empathy_intonation_perc_control,2024.2.4,MacIntel,58.47953216,6131ba00bd67d2702e9a3c8d,68817205a84113384fffdfe3,68817edcc5291d8a5b38d4bf,,,,,,,,,,,,./stim/wavs/cuban_mismatch_interrogative-total-yn_Mi-novio-viene-del-lago.wav,1,,,103.575,106.0916,0,0,2.0004,,0,22,22,32,1,33,1,cuban,,,,,,,,,,,,,,,,,,,,,,,,,,,,,,,,,,,,,,,,,,,,,,,,,,,,,,,,
,,,,,,,,,6131ba00bd67d2702e9a3c8d,spanish,13 or older,"no, only English or Spanish",no,2025-07-23_20h35.34.569,empathy_intonation_perc_control,2024.2.4,MacIntel,58.47953216,6131ba00bd67d2702e9a3c8d,68817205a84113384fffdfe3,68817edcc5291d8a5b38d4bf,,,,,,,,,,,,./stim/wavs/castilian_mismatch_interrogative-total-yn_Mi-tia-odia-la-lluvia.wav,1,,,106.092,108.5928,1,1,1.9683,,0,23,23,28,1,29,0,castilian,,,,,,,,,,,,,,,,,,,,,,,,,,,,,,,,,,,,,,,,,,,,,,,,,,,,,,,,
,,,,,,,,,6131ba00bd67d2702e9a3c8d,spanish,13 or older,"no, only English or Spanish",no,2025-07-23_20h35.34.569,empathy_intonation_perc_control,2024.2.4,MacIntel,58.47953216,6131ba00bd67d2702e9a3c8d,68817205a84113384fffdfe3,68817edcc5291d8a5b38d4bf,,,,,,,,,,,,./stim/wavs/cuban_mismatch_interrogative-total-yn_El-hombre-mira-la-luna.wav,1,,,108.5932,110.7772,0,0,1.6578,,0,24,24,29,1,30,1,cuban,,,,,,,,,,,,,,,,,,,,,,,,,,,,,,,,,,,,,,,,,,,,,,,,,,,,,,,,
,,,,,,,,,6131ba00bd67d2702e9a3c8d,spanish,13 or older,"no, only English or Spanish",no,2025-07-23_20h35.34.569,empathy_intonation_perc_control,2024.2.4,MacIntel,58.47953216,6131ba00bd67d2702e9a3c8d,68817205a84113384fffdfe3,68817edcc5291d8a5b38d4bf,,,,,,,,,,,,./stim/wavs/puertorican_match_interrogative-total-yn_Ana-lleva-el-abrigo.wav,1,,,110.7775,113.0116,0,0,1.7006,,0,25,25,18,1,19,1,puertorican,,,,,,,,,,,,,,,,,,,,,,,,,,,,,,,,,,,,,,,,,,,,,,,,,,,,,,,,
,,,,,,,,,6131ba00bd67d2702e9a3c8d,spanish,13 or older,"no, only English or Spanish",no,2025-07-23_20h35.34.569,empathy_intonation_perc_control,2024.2.4,MacIntel,58.47953216,6131ba00bd67d2702e9a3c8d,68817205a84113384fffdfe3,68817edcc5291d8a5b38d4bf,,,,,,,,,,,,./stim/wavs/puertorican_match_interrogative-total-yn_Emilio-ama-la-marcha.wav,1,,,113.0122,115.0957,0,0,1.5716,,0,26,26,21,1,22,1,puertorican,,,,,,,,,,,,,,,,,,,,,,,,,,,,,,,,,,,,,,,,,,,,,,,,,,,,,,,,
,,,,,,,,,6131ba00bd67d2702e9a3c8d,spanish,13 or older,"no, only English or Spanish",no,2025-07-23_20h35.34.569,empathy_intonation_perc_control,2024.2.4,MacIntel,58.47953216,6131ba00bd67d2702e9a3c8d,68817205a84113384fffdfe3,68817edcc5291d8a5b38d4bf,,,,,,,,,,,,./stim/wavs/cuban_match_interrogative-total-yn_Marta-abre-el-regalo.wav,1,,,115.0962,117.447,0,0,1.8178,,0,27,27,11,1,12,1,cuban,,,,,,,,,,,,,,,,,,,,,,,,,,,,,,,,,,,,,,,,,,,,,,,,,,,,,,,,
,,,,,,,,,6131ba00bd67d2702e9a3c8d,spanish,13 or older,"no, only English or Spanish",no,2025-07-23_20h35.34.569,empathy_intonation_perc_control,2024.2.4,MacIntel,58.47953216,6131ba00bd67d2702e9a3c8d,68817205a84113384fffdfe3,68817edcc5291d8a5b38d4bf,,,,,,,,,,,,./stim/wavs/cuban_mismatch_interrogative-total-yn_Mi-tia-odia-la-lluvia.wav,1,,,117.4478,119.5152,0,0,1.5357,,0,28,28,33,1,34,1,cuban,,,,,,,,,,,,,,,,,,,,,,,,,,,,,,,,,,,,,,,,,,,,,,,,,,,,,,,,
,,,,,,,,,6131ba00bd67d2702e9a3c8d,spanish,13 or older,"no, only English or Spanish",no,2025-07-23_20h35.34.569,empathy_intonation_perc_control,2024.2.4,MacIntel,58.47953216,6131ba00bd67d2702e9a3c8d,68817205a84113384fffdfe3,68817edcc5291d8a5b38d4bf,,,,,,,,,,,,./stim/wavs/castilian_match_interrogative-total-yn_Marta-abre-el-regalo.wav,1,,,119.516,121.9491,1,1,1.9069,,0,29,29,5,1,6,0,castilian,,,,,,,,,,,,,,,,,,,,,,,,,,,,,,,,,,,,,,,,,,,,,,,,,,,,,,,,
,,,,,,,,,6131ba00bd67d2702e9a3c8d,spanish,13 or older,"no, only English or Spanish",no,2025-07-23_20h35.34.569,empathy_intonation_perc_control,2024.2.4,MacIntel,58.47953216,6131ba00bd67d2702e9a3c8d,68817205a84113384fffdfe3,68817edcc5291d8a5b38d4bf,,,,,,,,,,,,./stim/wavs/puertorican_match_declarative-broad-focus_Manuela-vende-el-carro.wav,0,,,121.9496,124.117,0,1,1.6343,,0,30,30,66,1,67,0,puertorican,,,,,,,,,,,,,,,,,,,,,,,,,,,,,,,,,,,,,,,,,,,,,,,,,,,,,,,,
,,,,,,,,,6131ba00bd67d2702e9a3c8d,spanish,13 or older,"no, only English or Spanish",no,2025-07-23_20h35.34.569,empathy_intonation_perc_control,2024.2.4,MacIntel,58.47953216,6131ba00bd67d2702e9a3c8d,68817205a84113384fffdfe3,68817edcc5291d8a5b38d4bf,,,,,,,,,,,,./stim/wavs/mexican_match_declarative-broad-focus_Emilio-ama-la-marcha.wav,0,,,124.1175,126.8016,0,1,2.1661,,0,31,31,59,1,60,0,mexican,,,,,,,,,,,,,,,,,,,,,,,,,,,,,,,,,,,,,,,,,,,,,,,,,,,,,,,,
,,,,,,,,,6131ba00bd67d2702e9a3c8d,spanish,13 or older,"no, only English or Spanish",no,2025-07-23_20h35.34.569,empathy_intonation_perc_control,2024.2.4,MacIntel,58.47953216,6131ba00bd67d2702e9a3c8d,68817205a84113384fffdfe3,68817edcc5291d8a5b38d4bf,,,,,,,,,,,,./stim/wavs/castilian_mismatch_interrogative-total-yn_La-maestra-vive-en-Paris.wav,1,,,126.8022,129.4195,1,1,2.0905,,0,32,32,24,1,25,0,castilian,,,,,,,,,,,,,,,,,,,,,,,,,,,,,,,,,,,,,,,,,,,,,,,,,,,,,,,,
,,,,,,,,,6131ba00bd67d2702e9a3c8d,spanish,13 or older,"no, only English or Spanish",no,2025-07-23_20h35.34.569,empathy_intonation_perc_control,2024.2.4,MacIntel,58.47953216,6131ba00bd67d2702e9a3c8d,68817205a84113384fffdfe3,68817edcc5291d8a5b38d4bf,,,,,,,,,,,,./stim/wavs/cuban_match_interrogative-total-yn_Manuela-vende-el-carro.wav,1,,,129.4198,131.6202,0,0,1.6838,,0,33,33,8,1,9,1,cuban,,,,,,,,,,,,,,,,,,,,,,,,,,,,,,,,,,,,,,,,,,,,,,,,,,,,,,,,
,,,,,,,,,6131ba00bd67d2702e9a3c8d,spanish,13 or older,"no, only English or Spanish",no,2025-07-23_20h35.34.569,empathy_intonation_perc_control,2024.2.4,MacIntel,58.47953216,6131ba00bd67d2702e9a3c8d,68817205a84113384fffdfe3,68817edcc5291d8a5b38d4bf,,,,,,,,,,,,./stim/wavs/mexican_mismatch_interrogative-total-yn_El-nino-oye-el-rio.wav,1,,,131.6206,134.055,1,1,1.9021,,0,34,34,35,1,36,0,mexican,,,,,,,,,,,,,,,,,,,,,,,,,,,,,,,,,,,,,,,,,,,,,,,,,,,,,,,,
,,,,,,,,,6131ba00bd67d2702e9a3c8d,spanish,13 or older,"no, only English or Spanish",no,2025-07-23_20h35.34.569,empathy_intonation_perc_control,2024.2.4,MacIntel,58.47953216,6131ba00bd67d2702e9a3c8d,68817205a84113384fffdfe3,68817edcc5291d8a5b38d4bf,,,,,,,,,,,,./stim/wavs/mexican_match_declarative-broad-focus_Marta-abre-el-regalo.wav,0,,,134.0555,136.4063,0,1,1.824,,0,35,35,61,1,62,0,mexican,,,,,,,,,,,,,,,,,,,,,,,,,,,,,,,,,,,,,,,,,,,,,,,,,,,,,,,,
,,,,,,,,,6131ba00bd67d2702e9a3c8d,spanish,13 or older,"no, only English or Spanish",no,2025-07-23_20h35.34.569,empathy_intonation_perc_control,2024.2.4,MacIntel,58.47953216,6131ba00bd67d2702e9a3c8d,68817205a84113384fffdfe3,68817edcc5291d8a5b38d4bf,,,,,,,,,,,,./stim/wavs/castilian_mismatch_interrogative-total-yn_Mi-madre-come-la-fruta.wav,1,,,136.4067,138.8071,1,1,1.883,,0,36,36,26,1,27,0,castilian,,,,,,,,,,,,,,,,,,,,,,,,,,,,,,,,,,,,,,,,,,,,,,,,,,,,,,,,
,,,,,,,,,6131ba00bd67d2702e9a3c8d,spanish,13 or older,"no, only English or Spanish",no,2025-07-23_20h35.34.569,empathy_intonation_perc_control,2024.2.4,MacIntel,58.47953216,6131ba00bd67d2702e9a3c8d,68817205a84113384fffdfe3,68817edcc5291d8a5b38d4bf,,,,,,,,,,,,./stim/wavs/castilian_match_interrogative-total-yn_Mariano-habla-del-tiempo.wav,1,,,138.8075,141.3084,1,1,1.9851,,0,37,37,4,1,5,0,castilian,,,,,,,,,,,,,,,,,,,,,,,,,,,,,,,,,,,,,,,,,,,,,,,,,,,,,,,,
,,,,,,,,,6131ba00bd67d2702e9a3c8d,spanish,13 or older,"no, only English or Spanish",no,2025-07-23_20h35.34.569,empathy_intonation_perc_control,2024.2.4,MacIntel,58.47953216,6131ba00bd67d2702e9a3c8d,68817205a84113384fffdfe3,68817edcc5291d8a5b38d4bf,,,,,,,,,,,,./stim/wavs/mexican_mismatch_declarative-broad-focus_Mi-novio-viene-del-lago.wav,0,,,141.3087,143.4425,0,1,1.6234,,0,38,38,81,1,82,0,mexican,,,,,,,,,,,,,,,,,,,,,,,,,,,,,,,,,,,,,,,,,,,,,,,,,,,,,,,,
,,,,,,,,,6131ba00bd67d2702e9a3c8d,spanish,13 or older,"no, only English or Spanish",no,2025-07-23_20h35.34.569,empathy_intonation_perc_control,2024.2.4,MacIntel,58.47953216,6131ba00bd67d2702e9a3c8d,68817205a84113384fffdfe3,68817edcc5291d8a5b38d4bf,,,,,,,,,,,,./stim/wavs/puertorican_mismatch_interrogative-total-yn_La-maestra-vive-en-Paris.wav,1,,,143.443,147.0943,0,0,3.1394,,0,39,39,41,1,42,1,puertorican,,,,,,,,,,,,,,,,,,,,,,,,,,,,,,,,,,,,,,,,,,,,,,,,,,,,,,,,
,,,,,,,,,6131ba00bd67d2702e9a3c8d,spanish,13 or older,"no, only English or Spanish",no,2025-07-23_20h35.34.569,empathy_intonation_perc_control,2024.2.4,MacIntel,58.47953216,6131ba00bd67d2702e9a3c8d,68817205a84113384fffdfe3,68817edcc5291d8a5b38d4bf,,,,,,,,,,,,./stim/wavs/cuban_mismatch_interrogative-total-yn_El-nino-oye-el-rio.wav,1,,,147.0951,149.6125,0,0,1.9903,,0,40,40,30,1,31,1,cuban,,,,,,,,,,,,,,,,,,,,,,,,,,,,,,,,,,,,,,,,,,,,,,,,,,,,,,,,
,,,,,,,,,6131ba00bd67d2702e9a3c8d,spanish,13 or older,"no, only English or Spanish",no,2025-07-23_20h35.34.569,empathy_intonation_perc_control,2024.2.4,MacIntel,58.47953216,6131ba00bd67d2702e9a3c8d,68817205a84113384fffdfe3,68817edcc5291d8a5b38d4bf,,,,,,,,,,,,./stim/wavs/puertorican_mismatch_declarative-broad-focus_La-nina-lava-el-plato.wav,0,,,149.6129,151.7971,0,1,1.6534,,0,41,41,87,1,88,0,puertorican,,,,,,,,,,,,,,,,,,,,,,,,,,,,,,,,,,,,,,,,,,,,,,,,,,,,,,,,
,,,,,,,,,6131ba00bd67d2702e9a3c8d,spanish,13 or older,"no, only English or Spanish",no,2025-07-23_20h35.34.569,empathy_intonation_perc_control,2024.2.4,MacIntel,58.47953216,6131ba00bd67d2702e9a3c8d,68817205a84113384fffdfe3,68817edcc5291d8a5b38d4bf,,,,,,,,,,,,./stim/wavs/castilian_mismatch_interrogative-total-yn_La-nina-lava-el-plato.wav,1,,,151.7976,154.181,1,1,1.8508,,0,42,42,25,1,26,0,castilian,,,,,,,,,,,,,,,,,,,,,,,,,,,,,,,,,,,,,,,,,,,,,,,,,,,,,,,,
,,,,,,,,,6131ba00bd67d2702e9a3c8d,spanish,13 or older,"no, only English or Spanish",no,2025-07-23_20h35.34.569,empathy_intonation_perc_control,2024.2.4,MacIntel,58.47953216,6131ba00bd67d2702e9a3c8d,68817205a84113384fffdfe3,68817edcc5291d8a5b38d4bf,,,,,,,,,,,,./stim/wavs/castilian_mismatch_declarative-broad-focus_La-nina-lava-el-plato.wav,0,,,154.1817,156.9161,0,1,2.2182,,0,43,43,70,1,71,0,castilian,,,,,,,,,,,,,,,,,,,,,,,,,,,,,,,,,,,,,,,,,,,,,,,,,,,,,,,,
,,,,,,,,,6131ba00bd67d2702e9a3c8d,spanish,13 or older,"no, only English or Spanish",no,2025-07-23_20h35.34.569,empathy_intonation_perc_control,2024.2.4,MacIntel,58.47953216,6131ba00bd67d2702e9a3c8d,68817205a84113384fffdfe3,68817edcc5291d8a5b38d4bf,,,,,,,,,,,,./stim/wavs/cuban_mismatch_declarative-broad-focus_La-nina-lava-el-plato.wav,0,,,156.9165,159.2005,0,1,1.7536,,0,44,44,75,1,76,0,cuban,,,,,,,,,,,,,,,,,,,,,,,,,,,,,,,,,,,,,,,,,,,,,,,,,,,,,,,,
,,,,,,,,,6131ba00bd67d2702e9a3c8d,spanish,13 or older,"no, only English or Spanish",no,2025-07-23_20h35.34.569,empathy_intonation_perc_control,2024.2.4,MacIntel,58.47953216,6131ba00bd67d2702e9a3c8d,68817205a84113384fffdfe3,68817edcc5291d8a5b38d4bf,,,,,,,,,,,,./stim/wavs/mexican_match_interrogative-total-yn_Daniel-iba-a-Bolivia.wav,1,,,159.2012,161.485,1,1,1.7525,,0,45,45,13,1,14,0,mexican,,,,,,,,,,,,,,,,,,,,,,,,,,,,,,,,,,,,,,,,,,,,,,,,,,,,,,,,
,,,,,,,,,6131ba00bd67d2702e9a3c8d,spanish,13 or older,"no, only English or Spanish",no,2025-07-23_20h35.34.569,empathy_intonation_perc_control,2024.2.4,MacIntel,58.47953216,6131ba00bd67d2702e9a3c8d,68817205a84113384fffdfe3,68817edcc5291d8a5b38d4bf,,,,,,,,,,,,./stim/wavs/cuban_match_declarative-broad-focus_Daniel-iba-a-Bolivia.wav,0,,,161.4856,164.2525,0,1,2.2552,,0,46,46,51,1,52,0,cuban,,,,,,,,,,,,,,,,,,,,,,,,,,,,,,,,,,,,,,,,,,,,,,,,,,,,,,,,
,,,,,,,,,6131ba00bd67d2702e9a3c8d,spanish,13 or older,"no, only English or Spanish",no,2025-07-23_20h35.34.569,empathy_intonation_perc_control,2024.2.4,MacIntel,58.47953216,6131ba00bd67d2702e9a3c8d,68817205a84113384fffdfe3,68817edcc5291d8a5b38d4bf,,,,,,,,,,,,./stim/wavs/castilian_match_interrogative-total-yn_Emilio-ama-la-marcha.wav,1,,,164.2531,166.4871,1,1,1.7164,,0,47,47,1,1,2,0,castilian,,,,,,,,,,,,,,,,,,,,,,,,,,,,,,,,,,,,,,,,,,,,,,,,,,,,,,,,
,,,,,,,,,6131ba00bd67d2702e9a3c8d,spanish,13 or older,"no, only English or Spanish",no,2025-07-23_20h35.34.569,empathy_intonation_perc_control,2024.2.4,MacIntel,58.47953216,6131ba00bd67d2702e9a3c8d,68817205a84113384fffdfe3,68817edcc5291d8a5b38d4bf,,,,,,,,,,,,./stim/wavs/mexican_match_declarative-broad-focus_Mariano-habla-del-tiempo.wav,0,,,166.4882,168.8048,0,1,1.7901,,0,48,48,60,1,61,0,mexican,,,,,,,,,,,,,,,,,,,,,,,,,,,,,,,,,,,,,,,,,,,,,,,,,,,,,,,,
,,,,,,,,,6131ba00bd67d2702e9a3c8d,spanish,13 or older,"no, only English or Spanish",no,2025-07-23_20h35.34.569,empathy_intonation_perc_control,2024.2.4,MacIntel,58.47953216,6131ba00bd67d2702e9a3c8d,68817205a84113384fffdfe3,68817edcc5291d8a5b38d4bf,,,,,,,,,,,,./stim/wavs/cuban_match_declarative-broad-focus_Ana-lleva-el-abrigo.wav,0,,,168.8055,170.9556,0,1,1.6226,,0,49,49,50,1,51,0,cuban,,,,,,,,,,,,,,,,,,,,,,,,,,,,,,,,,,,,,,,,,,,,,,,,,,,,,,,,
,,,,,,,,,6131ba00bd67d2702e9a3c8d,spanish,13 or older,"no, only English or Spanish",no,2025-07-23_20h35.34.569,empathy_intonation_perc_control,2024.2.4,MacIntel,58.47953216,6131ba00bd67d2702e9a3c8d,68817205a84113384fffdfe3,68817edcc5291d8a5b38d4bf,,,,,,,,,,,,./stim/wavs/puertorican_match_declarative-broad-focus_Emilio-ama-la-marcha.wav,0,,,170.9561,173.0401,0,1,1.5523,,0,50,50,65,1,66,0,puertorican,,,,,,,,,,,,,,,,,,,,,,,,,,,,,,,,,,,,,,,,,,,,,,,,,,,,,,,,
,,,,,,,,,6131ba00bd67d2702e9a3c8d,spanish,13 or older,"no, only English or Spanish",no,2025-07-23_20h35.34.569,empathy_intonation_perc_control,2024.2.4,MacIntel,58.47953216,6131ba00bd67d2702e9a3c8d,68817205a84113384fffdfe3,68817edcc5291d8a5b38d4bf,,,,,,,,,,,,./stim/wavs/puertorican_match_declarative-broad-focus_Ana-lleva-el-abrigo.wav,0,,,173.0405,174.9414,0,1,1.3838,,0,51,51,62,1,63,0,puertorican,,,,,,,,,,,,,,,,,,,,,,,,,,,,,,,,,,,,,,,,,,,,,,,,,,,,,,,,
,,,,,,,,,6131ba00bd67d2702e9a3c8d,spanish,13 or older,"no, only English or Spanish",no,2025-07-23_20h35.34.569,empathy_intonation_perc_control,2024.2.4,MacIntel,58.47953216,6131ba00bd67d2702e9a3c8d,68817205a84113384fffdfe3,68817edcc5291d8a5b38d4bf,,,,,,,,,,,,./stim/wavs/mexican_match_declarative-broad-focus_Daniel-iba-a-Bolivia.wav,0,,,174.942,176.9752,0,1,1.5048,,0,52,52,57,1,58,0,mexican,,,,,,,,,,,,,,,,,,,,,,,,,,,,,,,,,,,,,,,,,,,,,,,,,,,,,,,,
,,,,,,,,,6131ba00bd67d2702e9a3c8d,spanish,13 or older,"no, only English or Spanish",no,2025-07-23_20h35.34.569,empathy_intonation_perc_control,2024.2.4,MacIntel,58.47953216,6131ba00bd67d2702e9a3c8d,68817205a84113384fffdfe3,68817edcc5291d8a5b38d4bf,,,,,,,,,,,,./stim/wavs/castilian_match_declarative-broad-focus_Emilio-ama-la-marcha.wav,0,,,176.9757,179.2268,0,1,1.7337,,0,53,53,45,1,46,0,castilian,,,,,,,,,,,,,,,,,,,,,,,,,,,,,,,,,,,,,,,,,,,,,,,,,,,,,,,,
,,,,,,,,,6131ba00bd67d2702e9a3c8d,spanish,13 or older,"no, only English or Spanish",no,2025-07-23_20h35.34.569,empathy_intonation_perc_control,2024.2.4,MacIntel,58.47953216,6131ba00bd67d2702e9a3c8d,68817205a84113384fffdfe3,68817edcc5291d8a5b38d4bf,,,,,,,,,,,,./stim/wavs/cuban_match_declarative-broad-focus_Manuela-vende-el-carro.wav,0,,,179.2274,181.4775,0,1,1.7227,,0,54,54,52,1,53,0,cuban,,,,,,,,,,,,,,,,,,,,,,,,,,,,,,,,,,,,,,,,,,,,,,,,,,,,,,,,
,,,,,,,,,6131ba00bd67d2702e9a3c8d,spanish,13 or older,"no, only English or Spanish",no,2025-07-23_20h35.34.569,empathy_intonation_perc_control,2024.2.4,MacIntel,58.47953216,6131ba00bd67d2702e9a3c8d,68817205a84113384fffdfe3,68817edcc5291d8a5b38d4bf,,,,,,,,,,,,./stim/wavs/mexican_mismatch_interrogative-total-yn_La-maestra-vive-en-Paris.wav,1,,,181.478,183.9458,0,0,1.937,,0,55,55,36,1,37,0,mexican,,,,,,,,,,,,,,,,,,,,,,,,,,,,,,,,,,,,,,,,,,,,,,,,,,,,,,,,
,,,,,,,,,6131ba00bd67d2702e9a3c8d,spanish,13 or older,"no, only English or Spanish",no,2025-07-23_20h35.34.569,empathy_intonation_perc_control,2024.2.4,MacIntel,58.47953216,6131ba00bd67d2702e9a3c8d,68817205a84113384fffdfe3,68817edcc5291d8a5b38d4bf,,,,,,,,,,,,./stim/wavs/castilian_mismatch_declarative-broad-focus_Mi-tia-odia-la-lluvia.wav,0,,,183.9462,186.4471,0,1,1.9678,,0,56,56,72,1,73,0,castilian,,,,,,,,,,,,,,,,,,,,,,,,,,,,,,,,,,,,,,,,,,,,,,,,,,,,,,,,
,,,,,,,,,6131ba00bd67d2702e9a3c8d,spanish,13 or older,"no, only English or Spanish",no,2025-07-23_20h35.34.569,empathy_intonation_perc_control,2024.2.4,MacIntel,58.47953216,6131ba00bd67d2702e9a3c8d,68817205a84113384fffdfe3,68817edcc5291d8a5b38d4bf,,,,,,,,,,,,./stim/wavs/mexican_mismatch_declarative-broad-focus_Mi-tia-odia-la-lluvia.wav,0,,,186.4474,188.3809,0,1,1.4015,,0,57,57,82,1,83,0,mexican,,,,,,,,,,,,,,,,,,,,,,,,,,,,,,,,,,,,,,,,,,,,,,,,,,,,,,,,
,,,,,,,,,6131ba00bd67d2702e9a3c8d,spanish,13 or older,"no, only English or Spanish",no,2025-07-23_20h35.34.569,empathy_intonation_perc_control,2024.2.4,MacIntel,58.47953216,6131ba00bd67d2702e9a3c8d,68817205a84113384fffdfe3,68817edcc5291d8a5b38d4bf,,,,,,,,,,,,./stim/wavs/mexican_match_interrogative-total-yn_Ana-lleva-el-abrigo.wav,1,,,188.3814,190.4823,1,1,1.5667,,0,58,58,12,1,13,0,mexican,,,,,,,,,,,,,,,,,,,,,,,,,,,,,,,,,,,,,,,,,,,,,,,,,,,,,,,,
,,,,,,,,,6131ba00bd67d2702e9a3c8d,spanish,13 or older,"no, only English or Spanish",no,2025-07-23_20h35.34.569,empathy_intonation_perc_control,2024.2.4,MacIntel,58.47953216,6131ba00bd67d2702e9a3c8d,68817205a84113384fffdfe3,68817edcc5291d8a5b38d4bf,,,,,,,,,,,,./stim/wavs/cuban_match_declarative-broad-focus_Mariano-habla-del-tiempo.wav,0,,,190.4829,192.9326,0,1,1.9182,,0,59,59,54,1,55,0,cuban,,,,,,,,,,,,,,,,,,,,,,,,,,,,,,,,,,,,,,,,,,,,,,,,,,,,,,,,
,,,,,,,,,6131ba00bd67d2702e9a3c8d,spanish,13 or older,"no, only English or Spanish",no,2025-07-23_20h35.34.569,empathy_intonation_perc_control,2024.2.4,MacIntel,58.47953216,6131ba00bd67d2702e9a3c8d,68817205a84113384fffdfe3,68817edcc5291d8a5b38d4bf,,,,,,,,,,,,./stim/wavs/castilian_match_declarative-broad-focus_Mariano-habla-del-tiempo.wav,0,,,192.933,195.3342,0,1,1.8752,,0,60,60,48,1,49,0,castilian,,,,,,,,,,,,,,,,,,,,,,,,,,,,,,,,,,,,,,,,,,,,,,,,,,,,,,,,
,,,,,,,,,6131ba00bd67d2702e9a3c8d,spanish,13 or older,"no, only English or Spanish",no,2025-07-23_20h35.34.569,empathy_intonation_perc_control,2024.2.4,MacIntel,58.47953216,6131ba00bd67d2702e9a3c8d,68817205a84113384fffdfe3,68817edcc5291d8a5b38d4bf,,,,,,,,,,,,./stim/wavs/mexican_match_interrogative-total-yn_Mariano-habla-del-tiempo.wav,1,,,195.335,197.8519,1,1,1.9884,,0,61,61,16,1,17,0,mexican,,,,,,,,,,,,,,,,,,,,,,,,,,,,,,,,,,,,,,,,,,,,,,,,,,,,,,,,
,,,,,,,,,6131ba00bd67d2702e9a3c8d,spanish,13 or older,"no, only English or Spanish",no,2025-07-23_20h35.34.569,empathy_intonation_perc_control,2024.2.4,MacIntel,58.47953216,6131ba00bd67d2702e9a3c8d,68817205a84113384fffdfe3,68817edcc5291d8a5b38d4bf,,,,,,,,,,,,./stim/wavs/cuban_mismatch_declarative-broad-focus_Mi-tia-odia-la-lluvia.wav,0,,,197.8523,200.3363,0,1,1.9669,,0,62,62,77,1,78,0,cuban,,,,,,,,,,,,,,,,,,,,,,,,,,,,,,,,,,,,,,,,,,,,,,,,,,,,,,,,
,,,,,,,,,6131ba00bd67d2702e9a3c8d,spanish,13 or older,"no, only English or Spanish",no,2025-07-23_20h35.34.569,empathy_intonation_perc_control,2024.2.4,MacIntel,58.47953216,6131ba00bd67d2702e9a3c8d,68817205a84113384fffdfe3,68817edcc5291d8a5b38d4bf,,,,,,,,,,,,./stim/wavs/cuban_mismatch_declarative-broad-focus_El-bebe-comia-muy-bien.wav,0,,,200.3368,203.5382,0,1,2.6825,,0,63,63,73,1,74,0,cuban,,,,,,,,,,,,,,,,,,,,,,,,,,,,,,,,,,,,,,,,,,,,,,,,,,,,,,,,
,,,,,,,,,6131ba00bd67d2702e9a3c8d,spanish,13 or older,"no, only English or Spanish",no,2025-07-23_20h35.34.569,empathy_intonation_perc_control,2024.2.4,MacIntel,58.47953216,6131ba00bd67d2702e9a3c8d,68817205a84113384fffdfe3,68817edcc5291d8a5b38d4bf,,,,,,,,,,,,./stim/wavs/cuban_match_interrogative-total-yn_Mariano-habla-del-tiempo.wav,1,,,203.5386,205.8557,0,0,1.7847,,0,64,64,10,1,11,1,cuban,,,,,,,,,,,,,,,,,,,,,,,,,,,,,,,,,,,,,,,,,,,,,,,,,,,,,,,,
,,,,,,,,,6131ba00bd67d2702e9a3c8d,spanish,13 or older,"no, only English or Spanish",no,2025-07-23_20h35.34.569,empathy_intonation_perc_control,2024.2.4,MacIntel,58.47953216,6131ba00bd67d2702e9a3c8d,68817205a84113384fffdfe3,68817edcc5291d8a5b38d4bf,,,,,,,,,,,,./stim/wavs/puertorican_match_interrogative-total-yn_Maria-bebe-el-vino.wav,1,,,205.8562,208.1237,0,0,1.7517,,0,65,65,23,1,24,1,puertorican,,,,,,,,,,,,,,,,,,,,,,,,,,,,,,,,,,,,,,,,,,,,,,,,,,,,,,,,
,,,,,,,,,6131ba00bd67d2702e9a3c8d,spanish,13 or older,"no, only English or Spanish",no,2025-07-23_20h35.34.569,empathy_intonation_perc_control,2024.2.4,MacIntel,58.47953216,6131ba00bd67d2702e9a3c8d,68817205a84113384fffdfe3,68817edcc5291d8a5b38d4bf,,,,,,,,,,,,./stim/wavs/mexican_mismatch_interrogative-total-yn_Mi-tia-odia-la-lluvia.wav,1,,,208.1244,210.2579,1,1,1.6008,,0,66,66,38,1,39,0,mexican,,,,,,,,,,,,,,,,,,,,,,,,,,,,,,,,,,,,,,,,,,,,,,,,,,,,,,,,
,,,,,,,,,6131ba00bd67d2702e9a3c8d,spanish,13 or older,"no, only English or Spanish",no,2025-07-23_20h35.34.569,empathy_intonation_perc_control,2024.2.4,MacIntel,58.47953216,6131ba00bd67d2702e9a3c8d,68817205a84113384fffdfe3,68817edcc5291d8a5b38d4bf,,,,,,,,,,,,./stim/wavs/puertorican_mismatch_interrogative-total-yn_Mi-madre-come-la-fruta.wav,1,,,210.2593,212.4424,0,0,1.6721,,0,67,67,43,1,44,1,puertorican,,,,,,,,,,,,,,,,,,,,,,,,,,,,,,,,,,,,,,,,,,,,,,,,,,,,,,,,
,,,,,,,,,6131ba00bd67d2702e9a3c8d,spanish,13 or older,"no, only English or Spanish",no,2025-07-23_20h35.34.569,empathy_intonation_perc_control,2024.2.4,MacIntel,58.47953216,6131ba00bd67d2702e9a3c8d,68817205a84113384fffdfe3,68817edcc5291d8a5b38d4bf,,,,,,,,,,,,./stim/wavs/mexican_mismatch_interrogative-total-yn_Mi-novio-viene-del-lago.wav,1,,,212.443,214.7431,1,1,1.7674,,0,68,68,37,1,38,0,mexican,,,,,,,,,,,,,,,,,,,,,,,,,,,,,,,,,,,,,,,,,,,,,,,,,,,,,,,,
,,,,,,,,,6131ba00bd67d2702e9a3c8d,spanish,13 or older,"no, only English or Spanish",no,2025-07-23_20h35.34.569,empathy_intonation_perc_control,2024.2.4,MacIntel,58.47953216,6131ba00bd67d2702e9a3c8d,68817205a84113384fffdfe3,68817edcc5291d8a5b38d4bf,,,,,,,,,,,,./stim/wavs/cuban_match_interrogative-total-yn_Maria-bebe-el-vino.wav,1,,,214.7436,217.0279,0,0,1.7731,,0,69,69,9,1,10,1,cuban,,,,,,,,,,,,,,,,,,,,,,,,,,,,,,,,,,,,,,,,,,,,,,,,,,,,,,,,
,,,,,,,,,6131ba00bd67d2702e9a3c8d,spanish,13 or older,"no, only English or Spanish",no,2025-07-23_20h35.34.569,empathy_intonation_perc_control,2024.2.4,MacIntel,58.47953216,6131ba00bd67d2702e9a3c8d,68817205a84113384fffdfe3,68817edcc5291d8a5b38d4bf,,,,,,,,,,,,./stim/wavs/mexican_match_interrogative-total-yn_David-leia-el-libro.wav,1,,,217.0282,219.2955,1,1,1.736,,0,70,70,14,1,15,0,mexican,,,,,,,,,,,,,,,,,,,,,,,,,,,,,,,,,,,,,,,,,,,,,,,,,,,,,,,,
,,,,,,,,,6131ba00bd67d2702e9a3c8d,spanish,13 or older,"no, only English or Spanish",no,2025-07-23_20h35.34.569,empathy_intonation_perc_control,2024.2.4,MacIntel,58.47953216,6131ba00bd67d2702e9a3c8d,68817205a84113384fffdfe3,68817edcc5291d8a5b38d4bf,,,,,,,,,,,,./stim/wavs/mexican_mismatch_declarative-broad-focus_El-hombre-mira-la-luna.wav,0,,,219.296,221.7798,0,1,1.9682,,0,71,71,79,1,80,0,mexican,,,,,,,,,,,,,,,,,,,,,,,,,,,,,,,,,,,,,,,,,,,,,,,,,,,,,,,,
,,,,,,,,,6131ba00bd67d2702e9a3c8d,spanish,13 or older,"no, only English or Spanish",no,2025-07-23_20h35.34.569,empathy_intonation_perc_control,2024.2.4,MacIntel,58.47953216,6131ba00bd67d2702e9a3c8d,68817205a84113384fffdfe3,68817edcc5291d8a5b38d4bf,,,,,,,,,,,,./stim/wavs/castilian_mismatch_declarative-broad-focus_La-maestra-vive-en-Paris.wav,0,,,221.7805,224.2146,0,1,1.9018,,0,72,72,69,1,70,0,castilian,,,,,,,,,,,,,,,,,,,,,,,,,,,,,,,,,,,,,,,,,,,,,,,,,,,,,,,,
,,,,,,,,,6131ba00bd67d2702e9a3c8d,spanish,13 or older,"no, only English or Spanish",no,2025-07-23_20h35.34.569,empathy_intonation_perc_control,2024.2.4,MacIntel,58.47953216,6131ba00bd67d2702e9a3c8d,68817205a84113384fffdfe3,68817edcc5291d8a5b38d4bf,,,,,,,,,,,,./stim/wavs/castilian_match_interrogative-total-yn_Maria-bebe-el-vino.wav,1,,,224.2153,226.2819,1,1,1.5349,,0,73,73,3,1,4,0,castilian,,,,,,,,,,,,,,,,,,,,,,,,,,,,,,,,,,,,,,,,,,,,,,,,,,,,,,,,
,,,,,,,,,6131ba00bd67d2702e9a3c8d,spanish,13 or older,"no, only English or Spanish",no,2025-07-23_20h35.34.569,empathy_intonation_perc_control,2024.2.4,MacIntel,58.47953216,6131ba00bd67d2702e9a3c8d,68817205a84113384fffdfe3,68817edcc5291d8a5b38d4bf,,,,,,,,,,,,./stim/wavs/puertorican_mismatch_interrogative-total-yn_El-hombre-mira-la-luna.wav,1,,,226.2826,228.5169,0,0,1.7183,,0,74,74,39,1,40,1,puertorican,,,,,,,,,,,,,,,,,,,,,,,,,,,,,,,,,,,,,,,,,,,,,,,,,,,,,,,,
,,,,,,,,,6131ba00bd67d2702e9a3c8d,spanish,13 or older,"no, only English or Spanish",no,2025-07-23_20h35.34.569,empathy_intonation_perc_control,2024.2.4,MacIntel,58.47953216,6131ba00bd67d2702e9a3c8d,68817205a84113384fffdfe3,68817edcc5291d8a5b38d4bf,,,,,,,,,,,,./stim/wavs/castilian_mismatch_interrogative-total-yn_Mi-novio-viene-del-lago.wav,1,,,228.5176,230.8008,1,1,1.7526,,0,75,75,27,1,28,0,castilian,,,,,,,,,,,,,,,,,,,,,,,,,,,,,,,,,,,,,,,,,,,,,,,,,,,,,,,,
,,,,,,,,,6131ba00bd67d2702e9a3c8d,spanish,13 or older,"no, only English or Spanish",no,2025-07-23_20h35.34.569,empathy_intonation_perc_control,2024.2.4,MacIntel,58.47953216,6131ba00bd67d2702e9a3c8d,68817205a84113384fffdfe3,68817edcc5291d8a5b38d4bf,,,,,,,,,,,,./stim/wavs/mexican_match_interrogative-total-yn_Emilio-ama-la-marcha.wav,1,,,230.8014,233.1188,1,1,1.7834,,0,76,76,15,1,16,0,mexican,,,,,,,,,,,,,,,,,,,,,,,,,,,,,,,,,,,,,,,,,,,,,,,,,,,,,,,,
,,,,,,,,,6131ba00bd67d2702e9a3c8d,spanish,13 or older,"no, only English or Spanish",no,2025-07-23_20h35.34.569,empathy_intonation_perc_control,2024.2.4,MacIntel,58.47953216,6131ba00bd67d2702e9a3c8d,68817205a84113384fffdfe3,68817edcc5291d8a5b38d4bf,,,,,,,,,,,,./stim/wavs/castilian_mismatch_declarative-broad-focus_Mi-novio-viene-del-lago.wav,0,,,233.1198,235.4863,0,1,1.8323,,0,77,77,71,1,72,0,castilian,,,,,,,,,,,,,,,,,,,,,,,,,,,,,,,,,,,,,,,,,,,,,,,,,,,,,,,,
,,,,,,,,,6131ba00bd67d2702e9a3c8d,spanish,13 or older,"no, only English or Spanish",no,2025-07-23_20h35.34.569,empathy_intonation_perc_control,2024.2.4,MacIntel,58.47953216,6131ba00bd67d2702e9a3c8d,68817205a84113384fffdfe3,68817edcc5291d8a5b38d4bf,,,,,,,,,,,,./stim/wavs/mexican_mismatch_declarative-broad-focus_La-maestra-vive-en-Paris.wav,0,,,235.4869,238.0047,0,1,2.0016,,0,78,78,80,1,81,0,mexican,,,,,,,,,,,,,,,,,,,,,,,,,,,,,,,,,,,,,,,,,,,,,,,,,,,,,,,,
,,,,,,,,,6131ba00bd67d2702e9a3c8d,spanish,13 or older,"no, only English or Spanish",no,2025-07-23_20h35.34.569,empathy_intonation_perc_control,2024.2.4,MacIntel,58.47953216,6131ba00bd67d2702e9a3c8d,68817205a84113384fffdfe3,68817edcc5291d8a5b38d4bf,,,,,,,,,,,,./stim/wavs/cuban_mismatch_declarative-broad-focus_El-hombre-mira-la-luna.wav,0,,,238.0054,240.0051,0,1,1.4695,,0,79,79,74,1,75,0,cuban,,,,,,,,,,,,,,,,,,,,,,,,,,,,,,,,,,,,,,,,,,,,,,,,,,,,,,,,
,,,,,,,,,6131ba00bd67d2702e9a3c8d,spanish,13 or older,"no, only English or Spanish",no,2025-07-23_20h35.34.569,empathy_intonation_perc_control,2024.2.4,MacIntel,58.47953216,6131ba00bd67d2702e9a3c8d,68817205a84113384fffdfe3,68817edcc5291d8a5b38d4bf,,,,,,,,,,,,./stim/wavs/puertorican_match_declarative-broad-focus_David-leia-el-libro.wav,0,,,240.0058,242.1063,0,1,1.5689,,0,80,80,64,1,65,0,puertorican,,,,,,,,,,,,,,,,,,,,,,,,,,,,,,,,,,,,,,,,,,,,,,,,,,,,,,,,
,,,,,,,,,6131ba00bd67d2702e9a3c8d,spanish,13 or older,"no, only English or Spanish",no,2025-07-23_20h35.34.569,empathy_intonation_perc_control,2024.2.4,MacIntel,58.47953216,6131ba00bd67d2702e9a3c8d,68817205a84113384fffdfe3,68817edcc5291d8a5b38d4bf,,,,,,,,,,,,./stim/wavs/mexican_match_declarative-broad-focus_Ana-lleva-el-abrigo.wav,0,,,242.1068,244.0907,0,1,1.4674,,0,81,81,56,1,57,0,mexican,,,,,,,,,,,,,,,,,,,,,,,,,,,,,,,,,,,,,,,,,,,,,,,,,,,,,,,,
,,,,,,,,,6131ba00bd67d2702e9a3c8d,spanish,13 or older,"no, only English or Spanish",no,2025-07-23_20h35.34.569,empathy_intonation_perc_control,2024.2.4,MacIntel,58.47953216,6131ba00bd67d2702e9a3c8d,68817205a84113384fffdfe3,68817edcc5291d8a5b38d4bf,,,,,,,,,,,,./stim/wavs/puertorican_match_interrogative-total-yn_David-leia-el-libro.wav,1,,,244.0913,246.1082,0,0,1.4857,,0,82,82,20,1,21,1,puertorican,,,,,,,,,,,,,,,,,,,,,,,,,,,,,,,,,,,,,,,,,,,,,,,,,,,,,,,,
,,,,,,,,,6131ba00bd67d2702e9a3c8d,spanish,13 or older,"no, only English or Spanish",no,2025-07-23_20h35.34.569,empathy_intonation_perc_control,2024.2.4,MacIntel,58.47953216,6131ba00bd67d2702e9a3c8d,68817205a84113384fffdfe3,68817edcc5291d8a5b38d4bf,,,,,,,,,,,,./stim/wavs/cuban_match_declarative-broad-focus_Marta-abre-el-regalo.wav,0,,,246.1087,248.2426,0,1,1.6011,,0,83,83,55,1,56,0,cuban,,,,,,,,,,,,,,,,,,,,,,,,,,,,,,,,,,,,,,,,,,,,,,,,,,,,,,,,
,,,,,,,,,6131ba00bd67d2702e9a3c8d,spanish,13 or older,"no, only English or Spanish",no,2025-07-23_20h35.34.569,empathy_intonation_perc_control,2024.2.4,MacIntel,58.47953216,6131ba00bd67d2702e9a3c8d,68817205a84113384fffdfe3,68817edcc5291d8a5b38d4bf,,,,,,,,,,,,./stim/wavs/puertorican_mismatch_interrogative-total-yn_El-nino-oye-el-rio.wav,1,,,248.2431,250.2433,0,0,1.4671,,0,84,84,40,1,41,1,puertorican,,,,,,,,,,,,,,,,,,,,,,,,,,,,,,,,,,,,,,,,,,,,,,,,,,,,,,,,
,,,,,,,,,6131ba00bd67d2702e9a3c8d,spanish,13 or older,"no, only English or Spanish",no,2025-07-23_20h35.34.569,empathy_intonation_perc_control,2024.2.4,MacIntel,58.47953216,6131ba00bd67d2702e9a3c8d,68817205a84113384fffdfe3,68817edcc5291d8a5b38d4bf,,,,,,,,,,,,./stim/wavs/mexican_match_interrogative-total-yn_Marta-abre-el-regalo.wav,1,,,250.2442,252.2946,1,1,1.5323,,0,85,85,17,1,18,0,mexican,,,,,,,,,,,,,,,,,,,,,,,,,,,,,,,,,,,,,,,,,,,,,,,,,,,,,,,,
,,,,,,,,,6131ba00bd67d2702e9a3c8d,spanish,13 or older,"no, only English or Spanish",no,2025-07-23_20h35.34.569,empathy_intonation_perc_control,2024.2.4,MacIntel,58.47953216,6131ba00bd67d2702e9a3c8d,68817205a84113384fffdfe3,68817edcc5291d8a5b38d4bf,,,,,,,,,,,,./stim/wavs/puertorican_mismatch_declarative-broad-focus_El-bebe-comia-muy-bien.wav,0,,,252.2952,254.8453,0,1,2.0236,,0,86,86,83,1,84,0,puertorican,,,,,,,,,,,,,,,,,,,,,,,,,,,,,,,,,,,,,,,,,,,,,,,,,,,,,,,,
,,,,,,,,,6131ba00bd67d2702e9a3c8d,spanish,13 or older,"no, only English or Spanish",no,2025-07-23_20h35.34.569,empathy_intonation_perc_control,2024.2.4,MacIntel,58.47953216,6131ba00bd67d2702e9a3c8d,68817205a84113384fffdfe3,68817edcc5291d8a5b38d4bf,,,,,,,,,,,,./stim/wavs/cuban_mismatch_interrogative-total-yn_Mi-madre-come-la-fruta.wav,1,,,254.846,256.8973,0,0,1.536,,0,87,87,31,1,32,1,cuban,,,,,,,,,,,,,,,,,,,,,,,,,,,,,,,,,,,,,,,,,,,,,,,,,,,,,,,,
,,,,,,,"Great! Now we will move on. The next task consists of about 60 trials, in each of which you will see a string of letters. 
  
  Your task is to decide whether this is a real Spanish word or not.", (press the spacebar to continue),6131ba00bd67d2702e9a3c8d,spanish,13 or older,"no, only English or Spanish",no,2025-07-23_20h35.34.569,empathy_intonation_perc_control,2024.2.4,MacIntel,58.47953216,6131ba00bd67d2702e9a3c8d,68817205a84113384fffdfe3,68817edcc5291d8a5b38d4bf,,,,,,,,,,,,,,,,,,,,,,,,,,,,,,256.903,267.3016,0,0,0,0,1,,,,,,,,,,,,,,,,,,,,,,,,,,,,,,,,,,,,,,,,,,,,,,,,,
,,,,,,,"If you think it is an existing Spanish word, you type '1' (for 'REAL'), and if you think it is not an existing Spanish word, you type '0' (for 'FAKE').", (press the spacebar to continue),6131ba00bd67d2702e9a3c8d,spanish,13 or older,"no, only English or Spanish",no,2025-07-23_20h35.34.569,empathy_intonation_perc_control,2024.2.4,MacIntel,58.47953216,6131ba00bd67d2702e9a3c8d,68817205a84113384fffdfe3,68817edcc5291d8a5b38d4bf,,,,,,,,,,,,,,,,,,,,,,,,,,,,,,267.3032,270.4362,0,1,1,1,1,,,,,,,,,,,,,,,,,,,,,,,,,,,,,,,,,,,,,,,,,,,,,,,,,
,,,,,,,"If you are sure that the word exists, even though you don’t know its exact meaning, you may still respond '1' (REAL). 
  
  But if you are not sure if it is an existing word, you should respond '0' (FAKE).
  
  Let's do a practice round...", (press the spacebar to continue),6131ba00bd67d2702e9a3c8d,spanish,13 or older,"no, only English or Spanish",no,2025-07-23_20h35.34.569,empathy_intonation_perc_control,2024.2.4,MacIntel,58.47953216,6131ba00bd67d2702e9a3c8d,68817205a84113384fffdfe3,68817edcc5291d8a5b38d4bf,,,,,,,,,,,,,,,,,,,,,,,,,,,,,,270.4377,690.5189,0,2,2,2,1,,,,,,,,,,,,,,,,,,,,,,,,,,,,,,,,,,,,,,,,,,,,,,,,,
,,,,,,,,,6131ba00bd67d2702e9a3c8d,spanish,13 or older,"no, only English or Spanish",no,2025-07-23_20h35.34.569,empathy_intonation_perc_control,2024.2.4,MacIntel,58.47953216,6131ba00bd67d2702e9a3c8d,68817205a84113384fffdfe3,68817edcc5291d8a5b38d4bf,,,,,,,,,,,,,0,,,,,,,,,,,,,,,,,,,,,,,,690.5236,694.0706,0,1,3.0143,,694.0709,695.0718,0,0,0,0,1,0,depiste,REAL,FAKE,,,,,,,,,,,,,,,,,,,,,,,,,,,,,,,,
,,,,,,,,,6131ba00bd67d2702e9a3c8d,spanish,13 or older,"no, only English or Spanish",no,2025-07-23_20h35.34.569,empathy_intonation_perc_control,2024.2.4,MacIntel,58.47953216,6131ba00bd67d2702e9a3c8d,68817205a84113384fffdfe3,68817edcc5291d8a5b38d4bf,,,,,,,,,,,,,1,,,,,,,,,,,,,,,,,,,,,,,,695.0729,696.7888,1,1,1.1798,,696.7888,697.7895,0,1,1,1,1,0,sí,REAL,FAKE,,,,,,,,,,,,,,,,,,,,,,,,,,,,,,,,
,,,,,,,,,6131ba00bd67d2702e9a3c8d,spanish,13 or older,"no, only English or Spanish",no,2025-07-23_20h35.34.569,empathy_intonation_perc_control,2024.2.4,MacIntel,58.47953216,6131ba00bd67d2702e9a3c8d,68817205a84113384fffdfe3,68817edcc5291d8a5b38d4bf,,,,,,,,,,,,,0,,,,,,,,,,,,,,,,,,,,,,,,697.7908,700.0902,1,0,1.7627,,700.0913,701.0911,0,2,2,2,1,0,coné,REAL,FAKE,,,,,,,,,,,,,,,,,,,,,,,,,,,,,,,,
,,,,,,,,,6131ba00bd67d2702e9a3c8d,spanish,13 or older,"no, only English or Spanish",no,2025-07-23_20h35.34.569,empathy_intonation_perc_control,2024.2.4,MacIntel,58.47953216,6131ba00bd67d2702e9a3c8d,68817205a84113384fffdfe3,68817edcc5291d8a5b38d4bf,,,,,,,,,,,,,0,,,,,,,,,,,,,,,,,,,,,,,,701.0926,703.7914,0,1,2.1682,,703.7919,704.7935,0,3,3,3,1,0,calpar,REAL,FAKE,,,,,,,,,,,,,,,,,,,,,,,,,,,,,,,,
,,,,,,,,,6131ba00bd67d2702e9a3c8d,spanish,13 or older,"no, only English or Spanish",no,2025-07-23_20h35.34.569,empathy_intonation_perc_control,2024.2.4,MacIntel,58.47953216,6131ba00bd67d2702e9a3c8d,68817205a84113384fffdfe3,68817edcc5291d8a5b38d4bf,,,,,,,,,,,,,0,,,,,,,,,,,,,,,,,,,,,,,,704.7945,706.7767,1,0,1.4486,,706.7775,707.7773,0,4,4,4,1,0,joten,REAL,FAKE,,,,,,,,,,,,,,,,,,,,,,,,,,,,,,,,
,,,,,,,,,6131ba00bd67d2702e9a3c8d,spanish,13 or older,"no, only English or Spanish",no,2025-07-23_20h35.34.569,empathy_intonation_perc_control,2024.2.4,MacIntel,58.47953216,6131ba00bd67d2702e9a3c8d,68817205a84113384fffdfe3,68817edcc5291d8a5b38d4bf,,,,,,,,,,,,,1,,,,,,,,,,,,,,,,,,,,,,,,707.7783,709.3944,1,1,1.0799,,709.3953,710.3954,0,5,5,5,1,0,sacapuntas,REAL,FAKE,,,,,,,,,,,,,,,,,,,,,,,,,,,,,,,,
,,,,,,,,,6131ba00bd67d2702e9a3c8d,spanish,13 or older,"no, only English or Spanish",no,2025-07-23_20h35.34.569,empathy_intonation_perc_control,2024.2.4,MacIntel,58.47953216,6131ba00bd67d2702e9a3c8d,68817205a84113384fffdfe3,68817edcc5291d8a5b38d4bf,,,,,,,,,,,,,0,,,,,,,,,,,,,,,,,,,,,,,,710.3965,712.2958,1,0,1.3642,,712.2966,713.2969,0,6,6,6,1,0,priba,REAL,FAKE,,,,,,,,,,,,,,,,,,,,,,,,,,,,,,,,
,,,,,,,,,6131ba00bd67d2702e9a3c8d,spanish,13 or older,"no, only English or Spanish",no,2025-07-23_20h35.34.569,empathy_intonation_perc_control,2024.2.4,MacIntel,58.47953216,6131ba00bd67d2702e9a3c8d,68817205a84113384fffdfe3,68817edcc5291d8a5b38d4bf,,,,,,,,,,,,,0,,,,,,,,,,,,,,,,,,,,,,,,713.298,714.947,0,1,1.1169,,714.9475,715.9476,0,7,7,7,1,0,pelasula,REAL,FAKE,,,,,,,,,,,,,,,,,,,,,,,,,,,,,,,,
,,,,,,,,,6131ba00bd67d2702e9a3c8d,spanish,13 or older,"no, only English or Spanish",no,2025-07-23_20h35.34.569,empathy_intonation_perc_control,2024.2.4,MacIntel,58.47953216,6131ba00bd67d2702e9a3c8d,68817205a84113384fffdfe3,68817edcc5291d8a5b38d4bf,,,,,,,,,,,,,1,,,,,,,,,,,,,,,,,,,,,,,,715.9485,717.1813,1,1,0.7132,,717.1814,718.1817,0,8,8,8,1,0,bien,REAL,FAKE,,,,,,,,,,,,,,,,,,,,,,,,,,,,,,,,
,,,,,,,,,6131ba00bd67d2702e9a3c8d,spanish,13 or older,"no, only English or Spanish",no,2025-07-23_20h35.34.569,empathy_intonation_perc_control,2024.2.4,MacIntel,58.47953216,6131ba00bd67d2702e9a3c8d,68817205a84113384fffdfe3,68817edcc5291d8a5b38d4bf,,,,,,,,,,,,,1,,,,,,,,,,,,,,,,,,,,,,,,718.1826,719.3321,1,1,0.6282,,719.3323,720.3331,0,9,9,9,1,0,casa,REAL,FAKE,,,,,,,,,,,,,,,,,,,,,,,,,,,,,,,,
,,,,,,,,,6131ba00bd67d2702e9a3c8d,spanish,13 or older,"no, only English or Spanish",no,2025-07-23_20h35.34.569,empathy_intonation_perc_control,2024.2.4,MacIntel,58.47953216,6131ba00bd67d2702e9a3c8d,68817205a84113384fffdfe3,68817edcc5291d8a5b38d4bf,,,,,,,,,,,,,0,,,,,,,,,,,,,,,,,,,,,,,,720.3343,723.0339,0,1,2.1806,,723.0339,724.0357,0,10,10,10,1,0,lejo,REAL,FAKE,,,,,,,,,,,,,,,,,,,,,,,,,,,,,,,,
,,,,,,,,,6131ba00bd67d2702e9a3c8d,spanish,13 or older,"no, only English or Spanish",no,2025-07-23_20h35.34.569,empathy_intonation_perc_control,2024.2.4,MacIntel,58.47953216,6131ba00bd67d2702e9a3c8d,68817205a84113384fffdfe3,68817edcc5291d8a5b38d4bf,,,,,,,,,,,,,0,,,,,,,,,,,,,,,,,,,,,,,,724.0368,725.4854,0,1,0.9178,,725.4855,726.4865,0,11,11,11,1,0,pretantas,REAL,FAKE,,,,,,,,,,,,,,,,,,,,,,,,,,,,,,,,
,,,,,,,,,6131ba00bd67d2702e9a3c8d,spanish,13 or older,"no, only English or Spanish",no,2025-07-23_20h35.34.569,empathy_intonation_perc_control,2024.2.4,MacIntel,58.47953216,6131ba00bd67d2702e9a3c8d,68817205a84113384fffdfe3,68817edcc5291d8a5b38d4bf,,,,,,,,,,,,,,,,,,,,,,,,,,,,,,,,,,,,,,,,,,,,,,,,,,,,,,726.487,729.7717,,,,,,,,,,,,,,,,,,,,,,,,,,,,,,
,,,,,,,,,6131ba00bd67d2702e9a3c8d,spanish,13 or older,"no, only English or Spanish",no,2025-07-23_20h35.34.569,empathy_intonation_perc_control,2024.2.4,MacIntel,58.47953216,6131ba00bd67d2702e9a3c8d,68817205a84113384fffdfe3,68817edcc5291d8a5b38d4bf,,,,,,,,,,,,,1,,,,,,,,,,,,,,,,,,,,,,,,,,,,,,,,,,,,,36,loro,,,,,729.781,731.5886,0,0,1.2796,,0,0,0,35,1,REAL,FAKE,,,,,,,,,,,,,,,,,
,,,,,,,,,6131ba00bd67d2702e9a3c8d,spanish,13 or older,"no, only English or Spanish",no,2025-07-23_20h35.34.569,empathy_intonation_perc_control,2024.2.4,MacIntel,58.47953216,6131ba00bd67d2702e9a3c8d,68817205a84113384fffdfe3,68817edcc5291d8a5b38d4bf,,,,,,,,,,,,,1,,,,,,,,,,,,,,,,,,,,,,,,,,,,,,,,,,,,,14,yunque,,,,,731.5898,732.9058,0,0,0.7795,,0,1,1,13,1,REAL,FAKE,,,,,,,,,,,,,,,,,
,,,,,,,,,6131ba00bd67d2702e9a3c8d,spanish,13 or older,"no, only English or Spanish",no,2025-07-23_20h35.34.569,empathy_intonation_perc_control,2024.2.4,MacIntel,58.47953216,6131ba00bd67d2702e9a3c8d,68817205a84113384fffdfe3,68817edcc5291d8a5b38d4bf,,,,,,,,,,,,,1,,,,,,,,,,,,,,,,,,,,,,,,,,,,,,,,,,,,,67,cabello,,,,,732.9065,734.1561,1,1,0.7297,,0,2,2,66,1,REAL,FAKE,,,,,,,,,,,,,,,,,
,,,,,,,,,6131ba00bd67d2702e9a3c8d,spanish,13 or older,"no, only English or Spanish",no,2025-07-23_20h35.34.569,empathy_intonation_perc_control,2024.2.4,MacIntel,58.47953216,6131ba00bd67d2702e9a3c8d,68817205a84113384fffdfe3,68817edcc5291d8a5b38d4bf,,,,,,,,,,,,,1,,,,,,,,,,,,,,,,,,,,,,,,,,,,,,,,,,,,,37,granuja,,,,,734.157,735.3904,0,0,0.7147,,0,3,3,36,1,REAL,FAKE,,,,,,,,,,,,,,,,,
,,,,,,,,,6131ba00bd67d2702e9a3c8d,spanish,13 or older,"no, only English or Spanish",no,2025-07-23_20h35.34.569,empathy_intonation_perc_control,2024.2.4,MacIntel,58.47953216,6131ba00bd67d2702e9a3c8d,68817205a84113384fffdfe3,68817edcc5291d8a5b38d4bf,,,,,,,,,,,,,1,,,,,,,,,,,,,,,,,,,,,,,,,,,,,,,,,,,,,28,merodear,,,,,735.3912,736.9079,0,0,0.9976,,0,4,4,27,1,REAL,FAKE,,,,,,,,,,,,,,,,,
,,,,,,,,,6131ba00bd67d2702e9a3c8d,spanish,13 or older,"no, only English or Spanish",no,2025-07-23_20h35.34.569,empathy_intonation_perc_control,2024.2.4,MacIntel,58.47953216,6131ba00bd67d2702e9a3c8d,68817205a84113384fffdfe3,68817edcc5291d8a5b38d4bf,,,,,,,,,,,,,1,,,,,,,,,,,,,,,,,,,,,,,,,,,,,,,,,,,,,46,martillo,,,,,736.909,738.2583,0,0,0.8107,,0,5,5,45,1,REAL,FAKE,,,,,,,,,,,,,,,,,
,,,,,,,,,6131ba00bd67d2702e9a3c8d,spanish,13 or older,"no, only English or Spanish",no,2025-07-23_20h35.34.569,empathy_intonation_perc_control,2024.2.4,MacIntel,58.47953216,6131ba00bd67d2702e9a3c8d,68817205a84113384fffdfe3,68817edcc5291d8a5b38d4bf,,,,,,,,,,,,,0,,,,,,,,,,,,,,,,,,,,,,,,,,,,,,,,,,,,,42,cadallo,,,,,738.2595,739.576,0,1,0.7962,,0,6,6,41,1,REAL,FAKE,,,,,,,,,,,,,,,,,
,,,,,,,,,6131ba00bd67d2702e9a3c8d,spanish,13 or older,"no, only English or Spanish",no,2025-07-23_20h35.34.569,empathy_intonation_perc_control,2024.2.4,MacIntel,58.47953216,6131ba00bd67d2702e9a3c8d,68817205a84113384fffdfe3,68817edcc5291d8a5b38d4bf,,,,,,,,,,,,,0,,,,,,,,,,,,,,,,,,,,,,,,,,,,,,,,,,,,,19,brecedad,,,,,739.5771,741.326,0,1,1.2185,,0,7,7,18,1,REAL,FAKE,,,,,,,,,,,,,,,,,
,,,,,,,,,6131ba00bd67d2702e9a3c8d,spanish,13 or older,"no, only English or Spanish",no,2025-07-23_20h35.34.569,empathy_intonation_perc_control,2024.2.4,MacIntel,58.47953216,6131ba00bd67d2702e9a3c8d,68817205a84113384fffdfe3,68817edcc5291d8a5b38d4bf,,,,,,,,,,,,,1,,,,,,,,,,,,,,,,,,,,,,,,,,,,,,,,,,,,,24,látigo,,,,,741.3269,742.9603,0,0,1.095,,0,8,8,23,1,REAL,FAKE,,,,,,,,,,,,,,,,,
,,,,,,,,,6131ba00bd67d2702e9a3c8d,spanish,13 or older,"no, only English or Spanish",no,2025-07-23_20h35.34.569,empathy_intonation_perc_control,2024.2.4,MacIntel,58.47953216,6131ba00bd67d2702e9a3c8d,68817205a84113384fffdfe3,68817edcc5291d8a5b38d4bf,,,,,,,,,,,,,1,,,,,,,,,,,,,,,,,,,,,,,,,,,,,,,,,,,,,40,alfombra,,,,,742.9616,744.1444,0,0,0.671,,0,9,9,39,1,REAL,FAKE,,,,,,,,,,,,,,,,,
,,,,,,,,,6131ba00bd67d2702e9a3c8d,spanish,13 or older,"no, only English or Spanish",no,2025-07-23_20h35.34.569,empathy_intonation_perc_control,2024.2.4,MacIntel,58.47953216,6131ba00bd67d2702e9a3c8d,68817205a84113384fffdfe3,68817edcc5291d8a5b38d4bf,,,,,,,,,,,,,0,,,,,,,,,,,,,,,,,,,,,,,,,,,,,,,,,,,,,79,tropaje,,,,,744.1456,746.2786,0,1,1.5971,,0,10,10,78,1,REAL,FAKE,,,,,,,,,,,,,,,,,
,,,,,,,,,6131ba00bd67d2702e9a3c8d,spanish,13 or older,"no, only English or Spanish",no,2025-07-23_20h35.34.569,empathy_intonation_perc_control,2024.2.4,MacIntel,58.47953216,6131ba00bd67d2702e9a3c8d,68817205a84113384fffdfe3,68817edcc5291d8a5b38d4bf,,,,,,,,,,,,,1,,,,,,,,,,,,,,,,,,,,,,,,,,,,,,,,,,,,,59,besar,,,,,746.2795,747.6293,1,1,0.8126,,0,11,11,58,1,REAL,FAKE,,,,,,,,,,,,,,,,,
,,,,,,,,,6131ba00bd67d2702e9a3c8d,spanish,13 or older,"no, only English or Spanish",no,2025-07-23_20h35.34.569,empathy_intonation_perc_control,2024.2.4,MacIntel,58.47953216,6131ba00bd67d2702e9a3c8d,68817205a84113384fffdfe3,68817edcc5291d8a5b38d4bf,,,,,,,,,,,,,1,,,,,,,,,,,,,,,,,,,,,,,,,,,,,,,,,,,,,5,zapato,,,,,747.6305,748.8958,1,1,0.7509,,0,12,12,4,1,REAL,FAKE,,,,,,,,,,,,,,,,,
,,,,,,,,,6131ba00bd67d2702e9a3c8d,spanish,13 or older,"no, only English or Spanish",no,2025-07-23_20h35.34.569,empathy_intonation_perc_control,2024.2.4,MacIntel,58.47953216,6131ba00bd67d2702e9a3c8d,68817205a84113384fffdfe3,68817edcc5291d8a5b38d4bf,,,,,,,,,,,,,1,,,,,,,,,,,,,,,,,,,,,,,,,,,,,,,,,,,,,86,barato,,,,,748.8969,750.3474,0,0,0.932,,0,13,13,85,1,REAL,FAKE,,,,,,,,,,,,,,,,,
,,,,,,,,,6131ba00bd67d2702e9a3c8d,spanish,13 or older,"no, only English or Spanish",no,2025-07-23_20h35.34.569,empathy_intonation_perc_control,2024.2.4,MacIntel,58.47953216,6131ba00bd67d2702e9a3c8d,68817205a84113384fffdfe3,68817edcc5291d8a5b38d4bf,,,,,,,,,,,,,0,,,,,,,,,,,,,,,,,,,,,,,,,,,,,,,,,,,,,30,alardio,,,,,750.3485,751.5316,0,1,0.6532,,0,14,14,29,1,REAL,FAKE,,,,,,,,,,,,,,,,,
,,,,,,,,,6131ba00bd67d2702e9a3c8d,spanish,13 or older,"no, only English or Spanish",no,2025-07-23_20h35.34.569,empathy_intonation_perc_control,2024.2.4,MacIntel,58.47953216,6131ba00bd67d2702e9a3c8d,68817205a84113384fffdfe3,68817edcc5291d8a5b38d4bf,,,,,,,,,,,,,0,,,,,,,,,,,,,,,,,,,,,,,,,,,,,,,,,,,,,66,hacido,,,,,751.5327,752.8647,1,0,0.7961,,0,15,15,65,1,REAL,FAKE,,,,,,,,,,,,,,,,,
,,,,,,,,,6131ba00bd67d2702e9a3c8d,spanish,13 or older,"no, only English or Spanish",no,2025-07-23_20h35.34.569,empathy_intonation_perc_control,2024.2.4,MacIntel,58.47953216,6131ba00bd67d2702e9a3c8d,68817205a84113384fffdfe3,68817edcc5291d8a5b38d4bf,,,,,,,,,,,,,0,,,,,,,,,,,,,,,,,,,,,,,,,,,,,,,,,,,,,17,floroso,,,,,752.8656,754.1491,0,1,0.7649,,0,16,16,16,1,REAL,FAKE,,,,,,,,,,,,,,,,,
,,,,,,,,,6131ba00bd67d2702e9a3c8d,spanish,13 or older,"no, only English or Spanish",no,2025-07-23_20h35.34.569,empathy_intonation_perc_control,2024.2.4,MacIntel,58.47953216,6131ba00bd67d2702e9a3c8d,68817205a84113384fffdfe3,68817edcc5291d8a5b38d4bf,,,,,,,,,,,,,1,,,,,,,,,,,,,,,,,,,,,,,,,,,,,,,,,,,,,56,musgo,,,,,754.1503,755.4325,0,0,0.7514,,0,17,17,55,1,REAL,FAKE,,,,,,,,,,,,,,,,,
,,,,,,,,,6131ba00bd67d2702e9a3c8d,spanish,13 or older,"no, only English or Spanish",no,2025-07-23_20h35.34.569,empathy_intonation_perc_control,2024.2.4,MacIntel,58.47953216,6131ba00bd67d2702e9a3c8d,68817205a84113384fffdfe3,68817edcc5291d8a5b38d4bf,,,,,,,,,,,,,1,,,,,,,,,,,,,,,,,,,,,,,,,,,,,,,,,,,,,65,bizcocho,,,,,755.4336,756.6,0,0,0.6338,,0,18,18,64,1,REAL,FAKE,,,,,,,,,,,,,,,,,
,,,,,,,,,6131ba00bd67d2702e9a3c8d,spanish,13 or older,"no, only English or Spanish",no,2025-07-23_20h35.34.569,empathy_intonation_perc_control,2024.2.4,MacIntel,58.47953216,6131ba00bd67d2702e9a3c8d,68817205a84113384fffdfe3,68817edcc5291d8a5b38d4bf,,,,,,,,,,,,,0,,,,,,,,,,,,,,,,,,,,,,,,,,,,,,,,,,,,,4,batillón,,,,,756.6009,759.4016,0,1,2.2835,,0,19,19,3,1,REAL,FAKE,,,,,,,,,,,,,,,,,
,,,,,,,,,6131ba00bd67d2702e9a3c8d,spanish,13 or older,"no, only English or Spanish",no,2025-07-23_20h35.34.569,empathy_intonation_perc_control,2024.2.4,MacIntel,58.47953216,6131ba00bd67d2702e9a3c8d,68817205a84113384fffdfe3,68817edcc5291d8a5b38d4bf,,,,,,,,,,,,,1,,,,,,,,,,,,,,,,,,,,,,,,,,,,,,,,,,,,,73,hervidor,,,,,759.4026,760.7011,0,0,0.768,,0,20,20,72,1,REAL,FAKE,,,,,,,,,,,,,,,,,
,,,,,,,,,6131ba00bd67d2702e9a3c8d,spanish,13 or older,"no, only English or Spanish",no,2025-07-23_20h35.34.569,empathy_intonation_perc_control,2024.2.4,MacIntel,58.47953216,6131ba00bd67d2702e9a3c8d,68817205a84113384fffdfe3,68817edcc5291d8a5b38d4bf,,,,,,,,,,,,,1,,,,,,,,,,,,,,,,,,,,,,,,,,,,,,,,,,,,,9,hacha,,,,,760.7023,762.4693,1,1,1.2354,,0,21,21,8,1,REAL,FAKE,,,,,,,,,,,,,,,,,
,,,,,,,,,6131ba00bd67d2702e9a3c8d,spanish,13 or older,"no, only English or Spanish",no,2025-07-23_20h35.34.569,empathy_intonation_perc_control,2024.2.4,MacIntel,58.47953216,6131ba00bd67d2702e9a3c8d,68817205a84113384fffdfe3,68817edcc5291d8a5b38d4bf,,,,,,,,,,,,,1,,,,,,,,,,,,,,,,,,,,,,,,,,,,,,,,,,,,,52,camisa,,,,,762.4699,763.7036,1,1,0.713,,0,22,22,51,1,REAL,FAKE,,,,,,,,,,,,,,,,,
,,,,,,,,,6131ba00bd67d2702e9a3c8d,spanish,13 or older,"no, only English or Spanish",no,2025-07-23_20h35.34.569,empathy_intonation_perc_control,2024.2.4,MacIntel,58.47953216,6131ba00bd67d2702e9a3c8d,68817205a84113384fffdfe3,68817edcc5291d8a5b38d4bf,,,,,,,,,,,,,1,,,,,,,,,,,,,,,,,,,,,,,,,,,,,,,,,,,,,64,orgulloso,,,,,763.7045,764.9038,0,0,0.6626,,0,23,23,63,1,REAL,FAKE,,,,,,,,,,,,,,,,,
,,,,,,,,,6131ba00bd67d2702e9a3c8d,spanish,13 or older,"no, only English or Spanish",no,2025-07-23_20h35.34.569,empathy_intonation_perc_control,2024.2.4,MacIntel,58.47953216,6131ba00bd67d2702e9a3c8d,68817205a84113384fffdfe3,68817edcc5291d8a5b38d4bf,,,,,,,,,,,,,0,,,,,,,,,,,,,,,,,,,,,,,,,,,,,,,,,,,,,18,arsa,,,,,764.9044,766.22,0,1,0.7856,,0,24,24,17,1,REAL,FAKE,,,,,,,,,,,,,,,,,
,,,,,,,,,6131ba00bd67d2702e9a3c8d,spanish,13 or older,"no, only English or Spanish",no,2025-07-23_20h35.34.569,empathy_intonation_perc_control,2024.2.4,MacIntel,58.47953216,6131ba00bd67d2702e9a3c8d,68817205a84113384fffdfe3,68817edcc5291d8a5b38d4bf,,,,,,,,,,,,,1,,,,,,,,,,,,,,,,,,,,,,,,,,,,,,,,,,,,,69,engatusar,,,,,766.2206,767.4888,0,0,0.7478,,0,25,25,68,1,REAL,FAKE,,,,,,,,,,,,,,,,,
,,,,,,,,,6131ba00bd67d2702e9a3c8d,spanish,13 or older,"no, only English or Spanish",no,2025-07-23_20h35.34.569,empathy_intonation_perc_control,2024.2.4,MacIntel,58.47953216,6131ba00bd67d2702e9a3c8d,68817205a84113384fffdfe3,68817edcc5291d8a5b38d4bf,,,,,,,,,,,,,0,,,,,,,,,,,,,,,,,,,,,,,,,,,,,,,,,,,,,16,abracer,,,,,767.4897,769.2565,0,1,1.2296,,0,26,26,15,1,REAL,FAKE,,,,,,,,,,,,,,,,,
,,,,,,,,,6131ba00bd67d2702e9a3c8d,spanish,13 or older,"no, only English or Spanish",no,2025-07-23_20h35.34.569,empathy_intonation_perc_control,2024.2.4,MacIntel,58.47953216,6131ba00bd67d2702e9a3c8d,68817205a84113384fffdfe3,68817edcc5291d8a5b38d4bf,,,,,,,,,,,,,1,,,,,,,,,,,,,,,,,,,,,,,,,,,,,,,,,,,,,61,seda,,,,,769.2571,771.5069,1,1,1.7308,,0,27,27,60,1,REAL,FAKE,,,,,,,,,,,,,,,,,
,,,,,,,,,6131ba00bd67d2702e9a3c8d,spanish,13 or older,"no, only English or Spanish",no,2025-07-23_20h35.34.569,empathy_intonation_perc_control,2024.2.4,MacIntel,58.47953216,6131ba00bd67d2702e9a3c8d,68817205a84113384fffdfe3,68817edcc5291d8a5b38d4bf,,,,,,,,,,,,,0,,,,,,,,,,,,,,,,,,,,,,,,,,,,,,,,,,,,,47,cartinar,,,,,771.5077,773.0078,0,1,0.9797,,0,28,28,46,1,REAL,FAKE,,,,,,,,,,,,,,,,,
,,,,,,,,,6131ba00bd67d2702e9a3c8d,spanish,13 or older,"no, only English or Spanish",no,2025-07-23_20h35.34.569,empathy_intonation_perc_control,2024.2.4,MacIntel,58.47953216,6131ba00bd67d2702e9a3c8d,68817205a84113384fffdfe3,68817edcc5291d8a5b38d4bf,,,,,,,,,,,,,1,,,,,,,,,,,,,,,,,,,,,,,,,,,,,,,,,,,,,6,tergiversar,,,,,773.0088,774.2082,0,0,0.6831,,0,29,29,5,1,REAL,FAKE,,,,,,,,,,,,,,,,,
,,,,,,,,,6131ba00bd67d2702e9a3c8d,spanish,13 or older,"no, only English or Spanish",no,2025-07-23_20h35.34.569,empathy_intonation_perc_control,2024.2.4,MacIntel,58.47953216,6131ba00bd67d2702e9a3c8d,68817205a84113384fffdfe3,68817edcc5291d8a5b38d4bf,,,,,,,,,,,,,0,,,,,,,,,,,,,,,,,,,,,,,,,,,,,,,,,,,,,10,antar,,,,,774.2089,775.525,0,1,0.784,,0,30,30,9,1,REAL,FAKE,,,,,,,,,,,,,,,,,
,,,,,,,,,6131ba00bd67d2702e9a3c8d,spanish,13 or older,"no, only English or Spanish",no,2025-07-23_20h35.34.569,empathy_intonation_perc_control,2024.2.4,MacIntel,58.47953216,6131ba00bd67d2702e9a3c8d,68817205a84113384fffdfe3,68817edcc5291d8a5b38d4bf,,,,,,,,,,,,,1,,,,,,,,,,,,,,,,,,,,,,,,,,,,,,,,,,,,,13,helar,,,,,775.5258,777.1934,0,0,1.1454,,0,31,31,12,1,REAL,FAKE,,,,,,,,,,,,,,,,,
,,,,,,,,,6131ba00bd67d2702e9a3c8d,spanish,13 or older,"no, only English or Spanish",no,2025-07-23_20h35.34.569,empathy_intonation_perc_control,2024.2.4,MacIntel,58.47953216,6131ba00bd67d2702e9a3c8d,68817205a84113384fffdfe3,68817edcc5291d8a5b38d4bf,,,,,,,,,,,,,0,,,,,,,,,,,,,,,,,,,,,,,,,,,,,,,,,,,,,53,vegada,,,,,777.1943,778.5266,0,1,0.8014,,0,32,32,52,1,REAL,FAKE,,,,,,,,,,,,,,,,,
,,,,,,,,,6131ba00bd67d2702e9a3c8d,spanish,13 or older,"no, only English or Spanish",no,2025-07-23_20h35.34.569,empathy_intonation_perc_control,2024.2.4,MacIntel,58.47953216,6131ba00bd67d2702e9a3c8d,68817205a84113384fffdfe3,68817edcc5291d8a5b38d4bf,,,,,,,,,,,,,0,,,,,,,,,,,,,,,,,,,,,,,,,,,,,,,,,,,,,70,temblo,,,,,778.5274,779.8442,0,1,0.8021,,0,33,33,69,1,REAL,FAKE,,,,,,,,,,,,,,,,,
,,,,,,,,,6131ba00bd67d2702e9a3c8d,spanish,13 or older,"no, only English or Spanish",no,2025-07-23_20h35.34.569,empathy_intonation_perc_control,2024.2.4,MacIntel,58.47953216,6131ba00bd67d2702e9a3c8d,68817205a84113384fffdfe3,68817edcc5291d8a5b38d4bf,,,,,,,,,,,,,1,,,,,,,,,,,,,,,,,,,,,,,,,,,,,,,,,,,,,91,click the 1 key.,,,,,779.845,781.7118,1,1,1.3269,,0,34,34,90,1,REAL,FAKE,,,,,,,,,,,,,,,,,
,,,,,,,,,6131ba00bd67d2702e9a3c8d,spanish,13 or older,"no, only English or Spanish",no,2025-07-23_20h35.34.569,empathy_intonation_perc_control,2024.2.4,MacIntel,58.47953216,6131ba00bd67d2702e9a3c8d,68817205a84113384fffdfe3,68817edcc5291d8a5b38d4bf,,,,,,,,,,,,,0,,,,,,,,,,,,,,,,,,,,,,,,,,,,,,,,,,,,,33,pauca,,,,,781.7123,783.0459,0,1,0.8138,,0,35,35,32,1,REAL,FAKE,,,,,,,,,,,,,,,,,
,,,,,,,,,6131ba00bd67d2702e9a3c8d,spanish,13 or older,"no, only English or Spanish",no,2025-07-23_20h35.34.569,empathy_intonation_perc_control,2024.2.4,MacIntel,58.47953216,6131ba00bd67d2702e9a3c8d,68817205a84113384fffdfe3,68817edcc5291d8a5b38d4bf,,,,,,,,,,,,,1,,,,,,,,,,,,,,,,,,,,,,,,,,,,,,,,,,,,,77,tiburón,,,,,783.0468,784.3466,0,0,0.7618,,0,36,36,76,1,REAL,FAKE,,,,,,,,,,,,,,,,,
,,,,,,,,,6131ba00bd67d2702e9a3c8d,spanish,13 or older,"no, only English or Spanish",no,2025-07-23_20h35.34.569,empathy_intonation_perc_control,2024.2.4,MacIntel,58.47953216,6131ba00bd67d2702e9a3c8d,68817205a84113384fffdfe3,68817edcc5291d8a5b38d4bf,,,,,,,,,,,,,1,,,,,,,,,,,,,,,,,,,,,,,,,,,,,,,,,,,,,90,clavel,,,,,784.3475,785.5139,0,0,0.6313,,0,37,37,89,1,REAL,FAKE,,,,,,,,,,,,,,,,,
,,,,,,,,,6131ba00bd67d2702e9a3c8d,spanish,13 or older,"no, only English or Spanish",no,2025-07-23_20h35.34.569,empathy_intonation_perc_control,2024.2.4,MacIntel,58.47953216,6131ba00bd67d2702e9a3c8d,68817205a84113384fffdfe3,68817edcc5291d8a5b38d4bf,,,,,,,,,,,,,1,,,,,,,,,,,,,,,,,,,,,,,,,,,,,,,,,,,,,22,lacayo,,,,,785.5149,786.6144,0,0,0.5639,,0,38,38,21,1,REAL,FAKE,,,,,,,,,,,,,,,,,
,,,,,,,,,6131ba00bd67d2702e9a3c8d,spanish,13 or older,"no, only English or Spanish",no,2025-07-23_20h35.34.569,empathy_intonation_perc_control,2024.2.4,MacIntel,58.47953216,6131ba00bd67d2702e9a3c8d,68817205a84113384fffdfe3,68817edcc5291d8a5b38d4bf,,,,,,,,,,,,,1,,,,,,,,,,,,,,,,,,,,,,,,,,,,,,,,,,,,,25,bisagra,,,,,786.6154,787.8481,0,0,0.6969,,0,39,39,24,1,REAL,FAKE,,,,,,,,,,,,,,,,,
,,,,,,,,,6131ba00bd67d2702e9a3c8d,spanish,13 or older,"no, only English or Spanish",no,2025-07-23_20h35.34.569,empathy_intonation_perc_control,2024.2.4,MacIntel,58.47953216,6131ba00bd67d2702e9a3c8d,68817205a84113384fffdfe3,68817edcc5291d8a5b38d4bf,,,,,,,,,,,,,1,,,,,,,,,,,,,,,,,,,,,,,,,,,,,,,,,,,,,45,jilguero,,,,,787.8489,789.5827,0,0,1.2147,,0,40,40,44,1,REAL,FAKE,,,,,,,,,,,,,,,,,
,,,,,,,,,6131ba00bd67d2702e9a3c8d,spanish,13 or older,"no, only English or Spanish",no,2025-07-23_20h35.34.569,empathy_intonation_perc_control,2024.2.4,MacIntel,58.47953216,6131ba00bd67d2702e9a3c8d,68817205a84113384fffdfe3,68817edcc5291d8a5b38d4bf,,,,,,,,,,,,,1,,,,,,,,,,,,,,,,,,,,,,,,,,,,,,,,,,,,,48,ladrón,,,,,789.5836,791.4496,0,0,1.333,,0,41,41,47,1,REAL,FAKE,,,,,,,,,,,,,,,,,
,,,,,,,,,6131ba00bd67d2702e9a3c8d,spanish,13 or older,"no, only English or Spanish",no,2025-07-23_20h35.34.569,empathy_intonation_perc_control,2024.2.4,MacIntel,58.47953216,6131ba00bd67d2702e9a3c8d,68817205a84113384fffdfe3,68817edcc5291d8a5b38d4bf,,,,,,,,,,,,,1,,,,,,,,,,,,,,,,,,,,,,,,,,,,,,,,,,,,,57,tacaño,,,,,791.4505,792.7339,0,0,0.7691,,0,42,42,56,1,REAL,FAKE,,,,,,,,,,,,,,,,,
,,,,,,,,,6131ba00bd67d2702e9a3c8d,spanish,13 or older,"no, only English or Spanish",no,2025-07-23_20h35.34.569,empathy_intonation_perc_control,2024.2.4,MacIntel,58.47953216,6131ba00bd67d2702e9a3c8d,68817205a84113384fffdfe3,68817edcc5291d8a5b38d4bf,,,,,,,,,,,,,1,,,,,,,,,,,,,,,,,,,,,,,,,,,,,,,,,,,,,55,nevar,,,,,792.7345,793.8666,0,0,0.6006,,0,43,43,54,1,REAL,FAKE,,,,,,,,,,,,,,,,,
,,,,,,,,,6131ba00bd67d2702e9a3c8d,spanish,13 or older,"no, only English or Spanish",no,2025-07-23_20h35.34.569,empathy_intonation_perc_control,2024.2.4,MacIntel,58.47953216,6131ba00bd67d2702e9a3c8d,68817205a84113384fffdfe3,68817edcc5291d8a5b38d4bf,,,,,,,,,,,,,1,,,,,,,,,,,,,,,,,,,,,,,,,,,,,,,,,,,,,26,secuestro,,,,,793.8673,795.2017,0,0,0.8135,,0,44,44,25,1,REAL,FAKE,,,,,,,,,,,,,,,,,
,,,,,,,,,6131ba00bd67d2702e9a3c8d,spanish,13 or older,"no, only English or Spanish",no,2025-07-23_20h35.34.569,empathy_intonation_perc_control,2024.2.4,MacIntel,58.47953216,6131ba00bd67d2702e9a3c8d,68817205a84113384fffdfe3,68817edcc5291d8a5b38d4bf,,,,,,,,,,,,,1,,,,,,,,,,,,,,,,,,,,,,,,,,,,,,,,,,,,,44,cuchara,,,,,795.2024,796.7026,1,1,0.9643,,0,45,45,43,1,REAL,FAKE,,,,,,,,,,,,,,,,,
,,,,,,,,,6131ba00bd67d2702e9a3c8d,spanish,13 or older,"no, only English or Spanish",no,2025-07-23_20h35.34.569,empathy_intonation_perc_control,2024.2.4,MacIntel,58.47953216,6131ba00bd67d2702e9a3c8d,68817205a84113384fffdfe3,68817edcc5291d8a5b38d4bf,,,,,,,,,,,,,1,,,,,,,,,,,,,,,,,,,,,,,,,,,,,,,,,,,,,75,yacer,,,,,796.7035,798.5703,0,0,1.3311,,0,46,46,74,1,REAL,FAKE,,,,,,,,,,,,,,,,,
,,,,,,,,,6131ba00bd67d2702e9a3c8d,spanish,13 or older,"no, only English or Spanish",no,2025-07-23_20h35.34.569,empathy_intonation_perc_control,2024.2.4,MacIntel,58.47953216,6131ba00bd67d2702e9a3c8d,68817205a84113384fffdfe3,68817edcc5291d8a5b38d4bf,,,,,,,,,,,,,1,,,,,,,,,,,,,,,,,,,,,,,,,,,,,,,,,,,,,71,polvoriento,,,,,798.5712,799.8537,0,0,0.7458,,0,47,47,70,1,REAL,FAKE,,,,,,,,,,,,,,,,,
,,,,,,,,,6131ba00bd67d2702e9a3c8d,spanish,13 or older,"no, only English or Spanish",no,2025-07-23_20h35.34.569,empathy_intonation_perc_control,2024.2.4,MacIntel,58.47953216,6131ba00bd67d2702e9a3c8d,68817205a84113384fffdfe3,68817edcc5291d8a5b38d4bf,,,,,,,,,,,,,1,,,,,,,,,,,,,,,,,,,,,,,,,,,,,,,,,,,,,88,acantilado,,,,,799.8543,801.5379,0,0,1.1676,,0,48,48,87,1,REAL,FAKE,,,,,,,,,,,,,,,,,
,,,,,,,,,6131ba00bd67d2702e9a3c8d,spanish,13 or older,"no, only English or Spanish",no,2025-07-23_20h35.34.569,empathy_intonation_perc_control,2024.2.4,MacIntel,58.47953216,6131ba00bd67d2702e9a3c8d,68817205a84113384fffdfe3,68817edcc5291d8a5b38d4bf,,,,,,,,,,,,,1,,,,,,,,,,,,,,,,,,,,,,,,,,,,,,,,,,,,,20,ávido,,,,,801.5389,803.5221,0,0,1.4633,,0,49,49,19,1,REAL,FAKE,,,,,,,,,,,,,,,,,
,,,,,,,,,6131ba00bd67d2702e9a3c8d,spanish,13 or older,"no, only English or Spanish",no,2025-07-23_20h35.34.569,empathy_intonation_perc_control,2024.2.4,MacIntel,58.47953216,6131ba00bd67d2702e9a3c8d,68817205a84113384fffdfe3,68817edcc5291d8a5b38d4bf,,,,,,,,,,,,,0,,,,,,,,,,,,,,,,,,,,,,,,,,,,,,,,,,,,,32,fatacidad,,,,,803.5228,805.6392,0,1,1.6018,,0,50,50,31,1,REAL,FAKE,,,,,,,,,,,,,,,,,
,,,,,,,,,6131ba00bd67d2702e9a3c8d,spanish,13 or older,"no, only English or Spanish",no,2025-07-23_20h35.34.569,empathy_intonation_perc_control,2024.2.4,MacIntel,58.47953216,6131ba00bd67d2702e9a3c8d,68817205a84113384fffdfe3,68817edcc5291d8a5b38d4bf,,,,,,,,,,,,,1,,,,,,,,,,,,,,,,,,,,,,,,,,,,,,,,,,,,,80,hormiga,,,,,805.6401,806.8065,0,0,0.6298,,0,51,51,79,1,REAL,FAKE,,,,,,,,,,,,,,,,,
,,,,,,,,,6131ba00bd67d2702e9a3c8d,spanish,13 or older,"no, only English or Spanish",no,2025-07-23_20h35.34.569,empathy_intonation_perc_control,2024.2.4,MacIntel,58.47953216,6131ba00bd67d2702e9a3c8d,68817205a84113384fffdfe3,68817edcc5291d8a5b38d4bf,,,,,,,,,,,,,0,,,,,,,,,,,,,,,,,,,,,,,,,,,,,,,,,,,,,50,flamida,,,,,806.8074,808.9751,0,1,1.6492,,0,52,52,49,1,REAL,FAKE,,,,,,,,,,,,,,,,,
,,,,,,,,,6131ba00bd67d2702e9a3c8d,spanish,13 or older,"no, only English or Spanish",no,2025-07-23_20h35.34.569,empathy_intonation_perc_control,2024.2.4,MacIntel,58.47953216,6131ba00bd67d2702e9a3c8d,68817205a84113384fffdfe3,68817edcc5291d8a5b38d4bf,,,,,,,,,,,,,1,,,,,,,,,,,,,,,,,,,,,,,,,,,,,,,,,,,,,7,pésimo,,,,,808.976,810.6923,0,0,1.1802,,0,53,53,6,1,REAL,FAKE,,,,,,,,,,,,,,,,,
,,,,,,,,,6131ba00bd67d2702e9a3c8d,spanish,13 or older,"no, only English or Spanish",no,2025-07-23_20h35.34.569,empathy_intonation_perc_control,2024.2.4,MacIntel,58.47953216,6131ba00bd67d2702e9a3c8d,68817205a84113384fffdfe3,68817edcc5291d8a5b38d4bf,,,,,,,,,,,,,1,,,,,,,,,,,,,,,,,,,,,,,,,,,,,,,,,,,,,60,matar,,,,,810.6931,812.3095,0,0,1.0962,,0,54,54,59,1,REAL,FAKE,,,,,,,,,,,,,,,,,
,,,,,,,,,6131ba00bd67d2702e9a3c8d,spanish,13 or older,"no, only English or Spanish",no,2025-07-23_20h35.34.569,empathy_intonation_perc_control,2024.2.4,MacIntel,58.47953216,6131ba00bd67d2702e9a3c8d,68817205a84113384fffdfe3,68817edcc5291d8a5b38d4bf,,,,,,,,,,,,,1,,,,,,,,,,,,,,,,,,,,,,,,,,,,,,,,,,,,,54,fomentar,,,,,812.3103,813.5104,0,0,0.6681,,0,55,55,53,1,REAL,FAKE,,,,,,,,,,,,,,,,,
,,,,,,,,,6131ba00bd67d2702e9a3c8d,spanish,13 or older,"no, only English or Spanish",no,2025-07-23_20h35.34.569,empathy_intonation_perc_control,2024.2.4,MacIntel,58.47953216,6131ba00bd67d2702e9a3c8d,68817205a84113384fffdfe3,68817edcc5291d8a5b38d4bf,,,,,,,,,,,,,0,,,,,,,,,,,,,,,,,,,,,,,,,,,,,,,,,,,,,84,escuto,,,,,813.5109,816.7782,0,1,2.731,,0,56,56,83,1,REAL,FAKE,,,,,,,,,,,,,,,,,
,,,,,,,,,6131ba00bd67d2702e9a3c8d,spanish,13 or older,"no, only English or Spanish",no,2025-07-23_20h35.34.569,empathy_intonation_perc_control,2024.2.4,MacIntel,58.47953216,6131ba00bd67d2702e9a3c8d,68817205a84113384fffdfe3,68817edcc5291d8a5b38d4bf,,,,,,,,,,,,,0,,,,,,,,,,,,,,,,,,,,,,,,,,,,,,,,,,,,,27,acutación,,,,,816.7789,818.1626,0,1,0.8628,,0,57,57,26,1,REAL,FAKE,,,,,,,,,,,,,,,,,
,,,,,,,,,6131ba00bd67d2702e9a3c8d,spanish,13 or older,"no, only English or Spanish",no,2025-07-23_20h35.34.569,empathy_intonation_perc_control,2024.2.4,MacIntel,58.47953216,6131ba00bd67d2702e9a3c8d,68817205a84113384fffdfe3,68817edcc5291d8a5b38d4bf,,,,,,,,,,,,,1,,,,,,,,,,,,,,,,,,,,,,,,,,,,,,,,,,,,,51,candado,,,,,818.1633,819.7632,0,0,1.0799,,0,58,58,50,1,REAL,FAKE,,,,,,,,,,,,,,,,,
,,,,,,,,,6131ba00bd67d2702e9a3c8d,spanish,13 or older,"no, only English or Spanish",no,2025-07-23_20h35.34.569,empathy_intonation_perc_control,2024.2.4,MacIntel,58.47953216,6131ba00bd67d2702e9a3c8d,68817205a84113384fffdfe3,68817edcc5291d8a5b38d4bf,,,,,,,,,,,,,0,,,,,,,,,,,,,,,,,,,,,,,,,,,,,,,,,,,,,74,cintro,,,,,819.7637,821.3799,1,0,1.0986,,0,59,59,73,1,REAL,FAKE,,,,,,,,,,,,,,,,,
,,,,,,,,,6131ba00bd67d2702e9a3c8d,spanish,13 or older,"no, only English or Spanish",no,2025-07-23_20h35.34.569,empathy_intonation_perc_control,2024.2.4,MacIntel,58.47953216,6131ba00bd67d2702e9a3c8d,68817205a84113384fffdfe3,68817edcc5291d8a5b38d4bf,,,,,,,,,,,,,1,,,,,,,,,,,,,,,,,,,,,,,,,,,,,,,,,,,,,81,pozo,,,,,821.3813,822.4644,0,0,0.5643,,0,60,60,80,1,REAL,FAKE,,,,,,,,,,,,,,,,,
,,,,,,,,,6131ba00bd67d2702e9a3c8d,spanish,13 or older,"no, only English or Spanish",no,2025-07-23_20h35.34.569,empathy_intonation_perc_control,2024.2.4,MacIntel,58.47953216,6131ba00bd67d2702e9a3c8d,68817205a84113384fffdfe3,68817edcc5291d8a5b38d4bf,,,,,,,,,,,,,1,,,,,,,,,,,,,,,,,,,,,,,,,,,,,,,,,,,,,68,alegre,,,,,822.4651,823.8656,0,0,0.8787,,0,61,61,67,1,REAL,FAKE,,,,,,,,,,,,,,,,,
,,,,,,,,,6131ba00bd67d2702e9a3c8d,spanish,13 or older,"no, only English or Spanish",no,2025-07-23_20h35.34.569,empathy_intonation_perc_control,2024.2.4,MacIntel,58.47953216,6131ba00bd67d2702e9a3c8d,68817205a84113384fffdfe3,68817edcc5291d8a5b38d4bf,,,,,,,,,,,,,0,,,,,,,,,,,,,,,,,,,,,,,,,,,,,,,,,,,,,29,decar,,,,,823.8665,825.399,0,1,0.9965,,0,62,62,28,1,REAL,FAKE,,,,,,,,,,,,,,,,,
,,,,,,,,,6131ba00bd67d2702e9a3c8d,spanish,13 or older,"no, only English or Spanish",no,2025-07-23_20h35.34.569,empathy_intonation_perc_control,2024.2.4,MacIntel,58.47953216,6131ba00bd67d2702e9a3c8d,68817205a84113384fffdfe3,68817edcc5291d8a5b38d4bf,,,,,,,,,,,,,0,,,,,,,,,,,,,,,,,,,,,,,,,,,,,,,,,,,,,21,capillo,,,,,825.3997,826.5991,0,1,0.6664,,0,63,63,20,1,REAL,FAKE,,,,,,,,,,,,,,,,,
,,,,,,,,,6131ba00bd67d2702e9a3c8d,spanish,13 or older,"no, only English or Spanish",no,2025-07-23_20h35.34.569,empathy_intonation_perc_control,2024.2.4,MacIntel,58.47953216,6131ba00bd67d2702e9a3c8d,68817205a84113384fffdfe3,68817edcc5291d8a5b38d4bf,,,,,,,,,,,,,1,,,,,,,,,,,,,,,,,,,,,,,,,,,,,,,,,,,,,2,pellizcar,,,,,826.6002,828.034,0,0,0.9121,,0,64,64,1,1,REAL,FAKE,,,,,,,,,,,,,,,,,
,,,,,,,,,6131ba00bd67d2702e9a3c8d,spanish,13 or older,"no, only English or Spanish",no,2025-07-23_20h35.34.569,empathy_intonation_perc_control,2024.2.4,MacIntel,58.47953216,6131ba00bd67d2702e9a3c8d,68817205a84113384fffdfe3,68817edcc5291d8a5b38d4bf,,,,,,,,,,,,,1,,,,,,,,,,,,,,,,,,,,,,,,,,,,,,,,,,,,,62,flaco,,,,,828.0349,829.8012,1,1,1.2295,,0,65,65,61,1,REAL,FAKE,,,,,,,,,,,,,,,,,
,,,,,,,,,6131ba00bd67d2702e9a3c8d,spanish,13 or older,"no, only English or Spanish",no,2025-07-23_20h35.34.569,empathy_intonation_perc_control,2024.2.4,MacIntel,58.47953216,6131ba00bd67d2702e9a3c8d,68817205a84113384fffdfe3,68817edcc5291d8a5b38d4bf,,,,,,,,,,,,,1,,,,,,,,,,,,,,,,,,,,,,,,,,,,,,,,,,,,,76,atar,,,,,829.8018,831.002,0,0,0.6838,,0,66,66,75,1,REAL,FAKE,,,,,,,,,,,,,,,,,
,,,,,,,,,6131ba00bd67d2702e9a3c8d,spanish,13 or older,"no, only English or Spanish",no,2025-07-23_20h35.34.569,empathy_intonation_perc_control,2024.2.4,MacIntel,58.47953216,6131ba00bd67d2702e9a3c8d,68817205a84113384fffdfe3,68817edcc5291d8a5b38d4bf,,,,,,,,,,,,,1,,,,,,,,,,,,,,,,,,,,,,,,,,,,,,,,,,,,,43,canela,,,,,831.0026,832.4026,0,0,0.8643,,0,67,67,42,1,REAL,FAKE,,,,,,,,,,,,,,,,,
,,,,,,,,,6131ba00bd67d2702e9a3c8d,spanish,13 or older,"no, only English or Spanish",no,2025-07-23_20h35.34.569,empathy_intonation_perc_control,2024.2.4,MacIntel,58.47953216,6131ba00bd67d2702e9a3c8d,68817205a84113384fffdfe3,68817edcc5291d8a5b38d4bf,,,,,,,,,,,,,1,,,,,,,,,,,,,,,,,,,,,,,,,,,,,,,,,,,,,31,pandilla,,,,,832.4035,833.8192,0,0,0.8863,,0,68,68,30,1,REAL,FAKE,,,,,,,,,,,,,,,,,
,,,,,,,,,6131ba00bd67d2702e9a3c8d,spanish,13 or older,"no, only English or Spanish",no,2025-07-23_20h35.34.569,empathy_intonation_perc_control,2024.2.4,MacIntel,58.47953216,6131ba00bd67d2702e9a3c8d,68817205a84113384fffdfe3,68817edcc5291d8a5b38d4bf,,,,,,,,,,,,,0,,,,,,,,,,,,,,,,,,,,,,,,,,,,,,,,,,,,,63,esposante,,,,,833.8202,835.3207,0,1,0.9801,,0,69,69,62,1,REAL,FAKE,,,,,,,,,,,,,,,,,
,,,,,,,,,6131ba00bd67d2702e9a3c8d,spanish,13 or older,"no, only English or Spanish",no,2025-07-23_20h35.34.569,empathy_intonation_perc_control,2024.2.4,MacIntel,58.47953216,6131ba00bd67d2702e9a3c8d,68817205a84113384fffdfe3,68817edcc5291d8a5b38d4bf,,,,,,,,,,,,,0,,,,,,,,,,,,,,,,,,,,,,,,,,,,,,,,,,,,,8,cadeña,,,,,835.3216,837.2218,0,1,1.3672,,0,70,70,7,1,REAL,FAKE,,,,,,,,,,,,,,,,,
,,,,,,,,,6131ba00bd67d2702e9a3c8d,spanish,13 or older,"no, only English or Spanish",no,2025-07-23_20h35.34.569,empathy_intonation_perc_control,2024.2.4,MacIntel,58.47953216,6131ba00bd67d2702e9a3c8d,68817205a84113384fffdfe3,68817edcc5291d8a5b38d4bf,,,,,,,,,,,,,1,,,,,,,,,,,,,,,,,,,,,,,,,,,,,,,,,,,,,3,pulmones,,,,,837.2227,839.2716,0,0,1.5182,,0,71,71,2,1,REAL,FAKE,,,,,,,,,,,,,,,,,
,,,,,,,,,6131ba00bd67d2702e9a3c8d,spanish,13 or older,"no, only English or Spanish",no,2025-07-23_20h35.34.569,empathy_intonation_perc_control,2024.2.4,MacIntel,58.47953216,6131ba00bd67d2702e9a3c8d,68817205a84113384fffdfe3,68817edcc5291d8a5b38d4bf,,,,,,,,,,,,,1,,,,,,,,,,,,,,,,,,,,,,,,,,,,,,,,,,,,,11,cenefa,,,,,839.2724,840.4892,0,0,0.7019,,0,72,72,10,1,REAL,FAKE,,,,,,,,,,,,,,,,,
,,,,,,,,,6131ba00bd67d2702e9a3c8d,spanish,13 or older,"no, only English or Spanish",no,2025-07-23_20h35.34.569,empathy_intonation_perc_control,2024.2.4,MacIntel,58.47953216,6131ba00bd67d2702e9a3c8d,68817205a84113384fffdfe3,68817edcc5291d8a5b38d4bf,,,,,,,,,,,,,0,,,,,,,,,,,,,,,,,,,,,,,,,,,,,,,,,,,,,58,plaudir,,,,,840.4901,841.6569,0,1,0.6464,,0,73,73,57,1,REAL,FAKE,,,,,,,,,,,,,,,,,
,,,,,,,,,6131ba00bd67d2702e9a3c8d,spanish,13 or older,"no, only English or Spanish",no,2025-07-23_20h35.34.569,empathy_intonation_perc_control,2024.2.4,MacIntel,58.47953216,6131ba00bd67d2702e9a3c8d,68817205a84113384fffdfe3,68817edcc5291d8a5b38d4bf,,,,,,,,,,,,,1,,,,,,,,,,,,,,,,,,,,,,,,,,,,,,,,,,,,,38,estornudar,,,,,841.6575,842.8906,0,0,0.6962,,0,74,74,37,1,REAL,FAKE,,,,,,,,,,,,,,,,,
,,,,,,,,,6131ba00bd67d2702e9a3c8d,spanish,13 or older,"no, only English or Spanish",no,2025-07-23_20h35.34.569,empathy_intonation_perc_control,2024.2.4,MacIntel,58.47953216,6131ba00bd67d2702e9a3c8d,68817205a84113384fffdfe3,68817edcc5291d8a5b38d4bf,,,,,,,,,,,,,0,,,,,,,,,,,,,,,,,,,,,,,,,,,,,,,,,,,,,72,pemición,,,,,842.8913,844.0247,0,1,0.617,,0,75,75,71,1,REAL,FAKE,,,,,,,,,,,,,,,,,
,,,,,,,,,6131ba00bd67d2702e9a3c8d,spanish,13 or older,"no, only English or Spanish",no,2025-07-23_20h35.34.569,empathy_intonation_perc_control,2024.2.4,MacIntel,58.47953216,6131ba00bd67d2702e9a3c8d,68817205a84113384fffdfe3,68817edcc5291d8a5b38d4bf,,,,,,,,,,,,,1,,,,,,,,,,,,,,,,,,,,,,,,,,,,,,,,,,,,,39,torpe,,,,,844.0255,845.3252,0,0,0.7803,,0,76,76,38,1,REAL,FAKE,,,,,,,,,,,,,,,,,
,,,,,,,,,6131ba00bd67d2702e9a3c8d,spanish,13 or older,"no, only English or Spanish",no,2025-07-23_20h35.34.569,empathy_intonation_perc_control,2024.2.4,MacIntel,58.47953216,6131ba00bd67d2702e9a3c8d,68817205a84113384fffdfe3,68817edcc5291d8a5b38d4bf,,,,,,,,,,,,,1,,,,,,,,,,,,,,,,,,,,,,,,,,,,,,,,,,,,,49,ganar,,,,,845.3258,848.2267,1,1,2.3786,,0,77,77,48,1,REAL,FAKE,,,,,,,,,,,,,,,,,
,,,,,,,,,6131ba00bd67d2702e9a3c8d,spanish,13 or older,"no, only English or Spanish",no,2025-07-23_20h35.34.569,empathy_intonation_perc_control,2024.2.4,MacIntel,58.47953216,6131ba00bd67d2702e9a3c8d,68817205a84113384fffdfe3,68817edcc5291d8a5b38d4bf,,,,,,,,,,,,,0,,,,,,,,,,,,,,,,,,,,,,,,,,,,,,,,,,,,,87,grodo,,,,,848.2272,849.4775,0,1,0.7322,,0,78,78,86,1,REAL,FAKE,,,,,,,,,,,,,,,,,
,,,,,,,,,6131ba00bd67d2702e9a3c8d,spanish,13 or older,"no, only English or Spanish",no,2025-07-23_20h35.34.569,empathy_intonation_perc_control,2024.2.4,MacIntel,58.47953216,6131ba00bd67d2702e9a3c8d,68817205a84113384fffdfe3,68817edcc5291d8a5b38d4bf,,,,,,,,,,,,,1,,,,,,,,,,,,,,,,,,,,,,,,,,,,,,,,,,,,,89,prisa,,,,,849.4784,850.9444,1,1,0.9522,,0,79,79,88,1,REAL,FAKE,,,,,,,,,,,,,,,,,
,,,,,,,,,6131ba00bd67d2702e9a3c8d,spanish,13 or older,"no, only English or Spanish",no,2025-07-23_20h35.34.569,empathy_intonation_perc_control,2024.2.4,MacIntel,58.47953216,6131ba00bd67d2702e9a3c8d,68817205a84113384fffdfe3,68817edcc5291d8a5b38d4bf,,,,,,,,,,,,,1,,,,,,,,,,,,,,,,,,,,,,,,,,,,,,,,,,,,,83,guante,,,,,850.9452,852.3291,0,0,0.8696,,0,80,80,82,1,REAL,FAKE,,,,,,,,,,,,,,,,,
,,,,,,,,,6131ba00bd67d2702e9a3c8d,spanish,13 or older,"no, only English or Spanish",no,2025-07-23_20h35.34.569,empathy_intonation_perc_control,2024.2.4,MacIntel,58.47953216,6131ba00bd67d2702e9a3c8d,68817205a84113384fffdfe3,68817edcc5291d8a5b38d4bf,,,,,,,,,,,,,1,,,,,,,,,,,,,,,,,,,,,,,,,,,,,,,,,,,,,78,frondoso,,,,,852.3299,853.3619,0,0,0.4979,,0,81,81,77,1,REAL,FAKE,,,,,,,,,,,,,,,,,
,,,,,,,,,6131ba00bd67d2702e9a3c8d,spanish,13 or older,"no, only English or Spanish",no,2025-07-23_20h35.34.569,empathy_intonation_perc_control,2024.2.4,MacIntel,58.47953216,6131ba00bd67d2702e9a3c8d,68817205a84113384fffdfe3,68817edcc5291d8a5b38d4bf,,,,,,,,,,,,,1,,,,,,,,,,,,,,,,,,,,,,,,,,,,,,,,,,,,,85,laúd,,,,,853.363,854.5295,0,0,0.6485,,0,82,82,84,1,REAL,FAKE,,,,,,,,,,,,,,,,,
,,,,,,,,,6131ba00bd67d2702e9a3c8d,spanish,13 or older,"no, only English or Spanish",no,2025-07-23_20h35.34.569,empathy_intonation_perc_control,2024.2.4,MacIntel,58.47953216,6131ba00bd67d2702e9a3c8d,68817205a84113384fffdfe3,68817edcc5291d8a5b38d4bf,,,,,,,,,,,,,0,,,,,,,,,,,,,,,,,,,,,,,,,,,,,,,,,,,,,82,empirador,,,,,854.5306,855.7971,0,1,0.748,,0,83,83,81,1,REAL,FAKE,,,,,,,,,,,,,,,,,
,,,,,,,,,6131ba00bd67d2702e9a3c8d,spanish,13 or older,"no, only English or Spanish",no,2025-07-23_20h35.34.569,empathy_intonation_perc_control,2024.2.4,MacIntel,58.47953216,6131ba00bd67d2702e9a3c8d,68817205a84113384fffdfe3,68817edcc5291d8a5b38d4bf,,,,,,,,,,,,,0,,,,,,,,,,,,,,,,,,,,,,,,,,,,,,,,,,,,,92,click the 0 key.,,,,,855.7982,857.3466,0,1,1.0196,,0,84,84,91,1,REAL,FAKE,,,,,,,,,,,,,,,,,
,,,,,,,,,6131ba00bd67d2702e9a3c8d,spanish,13 or older,"no, only English or Spanish",no,2025-07-23_20h35.34.569,empathy_intonation_perc_control,2024.2.4,MacIntel,58.47953216,6131ba00bd67d2702e9a3c8d,68817205a84113384fffdfe3,68817edcc5291d8a5b38d4bf,,,,,,,,,,,,,1,,,,,,,,,,,,,,,,,,,,,,,,,,,,,,,,,,,,,34,aviso,,,,,857.3473,859.0984,0,0,1.2308,,0,85,85,33,1,REAL,FAKE,,,,,,,,,,,,,,,,,
,,,,,,,,,6131ba00bd67d2702e9a3c8d,spanish,13 or older,"no, only English or Spanish",no,2025-07-23_20h35.34.569,empathy_intonation_perc_control,2024.2.4,MacIntel,58.47953216,6131ba00bd67d2702e9a3c8d,68817205a84113384fffdfe3,68817edcc5291d8a5b38d4bf,,,,,,,,,,,,,1,,,,,,,,,,,,,,,,,,,,,,,,,,,,,,,,,,,,,41,rebuscar,,,,,859.0992,860.2825,0,0,0.6605,,0,86,86,40,1,REAL,FAKE,,,,,,,,,,,,,,,,,
,,,,,,,,,6131ba00bd67d2702e9a3c8d,spanish,13 or older,"no, only English or Spanish",no,2025-07-23_20h35.34.569,empathy_intonation_perc_control,2024.2.4,MacIntel,58.47953216,6131ba00bd67d2702e9a3c8d,68817205a84113384fffdfe3,68817edcc5291d8a5b38d4bf,,,,,,,,,,,,,0,,,,,,,,,,,,,,,,,,,,,,,,,,,,,,,,,,,,,1,terzo,,,,,860.2834,861.4665,0,1,0.6469,,0,87,87,0,1,REAL,FAKE,,,,,,,,,,,,,,,,,
,,,,,,,,,6131ba00bd67d2702e9a3c8d,spanish,13 or older,"no, only English or Spanish",no,2025-07-23_20h35.34.569,empathy_intonation_perc_control,2024.2.4,MacIntel,58.47953216,6131ba00bd67d2702e9a3c8d,68817205a84113384fffdfe3,68817edcc5291d8a5b38d4bf,,,,,,,,,,,,,0,,,,,,,,,,,,,,,,,,,,,,,,,,,,,,,,,,,,,35,rompido,,,,,861.4673,862.6004,0,1,0.5978,,0,88,88,34,1,REAL,FAKE,,,,,,,,,,,,,,,,,
,,,,,,,,,6131ba00bd67d2702e9a3c8d,spanish,13 or older,"no, only English or Spanish",no,2025-07-23_20h35.34.569,empathy_intonation_perc_control,2024.2.4,MacIntel,58.47953216,6131ba00bd67d2702e9a3c8d,68817205a84113384fffdfe3,68817edcc5291d8a5b38d4bf,,,,,,,,,,,,,0,,,,,,,,,,,,,,,,,,,,,,,,,,,,,,,,,,,,,23,lampera,,,,,862.6013,868.1683,1,0,5.0541,,0,89,89,22,1,REAL,FAKE,,,,,,,,,,,,,,,,,
,,,,,,,,,6131ba00bd67d2702e9a3c8d,spanish,13 or older,"no, only English or Spanish",no,2025-07-23_20h35.34.569,empathy_intonation_perc_control,2024.2.4,MacIntel,58.47953216,6131ba00bd67d2702e9a3c8d,68817205a84113384fffdfe3,68817edcc5291d8a5b38d4bf,,,,,,,,,,,,,1,,,,,,,,,,,,,,,,,,,,,,,,,,,,,,,,,,,,,15,regar,,,,,868.1689,869.5201,0,0,0.8355,,0,90,90,14,1,REAL,FAKE,,,,,,,,,,,,,,,,,
,,,,,,,,,6131ba00bd67d2702e9a3c8d,spanish,13 or older,"no, only English or Spanish",no,2025-07-23_20h35.34.569,empathy_intonation_perc_control,2024.2.4,MacIntel,58.47953216,6131ba00bd67d2702e9a3c8d,68817205a84113384fffdfe3,68817edcc5291d8a5b38d4bf,,,,,,,,,,,,,1,,,,,,,,,,,,,,,,,,,,,,,,,,,,,,,,,,,,,12,asesinato,,,,,869.5211,870.754,0,0,0.6973,,0,91,91,11,1,REAL,FAKE,,,,,,,,,,,,,,,,,
,,,,,,,,,6131ba00bd67d2702e9a3c8d,spanish,13 or older,"no, only English or Spanish",no,2025-07-23_20h35.34.569,empathy_intonation_perc_control,2024.2.4,MacIntel,58.47953216,6131ba00bd67d2702e9a3c8d,68817205a84113384fffdfe3,68817edcc5291d8a5b38d4bf,,,,,,,,,,,,,,,,,,,,,,,,,,,,,,,,,,,,,,,,,,,,,,,,,,,,,,,,,,,,,,,,,,,,,870.7544,877.6078,,,,,,,,,,,,,,,
,,,,,,,,,6131ba00bd67d2702e9a3c8d,spanish,13 or older,"no, only English or Spanish",no,2025-07-23_20h35.34.569,empathy_intonation_perc_control,2024.2.4,MacIntel,58.47953216,6131ba00bd67d2702e9a3c8d,68817205a84113384fffdfe3,68817edcc5291d8a5b38d4bf,,,,,,,,,,,,,,,,,,,,,,,,,,,1,,,,,,,,,,,,,,,,,,,,,,,,,,,,,,,,,,,,,,,,,,,,877.6165,883.9444,strongly agree,0,0,0,0,1,I can easily tell if someone else wants to enter a conversation.,1,0,1,0,,
,,,,,,,,,6131ba00bd67d2702e9a3c8d,spanish,13 or older,"no, only English or Spanish",no,2025-07-23_20h35.34.569,empathy_intonation_perc_control,2024.2.4,MacIntel,58.47953216,6131ba00bd67d2702e9a3c8d,68817205a84113384fffdfe3,68817edcc5291d8a5b38d4bf,,,,,,,,,,,,,,,,,,,,,,,,,,,2,,,,,,,,,,,,,,,,,,,,,,,,,,,,,,,,,,,,,,,,,,,,883.9459,887.8456,slightly disagree,0,1,1,1,1,I prefer animals to humans.,0,1,0,0,,
,,,,,,,,,6131ba00bd67d2702e9a3c8d,spanish,13 or older,"no, only English or Spanish",no,2025-07-23_20h35.34.569,empathy_intonation_perc_control,2024.2.4,MacIntel,58.47953216,6131ba00bd67d2702e9a3c8d,68817205a84113384fffdfe3,68817edcc5291d8a5b38d4bf,,,,,,,,,,,,,,,,,,,,,,,,,,,3,,,,,,,,,,,,,,,,,,,,,,,,,,,,,,,,,,,,,,,,,,,,887.847,890.1642,slightly agree,0,2,2,2,1,I try to keep up with the current trends and fashions.,0,1,0,0,,
,,,,,,,,,6131ba00bd67d2702e9a3c8d,spanish,13 or older,"no, only English or Spanish",no,2025-07-23_20h35.34.569,empathy_intonation_perc_control,2024.2.4,MacIntel,58.47953216,6131ba00bd67d2702e9a3c8d,68817205a84113384fffdfe3,68817edcc5291d8a5b38d4bf,,,,,,,,,,,,,,,,,,,,,,,,,,,4,,,,,,,,,,,,,,,,,,,,,,,,,,,,,,,,,,,,,,,,,,,,890.1654,894.5327,strongly disagree,0,3,3,3,1,"I find it difficult to explain to others things that I understand easily,   when they don't understand it first time.",1,0,0,1,,
,,,,,,,,,6131ba00bd67d2702e9a3c8d,spanish,13 or older,"no, only English or Spanish",no,2025-07-23_20h35.34.569,empathy_intonation_perc_control,2024.2.4,MacIntel,58.47953216,6131ba00bd67d2702e9a3c8d,68817205a84113384fffdfe3,68817edcc5291d8a5b38d4bf,,,,,,,,,,,,,,,,,,,,,,,,,,,5,,,,,,,,,,,,,,,,,,,,,,,,,,,,,,,,,,,,,,,,,,,,894.5337,897.3181,slightly disagree,0,4,4,4,1,I dream most nights.,0,1,0,0,,
,,,,,,,,,6131ba00bd67d2702e9a3c8d,spanish,13 or older,"no, only English or Spanish",no,2025-07-23_20h35.34.569,empathy_intonation_perc_control,2024.2.4,MacIntel,58.47953216,6131ba00bd67d2702e9a3c8d,68817205a84113384fffdfe3,68817edcc5291d8a5b38d4bf,,,,,,,,,,,,,,,,,,,,,,,,,,,6,,,,,,,,,,,,,,,,,,,,,,,,,,,,,,,,,,,,,,,,,,,,897.319,899.2517,strongly agree,0,5,5,5,1,I really enjoy caring for other people.,1,0,1,0,,
,,,,,,,,,6131ba00bd67d2702e9a3c8d,spanish,13 or older,"no, only English or Spanish",no,2025-07-23_20h35.34.569,empathy_intonation_perc_control,2024.2.4,MacIntel,58.47953216,6131ba00bd67d2702e9a3c8d,68817205a84113384fffdfe3,68817edcc5291d8a5b38d4bf,,,,,,,,,,,,,,,,,,,,,,,,,,,7,,,,,,,,,,,,,,,,,,,,,,,,,,,,,,,,,,,,,,,,,,,,899.2531,902.3202,strongly disagree,0,6,6,6,1,I try to solve my own problems rather than discussing them with others.,0,1,0,0,,
,,,,,,,,,6131ba00bd67d2702e9a3c8d,spanish,13 or older,"no, only English or Spanish",no,2025-07-23_20h35.34.569,empathy_intonation_perc_control,2024.2.4,MacIntel,58.47953216,6131ba00bd67d2702e9a3c8d,68817205a84113384fffdfe3,68817edcc5291d8a5b38d4bf,,,,,,,,,,,,,,,,,,,,,,,,,,,8,,,,,,,,,,,,,,,,,,,,,,,,,,,,,,,,,,,,,,,,,,,,902.3215,906.571,slightly disagree,0,7,7,7,1,I find it hard to know what to do in a social situation.,1,0,0,1,,
,,,,,,,,,6131ba00bd67d2702e9a3c8d,spanish,13 or older,"no, only English or Spanish",no,2025-07-23_20h35.34.569,empathy_intonation_perc_control,2024.2.4,MacIntel,58.47953216,6131ba00bd67d2702e9a3c8d,68817205a84113384fffdfe3,68817edcc5291d8a5b38d4bf,,,,,,,,,,,,,,,,,,,,,,,,,,,9,,,,,,,,,,,,,,,,,,,,,,,,,,,,,,,,,,,,,,,,,,,,906.5724,908.8887,strongly disagree,0,8,8,8,1,I am at my best first thing in the morning.,0,1,0,0,,
,,,,,,,,,6131ba00bd67d2702e9a3c8d,spanish,13 or older,"no, only English or Spanish",no,2025-07-23_20h35.34.569,empathy_intonation_perc_control,2024.2.4,MacIntel,58.47953216,6131ba00bd67d2702e9a3c8d,68817205a84113384fffdfe3,68817edcc5291d8a5b38d4bf,,,,,,,,,,,,,,,,,,,,,,,,,,,10,,,,,,,,,,,,,,,,,,,,,,,,,,,,,,,,,,,,,,,,,,,,908.89,913.3911,strongly disagree,0,9,9,9,1,People often tell me that I went too far in driving my point home in a discussion.,1,0,0,1,,
,,,,,,,,,6131ba00bd67d2702e9a3c8d,spanish,13 or older,"no, only English or Spanish",no,2025-07-23_20h35.34.569,empathy_intonation_perc_control,2024.2.4,MacIntel,58.47953216,6131ba00bd67d2702e9a3c8d,68817205a84113384fffdfe3,68817edcc5291d8a5b38d4bf,,,,,,,,,,,,,,,,,,,,,,,,,,,11,,,,,,,,,,,,,,,,,,,,,,,,,,,,,,,,,,,,,,,,,,,,913.3928,916.7094,slightly disagree,0,10,10,10,1,It doesn't bother me too much if I am late meeting a friend.,1,0,0,1,,
,,,,,,,,,6131ba00bd67d2702e9a3c8d,spanish,13 or older,"no, only English or Spanish",no,2025-07-23_20h35.34.569,empathy_intonation_perc_control,2024.2.4,MacIntel,58.47953216,6131ba00bd67d2702e9a3c8d,68817205a84113384fffdfe3,68817edcc5291d8a5b38d4bf,,,,,,,,,,,,,,,,,,,,,,,,,,,12,,,,,,,,,,,,,,,,,,,,,,,,,,,,,,,,,,,,,,,,,,,,916.7107,920.3444,strongly disagree,0,11,11,11,1,"Friendships and relationships are just too difficult, so I tend not to 
  bother with them.",1,0,0,1,,
,,,,,,,,,6131ba00bd67d2702e9a3c8d,spanish,13 or older,"no, only English or Spanish",no,2025-07-23_20h35.34.569,empathy_intonation_perc_control,2024.2.4,MacIntel,58.47953216,6131ba00bd67d2702e9a3c8d,68817205a84113384fffdfe3,68817edcc5291d8a5b38d4bf,,,,,,,,,,,,,,,,,,,,,,,,,,,13,,,,,,,,,,,,,,,,,,,,,,,,,,,,,,,,,,,,,,,,,,,,920.3456,924.1626,slightly disagree,0,12,12,12,1,"I would never break a law, no matter how minor.",0,1,0,0,,
,,,,,,,,,6131ba00bd67d2702e9a3c8d,spanish,13 or older,"no, only English or Spanish",no,2025-07-23_20h35.34.569,empathy_intonation_perc_control,2024.2.4,MacIntel,58.47953216,6131ba00bd67d2702e9a3c8d,68817205a84113384fffdfe3,68817edcc5291d8a5b38d4bf,,,,,,,,,,,,,,,,,,,,,,,,,,,14,,,,,,,,,,,,,,,,,,,,,,,,,,,,,,,,,,,,,,,,,,,,924.164,929.4494,strongly disagree,0,13,13,13,1,I often find it difficult to judge if something is rude or polite.,1,0,0,1,,
,,,,,,,,,6131ba00bd67d2702e9a3c8d,spanish,13 or older,"no, only English or Spanish",no,2025-07-23_20h35.34.569,empathy_intonation_perc_control,2024.2.4,MacIntel,58.47953216,6131ba00bd67d2702e9a3c8d,68817205a84113384fffdfe3,68817edcc5291d8a5b38d4bf,,,,,,,,,,,,,,,,,,,,,,,,,,,15,,,,,,,,,,,,,,,,,,,,,,,,,,,,,,,,,,,,,,,,,,,,929.451,934.8847,slightly agree,0,14,14,14,1,"In a conversation, I tend to focus on my own thoughts rather than on what 
  my listener might be thinking.",1,0,0,1,,
,,,,,,,,,6131ba00bd67d2702e9a3c8d,spanish,13 or older,"no, only English or Spanish",no,2025-07-23_20h35.34.569,empathy_intonation_perc_control,2024.2.4,MacIntel,58.47953216,6131ba00bd67d2702e9a3c8d,68817205a84113384fffdfe3,68817edcc5291d8a5b38d4bf,,,,,,,,,,,,,,,,,,,,,,,,,,,16,,,,,,,,,,,,,,,,,,,,,,,,,,,,,,,,,,,,,,,,,,,,934.886,938.1693,strongly disagree,0,15,15,15,1,I prefer practical jokes to verbal humor.,0,1,0,0,,
,,,,,,,,,6131ba00bd67d2702e9a3c8d,spanish,13 or older,"no, only English or Spanish",no,2025-07-23_20h35.34.569,empathy_intonation_perc_control,2024.2.4,MacIntel,58.47953216,6131ba00bd67d2702e9a3c8d,68817205a84113384fffdfe3,68817edcc5291d8a5b38d4bf,,,,,,,,,,,,,,,,,,,,,,,,,,,17,,,,,,,,,,,,,,,,,,,,,,,,,,,,,,,,,,,,,,,,,,,,938.1706,941.8543,slightly disagree,0,16,16,16,1,I live life for today rather than the future.,0,1,0,0,,
,,,,,,,,,6131ba00bd67d2702e9a3c8d,spanish,13 or older,"no, only English or Spanish",no,2025-07-23_20h35.34.569,empathy_intonation_perc_control,2024.2.4,MacIntel,58.47953216,6131ba00bd67d2702e9a3c8d,68817205a84113384fffdfe3,68817edcc5291d8a5b38d4bf,,,,,,,,,,,,,,,,,,,,,,,,,,,18,,,,,,,,,,,,,,,,,,,,,,,,,,,,,,,,,,,,,,,,,,,,941.8556,944.9905,strongly disagree,0,17,17,17,1,"When I was a child, I enjoyed cutting up worms to see what would happen.",1,0,0,1,,
,,,,,,,,,6131ba00bd67d2702e9a3c8d,spanish,13 or older,"no, only English or Spanish",no,2025-07-23_20h35.34.569,empathy_intonation_perc_control,2024.2.4,MacIntel,58.47953216,6131ba00bd67d2702e9a3c8d,68817205a84113384fffdfe3,68817edcc5291d8a5b38d4bf,,,,,,,,,,,,,,,,,,,,,,,,,,,19,,,,,,,,,,,,,,,,,,,,,,,,,,,,,,,,,,,,,,,,,,,,944.9914,951.3764,strongly agree,0,18,18,18,1,I can pick up quickly if someone says one thing but means another.,1,0,1,0,,
,,,,,,,,,6131ba00bd67d2702e9a3c8d,spanish,13 or older,"no, only English or Spanish",no,2025-07-23_20h35.34.569,empathy_intonation_perc_control,2024.2.4,MacIntel,58.47953216,6131ba00bd67d2702e9a3c8d,68817205a84113384fffdfe3,68817edcc5291d8a5b38d4bf,,,,,,,,,,,,,,,,,,,,,,,,,,,20,,,,,,,,,,,,,,,,,,,,,,,,,,,,,,,,,,,,,,,,,,,,951.3777,954.3613,strongly agree,0,19,19,19,1,I tend to have very strong opinions about morality.,0,1,0,0,,
,,,,,,,,,6131ba00bd67d2702e9a3c8d,spanish,13 or older,"no, only English or Spanish",no,2025-07-23_20h35.34.569,empathy_intonation_perc_control,2024.2.4,MacIntel,58.47953216,6131ba00bd67d2702e9a3c8d,68817205a84113384fffdfe3,68817edcc5291d8a5b38d4bf,,,,,,,,,,,,,,,,,,,,,,,,,,,21,,,,,,,,,,,,,,,,,,,,,,,,,,,,,,,,,,,,,,,,,,,,954.3626,957.7298,slightly disagree,0,20,20,20,1,It is hard for me to see why some things upset people so much.,1,0,0,1,,
,,,,,,,,,6131ba00bd67d2702e9a3c8d,spanish,13 or older,"no, only English or Spanish",no,2025-07-23_20h35.34.569,empathy_intonation_perc_control,2024.2.4,MacIntel,58.47953216,6131ba00bd67d2702e9a3c8d,68817205a84113384fffdfe3,68817edcc5291d8a5b38d4bf,,,,,,,,,,,,,,,,,,,,,,,,,,,22,,,,,,,,,,,,,,,,,,,,,,,,,,,,,,,,,,,,,,,,,,,,957.7308,960.5634,strongly agree,0,21,21,21,1,I find it easy to put myself in somebody else's shoes.,1,0,1,0,,
,,,,,,,,,6131ba00bd67d2702e9a3c8d,spanish,13 or older,"no, only English or Spanish",no,2025-07-23_20h35.34.569,empathy_intonation_perc_control,2024.2.4,MacIntel,58.47953216,6131ba00bd67d2702e9a3c8d,68817205a84113384fffdfe3,68817edcc5291d8a5b38d4bf,,,,,,,,,,,,,,,,,,,,,,,,,,,23,,,,,,,,,,,,,,,,,,,,,,,,,,,,,,,,,,,,,,,,,,,,960.5646,966.1003,slightly agree,0,22,22,22,1,I think that good manners are the most important thing a parent can teach their child.,0,1,0,0,,
