instructions_2afc.started,instructions_2afc.stopped,instructions_2afc_loop.thisRepN,instructions_2afc_loop.thisTrialN,instructions_2afc_loop.thisN,instructions_2afc_loop.thisIndex,instructions_2afc_loop.ran,instructions_text,continue_text,participant_id,"What variety of Spanish are you most familiar with? (e.g., Peruvian, Spanish, Mexican)",At what age did you begin learning Spanish?,Are you proficient in any languages other than English/Spanish?,"Are you familiar with Caribbean (e.g., Caribbean, Puerto Rican) or Galician Spanish?",date,expName,psychopyVersion,OS,frameRate,id,study_id,session,practice_2afc.started,practice_2afc.stopped,key_resp_2afc_practice.keys,key_resp_2afc_practice.corr,key_resp_2afc_practice.rt,key_resp_2afc_practice.duration,trials_2afc_practice_loop.thisRepN,trials_2afc_practice_loop.thisTrialN,trials_2afc_practice_loop.thisN,trials_2afc_practice_loop.thisIndex,trials_2afc_practice_loop.ran,path,correct_response,check_2afc.started,check_2afc.stopped,trial_2afc.started,trial_2afc.stopped,key_resp_2afc_trial.keys,key_resp_2afc_trial.corr,key_resp_2afc_trial.rt,key_resp_2afc_trial.duration,trials_2afc_loop.thisRepN,trials_2afc_loop.thisTrialN,trials_2afc_loop.thisN,trials_2afc_loop.thisIndex,trials_2afc_loop.ran,item_num,target,variety,instructions_lextale.started,instructions_lextale.stopped,instructions_lextale_loop.thisRepN,instructions_lextale_loop.thisTrialN,instructions_lextale_loop.thisN,instructions_lextale_loop.thisIndex,instructions_lextale_loop.ran,practice_lextale.started,practice_lextale.stopped,key_resp_lextale_practice.keys,key_resp_lextale_practice.corr,key_resp_lextale_practice.rt,key_resp_lextale_practice.duration,practice_feedback_lextale.started,practice_feedback_lextale.stopped,trials_lextale_practice_loop.thisRepN,trials_lextale_practice_loop.thisTrialN,trials_lextale_practice_loop.thisN,trials_lextale_practice_loop.thisIndex,trials_lextale_practice_loop.ran,stim,word,prac_button_real,prac_button_false,check_lextale.started,check_lextale.stopped,trial_lextale.started,trial_lextale.stopped,key_resp_lextale_trial.keys,key_resp_lextale_trial.corr,key_resp_lextale_trial.rt,key_resp_lextale_trial.duration,trials_lextale_loop.thisRepN,trials_lextale_loop.thisTrialN,trials_lextale_loop.thisN,trials_lextale_loop.thisIndex,trials_lextale_loop.ran,button_real,button_false,instructions_eq.started,instructions_eq.stopped,trial_eq.started,trial_eq.stopped,slider_eq_trial.response,trials_eq_loop.thisRepN,trials_eq_loop.thisTrialN,trials_eq_loop.thisN,trials_eq_loop.thisIndex,trials_eq_loop.ran,item,is_test_item,is_distractor,is_agree_score,is_disagree_score,end_exp.started,end_exp.stopped
0.0881,4.6559,0,0,0,0,1,"In the following task you are going to hear a series of utterances. 

  You will decide if the utterances sound like questions or not using your keyboard.", (press the spacebar to continue),6290baefc1820d33bb4afed4,Puerto Rican,younger than 13,"no, only English or Spanish",yes,2025-08-13_17h57.10.659,empathy_intonation_perc_control,2024.2.4,Linux x86_64,60.00960154,6290baefc1820d33bb4afed4,68817205a84113384fffdfe3,689d09ff7152de4e96a8dfd9,,,,,,,,,,,,,,,,,,,,,,,,,,,,,,,,,,,,,,,,,,,,,,,,,,,,,,,,,,,,,,,,,,,,,,,,,,,,,,,,,,,,,
4.6618,12.5612,0,1,1,1,1,"If you believe the utterance is a question, type '1' (for 'yes') and if you do not 
  believe it is a question type '0' (for 'no').

  Let's practice a bit...", (press the spacebar to continue),6290baefc1820d33bb4afed4,Puerto Rican,younger than 13,"no, only English or Spanish",yes,2025-08-13_17h57.10.659,empathy_intonation_perc_control,2024.2.4,Linux x86_64,60.00960154,6290baefc1820d33bb4afed4,68817205a84113384fffdfe3,689d09ff7152de4e96a8dfd9,,,,,,,,,,,,,,,,,,,,,,,,,,,,,,,,,,,,,,,,,,,,,,,,,,,,,,,,,,,,,,,,,,,,,,,,,,,,,,,,,,,,,
,,,,,,,,,6290baefc1820d33bb4afed4,Puerto Rican,younger than 13,"no, only English or Spanish",yes,2025-08-13_17h57.10.659,empathy_intonation_perc_control,2024.2.4,Linux x86_64,60.00960154,6290baefc1820d33bb4afed4,68817205a84113384fffdfe3,689d09ff7152de4e96a8dfd9,12.6396,16.5452,1,1,3.3746,,0,0,0,0,1,./stim/wavs/castilian_question_filler_Mi-esposo-conoce-al-chico.wav,1,,,,,,,,,,,,,,,,,,,,,,,,,,,,,,,,,,,,,,,,,,,,,,,,,,,,,,,,,,,,,,,,,,,,,,,,
,,,,,,,,,6290baefc1820d33bb4afed4,Puerto Rican,younger than 13,"no, only English or Spanish",yes,2025-08-13_17h57.10.659,empathy_intonation_perc_control,2024.2.4,Linux x86_64,60.00960154,6290baefc1820d33bb4afed4,68817205a84113384fffdfe3,689d09ff7152de4e96a8dfd9,16.5483,19.7601,1,1,2.6844,,0,1,1,1,1,./stim/wavs/argentine_question_filler_Mi-vecino-habla-mucho.wav,1,,,,,,,,,,,,,,,,,,,,,,,,,,,,,,,,,,,,,,,,,,,,,,,,,,,,,,,,,,,,,,,,,,,,,,,,
,,,,,,,,,6290baefc1820d33bb4afed4,Puerto Rican,younger than 13,"no, only English or Spanish",yes,2025-08-13_17h57.10.659,empathy_intonation_perc_control,2024.2.4,Linux x86_64,60.00960154,6290baefc1820d33bb4afed4,68817205a84113384fffdfe3,689d09ff7152de4e96a8dfd9,19.7826,23.0448,0,1,2.7421,,0,2,2,6,1,./stim/wavs/peruvian_statement_filler_El-nino-habla-con-su-madre.wav,0,,,,,,,,,,,,,,,,,,,,,,,,,,,,,,,,,,,,,,,,,,,,,,,,,,,,,,,,,,,,,,,,,,,,,,,,
,,,,,,,,,6290baefc1820d33bb4afed4,Puerto Rican,younger than 13,"no, only English or Spanish",yes,2025-08-13_17h57.10.659,empathy_intonation_perc_control,2024.2.4,Linux x86_64,60.00960154,6290baefc1820d33bb4afed4,68817205a84113384fffdfe3,689d09ff7152de4e96a8dfd9,23.0679,25.8743,0,1,2.2775,,0,3,3,7,1,./stim/wavs/puertorican_statement_filler_La-nina-pinta-con-su-amiga.wav,0,,,,,,,,,,,,,,,,,,,,,,,,,,,,,,,,,,,,,,,,,,,,,,,,,,,,,,,,,,,,,,,,,,,,,,,,
,,,,,,,,,6290baefc1820d33bb4afed4,Puerto Rican,younger than 13,"no, only English or Spanish",yes,2025-08-13_17h57.10.659,empathy_intonation_perc_control,2024.2.4,Linux x86_64,60.00960154,6290baefc1820d33bb4afed4,68817205a84113384fffdfe3,689d09ff7152de4e96a8dfd9,25.8777,28.5685,1,1,2.1579,,0,4,4,3,1,./stim/wavs/mexican_question_filler_Felipe-no-tiene-contrasena.wav,1,,,,,,,,,,,,,,,,,,,,,,,,,,,,,,,,,,,,,,,,,,,,,,,,,,,,,,,,,,,,,,,,,,,,,,,,
,,,,,,,,,6290baefc1820d33bb4afed4,Puerto Rican,younger than 13,"no, only English or Spanish",yes,2025-08-13_17h57.10.659,empathy_intonation_perc_control,2024.2.4,Linux x86_64,60.00960154,6290baefc1820d33bb4afed4,68817205a84113384fffdfe3,689d09ff7152de4e96a8dfd9,28.5725,31.6111,0,1,2.5171,,0,5,5,5,1,./stim/wavs/andalusian_statement_filler_Alberto-nunca-se-afeita.wav,0,,,,,,,,,,,,,,,,,,,,,,,,,,,,,,,,,,,,,,,,,,,,,,,,,,,,,,,,,,,,,,,,,,,,,,,,
,,,,,,,,,6290baefc1820d33bb4afed4,Puerto Rican,younger than 13,"no, only English or Spanish",yes,2025-08-13_17h57.10.659,empathy_intonation_perc_control,2024.2.4,Linux x86_64,60.00960154,6290baefc1820d33bb4afed4,68817205a84113384fffdfe3,689d09ff7152de4e96a8dfd9,31.6345,34.8481,0,0,2.6878,,0,6,6,2,1,./stim/wavs/chilean_question_filler_Mi-padre-cantaba-bien.wav,1,,,,,,,,,,,,,,,,,,,,,,,,,,,,,,,,,,,,,,,,,,,,,,,,,,,,,,,,,,,,,,,,,,,,,,,,
,,,,,,,,,6290baefc1820d33bb4afed4,Puerto Rican,younger than 13,"no, only English or Spanish",yes,2025-08-13_17h57.10.659,empathy_intonation_perc_control,2024.2.4,Linux x86_64,60.00960154,6290baefc1820d33bb4afed4,68817205a84113384fffdfe3,689d09ff7152de4e96a8dfd9,34.8772,37.323,0,1,1.9227,,0,7,7,4,1,./stim/wavs/cuban_statement_filler_Cocinabas-por-la-noche.wav,0,,,,,,,,,,,,,,,,,,,,,,,,,,,,,,,,,,,,,,,,,,,,,,,,,,,,,,,,,,,,,,,,,,,,,,,,
,,,,,,,,,6290baefc1820d33bb4afed4,Puerto Rican,younger than 13,"no, only English or Spanish",yes,2025-08-13_17h57.10.659,empathy_intonation_perc_control,2024.2.4,Linux x86_64,60.00960154,6290baefc1820d33bb4afed4,68817205a84113384fffdfe3,689d09ff7152de4e96a8dfd9,,,,,,,,,,,,,,37.3252,39.7264,,,,,,,,,,,,,,,,,,,,,,,,,,,,,,,,,,,,,,,,,,,,,,,,,,,,,,,,,,,,,,,,,,,,,,
,,,,,,,,,6290baefc1820d33bb4afed4,Puerto Rican,younger than 13,"no, only English or Spanish",yes,2025-08-13_17h57.10.659,empathy_intonation_perc_control,2024.2.4,Linux x86_64,60.00960154,6290baefc1820d33bb4afed4,68817205a84113384fffdfe3,689d09ff7152de4e96a8dfd9,,,,,,,,,,,,./stim/wavs/cuban_match_interrogative-total-yn_Marta-abre-el-regalo.wav,1,,,39.794,44.3561,0,0,4.0363,,0,0,0,11,1,12,1,cuban,,,,,,,,,,,,,,,,,,,,,,,,,,,,,,,,,,,,,,,,,,,,,,,,,,,,,,,,
,,,,,,,,,6290baefc1820d33bb4afed4,Puerto Rican,younger than 13,"no, only English or Spanish",yes,2025-08-13_17h57.10.659,empathy_intonation_perc_control,2024.2.4,Linux x86_64,60.00960154,6290baefc1820d33bb4afed4,68817205a84113384fffdfe3,689d09ff7152de4e96a8dfd9,,,,,,,,,,,,./stim/wavs/mexican_match_interrogative-total-yn_David-leia-el-libro.wav,1,,,44.3813,47.593,1,1,2.6837,,0,1,1,14,1,15,0,mexican,,,,,,,,,,,,,,,,,,,,,,,,,,,,,,,,,,,,,,,,,,,,,,,,,,,,,,,,
,,,,,,,,,6290baefc1820d33bb4afed4,Puerto Rican,younger than 13,"no, only English or Spanish",yes,2025-08-13_17h57.10.659,empathy_intonation_perc_control,2024.2.4,Linux x86_64,60.00960154,6290baefc1820d33bb4afed4,68817205a84113384fffdfe3,689d09ff7152de4e96a8dfd9,,,,,,,,,,,,./stim/wavs/castilian_match_interrogative-total-yn_Manuela-vende-el-carro.wav,1,,,47.6164,51.5511,0,0,3.4027,,0,2,2,2,1,3,0,castilian,,,,,,,,,,,,,,,,,,,,,,,,,,,,,,,,,,,,,,,,,,,,,,,,,,,,,,,,
,,,,,,,,,6290baefc1820d33bb4afed4,Puerto Rican,younger than 13,"no, only English or Spanish",yes,2025-08-13_17h57.10.659,empathy_intonation_perc_control,2024.2.4,Linux x86_64,60.00960154,6290baefc1820d33bb4afed4,68817205a84113384fffdfe3,689d09ff7152de4e96a8dfd9,,,,,,,,,,,,./stim/wavs/mexican_mismatch_declarative-broad-focus_Mi-novio-viene-del-lago.wav,0,,,51.5781,55.1611,0,1,3.061,,0,3,3,81,1,82,0,mexican,,,,,,,,,,,,,,,,,,,,,,,,,,,,,,,,,,,,,,,,,,,,,,,,,,,,,,,,
,,,,,,,,,6290baefc1820d33bb4afed4,Puerto Rican,younger than 13,"no, only English or Spanish",yes,2025-08-13_17h57.10.659,empathy_intonation_perc_control,2024.2.4,Linux x86_64,60.00960154,6290baefc1820d33bb4afed4,68817205a84113384fffdfe3,689d09ff7152de4e96a8dfd9,,,,,,,,,,,,./stim/wavs/cuban_match_declarative-broad-focus_Mariano-habla-del-tiempo.wav,0,,,55.1826,58.0208,0,1,2.3104,,0,4,4,54,1,55,0,cuban,,,,,,,,,,,,,,,,,,,,,,,,,,,,,,,,,,,,,,,,,,,,,,,,,,,,,,,,
,,,,,,,,,6290baefc1820d33bb4afed4,Puerto Rican,younger than 13,"no, only English or Spanish",yes,2025-08-13_17h57.10.659,empathy_intonation_perc_control,2024.2.4,Linux x86_64,60.00960154,6290baefc1820d33bb4afed4,68817205a84113384fffdfe3,689d09ff7152de4e96a8dfd9,,,,,,,,,,,,./stim/wavs/mexican_match_declarative-broad-focus_Ana-lleva-el-abrigo.wav,0,,,58.0223,60.5409,0,1,1.9846,,0,5,5,56,1,57,0,mexican,,,,,,,,,,,,,,,,,,,,,,,,,,,,,,,,,,,,,,,,,,,,,,,,,,,,,,,,
,,,,,,,,,6290baefc1820d33bb4afed4,Puerto Rican,younger than 13,"no, only English or Spanish",yes,2025-08-13_17h57.10.659,empathy_intonation_perc_control,2024.2.4,Linux x86_64,60.00960154,6290baefc1820d33bb4afed4,68817205a84113384fffdfe3,689d09ff7152de4e96a8dfd9,,,,,,,,,,,,./stim/wavs/castilian_mismatch_declarative-broad-focus_Mi-tia-odia-la-lluvia.wav,0,,,60.547,63.1879,0,1,2.1177,,0,6,6,72,1,73,0,castilian,,,,,,,,,,,,,,,,,,,,,,,,,,,,,,,,,,,,,,,,,,,,,,,,,,,,,,,,
,,,,,,,,,6290baefc1820d33bb4afed4,Puerto Rican,younger than 13,"no, only English or Spanish",yes,2025-08-13_17h57.10.659,empathy_intonation_perc_control,2024.2.4,Linux x86_64,60.00960154,6290baefc1820d33bb4afed4,68817205a84113384fffdfe3,689d09ff7152de4e96a8dfd9,,,,,,,,,,,,./stim/wavs/mexican_mismatch_declarative-broad-focus_El-bebe-comia-muy-bien.wav,0,,,63.213,66.5537,1,0,2.8174,,0,7,7,78,1,79,0,mexican,,,,,,,,,,,,,,,,,,,,,,,,,,,,,,,,,,,,,,,,,,,,,,,,,,,,,,,,
,,,,,,,,,6290baefc1820d33bb4afed4,Puerto Rican,younger than 13,"no, only English or Spanish",yes,2025-08-13_17h57.10.659,empathy_intonation_perc_control,2024.2.4,Linux x86_64,60.00960154,6290baefc1820d33bb4afed4,68817205a84113384fffdfe3,689d09ff7152de4e96a8dfd9,,,,,,,,,,,,./stim/wavs/mexican_mismatch_declarative-broad-focus_Mi-tia-odia-la-lluvia.wav,0,,,66.5552,69.1211,0,1,2.0329,,0,8,8,82,1,83,0,mexican,,,,,,,,,,,,,,,,,,,,,,,,,,,,,,,,,,,,,,,,,,,,,,,,,,,,,,,,
,,,,,,,,,6290baefc1820d33bb4afed4,Puerto Rican,younger than 13,"no, only English or Spanish",yes,2025-08-13_17h57.10.659,empathy_intonation_perc_control,2024.2.4,Linux x86_64,60.00960154,6290baefc1820d33bb4afed4,68817205a84113384fffdfe3,689d09ff7152de4e96a8dfd9,,,,,,,,,,,,./stim/wavs/puertorican_match_interrogative-total-yn_Emilio-ama-la-marcha.wav,1,,,69.1458,72.6609,0,0,2.9851,,0,9,9,21,1,22,1,puertorican,,,,,,,,,,,,,,,,,,,,,,,,,,,,,,,,,,,,,,,,,,,,,,,,,,,,,,,,
,,,,,,,,,6290baefc1820d33bb4afed4,Puerto Rican,younger than 13,"no, only English or Spanish",yes,2025-08-13_17h57.10.659,empathy_intonation_perc_control,2024.2.4,Linux x86_64,60.00960154,6290baefc1820d33bb4afed4,68817205a84113384fffdfe3,689d09ff7152de4e96a8dfd9,,,,,,,,,,,,./stim/wavs/puertorican_mismatch_declarative-broad-focus_El-bebe-comia-muy-bien.wav,0,,,72.6622,75.2932,0,1,2.102,,0,10,10,83,1,84,0,puertorican,,,,,,,,,,,,,,,,,,,,,,,,,,,,,,,,,,,,,,,,,,,,,,,,,,,,,,,,
,,,,,,,,,6290baefc1820d33bb4afed4,Puerto Rican,younger than 13,"no, only English or Spanish",yes,2025-08-13_17h57.10.659,empathy_intonation_perc_control,2024.2.4,Linux x86_64,60.00960154,6290baefc1820d33bb4afed4,68817205a84113384fffdfe3,689d09ff7152de4e96a8dfd9,,,,,,,,,,,,./stim/wavs/cuban_match_interrogative-total-yn_Daniel-iba-a-Bolivia.wav,1,,,75.3155,78.0797,1,1,2.2381,,0,11,11,7,1,8,1,cuban,,,,,,,,,,,,,,,,,,,,,,,,,,,,,,,,,,,,,,,,,,,,,,,,,,,,,,,,
,,,,,,,,,6290baefc1820d33bb4afed4,Puerto Rican,younger than 13,"no, only English or Spanish",yes,2025-08-13_17h57.10.659,empathy_intonation_perc_control,2024.2.4,Linux x86_64,60.00960154,6290baefc1820d33bb4afed4,68817205a84113384fffdfe3,689d09ff7152de4e96a8dfd9,,,,,,,,,,,,./stim/wavs/puertorican_mismatch_interrogative-total-yn_El-nino-oye-el-rio.wav,1,,,78.0812,82.7196,0,0,4.1079,,0,12,12,40,1,41,1,puertorican,,,,,,,,,,,,,,,,,,,,,,,,,,,,,,,,,,,,,,,,,,,,,,,,,,,,,,,,
,,,,,,,,,6290baefc1820d33bb4afed4,Puerto Rican,younger than 13,"no, only English or Spanish",yes,2025-08-13_17h57.10.659,empathy_intonation_perc_control,2024.2.4,Linux x86_64,60.00960154,6290baefc1820d33bb4afed4,68817205a84113384fffdfe3,689d09ff7152de4e96a8dfd9,,,,,,,,,,,,./stim/wavs/cuban_mismatch_declarative-broad-focus_El-hombre-mira-la-luna.wav,0,,,82.7442,85.1445,0,1,1.8719,,0,13,13,74,1,75,0,cuban,,,,,,,,,,,,,,,,,,,,,,,,,,,,,,,,,,,,,,,,,,,,,,,,,,,,,,,,
,,,,,,,,,6290baefc1820d33bb4afed4,Puerto Rican,younger than 13,"no, only English or Spanish",yes,2025-08-13_17h57.10.659,empathy_intonation_perc_control,2024.2.4,Linux x86_64,60.00960154,6290baefc1820d33bb4afed4,68817205a84113384fffdfe3,689d09ff7152de4e96a8dfd9,,,,,,,,,,,,./stim/wavs/castilian_mismatch_declarative-broad-focus_La-nina-lava-el-plato.wav,0,,,85.1713,87.8714,0,1,2.1792,,0,14,14,70,1,71,0,castilian,,,,,,,,,,,,,,,,,,,,,,,,,,,,,,,,,,,,,,,,,,,,,,,,,,,,,,,,
,,,,,,,,,6290baefc1820d33bb4afed4,Puerto Rican,younger than 13,"no, only English or Spanish",yes,2025-08-13_17h57.10.659,empathy_intonation_perc_control,2024.2.4,Linux x86_64,60.00960154,6290baefc1820d33bb4afed4,68817205a84113384fffdfe3,689d09ff7152de4e96a8dfd9,,,,,,,,,,,,./stim/wavs/puertorican_mismatch_interrogative-total-yn_La-maestra-vive-en-Paris.wav,1,,,87.8737,92.3354,0,0,3.94,,0,15,15,41,1,42,1,puertorican,,,,,,,,,,,,,,,,,,,,,,,,,,,,,,,,,,,,,,,,,,,,,,,,,,,,,,,,
,,,,,,,,,6290baefc1820d33bb4afed4,Puerto Rican,younger than 13,"no, only English or Spanish",yes,2025-08-13_17h57.10.659,empathy_intonation_perc_control,2024.2.4,Linux x86_64,60.00960154,6290baefc1820d33bb4afed4,68817205a84113384fffdfe3,689d09ff7152de4e96a8dfd9,,,,,,,,,,,,./stim/wavs/cuban_mismatch_declarative-broad-focus_Mi-tia-odia-la-lluvia.wav,0,,,92.3627,95.1732,0,1,2.282,,0,16,16,77,1,78,0,cuban,,,,,,,,,,,,,,,,,,,,,,,,,,,,,,,,,,,,,,,,,,,,,,,,,,,,,,,,
,,,,,,,,,6290baefc1820d33bb4afed4,Puerto Rican,younger than 13,"no, only English or Spanish",yes,2025-08-13_17h57.10.659,empathy_intonation_perc_control,2024.2.4,Linux x86_64,60.00960154,6290baefc1820d33bb4afed4,68817205a84113384fffdfe3,689d09ff7152de4e96a8dfd9,,,,,,,,,,,,./stim/wavs/puertorican_match_interrogative-total-yn_Daniel-iba-a-Bolivia.wav,1,,,95.1752,98.3272,0,0,2.635,,0,17,17,19,1,20,1,puertorican,,,,,,,,,,,,,,,,,,,,,,,,,,,,,,,,,,,,,,,,,,,,,,,,,,,,,,,,
,,,,,,,,,6290baefc1820d33bb4afed4,Puerto Rican,younger than 13,"no, only English or Spanish",yes,2025-08-13_17h57.10.659,empathy_intonation_perc_control,2024.2.4,Linux x86_64,60.00960154,6290baefc1820d33bb4afed4,68817205a84113384fffdfe3,689d09ff7152de4e96a8dfd9,,,,,,,,,,,,./stim/wavs/cuban_match_interrogative-total-yn_Manuela-vende-el-carro.wav,1,,,98.3504,102.2735,0,0,3.4014,,0,18,18,8,1,9,1,cuban,,,,,,,,,,,,,,,,,,,,,,,,,,,,,,,,,,,,,,,,,,,,,,,,,,,,,,,,
,,,,,,,,,6290baefc1820d33bb4afed4,Puerto Rican,younger than 13,"no, only English or Spanish",yes,2025-08-13_17h57.10.659,empathy_intonation_perc_control,2024.2.4,Linux x86_64,60.00960154,6290baefc1820d33bb4afed4,68817205a84113384fffdfe3,689d09ff7152de4e96a8dfd9,,,,,,,,,,,,./stim/wavs/cuban_mismatch_declarative-broad-focus_El-bebe-comia-muy-bien.wav,0,,,102.2974,105.688,1,0,2.8723,,0,19,19,73,1,74,0,cuban,,,,,,,,,,,,,,,,,,,,,,,,,,,,,,,,,,,,,,,,,,,,,,,,,,,,,,,,
,,,,,,,,,6290baefc1820d33bb4afed4,Puerto Rican,younger than 13,"no, only English or Spanish",yes,2025-08-13_17h57.10.659,empathy_intonation_perc_control,2024.2.4,Linux x86_64,60.00960154,6290baefc1820d33bb4afed4,68817205a84113384fffdfe3,689d09ff7152de4e96a8dfd9,,,,,,,,,,,,./stim/wavs/mexican_mismatch_interrogative-total-yn_El-hombre-mira-la-luna.wav,1,,,105.7121,107.8728,1,1,1.6361,,0,20,20,34,1,35,0,mexican,,,,,,,,,,,,,,,,,,,,,,,,,,,,,,,,,,,,,,,,,,,,,,,,,,,,,,,,
,,,,,,,,,6290baefc1820d33bb4afed4,Puerto Rican,younger than 13,"no, only English or Spanish",yes,2025-08-13_17h57.10.659,empathy_intonation_perc_control,2024.2.4,Linux x86_64,60.00960154,6290baefc1820d33bb4afed4,68817205a84113384fffdfe3,689d09ff7152de4e96a8dfd9,,,,,,,,,,,,./stim/wavs/cuban_mismatch_declarative-broad-focus_Mi-novio-viene-del-lago.wav,0,,,107.8742,110.4183,1,0,2.0121,,0,21,21,76,1,77,0,cuban,,,,,,,,,,,,,,,,,,,,,,,,,,,,,,,,,,,,,,,,,,,,,,,,,,,,,,,,
,,,,,,,,,6290baefc1820d33bb4afed4,Puerto Rican,younger than 13,"no, only English or Spanish",yes,2025-08-13_17h57.10.659,empathy_intonation_perc_control,2024.2.4,Linux x86_64,60.00960154,6290baefc1820d33bb4afed4,68817205a84113384fffdfe3,689d09ff7152de4e96a8dfd9,,,,,,,,,,,,./stim/wavs/puertorican_mismatch_declarative-broad-focus_La-nina-lava-el-plato.wav,0,,,110.4203,112.4847,0,1,1.5368,,0,22,22,87,1,88,0,puertorican,,,,,,,,,,,,,,,,,,,,,,,,,,,,,,,,,,,,,,,,,,,,,,,,,,,,,,,,
,,,,,,,,,6290baefc1820d33bb4afed4,Puerto Rican,younger than 13,"no, only English or Spanish",yes,2025-08-13_17h57.10.659,empathy_intonation_perc_control,2024.2.4,Linux x86_64,60.00960154,6290baefc1820d33bb4afed4,68817205a84113384fffdfe3,689d09ff7152de4e96a8dfd9,,,,,,,,,,,,./stim/wavs/cuban_match_interrogative-total-yn_Mariano-habla-del-tiempo.wav,1,,,112.4879,114.9513,0,0,1.933,,0,23,23,10,1,11,1,cuban,,,,,,,,,,,,,,,,,,,,,,,,,,,,,,,,,,,,,,,,,,,,,,,,,,,,,,,,
,,,,,,,,,6290baefc1820d33bb4afed4,Puerto Rican,younger than 13,"no, only English or Spanish",yes,2025-08-13_17h57.10.659,empathy_intonation_perc_control,2024.2.4,Linux x86_64,60.00960154,6290baefc1820d33bb4afed4,68817205a84113384fffdfe3,689d09ff7152de4e96a8dfd9,,,,,,,,,,,,./stim/wavs/castilian_match_interrogative-total-yn_David-leia-el-libro.wav,1,,,114.9535,117.2377,1,1,1.7446,,0,24,24,0,1,1,0,castilian,,,,,,,,,,,,,,,,,,,,,,,,,,,,,,,,,,,,,,,,,,,,,,,,,,,,,,,,
,,,,,,,,,6290baefc1820d33bb4afed4,Puerto Rican,younger than 13,"no, only English or Spanish",yes,2025-08-13_17h57.10.659,empathy_intonation_perc_control,2024.2.4,Linux x86_64,60.00960154,6290baefc1820d33bb4afed4,68817205a84113384fffdfe3,689d09ff7152de4e96a8dfd9,,,,,,,,,,,,./stim/wavs/castilian_match_declarative-broad-focus_Marta-abre-el-regalo.wav,0,,,117.2396,119.604,0,1,1.8397,,0,25,25,49,1,50,0,castilian,,,,,,,,,,,,,,,,,,,,,,,,,,,,,,,,,,,,,,,,,,,,,,,,,,,,,,,,
,,,,,,,,,6290baefc1820d33bb4afed4,Puerto Rican,younger than 13,"no, only English or Spanish",yes,2025-08-13_17h57.10.659,empathy_intonation_perc_control,2024.2.4,Linux x86_64,60.00960154,6290baefc1820d33bb4afed4,68817205a84113384fffdfe3,689d09ff7152de4e96a8dfd9,,,,,,,,,,,,./stim/wavs/mexican_mismatch_interrogative-total-yn_El-nino-oye-el-rio.wav,1,,,119.6309,121.6686,1,1,1.515,,0,26,26,35,1,36,0,mexican,,,,,,,,,,,,,,,,,,,,,,,,,,,,,,,,,,,,,,,,,,,,,,,,,,,,,,,,
,,,,,,,,,6290baefc1820d33bb4afed4,Puerto Rican,younger than 13,"no, only English or Spanish",yes,2025-08-13_17h57.10.659,empathy_intonation_perc_control,2024.2.4,Linux x86_64,60.00960154,6290baefc1820d33bb4afed4,68817205a84113384fffdfe3,689d09ff7152de4e96a8dfd9,,,,,,,,,,,,./stim/wavs/puertorican_mismatch_declarative-broad-focus_El-nino-oye-el-rio.wav,0,,,121.6699,123.7403,0,1,1.5555,,0,27,27,85,1,86,0,puertorican,,,,,,,,,,,,,,,,,,,,,,,,,,,,,,,,,,,,,,,,,,,,,,,,,,,,,,,,
,,,,,,,,,6290baefc1820d33bb4afed4,Puerto Rican,younger than 13,"no, only English or Spanish",yes,2025-08-13_17h57.10.659,empathy_intonation_perc_control,2024.2.4,Linux x86_64,60.00960154,6290baefc1820d33bb4afed4,68817205a84113384fffdfe3,689d09ff7152de4e96a8dfd9,,,,,,,,,,,,./stim/wavs/cuban_mismatch_interrogative-total-yn_Mi-tia-odia-la-lluvia.wav,1,,,123.7419,126.4377,0,0,2.1666,,0,28,28,33,1,34,1,cuban,,,,,,,,,,,,,,,,,,,,,,,,,,,,,,,,,,,,,,,,,,,,,,,,,,,,,,,,
,,,,,,,,,6290baefc1820d33bb4afed4,Puerto Rican,younger than 13,"no, only English or Spanish",yes,2025-08-13_17h57.10.659,empathy_intonation_perc_control,2024.2.4,Linux x86_64,60.00960154,6290baefc1820d33bb4afed4,68817205a84113384fffdfe3,689d09ff7152de4e96a8dfd9,,,,,,,,,,,,./stim/wavs/puertorican_match_declarative-broad-focus_Daniel-iba-a-Bolivia.wav,0,,,126.4391,130.6262,1,0,3.668,,0,29,29,63,1,64,0,puertorican,,,,,,,,,,,,,,,,,,,,,,,,,,,,,,,,,,,,,,,,,,,,,,,,,,,,,,,,
,,,,,,,,,6290baefc1820d33bb4afed4,Puerto Rican,younger than 13,"no, only English or Spanish",yes,2025-08-13_17h57.10.659,empathy_intonation_perc_control,2024.2.4,Linux x86_64,60.00960154,6290baefc1820d33bb4afed4,68817205a84113384fffdfe3,689d09ff7152de4e96a8dfd9,,,,,,,,,,,,./stim/wavs/castilian_match_interrogative-total-yn_Maria-bebe-el-vino.wav,1,,,130.6478,132.7707,1,1,1.6111,,0,30,30,3,1,4,0,castilian,,,,,,,,,,,,,,,,,,,,,,,,,,,,,,,,,,,,,,,,,,,,,,,,,,,,,,,,
,,,,,,,,,6290baefc1820d33bb4afed4,Puerto Rican,younger than 13,"no, only English or Spanish",yes,2025-08-13_17h57.10.659,empathy_intonation_perc_control,2024.2.4,Linux x86_64,60.00960154,6290baefc1820d33bb4afed4,68817205a84113384fffdfe3,689d09ff7152de4e96a8dfd9,,,,,,,,,,,,./stim/wavs/puertorican_match_declarative-broad-focus_Ana-lleva-el-abrigo.wav,0,,,132.7719,134.7175,0,1,1.42,,0,31,31,62,1,63,0,puertorican,,,,,,,,,,,,,,,,,,,,,,,,,,,,,,,,,,,,,,,,,,,,,,,,,,,,,,,,
,,,,,,,,,6290baefc1820d33bb4afed4,Puerto Rican,younger than 13,"no, only English or Spanish",yes,2025-08-13_17h57.10.659,empathy_intonation_perc_control,2024.2.4,Linux x86_64,60.00960154,6290baefc1820d33bb4afed4,68817205a84113384fffdfe3,689d09ff7152de4e96a8dfd9,,,,,,,,,,,,./stim/wavs/castilian_mismatch_declarative-broad-focus_El-nino-oye-el-rio.wav,0,,,134.7194,137.629,0,1,2.3899,,0,32,32,68,1,69,0,castilian,,,,,,,,,,,,,,,,,,,,,,,,,,,,,,,,,,,,,,,,,,,,,,,,,,,,,,,,
,,,,,,,,,6290baefc1820d33bb4afed4,Puerto Rican,younger than 13,"no, only English or Spanish",yes,2025-08-13_17h57.10.659,empathy_intonation_perc_control,2024.2.4,Linux x86_64,60.00960154,6290baefc1820d33bb4afed4,68817205a84113384fffdfe3,689d09ff7152de4e96a8dfd9,,,,,,,,,,,,./stim/wavs/puertorican_match_declarative-broad-focus_David-leia-el-libro.wav,0,,,137.6677,140.3527,0,1,2.1729,,0,33,33,64,1,65,0,puertorican,,,,,,,,,,,,,,,,,,,,,,,,,,,,,,,,,,,,,,,,,,,,,,,,,,,,,,,,
,,,,,,,,,6290baefc1820d33bb4afed4,Puerto Rican,younger than 13,"no, only English or Spanish",yes,2025-08-13_17h57.10.659,empathy_intonation_perc_control,2024.2.4,Linux x86_64,60.00960154,6290baefc1820d33bb4afed4,68817205a84113384fffdfe3,689d09ff7152de4e96a8dfd9,,,,,,,,,,,,./stim/wavs/castilian_match_declarative-broad-focus_Manuela-vende-el-carro.wav,0,,,140.3542,143.2205,0,1,2.3393,,0,34,34,46,1,47,0,castilian,,,,,,,,,,,,,,,,,,,,,,,,,,,,,,,,,,,,,,,,,,,,,,,,,,,,,,,,
,,,,,,,,,6290baefc1820d33bb4afed4,Puerto Rican,younger than 13,"no, only English or Spanish",yes,2025-08-13_17h57.10.659,empathy_intonation_perc_control,2024.2.4,Linux x86_64,60.00960154,6290baefc1820d33bb4afed4,68817205a84113384fffdfe3,689d09ff7152de4e96a8dfd9,,,,,,,,,,,,./stim/wavs/cuban_match_interrogative-total-yn_Maria-bebe-el-vino.wav,1,,,143.2217,146.2521,0,0,2.5037,,0,35,35,9,1,10,1,cuban,,,,,,,,,,,,,,,,,,,,,,,,,,,,,,,,,,,,,,,,,,,,,,,,,,,,,,,,
,,,,,,,,,6290baefc1820d33bb4afed4,Puerto Rican,younger than 13,"no, only English or Spanish",yes,2025-08-13_17h57.10.659,empathy_intonation_perc_control,2024.2.4,Linux x86_64,60.00960154,6290baefc1820d33bb4afed4,68817205a84113384fffdfe3,689d09ff7152de4e96a8dfd9,,,,,,,,,,,,./stim/wavs/cuban_match_interrogative-total-yn_Ana-lleva-el-abrigo.wav,1,,,146.2728,148.8717,0,0,2.0797,,0,36,36,6,1,7,1,cuban,,,,,,,,,,,,,,,,,,,,,,,,,,,,,,,,,,,,,,,,,,,,,,,,,,,,,,,,
,,,,,,,,,6290baefc1820d33bb4afed4,Puerto Rican,younger than 13,"no, only English or Spanish",yes,2025-08-13_17h57.10.659,empathy_intonation_perc_control,2024.2.4,Linux x86_64,60.00960154,6290baefc1820d33bb4afed4,68817205a84113384fffdfe3,689d09ff7152de4e96a8dfd9,,,,,,,,,,,,./stim/wavs/puertorican_match_declarative-broad-focus_Maria-bebe-el-vino.wav,0,,,148.874,151.3494,0,1,1.9402,,0,37,37,67,1,68,0,puertorican,,,,,,,,,,,,,,,,,,,,,,,,,,,,,,,,,,,,,,,,,,,,,,,,,,,,,,,,
,,,,,,,,,6290baefc1820d33bb4afed4,Puerto Rican,younger than 13,"no, only English or Spanish",yes,2025-08-13_17h57.10.659,empathy_intonation_perc_control,2024.2.4,Linux x86_64,60.00960154,6290baefc1820d33bb4afed4,68817205a84113384fffdfe3,689d09ff7152de4e96a8dfd9,,,,,,,,,,,,./stim/wavs/mexican_match_declarative-broad-focus_David-leia-el-libro.wav,0,,,151.3507,154.466,1,0,2.597,,0,38,38,58,1,59,0,mexican,,,,,,,,,,,,,,,,,,,,,,,,,,,,,,,,,,,,,,,,,,,,,,,,,,,,,,,,
,,,,,,,,,6290baefc1820d33bb4afed4,Puerto Rican,younger than 13,"no, only English or Spanish",yes,2025-08-13_17h57.10.659,empathy_intonation_perc_control,2024.2.4,Linux x86_64,60.00960154,6290baefc1820d33bb4afed4,68817205a84113384fffdfe3,689d09ff7152de4e96a8dfd9,,,,,,,,,,,,./stim/wavs/puertorican_mismatch_interrogative-total-yn_La-nina-lava-el-plato.wav,1,,,154.4885,156.6332,1,1,1.6202,,0,39,39,42,1,43,1,puertorican,,,,,,,,,,,,,,,,,,,,,,,,,,,,,,,,,,,,,,,,,,,,,,,,,,,,,,,,
,,,,,,,,,6290baefc1820d33bb4afed4,Puerto Rican,younger than 13,"no, only English or Spanish",yes,2025-08-13_17h57.10.659,empathy_intonation_perc_control,2024.2.4,Linux x86_64,60.00960154,6290baefc1820d33bb4afed4,68817205a84113384fffdfe3,689d09ff7152de4e96a8dfd9,,,,,,,,,,,,./stim/wavs/puertorican_match_declarative-broad-focus_Emilio-ama-la-marcha.wav,0,,,156.6347,159.1524,0,1,1.987,,0,40,40,65,1,66,0,puertorican,,,,,,,,,,,,,,,,,,,,,,,,,,,,,,,,,,,,,,,,,,,,,,,,,,,,,,,,
,,,,,,,,,6290baefc1820d33bb4afed4,Puerto Rican,younger than 13,"no, only English or Spanish",yes,2025-08-13_17h57.10.659,empathy_intonation_perc_control,2024.2.4,Linux x86_64,60.00960154,6290baefc1820d33bb4afed4,68817205a84113384fffdfe3,689d09ff7152de4e96a8dfd9,,,,,,,,,,,,./stim/wavs/castilian_match_declarative-broad-focus_Emilio-ama-la-marcha.wav,0,,,159.1564,161.5521,0,1,1.8677,,0,41,41,45,1,46,0,castilian,,,,,,,,,,,,,,,,,,,,,,,,,,,,,,,,,,,,,,,,,,,,,,,,,,,,,,,,
,,,,,,,,,6290baefc1820d33bb4afed4,Puerto Rican,younger than 13,"no, only English or Spanish",yes,2025-08-13_17h57.10.659,empathy_intonation_perc_control,2024.2.4,Linux x86_64,60.00960154,6290baefc1820d33bb4afed4,68817205a84113384fffdfe3,689d09ff7152de4e96a8dfd9,,,,,,,,,,,,./stim/wavs/cuban_mismatch_declarative-broad-focus_La-nina-lava-el-plato.wav,0,,,161.5544,164.749,0,1,2.6633,,0,42,42,75,1,76,0,cuban,,,,,,,,,,,,,,,,,,,,,,,,,,,,,,,,,,,,,,,,,,,,,,,,,,,,,,,,
,,,,,,,,,6290baefc1820d33bb4afed4,Puerto Rican,younger than 13,"no, only English or Spanish",yes,2025-08-13_17h57.10.659,empathy_intonation_perc_control,2024.2.4,Linux x86_64,60.00960154,6290baefc1820d33bb4afed4,68817205a84113384fffdfe3,689d09ff7152de4e96a8dfd9,,,,,,,,,,,,./stim/wavs/castilian_mismatch_interrogative-total-yn_La-nina-lava-el-plato.wav,1,,,164.77,167.0653,1,1,1.7599,,0,43,43,25,1,26,0,castilian,,,,,,,,,,,,,,,,,,,,,,,,,,,,,,,,,,,,,,,,,,,,,,,,,,,,,,,,
,,,,,,,,,6290baefc1820d33bb4afed4,Puerto Rican,younger than 13,"no, only English or Spanish",yes,2025-08-13_17h57.10.659,empathy_intonation_perc_control,2024.2.4,Linux x86_64,60.00960154,6290baefc1820d33bb4afed4,68817205a84113384fffdfe3,689d09ff7152de4e96a8dfd9,,,,,,,,,,,,./stim/wavs/castilian_match_interrogative-total-yn_Mariano-habla-del-tiempo.wav,1,,,167.0666,169.7009,1,1,2.1103,,0,44,44,4,1,5,0,castilian,,,,,,,,,,,,,,,,,,,,,,,,,,,,,,,,,,,,,,,,,,,,,,,,,,,,,,,,
,,,,,,,,,6290baefc1820d33bb4afed4,Puerto Rican,younger than 13,"no, only English or Spanish",yes,2025-08-13_17h57.10.659,empathy_intonation_perc_control,2024.2.4,Linux x86_64,60.00960154,6290baefc1820d33bb4afed4,68817205a84113384fffdfe3,689d09ff7152de4e96a8dfd9,,,,,,,,,,,,./stim/wavs/mexican_mismatch_interrogative-total-yn_La-maestra-vive-en-Paris.wav,1,,,169.7316,172.0889,1,1,1.8357,,0,45,45,36,1,37,0,mexican,,,,,,,,,,,,,,,,,,,,,,,,,,,,,,,,,,,,,,,,,,,,,,,,,,,,,,,,
,,,,,,,,,6290baefc1820d33bb4afed4,Puerto Rican,younger than 13,"no, only English or Spanish",yes,2025-08-13_17h57.10.659,empathy_intonation_perc_control,2024.2.4,Linux x86_64,60.00960154,6290baefc1820d33bb4afed4,68817205a84113384fffdfe3,689d09ff7152de4e96a8dfd9,,,,,,,,,,,,./stim/wavs/cuban_match_declarative-broad-focus_Marta-abre-el-regalo.wav,0,,,172.0905,174.6519,1,0,2.0459,,0,46,46,55,1,56,0,cuban,,,,,,,,,,,,,,,,,,,,,,,,,,,,,,,,,,,,,,,,,,,,,,,,,,,,,,,,
,,,,,,,,,6290baefc1820d33bb4afed4,Puerto Rican,younger than 13,"no, only English or Spanish",yes,2025-08-13_17h57.10.659,empathy_intonation_perc_control,2024.2.4,Linux x86_64,60.00960154,6290baefc1820d33bb4afed4,68817205a84113384fffdfe3,689d09ff7152de4e96a8dfd9,,,,,,,,,,,,./stim/wavs/mexican_match_declarative-broad-focus_Daniel-iba-a-Bolivia.wav,0,,,174.6539,177.1684,0,1,2,,0,47,47,57,1,58,0,mexican,,,,,,,,,,,,,,,,,,,,,,,,,,,,,,,,,,,,,,,,,,,,,,,,,,,,,,,,
,,,,,,,,,6290baefc1820d33bb4afed4,Puerto Rican,younger than 13,"no, only English or Spanish",yes,2025-08-13_17h57.10.659,empathy_intonation_perc_control,2024.2.4,Linux x86_64,60.00960154,6290baefc1820d33bb4afed4,68817205a84113384fffdfe3,689d09ff7152de4e96a8dfd9,,,,,,,,,,,,./stim/wavs/mexican_match_interrogative-total-yn_Emilio-ama-la-marcha.wav,1,,,177.1699,179.417,1,1,1.718,,0,48,48,15,1,16,0,mexican,,,,,,,,,,,,,,,,,,,,,,,,,,,,,,,,,,,,,,,,,,,,,,,,,,,,,,,,
,,,,,,,,,6290baefc1820d33bb4afed4,Puerto Rican,younger than 13,"no, only English or Spanish",yes,2025-08-13_17h57.10.659,empathy_intonation_perc_control,2024.2.4,Linux x86_64,60.00960154,6290baefc1820d33bb4afed4,68817205a84113384fffdfe3,689d09ff7152de4e96a8dfd9,,,,,,,,,,,,./stim/wavs/castilian_mismatch_declarative-broad-focus_La-maestra-vive-en-Paris.wav,0,,,179.4196,181.9492,0,1,2.001,,0,49,49,69,1,70,0,castilian,,,,,,,,,,,,,,,,,,,,,,,,,,,,,,,,,,,,,,,,,,,,,,,,,,,,,,,,
,,,,,,,,,6290baefc1820d33bb4afed4,Puerto Rican,younger than 13,"no, only English or Spanish",yes,2025-08-13_17h57.10.659,empathy_intonation_perc_control,2024.2.4,Linux x86_64,60.00960154,6290baefc1820d33bb4afed4,68817205a84113384fffdfe3,689d09ff7152de4e96a8dfd9,,,,,,,,,,,,./stim/wavs/puertorican_mismatch_declarative-broad-focus_El-hombre-mira-la-luna.wav,0,,,181.9736,184.8816,1,0,2.384,,0,50,50,84,1,85,0,puertorican,,,,,,,,,,,,,,,,,,,,,,,,,,,,,,,,,,,,,,,,,,,,,,,,,,,,,,,,
,,,,,,,,,6290baefc1820d33bb4afed4,Puerto Rican,younger than 13,"no, only English or Spanish",yes,2025-08-13_17h57.10.659,empathy_intonation_perc_control,2024.2.4,Linux x86_64,60.00960154,6290baefc1820d33bb4afed4,68817205a84113384fffdfe3,689d09ff7152de4e96a8dfd9,,,,,,,,,,,,./stim/wavs/castilian_mismatch_interrogative-total-yn_Mi-tia-odia-la-lluvia.wav,1,,,184.8853,187.2146,1,1,1.8029,,0,51,51,28,1,29,0,castilian,,,,,,,,,,,,,,,,,,,,,,,,,,,,,,,,,,,,,,,,,,,,,,,,,,,,,,,,
,,,,,,,,,6290baefc1820d33bb4afed4,Puerto Rican,younger than 13,"no, only English or Spanish",yes,2025-08-13_17h57.10.659,empathy_intonation_perc_control,2024.2.4,Linux x86_64,60.00960154,6290baefc1820d33bb4afed4,68817205a84113384fffdfe3,689d09ff7152de4e96a8dfd9,,,,,,,,,,,,./stim/wavs/mexican_mismatch_declarative-broad-focus_El-hombre-mira-la-luna.wav,0,,,187.2161,189.2651,0,1,1.5167,,0,52,52,79,1,80,0,mexican,,,,,,,,,,,,,,,,,,,,,,,,,,,,,,,,,,,,,,,,,,,,,,,,,,,,,,,,
,,,,,,,,,6290baefc1820d33bb4afed4,Puerto Rican,younger than 13,"no, only English or Spanish",yes,2025-08-13_17h57.10.659,empathy_intonation_perc_control,2024.2.4,Linux x86_64,60.00960154,6290baefc1820d33bb4afed4,68817205a84113384fffdfe3,689d09ff7152de4e96a8dfd9,,,,,,,,,,,,./stim/wavs/puertorican_mismatch_declarative-broad-focus_La-maestra-vive-en-Paris.wav,0,,,189.2677,191.5149,0,1,1.7195,,0,53,53,86,1,87,0,puertorican,,,,,,,,,,,,,,,,,,,,,,,,,,,,,,,,,,,,,,,,,,,,,,,,,,,,,,,,
,,,,,,,,,6290baefc1820d33bb4afed4,Puerto Rican,younger than 13,"no, only English or Spanish",yes,2025-08-13_17h57.10.659,empathy_intonation_perc_control,2024.2.4,Linux x86_64,60.00960154,6290baefc1820d33bb4afed4,68817205a84113384fffdfe3,689d09ff7152de4e96a8dfd9,,,,,,,,,,,,./stim/wavs/puertorican_mismatch_interrogative-total-yn_El-hombre-mira-la-luna.wav,1,,,191.5168,193.6646,1,1,1.6168,,0,54,54,39,1,40,1,puertorican,,,,,,,,,,,,,,,,,,,,,,,,,,,,,,,,,,,,,,,,,,,,,,,,,,,,,,,,
,,,,,,,,,6290baefc1820d33bb4afed4,Puerto Rican,younger than 13,"no, only English or Spanish",yes,2025-08-13_17h57.10.659,empathy_intonation_perc_control,2024.2.4,Linux x86_64,60.00960154,6290baefc1820d33bb4afed4,68817205a84113384fffdfe3,689d09ff7152de4e96a8dfd9,,,,,,,,,,,,./stim/wavs/mexican_match_interrogative-total-yn_Daniel-iba-a-Bolivia.wav,1,,,193.6669,195.7482,1,1,1.5513,,0,55,55,13,1,14,0,mexican,,,,,,,,,,,,,,,,,,,,,,,,,,,,,,,,,,,,,,,,,,,,,,,,,,,,,,,,
,,,,,,,,,6290baefc1820d33bb4afed4,Puerto Rican,younger than 13,"no, only English or Spanish",yes,2025-08-13_17h57.10.659,empathy_intonation_perc_control,2024.2.4,Linux x86_64,60.00960154,6290baefc1820d33bb4afed4,68817205a84113384fffdfe3,689d09ff7152de4e96a8dfd9,,,,,,,,,,,,./stim/wavs/castilian_mismatch_interrogative-total-yn_Mi-madre-come-la-fruta.wav,1,,,195.75,198.2226,1,1,1.9475,,0,56,56,26,1,27,0,castilian,,,,,,,,,,,,,,,,,,,,,,,,,,,,,,,,,,,,,,,,,,,,,,,,,,,,,,,,
,,,,,,,,,6290baefc1820d33bb4afed4,Puerto Rican,younger than 13,"no, only English or Spanish",yes,2025-08-13_17h57.10.659,empathy_intonation_perc_control,2024.2.4,Linux x86_64,60.00960154,6290baefc1820d33bb4afed4,68817205a84113384fffdfe3,689d09ff7152de4e96a8dfd9,,,,,,,,,,,,./stim/wavs/mexican_match_interrogative-total-yn_Marta-abre-el-regalo.wav,1,,,198.2639,200.4847,1,1,1.6977,,0,57,57,17,1,18,0,mexican,,,,,,,,,,,,,,,,,,,,,,,,,,,,,,,,,,,,,,,,,,,,,,,,,,,,,,,,
,,,,,,,,,6290baefc1820d33bb4afed4,Puerto Rican,younger than 13,"no, only English or Spanish",yes,2025-08-13_17h57.10.659,empathy_intonation_perc_control,2024.2.4,Linux x86_64,60.00960154,6290baefc1820d33bb4afed4,68817205a84113384fffdfe3,689d09ff7152de4e96a8dfd9,,,,,,,,,,,,./stim/wavs/cuban_mismatch_interrogative-total-yn_El-nino-oye-el-rio.wav,1,,,200.4864,202.4649,0,0,1.4489,,0,58,58,30,1,31,1,cuban,,,,,,,,,,,,,,,,,,,,,,,,,,,,,,,,,,,,,,,,,,,,,,,,,,,,,,,,
,,,,,,,,,6290baefc1820d33bb4afed4,Puerto Rican,younger than 13,"no, only English or Spanish",yes,2025-08-13_17h57.10.659,empathy_intonation_perc_control,2024.2.4,Linux x86_64,60.00960154,6290baefc1820d33bb4afed4,68817205a84113384fffdfe3,689d09ff7152de4e96a8dfd9,,,,,,,,,,,,./stim/wavs/castilian_match_declarative-broad-focus_David-leia-el-libro.wav,0,,,202.4662,205.0737,0,1,2.0869,,0,59,59,44,1,45,0,castilian,,,,,,,,,,,,,,,,,,,,,,,,,,,,,,,,,,,,,,,,,,,,,,,,,,,,,,,,
,,,,,,,,,6290baefc1820d33bb4afed4,Puerto Rican,younger than 13,"no, only English or Spanish",yes,2025-08-13_17h57.10.659,empathy_intonation_perc_control,2024.2.4,Linux x86_64,60.00960154,6290baefc1820d33bb4afed4,68817205a84113384fffdfe3,689d09ff7152de4e96a8dfd9,,,,,,,,,,,,./stim/wavs/puertorican_match_declarative-broad-focus_Manuela-vende-el-carro.wav,0,,,205.0756,207.3137,0,1,1.6996,,0,60,60,66,1,67,0,puertorican,,,,,,,,,,,,,,,,,,,,,,,,,,,,,,,,,,,,,,,,,,,,,,,,,,,,,,,,
,,,,,,,,,6290baefc1820d33bb4afed4,Puerto Rican,younger than 13,"no, only English or Spanish",yes,2025-08-13_17h57.10.659,empathy_intonation_perc_control,2024.2.4,Linux x86_64,60.00960154,6290baefc1820d33bb4afed4,68817205a84113384fffdfe3,689d09ff7152de4e96a8dfd9,,,,,,,,,,,,./stim/wavs/mexican_match_interrogative-total-yn_Mariano-habla-del-tiempo.wav,1,,,207.3161,209.7485,1,1,1.9042,,0,61,61,16,1,17,0,mexican,,,,,,,,,,,,,,,,,,,,,,,,,,,,,,,,,,,,,,,,,,,,,,,,,,,,,,,,
,,,,,,,,,6290baefc1820d33bb4afed4,Puerto Rican,younger than 13,"no, only English or Spanish",yes,2025-08-13_17h57.10.659,empathy_intonation_perc_control,2024.2.4,Linux x86_64,60.00960154,6290baefc1820d33bb4afed4,68817205a84113384fffdfe3,689d09ff7152de4e96a8dfd9,,,,,,,,,,,,./stim/wavs/castilian_match_interrogative-total-yn_Emilio-ama-la-marcha.wav,1,,,209.75,212.48,1,1,2.2006,,0,62,62,1,1,2,0,castilian,,,,,,,,,,,,,,,,,,,,,,,,,,,,,,,,,,,,,,,,,,,,,,,,,,,,,,,,
,,,,,,,,,6290baefc1820d33bb4afed4,Puerto Rican,younger than 13,"no, only English or Spanish",yes,2025-08-13_17h57.10.659,empathy_intonation_perc_control,2024.2.4,Linux x86_64,60.00960154,6290baefc1820d33bb4afed4,68817205a84113384fffdfe3,689d09ff7152de4e96a8dfd9,,,,,,,,,,,,./stim/wavs/cuban_mismatch_interrogative-total-yn_Mi-madre-come-la-fruta.wav,1,,,212.5089,214.5512,0,0,1.5226,,0,63,63,31,1,32,1,cuban,,,,,,,,,,,,,,,,,,,,,,,,,,,,,,,,,,,,,,,,,,,,,,,,,,,,,,,,
,,,,,,,,,6290baefc1820d33bb4afed4,Puerto Rican,younger than 13,"no, only English or Spanish",yes,2025-08-13_17h57.10.659,empathy_intonation_perc_control,2024.2.4,Linux x86_64,60.00960154,6290baefc1820d33bb4afed4,68817205a84113384fffdfe3,689d09ff7152de4e96a8dfd9,,,,,,,,,,,,./stim/wavs/castilian_mismatch_declarative-broad-focus_Mi-novio-viene-del-lago.wav,0,,,214.554,216.9508,0,1,1.8665,,0,64,64,71,1,72,0,castilian,,,,,,,,,,,,,,,,,,,,,,,,,,,,,,,,,,,,,,,,,,,,,,,,,,,,,,,,
,,,,,,,,,6290baefc1820d33bb4afed4,Puerto Rican,younger than 13,"no, only English or Spanish",yes,2025-08-13_17h57.10.659,empathy_intonation_perc_control,2024.2.4,Linux x86_64,60.00960154,6290baefc1820d33bb4afed4,68817205a84113384fffdfe3,689d09ff7152de4e96a8dfd9,,,,,,,,,,,,./stim/wavs/puertorican_mismatch_interrogative-total-yn_Mi-madre-come-la-fruta.wav,1,,,216.9521,219.4341,0,0,1.9563,,0,65,65,43,1,44,1,puertorican,,,,,,,,,,,,,,,,,,,,,,,,,,,,,,,,,,,,,,,,,,,,,,,,,,,,,,,,
,,,,,,,,,6290baefc1820d33bb4afed4,Puerto Rican,younger than 13,"no, only English or Spanish",yes,2025-08-13_17h57.10.659,empathy_intonation_perc_control,2024.2.4,Linux x86_64,60.00960154,6290baefc1820d33bb4afed4,68817205a84113384fffdfe3,689d09ff7152de4e96a8dfd9,,,,,,,,,,,,./stim/wavs/puertorican_match_interrogative-total-yn_David-leia-el-libro.wav,1,,,219.4374,222.0159,1,1,2.0463,,0,66,66,20,1,21,1,puertorican,,,,,,,,,,,,,,,,,,,,,,,,,,,,,,,,,,,,,,,,,,,,,,,,,,,,,,,,
,,,,,,,,,6290baefc1820d33bb4afed4,Puerto Rican,younger than 13,"no, only English or Spanish",yes,2025-08-13_17h57.10.659,empathy_intonation_perc_control,2024.2.4,Linux x86_64,60.00960154,6290baefc1820d33bb4afed4,68817205a84113384fffdfe3,689d09ff7152de4e96a8dfd9,,,,,,,,,,,,./stim/wavs/mexican_match_declarative-broad-focus_Mariano-habla-del-tiempo.wav,0,,,222.0388,224.3533,0,1,1.7774,,0,67,67,60,1,61,0,mexican,,,,,,,,,,,,,,,,,,,,,,,,,,,,,,,,,,,,,,,,,,,,,,,,,,,,,,,,
,,,,,,,,,6290baefc1820d33bb4afed4,Puerto Rican,younger than 13,"no, only English or Spanish",yes,2025-08-13_17h57.10.659,empathy_intonation_perc_control,2024.2.4,Linux x86_64,60.00960154,6290baefc1820d33bb4afed4,68817205a84113384fffdfe3,689d09ff7152de4e96a8dfd9,,,,,,,,,,,,./stim/wavs/castilian_match_interrogative-total-yn_Marta-abre-el-regalo.wav,1,,,224.355,226.534,1,1,1.6555,,0,68,68,5,1,6,0,castilian,,,,,,,,,,,,,,,,,,,,,,,,,,,,,,,,,,,,,,,,,,,,,,,,,,,,,,,,
,,,,,,,,,6290baefc1820d33bb4afed4,Puerto Rican,younger than 13,"no, only English or Spanish",yes,2025-08-13_17h57.10.659,empathy_intonation_perc_control,2024.2.4,Linux x86_64,60.00960154,6290baefc1820d33bb4afed4,68817205a84113384fffdfe3,689d09ff7152de4e96a8dfd9,,,,,,,,,,,,./stim/wavs/castilian_mismatch_interrogative-total-yn_La-maestra-vive-en-Paris.wav,1,,,226.5358,229.2195,0,0,2.1555,,0,69,69,24,1,25,0,castilian,,,,,,,,,,,,,,,,,,,,,,,,,,,,,,,,,,,,,,,,,,,,,,,,,,,,,,,,
,,,,,,,,,6290baefc1820d33bb4afed4,Puerto Rican,younger than 13,"no, only English or Spanish",yes,2025-08-13_17h57.10.659,empathy_intonation_perc_control,2024.2.4,Linux x86_64,60.00960154,6290baefc1820d33bb4afed4,68817205a84113384fffdfe3,689d09ff7152de4e96a8dfd9,,,,,,,,,,,,./stim/wavs/cuban_match_declarative-broad-focus_Manuela-vende-el-carro.wav,0,,,229.2208,231.3631,0,1,1.618,,0,70,70,52,1,53,0,cuban,,,,,,,,,,,,,,,,,,,,,,,,,,,,,,,,,,,,,,,,,,,,,,,,,,,,,,,,
,,,,,,,,,6290baefc1820d33bb4afed4,Puerto Rican,younger than 13,"no, only English or Spanish",yes,2025-08-13_17h57.10.659,empathy_intonation_perc_control,2024.2.4,Linux x86_64,60.00960154,6290baefc1820d33bb4afed4,68817205a84113384fffdfe3,689d09ff7152de4e96a8dfd9,,,,,,,,,,,,./stim/wavs/castilian_match_declarative-broad-focus_Mariano-habla-del-tiempo.wav,0,,,231.3648,235.7635,0,1,3.8687,,0,71,71,48,1,49,0,castilian,,,,,,,,,,,,,,,,,,,,,,,,,,,,,,,,,,,,,,,,,,,,,,,,,,,,,,,,
,,,,,,,,,6290baefc1820d33bb4afed4,Puerto Rican,younger than 13,"no, only English or Spanish",yes,2025-08-13_17h57.10.659,empathy_intonation_perc_control,2024.2.4,Linux x86_64,60.00960154,6290baefc1820d33bb4afed4,68817205a84113384fffdfe3,689d09ff7152de4e96a8dfd9,,,,,,,,,,,,./stim/wavs/mexican_match_declarative-broad-focus_Marta-abre-el-regalo.wav,0,,,235.7864,238.0809,0,1,1.7709,,0,72,72,61,1,62,0,mexican,,,,,,,,,,,,,,,,,,,,,,,,,,,,,,,,,,,,,,,,,,,,,,,,,,,,,,,,
,,,,,,,,,6290baefc1820d33bb4afed4,Puerto Rican,younger than 13,"no, only English or Spanish",yes,2025-08-13_17h57.10.659,empathy_intonation_perc_control,2024.2.4,Linux x86_64,60.00960154,6290baefc1820d33bb4afed4,68817205a84113384fffdfe3,689d09ff7152de4e96a8dfd9,,,,,,,,,,,,./stim/wavs/mexican_mismatch_declarative-broad-focus_La-maestra-vive-en-Paris.wav,0,,,238.1117,240.5537,0,1,1.9149,,0,73,73,80,1,81,0,mexican,,,,,,,,,,,,,,,,,,,,,,,,,,,,,,,,,,,,,,,,,,,,,,,,,,,,,,,,
,,,,,,,,,6290baefc1820d33bb4afed4,Puerto Rican,younger than 13,"no, only English or Spanish",yes,2025-08-13_17h57.10.659,empathy_intonation_perc_control,2024.2.4,Linux x86_64,60.00960154,6290baefc1820d33bb4afed4,68817205a84113384fffdfe3,689d09ff7152de4e96a8dfd9,,,,,,,,,,,,./stim/wavs/cuban_mismatch_interrogative-total-yn_El-hombre-mira-la-luna.wav,1,,,240.555,242.4487,1,1,1.3655,,0,74,74,29,1,30,1,cuban,,,,,,,,,,,,,,,,,,,,,,,,,,,,,,,,,,,,,,,,,,,,,,,,,,,,,,,,
,,,,,,,,,6290baefc1820d33bb4afed4,Puerto Rican,younger than 13,"no, only English or Spanish",yes,2025-08-13_17h57.10.659,empathy_intonation_perc_control,2024.2.4,Linux x86_64,60.00960154,6290baefc1820d33bb4afed4,68817205a84113384fffdfe3,689d09ff7152de4e96a8dfd9,,,,,,,,,,,,./stim/wavs/puertorican_match_interrogative-total-yn_Maria-bebe-el-vino.wav,1,,,242.4517,244.2676,1,1,1.2872,,0,75,75,23,1,24,1,puertorican,,,,,,,,,,,,,,,,,,,,,,,,,,,,,,,,,,,,,,,,,,,,,,,,,,,,,,,,
,,,,,,,,,6290baefc1820d33bb4afed4,Puerto Rican,younger than 13,"no, only English or Spanish",yes,2025-08-13_17h57.10.659,empathy_intonation_perc_control,2024.2.4,Linux x86_64,60.00960154,6290baefc1820d33bb4afed4,68817205a84113384fffdfe3,689d09ff7152de4e96a8dfd9,,,,,,,,,,,,./stim/wavs/puertorican_match_interrogative-total-yn_Ana-lleva-el-abrigo.wav,1,,,244.2694,246.1323,1,1,1.3236,,0,76,76,18,1,19,1,puertorican,,,,,,,,,,,,,,,,,,,,,,,,,,,,,,,,,,,,,,,,,,,,,,,,,,,,,,,,
,,,,,,,,,6290baefc1820d33bb4afed4,Puerto Rican,younger than 13,"no, only English or Spanish",yes,2025-08-13_17h57.10.659,empathy_intonation_perc_control,2024.2.4,Linux x86_64,60.00960154,6290baefc1820d33bb4afed4,68817205a84113384fffdfe3,689d09ff7152de4e96a8dfd9,,,,,,,,,,,,./stim/wavs/cuban_match_declarative-broad-focus_Maria-bebe-el-vino.wav,0,,,246.134,248.2125,0,1,1.5436,,0,77,77,53,1,54,0,cuban,,,,,,,,,,,,,,,,,,,,,,,,,,,,,,,,,,,,,,,,,,,,,,,,,,,,,,,,
,,,,,,,,,6290baefc1820d33bb4afed4,Puerto Rican,younger than 13,"no, only English or Spanish",yes,2025-08-13_17h57.10.659,empathy_intonation_perc_control,2024.2.4,Linux x86_64,60.00960154,6290baefc1820d33bb4afed4,68817205a84113384fffdfe3,689d09ff7152de4e96a8dfd9,,,,,,,,,,,,./stim/wavs/mexican_match_interrogative-total-yn_Ana-lleva-el-abrigo.wav,1,,,248.2138,250.1449,1,1,1.4062,,0,78,78,12,1,13,0,mexican,,,,,,,,,,,,,,,,,,,,,,,,,,,,,,,,,,,,,,,,,,,,,,,,,,,,,,,,
,,,,,,,,,6290baefc1820d33bb4afed4,Puerto Rican,younger than 13,"no, only English or Spanish",yes,2025-08-13_17h57.10.659,empathy_intonation_perc_control,2024.2.4,Linux x86_64,60.00960154,6290baefc1820d33bb4afed4,68817205a84113384fffdfe3,689d09ff7152de4e96a8dfd9,,,,,,,,,,,,./stim/wavs/mexican_mismatch_interrogative-total-yn_Mi-novio-viene-del-lago.wav,1,,,250.1461,252.201,1,1,1.5375,,0,79,79,37,1,38,0,mexican,,,,,,,,,,,,,,,,,,,,,,,,,,,,,,,,,,,,,,,,,,,,,,,,,,,,,,,,
,,,,,,,,,6290baefc1820d33bb4afed4,Puerto Rican,younger than 13,"no, only English or Spanish",yes,2025-08-13_17h57.10.659,empathy_intonation_perc_control,2024.2.4,Linux x86_64,60.00960154,6290baefc1820d33bb4afed4,68817205a84113384fffdfe3,689d09ff7152de4e96a8dfd9,,,,,,,,,,,,./stim/wavs/cuban_match_declarative-broad-focus_Ana-lleva-el-abrigo.wav,0,,,252.2026,254.5996,0,1,1.8699,,0,80,80,50,1,51,0,cuban,,,,,,,,,,,,,,,,,,,,,,,,,,,,,,,,,,,,,,,,,,,,,,,,,,,,,,,,
,,,,,,,,,6290baefc1820d33bb4afed4,Puerto Rican,younger than 13,"no, only English or Spanish",yes,2025-08-13_17h57.10.659,empathy_intonation_perc_control,2024.2.4,Linux x86_64,60.00960154,6290baefc1820d33bb4afed4,68817205a84113384fffdfe3,689d09ff7152de4e96a8dfd9,,,,,,,,,,,,./stim/wavs/castilian_match_declarative-broad-focus_Maria-bebe-el-vino.wav,0,,,254.6015,256.7854,0,1,1.6539,,0,81,81,47,1,48,0,castilian,,,,,,,,,,,,,,,,,,,,,,,,,,,,,,,,,,,,,,,,,,,,,,,,,,,,,,,,
,,,,,,,,,6290baefc1820d33bb4afed4,Puerto Rican,younger than 13,"no, only English or Spanish",yes,2025-08-13_17h57.10.659,empathy_intonation_perc_control,2024.2.4,Linux x86_64,60.00960154,6290baefc1820d33bb4afed4,68817205a84113384fffdfe3,689d09ff7152de4e96a8dfd9,,,,,,,,,,,,./stim/wavs/castilian_mismatch_interrogative-total-yn_Mi-novio-viene-del-lago.wav,1,,,256.7874,259.2989,1,1,1.9846,,0,82,82,27,1,28,0,castilian,,,,,,,,,,,,,,,,,,,,,,,,,,,,,,,,,,,,,,,,,,,,,,,,,,,,,,,,
,,,,,,,,,6290baefc1820d33bb4afed4,Puerto Rican,younger than 13,"no, only English or Spanish",yes,2025-08-13_17h57.10.659,empathy_intonation_perc_control,2024.2.4,Linux x86_64,60.00960154,6290baefc1820d33bb4afed4,68817205a84113384fffdfe3,689d09ff7152de4e96a8dfd9,,,,,,,,,,,,./stim/wavs/cuban_match_declarative-broad-focus_Daniel-iba-a-Bolivia.wav,0,,,259.3014,261.9168,0,1,2.0862,,0,83,83,51,1,52,0,cuban,,,,,,,,,,,,,,,,,,,,,,,,,,,,,,,,,,,,,,,,,,,,,,,,,,,,,,,,
,,,,,,,,,6290baefc1820d33bb4afed4,Puerto Rican,younger than 13,"no, only English or Spanish",yes,2025-08-13_17h57.10.659,empathy_intonation_perc_control,2024.2.4,Linux x86_64,60.00960154,6290baefc1820d33bb4afed4,68817205a84113384fffdfe3,689d09ff7152de4e96a8dfd9,,,,,,,,,,,,./stim/wavs/cuban_mismatch_interrogative-total-yn_Mi-novio-viene-del-lago.wav,1,,,261.9196,266.5611,0,0,4.1097,,0,84,84,32,1,33,1,cuban,,,,,,,,,,,,,,,,,,,,,,,,,,,,,,,,,,,,,,,,,,,,,,,,,,,,,,,,
,,,,,,,,,6290baefc1820d33bb4afed4,Puerto Rican,younger than 13,"no, only English or Spanish",yes,2025-08-13_17h57.10.659,empathy_intonation_perc_control,2024.2.4,Linux x86_64,60.00960154,6290baefc1820d33bb4afed4,68817205a84113384fffdfe3,689d09ff7152de4e96a8dfd9,,,,,,,,,,,,./stim/wavs/mexican_match_declarative-broad-focus_Emilio-ama-la-marcha.wav,0,,,266.5836,268.9778,0,1,1.874,,0,85,85,59,1,60,0,mexican,,,,,,,,,,,,,,,,,,,,,,,,,,,,,,,,,,,,,,,,,,,,,,,,,,,,,,,,
,,,,,,,,,6290baefc1820d33bb4afed4,Puerto Rican,younger than 13,"no, only English or Spanish",yes,2025-08-13_17h57.10.659,empathy_intonation_perc_control,2024.2.4,Linux x86_64,60.00960154,6290baefc1820d33bb4afed4,68817205a84113384fffdfe3,689d09ff7152de4e96a8dfd9,,,,,,,,,,,,./stim/wavs/mexican_mismatch_interrogative-total-yn_Mi-tia-odia-la-lluvia.wav,1,,,268.9799,270.9965,1,1,1.4835,,0,86,86,38,1,39,0,mexican,,,,,,,,,,,,,,,,,,,,,,,,,,,,,,,,,,,,,,,,,,,,,,,,,,,,,,,,
,,,,,,,,,6290baefc1820d33bb4afed4,Puerto Rican,younger than 13,"no, only English or Spanish",yes,2025-08-13_17h57.10.659,empathy_intonation_perc_control,2024.2.4,Linux x86_64,60.00960154,6290baefc1820d33bb4afed4,68817205a84113384fffdfe3,689d09ff7152de4e96a8dfd9,,,,,,,,,,,,./stim/wavs/puertorican_match_interrogative-total-yn_Manuela-vende-el-carro.wav,1,,,270.9979,273.566,1,1,2.0359,,0,87,87,22,1,23,1,puertorican,,,,,,,,,,,,,,,,,,,,,,,,,,,,,,,,,,,,,,,,,,,,,,,,,,,,,,,,
,,,,,,,"Great! Now we will move on. The next task consists of about 60 trials, in each of which you will see a string of letters. 
  
  Your task is to decide whether this is a real Spanish word or not.", (press the spacebar to continue),6290baefc1820d33bb4afed4,Puerto Rican,younger than 13,"no, only English or Spanish",yes,2025-08-13_17h57.10.659,empathy_intonation_perc_control,2024.2.4,Linux x86_64,60.00960154,6290baefc1820d33bb4afed4,68817205a84113384fffdfe3,689d09ff7152de4e96a8dfd9,,,,,,,,,,,,,,,,,,,,,,,,,,,,,,273.5827,279.6161,0,0,0,0,1,,,,,,,,,,,,,,,,,,,,,,,,,,,,,,,,,,,,,,,,,,,,,,,,,
,,,,,,,"If you think it is an existing Spanish word, you type '1' (for 'REAL'), and if you think it is not an existing Spanish word, you type '0' (for 'FAKE').", (press the spacebar to continue),6290baefc1820d33bb4afed4,Puerto Rican,younger than 13,"no, only English or Spanish",yes,2025-08-13_17h57.10.659,empathy_intonation_perc_control,2024.2.4,Linux x86_64,60.00960154,6290baefc1820d33bb4afed4,68817205a84113384fffdfe3,689d09ff7152de4e96a8dfd9,,,,,,,,,,,,,,,,,,,,,,,,,,,,,,279.6402,284.3274,0,1,1,1,1,,,,,,,,,,,,,,,,,,,,,,,,,,,,,,,,,,,,,,,,,,,,,,,,,
,,,,,,,"If you are sure that the word exists, even though you don’t know its exact meaning, you may still respond '1' (REAL). 
  
  But if you are not sure if it is an existing word, you should respond '0' (FAKE).
  
  Let's do a practice round...", (press the spacebar to continue),6290baefc1820d33bb4afed4,Puerto Rican,younger than 13,"no, only English or Spanish",yes,2025-08-13_17h57.10.659,empathy_intonation_perc_control,2024.2.4,Linux x86_64,60.00960154,6290baefc1820d33bb4afed4,68817205a84113384fffdfe3,689d09ff7152de4e96a8dfd9,,,,,,,,,,,,,,,,,,,,,,,,,,,,,,284.3585,289.568,0,2,2,2,1,,,,,,,,,,,,,,,,,,,,,,,,,,,,,,,,,,,,,,,,,,,,,,,,,
,,,,,,,,,6290baefc1820d33bb4afed4,Puerto Rican,younger than 13,"no, only English or Spanish",yes,2025-08-13_17h57.10.659,empathy_intonation_perc_control,2024.2.4,Linux x86_64,60.00960154,6290baefc1820d33bb4afed4,68817205a84113384fffdfe3,689d09ff7152de4e96a8dfd9,,,,,,,,,,,,,0,,,,,,,,,,,,,,,,,,,,,,,,289.6071,292.2616,1,0,2.131,,292.2621,293.2619,0,0,0,0,1,0,depiste,REAL,FAKE,,,,,,,,,,,,,,,,,,,,,,,,,,,,,,,,
,,,,,,,,,6290baefc1820d33bb4afed4,Puerto Rican,younger than 13,"no, only English or Spanish",yes,2025-08-13_17h57.10.659,empathy_intonation_perc_control,2024.2.4,Linux x86_64,60.00960154,6290baefc1820d33bb4afed4,68817205a84113384fffdfe3,689d09ff7152de4e96a8dfd9,,,,,,,,,,,,,1,,,,,,,,,,,,,,,,,,,,,,,,293.2644,294.8436,1,1,1.0523,,294.8465,295.8439,0,1,1,1,1,0,sí,REAL,FAKE,,,,,,,,,,,,,,,,,,,,,,,,,,,,,,,,
,,,,,,,,,6290baefc1820d33bb4afed4,Puerto Rican,younger than 13,"no, only English or Spanish",yes,2025-08-13_17h57.10.659,empathy_intonation_perc_control,2024.2.4,Linux x86_64,60.00960154,6290baefc1820d33bb4afed4,68817205a84113384fffdfe3,689d09ff7152de4e96a8dfd9,,,,,,,,,,,,,0,,,,,,,,,,,,,,,,,,,,,,,,295.8467,297.8295,0,1,1.4523,,297.8297,298.8276,0,2,2,2,1,0,coné,REAL,FAKE,,,,,,,,,,,,,,,,,,,,,,,,,,,,,,,,
,,,,,,,,,6290baefc1820d33bb4afed4,Puerto Rican,younger than 13,"no, only English or Spanish",yes,2025-08-13_17h57.10.659,empathy_intonation_perc_control,2024.2.4,Linux x86_64,60.00960154,6290baefc1820d33bb4afed4,68817205a84113384fffdfe3,689d09ff7152de4e96a8dfd9,,,,,,,,,,,,,0,,,,,,,,,,,,,,,,,,,,,,,,298.852,300.4722,1,0,1.0929,,300.4742,301.463,0,3,3,3,1,0,calpar,REAL,FAKE,,,,,,,,,,,,,,,,,,,,,,,,,,,,,,,,
,,,,,,,,,6290baefc1820d33bb4afed4,Puerto Rican,younger than 13,"no, only English or Spanish",yes,2025-08-13_17h57.10.659,empathy_intonation_perc_control,2024.2.4,Linux x86_64,60.00960154,6290baefc1820d33bb4afed4,68817205a84113384fffdfe3,689d09ff7152de4e96a8dfd9,,,,,,,,,,,,,0,,,,,,,,,,,,,,,,,,,,,,,,301.4668,303.1989,0,1,1.2033,,303.2001,304.1952,0,4,4,4,1,0,joten,REAL,FAKE,,,,,,,,,,,,,,,,,,,,,,,,,,,,,,,,
,,,,,,,,,6290baefc1820d33bb4afed4,Puerto Rican,younger than 13,"no, only English or Spanish",yes,2025-08-13_17h57.10.659,empathy_intonation_perc_control,2024.2.4,Linux x86_64,60.00960154,6290baefc1820d33bb4afed4,68817205a84113384fffdfe3,689d09ff7152de4e96a8dfd9,,,,,,,,,,,,,1,,,,,,,,,,,,,,,,,,,,,,,,304.1997,305.9778,1,1,1.2629,,305.9779,306.9782,0,5,5,5,1,0,sacapuntas,REAL,FAKE,,,,,,,,,,,,,,,,,,,,,,,,,,,,,,,,
,,,,,,,,,6290baefc1820d33bb4afed4,Puerto Rican,younger than 13,"no, only English or Spanish",yes,2025-08-13_17h57.10.659,empathy_intonation_perc_control,2024.2.4,Linux x86_64,60.00960154,6290baefc1820d33bb4afed4,68817205a84113384fffdfe3,689d09ff7152de4e96a8dfd9,,,,,,,,,,,,,0,,,,,,,,,,,,,,,,,,,,,,,,307.0028,308.5146,1,0,0.985,,308.5163,309.5092,0,6,6,6,1,0,priba,REAL,FAKE,,,,,,,,,,,,,,,,,,,,,,,,,,,,,,,,
,,,,,,,,,6290baefc1820d33bb4afed4,Puerto Rican,younger than 13,"no, only English or Spanish",yes,2025-08-13_17h57.10.659,empathy_intonation_perc_control,2024.2.4,Linux x86_64,60.00960154,6290baefc1820d33bb4afed4,68817205a84113384fffdfe3,689d09ff7152de4e96a8dfd9,,,,,,,,,,,,,0,,,,,,,,,,,,,,,,,,,,,,,,309.5129,311.0518,1,0,1.0229,,311.0524,312.0426,0,7,7,7,1,0,pelasula,REAL,FAKE,,,,,,,,,,,,,,,,,,,,,,,,,,,,,,,,
,,,,,,,,,6290baefc1820d33bb4afed4,Puerto Rican,younger than 13,"no, only English or Spanish",yes,2025-08-13_17h57.10.659,empathy_intonation_perc_control,2024.2.4,Linux x86_64,60.00960154,6290baefc1820d33bb4afed4,68817205a84113384fffdfe3,689d09ff7152de4e96a8dfd9,,,,,,,,,,,,,1,,,,,,,,,,,,,,,,,,,,,,,,312.0448,313.3607,1,1,0.7865,,313.3621,314.3619,0,8,8,8,1,0,bien,REAL,FAKE,,,,,,,,,,,,,,,,,,,,,,,,,,,,,,,,
,,,,,,,,,6290baefc1820d33bb4afed4,Puerto Rican,younger than 13,"no, only English or Spanish",yes,2025-08-13_17h57.10.659,empathy_intonation_perc_control,2024.2.4,Linux x86_64,60.00960154,6290baefc1820d33bb4afed4,68817205a84113384fffdfe3,689d09ff7152de4e96a8dfd9,,,,,,,,,,,,,1,,,,,,,,,,,,,,,,,,,,,,,,314.3647,315.7004,1,1,0.8069,,315.7005,316.6946,0,9,9,9,1,0,casa,REAL,FAKE,,,,,,,,,,,,,,,,,,,,,,,,,,,,,,,,
,,,,,,,,,6290baefc1820d33bb4afed4,Puerto Rican,younger than 13,"no, only English or Spanish",yes,2025-08-13_17h57.10.659,empathy_intonation_perc_control,2024.2.4,Linux x86_64,60.00960154,6290baefc1820d33bb4afed4,68817205a84113384fffdfe3,689d09ff7152de4e96a8dfd9,,,,,,,,,,,,,0,,,,,,,,,,,,,,,,,,,,,,,,316.7194,318.1971,0,1,0.9566,,318.1972,319.1945,0,10,10,10,1,0,lejo,REAL,FAKE,,,,,,,,,,,,,,,,,,,,,,,,,,,,,,,,
,,,,,,,,,6290baefc1820d33bb4afed4,Puerto Rican,younger than 13,"no, only English or Spanish",yes,2025-08-13_17h57.10.659,empathy_intonation_perc_control,2024.2.4,Linux x86_64,60.00960154,6290baefc1820d33bb4afed4,68817205a84113384fffdfe3,689d09ff7152de4e96a8dfd9,,,,,,,,,,,,,0,,,,,,,,,,,,,,,,,,,,,,,,319.1985,320.63,1,0,0.9016,,320.6322,321.6317,0,11,11,11,1,0,pretantas,REAL,FAKE,,,,,,,,,,,,,,,,,,,,,,,,,,,,,,,,
,,,,,,,,,6290baefc1820d33bb4afed4,Puerto Rican,younger than 13,"no, only English or Spanish",yes,2025-08-13_17h57.10.659,empathy_intonation_perc_control,2024.2.4,Linux x86_64,60.00960154,6290baefc1820d33bb4afed4,68817205a84113384fffdfe3,689d09ff7152de4e96a8dfd9,,,,,,,,,,,,,,,,,,,,,,,,,,,,,,,,,,,,,,,,,,,,,,,,,,,,,,321.6342,322.609,,,,,,,,,,,,,,,,,,,,,,,,,,,,,,
,,,,,,,,,6290baefc1820d33bb4afed4,Puerto Rican,younger than 13,"no, only English or Spanish",yes,2025-08-13_17h57.10.659,empathy_intonation_perc_control,2024.2.4,Linux x86_64,60.00960154,6290baefc1820d33bb4afed4,68817205a84113384fffdfe3,689d09ff7152de4e96a8dfd9,,,,,,,,,,,,,1,,,,,,,,,,,,,,,,,,,,,,,,,,,,,,,,,,,,,85,laúd,,,,,322.663,324.5474,1,1,1.3605,,0,0,0,84,1,REAL,FAKE,,,,,,,,,,,,,,,,,
,,,,,,,,,6290baefc1820d33bb4afed4,Puerto Rican,younger than 13,"no, only English or Spanish",yes,2025-08-13_17h57.10.659,empathy_intonation_perc_control,2024.2.4,Linux x86_64,60.00960154,6290baefc1820d33bb4afed4,68817205a84113384fffdfe3,689d09ff7152de4e96a8dfd9,,,,,,,,,,,,,0,,,,,,,,,,,,,,,,,,,,,,,,,,,,,,,,,,,,,63,esposante,,,,,324.5512,327.3127,0,1,2.2314,,0,1,1,62,1,REAL,FAKE,,,,,,,,,,,,,,,,,
,,,,,,,,,6290baefc1820d33bb4afed4,Puerto Rican,younger than 13,"no, only English or Spanish",yes,2025-08-13_17h57.10.659,empathy_intonation_perc_control,2024.2.4,Linux x86_64,60.00960154,6290baefc1820d33bb4afed4,68817205a84113384fffdfe3,689d09ff7152de4e96a8dfd9,,,,,,,,,,,,,0,,,,,,,,,,,,,,,,,,,,,,,,,,,,,,,,,,,,,1,terzo,,,,,327.335,328.8787,0,1,1.019,,0,2,2,0,1,REAL,FAKE,,,,,,,,,,,,,,,,,
,,,,,,,,,6290baefc1820d33bb4afed4,Puerto Rican,younger than 13,"no, only English or Spanish",yes,2025-08-13_17h57.10.659,empathy_intonation_perc_control,2024.2.4,Linux x86_64,60.00960154,6290baefc1820d33bb4afed4,68817205a84113384fffdfe3,689d09ff7152de4e96a8dfd9,,,,,,,,,,,,,1,,,,,,,,,,,,,,,,,,,,,,,,,,,,,,,,,,,,,2,pellizcar,,,,,328.8812,330.6119,0,0,1.2155,,0,3,3,1,1,REAL,FAKE,,,,,,,,,,,,,,,,,
,,,,,,,,,6290baefc1820d33bb4afed4,Puerto Rican,younger than 13,"no, only English or Spanish",yes,2025-08-13_17h57.10.659,empathy_intonation_perc_control,2024.2.4,Linux x86_64,60.00960154,6290baefc1820d33bb4afed4,68817205a84113384fffdfe3,689d09ff7152de4e96a8dfd9,,,,,,,,,,,,,0,,,,,,,,,,,,,,,,,,,,,,,,,,,,,,,,,,,,,50,flamida,,,,,330.6151,332.1114,1,0,0.9673,,0,4,4,49,1,REAL,FAKE,,,,,,,,,,,,,,,,,
,,,,,,,,,6290baefc1820d33bb4afed4,Puerto Rican,younger than 13,"no, only English or Spanish",yes,2025-08-13_17h57.10.659,empathy_intonation_perc_control,2024.2.4,Linux x86_64,60.00960154,6290baefc1820d33bb4afed4,68817205a84113384fffdfe3,689d09ff7152de4e96a8dfd9,,,,,,,,,,,,,0,,,,,,,,,,,,,,,,,,,,,,,,,,,,,,,,,,,,,33,pauca,,,,,332.1136,334.1118,0,1,1.4705,,0,5,5,32,1,REAL,FAKE,,,,,,,,,,,,,,,,,
,,,,,,,,,6290baefc1820d33bb4afed4,Puerto Rican,younger than 13,"no, only English or Spanish",yes,2025-08-13_17h57.10.659,empathy_intonation_perc_control,2024.2.4,Linux x86_64,60.00960154,6290baefc1820d33bb4afed4,68817205a84113384fffdfe3,689d09ff7152de4e96a8dfd9,,,,,,,,,,,,,1,,,,,,,,,,,,,,,,,,,,,,,,,,,,,,,,,,,,,14,yunque,,,,,334.1142,335.5261,1,1,0.886,,0,6,6,13,1,REAL,FAKE,,,,,,,,,,,,,,,,,
,,,,,,,,,6290baefc1820d33bb4afed4,Puerto Rican,younger than 13,"no, only English or Spanish",yes,2025-08-13_17h57.10.659,empathy_intonation_perc_control,2024.2.4,Linux x86_64,60.00960154,6290baefc1820d33bb4afed4,68817205a84113384fffdfe3,689d09ff7152de4e96a8dfd9,,,,,,,,,,,,,1,,,,,,,,,,,,,,,,,,,,,,,,,,,,,,,,,,,,,36,loro,,,,,335.5291,337.7751,0,0,1.7145,,0,7,7,35,1,REAL,FAKE,,,,,,,,,,,,,,,,,
,,,,,,,,,6290baefc1820d33bb4afed4,Puerto Rican,younger than 13,"no, only English or Spanish",yes,2025-08-13_17h57.10.659,empathy_intonation_perc_control,2024.2.4,Linux x86_64,60.00960154,6290baefc1820d33bb4afed4,68817205a84113384fffdfe3,689d09ff7152de4e96a8dfd9,,,,,,,,,,,,,0,,,,,,,,,,,,,,,,,,,,,,,,,,,,,,,,,,,,,29,decar,,,,,337.7779,339.093,1,0,0.7843,,0,8,8,28,1,REAL,FAKE,,,,,,,,,,,,,,,,,
,,,,,,,,,6290baefc1820d33bb4afed4,Puerto Rican,younger than 13,"no, only English or Spanish",yes,2025-08-13_17h57.10.659,empathy_intonation_perc_control,2024.2.4,Linux x86_64,60.00960154,6290baefc1820d33bb4afed4,68817205a84113384fffdfe3,689d09ff7152de4e96a8dfd9,,,,,,,,,,,,,1,,,,,,,,,,,,,,,,,,,,,,,,,,,,,,,,,,,,,55,nevar,,,,,339.0961,340.642,1,1,1.0205,,0,9,9,54,1,REAL,FAKE,,,,,,,,,,,,,,,,,
,,,,,,,,,6290baefc1820d33bb4afed4,Puerto Rican,younger than 13,"no, only English or Spanish",yes,2025-08-13_17h57.10.659,empathy_intonation_perc_control,2024.2.4,Linux x86_64,60.00960154,6290baefc1820d33bb4afed4,68817205a84113384fffdfe3,689d09ff7152de4e96a8dfd9,,,,,,,,,,,,,1,,,,,,,,,,,,,,,,,,,,,,,,,,,,,,,,,,,,,73,hervidor,,,,,340.6447,342.2247,1,1,1.0525,,0,10,10,72,1,REAL,FAKE,,,,,,,,,,,,,,,,,
,,,,,,,,,6290baefc1820d33bb4afed4,Puerto Rican,younger than 13,"no, only English or Spanish",yes,2025-08-13_17h57.10.659,empathy_intonation_perc_control,2024.2.4,Linux x86_64,60.00960154,6290baefc1820d33bb4afed4,68817205a84113384fffdfe3,689d09ff7152de4e96a8dfd9,,,,,,,,,,,,,1,,,,,,,,,,,,,,,,,,,,,,,,,,,,,,,,,,,,,91,click the 1 key.,,,,,342.2288,344.1456,1,1,1.3887,,0,11,11,90,1,REAL,FAKE,,,,,,,,,,,,,,,,,
,,,,,,,,,6290baefc1820d33bb4afed4,Puerto Rican,younger than 13,"no, only English or Spanish",yes,2025-08-13_17h57.10.659,empathy_intonation_perc_control,2024.2.4,Linux x86_64,60.00960154,6290baefc1820d33bb4afed4,68817205a84113384fffdfe3,689d09ff7152de4e96a8dfd9,,,,,,,,,,,,,1,,,,,,,,,,,,,,,,,,,,,,,,,,,,,,,,,,,,,5,zapato,,,,,344.1481,345.7762,1,1,1.1035,,0,12,12,4,1,REAL,FAKE,,,,,,,,,,,,,,,,,
,,,,,,,,,6290baefc1820d33bb4afed4,Puerto Rican,younger than 13,"no, only English or Spanish",yes,2025-08-13_17h57.10.659,empathy_intonation_perc_control,2024.2.4,Linux x86_64,60.00960154,6290baefc1820d33bb4afed4,68817205a84113384fffdfe3,689d09ff7152de4e96a8dfd9,,,,,,,,,,,,,0,,,,,,,,,,,,,,,,,,,,,,,,,,,,,,,,,,,,,74,cintro,,,,,345.779,347.3121,0,1,1.0031,,0,13,13,73,1,REAL,FAKE,,,,,,,,,,,,,,,,,
,,,,,,,,,6290baefc1820d33bb4afed4,Puerto Rican,younger than 13,"no, only English or Spanish",yes,2025-08-13_17h57.10.659,empathy_intonation_perc_control,2024.2.4,Linux x86_64,60.00960154,6290baefc1820d33bb4afed4,68817205a84113384fffdfe3,689d09ff7152de4e96a8dfd9,,,,,,,,,,,,,0,,,,,,,,,,,,,,,,,,,,,,,,,,,,,,,,,,,,,72,pemición,,,,,347.3147,348.8414,0,1,0.9968,,0,14,14,71,1,REAL,FAKE,,,,,,,,,,,,,,,,,
,,,,,,,,,6290baefc1820d33bb4afed4,Puerto Rican,younger than 13,"no, only English or Spanish",yes,2025-08-13_17h57.10.659,empathy_intonation_perc_control,2024.2.4,Linux x86_64,60.00960154,6290baefc1820d33bb4afed4,68817205a84113384fffdfe3,689d09ff7152de4e96a8dfd9,,,,,,,,,,,,,0,,,,,,,,,,,,,,,,,,,,,,,,,,,,,,,,,,,,,53,vegada,,,,,348.8439,350.8853,0,1,1.5116,,0,15,15,52,1,REAL,FAKE,,,,,,,,,,,,,,,,,
,,,,,,,,,6290baefc1820d33bb4afed4,Puerto Rican,younger than 13,"no, only English or Spanish",yes,2025-08-13_17h57.10.659,empathy_intonation_perc_control,2024.2.4,Linux x86_64,60.00960154,6290baefc1820d33bb4afed4,68817205a84113384fffdfe3,689d09ff7152de4e96a8dfd9,,,,,,,,,,,,,1,,,,,,,,,,,,,,,,,,,,,,,,,,,,,,,,,,,,,22,lacayo,,,,,350.8886,352.2367,1,1,0.8278,,0,16,16,21,1,REAL,FAKE,,,,,,,,,,,,,,,,,
,,,,,,,,,6290baefc1820d33bb4afed4,Puerto Rican,younger than 13,"no, only English or Spanish",yes,2025-08-13_17h57.10.659,empathy_intonation_perc_control,2024.2.4,Linux x86_64,60.00960154,6290baefc1820d33bb4afed4,68817205a84113384fffdfe3,689d09ff7152de4e96a8dfd9,,,,,,,,,,,,,1,,,,,,,,,,,,,,,,,,,,,,,,,,,,,,,,,,,,,77,tiburón,,,,,352.2436,353.8235,1,1,1.0558,,0,17,17,76,1,REAL,FAKE,,,,,,,,,,,,,,,,,
,,,,,,,,,6290baefc1820d33bb4afed4,Puerto Rican,younger than 13,"no, only English or Spanish",yes,2025-08-13_17h57.10.659,empathy_intonation_perc_control,2024.2.4,Linux x86_64,60.00960154,6290baefc1820d33bb4afed4,68817205a84113384fffdfe3,689d09ff7152de4e96a8dfd9,,,,,,,,,,,,,1,,,,,,,,,,,,,,,,,,,,,,,,,,,,,,,,,,,,,9,hacha,,,,,353.8254,355.3739,1,1,1.0335,,0,18,18,8,1,REAL,FAKE,,,,,,,,,,,,,,,,,
,,,,,,,,,6290baefc1820d33bb4afed4,Puerto Rican,younger than 13,"no, only English or Spanish",yes,2025-08-13_17h57.10.659,empathy_intonation_perc_control,2024.2.4,Linux x86_64,60.00960154,6290baefc1820d33bb4afed4,68817205a84113384fffdfe3,689d09ff7152de4e96a8dfd9,,,,,,,,,,,,,1,,,,,,,,,,,,,,,,,,,,,,,,,,,,,,,,,,,,,75,yacer,,,,,355.3768,356.8903,1,1,0.983,,0,19,19,74,1,REAL,FAKE,,,,,,,,,,,,,,,,,
,,,,,,,,,6290baefc1820d33bb4afed4,Puerto Rican,younger than 13,"no, only English or Spanish",yes,2025-08-13_17h57.10.659,empathy_intonation_perc_control,2024.2.4,Linux x86_64,60.00960154,6290baefc1820d33bb4afed4,68817205a84113384fffdfe3,689d09ff7152de4e96a8dfd9,,,,,,,,,,,,,1,,,,,,,,,,,,,,,,,,,,,,,,,,,,,,,,,,,,,78,frondoso,,,,,356.8924,358.1086,0,0,0.6838,,0,20,20,77,1,REAL,FAKE,,,,,,,,,,,,,,,,,
,,,,,,,,,6290baefc1820d33bb4afed4,Puerto Rican,younger than 13,"no, only English or Spanish",yes,2025-08-13_17h57.10.659,empathy_intonation_perc_control,2024.2.4,Linux x86_64,60.00960154,6290baefc1820d33bb4afed4,68817205a84113384fffdfe3,689d09ff7152de4e96a8dfd9,,,,,,,,,,,,,1,,,,,,,,,,,,,,,,,,,,,,,,,,,,,,,,,,,,,45,jilguero,,,,,358.1115,359.6764,0,0,1.037,,0,21,21,44,1,REAL,FAKE,,,,,,,,,,,,,,,,,
,,,,,,,,,6290baefc1820d33bb4afed4,Puerto Rican,younger than 13,"no, only English or Spanish",yes,2025-08-13_17h57.10.659,empathy_intonation_perc_control,2024.2.4,Linux x86_64,60.00960154,6290baefc1820d33bb4afed4,68817205a84113384fffdfe3,689d09ff7152de4e96a8dfd9,,,,,,,,,,,,,1,,,,,,,,,,,,,,,,,,,,,,,,,,,,,,,,,,,,,83,guante,,,,,359.6791,361.7759,1,1,1.5669,,0,22,22,82,1,REAL,FAKE,,,,,,,,,,,,,,,,,
,,,,,,,,,6290baefc1820d33bb4afed4,Puerto Rican,younger than 13,"no, only English or Spanish",yes,2025-08-13_17h57.10.659,empathy_intonation_perc_control,2024.2.4,Linux x86_64,60.00960154,6290baefc1820d33bb4afed4,68817205a84113384fffdfe3,689d09ff7152de4e96a8dfd9,,,,,,,,,,,,,1,,,,,,,,,,,,,,,,,,,,,,,,,,,,,,,,,,,,,64,orgulloso,,,,,361.779,363.2572,0,0,0.9494,,0,23,23,63,1,REAL,FAKE,,,,,,,,,,,,,,,,,
,,,,,,,,,6290baefc1820d33bb4afed4,Puerto Rican,younger than 13,"no, only English or Spanish",yes,2025-08-13_17h57.10.659,empathy_intonation_perc_control,2024.2.4,Linux x86_64,60.00960154,6290baefc1820d33bb4afed4,68817205a84113384fffdfe3,689d09ff7152de4e96a8dfd9,,,,,,,,,,,,,1,,,,,,,,,,,,,,,,,,,,,,,,,,,,,,,,,,,,,52,camisa,,,,,363.2598,364.3578,1,1,0.583,,0,24,24,51,1,REAL,FAKE,,,,,,,,,,,,,,,,,
,,,,,,,,,6290baefc1820d33bb4afed4,Puerto Rican,younger than 13,"no, only English or Spanish",yes,2025-08-13_17h57.10.659,empathy_intonation_perc_control,2024.2.4,Linux x86_64,60.00960154,6290baefc1820d33bb4afed4,68817205a84113384fffdfe3,689d09ff7152de4e96a8dfd9,,,,,,,,,,,,,0,,,,,,,,,,,,,,,,,,,,,,,,,,,,,,,,,,,,,32,fatacidad,,,,,364.3617,366.2575,0,1,1.3688,,0,25,25,31,1,REAL,FAKE,,,,,,,,,,,,,,,,,
,,,,,,,,,6290baefc1820d33bb4afed4,Puerto Rican,younger than 13,"no, only English or Spanish",yes,2025-08-13_17h57.10.659,empathy_intonation_perc_control,2024.2.4,Linux x86_64,60.00960154,6290baefc1820d33bb4afed4,68817205a84113384fffdfe3,689d09ff7152de4e96a8dfd9,,,,,,,,,,,,,1,,,,,,,,,,,,,,,,,,,,,,,,,,,,,,,,,,,,,41,rebuscar,,,,,366.261,367.6405,1,1,0.8511,,0,26,26,40,1,REAL,FAKE,,,,,,,,,,,,,,,,,
,,,,,,,,,6290baefc1820d33bb4afed4,Puerto Rican,younger than 13,"no, only English or Spanish",yes,2025-08-13_17h57.10.659,empathy_intonation_perc_control,2024.2.4,Linux x86_64,60.00960154,6290baefc1820d33bb4afed4,68817205a84113384fffdfe3,689d09ff7152de4e96a8dfd9,,,,,,,,,,,,,1,,,,,,,,,,,,,,,,,,,,,,,,,,,,,,,,,,,,,48,ladrón,,,,,367.643,368.7786,1,1,0.6192,,0,27,27,47,1,REAL,FAKE,,,,,,,,,,,,,,,,,
,,,,,,,,,6290baefc1820d33bb4afed4,Puerto Rican,younger than 13,"no, only English or Spanish",yes,2025-08-13_17h57.10.659,empathy_intonation_perc_control,2024.2.4,Linux x86_64,60.00960154,6290baefc1820d33bb4afed4,68817205a84113384fffdfe3,689d09ff7152de4e96a8dfd9,,,,,,,,,,,,,1,,,,,,,,,,,,,,,,,,,,,,,,,,,,,,,,,,,,,3,pulmones,,,,,368.7809,370.4413,1,1,1.1383,,0,28,28,2,1,REAL,FAKE,,,,,,,,,,,,,,,,,
,,,,,,,,,6290baefc1820d33bb4afed4,Puerto Rican,younger than 13,"no, only English or Spanish",yes,2025-08-13_17h57.10.659,empathy_intonation_perc_control,2024.2.4,Linux x86_64,60.00960154,6290baefc1820d33bb4afed4,68817205a84113384fffdfe3,689d09ff7152de4e96a8dfd9,,,,,,,,,,,,,1,,,,,,,,,,,,,,,,,,,,,,,,,,,,,,,,,,,,,7,pésimo,,,,,370.4436,371.8916,0,0,0.9202,,0,29,29,6,1,REAL,FAKE,,,,,,,,,,,,,,,,,
,,,,,,,,,6290baefc1820d33bb4afed4,Puerto Rican,younger than 13,"no, only English or Spanish",yes,2025-08-13_17h57.10.659,empathy_intonation_perc_control,2024.2.4,Linux x86_64,60.00960154,6290baefc1820d33bb4afed4,68817205a84113384fffdfe3,689d09ff7152de4e96a8dfd9,,,,,,,,,,,,,1,,,,,,,,,,,,,,,,,,,,,,,,,,,,,,,,,,,,,49,ganar,,,,,371.8944,373.5065,1,1,1.0828,,0,30,30,48,1,REAL,FAKE,,,,,,,,,,,,,,,,,
,,,,,,,,,6290baefc1820d33bb4afed4,Puerto Rican,younger than 13,"no, only English or Spanish",yes,2025-08-13_17h57.10.659,empathy_intonation_perc_control,2024.2.4,Linux x86_64,60.00960154,6290baefc1820d33bb4afed4,68817205a84113384fffdfe3,689d09ff7152de4e96a8dfd9,,,,,,,,,,,,,1,,,,,,,,,,,,,,,,,,,,,,,,,,,,,,,,,,,,,25,bisagra,,,,,373.5094,375.1097,0,0,1.0702,,0,31,31,24,1,REAL,FAKE,,,,,,,,,,,,,,,,,
,,,,,,,,,6290baefc1820d33bb4afed4,Puerto Rican,younger than 13,"no, only English or Spanish",yes,2025-08-13_17h57.10.659,empathy_intonation_perc_control,2024.2.4,Linux x86_64,60.00960154,6290baefc1820d33bb4afed4,68817205a84113384fffdfe3,689d09ff7152de4e96a8dfd9,,,,,,,,,,,,,1,,,,,,,,,,,,,,,,,,,,,,,,,,,,,,,,,,,,,80,hormiga,,,,,375.1132,376.7579,0,0,1.1131,,0,32,32,79,1,REAL,FAKE,,,,,,,,,,,,,,,,,
,,,,,,,,,6290baefc1820d33bb4afed4,Puerto Rican,younger than 13,"no, only English or Spanish",yes,2025-08-13_17h57.10.659,empathy_intonation_perc_control,2024.2.4,Linux x86_64,60.00960154,6290baefc1820d33bb4afed4,68817205a84113384fffdfe3,689d09ff7152de4e96a8dfd9,,,,,,,,,,,,,0,,,,,,,,,,,,,,,,,,,,,,,,,,,,,,,,,,,,,19,brecedad,,,,,376.7605,378.2272,0,1,0.9382,,0,33,33,18,1,REAL,FAKE,,,,,,,,,,,,,,,,,
,,,,,,,,,6290baefc1820d33bb4afed4,Puerto Rican,younger than 13,"no, only English or Spanish",yes,2025-08-13_17h57.10.659,empathy_intonation_perc_control,2024.2.4,Linux x86_64,60.00960154,6290baefc1820d33bb4afed4,68817205a84113384fffdfe3,689d09ff7152de4e96a8dfd9,,,,,,,,,,,,,0,,,,,,,,,,,,,,,,,,,,,,,,,,,,,,,,,,,,,18,arsa,,,,,378.2314,379.6455,0,1,0.8934,,0,34,34,17,1,REAL,FAKE,,,,,,,,,,,,,,,,,
,,,,,,,,,6290baefc1820d33bb4afed4,Puerto Rican,younger than 13,"no, only English or Spanish",yes,2025-08-13_17h57.10.659,empathy_intonation_perc_control,2024.2.4,Linux x86_64,60.00960154,6290baefc1820d33bb4afed4,68817205a84113384fffdfe3,689d09ff7152de4e96a8dfd9,,,,,,,,,,,,,0,,,,,,,,,,,,,,,,,,,,,,,,,,,,,,,,,,,,,66,hacido,,,,,379.6497,381.1124,1,0,0.9367,,0,35,35,65,1,REAL,FAKE,,,,,,,,,,,,,,,,,
,,,,,,,,,6290baefc1820d33bb4afed4,Puerto Rican,younger than 13,"no, only English or Spanish",yes,2025-08-13_17h57.10.659,empathy_intonation_perc_control,2024.2.4,Linux x86_64,60.00960154,6290baefc1820d33bb4afed4,68817205a84113384fffdfe3,689d09ff7152de4e96a8dfd9,,,,,,,,,,,,,1,,,,,,,,,,,,,,,,,,,,,,,,,,,,,,,,,,,,,56,musgo,,,,,381.1158,382.391,0,0,0.7502,,0,36,36,55,1,REAL,FAKE,,,,,,,,,,,,,,,,,
,,,,,,,,,6290baefc1820d33bb4afed4,Puerto Rican,younger than 13,"no, only English or Spanish",yes,2025-08-13_17h57.10.659,empathy_intonation_perc_control,2024.2.4,Linux x86_64,60.00960154,6290baefc1820d33bb4afed4,68817205a84113384fffdfe3,689d09ff7152de4e96a8dfd9,,,,,,,,,,,,,1,,,,,,,,,,,,,,,,,,,,,,,,,,,,,,,,,,,,,86,barato,,,,,382.393,384.0289,1,1,1.1242,,0,37,37,85,1,REAL,FAKE,,,,,,,,,,,,,,,,,
,,,,,,,,,6290baefc1820d33bb4afed4,Puerto Rican,younger than 13,"no, only English or Spanish",yes,2025-08-13_17h57.10.659,empathy_intonation_perc_control,2024.2.4,Linux x86_64,60.00960154,6290baefc1820d33bb4afed4,68817205a84113384fffdfe3,689d09ff7152de4e96a8dfd9,,,,,,,,,,,,,0,,,,,,,,,,,,,,,,,,,,,,,,,,,,,,,,,,,,,82,empirador,,,,,384.032,387.1466,0,1,2.5872,,0,38,38,81,1,REAL,FAKE,,,,,,,,,,,,,,,,,
,,,,,,,,,6290baefc1820d33bb4afed4,Puerto Rican,younger than 13,"no, only English or Spanish",yes,2025-08-13_17h57.10.659,empathy_intonation_perc_control,2024.2.4,Linux x86_64,60.00960154,6290baefc1820d33bb4afed4,68817205a84113384fffdfe3,689d09ff7152de4e96a8dfd9,,,,,,,,,,,,,1,,,,,,,,,,,,,,,,,,,,,,,,,,,,,,,,,,,,,39,torpe,,,,,387.1727,388.5264,0,0,0.829,,0,39,39,38,1,REAL,FAKE,,,,,,,,,,,,,,,,,
,,,,,,,,,6290baefc1820d33bb4afed4,Puerto Rican,younger than 13,"no, only English or Spanish",yes,2025-08-13_17h57.10.659,empathy_intonation_perc_control,2024.2.4,Linux x86_64,60.00960154,6290baefc1820d33bb4afed4,68817205a84113384fffdfe3,689d09ff7152de4e96a8dfd9,,,,,,,,,,,,,1,,,,,,,,,,,,,,,,,,,,,,,,,,,,,,,,,,,,,65,bizcocho,,,,,388.5302,389.7775,0,0,0.7178,,0,40,40,64,1,REAL,FAKE,,,,,,,,,,,,,,,,,
,,,,,,,,,6290baefc1820d33bb4afed4,Puerto Rican,younger than 13,"no, only English or Spanish",yes,2025-08-13_17h57.10.659,empathy_intonation_perc_control,2024.2.4,Linux x86_64,60.00960154,6290baefc1820d33bb4afed4,68817205a84113384fffdfe3,689d09ff7152de4e96a8dfd9,,,,,,,,,,,,,0,,,,,,,,,,,,,,,,,,,,,,,,,,,,,,,,,,,,,70,temblo,,,,,389.7808,390.9552,0,1,0.6408,,0,41,41,69,1,REAL,FAKE,,,,,,,,,,,,,,,,,
,,,,,,,,,6290baefc1820d33bb4afed4,Puerto Rican,younger than 13,"no, only English or Spanish",yes,2025-08-13_17h57.10.659,empathy_intonation_perc_control,2024.2.4,Linux x86_64,60.00960154,6290baefc1820d33bb4afed4,68817205a84113384fffdfe3,689d09ff7152de4e96a8dfd9,,,,,,,,,,,,,1,,,,,,,,,,,,,,,,,,,,,,,,,,,,,,,,,,,,,34,aviso,,,,,390.9585,392.1571,1,1,0.6851,,0,42,42,33,1,REAL,FAKE,,,,,,,,,,,,,,,,,
,,,,,,,,,6290baefc1820d33bb4afed4,Puerto Rican,younger than 13,"no, only English or Spanish",yes,2025-08-13_17h57.10.659,empathy_intonation_perc_control,2024.2.4,Linux x86_64,60.00960154,6290baefc1820d33bb4afed4,68817205a84113384fffdfe3,689d09ff7152de4e96a8dfd9,,,,,,,,,,,,,1,,,,,,,,,,,,,,,,,,,,,,,,,,,,,,,,,,,,,81,pozo,,,,,392.1595,394.1664,0,0,1.4909,,0,43,43,80,1,REAL,FAKE,,,,,,,,,,,,,,,,,
,,,,,,,,,6290baefc1820d33bb4afed4,Puerto Rican,younger than 13,"no, only English or Spanish",yes,2025-08-13_17h57.10.659,empathy_intonation_perc_control,2024.2.4,Linux x86_64,60.00960154,6290baefc1820d33bb4afed4,68817205a84113384fffdfe3,689d09ff7152de4e96a8dfd9,,,,,,,,,,,,,0,,,,,,,,,,,,,,,,,,,,,,,,,,,,,,,,,,,,,47,cartinar,,,,,394.1696,396.2427,1,0,1.5488,,0,44,44,46,1,REAL,FAKE,,,,,,,,,,,,,,,,,
,,,,,,,,,6290baefc1820d33bb4afed4,Puerto Rican,younger than 13,"no, only English or Spanish",yes,2025-08-13_17h57.10.659,empathy_intonation_perc_control,2024.2.4,Linux x86_64,60.00960154,6290baefc1820d33bb4afed4,68817205a84113384fffdfe3,689d09ff7152de4e96a8dfd9,,,,,,,,,,,,,0,,,,,,,,,,,,,,,,,,,,,,,,,,,,,,,,,,,,,79,tropaje,,,,,396.2457,397.5939,0,1,0.8211,,0,45,45,78,1,REAL,FAKE,,,,,,,,,,,,,,,,,
,,,,,,,,,6290baefc1820d33bb4afed4,Puerto Rican,younger than 13,"no, only English or Spanish",yes,2025-08-13_17h57.10.659,empathy_intonation_perc_control,2024.2.4,Linux x86_64,60.00960154,6290baefc1820d33bb4afed4,68817205a84113384fffdfe3,689d09ff7152de4e96a8dfd9,,,,,,,,,,,,,1,,,,,,,,,,,,,,,,,,,,,,,,,,,,,,,,,,,,,20,ávido,,,,,397.5971,398.7717,1,1,0.6474,,0,46,46,19,1,REAL,FAKE,,,,,,,,,,,,,,,,,
,,,,,,,,,6290baefc1820d33bb4afed4,Puerto Rican,younger than 13,"no, only English or Spanish",yes,2025-08-13_17h57.10.659,empathy_intonation_perc_control,2024.2.4,Linux x86_64,60.00960154,6290baefc1820d33bb4afed4,68817205a84113384fffdfe3,689d09ff7152de4e96a8dfd9,,,,,,,,,,,,,1,,,,,,,,,,,,,,,,,,,,,,,,,,,,,,,,,,,,,62,flaco,,,,,398.7751,399.8927,0,0,0.6006,,0,47,47,61,1,REAL,FAKE,,,,,,,,,,,,,,,,,
,,,,,,,,,6290baefc1820d33bb4afed4,Puerto Rican,younger than 13,"no, only English or Spanish",yes,2025-08-13_17h57.10.659,empathy_intonation_perc_control,2024.2.4,Linux x86_64,60.00960154,6290baefc1820d33bb4afed4,68817205a84113384fffdfe3,689d09ff7152de4e96a8dfd9,,,,,,,,,,,,,0,,,,,,,,,,,,,,,,,,,,,,,,,,,,,,,,,,,,,42,cadallo,,,,,399.8964,401.3251,0,1,0.9016,,0,48,48,41,1,REAL,FAKE,,,,,,,,,,,,,,,,,
,,,,,,,,,6290baefc1820d33bb4afed4,Puerto Rican,younger than 13,"no, only English or Spanish",yes,2025-08-13_17h57.10.659,empathy_intonation_perc_control,2024.2.4,Linux x86_64,60.00960154,6290baefc1820d33bb4afed4,68817205a84113384fffdfe3,689d09ff7152de4e96a8dfd9,,,,,,,,,,,,,1,,,,,,,,,,,,,,,,,,,,,,,,,,,,,,,,,,,,,89,prisa,,,,,401.3276,402.8412,0,0,0.982,,0,49,49,88,1,REAL,FAKE,,,,,,,,,,,,,,,,,
,,,,,,,,,6290baefc1820d33bb4afed4,Puerto Rican,younger than 13,"no, only English or Spanish",yes,2025-08-13_17h57.10.659,empathy_intonation_perc_control,2024.2.4,Linux x86_64,60.00960154,6290baefc1820d33bb4afed4,68817205a84113384fffdfe3,689d09ff7152de4e96a8dfd9,,,,,,,,,,,,,0,,,,,,,,,,,,,,,,,,,,,,,,,,,,,,,,,,,,,4,batillón,,,,,402.8434,404.4412,0,1,1.0694,,0,50,50,3,1,REAL,FAKE,,,,,,,,,,,,,,,,,
,,,,,,,,,6290baefc1820d33bb4afed4,Puerto Rican,younger than 13,"no, only English or Spanish",yes,2025-08-13_17h57.10.659,empathy_intonation_perc_control,2024.2.4,Linux x86_64,60.00960154,6290baefc1820d33bb4afed4,68817205a84113384fffdfe3,689d09ff7152de4e96a8dfd9,,,,,,,,,,,,,0,,,,,,,,,,,,,,,,,,,,,,,,,,,,,,,,,,,,,16,abracer,,,,,404.4437,409.4458,1,0,4.4736,,0,51,51,15,1,REAL,FAKE,,,,,,,,,,,,,,,,,
,,,,,,,,,6290baefc1820d33bb4afed4,Puerto Rican,younger than 13,"no, only English or Spanish",yes,2025-08-13_17h57.10.659,empathy_intonation_perc_control,2024.2.4,Linux x86_64,60.00960154,6290baefc1820d33bb4afed4,68817205a84113384fffdfe3,689d09ff7152de4e96a8dfd9,,,,,,,,,,,,,0,,,,,,,,,,,,,,,,,,,,,,,,,,,,,,,,,,,,,92,click the 0 key.,,,,,409.4719,411.0135,0,1,1.0221,,0,52,52,91,1,REAL,FAKE,,,,,,,,,,,,,,,,,
,,,,,,,,,6290baefc1820d33bb4afed4,Puerto Rican,younger than 13,"no, only English or Spanish",yes,2025-08-13_17h57.10.659,empathy_intonation_perc_control,2024.2.4,Linux x86_64,60.00960154,6290baefc1820d33bb4afed4,68817205a84113384fffdfe3,689d09ff7152de4e96a8dfd9,,,,,,,,,,,,,1,,,,,,,,,,,,,,,,,,,,,,,,,,,,,,,,,,,,,13,helar,,,,,411.0175,412.3445,0,0,0.7999,,0,53,53,12,1,REAL,FAKE,,,,,,,,,,,,,,,,,
,,,,,,,,,6290baefc1820d33bb4afed4,Puerto Rican,younger than 13,"no, only English or Spanish",yes,2025-08-13_17h57.10.659,empathy_intonation_perc_control,2024.2.4,Linux x86_64,60.00960154,6290baefc1820d33bb4afed4,68817205a84113384fffdfe3,689d09ff7152de4e96a8dfd9,,,,,,,,,,,,,1,,,,,,,,,,,,,,,,,,,,,,,,,,,,,,,,,,,,,31,pandilla,,,,,412.3466,414.1576,0,0,1.2881,,0,54,54,30,1,REAL,FAKE,,,,,,,,,,,,,,,,,
,,,,,,,,,6290baefc1820d33bb4afed4,Puerto Rican,younger than 13,"no, only English or Spanish",yes,2025-08-13_17h57.10.659,empathy_intonation_perc_control,2024.2.4,Linux x86_64,60.00960154,6290baefc1820d33bb4afed4,68817205a84113384fffdfe3,689d09ff7152de4e96a8dfd9,,,,,,,,,,,,,0,,,,,,,,,,,,,,,,,,,,,,,,,,,,,,,,,,,,,27,acutación,,,,,414.1599,416.1901,0,1,1.4996,,0,55,55,26,1,REAL,FAKE,,,,,,,,,,,,,,,,,
,,,,,,,,,6290baefc1820d33bb4afed4,Puerto Rican,younger than 13,"no, only English or Spanish",yes,2025-08-13_17h57.10.659,empathy_intonation_perc_control,2024.2.4,Linux x86_64,60.00960154,6290baefc1820d33bb4afed4,68817205a84113384fffdfe3,689d09ff7152de4e96a8dfd9,,,,,,,,,,,,,1,,,,,,,,,,,,,,,,,,,,,,,,,,,,,,,,,,,,,46,martillo,,,,,416.192,417.4928,0,0,0.7802,,0,56,56,45,1,REAL,FAKE,,,,,,,,,,,,,,,,,
,,,,,,,,,6290baefc1820d33bb4afed4,Puerto Rican,younger than 13,"no, only English or Spanish",yes,2025-08-13_17h57.10.659,empathy_intonation_perc_control,2024.2.4,Linux x86_64,60.00960154,6290baefc1820d33bb4afed4,68817205a84113384fffdfe3,689d09ff7152de4e96a8dfd9,,,,,,,,,,,,,1,,,,,,,,,,,,,,,,,,,,,,,,,,,,,,,,,,,,,59,besar,,,,,417.4958,418.8575,1,1,0.8318,,0,57,57,58,1,REAL,FAKE,,,,,,,,,,,,,,,,,
,,,,,,,,,6290baefc1820d33bb4afed4,Puerto Rican,younger than 13,"no, only English or Spanish",yes,2025-08-13_17h57.10.659,empathy_intonation_perc_control,2024.2.4,Linux x86_64,60.00960154,6290baefc1820d33bb4afed4,68817205a84113384fffdfe3,689d09ff7152de4e96a8dfd9,,,,,,,,,,,,,0,,,,,,,,,,,,,,,,,,,,,,,,,,,,,,,,,,,,,17,floroso,,,,,418.8613,420.0703,0,1,0.6745,,0,58,58,16,1,REAL,FAKE,,,,,,,,,,,,,,,,,
,,,,,,,,,6290baefc1820d33bb4afed4,Puerto Rican,younger than 13,"no, only English or Spanish",yes,2025-08-13_17h57.10.659,empathy_intonation_perc_control,2024.2.4,Linux x86_64,60.00960154,6290baefc1820d33bb4afed4,68817205a84113384fffdfe3,689d09ff7152de4e96a8dfd9,,,,,,,,,,,,,0,,,,,,,,,,,,,,,,,,,,,,,,,,,,,,,,,,,,,23,lampera,,,,,420.0725,421.5667,0,1,0.967,,0,59,59,22,1,REAL,FAKE,,,,,,,,,,,,,,,,,
,,,,,,,,,6290baefc1820d33bb4afed4,Puerto Rican,younger than 13,"no, only English or Spanish",yes,2025-08-13_17h57.10.659,empathy_intonation_perc_control,2024.2.4,Linux x86_64,60.00960154,6290baefc1820d33bb4afed4,68817205a84113384fffdfe3,689d09ff7152de4e96a8dfd9,,,,,,,,,,,,,1,,,,,,,,,,,,,,,,,,,,,,,,,,,,,,,,,,,,,40,alfombra,,,,,421.5703,423.3544,0,0,1.2661,,0,60,60,39,1,REAL,FAKE,,,,,,,,,,,,,,,,,
,,,,,,,,,6290baefc1820d33bb4afed4,Puerto Rican,younger than 13,"no, only English or Spanish",yes,2025-08-13_17h57.10.659,empathy_intonation_perc_control,2024.2.4,Linux x86_64,60.00960154,6290baefc1820d33bb4afed4,68817205a84113384fffdfe3,689d09ff7152de4e96a8dfd9,,,,,,,,,,,,,1,,,,,,,,,,,,,,,,,,,,,,,,,,,,,,,,,,,,,90,clavel,,,,,423.3566,424.4567,0,0,0.5812,,0,61,61,89,1,REAL,FAKE,,,,,,,,,,,,,,,,,
,,,,,,,,,6290baefc1820d33bb4afed4,Puerto Rican,younger than 13,"no, only English or Spanish",yes,2025-08-13_17h57.10.659,empathy_intonation_perc_control,2024.2.4,Linux x86_64,60.00960154,6290baefc1820d33bb4afed4,68817205a84113384fffdfe3,689d09ff7152de4e96a8dfd9,,,,,,,,,,,,,1,,,,,,,,,,,,,,,,,,,,,,,,,,,,,,,,,,,,,44,cuchara,,,,,424.4615,425.7046,1,1,0.7144,,0,62,62,43,1,REAL,FAKE,,,,,,,,,,,,,,,,,
,,,,,,,,,6290baefc1820d33bb4afed4,Puerto Rican,younger than 13,"no, only English or Spanish",yes,2025-08-13_17h57.10.659,empathy_intonation_perc_control,2024.2.4,Linux x86_64,60.00960154,6290baefc1820d33bb4afed4,68817205a84113384fffdfe3,689d09ff7152de4e96a8dfd9,,,,,,,,,,,,,1,,,,,,,,,,,,,,,,,,,,,,,,,,,,,,,,,,,,,38,estornudar,,,,,425.7068,427.0727,0,0,0.8354,,0,63,63,37,1,REAL,FAKE,,,,,,,,,,,,,,,,,
,,,,,,,,,6290baefc1820d33bb4afed4,Puerto Rican,younger than 13,"no, only English or Spanish",yes,2025-08-13_17h57.10.659,empathy_intonation_perc_control,2024.2.4,Linux x86_64,60.00960154,6290baefc1820d33bb4afed4,68817205a84113384fffdfe3,689d09ff7152de4e96a8dfd9,,,,,,,,,,,,,1,,,,,,,,,,,,,,,,,,,,,,,,,,,,,,,,,,,,,60,matar,,,,,427.0753,428.4268,1,1,0.8372,,0,64,64,59,1,REAL,FAKE,,,,,,,,,,,,,,,,,
,,,,,,,,,6290baefc1820d33bb4afed4,Puerto Rican,younger than 13,"no, only English or Spanish",yes,2025-08-13_17h57.10.659,empathy_intonation_perc_control,2024.2.4,Linux x86_64,60.00960154,6290baefc1820d33bb4afed4,68817205a84113384fffdfe3,689d09ff7152de4e96a8dfd9,,,,,,,,,,,,,1,,,,,,,,,,,,,,,,,,,,,,,,,,,,,,,,,,,,,51,candado,,,,,428.4302,429.8366,1,1,0.8759,,0,65,65,50,1,REAL,FAKE,,,,,,,,,,,,,,,,,
,,,,,,,,,6290baefc1820d33bb4afed4,Puerto Rican,younger than 13,"no, only English or Spanish",yes,2025-08-13_17h57.10.659,empathy_intonation_perc_control,2024.2.4,Linux x86_64,60.00960154,6290baefc1820d33bb4afed4,68817205a84113384fffdfe3,689d09ff7152de4e96a8dfd9,,,,,,,,,,,,,1,,,,,,,,,,,,,,,,,,,,,,,,,,,,,,,,,,,,,15,regar,,,,,429.8388,431.2098,1,1,0.8375,,0,66,66,14,1,REAL,FAKE,,,,,,,,,,,,,,,,,
,,,,,,,,,6290baefc1820d33bb4afed4,Puerto Rican,younger than 13,"no, only English or Spanish",yes,2025-08-13_17h57.10.659,empathy_intonation_perc_control,2024.2.4,Linux x86_64,60.00960154,6290baefc1820d33bb4afed4,68817205a84113384fffdfe3,689d09ff7152de4e96a8dfd9,,,,,,,,,,,,,1,,,,,,,,,,,,,,,,,,,,,,,,,,,,,,,,,,,,,76,atar,,,,,431.2119,432.3578,0,0,0.6213,,0,67,67,75,1,REAL,FAKE,,,,,,,,,,,,,,,,,
,,,,,,,,,6290baefc1820d33bb4afed4,Puerto Rican,younger than 13,"no, only English or Spanish",yes,2025-08-13_17h57.10.659,empathy_intonation_perc_control,2024.2.4,Linux x86_64,60.00960154,6290baefc1820d33bb4afed4,68817205a84113384fffdfe3,689d09ff7152de4e96a8dfd9,,,,,,,,,,,,,1,,,,,,,,,,,,,,,,,,,,,,,,,,,,,,,,,,,,,37,granuja,,,,,432.3604,433.8289,0,0,0.936,,0,68,68,36,1,REAL,FAKE,,,,,,,,,,,,,,,,,
,,,,,,,,,6290baefc1820d33bb4afed4,Puerto Rican,younger than 13,"no, only English or Spanish",yes,2025-08-13_17h57.10.659,empathy_intonation_perc_control,2024.2.4,Linux x86_64,60.00960154,6290baefc1820d33bb4afed4,68817205a84113384fffdfe3,689d09ff7152de4e96a8dfd9,,,,,,,,,,,,,0,,,,,,,,,,,,,,,,,,,,,,,,,,,,,,,,,,,,,21,capillo,,,,,433.8322,435.1203,0,1,0.7638,,0,69,69,20,1,REAL,FAKE,,,,,,,,,,,,,,,,,
,,,,,,,,,6290baefc1820d33bb4afed4,Puerto Rican,younger than 13,"no, only English or Spanish",yes,2025-08-13_17h57.10.659,empathy_intonation_perc_control,2024.2.4,Linux x86_64,60.00960154,6290baefc1820d33bb4afed4,68817205a84113384fffdfe3,689d09ff7152de4e96a8dfd9,,,,,,,,,,,,,0,,,,,,,,,,,,,,,,,,,,,,,,,,,,,,,,,,,,,58,plaudir,,,,,435.1231,436.4529,0,1,0.7929,,0,70,70,57,1,REAL,FAKE,,,,,,,,,,,,,,,,,
,,,,,,,,,6290baefc1820d33bb4afed4,Puerto Rican,younger than 13,"no, only English or Spanish",yes,2025-08-13_17h57.10.659,empathy_intonation_perc_control,2024.2.4,Linux x86_64,60.00960154,6290baefc1820d33bb4afed4,68817205a84113384fffdfe3,689d09ff7152de4e96a8dfd9,,,,,,,,,,,,,1,,,,,,,,,,,,,,,,,,,,,,,,,,,,,,,,,,,,,43,canela,,,,,436.455,437.6741,1,1,0.7037,,0,71,71,42,1,REAL,FAKE,,,,,,,,,,,,,,,,,
,,,,,,,,,6290baefc1820d33bb4afed4,Puerto Rican,younger than 13,"no, only English or Spanish",yes,2025-08-13_17h57.10.659,empathy_intonation_perc_control,2024.2.4,Linux x86_64,60.00960154,6290baefc1820d33bb4afed4,68817205a84113384fffdfe3,689d09ff7152de4e96a8dfd9,,,,,,,,,,,,,1,,,,,,,,,,,,,,,,,,,,,,,,,,,,,,,,,,,,,6,tergiversar,,,,,437.6768,438.9163,0,0,0.7114,,0,72,72,5,1,REAL,FAKE,,,,,,,,,,,,,,,,,
,,,,,,,,,6290baefc1820d33bb4afed4,Puerto Rican,younger than 13,"no, only English or Spanish",yes,2025-08-13_17h57.10.659,empathy_intonation_perc_control,2024.2.4,Linux x86_64,60.00960154,6290baefc1820d33bb4afed4,68817205a84113384fffdfe3,689d09ff7152de4e96a8dfd9,,,,,,,,,,,,,1,,,,,,,,,,,,,,,,,,,,,,,,,,,,,,,,,,,,,12,asesinato,,,,,438.9199,440.1221,0,0,0.6803,,0,73,73,11,1,REAL,FAKE,,,,,,,,,,,,,,,,,
,,,,,,,,,6290baefc1820d33bb4afed4,Puerto Rican,younger than 13,"no, only English or Spanish",yes,2025-08-13_17h57.10.659,empathy_intonation_perc_control,2024.2.4,Linux x86_64,60.00960154,6290baefc1820d33bb4afed4,68817205a84113384fffdfe3,689d09ff7152de4e96a8dfd9,,,,,,,,,,,,,1,,,,,,,,,,,,,,,,,,,,,,,,,,,,,,,,,,,,,61,seda,,,,,440.1241,441.6201,1,1,0.9602,,0,74,74,60,1,REAL,FAKE,,,,,,,,,,,,,,,,,
,,,,,,,,,6290baefc1820d33bb4afed4,Puerto Rican,younger than 13,"no, only English or Spanish",yes,2025-08-13_17h57.10.659,empathy_intonation_perc_control,2024.2.4,Linux x86_64,60.00960154,6290baefc1820d33bb4afed4,68817205a84113384fffdfe3,689d09ff7152de4e96a8dfd9,,,,,,,,,,,,,0,,,,,,,,,,,,,,,,,,,,,,,,,,,,,,,,,,,,,87,grodo,,,,,441.6237,442.7065,0,1,0.5522,,0,75,75,86,1,REAL,FAKE,,,,,,,,,,,,,,,,,
,,,,,,,,,6290baefc1820d33bb4afed4,Puerto Rican,younger than 13,"no, only English or Spanish",yes,2025-08-13_17h57.10.659,empathy_intonation_perc_control,2024.2.4,Linux x86_64,60.00960154,6290baefc1820d33bb4afed4,68817205a84113384fffdfe3,689d09ff7152de4e96a8dfd9,,,,,,,,,,,,,0,,,,,,,,,,,,,,,,,,,,,,,,,,,,,,,,,,,,,30,alardio,,,,,442.7088,444.1694,0,1,0.9253,,0,76,76,29,1,REAL,FAKE,,,,,,,,,,,,,,,,,
,,,,,,,,,6290baefc1820d33bb4afed4,Puerto Rican,younger than 13,"no, only English or Spanish",yes,2025-08-13_17h57.10.659,empathy_intonation_perc_control,2024.2.4,Linux x86_64,60.00960154,6290baefc1820d33bb4afed4,68817205a84113384fffdfe3,689d09ff7152de4e96a8dfd9,,,,,,,,,,,,,1,,,,,,,,,,,,,,,,,,,,,,,,,,,,,,,,,,,,,67,cabello,,,,,444.1729,445.8036,1,1,1.0993,,0,77,77,66,1,REAL,FAKE,,,,,,,,,,,,,,,,,
,,,,,,,,,6290baefc1820d33bb4afed4,Puerto Rican,younger than 13,"no, only English or Spanish",yes,2025-08-13_17h57.10.659,empathy_intonation_perc_control,2024.2.4,Linux x86_64,60.00960154,6290baefc1820d33bb4afed4,68817205a84113384fffdfe3,689d09ff7152de4e96a8dfd9,,,,,,,,,,,,,1,,,,,,,,,,,,,,,,,,,,,,,,,,,,,,,,,,,,,88,acantilado,,,,,445.8064,447.4194,0,0,1.0799,,0,78,78,87,1,REAL,FAKE,,,,,,,,,,,,,,,,,
,,,,,,,,,6290baefc1820d33bb4afed4,Puerto Rican,younger than 13,"no, only English or Spanish",yes,2025-08-13_17h57.10.659,empathy_intonation_perc_control,2024.2.4,Linux x86_64,60.00960154,6290baefc1820d33bb4afed4,68817205a84113384fffdfe3,689d09ff7152de4e96a8dfd9,,,,,,,,,,,,,0,,,,,,,,,,,,,,,,,,,,,,,,,,,,,,,,,,,,,8,cadeña,,,,,447.423,448.919,1,0,0.964,,0,79,79,7,1,REAL,FAKE,,,,,,,,,,,,,,,,,
,,,,,,,,,6290baefc1820d33bb4afed4,Puerto Rican,younger than 13,"no, only English or Spanish",yes,2025-08-13_17h57.10.659,empathy_intonation_perc_control,2024.2.4,Linux x86_64,60.00960154,6290baefc1820d33bb4afed4,68817205a84113384fffdfe3,689d09ff7152de4e96a8dfd9,,,,,,,,,,,,,1,,,,,,,,,,,,,,,,,,,,,,,,,,,,,,,,,,,,,28,merodear,,,,,448.9216,450.0369,0,0,0.5831,,0,80,80,27,1,REAL,FAKE,,,,,,,,,,,,,,,,,
,,,,,,,,,6290baefc1820d33bb4afed4,Puerto Rican,younger than 13,"no, only English or Spanish",yes,2025-08-13_17h57.10.659,empathy_intonation_perc_control,2024.2.4,Linux x86_64,60.00960154,6290baefc1820d33bb4afed4,68817205a84113384fffdfe3,689d09ff7152de4e96a8dfd9,,,,,,,,,,,,,1,,,,,,,,,,,,,,,,,,,,,,,,,,,,,,,,,,,,,69,engatusar,,,,,450.0409,451.719,0,0,1.1504,,0,81,81,68,1,REAL,FAKE,,,,,,,,,,,,,,,,,
,,,,,,,,,6290baefc1820d33bb4afed4,Puerto Rican,younger than 13,"no, only English or Spanish",yes,2025-08-13_17h57.10.659,empathy_intonation_perc_control,2024.2.4,Linux x86_64,60.00960154,6290baefc1820d33bb4afed4,68817205a84113384fffdfe3,689d09ff7152de4e96a8dfd9,,,,,,,,,,,,,0,,,,,,,,,,,,,,,,,,,,,,,,,,,,,,,,,,,,,84,escuto,,,,,451.7213,453.1038,0,1,0.8682,,0,82,82,83,1,REAL,FAKE,,,,,,,,,,,,,,,,,
,,,,,,,,,6290baefc1820d33bb4afed4,Puerto Rican,younger than 13,"no, only English or Spanish",yes,2025-08-13_17h57.10.659,empathy_intonation_perc_control,2024.2.4,Linux x86_64,60.00960154,6290baefc1820d33bb4afed4,68817205a84113384fffdfe3,689d09ff7152de4e96a8dfd9,,,,,,,,,,,,,0,,,,,,,,,,,,,,,,,,,,,,,,,,,,,,,,,,,,,35,rompido,,,,,453.1069,454.4357,0,1,0.797,,0,83,83,34,1,REAL,FAKE,,,,,,,,,,,,,,,,,
,,,,,,,,,6290baefc1820d33bb4afed4,Puerto Rican,younger than 13,"no, only English or Spanish",yes,2025-08-13_17h57.10.659,empathy_intonation_perc_control,2024.2.4,Linux x86_64,60.00960154,6290baefc1820d33bb4afed4,68817205a84113384fffdfe3,689d09ff7152de4e96a8dfd9,,,,,,,,,,,,,1,,,,,,,,,,,,,,,,,,,,,,,,,,,,,,,,,,,,,11,cenefa,,,,,454.438,455.8539,0,0,0.8865,,0,84,84,10,1,REAL,FAKE,,,,,,,,,,,,,,,,,
,,,,,,,,,6290baefc1820d33bb4afed4,Puerto Rican,younger than 13,"no, only English or Spanish",yes,2025-08-13_17h57.10.659,empathy_intonation_perc_control,2024.2.4,Linux x86_64,60.00960154,6290baefc1820d33bb4afed4,68817205a84113384fffdfe3,689d09ff7152de4e96a8dfd9,,,,,,,,,,,,,1,,,,,,,,,,,,,,,,,,,,,,,,,,,,,,,,,,,,,68,alegre,,,,,455.8614,457.4856,1,1,1.0972,,0,85,85,67,1,REAL,FAKE,,,,,,,,,,,,,,,,,
,,,,,,,,,6290baefc1820d33bb4afed4,Puerto Rican,younger than 13,"no, only English or Spanish",yes,2025-08-13_17h57.10.659,empathy_intonation_perc_control,2024.2.4,Linux x86_64,60.00960154,6290baefc1820d33bb4afed4,68817205a84113384fffdfe3,689d09ff7152de4e96a8dfd9,,,,,,,,,,,,,1,,,,,,,,,,,,,,,,,,,,,,,,,,,,,,,,,,,,,71,polvoriento,,,,,457.4884,458.603,0,0,0.583,,0,86,86,70,1,REAL,FAKE,,,,,,,,,,,,,,,,,
,,,,,,,,,6290baefc1820d33bb4afed4,Puerto Rican,younger than 13,"no, only English or Spanish",yes,2025-08-13_17h57.10.659,empathy_intonation_perc_control,2024.2.4,Linux x86_64,60.00960154,6290baefc1820d33bb4afed4,68817205a84113384fffdfe3,689d09ff7152de4e96a8dfd9,,,,,,,,,,,,,1,,,,,,,,,,,,,,,,,,,,,,,,,,,,,,,,,,,,,26,secuestro,,,,,458.6056,460.002,0,0,0.8645,,0,87,87,25,1,REAL,FAKE,,,,,,,,,,,,,,,,,
,,,,,,,,,6290baefc1820d33bb4afed4,Puerto Rican,younger than 13,"no, only English or Spanish",yes,2025-08-13_17h57.10.659,empathy_intonation_perc_control,2024.2.4,Linux x86_64,60.00960154,6290baefc1820d33bb4afed4,68817205a84113384fffdfe3,689d09ff7152de4e96a8dfd9,,,,,,,,,,,,,1,,,,,,,,,,,,,,,,,,,,,,,,,,,,,,,,,,,,,54,fomentar,,,,,460.0049,461.5195,1,1,0.9793,,0,88,88,53,1,REAL,FAKE,,,,,,,,,,,,,,,,,
,,,,,,,,,6290baefc1820d33bb4afed4,Puerto Rican,younger than 13,"no, only English or Spanish",yes,2025-08-13_17h57.10.659,empathy_intonation_perc_control,2024.2.4,Linux x86_64,60.00960154,6290baefc1820d33bb4afed4,68817205a84113384fffdfe3,689d09ff7152de4e96a8dfd9,,,,,,,,,,,,,1,,,,,,,,,,,,,,,,,,,,,,,,,,,,,,,,,,,,,24,látigo,,,,,461.5225,462.9853,0,0,0.9306,,0,89,89,23,1,REAL,FAKE,,,,,,,,,,,,,,,,,
,,,,,,,,,6290baefc1820d33bb4afed4,Puerto Rican,younger than 13,"no, only English or Spanish",yes,2025-08-13_17h57.10.659,empathy_intonation_perc_control,2024.2.4,Linux x86_64,60.00960154,6290baefc1820d33bb4afed4,68817205a84113384fffdfe3,689d09ff7152de4e96a8dfd9,,,,,,,,,,,,,1,,,,,,,,,,,,,,,,,,,,,,,,,,,,,,,,,,,,,57,tacaño,,,,,462.9885,464.1851,0,0,0.6639,,0,90,90,56,1,REAL,FAKE,,,,,,,,,,,,,,,,,
,,,,,,,,,6290baefc1820d33bb4afed4,Puerto Rican,younger than 13,"no, only English or Spanish",yes,2025-08-13_17h57.10.659,empathy_intonation_perc_control,2024.2.4,Linux x86_64,60.00960154,6290baefc1820d33bb4afed4,68817205a84113384fffdfe3,689d09ff7152de4e96a8dfd9,,,,,,,,,,,,,0,,,,,,,,,,,,,,,,,,,,,,,,,,,,,,,,,,,,,10,antar,,,,,464.1874,465.3519,0,1,0.6296,,0,91,91,9,1,REAL,FAKE,,,,,,,,,,,,,,,,,
,,,,,,,,,6290baefc1820d33bb4afed4,Puerto Rican,younger than 13,"no, only English or Spanish",yes,2025-08-13_17h57.10.659,empathy_intonation_perc_control,2024.2.4,Linux x86_64,60.00960154,6290baefc1820d33bb4afed4,68817205a84113384fffdfe3,689d09ff7152de4e96a8dfd9,,,,,,,,,,,,,,,,,,,,,,,,,,,,,,,,,,,,,,,,,,,,,,,,,,,,,,,,,,,,,,,,,,,,,465.3544,469.8045,,,,,,,,,,,,,,,
,,,,,,,,,6290baefc1820d33bb4afed4,Puerto Rican,younger than 13,"no, only English or Spanish",yes,2025-08-13_17h57.10.659,empathy_intonation_perc_control,2024.2.4,Linux x86_64,60.00960154,6290baefc1820d33bb4afed4,68817205a84113384fffdfe3,689d09ff7152de4e96a8dfd9,,,,,,,,,,,,,,,,,,,,,,,,,,,1,,,,,,,,,,,,,,,,,,,,,,,,,,,,,,,,,,,,,,,,,,,,469.8728,475.7558,strongly agree,0,0,0,0,1,I can easily tell if someone else wants to enter a conversation.,1,0,1,0,,
,,,,,,,,,6290baefc1820d33bb4afed4,Puerto Rican,younger than 13,"no, only English or Spanish",yes,2025-08-13_17h57.10.659,empathy_intonation_perc_control,2024.2.4,Linux x86_64,60.00960154,6290baefc1820d33bb4afed4,68817205a84113384fffdfe3,689d09ff7152de4e96a8dfd9,,,,,,,,,,,,,,,,,,,,,,,,,,,2,,,,,,,,,,,,,,,,,,,,,,,,,,,,,,,,,,,,,,,,,,,,475.7594,479.0028,slightly agree,0,1,1,1,1,I prefer animals to humans.,0,1,0,0,,
,,,,,,,,,6290baefc1820d33bb4afed4,Puerto Rican,younger than 13,"no, only English or Spanish",yes,2025-08-13_17h57.10.659,empathy_intonation_perc_control,2024.2.4,Linux x86_64,60.00960154,6290baefc1820d33bb4afed4,68817205a84113384fffdfe3,689d09ff7152de4e96a8dfd9,,,,,,,,,,,,,,,,,,,,,,,,,,,3,,,,,,,,,,,,,,,,,,,,,,,,,,,,,,,,,,,,,,,,,,,,479.0075,482.0692,strongly disagree,0,2,2,2,1,I try to keep up with the current trends and fashions.,0,1,0,0,,
,,,,,,,,,6290baefc1820d33bb4afed4,Puerto Rican,younger than 13,"no, only English or Spanish",yes,2025-08-13_17h57.10.659,empathy_intonation_perc_control,2024.2.4,Linux x86_64,60.00960154,6290baefc1820d33bb4afed4,68817205a84113384fffdfe3,689d09ff7152de4e96a8dfd9,,,,,,,,,,,,,,,,,,,,,,,,,,,4,,,,,,,,,,,,,,,,,,,,,,,,,,,,,,,,,,,,,,,,,,,,482.0732,486.5391,slightly disagree,0,3,3,3,1,"I find it difficult to explain to others things that I understand easily,   when they don't understand it first time.",1,0,0,1,,
,,,,,,,,,6290baefc1820d33bb4afed4,Puerto Rican,younger than 13,"no, only English or Spanish",yes,2025-08-13_17h57.10.659,empathy_intonation_perc_control,2024.2.4,Linux x86_64,60.00960154,6290baefc1820d33bb4afed4,68817205a84113384fffdfe3,689d09ff7152de4e96a8dfd9,,,,,,,,,,,,,,,,,,,,,,,,,,,5,,,,,,,,,,,,,,,,,,,,,,,,,,,,,,,,,,,,,,,,,,,,486.5422,490.4594,slightly disagree,0,4,4,4,1,I dream most nights.,0,1,0,0,,
,,,,,,,,,6290baefc1820d33bb4afed4,Puerto Rican,younger than 13,"no, only English or Spanish",yes,2025-08-13_17h57.10.659,empathy_intonation_perc_control,2024.2.4,Linux x86_64,60.00960154,6290baefc1820d33bb4afed4,68817205a84113384fffdfe3,689d09ff7152de4e96a8dfd9,,,,,,,,,,,,,,,,,,,,,,,,,,,6,,,,,,,,,,,,,,,,,,,,,,,,,,,,,,,,,,,,,,,,,,,,490.4627,492.3908,strongly agree,0,5,5,5,1,I really enjoy caring for other people.,1,0,1,0,,
,,,,,,,,,6290baefc1820d33bb4afed4,Puerto Rican,younger than 13,"no, only English or Spanish",yes,2025-08-13_17h57.10.659,empathy_intonation_perc_control,2024.2.4,Linux x86_64,60.00960154,6290baefc1820d33bb4afed4,68817205a84113384fffdfe3,689d09ff7152de4e96a8dfd9,,,,,,,,,,,,,,,,,,,,,,,,,,,7,,,,,,,,,,,,,,,,,,,,,,,,,,,,,,,,,,,,,,,,,,,,492.3954,495.5108,strongly agree,0,6,6,6,1,I try to solve my own problems rather than discussing them with others.,0,1,0,0,,
,,,,,,,,,6290baefc1820d33bb4afed4,Puerto Rican,younger than 13,"no, only English or Spanish",yes,2025-08-13_17h57.10.659,empathy_intonation_perc_control,2024.2.4,Linux x86_64,60.00960154,6290baefc1820d33bb4afed4,68817205a84113384fffdfe3,689d09ff7152de4e96a8dfd9,,,,,,,,,,,,,,,,,,,,,,,,,,,8,,,,,,,,,,,,,,,,,,,,,,,,,,,,,,,,,,,,,,,,,,,,495.5139,498.1168,slightly disagree,0,7,7,7,1,I find it hard to know what to do in a social situation.,1,0,0,1,,
,,,,,,,,,6290baefc1820d33bb4afed4,Puerto Rican,younger than 13,"no, only English or Spanish",yes,2025-08-13_17h57.10.659,empathy_intonation_perc_control,2024.2.4,Linux x86_64,60.00960154,6290baefc1820d33bb4afed4,68817205a84113384fffdfe3,689d09ff7152de4e96a8dfd9,,,,,,,,,,,,,,,,,,,,,,,,,,,9,,,,,,,,,,,,,,,,,,,,,,,,,,,,,,,,,,,,,,,,,,,,498.1203,500.0218,slightly disagree,0,8,8,8,1,I am at my best first thing in the morning.,0,1,0,0,,
,,,,,,,,,6290baefc1820d33bb4afed4,Puerto Rican,younger than 13,"no, only English or Spanish",yes,2025-08-13_17h57.10.659,empathy_intonation_perc_control,2024.2.4,Linux x86_64,60.00960154,6290baefc1820d33bb4afed4,68817205a84113384fffdfe3,689d09ff7152de4e96a8dfd9,,,,,,,,,,,,,,,,,,,,,,,,,,,10,,,,,,,,,,,,,,,,,,,,,,,,,,,,,,,,,,,,,,,,,,,,500.0295,504.4593,strongly disagree,0,9,9,9,1,People often tell me that I went too far in driving my point home in a discussion.,1,0,0,1,,
,,,,,,,,,6290baefc1820d33bb4afed4,Puerto Rican,younger than 13,"no, only English or Spanish",yes,2025-08-13_17h57.10.659,empathy_intonation_perc_control,2024.2.4,Linux x86_64,60.00960154,6290baefc1820d33bb4afed4,68817205a84113384fffdfe3,689d09ff7152de4e96a8dfd9,,,,,,,,,,,,,,,,,,,,,,,,,,,11,,,,,,,,,,,,,,,,,,,,,,,,,,,,,,,,,,,,,,,,,,,,504.4687,507.527,slightly disagree,0,10,10,10,1,It doesn't bother me too much if I am late meeting a friend.,1,0,0,1,,
,,,,,,,,,6290baefc1820d33bb4afed4,Puerto Rican,younger than 13,"no, only English or Spanish",yes,2025-08-13_17h57.10.659,empathy_intonation_perc_control,2024.2.4,Linux x86_64,60.00960154,6290baefc1820d33bb4afed4,68817205a84113384fffdfe3,689d09ff7152de4e96a8dfd9,,,,,,,,,,,,,,,,,,,,,,,,,,,12,,,,,,,,,,,,,,,,,,,,,,,,,,,,,,,,,,,,,,,,,,,,507.5305,510.1428,slightly agree,0,11,11,11,1,"Friendships and relationships are just too difficult, so I tend not to 
  bother with them.",1,0,0,1,,
,,,,,,,,,6290baefc1820d33bb4afed4,Puerto Rican,younger than 13,"no, only English or Spanish",yes,2025-08-13_17h57.10.659,empathy_intonation_perc_control,2024.2.4,Linux x86_64,60.00960154,6290baefc1820d33bb4afed4,68817205a84113384fffdfe3,689d09ff7152de4e96a8dfd9,,,,,,,,,,,,,,,,,,,,,,,,,,,13,,,,,,,,,,,,,,,,,,,,,,,,,,,,,,,,,,,,,,,,,,,,510.1459,513.2678,slightly agree,0,12,12,12,1,"I would never break a law, no matter how minor.",0,1,0,0,,
,,,,,,,,,6290baefc1820d33bb4afed4,Puerto Rican,younger than 13,"no, only English or Spanish",yes,2025-08-13_17h57.10.659,empathy_intonation_perc_control,2024.2.4,Linux x86_64,60.00960154,6290baefc1820d33bb4afed4,68817205a84113384fffdfe3,689d09ff7152de4e96a8dfd9,,,,,,,,,,,,,,,,,,,,,,,,,,,14,,,,,,,,,,,,,,,,,,,,,,,,,,,,,,,,,,,,,,,,,,,,513.2721,516.0803,strongly disagree,0,13,13,13,1,I often find it difficult to judge if something is rude or polite.,1,0,0,1,,
,,,,,,,,,6290baefc1820d33bb4afed4,Puerto Rican,younger than 13,"no, only English or Spanish",yes,2025-08-13_17h57.10.659,empathy_intonation_perc_control,2024.2.4,Linux x86_64,60.00960154,6290baefc1820d33bb4afed4,68817205a84113384fffdfe3,689d09ff7152de4e96a8dfd9,,,,,,,,,,,,,,,,,,,,,,,,,,,15,,,,,,,,,,,,,,,,,,,,,,,,,,,,,,,,,,,,,,,,,,,,516.0846,520.1882,slightly disagree,0,14,14,14,1,"In a conversation, I tend to focus on my own thoughts rather than on what 
  my listener might be thinking.",1,0,0,1,,
,,,,,,,,,6290baefc1820d33bb4afed4,Puerto Rican,younger than 13,"no, only English or Spanish",yes,2025-08-13_17h57.10.659,empathy_intonation_perc_control,2024.2.4,Linux x86_64,60.00960154,6290baefc1820d33bb4afed4,68817205a84113384fffdfe3,689d09ff7152de4e96a8dfd9,,,,,,,,,,,,,,,,,,,,,,,,,,,16,,,,,,,,,,,,,,,,,,,,,,,,,,,,,,,,,,,,,,,,,,,,520.192,523.7867,slightly disagree,0,15,15,15,1,I prefer practical jokes to verbal humor.,0,1,0,0,,
