instructions_2afc.started,instructions_2afc.stopped,instructions_2afc_loop.thisRepN,instructions_2afc_loop.thisTrialN,instructions_2afc_loop.thisN,instructions_2afc_loop.thisIndex,instructions_2afc_loop.ran,instructions_text,continue_text,participant_id,"What variety of Spanish are you most familiar with? (e.g., Peruvian, Spanish, Mexican)",At what age did you begin learning Spanish?,Are you proficient in any languages other than English/Spanish?,"Are you familiar with Caribbean (e.g., Caribbean, Puerto Rican) or Galician Spanish?",date,expName,psychopyVersion,OS,frameRate,id,study_id,session,practice_2afc.started,practice_2afc.stopped,key_resp_2afc_practice.keys,key_resp_2afc_practice.corr,key_resp_2afc_practice.rt,key_resp_2afc_practice.duration,trials_2afc_practice_loop.thisRepN,trials_2afc_practice_loop.thisTrialN,trials_2afc_practice_loop.thisN,trials_2afc_practice_loop.thisIndex,trials_2afc_practice_loop.ran,path,correct_response,check_2afc.started,check_2afc.stopped,trial_2afc.started,trial_2afc.stopped,key_resp_2afc_trial.keys,key_resp_2afc_trial.corr,key_resp_2afc_trial.rt,key_resp_2afc_trial.duration,trials_2afc_loop.thisRepN,trials_2afc_loop.thisTrialN,trials_2afc_loop.thisN,trials_2afc_loop.thisIndex,trials_2afc_loop.ran,item_num,target,variety,instructions_lextale.started,instructions_lextale.stopped,instructions_lextale_loop.thisRepN,instructions_lextale_loop.thisTrialN,instructions_lextale_loop.thisN,instructions_lextale_loop.thisIndex,instructions_lextale_loop.ran,practice_lextale.started,practice_lextale.stopped,key_resp_lextale_practice.keys,key_resp_lextale_practice.corr,key_resp_lextale_practice.rt,key_resp_lextale_practice.duration,practice_feedback_lextale.started,practice_feedback_lextale.stopped,trials_lextale_practice_loop.thisRepN,trials_lextale_practice_loop.thisTrialN,trials_lextale_practice_loop.thisN,trials_lextale_practice_loop.thisIndex,trials_lextale_practice_loop.ran,stim,word,prac_button_real,prac_button_false,check_lextale.started,check_lextale.stopped,trial_lextale.started,trial_lextale.stopped,key_resp_lextale_trial.keys,key_resp_lextale_trial.corr,key_resp_lextale_trial.rt,key_resp_lextale_trial.duration,trials_lextale_loop.thisRepN,trials_lextale_loop.thisTrialN,trials_lextale_loop.thisN,trials_lextale_loop.thisIndex,trials_lextale_loop.ran,button_real,button_false,instructions_eq.started,instructions_eq.stopped,trial_eq.started,trial_eq.stopped,slider_eq_trial.response,trials_eq_loop.thisRepN,trials_eq_loop.thisTrialN,trials_eq_loop.thisN,trials_eq_loop.thisIndex,trials_eq_loop.ran,item,is_test_item,is_distractor,is_agree_score,is_disagree_score,end_exp.started,end_exp.stopped
0.0197,65.7472,0,0,0,0,1,"In the following task you are going to hear a series of utterances. 

  You will decide if the utterances sound like questions or not using your keyboard.", (press the spacebar to continue),62989737409d018c733483c1,Spanish,13 or older,"no, only English or Spanish",yes,2025-08-15_01h04.51.126,empathy_intonation_perc_control,2024.2.4,Linux armv81,120.4819277,62989737409d018c733483c1,68817205a84113384fffdfe3,689ebfaa39df66191f3994e0,,,,,,,,,,,,,,,,,,,,,,,,,,,,,,,,,,,,,,,,,,,,,,,,,,,,,,,,,,,,,,,,,,,,,,,,,,,,,,,,,,,,,
65.7491,74.7283,0,1,1,1,1,"If you believe the utterance is a question, type '1' (for 'yes') and if you do not 
  believe it is a question type '0' (for 'no').

  Let's practice a bit...", (press the spacebar to continue),62989737409d018c733483c1,Spanish,13 or older,"no, only English or Spanish",yes,2025-08-15_01h04.51.126,empathy_intonation_perc_control,2024.2.4,Linux armv81,120.4819277,62989737409d018c733483c1,68817205a84113384fffdfe3,689ebfaa39df66191f3994e0,,,,,,,,,,,,,,,,,,,,,,,,,,,,,,,,,,,,,,,,,,,,,,,,,,,,,,,,,,,,,,,,,,,,,,,,,,,,,,,,,,,,,
,,,,,,,,,62989737409d018c733483c1,Spanish,13 or older,"no, only English or Spanish",yes,2025-08-15_01h04.51.126,empathy_intonation_perc_control,2024.2.4,Linux armv81,120.4819277,62989737409d018c733483c1,68817205a84113384fffdfe3,689ebfaa39df66191f3994e0,74.7395,81.5967,0,1,6.3404,0.0003,0,0,0,4,1,./stim/wavs/cuban_statement_filler_Cocinabas-por-la-noche.wav,0,,,,,,,,,,,,,,,,,,,,,,,,,,,,,,,,,,,,,,,,,,,,,,,,,,,,,,,,,,,,,,,,,,,,,,,,
,,,,,,,,,62989737409d018c733483c1,Spanish,13 or older,"no, only English or Spanish",yes,2025-08-15_01h04.51.126,empathy_intonation_perc_control,2024.2.4,Linux armv81,120.4819277,62989737409d018c733483c1,68817205a84113384fffdfe3,689ebfaa39df66191f3994e0,81.5986,84.6744,1,1,2.5644,0.0004,0,1,1,3,1,./stim/wavs/mexican_question_filler_Felipe-no-tiene-contrasena.wav,1,,,,,,,,,,,,,,,,,,,,,,,,,,,,,,,,,,,,,,,,,,,,,,,,,,,,,,,,,,,,,,,,,,,,,,,,
,,,,,,,,,62989737409d018c733483c1,Spanish,13 or older,"no, only English or Spanish",yes,2025-08-15_01h04.51.126,empathy_intonation_perc_control,2024.2.4,Linux armv81,120.4819277,62989737409d018c733483c1,68817205a84113384fffdfe3,689ebfaa39df66191f3994e0,84.6752,87.788,0,1,2.5999,0.0003,0,2,2,7,1,./stim/wavs/puertorican_statement_filler_La-nina-pinta-con-su-amiga.wav,0,,,,,,,,,,,,,,,,,,,,,,,,,,,,,,,,,,,,,,,,,,,,,,,,,,,,,,,,,,,,,,,,,,,,,,,,
,,,,,,,,,62989737409d018c733483c1,Spanish,13 or older,"no, only English or Spanish",yes,2025-08-15_01h04.51.126,empathy_intonation_perc_control,2024.2.4,Linux armv81,120.4819277,62989737409d018c733483c1,68817205a84113384fffdfe3,689ebfaa39df66191f3994e0,87.7888,91.1261,0,1,2.8271,0.0002,0,3,3,6,1,./stim/wavs/peruvian_statement_filler_El-nino-habla-con-su-madre.wav,0,,,,,,,,,,,,,,,,,,,,,,,,,,,,,,,,,,,,,,,,,,,,,,,,,,,,,,,,,,,,,,,,,,,,,,,,
,,,,,,,,,62989737409d018c733483c1,Spanish,13 or older,"no, only English or Spanish",yes,2025-08-15_01h04.51.126,empathy_intonation_perc_control,2024.2.4,Linux armv81,120.4819277,62989737409d018c733483c1,68817205a84113384fffdfe3,689ebfaa39df66191f3994e0,91.1267,94.2634,0,1,2.6255,0.0007,0,4,4,5,1,./stim/wavs/andalusian_statement_filler_Alberto-nunca-se-afeita.wav,0,,,,,,,,,,,,,,,,,,,,,,,,,,,,,,,,,,,,,,,,,,,,,,,,,,,,,,,,,,,,,,,,,,,,,,,,
,,,,,,,,,62989737409d018c733483c1,Spanish,13 or older,"no, only English or Spanish",yes,2025-08-15_01h04.51.126,empathy_intonation_perc_control,2024.2.4,Linux armv81,120.4819277,62989737409d018c733483c1,68817205a84113384fffdfe3,689ebfaa39df66191f3994e0,94.2647,96.9686,1,1,2.19,0.0002,0,5,5,2,1,./stim/wavs/chilean_question_filler_Mi-padre-cantaba-bien.wav,1,,,,,,,,,,,,,,,,,,,,,,,,,,,,,,,,,,,,,,,,,,,,,,,,,,,,,,,,,,,,,,,,,,,,,,,,
,,,,,,,,,62989737409d018c733483c1,Spanish,13 or older,"no, only English or Spanish",yes,2025-08-15_01h04.51.126,empathy_intonation_perc_control,2024.2.4,Linux armv81,120.4819277,62989737409d018c733483c1,68817205a84113384fffdfe3,689ebfaa39df66191f3994e0,96.9694,99.9202,1,1,2.4391,0.0001,0,6,6,0,1,./stim/wavs/castilian_question_filler_Mi-esposo-conoce-al-chico.wav,1,,,,,,,,,,,,,,,,,,,,,,,,,,,,,,,,,,,,,,,,,,,,,,,,,,,,,,,,,,,,,,,,,,,,,,,,
,,,,,,,,,62989737409d018c733483c1,Spanish,13 or older,"no, only English or Spanish",yes,2025-08-15_01h04.51.126,empathy_intonation_perc_control,2024.2.4,Linux armv81,120.4819277,62989737409d018c733483c1,68817205a84113384fffdfe3,689ebfaa39df66191f3994e0,99.9217,102.6013,1,1,2.172,0.0003,0,7,7,1,1,./stim/wavs/argentine_question_filler_Mi-vecino-habla-mucho.wav,1,,,,,,,,,,,,,,,,,,,,,,,,,,,,,,,,,,,,,,,,,,,,,,,,,,,,,,,,,,,,,,,,,,,,,,,,
,,,,,,,,,62989737409d018c733483c1,Spanish,13 or older,"no, only English or Spanish",yes,2025-08-15_01h04.51.126,empathy_intonation_perc_control,2024.2.4,Linux armv81,120.4819277,62989737409d018c733483c1,68817205a84113384fffdfe3,689ebfaa39df66191f3994e0,,,,,,,,,,,,,,102.6027,108.0842,,,,,,,,,,,,,,,,,,,,,,,,,,,,,,,,,,,,,,,,,,,,,,,,,,,,,,,,,,,,,,,,,,,,,,
,,,,,,,,,62989737409d018c733483c1,Spanish,13 or older,"no, only English or Spanish",yes,2025-08-15_01h04.51.126,empathy_intonation_perc_control,2024.2.4,Linux armv81,120.4819277,62989737409d018c733483c1,68817205a84113384fffdfe3,689ebfaa39df66191f3994e0,,,,,,,,,,,,./stim/wavs/puertorican_match_interrogative-total-yn_Manuela-vende-el-carro.wav,1,,,108.0994,110.9464,0,0,2.3326,0.0002,0,0,0,22,1,23,1,puertorican,,,,,,,,,,,,,,,,,,,,,,,,,,,,,,,,,,,,,,,,,,,,,,,,,,,,,,,,
,,,,,,,,,62989737409d018c733483c1,Spanish,13 or older,"no, only English or Spanish",yes,2025-08-15_01h04.51.126,empathy_intonation_perc_control,2024.2.4,Linux armv81,120.4819277,62989737409d018c733483c1,68817205a84113384fffdfe3,689ebfaa39df66191f3994e0,,,,,,,,,,,,./stim/wavs/puertorican_mismatch_declarative-broad-focus_El-bebe-comia-muy-bien.wav,0,,,110.9473,113.6669,0,1,2.2104,0.0002,0,1,1,83,1,84,0,puertorican,,,,,,,,,,,,,,,,,,,,,,,,,,,,,,,,,,,,,,,,,,,,,,,,,,,,,,,,
,,,,,,,,,62989737409d018c733483c1,Spanish,13 or older,"no, only English or Spanish",yes,2025-08-15_01h04.51.126,empathy_intonation_perc_control,2024.2.4,Linux armv81,120.4819277,62989737409d018c733483c1,68817205a84113384fffdfe3,689ebfaa39df66191f3994e0,,,,,,,,,,,,./stim/wavs/puertorican_match_declarative-broad-focus_Maria-bebe-el-vino.wav,0,,,113.668,116.1896,0,1,2.0087,0.0003,0,2,2,67,1,68,0,puertorican,,,,,,,,,,,,,,,,,,,,,,,,,,,,,,,,,,,,,,,,,,,,,,,,,,,,,,,,
,,,,,,,,,62989737409d018c733483c1,Spanish,13 or older,"no, only English or Spanish",yes,2025-08-15_01h04.51.126,empathy_intonation_perc_control,2024.2.4,Linux armv81,120.4819277,62989737409d018c733483c1,68817205a84113384fffdfe3,689ebfaa39df66191f3994e0,,,,,,,,,,,,./stim/wavs/puertorican_match_declarative-broad-focus_David-leia-el-libro.wav,0,,,116.1904,119.1187,0,1,2.4167,0.0006,0,3,3,64,1,65,0,puertorican,,,,,,,,,,,,,,,,,,,,,,,,,,,,,,,,,,,,,,,,,,,,,,,,,,,,,,,,
,,,,,,,,,62989737409d018c733483c1,Spanish,13 or older,"no, only English or Spanish",yes,2025-08-15_01h04.51.126,empathy_intonation_perc_control,2024.2.4,Linux armv81,120.4819277,62989737409d018c733483c1,68817205a84113384fffdfe3,689ebfaa39df66191f3994e0,,,,,,,,,,,,./stim/wavs/puertorican_match_declarative-broad-focus_Ana-lleva-el-abrigo.wav,0,,,119.1196,121.6606,0,1,2.0284,,0,4,4,62,1,63,0,puertorican,,,,,,,,,,,,,,,,,,,,,,,,,,,,,,,,,,,,,,,,,,,,,,,,,,,,,,,,
,,,,,,,,,62989737409d018c733483c1,Spanish,13 or older,"no, only English or Spanish",yes,2025-08-15_01h04.51.126,empathy_intonation_perc_control,2024.2.4,Linux armv81,120.4819277,62989737409d018c733483c1,68817205a84113384fffdfe3,689ebfaa39df66191f3994e0,,,,,,,,,,,,./stim/wavs/castilian_match_declarative-broad-focus_Mariano-habla-del-tiempo.wav,0,,,121.6615,124.5399,1,0,2.3715,0.0001,0,5,5,48,1,49,0,castilian,,,,,,,,,,,,,,,,,,,,,,,,,,,,,,,,,,,,,,,,,,,,,,,,,,,,,,,,
,,,,,,,,,62989737409d018c733483c1,Spanish,13 or older,"no, only English or Spanish",yes,2025-08-15_01h04.51.126,empathy_intonation_perc_control,2024.2.4,Linux armv81,120.4819277,62989737409d018c733483c1,68817205a84113384fffdfe3,689ebfaa39df66191f3994e0,,,,,,,,,,,,./stim/wavs/castilian_mismatch_interrogative-total-yn_Mi-tia-odia-la-lluvia.wav,1,,,124.541,126.9362,1,1,1.8887,0.0001,0,6,6,28,1,29,0,castilian,,,,,,,,,,,,,,,,,,,,,,,,,,,,,,,,,,,,,,,,,,,,,,,,,,,,,,,,
,,,,,,,,,62989737409d018c733483c1,Spanish,13 or older,"no, only English or Spanish",yes,2025-08-15_01h04.51.126,empathy_intonation_perc_control,2024.2.4,Linux armv81,120.4819277,62989737409d018c733483c1,68817205a84113384fffdfe3,689ebfaa39df66191f3994e0,,,,,,,,,,,,./stim/wavs/cuban_match_interrogative-total-yn_Maria-bebe-el-vino.wav,1,,,126.9372,129.5815,0,0,2.1319,0.0001,0,7,7,9,1,10,1,cuban,,,,,,,,,,,,,,,,,,,,,,,,,,,,,,,,,,,,,,,,,,,,,,,,,,,,,,,,
,,,,,,,,,62989737409d018c733483c1,Spanish,13 or older,"no, only English or Spanish",yes,2025-08-15_01h04.51.126,empathy_intonation_perc_control,2024.2.4,Linux armv81,120.4819277,62989737409d018c733483c1,68817205a84113384fffdfe3,689ebfaa39df66191f3994e0,,,,,,,,,,,,./stim/wavs/castilian_match_declarative-broad-focus_Manuela-vende-el-carro.wav,0,,,129.5826,132.5063,0,1,2.413,0.0002,0,8,8,46,1,47,0,castilian,,,,,,,,,,,,,,,,,,,,,,,,,,,,,,,,,,,,,,,,,,,,,,,,,,,,,,,,
,,,,,,,,,62989737409d018c733483c1,Spanish,13 or older,"no, only English or Spanish",yes,2025-08-15_01h04.51.126,empathy_intonation_perc_control,2024.2.4,Linux armv81,120.4819277,62989737409d018c733483c1,68817205a84113384fffdfe3,689ebfaa39df66191f3994e0,,,,,,,,,,,,./stim/wavs/castilian_match_declarative-broad-focus_Maria-bebe-el-vino.wav,0,,,132.5069,134.8921,0,1,1.8787,0.0002,0,9,9,47,1,48,0,castilian,,,,,,,,,,,,,,,,,,,,,,,,,,,,,,,,,,,,,,,,,,,,,,,,,,,,,,,,
,,,,,,,,,62989737409d018c733483c1,Spanish,13 or older,"no, only English or Spanish",yes,2025-08-15_01h04.51.126,empathy_intonation_perc_control,2024.2.4,Linux armv81,120.4819277,62989737409d018c733483c1,68817205a84113384fffdfe3,689ebfaa39df66191f3994e0,,,,,,,,,,,,./stim/wavs/cuban_mismatch_declarative-broad-focus_El-hombre-mira-la-luna.wav,0,,,134.8927,137.6902,0,1,2.2884,0.0003,0,10,10,74,1,75,0,cuban,,,,,,,,,,,,,,,,,,,,,,,,,,,,,,,,,,,,,,,,,,,,,,,,,,,,,,,,
,,,,,,,,,62989737409d018c733483c1,Spanish,13 or older,"no, only English or Spanish",yes,2025-08-15_01h04.51.126,empathy_intonation_perc_control,2024.2.4,Linux armv81,120.4819277,62989737409d018c733483c1,68817205a84113384fffdfe3,689ebfaa39df66191f3994e0,,,,,,,,,,,,./stim/wavs/castilian_match_interrogative-total-yn_Maria-bebe-el-vino.wav,1,,,137.691,140.5119,1,1,2.3126,0.0001,0,11,11,3,1,4,0,castilian,,,,,,,,,,,,,,,,,,,,,,,,,,,,,,,,,,,,,,,,,,,,,,,,,,,,,,,,
,,,,,,,,,62989737409d018c733483c1,Spanish,13 or older,"no, only English or Spanish",yes,2025-08-15_01h04.51.126,empathy_intonation_perc_control,2024.2.4,Linux armv81,120.4819277,62989737409d018c733483c1,68817205a84113384fffdfe3,689ebfaa39df66191f3994e0,,,,,,,,,,,,./stim/wavs/mexican_match_declarative-broad-focus_Marta-abre-el-regalo.wav,0,,,140.513,143.0576,0,1,2.0324,0.0001,0,12,12,61,1,62,0,mexican,,,,,,,,,,,,,,,,,,,,,,,,,,,,,,,,,,,,,,,,,,,,,,,,,,,,,,,,
,,,,,,,,,62989737409d018c733483c1,Spanish,13 or older,"no, only English or Spanish",yes,2025-08-15_01h04.51.126,empathy_intonation_perc_control,2024.2.4,Linux armv81,120.4819277,62989737409d018c733483c1,68817205a84113384fffdfe3,689ebfaa39df66191f3994e0,,,,,,,,,,,,./stim/wavs/cuban_match_declarative-broad-focus_Daniel-iba-a-Bolivia.wav,0,,,143.058,146.2168,1,0,2.6475,0.0019,0,13,13,51,1,52,0,cuban,,,,,,,,,,,,,,,,,,,,,,,,,,,,,,,,,,,,,,,,,,,,,,,,,,,,,,,,
,,,,,,,,,62989737409d018c733483c1,Spanish,13 or older,"no, only English or Spanish",yes,2025-08-15_01h04.51.126,empathy_intonation_perc_control,2024.2.4,Linux armv81,120.4819277,62989737409d018c733483c1,68817205a84113384fffdfe3,689ebfaa39df66191f3994e0,,,,,,,,,,,,./stim/wavs/mexican_mismatch_interrogative-total-yn_El-nino-oye-el-rio.wav,1,,,146.2175,148.8826,1,1,2.1583,0.0002,0,14,14,35,1,36,0,mexican,,,,,,,,,,,,,,,,,,,,,,,,,,,,,,,,,,,,,,,,,,,,,,,,,,,,,,,,
,,,,,,,,,62989737409d018c733483c1,Spanish,13 or older,"no, only English or Spanish",yes,2025-08-15_01h04.51.126,empathy_intonation_perc_control,2024.2.4,Linux armv81,120.4819277,62989737409d018c733483c1,68817205a84113384fffdfe3,689ebfaa39df66191f3994e0,,,,,,,,,,,,./stim/wavs/cuban_match_interrogative-total-yn_Manuela-vende-el-carro.wav,1,,,148.8831,151.3652,0,0,1.9677,0.0003,0,15,15,8,1,9,1,cuban,,,,,,,,,,,,,,,,,,,,,,,,,,,,,,,,,,,,,,,,,,,,,,,,,,,,,,,,
,,,,,,,,,62989737409d018c733483c1,Spanish,13 or older,"no, only English or Spanish",yes,2025-08-15_01h04.51.126,empathy_intonation_perc_control,2024.2.4,Linux armv81,120.4819277,62989737409d018c733483c1,68817205a84113384fffdfe3,689ebfaa39df66191f3994e0,,,,,,,,,,,,./stim/wavs/mexican_match_interrogative-total-yn_David-leia-el-libro.wav,1,,,151.3659,153.9697,1,1,2.0899,0.0001,0,16,16,14,1,15,0,mexican,,,,,,,,,,,,,,,,,,,,,,,,,,,,,,,,,,,,,,,,,,,,,,,,,,,,,,,,
,,,,,,,,,62989737409d018c733483c1,Spanish,13 or older,"no, only English or Spanish",yes,2025-08-15_01h04.51.126,empathy_intonation_perc_control,2024.2.4,Linux armv81,120.4819277,62989737409d018c733483c1,68817205a84113384fffdfe3,689ebfaa39df66191f3994e0,,,,,,,,,,,,./stim/wavs/castilian_match_declarative-broad-focus_Emilio-ama-la-marcha.wav,0,,,153.9713,156.6441,0,1,2.1626,0.0001,0,17,17,45,1,46,0,castilian,,,,,,,,,,,,,,,,,,,,,,,,,,,,,,,,,,,,,,,,,,,,,,,,,,,,,,,,
,,,,,,,,,62989737409d018c733483c1,Spanish,13 or older,"no, only English or Spanish",yes,2025-08-15_01h04.51.126,empathy_intonation_perc_control,2024.2.4,Linux armv81,120.4819277,62989737409d018c733483c1,68817205a84113384fffdfe3,689ebfaa39df66191f3994e0,,,,,,,,,,,,./stim/wavs/puertorican_match_interrogative-total-yn_Daniel-iba-a-Bolivia.wav,1,,,156.6448,159.2394,1,1,2.0847,0.0003,0,18,18,19,1,20,1,puertorican,,,,,,,,,,,,,,,,,,,,,,,,,,,,,,,,,,,,,,,,,,,,,,,,,,,,,,,,
,,,,,,,,,62989737409d018c733483c1,Spanish,13 or older,"no, only English or Spanish",yes,2025-08-15_01h04.51.126,empathy_intonation_perc_control,2024.2.4,Linux armv81,120.4819277,62989737409d018c733483c1,68817205a84113384fffdfe3,689ebfaa39df66191f3994e0,,,,,,,,,,,,./stim/wavs/puertorican_match_interrogative-total-yn_Emilio-ama-la-marcha.wav,1,,,159.2401,161.9271,0,0,2.1753,0.0002,0,19,19,21,1,22,1,puertorican,,,,,,,,,,,,,,,,,,,,,,,,,,,,,,,,,,,,,,,,,,,,,,,,,,,,,,,,
,,,,,,,,,62989737409d018c733483c1,Spanish,13 or older,"no, only English or Spanish",yes,2025-08-15_01h04.51.126,empathy_intonation_perc_control,2024.2.4,Linux armv81,120.4819277,62989737409d018c733483c1,68817205a84113384fffdfe3,689ebfaa39df66191f3994e0,,,,,,,,,,,,./stim/wavs/cuban_match_declarative-broad-focus_Mariano-habla-del-tiempo.wav,0,,,161.9278,164.8395,0,1,2.3986,0.0002,0,20,20,54,1,55,0,cuban,,,,,,,,,,,,,,,,,,,,,,,,,,,,,,,,,,,,,,,,,,,,,,,,,,,,,,,,
,,,,,,,,,62989737409d018c733483c1,Spanish,13 or older,"no, only English or Spanish",yes,2025-08-15_01h04.51.126,empathy_intonation_perc_control,2024.2.4,Linux armv81,120.4819277,62989737409d018c733483c1,68817205a84113384fffdfe3,689ebfaa39df66191f3994e0,,,,,,,,,,,,./stim/wavs/mexican_mismatch_interrogative-total-yn_Mi-novio-viene-del-lago.wav,1,,,164.8402,168.213,0,0,2.8596,0.0001,0,21,21,37,1,38,0,mexican,,,,,,,,,,,,,,,,,,,,,,,,,,,,,,,,,,,,,,,,,,,,,,,,,,,,,,,,
,,,,,,,,,62989737409d018c733483c1,Spanish,13 or older,"no, only English or Spanish",yes,2025-08-15_01h04.51.126,empathy_intonation_perc_control,2024.2.4,Linux armv81,120.4819277,62989737409d018c733483c1,68817205a84113384fffdfe3,689ebfaa39df66191f3994e0,,,,,,,,,,,,./stim/wavs/mexican_match_declarative-broad-focus_Ana-lleva-el-abrigo.wav,0,,,168.2138,171.8838,1,0,3.158,0.0001,0,22,22,56,1,57,0,mexican,,,,,,,,,,,,,,,,,,,,,,,,,,,,,,,,,,,,,,,,,,,,,,,,,,,,,,,,
,,,,,,,,,62989737409d018c733483c1,Spanish,13 or older,"no, only English or Spanish",yes,2025-08-15_01h04.51.126,empathy_intonation_perc_control,2024.2.4,Linux armv81,120.4819277,62989737409d018c733483c1,68817205a84113384fffdfe3,689ebfaa39df66191f3994e0,,,,,,,,,,,,./stim/wavs/puertorican_mismatch_interrogative-total-yn_La-maestra-vive-en-Paris.wav,1,,,171.8844,174.595,0,0,2.1999,0.0002,0,23,23,41,1,42,1,puertorican,,,,,,,,,,,,,,,,,,,,,,,,,,,,,,,,,,,,,,,,,,,,,,,,,,,,,,,,
,,,,,,,,,62989737409d018c733483c1,Spanish,13 or older,"no, only English or Spanish",yes,2025-08-15_01h04.51.126,empathy_intonation_perc_control,2024.2.4,Linux armv81,120.4819277,62989737409d018c733483c1,68817205a84113384fffdfe3,689ebfaa39df66191f3994e0,,,,,,,,,,,,./stim/wavs/castilian_mismatch_declarative-broad-focus_La-nina-lava-el-plato.wav,0,,,174.5962,177.4847,0,1,2.3756,0.0001,0,24,24,70,1,71,0,castilian,,,,,,,,,,,,,,,,,,,,,,,,,,,,,,,,,,,,,,,,,,,,,,,,,,,,,,,,
,,,,,,,,,62989737409d018c733483c1,Spanish,13 or older,"no, only English or Spanish",yes,2025-08-15_01h04.51.126,empathy_intonation_perc_control,2024.2.4,Linux armv81,120.4819277,62989737409d018c733483c1,68817205a84113384fffdfe3,689ebfaa39df66191f3994e0,,,,,,,,,,,,./stim/wavs/puertorican_match_interrogative-total-yn_Maria-bebe-el-vino.wav,1,,,177.4853,180.2335,0,0,2.236,0.0036,0,25,25,23,1,24,1,puertorican,,,,,,,,,,,,,,,,,,,,,,,,,,,,,,,,,,,,,,,,,,,,,,,,,,,,,,,,
,,,,,,,,,62989737409d018c733483c1,Spanish,13 or older,"no, only English or Spanish",yes,2025-08-15_01h04.51.126,empathy_intonation_perc_control,2024.2.4,Linux armv81,120.4819277,62989737409d018c733483c1,68817205a84113384fffdfe3,689ebfaa39df66191f3994e0,,,,,,,,,,,,./stim/wavs/mexican_mismatch_declarative-broad-focus_Mi-novio-viene-del-lago.wav,0,,,180.234,182.8505,0,1,2.1086,0.0001,0,26,26,81,1,82,0,mexican,,,,,,,,,,,,,,,,,,,,,,,,,,,,,,,,,,,,,,,,,,,,,,,,,,,,,,,,
,,,,,,,,,62989737409d018c733483c1,Spanish,13 or older,"no, only English or Spanish",yes,2025-08-15_01h04.51.126,empathy_intonation_perc_control,2024.2.4,Linux armv81,120.4819277,62989737409d018c733483c1,68817205a84113384fffdfe3,689ebfaa39df66191f3994e0,,,,,,,,,,,,./stim/wavs/cuban_match_interrogative-total-yn_Daniel-iba-a-Bolivia.wav,1,,,182.851,185.5867,0,0,2.2321,0.0003,0,27,27,7,1,8,1,cuban,,,,,,,,,,,,,,,,,,,,,,,,,,,,,,,,,,,,,,,,,,,,,,,,,,,,,,,,
,,,,,,,,,62989737409d018c733483c1,Spanish,13 or older,"no, only English or Spanish",yes,2025-08-15_01h04.51.126,empathy_intonation_perc_control,2024.2.4,Linux armv81,120.4819277,62989737409d018c733483c1,68817205a84113384fffdfe3,689ebfaa39df66191f3994e0,,,,,,,,,,,,./stim/wavs/castilian_mismatch_declarative-broad-focus_El-nino-oye-el-rio.wav,0,,,185.5874,188.6965,0,1,2.5993,0.0001,0,28,28,68,1,69,0,castilian,,,,,,,,,,,,,,,,,,,,,,,,,,,,,,,,,,,,,,,,,,,,,,,,,,,,,,,,
,,,,,,,,,62989737409d018c733483c1,Spanish,13 or older,"no, only English or Spanish",yes,2025-08-15_01h04.51.126,empathy_intonation_perc_control,2024.2.4,Linux armv81,120.4819277,62989737409d018c733483c1,68817205a84113384fffdfe3,689ebfaa39df66191f3994e0,,,,,,,,,,,,./stim/wavs/castilian_match_declarative-broad-focus_Marta-abre-el-regalo.wav,0,,,188.6971,191.5264,0,1,2.316,0.0006,0,29,29,49,1,50,0,castilian,,,,,,,,,,,,,,,,,,,,,,,,,,,,,,,,,,,,,,,,,,,,,,,,,,,,,,,,
,,,,,,,,,62989737409d018c733483c1,Spanish,13 or older,"no, only English or Spanish",yes,2025-08-15_01h04.51.126,empathy_intonation_perc_control,2024.2.4,Linux armv81,120.4819277,62989737409d018c733483c1,68817205a84113384fffdfe3,689ebfaa39df66191f3994e0,,,,,,,,,,,,./stim/wavs/mexican_match_declarative-broad-focus_Mariano-habla-del-tiempo.wav,0,,,191.5274,194.231,0,1,2.1891,0.0002,0,30,30,60,1,61,0,mexican,,,,,,,,,,,,,,,,,,,,,,,,,,,,,,,,,,,,,,,,,,,,,,,,,,,,,,,,
,,,,,,,,,62989737409d018c733483c1,Spanish,13 or older,"no, only English or Spanish",yes,2025-08-15_01h04.51.126,empathy_intonation_perc_control,2024.2.4,Linux armv81,120.4819277,62989737409d018c733483c1,68817205a84113384fffdfe3,689ebfaa39df66191f3994e0,,,,,,,,,,,,./stim/wavs/castilian_mismatch_declarative-broad-focus_La-maestra-vive-en-Paris.wav,0,,,194.232,197.6541,0,1,2.9099,0.0002,0,31,31,69,1,70,0,castilian,,,,,,,,,,,,,,,,,,,,,,,,,,,,,,,,,,,,,,,,,,,,,,,,,,,,,,,,
,,,,,,,,,62989737409d018c733483c1,Spanish,13 or older,"no, only English or Spanish",yes,2025-08-15_01h04.51.126,empathy_intonation_perc_control,2024.2.4,Linux armv81,120.4819277,62989737409d018c733483c1,68817205a84113384fffdfe3,689ebfaa39df66191f3994e0,,,,,,,,,,,,./stim/wavs/cuban_match_declarative-broad-focus_Manuela-vende-el-carro.wav,0,,,197.6551,200.5437,0,1,2.3788,,0,32,32,52,1,53,0,cuban,,,,,,,,,,,,,,,,,,,,,,,,,,,,,,,,,,,,,,,,,,,,,,,,,,,,,,,,
,,,,,,,,,62989737409d018c733483c1,Spanish,13 or older,"no, only English or Spanish",yes,2025-08-15_01h04.51.126,empathy_intonation_perc_control,2024.2.4,Linux armv81,120.4819277,62989737409d018c733483c1,68817205a84113384fffdfe3,689ebfaa39df66191f3994e0,,,,,,,,,,,,./stim/wavs/cuban_match_declarative-broad-focus_Maria-bebe-el-vino.wav,0,,,200.5449,203.571,1,0,2.5152,0.0001,0,33,33,53,1,54,0,cuban,,,,,,,,,,,,,,,,,,,,,,,,,,,,,,,,,,,,,,,,,,,,,,,,,,,,,,,,
,,,,,,,,,62989737409d018c733483c1,Spanish,13 or older,"no, only English or Spanish",yes,2025-08-15_01h04.51.126,empathy_intonation_perc_control,2024.2.4,Linux armv81,120.4819277,62989737409d018c733483c1,68817205a84113384fffdfe3,689ebfaa39df66191f3994e0,,,,,,,,,,,,./stim/wavs/cuban_mismatch_interrogative-total-yn_El-hombre-mira-la-luna.wav,1,,,203.5719,207.3691,0,0,3.286,0.0002,0,34,34,29,1,30,1,cuban,,,,,,,,,,,,,,,,,,,,,,,,,,,,,,,,,,,,,,,,,,,,,,,,,,,,,,,,
,,,,,,,,,62989737409d018c733483c1,Spanish,13 or older,"no, only English or Spanish",yes,2025-08-15_01h04.51.126,empathy_intonation_perc_control,2024.2.4,Linux armv81,120.4819277,62989737409d018c733483c1,68817205a84113384fffdfe3,689ebfaa39df66191f3994e0,,,,,,,,,,,,./stim/wavs/mexican_mismatch_interrogative-total-yn_El-hombre-mira-la-luna.wav,1,,,207.3704,210.447,0,0,2.5696,0.0003,0,35,35,34,1,35,0,mexican,,,,,,,,,,,,,,,,,,,,,,,,,,,,,,,,,,,,,,,,,,,,,,,,,,,,,,,,
,,,,,,,,,62989737409d018c733483c1,Spanish,13 or older,"no, only English or Spanish",yes,2025-08-15_01h04.51.126,empathy_intonation_perc_control,2024.2.4,Linux armv81,120.4819277,62989737409d018c733483c1,68817205a84113384fffdfe3,689ebfaa39df66191f3994e0,,,,,,,,,,,,./stim/wavs/cuban_match_declarative-broad-focus_Marta-abre-el-regalo.wav,0,,,210.4477,213.2059,0,1,2.2452,0.0009,0,36,36,55,1,56,0,cuban,,,,,,,,,,,,,,,,,,,,,,,,,,,,,,,,,,,,,,,,,,,,,,,,,,,,,,,,
,,,,,,,,,62989737409d018c733483c1,Spanish,13 or older,"no, only English or Spanish",yes,2025-08-15_01h04.51.126,empathy_intonation_perc_control,2024.2.4,Linux armv81,120.4819277,62989737409d018c733483c1,68817205a84113384fffdfe3,689ebfaa39df66191f3994e0,,,,,,,,,,,,./stim/wavs/mexican_match_declarative-broad-focus_Daniel-iba-a-Bolivia.wav,0,,,213.2065,216.3989,1,0,2.6851,0.0001,0,37,37,57,1,58,0,mexican,,,,,,,,,,,,,,,,,,,,,,,,,,,,,,,,,,,,,,,,,,,,,,,,,,,,,,,,
,,,,,,,,,62989737409d018c733483c1,Spanish,13 or older,"no, only English or Spanish",yes,2025-08-15_01h04.51.126,empathy_intonation_perc_control,2024.2.4,Linux armv81,120.4819277,62989737409d018c733483c1,68817205a84113384fffdfe3,689ebfaa39df66191f3994e0,,,,,,,,,,,,./stim/wavs/cuban_mismatch_declarative-broad-focus_Mi-novio-viene-del-lago.wav,0,,,216.3995,219.4963,0,1,2.5842,0.0002,0,38,38,76,1,77,0,cuban,,,,,,,,,,,,,,,,,,,,,,,,,,,,,,,,,,,,,,,,,,,,,,,,,,,,,,,,
,,,,,,,,,62989737409d018c733483c1,Spanish,13 or older,"no, only English or Spanish",yes,2025-08-15_01h04.51.126,empathy_intonation_perc_control,2024.2.4,Linux armv81,120.4819277,62989737409d018c733483c1,68817205a84113384fffdfe3,689ebfaa39df66191f3994e0,,,,,,,,,,,,./stim/wavs/castilian_mismatch_declarative-broad-focus_Mi-novio-viene-del-lago.wav,0,,,219.497,222.0292,0,1,2.0202,0.0002,0,39,39,71,1,72,0,castilian,,,,,,,,,,,,,,,,,,,,,,,,,,,,,,,,,,,,,,,,,,,,,,,,,,,,,,,,
,,,,,,,,,62989737409d018c733483c1,Spanish,13 or older,"no, only English or Spanish",yes,2025-08-15_01h04.51.126,empathy_intonation_perc_control,2024.2.4,Linux armv81,120.4819277,62989737409d018c733483c1,68817205a84113384fffdfe3,689ebfaa39df66191f3994e0,,,,,,,,,,,,./stim/wavs/cuban_mismatch_interrogative-total-yn_El-nino-oye-el-rio.wav,1,,,222.0298,224.6241,0,0,2.0873,0.0002,0,40,40,30,1,31,1,cuban,,,,,,,,,,,,,,,,,,,,,,,,,,,,,,,,,,,,,,,,,,,,,,,,,,,,,,,,
,,,,,,,,,62989737409d018c733483c1,Spanish,13 or older,"no, only English or Spanish",yes,2025-08-15_01h04.51.126,empathy_intonation_perc_control,2024.2.4,Linux armv81,120.4819277,62989737409d018c733483c1,68817205a84113384fffdfe3,689ebfaa39df66191f3994e0,,,,,,,,,,,,./stim/wavs/mexican_match_declarative-broad-focus_Emilio-ama-la-marcha.wav,0,,,224.625,227.8795,0,1,2.7465,0.0001,0,41,41,59,1,60,0,mexican,,,,,,,,,,,,,,,,,,,,,,,,,,,,,,,,,,,,,,,,,,,,,,,,,,,,,,,,
,,,,,,,,,62989737409d018c733483c1,Spanish,13 or older,"no, only English or Spanish",yes,2025-08-15_01h04.51.126,empathy_intonation_perc_control,2024.2.4,Linux armv81,120.4819277,62989737409d018c733483c1,68817205a84113384fffdfe3,689ebfaa39df66191f3994e0,,,,,,,,,,,,./stim/wavs/mexican_mismatch_declarative-broad-focus_La-maestra-vive-en-Paris.wav,0,,,227.8804,230.572,0,1,2.1831,0.0001,0,42,42,80,1,81,0,mexican,,,,,,,,,,,,,,,,,,,,,,,,,,,,,,,,,,,,,,,,,,,,,,,,,,,,,,,,
,,,,,,,,,62989737409d018c733483c1,Spanish,13 or older,"no, only English or Spanish",yes,2025-08-15_01h04.51.126,empathy_intonation_perc_control,2024.2.4,Linux armv81,120.4819277,62989737409d018c733483c1,68817205a84113384fffdfe3,689ebfaa39df66191f3994e0,,,,,,,,,,,,./stim/wavs/mexican_mismatch_declarative-broad-focus_Mi-tia-odia-la-lluvia.wav,0,,,230.5727,233.5911,1,0,2.5071,0.0002,0,43,43,82,1,83,0,mexican,,,,,,,,,,,,,,,,,,,,,,,,,,,,,,,,,,,,,,,,,,,,,,,,,,,,,,,,
,,,,,,,,,62989737409d018c733483c1,Spanish,13 or older,"no, only English or Spanish",yes,2025-08-15_01h04.51.126,empathy_intonation_perc_control,2024.2.4,Linux armv81,120.4819277,62989737409d018c733483c1,68817205a84113384fffdfe3,689ebfaa39df66191f3994e0,,,,,,,,,,,,./stim/wavs/mexican_match_interrogative-total-yn_Daniel-iba-a-Bolivia.wav,1,,,233.5918,236.9895,0,0,2.8871,0.0002,0,44,44,13,1,14,0,mexican,,,,,,,,,,,,,,,,,,,,,,,,,,,,,,,,,,,,,,,,,,,,,,,,,,,,,,,,
,,,,,,,,,62989737409d018c733483c1,Spanish,13 or older,"no, only English or Spanish",yes,2025-08-15_01h04.51.126,empathy_intonation_perc_control,2024.2.4,Linux armv81,120.4819277,62989737409d018c733483c1,68817205a84113384fffdfe3,689ebfaa39df66191f3994e0,,,,,,,,,,,,./stim/wavs/puertorican_match_interrogative-total-yn_Ana-lleva-el-abrigo.wav,1,,,236.9901,239.5809,0,0,2.0788,0.0002,0,45,45,18,1,19,1,puertorican,,,,,,,,,,,,,,,,,,,,,,,,,,,,,,,,,,,,,,,,,,,,,,,,,,,,,,,,
,,,,,,,,,62989737409d018c733483c1,Spanish,13 or older,"no, only English or Spanish",yes,2025-08-15_01h04.51.126,empathy_intonation_perc_control,2024.2.4,Linux armv81,120.4819277,62989737409d018c733483c1,68817205a84113384fffdfe3,689ebfaa39df66191f3994e0,,,,,,,,,,,,./stim/wavs/castilian_match_declarative-broad-focus_David-leia-el-libro.wav,0,,,239.5817,242.7928,0,1,2.6989,0.0001,0,46,46,44,1,45,0,castilian,,,,,,,,,,,,,,,,,,,,,,,,,,,,,,,,,,,,,,,,,,,,,,,,,,,,,,,,
,,,,,,,,,62989737409d018c733483c1,Spanish,13 or older,"no, only English or Spanish",yes,2025-08-15_01h04.51.126,empathy_intonation_perc_control,2024.2.4,Linux armv81,120.4819277,62989737409d018c733483c1,68817205a84113384fffdfe3,689ebfaa39df66191f3994e0,,,,,,,,,,,,./stim/wavs/cuban_mismatch_interrogative-total-yn_Mi-novio-viene-del-lago.wav,1,,,242.7948,245.6174,0,0,2.3144,0.0001,0,47,47,32,1,33,1,cuban,,,,,,,,,,,,,,,,,,,,,,,,,,,,,,,,,,,,,,,,,,,,,,,,,,,,,,,,
,,,,,,,,,62989737409d018c733483c1,Spanish,13 or older,"no, only English or Spanish",yes,2025-08-15_01h04.51.126,empathy_intonation_perc_control,2024.2.4,Linux armv81,120.4819277,62989737409d018c733483c1,68817205a84113384fffdfe3,689ebfaa39df66191f3994e0,,,,,,,,,,,,./stim/wavs/cuban_mismatch_declarative-broad-focus_El-bebe-comia-muy-bien.wav,0,,,245.618,248.5104,1,0,2.3804,0.0006,0,48,48,73,1,74,0,cuban,,,,,,,,,,,,,,,,,,,,,,,,,,,,,,,,,,,,,,,,,,,,,,,,,,,,,,,,
,,,,,,,,,62989737409d018c733483c1,Spanish,13 or older,"no, only English or Spanish",yes,2025-08-15_01h04.51.126,empathy_intonation_perc_control,2024.2.4,Linux armv81,120.4819277,62989737409d018c733483c1,68817205a84113384fffdfe3,689ebfaa39df66191f3994e0,,,,,,,,,,,,./stim/wavs/mexican_match_interrogative-total-yn_Emilio-ama-la-marcha.wav,1,,,248.5114,251.3903,0,0,2.3668,0.0001,0,49,49,15,1,16,0,mexican,,,,,,,,,,,,,,,,,,,,,,,,,,,,,,,,,,,,,,,,,,,,,,,,,,,,,,,,
,,,,,,,,,62989737409d018c733483c1,Spanish,13 or older,"no, only English or Spanish",yes,2025-08-15_01h04.51.126,empathy_intonation_perc_control,2024.2.4,Linux armv81,120.4819277,62989737409d018c733483c1,68817205a84113384fffdfe3,689ebfaa39df66191f3994e0,,,,,,,,,,,,./stim/wavs/castilian_match_interrogative-total-yn_Marta-abre-el-regalo.wav,1,,,251.3913,255.6656,1,1,3.7637,0.0002,0,50,50,5,1,6,0,castilian,,,,,,,,,,,,,,,,,,,,,,,,,,,,,,,,,,,,,,,,,,,,,,,,,,,,,,,,
,,,,,,,,,62989737409d018c733483c1,Spanish,13 or older,"no, only English or Spanish",yes,2025-08-15_01h04.51.126,empathy_intonation_perc_control,2024.2.4,Linux armv81,120.4819277,62989737409d018c733483c1,68817205a84113384fffdfe3,689ebfaa39df66191f3994e0,,,,,,,,,,,,./stim/wavs/mexican_match_interrogative-total-yn_Ana-lleva-el-abrigo.wav,1,,,255.6672,258.9354,0,0,2.7617,0.0001,0,51,51,12,1,13,0,mexican,,,,,,,,,,,,,,,,,,,,,,,,,,,,,,,,,,,,,,,,,,,,,,,,,,,,,,,,
,,,,,,,,,62989737409d018c733483c1,Spanish,13 or older,"no, only English or Spanish",yes,2025-08-15_01h04.51.126,empathy_intonation_perc_control,2024.2.4,Linux armv81,120.4819277,62989737409d018c733483c1,68817205a84113384fffdfe3,689ebfaa39df66191f3994e0,,,,,,,,,,,,./stim/wavs/cuban_mismatch_declarative-broad-focus_La-nina-lava-el-plato.wav,0,,,258.9362,261.7878,0,1,2.3432,0.0002,0,52,52,75,1,76,0,cuban,,,,,,,,,,,,,,,,,,,,,,,,,,,,,,,,,,,,,,,,,,,,,,,,,,,,,,,,
,,,,,,,,,62989737409d018c733483c1,Spanish,13 or older,"no, only English or Spanish",yes,2025-08-15_01h04.51.126,empathy_intonation_perc_control,2024.2.4,Linux armv81,120.4819277,62989737409d018c733483c1,68817205a84113384fffdfe3,689ebfaa39df66191f3994e0,,,,,,,,,,,,./stim/wavs/puertorican_match_declarative-broad-focus_Emilio-ama-la-marcha.wav,0,,,261.7887,264.3149,0,1,2.0152,0.0006,0,53,53,65,1,66,0,puertorican,,,,,,,,,,,,,,,,,,,,,,,,,,,,,,,,,,,,,,,,,,,,,,,,,,,,,,,,
,,,,,,,,,62989737409d018c733483c1,Spanish,13 or older,"no, only English or Spanish",yes,2025-08-15_01h04.51.126,empathy_intonation_perc_control,2024.2.4,Linux armv81,120.4819277,62989737409d018c733483c1,68817205a84113384fffdfe3,689ebfaa39df66191f3994e0,,,,,,,,,,,,./stim/wavs/castilian_mismatch_interrogative-total-yn_Mi-novio-viene-del-lago.wav,1,,,264.3155,267.5399,0,0,2.7157,0.0001,0,54,54,27,1,28,0,castilian,,,,,,,,,,,,,,,,,,,,,,,,,,,,,,,,,,,,,,,,,,,,,,,,,,,,,,,,
,,,,,,,,,62989737409d018c733483c1,Spanish,13 or older,"no, only English or Spanish",yes,2025-08-15_01h04.51.126,empathy_intonation_perc_control,2024.2.4,Linux armv81,120.4819277,62989737409d018c733483c1,68817205a84113384fffdfe3,689ebfaa39df66191f3994e0,,,,,,,,,,,,./stim/wavs/puertorican_match_interrogative-total-yn_David-leia-el-libro.wav,1,,,267.5406,270.2625,0,0,2.2125,0.0002,0,55,55,20,1,21,1,puertorican,,,,,,,,,,,,,,,,,,,,,,,,,,,,,,,,,,,,,,,,,,,,,,,,,,,,,,,,
,,,,,,,,,62989737409d018c733483c1,Spanish,13 or older,"no, only English or Spanish",yes,2025-08-15_01h04.51.126,empathy_intonation_perc_control,2024.2.4,Linux armv81,120.4819277,62989737409d018c733483c1,68817205a84113384fffdfe3,689ebfaa39df66191f3994e0,,,,,,,,,,,,./stim/wavs/castilian_match_interrogative-total-yn_Manuela-vende-el-carro.wav,1,,,270.2631,273.0592,0,0,2.2809,0.0002,0,56,56,2,1,3,0,castilian,,,,,,,,,,,,,,,,,,,,,,,,,,,,,,,,,,,,,,,,,,,,,,,,,,,,,,,,
,,,,,,,,,62989737409d018c733483c1,Spanish,13 or older,"no, only English or Spanish",yes,2025-08-15_01h04.51.126,empathy_intonation_perc_control,2024.2.4,Linux armv81,120.4819277,62989737409d018c733483c1,68817205a84113384fffdfe3,689ebfaa39df66191f3994e0,,,,,,,,,,,,./stim/wavs/cuban_match_interrogative-total-yn_Mariano-habla-del-tiempo.wav,1,,,273.0599,276.2573,1,1,2.6876,0.0007,0,57,57,10,1,11,1,cuban,,,,,,,,,,,,,,,,,,,,,,,,,,,,,,,,,,,,,,,,,,,,,,,,,,,,,,,,
,,,,,,,,,62989737409d018c733483c1,Spanish,13 or older,"no, only English or Spanish",yes,2025-08-15_01h04.51.126,empathy_intonation_perc_control,2024.2.4,Linux armv81,120.4819277,62989737409d018c733483c1,68817205a84113384fffdfe3,689ebfaa39df66191f3994e0,,,,,,,,,,,,./stim/wavs/castilian_mismatch_interrogative-total-yn_La-nina-lava-el-plato.wav,1,,,276.2581,278.7682,0,0,2.0032,0.0003,0,58,58,25,1,26,0,castilian,,,,,,,,,,,,,,,,,,,,,,,,,,,,,,,,,,,,,,,,,,,,,,,,,,,,,,,,
,,,,,,,,,62989737409d018c733483c1,Spanish,13 or older,"no, only English or Spanish",yes,2025-08-15_01h04.51.126,empathy_intonation_perc_control,2024.2.4,Linux armv81,120.4819277,62989737409d018c733483c1,68817205a84113384fffdfe3,689ebfaa39df66191f3994e0,,,,,,,,,,,,./stim/wavs/cuban_match_declarative-broad-focus_Ana-lleva-el-abrigo.wav,0,,,278.7696,281.422,1,0,2.1388,0.0002,0,59,59,50,1,51,0,cuban,,,,,,,,,,,,,,,,,,,,,,,,,,,,,,,,,,,,,,,,,,,,,,,,,,,,,,,,
,,,,,,,,,62989737409d018c733483c1,Spanish,13 or older,"no, only English or Spanish",yes,2025-08-15_01h04.51.126,empathy_intonation_perc_control,2024.2.4,Linux armv81,120.4819277,62989737409d018c733483c1,68817205a84113384fffdfe3,689ebfaa39df66191f3994e0,,,,,,,,,,,,./stim/wavs/cuban_mismatch_declarative-broad-focus_Mi-tia-odia-la-lluvia.wav,0,,,281.4228,284.5537,1,0,2.6184,0.0002,0,60,60,77,1,78,0,cuban,,,,,,,,,,,,,,,,,,,,,,,,,,,,,,,,,,,,,,,,,,,,,,,,,,,,,,,,
,,,,,,,,,62989737409d018c733483c1,Spanish,13 or older,"no, only English or Spanish",yes,2025-08-15_01h04.51.126,empathy_intonation_perc_control,2024.2.4,Linux armv81,120.4819277,62989737409d018c733483c1,68817205a84113384fffdfe3,689ebfaa39df66191f3994e0,,,,,,,,,,,,./stim/wavs/cuban_mismatch_interrogative-total-yn_Mi-tia-odia-la-lluvia.wav,1,,,284.5548,287.1491,1,1,2.084,0.0002,0,61,61,33,1,34,1,cuban,,,,,,,,,,,,,,,,,,,,,,,,,,,,,,,,,,,,,,,,,,,,,,,,,,,,,,,,
,,,,,,,,,62989737409d018c733483c1,Spanish,13 or older,"no, only English or Spanish",yes,2025-08-15_01h04.51.126,empathy_intonation_perc_control,2024.2.4,Linux armv81,120.4819277,62989737409d018c733483c1,68817205a84113384fffdfe3,689ebfaa39df66191f3994e0,,,,,,,,,,,,./stim/wavs/puertorican_mismatch_declarative-broad-focus_La-nina-lava-el-plato.wav,0,,,287.1497,289.9218,0,1,2.2603,0.0001,0,62,62,87,1,88,0,puertorican,,,,,,,,,,,,,,,,,,,,,,,,,,,,,,,,,,,,,,,,,,,,,,,,,,,,,,,,
,,,,,,,,,62989737409d018c733483c1,Spanish,13 or older,"no, only English or Spanish",yes,2025-08-15_01h04.51.126,empathy_intonation_perc_control,2024.2.4,Linux armv81,120.4819277,62989737409d018c733483c1,68817205a84113384fffdfe3,689ebfaa39df66191f3994e0,,,,,,,,,,,,./stim/wavs/castilian_match_interrogative-total-yn_Mariano-habla-del-tiempo.wav,1,,,289.9224,292.7757,0,0,2.3403,0,0,63,63,4,1,5,0,castilian,,,,,,,,,,,,,,,,,,,,,,,,,,,,,,,,,,,,,,,,,,,,,,,,,,,,,,,,
,,,,,,,,,62989737409d018c733483c1,Spanish,13 or older,"no, only English or Spanish",yes,2025-08-15_01h04.51.126,empathy_intonation_perc_control,2024.2.4,Linux armv81,120.4819277,62989737409d018c733483c1,68817205a84113384fffdfe3,689ebfaa39df66191f3994e0,,,,,,,,,,,,./stim/wavs/puertorican_mismatch_interrogative-total-yn_El-nino-oye-el-rio.wav,1,,,292.7763,296.0996,1,1,2.807,0.0004,0,64,64,40,1,41,1,puertorican,,,,,,,,,,,,,,,,,,,,,,,,,,,,,,,,,,,,,,,,,,,,,,,,,,,,,,,,
,,,,,,,,,62989737409d018c733483c1,Spanish,13 or older,"no, only English or Spanish",yes,2025-08-15_01h04.51.126,empathy_intonation_perc_control,2024.2.4,Linux armv81,120.4819277,62989737409d018c733483c1,68817205a84113384fffdfe3,689ebfaa39df66191f3994e0,,,,,,,,,,,,./stim/wavs/cuban_match_interrogative-total-yn_Marta-abre-el-regalo.wav,1,,,296.1001,298.6608,0,0,2.0507,0.0001,0,65,65,11,1,12,1,cuban,,,,,,,,,,,,,,,,,,,,,,,,,,,,,,,,,,,,,,,,,,,,,,,,,,,,,,,,
,,,,,,,,,62989737409d018c733483c1,Spanish,13 or older,"no, only English or Spanish",yes,2025-08-15_01h04.51.126,empathy_intonation_perc_control,2024.2.4,Linux armv81,120.4819277,62989737409d018c733483c1,68817205a84113384fffdfe3,689ebfaa39df66191f3994e0,,,,,,,,,,,,./stim/wavs/castilian_match_interrogative-total-yn_Emilio-ama-la-marcha.wav,1,,,298.6616,301.8571,1,1,2.6803,0.0002,0,66,66,1,1,2,0,castilian,,,,,,,,,,,,,,,,,,,,,,,,,,,,,,,,,,,,,,,,,,,,,,,,,,,,,,,,
,,,,,,,,,62989737409d018c733483c1,Spanish,13 or older,"no, only English or Spanish",yes,2025-08-15_01h04.51.126,empathy_intonation_perc_control,2024.2.4,Linux armv81,120.4819277,62989737409d018c733483c1,68817205a84113384fffdfe3,689ebfaa39df66191f3994e0,,,,,,,,,,,,./stim/wavs/puertorican_mismatch_declarative-broad-focus_El-hombre-mira-la-luna.wav,0,,,301.8577,304.8219,0,1,2.4525,0.0004,0,67,67,84,1,85,0,puertorican,,,,,,,,,,,,,,,,,,,,,,,,,,,,,,,,,,,,,,,,,,,,,,,,,,,,,,,,
,,,,,,,,,62989737409d018c733483c1,Spanish,13 or older,"no, only English or Spanish",yes,2025-08-15_01h04.51.126,empathy_intonation_perc_control,2024.2.4,Linux armv81,120.4819277,62989737409d018c733483c1,68817205a84113384fffdfe3,689ebfaa39df66191f3994e0,,,,,,,,,,,,./stim/wavs/castilian_mismatch_interrogative-total-yn_Mi-madre-come-la-fruta.wav,1,,,304.8234,308.0584,0,0,2.7253,0.0001,0,68,68,26,1,27,0,castilian,,,,,,,,,,,,,,,,,,,,,,,,,,,,,,,,,,,,,,,,,,,,,,,,,,,,,,,,
,,,,,,,,,62989737409d018c733483c1,Spanish,13 or older,"no, only English or Spanish",yes,2025-08-15_01h04.51.126,empathy_intonation_perc_control,2024.2.4,Linux armv81,120.4819277,62989737409d018c733483c1,68817205a84113384fffdfe3,689ebfaa39df66191f3994e0,,,,,,,,,,,,./stim/wavs/mexican_mismatch_interrogative-total-yn_Mi-tia-odia-la-lluvia.wav,1,,,308.0589,310.7074,1,1,2.1392,0.0002,0,69,69,38,1,39,0,mexican,,,,,,,,,,,,,,,,,,,,,,,,,,,,,,,,,,,,,,,,,,,,,,,,,,,,,,,,
,,,,,,,,,62989737409d018c733483c1,Spanish,13 or older,"no, only English or Spanish",yes,2025-08-15_01h04.51.126,empathy_intonation_perc_control,2024.2.4,Linux armv81,120.4819277,62989737409d018c733483c1,68817205a84113384fffdfe3,689ebfaa39df66191f3994e0,,,,,,,,,,,,./stim/wavs/cuban_mismatch_interrogative-total-yn_Mi-madre-come-la-fruta.wav,1,,,310.708,313.8224,0,0,2.6053,0,0,70,70,31,1,32,1,cuban,,,,,,,,,,,,,,,,,,,,,,,,,,,,,,,,,,,,,,,,,,,,,,,,,,,,,,,,
,,,,,,,,,62989737409d018c733483c1,Spanish,13 or older,"no, only English or Spanish",yes,2025-08-15_01h04.51.126,empathy_intonation_perc_control,2024.2.4,Linux armv81,120.4819277,62989737409d018c733483c1,68817205a84113384fffdfe3,689ebfaa39df66191f3994e0,,,,,,,,,,,,./stim/wavs/puertorican_match_declarative-broad-focus_Daniel-iba-a-Bolivia.wav,0,,,313.8231,316.8739,0,1,2.5454,0.0002,0,71,71,63,1,64,0,puertorican,,,,,,,,,,,,,,,,,,,,,,,,,,,,,,,,,,,,,,,,,,,,,,,,,,,,,,,,
,,,,,,,,,62989737409d018c733483c1,Spanish,13 or older,"no, only English or Spanish",yes,2025-08-15_01h04.51.126,empathy_intonation_perc_control,2024.2.4,Linux armv81,120.4819277,62989737409d018c733483c1,68817205a84113384fffdfe3,689ebfaa39df66191f3994e0,,,,,,,,,,,,./stim/wavs/castilian_mismatch_declarative-broad-focus_Mi-tia-odia-la-lluvia.wav,0,,,316.8746,319.5927,0,1,2.2113,0.0001,0,72,72,72,1,73,0,castilian,,,,,,,,,,,,,,,,,,,,,,,,,,,,,,,,,,,,,,,,,,,,,,,,,,,,,,,,
,,,,,,,,,62989737409d018c733483c1,Spanish,13 or older,"no, only English or Spanish",yes,2025-08-15_01h04.51.126,empathy_intonation_perc_control,2024.2.4,Linux armv81,120.4819277,62989737409d018c733483c1,68817205a84113384fffdfe3,689ebfaa39df66191f3994e0,,,,,,,,,,,,./stim/wavs/mexican_match_declarative-broad-focus_David-leia-el-libro.wav,0,,,319.5952,322.2159,0,1,2.1089,0.0002,0,73,73,58,1,59,0,mexican,,,,,,,,,,,,,,,,,,,,,,,,,,,,,,,,,,,,,,,,,,,,,,,,,,,,,,,,
,,,,,,,,,62989737409d018c733483c1,Spanish,13 or older,"no, only English or Spanish",yes,2025-08-15_01h04.51.126,empathy_intonation_perc_control,2024.2.4,Linux armv81,120.4819277,62989737409d018c733483c1,68817205a84113384fffdfe3,689ebfaa39df66191f3994e0,,,,,,,,,,,,./stim/wavs/mexican_mismatch_declarative-broad-focus_El-bebe-comia-muy-bien.wav,0,,,322.217,324.9988,0,1,2.2672,0.0002,0,74,74,78,1,79,0,mexican,,,,,,,,,,,,,,,,,,,,,,,,,,,,,,,,,,,,,,,,,,,,,,,,,,,,,,,,
,,,,,,,,,62989737409d018c733483c1,Spanish,13 or older,"no, only English or Spanish",yes,2025-08-15_01h04.51.126,empathy_intonation_perc_control,2024.2.4,Linux armv81,120.4819277,62989737409d018c733483c1,68817205a84113384fffdfe3,689ebfaa39df66191f3994e0,,,,,,,,,,,,./stim/wavs/puertorican_match_declarative-broad-focus_Manuela-vende-el-carro.wav,0,,,324.9995,327.4872,0,1,1.9766,0.0001,0,75,75,66,1,67,0,puertorican,,,,,,,,,,,,,,,,,,,,,,,,,,,,,,,,,,,,,,,,,,,,,,,,,,,,,,,,
,,,,,,,,,62989737409d018c733483c1,Spanish,13 or older,"no, only English or Spanish",yes,2025-08-15_01h04.51.126,empathy_intonation_perc_control,2024.2.4,Linux armv81,120.4819277,62989737409d018c733483c1,68817205a84113384fffdfe3,689ebfaa39df66191f3994e0,,,,,,,,,,,,./stim/wavs/cuban_match_interrogative-total-yn_Ana-lleva-el-abrigo.wav,1,,,327.4886,330.6852,0,0,2.6827,0.0016,0,76,76,6,1,7,1,cuban,,,,,,,,,,,,,,,,,,,,,,,,,,,,,,,,,,,,,,,,,,,,,,,,,,,,,,,,
,,,,,,,,,62989737409d018c733483c1,Spanish,13 or older,"no, only English or Spanish",yes,2025-08-15_01h04.51.126,empathy_intonation_perc_control,2024.2.4,Linux armv81,120.4819277,62989737409d018c733483c1,68817205a84113384fffdfe3,689ebfaa39df66191f3994e0,,,,,,,,,,,,./stim/wavs/puertorican_mismatch_declarative-broad-focus_El-nino-oye-el-rio.wav,0,,,330.6871,333.1204,0,1,1.9215,0.0003,0,77,77,85,1,86,0,puertorican,,,,,,,,,,,,,,,,,,,,,,,,,,,,,,,,,,,,,,,,,,,,,,,,,,,,,,,,
,,,,,,,,,62989737409d018c733483c1,Spanish,13 or older,"no, only English or Spanish",yes,2025-08-15_01h04.51.126,empathy_intonation_perc_control,2024.2.4,Linux armv81,120.4819277,62989737409d018c733483c1,68817205a84113384fffdfe3,689ebfaa39df66191f3994e0,,,,,,,,,,,,./stim/wavs/castilian_mismatch_interrogative-total-yn_La-maestra-vive-en-Paris.wav,1,,,333.1215,336.9252,0,0,3.2904,0.0002,0,78,78,24,1,25,0,castilian,,,,,,,,,,,,,,,,,,,,,,,,,,,,,,,,,,,,,,,,,,,,,,,,,,,,,,,,
,,,,,,,,,62989737409d018c733483c1,Spanish,13 or older,"no, only English or Spanish",yes,2025-08-15_01h04.51.126,empathy_intonation_perc_control,2024.2.4,Linux armv81,120.4819277,62989737409d018c733483c1,68817205a84113384fffdfe3,689ebfaa39df66191f3994e0,,,,,,,,,,,,./stim/wavs/puertorican_mismatch_interrogative-total-yn_El-hombre-mira-la-luna.wav,1,,,336.9261,339.6227,1,1,2.1868,0.0002,0,79,79,39,1,40,1,puertorican,,,,,,,,,,,,,,,,,,,,,,,,,,,,,,,,,,,,,,,,,,,,,,,,,,,,,,,,
,,,,,,,,,62989737409d018c733483c1,Spanish,13 or older,"no, only English or Spanish",yes,2025-08-15_01h04.51.126,empathy_intonation_perc_control,2024.2.4,Linux armv81,120.4819277,62989737409d018c733483c1,68817205a84113384fffdfe3,689ebfaa39df66191f3994e0,,,,,,,,,,,,./stim/wavs/castilian_match_interrogative-total-yn_David-leia-el-libro.wav,1,,,339.6232,342.3446,0,0,2.2119,0.0001,0,80,80,0,1,1,0,castilian,,,,,,,,,,,,,,,,,,,,,,,,,,,,,,,,,,,,,,,,,,,,,,,,,,,,,,,,
,,,,,,,,,62989737409d018c733483c1,Spanish,13 or older,"no, only English or Spanish",yes,2025-08-15_01h04.51.126,empathy_intonation_perc_control,2024.2.4,Linux armv81,120.4819277,62989737409d018c733483c1,68817205a84113384fffdfe3,689ebfaa39df66191f3994e0,,,,,,,,,,,,./stim/wavs/mexican_match_interrogative-total-yn_Marta-abre-el-regalo.wav,1,,,342.3454,345.2176,1,1,2.3588,0.0004,0,81,81,17,1,18,0,mexican,,,,,,,,,,,,,,,,,,,,,,,,,,,,,,,,,,,,,,,,,,,,,,,,,,,,,,,,
,,,,,,,,,62989737409d018c733483c1,Spanish,13 or older,"no, only English or Spanish",yes,2025-08-15_01h04.51.126,empathy_intonation_perc_control,2024.2.4,Linux armv81,120.4819277,62989737409d018c733483c1,68817205a84113384fffdfe3,689ebfaa39df66191f3994e0,,,,,,,,,,,,./stim/wavs/mexican_mismatch_declarative-broad-focus_El-hombre-mira-la-luna.wav,0,,,345.2184,347.9378,0,1,2.2095,0.0002,0,82,82,79,1,80,0,mexican,,,,,,,,,,,,,,,,,,,,,,,,,,,,,,,,,,,,,,,,,,,,,,,,,,,,,,,,
,,,,,,,,,62989737409d018c733483c1,Spanish,13 or older,"no, only English or Spanish",yes,2025-08-15_01h04.51.126,empathy_intonation_perc_control,2024.2.4,Linux armv81,120.4819277,62989737409d018c733483c1,68817205a84113384fffdfe3,689ebfaa39df66191f3994e0,,,,,,,,,,,,./stim/wavs/mexican_match_interrogative-total-yn_Mariano-habla-del-tiempo.wav,1,,,347.9384,351.2373,1,1,2.7899,0.0003,0,83,83,16,1,17,0,mexican,,,,,,,,,,,,,,,,,,,,,,,,,,,,,,,,,,,,,,,,,,,,,,,,,,,,,,,,
,,,,,,,,,62989737409d018c733483c1,Spanish,13 or older,"no, only English or Spanish",yes,2025-08-15_01h04.51.126,empathy_intonation_perc_control,2024.2.4,Linux armv81,120.4819277,62989737409d018c733483c1,68817205a84113384fffdfe3,689ebfaa39df66191f3994e0,,,,,,,,,,,,./stim/wavs/puertorican_mismatch_declarative-broad-focus_La-maestra-vive-en-Paris.wav,0,,,351.2379,353.9877,0,1,2.2447,0.0002,0,84,84,86,1,87,0,puertorican,,,,,,,,,,,,,,,,,,,,,,,,,,,,,,,,,,,,,,,,,,,,,,,,,,,,,,,,
,,,,,,,,,62989737409d018c733483c1,Spanish,13 or older,"no, only English or Spanish",yes,2025-08-15_01h04.51.126,empathy_intonation_perc_control,2024.2.4,Linux armv81,120.4819277,62989737409d018c733483c1,68817205a84113384fffdfe3,689ebfaa39df66191f3994e0,,,,,,,,,,,,./stim/wavs/puertorican_mismatch_interrogative-total-yn_La-nina-lava-el-plato.wav,1,,,353.9891,356.6794,0,0,2.1805,0.0003,0,85,85,42,1,43,1,puertorican,,,,,,,,,,,,,,,,,,,,,,,,,,,,,,,,,,,,,,,,,,,,,,,,,,,,,,,,
,,,,,,,,,62989737409d018c733483c1,Spanish,13 or older,"no, only English or Spanish",yes,2025-08-15_01h04.51.126,empathy_intonation_perc_control,2024.2.4,Linux armv81,120.4819277,62989737409d018c733483c1,68817205a84113384fffdfe3,689ebfaa39df66191f3994e0,,,,,,,,,,,,./stim/wavs/mexican_mismatch_interrogative-total-yn_La-maestra-vive-en-Paris.wav,1,,,356.6801,359.6838,1,1,2.4922,0.0005,0,86,86,36,1,37,0,mexican,,,,,,,,,,,,,,,,,,,,,,,,,,,,,,,,,,,,,,,,,,,,,,,,,,,,,,,,
,,,,,,,,,62989737409d018c733483c1,Spanish,13 or older,"no, only English or Spanish",yes,2025-08-15_01h04.51.126,empathy_intonation_perc_control,2024.2.4,Linux armv81,120.4819277,62989737409d018c733483c1,68817205a84113384fffdfe3,689ebfaa39df66191f3994e0,,,,,,,,,,,,./stim/wavs/puertorican_mismatch_interrogative-total-yn_Mi-madre-come-la-fruta.wav,1,,,359.6843,362.3646,0,0,2.1714,0.0009,0,87,87,43,1,44,1,puertorican,,,,,,,,,,,,,,,,,,,,,,,,,,,,,,,,,,,,,,,,,,,,,,,,,,,,,,,,
,,,,,,,"Great! Now we will move on. The next task consists of about 60 trials, in each of which you will see a string of letters. 
  
  Your task is to decide whether this is a real Spanish word or not.", (press the spacebar to continue),62989737409d018c733483c1,Spanish,13 or older,"no, only English or Spanish",yes,2025-08-15_01h04.51.126,empathy_intonation_perc_control,2024.2.4,Linux armv81,120.4819277,62989737409d018c733483c1,68817205a84113384fffdfe3,689ebfaa39df66191f3994e0,,,,,,,,,,,,,,,,,,,,,,,,,,,,,,362.38,370.9775,0,0,0,0,1,,,,,,,,,,,,,,,,,,,,,,,,,,,,,,,,,,,,,,,,,,,,,,,,,
,,,,,,,"If you think it is an existing Spanish word, you type '1' (for 'REAL'), and if you think it is not an existing Spanish word, you type '0' (for 'FAKE').", (press the spacebar to continue),62989737409d018c733483c1,Spanish,13 or older,"no, only English or Spanish",yes,2025-08-15_01h04.51.126,empathy_intonation_perc_control,2024.2.4,Linux armv81,120.4819277,62989737409d018c733483c1,68817205a84113384fffdfe3,689ebfaa39df66191f3994e0,,,,,,,,,,,,,,,,,,,,,,,,,,,,,,370.98,375.1306,0,1,1,1,1,,,,,,,,,,,,,,,,,,,,,,,,,,,,,,,,,,,,,,,,,,,,,,,,,
,,,,,,,"If you are sure that the word exists, even though you don’t know its exact meaning, you may still respond '1' (REAL). 
  
  But if you are not sure if it is an existing word, you should respond '0' (FAKE).
  
  Let's do a practice round...", (press the spacebar to continue),62989737409d018c733483c1,Spanish,13 or older,"no, only English or Spanish",yes,2025-08-15_01h04.51.126,empathy_intonation_perc_control,2024.2.4,Linux armv81,120.4819277,62989737409d018c733483c1,68817205a84113384fffdfe3,689ebfaa39df66191f3994e0,,,,,,,,,,,,,,,,,,,,,,,,,,,,,,375.1325,379.8349,0,2,2,2,1,,,,,,,,,,,,,,,,,,,,,,,,,,,,,,,,,,,,,,,,,,,,,,,,,
,,,,,,,,,62989737409d018c733483c1,Spanish,13 or older,"no, only English or Spanish",yes,2025-08-15_01h04.51.126,empathy_intonation_perc_control,2024.2.4,Linux armv81,120.4819277,62989737409d018c733483c1,68817205a84113384fffdfe3,689ebfaa39df66191f3994e0,,,,,,,,,,,,,0,,,,,,,,,,,,,,,,,,,,,,,,379.8424,382.3714,0,1,2.0105,0.0001,382.372,383.3719,0,0,0,0,1,0,depiste,REAL,FAKE,,,,,,,,,,,,,,,,,,,,,,,,,,,,,,,,
,,,,,,,,,62989737409d018c733483c1,Spanish,13 or older,"no, only English or Spanish",yes,2025-08-15_01h04.51.126,empathy_intonation_perc_control,2024.2.4,Linux armv81,120.4819277,62989737409d018c733483c1,68817205a84113384fffdfe3,689ebfaa39df66191f3994e0,,,,,,,,,,,,,1,,,,,,,,,,,,,,,,,,,,,,,,383.3754,385.289,1,1,1.4001,0.0002,385.2892,386.2849,0,1,1,1,1,0,sí,REAL,FAKE,,,,,,,,,,,,,,,,,,,,,,,,,,,,,,,,
,,,,,,,,,62989737409d018c733483c1,Spanish,13 or older,"no, only English or Spanish",yes,2025-08-15_01h04.51.126,empathy_intonation_perc_control,2024.2.4,Linux armv81,120.4819277,62989737409d018c733483c1,68817205a84113384fffdfe3,689ebfaa39df66191f3994e0,,,,,,,,,,,,,0,,,,,,,,,,,,,,,,,,,,,,,,386.2875,388.3763,1,0,1.5622,0.0002,388.3773,389.3728,0,2,2,2,1,0,coné,REAL,FAKE,,,,,,,,,,,,,,,,,,,,,,,,,,,,,,,,
,,,,,,,,,62989737409d018c733483c1,Spanish,13 or older,"no, only English or Spanish",yes,2025-08-15_01h04.51.126,empathy_intonation_perc_control,2024.2.4,Linux armv81,120.4819277,62989737409d018c733483c1,68817205a84113384fffdfe3,689ebfaa39df66191f3994e0,,,,,,,,,,,,,0,,,,,,,,,,,,,,,,,,,,,,,,389.3752,391.3973,1,0,1.51,0.0003,391.3975,392.3937,0,3,3,3,1,0,calpar,REAL,FAKE,,,,,,,,,,,,,,,,,,,,,,,,,,,,,,,,
,,,,,,,,,62989737409d018c733483c1,Spanish,13 or older,"no, only English or Spanish",yes,2025-08-15_01h04.51.126,empathy_intonation_perc_control,2024.2.4,Linux armv81,120.4819277,62989737409d018c733483c1,68817205a84113384fffdfe3,689ebfaa39df66191f3994e0,,,,,,,,,,,,,0,,,,,,,,,,,,,,,,,,,,,,,,392.3961,393.8354,0,1,0.9219,0.0005,393.836,394.8332,0,4,4,4,1,0,joten,REAL,FAKE,,,,,,,,,,,,,,,,,,,,,,,,,,,,,,,,
,,,,,,,,,62989737409d018c733483c1,Spanish,13 or older,"no, only English or Spanish",yes,2025-08-15_01h04.51.126,empathy_intonation_perc_control,2024.2.4,Linux armv81,120.4819277,62989737409d018c733483c1,68817205a84113384fffdfe3,689ebfaa39df66191f3994e0,,,,,,,,,,,,,1,,,,,,,,,,,,,,,,,,,,,,,,394.8357,396.5503,0,0,1.1959,0.0003,396.5535,397.5463,0,5,5,5,1,0,sacapuntas,REAL,FAKE,,,,,,,,,,,,,,,,,,,,,,,,,,,,,,,,
,,,,,,,,,62989737409d018c733483c1,Spanish,13 or older,"no, only English or Spanish",yes,2025-08-15_01h04.51.126,empathy_intonation_perc_control,2024.2.4,Linux armv81,120.4819277,62989737409d018c733483c1,68817205a84113384fffdfe3,689ebfaa39df66191f3994e0,,,,,,,,,,,,,0,,,,,,,,,,,,,,,,,,,,,,,,397.5481,399.0384,1,0,0.9698,0.0011,399.0385,400.0354,0,6,6,6,1,0,priba,REAL,FAKE,,,,,,,,,,,,,,,,,,,,,,,,,,,,,,,,
,,,,,,,,,62989737409d018c733483c1,Spanish,13 or older,"no, only English or Spanish",yes,2025-08-15_01h04.51.126,empathy_intonation_perc_control,2024.2.4,Linux armv81,120.4819277,62989737409d018c733483c1,68817205a84113384fffdfe3,689ebfaa39df66191f3994e0,,,,,,,,,,,,,0,,,,,,,,,,,,,,,,,,,,,,,,400.0367,401.7857,1,0,1.2225,0.0004,401.7858,402.7822,0,7,7,7,1,0,pelasula,REAL,FAKE,,,,,,,,,,,,,,,,,,,,,,,,,,,,,,,,
,,,,,,,,,62989737409d018c733483c1,Spanish,13 or older,"no, only English or Spanish",yes,2025-08-15_01h04.51.126,empathy_intonation_perc_control,2024.2.4,Linux armv81,120.4819277,62989737409d018c733483c1,68817205a84113384fffdfe3,689ebfaa39df66191f3994e0,,,,,,,,,,,,,1,,,,,,,,,,,,,,,,,,,,,,,,402.7845,404.3657,1,1,1.0634,0.0002,404.3668,405.3625,0,8,8,8,1,0,bien,REAL,FAKE,,,,,,,,,,,,,,,,,,,,,,,,,,,,,,,,
,,,,,,,,,62989737409d018c733483c1,Spanish,13 or older,"no, only English or Spanish",yes,2025-08-15_01h04.51.126,empathy_intonation_perc_control,2024.2.4,Linux armv81,120.4819277,62989737409d018c733483c1,68817205a84113384fffdfe3,689ebfaa39df66191f3994e0,,,,,,,,,,,,,1,,,,,,,,,,,,,,,,,,,,,,,,405.3646,406.9283,1,1,1.0468,0.0003,406.9283,407.9266,0,9,9,9,1,0,casa,REAL,FAKE,,,,,,,,,,,,,,,,,,,,,,,,,,,,,,,,
,,,,,,,,,62989737409d018c733483c1,Spanish,13 or older,"no, only English or Spanish",yes,2025-08-15_01h04.51.126,empathy_intonation_perc_control,2024.2.4,Linux armv81,120.4819277,62989737409d018c733483c1,68817205a84113384fffdfe3,689ebfaa39df66191f3994e0,,,,,,,,,,,,,0,,,,,,,,,,,,,,,,,,,,,,,,407.9294,410.1992,0,1,1.7543,0.0002,410.1993,411.1969,0,10,10,10,1,0,lejo,REAL,FAKE,,,,,,,,,,,,,,,,,,,,,,,,,,,,,,,,
,,,,,,,,,62989737409d018c733483c1,Spanish,13 or older,"no, only English or Spanish",yes,2025-08-15_01h04.51.126,empathy_intonation_perc_control,2024.2.4,Linux armv81,120.4819277,62989737409d018c733483c1,68817205a84113384fffdfe3,689ebfaa39df66191f3994e0,,,,,,,,,,,,,0,,,,,,,,,,,,,,,,,,,,,,,,411.1988,413.5885,1,0,1.8737,0.0001,413.5893,414.5864,0,11,11,11,1,0,pretantas,REAL,FAKE,,,,,,,,,,,,,,,,,,,,,,,,,,,,,,,,
,,,,,,,,,62989737409d018c733483c1,Spanish,13 or older,"no, only English or Spanish",yes,2025-08-15_01h04.51.126,empathy_intonation_perc_control,2024.2.4,Linux armv81,120.4819277,62989737409d018c733483c1,68817205a84113384fffdfe3,689ebfaa39df66191f3994e0,,,,,,,,,,,,,,,,,,,,,,,,,,,,,,,,,,,,,,,,,,,,,,,,,,,,,,414.5871,416.6383,,,,,,,,,,,,,,,,,,,,,,,,,,,,,,
,,,,,,,,,62989737409d018c733483c1,Spanish,13 or older,"no, only English or Spanish",yes,2025-08-15_01h04.51.126,empathy_intonation_perc_control,2024.2.4,Linux armv81,120.4819277,62989737409d018c733483c1,68817205a84113384fffdfe3,689ebfaa39df66191f3994e0,,,,,,,,,,,,,0,,,,,,,,,,,,,,,,,,,,,,,,,,,,,,,,,,,,,35,rompido,,,,,416.6467,418.7664,0,1,1.6061,0.0002,0,0,0,34,1,REAL,FAKE,,,,,,,,,,,,,,,,,
,,,,,,,,,62989737409d018c733483c1,Spanish,13 or older,"no, only English or Spanish",yes,2025-08-15_01h04.51.126,empathy_intonation_perc_control,2024.2.4,Linux armv81,120.4819277,62989737409d018c733483c1,68817205a84113384fffdfe3,689ebfaa39df66191f3994e0,,,,,,,,,,,,,0,,,,,,,,,,,,,,,,,,,,,,,,,,,,,,,,,,,,,21,capillo,,,,,418.7672,420.5965,1,0,1.3117,0.0031,0,1,1,20,1,REAL,FAKE,,,,,,,,,,,,,,,,,
,,,,,,,,,62989737409d018c733483c1,Spanish,13 or older,"no, only English or Spanish",yes,2025-08-15_01h04.51.126,empathy_intonation_perc_control,2024.2.4,Linux armv81,120.4819277,62989737409d018c733483c1,68817205a84113384fffdfe3,689ebfaa39df66191f3994e0,,,,,,,,,,,,,1,,,,,,,,,,,,,,,,,,,,,,,,,,,,,,,,,,,,,34,aviso,,,,,420.5975,422.2507,0,0,1.1354,0.0001,0,2,2,33,1,REAL,FAKE,,,,,,,,,,,,,,,,,
,,,,,,,,,62989737409d018c733483c1,Spanish,13 or older,"no, only English or Spanish",yes,2025-08-15_01h04.51.126,empathy_intonation_perc_control,2024.2.4,Linux armv81,120.4819277,62989737409d018c733483c1,68817205a84113384fffdfe3,689ebfaa39df66191f3994e0,,,,,,,,,,,,,1,,,,,,,,,,,,,,,,,,,,,,,,,,,,,,,,,,,,,80,hormiga,,,,,422.2524,423.8162,0,0,1.0449,0.0002,0,3,3,79,1,REAL,FAKE,,,,,,,,,,,,,,,,,
,,,,,,,,,62989737409d018c733483c1,Spanish,13 or older,"no, only English or Spanish",yes,2025-08-15_01h04.51.126,empathy_intonation_perc_control,2024.2.4,Linux armv81,120.4819277,62989737409d018c733483c1,68817205a84113384fffdfe3,689ebfaa39df66191f3994e0,,,,,,,,,,,,,1,,,,,,,,,,,,,,,,,,,,,,,,,,,,,,,,,,,,,52,camisa,,,,,423.8176,425.7907,1,1,1.4523,0.0001,0,4,4,51,1,REAL,FAKE,,,,,,,,,,,,,,,,,
,,,,,,,,,62989737409d018c733483c1,Spanish,13 or older,"no, only English or Spanish",yes,2025-08-15_01h04.51.126,empathy_intonation_perc_control,2024.2.4,Linux armv81,120.4819277,62989737409d018c733483c1,68817205a84113384fffdfe3,689ebfaa39df66191f3994e0,,,,,,,,,,,,,1,,,,,,,,,,,,,,,,,,,,,,,,,,,,,,,,,,,,,64,orgulloso,,,,,425.7922,427.5073,0,0,1.1993,0.0001,0,5,5,63,1,REAL,FAKE,,,,,,,,,,,,,,,,,
,,,,,,,,,62989737409d018c733483c1,Spanish,13 or older,"no, only English or Spanish",yes,2025-08-15_01h04.51.126,empathy_intonation_perc_control,2024.2.4,Linux armv81,120.4819277,62989737409d018c733483c1,68817205a84113384fffdfe3,689ebfaa39df66191f3994e0,,,,,,,,,,,,,1,,,,,,,,,,,,,,,,,,,,,,,,,,,,,,,,,,,,,76,atar,,,,,427.5086,430.1439,1,1,2.1241,0.0002,0,6,6,75,1,REAL,FAKE,,,,,,,,,,,,,,,,,
,,,,,,,,,62989737409d018c733483c1,Spanish,13 or older,"no, only English or Spanish",yes,2025-08-15_01h04.51.126,empathy_intonation_perc_control,2024.2.4,Linux armv81,120.4819277,62989737409d018c733483c1,68817205a84113384fffdfe3,689ebfaa39df66191f3994e0,,,,,,,,,,,,,1,,,,,,,,,,,,,,,,,,,,,,,,,,,,,,,,,,,,,44,cuchara,,,,,430.1448,432.1241,1,1,1.4642,0.0001,0,7,7,43,1,REAL,FAKE,,,,,,,,,,,,,,,,,
,,,,,,,,,62989737409d018c733483c1,Spanish,13 or older,"no, only English or Spanish",yes,2025-08-15_01h04.51.126,empathy_intonation_perc_control,2024.2.4,Linux armv81,120.4819277,62989737409d018c733483c1,68817205a84113384fffdfe3,689ebfaa39df66191f3994e0,,,,,,,,,,,,,1,,,,,,,,,,,,,,,,,,,,,,,,,,,,,,,,,,,,,43,canela,,,,,432.126,434.367,1,1,1.7204,0.0045,0,8,8,42,1,REAL,FAKE,,,,,,,,,,,,,,,,,
,,,,,,,,,62989737409d018c733483c1,Spanish,13 or older,"no, only English or Spanish",yes,2025-08-15_01h04.51.126,empathy_intonation_perc_control,2024.2.4,Linux armv81,120.4819277,62989737409d018c733483c1,68817205a84113384fffdfe3,689ebfaa39df66191f3994e0,,,,,,,,,,,,,1,,,,,,,,,,,,,,,,,,,,,,,,,,,,,,,,,,,,,73,hervidor,,,,,434.3687,435.9383,0,0,1.0571,0.0001,0,9,9,72,1,REAL,FAKE,,,,,,,,,,,,,,,,,
,,,,,,,,,62989737409d018c733483c1,Spanish,13 or older,"no, only English or Spanish",yes,2025-08-15_01h04.51.126,empathy_intonation_perc_control,2024.2.4,Linux armv81,120.4819277,62989737409d018c733483c1,68817205a84113384fffdfe3,689ebfaa39df66191f3994e0,,,,,,,,,,,,,0,,,,,,,,,,,,,,,,,,,,,,,,,,,,,,,,,,,,,58,plaudir,,,,,435.9405,437.5622,0,1,1.1035,0.0001,0,10,10,57,1,REAL,FAKE,,,,,,,,,,,,,,,,,
,,,,,,,,,62989737409d018c733483c1,Spanish,13 or older,"no, only English or Spanish",yes,2025-08-15_01h04.51.126,empathy_intonation_perc_control,2024.2.4,Linux armv81,120.4819277,62989737409d018c733483c1,68817205a84113384fffdfe3,689ebfaa39df66191f3994e0,,,,,,,,,,,,,0,,,,,,,,,,,,,,,,,,,,,,,,,,,,,,,,,,,,,16,abracer,,,,,437.5636,439.4576,0,1,1.3775,0.0002,0,11,11,15,1,REAL,FAKE,,,,,,,,,,,,,,,,,
,,,,,,,,,62989737409d018c733483c1,Spanish,13 or older,"no, only English or Spanish",yes,2025-08-15_01h04.51.126,empathy_intonation_perc_control,2024.2.4,Linux armv81,120.4819277,62989737409d018c733483c1,68817205a84113384fffdfe3,689ebfaa39df66191f3994e0,,,,,,,,,,,,,0,,,,,,,,,,,,,,,,,,,,,,,,,,,,,,,,,,,,,63,esposante,,,,,439.4593,442.0538,1,0,2.0793,0.0001,0,12,12,62,1,REAL,FAKE,,,,,,,,,,,,,,,,,
,,,,,,,,,62989737409d018c733483c1,Spanish,13 or older,"no, only English or Spanish",yes,2025-08-15_01h04.51.126,empathy_intonation_perc_control,2024.2.4,Linux armv81,120.4819277,62989737409d018c733483c1,68817205a84113384fffdfe3,689ebfaa39df66191f3994e0,,,,,,,,,,,,,0,,,,,,,,,,,,,,,,,,,,,,,,,,,,,,,,,,,,,87,grodo,,,,,442.0552,443.8799,0,1,1.3007,0.0004,0,13,13,86,1,REAL,FAKE,,,,,,,,,,,,,,,,,
,,,,,,,,,62989737409d018c733483c1,Spanish,13 or older,"no, only English or Spanish",yes,2025-08-15_01h04.51.126,empathy_intonation_perc_control,2024.2.4,Linux armv81,120.4819277,62989737409d018c733483c1,68817205a84113384fffdfe3,689ebfaa39df66191f3994e0,,,,,,,,,,,,,0,,,,,,,,,,,,,,,,,,,,,,,,,,,,,,,,,,,,,66,hacido,,,,,443.8815,445.7748,1,0,1.3789,0.0002,0,14,14,65,1,REAL,FAKE,,,,,,,,,,,,,,,,,
,,,,,,,,,62989737409d018c733483c1,Spanish,13 or older,"no, only English or Spanish",yes,2025-08-15_01h04.51.126,empathy_intonation_perc_control,2024.2.4,Linux armv81,120.4819277,62989737409d018c733483c1,68817205a84113384fffdfe3,689ebfaa39df66191f3994e0,,,,,,,,,,,,,0,,,,,,,,,,,,,,,,,,,,,,,,,,,,,,,,,,,,,8,cadeña,,,,,445.7766,448.0004,0,1,1.7084,0.0001,0,15,15,7,1,REAL,FAKE,,,,,,,,,,,,,,,,,
,,,,,,,,,62989737409d018c733483c1,Spanish,13 or older,"no, only English or Spanish",yes,2025-08-15_01h04.51.126,empathy_intonation_perc_control,2024.2.4,Linux armv81,120.4819277,62989737409d018c733483c1,68817205a84113384fffdfe3,689ebfaa39df66191f3994e0,,,,,,,,,,,,,0,,,,,,,,,,,,,,,,,,,,,,,,,,,,,,,,,,,,,1,terzo,,,,,448.0012,449.6137,0,1,1.1022,0.0001,0,16,16,0,1,REAL,FAKE,,,,,,,,,,,,,,,,,
,,,,,,,,,62989737409d018c733483c1,Spanish,13 or older,"no, only English or Spanish",yes,2025-08-15_01h04.51.126,empathy_intonation_perc_control,2024.2.4,Linux armv81,120.4819277,62989737409d018c733483c1,68817205a84113384fffdfe3,689ebfaa39df66191f3994e0,,,,,,,,,,,,,1,,,,,,,,,,,,,,,,,,,,,,,,,,,,,,,,,,,,,75,yacer,,,,,449.6147,451.135,0,0,1.003,0.0005,0,17,17,74,1,REAL,FAKE,,,,,,,,,,,,,,,,,
,,,,,,,,,62989737409d018c733483c1,Spanish,13 or older,"no, only English or Spanish",yes,2025-08-15_01h04.51.126,empathy_intonation_perc_control,2024.2.4,Linux armv81,120.4819277,62989737409d018c733483c1,68817205a84113384fffdfe3,689ebfaa39df66191f3994e0,,,,,,,,,,,,,0,,,,,,,,,,,,,,,,,,,,,,,,,,,,,,,,,,,,,18,arsa,,,,,451.1363,452.7784,0,1,1.1241,0.0005,0,18,18,17,1,REAL,FAKE,,,,,,,,,,,,,,,,,
,,,,,,,,,62989737409d018c733483c1,Spanish,13 or older,"no, only English or Spanish",yes,2025-08-15_01h04.51.126,empathy_intonation_perc_control,2024.2.4,Linux armv81,120.4819277,62989737409d018c733483c1,68817205a84113384fffdfe3,689ebfaa39df66191f3994e0,,,,,,,,,,,,,1,,,,,,,,,,,,,,,,,,,,,,,,,,,,,,,,,,,,,48,ladrón,,,,,452.7833,454.6258,0,0,1.3335,0.0007,0,19,19,47,1,REAL,FAKE,,,,,,,,,,,,,,,,,
,,,,,,,,,62989737409d018c733483c1,Spanish,13 or older,"no, only English or Spanish",yes,2025-08-15_01h04.51.126,empathy_intonation_perc_control,2024.2.4,Linux armv81,120.4819277,62989737409d018c733483c1,68817205a84113384fffdfe3,689ebfaa39df66191f3994e0,,,,,,,,,,,,,1,,,,,,,,,,,,,,,,,,,,,,,,,,,,,,,,,,,,,91,click the 1 key.,,,,,454.6275,456.5079,1,1,1.3588,0.0002,0,20,20,90,1,REAL,FAKE,,,,,,,,,,,,,,,,,
,,,,,,,,,62989737409d018c733483c1,Spanish,13 or older,"no, only English or Spanish",yes,2025-08-15_01h04.51.126,empathy_intonation_perc_control,2024.2.4,Linux armv81,120.4819277,62989737409d018c733483c1,68817205a84113384fffdfe3,689ebfaa39df66191f3994e0,,,,,,,,,,,,,1,,,,,,,,,,,,,,,,,,,,,,,,,,,,,,,,,,,,,38,estornudar,,,,,456.5095,458.6972,0,0,1.6736,0.0001,0,21,21,37,1,REAL,FAKE,,,,,,,,,,,,,,,,,
,,,,,,,,,62989737409d018c733483c1,Spanish,13 or older,"no, only English or Spanish",yes,2025-08-15_01h04.51.126,empathy_intonation_perc_control,2024.2.4,Linux armv81,120.4819277,62989737409d018c733483c1,68817205a84113384fffdfe3,689ebfaa39df66191f3994e0,,,,,,,,,,,,,1,,,,,,,,,,,,,,,,,,,,,,,,,,,,,,,,,,,,,31,pandilla,,,,,458.6982,461.0875,0,0,1.8739,0.0001,0,22,22,30,1,REAL,FAKE,,,,,,,,,,,,,,,,,
,,,,,,,,,62989737409d018c733483c1,Spanish,13 or older,"no, only English or Spanish",yes,2025-08-15_01h04.51.126,empathy_intonation_perc_control,2024.2.4,Linux armv81,120.4819277,62989737409d018c733483c1,68817205a84113384fffdfe3,689ebfaa39df66191f3994e0,,,,,,,,,,,,,1,,,,,,,,,,,,,,,,,,,,,,,,,,,,,,,,,,,,,51,candado,,,,,461.0891,463.2759,1,1,1.6753,0.0002,0,23,23,50,1,REAL,FAKE,,,,,,,,,,,,,,,,,
,,,,,,,,,62989737409d018c733483c1,Spanish,13 or older,"no, only English or Spanish",yes,2025-08-15_01h04.51.126,empathy_intonation_perc_control,2024.2.4,Linux armv81,120.4819277,62989737409d018c733483c1,68817205a84113384fffdfe3,689ebfaa39df66191f3994e0,,,,,,,,,,,,,1,,,,,,,,,,,,,,,,,,,,,,,,,,,,,,,,,,,,,28,merodear,,,,,463.2771,465.1882,0,0,1.393,0.0001,0,24,24,27,1,REAL,FAKE,,,,,,,,,,,,,,,,,
,,,,,,,,,62989737409d018c733483c1,Spanish,13 or older,"no, only English or Spanish",yes,2025-08-15_01h04.51.126,empathy_intonation_perc_control,2024.2.4,Linux armv81,120.4819277,62989737409d018c733483c1,68817205a84113384fffdfe3,689ebfaa39df66191f3994e0,,,,,,,,,,,,,0,,,,,,,,,,,,,,,,,,,,,,,,,,,,,,,,,,,,,47,cartinar,,,,,465.1896,467.0035,0,1,1.2997,0.0002,0,25,25,46,1,REAL,FAKE,,,,,,,,,,,,,,,,,
,,,,,,,,,62989737409d018c733483c1,Spanish,13 or older,"no, only English or Spanish",yes,2025-08-15_01h04.51.126,empathy_intonation_perc_control,2024.2.4,Linux armv81,120.4819277,62989737409d018c733483c1,68817205a84113384fffdfe3,689ebfaa39df66191f3994e0,,,,,,,,,,,,,1,,,,,,,,,,,,,,,,,,,,,,,,,,,,,,,,,,,,,5,zapato,,,,,467.0054,468.9723,0,0,1.4521,0.0001,0,26,26,4,1,REAL,FAKE,,,,,,,,,,,,,,,,,
,,,,,,,,,62989737409d018c733483c1,Spanish,13 or older,"no, only English or Spanish",yes,2025-08-15_01h04.51.126,empathy_intonation_perc_control,2024.2.4,Linux armv81,120.4819277,62989737409d018c733483c1,68817205a84113384fffdfe3,689ebfaa39df66191f3994e0,,,,,,,,,,,,,1,,,,,,,,,,,,,,,,,,,,,,,,,,,,,,,,,,,,,88,acantilado,,,,,468.9738,471.2392,0,0,1.7504,0.0004,0,27,27,87,1,REAL,FAKE,,,,,,,,,,,,,,,,,
,,,,,,,,,62989737409d018c733483c1,Spanish,13 or older,"no, only English or Spanish",yes,2025-08-15_01h04.51.126,empathy_intonation_perc_control,2024.2.4,Linux armv81,120.4819277,62989737409d018c733483c1,68817205a84113384fffdfe3,689ebfaa39df66191f3994e0,,,,,,,,,,,,,0,,,,,,,,,,,,,,,,,,,,,,,,,,,,,,,,,,,,,30,alardio,,,,,471.2403,473.6288,1,0,1.8742,0.0001,0,28,28,29,1,REAL,FAKE,,,,,,,,,,,,,,,,,
,,,,,,,,,62989737409d018c733483c1,Spanish,13 or older,"no, only English or Spanish",yes,2025-08-15_01h04.51.126,empathy_intonation_perc_control,2024.2.4,Linux armv81,120.4819277,62989737409d018c733483c1,68817205a84113384fffdfe3,689ebfaa39df66191f3994e0,,,,,,,,,,,,,0,,,,,,,,,,,,,,,,,,,,,,,,,,,,,,,,,,,,,10,antar,,,,,473.6306,475.7572,1,0,1.6114,0,0,29,29,9,1,REAL,FAKE,,,,,,,,,,,,,,,,,
,,,,,,,,,62989737409d018c733483c1,Spanish,13 or older,"no, only English or Spanish",yes,2025-08-15_01h04.51.126,empathy_intonation_perc_control,2024.2.4,Linux armv81,120.4819277,62989737409d018c733483c1,68817205a84113384fffdfe3,689ebfaa39df66191f3994e0,,,,,,,,,,,,,0,,,,,,,,,,,,,,,,,,,,,,,,,,,,,,,,,,,,,70,temblo,,,,,475.7582,477.6974,1,0,1.4224,0.0002,0,30,30,69,1,REAL,FAKE,,,,,,,,,,,,,,,,,
,,,,,,,,,62989737409d018c733483c1,Spanish,13 or older,"no, only English or Spanish",yes,2025-08-15_01h04.51.126,empathy_intonation_perc_control,2024.2.4,Linux armv81,120.4819277,62989737409d018c733483c1,68817205a84113384fffdfe3,689ebfaa39df66191f3994e0,,,,,,,,,,,,,1,,,,,,,,,,,,,,,,,,,,,,,,,,,,,,,,,,,,,85,laúd,,,,,477.6995,479.6453,0,0,1.4278,0.0001,0,31,31,84,1,REAL,FAKE,,,,,,,,,,,,,,,,,
,,,,,,,,,62989737409d018c733483c1,Spanish,13 or older,"no, only English or Spanish",yes,2025-08-15_01h04.51.126,empathy_intonation_perc_control,2024.2.4,Linux armv81,120.4819277,62989737409d018c733483c1,68817205a84113384fffdfe3,689ebfaa39df66191f3994e0,,,,,,,,,,,,,0,,,,,,,,,,,,,,,,,,,,,,,,,,,,,,,,,,,,,23,lampera,,,,,479.6479,481.676,1,0,1.5155,0.0001,0,32,32,22,1,REAL,FAKE,,,,,,,,,,,,,,,,,
,,,,,,,,,62989737409d018c733483c1,Spanish,13 or older,"no, only English or Spanish",yes,2025-08-15_01h04.51.126,empathy_intonation_perc_control,2024.2.4,Linux armv81,120.4819277,62989737409d018c733483c1,68817205a84113384fffdfe3,689ebfaa39df66191f3994e0,,,,,,,,,,,,,1,,,,,,,,,,,,,,,,,,,,,,,,,,,,,,,,,,,,,65,bizcocho,,,,,481.6769,483.6092,0,0,1.4168,0.0002,0,33,33,64,1,REAL,FAKE,,,,,,,,,,,,,,,,,
,,,,,,,,,62989737409d018c733483c1,Spanish,13 or older,"no, only English or Spanish",yes,2025-08-15_01h04.51.126,empathy_intonation_perc_control,2024.2.4,Linux armv81,120.4819277,62989737409d018c733483c1,68817205a84113384fffdfe3,689ebfaa39df66191f3994e0,,,,,,,,,,,,,1,,,,,,,,,,,,,,,,,,,,,,,,,,,,,,,,,,,,,78,frondoso,,,,,483.6105,485.1466,0,0,1.0271,0.0001,0,34,34,77,1,REAL,FAKE,,,,,,,,,,,,,,,,,
,,,,,,,,,62989737409d018c733483c1,Spanish,13 or older,"no, only English or Spanish",yes,2025-08-15_01h04.51.126,empathy_intonation_perc_control,2024.2.4,Linux armv81,120.4819277,62989737409d018c733483c1,68817205a84113384fffdfe3,689ebfaa39df66191f3994e0,,,,,,,,,,,,,1,,,,,,,,,,,,,,,,,,,,,,,,,,,,,,,,,,,,,25,bisagra,,,,,485.148,486.7617,0,0,1.0949,0.0002,0,35,35,24,1,REAL,FAKE,,,,,,,,,,,,,,,,,
,,,,,,,,,62989737409d018c733483c1,Spanish,13 or older,"no, only English or Spanish",yes,2025-08-15_01h04.51.126,empathy_intonation_perc_control,2024.2.4,Linux armv81,120.4819277,62989737409d018c733483c1,68817205a84113384fffdfe3,689ebfaa39df66191f3994e0,,,,,,,,,,,,,0,,,,,,,,,,,,,,,,,,,,,,,,,,,,,,,,,,,,,84,escuto,,,,,486.7627,488.3947,0,1,1.111,0.0002,0,36,36,83,1,REAL,FAKE,,,,,,,,,,,,,,,,,
,,,,,,,,,62989737409d018c733483c1,Spanish,13 or older,"no, only English or Spanish",yes,2025-08-15_01h04.51.126,empathy_intonation_perc_control,2024.2.4,Linux armv81,120.4819277,62989737409d018c733483c1,68817205a84113384fffdfe3,689ebfaa39df66191f3994e0,,,,,,,,,,,,,1,,,,,,,,,,,,,,,,,,,,,,,,,,,,,,,,,,,,,67,cabello,,,,,488.396,490.6975,1,1,1.7858,0.0002,0,37,37,66,1,REAL,FAKE,,,,,,,,,,,,,,,,,
,,,,,,,,,62989737409d018c733483c1,Spanish,13 or older,"no, only English or Spanish",yes,2025-08-15_01h04.51.126,empathy_intonation_perc_control,2024.2.4,Linux armv81,120.4819277,62989737409d018c733483c1,68817205a84113384fffdfe3,689ebfaa39df66191f3994e0,,,,,,,,,,,,,0,,,,,,,,,,,,,,,,,,,,,,,,,,,,,,,,,,,,,92,click the 0 key.,,,,,490.6993,492.3077,0,1,1.0891,0.0001,0,38,38,91,1,REAL,FAKE,,,,,,,,,,,,,,,,,
,,,,,,,,,62989737409d018c733483c1,Spanish,13 or older,"no, only English or Spanish",yes,2025-08-15_01h04.51.126,empathy_intonation_perc_control,2024.2.4,Linux armv81,120.4819277,62989737409d018c733483c1,68817205a84113384fffdfe3,689ebfaa39df66191f3994e0,,,,,,,,,,,,,1,,,,,,,,,,,,,,,,,,,,,,,,,,,,,,,,,,,,,54,fomentar,,,,,492.3106,494.0705,0,0,1.249,0.0001,0,39,39,53,1,REAL,FAKE,,,,,,,,,,,,,,,,,
,,,,,,,,,62989737409d018c733483c1,Spanish,13 or older,"no, only English or Spanish",yes,2025-08-15_01h04.51.126,empathy_intonation_perc_control,2024.2.4,Linux armv81,120.4819277,62989737409d018c733483c1,68817205a84113384fffdfe3,689ebfaa39df66191f3994e0,,,,,,,,,,,,,1,,,,,,,,,,,,,,,,,,,,,,,,,,,,,,,,,,,,,59,besar,,,,,494.0719,495.9225,1,1,1.3371,0.0001,0,40,40,58,1,REAL,FAKE,,,,,,,,,,,,,,,,,
,,,,,,,,,62989737409d018c733483c1,Spanish,13 or older,"no, only English or Spanish",yes,2025-08-15_01h04.51.126,empathy_intonation_perc_control,2024.2.4,Linux armv81,120.4819277,62989737409d018c733483c1,68817205a84113384fffdfe3,689ebfaa39df66191f3994e0,,,,,,,,,,,,,1,,,,,,,,,,,,,,,,,,,,,,,,,,,,,,,,,,,,,26,secuestro,,,,,495.9251,497.8583,0,0,1.4235,0.0005,0,41,41,25,1,REAL,FAKE,,,,,,,,,,,,,,,,,
,,,,,,,,,62989737409d018c733483c1,Spanish,13 or older,"no, only English or Spanish",yes,2025-08-15_01h04.51.126,empathy_intonation_perc_control,2024.2.4,Linux armv81,120.4819277,62989737409d018c733483c1,68817205a84113384fffdfe3,689ebfaa39df66191f3994e0,,,,,,,,,,,,,1,,,,,,,,,,,,,,,,,,,,,,,,,,,,,,,,,,,,,45,jilguero,,,,,497.8599,499.4645,0,0,1.0914,0.0003,0,42,42,44,1,REAL,FAKE,,,,,,,,,,,,,,,,,
,,,,,,,,,62989737409d018c733483c1,Spanish,13 or older,"no, only English or Spanish",yes,2025-08-15_01h04.51.126,empathy_intonation_perc_control,2024.2.4,Linux armv81,120.4819277,62989737409d018c733483c1,68817205a84113384fffdfe3,689ebfaa39df66191f3994e0,,,,,,,,,,,,,1,,,,,,,,,,,,,,,,,,,,,,,,,,,,,,,,,,,,,2,pellizcar,,,,,499.4665,501.4026,0,0,1.4198,0.0001,0,43,43,1,1,REAL,FAKE,,,,,,,,,,,,,,,,,
,,,,,,,,,62989737409d018c733483c1,Spanish,13 or older,"no, only English or Spanish",yes,2025-08-15_01h04.51.126,empathy_intonation_perc_control,2024.2.4,Linux armv81,120.4819277,62989737409d018c733483c1,68817205a84113384fffdfe3,689ebfaa39df66191f3994e0,,,,,,,,,,,,,1,,,,,,,,,,,,,,,,,,,,,,,,,,,,,,,,,,,,,90,clavel,,,,,501.4037,503.7925,0,0,1.8722,0.0012,0,44,44,89,1,REAL,FAKE,,,,,,,,,,,,,,,,,
,,,,,,,,,62989737409d018c733483c1,Spanish,13 or older,"no, only English or Spanish",yes,2025-08-15_01h04.51.126,empathy_intonation_perc_control,2024.2.4,Linux armv81,120.4819277,62989737409d018c733483c1,68817205a84113384fffdfe3,689ebfaa39df66191f3994e0,,,,,,,,,,,,,1,,,,,,,,,,,,,,,,,,,,,,,,,,,,,,,,,,,,,77,tiburón,,,,,503.7934,505.7558,0,0,1.4413,0.0002,0,45,45,76,1,REAL,FAKE,,,,,,,,,,,,,,,,,
,,,,,,,,,62989737409d018c733483c1,Spanish,13 or older,"no, only English or Spanish",yes,2025-08-15_01h04.51.126,empathy_intonation_perc_control,2024.2.4,Linux armv81,120.4819277,62989737409d018c733483c1,68817205a84113384fffdfe3,689ebfaa39df66191f3994e0,,,,,,,,,,,,,0,,,,,,,,,,,,,,,,,,,,,,,,,,,,,,,,,,,,,19,brecedad,,,,,505.7579,507.7838,0,1,1.5147,0,0,46,46,18,1,REAL,FAKE,,,,,,,,,,,,,,,,,
,,,,,,,,,62989737409d018c733483c1,Spanish,13 or older,"no, only English or Spanish",yes,2025-08-15_01h04.51.126,empathy_intonation_perc_control,2024.2.4,Linux armv81,120.4819277,62989737409d018c733483c1,68817205a84113384fffdfe3,689ebfaa39df66191f3994e0,,,,,,,,,,,,,0,,,,,,,,,,,,,,,,,,,,,,,,,,,,,,,,,,,,,72,pemición,,,,,507.7871,509.904,0,1,1.6071,0.0001,0,47,47,71,1,REAL,FAKE,,,,,,,,,,,,,,,,,
,,,,,,,,,62989737409d018c733483c1,Spanish,13 or older,"no, only English or Spanish",yes,2025-08-15_01h04.51.126,empathy_intonation_perc_control,2024.2.4,Linux armv81,120.4819277,62989737409d018c733483c1,68817205a84113384fffdfe3,689ebfaa39df66191f3994e0,,,,,,,,,,,,,1,,,,,,,,,,,,,,,,,,,,,,,,,,,,,,,,,,,,,12,asesinato,,,,,509.9069,512.0577,1,1,1.6413,0.0001,0,48,48,11,1,REAL,FAKE,,,,,,,,,,,,,,,,,
,,,,,,,,,62989737409d018c733483c1,Spanish,13 or older,"no, only English or Spanish",yes,2025-08-15_01h04.51.126,empathy_intonation_perc_control,2024.2.4,Linux armv81,120.4819277,62989737409d018c733483c1,68817205a84113384fffdfe3,689ebfaa39df66191f3994e0,,,,,,,,,,,,,0,,,,,,,,,,,,,,,,,,,,,,,,,,,,,,,,,,,,,27,acutación,,,,,512.0588,514.1904,1,0,1.6173,0.0001,0,49,49,26,1,REAL,FAKE,,,,,,,,,,,,,,,,,
,,,,,,,,,62989737409d018c733483c1,Spanish,13 or older,"no, only English or Spanish",yes,2025-08-15_01h04.51.126,empathy_intonation_perc_control,2024.2.4,Linux armv81,120.4819277,62989737409d018c733483c1,68817205a84113384fffdfe3,689ebfaa39df66191f3994e0,,,,,,,,,,,,,0,,,,,,,,,,,,,,,,,,,,,,,,,,,,,,,,,,,,,82,empirador,,,,,514.1912,517.2374,0,1,2.5341,0.0008,0,50,50,81,1,REAL,FAKE,,,,,,,,,,,,,,,,,
,,,,,,,,,62989737409d018c733483c1,Spanish,13 or older,"no, only English or Spanish",yes,2025-08-15_01h04.51.126,empathy_intonation_perc_control,2024.2.4,Linux armv81,120.4819277,62989737409d018c733483c1,68817205a84113384fffdfe3,689ebfaa39df66191f3994e0,,,,,,,,,,,,,1,,,,,,,,,,,,,,,,,,,,,,,,,,,,,,,,,,,,,37,granuja,,,,,517.2386,519.024,0,0,1.272,0,0,51,51,36,1,REAL,FAKE,,,,,,,,,,,,,,,,,
,,,,,,,,,62989737409d018c733483c1,Spanish,13 or older,"no, only English or Spanish",yes,2025-08-15_01h04.51.126,empathy_intonation_perc_control,2024.2.4,Linux armv81,120.4819277,62989737409d018c733483c1,68817205a84113384fffdfe3,689ebfaa39df66191f3994e0,,,,,,,,,,,,,1,,,,,,,,,,,,,,,,,,,,,,,,,,,,,,,,,,,,,61,seda,,,,,519.0258,520.599,1,1,1.0591,0.0002,0,52,52,60,1,REAL,FAKE,,,,,,,,,,,,,,,,,
,,,,,,,,,62989737409d018c733483c1,Spanish,13 or older,"no, only English or Spanish",yes,2025-08-15_01h04.51.126,empathy_intonation_perc_control,2024.2.4,Linux armv81,120.4819277,62989737409d018c733483c1,68817205a84113384fffdfe3,689ebfaa39df66191f3994e0,,,,,,,,,,,,,0,,,,,,,,,,,,,,,,,,,,,,,,,,,,,,,,,,,,,32,fatacidad,,,,,520.6002,522.5788,0,1,1.4634,0.0002,0,53,53,31,1,REAL,FAKE,,,,,,,,,,,,,,,,,
,,,,,,,,,62989737409d018c733483c1,Spanish,13 or older,"no, only English or Spanish",yes,2025-08-15_01h04.51.126,empathy_intonation_perc_control,2024.2.4,Linux armv81,120.4819277,62989737409d018c733483c1,68817205a84113384fffdfe3,689ebfaa39df66191f3994e0,,,,,,,,,,,,,1,,,,,,,,,,,,,,,,,,,,,,,,,,,,,,,,,,,,,86,barato,,,,,522.58,524.5454,0,0,1.4495,0.0003,0,54,54,85,1,REAL,FAKE,,,,,,,,,,,,,,,,,
,,,,,,,,,62989737409d018c733483c1,Spanish,13 or older,"no, only English or Spanish",yes,2025-08-15_01h04.51.126,empathy_intonation_perc_control,2024.2.4,Linux armv81,120.4819277,62989737409d018c733483c1,68817205a84113384fffdfe3,689ebfaa39df66191f3994e0,,,,,,,,,,,,,1,,,,,,,,,,,,,,,,,,,,,,,,,,,,,,,,,,,,,22,lacayo,,,,,524.5466,526.2074,0,0,1.1446,,0,55,55,21,1,REAL,FAKE,,,,,,,,,,,,,,,,,
,,,,,,,,,62989737409d018c733483c1,Spanish,13 or older,"no, only English or Spanish",yes,2025-08-15_01h04.51.126,empathy_intonation_perc_control,2024.2.4,Linux armv81,120.4819277,62989737409d018c733483c1,68817205a84113384fffdfe3,689ebfaa39df66191f3994e0,,,,,,,,,,,,,1,,,,,,,,,,,,,,,,,,,,,,,,,,,,,,,,,,,,,39,torpe,,,,,526.2082,528.1401,0,0,1.4199,0.0001,0,56,56,38,1,REAL,FAKE,,,,,,,,,,,,,,,,,
,,,,,,,,,62989737409d018c733483c1,Spanish,13 or older,"no, only English or Spanish",yes,2025-08-15_01h04.51.126,empathy_intonation_perc_control,2024.2.4,Linux armv81,120.4819277,62989737409d018c733483c1,68817205a84113384fffdfe3,689ebfaa39df66191f3994e0,,,,,,,,,,,,,1,,,,,,,,,,,,,,,,,,,,,,,,,,,,,,,,,,,,,24,látigo,,,,,528.1413,530.0965,0,0,1.44,0.0009,0,57,57,23,1,REAL,FAKE,,,,,,,,,,,,,,,,,
,,,,,,,,,62989737409d018c733483c1,Spanish,13 or older,"no, only English or Spanish",yes,2025-08-15_01h04.51.126,empathy_intonation_perc_control,2024.2.4,Linux armv81,120.4819277,62989737409d018c733483c1,68817205a84113384fffdfe3,689ebfaa39df66191f3994e0,,,,,,,,,,,,,1,,,,,,,,,,,,,,,,,,,,,,,,,,,,,,,,,,,,,9,hacha,,,,,530.098,531.8959,0,0,1.2823,,0,58,58,8,1,REAL,FAKE,,,,,,,,,,,,,,,,,
,,,,,,,,,62989737409d018c733483c1,Spanish,13 or older,"no, only English or Spanish",yes,2025-08-15_01h04.51.126,empathy_intonation_perc_control,2024.2.4,Linux armv81,120.4819277,62989737409d018c733483c1,68817205a84113384fffdfe3,689ebfaa39df66191f3994e0,,,,,,,,,,,,,0,,,,,,,,,,,,,,,,,,,,,,,,,,,,,,,,,,,,,79,tropaje,,,,,531.8975,534.184,0,1,1.7751,0.0001,0,59,59,78,1,REAL,FAKE,,,,,,,,,,,,,,,,,
,,,,,,,,,62989737409d018c733483c1,Spanish,13 or older,"no, only English or Spanish",yes,2025-08-15_01h04.51.126,empathy_intonation_perc_control,2024.2.4,Linux armv81,120.4819277,62989737409d018c733483c1,68817205a84113384fffdfe3,689ebfaa39df66191f3994e0,,,,,,,,,,,,,0,,,,,,,,,,,,,,,,,,,,,,,,,,,,,,,,,,,,,33,pauca,,,,,534.1851,536.168,1,0,1.4666,0.0009,0,60,60,32,1,REAL,FAKE,,,,,,,,,,,,,,,,,
,,,,,,,,,62989737409d018c733483c1,Spanish,13 or older,"no, only English or Spanish",yes,2025-08-15_01h04.51.126,empathy_intonation_perc_control,2024.2.4,Linux armv81,120.4819277,62989737409d018c733483c1,68817205a84113384fffdfe3,689ebfaa39df66191f3994e0,,,,,,,,,,,,,1,,,,,,,,,,,,,,,,,,,,,,,,,,,,,,,,,,,,,3,pulmones,,,,,536.1721,538.0482,0,0,1.37,0.0001,0,61,61,2,1,REAL,FAKE,,,,,,,,,,,,,,,,,
,,,,,,,,,62989737409d018c733483c1,Spanish,13 or older,"no, only English or Spanish",yes,2025-08-15_01h04.51.126,empathy_intonation_perc_control,2024.2.4,Linux armv81,120.4819277,62989737409d018c733483c1,68817205a84113384fffdfe3,689ebfaa39df66191f3994e0,,,,,,,,,,,,,1,,,,,,,,,,,,,,,,,,,,,,,,,,,,,,,,,,,,,49,ganar,,,,,538.0496,540.168,1,1,1.6077,0.0001,0,62,62,48,1,REAL,FAKE,,,,,,,,,,,,,,,,,
,,,,,,,,,62989737409d018c733483c1,Spanish,13 or older,"no, only English or Spanish",yes,2025-08-15_01h04.51.126,empathy_intonation_perc_control,2024.2.4,Linux armv81,120.4819277,62989737409d018c733483c1,68817205a84113384fffdfe3,689ebfaa39df66191f3994e0,,,,,,,,,,,,,1,,,,,,,,,,,,,,,,,,,,,,,,,,,,,,,,,,,,,15,regar,,,,,540.1694,541.8818,1,1,1.1997,0.0001,0,63,63,14,1,REAL,FAKE,,,,,,,,,,,,,,,,,
,,,,,,,,,62989737409d018c733483c1,Spanish,13 or older,"no, only English or Spanish",yes,2025-08-15_01h04.51.126,empathy_intonation_perc_control,2024.2.4,Linux armv81,120.4819277,62989737409d018c733483c1,68817205a84113384fffdfe3,689ebfaa39df66191f3994e0,,,,,,,,,,,,,1,,,,,,,,,,,,,,,,,,,,,,,,,,,,,,,,,,,,,7,pésimo,,,,,541.8827,544.9439,0,0,2.5417,0.0002,0,64,64,6,1,REAL,FAKE,,,,,,,,,,,,,,,,,
,,,,,,,,,62989737409d018c733483c1,Spanish,13 or older,"no, only English or Spanish",yes,2025-08-15_01h04.51.126,empathy_intonation_perc_control,2024.2.4,Linux armv81,120.4819277,62989737409d018c733483c1,68817205a84113384fffdfe3,689ebfaa39df66191f3994e0,,,,,,,,,,,,,1,,,,,,,,,,,,,,,,,,,,,,,,,,,,,,,,,,,,,55,nevar,,,,,544.9461,547.1924,0,0,1.7312,0.0001,0,65,65,54,1,REAL,FAKE,,,,,,,,,,,,,,,,,
,,,,,,,,,62989737409d018c733483c1,Spanish,13 or older,"no, only English or Spanish",yes,2025-08-15_01h04.51.126,empathy_intonation_perc_control,2024.2.4,Linux armv81,120.4819277,62989737409d018c733483c1,68817205a84113384fffdfe3,689ebfaa39df66191f3994e0,,,,,,,,,,,,,1,,,,,,,,,,,,,,,,,,,,,,,,,,,,,,,,,,,,,60,matar,,,,,547.1935,548.7763,0,0,1.0664,0.0004,0,66,66,59,1,REAL,FAKE,,,,,,,,,,,,,,,,,
,,,,,,,,,62989737409d018c733483c1,Spanish,13 or older,"no, only English or Spanish",yes,2025-08-15_01h04.51.126,empathy_intonation_perc_control,2024.2.4,Linux armv81,120.4819277,62989737409d018c733483c1,68817205a84113384fffdfe3,689ebfaa39df66191f3994e0,,,,,,,,,,,,,0,,,,,,,,,,,,,,,,,,,,,,,,,,,,,,,,,,,,,4,batillón,,,,,548.7777,550.8385,0,1,1.5469,0.0019,0,67,67,3,1,REAL,FAKE,,,,,,,,,,,,,,,,,
,,,,,,,,,62989737409d018c733483c1,Spanish,13 or older,"no, only English or Spanish",yes,2025-08-15_01h04.51.126,empathy_intonation_perc_control,2024.2.4,Linux armv81,120.4819277,62989737409d018c733483c1,68817205a84113384fffdfe3,689ebfaa39df66191f3994e0,,,,,,,,,,,,,1,,,,,,,,,,,,,,,,,,,,,,,,,,,,,,,,,,,,,36,loro,,,,,550.8394,552.6944,0,0,1.3343,0.0002,0,68,68,35,1,REAL,FAKE,,,,,,,,,,,,,,,,,
,,,,,,,,,62989737409d018c733483c1,Spanish,13 or older,"no, only English or Spanish",yes,2025-08-15_01h04.51.126,empathy_intonation_perc_control,2024.2.4,Linux armv81,120.4819277,62989737409d018c733483c1,68817205a84113384fffdfe3,689ebfaa39df66191f3994e0,,,,,,,,,,,,,1,,,,,,,,,,,,,,,,,,,,,,,,,,,,,,,,,,,,,57,tacaño,,,,,552.6958,555.7356,0,0,2.5262,0.0002,0,69,69,56,1,REAL,FAKE,,,,,,,,,,,,,,,,,
,,,,,,,,,62989737409d018c733483c1,Spanish,13 or older,"no, only English or Spanish",yes,2025-08-15_01h04.51.126,empathy_intonation_perc_control,2024.2.4,Linux armv81,120.4819277,62989737409d018c733483c1,68817205a84113384fffdfe3,689ebfaa39df66191f3994e0,,,,,,,,,,,,,1,,,,,,,,,,,,,,,,,,,,,,,,,,,,,,,,,,,,,89,prisa,,,,,555.7378,557.3165,0,0,1.0667,0.0008,0,70,70,88,1,REAL,FAKE,,,,,,,,,,,,,,,,,
,,,,,,,,,62989737409d018c733483c1,Spanish,13 or older,"no, only English or Spanish",yes,2025-08-15_01h04.51.126,empathy_intonation_perc_control,2024.2.4,Linux armv81,120.4819277,62989737409d018c733483c1,68817205a84113384fffdfe3,689ebfaa39df66191f3994e0,,,,,,,,,,,,,1,,,,,,,,,,,,,,,,,,,,,,,,,,,,,,,,,,,,,68,alegre,,,,,557.3179,559.6377,0,0,1.8121,0.0001,0,71,71,67,1,REAL,FAKE,,,,,,,,,,,,,,,,,
,,,,,,,,,62989737409d018c733483c1,Spanish,13 or older,"no, only English or Spanish",yes,2025-08-15_01h04.51.126,empathy_intonation_perc_control,2024.2.4,Linux armv81,120.4819277,62989737409d018c733483c1,68817205a84113384fffdfe3,689ebfaa39df66191f3994e0,,,,,,,,,,,,,1,,,,,,,,,,,,,,,,,,,,,,,,,,,,,,,,,,,,,40,alfombra,,,,,559.6388,561.1697,0,0,1.0145,0.0003,0,72,72,39,1,REAL,FAKE,,,,,,,,,,,,,,,,,
,,,,,,,,,62989737409d018c733483c1,Spanish,13 or older,"no, only English or Spanish",yes,2025-08-15_01h04.51.126,empathy_intonation_perc_control,2024.2.4,Linux armv81,120.4819277,62989737409d018c733483c1,68817205a84113384fffdfe3,689ebfaa39df66191f3994e0,,,,,,,,,,,,,1,,,,,,,,,,,,,,,,,,,,,,,,,,,,,,,,,,,,,11,cenefa,,,,,561.171,564.122,0,0,2.4345,0.0002,0,73,73,10,1,REAL,FAKE,,,,,,,,,,,,,,,,,
,,,,,,,,,62989737409d018c733483c1,Spanish,13 or older,"no, only English or Spanish",yes,2025-08-15_01h04.51.126,empathy_intonation_perc_control,2024.2.4,Linux armv81,120.4819277,62989737409d018c733483c1,68817205a84113384fffdfe3,689ebfaa39df66191f3994e0,,,,,,,,,,,,,0,,,,,,,,,,,,,,,,,,,,,,,,,,,,,,,,,,,,,29,decar,,,,,564.1243,565.8967,1,0,1.2561,0.0017,0,74,74,28,1,REAL,FAKE,,,,,,,,,,,,,,,,,
,,,,,,,,,62989737409d018c733483c1,Spanish,13 or older,"no, only English or Spanish",yes,2025-08-15_01h04.51.126,empathy_intonation_perc_control,2024.2.4,Linux armv81,120.4819277,62989737409d018c733483c1,68817205a84113384fffdfe3,689ebfaa39df66191f3994e0,,,,,,,,,,,,,1,,,,,,,,,,,,,,,,,,,,,,,,,,,,,,,,,,,,,13,helar,,,,,565.8986,567.8423,0,0,1.4286,0.0003,0,75,75,12,1,REAL,FAKE,,,,,,,,,,,,,,,,,
,,,,,,,,,62989737409d018c733483c1,Spanish,13 or older,"no, only English or Spanish",yes,2025-08-15_01h04.51.126,empathy_intonation_perc_control,2024.2.4,Linux armv81,120.4819277,62989737409d018c733483c1,68817205a84113384fffdfe3,689ebfaa39df66191f3994e0,,,,,,,,,,,,,1,,,,,,,,,,,,,,,,,,,,,,,,,,,,,,,,,,,,,20,ávido,,,,,567.8437,571.1502,0,0,2.7974,0.0002,0,76,76,19,1,REAL,FAKE,,,,,,,,,,,,,,,,,
,,,,,,,,,62989737409d018c733483c1,Spanish,13 or older,"no, only English or Spanish",yes,2025-08-15_01h04.51.126,empathy_intonation_perc_control,2024.2.4,Linux armv81,120.4819277,62989737409d018c733483c1,68817205a84113384fffdfe3,689ebfaa39df66191f3994e0,,,,,,,,,,,,,1,,,,,,,,,,,,,,,,,,,,,,,,,,,,,,,,,,,,,14,yunque,,,,,571.1516,572.6347,0,0,0.9691,0,0,77,77,13,1,REAL,FAKE,,,,,,,,,,,,,,,,,
,,,,,,,,,62989737409d018c733483c1,Spanish,13 or older,"no, only English or Spanish",yes,2025-08-15_01h04.51.126,empathy_intonation_perc_control,2024.2.4,Linux armv81,120.4819277,62989737409d018c733483c1,68817205a84113384fffdfe3,689ebfaa39df66191f3994e0,,,,,,,,,,,,,0,,,,,,,,,,,,,,,,,,,,,,,,,,,,,,,,,,,,,50,flamida,,,,,572.6386,574.0122,0,1,0.8665,0.0001,0,78,78,49,1,REAL,FAKE,,,,,,,,,,,,,,,,,
,,,,,,,,,62989737409d018c733483c1,Spanish,13 or older,"no, only English or Spanish",yes,2025-08-15_01h04.51.126,empathy_intonation_perc_control,2024.2.4,Linux armv81,120.4819277,62989737409d018c733483c1,68817205a84113384fffdfe3,689ebfaa39df66191f3994e0,,,,,,,,,,,,,0,,,,,,,,,,,,,,,,,,,,,,,,,,,,,,,,,,,,,17,floroso,,,,,574.0141,575.7497,0,1,1.2183,0.0002,0,79,79,16,1,REAL,FAKE,,,,,,,,,,,,,,,,,
,,,,,,,,,62989737409d018c733483c1,Spanish,13 or older,"no, only English or Spanish",yes,2025-08-15_01h04.51.126,empathy_intonation_perc_control,2024.2.4,Linux armv81,120.4819277,62989737409d018c733483c1,68817205a84113384fffdfe3,689ebfaa39df66191f3994e0,,,,,,,,,,,,,1,,,,,,,,,,,,,,,,,,,,,,,,,,,,,,,,,,,,,62,flaco,,,,,575.7511,577.9361,1,1,1.6687,0.0002,0,80,80,61,1,REAL,FAKE,,,,,,,,,,,,,,,,,
,,,,,,,,,62989737409d018c733483c1,Spanish,13 or older,"no, only English or Spanish",yes,2025-08-15_01h04.51.126,empathy_intonation_perc_control,2024.2.4,Linux armv81,120.4819277,62989737409d018c733483c1,68817205a84113384fffdfe3,689ebfaa39df66191f3994e0,,,,,,,,,,,,,0,,,,,,,,,,,,,,,,,,,,,,,,,,,,,,,,,,,,,42,cadallo,,,,,577.9386,579.7726,0,1,1.3238,0.0001,0,81,81,41,1,REAL,FAKE,,,,,,,,,,,,,,,,,
,,,,,,,,,62989737409d018c733483c1,Spanish,13 or older,"no, only English or Spanish",yes,2025-08-15_01h04.51.126,empathy_intonation_perc_control,2024.2.4,Linux armv81,120.4819277,62989737409d018c733483c1,68817205a84113384fffdfe3,689ebfaa39df66191f3994e0,,,,,,,,,,,,,1,,,,,,,,,,,,,,,,,,,,,,,,,,,,,,,,,,,,,83,guante,,,,,579.7742,582.1407,0,0,1.8539,0.0003,0,82,82,82,1,REAL,FAKE,,,,,,,,,,,,,,,,,
,,,,,,,,,62989737409d018c733483c1,Spanish,13 or older,"no, only English or Spanish",yes,2025-08-15_01h04.51.126,empathy_intonation_perc_control,2024.2.4,Linux armv81,120.4819277,62989737409d018c733483c1,68817205a84113384fffdfe3,689ebfaa39df66191f3994e0,,,,,,,,,,,,,1,,,,,,,,,,,,,,,,,,,,,,,,,,,,,,,,,,,,,71,polvoriento,,,,,582.1426,583.9503,0,0,1.2929,0.0002,0,83,83,70,1,REAL,FAKE,,,,,,,,,,,,,,,,,
,,,,,,,,,62989737409d018c733483c1,Spanish,13 or older,"no, only English or Spanish",yes,2025-08-15_01h04.51.126,empathy_intonation_perc_control,2024.2.4,Linux armv81,120.4819277,62989737409d018c733483c1,68817205a84113384fffdfe3,689ebfaa39df66191f3994e0,,,,,,,,,,,,,1,,,,,,,,,,,,,,,,,,,,,,,,,,,,,,,,,,,,,81,pozo,,,,,583.9515,585.9129,0,0,1.445,0.0002,0,84,84,80,1,REAL,FAKE,,,,,,,,,,,,,,,,,
,,,,,,,,,62989737409d018c733483c1,Spanish,13 or older,"no, only English or Spanish",yes,2025-08-15_01h04.51.126,empathy_intonation_perc_control,2024.2.4,Linux armv81,120.4819277,62989737409d018c733483c1,68817205a84113384fffdfe3,689ebfaa39df66191f3994e0,,,,,,,,,,,,,1,,,,,,,,,,,,,,,,,,,,,,,,,,,,,,,,,,,,,41,rebuscar,,,,,585.9152,587.4801,0,0,1.0491,0.0001,0,85,85,40,1,REAL,FAKE,,,,,,,,,,,,,,,,,
,,,,,,,,,62989737409d018c733483c1,Spanish,13 or older,"no, only English or Spanish",yes,2025-08-15_01h04.51.126,empathy_intonation_perc_control,2024.2.4,Linux armv81,120.4819277,62989737409d018c733483c1,68817205a84113384fffdfe3,689ebfaa39df66191f3994e0,,,,,,,,,,,,,0,,,,,,,,,,,,,,,,,,,,,,,,,,,,,,,,,,,,,74,cintro,,,,,587.481,589.1954,0,1,1.1959,0.0002,0,86,86,73,1,REAL,FAKE,,,,,,,,,,,,,,,,,
,,,,,,,,,62989737409d018c733483c1,Spanish,13 or older,"no, only English or Spanish",yes,2025-08-15_01h04.51.126,empathy_intonation_perc_control,2024.2.4,Linux armv81,120.4819277,62989737409d018c733483c1,68817205a84113384fffdfe3,689ebfaa39df66191f3994e0,,,,,,,,,,,,,1,,,,,,,,,,,,,,,,,,,,,,,,,,,,,,,,,,,,,56,musgo,,,,,589.1966,590.616,0,0,0.9042,0.0002,0,87,87,55,1,REAL,FAKE,,,,,,,,,,,,,,,,,
,,,,,,,,,62989737409d018c733483c1,Spanish,13 or older,"no, only English or Spanish",yes,2025-08-15_01h04.51.126,empathy_intonation_perc_control,2024.2.4,Linux armv81,120.4819277,62989737409d018c733483c1,68817205a84113384fffdfe3,689ebfaa39df66191f3994e0,,,,,,,,,,,,,1,,,,,,,,,,,,,,,,,,,,,,,,,,,,,,,,,,,,,69,engatusar,,,,,590.6179,592.6763,0,0,1.5435,0,0,88,88,68,1,REAL,FAKE,,,,,,,,,,,,,,,,,
,,,,,,,,,62989737409d018c733483c1,Spanish,13 or older,"no, only English or Spanish",yes,2025-08-15_01h04.51.126,empathy_intonation_perc_control,2024.2.4,Linux armv81,120.4819277,62989737409d018c733483c1,68817205a84113384fffdfe3,689ebfaa39df66191f3994e0,,,,,,,,,,,,,1,,,,,,,,,,,,,,,,,,,,,,,,,,,,,,,,,,,,,46,martillo,,,,,592.6772,594.1879,0,0,0.9947,0.0002,0,89,89,45,1,REAL,FAKE,,,,,,,,,,,,,,,,,
,,,,,,,,,62989737409d018c733483c1,Spanish,13 or older,"no, only English or Spanish",yes,2025-08-15_01h04.51.126,empathy_intonation_perc_control,2024.2.4,Linux armv81,120.4819277,62989737409d018c733483c1,68817205a84113384fffdfe3,689ebfaa39df66191f3994e0,,,,,,,,,,,,,1,,,,,,,,,,,,,,,,,,,,,,,,,,,,,,,,,,,,,6,tergiversar,,,,,594.1894,595.7716,0,0,1.0666,0.0003,0,90,90,5,1,REAL,FAKE,,,,,,,,,,,,,,,,,
,,,,,,,,,62989737409d018c733483c1,Spanish,13 or older,"no, only English or Spanish",yes,2025-08-15_01h04.51.126,empathy_intonation_perc_control,2024.2.4,Linux armv81,120.4819277,62989737409d018c733483c1,68817205a84113384fffdfe3,689ebfaa39df66191f3994e0,,,,,,,,,,,,,0,,,,,,,,,,,,,,,,,,,,,,,,,,,,,,,,,,,,,53,vegada,,,,,595.7738,597.4953,0,1,1.2039,0.0001,0,91,91,52,1,REAL,FAKE,,,,,,,,,,,,,,,,,
,,,,,,,,,62989737409d018c733483c1,Spanish,13 or older,"no, only English or Spanish",yes,2025-08-15_01h04.51.126,empathy_intonation_perc_control,2024.2.4,Linux armv81,120.4819277,62989737409d018c733483c1,68817205a84113384fffdfe3,689ebfaa39df66191f3994e0,,,,,,,,,,,,,,,,,,,,,,,,,,,,,,,,,,,,,,,,,,,,,,,,,,,,,,,,,,,,,,,,,,,,,597.4959,615.7194,,,,,,,,,,,,,,,
,,,,,,,,,62989737409d018c733483c1,Spanish,13 or older,"no, only English or Spanish",yes,2025-08-15_01h04.51.126,empathy_intonation_perc_control,2024.2.4,Linux armv81,120.4819277,62989737409d018c733483c1,68817205a84113384fffdfe3,689ebfaa39df66191f3994e0,,,,,,,,,,,,,,,,,,,,,,,,,,,1,,,,,,,,,,,,,,,,,,,,,,,,,,,,,,,,,,,,,,,,,,,,615.7411,622.6801,strongly agree,0,0,0,0,1,I can easily tell if someone else wants to enter a conversation.,1,0,1,0,,
,,,,,,,,,62989737409d018c733483c1,Spanish,13 or older,"no, only English or Spanish",yes,2025-08-15_01h04.51.126,empathy_intonation_perc_control,2024.2.4,Linux armv81,120.4819277,62989737409d018c733483c1,68817205a84113384fffdfe3,689ebfaa39df66191f3994e0,,,,,,,,,,,,,,,,,,,,,,,,,,,2,,,,,,,,,,,,,,,,,,,,,,,,,,,,,,,,,,,,,,,,,,,,622.6832,627.7738,slightly disagree,0,1,1,1,1,I prefer animals to humans.,0,1,0,0,,
,,,,,,,,,62989737409d018c733483c1,Spanish,13 or older,"no, only English or Spanish",yes,2025-08-15_01h04.51.126,empathy_intonation_perc_control,2024.2.4,Linux armv81,120.4819277,62989737409d018c733483c1,68817205a84113384fffdfe3,689ebfaa39df66191f3994e0,,,,,,,,,,,,,,,,,,,,,,,,,,,3,,,,,,,,,,,,,,,,,,,,,,,,,,,,,,,,,,,,,,,,,,,,627.7757,630.5875,slightly disagree,0,2,2,2,1,I try to keep up with the current trends and fashions.,0,1,0,0,,
,,,,,,,,,62989737409d018c733483c1,Spanish,13 or older,"no, only English or Spanish",yes,2025-08-15_01h04.51.126,empathy_intonation_perc_control,2024.2.4,Linux armv81,120.4819277,62989737409d018c733483c1,68817205a84113384fffdfe3,689ebfaa39df66191f3994e0,,,,,,,,,,,,,,,,,,,,,,,,,,,4,,,,,,,,,,,,,,,,,,,,,,,,,,,,,,,,,,,,,,,,,,,,630.5916,633.499,strongly disagree,0,3,3,3,1,"I find it difficult to explain to others things that I understand easily,   when they don't understand it first time.",1,0,0,1,,
,,,,,,,,,62989737409d018c733483c1,Spanish,13 or older,"no, only English or Spanish",yes,2025-08-15_01h04.51.126,empathy_intonation_perc_control,2024.2.4,Linux armv81,120.4819277,62989737409d018c733483c1,68817205a84113384fffdfe3,689ebfaa39df66191f3994e0,,,,,,,,,,,,,,,,,,,,,,,,,,,5,,,,,,,,,,,,,,,,,,,,,,,,,,,,,,,,,,,,,,,,,,,,633.502,635.8145,strongly disagree,0,4,4,4,1,I dream most nights.,0,1,0,0,,
,,,,,,,,,62989737409d018c733483c1,Spanish,13 or older,"no, only English or Spanish",yes,2025-08-15_01h04.51.126,empathy_intonation_perc_control,2024.2.4,Linux armv81,120.4819277,62989737409d018c733483c1,68817205a84113384fffdfe3,689ebfaa39df66191f3994e0,,,,,,,,,,,,,,,,,,,,,,,,,,,6,,,,,,,,,,,,,,,,,,,,,,,,,,,,,,,,,,,,,,,,,,,,635.8176,638.254,strongly agree,0,5,5,5,1,I really enjoy caring for other people.,1,0,1,0,,
,,,,,,,,,62989737409d018c733483c1,Spanish,13 or older,"no, only English or Spanish",yes,2025-08-15_01h04.51.126,empathy_intonation_perc_control,2024.2.4,Linux armv81,120.4819277,62989737409d018c733483c1,68817205a84113384fffdfe3,689ebfaa39df66191f3994e0,,,,,,,,,,,,,,,,,,,,,,,,,,,7,,,,,,,,,,,,,,,,,,,,,,,,,,,,,,,,,,,,,,,,,,,,638.258,642.7005,slightly agree,0,6,6,6,1,I try to solve my own problems rather than discussing them with others.,0,1,0,0,,
,,,,,,,,,62989737409d018c733483c1,Spanish,13 or older,"no, only English or Spanish",yes,2025-08-15_01h04.51.126,empathy_intonation_perc_control,2024.2.4,Linux armv81,120.4819277,62989737409d018c733483c1,68817205a84113384fffdfe3,689ebfaa39df66191f3994e0,,,,,,,,,,,,,,,,,,,,,,,,,,,8,,,,,,,,,,,,,,,,,,,,,,,,,,,,,,,,,,,,,,,,,,,,642.7034,650.0248,strongly disagree,0,7,7,7,1,I find it hard to know what to do in a social situation.,1,0,0,1,,
,,,,,,,,,62989737409d018c733483c1,Spanish,13 or older,"no, only English or Spanish",yes,2025-08-15_01h04.51.126,empathy_intonation_perc_control,2024.2.4,Linux armv81,120.4819277,62989737409d018c733483c1,68817205a84113384fffdfe3,689ebfaa39df66191f3994e0,,,,,,,,,,,,,,,,,,,,,,,,,,,9,,,,,,,,,,,,,,,,,,,,,,,,,,,,,,,,,,,,,,,,,,,,650.0274,657.4489,slightly agree,0,8,8,8,1,I am at my best first thing in the morning.,0,1,0,0,,
,,,,,,,,,62989737409d018c733483c1,Spanish,13 or older,"no, only English or Spanish",yes,2025-08-15_01h04.51.126,empathy_intonation_perc_control,2024.2.4,Linux armv81,120.4819277,62989737409d018c733483c1,68817205a84113384fffdfe3,689ebfaa39df66191f3994e0,,,,,,,,,,,,,,,,,,,,,,,,,,,10,,,,,,,,,,,,,,,,,,,,,,,,,,,,,,,,,,,,,,,,,,,,657.451,661.0932,strongly disagree,0,9,9,9,1,People often tell me that I went too far in driving my point home in a discussion.,1,0,0,1,,
,,,,,,,,,62989737409d018c733483c1,Spanish,13 or older,"no, only English or Spanish",yes,2025-08-15_01h04.51.126,empathy_intonation_perc_control,2024.2.4,Linux armv81,120.4819277,62989737409d018c733483c1,68817205a84113384fffdfe3,689ebfaa39df66191f3994e0,,,,,,,,,,,,,,,,,,,,,,,,,,,11,,,,,,,,,,,,,,,,,,,,,,,,,,,,,,,,,,,,,,,,,,,,661.0947,664.5752,strongly disagree,0,10,10,10,1,It doesn't bother me too much if I am late meeting a friend.,1,0,0,1,,
,,,,,,,,,62989737409d018c733483c1,Spanish,13 or older,"no, only English or Spanish",yes,2025-08-15_01h04.51.126,empathy_intonation_perc_control,2024.2.4,Linux armv81,120.4819277,62989737409d018c733483c1,68817205a84113384fffdfe3,689ebfaa39df66191f3994e0,,,,,,,,,,,,,,,,,,,,,,,,,,,12,,,,,,,,,,,,,,,,,,,,,,,,,,,,,,,,,,,,,,,,,,,,664.5776,668.5357,strongly disagree,0,11,11,11,1,"Friendships and relationships are just too difficult, so I tend not to 
  bother with them.",1,0,0,1,,
,,,,,,,,,62989737409d018c733483c1,Spanish,13 or older,"no, only English or Spanish",yes,2025-08-15_01h04.51.126,empathy_intonation_perc_control,2024.2.4,Linux armv81,120.4819277,62989737409d018c733483c1,68817205a84113384fffdfe3,689ebfaa39df66191f3994e0,,,,,,,,,,,,,,,,,,,,,,,,,,,13,,,,,,,,,,,,,,,,,,,,,,,,,,,,,,,,,,,,,,,,,,,,668.5377,674.0376,slightly disagree,0,12,12,12,1,"I would never break a law, no matter how minor.",0,1,0,0,,
,,,,,,,,,62989737409d018c733483c1,Spanish,13 or older,"no, only English or Spanish",yes,2025-08-15_01h04.51.126,empathy_intonation_perc_control,2024.2.4,Linux armv81,120.4819277,62989737409d018c733483c1,68817205a84113384fffdfe3,689ebfaa39df66191f3994e0,,,,,,,,,,,,,,,,,,,,,,,,,,,14,,,,,,,,,,,,,,,,,,,,,,,,,,,,,,,,,,,,,,,,,,,,674.04,676.8601,strongly disagree,0,13,13,13,1,I often find it difficult to judge if something is rude or polite.,1,0,0,1,,
,,,,,,,,,62989737409d018c733483c1,Spanish,13 or older,"no, only English or Spanish",yes,2025-08-15_01h04.51.126,empathy_intonation_perc_control,2024.2.4,Linux armv81,120.4819277,62989737409d018c733483c1,68817205a84113384fffdfe3,689ebfaa39df66191f3994e0,,,,,,,,,,,,,,,,,,,,,,,,,,,15,,,,,,,,,,,,,,,,,,,,,,,,,,,,,,,,,,,,,,,,,,,,676.8642,682.8003,strongly disagree,0,14,14,14,1,"In a conversation, I tend to focus on my own thoughts rather than on what 
  my listener might be thinking.",1,0,0,1,,
,,,,,,,,,62989737409d018c733483c1,Spanish,13 or older,"no, only English or Spanish",yes,2025-08-15_01h04.51.126,empathy_intonation_perc_control,2024.2.4,Linux armv81,120.4819277,62989737409d018c733483c1,68817205a84113384fffdfe3,689ebfaa39df66191f3994e0,,,,,,,,,,,,,,,,,,,,,,,,,,,16,,,,,,,,,,,,,,,,,,,,,,,,,,,,,,,,,,,,,,,,,,,,682.8018,687.496,slightly disagree,0,15,15,15,1,I prefer practical jokes to verbal humor.,0,1,0,0,,
,,,,,,,,,62989737409d018c733483c1,Spanish,13 or older,"no, only English or Spanish",yes,2025-08-15_01h04.51.126,empathy_intonation_perc_control,2024.2.4,Linux armv81,120.4819277,62989737409d018c733483c1,68817205a84113384fffdfe3,689ebfaa39df66191f3994e0,,,,,,,,,,,,,,,,,,,,,,,,,,,17,,,,,,,,,,,,,,,,,,,,,,,,,,,,,,,,,,,,,,,,,,,,687.499,691.1747,slightly disagree,0,16,16,16,1,I live life for today rather than the future.,0,1,0,0,,
,,,,,,,,,62989737409d018c733483c1,Spanish,13 or older,"no, only English or Spanish",yes,2025-08-15_01h04.51.126,empathy_intonation_perc_control,2024.2.4,Linux armv81,120.4819277,62989737409d018c733483c1,68817205a84113384fffdfe3,689ebfaa39df66191f3994e0,,,,,,,,,,,,,,,,,,,,,,,,,,,18,,,,,,,,,,,,,,,,,,,,,,,,,,,,,,,,,,,,,,,,,,,,691.1792,694.9782,strongly disagree,0,17,17,17,1,"When I was a child, I enjoyed cutting up worms to see what would happen.",1,0,0,1,,
