instructions_2afc.started,instructions_2afc.stopped,instructions_2afc_loop.thisRepN,instructions_2afc_loop.thisTrialN,instructions_2afc_loop.thisN,instructions_2afc_loop.thisIndex,instructions_2afc_loop.ran,instructions_text,continue_text,participant_id,"What variety of Spanish are you most familiar with? (e.g., Peruvian, Spanish, Mexican)",At what age did you begin learning Spanish?,Are you proficient in any languages other than English/Spanish?,"Are you familiar with Caribbean (e.g., Caribbean, Puerto Rican) or Galician Spanish?",date,expName,psychopyVersion,OS,frameRate,id,study_id,session,practice_2afc.started,practice_2afc.stopped,key_resp_2afc_practice.keys,key_resp_2afc_practice.corr,key_resp_2afc_practice.rt,key_resp_2afc_practice.duration,trials_2afc_practice_loop.thisRepN,trials_2afc_practice_loop.thisTrialN,trials_2afc_practice_loop.thisN,trials_2afc_practice_loop.thisIndex,trials_2afc_practice_loop.ran,path,correct_response,check_2afc.started,check_2afc.stopped,trial_2afc.started,trial_2afc.stopped,key_resp_2afc_trial.keys,key_resp_2afc_trial.corr,key_resp_2afc_trial.rt,key_resp_2afc_trial.duration,trials_2afc_loop.thisRepN,trials_2afc_loop.thisTrialN,trials_2afc_loop.thisN,trials_2afc_loop.thisIndex,trials_2afc_loop.ran,item_num,target,variety,instructions_lextale.started,instructions_lextale.stopped,instructions_lextale_loop.thisRepN,instructions_lextale_loop.thisTrialN,instructions_lextale_loop.thisN,instructions_lextale_loop.thisIndex,instructions_lextale_loop.ran,practice_lextale.started,practice_lextale.stopped,key_resp_lextale_practice.keys,key_resp_lextale_practice.corr,key_resp_lextale_practice.rt,key_resp_lextale_practice.duration,practice_feedback_lextale.started,practice_feedback_lextale.stopped,trials_lextale_practice_loop.thisRepN,trials_lextale_practice_loop.thisTrialN,trials_lextale_practice_loop.thisN,trials_lextale_practice_loop.thisIndex,trials_lextale_practice_loop.ran,stim,word,prac_button_real,prac_button_false,check_lextale.started,check_lextale.stopped,trial_lextale.started,trial_lextale.stopped,key_resp_lextale_trial.keys,key_resp_lextale_trial.corr,key_resp_lextale_trial.rt,key_resp_lextale_trial.duration,trials_lextale_loop.thisRepN,trials_lextale_loop.thisTrialN,trials_lextale_loop.thisN,trials_lextale_loop.thisIndex,trials_lextale_loop.ran,button_real,button_false,instructions_eq.started,instructions_eq.stopped,trial_eq.started,trial_eq.stopped,slider_eq_trial.response,trials_eq_loop.thisRepN,trials_eq_loop.thisTrialN,trials_eq_loop.thisN,trials_eq_loop.thisIndex,trials_eq_loop.ran,item,is_test_item,is_distractor,is_agree_score,is_disagree_score,end_exp.started,end_exp.stopped
0.0427,2.0827,0,0,0,0,1,"In the following task you are going to hear a series of utterances. 

  You will decide if the utterances sound like questions or not using your keyboard.", (press the spacebar to continue),62b20c0065e9809e66d13fa5,Spanish,13 or older,"no, only English or Spanish",no,2025-08-12_14h03.41.305,empathy_intonation_perc_control,2024.2.4,Win32,60.97560976,62b20c0065e9809e66d13fa5,68817205a84113384fffdfe3,689b81d48aa23f1f1df9f4c6,,,,,,,,,,,,,,,,,,,,,,,,,,,,,,,,,,,,,,,,,,,,,,,,,,,,,,,,,,,,,,,,,,,,,,,,,,,,,,,,,,,,,
2.0881,17.0228,0,1,1,1,1,"If you believe the utterance is a question, type '1' (for 'yes') and if you do not 
  believe it is a question type '0' (for 'no').

  Let's practice a bit...", (press the spacebar to continue),62b20c0065e9809e66d13fa5,Spanish,13 or older,"no, only English or Spanish",no,2025-08-12_14h03.41.305,empathy_intonation_perc_control,2024.2.4,Win32,60.97560976,62b20c0065e9809e66d13fa5,68817205a84113384fffdfe3,689b81d48aa23f1f1df9f4c6,,,,,,,,,,,,,,,,,,,,,,,,,,,,,,,,,,,,,,,,,,,,,,,,,,,,,,,,,,,,,,,,,,,,,,,,,,,,,,,,,,,,,
,,,,,,,,,62b20c0065e9809e66d13fa5,Spanish,13 or older,"no, only English or Spanish",no,2025-08-12_14h03.41.305,empathy_intonation_perc_control,2024.2.4,Win32,60.97560976,62b20c0065e9809e66d13fa5,68817205a84113384fffdfe3,689b81d48aa23f1f1df9f4c6,17.0455,20.4694,1,1,2.8976,,0,0,0,1,1,./stim/wavs/argentine_question_filler_Mi-vecino-habla-mucho.wav,1,,,,,,,,,,,,,,,,,,,,,,,,,,,,,,,,,,,,,,,,,,,,,,,,,,,,,,,,,,,,,,,,,,,,,,,,
,,,,,,,,,62b20c0065e9809e66d13fa5,Spanish,13 or older,"no, only English or Spanish",no,2025-08-12_14h03.41.305,empathy_intonation_perc_control,2024.2.4,Win32,60.97560976,62b20c0065e9809e66d13fa5,68817205a84113384fffdfe3,689b81d48aa23f1f1df9f4c6,20.4708,23.0708,0,1,2.0768,,0,1,1,4,1,./stim/wavs/cuban_statement_filler_Cocinabas-por-la-noche.wav,0,,,,,,,,,,,,,,,,,,,,,,,,,,,,,,,,,,,,,,,,,,,,,,,,,,,,,,,,,,,,,,,,,,,,,,,,
,,,,,,,,,62b20c0065e9809e66d13fa5,Spanish,13 or older,"no, only English or Spanish",no,2025-08-12_14h03.41.305,empathy_intonation_perc_control,2024.2.4,Win32,60.97560976,62b20c0065e9809e66d13fa5,68817205a84113384fffdfe3,689b81d48aa23f1f1df9f4c6,23.0717,26.0473,0,0,2.4502,,0,2,2,2,1,./stim/wavs/chilean_question_filler_Mi-padre-cantaba-bien.wav,1,,,,,,,,,,,,,,,,,,,,,,,,,,,,,,,,,,,,,,,,,,,,,,,,,,,,,,,,,,,,,,,,,,,,,,,,
,,,,,,,,,62b20c0065e9809e66d13fa5,Spanish,13 or older,"no, only English or Spanish",no,2025-08-12_14h03.41.305,empathy_intonation_perc_control,2024.2.4,Win32,60.97560976,62b20c0065e9809e66d13fa5,68817205a84113384fffdfe3,689b81d48aa23f1f1df9f4c6,26.0483,28.6942,1,1,2.1162,,0,3,3,0,1,./stim/wavs/castilian_question_filler_Mi-esposo-conoce-al-chico.wav,1,,,,,,,,,,,,,,,,,,,,,,,,,,,,,,,,,,,,,,,,,,,,,,,,,,,,,,,,,,,,,,,,,,,,,,,,
,,,,,,,,,62b20c0065e9809e66d13fa5,Spanish,13 or older,"no, only English or Spanish",no,2025-08-12_14h03.41.305,empathy_intonation_perc_control,2024.2.4,Win32,60.97560976,62b20c0065e9809e66d13fa5,68817205a84113384fffdfe3,689b81d48aa23f1f1df9f4c6,28.6957,31.366,0,1,2.1468,,0,4,4,5,1,./stim/wavs/andalusian_statement_filler_Alberto-nunca-se-afeita.wav,0,,,,,,,,,,,,,,,,,,,,,,,,,,,,,,,,,,,,,,,,,,,,,,,,,,,,,,,,,,,,,,,,,,,,,,,,
,,,,,,,,,62b20c0065e9809e66d13fa5,Spanish,13 or older,"no, only English or Spanish",no,2025-08-12_14h03.41.305,empathy_intonation_perc_control,2024.2.4,Win32,60.97560976,62b20c0065e9809e66d13fa5,68817205a84113384fffdfe3,689b81d48aa23f1f1df9f4c6,31.3668,34.1055,1,1,2.2214,,0,5,5,3,1,./stim/wavs/mexican_question_filler_Felipe-no-tiene-contrasena.wav,1,,,,,,,,,,,,,,,,,,,,,,,,,,,,,,,,,,,,,,,,,,,,,,,,,,,,,,,,,,,,,,,,,,,,,,,,
,,,,,,,,,62b20c0065e9809e66d13fa5,Spanish,13 or older,"no, only English or Spanish",no,2025-08-12_14h03.41.305,empathy_intonation_perc_control,2024.2.4,Win32,60.97560976,62b20c0065e9809e66d13fa5,68817205a84113384fffdfe3,689b81d48aa23f1f1df9f4c6,34.1066,37.1533,0,1,2.5302,,0,6,6,6,1,./stim/wavs/peruvian_statement_filler_El-nino-habla-con-su-madre.wav,0,,,,,,,,,,,,,,,,,,,,,,,,,,,,,,,,,,,,,,,,,,,,,,,,,,,,,,,,,,,,,,,,,,,,,,,,
,,,,,,,,,62b20c0065e9809e66d13fa5,Spanish,13 or older,"no, only English or Spanish",no,2025-08-12_14h03.41.305,empathy_intonation_perc_control,2024.2.4,Win32,60.97560976,62b20c0065e9809e66d13fa5,68817205a84113384fffdfe3,689b81d48aa23f1f1df9f4c6,37.1543,40.2838,0,1,2.6052,,0,7,7,7,1,./stim/wavs/puertorican_statement_filler_La-nina-pinta-con-su-amiga.wav,0,,,,,,,,,,,,,,,,,,,,,,,,,,,,,,,,,,,,,,,,,,,,,,,,,,,,,,,,,,,,,,,,,,,,,,,,
,,,,,,,,,62b20c0065e9809e66d13fa5,Spanish,13 or older,"no, only English or Spanish",no,2025-08-12_14h03.41.305,empathy_intonation_perc_control,2024.2.4,Win32,60.97560976,62b20c0065e9809e66d13fa5,68817205a84113384fffdfe3,689b81d48aa23f1f1df9f4c6,,,,,,,,,,,,,,40.2843,42.1396,,,,,,,,,,,,,,,,,,,,,,,,,,,,,,,,,,,,,,,,,,,,,,,,,,,,,,,,,,,,,,,,,,,,,,
,,,,,,,,,62b20c0065e9809e66d13fa5,Spanish,13 or older,"no, only English or Spanish",no,2025-08-12_14h03.41.305,empathy_intonation_perc_control,2024.2.4,Win32,60.97560976,62b20c0065e9809e66d13fa5,68817205a84113384fffdfe3,689b81d48aa23f1f1df9f4c6,,,,,,,,,,,,./stim/wavs/castilian_match_interrogative-total-yn_David-leia-el-libro.wav,1,,,42.1578,44.7796,1,1,2.106,,0,0,0,0,1,1,0,castilian,,,,,,,,,,,,,,,,,,,,,,,,,,,,,,,,,,,,,,,,,,,,,,,,,,,,,,,,
,,,,,,,,,62b20c0065e9809e66d13fa5,Spanish,13 or older,"no, only English or Spanish",no,2025-08-12_14h03.41.305,empathy_intonation_perc_control,2024.2.4,Win32,60.97560976,62b20c0065e9809e66d13fa5,68817205a84113384fffdfe3,689b81d48aa23f1f1df9f4c6,,,,,,,,,,,,./stim/wavs/mexican_match_declarative-broad-focus_Daniel-iba-a-Bolivia.wav,0,,,44.7809,47.1429,0,1,1.832,,0,1,1,57,1,58,0,mexican,,,,,,,,,,,,,,,,,,,,,,,,,,,,,,,,,,,,,,,,,,,,,,,,,,,,,,,,
,,,,,,,,,62b20c0065e9809e66d13fa5,Spanish,13 or older,"no, only English or Spanish",no,2025-08-12_14h03.41.305,empathy_intonation_perc_control,2024.2.4,Win32,60.97560976,62b20c0065e9809e66d13fa5,68817205a84113384fffdfe3,689b81d48aa23f1f1df9f4c6,,,,,,,,,,,,./stim/wavs/mexican_match_interrogative-total-yn_Marta-abre-el-regalo.wav,1,,,47.144,49.8402,1,1,2.1692,,0,2,2,17,1,18,0,mexican,,,,,,,,,,,,,,,,,,,,,,,,,,,,,,,,,,,,,,,,,,,,,,,,,,,,,,,,
,,,,,,,,,62b20c0065e9809e66d13fa5,Spanish,13 or older,"no, only English or Spanish",no,2025-08-12_14h03.41.305,empathy_intonation_perc_control,2024.2.4,Win32,60.97560976,62b20c0065e9809e66d13fa5,68817205a84113384fffdfe3,689b81d48aa23f1f1df9f4c6,,,,,,,,,,,,./stim/wavs/cuban_mismatch_declarative-broad-focus_La-nina-lava-el-plato.wav,0,,,49.8411,52.5377,1,0,2.1642,,0,3,3,75,1,76,0,cuban,,,,,,,,,,,,,,,,,,,,,,,,,,,,,,,,,,,,,,,,,,,,,,,,,,,,,,,,
,,,,,,,,,62b20c0065e9809e66d13fa5,Spanish,13 or older,"no, only English or Spanish",no,2025-08-12_14h03.41.305,empathy_intonation_perc_control,2024.2.4,Win32,60.97560976,62b20c0065e9809e66d13fa5,68817205a84113384fffdfe3,689b81d48aa23f1f1df9f4c6,,,,,,,,,,,,./stim/wavs/mexican_mismatch_interrogative-total-yn_La-maestra-vive-en-Paris.wav,1,,,52.5387,55.0191,1,1,1.9492,,0,4,4,36,1,37,0,mexican,,,,,,,,,,,,,,,,,,,,,,,,,,,,,,,,,,,,,,,,,,,,,,,,,,,,,,,,
,,,,,,,,,62b20c0065e9809e66d13fa5,Spanish,13 or older,"no, only English or Spanish",no,2025-08-12_14h03.41.305,empathy_intonation_perc_control,2024.2.4,Win32,60.97560976,62b20c0065e9809e66d13fa5,68817205a84113384fffdfe3,689b81d48aa23f1f1df9f4c6,,,,,,,,,,,,./stim/wavs/puertorican_mismatch_declarative-broad-focus_La-nina-lava-el-plato.wav,0,,,55.0202,57.4328,0,1,1.886,,0,5,5,87,1,88,0,puertorican,,,,,,,,,,,,,,,,,,,,,,,,,,,,,,,,,,,,,,,,,,,,,,,,,,,,,,,,
,,,,,,,,,62b20c0065e9809e66d13fa5,Spanish,13 or older,"no, only English or Spanish",no,2025-08-12_14h03.41.305,empathy_intonation_perc_control,2024.2.4,Win32,60.97560976,62b20c0065e9809e66d13fa5,68817205a84113384fffdfe3,689b81d48aa23f1f1df9f4c6,,,,,,,,,,,,./stim/wavs/mexican_mismatch_declarative-broad-focus_Mi-novio-viene-del-lago.wav,0,,,57.4338,60.2963,0,1,2.3345,,0,6,6,81,1,82,0,mexican,,,,,,,,,,,,,,,,,,,,,,,,,,,,,,,,,,,,,,,,,,,,,,,,,,,,,,,,
,,,,,,,,,62b20c0065e9809e66d13fa5,Spanish,13 or older,"no, only English or Spanish",no,2025-08-12_14h03.41.305,empathy_intonation_perc_control,2024.2.4,Win32,60.97560976,62b20c0065e9809e66d13fa5,68817205a84113384fffdfe3,689b81d48aa23f1f1df9f4c6,,,,,,,,,,,,./stim/wavs/cuban_match_declarative-broad-focus_Maria-bebe-el-vino.wav,0,,,60.2971,63.2268,0,1,2.4061,,0,7,7,53,1,54,0,cuban,,,,,,,,,,,,,,,,,,,,,,,,,,,,,,,,,,,,,,,,,,,,,,,,,,,,,,,,
,,,,,,,,,62b20c0065e9809e66d13fa5,Spanish,13 or older,"no, only English or Spanish",no,2025-08-12_14h03.41.305,empathy_intonation_perc_control,2024.2.4,Win32,60.97560976,62b20c0065e9809e66d13fa5,68817205a84113384fffdfe3,689b81d48aa23f1f1df9f4c6,,,,,,,,,,,,./stim/wavs/puertorican_mismatch_declarative-broad-focus_El-hombre-mira-la-luna.wav,0,,,63.2272,65.908,0,1,2.1519,,0,8,8,84,1,85,0,puertorican,,,,,,,,,,,,,,,,,,,,,,,,,,,,,,,,,,,,,,,,,,,,,,,,,,,,,,,,
,,,,,,,,,62b20c0065e9809e66d13fa5,Spanish,13 or older,"no, only English or Spanish",no,2025-08-12_14h03.41.305,empathy_intonation_perc_control,2024.2.4,Win32,60.97560976,62b20c0065e9809e66d13fa5,68817205a84113384fffdfe3,689b81d48aa23f1f1df9f4c6,,,,,,,,,,,,./stim/wavs/mexican_match_declarative-broad-focus_Emilio-ama-la-marcha.wav,0,,,65.909,68.6727,0,1,2.2325,,0,9,9,59,1,60,0,mexican,,,,,,,,,,,,,,,,,,,,,,,,,,,,,,,,,,,,,,,,,,,,,,,,,,,,,,,,
,,,,,,,,,62b20c0065e9809e66d13fa5,Spanish,13 or older,"no, only English or Spanish",no,2025-08-12_14h03.41.305,empathy_intonation_perc_control,2024.2.4,Win32,60.97560976,62b20c0065e9809e66d13fa5,68817205a84113384fffdfe3,689b81d48aa23f1f1df9f4c6,,,,,,,,,,,,./stim/wavs/castilian_mismatch_interrogative-total-yn_La-maestra-vive-en-Paris.wav,1,,,68.6736,71.5357,1,1,2.3361,,0,10,10,24,1,25,0,castilian,,,,,,,,,,,,,,,,,,,,,,,,,,,,,,,,,,,,,,,,,,,,,,,,,,,,,,,,
,,,,,,,,,62b20c0065e9809e66d13fa5,Spanish,13 or older,"no, only English or Spanish",no,2025-08-12_14h03.41.305,empathy_intonation_perc_control,2024.2.4,Win32,60.97560976,62b20c0065e9809e66d13fa5,68817205a84113384fffdfe3,689b81d48aa23f1f1df9f4c6,,,,,,,,,,,,./stim/wavs/castilian_mismatch_interrogative-total-yn_Mi-tia-odia-la-lluvia.wav,1,,,71.5366,74.183,1,1,2.1159,,0,11,11,28,1,29,0,castilian,,,,,,,,,,,,,,,,,,,,,,,,,,,,,,,,,,,,,,,,,,,,,,,,,,,,,,,,
,,,,,,,,,62b20c0065e9809e66d13fa5,Spanish,13 or older,"no, only English or Spanish",no,2025-08-12_14h03.41.305,empathy_intonation_perc_control,2024.2.4,Win32,60.97560976,62b20c0065e9809e66d13fa5,68817205a84113384fffdfe3,689b81d48aa23f1f1df9f4c6,,,,,,,,,,,,./stim/wavs/puertorican_mismatch_interrogative-total-yn_Mi-madre-come-la-fruta.wav,1,,,74.1839,76.8471,0,0,2.1318,,0,12,12,43,1,44,1,puertorican,,,,,,,,,,,,,,,,,,,,,,,,,,,,,,,,,,,,,,,,,,,,,,,,,,,,,,,,
,,,,,,,,,62b20c0065e9809e66d13fa5,Spanish,13 or older,"no, only English or Spanish",no,2025-08-12_14h03.41.305,empathy_intonation_perc_control,2024.2.4,Win32,60.97560976,62b20c0065e9809e66d13fa5,68817205a84113384fffdfe3,689b81d48aa23f1f1df9f4c6,,,,,,,,,,,,./stim/wavs/puertorican_match_interrogative-total-yn_David-leia-el-libro.wav,1,,,76.8482,79.1785,0,0,1.7998,,0,13,13,20,1,21,1,puertorican,,,,,,,,,,,,,,,,,,,,,,,,,,,,,,,,,,,,,,,,,,,,,,,,,,,,,,,,
,,,,,,,,,62b20c0065e9809e66d13fa5,Spanish,13 or older,"no, only English or Spanish",no,2025-08-12_14h03.41.305,empathy_intonation_perc_control,2024.2.4,Win32,60.97560976,62b20c0065e9809e66d13fa5,68817205a84113384fffdfe3,689b81d48aa23f1f1df9f4c6,,,,,,,,,,,,./stim/wavs/cuban_match_interrogative-total-yn_Marta-abre-el-regalo.wav,1,,,79.1793,81.5596,0,0,1.851,,0,14,14,11,1,12,1,cuban,,,,,,,,,,,,,,,,,,,,,,,,,,,,,,,,,,,,,,,,,,,,,,,,,,,,,,,,
,,,,,,,,,62b20c0065e9809e66d13fa5,Spanish,13 or older,"no, only English or Spanish",no,2025-08-12_14h03.41.305,empathy_intonation_perc_control,2024.2.4,Win32,60.97560976,62b20c0065e9809e66d13fa5,68817205a84113384fffdfe3,689b81d48aa23f1f1df9f4c6,,,,,,,,,,,,./stim/wavs/puertorican_match_interrogative-total-yn_Manuela-vende-el-carro.wav,1,,,81.5607,83.7575,0,0,1.6664,,0,15,15,22,1,23,1,puertorican,,,,,,,,,,,,,,,,,,,,,,,,,,,,,,,,,,,,,,,,,,,,,,,,,,,,,,,,
,,,,,,,,,62b20c0065e9809e66d13fa5,Spanish,13 or older,"no, only English or Spanish",no,2025-08-12_14h03.41.305,empathy_intonation_perc_control,2024.2.4,Win32,60.97560976,62b20c0065e9809e66d13fa5,68817205a84113384fffdfe3,689b81d48aa23f1f1df9f4c6,,,,,,,,,,,,./stim/wavs/mexican_match_declarative-broad-focus_Marta-abre-el-regalo.wav,0,,,83.7584,85.6887,0,1,1.4044,,0,16,16,61,1,62,0,mexican,,,,,,,,,,,,,,,,,,,,,,,,,,,,,,,,,,,,,,,,,,,,,,,,,,,,,,,,
,,,,,,,,,62b20c0065e9809e66d13fa5,Spanish,13 or older,"no, only English or Spanish",no,2025-08-12_14h03.41.305,empathy_intonation_perc_control,2024.2.4,Win32,60.97560976,62b20c0065e9809e66d13fa5,68817205a84113384fffdfe3,689b81d48aa23f1f1df9f4c6,,,,,,,,,,,,./stim/wavs/cuban_mismatch_interrogative-total-yn_El-nino-oye-el-rio.wav,1,,,85.6896,87.5376,0,0,1.3201,,0,17,17,30,1,31,1,cuban,,,,,,,,,,,,,,,,,,,,,,,,,,,,,,,,,,,,,,,,,,,,,,,,,,,,,,,,
,,,,,,,,,62b20c0065e9809e66d13fa5,Spanish,13 or older,"no, only English or Spanish",no,2025-08-12_14h03.41.305,empathy_intonation_perc_control,2024.2.4,Win32,60.97560976,62b20c0065e9809e66d13fa5,68817205a84113384fffdfe3,689b81d48aa23f1f1df9f4c6,,,,,,,,,,,,./stim/wavs/cuban_mismatch_interrogative-total-yn_Mi-novio-viene-del-lago.wav,1,,,87.5385,89.7016,0,0,1.6319,,0,18,18,32,1,33,1,cuban,,,,,,,,,,,,,,,,,,,,,,,,,,,,,,,,,,,,,,,,,,,,,,,,,,,,,,,,
,,,,,,,,,62b20c0065e9809e66d13fa5,Spanish,13 or older,"no, only English or Spanish",no,2025-08-12_14h03.41.305,empathy_intonation_perc_control,2024.2.4,Win32,60.97560976,62b20c0065e9809e66d13fa5,68817205a84113384fffdfe3,689b81d48aa23f1f1df9f4c6,,,,,,,,,,,,./stim/wavs/mexican_mismatch_declarative-broad-focus_El-hombre-mira-la-luna.wav,0,,,89.7025,91.766,0,1,1.5334,,0,19,19,79,1,80,0,mexican,,,,,,,,,,,,,,,,,,,,,,,,,,,,,,,,,,,,,,,,,,,,,,,,,,,,,,,,
,,,,,,,,,62b20c0065e9809e66d13fa5,Spanish,13 or older,"no, only English or Spanish",no,2025-08-12_14h03.41.305,empathy_intonation_perc_control,2024.2.4,Win32,60.97560976,62b20c0065e9809e66d13fa5,68817205a84113384fffdfe3,689b81d48aa23f1f1df9f4c6,,,,,,,,,,,,./stim/wavs/cuban_match_declarative-broad-focus_Daniel-iba-a-Bolivia.wav,0,,,91.767,94.0635,0,1,1.7629,,0,20,20,51,1,52,0,cuban,,,,,,,,,,,,,,,,,,,,,,,,,,,,,,,,,,,,,,,,,,,,,,,,,,,,,,,,
,,,,,,,,,62b20c0065e9809e66d13fa5,Spanish,13 or older,"no, only English or Spanish",no,2025-08-12_14h03.41.305,empathy_intonation_perc_control,2024.2.4,Win32,60.97560976,62b20c0065e9809e66d13fa5,68817205a84113384fffdfe3,689b81d48aa23f1f1df9f4c6,,,,,,,,,,,,./stim/wavs/castilian_mismatch_interrogative-total-yn_Mi-novio-viene-del-lago.wav,1,,,94.0645,96.4781,1,1,1.8818,,0,21,21,27,1,28,0,castilian,,,,,,,,,,,,,,,,,,,,,,,,,,,,,,,,,,,,,,,,,,,,,,,,,,,,,,,,
,,,,,,,,,62b20c0065e9809e66d13fa5,Spanish,13 or older,"no, only English or Spanish",no,2025-08-12_14h03.41.305,empathy_intonation_perc_control,2024.2.4,Win32,60.97560976,62b20c0065e9809e66d13fa5,68817205a84113384fffdfe3,689b81d48aa23f1f1df9f4c6,,,,,,,,,,,,./stim/wavs/cuban_match_declarative-broad-focus_Manuela-vende-el-carro.wav,0,,,96.4792,98.8923,0,1,1.8824,,0,22,22,52,1,53,0,cuban,,,,,,,,,,,,,,,,,,,,,,,,,,,,,,,,,,,,,,,,,,,,,,,,,,,,,,,,
,,,,,,,,,62b20c0065e9809e66d13fa5,Spanish,13 or older,"no, only English or Spanish",no,2025-08-12_14h03.41.305,empathy_intonation_perc_control,2024.2.4,Win32,60.97560976,62b20c0065e9809e66d13fa5,68817205a84113384fffdfe3,689b81d48aa23f1f1df9f4c6,,,,,,,,,,,,./stim/wavs/puertorican_match_interrogative-total-yn_Maria-bebe-el-vino.wav,1,,,98.8932,100.8738,0,0,1.4487,,0,23,23,23,1,24,1,puertorican,,,,,,,,,,,,,,,,,,,,,,,,,,,,,,,,,,,,,,,,,,,,,,,,,,,,,,,,
,,,,,,,,,62b20c0065e9809e66d13fa5,Spanish,13 or older,"no, only English or Spanish",no,2025-08-12_14h03.41.305,empathy_intonation_perc_control,2024.2.4,Win32,60.97560976,62b20c0065e9809e66d13fa5,68817205a84113384fffdfe3,689b81d48aa23f1f1df9f4c6,,,,,,,,,,,,./stim/wavs/mexican_mismatch_declarative-broad-focus_La-maestra-vive-en-Paris.wav,0,,,100.8744,102.9886,0,1,1.5838,,0,24,24,80,1,81,0,mexican,,,,,,,,,,,,,,,,,,,,,,,,,,,,,,,,,,,,,,,,,,,,,,,,,,,,,,,,
,,,,,,,,,62b20c0065e9809e66d13fa5,Spanish,13 or older,"no, only English or Spanish",no,2025-08-12_14h03.41.305,empathy_intonation_perc_control,2024.2.4,Win32,60.97560976,62b20c0065e9809e66d13fa5,68817205a84113384fffdfe3,689b81d48aa23f1f1df9f4c6,,,,,,,,,,,,./stim/wavs/castilian_mismatch_interrogative-total-yn_La-nina-lava-el-plato.wav,1,,,102.9895,105.3526,1,1,1.8322,,0,25,25,25,1,26,0,castilian,,,,,,,,,,,,,,,,,,,,,,,,,,,,,,,,,,,,,,,,,,,,,,,,,,,,,,,,
,,,,,,,,,62b20c0065e9809e66d13fa5,Spanish,13 or older,"no, only English or Spanish",no,2025-08-12_14h03.41.305,empathy_intonation_perc_control,2024.2.4,Win32,60.97560976,62b20c0065e9809e66d13fa5,68817205a84113384fffdfe3,689b81d48aa23f1f1df9f4c6,,,,,,,,,,,,./stim/wavs/castilian_match_interrogative-total-yn_Mariano-habla-del-tiempo.wav,1,,,105.3535,107.7334,1,1,1.8492,,0,26,26,4,1,5,0,castilian,,,,,,,,,,,,,,,,,,,,,,,,,,,,,,,,,,,,,,,,,,,,,,,,,,,,,,,,
,,,,,,,,,62b20c0065e9809e66d13fa5,Spanish,13 or older,"no, only English or Spanish",no,2025-08-12_14h03.41.305,empathy_intonation_perc_control,2024.2.4,Win32,60.97560976,62b20c0065e9809e66d13fa5,68817205a84113384fffdfe3,689b81d48aa23f1f1df9f4c6,,,,,,,,,,,,./stim/wavs/puertorican_match_declarative-broad-focus_Emilio-ama-la-marcha.wav,0,,,107.7342,109.9647,0,1,1.7062,,0,27,27,65,1,66,0,puertorican,,,,,,,,,,,,,,,,,,,,,,,,,,,,,,,,,,,,,,,,,,,,,,,,,,,,,,,,
,,,,,,,,,62b20c0065e9809e66d13fa5,Spanish,13 or older,"no, only English or Spanish",no,2025-08-12_14h03.41.305,empathy_intonation_perc_control,2024.2.4,Win32,60.97560976,62b20c0065e9809e66d13fa5,68817205a84113384fffdfe3,689b81d48aa23f1f1df9f4c6,,,,,,,,,,,,./stim/wavs/mexican_match_declarative-broad-focus_David-leia-el-libro.wav,0,,,109.9658,112.4626,0,1,1.965,,0,28,28,58,1,59,0,mexican,,,,,,,,,,,,,,,,,,,,,,,,,,,,,,,,,,,,,,,,,,,,,,,,,,,,,,,,
,,,,,,,,,62b20c0065e9809e66d13fa5,Spanish,13 or older,"no, only English or Spanish",no,2025-08-12_14h03.41.305,empathy_intonation_perc_control,2024.2.4,Win32,60.97560976,62b20c0065e9809e66d13fa5,68817205a84113384fffdfe3,689b81d48aa23f1f1df9f4c6,,,,,,,,,,,,./stim/wavs/puertorican_match_declarative-broad-focus_Daniel-iba-a-Bolivia.wav,0,,,112.4635,114.5605,0,1,1.5668,,0,29,29,63,1,64,0,puertorican,,,,,,,,,,,,,,,,,,,,,,,,,,,,,,,,,,,,,,,,,,,,,,,,,,,,,,,,
,,,,,,,,,62b20c0065e9809e66d13fa5,Spanish,13 or older,"no, only English or Spanish",no,2025-08-12_14h03.41.305,empathy_intonation_perc_control,2024.2.4,Win32,60.97560976,62b20c0065e9809e66d13fa5,68817205a84113384fffdfe3,689b81d48aa23f1f1df9f4c6,,,,,,,,,,,,./stim/wavs/puertorican_mismatch_interrogative-total-yn_La-nina-lava-el-plato.wav,1,,,114.562,116.9082,0,0,1.8164,,0,30,30,42,1,43,1,puertorican,,,,,,,,,,,,,,,,,,,,,,,,,,,,,,,,,,,,,,,,,,,,,,,,,,,,,,,,
,,,,,,,,,62b20c0065e9809e66d13fa5,Spanish,13 or older,"no, only English or Spanish",no,2025-08-12_14h03.41.305,empathy_intonation_perc_control,2024.2.4,Win32,60.97560976,62b20c0065e9809e66d13fa5,68817205a84113384fffdfe3,689b81d48aa23f1f1df9f4c6,,,,,,,,,,,,./stim/wavs/cuban_mismatch_declarative-broad-focus_El-hombre-mira-la-luna.wav,0,,,116.909,118.8063,0,1,1.367,,0,31,31,74,1,75,0,cuban,,,,,,,,,,,,,,,,,,,,,,,,,,,,,,,,,,,,,,,,,,,,,,,,,,,,,,,,
,,,,,,,,,62b20c0065e9809e66d13fa5,Spanish,13 or older,"no, only English or Spanish",no,2025-08-12_14h03.41.305,empathy_intonation_perc_control,2024.2.4,Win32,60.97560976,62b20c0065e9809e66d13fa5,68817205a84113384fffdfe3,689b81d48aa23f1f1df9f4c6,,,,,,,,,,,,./stim/wavs/cuban_match_interrogative-total-yn_Maria-bebe-el-vino.wav,1,,,118.8075,121.1038,0,0,1.7641,,0,32,32,9,1,10,1,cuban,,,,,,,,,,,,,,,,,,,,,,,,,,,,,,,,,,,,,,,,,,,,,,,,,,,,,,,,
,,,,,,,,,62b20c0065e9809e66d13fa5,Spanish,13 or older,"no, only English or Spanish",no,2025-08-12_14h03.41.305,empathy_intonation_perc_control,2024.2.4,Win32,60.97560976,62b20c0065e9809e66d13fa5,68817205a84113384fffdfe3,689b81d48aa23f1f1df9f4c6,,,,,,,,,,,,./stim/wavs/castilian_match_declarative-broad-focus_Manuela-vende-el-carro.wav,0,,,121.1047,123.6356,0,1,2.0068,,0,33,33,46,1,47,0,castilian,,,,,,,,,,,,,,,,,,,,,,,,,,,,,,,,,,,,,,,,,,,,,,,,,,,,,,,,
,,,,,,,,,62b20c0065e9809e66d13fa5,Spanish,13 or older,"no, only English or Spanish",no,2025-08-12_14h03.41.305,empathy_intonation_perc_control,2024.2.4,Win32,60.97560976,62b20c0065e9809e66d13fa5,68817205a84113384fffdfe3,689b81d48aa23f1f1df9f4c6,,,,,,,,,,,,./stim/wavs/cuban_mismatch_interrogative-total-yn_El-hombre-mira-la-luna.wav,1,,,123.6368,125.7656,0,0,1.607,,0,34,34,29,1,30,1,cuban,,,,,,,,,,,,,,,,,,,,,,,,,,,,,,,,,,,,,,,,,,,,,,,,,,,,,,,,
,,,,,,,,,62b20c0065e9809e66d13fa5,Spanish,13 or older,"no, only English or Spanish",no,2025-08-12_14h03.41.305,empathy_intonation_perc_control,2024.2.4,Win32,60.97560976,62b20c0065e9809e66d13fa5,68817205a84113384fffdfe3,689b81d48aa23f1f1df9f4c6,,,,,,,,,,,,./stim/wavs/mexican_mismatch_interrogative-total-yn_Mi-novio-viene-del-lago.wav,1,,,125.7664,128.0802,1,1,1.785,,0,35,35,37,1,38,0,mexican,,,,,,,,,,,,,,,,,,,,,,,,,,,,,,,,,,,,,,,,,,,,,,,,,,,,,,,,
,,,,,,,,,62b20c0065e9809e66d13fa5,Spanish,13 or older,"no, only English or Spanish",no,2025-08-12_14h03.41.305,empathy_intonation_perc_control,2024.2.4,Win32,60.97560976,62b20c0065e9809e66d13fa5,68817205a84113384fffdfe3,689b81d48aa23f1f1df9f4c6,,,,,,,,,,,,./stim/wavs/mexican_match_interrogative-total-yn_Daniel-iba-a-Bolivia.wav,1,,,128.0814,130.4612,1,1,1.8551,,0,36,36,13,1,14,0,mexican,,,,,,,,,,,,,,,,,,,,,,,,,,,,,,,,,,,,,,,,,,,,,,,,,,,,,,,,
,,,,,,,,,62b20c0065e9809e66d13fa5,Spanish,13 or older,"no, only English or Spanish",no,2025-08-12_14h03.41.305,empathy_intonation_perc_control,2024.2.4,Win32,60.97560976,62b20c0065e9809e66d13fa5,68817205a84113384fffdfe3,689b81d48aa23f1f1df9f4c6,,,,,,,,,,,,./stim/wavs/castilian_mismatch_declarative-broad-focus_Mi-tia-odia-la-lluvia.wav,0,,,130.4621,132.9091,0,1,1.916,,0,37,37,72,1,73,0,castilian,,,,,,,,,,,,,,,,,,,,,,,,,,,,,,,,,,,,,,,,,,,,,,,,,,,,,,,,
,,,,,,,,,62b20c0065e9809e66d13fa5,Spanish,13 or older,"no, only English or Spanish",no,2025-08-12_14h03.41.305,empathy_intonation_perc_control,2024.2.4,Win32,60.97560976,62b20c0065e9809e66d13fa5,68817205a84113384fffdfe3,689b81d48aa23f1f1df9f4c6,,,,,,,,,,,,./stim/wavs/mexican_mismatch_declarative-broad-focus_El-bebe-comia-muy-bien.wav,0,,,132.91,135.9562,0,1,2.5154,,0,38,38,78,1,79,0,mexican,,,,,,,,,,,,,,,,,,,,,,,,,,,,,,,,,,,,,,,,,,,,,,,,,,,,,,,,
,,,,,,,,,62b20c0065e9809e66d13fa5,Spanish,13 or older,"no, only English or Spanish",no,2025-08-12_14h03.41.305,empathy_intonation_perc_control,2024.2.4,Win32,60.97560976,62b20c0065e9809e66d13fa5,68817205a84113384fffdfe3,689b81d48aa23f1f1df9f4c6,,,,,,,,,,,,./stim/wavs/cuban_match_declarative-broad-focus_Marta-abre-el-regalo.wav,0,,,135.9571,138.4368,0,1,1.9541,,0,39,39,55,1,56,0,cuban,,,,,,,,,,,,,,,,,,,,,,,,,,,,,,,,,,,,,,,,,,,,,,,,,,,,,,,,
,,,,,,,,,62b20c0065e9809e66d13fa5,Spanish,13 or older,"no, only English or Spanish",no,2025-08-12_14h03.41.305,empathy_intonation_perc_control,2024.2.4,Win32,60.97560976,62b20c0065e9809e66d13fa5,68817205a84113384fffdfe3,689b81d48aa23f1f1df9f4c6,,,,,,,,,,,,./stim/wavs/castilian_mismatch_declarative-broad-focus_La-nina-lava-el-plato.wav,0,,,138.4379,140.9175,0,1,1.9491,,0,40,40,70,1,71,0,castilian,,,,,,,,,,,,,,,,,,,,,,,,,,,,,,,,,,,,,,,,,,,,,,,,,,,,,,,,
,,,,,,,,,62b20c0065e9809e66d13fa5,Spanish,13 or older,"no, only English or Spanish",no,2025-08-12_14h03.41.305,empathy_intonation_perc_control,2024.2.4,Win32,60.97560976,62b20c0065e9809e66d13fa5,68817205a84113384fffdfe3,689b81d48aa23f1f1df9f4c6,,,,,,,,,,,,./stim/wavs/mexican_match_declarative-broad-focus_Ana-lleva-el-abrigo.wav,0,,,140.9183,143.0991,0,1,1.6557,,0,41,41,56,1,57,0,mexican,,,,,,,,,,,,,,,,,,,,,,,,,,,,,,,,,,,,,,,,,,,,,,,,,,,,,,,,
,,,,,,,,,62b20c0065e9809e66d13fa5,Spanish,13 or older,"no, only English or Spanish",no,2025-08-12_14h03.41.305,empathy_intonation_perc_control,2024.2.4,Win32,60.97560976,62b20c0065e9809e66d13fa5,68817205a84113384fffdfe3,689b81d48aa23f1f1df9f4c6,,,,,,,,,,,,./stim/wavs/cuban_match_declarative-broad-focus_Ana-lleva-el-abrigo.wav,0,,,143.1,145.3965,0,1,1.7709,,0,42,42,50,1,51,0,cuban,,,,,,,,,,,,,,,,,,,,,,,,,,,,,,,,,,,,,,,,,,,,,,,,,,,,,,,,
,,,,,,,,,62b20c0065e9809e66d13fa5,Spanish,13 or older,"no, only English or Spanish",no,2025-08-12_14h03.41.305,empathy_intonation_perc_control,2024.2.4,Win32,60.97560976,62b20c0065e9809e66d13fa5,68817205a84113384fffdfe3,689b81d48aa23f1f1df9f4c6,,,,,,,,,,,,./stim/wavs/mexican_match_declarative-broad-focus_Mariano-habla-del-tiempo.wav,0,,,145.3973,147.6113,0,1,1.6861,,0,43,43,60,1,61,0,mexican,,,,,,,,,,,,,,,,,,,,,,,,,,,,,,,,,,,,,,,,,,,,,,,,,,,,,,,,
,,,,,,,,,62b20c0065e9809e66d13fa5,Spanish,13 or older,"no, only English or Spanish",no,2025-08-12_14h03.41.305,empathy_intonation_perc_control,2024.2.4,Win32,60.97560976,62b20c0065e9809e66d13fa5,68817205a84113384fffdfe3,689b81d48aa23f1f1df9f4c6,,,,,,,,,,,,./stim/wavs/mexican_match_interrogative-total-yn_David-leia-el-libro.wav,1,,,147.6122,149.726,1,1,1.5905,,0,44,44,14,1,15,0,mexican,,,,,,,,,,,,,,,,,,,,,,,,,,,,,,,,,,,,,,,,,,,,,,,,,,,,,,,,
,,,,,,,,,62b20c0065e9809e66d13fa5,Spanish,13 or older,"no, only English or Spanish",no,2025-08-12_14h03.41.305,empathy_intonation_perc_control,2024.2.4,Win32,60.97560976,62b20c0065e9809e66d13fa5,68817205a84113384fffdfe3,689b81d48aa23f1f1df9f4c6,,,,,,,,,,,,./stim/wavs/puertorican_match_interrogative-total-yn_Emilio-ama-la-marcha.wav,1,,,149.7271,151.9237,0,0,1.6657,,0,45,45,21,1,22,1,puertorican,,,,,,,,,,,,,,,,,,,,,,,,,,,,,,,,,,,,,,,,,,,,,,,,,,,,,,,,
,,,,,,,,,62b20c0065e9809e66d13fa5,Spanish,13 or older,"no, only English or Spanish",no,2025-08-12_14h03.41.305,empathy_intonation_perc_control,2024.2.4,Win32,60.97560976,62b20c0065e9809e66d13fa5,68817205a84113384fffdfe3,689b81d48aa23f1f1df9f4c6,,,,,,,,,,,,./stim/wavs/castilian_mismatch_declarative-broad-focus_El-nino-oye-el-rio.wav,0,,,151.9245,154.6045,0,1,2.1516,,0,46,46,68,1,69,0,castilian,,,,,,,,,,,,,,,,,,,,,,,,,,,,,,,,,,,,,,,,,,,,,,,,,,,,,,,,
,,,,,,,,,62b20c0065e9809e66d13fa5,Spanish,13 or older,"no, only English or Spanish",no,2025-08-12_14h03.41.305,empathy_intonation_perc_control,2024.2.4,Win32,60.97560976,62b20c0065e9809e66d13fa5,68817205a84113384fffdfe3,689b81d48aa23f1f1df9f4c6,,,,,,,,,,,,./stim/wavs/puertorican_mismatch_interrogative-total-yn_El-nino-oye-el-rio.wav,1,,,154.6055,156.852,0,0,1.7217,,0,47,47,40,1,41,1,puertorican,,,,,,,,,,,,,,,,,,,,,,,,,,,,,,,,,,,,,,,,,,,,,,,,,,,,,,,,
,,,,,,,,,62b20c0065e9809e66d13fa5,Spanish,13 or older,"no, only English or Spanish",no,2025-08-12_14h03.41.305,empathy_intonation_perc_control,2024.2.4,Win32,60.97560976,62b20c0065e9809e66d13fa5,68817205a84113384fffdfe3,689b81d48aa23f1f1df9f4c6,,,,,,,,,,,,./stim/wavs/castilian_mismatch_interrogative-total-yn_Mi-madre-come-la-fruta.wav,1,,,156.8532,159.1664,1,1,1.7889,,0,48,48,26,1,27,0,castilian,,,,,,,,,,,,,,,,,,,,,,,,,,,,,,,,,,,,,,,,,,,,,,,,,,,,,,,,
,,,,,,,,,62b20c0065e9809e66d13fa5,Spanish,13 or older,"no, only English or Spanish",no,2025-08-12_14h03.41.305,empathy_intonation_perc_control,2024.2.4,Win32,60.97560976,62b20c0065e9809e66d13fa5,68817205a84113384fffdfe3,689b81d48aa23f1f1df9f4c6,,,,,,,,,,,,./stim/wavs/castilian_match_declarative-broad-focus_David-leia-el-libro.wav,0,,,159.1674,161.5642,0,1,1.8663,,0,49,49,44,1,45,0,castilian,,,,,,,,,,,,,,,,,,,,,,,,,,,,,,,,,,,,,,,,,,,,,,,,,,,,,,,,
,,,,,,,,,62b20c0065e9809e66d13fa5,Spanish,13 or older,"no, only English or Spanish",no,2025-08-12_14h03.41.305,empathy_intonation_perc_control,2024.2.4,Win32,60.97560976,62b20c0065e9809e66d13fa5,68817205a84113384fffdfe3,689b81d48aa23f1f1df9f4c6,,,,,,,,,,,,./stim/wavs/puertorican_match_interrogative-total-yn_Ana-lleva-el-abrigo.wav,1,,,161.5651,163.5793,0,0,1.4858,,0,50,50,18,1,19,1,puertorican,,,,,,,,,,,,,,,,,,,,,,,,,,,,,,,,,,,,,,,,,,,,,,,,,,,,,,,,
,,,,,,,,,62b20c0065e9809e66d13fa5,Spanish,13 or older,"no, only English or Spanish",no,2025-08-12_14h03.41.305,empathy_intonation_perc_control,2024.2.4,Win32,60.97560976,62b20c0065e9809e66d13fa5,68817205a84113384fffdfe3,689b81d48aa23f1f1df9f4c6,,,,,,,,,,,,./stim/wavs/castilian_match_declarative-broad-focus_Emilio-ama-la-marcha.wav,0,,,163.5802,165.8771,0,1,1.7671,,0,51,51,45,1,46,0,castilian,,,,,,,,,,,,,,,,,,,,,,,,,,,,,,,,,,,,,,,,,,,,,,,,,,,,,,,,
,,,,,,,,,62b20c0065e9809e66d13fa5,Spanish,13 or older,"no, only English or Spanish",no,2025-08-12_14h03.41.305,empathy_intonation_perc_control,2024.2.4,Win32,60.97560976,62b20c0065e9809e66d13fa5,68817205a84113384fffdfe3,689b81d48aa23f1f1df9f4c6,,,,,,,,,,,,./stim/wavs/castilian_mismatch_declarative-broad-focus_Mi-novio-viene-del-lago.wav,0,,,165.8781,168.3577,0,1,1.95,,0,52,52,71,1,72,0,castilian,,,,,,,,,,,,,,,,,,,,,,,,,,,,,,,,,,,,,,,,,,,,,,,,,,,,,,,,
,,,,,,,,,62b20c0065e9809e66d13fa5,Spanish,13 or older,"no, only English or Spanish",no,2025-08-12_14h03.41.305,empathy_intonation_perc_control,2024.2.4,Win32,60.97560976,62b20c0065e9809e66d13fa5,68817205a84113384fffdfe3,689b81d48aa23f1f1df9f4c6,,,,,,,,,,,,./stim/wavs/cuban_mismatch_interrogative-total-yn_Mi-madre-come-la-fruta.wav,1,,,168.3586,170.8718,0,0,1.9898,,0,53,53,31,1,32,1,cuban,,,,,,,,,,,,,,,,,,,,,,,,,,,,,,,,,,,,,,,,,,,,,,,,,,,,,,,,
,,,,,,,,,62b20c0065e9809e66d13fa5,Spanish,13 or older,"no, only English or Spanish",no,2025-08-12_14h03.41.305,empathy_intonation_perc_control,2024.2.4,Win32,60.97560976,62b20c0065e9809e66d13fa5,68817205a84113384fffdfe3,689b81d48aa23f1f1df9f4c6,,,,,,,,,,,,./stim/wavs/cuban_mismatch_declarative-broad-focus_Mi-tia-odia-la-lluvia.wav,0,,,170.8729,173.4025,0,1,1.9968,,0,54,54,77,1,78,0,cuban,,,,,,,,,,,,,,,,,,,,,,,,,,,,,,,,,,,,,,,,,,,,,,,,,,,,,,,,
,,,,,,,,,62b20c0065e9809e66d13fa5,Spanish,13 or older,"no, only English or Spanish",no,2025-08-12_14h03.41.305,empathy_intonation_perc_control,2024.2.4,Win32,60.97560976,62b20c0065e9809e66d13fa5,68817205a84113384fffdfe3,689b81d48aa23f1f1df9f4c6,,,,,,,,,,,,./stim/wavs/castilian_match_declarative-broad-focus_Mariano-habla-del-tiempo.wav,0,,,173.403,176.9162,0,1,2.9806,,0,55,55,48,1,49,0,castilian,,,,,,,,,,,,,,,,,,,,,,,,,,,,,,,,,,,,,,,,,,,,,,,,,,,,,,,,
,,,,,,,,,62b20c0065e9809e66d13fa5,Spanish,13 or older,"no, only English or Spanish",no,2025-08-12_14h03.41.305,empathy_intonation_perc_control,2024.2.4,Win32,60.97560976,62b20c0065e9809e66d13fa5,68817205a84113384fffdfe3,689b81d48aa23f1f1df9f4c6,,,,,,,,,,,,./stim/wavs/puertorican_mismatch_interrogative-total-yn_La-maestra-vive-en-Paris.wav,1,,,176.9173,179.4299,0,0,1.9813,,0,56,56,41,1,42,1,puertorican,,,,,,,,,,,,,,,,,,,,,,,,,,,,,,,,,,,,,,,,,,,,,,,,,,,,,,,,
,,,,,,,,,62b20c0065e9809e66d13fa5,Spanish,13 or older,"no, only English or Spanish",no,2025-08-12_14h03.41.305,empathy_intonation_perc_control,2024.2.4,Win32,60.97560976,62b20c0065e9809e66d13fa5,68817205a84113384fffdfe3,689b81d48aa23f1f1df9f4c6,,,,,,,,,,,,./stim/wavs/castilian_match_declarative-broad-focus_Maria-bebe-el-vino.wav,0,,,179.4308,181.7114,0,1,1.7568,,0,57,57,47,1,48,0,castilian,,,,,,,,,,,,,,,,,,,,,,,,,,,,,,,,,,,,,,,,,,,,,,,,,,,,,,,,
,,,,,,,,,62b20c0065e9809e66d13fa5,Spanish,13 or older,"no, only English or Spanish",no,2025-08-12_14h03.41.305,empathy_intonation_perc_control,2024.2.4,Win32,60.97560976,62b20c0065e9809e66d13fa5,68817205a84113384fffdfe3,689b81d48aa23f1f1df9f4c6,,,,,,,,,,,,./stim/wavs/cuban_match_interrogative-total-yn_Ana-lleva-el-abrigo.wav,1,,,181.7128,183.5597,0,0,1.3161,,0,58,58,6,1,7,1,cuban,,,,,,,,,,,,,,,,,,,,,,,,,,,,,,,,,,,,,,,,,,,,,,,,,,,,,,,,
,,,,,,,,,62b20c0065e9809e66d13fa5,Spanish,13 or older,"no, only English or Spanish",no,2025-08-12_14h03.41.305,empathy_intonation_perc_control,2024.2.4,Win32,60.97560976,62b20c0065e9809e66d13fa5,68817205a84113384fffdfe3,689b81d48aa23f1f1df9f4c6,,,,,,,,,,,,./stim/wavs/cuban_match_interrogative-total-yn_Mariano-habla-del-tiempo.wav,1,,,183.5607,185.6242,0,0,1.5326,,0,59,59,10,1,11,1,cuban,,,,,,,,,,,,,,,,,,,,,,,,,,,,,,,,,,,,,,,,,,,,,,,,,,,,,,,,
,,,,,,,,,62b20c0065e9809e66d13fa5,Spanish,13 or older,"no, only English or Spanish",no,2025-08-12_14h03.41.305,empathy_intonation_perc_control,2024.2.4,Win32,60.97560976,62b20c0065e9809e66d13fa5,68817205a84113384fffdfe3,689b81d48aa23f1f1df9f4c6,,,,,,,,,,,,./stim/wavs/puertorican_match_declarative-broad-focus_Manuela-vende-el-carro.wav,0,,,185.6252,187.5222,0,1,1.3704,,0,60,60,66,1,67,0,puertorican,,,,,,,,,,,,,,,,,,,,,,,,,,,,,,,,,,,,,,,,,,,,,,,,,,,,,,,,
,,,,,,,,,62b20c0065e9809e66d13fa5,Spanish,13 or older,"no, only English or Spanish",no,2025-08-12_14h03.41.305,empathy_intonation_perc_control,2024.2.4,Win32,60.97560976,62b20c0065e9809e66d13fa5,68817205a84113384fffdfe3,689b81d48aa23f1f1df9f4c6,,,,,,,,,,,,./stim/wavs/cuban_mismatch_declarative-broad-focus_Mi-novio-viene-del-lago.wav,0,,,187.5232,189.8032,0,1,1.7544,,0,61,61,76,1,77,0,cuban,,,,,,,,,,,,,,,,,,,,,,,,,,,,,,,,,,,,,,,,,,,,,,,,,,,,,,,,
,,,,,,,,,62b20c0065e9809e66d13fa5,Spanish,13 or older,"no, only English or Spanish",no,2025-08-12_14h03.41.305,empathy_intonation_perc_control,2024.2.4,Win32,60.97560976,62b20c0065e9809e66d13fa5,68817205a84113384fffdfe3,689b81d48aa23f1f1df9f4c6,,,,,,,,,,,,./stim/wavs/castilian_match_interrogative-total-yn_Manuela-vende-el-carro.wav,1,,,189.8041,192.0676,1,1,1.732,,0,62,62,2,1,3,0,castilian,,,,,,,,,,,,,,,,,,,,,,,,,,,,,,,,,,,,,,,,,,,,,,,,,,,,,,,,
,,,,,,,,,62b20c0065e9809e66d13fa5,Spanish,13 or older,"no, only English or Spanish",no,2025-08-12_14h03.41.305,empathy_intonation_perc_control,2024.2.4,Win32,60.97560976,62b20c0065e9809e66d13fa5,68817205a84113384fffdfe3,689b81d48aa23f1f1df9f4c6,,,,,,,,,,,,./stim/wavs/cuban_match_interrogative-total-yn_Manuela-vende-el-carro.wav,1,,,192.0686,193.9496,0,0,1.3491,,0,63,63,8,1,9,1,cuban,,,,,,,,,,,,,,,,,,,,,,,,,,,,,,,,,,,,,,,,,,,,,,,,,,,,,,,,
,,,,,,,,,62b20c0065e9809e66d13fa5,Spanish,13 or older,"no, only English or Spanish",no,2025-08-12_14h03.41.305,empathy_intonation_perc_control,2024.2.4,Win32,60.97560976,62b20c0065e9809e66d13fa5,68817205a84113384fffdfe3,689b81d48aa23f1f1df9f4c6,,,,,,,,,,,,./stim/wavs/castilian_match_interrogative-total-yn_Maria-bebe-el-vino.wav,1,,,193.9505,195.9637,0,0,1.4821,,0,64,64,3,1,4,0,castilian,,,,,,,,,,,,,,,,,,,,,,,,,,,,,,,,,,,,,,,,,,,,,,,,,,,,,,,,
,,,,,,,,,62b20c0065e9809e66d13fa5,Spanish,13 or older,"no, only English or Spanish",no,2025-08-12_14h03.41.305,empathy_intonation_perc_control,2024.2.4,Win32,60.97560976,62b20c0065e9809e66d13fa5,68817205a84113384fffdfe3,689b81d48aa23f1f1df9f4c6,,,,,,,,,,,,./stim/wavs/puertorican_mismatch_interrogative-total-yn_El-hombre-mira-la-luna.wav,1,,,195.965,198.1622,0,0,1.6659,,0,65,65,39,1,40,1,puertorican,,,,,,,,,,,,,,,,,,,,,,,,,,,,,,,,,,,,,,,,,,,,,,,,,,,,,,,,
,,,,,,,,,62b20c0065e9809e66d13fa5,Spanish,13 or older,"no, only English or Spanish",no,2025-08-12_14h03.41.305,empathy_intonation_perc_control,2024.2.4,Win32,60.97560976,62b20c0065e9809e66d13fa5,68817205a84113384fffdfe3,689b81d48aa23f1f1df9f4c6,,,,,,,,,,,,./stim/wavs/cuban_match_interrogative-total-yn_Daniel-iba-a-Bolivia.wav,1,,,198.1631,200.6259,0,0,1.9325,,0,66,66,7,1,8,1,cuban,,,,,,,,,,,,,,,,,,,,,,,,,,,,,,,,,,,,,,,,,,,,,,,,,,,,,,,,
,,,,,,,,,62b20c0065e9809e66d13fa5,Spanish,13 or older,"no, only English or Spanish",no,2025-08-12_14h03.41.305,empathy_intonation_perc_control,2024.2.4,Win32,60.97560976,62b20c0065e9809e66d13fa5,68817205a84113384fffdfe3,689b81d48aa23f1f1df9f4c6,,,,,,,,,,,,./stim/wavs/mexican_mismatch_interrogative-total-yn_Mi-tia-odia-la-lluvia.wav,1,,,200.6266,202.7737,1,1,1.6215,,0,67,67,38,1,39,0,mexican,,,,,,,,,,,,,,,,,,,,,,,,,,,,,,,,,,,,,,,,,,,,,,,,,,,,,,,,
,,,,,,,,,62b20c0065e9809e66d13fa5,Spanish,13 or older,"no, only English or Spanish",no,2025-08-12_14h03.41.305,empathy_intonation_perc_control,2024.2.4,Win32,60.97560976,62b20c0065e9809e66d13fa5,68817205a84113384fffdfe3,689b81d48aa23f1f1df9f4c6,,,,,,,,,,,,./stim/wavs/castilian_match_interrogative-total-yn_Marta-abre-el-regalo.wav,1,,,202.7747,204.922,1,1,1.6165,,0,68,68,5,1,6,0,castilian,,,,,,,,,,,,,,,,,,,,,,,,,,,,,,,,,,,,,,,,,,,,,,,,,,,,,,,,
,,,,,,,,,62b20c0065e9809e66d13fa5,Spanish,13 or older,"no, only English or Spanish",no,2025-08-12_14h03.41.305,empathy_intonation_perc_control,2024.2.4,Win32,60.97560976,62b20c0065e9809e66d13fa5,68817205a84113384fffdfe3,689b81d48aa23f1f1df9f4c6,,,,,,,,,,,,./stim/wavs/castilian_match_interrogative-total-yn_Emilio-ama-la-marcha.wav,1,,,204.923,207.1202,1,1,1.6651,,0,69,69,1,1,2,0,castilian,,,,,,,,,,,,,,,,,,,,,,,,,,,,,,,,,,,,,,,,,,,,,,,,,,,,,,,,
,,,,,,,,,62b20c0065e9809e66d13fa5,Spanish,13 or older,"no, only English or Spanish",no,2025-08-12_14h03.41.305,empathy_intonation_perc_control,2024.2.4,Win32,60.97560976,62b20c0065e9809e66d13fa5,68817205a84113384fffdfe3,689b81d48aa23f1f1df9f4c6,,,,,,,,,,,,./stim/wavs/castilian_match_declarative-broad-focus_Marta-abre-el-regalo.wav,0,,,207.1212,209.4839,0,1,1.8344,,0,70,70,49,1,50,0,castilian,,,,,,,,,,,,,,,,,,,,,,,,,,,,,,,,,,,,,,,,,,,,,,,,,,,,,,,,
,,,,,,,,,62b20c0065e9809e66d13fa5,Spanish,13 or older,"no, only English or Spanish",no,2025-08-12_14h03.41.305,empathy_intonation_perc_control,2024.2.4,Win32,60.97560976,62b20c0065e9809e66d13fa5,68817205a84113384fffdfe3,689b81d48aa23f1f1df9f4c6,,,,,,,,,,,,./stim/wavs/mexican_match_interrogative-total-yn_Emilio-ama-la-marcha.wav,1,,,209.4849,211.7486,1,1,1.7328,,0,71,71,15,1,16,0,mexican,,,,,,,,,,,,,,,,,,,,,,,,,,,,,,,,,,,,,,,,,,,,,,,,,,,,,,,,
,,,,,,,,,62b20c0065e9809e66d13fa5,Spanish,13 or older,"no, only English or Spanish",no,2025-08-12_14h03.41.305,empathy_intonation_perc_control,2024.2.4,Win32,60.97560976,62b20c0065e9809e66d13fa5,68817205a84113384fffdfe3,689b81d48aa23f1f1df9f4c6,,,,,,,,,,,,./stim/wavs/puertorican_mismatch_declarative-broad-focus_El-bebe-comia-muy-bien.wav,0,,,211.7495,214.3796,0,1,2.1003,,0,72,72,83,1,84,0,puertorican,,,,,,,,,,,,,,,,,,,,,,,,,,,,,,,,,,,,,,,,,,,,,,,,,,,,,,,,
,,,,,,,,,62b20c0065e9809e66d13fa5,Spanish,13 or older,"no, only English or Spanish",no,2025-08-12_14h03.41.305,empathy_intonation_perc_control,2024.2.4,Win32,60.97560976,62b20c0065e9809e66d13fa5,68817205a84113384fffdfe3,689b81d48aa23f1f1df9f4c6,,,,,,,,,,,,./stim/wavs/puertorican_match_declarative-broad-focus_Maria-bebe-el-vino.wav,0,,,214.3805,216.6771,1,0,1.7661,,0,73,73,67,1,68,0,puertorican,,,,,,,,,,,,,,,,,,,,,,,,,,,,,,,,,,,,,,,,,,,,,,,,,,,,,,,,
,,,,,,,,,62b20c0065e9809e66d13fa5,Spanish,13 or older,"no, only English or Spanish",no,2025-08-12_14h03.41.305,empathy_intonation_perc_control,2024.2.4,Win32,60.97560976,62b20c0065e9809e66d13fa5,68817205a84113384fffdfe3,689b81d48aa23f1f1df9f4c6,,,,,,,,,,,,./stim/wavs/mexican_match_interrogative-total-yn_Mariano-habla-del-tiempo.wav,1,,,216.6782,218.9249,1,1,1.719,,0,74,74,16,1,17,0,mexican,,,,,,,,,,,,,,,,,,,,,,,,,,,,,,,,,,,,,,,,,,,,,,,,,,,,,,,,
,,,,,,,,,62b20c0065e9809e66d13fa5,Spanish,13 or older,"no, only English or Spanish",no,2025-08-12_14h03.41.305,empathy_intonation_perc_control,2024.2.4,Win32,60.97560976,62b20c0065e9809e66d13fa5,68817205a84113384fffdfe3,689b81d48aa23f1f1df9f4c6,,,,,,,,,,,,./stim/wavs/castilian_mismatch_declarative-broad-focus_La-maestra-vive-en-Paris.wav,0,,,218.9259,221.3562,0,1,1.902,,0,75,75,69,1,70,0,castilian,,,,,,,,,,,,,,,,,,,,,,,,,,,,,,,,,,,,,,,,,,,,,,,,,,,,,,,,
,,,,,,,,,62b20c0065e9809e66d13fa5,Spanish,13 or older,"no, only English or Spanish",no,2025-08-12_14h03.41.305,empathy_intonation_perc_control,2024.2.4,Win32,60.97560976,62b20c0065e9809e66d13fa5,68817205a84113384fffdfe3,689b81d48aa23f1f1df9f4c6,,,,,,,,,,,,./stim/wavs/cuban_match_declarative-broad-focus_Mariano-habla-del-tiempo.wav,0,,,221.3572,223.7367,0,1,1.8486,,0,76,76,54,1,55,0,cuban,,,,,,,,,,,,,,,,,,,,,,,,,,,,,,,,,,,,,,,,,,,,,,,,,,,,,,,,
,,,,,,,,,62b20c0065e9809e66d13fa5,Spanish,13 or older,"no, only English or Spanish",no,2025-08-12_14h03.41.305,empathy_intonation_perc_control,2024.2.4,Win32,60.97560976,62b20c0065e9809e66d13fa5,68817205a84113384fffdfe3,689b81d48aa23f1f1df9f4c6,,,,,,,,,,,,./stim/wavs/mexican_mismatch_declarative-broad-focus_Mi-tia-odia-la-lluvia.wav,0,,,223.7378,225.8186,0,1,1.5498,,0,77,77,82,1,83,0,mexican,,,,,,,,,,,,,,,,,,,,,,,,,,,,,,,,,,,,,,,,,,,,,,,,,,,,,,,,
,,,,,,,,,62b20c0065e9809e66d13fa5,Spanish,13 or older,"no, only English or Spanish",no,2025-08-12_14h03.41.305,empathy_intonation_perc_control,2024.2.4,Win32,60.97560976,62b20c0065e9809e66d13fa5,68817205a84113384fffdfe3,689b81d48aa23f1f1df9f4c6,,,,,,,,,,,,./stim/wavs/mexican_mismatch_interrogative-total-yn_El-nino-oye-el-rio.wav,1,,,225.8196,227.7867,1,1,1.4406,,0,78,78,35,1,36,0,mexican,,,,,,,,,,,,,,,,,,,,,,,,,,,,,,,,,,,,,,,,,,,,,,,,,,,,,,,,
,,,,,,,,,62b20c0065e9809e66d13fa5,Spanish,13 or older,"no, only English or Spanish",no,2025-08-12_14h03.41.305,empathy_intonation_perc_control,2024.2.4,Win32,60.97560976,62b20c0065e9809e66d13fa5,68817205a84113384fffdfe3,689b81d48aa23f1f1df9f4c6,,,,,,,,,,,,./stim/wavs/cuban_mismatch_declarative-broad-focus_El-bebe-comia-muy-bien.wav,0,,,227.7873,229.9806,0,1,1.667,,0,79,79,73,1,74,0,cuban,,,,,,,,,,,,,,,,,,,,,,,,,,,,,,,,,,,,,,,,,,,,,,,,,,,,,,,,
,,,,,,,,,62b20c0065e9809e66d13fa5,Spanish,13 or older,"no, only English or Spanish",no,2025-08-12_14h03.41.305,empathy_intonation_perc_control,2024.2.4,Win32,60.97560976,62b20c0065e9809e66d13fa5,68817205a84113384fffdfe3,689b81d48aa23f1f1df9f4c6,,,,,,,,,,,,./stim/wavs/cuban_mismatch_interrogative-total-yn_Mi-tia-odia-la-lluvia.wav,1,,,229.9817,232.3621,0,0,1.8491,,0,80,80,33,1,34,1,cuban,,,,,,,,,,,,,,,,,,,,,,,,,,,,,,,,,,,,,,,,,,,,,,,,,,,,,,,,
,,,,,,,,,62b20c0065e9809e66d13fa5,Spanish,13 or older,"no, only English or Spanish",no,2025-08-12_14h03.41.305,empathy_intonation_perc_control,2024.2.4,Win32,60.97560976,62b20c0065e9809e66d13fa5,68817205a84113384fffdfe3,689b81d48aa23f1f1df9f4c6,,,,,,,,,,,,./stim/wavs/puertorican_match_declarative-broad-focus_David-leia-el-libro.wav,0,,,232.3632,234.5927,0,1,1.6982,,0,81,81,64,1,65,0,puertorican,,,,,,,,,,,,,,,,,,,,,,,,,,,,,,,,,,,,,,,,,,,,,,,,,,,,,,,,
,,,,,,,,,62b20c0065e9809e66d13fa5,Spanish,13 or older,"no, only English or Spanish",no,2025-08-12_14h03.41.305,empathy_intonation_perc_control,2024.2.4,Win32,60.97560976,62b20c0065e9809e66d13fa5,68817205a84113384fffdfe3,689b81d48aa23f1f1df9f4c6,,,,,,,,,,,,./stim/wavs/puertorican_mismatch_declarative-broad-focus_La-maestra-vive-en-Paris.wav,0,,,234.5935,236.7904,0,1,1.6711,,0,82,82,86,1,87,0,puertorican,,,,,,,,,,,,,,,,,,,,,,,,,,,,,,,,,,,,,,,,,,,,,,,,,,,,,,,,
,,,,,,,,,62b20c0065e9809e66d13fa5,Spanish,13 or older,"no, only English or Spanish",no,2025-08-12_14h03.41.305,empathy_intonation_perc_control,2024.2.4,Win32,60.97560976,62b20c0065e9809e66d13fa5,68817205a84113384fffdfe3,689b81d48aa23f1f1df9f4c6,,,,,,,,,,,,./stim/wavs/puertorican_mismatch_declarative-broad-focus_El-nino-oye-el-rio.wav,0,,,236.7914,239.8875,0,1,2.5645,,0,83,83,85,1,86,0,puertorican,,,,,,,,,,,,,,,,,,,,,,,,,,,,,,,,,,,,,,,,,,,,,,,,,,,,,,,,
,,,,,,,,,62b20c0065e9809e66d13fa5,Spanish,13 or older,"no, only English or Spanish",no,2025-08-12_14h03.41.305,empathy_intonation_perc_control,2024.2.4,Win32,60.97560976,62b20c0065e9809e66d13fa5,68817205a84113384fffdfe3,689b81d48aa23f1f1df9f4c6,,,,,,,,,,,,./stim/wavs/puertorican_match_declarative-broad-focus_Ana-lleva-el-abrigo.wav,0,,,239.8884,241.9687,0,1,1.5489,,0,84,84,62,1,63,0,puertorican,,,,,,,,,,,,,,,,,,,,,,,,,,,,,,,,,,,,,,,,,,,,,,,,,,,,,,,,
,,,,,,,,,62b20c0065e9809e66d13fa5,Spanish,13 or older,"no, only English or Spanish",no,2025-08-12_14h03.41.305,empathy_intonation_perc_control,2024.2.4,Win32,60.97560976,62b20c0065e9809e66d13fa5,68817205a84113384fffdfe3,689b81d48aa23f1f1df9f4c6,,,,,,,,,,,,./stim/wavs/puertorican_match_interrogative-total-yn_Daniel-iba-a-Bolivia.wav,1,,,241.9698,243.8835,1,1,1.3839,,0,85,85,19,1,20,1,puertorican,,,,,,,,,,,,,,,,,,,,,,,,,,,,,,,,,,,,,,,,,,,,,,,,,,,,,,,,
,,,,,,,,,62b20c0065e9809e66d13fa5,Spanish,13 or older,"no, only English or Spanish",no,2025-08-12_14h03.41.305,empathy_intonation_perc_control,2024.2.4,Win32,60.97560976,62b20c0065e9809e66d13fa5,68817205a84113384fffdfe3,689b81d48aa23f1f1df9f4c6,,,,,,,,,,,,./stim/wavs/mexican_mismatch_interrogative-total-yn_El-hombre-mira-la-luna.wav,1,,,243.8845,245.8149,0,0,1.398,,0,86,86,34,1,35,0,mexican,,,,,,,,,,,,,,,,,,,,,,,,,,,,,,,,,,,,,,,,,,,,,,,,,,,,,,,,
,,,,,,,,,62b20c0065e9809e66d13fa5,Spanish,13 or older,"no, only English or Spanish",no,2025-08-12_14h03.41.305,empathy_intonation_perc_control,2024.2.4,Win32,60.97560976,62b20c0065e9809e66d13fa5,68817205a84113384fffdfe3,689b81d48aa23f1f1df9f4c6,,,,,,,,,,,,./stim/wavs/mexican_match_interrogative-total-yn_Ana-lleva-el-abrigo.wav,1,,,245.8157,247.8129,1,1,1.4698,,0,87,87,12,1,13,0,mexican,,,,,,,,,,,,,,,,,,,,,,,,,,,,,,,,,,,,,,,,,,,,,,,,,,,,,,,,
,,,,,,,"Great! Now we will move on. The next task consists of about 60 trials, in each of which you will see a string of letters. 
  
  Your task is to decide whether this is a real Spanish word or not.", (press the spacebar to continue),62b20c0065e9809e66d13fa5,Spanish,13 or older,"no, only English or Spanish",no,2025-08-12_14h03.41.305,empathy_intonation_perc_control,2024.2.4,Win32,60.97560976,62b20c0065e9809e66d13fa5,68817205a84113384fffdfe3,689b81d48aa23f1f1df9f4c6,,,,,,,,,,,,,,,,,,,,,,,,,,,,,,247.823,252.376,0,0,0,0,1,,,,,,,,,,,,,,,,,,,,,,,,,,,,,,,,,,,,,,,,,,,,,,,,,
,,,,,,,"If you think it is an existing Spanish word, you type '1' (for 'REAL'), and if you think it is not an existing Spanish word, you type '0' (for 'FAKE').", (press the spacebar to continue),62b20c0065e9809e66d13fa5,Spanish,13 or older,"no, only English or Spanish",no,2025-08-12_14h03.41.305,empathy_intonation_perc_control,2024.2.4,Win32,60.97560976,62b20c0065e9809e66d13fa5,68817205a84113384fffdfe3,689b81d48aa23f1f1df9f4c6,,,,,,,,,,,,,,,,,,,,,,,,,,,,,,252.381,254.0237,0,1,1,1,1,,,,,,,,,,,,,,,,,,,,,,,,,,,,,,,,,,,,,,,,,,,,,,,,,
,,,,,,,"If you are sure that the word exists, even though you don’t know its exact meaning, you may still respond '1' (REAL). 
  
  But if you are not sure if it is an existing word, you should respond '0' (FAKE).
  
  Let's do a practice round...", (press the spacebar to continue),62b20c0065e9809e66d13fa5,Spanish,13 or older,"no, only English or Spanish",no,2025-08-12_14h03.41.305,empathy_intonation_perc_control,2024.2.4,Win32,60.97560976,62b20c0065e9809e66d13fa5,68817205a84113384fffdfe3,689b81d48aa23f1f1df9f4c6,,,,,,,,,,,,,,,,,,,,,,,,,,,,,,254.0271,256.2551,0,2,2,2,1,,,,,,,,,,,,,,,,,,,,,,,,,,,,,,,,,,,,,,,,,,,,,,,,,
,,,,,,,,,62b20c0065e9809e66d13fa5,Spanish,13 or older,"no, only English or Spanish",no,2025-08-12_14h03.41.305,empathy_intonation_perc_control,2024.2.4,Win32,60.97560976,62b20c0065e9809e66d13fa5,68817205a84113384fffdfe3,689b81d48aa23f1f1df9f4c6,,,,,,,,,,,,,0,,,,,,,,,,,,,,,,,,,,,,,,256.2633,258.303,1,0,1.51,,258.3035,259.3026,0,0,0,0,1,0,depiste,REAL,FAKE,,,,,,,,,,,,,,,,,,,,,,,,,,,,,,,,
,,,,,,,,,62b20c0065e9809e66d13fa5,Spanish,13 or older,"no, only English or Spanish",no,2025-08-12_14h03.41.305,empathy_intonation_perc_control,2024.2.4,Win32,60.97560976,62b20c0065e9809e66d13fa5,68817205a84113384fffdfe3,689b81d48aa23f1f1df9f4c6,,,,,,,,,,,,,1,,,,,,,,,,,,,,,,,,,,,,,,259.3071,260.5506,1,1,0.7185,,260.5534,261.5499,0,1,1,1,1,0,sí,REAL,FAKE,,,,,,,,,,,,,,,,,,,,,,,,,,,,,,,,
,,,,,,,,,62b20c0065e9809e66d13fa5,Spanish,13 or older,"no, only English or Spanish",no,2025-08-12_14h03.41.305,empathy_intonation_perc_control,2024.2.4,Win32,60.97560976,62b20c0065e9809e66d13fa5,68817205a84113384fffdfe3,689b81d48aa23f1f1df9f4c6,,,,,,,,,,,,,0,,,,,,,,,,,,,,,,,,,,,,,,261.5529,263.0321,1,0,0.948,,263.0333,264.031,0,2,2,2,1,0,coné,REAL,FAKE,,,,,,,,,,,,,,,,,,,,,,,,,,,,,,,,
,,,,,,,,,62b20c0065e9809e66d13fa5,Spanish,13 or older,"no, only English or Spanish",no,2025-08-12_14h03.41.305,empathy_intonation_perc_control,2024.2.4,Win32,60.97560976,62b20c0065e9809e66d13fa5,68817205a84113384fffdfe3,689b81d48aa23f1f1df9f4c6,,,,,,,,,,,,,0,,,,,,,,,,,,,,,,,,,,,,,,264.0329,265.1464,0,1,0.5802,,265.1473,266.1452,0,3,3,3,1,0,calpar,REAL,FAKE,,,,,,,,,,,,,,,,,,,,,,,,,,,,,,,,
,,,,,,,,,62b20c0065e9809e66d13fa5,Spanish,13 or older,"no, only English or Spanish",no,2025-08-12_14h03.41.305,empathy_intonation_perc_control,2024.2.4,Win32,60.97560976,62b20c0065e9809e66d13fa5,68817205a84113384fffdfe3,689b81d48aa23f1f1df9f4c6,,,,,,,,,,,,,0,,,,,,,,,,,,,,,,,,,,,,,,266.1472,267.261,0,1,0.5747,,267.2611,268.2599,0,4,4,4,1,0,joten,REAL,FAKE,,,,,,,,,,,,,,,,,,,,,,,,,,,,,,,,
,,,,,,,,,62b20c0065e9809e66d13fa5,Spanish,13 or older,"no, only English or Spanish",no,2025-08-12_14h03.41.305,empathy_intonation_perc_control,2024.2.4,Win32,60.97560976,62b20c0065e9809e66d13fa5,68817205a84113384fffdfe3,689b81d48aa23f1f1df9f4c6,,,,,,,,,,,,,1,,,,,,,,,,,,,,,,,,,,,,,,268.2613,269.4753,0,0,0.6859,,269.4762,270.4746,0,5,5,5,1,0,sacapuntas,REAL,FAKE,,,,,,,,,,,,,,,,,,,,,,,,,,,,,,,,
,,,,,,,,,62b20c0065e9809e66d13fa5,Spanish,13 or older,"no, only English or Spanish",no,2025-08-12_14h03.41.305,empathy_intonation_perc_control,2024.2.4,Win32,60.97560976,62b20c0065e9809e66d13fa5,68817205a84113384fffdfe3,689b81d48aa23f1f1df9f4c6,,,,,,,,,,,,,0,,,,,,,,,,,,,,,,,,,,,,,,270.4771,271.5731,0,1,0.5626,,271.574,272.5725,0,6,6,6,1,0,priba,REAL,FAKE,,,,,,,,,,,,,,,,,,,,,,,,,,,,,,,,
,,,,,,,,,62b20c0065e9809e66d13fa5,Spanish,13 or older,"no, only English or Spanish",no,2025-08-12_14h03.41.305,empathy_intonation_perc_control,2024.2.4,Win32,60.97560976,62b20c0065e9809e66d13fa5,68817205a84113384fffdfe3,689b81d48aa23f1f1df9f4c6,,,,,,,,,,,,,0,,,,,,,,,,,,,,,,,,,,,,,,272.5739,273.7545,0,1,0.6458,,273.7546,274.7533,0,7,7,7,1,0,pelasula,REAL,FAKE,,,,,,,,,,,,,,,,,,,,,,,,,,,,,,,,
,,,,,,,,,62b20c0065e9809e66d13fa5,Spanish,13 or older,"no, only English or Spanish",no,2025-08-12_14h03.41.305,empathy_intonation_perc_control,2024.2.4,Win32,60.97560976,62b20c0065e9809e66d13fa5,68817205a84113384fffdfe3,689b81d48aa23f1f1df9f4c6,,,,,,,,,,,,,1,,,,,,,,,,,,,,,,,,,,,,,,274.7548,275.9355,1,1,0.6462,,275.9356,276.9346,0,8,8,8,1,0,bien,REAL,FAKE,,,,,,,,,,,,,,,,,,,,,,,,,,,,,,,,
,,,,,,,,,62b20c0065e9809e66d13fa5,Spanish,13 or older,"no, only English or Spanish",no,2025-08-12_14h03.41.305,empathy_intonation_perc_control,2024.2.4,Win32,60.97560976,62b20c0065e9809e66d13fa5,68817205a84113384fffdfe3,689b81d48aa23f1f1df9f4c6,,,,,,,,,,,,,1,,,,,,,,,,,,,,,,,,,,,,,,276.9359,278.1339,1,1,0.6629,,278.134,279.1329,0,9,9,9,1,0,casa,REAL,FAKE,,,,,,,,,,,,,,,,,,,,,,,,,,,,,,,,
,,,,,,,,,62b20c0065e9809e66d13fa5,Spanish,13 or older,"no, only English or Spanish",no,2025-08-12_14h03.41.305,empathy_intonation_perc_control,2024.2.4,Win32,60.97560976,62b20c0065e9809e66d13fa5,68817205a84113384fffdfe3,689b81d48aa23f1f1df9f4c6,,,,,,,,,,,,,0,,,,,,,,,,,,,,,,,,,,,,,,279.1347,280.2646,0,1,0.5983,,280.2647,281.264,0,10,10,10,1,0,lejo,REAL,FAKE,,,,,,,,,,,,,,,,,,,,,,,,,,,,,,,,
,,,,,,,,,62b20c0065e9809e66d13fa5,Spanish,13 or older,"no, only English or Spanish",no,2025-08-12_14h03.41.305,empathy_intonation_perc_control,2024.2.4,Win32,60.97560976,62b20c0065e9809e66d13fa5,68817205a84113384fffdfe3,689b81d48aa23f1f1df9f4c6,,,,,,,,,,,,,0,,,,,,,,,,,,,,,,,,,,,,,,281.2653,282.3797,1,0,0.5782,,282.3808,283.3783,0,11,11,11,1,0,pretantas,REAL,FAKE,,,,,,,,,,,,,,,,,,,,,,,,,,,,,,,,
,,,,,,,,,62b20c0065e9809e66d13fa5,Spanish,13 or older,"no, only English or Spanish",no,2025-08-12_14h03.41.305,empathy_intonation_perc_control,2024.2.4,Win32,60.97560976,62b20c0065e9809e66d13fa5,68817205a84113384fffdfe3,689b81d48aa23f1f1df9f4c6,,,,,,,,,,,,,,,,,,,,,,,,,,,,,,,,,,,,,,,,,,,,,,,,,,,,,,283.3787,284.6776,,,,,,,,,,,,,,,,,,,,,,,,,,,,,,
,,,,,,,,,62b20c0065e9809e66d13fa5,Spanish,13 or older,"no, only English or Spanish",no,2025-08-12_14h03.41.305,empathy_intonation_perc_control,2024.2.4,Win32,60.97560976,62b20c0065e9809e66d13fa5,68817205a84113384fffdfe3,689b81d48aa23f1f1df9f4c6,,,,,,,,,,,,,1,,,,,,,,,,,,,,,,,,,,,,,,,,,,,,,,,,,,,76,atar,,,,,284.6953,286.143,0,0,0.9186,,0,0,0,75,1,REAL,FAKE,,,,,,,,,,,,,,,,,
,,,,,,,,,62b20c0065e9809e66d13fa5,Spanish,13 or older,"no, only English or Spanish",no,2025-08-12_14h03.41.305,empathy_intonation_perc_control,2024.2.4,Win32,60.97560976,62b20c0065e9809e66d13fa5,68817205a84113384fffdfe3,689b81d48aa23f1f1df9f4c6,,,,,,,,,,,,,0,,,,,,,,,,,,,,,,,,,,,,,,,,,,,,,,,,,,,50,flamida,,,,,286.1457,288.2263,0,1,1.5438,,0,1,1,49,1,REAL,FAKE,,,,,,,,,,,,,,,,,
,,,,,,,,,62b20c0065e9809e66d13fa5,Spanish,13 or older,"no, only English or Spanish",no,2025-08-12_14h03.41.305,empathy_intonation_perc_control,2024.2.4,Win32,60.97560976,62b20c0065e9809e66d13fa5,68817205a84113384fffdfe3,689b81d48aa23f1f1df9f4c6,,,,,,,,,,,,,1,,,,,,,,,,,,,,,,,,,,,,,,,,,,,,,,,,,,,68,alegre,,,,,288.2286,289.4558,1,1,0.7015,,0,2,2,67,1,REAL,FAKE,,,,,,,,,,,,,,,,,
,,,,,,,,,62b20c0065e9809e66d13fa5,Spanish,13 or older,"no, only English or Spanish",no,2025-08-12_14h03.41.305,empathy_intonation_perc_control,2024.2.4,Win32,60.97560976,62b20c0065e9809e66d13fa5,68817205a84113384fffdfe3,689b81d48aa23f1f1df9f4c6,,,,,,,,,,,,,0,,,,,,,,,,,,,,,,,,,,,,,,,,,,,,,,,,,,,47,cartinar,,,,,289.4572,290.7377,1,0,0.7412,,0,3,3,46,1,REAL,FAKE,,,,,,,,,,,,,,,,,
,,,,,,,,,62b20c0065e9809e66d13fa5,Spanish,13 or older,"no, only English or Spanish",no,2025-08-12_14h03.41.305,empathy_intonation_perc_control,2024.2.4,Win32,60.97560976,62b20c0065e9809e66d13fa5,68817205a84113384fffdfe3,689b81d48aa23f1f1df9f4c6,,,,,,,,,,,,,0,,,,,,,,,,,,,,,,,,,,,,,,,,,,,,,,,,,,,19,brecedad,,,,,290.7393,291.9365,0,1,0.6517,,0,4,4,18,1,REAL,FAKE,,,,,,,,,,,,,,,,,
,,,,,,,,,62b20c0065e9809e66d13fa5,Spanish,13 or older,"no, only English or Spanish",no,2025-08-12_14h03.41.305,empathy_intonation_perc_control,2024.2.4,Win32,60.97560976,62b20c0065e9809e66d13fa5,68817205a84113384fffdfe3,689b81d48aa23f1f1df9f4c6,,,,,,,,,,,,,1,,,,,,,,,,,,,,,,,,,,,,,,,,,,,,,,,,,,,90,clavel,,,,,291.9388,293.119,0,0,0.652,,0,5,5,89,1,REAL,FAKE,,,,,,,,,,,,,,,,,
,,,,,,,,,62b20c0065e9809e66d13fa5,Spanish,13 or older,"no, only English or Spanish",no,2025-08-12_14h03.41.305,empathy_intonation_perc_control,2024.2.4,Win32,60.97560976,62b20c0065e9809e66d13fa5,68817205a84113384fffdfe3,689b81d48aa23f1f1df9f4c6,,,,,,,,,,,,,0,,,,,,,,,,,,,,,,,,,,,,,,,,,,,,,,,,,,,42,cadallo,,,,,293.1204,294.4677,1,0,0.8063,,0,6,6,41,1,REAL,FAKE,,,,,,,,,,,,,,,,,
,,,,,,,,,62b20c0065e9809e66d13fa5,Spanish,13 or older,"no, only English or Spanish",no,2025-08-12_14h03.41.305,empathy_intonation_perc_control,2024.2.4,Win32,60.97560976,62b20c0065e9809e66d13fa5,68817205a84113384fffdfe3,689b81d48aa23f1f1df9f4c6,,,,,,,,,,,,,0,,,,,,,,,,,,,,,,,,,,,,,,,,,,,,,,,,,,,53,vegada,,,,,294.4691,295.84,0,1,0.833,,0,7,7,52,1,REAL,FAKE,,,,,,,,,,,,,,,,,
,,,,,,,,,62b20c0065e9809e66d13fa5,Spanish,13 or older,"no, only English or Spanish",no,2025-08-12_14h03.41.305,empathy_intonation_perc_control,2024.2.4,Win32,60.97560976,62b20c0065e9809e66d13fa5,68817205a84113384fffdfe3,689b81d48aa23f1f1df9f4c6,,,,,,,,,,,,,1,,,,,,,,,,,,,,,,,,,,,,,,,,,,,,,,,,,,,46,martillo,,,,,295.8413,297.0814,1,1,0.7092,,0,8,8,45,1,REAL,FAKE,,,,,,,,,,,,,,,,,
,,,,,,,,,62b20c0065e9809e66d13fa5,Spanish,13 or older,"no, only English or Spanish",no,2025-08-12_14h03.41.305,empathy_intonation_perc_control,2024.2.4,Win32,60.97560976,62b20c0065e9809e66d13fa5,68817205a84113384fffdfe3,689b81d48aa23f1f1df9f4c6,,,,,,,,,,,,,1,,,,,,,,,,,,,,,,,,,,,,,,,,,,,,,,,,,,,85,laúd,,,,,297.0837,298.2207,1,1,0.5997,,0,9,9,84,1,REAL,FAKE,,,,,,,,,,,,,,,,,
,,,,,,,,,62b20c0065e9809e66d13fa5,Spanish,13 or older,"no, only English or Spanish",no,2025-08-12_14h03.41.305,empathy_intonation_perc_control,2024.2.4,Win32,60.97560976,62b20c0065e9809e66d13fa5,68817205a84113384fffdfe3,689b81d48aa23f1f1df9f4c6,,,,,,,,,,,,,1,,,,,,,,,,,,,,,,,,,,,,,,,,,,,,,,,,,,,59,besar,,,,,298.2221,299.5521,1,1,0.7992,,0,10,10,58,1,REAL,FAKE,,,,,,,,,,,,,,,,,
,,,,,,,,,62b20c0065e9809e66d13fa5,Spanish,13 or older,"no, only English or Spanish",no,2025-08-12_14h03.41.305,empathy_intonation_perc_control,2024.2.4,Win32,60.97560976,62b20c0065e9809e66d13fa5,68817205a84113384fffdfe3,689b81d48aa23f1f1df9f4c6,,,,,,,,,,,,,1,,,,,,,,,,,,,,,,,,,,,,,,,,,,,,,,,,,,,6,tergiversar,,,,,299.5529,300.8855,1,1,0.8004,,0,11,11,5,1,REAL,FAKE,,,,,,,,,,,,,,,,,
,,,,,,,,,62b20c0065e9809e66d13fa5,Spanish,13 or older,"no, only English or Spanish",no,2025-08-12_14h03.41.305,empathy_intonation_perc_control,2024.2.4,Win32,60.97560976,62b20c0065e9809e66d13fa5,68817205a84113384fffdfe3,689b81d48aa23f1f1df9f4c6,,,,,,,,,,,,,1,,,,,,,,,,,,,,,,,,,,,,,,,,,,,,,,,,,,,88,acantilado,,,,,300.8868,302.1766,0,0,0.7584,,0,12,12,87,1,REAL,FAKE,,,,,,,,,,,,,,,,,
,,,,,,,,,62b20c0065e9809e66d13fa5,Spanish,13 or older,"no, only English or Spanish",no,2025-08-12_14h03.41.305,empathy_intonation_perc_control,2024.2.4,Win32,60.97560976,62b20c0065e9809e66d13fa5,68817205a84113384fffdfe3,689b81d48aa23f1f1df9f4c6,,,,,,,,,,,,,1,,,,,,,,,,,,,,,,,,,,,,,,,,,,,,,,,,,,,36,loro,,,,,302.1777,304.4742,0,0,1.7654,,0,13,13,35,1,REAL,FAKE,,,,,,,,,,,,,,,,,
,,,,,,,,,62b20c0065e9809e66d13fa5,Spanish,13 or older,"no, only English or Spanish",no,2025-08-12_14h03.41.305,empathy_intonation_perc_control,2024.2.4,Win32,60.97560976,62b20c0065e9809e66d13fa5,68817205a84113384fffdfe3,689b81d48aa23f1f1df9f4c6,,,,,,,,,,,,,1,,,,,,,,,,,,,,,,,,,,,,,,,,,,,,,,,,,,,80,hormiga,,,,,304.4755,305.6744,0,0,0.6611,,0,14,14,79,1,REAL,FAKE,,,,,,,,,,,,,,,,,
,,,,,,,,,62b20c0065e9809e66d13fa5,Spanish,13 or older,"no, only English or Spanish",no,2025-08-12_14h03.41.305,empathy_intonation_perc_control,2024.2.4,Win32,60.97560976,62b20c0065e9809e66d13fa5,68817205a84113384fffdfe3,689b81d48aa23f1f1df9f4c6,,,,,,,,,,,,,1,,,,,,,,,,,,,,,,,,,,,,,,,,,,,,,,,,,,,62,flaco,,,,,305.6757,306.7555,1,1,0.538,,0,15,15,61,1,REAL,FAKE,,,,,,,,,,,,,,,,,
,,,,,,,,,62b20c0065e9809e66d13fa5,Spanish,13 or older,"no, only English or Spanish",no,2025-08-12_14h03.41.305,empathy_intonation_perc_control,2024.2.4,Win32,60.97560976,62b20c0065e9809e66d13fa5,68817205a84113384fffdfe3,689b81d48aa23f1f1df9f4c6,,,,,,,,,,,,,1,,,,,,,,,,,,,,,,,,,,,,,,,,,,,,,,,,,,,51,candado,,,,,306.757,307.9711,1,1,0.6678,,0,16,16,50,1,REAL,FAKE,,,,,,,,,,,,,,,,,
,,,,,,,,,62b20c0065e9809e66d13fa5,Spanish,13 or older,"no, only English or Spanish",no,2025-08-12_14h03.41.305,empathy_intonation_perc_control,2024.2.4,Win32,60.97560976,62b20c0065e9809e66d13fa5,68817205a84113384fffdfe3,689b81d48aa23f1f1df9f4c6,,,,,,,,,,,,,1,,,,,,,,,,,,,,,,,,,,,,,,,,,,,,,,,,,,,75,yacer,,,,,307.9723,309.2364,0,0,0.7197,,0,17,17,74,1,REAL,FAKE,,,,,,,,,,,,,,,,,
,,,,,,,,,62b20c0065e9809e66d13fa5,Spanish,13 or older,"no, only English or Spanish",no,2025-08-12_14h03.41.305,empathy_intonation_perc_control,2024.2.4,Win32,60.97560976,62b20c0065e9809e66d13fa5,68817205a84113384fffdfe3,689b81d48aa23f1f1df9f4c6,,,,,,,,,,,,,1,,,,,,,,,,,,,,,,,,,,,,,,,,,,,,,,,,,,,61,seda,,,,,309.2373,310.4028,1,1,0.6387,,0,18,18,60,1,REAL,FAKE,,,,,,,,,,,,,,,,,
,,,,,,,,,62b20c0065e9809e66d13fa5,Spanish,13 or older,"no, only English or Spanish",no,2025-08-12_14h03.41.305,empathy_intonation_perc_control,2024.2.4,Win32,60.97560976,62b20c0065e9809e66d13fa5,68817205a84113384fffdfe3,689b81d48aa23f1f1df9f4c6,,,,,,,,,,,,,1,,,,,,,,,,,,,,,,,,,,,,,,,,,,,,,,,,,,,78,frondoso,,,,,310.4044,311.8507,0,0,0.9143,,0,19,19,77,1,REAL,FAKE,,,,,,,,,,,,,,,,,
,,,,,,,,,62b20c0065e9809e66d13fa5,Spanish,13 or older,"no, only English or Spanish",no,2025-08-12_14h03.41.305,empathy_intonation_perc_control,2024.2.4,Win32,60.97560976,62b20c0065e9809e66d13fa5,68817205a84113384fffdfe3,689b81d48aa23f1f1df9f4c6,,,,,,,,,,,,,1,,,,,,,,,,,,,,,,,,,,,,,,,,,,,,,,,,,,,43,canela,,,,,311.8523,312.9826,1,1,0.5992,,0,20,20,42,1,REAL,FAKE,,,,,,,,,,,,,,,,,
,,,,,,,,,62b20c0065e9809e66d13fa5,Spanish,13 or older,"no, only English or Spanish",no,2025-08-12_14h03.41.305,empathy_intonation_perc_control,2024.2.4,Win32,60.97560976,62b20c0065e9809e66d13fa5,68817205a84113384fffdfe3,689b81d48aa23f1f1df9f4c6,,,,,,,,,,,,,0,,,,,,,,,,,,,,,,,,,,,,,,,,,,,,,,,,,,,21,capillo,,,,,312.984,314.1646,0,1,0.6493,,0,21,21,20,1,REAL,FAKE,,,,,,,,,,,,,,,,,
,,,,,,,,,62b20c0065e9809e66d13fa5,Spanish,13 or older,"no, only English or Spanish",no,2025-08-12_14h03.41.305,empathy_intonation_perc_control,2024.2.4,Win32,60.97560976,62b20c0065e9809e66d13fa5,68817205a84113384fffdfe3,689b81d48aa23f1f1df9f4c6,,,,,,,,,,,,,1,,,,,,,,,,,,,,,,,,,,,,,,,,,,,,,,,,,,,37,granuja,,,,,314.1657,315.6799,0,0,0.9864,,0,22,22,36,1,REAL,FAKE,,,,,,,,,,,,,,,,,
,,,,,,,,,62b20c0065e9809e66d13fa5,Spanish,13 or older,"no, only English or Spanish",no,2025-08-12_14h03.41.305,empathy_intonation_perc_control,2024.2.4,Win32,60.97560976,62b20c0065e9809e66d13fa5,68817205a84113384fffdfe3,689b81d48aa23f1f1df9f4c6,,,,,,,,,,,,,1,,,,,,,,,,,,,,,,,,,,,,,,,,,,,,,,,,,,,48,ladrón,,,,,315.6823,316.7954,0,0,0.5797,,0,23,23,47,1,REAL,FAKE,,,,,,,,,,,,,,,,,
,,,,,,,,,62b20c0065e9809e66d13fa5,Spanish,13 or older,"no, only English or Spanish",no,2025-08-12_14h03.41.305,empathy_intonation_perc_control,2024.2.4,Win32,60.97560976,62b20c0065e9809e66d13fa5,68817205a84113384fffdfe3,689b81d48aa23f1f1df9f4c6,,,,,,,,,,,,,1,,,,,,,,,,,,,,,,,,,,,,,,,,,,,,,,,,,,,45,jilguero,,,,,316.7971,317.9279,0,0,0.5977,,0,24,24,44,1,REAL,FAKE,,,,,,,,,,,,,,,,,
,,,,,,,,,62b20c0065e9809e66d13fa5,Spanish,13 or older,"no, only English or Spanish",no,2025-08-12_14h03.41.305,empathy_intonation_perc_control,2024.2.4,Win32,60.97560976,62b20c0065e9809e66d13fa5,68817205a84113384fffdfe3,689b81d48aa23f1f1df9f4c6,,,,,,,,,,,,,1,,,,,,,,,,,,,,,,,,,,,,,,,,,,,,,,,,,,,44,cuchara,,,,,317.9293,319.1933,1,1,0.7296,,0,25,25,43,1,REAL,FAKE,,,,,,,,,,,,,,,,,
,,,,,,,,,62b20c0065e9809e66d13fa5,Spanish,13 or older,"no, only English or Spanish",no,2025-08-12_14h03.41.305,empathy_intonation_perc_control,2024.2.4,Win32,60.97560976,62b20c0065e9809e66d13fa5,68817205a84113384fffdfe3,689b81d48aa23f1f1df9f4c6,,,,,,,,,,,,,0,,,,,,,,,,,,,,,,,,,,,,,,,,,,,,,,,,,,,58,plaudir,,,,,319.1949,320.3427,1,0,0.6149,,0,26,26,57,1,REAL,FAKE,,,,,,,,,,,,,,,,,
,,,,,,,,,62b20c0065e9809e66d13fa5,Spanish,13 or older,"no, only English or Spanish",no,2025-08-12_14h03.41.305,empathy_intonation_perc_control,2024.2.4,Win32,60.97560976,62b20c0065e9809e66d13fa5,68817205a84113384fffdfe3,689b81d48aa23f1f1df9f4c6,,,,,,,,,,,,,1,,,,,,,,,,,,,,,,,,,,,,,,,,,,,,,,,,,,,39,torpe,,,,,320.3444,321.4579,0,0,0.5799,,0,27,27,38,1,REAL,FAKE,,,,,,,,,,,,,,,,,
,,,,,,,,,62b20c0065e9809e66d13fa5,Spanish,13 or older,"no, only English or Spanish",no,2025-08-12_14h03.41.305,empathy_intonation_perc_control,2024.2.4,Win32,60.97560976,62b20c0065e9809e66d13fa5,68817205a84113384fffdfe3,689b81d48aa23f1f1df9f4c6,,,,,,,,,,,,,1,,,,,,,,,,,,,,,,,,,,,,,,,,,,,,,,,,,,,34,aviso,,,,,321.4597,322.7425,1,1,0.747,,0,28,28,33,1,REAL,FAKE,,,,,,,,,,,,,,,,,
,,,,,,,,,62b20c0065e9809e66d13fa5,Spanish,13 or older,"no, only English or Spanish",no,2025-08-12_14h03.41.305,empathy_intonation_perc_control,2024.2.4,Win32,60.97560976,62b20c0065e9809e66d13fa5,68817205a84113384fffdfe3,689b81d48aa23f1f1df9f4c6,,,,,,,,,,,,,0,,,,,,,,,,,,,,,,,,,,,,,,,,,,,,,,,,,,,35,rompido,,,,,322.744,324.0892,1,0,0.8206,,0,29,29,34,1,REAL,FAKE,,,,,,,,,,,,,,,,,
,,,,,,,,,62b20c0065e9809e66d13fa5,Spanish,13 or older,"no, only English or Spanish",no,2025-08-12_14h03.41.305,empathy_intonation_perc_control,2024.2.4,Win32,60.97560976,62b20c0065e9809e66d13fa5,68817205a84113384fffdfe3,689b81d48aa23f1f1df9f4c6,,,,,,,,,,,,,0,,,,,,,,,,,,,,,,,,,,,,,,,,,,,,,,,,,,,17,floroso,,,,,324.0911,325.4543,1,0,0.829,,0,30,30,16,1,REAL,FAKE,,,,,,,,,,,,,,,,,
,,,,,,,,,62b20c0065e9809e66d13fa5,Spanish,13 or older,"no, only English or Spanish",no,2025-08-12_14h03.41.305,empathy_intonation_perc_control,2024.2.4,Win32,60.97560976,62b20c0065e9809e66d13fa5,68817205a84113384fffdfe3,689b81d48aa23f1f1df9f4c6,,,,,,,,,,,,,1,,,,,,,,,,,,,,,,,,,,,,,,,,,,,,,,,,,,,57,tacaño,,,,,325.4566,326.6863,1,1,0.6957,,0,31,31,56,1,REAL,FAKE,,,,,,,,,,,,,,,,,
,,,,,,,,,62b20c0065e9809e66d13fa5,Spanish,13 or older,"no, only English or Spanish",no,2025-08-12_14h03.41.305,empathy_intonation_perc_control,2024.2.4,Win32,60.97560976,62b20c0065e9809e66d13fa5,68817205a84113384fffdfe3,689b81d48aa23f1f1df9f4c6,,,,,,,,,,,,,0,,,,,,,,,,,,,,,,,,,,,,,,,,,,,,,,,,,,,23,lampera,,,,,326.6881,327.8351,1,0,0.6144,,0,32,32,22,1,REAL,FAKE,,,,,,,,,,,,,,,,,
,,,,,,,,,62b20c0065e9809e66d13fa5,Spanish,13 or older,"no, only English or Spanish",no,2025-08-12_14h03.41.305,empathy_intonation_perc_control,2024.2.4,Win32,60.97560976,62b20c0065e9809e66d13fa5,68817205a84113384fffdfe3,689b81d48aa23f1f1df9f4c6,,,,,,,,,,,,,1,,,,,,,,,,,,,,,,,,,,,,,,,,,,,,,,,,,,,52,camisa,,,,,327.8368,328.9506,1,1,0.586,,0,33,33,51,1,REAL,FAKE,,,,,,,,,,,,,,,,,
,,,,,,,,,62b20c0065e9809e66d13fa5,Spanish,13 or older,"no, only English or Spanish",no,2025-08-12_14h03.41.305,empathy_intonation_perc_control,2024.2.4,Win32,60.97560976,62b20c0065e9809e66d13fa5,68817205a84113384fffdfe3,689b81d48aa23f1f1df9f4c6,,,,,,,,,,,,,1,,,,,,,,,,,,,,,,,,,,,,,,,,,,,,,,,,,,,11,cenefa,,,,,328.9525,330.033,0,0,0.5493,,0,34,34,10,1,REAL,FAKE,,,,,,,,,,,,,,,,,
,,,,,,,,,62b20c0065e9809e66d13fa5,Spanish,13 or older,"no, only English or Spanish",no,2025-08-12_14h03.41.305,empathy_intonation_perc_control,2024.2.4,Win32,60.97560976,62b20c0065e9809e66d13fa5,68817205a84113384fffdfe3,689b81d48aa23f1f1df9f4c6,,,,,,,,,,,,,1,,,,,,,,,,,,,,,,,,,,,,,,,,,,,,,,,,,,,86,barato,,,,,330.0344,331.1486,0,0,0.577,,0,35,35,85,1,REAL,FAKE,,,,,,,,,,,,,,,,,
,,,,,,,,,62b20c0065e9809e66d13fa5,Spanish,13 or older,"no, only English or Spanish",no,2025-08-12_14h03.41.305,empathy_intonation_perc_control,2024.2.4,Win32,60.97560976,62b20c0065e9809e66d13fa5,68817205a84113384fffdfe3,689b81d48aa23f1f1df9f4c6,,,,,,,,,,,,,0,,,,,,,,,,,,,,,,,,,,,,,,,,,,,,,,,,,,,30,alardio,,,,,331.1503,332.3475,1,0,0.6629,,0,36,36,29,1,REAL,FAKE,,,,,,,,,,,,,,,,,
,,,,,,,,,62b20c0065e9809e66d13fa5,Spanish,13 or older,"no, only English or Spanish",no,2025-08-12_14h03.41.305,empathy_intonation_perc_control,2024.2.4,Win32,60.97560976,62b20c0065e9809e66d13fa5,68817205a84113384fffdfe3,689b81d48aa23f1f1df9f4c6,,,,,,,,,,,,,0,,,,,,,,,,,,,,,,,,,,,,,,,,,,,,,,,,,,,4,batillón,,,,,332.3493,333.5462,0,1,0.664,,0,37,37,3,1,REAL,FAKE,,,,,,,,,,,,,,,,,
,,,,,,,,,62b20c0065e9809e66d13fa5,Spanish,13 or older,"no, only English or Spanish",no,2025-08-12_14h03.41.305,empathy_intonation_perc_control,2024.2.4,Win32,60.97560976,62b20c0065e9809e66d13fa5,68817205a84113384fffdfe3,689b81d48aa23f1f1df9f4c6,,,,,,,,,,,,,1,,,,,,,,,,,,,,,,,,,,,,,,,,,,,,,,,,,,,69,engatusar,,,,,333.5478,334.7118,0,0,0.6295,,0,38,38,68,1,REAL,FAKE,,,,,,,,,,,,,,,,,
,,,,,,,,,62b20c0065e9809e66d13fa5,Spanish,13 or older,"no, only English or Spanish",no,2025-08-12_14h03.41.305,empathy_intonation_perc_control,2024.2.4,Win32,60.97560976,62b20c0065e9809e66d13fa5,68817205a84113384fffdfe3,689b81d48aa23f1f1df9f4c6,,,,,,,,,,,,,0,,,,,,,,,,,,,,,,,,,,,,,,,,,,,,,,,,,,,16,abracer,,,,,334.7132,336.0267,1,0,0.779,,0,39,39,15,1,REAL,FAKE,,,,,,,,,,,,,,,,,
,,,,,,,,,62b20c0065e9809e66d13fa5,Spanish,13 or older,"no, only English or Spanish",no,2025-08-12_14h03.41.305,empathy_intonation_perc_control,2024.2.4,Win32,60.97560976,62b20c0065e9809e66d13fa5,68817205a84113384fffdfe3,689b81d48aa23f1f1df9f4c6,,,,,,,,,,,,,1,,,,,,,,,,,,,,,,,,,,,,,,,,,,,,,,,,,,,73,hervidor,,,,,336.0281,337.1595,0,0,0.5965,,0,40,40,72,1,REAL,FAKE,,,,,,,,,,,,,,,,,
,,,,,,,,,62b20c0065e9809e66d13fa5,Spanish,13 or older,"no, only English or Spanish",no,2025-08-12_14h03.41.305,empathy_intonation_perc_control,2024.2.4,Win32,60.97560976,62b20c0065e9809e66d13fa5,68817205a84113384fffdfe3,689b81d48aa23f1f1df9f4c6,,,,,,,,,,,,,1,,,,,,,,,,,,,,,,,,,,,,,,,,,,,,,,,,,,,56,musgo,,,,,337.1612,338.2917,0,0,0.597,,0,41,41,55,1,REAL,FAKE,,,,,,,,,,,,,,,,,
,,,,,,,,,62b20c0065e9809e66d13fa5,Spanish,13 or older,"no, only English or Spanish",no,2025-08-12_14h03.41.305,empathy_intonation_perc_control,2024.2.4,Win32,60.97560976,62b20c0065e9809e66d13fa5,68817205a84113384fffdfe3,689b81d48aa23f1f1df9f4c6,,,,,,,,,,,,,0,,,,,,,,,,,,,,,,,,,,,,,,,,,,,,,,,,,,,74,cintro,,,,,338.2936,339.507,0,1,0.6796,,0,42,42,73,1,REAL,FAKE,,,,,,,,,,,,,,,,,
,,,,,,,,,62b20c0065e9809e66d13fa5,Spanish,13 or older,"no, only English or Spanish",no,2025-08-12_14h03.41.305,empathy_intonation_perc_control,2024.2.4,Win32,60.97560976,62b20c0065e9809e66d13fa5,68817205a84113384fffdfe3,689b81d48aa23f1f1df9f4c6,,,,,,,,,,,,,1,,,,,,,,,,,,,,,,,,,,,,,,,,,,,,,,,,,,,40,alfombra,,,,,339.5088,340.6061,0,0,0.563,,0,43,43,39,1,REAL,FAKE,,,,,,,,,,,,,,,,,
,,,,,,,,,62b20c0065e9809e66d13fa5,Spanish,13 or older,"no, only English or Spanish",no,2025-08-12_14h03.41.305,empathy_intonation_perc_control,2024.2.4,Win32,60.97560976,62b20c0065e9809e66d13fa5,68817205a84113384fffdfe3,689b81d48aa23f1f1df9f4c6,,,,,,,,,,,,,0,,,,,,,,,,,,,,,,,,,,,,,,,,,,,,,,,,,,,87,grodo,,,,,340.6078,341.638,0,1,0.4959,,0,44,44,86,1,REAL,FAKE,,,,,,,,,,,,,,,,,
,,,,,,,,,62b20c0065e9809e66d13fa5,Spanish,13 or older,"no, only English or Spanish",no,2025-08-12_14h03.41.305,empathy_intonation_perc_control,2024.2.4,Win32,60.97560976,62b20c0065e9809e66d13fa5,68817205a84113384fffdfe3,689b81d48aa23f1f1df9f4c6,,,,,,,,,,,,,1,,,,,,,,,,,,,,,,,,,,,,,,,,,,,,,,,,,,,71,polvoriento,,,,,341.64,342.7706,0,0,0.6027,,0,45,45,70,1,REAL,FAKE,,,,,,,,,,,,,,,,,
,,,,,,,,,62b20c0065e9809e66d13fa5,Spanish,13 or older,"no, only English or Spanish",no,2025-08-12_14h03.41.305,empathy_intonation_perc_control,2024.2.4,Win32,60.97560976,62b20c0065e9809e66d13fa5,68817205a84113384fffdfe3,689b81d48aa23f1f1df9f4c6,,,,,,,,,,,,,1,,,,,,,,,,,,,,,,,,,,,,,,,,,,,,,,,,,,,54,fomentar,,,,,342.7721,343.8195,1,1,0.519,,0,46,46,53,1,REAL,FAKE,,,,,,,,,,,,,,,,,
,,,,,,,,,62b20c0065e9809e66d13fa5,Spanish,13 or older,"no, only English or Spanish",no,2025-08-12_14h03.41.305,empathy_intonation_perc_control,2024.2.4,Win32,60.97560976,62b20c0065e9809e66d13fa5,68817205a84113384fffdfe3,689b81d48aa23f1f1df9f4c6,,,,,,,,,,,,,0,,,,,,,,,,,,,,,,,,,,,,,,,,,,,,,,,,,,,18,arsa,,,,,343.821,345.035,0,1,0.6801,,0,47,47,17,1,REAL,FAKE,,,,,,,,,,,,,,,,,
,,,,,,,,,62b20c0065e9809e66d13fa5,Spanish,13 or older,"no, only English or Spanish",no,2025-08-12_14h03.41.305,empathy_intonation_perc_control,2024.2.4,Win32,60.97560976,62b20c0065e9809e66d13fa5,68817205a84113384fffdfe3,689b81d48aa23f1f1df9f4c6,,,,,,,,,,,,,0,,,,,,,,,,,,,,,,,,,,,,,,,,,,,,,,,,,,,70,temblo,,,,,345.0369,346.067,0,1,0.5004,,0,48,48,69,1,REAL,FAKE,,,,,,,,,,,,,,,,,
,,,,,,,,,62b20c0065e9809e66d13fa5,Spanish,13 or older,"no, only English or Spanish",no,2025-08-12_14h03.41.305,empathy_intonation_perc_control,2024.2.4,Win32,60.97560976,62b20c0065e9809e66d13fa5,68817205a84113384fffdfe3,689b81d48aa23f1f1df9f4c6,,,,,,,,,,,,,1,,,,,,,,,,,,,,,,,,,,,,,,,,,,,,,,,,,,,22,lacayo,,,,,346.0686,347.1846,0,0,0.5797,,0,49,49,21,1,REAL,FAKE,,,,,,,,,,,,,,,,,
,,,,,,,,,62b20c0065e9809e66d13fa5,Spanish,13 or older,"no, only English or Spanish",no,2025-08-12_14h03.41.305,empathy_intonation_perc_control,2024.2.4,Win32,60.97560976,62b20c0065e9809e66d13fa5,68817205a84113384fffdfe3,689b81d48aa23f1f1df9f4c6,,,,,,,,,,,,,0,,,,,,,,,,,,,,,,,,,,,,,,,,,,,,,,,,,,,92,click the 0 key.,,,,,347.1872,348.7978,0,1,1.0782,,0,50,50,91,1,REAL,FAKE,,,,,,,,,,,,,,,,,
,,,,,,,,,62b20c0065e9809e66d13fa5,Spanish,13 or older,"no, only English or Spanish",no,2025-08-12_14h03.41.305,empathy_intonation_perc_control,2024.2.4,Win32,60.97560976,62b20c0065e9809e66d13fa5,68817205a84113384fffdfe3,689b81d48aa23f1f1df9f4c6,,,,,,,,,,,,,1,,,,,,,,,,,,,,,,,,,,,,,,,,,,,,,,,,,,,24,látigo,,,,,348.8006,349.9637,1,1,0.6287,,0,51,51,23,1,REAL,FAKE,,,,,,,,,,,,,,,,,
,,,,,,,,,62b20c0065e9809e66d13fa5,Spanish,13 or older,"no, only English or Spanish",no,2025-08-12_14h03.41.305,empathy_intonation_perc_control,2024.2.4,Win32,60.97560976,62b20c0065e9809e66d13fa5,68817205a84113384fffdfe3,689b81d48aa23f1f1df9f4c6,,,,,,,,,,,,,1,,,,,,,,,,,,,,,,,,,,,,,,,,,,,,,,,,,,,28,merodear,,,,,349.9653,351.2452,1,1,0.7522,,0,52,52,27,1,REAL,FAKE,,,,,,,,,,,,,,,,,
,,,,,,,,,62b20c0065e9809e66d13fa5,Spanish,13 or older,"no, only English or Spanish",no,2025-08-12_14h03.41.305,empathy_intonation_perc_control,2024.2.4,Win32,60.97560976,62b20c0065e9809e66d13fa5,68817205a84113384fffdfe3,689b81d48aa23f1f1df9f4c6,,,,,,,,,,,,,1,,,,,,,,,,,,,,,,,,,,,,,,,,,,,,,,,,,,,2,pellizcar,,,,,351.2474,352.3612,0,0,0.5964,,0,53,53,1,1,REAL,FAKE,,,,,,,,,,,,,,,,,
,,,,,,,,,62b20c0065e9809e66d13fa5,Spanish,13 or older,"no, only English or Spanish",no,2025-08-12_14h03.41.305,empathy_intonation_perc_control,2024.2.4,Win32,60.97560976,62b20c0065e9809e66d13fa5,68817205a84113384fffdfe3,689b81d48aa23f1f1df9f4c6,,,,,,,,,,,,,1,,,,,,,,,,,,,,,,,,,,,,,,,,,,,,,,,,,,,20,ávido,,,,,352.3628,354.1598,1,1,1.2619,,0,54,54,19,1,REAL,FAKE,,,,,,,,,,,,,,,,,
,,,,,,,,,62b20c0065e9809e66d13fa5,Spanish,13 or older,"no, only English or Spanish",no,2025-08-12_14h03.41.305,empathy_intonation_perc_control,2024.2.4,Win32,60.97560976,62b20c0065e9809e66d13fa5,68817205a84113384fffdfe3,689b81d48aa23f1f1df9f4c6,,,,,,,,,,,,,1,,,,,,,,,,,,,,,,,,,,,,,,,,,,,,,,,,,,,91,click the 1 key.,,,,,354.1622,355.7078,1,1,1.0158,,0,55,55,90,1,REAL,FAKE,,,,,,,,,,,,,,,,,
,,,,,,,,,62b20c0065e9809e66d13fa5,Spanish,13 or older,"no, only English or Spanish",no,2025-08-12_14h03.41.305,empathy_intonation_perc_control,2024.2.4,Win32,60.97560976,62b20c0065e9809e66d13fa5,68817205a84113384fffdfe3,689b81d48aa23f1f1df9f4c6,,,,,,,,,,,,,1,,,,,,,,,,,,,,,,,,,,,,,,,,,,,,,,,,,,,64,orgulloso,,,,,355.7097,356.9732,0,0,0.7365,,0,56,56,63,1,REAL,FAKE,,,,,,,,,,,,,,,,,
,,,,,,,,,62b20c0065e9809e66d13fa5,Spanish,13 or older,"no, only English or Spanish",no,2025-08-12_14h03.41.305,empathy_intonation_perc_control,2024.2.4,Win32,60.97560976,62b20c0065e9809e66d13fa5,68817205a84113384fffdfe3,689b81d48aa23f1f1df9f4c6,,,,,,,,,,,,,1,,,,,,,,,,,,,,,,,,,,,,,,,,,,,,,,,,,,,13,helar,,,,,356.9753,358.1889,0,0,0.6874,,0,57,57,12,1,REAL,FAKE,,,,,,,,,,,,,,,,,
,,,,,,,,,62b20c0065e9809e66d13fa5,Spanish,13 or older,"no, only English or Spanish",no,2025-08-12_14h03.41.305,empathy_intonation_perc_control,2024.2.4,Win32,60.97560976,62b20c0065e9809e66d13fa5,68817205a84113384fffdfe3,689b81d48aa23f1f1df9f4c6,,,,,,,,,,,,,1,,,,,,,,,,,,,,,,,,,,,,,,,,,,,,,,,,,,,38,estornudar,,,,,358.1906,359.4544,0,0,0.7294,,0,58,58,37,1,REAL,FAKE,,,,,,,,,,,,,,,,,
,,,,,,,,,62b20c0065e9809e66d13fa5,Spanish,13 or older,"no, only English or Spanish",no,2025-08-12_14h03.41.305,empathy_intonation_perc_control,2024.2.4,Win32,60.97560976,62b20c0065e9809e66d13fa5,68817205a84113384fffdfe3,689b81d48aa23f1f1df9f4c6,,,,,,,,,,,,,0,,,,,,,,,,,,,,,,,,,,,,,,,,,,,,,,,,,,,84,escuto,,,,,359.4561,360.6696,1,0,0.6841,,0,59,59,83,1,REAL,FAKE,,,,,,,,,,,,,,,,,
,,,,,,,,,62b20c0065e9809e66d13fa5,Spanish,13 or older,"no, only English or Spanish",no,2025-08-12_14h03.41.305,empathy_intonation_perc_control,2024.2.4,Win32,60.97560976,62b20c0065e9809e66d13fa5,68817205a84113384fffdfe3,689b81d48aa23f1f1df9f4c6,,,,,,,,,,,,,1,,,,,,,,,,,,,,,,,,,,,,,,,,,,,,,,,,,,,26,secuestro,,,,,360.6731,362.1346,0,0,0.9321,,0,60,60,25,1,REAL,FAKE,,,,,,,,,,,,,,,,,
,,,,,,,,,62b20c0065e9809e66d13fa5,Spanish,13 or older,"no, only English or Spanish",no,2025-08-12_14h03.41.305,empathy_intonation_perc_control,2024.2.4,Win32,60.97560976,62b20c0065e9809e66d13fa5,68817205a84113384fffdfe3,689b81d48aa23f1f1df9f4c6,,,,,,,,,,,,,0,,,,,,,,,,,,,,,,,,,,,,,,,,,,,,,,,,,,,8,cadeña,,,,,362.1364,363.2835,1,0,0.6144,,0,61,61,7,1,REAL,FAKE,,,,,,,,,,,,,,,,,
,,,,,,,,,62b20c0065e9809e66d13fa5,Spanish,13 or older,"no, only English or Spanish",no,2025-08-12_14h03.41.305,empathy_intonation_perc_control,2024.2.4,Win32,60.97560976,62b20c0065e9809e66d13fa5,68817205a84113384fffdfe3,689b81d48aa23f1f1df9f4c6,,,,,,,,,,,,,1,,,,,,,,,,,,,,,,,,,,,,,,,,,,,,,,,,,,,60,matar,,,,,363.2849,364.4656,0,0,0.6462,,0,62,62,59,1,REAL,FAKE,,,,,,,,,,,,,,,,,
,,,,,,,,,62b20c0065e9809e66d13fa5,Spanish,13 or older,"no, only English or Spanish",no,2025-08-12_14h03.41.305,empathy_intonation_perc_control,2024.2.4,Win32,60.97560976,62b20c0065e9809e66d13fa5,68817205a84113384fffdfe3,689b81d48aa23f1f1df9f4c6,,,,,,,,,,,,,1,,,,,,,,,,,,,,,,,,,,,,,,,,,,,,,,,,,,,25,bisagra,,,,,364.4669,365.5982,0,0,0.5999,,0,63,63,24,1,REAL,FAKE,,,,,,,,,,,,,,,,,
,,,,,,,,,62b20c0065e9809e66d13fa5,Spanish,13 or older,"no, only English or Spanish",no,2025-08-12_14h03.41.305,empathy_intonation_perc_control,2024.2.4,Win32,60.97560976,62b20c0065e9809e66d13fa5,68817205a84113384fffdfe3,689b81d48aa23f1f1df9f4c6,,,,,,,,,,,,,0,,,,,,,,,,,,,,,,,,,,,,,,,,,,,,,,,,,,,66,hacido,,,,,365.5998,366.7801,1,0,0.6469,,0,64,64,65,1,REAL,FAKE,,,,,,,,,,,,,,,,,
,,,,,,,,,62b20c0065e9809e66d13fa5,Spanish,13 or older,"no, only English or Spanish",no,2025-08-12_14h03.41.305,empathy_intonation_perc_control,2024.2.4,Win32,60.97560976,62b20c0065e9809e66d13fa5,68817205a84113384fffdfe3,689b81d48aa23f1f1df9f4c6,,,,,,,,,,,,,1,,,,,,,,,,,,,,,,,,,,,,,,,,,,,,,,,,,,,41,rebuscar,,,,,366.782,367.8623,1,1,0.5512,,0,65,65,40,1,REAL,FAKE,,,,,,,,,,,,,,,,,
,,,,,,,,,62b20c0065e9809e66d13fa5,Spanish,13 or older,"no, only English or Spanish",no,2025-08-12_14h03.41.305,empathy_intonation_perc_control,2024.2.4,Win32,60.97560976,62b20c0065e9809e66d13fa5,68817205a84113384fffdfe3,689b81d48aa23f1f1df9f4c6,,,,,,,,,,,,,0,,,,,,,,,,,,,,,,,,,,,,,,,,,,,,,,,,,,,63,esposante,,,,,367.8639,368.9613,0,1,0.5634,,0,66,66,62,1,REAL,FAKE,,,,,,,,,,,,,,,,,
,,,,,,,,,62b20c0065e9809e66d13fa5,Spanish,13 or older,"no, only English or Spanish",no,2025-08-12_14h03.41.305,empathy_intonation_perc_control,2024.2.4,Win32,60.97560976,62b20c0065e9809e66d13fa5,68817205a84113384fffdfe3,689b81d48aa23f1f1df9f4c6,,,,,,,,,,,,,1,,,,,,,,,,,,,,,,,,,,,,,,,,,,,,,,,,,,,12,asesinato,,,,,368.9625,370.1437,0,0,0.6474,,0,67,67,11,1,REAL,FAKE,,,,,,,,,,,,,,,,,
,,,,,,,,,62b20c0065e9809e66d13fa5,Spanish,13 or older,"no, only English or Spanish",no,2025-08-12_14h03.41.305,empathy_intonation_perc_control,2024.2.4,Win32,60.97560976,62b20c0065e9809e66d13fa5,68817205a84113384fffdfe3,689b81d48aa23f1f1df9f4c6,,,,,,,,,,,,,1,,,,,,,,,,,,,,,,,,,,,,,,,,,,,,,,,,,,,31,pandilla,,,,,370.1451,371.2927,1,1,0.6136,,0,68,68,30,1,REAL,FAKE,,,,,,,,,,,,,,,,,
,,,,,,,,,62b20c0065e9809e66d13fa5,Spanish,13 or older,"no, only English or Spanish",no,2025-08-12_14h03.41.305,empathy_intonation_perc_control,2024.2.4,Win32,60.97560976,62b20c0065e9809e66d13fa5,68817205a84113384fffdfe3,689b81d48aa23f1f1df9f4c6,,,,,,,,,,,,,1,,,,,,,,,,,,,,,,,,,,,,,,,,,,,,,,,,,,,83,guante,,,,,371.2944,372.4417,0,0,0.615,,0,69,69,82,1,REAL,FAKE,,,,,,,,,,,,,,,,,
,,,,,,,,,62b20c0065e9809e66d13fa5,Spanish,13 or older,"no, only English or Spanish",no,2025-08-12_14h03.41.305,empathy_intonation_perc_control,2024.2.4,Win32,60.97560976,62b20c0065e9809e66d13fa5,68817205a84113384fffdfe3,689b81d48aa23f1f1df9f4c6,,,,,,,,,,,,,1,,,,,,,,,,,,,,,,,,,,,,,,,,,,,,,,,,,,,14,yunque,,,,,372.4432,373.6404,0,0,0.6622,,0,70,70,13,1,REAL,FAKE,,,,,,,,,,,,,,,,,
,,,,,,,,,62b20c0065e9809e66d13fa5,Spanish,13 or older,"no, only English or Spanish",no,2025-08-12_14h03.41.305,empathy_intonation_perc_control,2024.2.4,Win32,60.97560976,62b20c0065e9809e66d13fa5,68817205a84113384fffdfe3,689b81d48aa23f1f1df9f4c6,,,,,,,,,,,,,0,,,,,,,,,,,,,,,,,,,,,,,,,,,,,,,,,,,,,29,decar,,,,,373.6422,374.8053,1,0,0.6295,,0,71,71,28,1,REAL,FAKE,,,,,,,,,,,,,,,,,
,,,,,,,,,62b20c0065e9809e66d13fa5,Spanish,13 or older,"no, only English or Spanish",no,2025-08-12_14h03.41.305,empathy_intonation_perc_control,2024.2.4,Win32,60.97560976,62b20c0065e9809e66d13fa5,68817205a84113384fffdfe3,689b81d48aa23f1f1df9f4c6,,,,,,,,,,,,,1,,,,,,,,,,,,,,,,,,,,,,,,,,,,,,,,,,,,,77,tiburón,,,,,374.8066,375.9047,0,0,0.5619,,0,72,72,76,1,REAL,FAKE,,,,,,,,,,,,,,,,,
,,,,,,,,,62b20c0065e9809e66d13fa5,Spanish,13 or older,"no, only English or Spanish",no,2025-08-12_14h03.41.305,empathy_intonation_perc_control,2024.2.4,Win32,60.97560976,62b20c0065e9809e66d13fa5,68817205a84113384fffdfe3,689b81d48aa23f1f1df9f4c6,,,,,,,,,,,,,0,,,,,,,,,,,,,,,,,,,,,,,,,,,,,,,,,,,,,72,pemición,,,,,375.9062,377.0207,0,1,0.5865,,0,73,73,71,1,REAL,FAKE,,,,,,,,,,,,,,,,,
,,,,,,,,,62b20c0065e9809e66d13fa5,Spanish,13 or older,"no, only English or Spanish",no,2025-08-12_14h03.41.305,empathy_intonation_perc_control,2024.2.4,Win32,60.97560976,62b20c0065e9809e66d13fa5,68817205a84113384fffdfe3,689b81d48aa23f1f1df9f4c6,,,,,,,,,,,,,1,,,,,,,,,,,,,,,,,,,,,,,,,,,,,,,,,,,,,55,nevar,,,,,377.0222,378.136,1,1,0.5792,,0,74,74,54,1,REAL,FAKE,,,,,,,,,,,,,,,,,
,,,,,,,,,62b20c0065e9809e66d13fa5,Spanish,13 or older,"no, only English or Spanish",no,2025-08-12_14h03.41.305,empathy_intonation_perc_control,2024.2.4,Win32,60.97560976,62b20c0065e9809e66d13fa5,68817205a84113384fffdfe3,689b81d48aa23f1f1df9f4c6,,,,,,,,,,,,,0,,,,,,,,,,,,,,,,,,,,,,,,,,,,,,,,,,,,,10,antar,,,,,378.1376,379.2846,1,0,0.6139,,0,75,75,9,1,REAL,FAKE,,,,,,,,,,,,,,,,,
,,,,,,,,,62b20c0065e9809e66d13fa5,Spanish,13 or older,"no, only English or Spanish",no,2025-08-12_14h03.41.305,empathy_intonation_perc_control,2024.2.4,Win32,60.97560976,62b20c0065e9809e66d13fa5,68817205a84113384fffdfe3,689b81d48aa23f1f1df9f4c6,,,,,,,,,,,,,1,,,,,,,,,,,,,,,,,,,,,,,,,,,,,,,,,,,,,5,zapato,,,,,379.2861,380.5834,1,1,0.7662,,0,76,76,4,1,REAL,FAKE,,,,,,,,,,,,,,,,,
,,,,,,,,,62b20c0065e9809e66d13fa5,Spanish,13 or older,"no, only English or Spanish",no,2025-08-12_14h03.41.305,empathy_intonation_perc_control,2024.2.4,Win32,60.97560976,62b20c0065e9809e66d13fa5,68817205a84113384fffdfe3,689b81d48aa23f1f1df9f4c6,,,,,,,,,,,,,1,,,,,,,,,,,,,,,,,,,,,,,,,,,,,,,,,,,,,81,pozo,,,,,380.585,381.7325,0,0,0.6197,,0,77,77,80,1,REAL,FAKE,,,,,,,,,,,,,,,,,
,,,,,,,,,62b20c0065e9809e66d13fa5,Spanish,13 or older,"no, only English or Spanish",no,2025-08-12_14h03.41.305,empathy_intonation_perc_control,2024.2.4,Win32,60.97560976,62b20c0065e9809e66d13fa5,68817205a84113384fffdfe3,689b81d48aa23f1f1df9f4c6,,,,,,,,,,,,,0,,,,,,,,,,,,,,,,,,,,,,,,,,,,,,,,,,,,,1,terzo,,,,,381.7339,382.8976,0,1,0.6349,,0,78,78,0,1,REAL,FAKE,,,,,,,,,,,,,,,,,
,,,,,,,,,62b20c0065e9809e66d13fa5,Spanish,13 or older,"no, only English or Spanish",no,2025-08-12_14h03.41.305,empathy_intonation_perc_control,2024.2.4,Win32,60.97560976,62b20c0065e9809e66d13fa5,68817205a84113384fffdfe3,689b81d48aa23f1f1df9f4c6,,,,,,,,,,,,,1,,,,,,,,,,,,,,,,,,,,,,,,,,,,,,,,,,,,,15,regar,,,,,382.8993,384.1296,1,1,0.7023,,0,79,79,14,1,REAL,FAKE,,,,,,,,,,,,,,,,,
,,,,,,,,,62b20c0065e9809e66d13fa5,Spanish,13 or older,"no, only English or Spanish",no,2025-08-12_14h03.41.305,empathy_intonation_perc_control,2024.2.4,Win32,60.97560976,62b20c0065e9809e66d13fa5,68817205a84113384fffdfe3,689b81d48aa23f1f1df9f4c6,,,,,,,,,,,,,1,,,,,,,,,,,,,,,,,,,,,,,,,,,,,,,,,,,,,67,cabello,,,,,384.1311,385.7453,1,1,1.0866,,0,80,80,66,1,REAL,FAKE,,,,,,,,,,,,,,,,,
,,,,,,,,,62b20c0065e9809e66d13fa5,Spanish,13 or older,"no, only English or Spanish",no,2025-08-12_14h03.41.305,empathy_intonation_perc_control,2024.2.4,Win32,60.97560976,62b20c0065e9809e66d13fa5,68817205a84113384fffdfe3,689b81d48aa23f1f1df9f4c6,,,,,,,,,,,,,0,,,,,,,,,,,,,,,,,,,,,,,,,,,,,,,,,,,,,27,acutación,,,,,385.7469,387.1269,0,1,0.8455,,0,81,81,26,1,REAL,FAKE,,,,,,,,,,,,,,,,,
,,,,,,,,,62b20c0065e9809e66d13fa5,Spanish,13 or older,"no, only English or Spanish",no,2025-08-12_14h03.41.305,empathy_intonation_perc_control,2024.2.4,Win32,60.97560976,62b20c0065e9809e66d13fa5,68817205a84113384fffdfe3,689b81d48aa23f1f1df9f4c6,,,,,,,,,,,,,1,,,,,,,,,,,,,,,,,,,,,,,,,,,,,,,,,,,,,49,ganar,,,,,387.1284,388.5091,1,1,0.8459,,0,82,82,48,1,REAL,FAKE,,,,,,,,,,,,,,,,,
,,,,,,,,,62b20c0065e9809e66d13fa5,Spanish,13 or older,"no, only English or Spanish",no,2025-08-12_14h03.41.305,empathy_intonation_perc_control,2024.2.4,Win32,60.97560976,62b20c0065e9809e66d13fa5,68817205a84113384fffdfe3,689b81d48aa23f1f1df9f4c6,,,,,,,,,,,,,1,,,,,,,,,,,,,,,,,,,,,,,,,,,,,,,,,,,,,9,hacha,,,,,388.5108,389.8078,0,0,0.7617,,0,83,83,8,1,REAL,FAKE,,,,,,,,,,,,,,,,,
,,,,,,,,,62b20c0065e9809e66d13fa5,Spanish,13 or older,"no, only English or Spanish",no,2025-08-12_14h03.41.305,empathy_intonation_perc_control,2024.2.4,Win32,60.97560976,62b20c0065e9809e66d13fa5,68817205a84113384fffdfe3,689b81d48aa23f1f1df9f4c6,,,,,,,,,,,,,1,,,,,,,,,,,,,,,,,,,,,,,,,,,,,,,,,,,,,3,pulmones,,,,,389.8097,390.9733,0,0,0.6342,,0,84,84,2,1,REAL,FAKE,,,,,,,,,,,,,,,,,
,,,,,,,,,62b20c0065e9809e66d13fa5,Spanish,13 or older,"no, only English or Spanish",no,2025-08-12_14h03.41.305,empathy_intonation_perc_control,2024.2.4,Win32,60.97560976,62b20c0065e9809e66d13fa5,68817205a84113384fffdfe3,689b81d48aa23f1f1df9f4c6,,,,,,,,,,,,,1,,,,,,,,,,,,,,,,,,,,,,,,,,,,,,,,,,,,,89,prisa,,,,,390.9748,392.2218,1,1,0.7166,,0,85,85,88,1,REAL,FAKE,,,,,,,,,,,,,,,,,
,,,,,,,,,62b20c0065e9809e66d13fa5,Spanish,13 or older,"no, only English or Spanish",no,2025-08-12_14h03.41.305,empathy_intonation_perc_control,2024.2.4,Win32,60.97560976,62b20c0065e9809e66d13fa5,68817205a84113384fffdfe3,689b81d48aa23f1f1df9f4c6,,,,,,,,,,,,,0,,,,,,,,,,,,,,,,,,,,,,,,,,,,,,,,,,,,,32,fatacidad,,,,,392.2233,393.3878,0,1,0.6305,,0,86,86,31,1,REAL,FAKE,,,,,,,,,,,,,,,,,
,,,,,,,,,62b20c0065e9809e66d13fa5,Spanish,13 or older,"no, only English or Spanish",no,2025-08-12_14h03.41.305,empathy_intonation_perc_control,2024.2.4,Win32,60.97560976,62b20c0065e9809e66d13fa5,68817205a84113384fffdfe3,689b81d48aa23f1f1df9f4c6,,,,,,,,,,,,,1,,,,,,,,,,,,,,,,,,,,,,,,,,,,,,,,,,,,,65,bizcocho,,,,,393.3895,394.4862,0,0,0.5691,,0,87,87,64,1,REAL,FAKE,,,,,,,,,,,,,,,,,
,,,,,,,,,62b20c0065e9809e66d13fa5,Spanish,13 or older,"no, only English or Spanish",no,2025-08-12_14h03.41.305,empathy_intonation_perc_control,2024.2.4,Win32,60.97560976,62b20c0065e9809e66d13fa5,68817205a84113384fffdfe3,689b81d48aa23f1f1df9f4c6,,,,,,,,,,,,,0,,,,,,,,,,,,,,,,,,,,,,,,,,,,,,,,,,,,,79,tropaje,,,,,394.4878,395.6685,0,1,0.6467,,0,88,88,78,1,REAL,FAKE,,,,,,,,,,,,,,,,,
,,,,,,,,,62b20c0065e9809e66d13fa5,Spanish,13 or older,"no, only English or Spanish",no,2025-08-12_14h03.41.305,empathy_intonation_perc_control,2024.2.4,Win32,60.97560976,62b20c0065e9809e66d13fa5,68817205a84113384fffdfe3,689b81d48aa23f1f1df9f4c6,,,,,,,,,,,,,0,,,,,,,,,,,,,,,,,,,,,,,,,,,,,,,,,,,,,82,empirador,,,,,395.6699,396.901,0,1,0.697,,0,89,89,81,1,REAL,FAKE,,,,,,,,,,,,,,,,,
,,,,,,,,,62b20c0065e9809e66d13fa5,Spanish,13 or older,"no, only English or Spanish",no,2025-08-12_14h03.41.305,empathy_intonation_perc_control,2024.2.4,Win32,60.97560976,62b20c0065e9809e66d13fa5,68817205a84113384fffdfe3,689b81d48aa23f1f1df9f4c6,,,,,,,,,,,,,0,,,,,,,,,,,,,,,,,,,,,,,,,,,,,,,,,,,,,33,pauca,,,,,396.9024,398.0828,0,1,0.6465,,0,90,90,32,1,REAL,FAKE,,,,,,,,,,,,,,,,,
,,,,,,,,,62b20c0065e9809e66d13fa5,Spanish,13 or older,"no, only English or Spanish",no,2025-08-12_14h03.41.305,empathy_intonation_perc_control,2024.2.4,Win32,60.97560976,62b20c0065e9809e66d13fa5,68817205a84113384fffdfe3,689b81d48aa23f1f1df9f4c6,,,,,,,,,,,,,1,,,,,,,,,,,,,,,,,,,,,,,,,,,,,,,,,,,,,7,pésimo,,,,,398.0846,399.2152,1,1,0.5964,,0,91,91,6,1,REAL,FAKE,,,,,,,,,,,,,,,,,
,,,,,,,,,62b20c0065e9809e66d13fa5,Spanish,13 or older,"no, only English or Spanish",no,2025-08-12_14h03.41.305,empathy_intonation_perc_control,2024.2.4,Win32,60.97560976,62b20c0065e9809e66d13fa5,68817205a84113384fffdfe3,689b81d48aa23f1f1df9f4c6,,,,,,,,,,,,,,,,,,,,,,,,,,,,,,,,,,,,,,,,,,,,,,,,,,,,,,,,,,,,,,,,,,,,,399.216,403.8778,,,,,,,,,,,,,,,
,,,,,,,,,62b20c0065e9809e66d13fa5,Spanish,13 or older,"no, only English or Spanish",no,2025-08-12_14h03.41.305,empathy_intonation_perc_control,2024.2.4,Win32,60.97560976,62b20c0065e9809e66d13fa5,68817205a84113384fffdfe3,689b81d48aa23f1f1df9f4c6,,,,,,,,,,,,,,,,,,,,,,,,,,,1,,,,,,,,,,,,,,,,,,,,,,,,,,,,,,,,,,,,,,,,,,,,403.8961,408.7226,strongly agree,0,0,0,0,1,I can easily tell if someone else wants to enter a conversation.,1,0,1,0,,
,,,,,,,,,62b20c0065e9809e66d13fa5,Spanish,13 or older,"no, only English or Spanish",no,2025-08-12_14h03.41.305,empathy_intonation_perc_control,2024.2.4,Win32,60.97560976,62b20c0065e9809e66d13fa5,68817205a84113384fffdfe3,689b81d48aa23f1f1df9f4c6,,,,,,,,,,,,,,,,,,,,,,,,,,,2,,,,,,,,,,,,,,,,,,,,,,,,,,,,,,,,,,,,,,,,,,,,408.7263,410.6542,slightly agree,0,1,1,1,1,I prefer animals to humans.,0,1,0,0,,
,,,,,,,,,62b20c0065e9809e66d13fa5,Spanish,13 or older,"no, only English or Spanish",no,2025-08-12_14h03.41.305,empathy_intonation_perc_control,2024.2.4,Win32,60.97560976,62b20c0065e9809e66d13fa5,68817205a84113384fffdfe3,689b81d48aa23f1f1df9f4c6,,,,,,,,,,,,,,,,,,,,,,,,,,,3,,,,,,,,,,,,,,,,,,,,,,,,,,,,,,,,,,,,,,,,,,,,410.6576,412.336,slightly agree,0,2,2,2,1,I try to keep up with the current trends and fashions.,0,1,0,0,,
,,,,,,,,,62b20c0065e9809e66d13fa5,Spanish,13 or older,"no, only English or Spanish",no,2025-08-12_14h03.41.305,empathy_intonation_perc_control,2024.2.4,Win32,60.97560976,62b20c0065e9809e66d13fa5,68817205a84113384fffdfe3,689b81d48aa23f1f1df9f4c6,,,,,,,,,,,,,,,,,,,,,,,,,,,4,,,,,,,,,,,,,,,,,,,,,,,,,,,,,,,,,,,,,,,,,,,,412.3401,415.3162,slightly disagree,0,3,3,3,1,"I find it difficult to explain to others things that I understand easily,   when they don't understand it first time.",1,0,0,1,,
,,,,,,,,,62b20c0065e9809e66d13fa5,Spanish,13 or older,"no, only English or Spanish",no,2025-08-12_14h03.41.305,empathy_intonation_perc_control,2024.2.4,Win32,60.97560976,62b20c0065e9809e66d13fa5,68817205a84113384fffdfe3,689b81d48aa23f1f1df9f4c6,,,,,,,,,,,,,,,,,,,,,,,,,,,5,,,,,,,,,,,,,,,,,,,,,,,,,,,,,,,,,,,,,,,,,,,,415.3189,417.2887,strongly agree,0,4,4,4,1,I dream most nights.,0,1,0,0,,
,,,,,,,,,62b20c0065e9809e66d13fa5,Spanish,13 or older,"no, only English or Spanish",no,2025-08-12_14h03.41.305,empathy_intonation_perc_control,2024.2.4,Win32,60.97560976,62b20c0065e9809e66d13fa5,68817205a84113384fffdfe3,689b81d48aa23f1f1df9f4c6,,,,,,,,,,,,,,,,,,,,,,,,,,,6,,,,,,,,,,,,,,,,,,,,,,,,,,,,,,,,,,,,,,,,,,,,417.2908,418.2295,strongly agree,0,5,5,5,1,I really enjoy caring for other people.,1,0,1,0,,
,,,,,,,,,62b20c0065e9809e66d13fa5,Spanish,13 or older,"no, only English or Spanish",no,2025-08-12_14h03.41.305,empathy_intonation_perc_control,2024.2.4,Win32,60.97560976,62b20c0065e9809e66d13fa5,68817205a84113384fffdfe3,689b81d48aa23f1f1df9f4c6,,,,,,,,,,,,,,,,,,,,,,,,,,,7,,,,,,,,,,,,,,,,,,,,,,,,,,,,,,,,,,,,,,,,,,,,418.2329,420.4444,slightly agree,0,6,6,6,1,I try to solve my own problems rather than discussing them with others.,0,1,0,0,,
,,,,,,,,,62b20c0065e9809e66d13fa5,Spanish,13 or older,"no, only English or Spanish",no,2025-08-12_14h03.41.305,empathy_intonation_perc_control,2024.2.4,Win32,60.97560976,62b20c0065e9809e66d13fa5,68817205a84113384fffdfe3,689b81d48aa23f1f1df9f4c6,,,,,,,,,,,,,,,,,,,,,,,,,,,8,,,,,,,,,,,,,,,,,,,,,,,,,,,,,,,,,,,,,,,,,,,,420.4473,423.1081,slightly disagree,0,7,7,7,1,I find it hard to know what to do in a social situation.,1,0,0,1,,
,,,,,,,,,62b20c0065e9809e66d13fa5,Spanish,13 or older,"no, only English or Spanish",no,2025-08-12_14h03.41.305,empathy_intonation_perc_control,2024.2.4,Win32,60.97560976,62b20c0065e9809e66d13fa5,68817205a84113384fffdfe3,689b81d48aa23f1f1df9f4c6,,,,,,,,,,,,,,,,,,,,,,,,,,,9,,,,,,,,,,,,,,,,,,,,,,,,,,,,,,,,,,,,,,,,,,,,423.1107,425.8721,slightly disagree,0,8,8,8,1,I am at my best first thing in the morning.,0,1,0,0,,
,,,,,,,,,62b20c0065e9809e66d13fa5,Spanish,13 or older,"no, only English or Spanish",no,2025-08-12_14h03.41.305,empathy_intonation_perc_control,2024.2.4,Win32,60.97560976,62b20c0065e9809e66d13fa5,68817205a84113384fffdfe3,689b81d48aa23f1f1df9f4c6,,,,,,,,,,,,,,,,,,,,,,,,,,,10,,,,,,,,,,,,,,,,,,,,,,,,,,,,,,,,,,,,,,,,,,,,425.8741,428.427,slightly agree,0,9,9,9,1,People often tell me that I went too far in driving my point home in a discussion.,1,0,0,1,,
,,,,,,,,,62b20c0065e9809e66d13fa5,Spanish,13 or older,"no, only English or Spanish",no,2025-08-12_14h03.41.305,empathy_intonation_perc_control,2024.2.4,Win32,60.97560976,62b20c0065e9809e66d13fa5,68817205a84113384fffdfe3,689b81d48aa23f1f1df9f4c6,,,,,,,,,,,,,,,,,,,,,,,,,,,11,,,,,,,,,,,,,,,,,,,,,,,,,,,,,,,,,,,,,,,,,,,,428.4292,431.6334,slightly disagree,0,10,10,10,1,It doesn't bother me too much if I am late meeting a friend.,1,0,0,1,,
,,,,,,,,,62b20c0065e9809e66d13fa5,Spanish,13 or older,"no, only English or Spanish",no,2025-08-12_14h03.41.305,empathy_intonation_perc_control,2024.2.4,Win32,60.97560976,62b20c0065e9809e66d13fa5,68817205a84113384fffdfe3,689b81d48aa23f1f1df9f4c6,,,,,,,,,,,,,,,,,,,,,,,,,,,12,,,,,,,,,,,,,,,,,,,,,,,,,,,,,,,,,,,,,,,,,,,,431.6365,433.887,strongly disagree,0,11,11,11,1,"Friendships and relationships are just too difficult, so I tend not to 
  bother with them.",1,0,0,1,,
,,,,,,,,,62b20c0065e9809e66d13fa5,Spanish,13 or older,"no, only English or Spanish",no,2025-08-12_14h03.41.305,empathy_intonation_perc_control,2024.2.4,Win32,60.97560976,62b20c0065e9809e66d13fa5,68817205a84113384fffdfe3,689b81d48aa23f1f1df9f4c6,,,,,,,,,,,,,,,,,,,,,,,,,,,13,,,,,,,,,,,,,,,,,,,,,,,,,,,,,,,,,,,,,,,,,,,,433.8892,436.1624,slightly agree,0,12,12,12,1,"I would never break a law, no matter how minor.",0,1,0,0,,
,,,,,,,,,62b20c0065e9809e66d13fa5,Spanish,13 or older,"no, only English or Spanish",no,2025-08-12_14h03.41.305,empathy_intonation_perc_control,2024.2.4,Win32,60.97560976,62b20c0065e9809e66d13fa5,68817205a84113384fffdfe3,689b81d48aa23f1f1df9f4c6,,,,,,,,,,,,,,,,,,,,,,,,,,,14,,,,,,,,,,,,,,,,,,,,,,,,,,,,,,,,,,,,,,,,,,,,436.1653,440.7243,slightly disagree,0,13,13,13,1,I often find it difficult to judge if something is rude or polite.,1,0,0,1,,
,,,,,,,,,62b20c0065e9809e66d13fa5,Spanish,13 or older,"no, only English or Spanish",no,2025-08-12_14h03.41.305,empathy_intonation_perc_control,2024.2.4,Win32,60.97560976,62b20c0065e9809e66d13fa5,68817205a84113384fffdfe3,689b81d48aa23f1f1df9f4c6,,,,,,,,,,,,,,,,,,,,,,,,,,,15,,,,,,,,,,,,,,,,,,,,,,,,,,,,,,,,,,,,,,,,,,,,440.7275,443.6632,slightly disagree,0,14,14,14,1,"In a conversation, I tend to focus on my own thoughts rather than on what 
  my listener might be thinking.",1,0,0,1,,
,,,,,,,,,62b20c0065e9809e66d13fa5,Spanish,13 or older,"no, only English or Spanish",no,2025-08-12_14h03.41.305,empathy_intonation_perc_control,2024.2.4,Win32,60.97560976,62b20c0065e9809e66d13fa5,68817205a84113384fffdfe3,689b81d48aa23f1f1df9f4c6,,,,,,,,,,,,,,,,,,,,,,,,,,,16,,,,,,,,,,,,,,,,,,,,,,,,,,,,,,,,,,,,,,,,,,,,443.6654,445.5034,slightly agree,0,15,15,15,1,I prefer practical jokes to verbal humor.,0,1,0,0,,
,,,,,,,,,62b20c0065e9809e66d13fa5,Spanish,13 or older,"no, only English or Spanish",no,2025-08-12_14h03.41.305,empathy_intonation_perc_control,2024.2.4,Win32,60.97560976,62b20c0065e9809e66d13fa5,68817205a84113384fffdfe3,689b81d48aa23f1f1df9f4c6,,,,,,,,,,,,,,,,,,,,,,,,,,,17,,,,,,,,,,,,,,,,,,,,,,,,,,,,,,,,,,,,,,,,,,,,445.5062,448.8003,strongly agree,0,16,16,16,1,I live life for today rather than the future.,0,1,0,0,,
,,,,,,,,,62b20c0065e9809e66d13fa5,Spanish,13 or older,"no, only English or Spanish",no,2025-08-12_14h03.41.305,empathy_intonation_perc_control,2024.2.4,Win32,60.97560976,62b20c0065e9809e66d13fa5,68817205a84113384fffdfe3,689b81d48aa23f1f1df9f4c6,,,,,,,,,,,,,,,,,,,,,,,,,,,18,,,,,,,,,,,,,,,,,,,,,,,,,,,,,,,,,,,,,,,,,,,,448.8034,451.2972,strongly disagree,0,17,17,17,1,"When I was a child, I enjoyed cutting up worms to see what would happen.",1,0,0,1,,
,,,,,,,,,62b20c0065e9809e66d13fa5,Spanish,13 or older,"no, only English or Spanish",no,2025-08-12_14h03.41.305,empathy_intonation_perc_control,2024.2.4,Win32,60.97560976,62b20c0065e9809e66d13fa5,68817205a84113384fffdfe3,689b81d48aa23f1f1df9f4c6,,,,,,,,,,,,,,,,,,,,,,,,,,,19,,,,,,,,,,,,,,,,,,,,,,,,,,,,,,,,,,,,,,,,,,,,451.3005,454.9769,strongly agree,0,18,18,18,1,I can pick up quickly if someone says one thing but means another.,1,0,1,0,,
,,,,,,,,,62b20c0065e9809e66d13fa5,Spanish,13 or older,"no, only English or Spanish",no,2025-08-12_14h03.41.305,empathy_intonation_perc_control,2024.2.4,Win32,60.97560976,62b20c0065e9809e66d13fa5,68817205a84113384fffdfe3,689b81d48aa23f1f1df9f4c6,,,,,,,,,,,,,,,,,,,,,,,,,,,20,,,,,,,,,,,,,,,,,,,,,,,,,,,,,,,,,,,,,,,,,,,,454.9804,457.0186,slightly agree,0,19,19,19,1,I tend to have very strong opinions about morality.,0,1,0,0,,
,,,,,,,,,62b20c0065e9809e66d13fa5,Spanish,13 or older,"no, only English or Spanish",no,2025-08-12_14h03.41.305,empathy_intonation_perc_control,2024.2.4,Win32,60.97560976,62b20c0065e9809e66d13fa5,68817205a84113384fffdfe3,689b81d48aa23f1f1df9f4c6,,,,,,,,,,,,,,,,,,,,,,,,,,,21,,,,,,,,,,,,,,,,,,,,,,,,,,,,,,,,,,,,,,,,,,,,457.0204,460.7053,slightly agree,0,20,20,20,1,It is hard for me to see why some things upset people so much.,1,0,0,1,,
,,,,,,,,,62b20c0065e9809e66d13fa5,Spanish,13 or older,"no, only English or Spanish",no,2025-08-12_14h03.41.305,empathy_intonation_perc_control,2024.2.4,Win32,60.97560976,62b20c0065e9809e66d13fa5,68817205a84113384fffdfe3,689b81d48aa23f1f1df9f4c6,,,,,,,,,,,,,,,,,,,,,,,,,,,22,,,,,,,,,,,,,,,,,,,,,,,,,,,,,,,,,,,,,,,,,,,,460.7082,462.6368,strongly agree,0,21,21,21,1,I find it easy to put myself in somebody else's shoes.,1,0,1,0,,
,,,,,,,,,62b20c0065e9809e66d13fa5,Spanish,13 or older,"no, only English or Spanish",no,2025-08-12_14h03.41.305,empathy_intonation_perc_control,2024.2.4,Win32,60.97560976,62b20c0065e9809e66d13fa5,68817205a84113384fffdfe3,689b81d48aa23f1f1df9f4c6,,,,,,,,,,,,,,,,,,,,,,,,,,,23,,,,,,,,,,,,,,,,,,,,,,,,,,,,,,,,,,,,,,,,,,,,462.6398,464.7843,slightly agree,0,22,22,22,1,I think that good manners are the most important thing a parent can teach their child.,0,1,0,0,,
,,,,,,,,,62b20c0065e9809e66d13fa5,Spanish,13 or older,"no, only English or Spanish",no,2025-08-12_14h03.41.305,empathy_intonation_perc_control,2024.2.4,Win32,60.97560976,62b20c0065e9809e66d13fa5,68817205a84113384fffdfe3,689b81d48aa23f1f1df9f4c6,,,,,,,,,,,,,,,,,,,,,,,,,,,24,,,,,,,,,,,,,,,,,,,,,,,,,,,,,,,,,,,,,,,,,,,,464.7864,466.1831,slightly agree,0,23,23,23,1,I like to do things on the spur of the moment.,0,1,0,0,,
,,,,,,,,,62b20c0065e9809e66d13fa5,Spanish,13 or older,"no, only English or Spanish",no,2025-08-12_14h03.41.305,empathy_intonation_perc_control,2024.2.4,Win32,60.97560976,62b20c0065e9809e66d13fa5,68817205a84113384fffdfe3,689b81d48aa23f1f1df9f4c6,,,,,,,,,,,,,,,,,,,,,,,,,,,25,,,,,,,,,,,,,,,,,,,,,,,,,,,,,,,,,,,,,,,,,,,,466.1853,467.9563,strongly agree,0,24,24,24,1,I am good at predicting how someone will feel.,1,0,1,0,,
