instructions_2afc.started,instructions_2afc.stopped,instructions_2afc_loop.thisRepN,instructions_2afc_loop.thisTrialN,instructions_2afc_loop.thisN,instructions_2afc_loop.thisIndex,instructions_2afc_loop.ran,instructions_text,continue_text,participant_id,"What variety of Spanish are you most familiar with? (e.g., Peruvian, Spanish, Mexican)",At what age did you begin learning Spanish?,Are you proficient in any languages other than English/Spanish?,"Are you familiar with Caribbean (e.g., Caribbean, Puerto Rican) or Galician Spanish?",date,expName,psychopyVersion,OS,frameRate,id,study_id,session,practice_2afc.started,practice_2afc.stopped,key_resp_2afc_practice.keys,key_resp_2afc_practice.corr,key_resp_2afc_practice.rt,key_resp_2afc_practice.duration,trials_2afc_practice_loop.thisRepN,trials_2afc_practice_loop.thisTrialN,trials_2afc_practice_loop.thisN,trials_2afc_practice_loop.thisIndex,trials_2afc_practice_loop.ran,path,correct_response,check_2afc.started,check_2afc.stopped,trial_2afc.started,trial_2afc.stopped,key_resp_2afc_trial.keys,key_resp_2afc_trial.corr,key_resp_2afc_trial.rt,key_resp_2afc_trial.duration,trials_2afc_loop.thisRepN,trials_2afc_loop.thisTrialN,trials_2afc_loop.thisN,trials_2afc_loop.thisIndex,trials_2afc_loop.ran,item_num,target,variety,instructions_lextale.started,instructions_lextale.stopped,instructions_lextale_loop.thisRepN,instructions_lextale_loop.thisTrialN,instructions_lextale_loop.thisN,instructions_lextale_loop.thisIndex,instructions_lextale_loop.ran,practice_lextale.started,practice_lextale.stopped,key_resp_lextale_practice.keys,key_resp_lextale_practice.corr,key_resp_lextale_practice.rt,key_resp_lextale_practice.duration,practice_feedback_lextale.started,practice_feedback_lextale.stopped,trials_lextale_practice_loop.thisRepN,trials_lextale_practice_loop.thisTrialN,trials_lextale_practice_loop.thisN,trials_lextale_practice_loop.thisIndex,trials_lextale_practice_loop.ran,stim,word,prac_button_real,prac_button_false,check_lextale.started,check_lextale.stopped,trial_lextale.started,trial_lextale.stopped,key_resp_lextale_trial.keys,key_resp_lextale_trial.corr,key_resp_lextale_trial.rt,key_resp_lextale_trial.duration,trials_lextale_loop.thisRepN,trials_lextale_loop.thisTrialN,trials_lextale_loop.thisN,trials_lextale_loop.thisIndex,trials_lextale_loop.ran,button_real,button_false,instructions_eq.started,instructions_eq.stopped,trial_eq.started,trial_eq.stopped,slider_eq_trial.response,trials_eq_loop.thisRepN,trials_eq_loop.thisTrialN,trials_eq_loop.thisN,trials_eq_loop.thisIndex,trials_eq_loop.ran,item,is_test_item,is_distractor,is_agree_score,is_disagree_score,end_exp.started,end_exp.stopped
0.0148,11.1135,0,0,0,0,1,"In the following task you are going to hear a series of utterances. 

  You will decide if the utterances sound like questions or not using your keyboard.", (press the spacebar to continue),63626a68cf44b4184483c8e8,Mexican,13 or older,"no, only English or Spanish",no,2025-07-24_11h42.50.484,empathy_intonation_perc_control,2024.2.4,Win32,60.60606061,63626a68cf44b4184483c8e8,68817205a84113384fffdfe3,6882544ecbe1780b98b45bb7,,,,,,,,,,,,,,,,,,,,,,,,,,,,,,,,,,,,,,,,,,,,,,,,,,,,,,,,,,,,,,,,,,,,,,,,,,,,,,,,,,,,,
11.1165,16.7045,0,1,1,1,1,"If you believe the utterance is a question, type '1' (for 'yes') and if you do not 
  believe it is a question type '0' (for 'no').

  Let's practice a bit...", (press the spacebar to continue),63626a68cf44b4184483c8e8,Mexican,13 or older,"no, only English or Spanish",no,2025-07-24_11h42.50.484,empathy_intonation_perc_control,2024.2.4,Win32,60.60606061,63626a68cf44b4184483c8e8,68817205a84113384fffdfe3,6882544ecbe1780b98b45bb7,,,,,,,,,,,,,,,,,,,,,,,,,,,,,,,,,,,,,,,,,,,,,,,,,,,,,,,,,,,,,,,,,,,,,,,,,,,,,,,,,,,,,
,,,,,,,,,63626a68cf44b4184483c8e8,Mexican,13 or older,"no, only English or Spanish",no,2025-07-24_11h42.50.484,empathy_intonation_perc_control,2024.2.4,Win32,60.60606061,63626a68cf44b4184483c8e8,68817205a84113384fffdfe3,6882544ecbe1780b98b45bb7,16.716,19.5252,0,1,2.2703,,0,0,0,7,1,./stim/wavs/puertorican_statement_filler_La-nina-pinta-con-su-amiga.wav,0,,,,,,,,,,,,,,,,,,,,,,,,,,,,,,,,,,,,,,,,,,,,,,,,,,,,,,,,,,,,,,,,,,,,,,,,
,,,,,,,,,63626a68cf44b4184483c8e8,Mexican,13 or older,"no, only English or Spanish",no,2025-07-24_11h42.50.484,empathy_intonation_perc_control,2024.2.4,Win32,60.60606061,63626a68cf44b4184483c8e8,68817205a84113384fffdfe3,6882544ecbe1780b98b45bb7,19.5262,22.0411,1,1,1.9886,,0,1,1,3,1,./stim/wavs/mexican_question_filler_Felipe-no-tiene-contrasena.wav,1,,,,,,,,,,,,,,,,,,,,,,,,,,,,,,,,,,,,,,,,,,,,,,,,,,,,,,,,,,,,,,,,,,,,,,,,
,,,,,,,,,63626a68cf44b4184483c8e8,Mexican,13 or older,"no, only English or Spanish",no,2025-07-24_11h42.50.484,empathy_intonation_perc_control,2024.2.4,Win32,60.60606061,63626a68cf44b4184483c8e8,68817205a84113384fffdfe3,6882544ecbe1780b98b45bb7,22.0428,24.1993,0,1,1.6329,,0,2,2,4,1,./stim/wavs/cuban_statement_filler_Cocinabas-por-la-noche.wav,0,,,,,,,,,,,,,,,,,,,,,,,,,,,,,,,,,,,,,,,,,,,,,,,,,,,,,,,,,,,,,,,,,,,,,,,,
,,,,,,,,,63626a68cf44b4184483c8e8,Mexican,13 or older,"no, only English or Spanish",no,2025-07-24_11h42.50.484,empathy_intonation_perc_control,2024.2.4,Win32,60.60606061,63626a68cf44b4184483c8e8,68817205a84113384fffdfe3,6882544ecbe1780b98b45bb7,24.1998,26.4376,0,1,1.7201,,0,3,3,5,1,./stim/wavs/andalusian_statement_filler_Alberto-nunca-se-afeita.wav,0,,,,,,,,,,,,,,,,,,,,,,,,,,,,,,,,,,,,,,,,,,,,,,,,,,,,,,,,,,,,,,,,,,,,,,,,
,,,,,,,,,63626a68cf44b4184483c8e8,Mexican,13 or older,"no, only English or Spanish",no,2025-07-24_11h42.50.484,empathy_intonation_perc_control,2024.2.4,Win32,60.60606061,63626a68cf44b4184483c8e8,68817205a84113384fffdfe3,6882544ecbe1780b98b45bb7,26.438,28.8545,1,1,1.8858,,0,4,4,0,1,./stim/wavs/castilian_question_filler_Mi-esposo-conoce-al-chico.wav,1,,,,,,,,,,,,,,,,,,,,,,,,,,,,,,,,,,,,,,,,,,,,,,,,,,,,,,,,,,,,,,,,,,,,,,,,
,,,,,,,,,63626a68cf44b4184483c8e8,Mexican,13 or older,"no, only English or Spanish",no,2025-07-24_11h42.50.484,empathy_intonation_perc_control,2024.2.4,Win32,60.60606061,63626a68cf44b4184483c8e8,68817205a84113384fffdfe3,6882544ecbe1780b98b45bb7,28.8553,30.8874,1,1,1.5046,,0,5,5,1,1,./stim/wavs/argentine_question_filler_Mi-vecino-habla-mucho.wav,1,,,,,,,,,,,,,,,,,,,,,,,,,,,,,,,,,,,,,,,,,,,,,,,,,,,,,,,,,,,,,,,,,,,,,,,,
,,,,,,,,,63626a68cf44b4184483c8e8,Mexican,13 or older,"no, only English or Spanish",no,2025-07-24_11h42.50.484,empathy_intonation_perc_control,2024.2.4,Win32,60.60606061,63626a68cf44b4184483c8e8,68817205a84113384fffdfe3,6882544ecbe1780b98b45bb7,30.8881,32.8714,0,0,1.4708,,0,6,6,2,1,./stim/wavs/chilean_question_filler_Mi-padre-cantaba-bien.wav,1,,,,,,,,,,,,,,,,,,,,,,,,,,,,,,,,,,,,,,,,,,,,,,,,,,,,,,,,,,,,,,,,,,,,,,,,
,,,,,,,,,63626a68cf44b4184483c8e8,Mexican,13 or older,"no, only English or Spanish",no,2025-07-24_11h42.50.484,empathy_intonation_perc_control,2024.2.4,Win32,60.60606061,63626a68cf44b4184483c8e8,68817205a84113384fffdfe3,6882544ecbe1780b98b45bb7,32.872,35.4047,0,1,2.0053,,0,7,7,6,1,./stim/wavs/peruvian_statement_filler_El-nino-habla-con-su-madre.wav,0,,,,,,,,,,,,,,,,,,,,,,,,,,,,,,,,,,,,,,,,,,,,,,,,,,,,,,,,,,,,,,,,,,,,,,,,
,,,,,,,,,63626a68cf44b4184483c8e8,Mexican,13 or older,"no, only English or Spanish",no,2025-07-24_11h42.50.484,empathy_intonation_perc_control,2024.2.4,Win32,60.60606061,63626a68cf44b4184483c8e8,68817205a84113384fffdfe3,6882544ecbe1780b98b45bb7,,,,,,,,,,,,,,35.4055,38.9378,,,,,,,,,,,,,,,,,,,,,,,,,,,,,,,,,,,,,,,,,,,,,,,,,,,,,,,,,,,,,,,,,,,,,,
,,,,,,,,,63626a68cf44b4184483c8e8,Mexican,13 or older,"no, only English or Spanish",no,2025-07-24_11h42.50.484,empathy_intonation_perc_control,2024.2.4,Win32,60.60606061,63626a68cf44b4184483c8e8,68817205a84113384fffdfe3,6882544ecbe1780b98b45bb7,,,,,,,,,,,,./stim/wavs/cuban_mismatch_declarative-broad-focus_El-hombre-mira-la-luna.wav,0,,,38.9504,40.8545,0,1,1.3886,,0,0,0,74,1,75,0,cuban,,,,,,,,,,,,,,,,,,,,,,,,,,,,,,,,,,,,,,,,,,,,,,,,,,,,,,,,
,,,,,,,,,63626a68cf44b4184483c8e8,Mexican,13 or older,"no, only English or Spanish",no,2025-07-24_11h42.50.484,empathy_intonation_perc_control,2024.2.4,Win32,60.60606061,63626a68cf44b4184483c8e8,68817205a84113384fffdfe3,6882544ecbe1780b98b45bb7,,,,,,,,,,,,./stim/wavs/castilian_mismatch_interrogative-total-yn_La-maestra-vive-en-Paris.wav,1,,,40.8568,43.1212,1,1,1.7353,,0,1,1,24,1,25,0,castilian,,,,,,,,,,,,,,,,,,,,,,,,,,,,,,,,,,,,,,,,,,,,,,,,,,,,,,,,
,,,,,,,,,63626a68cf44b4184483c8e8,Mexican,13 or older,"no, only English or Spanish",no,2025-07-24_11h42.50.484,empathy_intonation_perc_control,2024.2.4,Win32,60.60606061,63626a68cf44b4184483c8e8,68817205a84113384fffdfe3,6882544ecbe1780b98b45bb7,,,,,,,,,,,,./stim/wavs/cuban_mismatch_interrogative-total-yn_Mi-novio-viene-del-lago.wav,1,,,43.1226,48.6549,0,0,5.0072,,0,2,2,32,1,33,1,cuban,,,,,,,,,,,,,,,,,,,,,,,,,,,,,,,,,,,,,,,,,,,,,,,,,,,,,,,,
,,,,,,,,,63626a68cf44b4184483c8e8,Mexican,13 or older,"no, only English or Spanish",no,2025-07-24_11h42.50.484,empathy_intonation_perc_control,2024.2.4,Win32,60.60606061,63626a68cf44b4184483c8e8,68817205a84113384fffdfe3,6882544ecbe1780b98b45bb7,,,,,,,,,,,,./stim/wavs/castilian_mismatch_declarative-broad-focus_La-nina-lava-el-plato.wav,0,,,48.6556,52.171,0,1,2.9859,,0,3,3,70,1,71,0,castilian,,,,,,,,,,,,,,,,,,,,,,,,,,,,,,,,,,,,,,,,,,,,,,,,,,,,,,,,
,,,,,,,,,63626a68cf44b4184483c8e8,Mexican,13 or older,"no, only English or Spanish",no,2025-07-24_11h42.50.484,empathy_intonation_perc_control,2024.2.4,Win32,60.60606061,63626a68cf44b4184483c8e8,68817205a84113384fffdfe3,6882544ecbe1780b98b45bb7,,,,,,,,,,,,./stim/wavs/puertorican_match_declarative-broad-focus_Manuela-vende-el-carro.wav,0,,,52.1716,54.2374,0,1,1.5347,,0,4,4,66,1,67,0,puertorican,,,,,,,,,,,,,,,,,,,,,,,,,,,,,,,,,,,,,,,,,,,,,,,,,,,,,,,,
,,,,,,,,,63626a68cf44b4184483c8e8,Mexican,13 or older,"no, only English or Spanish",no,2025-07-24_11h42.50.484,empathy_intonation_perc_control,2024.2.4,Win32,60.60606061,63626a68cf44b4184483c8e8,68817205a84113384fffdfe3,6882544ecbe1780b98b45bb7,,,,,,,,,,,,./stim/wavs/mexican_mismatch_interrogative-total-yn_El-nino-oye-el-rio.wav,1,,,54.2378,56.1714,1,1,1.4038,,0,5,5,35,1,36,0,mexican,,,,,,,,,,,,,,,,,,,,,,,,,,,,,,,,,,,,,,,,,,,,,,,,,,,,,,,,
,,,,,,,,,63626a68cf44b4184483c8e8,Mexican,13 or older,"no, only English or Spanish",no,2025-07-24_11h42.50.484,empathy_intonation_perc_control,2024.2.4,Win32,60.60606061,63626a68cf44b4184483c8e8,68817205a84113384fffdfe3,6882544ecbe1780b98b45bb7,,,,,,,,,,,,./stim/wavs/castilian_mismatch_declarative-broad-focus_La-maestra-vive-en-Paris.wav,0,,,56.172,58.6375,0,1,1.9355,,0,6,6,69,1,70,0,castilian,,,,,,,,,,,,,,,,,,,,,,,,,,,,,,,,,,,,,,,,,,,,,,,,,,,,,,,,
,,,,,,,,,63626a68cf44b4184483c8e8,Mexican,13 or older,"no, only English or Spanish",no,2025-07-24_11h42.50.484,empathy_intonation_perc_control,2024.2.4,Win32,60.60606061,63626a68cf44b4184483c8e8,68817205a84113384fffdfe3,6882544ecbe1780b98b45bb7,,,,,,,,,,,,./stim/wavs/puertorican_mismatch_interrogative-total-yn_Mi-madre-come-la-fruta.wav,1,,,58.6379,60.9376,0,0,1.7693,,0,7,7,43,1,44,1,puertorican,,,,,,,,,,,,,,,,,,,,,,,,,,,,,,,,,,,,,,,,,,,,,,,,,,,,,,,,
,,,,,,,,,63626a68cf44b4184483c8e8,Mexican,13 or older,"no, only English or Spanish",no,2025-07-24_11h42.50.484,empathy_intonation_perc_control,2024.2.4,Win32,60.60606061,63626a68cf44b4184483c8e8,68817205a84113384fffdfe3,6882544ecbe1780b98b45bb7,,,,,,,,,,,,./stim/wavs/mexican_match_declarative-broad-focus_Mariano-habla-del-tiempo.wav,0,,,60.938,62.942,0,1,1.4758,,0,8,8,60,1,61,0,mexican,,,,,,,,,,,,,,,,,,,,,,,,,,,,,,,,,,,,,,,,,,,,,,,,,,,,,,,,
,,,,,,,,,63626a68cf44b4184483c8e8,Mexican,13 or older,"no, only English or Spanish",no,2025-07-24_11h42.50.484,empathy_intonation_perc_control,2024.2.4,Win32,60.60606061,63626a68cf44b4184483c8e8,68817205a84113384fffdfe3,6882544ecbe1780b98b45bb7,,,,,,,,,,,,./stim/wavs/mexican_mismatch_interrogative-total-yn_El-hombre-mira-la-luna.wav,1,,,62.9424,64.7375,1,1,1.2681,,0,9,9,34,1,35,0,mexican,,,,,,,,,,,,,,,,,,,,,,,,,,,,,,,,,,,,,,,,,,,,,,,,,,,,,,,,
,,,,,,,,,63626a68cf44b4184483c8e8,Mexican,13 or older,"no, only English or Spanish",no,2025-07-24_11h42.50.484,empathy_intonation_perc_control,2024.2.4,Win32,60.60606061,63626a68cf44b4184483c8e8,68817205a84113384fffdfe3,6882544ecbe1780b98b45bb7,,,,,,,,,,,,./stim/wavs/cuban_match_interrogative-total-yn_Ana-lleva-el-abrigo.wav,1,,,64.7381,67.4212,0,0,2.151,,0,10,10,6,1,7,1,cuban,,,,,,,,,,,,,,,,,,,,,,,,,,,,,,,,,,,,,,,,,,,,,,,,,,,,,,,,
,,,,,,,,,63626a68cf44b4184483c8e8,Mexican,13 or older,"no, only English or Spanish",no,2025-07-24_11h42.50.484,empathy_intonation_perc_control,2024.2.4,Win32,60.60606061,63626a68cf44b4184483c8e8,68817205a84113384fffdfe3,6882544ecbe1780b98b45bb7,,,,,,,,,,,,./stim/wavs/puertorican_mismatch_interrogative-total-yn_La-nina-lava-el-plato.wav,1,,,67.4217,69.7208,0,0,1.7683,,0,11,11,42,1,43,1,puertorican,,,,,,,,,,,,,,,,,,,,,,,,,,,,,,,,,,,,,,,,,,,,,,,,,,,,,,,,
,,,,,,,,,63626a68cf44b4184483c8e8,Mexican,13 or older,"no, only English or Spanish",no,2025-07-24_11h42.50.484,empathy_intonation_perc_control,2024.2.4,Win32,60.60606061,63626a68cf44b4184483c8e8,68817205a84113384fffdfe3,6882544ecbe1780b98b45bb7,,,,,,,,,,,,./stim/wavs/castilian_mismatch_declarative-broad-focus_Mi-tia-odia-la-lluvia.wav,0,,,69.7214,71.9376,0,1,1.6863,,0,12,12,72,1,73,0,castilian,,,,,,,,,,,,,,,,,,,,,,,,,,,,,,,,,,,,,,,,,,,,,,,,,,,,,,,,
,,,,,,,,,63626a68cf44b4184483c8e8,Mexican,13 or older,"no, only English or Spanish",no,2025-07-24_11h42.50.484,empathy_intonation_perc_control,2024.2.4,Win32,60.60606061,63626a68cf44b4184483c8e8,68817205a84113384fffdfe3,6882544ecbe1780b98b45bb7,,,,,,,,,,,,./stim/wavs/mexican_mismatch_declarative-broad-focus_El-bebe-comia-muy-bien.wav,0,,,71.9381,74.0069,0,1,1.5573,,0,13,13,78,1,79,0,mexican,,,,,,,,,,,,,,,,,,,,,,,,,,,,,,,,,,,,,,,,,,,,,,,,,,,,,,,,
,,,,,,,,,63626a68cf44b4184483c8e8,Mexican,13 or older,"no, only English or Spanish",no,2025-07-24_11h42.50.484,empathy_intonation_perc_control,2024.2.4,Win32,60.60606061,63626a68cf44b4184483c8e8,68817205a84113384fffdfe3,6882544ecbe1780b98b45bb7,,,,,,,,,,,,./stim/wavs/cuban_mismatch_interrogative-total-yn_El-nino-oye-el-rio.wav,1,,,74.0086,75.9271,0,0,1.3943,,0,14,14,30,1,31,1,cuban,,,,,,,,,,,,,,,,,,,,,,,,,,,,,,,,,,,,,,,,,,,,,,,,,,,,,,,,
,,,,,,,,,63626a68cf44b4184483c8e8,Mexican,13 or older,"no, only English or Spanish",no,2025-07-24_11h42.50.484,empathy_intonation_perc_control,2024.2.4,Win32,60.60606061,63626a68cf44b4184483c8e8,68817205a84113384fffdfe3,6882544ecbe1780b98b45bb7,,,,,,,,,,,,./stim/wavs/castilian_match_interrogative-total-yn_David-leia-el-libro.wav,1,,,75.9275,78.0377,1,1,1.5862,,0,15,15,0,1,1,0,castilian,,,,,,,,,,,,,,,,,,,,,,,,,,,,,,,,,,,,,,,,,,,,,,,,,,,,,,,,
,,,,,,,,,63626a68cf44b4184483c8e8,Mexican,13 or older,"no, only English or Spanish",no,2025-07-24_11h42.50.484,empathy_intonation_perc_control,2024.2.4,Win32,60.60606061,63626a68cf44b4184483c8e8,68817205a84113384fffdfe3,6882544ecbe1780b98b45bb7,,,,,,,,,,,,./stim/wavs/cuban_mismatch_declarative-broad-focus_Mi-tia-odia-la-lluvia.wav,0,,,78.0381,80.3206,0,1,1.7518,,0,16,16,77,1,78,0,cuban,,,,,,,,,,,,,,,,,,,,,,,,,,,,,,,,,,,,,,,,,,,,,,,,,,,,,,,,
,,,,,,,,,63626a68cf44b4184483c8e8,Mexican,13 or older,"no, only English or Spanish",no,2025-07-24_11h42.50.484,empathy_intonation_perc_control,2024.2.4,Win32,60.60606061,63626a68cf44b4184483c8e8,68817205a84113384fffdfe3,6882544ecbe1780b98b45bb7,,,,,,,,,,,,./stim/wavs/mexican_mismatch_declarative-broad-focus_El-hombre-mira-la-luna.wav,0,,,80.3211,82.371,0,1,1.5205,,0,17,17,79,1,80,0,mexican,,,,,,,,,,,,,,,,,,,,,,,,,,,,,,,,,,,,,,,,,,,,,,,,,,,,,,,,
,,,,,,,,,63626a68cf44b4184483c8e8,Mexican,13 or older,"no, only English or Spanish",no,2025-07-24_11h42.50.484,empathy_intonation_perc_control,2024.2.4,Win32,60.60606061,63626a68cf44b4184483c8e8,68817205a84113384fffdfe3,6882544ecbe1780b98b45bb7,,,,,,,,,,,,./stim/wavs/puertorican_match_interrogative-total-yn_Maria-bebe-el-vino.wav,1,,,82.3716,84.9874,0,0,2.0856,,0,18,18,23,1,24,1,puertorican,,,,,,,,,,,,,,,,,,,,,,,,,,,,,,,,,,,,,,,,,,,,,,,,,,,,,,,,
,,,,,,,,,63626a68cf44b4184483c8e8,Mexican,13 or older,"no, only English or Spanish",no,2025-07-24_11h42.50.484,empathy_intonation_perc_control,2024.2.4,Win32,60.60606061,63626a68cf44b4184483c8e8,68817205a84113384fffdfe3,6882544ecbe1780b98b45bb7,,,,,,,,,,,,./stim/wavs/puertorican_match_declarative-broad-focus_Ana-lleva-el-abrigo.wav,0,,,84.9879,86.9542,0,1,1.4353,,0,19,19,62,1,63,0,puertorican,,,,,,,,,,,,,,,,,,,,,,,,,,,,,,,,,,,,,,,,,,,,,,,,,,,,,,,,
,,,,,,,,,63626a68cf44b4184483c8e8,Mexican,13 or older,"no, only English or Spanish",no,2025-07-24_11h42.50.484,empathy_intonation_perc_control,2024.2.4,Win32,60.60606061,63626a68cf44b4184483c8e8,68817205a84113384fffdfe3,6882544ecbe1780b98b45bb7,,,,,,,,,,,,./stim/wavs/cuban_mismatch_interrogative-total-yn_Mi-tia-odia-la-lluvia.wav,1,,,86.9549,88.9874,0,0,1.5018,,0,20,20,33,1,34,1,cuban,,,,,,,,,,,,,,,,,,,,,,,,,,,,,,,,,,,,,,,,,,,,,,,,,,,,,,,,
,,,,,,,,,63626a68cf44b4184483c8e8,Mexican,13 or older,"no, only English or Spanish",no,2025-07-24_11h42.50.484,empathy_intonation_perc_control,2024.2.4,Win32,60.60606061,63626a68cf44b4184483c8e8,68817205a84113384fffdfe3,6882544ecbe1780b98b45bb7,,,,,,,,,,,,./stim/wavs/castilian_match_declarative-broad-focus_Manuela-vende-el-carro.wav,0,,,88.988,91.2076,0,1,1.6857,,0,21,21,46,1,47,0,castilian,,,,,,,,,,,,,,,,,,,,,,,,,,,,,,,,,,,,,,,,,,,,,,,,,,,,,,,,
,,,,,,,,,63626a68cf44b4184483c8e8,Mexican,13 or older,"no, only English or Spanish",no,2025-07-24_11h42.50.484,empathy_intonation_perc_control,2024.2.4,Win32,60.60606061,63626a68cf44b4184483c8e8,68817205a84113384fffdfe3,6882544ecbe1780b98b45bb7,,,,,,,,,,,,./stim/wavs/castilian_match_declarative-broad-focus_Mariano-habla-del-tiempo.wav,0,,,91.2092,93.3047,0,1,1.5684,,0,22,22,48,1,49,0,castilian,,,,,,,,,,,,,,,,,,,,,,,,,,,,,,,,,,,,,,,,,,,,,,,,,,,,,,,,
,,,,,,,,,63626a68cf44b4184483c8e8,Mexican,13 or older,"no, only English or Spanish",no,2025-07-24_11h42.50.484,empathy_intonation_perc_control,2024.2.4,Win32,60.60606061,63626a68cf44b4184483c8e8,68817205a84113384fffdfe3,6882544ecbe1780b98b45bb7,,,,,,,,,,,,./stim/wavs/mexican_match_interrogative-total-yn_Mariano-habla-del-tiempo.wav,1,,,93.3053,95.305,0,0,1.4692,,0,23,23,16,1,17,0,mexican,,,,,,,,,,,,,,,,,,,,,,,,,,,,,,,,,,,,,,,,,,,,,,,,,,,,,,,,
,,,,,,,,,63626a68cf44b4184483c8e8,Mexican,13 or older,"no, only English or Spanish",no,2025-07-24_11h42.50.484,empathy_intonation_perc_control,2024.2.4,Win32,60.60606061,63626a68cf44b4184483c8e8,68817205a84113384fffdfe3,6882544ecbe1780b98b45bb7,,,,,,,,,,,,./stim/wavs/castilian_match_declarative-broad-focus_Marta-abre-el-regalo.wav,0,,,95.3057,97.3711,0,1,1.536,,0,24,24,49,1,50,0,castilian,,,,,,,,,,,,,,,,,,,,,,,,,,,,,,,,,,,,,,,,,,,,,,,,,,,,,,,,
,,,,,,,,,63626a68cf44b4184483c8e8,Mexican,13 or older,"no, only English or Spanish",no,2025-07-24_11h42.50.484,empathy_intonation_perc_control,2024.2.4,Win32,60.60606061,63626a68cf44b4184483c8e8,68817205a84113384fffdfe3,6882544ecbe1780b98b45bb7,,,,,,,,,,,,./stim/wavs/cuban_match_declarative-broad-focus_Maria-bebe-el-vino.wav,0,,,97.3717,99.3208,0,1,1.4202,,0,25,25,53,1,54,0,cuban,,,,,,,,,,,,,,,,,,,,,,,,,,,,,,,,,,,,,,,,,,,,,,,,,,,,,,,,
,,,,,,,,,63626a68cf44b4184483c8e8,Mexican,13 or older,"no, only English or Spanish",no,2025-07-24_11h42.50.484,empathy_intonation_perc_control,2024.2.4,Win32,60.60606061,63626a68cf44b4184483c8e8,68817205a84113384fffdfe3,6882544ecbe1780b98b45bb7,,,,,,,,,,,,./stim/wavs/puertorican_match_declarative-broad-focus_Maria-bebe-el-vino.wav,0,,,99.3213,101.3542,0,1,1.5033,,0,26,26,67,1,68,0,puertorican,,,,,,,,,,,,,,,,,,,,,,,,,,,,,,,,,,,,,,,,,,,,,,,,,,,,,,,,
,,,,,,,,,63626a68cf44b4184483c8e8,Mexican,13 or older,"no, only English or Spanish",no,2025-07-24_11h42.50.484,empathy_intonation_perc_control,2024.2.4,Win32,60.60606061,63626a68cf44b4184483c8e8,68817205a84113384fffdfe3,6882544ecbe1780b98b45bb7,,,,,,,,,,,,./stim/wavs/castilian_mismatch_interrogative-total-yn_Mi-madre-come-la-fruta.wav,1,,,101.3549,103.7547,1,1,1.8857,,0,27,27,26,1,27,0,castilian,,,,,,,,,,,,,,,,,,,,,,,,,,,,,,,,,,,,,,,,,,,,,,,,,,,,,,,,
,,,,,,,,,63626a68cf44b4184483c8e8,Mexican,13 or older,"no, only English or Spanish",no,2025-07-24_11h42.50.484,empathy_intonation_perc_control,2024.2.4,Win32,60.60606061,63626a68cf44b4184483c8e8,68817205a84113384fffdfe3,6882544ecbe1780b98b45bb7,,,,,,,,,,,,./stim/wavs/castilian_mismatch_interrogative-total-yn_La-nina-lava-el-plato.wav,1,,,103.7556,105.8259,1,1,1.5424,,0,28,28,25,1,26,0,castilian,,,,,,,,,,,,,,,,,,,,,,,,,,,,,,,,,,,,,,,,,,,,,,,,,,,,,,,,
,,,,,,,,,63626a68cf44b4184483c8e8,Mexican,13 or older,"no, only English or Spanish",no,2025-07-24_11h42.50.484,empathy_intonation_perc_control,2024.2.4,Win32,60.60606061,63626a68cf44b4184483c8e8,68817205a84113384fffdfe3,6882544ecbe1780b98b45bb7,,,,,,,,,,,,./stim/wavs/puertorican_match_declarative-broad-focus_Daniel-iba-a-Bolivia.wav,0,,,105.8264,107.8047,0,1,1.4531,,0,29,29,63,1,64,0,puertorican,,,,,,,,,,,,,,,,,,,,,,,,,,,,,,,,,,,,,,,,,,,,,,,,,,,,,,,,
,,,,,,,,,63626a68cf44b4184483c8e8,Mexican,13 or older,"no, only English or Spanish",no,2025-07-24_11h42.50.484,empathy_intonation_perc_control,2024.2.4,Win32,60.60606061,63626a68cf44b4184483c8e8,68817205a84113384fffdfe3,6882544ecbe1780b98b45bb7,,,,,,,,,,,,./stim/wavs/cuban_match_interrogative-total-yn_Manuela-vende-el-carro.wav,1,,,107.8053,109.7877,0,0,1.4541,,0,30,30,8,1,9,1,cuban,,,,,,,,,,,,,,,,,,,,,,,,,,,,,,,,,,,,,,,,,,,,,,,,,,,,,,,,
,,,,,,,,,63626a68cf44b4184483c8e8,Mexican,13 or older,"no, only English or Spanish",no,2025-07-24_11h42.50.484,empathy_intonation_perc_control,2024.2.4,Win32,60.60606061,63626a68cf44b4184483c8e8,68817205a84113384fffdfe3,6882544ecbe1780b98b45bb7,,,,,,,,,,,,./stim/wavs/puertorican_mismatch_declarative-broad-focus_La-maestra-vive-en-Paris.wav,0,,,109.7886,111.9215,0,1,1.6066,,0,31,31,86,1,87,0,puertorican,,,,,,,,,,,,,,,,,,,,,,,,,,,,,,,,,,,,,,,,,,,,,,,,,,,,,,,,
,,,,,,,,,63626a68cf44b4184483c8e8,Mexican,13 or older,"no, only English or Spanish",no,2025-07-24_11h42.50.484,empathy_intonation_perc_control,2024.2.4,Win32,60.60606061,63626a68cf44b4184483c8e8,68817205a84113384fffdfe3,6882544ecbe1780b98b45bb7,,,,,,,,,,,,./stim/wavs/cuban_match_interrogative-total-yn_Mariano-habla-del-tiempo.wav,1,,,111.9233,114.7043,0,0,2.2541,,0,32,32,10,1,11,1,cuban,,,,,,,,,,,,,,,,,,,,,,,,,,,,,,,,,,,,,,,,,,,,,,,,,,,,,,,,
,,,,,,,,,63626a68cf44b4184483c8e8,Mexican,13 or older,"no, only English or Spanish",no,2025-07-24_11h42.50.484,empathy_intonation_perc_control,2024.2.4,Win32,60.60606061,63626a68cf44b4184483c8e8,68817205a84113384fffdfe3,6882544ecbe1780b98b45bb7,,,,,,,,,,,,./stim/wavs/cuban_mismatch_declarative-broad-focus_La-nina-lava-el-plato.wav,0,,,114.7048,116.9878,0,1,1.7509,,0,33,33,75,1,76,0,cuban,,,,,,,,,,,,,,,,,,,,,,,,,,,,,,,,,,,,,,,,,,,,,,,,,,,,,,,,
,,,,,,,,,63626a68cf44b4184483c8e8,Mexican,13 or older,"no, only English or Spanish",no,2025-07-24_11h42.50.484,empathy_intonation_perc_control,2024.2.4,Win32,60.60606061,63626a68cf44b4184483c8e8,68817205a84113384fffdfe3,6882544ecbe1780b98b45bb7,,,,,,,,,,,,./stim/wavs/mexican_match_declarative-broad-focus_Daniel-iba-a-Bolivia.wav,0,,,116.9883,119.3547,0,1,1.8347,,0,34,34,57,1,58,0,mexican,,,,,,,,,,,,,,,,,,,,,,,,,,,,,,,,,,,,,,,,,,,,,,,,,,,,,,,,
,,,,,,,,,63626a68cf44b4184483c8e8,Mexican,13 or older,"no, only English or Spanish",no,2025-07-24_11h42.50.484,empathy_intonation_perc_control,2024.2.4,Win32,60.60606061,63626a68cf44b4184483c8e8,68817205a84113384fffdfe3,6882544ecbe1780b98b45bb7,,,,,,,,,,,,./stim/wavs/cuban_mismatch_declarative-broad-focus_Mi-novio-viene-del-lago.wav,0,,,119.3555,123.6903,0,1,3.8071,,0,35,35,76,1,77,0,cuban,,,,,,,,,,,,,,,,,,,,,,,,,,,,,,,,,,,,,,,,,,,,,,,,,,,,,,,,
,,,,,,,,,63626a68cf44b4184483c8e8,Mexican,13 or older,"no, only English or Spanish",no,2025-07-24_11h42.50.484,empathy_intonation_perc_control,2024.2.4,Win32,60.60606061,63626a68cf44b4184483c8e8,68817205a84113384fffdfe3,6882544ecbe1780b98b45bb7,,,,,,,,,,,,./stim/wavs/puertorican_match_interrogative-total-yn_Daniel-iba-a-Bolivia.wav,1,,,123.6925,127.2046,1,1,2.9877,,0,36,36,19,1,20,1,puertorican,,,,,,,,,,,,,,,,,,,,,,,,,,,,,,,,,,,,,,,,,,,,,,,,,,,,,,,,
,,,,,,,,,63626a68cf44b4184483c8e8,Mexican,13 or older,"no, only English or Spanish",no,2025-07-24_11h42.50.484,empathy_intonation_perc_control,2024.2.4,Win32,60.60606061,63626a68cf44b4184483c8e8,68817205a84113384fffdfe3,6882544ecbe1780b98b45bb7,,,,,,,,,,,,./stim/wavs/cuban_mismatch_interrogative-total-yn_Mi-madre-come-la-fruta.wav,1,,,127.2055,129.4876,0,0,1.7548,,0,37,37,31,1,32,1,cuban,,,,,,,,,,,,,,,,,,,,,,,,,,,,,,,,,,,,,,,,,,,,,,,,,,,,,,,,
,,,,,,,,,63626a68cf44b4184483c8e8,Mexican,13 or older,"no, only English or Spanish",no,2025-07-24_11h42.50.484,empathy_intonation_perc_control,2024.2.4,Win32,60.60606061,63626a68cf44b4184483c8e8,68817205a84113384fffdfe3,6882544ecbe1780b98b45bb7,,,,,,,,,,,,./stim/wavs/mexican_match_interrogative-total-yn_Daniel-iba-a-Bolivia.wav,1,,,129.4881,131.9213,1,1,1.9027,,0,38,38,13,1,14,0,mexican,,,,,,,,,,,,,,,,,,,,,,,,,,,,,,,,,,,,,,,,,,,,,,,,,,,,,,,,
,,,,,,,,,63626a68cf44b4184483c8e8,Mexican,13 or older,"no, only English or Spanish",no,2025-07-24_11h42.50.484,empathy_intonation_perc_control,2024.2.4,Win32,60.60606061,63626a68cf44b4184483c8e8,68817205a84113384fffdfe3,6882544ecbe1780b98b45bb7,,,,,,,,,,,,./stim/wavs/cuban_match_interrogative-total-yn_Maria-bebe-el-vino.wav,1,,,131.9217,134.0544,0,0,1.6052,,0,39,39,9,1,10,1,cuban,,,,,,,,,,,,,,,,,,,,,,,,,,,,,,,,,,,,,,,,,,,,,,,,,,,,,,,,
,,,,,,,,,63626a68cf44b4184483c8e8,Mexican,13 or older,"no, only English or Spanish",no,2025-07-24_11h42.50.484,empathy_intonation_perc_control,2024.2.4,Win32,60.60606061,63626a68cf44b4184483c8e8,68817205a84113384fffdfe3,6882544ecbe1780b98b45bb7,,,,,,,,,,,,./stim/wavs/puertorican_mismatch_declarative-broad-focus_El-bebe-comia-muy-bien.wav,0,,,134.055,136.2045,0,1,1.6186,,0,40,40,83,1,84,0,puertorican,,,,,,,,,,,,,,,,,,,,,,,,,,,,,,,,,,,,,,,,,,,,,,,,,,,,,,,,
,,,,,,,,,63626a68cf44b4184483c8e8,Mexican,13 or older,"no, only English or Spanish",no,2025-07-24_11h42.50.484,empathy_intonation_perc_control,2024.2.4,Win32,60.60606061,63626a68cf44b4184483c8e8,68817205a84113384fffdfe3,6882544ecbe1780b98b45bb7,,,,,,,,,,,,./stim/wavs/cuban_match_declarative-broad-focus_Marta-abre-el-regalo.wav,0,,,136.2051,138.3707,0,1,1.638,,0,41,41,55,1,56,0,cuban,,,,,,,,,,,,,,,,,,,,,,,,,,,,,,,,,,,,,,,,,,,,,,,,,,,,,,,,
,,,,,,,,,63626a68cf44b4184483c8e8,Mexican,13 or older,"no, only English or Spanish",no,2025-07-24_11h42.50.484,empathy_intonation_perc_control,2024.2.4,Win32,60.60606061,63626a68cf44b4184483c8e8,68817205a84113384fffdfe3,6882544ecbe1780b98b45bb7,,,,,,,,,,,,./stim/wavs/puertorican_match_declarative-broad-focus_Emilio-ama-la-marcha.wav,0,,,138.371,140.5041,0,1,1.6005,,0,42,42,65,1,66,0,puertorican,,,,,,,,,,,,,,,,,,,,,,,,,,,,,,,,,,,,,,,,,,,,,,,,,,,,,,,,
,,,,,,,,,63626a68cf44b4184483c8e8,Mexican,13 or older,"no, only English or Spanish",no,2025-07-24_11h42.50.484,empathy_intonation_perc_control,2024.2.4,Win32,60.60606061,63626a68cf44b4184483c8e8,68817205a84113384fffdfe3,6882544ecbe1780b98b45bb7,,,,,,,,,,,,./stim/wavs/puertorican_mismatch_interrogative-total-yn_El-hombre-mira-la-luna.wav,1,,,140.5048,142.4542,1,1,1.4185,,0,43,43,39,1,40,1,puertorican,,,,,,,,,,,,,,,,,,,,,,,,,,,,,,,,,,,,,,,,,,,,,,,,,,,,,,,,
,,,,,,,,,63626a68cf44b4184483c8e8,Mexican,13 or older,"no, only English or Spanish",no,2025-07-24_11h42.50.484,empathy_intonation_perc_control,2024.2.4,Win32,60.60606061,63626a68cf44b4184483c8e8,68817205a84113384fffdfe3,6882544ecbe1780b98b45bb7,,,,,,,,,,,,./stim/wavs/cuban_match_declarative-broad-focus_Manuela-vende-el-carro.wav,0,,,142.4548,144.7287,0,1,1.7474,,0,44,44,52,1,53,0,cuban,,,,,,,,,,,,,,,,,,,,,,,,,,,,,,,,,,,,,,,,,,,,,,,,,,,,,,,,
,,,,,,,,,63626a68cf44b4184483c8e8,Mexican,13 or older,"no, only English or Spanish",no,2025-07-24_11h42.50.484,empathy_intonation_perc_control,2024.2.4,Win32,60.60606061,63626a68cf44b4184483c8e8,68817205a84113384fffdfe3,6882544ecbe1780b98b45bb7,,,,,,,,,,,,./stim/wavs/castilian_mismatch_declarative-broad-focus_Mi-novio-viene-del-lago.wav,0,,,144.7291,146.8544,0,1,1.5998,,0,45,45,71,1,72,0,castilian,,,,,,,,,,,,,,,,,,,,,,,,,,,,,,,,,,,,,,,,,,,,,,,,,,,,,,,,
,,,,,,,,,63626a68cf44b4184483c8e8,Mexican,13 or older,"no, only English or Spanish",no,2025-07-24_11h42.50.484,empathy_intonation_perc_control,2024.2.4,Win32,60.60606061,63626a68cf44b4184483c8e8,68817205a84113384fffdfe3,6882544ecbe1780b98b45bb7,,,,,,,,,,,,./stim/wavs/mexican_match_interrogative-total-yn_David-leia-el-libro.wav,1,,,146.855,149.1713,1,1,1.7866,,0,46,46,14,1,15,0,mexican,,,,,,,,,,,,,,,,,,,,,,,,,,,,,,,,,,,,,,,,,,,,,,,,,,,,,,,,
,,,,,,,,,63626a68cf44b4184483c8e8,Mexican,13 or older,"no, only English or Spanish",no,2025-07-24_11h42.50.484,empathy_intonation_perc_control,2024.2.4,Win32,60.60606061,63626a68cf44b4184483c8e8,68817205a84113384fffdfe3,6882544ecbe1780b98b45bb7,,,,,,,,,,,,./stim/wavs/puertorican_mismatch_interrogative-total-yn_El-nino-oye-el-rio.wav,1,,,149.1722,151.9708,1,1,2.2713,,0,47,47,40,1,41,1,puertorican,,,,,,,,,,,,,,,,,,,,,,,,,,,,,,,,,,,,,,,,,,,,,,,,,,,,,,,,
,,,,,,,,,63626a68cf44b4184483c8e8,Mexican,13 or older,"no, only English or Spanish",no,2025-07-24_11h42.50.484,empathy_intonation_perc_control,2024.2.4,Win32,60.60606061,63626a68cf44b4184483c8e8,68817205a84113384fffdfe3,6882544ecbe1780b98b45bb7,,,,,,,,,,,,./stim/wavs/mexican_match_declarative-broad-focus_David-leia-el-libro.wav,0,,,151.9717,154.5375,0,1,2.0371,,0,48,48,58,1,59,0,mexican,,,,,,,,,,,,,,,,,,,,,,,,,,,,,,,,,,,,,,,,,,,,,,,,,,,,,,,,
,,,,,,,,,63626a68cf44b4184483c8e8,Mexican,13 or older,"no, only English or Spanish",no,2025-07-24_11h42.50.484,empathy_intonation_perc_control,2024.2.4,Win32,60.60606061,63626a68cf44b4184483c8e8,68817205a84113384fffdfe3,6882544ecbe1780b98b45bb7,,,,,,,,,,,,./stim/wavs/castilian_match_interrogative-total-yn_Mariano-habla-del-tiempo.wav,1,,,154.538,156.9876,1,1,1.9186,,0,49,49,4,1,5,0,castilian,,,,,,,,,,,,,,,,,,,,,,,,,,,,,,,,,,,,,,,,,,,,,,,,,,,,,,,,
,,,,,,,,,63626a68cf44b4184483c8e8,Mexican,13 or older,"no, only English or Spanish",no,2025-07-24_11h42.50.484,empathy_intonation_perc_control,2024.2.4,Win32,60.60606061,63626a68cf44b4184483c8e8,68817205a84113384fffdfe3,6882544ecbe1780b98b45bb7,,,,,,,,,,,,./stim/wavs/mexican_match_interrogative-total-yn_Marta-abre-el-regalo.wav,1,,,156.9883,158.9708,1,1,1.4516,,0,50,50,17,1,18,0,mexican,,,,,,,,,,,,,,,,,,,,,,,,,,,,,,,,,,,,,,,,,,,,,,,,,,,,,,,,
,,,,,,,,,63626a68cf44b4184483c8e8,Mexican,13 or older,"no, only English or Spanish",no,2025-07-24_11h42.50.484,empathy_intonation_perc_control,2024.2.4,Win32,60.60606061,63626a68cf44b4184483c8e8,68817205a84113384fffdfe3,6882544ecbe1780b98b45bb7,,,,,,,,,,,,./stim/wavs/castilian_mismatch_interrogative-total-yn_Mi-novio-viene-del-lago.wav,1,,,158.9713,161.271,1,1,1.7863,,0,51,51,27,1,28,0,castilian,,,,,,,,,,,,,,,,,,,,,,,,,,,,,,,,,,,,,,,,,,,,,,,,,,,,,,,,
,,,,,,,,,63626a68cf44b4184483c8e8,Mexican,13 or older,"no, only English or Spanish",no,2025-07-24_11h42.50.484,empathy_intonation_perc_control,2024.2.4,Win32,60.60606061,63626a68cf44b4184483c8e8,68817205a84113384fffdfe3,6882544ecbe1780b98b45bb7,,,,,,,,,,,,./stim/wavs/cuban_mismatch_interrogative-total-yn_El-hombre-mira-la-luna.wav,1,,,161.2714,163.3709,1,1,1.5716,,0,52,52,29,1,30,1,cuban,,,,,,,,,,,,,,,,,,,,,,,,,,,,,,,,,,,,,,,,,,,,,,,,,,,,,,,,
,,,,,,,,,63626a68cf44b4184483c8e8,Mexican,13 or older,"no, only English or Spanish",no,2025-07-24_11h42.50.484,empathy_intonation_perc_control,2024.2.4,Win32,60.60606061,63626a68cf44b4184483c8e8,68817205a84113384fffdfe3,6882544ecbe1780b98b45bb7,,,,,,,,,,,,./stim/wavs/cuban_mismatch_declarative-broad-focus_El-bebe-comia-muy-bien.wav,0,,,163.3714,165.2714,0,1,1.3689,,0,53,53,73,1,74,0,cuban,,,,,,,,,,,,,,,,,,,,,,,,,,,,,,,,,,,,,,,,,,,,,,,,,,,,,,,,
,,,,,,,,,63626a68cf44b4184483c8e8,Mexican,13 or older,"no, only English or Spanish",no,2025-07-24_11h42.50.484,empathy_intonation_perc_control,2024.2.4,Win32,60.60606061,63626a68cf44b4184483c8e8,68817205a84113384fffdfe3,6882544ecbe1780b98b45bb7,,,,,,,,,,,,./stim/wavs/mexican_match_declarative-broad-focus_Ana-lleva-el-abrigo.wav,0,,,165.2732,167.2875,0,1,1.4854,,0,54,54,56,1,57,0,mexican,,,,,,,,,,,,,,,,,,,,,,,,,,,,,,,,,,,,,,,,,,,,,,,,,,,,,,,,
,,,,,,,,,63626a68cf44b4184483c8e8,Mexican,13 or older,"no, only English or Spanish",no,2025-07-24_11h42.50.484,empathy_intonation_perc_control,2024.2.4,Win32,60.60606061,63626a68cf44b4184483c8e8,68817205a84113384fffdfe3,6882544ecbe1780b98b45bb7,,,,,,,,,,,,./stim/wavs/mexican_mismatch_declarative-broad-focus_Mi-novio-viene-del-lago.wav,0,,,167.2883,169.2877,0,1,1.4714,,0,55,55,81,1,82,0,mexican,,,,,,,,,,,,,,,,,,,,,,,,,,,,,,,,,,,,,,,,,,,,,,,,,,,,,,,,
,,,,,,,,,63626a68cf44b4184483c8e8,Mexican,13 or older,"no, only English or Spanish",no,2025-07-24_11h42.50.484,empathy_intonation_perc_control,2024.2.4,Win32,60.60606061,63626a68cf44b4184483c8e8,68817205a84113384fffdfe3,6882544ecbe1780b98b45bb7,,,,,,,,,,,,./stim/wavs/mexican_mismatch_interrogative-total-yn_Mi-tia-odia-la-lluvia.wav,1,,,169.2882,171.5211,1,1,1.7022,,0,56,56,38,1,39,0,mexican,,,,,,,,,,,,,,,,,,,,,,,,,,,,,,,,,,,,,,,,,,,,,,,,,,,,,,,,
,,,,,,,,,63626a68cf44b4184483c8e8,Mexican,13 or older,"no, only English or Spanish",no,2025-07-24_11h42.50.484,empathy_intonation_perc_control,2024.2.4,Win32,60.60606061,63626a68cf44b4184483c8e8,68817205a84113384fffdfe3,6882544ecbe1780b98b45bb7,,,,,,,,,,,,./stim/wavs/castilian_match_declarative-broad-focus_David-leia-el-libro.wav,0,,,171.5217,173.8545,0,1,1.8012,,0,57,57,44,1,45,0,castilian,,,,,,,,,,,,,,,,,,,,,,,,,,,,,,,,,,,,,,,,,,,,,,,,,,,,,,,,
,,,,,,,,,63626a68cf44b4184483c8e8,Mexican,13 or older,"no, only English or Spanish",no,2025-07-24_11h42.50.484,empathy_intonation_perc_control,2024.2.4,Win32,60.60606061,63626a68cf44b4184483c8e8,68817205a84113384fffdfe3,6882544ecbe1780b98b45bb7,,,,,,,,,,,,./stim/wavs/castilian_mismatch_interrogative-total-yn_Mi-tia-odia-la-lluvia.wav,1,,,173.8549,176.021,1,1,1.6376,,0,58,58,28,1,29,0,castilian,,,,,,,,,,,,,,,,,,,,,,,,,,,,,,,,,,,,,,,,,,,,,,,,,,,,,,,,
,,,,,,,,,63626a68cf44b4184483c8e8,Mexican,13 or older,"no, only English or Spanish",no,2025-07-24_11h42.50.484,empathy_intonation_perc_control,2024.2.4,Win32,60.60606061,63626a68cf44b4184483c8e8,68817205a84113384fffdfe3,6882544ecbe1780b98b45bb7,,,,,,,,,,,,./stim/wavs/cuban_match_interrogative-total-yn_Daniel-iba-a-Bolivia.wav,1,,,176.0215,178.2878,0,0,1.7364,,0,59,59,7,1,8,1,cuban,,,,,,,,,,,,,,,,,,,,,,,,,,,,,,,,,,,,,,,,,,,,,,,,,,,,,,,,
,,,,,,,,,63626a68cf44b4184483c8e8,Mexican,13 or older,"no, only English or Spanish",no,2025-07-24_11h42.50.484,empathy_intonation_perc_control,2024.2.4,Win32,60.60606061,63626a68cf44b4184483c8e8,68817205a84113384fffdfe3,6882544ecbe1780b98b45bb7,,,,,,,,,,,,./stim/wavs/castilian_match_interrogative-total-yn_Emilio-ama-la-marcha.wav,1,,,178.2886,181.2712,0,0,2.4521,,0,60,60,1,1,2,0,castilian,,,,,,,,,,,,,,,,,,,,,,,,,,,,,,,,,,,,,,,,,,,,,,,,,,,,,,,,
,,,,,,,,,63626a68cf44b4184483c8e8,Mexican,13 or older,"no, only English or Spanish",no,2025-07-24_11h42.50.484,empathy_intonation_perc_control,2024.2.4,Win32,60.60606061,63626a68cf44b4184483c8e8,68817205a84113384fffdfe3,6882544ecbe1780b98b45bb7,,,,,,,,,,,,./stim/wavs/cuban_match_declarative-broad-focus_Daniel-iba-a-Bolivia.wav,0,,,181.2718,183.0546,0,1,1.2525,,0,61,61,51,1,52,0,cuban,,,,,,,,,,,,,,,,,,,,,,,,,,,,,,,,,,,,,,,,,,,,,,,,,,,,,,,,
,,,,,,,,,63626a68cf44b4184483c8e8,Mexican,13 or older,"no, only English or Spanish",no,2025-07-24_11h42.50.484,empathy_intonation_perc_control,2024.2.4,Win32,60.60606061,63626a68cf44b4184483c8e8,68817205a84113384fffdfe3,6882544ecbe1780b98b45bb7,,,,,,,,,,,,./stim/wavs/castilian_match_interrogative-total-yn_Manuela-vende-el-carro.wav,1,,,183.0549,185.9062,1,1,2.3237,,0,62,62,2,1,3,0,castilian,,,,,,,,,,,,,,,,,,,,,,,,,,,,,,,,,,,,,,,,,,,,,,,,,,,,,,,,
,,,,,,,,,63626a68cf44b4184483c8e8,Mexican,13 or older,"no, only English or Spanish",no,2025-07-24_11h42.50.484,empathy_intonation_perc_control,2024.2.4,Win32,60.60606061,63626a68cf44b4184483c8e8,68817205a84113384fffdfe3,6882544ecbe1780b98b45bb7,,,,,,,,,,,,./stim/wavs/castilian_match_declarative-broad-focus_Emilio-ama-la-marcha.wav,0,,,185.9086,189.1042,0,1,2.6695,,0,63,63,45,1,46,0,castilian,,,,,,,,,,,,,,,,,,,,,,,,,,,,,,,,,,,,,,,,,,,,,,,,,,,,,,,,
,,,,,,,,,63626a68cf44b4184483c8e8,Mexican,13 or older,"no, only English or Spanish",no,2025-07-24_11h42.50.484,empathy_intonation_perc_control,2024.2.4,Win32,60.60606061,63626a68cf44b4184483c8e8,68817205a84113384fffdfe3,6882544ecbe1780b98b45bb7,,,,,,,,,,,,./stim/wavs/cuban_match_interrogative-total-yn_Marta-abre-el-regalo.wav,1,,,189.1048,192.3711,1,1,2.7358,,0,64,64,11,1,12,1,cuban,,,,,,,,,,,,,,,,,,,,,,,,,,,,,,,,,,,,,,,,,,,,,,,,,,,,,,,,
,,,,,,,,,63626a68cf44b4184483c8e8,Mexican,13 or older,"no, only English or Spanish",no,2025-07-24_11h42.50.484,empathy_intonation_perc_control,2024.2.4,Win32,60.60606061,63626a68cf44b4184483c8e8,68817205a84113384fffdfe3,6882544ecbe1780b98b45bb7,,,,,,,,,,,,./stim/wavs/cuban_match_declarative-broad-focus_Mariano-habla-del-tiempo.wav,0,,,192.3716,194.3709,0,1,1.4678,,0,65,65,54,1,55,0,cuban,,,,,,,,,,,,,,,,,,,,,,,,,,,,,,,,,,,,,,,,,,,,,,,,,,,,,,,,
,,,,,,,,,63626a68cf44b4184483c8e8,Mexican,13 or older,"no, only English or Spanish",no,2025-07-24_11h42.50.484,empathy_intonation_perc_control,2024.2.4,Win32,60.60606061,63626a68cf44b4184483c8e8,68817205a84113384fffdfe3,6882544ecbe1780b98b45bb7,,,,,,,,,,,,./stim/wavs/puertorican_mismatch_declarative-broad-focus_La-nina-lava-el-plato.wav,0,,,194.3712,196.2877,0,1,1.3864,,0,66,66,87,1,88,0,puertorican,,,,,,,,,,,,,,,,,,,,,,,,,,,,,,,,,,,,,,,,,,,,,,,,,,,,,,,,
,,,,,,,,,63626a68cf44b4184483c8e8,Mexican,13 or older,"no, only English or Spanish",no,2025-07-24_11h42.50.484,empathy_intonation_perc_control,2024.2.4,Win32,60.60606061,63626a68cf44b4184483c8e8,68817205a84113384fffdfe3,6882544ecbe1780b98b45bb7,,,,,,,,,,,,./stim/wavs/puertorican_match_interrogative-total-yn_Ana-lleva-el-abrigo.wav,1,,,196.288,197.9878,1,1,1.168,,0,67,67,18,1,19,1,puertorican,,,,,,,,,,,,,,,,,,,,,,,,,,,,,,,,,,,,,,,,,,,,,,,,,,,,,,,,
,,,,,,,,,63626a68cf44b4184483c8e8,Mexican,13 or older,"no, only English or Spanish",no,2025-07-24_11h42.50.484,empathy_intonation_perc_control,2024.2.4,Win32,60.60606061,63626a68cf44b4184483c8e8,68817205a84113384fffdfe3,6882544ecbe1780b98b45bb7,,,,,,,,,,,,./stim/wavs/castilian_match_interrogative-total-yn_Maria-bebe-el-vino.wav,1,,,197.9884,199.8709,1,1,1.3535,,0,68,68,3,1,4,0,castilian,,,,,,,,,,,,,,,,,,,,,,,,,,,,,,,,,,,,,,,,,,,,,,,,,,,,,,,,
,,,,,,,,,63626a68cf44b4184483c8e8,Mexican,13 or older,"no, only English or Spanish",no,2025-07-24_11h42.50.484,empathy_intonation_perc_control,2024.2.4,Win32,60.60606061,63626a68cf44b4184483c8e8,68817205a84113384fffdfe3,6882544ecbe1780b98b45bb7,,,,,,,,,,,,./stim/wavs/puertorican_mismatch_declarative-broad-focus_El-hombre-mira-la-luna.wav,0,,,199.8714,201.8375,0,1,1.439,,0,69,69,84,1,85,0,puertorican,,,,,,,,,,,,,,,,,,,,,,,,,,,,,,,,,,,,,,,,,,,,,,,,,,,,,,,,
,,,,,,,,,63626a68cf44b4184483c8e8,Mexican,13 or older,"no, only English or Spanish",no,2025-07-24_11h42.50.484,empathy_intonation_perc_control,2024.2.4,Win32,60.60606061,63626a68cf44b4184483c8e8,68817205a84113384fffdfe3,6882544ecbe1780b98b45bb7,,,,,,,,,,,,./stim/wavs/mexican_match_declarative-broad-focus_Emilio-ama-la-marcha.wav,0,,,201.8381,204.0377,0,1,1.6685,,0,70,70,59,1,60,0,mexican,,,,,,,,,,,,,,,,,,,,,,,,,,,,,,,,,,,,,,,,,,,,,,,,,,,,,,,,
,,,,,,,,,63626a68cf44b4184483c8e8,Mexican,13 or older,"no, only English or Spanish",no,2025-07-24_11h42.50.484,empathy_intonation_perc_control,2024.2.4,Win32,60.60606061,63626a68cf44b4184483c8e8,68817205a84113384fffdfe3,6882544ecbe1780b98b45bb7,,,,,,,,,,,,./stim/wavs/puertorican_mismatch_interrogative-total-yn_La-maestra-vive-en-Paris.wav,1,,,204.0383,206.3211,0,0,1.7521,,0,71,71,41,1,42,1,puertorican,,,,,,,,,,,,,,,,,,,,,,,,,,,,,,,,,,,,,,,,,,,,,,,,,,,,,,,,
,,,,,,,,,63626a68cf44b4184483c8e8,Mexican,13 or older,"no, only English or Spanish",no,2025-07-24_11h42.50.484,empathy_intonation_perc_control,2024.2.4,Win32,60.60606061,63626a68cf44b4184483c8e8,68817205a84113384fffdfe3,6882544ecbe1780b98b45bb7,,,,,,,,,,,,./stim/wavs/cuban_match_declarative-broad-focus_Ana-lleva-el-abrigo.wav,0,,,206.3216,208.3046,0,1,1.4569,,0,72,72,50,1,51,0,cuban,,,,,,,,,,,,,,,,,,,,,,,,,,,,,,,,,,,,,,,,,,,,,,,,,,,,,,,,
,,,,,,,,,63626a68cf44b4184483c8e8,Mexican,13 or older,"no, only English or Spanish",no,2025-07-24_11h42.50.484,empathy_intonation_perc_control,2024.2.4,Win32,60.60606061,63626a68cf44b4184483c8e8,68817205a84113384fffdfe3,6882544ecbe1780b98b45bb7,,,,,,,,,,,,./stim/wavs/mexican_mismatch_interrogative-total-yn_La-maestra-vive-en-Paris.wav,1,,,208.3065,210.6878,1,1,1.8549,,0,73,73,36,1,37,0,mexican,,,,,,,,,,,,,,,,,,,,,,,,,,,,,,,,,,,,,,,,,,,,,,,,,,,,,,,,
,,,,,,,,,63626a68cf44b4184483c8e8,Mexican,13 or older,"no, only English or Spanish",no,2025-07-24_11h42.50.484,empathy_intonation_perc_control,2024.2.4,Win32,60.60606061,63626a68cf44b4184483c8e8,68817205a84113384fffdfe3,6882544ecbe1780b98b45bb7,,,,,,,,,,,,./stim/wavs/castilian_match_declarative-broad-focus_Maria-bebe-el-vino.wav,0,,,210.6882,212.7709,0,1,1.5526,,0,74,74,47,1,48,0,castilian,,,,,,,,,,,,,,,,,,,,,,,,,,,,,,,,,,,,,,,,,,,,,,,,,,,,,,,,
,,,,,,,,,63626a68cf44b4184483c8e8,Mexican,13 or older,"no, only English or Spanish",no,2025-07-24_11h42.50.484,empathy_intonation_perc_control,2024.2.4,Win32,60.60606061,63626a68cf44b4184483c8e8,68817205a84113384fffdfe3,6882544ecbe1780b98b45bb7,,,,,,,,,,,,./stim/wavs/puertorican_match_declarative-broad-focus_David-leia-el-libro.wav,0,,,212.7713,214.6879,0,1,1.3861,,0,75,75,64,1,65,0,puertorican,,,,,,,,,,,,,,,,,,,,,,,,,,,,,,,,,,,,,,,,,,,,,,,,,,,,,,,,
,,,,,,,,,63626a68cf44b4184483c8e8,Mexican,13 or older,"no, only English or Spanish",no,2025-07-24_11h42.50.484,empathy_intonation_perc_control,2024.2.4,Win32,60.60606061,63626a68cf44b4184483c8e8,68817205a84113384fffdfe3,6882544ecbe1780b98b45bb7,,,,,,,,,,,,./stim/wavs/mexican_mismatch_declarative-broad-focus_La-maestra-vive-en-Paris.wav,0,,,214.6882,216.8091,1,0,1.5927,,0,76,76,80,1,81,0,mexican,,,,,,,,,,,,,,,,,,,,,,,,,,,,,,,,,,,,,,,,,,,,,,,,,,,,,,,,
,,,,,,,,,63626a68cf44b4184483c8e8,Mexican,13 or older,"no, only English or Spanish",no,2025-07-24_11h42.50.484,empathy_intonation_perc_control,2024.2.4,Win32,60.60606061,63626a68cf44b4184483c8e8,68817205a84113384fffdfe3,6882544ecbe1780b98b45bb7,,,,,,,,,,,,./stim/wavs/puertorican_match_interrogative-total-yn_David-leia-el-libro.wav,1,,,216.8097,219.1544,1,1,1.8179,,0,77,77,20,1,21,1,puertorican,,,,,,,,,,,,,,,,,,,,,,,,,,,,,,,,,,,,,,,,,,,,,,,,,,,,,,,,
,,,,,,,,,63626a68cf44b4184483c8e8,Mexican,13 or older,"no, only English or Spanish",no,2025-07-24_11h42.50.484,empathy_intonation_perc_control,2024.2.4,Win32,60.60606061,63626a68cf44b4184483c8e8,68817205a84113384fffdfe3,6882544ecbe1780b98b45bb7,,,,,,,,,,,,./stim/wavs/mexican_match_interrogative-total-yn_Ana-lleva-el-abrigo.wav,1,,,219.1549,221.3212,1,1,1.6518,,0,78,78,12,1,13,0,mexican,,,,,,,,,,,,,,,,,,,,,,,,,,,,,,,,,,,,,,,,,,,,,,,,,,,,,,,,
,,,,,,,,,63626a68cf44b4184483c8e8,Mexican,13 or older,"no, only English or Spanish",no,2025-07-24_11h42.50.484,empathy_intonation_perc_control,2024.2.4,Win32,60.60606061,63626a68cf44b4184483c8e8,68817205a84113384fffdfe3,6882544ecbe1780b98b45bb7,,,,,,,,,,,,./stim/wavs/puertorican_match_interrogative-total-yn_Emilio-ama-la-marcha.wav,1,,,221.3219,223.7409,1,1,1.8921,,0,79,79,21,1,22,1,puertorican,,,,,,,,,,,,,,,,,,,,,,,,,,,,,,,,,,,,,,,,,,,,,,,,,,,,,,,,
,,,,,,,,,63626a68cf44b4184483c8e8,Mexican,13 or older,"no, only English or Spanish",no,2025-07-24_11h42.50.484,empathy_intonation_perc_control,2024.2.4,Win32,60.60606061,63626a68cf44b4184483c8e8,68817205a84113384fffdfe3,6882544ecbe1780b98b45bb7,,,,,,,,,,,,./stim/wavs/castilian_mismatch_declarative-broad-focus_El-nino-oye-el-rio.wav,0,,,223.7429,225.8048,0,1,1.538,,0,80,80,68,1,69,0,castilian,,,,,,,,,,,,,,,,,,,,,,,,,,,,,,,,,,,,,,,,,,,,,,,,,,,,,,,,
,,,,,,,,,63626a68cf44b4184483c8e8,Mexican,13 or older,"no, only English or Spanish",no,2025-07-24_11h42.50.484,empathy_intonation_perc_control,2024.2.4,Win32,60.60606061,63626a68cf44b4184483c8e8,68817205a84113384fffdfe3,6882544ecbe1780b98b45bb7,,,,,,,,,,,,./stim/wavs/puertorican_mismatch_declarative-broad-focus_El-nino-oye-el-rio.wav,0,,,225.8053,227.6378,0,1,1.3034,,0,81,81,85,1,86,0,puertorican,,,,,,,,,,,,,,,,,,,,,,,,,,,,,,,,,,,,,,,,,,,,,,,,,,,,,,,,
,,,,,,,,,63626a68cf44b4184483c8e8,Mexican,13 or older,"no, only English or Spanish",no,2025-07-24_11h42.50.484,empathy_intonation_perc_control,2024.2.4,Win32,60.60606061,63626a68cf44b4184483c8e8,68817205a84113384fffdfe3,6882544ecbe1780b98b45bb7,,,,,,,,,,,,./stim/wavs/puertorican_match_interrogative-total-yn_Manuela-vende-el-carro.wav,1,,,227.6382,229.5547,1,1,1.3854,,0,82,82,22,1,23,1,puertorican,,,,,,,,,,,,,,,,,,,,,,,,,,,,,,,,,,,,,,,,,,,,,,,,,,,,,,,,
,,,,,,,,,63626a68cf44b4184483c8e8,Mexican,13 or older,"no, only English or Spanish",no,2025-07-24_11h42.50.484,empathy_intonation_perc_control,2024.2.4,Win32,60.60606061,63626a68cf44b4184483c8e8,68817205a84113384fffdfe3,6882544ecbe1780b98b45bb7,,,,,,,,,,,,./stim/wavs/mexican_mismatch_declarative-broad-focus_Mi-tia-odia-la-lluvia.wav,0,,,229.5552,231.7905,0,1,1.7064,,0,83,83,82,1,83,0,mexican,,,,,,,,,,,,,,,,,,,,,,,,,,,,,,,,,,,,,,,,,,,,,,,,,,,,,,,,
,,,,,,,,,63626a68cf44b4184483c8e8,Mexican,13 or older,"no, only English or Spanish",no,2025-07-24_11h42.50.484,empathy_intonation_perc_control,2024.2.4,Win32,60.60606061,63626a68cf44b4184483c8e8,68817205a84113384fffdfe3,6882544ecbe1780b98b45bb7,,,,,,,,,,,,./stim/wavs/mexican_mismatch_interrogative-total-yn_Mi-novio-viene-del-lago.wav,1,,,231.7924,234.0712,1,1,1.7541,,0,84,84,37,1,38,0,mexican,,,,,,,,,,,,,,,,,,,,,,,,,,,,,,,,,,,,,,,,,,,,,,,,,,,,,,,,
,,,,,,,,,63626a68cf44b4184483c8e8,Mexican,13 or older,"no, only English or Spanish",no,2025-07-24_11h42.50.484,empathy_intonation_perc_control,2024.2.4,Win32,60.60606061,63626a68cf44b4184483c8e8,68817205a84113384fffdfe3,6882544ecbe1780b98b45bb7,,,,,,,,,,,,./stim/wavs/mexican_match_interrogative-total-yn_Emilio-ama-la-marcha.wav,1,,,234.0717,236.5711,1,1,1.969,,0,85,85,15,1,16,0,mexican,,,,,,,,,,,,,,,,,,,,,,,,,,,,,,,,,,,,,,,,,,,,,,,,,,,,,,,,
,,,,,,,,,63626a68cf44b4184483c8e8,Mexican,13 or older,"no, only English or Spanish",no,2025-07-24_11h42.50.484,empathy_intonation_perc_control,2024.2.4,Win32,60.60606061,63626a68cf44b4184483c8e8,68817205a84113384fffdfe3,6882544ecbe1780b98b45bb7,,,,,,,,,,,,./stim/wavs/castilian_match_interrogative-total-yn_Marta-abre-el-regalo.wav,1,,,236.5716,238.7711,1,1,1.67,,0,86,86,5,1,6,0,castilian,,,,,,,,,,,,,,,,,,,,,,,,,,,,,,,,,,,,,,,,,,,,,,,,,,,,,,,,
,,,,,,,,,63626a68cf44b4184483c8e8,Mexican,13 or older,"no, only English or Spanish",no,2025-07-24_11h42.50.484,empathy_intonation_perc_control,2024.2.4,Win32,60.60606061,63626a68cf44b4184483c8e8,68817205a84113384fffdfe3,6882544ecbe1780b98b45bb7,,,,,,,,,,,,./stim/wavs/mexican_match_declarative-broad-focus_Marta-abre-el-regalo.wav,0,,,238.7716,240.6211,0,1,1.3191,,0,87,87,61,1,62,0,mexican,,,,,,,,,,,,,,,,,,,,,,,,,,,,,,,,,,,,,,,,,,,,,,,,,,,,,,,,
,,,,,,,"Great! Now we will move on. The next task consists of about 60 trials, in each of which you will see a string of letters. 
  
  Your task is to decide whether this is a real Spanish word or not.", (press the spacebar to continue),63626a68cf44b4184483c8e8,Mexican,13 or older,"no, only English or Spanish",no,2025-07-24_11h42.50.484,empathy_intonation_perc_control,2024.2.4,Win32,60.60606061,63626a68cf44b4184483c8e8,68817205a84113384fffdfe3,6882544ecbe1780b98b45bb7,,,,,,,,,,,,,,,,,,,,,,,,,,,,,,240.6293,252.3135,0,0,0,0,1,,,,,,,,,,,,,,,,,,,,,,,,,,,,,,,,,,,,,,,,,,,,,,,,,
,,,,,,,"If you think it is an existing Spanish word, you type '1' (for 'REAL'), and if you think it is not an existing Spanish word, you type '0' (for 'FAKE').", (press the spacebar to continue),63626a68cf44b4184483c8e8,Mexican,13 or older,"no, only English or Spanish",no,2025-07-24_11h42.50.484,empathy_intonation_perc_control,2024.2.4,Win32,60.60606061,63626a68cf44b4184483c8e8,68817205a84113384fffdfe3,6882544ecbe1780b98b45bb7,,,,,,,,,,,,,,,,,,,,,,,,,,,,,,252.3137,257.8752,0,1,1,1,1,,,,,,,,,,,,,,,,,,,,,,,,,,,,,,,,,,,,,,,,,,,,,,,,,
,,,,,,,"If you are sure that the word exists, even though you don’t know its exact meaning, you may still respond '1' (REAL). 
  
  But if you are not sure if it is an existing word, you should respond '0' (FAKE).
  
  Let's do a practice round...", (press the spacebar to continue),63626a68cf44b4184483c8e8,Mexican,13 or older,"no, only English or Spanish",no,2025-07-24_11h42.50.484,empathy_intonation_perc_control,2024.2.4,Win32,60.60606061,63626a68cf44b4184483c8e8,68817205a84113384fffdfe3,6882544ecbe1780b98b45bb7,,,,,,,,,,,,,,,,,,,,,,,,,,,,,,257.8755,261.9896,0,2,2,2,1,,,,,,,,,,,,,,,,,,,,,,,,,,,,,,,,,,,,,,,,,,,,,,,,,
,,,,,,,,,63626a68cf44b4184483c8e8,Mexican,13 or older,"no, only English or Spanish",no,2025-07-24_11h42.50.484,empathy_intonation_perc_control,2024.2.4,Win32,60.60606061,63626a68cf44b4184483c8e8,68817205a84113384fffdfe3,6882544ecbe1780b98b45bb7,,,,,,,,,,,,,0,,,,,,,,,,,,,,,,,,,,,,,,262.0023,264.5574,1,0,2.0235,,264.5579,265.5571,0,0,0,0,1,0,depiste,REAL,FAKE,,,,,,,,,,,,,,,,,,,,,,,,,,,,,,,,
,,,,,,,,,63626a68cf44b4184483c8e8,Mexican,13 or older,"no, only English or Spanish",no,2025-07-24_11h42.50.484,empathy_intonation_perc_control,2024.2.4,Win32,60.60606061,63626a68cf44b4184483c8e8,68817205a84113384fffdfe3,6882544ecbe1780b98b45bb7,,,,,,,,,,,,,1,,,,,,,,,,,,,,,,,,,,,,,,265.5696,267.0993,1,1,1.0029,,267.1,268.0922,0,1,1,1,1,0,sí,REAL,FAKE,,,,,,,,,,,,,,,,,,,,,,,,,,,,,,,,
,,,,,,,,,63626a68cf44b4184483c8e8,Mexican,13 or older,"no, only English or Spanish",no,2025-07-24_11h42.50.484,empathy_intonation_perc_control,2024.2.4,Win32,60.60606061,63626a68cf44b4184483c8e8,68817205a84113384fffdfe3,6882544ecbe1780b98b45bb7,,,,,,,,,,,,,0,,,,,,,,,,,,,,,,,,,,,,,,268.0942,269.5578,0,1,0.9434,,269.5578,270.5628,0,2,2,2,1,0,coné,REAL,FAKE,,,,,,,,,,,,,,,,,,,,,,,,,,,,,,,,
,,,,,,,,,63626a68cf44b4184483c8e8,Mexican,13 or older,"no, only English or Spanish",no,2025-07-24_11h42.50.484,empathy_intonation_perc_control,2024.2.4,Win32,60.60606061,63626a68cf44b4184483c8e8,68817205a84113384fffdfe3,6882544ecbe1780b98b45bb7,,,,,,,,,,,,,0,,,,,,,,,,,,,,,,,,,,,,,,270.5646,272.4308,0,1,1.3337,,272.431,273.4236,0,3,3,3,1,0,calpar,REAL,FAKE,,,,,,,,,,,,,,,,,,,,,,,,,,,,,,,,
,,,,,,,,,63626a68cf44b4184483c8e8,Mexican,13 or older,"no, only English or Spanish",no,2025-07-24_11h42.50.484,empathy_intonation_perc_control,2024.2.4,Win32,60.60606061,63626a68cf44b4184483c8e8,68817205a84113384fffdfe3,6882544ecbe1780b98b45bb7,,,,,,,,,,,,,0,,,,,,,,,,,,,,,,,,,,,,,,273.426,274.6225,0,1,0.6702,,274.6227,275.6234,0,4,4,4,1,0,joten,REAL,FAKE,,,,,,,,,,,,,,,,,,,,,,,,,,,,,,,,
,,,,,,,,,63626a68cf44b4184483c8e8,Mexican,13 or older,"no, only English or Spanish",no,2025-07-24_11h42.50.484,empathy_intonation_perc_control,2024.2.4,Win32,60.60606061,63626a68cf44b4184483c8e8,68817205a84113384fffdfe3,6882544ecbe1780b98b45bb7,,,,,,,,,,,,,1,,,,,,,,,,,,,,,,,,,,,,,,275.6258,277.008,1,1,0.8429,,277.0081,278.0055,0,5,5,5,1,0,sacapuntas,REAL,FAKE,,,,,,,,,,,,,,,,,,,,,,,,,,,,,,,,
,,,,,,,,,63626a68cf44b4184483c8e8,Mexican,13 or older,"no, only English or Spanish",no,2025-07-24_11h42.50.484,empathy_intonation_perc_control,2024.2.4,Win32,60.60606061,63626a68cf44b4184483c8e8,68817205a84113384fffdfe3,6882544ecbe1780b98b45bb7,,,,,,,,,,,,,0,,,,,,,,,,,,,,,,,,,,,,,,278.0091,279.3495,0,1,0.8025,,279.3495,280.3432,0,6,6,6,1,0,priba,REAL,FAKE,,,,,,,,,,,,,,,,,,,,,,,,,,,,,,,,
,,,,,,,,,63626a68cf44b4184483c8e8,Mexican,13 or older,"no, only English or Spanish",no,2025-07-24_11h42.50.484,empathy_intonation_perc_control,2024.2.4,Win32,60.60606061,63626a68cf44b4184483c8e8,68817205a84113384fffdfe3,6882544ecbe1780b98b45bb7,,,,,,,,,,,,,0,,,,,,,,,,,,,,,,,,,,,,,,280.3451,281.806,0,1,0.9206,,281.8065,282.8072,0,7,7,7,1,0,pelasula,REAL,FAKE,,,,,,,,,,,,,,,,,,,,,,,,,,,,,,,,
,,,,,,,,,63626a68cf44b4184483c8e8,Mexican,13 or older,"no, only English or Spanish",no,2025-07-24_11h42.50.484,empathy_intonation_perc_control,2024.2.4,Win32,60.60606061,63626a68cf44b4184483c8e8,68817205a84113384fffdfe3,6882544ecbe1780b98b45bb7,,,,,,,,,,,,,1,,,,,,,,,,,,,,,,,,,,,,,,282.8087,283.9395,1,1,0.604,,283.9398,284.9307,0,8,8,8,1,0,bien,REAL,FAKE,,,,,,,,,,,,,,,,,,,,,,,,,,,,,,,,
,,,,,,,,,63626a68cf44b4184483c8e8,Mexican,13 or older,"no, only English or Spanish",no,2025-07-24_11h42.50.484,empathy_intonation_perc_control,2024.2.4,Win32,60.60606061,63626a68cf44b4184483c8e8,68817205a84113384fffdfe3,6882544ecbe1780b98b45bb7,,,,,,,,,,,,,1,,,,,,,,,,,,,,,,,,,,,,,,284.9324,285.973,1,1,0.5077,,285.9732,286.9806,0,9,9,9,1,0,casa,REAL,FAKE,,,,,,,,,,,,,,,,,,,,,,,,,,,,,,,,
,,,,,,,,,63626a68cf44b4184483c8e8,Mexican,13 or older,"no, only English or Spanish",no,2025-07-24_11h42.50.484,empathy_intonation_perc_control,2024.2.4,Win32,60.60606061,63626a68cf44b4184483c8e8,68817205a84113384fffdfe3,6882544ecbe1780b98b45bb7,,,,,,,,,,,,,0,,,,,,,,,,,,,,,,,,,,,,,,286.9823,288.0847,1,0,0.5869,,288.0854,289.0796,0,10,10,10,1,0,lejo,REAL,FAKE,,,,,,,,,,,,,,,,,,,,,,,,,,,,,,,,
,,,,,,,,,63626a68cf44b4184483c8e8,Mexican,13 or older,"no, only English or Spanish",no,2025-07-24_11h42.50.484,empathy_intonation_perc_control,2024.2.4,Win32,60.60606061,63626a68cf44b4184483c8e8,68817205a84113384fffdfe3,6882544ecbe1780b98b45bb7,,,,,,,,,,,,,0,,,,,,,,,,,,,,,,,,,,,,,,289.0808,290.4044,0,1,0.787,,290.4073,291.4065,0,11,11,11,1,0,pretantas,REAL,FAKE,,,,,,,,,,,,,,,,,,,,,,,,,,,,,,,,
,,,,,,,,,63626a68cf44b4184483c8e8,Mexican,13 or older,"no, only English or Spanish",no,2025-07-24_11h42.50.484,empathy_intonation_perc_control,2024.2.4,Win32,60.60606061,63626a68cf44b4184483c8e8,68817205a84113384fffdfe3,6882544ecbe1780b98b45bb7,,,,,,,,,,,,,,,,,,,,,,,,,,,,,,,,,,,,,,,,,,,,,,,,,,,,,,291.4081,292.7505,,,,,,,,,,,,,,,,,,,,,,,,,,,,,,
,,,,,,,,,63626a68cf44b4184483c8e8,Mexican,13 or older,"no, only English or Spanish",no,2025-07-24_11h42.50.484,empathy_intonation_perc_control,2024.2.4,Win32,60.60606061,63626a68cf44b4184483c8e8,68817205a84113384fffdfe3,6882544ecbe1780b98b45bb7,,,,,,,,,,,,,0,,,,,,,,,,,,,,,,,,,,,,,,,,,,,,,,,,,,,66,hacido,,,,,292.7654,294.8074,0,1,1.5189,,0,0,0,65,1,REAL,FAKE,,,,,,,,,,,,,,,,,
,,,,,,,,,63626a68cf44b4184483c8e8,Mexican,13 or older,"no, only English or Spanish",no,2025-07-24_11h42.50.484,empathy_intonation_perc_control,2024.2.4,Win32,60.60606061,63626a68cf44b4184483c8e8,68817205a84113384fffdfe3,6882544ecbe1780b98b45bb7,,,,,,,,,,,,,0,,,,,,,,,,,,,,,,,,,,,,,,,,,,,,,,,,,,,72,pemición,,,,,294.81,296.571,0,1,1.2343,,0,1,1,71,1,REAL,FAKE,,,,,,,,,,,,,,,,,
,,,,,,,,,63626a68cf44b4184483c8e8,Mexican,13 or older,"no, only English or Spanish",no,2025-07-24_11h42.50.484,empathy_intonation_perc_control,2024.2.4,Win32,60.60606061,63626a68cf44b4184483c8e8,68817205a84113384fffdfe3,6882544ecbe1780b98b45bb7,,,,,,,,,,,,,1,,,,,,,,,,,,,,,,,,,,,,,,,,,,,,,,,,,,,78,frondoso,,,,,296.5727,297.8214,0,0,0.7315,,0,2,2,77,1,REAL,FAKE,,,,,,,,,,,,,,,,,
,,,,,,,,,63626a68cf44b4184483c8e8,Mexican,13 or older,"no, only English or Spanish",no,2025-07-24_11h42.50.484,empathy_intonation_perc_control,2024.2.4,Win32,60.60606061,63626a68cf44b4184483c8e8,68817205a84113384fffdfe3,6882544ecbe1780b98b45bb7,,,,,,,,,,,,,0,,,,,,,,,,,,,,,,,,,,,,,,,,,,,,,,,,,,,19,brecedad,,,,,297.8221,299.0709,0,1,0.7189,,0,3,3,18,1,REAL,FAKE,,,,,,,,,,,,,,,,,
,,,,,,,,,63626a68cf44b4184483c8e8,Mexican,13 or older,"no, only English or Spanish",no,2025-07-24_11h42.50.484,empathy_intonation_perc_control,2024.2.4,Win32,60.60606061,63626a68cf44b4184483c8e8,68817205a84113384fffdfe3,6882544ecbe1780b98b45bb7,,,,,,,,,,,,,1,,,,,,,,,,,,,,,,,,,,,,,,,,,,,,,,,,,,,71,polvoriento,,,,,299.0735,300.3877,0,0,0.7823,,0,4,4,70,1,REAL,FAKE,,,,,,,,,,,,,,,,,
,,,,,,,,,63626a68cf44b4184483c8e8,Mexican,13 or older,"no, only English or Spanish",no,2025-07-24_11h42.50.484,empathy_intonation_perc_control,2024.2.4,Win32,60.60606061,63626a68cf44b4184483c8e8,68817205a84113384fffdfe3,6882544ecbe1780b98b45bb7,,,,,,,,,,,,,1,,,,,,,,,,,,,,,,,,,,,,,,,,,,,,,,,,,,,40,alfombra,,,,,300.3885,301.6377,1,1,0.7345,,0,5,5,39,1,REAL,FAKE,,,,,,,,,,,,,,,,,
,,,,,,,,,63626a68cf44b4184483c8e8,Mexican,13 or older,"no, only English or Spanish",no,2025-07-24_11h42.50.484,empathy_intonation_perc_control,2024.2.4,Win32,60.60606061,63626a68cf44b4184483c8e8,68817205a84113384fffdfe3,6882544ecbe1780b98b45bb7,,,,,,,,,,,,,0,,,,,,,,,,,,,,,,,,,,,,,,,,,,,,,,,,,,,82,empirador,,,,,301.6388,303.2381,1,0,1.0699,,0,6,6,81,1,REAL,FAKE,,,,,,,,,,,,,,,,,
,,,,,,,,,63626a68cf44b4184483c8e8,Mexican,13 or older,"no, only English or Spanish",no,2025-07-24_11h42.50.484,empathy_intonation_perc_control,2024.2.4,Win32,60.60606061,63626a68cf44b4184483c8e8,68817205a84113384fffdfe3,6882544ecbe1780b98b45bb7,,,,,,,,,,,,,1,,,,,,,,,,,,,,,,,,,,,,,,,,,,,,,,,,,,,73,hervidor,,,,,303.2394,304.5877,0,0,0.8158,,0,7,7,72,1,REAL,FAKE,,,,,,,,,,,,,,,,,
,,,,,,,,,63626a68cf44b4184483c8e8,Mexican,13 or older,"no, only English or Spanish",no,2025-07-24_11h42.50.484,empathy_intonation_perc_control,2024.2.4,Win32,60.60606061,63626a68cf44b4184483c8e8,68817205a84113384fffdfe3,6882544ecbe1780b98b45bb7,,,,,,,,,,,,,1,,,,,,,,,,,,,,,,,,,,,,,,,,,,,,,,,,,,,24,látigo,,,,,304.5912,306.1044,0,0,0.9839,,0,8,8,23,1,REAL,FAKE,,,,,,,,,,,,,,,,,
,,,,,,,,,63626a68cf44b4184483c8e8,Mexican,13 or older,"no, only English or Spanish",no,2025-07-24_11h42.50.484,empathy_intonation_perc_control,2024.2.4,Win32,60.60606061,63626a68cf44b4184483c8e8,68817205a84113384fffdfe3,6882544ecbe1780b98b45bb7,,,,,,,,,,,,,0,,,,,,,,,,,,,,,,,,,,,,,,,,,,,,,,,,,,,21,capillo,,,,,306.1053,309.1208,1,0,2.4856,,0,9,9,20,1,REAL,FAKE,,,,,,,,,,,,,,,,,
,,,,,,,,,63626a68cf44b4184483c8e8,Mexican,13 or older,"no, only English or Spanish",no,2025-07-24_11h42.50.484,empathy_intonation_perc_control,2024.2.4,Win32,60.60606061,63626a68cf44b4184483c8e8,68817205a84113384fffdfe3,6882544ecbe1780b98b45bb7,,,,,,,,,,,,,0,,,,,,,,,,,,,,,,,,,,,,,,,,,,,,,,,,,,,87,grodo,,,,,309.1217,310.3256,0,1,0.69,,0,10,10,86,1,REAL,FAKE,,,,,,,,,,,,,,,,,
,,,,,,,,,63626a68cf44b4184483c8e8,Mexican,13 or older,"no, only English or Spanish",no,2025-07-24_11h42.50.484,empathy_intonation_perc_control,2024.2.4,Win32,60.60606061,63626a68cf44b4184483c8e8,68817205a84113384fffdfe3,6882544ecbe1780b98b45bb7,,,,,,,,,,,,,1,,,,,,,,,,,,,,,,,,,,,,,,,,,,,,,,,,,,,39,torpe,,,,,310.327,311.838,0,0,0.9861,,0,11,11,38,1,REAL,FAKE,,,,,,,,,,,,,,,,,
,,,,,,,,,63626a68cf44b4184483c8e8,Mexican,13 or older,"no, only English or Spanish",no,2025-07-24_11h42.50.484,empathy_intonation_perc_control,2024.2.4,Win32,60.60606061,63626a68cf44b4184483c8e8,68817205a84113384fffdfe3,6882544ecbe1780b98b45bb7,,,,,,,,,,,,,1,,,,,,,,,,,,,,,,,,,,,,,,,,,,,,,,,,,,,11,cenefa,,,,,311.8388,312.9543,0,0,0.5855,,0,12,12,10,1,REAL,FAKE,,,,,,,,,,,,,,,,,
,,,,,,,,,63626a68cf44b4184483c8e8,Mexican,13 or older,"no, only English or Spanish",no,2025-07-24_11h42.50.484,empathy_intonation_perc_control,2024.2.4,Win32,60.60606061,63626a68cf44b4184483c8e8,68817205a84113384fffdfe3,6882544ecbe1780b98b45bb7,,,,,,,,,,,,,1,,,,,,,,,,,,,,,,,,,,,,,,,,,,,,,,,,,,,6,tergiversar,,,,,312.9554,314.0379,0,0,0.5504,,0,13,13,5,1,REAL,FAKE,,,,,,,,,,,,,,,,,
,,,,,,,,,63626a68cf44b4184483c8e8,Mexican,13 or older,"no, only English or Spanish",no,2025-07-24_11h42.50.484,empathy_intonation_perc_control,2024.2.4,Win32,60.60606061,63626a68cf44b4184483c8e8,68817205a84113384fffdfe3,6882544ecbe1780b98b45bb7,,,,,,,,,,,,,1,,,,,,,,,,,,,,,,,,,,,,,,,,,,,,,,,,,,,61,seda,,,,,314.0389,315.3594,0,0,0.7915,,0,14,14,60,1,REAL,FAKE,,,,,,,,,,,,,,,,,
,,,,,,,,,63626a68cf44b4184483c8e8,Mexican,13 or older,"no, only English or Spanish",no,2025-07-24_11h42.50.484,empathy_intonation_perc_control,2024.2.4,Win32,60.60606061,63626a68cf44b4184483c8e8,68817205a84113384fffdfe3,6882544ecbe1780b98b45bb7,,,,,,,,,,,,,1,,,,,,,,,,,,,,,,,,,,,,,,,,,,,,,,,,,,,81,pozo,,,,,315.3608,316.4875,0,0,0.6007,,0,15,15,80,1,REAL,FAKE,,,,,,,,,,,,,,,,,
,,,,,,,,,63626a68cf44b4184483c8e8,Mexican,13 or older,"no, only English or Spanish",no,2025-07-24_11h42.50.484,empathy_intonation_perc_control,2024.2.4,Win32,60.60606061,63626a68cf44b4184483c8e8,68817205a84113384fffdfe3,6882544ecbe1780b98b45bb7,,,,,,,,,,,,,1,,,,,,,,,,,,,,,,,,,,,,,,,,,,,,,,,,,,,3,pulmones,,,,,316.4886,317.7713,1,1,0.7654,,0,16,16,2,1,REAL,FAKE,,,,,,,,,,,,,,,,,
,,,,,,,,,63626a68cf44b4184483c8e8,Mexican,13 or older,"no, only English or Spanish",no,2025-07-24_11h42.50.484,empathy_intonation_perc_control,2024.2.4,Win32,60.60606061,63626a68cf44b4184483c8e8,68817205a84113384fffdfe3,6882544ecbe1780b98b45bb7,,,,,,,,,,,,,1,,,,,,,,,,,,,,,,,,,,,,,,,,,,,,,,,,,,,57,tacaño,,,,,317.7733,319.0547,1,1,0.7525,,0,17,17,56,1,REAL,FAKE,,,,,,,,,,,,,,,,,
,,,,,,,,,63626a68cf44b4184483c8e8,Mexican,13 or older,"no, only English or Spanish",no,2025-07-24_11h42.50.484,empathy_intonation_perc_control,2024.2.4,Win32,60.60606061,63626a68cf44b4184483c8e8,68817205a84113384fffdfe3,6882544ecbe1780b98b45bb7,,,,,,,,,,,,,1,,,,,,,,,,,,,,,,,,,,,,,,,,,,,,,,,,,,,13,helar,,,,,319.0556,320.3112,0,0,0.7259,,0,18,18,12,1,REAL,FAKE,,,,,,,,,,,,,,,,,
,,,,,,,,,63626a68cf44b4184483c8e8,Mexican,13 or older,"no, only English or Spanish",no,2025-07-24_11h42.50.484,empathy_intonation_perc_control,2024.2.4,Win32,60.60606061,63626a68cf44b4184483c8e8,68817205a84113384fffdfe3,6882544ecbe1780b98b45bb7,,,,,,,,,,,,,0,,,,,,,,,,,,,,,,,,,,,,,,,,,,,,,,,,,,,58,plaudir,,,,,320.3119,321.5901,0,1,0.7389,,0,19,19,57,1,REAL,FAKE,,,,,,,,,,,,,,,,,
,,,,,,,,,63626a68cf44b4184483c8e8,Mexican,13 or older,"no, only English or Spanish",no,2025-07-24_11h42.50.484,empathy_intonation_perc_control,2024.2.4,Win32,60.60606061,63626a68cf44b4184483c8e8,68817205a84113384fffdfe3,6882544ecbe1780b98b45bb7,,,,,,,,,,,,,0,,,,,,,,,,,,,,,,,,,,,,,,,,,,,,,,,,,,,1,terzo,,,,,321.5918,322.9065,0,1,0.7736,,0,20,20,0,1,REAL,FAKE,,,,,,,,,,,,,,,,,
,,,,,,,,,63626a68cf44b4184483c8e8,Mexican,13 or older,"no, only English or Spanish",no,2025-07-24_11h42.50.484,empathy_intonation_perc_control,2024.2.4,Win32,60.60606061,63626a68cf44b4184483c8e8,68817205a84113384fffdfe3,6882544ecbe1780b98b45bb7,,,,,,,,,,,,,1,,,,,,,,,,,,,,,,,,,,,,,,,,,,,,,,,,,,,83,guante,,,,,322.9084,324.2725,1,1,0.8206,,0,21,21,82,1,REAL,FAKE,,,,,,,,,,,,,,,,,
,,,,,,,,,63626a68cf44b4184483c8e8,Mexican,13 or older,"no, only English or Spanish",no,2025-07-24_11h42.50.484,empathy_intonation_perc_control,2024.2.4,Win32,60.60606061,63626a68cf44b4184483c8e8,68817205a84113384fffdfe3,6882544ecbe1780b98b45bb7,,,,,,,,,,,,,1,,,,,,,,,,,,,,,,,,,,,,,,,,,,,,,,,,,,,49,ganar,,,,,324.2748,325.4438,1,1,0.6475,,0,22,22,48,1,REAL,FAKE,,,,,,,,,,,,,,,,,
,,,,,,,,,63626a68cf44b4184483c8e8,Mexican,13 or older,"no, only English or Spanish",no,2025-07-24_11h42.50.484,empathy_intonation_perc_control,2024.2.4,Win32,60.60606061,63626a68cf44b4184483c8e8,68817205a84113384fffdfe3,6882544ecbe1780b98b45bb7,,,,,,,,,,,,,0,,,,,,,,,,,,,,,,,,,,,,,,,,,,,,,,,,,,,32,fatacidad,,,,,325.4444,327.8167,0,1,1.8362,,0,23,23,31,1,REAL,FAKE,,,,,,,,,,,,,,,,,
,,,,,,,,,63626a68cf44b4184483c8e8,Mexican,13 or older,"no, only English or Spanish",no,2025-07-24_11h42.50.484,empathy_intonation_perc_control,2024.2.4,Win32,60.60606061,63626a68cf44b4184483c8e8,68817205a84113384fffdfe3,6882544ecbe1780b98b45bb7,,,,,,,,,,,,,1,,,,,,,,,,,,,,,,,,,,,,,,,,,,,,,,,,,,,75,yacer,,,,,327.8181,329.0349,0,0,0.6883,,0,24,24,74,1,REAL,FAKE,,,,,,,,,,,,,,,,,
,,,,,,,,,63626a68cf44b4184483c8e8,Mexican,13 or older,"no, only English or Spanish",no,2025-07-24_11h42.50.484,empathy_intonation_perc_control,2024.2.4,Win32,60.60606061,63626a68cf44b4184483c8e8,68817205a84113384fffdfe3,6882544ecbe1780b98b45bb7,,,,,,,,,,,,,1,,,,,,,,,,,,,,,,,,,,,,,,,,,,,,,,,,,,,77,tiburón,,,,,329.0356,330.3064,1,1,0.7392,,0,25,25,76,1,REAL,FAKE,,,,,,,,,,,,,,,,,
,,,,,,,,,63626a68cf44b4184483c8e8,Mexican,13 or older,"no, only English or Spanish",no,2025-07-24_11h42.50.484,empathy_intonation_perc_control,2024.2.4,Win32,60.60606061,63626a68cf44b4184483c8e8,68817205a84113384fffdfe3,6882544ecbe1780b98b45bb7,,,,,,,,,,,,,0,,,,,,,,,,,,,,,,,,,,,,,,,,,,,,,,,,,,,10,antar,,,,,330.3083,332.2216,0,1,1.3718,,0,26,26,9,1,REAL,FAKE,,,,,,,,,,,,,,,,,
,,,,,,,,,63626a68cf44b4184483c8e8,Mexican,13 or older,"no, only English or Spanish",no,2025-07-24_11h42.50.484,empathy_intonation_perc_control,2024.2.4,Win32,60.60606061,63626a68cf44b4184483c8e8,68817205a84113384fffdfe3,6882544ecbe1780b98b45bb7,,,,,,,,,,,,,1,,,,,,,,,,,,,,,,,,,,,,,,,,,,,,,,,,,,,68,alegre,,,,,332.2252,333.5402,1,1,0.7756,,0,27,27,67,1,REAL,FAKE,,,,,,,,,,,,,,,,,
,,,,,,,,,63626a68cf44b4184483c8e8,Mexican,13 or older,"no, only English or Spanish",no,2025-07-24_11h42.50.484,empathy_intonation_perc_control,2024.2.4,Win32,60.60606061,63626a68cf44b4184483c8e8,68817205a84113384fffdfe3,6882544ecbe1780b98b45bb7,,,,,,,,,,,,,1,,,,,,,,,,,,,,,,,,,,,,,,,,,,,,,,,,,,,62,flaco,,,,,333.5416,334.7105,0,0,0.63,,0,28,28,61,1,REAL,FAKE,,,,,,,,,,,,,,,,,
,,,,,,,,,63626a68cf44b4184483c8e8,Mexican,13 or older,"no, only English or Spanish",no,2025-07-24_11h42.50.484,empathy_intonation_perc_control,2024.2.4,Win32,60.60606061,63626a68cf44b4184483c8e8,68817205a84113384fffdfe3,6882544ecbe1780b98b45bb7,,,,,,,,,,,,,0,,,,,,,,,,,,,,,,,,,,,,,,,,,,,,,,,,,,,53,vegada,,,,,334.7113,336.0232,0,1,0.7725,,0,29,29,52,1,REAL,FAKE,,,,,,,,,,,,,,,,,
,,,,,,,,,63626a68cf44b4184483c8e8,Mexican,13 or older,"no, only English or Spanish",no,2025-07-24_11h42.50.484,empathy_intonation_perc_control,2024.2.4,Win32,60.60606061,63626a68cf44b4184483c8e8,68817205a84113384fffdfe3,6882544ecbe1780b98b45bb7,,,,,,,,,,,,,1,,,,,,,,,,,,,,,,,,,,,,,,,,,,,,,,,,,,,46,martillo,,,,,336.0253,337.2651,0,0,0.7015,,0,30,30,45,1,REAL,FAKE,,,,,,,,,,,,,,,,,
,,,,,,,,,63626a68cf44b4184483c8e8,Mexican,13 or older,"no, only English or Spanish",no,2025-07-24_11h42.50.484,empathy_intonation_perc_control,2024.2.4,Win32,60.60606061,63626a68cf44b4184483c8e8,68817205a84113384fffdfe3,6882544ecbe1780b98b45bb7,,,,,,,,,,,,,1,,,,,,,,,,,,,,,,,,,,,,,,,,,,,,,,,,,,,38,estornudar,,,,,337.2658,339.1017,0,0,1.3047,,0,31,31,37,1,REAL,FAKE,,,,,,,,,,,,,,,,,
,,,,,,,,,63626a68cf44b4184483c8e8,Mexican,13 or older,"no, only English or Spanish",no,2025-07-24_11h42.50.484,empathy_intonation_perc_control,2024.2.4,Win32,60.60606061,63626a68cf44b4184483c8e8,68817205a84113384fffdfe3,6882544ecbe1780b98b45bb7,,,,,,,,,,,,,0,,,,,,,,,,,,,,,,,,,,,,,,,,,,,,,,,,,,,4,batillón,,,,,339.1031,340.4604,1,0,0.8302,,0,32,32,3,1,REAL,FAKE,,,,,,,,,,,,,,,,,
,,,,,,,,,63626a68cf44b4184483c8e8,Mexican,13 or older,"no, only English or Spanish",no,2025-07-24_11h42.50.484,empathy_intonation_perc_control,2024.2.4,Win32,60.60606061,63626a68cf44b4184483c8e8,68817205a84113384fffdfe3,6882544ecbe1780b98b45bb7,,,,,,,,,,,,,1,,,,,,,,,,,,,,,,,,,,,,,,,,,,,,,,,,,,,55,nevar,,,,,340.4612,341.9092,1,1,0.9116,,0,33,33,54,1,REAL,FAKE,,,,,,,,,,,,,,,,,
,,,,,,,,,63626a68cf44b4184483c8e8,Mexican,13 or older,"no, only English or Spanish",no,2025-07-24_11h42.50.484,empathy_intonation_perc_control,2024.2.4,Win32,60.60606061,63626a68cf44b4184483c8e8,68817205a84113384fffdfe3,6882544ecbe1780b98b45bb7,,,,,,,,,,,,,0,,,,,,,,,,,,,,,,,,,,,,,,,,,,,,,,,,,,,30,alardio,,,,,341.9101,343.1831,0,1,0.7369,,0,34,34,29,1,REAL,FAKE,,,,,,,,,,,,,,,,,
,,,,,,,,,63626a68cf44b4184483c8e8,Mexican,13 or older,"no, only English or Spanish",no,2025-07-24_11h42.50.484,empathy_intonation_perc_control,2024.2.4,Win32,60.60606061,63626a68cf44b4184483c8e8,68817205a84113384fffdfe3,6882544ecbe1780b98b45bb7,,,,,,,,,,,,,0,,,,,,,,,,,,,,,,,,,,,,,,,,,,,,,,,,,,,18,arsa,,,,,343.1843,344.4227,0,1,0.7061,,0,35,35,17,1,REAL,FAKE,,,,,,,,,,,,,,,,,
,,,,,,,,,63626a68cf44b4184483c8e8,Mexican,13 or older,"no, only English or Spanish",no,2025-07-24_11h42.50.484,empathy_intonation_perc_control,2024.2.4,Win32,60.60606061,63626a68cf44b4184483c8e8,68817205a84113384fffdfe3,6882544ecbe1780b98b45bb7,,,,,,,,,,,,,1,,,,,,,,,,,,,,,,,,,,,,,,,,,,,,,,,,,,,90,clavel,,,,,344.4253,345.5412,0,0,0.5934,,0,36,36,89,1,REAL,FAKE,,,,,,,,,,,,,,,,,
,,,,,,,,,63626a68cf44b4184483c8e8,Mexican,13 or older,"no, only English or Spanish",no,2025-07-24_11h42.50.484,empathy_intonation_perc_control,2024.2.4,Win32,60.60606061,63626a68cf44b4184483c8e8,68817205a84113384fffdfe3,6882544ecbe1780b98b45bb7,,,,,,,,,,,,,1,,,,,,,,,,,,,,,,,,,,,,,,,,,,,,,,,,,,,52,camisa,,,,,345.5422,346.7061,1,1,0.6421,,0,37,37,51,1,REAL,FAKE,,,,,,,,,,,,,,,,,
,,,,,,,,,63626a68cf44b4184483c8e8,Mexican,13 or older,"no, only English or Spanish",no,2025-07-24_11h42.50.484,empathy_intonation_perc_control,2024.2.4,Win32,60.60606061,63626a68cf44b4184483c8e8,68817205a84113384fffdfe3,6882544ecbe1780b98b45bb7,,,,,,,,,,,,,1,,,,,,,,,,,,,,,,,,,,,,,,,,,,,,,,,,,,,76,atar,,,,,346.7083,347.8732,0,0,0.6216,,0,38,38,75,1,REAL,FAKE,,,,,,,,,,,,,,,,,
,,,,,,,,,63626a68cf44b4184483c8e8,Mexican,13 or older,"no, only English or Spanish",no,2025-07-24_11h42.50.484,empathy_intonation_perc_control,2024.2.4,Win32,60.60606061,63626a68cf44b4184483c8e8,68817205a84113384fffdfe3,6882544ecbe1780b98b45bb7,,,,,,,,,,,,,1,,,,,,,,,,,,,,,,,,,,,,,,,,,,,,,,,,,,,59,besar,,,,,347.8747,349.1064,1,1,0.6884,,0,39,39,58,1,REAL,FAKE,,,,,,,,,,,,,,,,,
,,,,,,,,,63626a68cf44b4184483c8e8,Mexican,13 or older,"no, only English or Spanish",no,2025-07-24_11h42.50.484,empathy_intonation_perc_control,2024.2.4,Win32,60.60606061,63626a68cf44b4184483c8e8,68817205a84113384fffdfe3,6882544ecbe1780b98b45bb7,,,,,,,,,,,,,1,,,,,,,,,,,,,,,,,,,,,,,,,,,,,,,,,,,,,15,regar,,,,,349.1086,350.2564,1,1,0.6227,,0,40,40,14,1,REAL,FAKE,,,,,,,,,,,,,,,,,
,,,,,,,,,63626a68cf44b4184483c8e8,Mexican,13 or older,"no, only English or Spanish",no,2025-07-24_11h42.50.484,empathy_intonation_perc_control,2024.2.4,Win32,60.60606061,63626a68cf44b4184483c8e8,68817205a84113384fffdfe3,6882544ecbe1780b98b45bb7,,,,,,,,,,,,,1,,,,,,,,,,,,,,,,,,,,,,,,,,,,,,,,,,,,,12,asesinato,,,,,350.2589,351.9241,1,1,1.1251,,0,41,41,11,1,REAL,FAKE,,,,,,,,,,,,,,,,,
,,,,,,,,,63626a68cf44b4184483c8e8,Mexican,13 or older,"no, only English or Spanish",no,2025-07-24_11h42.50.484,empathy_intonation_perc_control,2024.2.4,Win32,60.60606061,63626a68cf44b4184483c8e8,68817205a84113384fffdfe3,6882544ecbe1780b98b45bb7,,,,,,,,,,,,,1,,,,,,,,,,,,,,,,,,,,,,,,,,,,,,,,,,,,,43,canela,,,,,351.9253,353.5398,1,1,1.0893,,0,42,42,42,1,REAL,FAKE,,,,,,,,,,,,,,,,,
,,,,,,,,,63626a68cf44b4184483c8e8,Mexican,13 or older,"no, only English or Spanish",no,2025-07-24_11h42.50.484,empathy_intonation_perc_control,2024.2.4,Win32,60.60606061,63626a68cf44b4184483c8e8,68817205a84113384fffdfe3,6882544ecbe1780b98b45bb7,,,,,,,,,,,,,0,,,,,,,,,,,,,,,,,,,,,,,,,,,,,,,,,,,,,27,acutación,,,,,353.5417,355.426,0,1,1.3457,,0,43,43,26,1,REAL,FAKE,,,,,,,,,,,,,,,,,
,,,,,,,,,63626a68cf44b4184483c8e8,Mexican,13 or older,"no, only English or Spanish",no,2025-07-24_11h42.50.484,empathy_intonation_perc_control,2024.2.4,Win32,60.60606061,63626a68cf44b4184483c8e8,68817205a84113384fffdfe3,6882544ecbe1780b98b45bb7,,,,,,,,,,,,,1,,,,,,,,,,,,,,,,,,,,,,,,,,,,,,,,,,,,,9,hacha,,,,,355.4269,357.1061,0,0,1.1565,,0,44,44,8,1,REAL,FAKE,,,,,,,,,,,,,,,,,
,,,,,,,,,63626a68cf44b4184483c8e8,Mexican,13 or older,"no, only English or Spanish",no,2025-07-24_11h42.50.484,empathy_intonation_perc_control,2024.2.4,Win32,60.60606061,63626a68cf44b4184483c8e8,68817205a84113384fffdfe3,6882544ecbe1780b98b45bb7,,,,,,,,,,,,,0,,,,,,,,,,,,,,,,,,,,,,,,,,,,,,,,,,,,,74,cintro,,,,,357.1083,358.2983,0,1,0.6677,,0,45,45,73,1,REAL,FAKE,,,,,,,,,,,,,,,,,
,,,,,,,,,63626a68cf44b4184483c8e8,Mexican,13 or older,"no, only English or Spanish",no,2025-07-24_11h42.50.484,empathy_intonation_perc_control,2024.2.4,Win32,60.60606061,63626a68cf44b4184483c8e8,68817205a84113384fffdfe3,6882544ecbe1780b98b45bb7,,,,,,,,,,,,,1,,,,,,,,,,,,,,,,,,,,,,,,,,,,,,,,,,,,,56,musgo,,,,,358.2988,359.3765,0,0,0.5461,,0,46,46,55,1,REAL,FAKE,,,,,,,,,,,,,,,,,
,,,,,,,,,63626a68cf44b4184483c8e8,Mexican,13 or older,"no, only English or Spanish",no,2025-07-24_11h42.50.484,empathy_intonation_perc_control,2024.2.4,Win32,60.60606061,63626a68cf44b4184483c8e8,68817205a84113384fffdfe3,6882544ecbe1780b98b45bb7,,,,,,,,,,,,,0,,,,,,,,,,,,,,,,,,,,,,,,,,,,,,,,,,,,,79,tropaje,,,,,359.377,360.7157,0,1,0.8199,,0,47,47,78,1,REAL,FAKE,,,,,,,,,,,,,,,,,
,,,,,,,,,63626a68cf44b4184483c8e8,Mexican,13 or older,"no, only English or Spanish",no,2025-07-24_11h42.50.484,empathy_intonation_perc_control,2024.2.4,Win32,60.60606061,63626a68cf44b4184483c8e8,68817205a84113384fffdfe3,6882544ecbe1780b98b45bb7,,,,,,,,,,,,,1,,,,,,,,,,,,,,,,,,,,,,,,,,,,,,,,,,,,,89,prisa,,,,,360.7165,361.7895,0,0,0.5383,,0,48,48,88,1,REAL,FAKE,,,,,,,,,,,,,,,,,
,,,,,,,,,63626a68cf44b4184483c8e8,Mexican,13 or older,"no, only English or Spanish",no,2025-07-24_11h42.50.484,empathy_intonation_perc_control,2024.2.4,Win32,60.60606061,63626a68cf44b4184483c8e8,68817205a84113384fffdfe3,6882544ecbe1780b98b45bb7,,,,,,,,,,,,,1,,,,,,,,,,,,,,,,,,,,,,,,,,,,,,,,,,,,,86,barato,,,,,361.7921,363.0398,1,1,0.7215,,0,49,49,85,1,REAL,FAKE,,,,,,,,,,,,,,,,,
,,,,,,,,,63626a68cf44b4184483c8e8,Mexican,13 or older,"no, only English or Spanish",no,2025-07-24_11h42.50.484,empathy_intonation_perc_control,2024.2.4,Win32,60.60606061,63626a68cf44b4184483c8e8,68817205a84113384fffdfe3,6882544ecbe1780b98b45bb7,,,,,,,,,,,,,0,,,,,,,,,,,,,,,,,,,,,,,,,,,,,,,,,,,,,8,cadeña,,,,,363.0418,364.5832,1,0,1.0035,,0,50,50,7,1,REAL,FAKE,,,,,,,,,,,,,,,,,
,,,,,,,,,63626a68cf44b4184483c8e8,Mexican,13 or older,"no, only English or Spanish",no,2025-07-24_11h42.50.484,empathy_intonation_perc_control,2024.2.4,Win32,60.60606061,63626a68cf44b4184483c8e8,68817205a84113384fffdfe3,6882544ecbe1780b98b45bb7,,,,,,,,,,,,,0,,,,,,,,,,,,,,,,,,,,,,,,,,,,,,,,,,,,,29,decar,,,,,364.5841,366.2617,0,1,1.1473,,0,51,51,28,1,REAL,FAKE,,,,,,,,,,,,,,,,,
,,,,,,,,,63626a68cf44b4184483c8e8,Mexican,13 or older,"no, only English or Spanish",no,2025-07-24_11h42.50.484,empathy_intonation_perc_control,2024.2.4,Win32,60.60606061,63626a68cf44b4184483c8e8,68817205a84113384fffdfe3,6882544ecbe1780b98b45bb7,,,,,,,,,,,,,1,,,,,,,,,,,,,,,,,,,,,,,,,,,,,,,,,,,,,85,laúd,,,,,366.2626,367.5227,0,0,0.721,,0,52,52,84,1,REAL,FAKE,,,,,,,,,,,,,,,,,
,,,,,,,,,63626a68cf44b4184483c8e8,Mexican,13 or older,"no, only English or Spanish",no,2025-07-24_11h42.50.484,empathy_intonation_perc_control,2024.2.4,Win32,60.60606061,63626a68cf44b4184483c8e8,68817205a84113384fffdfe3,6882544ecbe1780b98b45bb7,,,,,,,,,,,,,1,,,,,,,,,,,,,,,,,,,,,,,,,,,,,,,,,,,,,7,pésimo,,,,,367.5248,368.7921,0,0,0.7297,,0,53,53,6,1,REAL,FAKE,,,,,,,,,,,,,,,,,
,,,,,,,,,63626a68cf44b4184483c8e8,Mexican,13 or older,"no, only English or Spanish",no,2025-07-24_11h42.50.484,empathy_intonation_perc_control,2024.2.4,Win32,60.60606061,63626a68cf44b4184483c8e8,68817205a84113384fffdfe3,6882544ecbe1780b98b45bb7,,,,,,,,,,,,,0,,,,,,,,,,,,,,,,,,,,,,,,,,,,,,,,,,,,,23,lampera,,,,,368.7934,370.406,1,0,1.09,,0,54,54,22,1,REAL,FAKE,,,,,,,,,,,,,,,,,
,,,,,,,,,63626a68cf44b4184483c8e8,Mexican,13 or older,"no, only English or Spanish",no,2025-07-24_11h42.50.484,empathy_intonation_perc_control,2024.2.4,Win32,60.60606061,63626a68cf44b4184483c8e8,68817205a84113384fffdfe3,6882544ecbe1780b98b45bb7,,,,,,,,,,,,,1,,,,,,,,,,,,,,,,,,,,,,,,,,,,,,,,,,,,,20,ávido,,,,,370.4083,371.6854,0,0,0.7386,,0,55,55,19,1,REAL,FAKE,,,,,,,,,,,,,,,,,
,,,,,,,,,63626a68cf44b4184483c8e8,Mexican,13 or older,"no, only English or Spanish",no,2025-07-24_11h42.50.484,empathy_intonation_perc_control,2024.2.4,Win32,60.60606061,63626a68cf44b4184483c8e8,68817205a84113384fffdfe3,6882544ecbe1780b98b45bb7,,,,,,,,,,,,,0,,,,,,,,,,,,,,,,,,,,,,,,,,,,,,,,,,,,,42,cadallo,,,,,371.6865,373.3642,0,1,1.1497,,0,56,56,41,1,REAL,FAKE,,,,,,,,,,,,,,,,,
,,,,,,,,,63626a68cf44b4184483c8e8,Mexican,13 or older,"no, only English or Spanish",no,2025-07-24_11h42.50.484,empathy_intonation_perc_control,2024.2.4,Win32,60.60606061,63626a68cf44b4184483c8e8,68817205a84113384fffdfe3,6882544ecbe1780b98b45bb7,,,,,,,,,,,,,1,,,,,,,,,,,,,,,,,,,,,,,,,,,,,,,,,,,,,88,acantilado,,,,,373.3651,374.8679,0,0,0.9713,,0,57,57,87,1,REAL,FAKE,,,,,,,,,,,,,,,,,
,,,,,,,,,63626a68cf44b4184483c8e8,Mexican,13 or older,"no, only English or Spanish",no,2025-07-24_11h42.50.484,empathy_intonation_perc_control,2024.2.4,Win32,60.60606061,63626a68cf44b4184483c8e8,68817205a84113384fffdfe3,6882544ecbe1780b98b45bb7,,,,,,,,,,,,,1,,,,,,,,,,,,,,,,,,,,,,,,,,,,,,,,,,,,,60,matar,,,,,374.8691,376.3068,1,1,0.9041,,0,58,58,59,1,REAL,FAKE,,,,,,,,,,,,,,,,,
,,,,,,,,,63626a68cf44b4184483c8e8,Mexican,13 or older,"no, only English or Spanish",no,2025-07-24_11h42.50.484,empathy_intonation_perc_control,2024.2.4,Win32,60.60606061,63626a68cf44b4184483c8e8,68817205a84113384fffdfe3,6882544ecbe1780b98b45bb7,,,,,,,,,,,,,1,,,,,,,,,,,,,,,,,,,,,,,,,,,,,,,,,,,,,45,jilguero,,,,,376.3084,377.4679,0,0,0.6206,,0,59,59,44,1,REAL,FAKE,,,,,,,,,,,,,,,,,
,,,,,,,,,63626a68cf44b4184483c8e8,Mexican,13 or older,"no, only English or Spanish",no,2025-07-24_11h42.50.484,empathy_intonation_perc_control,2024.2.4,Win32,60.60606061,63626a68cf44b4184483c8e8,68817205a84113384fffdfe3,6882544ecbe1780b98b45bb7,,,,,,,,,,,,,1,,,,,,,,,,,,,,,,,,,,,,,,,,,,,,,,,,,,,26,secuestro,,,,,377.4691,379.2886,1,1,1.2905,,0,60,60,25,1,REAL,FAKE,,,,,,,,,,,,,,,,,
,,,,,,,,,63626a68cf44b4184483c8e8,Mexican,13 or older,"no, only English or Spanish",no,2025-07-24_11h42.50.484,empathy_intonation_perc_control,2024.2.4,Win32,60.60606061,63626a68cf44b4184483c8e8,68817205a84113384fffdfe3,6882544ecbe1780b98b45bb7,,,,,,,,,,,,,1,,,,,,,,,,,,,,,,,,,,,,,,,,,,,,,,,,,,,25,bisagra,,,,,379.2917,380.8232,0,0,1.0064,,0,61,61,24,1,REAL,FAKE,,,,,,,,,,,,,,,,,
,,,,,,,,,63626a68cf44b4184483c8e8,Mexican,13 or older,"no, only English or Spanish",no,2025-07-24_11h42.50.484,empathy_intonation_perc_control,2024.2.4,Win32,60.60606061,63626a68cf44b4184483c8e8,68817205a84113384fffdfe3,6882544ecbe1780b98b45bb7,,,,,,,,,,,,,1,,,,,,,,,,,,,,,,,,,,,,,,,,,,,,,,,,,,,22,lacayo,,,,,380.8255,382.0006,0,0,0.6373,,0,62,62,21,1,REAL,FAKE,,,,,,,,,,,,,,,,,
,,,,,,,,,63626a68cf44b4184483c8e8,Mexican,13 or older,"no, only English or Spanish",no,2025-07-24_11h42.50.484,empathy_intonation_perc_control,2024.2.4,Win32,60.60606061,63626a68cf44b4184483c8e8,68817205a84113384fffdfe3,6882544ecbe1780b98b45bb7,,,,,,,,,,,,,0,,,,,,,,,,,,,,,,,,,,,,,,,,,,,,,,,,,,,47,cartinar,,,,,382.0015,383.1597,0,1,0.6302,,0,63,63,46,1,REAL,FAKE,,,,,,,,,,,,,,,,,
,,,,,,,,,63626a68cf44b4184483c8e8,Mexican,13 or older,"no, only English or Spanish",no,2025-07-24_11h42.50.484,empathy_intonation_perc_control,2024.2.4,Win32,60.60606061,63626a68cf44b4184483c8e8,68817205a84113384fffdfe3,6882544ecbe1780b98b45bb7,,,,,,,,,,,,,1,,,,,,,,,,,,,,,,,,,,,,,,,,,,,,,,,,,,,65,bizcocho,,,,,383.1604,384.2753,0,0,0.579,,0,64,64,64,1,REAL,FAKE,,,,,,,,,,,,,,,,,
,,,,,,,,,63626a68cf44b4184483c8e8,Mexican,13 or older,"no, only English or Spanish",no,2025-07-24_11h42.50.484,empathy_intonation_perc_control,2024.2.4,Win32,60.60606061,63626a68cf44b4184483c8e8,68817205a84113384fffdfe3,6882544ecbe1780b98b45bb7,,,,,,,,,,,,,1,,,,,,,,,,,,,,,,,,,,,,,,,,,,,,,,,,,,,69,engatusar,,,,,384.2762,385.6456,0,0,0.832,,0,65,65,68,1,REAL,FAKE,,,,,,,,,,,,,,,,,
,,,,,,,,,63626a68cf44b4184483c8e8,Mexican,13 or older,"no, only English or Spanish",no,2025-07-24_11h42.50.484,empathy_intonation_perc_control,2024.2.4,Win32,60.60606061,63626a68cf44b4184483c8e8,68817205a84113384fffdfe3,6882544ecbe1780b98b45bb7,,,,,,,,,,,,,1,,,,,,,,,,,,,,,,,,,,,,,,,,,,,,,,,,,,,41,rebuscar,,,,,385.6464,386.7659,0,0,0.5863,,0,66,66,40,1,REAL,FAKE,,,,,,,,,,,,,,,,,
,,,,,,,,,63626a68cf44b4184483c8e8,Mexican,13 or older,"no, only English or Spanish",no,2025-07-24_11h42.50.484,empathy_intonation_perc_control,2024.2.4,Win32,60.60606061,63626a68cf44b4184483c8e8,68817205a84113384fffdfe3,6882544ecbe1780b98b45bb7,,,,,,,,,,,,,1,,,,,,,,,,,,,,,,,,,,,,,,,,,,,,,,,,,,,44,cuchara,,,,,386.7665,388.0306,1,1,0.7335,,0,67,67,43,1,REAL,FAKE,,,,,,,,,,,,,,,,,
,,,,,,,,,63626a68cf44b4184483c8e8,Mexican,13 or older,"no, only English or Spanish",no,2025-07-24_11h42.50.484,empathy_intonation_perc_control,2024.2.4,Win32,60.60606061,63626a68cf44b4184483c8e8,68817205a84113384fffdfe3,6882544ecbe1780b98b45bb7,,,,,,,,,,,,,0,,,,,,,,,,,,,,,,,,,,,,,,,,,,,,,,,,,,,70,temblo,,,,,388.0311,389.2572,0,1,0.6932,,0,68,68,69,1,REAL,FAKE,,,,,,,,,,,,,,,,,
,,,,,,,,,63626a68cf44b4184483c8e8,Mexican,13 or older,"no, only English or Spanish",no,2025-07-24_11h42.50.484,empathy_intonation_perc_control,2024.2.4,Win32,60.60606061,63626a68cf44b4184483c8e8,68817205a84113384fffdfe3,6882544ecbe1780b98b45bb7,,,,,,,,,,,,,1,,,,,,,,,,,,,,,,,,,,,,,,,,,,,,,,,,,,,64,orgulloso,,,,,389.2592,390.9148,1,1,1.1178,,0,69,69,63,1,REAL,FAKE,,,,,,,,,,,,,,,,,
,,,,,,,,,63626a68cf44b4184483c8e8,Mexican,13 or older,"no, only English or Spanish",no,2025-07-24_11h42.50.484,empathy_intonation_perc_control,2024.2.4,Win32,60.60606061,63626a68cf44b4184483c8e8,68817205a84113384fffdfe3,6882544ecbe1780b98b45bb7,,,,,,,,,,,,,0,,,,,,,,,,,,,,,,,,,,,,,,,,,,,,,,,,,,,84,escuto,,,,,390.9155,392.1631,0,1,0.7163,,0,70,70,83,1,REAL,FAKE,,,,,,,,,,,,,,,,,
,,,,,,,,,63626a68cf44b4184483c8e8,Mexican,13 or older,"no, only English or Spanish",no,2025-07-24_11h42.50.484,empathy_intonation_perc_control,2024.2.4,Win32,60.60606061,63626a68cf44b4184483c8e8,68817205a84113384fffdfe3,6882544ecbe1780b98b45bb7,,,,,,,,,,,,,1,,,,,,,,,,,,,,,,,,,,,,,,,,,,,,,,,,,,,54,fomentar,,,,,392.164,393.706,0,0,1.0062,,0,71,71,53,1,REAL,FAKE,,,,,,,,,,,,,,,,,
,,,,,,,,,63626a68cf44b4184483c8e8,Mexican,13 or older,"no, only English or Spanish",no,2025-07-24_11h42.50.484,empathy_intonation_perc_control,2024.2.4,Win32,60.60606061,63626a68cf44b4184483c8e8,68817205a84113384fffdfe3,6882544ecbe1780b98b45bb7,,,,,,,,,,,,,1,,,,,,,,,,,,,,,,,,,,,,,,,,,,,,,,,,,,,48,ladrón,,,,,393.7084,394.9569,1,1,0.705,,0,72,72,47,1,REAL,FAKE,,,,,,,,,,,,,,,,,
,,,,,,,,,63626a68cf44b4184483c8e8,Mexican,13 or older,"no, only English or Spanish",no,2025-07-24_11h42.50.484,empathy_intonation_perc_control,2024.2.4,Win32,60.60606061,63626a68cf44b4184483c8e8,68817205a84113384fffdfe3,6882544ecbe1780b98b45bb7,,,,,,,,,,,,,1,,,,,,,,,,,,,,,,,,,,,,,,,,,,,,,,,,,,,51,candado,,,,,394.9586,396.389,1,1,0.9049,,0,73,73,50,1,REAL,FAKE,,,,,,,,,,,,,,,,,
,,,,,,,,,63626a68cf44b4184483c8e8,Mexican,13 or older,"no, only English or Spanish",no,2025-07-24_11h42.50.484,empathy_intonation_perc_control,2024.2.4,Win32,60.60606061,63626a68cf44b4184483c8e8,68817205a84113384fffdfe3,6882544ecbe1780b98b45bb7,,,,,,,,,,,,,1,,,,,,,,,,,,,,,,,,,,,,,,,,,,,,,,,,,,,36,loro,,,,,396.3913,397.5671,1,1,0.6542,,0,74,74,35,1,REAL,FAKE,,,,,,,,,,,,,,,,,
,,,,,,,,,63626a68cf44b4184483c8e8,Mexican,13 or older,"no, only English or Spanish",no,2025-07-24_11h42.50.484,empathy_intonation_perc_control,2024.2.4,Win32,60.60606061,63626a68cf44b4184483c8e8,68817205a84113384fffdfe3,6882544ecbe1780b98b45bb7,,,,,,,,,,,,,0,,,,,,,,,,,,,,,,,,,,,,,,,,,,,,,,,,,,,50,flamida,,,,,397.568,398.8999,0,1,0.8037,,0,75,75,49,1,REAL,FAKE,,,,,,,,,,,,,,,,,
,,,,,,,,,63626a68cf44b4184483c8e8,Mexican,13 or older,"no, only English or Spanish",no,2025-07-24_11h42.50.484,empathy_intonation_perc_control,2024.2.4,Win32,60.60606061,63626a68cf44b4184483c8e8,68817205a84113384fffdfe3,6882544ecbe1780b98b45bb7,,,,,,,,,,,,,1,,,,,,,,,,,,,,,,,,,,,,,,,,,,,,,,,,,,,14,yunque,,,,,398.9007,400.0059,0,0,0.572,,0,76,76,13,1,REAL,FAKE,,,,,,,,,,,,,,,,,
,,,,,,,,,63626a68cf44b4184483c8e8,Mexican,13 or older,"no, only English or Spanish",no,2025-07-24_11h42.50.484,empathy_intonation_perc_control,2024.2.4,Win32,60.60606061,63626a68cf44b4184483c8e8,68817205a84113384fffdfe3,6882544ecbe1780b98b45bb7,,,,,,,,,,,,,1,,,,,,,,,,,,,,,,,,,,,,,,,,,,,,,,,,,,,67,cabello,,,,,400.0085,401.3848,1,1,0.8375,,0,77,77,66,1,REAL,FAKE,,,,,,,,,,,,,,,,,
,,,,,,,,,63626a68cf44b4184483c8e8,Mexican,13 or older,"no, only English or Spanish",no,2025-07-24_11h42.50.484,empathy_intonation_perc_control,2024.2.4,Win32,60.60606061,63626a68cf44b4184483c8e8,68817205a84113384fffdfe3,6882544ecbe1780b98b45bb7,,,,,,,,,,,,,1,,,,,,,,,,,,,,,,,,,,,,,,,,,,,,,,,,,,,37,granuja,,,,,401.3863,403.2732,1,1,1.3561,,0,78,78,36,1,REAL,FAKE,,,,,,,,,,,,,,,,,
,,,,,,,,,63626a68cf44b4184483c8e8,Mexican,13 or older,"no, only English or Spanish",no,2025-07-24_11h42.50.484,empathy_intonation_perc_control,2024.2.4,Win32,60.60606061,63626a68cf44b4184483c8e8,68817205a84113384fffdfe3,6882544ecbe1780b98b45bb7,,,,,,,,,,,,,0,,,,,,,,,,,,,,,,,,,,,,,,,,,,,,,,,,,,,33,pauca,,,,,403.2752,404.5392,0,1,0.7219,,0,79,79,32,1,REAL,FAKE,,,,,,,,,,,,,,,,,
,,,,,,,,,63626a68cf44b4184483c8e8,Mexican,13 or older,"no, only English or Spanish",no,2025-07-24_11h42.50.484,empathy_intonation_perc_control,2024.2.4,Win32,60.60606061,63626a68cf44b4184483c8e8,68817205a84113384fffdfe3,6882544ecbe1780b98b45bb7,,,,,,,,,,,,,1,,,,,,,,,,,,,,,,,,,,,,,,,,,,,,,,,,,,,91,click the 1 key.,,,,,404.5421,406.4411,1,1,1.3613,,0,80,80,90,1,REAL,FAKE,,,,,,,,,,,,,,,,,
,,,,,,,,,63626a68cf44b4184483c8e8,Mexican,13 or older,"no, only English or Spanish",no,2025-07-24_11h42.50.484,empathy_intonation_perc_control,2024.2.4,Win32,60.60606061,63626a68cf44b4184483c8e8,68817205a84113384fffdfe3,6882544ecbe1780b98b45bb7,,,,,,,,,,,,,0,,,,,,,,,,,,,,,,,,,,,,,,,,,,,,,,,,,,,17,floroso,,,,,406.4417,413.1391,0,1,6.1573,,0,81,81,16,1,REAL,FAKE,,,,,,,,,,,,,,,,,
,,,,,,,,,63626a68cf44b4184483c8e8,Mexican,13 or older,"no, only English or Spanish",no,2025-07-24_11h42.50.484,empathy_intonation_perc_control,2024.2.4,Win32,60.60606061,63626a68cf44b4184483c8e8,68817205a84113384fffdfe3,6882544ecbe1780b98b45bb7,,,,,,,,,,,,,1,,,,,,,,,,,,,,,,,,,,,,,,,,,,,,,,,,,,,5,zapato,,,,,413.142,414.4253,1,1,0.7455,,0,82,82,4,1,REAL,FAKE,,,,,,,,,,,,,,,,,
,,,,,,,,,63626a68cf44b4184483c8e8,Mexican,13 or older,"no, only English or Spanish",no,2025-07-24_11h42.50.484,empathy_intonation_perc_control,2024.2.4,Win32,60.60606061,63626a68cf44b4184483c8e8,68817205a84113384fffdfe3,6882544ecbe1780b98b45bb7,,,,,,,,,,,,,0,,,,,,,,,,,,,,,,,,,,,,,,,,,,,,,,,,,,,16,abracer,,,,,414.426,415.8916,1,0,0.926,,0,83,83,15,1,REAL,FAKE,,,,,,,,,,,,,,,,,
,,,,,,,,,63626a68cf44b4184483c8e8,Mexican,13 or older,"no, only English or Spanish",no,2025-07-24_11h42.50.484,empathy_intonation_perc_control,2024.2.4,Win32,60.60606061,63626a68cf44b4184483c8e8,68817205a84113384fffdfe3,6882544ecbe1780b98b45bb7,,,,,,,,,,,,,1,,,,,,,,,,,,,,,,,,,,,,,,,,,,,,,,,,,,,28,merodear,,,,,415.8927,417.127,0,0,0.6965,,0,84,84,27,1,REAL,FAKE,,,,,,,,,,,,,,,,,
,,,,,,,,,63626a68cf44b4184483c8e8,Mexican,13 or older,"no, only English or Spanish",no,2025-07-24_11h42.50.484,empathy_intonation_perc_control,2024.2.4,Win32,60.60606061,63626a68cf44b4184483c8e8,68817205a84113384fffdfe3,6882544ecbe1780b98b45bb7,,,,,,,,,,,,,1,,,,,,,,,,,,,,,,,,,,,,,,,,,,,,,,,,,,,80,hormiga,,,,,417.1278,418.4133,0,0,0.7496,,0,85,85,79,1,REAL,FAKE,,,,,,,,,,,,,,,,,
,,,,,,,,,63626a68cf44b4184483c8e8,Mexican,13 or older,"no, only English or Spanish",no,2025-07-24_11h42.50.484,empathy_intonation_perc_control,2024.2.4,Win32,60.60606061,63626a68cf44b4184483c8e8,68817205a84113384fffdfe3,6882544ecbe1780b98b45bb7,,,,,,,,,,,,,1,,,,,,,,,,,,,,,,,,,,,,,,,,,,,,,,,,,,,2,pellizcar,,,,,418.4149,419.6393,0,0,0.6887,,0,86,86,1,1,REAL,FAKE,,,,,,,,,,,,,,,,,
,,,,,,,,,63626a68cf44b4184483c8e8,Mexican,13 or older,"no, only English or Spanish",no,2025-07-24_11h42.50.484,empathy_intonation_perc_control,2024.2.4,Win32,60.60606061,63626a68cf44b4184483c8e8,68817205a84113384fffdfe3,6882544ecbe1780b98b45bb7,,,,,,,,,,,,,0,,,,,,,,,,,,,,,,,,,,,,,,,,,,,,,,,,,,,63,esposante,,,,,419.6418,421.5247,0,1,1.3585,,0,87,87,62,1,REAL,FAKE,,,,,,,,,,,,,,,,,
,,,,,,,,,63626a68cf44b4184483c8e8,Mexican,13 or older,"no, only English or Spanish",no,2025-07-24_11h42.50.484,empathy_intonation_perc_control,2024.2.4,Win32,60.60606061,63626a68cf44b4184483c8e8,68817205a84113384fffdfe3,6882544ecbe1780b98b45bb7,,,,,,,,,,,,,1,,,,,,,,,,,,,,,,,,,,,,,,,,,,,,,,,,,,,31,pandilla,,,,,421.5255,422.9505,0,0,0.8876,,0,88,88,30,1,REAL,FAKE,,,,,,,,,,,,,,,,,
,,,,,,,,,63626a68cf44b4184483c8e8,Mexican,13 or older,"no, only English or Spanish",no,2025-07-24_11h42.50.484,empathy_intonation_perc_control,2024.2.4,Win32,60.60606061,63626a68cf44b4184483c8e8,68817205a84113384fffdfe3,6882544ecbe1780b98b45bb7,,,,,,,,,,,,,0,,,,,,,,,,,,,,,,,,,,,,,,,,,,,,,,,,,,,35,rompido,,,,,422.9513,424.0398,0,1,0.5521,,0,89,89,34,1,REAL,FAKE,,,,,,,,,,,,,,,,,
,,,,,,,,,63626a68cf44b4184483c8e8,Mexican,13 or older,"no, only English or Spanish",no,2025-07-24_11h42.50.484,empathy_intonation_perc_control,2024.2.4,Win32,60.60606061,63626a68cf44b4184483c8e8,68817205a84113384fffdfe3,6882544ecbe1780b98b45bb7,,,,,,,,,,,,,0,,,,,,,,,,,,,,,,,,,,,,,,,,,,,,,,,,,,,92,click the 0 key.,,,,,424.0417,425.8519,0,1,1.2882,,0,90,90,91,1,REAL,FAKE,,,,,,,,,,,,,,,,,
,,,,,,,,,63626a68cf44b4184483c8e8,Mexican,13 or older,"no, only English or Spanish",no,2025-07-24_11h42.50.484,empathy_intonation_perc_control,2024.2.4,Win32,60.60606061,63626a68cf44b4184483c8e8,68817205a84113384fffdfe3,6882544ecbe1780b98b45bb7,,,,,,,,,,,,,1,,,,,,,,,,,,,,,,,,,,,,,,,,,,,,,,,,,,,34,aviso,,,,,425.8531,427.1899,1,1,0.808,,0,91,91,33,1,REAL,FAKE,,,,,,,,,,,,,,,,,
,,,,,,,,,63626a68cf44b4184483c8e8,Mexican,13 or older,"no, only English or Spanish",no,2025-07-24_11h42.50.484,empathy_intonation_perc_control,2024.2.4,Win32,60.60606061,63626a68cf44b4184483c8e8,68817205a84113384fffdfe3,6882544ecbe1780b98b45bb7,,,,,,,,,,,,,,,,,,,,,,,,,,,,,,,,,,,,,,,,,,,,,,,,,,,,,,,,,,,,,,,,,,,,,427.1909,501.6022,,,,,,,,,,,,,,,
,,,,,,,,,63626a68cf44b4184483c8e8,Mexican,13 or older,"no, only English or Spanish",no,2025-07-24_11h42.50.484,empathy_intonation_perc_control,2024.2.4,Win32,60.60606061,63626a68cf44b4184483c8e8,68817205a84113384fffdfe3,6882544ecbe1780b98b45bb7,,,,,,,,,,,,,,,,,,,,,,,,,,,1,,,,,,,,,,,,,,,,,,,,,,,,,,,,,,,,,,,,,,,,,,,,501.6176,505.1719,slightly agree,0,0,0,0,1,I can easily tell if someone else wants to enter a conversation.,1,0,1,0,,
,,,,,,,,,63626a68cf44b4184483c8e8,Mexican,13 or older,"no, only English or Spanish",no,2025-07-24_11h42.50.484,empathy_intonation_perc_control,2024.2.4,Win32,60.60606061,63626a68cf44b4184483c8e8,68817205a84113384fffdfe3,6882544ecbe1780b98b45bb7,,,,,,,,,,,,,,,,,,,,,,,,,,,2,,,,,,,,,,,,,,,,,,,,,,,,,,,,,,,,,,,,,,,,,,,,505.1745,507.6045,slightly disagree,0,1,1,1,1,I prefer animals to humans.,0,1,0,0,,
,,,,,,,,,63626a68cf44b4184483c8e8,Mexican,13 or older,"no, only English or Spanish",no,2025-07-24_11h42.50.484,empathy_intonation_perc_control,2024.2.4,Win32,60.60606061,63626a68cf44b4184483c8e8,68817205a84113384fffdfe3,6882544ecbe1780b98b45bb7,,,,,,,,,,,,,,,,,,,,,,,,,,,3,,,,,,,,,,,,,,,,,,,,,,,,,,,,,,,,,,,,,,,,,,,,507.6087,510.5717,slightly agree,0,2,2,2,1,I try to keep up with the current trends and fashions.,0,1,0,0,,
,,,,,,,,,63626a68cf44b4184483c8e8,Mexican,13 or older,"no, only English or Spanish",no,2025-07-24_11h42.50.484,empathy_intonation_perc_control,2024.2.4,Win32,60.60606061,63626a68cf44b4184483c8e8,68817205a84113384fffdfe3,6882544ecbe1780b98b45bb7,,,,,,,,,,,,,,,,,,,,,,,,,,,4,,,,,,,,,,,,,,,,,,,,,,,,,,,,,,,,,,,,,,,,,,,,510.5757,514.4884,strongly agree,0,3,3,3,1,"I find it difficult to explain to others things that I understand easily,   when they don't understand it first time.",1,0,0,1,,
,,,,,,,,,63626a68cf44b4184483c8e8,Mexican,13 or older,"no, only English or Spanish",no,2025-07-24_11h42.50.484,empathy_intonation_perc_control,2024.2.4,Win32,60.60606061,63626a68cf44b4184483c8e8,68817205a84113384fffdfe3,6882544ecbe1780b98b45bb7,,,,,,,,,,,,,,,,,,,,,,,,,,,5,,,,,,,,,,,,,,,,,,,,,,,,,,,,,,,,,,,,,,,,,,,,514.4915,517.3384,slightly agree,0,4,4,4,1,I dream most nights.,0,1,0,0,,
,,,,,,,,,63626a68cf44b4184483c8e8,Mexican,13 or older,"no, only English or Spanish",no,2025-07-24_11h42.50.484,empathy_intonation_perc_control,2024.2.4,Win32,60.60606061,63626a68cf44b4184483c8e8,68817205a84113384fffdfe3,6882544ecbe1780b98b45bb7,,,,,,,,,,,,,,,,,,,,,,,,,,,6,,,,,,,,,,,,,,,,,,,,,,,,,,,,,,,,,,,,,,,,,,,,517.3396,520.0812,slightly agree,0,5,5,5,1,I really enjoy caring for other people.,1,0,1,0,,
,,,,,,,,,63626a68cf44b4184483c8e8,Mexican,13 or older,"no, only English or Spanish",no,2025-07-24_11h42.50.484,empathy_intonation_perc_control,2024.2.4,Win32,60.60606061,63626a68cf44b4184483c8e8,68817205a84113384fffdfe3,6882544ecbe1780b98b45bb7,,,,,,,,,,,,,,,,,,,,,,,,,,,7,,,,,,,,,,,,,,,,,,,,,,,,,,,,,,,,,,,,,,,,,,,,520.0819,522.2574,slightly agree,0,6,6,6,1,I try to solve my own problems rather than discussing them with others.,0,1,0,0,,
,,,,,,,,,63626a68cf44b4184483c8e8,Mexican,13 or older,"no, only English or Spanish",no,2025-07-24_11h42.50.484,empathy_intonation_perc_control,2024.2.4,Win32,60.60606061,63626a68cf44b4184483c8e8,68817205a84113384fffdfe3,6882544ecbe1780b98b45bb7,,,,,,,,,,,,,,,,,,,,,,,,,,,8,,,,,,,,,,,,,,,,,,,,,,,,,,,,,,,,,,,,,,,,,,,,522.259,524.533,slightly agree,0,7,7,7,1,I find it hard to know what to do in a social situation.,1,0,0,1,,
,,,,,,,,,63626a68cf44b4184483c8e8,Mexican,13 or older,"no, only English or Spanish",no,2025-07-24_11h42.50.484,empathy_intonation_perc_control,2024.2.4,Win32,60.60606061,63626a68cf44b4184483c8e8,68817205a84113384fffdfe3,6882544ecbe1780b98b45bb7,,,,,,,,,,,,,,,,,,,,,,,,,,,9,,,,,,,,,,,,,,,,,,,,,,,,,,,,,,,,,,,,,,,,,,,,524.5338,527.4978,strongly disagree,0,8,8,8,1,I am at my best first thing in the morning.,0,1,0,0,,
,,,,,,,,,63626a68cf44b4184483c8e8,Mexican,13 or older,"no, only English or Spanish",no,2025-07-24_11h42.50.484,empathy_intonation_perc_control,2024.2.4,Win32,60.60606061,63626a68cf44b4184483c8e8,68817205a84113384fffdfe3,6882544ecbe1780b98b45bb7,,,,,,,,,,,,,,,,,,,,,,,,,,,10,,,,,,,,,,,,,,,,,,,,,,,,,,,,,,,,,,,,,,,,,,,,527.4988,530.7344,slightly disagree,0,9,9,9,1,People often tell me that I went too far in driving my point home in a discussion.,1,0,0,1,,
,,,,,,,,,63626a68cf44b4184483c8e8,Mexican,13 or older,"no, only English or Spanish",no,2025-07-24_11h42.50.484,empathy_intonation_perc_control,2024.2.4,Win32,60.60606061,63626a68cf44b4184483c8e8,68817205a84113384fffdfe3,6882544ecbe1780b98b45bb7,,,,,,,,,,,,,,,,,,,,,,,,,,,11,,,,,,,,,,,,,,,,,,,,,,,,,,,,,,,,,,,,,,,,,,,,530.7356,534.0717,strongly disagree,0,10,10,10,1,It doesn't bother me too much if I am late meeting a friend.,1,0,0,1,,
,,,,,,,,,63626a68cf44b4184483c8e8,Mexican,13 or older,"no, only English or Spanish",no,2025-07-24_11h42.50.484,empathy_intonation_perc_control,2024.2.4,Win32,60.60606061,63626a68cf44b4184483c8e8,68817205a84113384fffdfe3,6882544ecbe1780b98b45bb7,,,,,,,,,,,,,,,,,,,,,,,,,,,12,,,,,,,,,,,,,,,,,,,,,,,,,,,,,,,,,,,,,,,,,,,,534.076,537.1715,strongly disagree,0,11,11,11,1,"Friendships and relationships are just too difficult, so I tend not to 
  bother with them.",1,0,0,1,,
,,,,,,,,,63626a68cf44b4184483c8e8,Mexican,13 or older,"no, only English or Spanish",no,2025-07-24_11h42.50.484,empathy_intonation_perc_control,2024.2.4,Win32,60.60606061,63626a68cf44b4184483c8e8,68817205a84113384fffdfe3,6882544ecbe1780b98b45bb7,,,,,,,,,,,,,,,,,,,,,,,,,,,13,,,,,,,,,,,,,,,,,,,,,,,,,,,,,,,,,,,,,,,,,,,,537.173,539.171,slightly disagree,0,12,12,12,1,"I would never break a law, no matter how minor.",0,1,0,0,,
,,,,,,,,,63626a68cf44b4184483c8e8,Mexican,13 or older,"no, only English or Spanish",no,2025-07-24_11h42.50.484,empathy_intonation_perc_control,2024.2.4,Win32,60.60606061,63626a68cf44b4184483c8e8,68817205a84113384fffdfe3,6882544ecbe1780b98b45bb7,,,,,,,,,,,,,,,,,,,,,,,,,,,14,,,,,,,,,,,,,,,,,,,,,,,,,,,,,,,,,,,,,,,,,,,,539.1725,542.4211,slightly disagree,0,13,13,13,1,I often find it difficult to judge if something is rude or polite.,1,0,0,1,,
,,,,,,,,,63626a68cf44b4184483c8e8,Mexican,13 or older,"no, only English or Spanish",no,2025-07-24_11h42.50.484,empathy_intonation_perc_control,2024.2.4,Win32,60.60606061,63626a68cf44b4184483c8e8,68817205a84113384fffdfe3,6882544ecbe1780b98b45bb7,,,,,,,,,,,,,,,,,,,,,,,,,,,15,,,,,,,,,,,,,,,,,,,,,,,,,,,,,,,,,,,,,,,,,,,,542.4251,547.4715,slightly disagree,0,14,14,14,1,"In a conversation, I tend to focus on my own thoughts rather than on what 
  my listener might be thinking.",1,0,0,1,,
,,,,,,,,,63626a68cf44b4184483c8e8,Mexican,13 or older,"no, only English or Spanish",no,2025-07-24_11h42.50.484,empathy_intonation_perc_control,2024.2.4,Win32,60.60606061,63626a68cf44b4184483c8e8,68817205a84113384fffdfe3,6882544ecbe1780b98b45bb7,,,,,,,,,,,,,,,,,,,,,,,,,,,16,,,,,,,,,,,,,,,,,,,,,,,,,,,,,,,,,,,,,,,,,,,,547.4733,550.2713,slightly disagree,0,15,15,15,1,I prefer practical jokes to verbal humor.,0,1,0,0,,
,,,,,,,,,63626a68cf44b4184483c8e8,Mexican,13 or older,"no, only English or Spanish",no,2025-07-24_11h42.50.484,empathy_intonation_perc_control,2024.2.4,Win32,60.60606061,63626a68cf44b4184483c8e8,68817205a84113384fffdfe3,6882544ecbe1780b98b45bb7,,,,,,,,,,,,,,,,,,,,,,,,,,,17,,,,,,,,,,,,,,,,,,,,,,,,,,,,,,,,,,,,,,,,,,,,550.2731,553.4382,slightly agree,0,16,16,16,1,I live life for today rather than the future.,0,1,0,0,,
,,,,,,,,,63626a68cf44b4184483c8e8,Mexican,13 or older,"no, only English or Spanish",no,2025-07-24_11h42.50.484,empathy_intonation_perc_control,2024.2.4,Win32,60.60606061,63626a68cf44b4184483c8e8,68817205a84113384fffdfe3,6882544ecbe1780b98b45bb7,,,,,,,,,,,,,,,,,,,,,,,,,,,18,,,,,,,,,,,,,,,,,,,,,,,,,,,,,,,,,,,,,,,,,,,,553.4413,556.5542,strongly disagree,0,17,17,17,1,"When I was a child, I enjoyed cutting up worms to see what would happen.",1,0,0,1,,
,,,,,,,,,63626a68cf44b4184483c8e8,Mexican,13 or older,"no, only English or Spanish",no,2025-07-24_11h42.50.484,empathy_intonation_perc_control,2024.2.4,Win32,60.60606061,63626a68cf44b4184483c8e8,68817205a84113384fffdfe3,6882544ecbe1780b98b45bb7,,,,,,,,,,,,,,,,,,,,,,,,,,,19,,,,,,,,,,,,,,,,,,,,,,,,,,,,,,,,,,,,,,,,,,,,556.5568,559.8715,slightly agree,0,18,18,18,1,I can pick up quickly if someone says one thing but means another.,1,0,1,0,,
,,,,,,,,,63626a68cf44b4184483c8e8,Mexican,13 or older,"no, only English or Spanish",no,2025-07-24_11h42.50.484,empathy_intonation_perc_control,2024.2.4,Win32,60.60606061,63626a68cf44b4184483c8e8,68817205a84113384fffdfe3,6882544ecbe1780b98b45bb7,,,,,,,,,,,,,,,,,,,,,,,,,,,20,,,,,,,,,,,,,,,,,,,,,,,,,,,,,,,,,,,,,,,,,,,,559.8726,562.8878,slightly agree,0,19,19,19,1,I tend to have very strong opinions about morality.,0,1,0,0,,
,,,,,,,,,63626a68cf44b4184483c8e8,Mexican,13 or older,"no, only English or Spanish",no,2025-07-24_11h42.50.484,empathy_intonation_perc_control,2024.2.4,Win32,60.60606061,63626a68cf44b4184483c8e8,68817205a84113384fffdfe3,6882544ecbe1780b98b45bb7,,,,,,,,,,,,,,,,,,,,,,,,,,,21,,,,,,,,,,,,,,,,,,,,,,,,,,,,,,,,,,,,,,,,,,,,562.8891,564.8555,slightly agree,0,20,20,20,1,It is hard for me to see why some things upset people so much.,1,0,0,1,,
,,,,,,,,,63626a68cf44b4184483c8e8,Mexican,13 or older,"no, only English or Spanish",no,2025-07-24_11h42.50.484,empathy_intonation_perc_control,2024.2.4,Win32,60.60606061,63626a68cf44b4184483c8e8,68817205a84113384fffdfe3,6882544ecbe1780b98b45bb7,,,,,,,,,,,,,,,,,,,,,,,,,,,22,,,,,,,,,,,,,,,,,,,,,,,,,,,,,,,,,,,,,,,,,,,,564.8564,566.771,slightly disagree,0,21,21,21,1,I find it easy to put myself in somebody else's shoes.,1,0,1,0,,
,,,,,,,,,63626a68cf44b4184483c8e8,Mexican,13 or older,"no, only English or Spanish",no,2025-07-24_11h42.50.484,empathy_intonation_perc_control,2024.2.4,Win32,60.60606061,63626a68cf44b4184483c8e8,68817205a84113384fffdfe3,6882544ecbe1780b98b45bb7,,,,,,,,,,,,,,,,,,,,,,,,,,,23,,,,,,,,,,,,,,,,,,,,,,,,,,,,,,,,,,,,,,,,,,,,566.7734,568.7879,slightly agree,0,22,22,22,1,I think that good manners are the most important thing a parent can teach their child.,0,1,0,0,,
,,,,,,,,,63626a68cf44b4184483c8e8,Mexican,13 or older,"no, only English or Spanish",no,2025-07-24_11h42.50.484,empathy_intonation_perc_control,2024.2.4,Win32,60.60606061,63626a68cf44b4184483c8e8,68817205a84113384fffdfe3,6882544ecbe1780b98b45bb7,,,,,,,,,,,,,,,,,,,,,,,,,,,24,,,,,,,,,,,,,,,,,,,,,,,,,,,,,,,,,,,,,,,,,,,,568.7888,572.571,slightly disagree,0,23,23,23,1,I like to do things on the spur of the moment.,0,1,0,0,,
,,,,,,,,,63626a68cf44b4184483c8e8,Mexican,13 or older,"no, only English or Spanish",no,2025-07-24_11h42.50.484,empathy_intonation_perc_control,2024.2.4,Win32,60.60606061,63626a68cf44b4184483c8e8,68817205a84113384fffdfe3,6882544ecbe1780b98b45bb7,,,,,,,,,,,,,,,,,,,,,,,,,,,25,,,,,,,,,,,,,,,,,,,,,,,,,,,,,,,,,,,,,,,,,,,,572.5722,574.1544,slightly agree,0,24,24,24,1,I am good at predicting how someone will feel.,1,0,1,0,,
