instructions_2afc.started,instructions_2afc.stopped,instructions_2afc_loop.thisRepN,instructions_2afc_loop.thisTrialN,instructions_2afc_loop.thisN,instructions_2afc_loop.thisIndex,instructions_2afc_loop.ran,instructions_text,continue_text,participant_id,"What variety of Spanish are you most familiar with? (e.g., Peruvian, Spanish, Mexican)",At what age did you begin learning Spanish?,Are you proficient in any languages other than English/Spanish?,"Are you familiar with Caribbean (e.g., Caribbean, Puerto Rican) or Galician Spanish?",date,expName,psychopyVersion,OS,frameRate,id,study_id,session,practice_2afc.started,practice_2afc.stopped,key_resp_2afc_practice.keys,key_resp_2afc_practice.corr,key_resp_2afc_practice.rt,key_resp_2afc_practice.duration,trials_2afc_practice_loop.thisRepN,trials_2afc_practice_loop.thisTrialN,trials_2afc_practice_loop.thisN,trials_2afc_practice_loop.thisIndex,trials_2afc_practice_loop.ran,path,correct_response,check_2afc.started,check_2afc.stopped,trial_2afc.started,trial_2afc.stopped,key_resp_2afc_trial.keys,key_resp_2afc_trial.corr,key_resp_2afc_trial.rt,key_resp_2afc_trial.duration,trials_2afc_loop.thisRepN,trials_2afc_loop.thisTrialN,trials_2afc_loop.thisN,trials_2afc_loop.thisIndex,trials_2afc_loop.ran,item_num,target,variety,instructions_lextale.started,instructions_lextale.stopped,instructions_lextale_loop.thisRepN,instructions_lextale_loop.thisTrialN,instructions_lextale_loop.thisN,instructions_lextale_loop.thisIndex,instructions_lextale_loop.ran,practice_lextale.started,practice_lextale.stopped,key_resp_lextale_practice.keys,key_resp_lextale_practice.corr,key_resp_lextale_practice.rt,key_resp_lextale_practice.duration,practice_feedback_lextale.started,practice_feedback_lextale.stopped,trials_lextale_practice_loop.thisRepN,trials_lextale_practice_loop.thisTrialN,trials_lextale_practice_loop.thisN,trials_lextale_practice_loop.thisIndex,trials_lextale_practice_loop.ran,stim,word,prac_button_real,prac_button_false,check_lextale.started,check_lextale.stopped,trial_lextale.started,trial_lextale.stopped,key_resp_lextale_trial.keys,key_resp_lextale_trial.corr,key_resp_lextale_trial.rt,key_resp_lextale_trial.duration,trials_lextale_loop.thisRepN,trials_lextale_loop.thisTrialN,trials_lextale_loop.thisN,trials_lextale_loop.thisIndex,trials_lextale_loop.ran,button_real,button_false,instructions_eq.started,instructions_eq.stopped,trial_eq.started,trial_eq.stopped,slider_eq_trial.response,trials_eq_loop.thisRepN,trials_eq_loop.thisTrialN,trials_eq_loop.thisN,trials_eq_loop.thisIndex,trials_eq_loop.ran,item,is_test_item,is_distractor,is_agree_score,is_disagree_score,end_exp.started,end_exp.stopped
0.0418,18.2587,0,0,0,0,1,"In the following task you are going to hear a series of utterances. 

  You will decide if the utterances sound like questions or not using your keyboard.", (press the spacebar to continue),6389301d2575b8e4c1e7cc5c,Spanish,13 or older,"no, only English or Spanish",no,2025-07-24_10h13.11.904,empathy_intonation_perc_control,2024.2.4,Win32,29.92936669,6389301d2575b8e4c1e7cc5c,68817205a84113384fffdfe3,68823ee06fbecf226656d901,,,,,,,,,,,,,,,,,,,,,,,,,,,,,,,,,,,,,,,,,,,,,,,,,,,,,,,,,,,,,,,,,,,,,,,,,,,,,,,,,,,,,
18.2633,37.321,0,1,1,1,1,"If you believe the utterance is a question, type '1' (for 'yes') and if you do not 
  believe it is a question type '0' (for 'no').

  Let's practice a bit...", (press the spacebar to continue),6389301d2575b8e4c1e7cc5c,Spanish,13 or older,"no, only English or Spanish",no,2025-07-24_10h13.11.904,empathy_intonation_perc_control,2024.2.4,Win32,29.92936669,6389301d2575b8e4c1e7cc5c,68817205a84113384fffdfe3,68823ee06fbecf226656d901,,,,,,,,,,,,,,,,,,,,,,,,,,,,,,,,,,,,,,,,,,,,,,,,,,,,,,,,,,,,,,,,,,,,,,,,,,,,,,,,,,,,,
,,,,,,,,,6389301d2575b8e4c1e7cc5c,Spanish,13 or older,"no, only English or Spanish",no,2025-07-24_10h13.11.904,empathy_intonation_perc_control,2024.2.4,Win32,29.92936669,6389301d2575b8e4c1e7cc5c,68817205a84113384fffdfe3,68823ee06fbecf226656d901,37.3509,43.1004,1,1,5.19,,0,0,0,2,1,./stim/wavs/chilean_question_filler_Mi-padre-cantaba-bien.wav,1,,,,,,,,,,,,,,,,,,,,,,,,,,,,,,,,,,,,,,,,,,,,,,,,,,,,,,,,,,,,,,,,,,,,,,,,
,,,,,,,,,6389301d2575b8e4c1e7cc5c,Spanish,13 or older,"no, only English or Spanish",no,2025-07-24_10h13.11.904,empathy_intonation_perc_control,2024.2.4,Win32,29.92936669,6389301d2575b8e4c1e7cc5c,68817205a84113384fffdfe3,68823ee06fbecf226656d901,43.1138,47.3767,1,1,3.709,,0,1,1,3,1,./stim/wavs/mexican_question_filler_Felipe-no-tiene-contrasena.wav,1,,,,,,,,,,,,,,,,,,,,,,,,,,,,,,,,,,,,,,,,,,,,,,,,,,,,,,,,,,,,,,,,,,,,,,,,
,,,,,,,,,6389301d2575b8e4c1e7cc5c,Spanish,13 or older,"no, only English or Spanish",no,2025-07-24_10h13.11.904,empathy_intonation_perc_control,2024.2.4,Win32,29.92936669,6389301d2575b8e4c1e7cc5c,68817205a84113384fffdfe3,68823ee06fbecf226656d901,47.3906,50.4387,1,0,2.5104,,0,2,2,4,1,./stim/wavs/cuban_statement_filler_Cocinabas-por-la-noche.wav,0,,,,,,,,,,,,,,,,,,,,,,,,,,,,,,,,,,,,,,,,,,,,,,,,,,,,,,,,,,,,,,,,,,,,,,,,
,,,,,,,,,6389301d2575b8e4c1e7cc5c,Spanish,13 or older,"no, only English or Spanish",no,2025-07-24_10h13.11.904,empathy_intonation_perc_control,2024.2.4,Win32,29.92936669,6389301d2575b8e4c1e7cc5c,68817205a84113384fffdfe3,68823ee06fbecf226656d901,50.4528,54.9637,0,1,3.9656,,0,3,3,7,1,./stim/wavs/puertorican_statement_filler_La-nina-pinta-con-su-amiga.wav,0,,,,,,,,,,,,,,,,,,,,,,,,,,,,,,,,,,,,,,,,,,,,,,,,,,,,,,,,,,,,,,,,,,,,,,,,
,,,,,,,,,6389301d2575b8e4c1e7cc5c,Spanish,13 or older,"no, only English or Spanish",no,2025-07-24_10h13.11.904,empathy_intonation_perc_control,2024.2.4,Win32,29.92936669,6389301d2575b8e4c1e7cc5c,68817205a84113384fffdfe3,68823ee06fbecf226656d901,54.9772,58.3398,1,1,2.8166,,0,4,4,0,1,./stim/wavs/castilian_question_filler_Mi-esposo-conoce-al-chico.wav,1,,,,,,,,,,,,,,,,,,,,,,,,,,,,,,,,,,,,,,,,,,,,,,,,,,,,,,,,,,,,,,,,,,,,,,,,
,,,,,,,,,6389301d2575b8e4c1e7cc5c,Spanish,13 or older,"no, only English or Spanish",no,2025-07-24_10h13.11.904,empathy_intonation_perc_control,2024.2.4,Win32,29.92936669,6389301d2575b8e4c1e7cc5c,68817205a84113384fffdfe3,68823ee06fbecf226656d901,58.3553,61.4154,1,0,2.5151,,0,5,5,6,1,./stim/wavs/peruvian_statement_filler_El-nino-habla-con-su-madre.wav,0,,,,,,,,,,,,,,,,,,,,,,,,,,,,,,,,,,,,,,,,,,,,,,,,,,,,,,,,,,,,,,,,,,,,,,,,
,,,,,,,,,6389301d2575b8e4c1e7cc5c,Spanish,13 or older,"no, only English or Spanish",no,2025-07-24_10h13.11.904,empathy_intonation_perc_control,2024.2.4,Win32,29.92936669,6389301d2575b8e4c1e7cc5c,68817205a84113384fffdfe3,68823ee06fbecf226656d901,61.4181,63.8782,1,1,1.9105,,0,6,6,1,1,./stim/wavs/argentine_question_filler_Mi-vecino-habla-mucho.wav,1,,,,,,,,,,,,,,,,,,,,,,,,,,,,,,,,,,,,,,,,,,,,,,,,,,,,,,,,,,,,,,,,,,,,,,,,
,,,,,,,,,6389301d2575b8e4c1e7cc5c,Spanish,13 or older,"no, only English or Spanish",no,2025-07-24_10h13.11.904,empathy_intonation_perc_control,2024.2.4,Win32,29.92936669,6389301d2575b8e4c1e7cc5c,68817205a84113384fffdfe3,68823ee06fbecf226656d901,63.8919,66.5208,0,1,2.0782,,0,7,7,5,1,./stim/wavs/andalusian_statement_filler_Alberto-nunca-se-afeita.wav,0,,,,,,,,,,,,,,,,,,,,,,,,,,,,,,,,,,,,,,,,,,,,,,,,,,,,,,,,,,,,,,,,,,,,,,,,
,,,,,,,,,6389301d2575b8e4c1e7cc5c,Spanish,13 or older,"no, only English or Spanish",no,2025-07-24_10h13.11.904,empathy_intonation_perc_control,2024.2.4,Win32,29.92936669,6389301d2575b8e4c1e7cc5c,68817205a84113384fffdfe3,68823ee06fbecf226656d901,,,,,,,,,,,,,,66.5222,72.1064,,,,,,,,,,,,,,,,,,,,,,,,,,,,,,,,,,,,,,,,,,,,,,,,,,,,,,,,,,,,,,,,,,,,,,
,,,,,,,,,6389301d2575b8e4c1e7cc5c,Spanish,13 or older,"no, only English or Spanish",no,2025-07-24_10h13.11.904,empathy_intonation_perc_control,2024.2.4,Win32,29.92936669,6389301d2575b8e4c1e7cc5c,68817205a84113384fffdfe3,68823ee06fbecf226656d901,,,,,,,,,,,,./stim/wavs/castilian_mismatch_interrogative-total-yn_Mi-madre-come-la-fruta.wav,1,,,72.1406,74.9079,1,1,2.2202,,0,0,0,26,1,27,0,castilian,,,,,,,,,,,,,,,,,,,,,,,,,,,,,,,,,,,,,,,,,,,,,,,,,,,,,,,,
,,,,,,,,,6389301d2575b8e4c1e7cc5c,Spanish,13 or older,"no, only English or Spanish",no,2025-07-24_10h13.11.904,empathy_intonation_perc_control,2024.2.4,Win32,29.92936669,6389301d2575b8e4c1e7cc5c,68817205a84113384fffdfe3,68823ee06fbecf226656d901,,,,,,,,,,,,./stim/wavs/puertorican_match_interrogative-total-yn_Manuela-vende-el-carro.wav,1,,,74.9101,77.6671,1,1,2.2084,,0,1,1,22,1,23,1,puertorican,,,,,,,,,,,,,,,,,,,,,,,,,,,,,,,,,,,,,,,,,,,,,,,,,,,,,,,,
,,,,,,,,,6389301d2575b8e4c1e7cc5c,Spanish,13 or older,"no, only English or Spanish",no,2025-07-24_10h13.11.904,empathy_intonation_perc_control,2024.2.4,Win32,29.92936669,6389301d2575b8e4c1e7cc5c,68817205a84113384fffdfe3,68823ee06fbecf226656d901,,,,,,,,,,,,./stim/wavs/cuban_match_interrogative-total-yn_Manuela-vende-el-carro.wav,1,,,77.6684,80.1653,1,1,1.9491,,0,2,2,8,1,9,1,cuban,,,,,,,,,,,,,,,,,,,,,,,,,,,,,,,,,,,,,,,,,,,,,,,,,,,,,,,,
,,,,,,,,,6389301d2575b8e4c1e7cc5c,Spanish,13 or older,"no, only English or Spanish",no,2025-07-24_10h13.11.904,empathy_intonation_perc_control,2024.2.4,Win32,29.92936669,6389301d2575b8e4c1e7cc5c,68817205a84113384fffdfe3,68823ee06fbecf226656d901,,,,,,,,,,,,./stim/wavs/cuban_mismatch_interrogative-total-yn_El-nino-oye-el-rio.wav,1,,,80.1672,82.7769,1,1,2.0582,,0,3,3,30,1,31,1,cuban,,,,,,,,,,,,,,,,,,,,,,,,,,,,,,,,,,,,,,,,,,,,,,,,,,,,,,,,
,,,,,,,,,6389301d2575b8e4c1e7cc5c,Spanish,13 or older,"no, only English or Spanish",no,2025-07-24_10h13.11.904,empathy_intonation_perc_control,2024.2.4,Win32,29.92936669,6389301d2575b8e4c1e7cc5c,68817205a84113384fffdfe3,68823ee06fbecf226656d901,,,,,,,,,,,,./stim/wavs/mexican_mismatch_declarative-broad-focus_El-hombre-mira-la-luna.wav,0,,,82.7906,85.3459,1,0,2.0148,,0,4,4,79,1,80,0,mexican,,,,,,,,,,,,,,,,,,,,,,,,,,,,,,,,,,,,,,,,,,,,,,,,,,,,,,,,
,,,,,,,,,6389301d2575b8e4c1e7cc5c,Spanish,13 or older,"no, only English or Spanish",no,2025-07-24_10h13.11.904,empathy_intonation_perc_control,2024.2.4,Win32,29.92936669,6389301d2575b8e4c1e7cc5c,68817205a84113384fffdfe3,68823ee06fbecf226656d901,,,,,,,,,,,,./stim/wavs/mexican_mismatch_interrogative-total-yn_Mi-novio-viene-del-lago.wav,1,,,85.3476,87.7371,0,0,1.8391,,0,5,5,37,1,38,0,mexican,,,,,,,,,,,,,,,,,,,,,,,,,,,,,,,,,,,,,,,,,,,,,,,,,,,,,,,,
,,,,,,,,,6389301d2575b8e4c1e7cc5c,Spanish,13 or older,"no, only English or Spanish",no,2025-07-24_10h13.11.904,empathy_intonation_perc_control,2024.2.4,Win32,29.92936669,6389301d2575b8e4c1e7cc5c,68817205a84113384fffdfe3,68823ee06fbecf226656d901,,,,,,,,,,,,./stim/wavs/castilian_match_declarative-broad-focus_Mariano-habla-del-tiempo.wav,0,,,87.7404,90.4577,1,0,2.1611,,0,6,6,48,1,49,0,castilian,,,,,,,,,,,,,,,,,,,,,,,,,,,,,,,,,,,,,,,,,,,,,,,,,,,,,,,,
,,,,,,,,,6389301d2575b8e4c1e7cc5c,Spanish,13 or older,"no, only English or Spanish",no,2025-07-24_10h13.11.904,empathy_intonation_perc_control,2024.2.4,Win32,29.92936669,6389301d2575b8e4c1e7cc5c,68817205a84113384fffdfe3,68823ee06fbecf226656d901,,,,,,,,,,,,./stim/wavs/puertorican_mismatch_declarative-broad-focus_El-nino-oye-el-rio.wav,0,,,90.4592,92.8148,1,0,1.7975,,0,7,7,85,1,86,0,puertorican,,,,,,,,,,,,,,,,,,,,,,,,,,,,,,,,,,,,,,,,,,,,,,,,,,,,,,,,
,,,,,,,,,6389301d2575b8e4c1e7cc5c,Spanish,13 or older,"no, only English or Spanish",no,2025-07-24_10h13.11.904,empathy_intonation_perc_control,2024.2.4,Win32,29.92936669,6389301d2575b8e4c1e7cc5c,68817205a84113384fffdfe3,68823ee06fbecf226656d901,,,,,,,,,,,,./stim/wavs/castilian_match_interrogative-total-yn_David-leia-el-libro.wav,1,,,92.8306,96.1698,1,1,2.8012,,0,8,8,0,1,1,0,castilian,,,,,,,,,,,,,,,,,,,,,,,,,,,,,,,,,,,,,,,,,,,,,,,,,,,,,,,,
,,,,,,,,,6389301d2575b8e4c1e7cc5c,Spanish,13 or older,"no, only English or Spanish",no,2025-07-24_10h13.11.904,empathy_intonation_perc_control,2024.2.4,Win32,29.92936669,6389301d2575b8e4c1e7cc5c,68817205a84113384fffdfe3,68823ee06fbecf226656d901,,,,,,,,,,,,./stim/wavs/puertorican_match_interrogative-total-yn_Ana-lleva-el-abrigo.wav,1,,,96.1722,98.4283,0,0,1.7115,,0,9,9,18,1,19,1,puertorican,,,,,,,,,,,,,,,,,,,,,,,,,,,,,,,,,,,,,,,,,,,,,,,,,,,,,,,,
,,,,,,,,,6389301d2575b8e4c1e7cc5c,Spanish,13 or older,"no, only English or Spanish",no,2025-07-24_10h13.11.904,empathy_intonation_perc_control,2024.2.4,Win32,29.92936669,6389301d2575b8e4c1e7cc5c,68817205a84113384fffdfe3,68823ee06fbecf226656d901,,,,,,,,,,,,./stim/wavs/mexican_mismatch_interrogative-total-yn_El-nino-oye-el-rio.wav,1,,,98.43,100.7372,1,1,1.7631,,0,10,10,35,1,36,0,mexican,,,,,,,,,,,,,,,,,,,,,,,,,,,,,,,,,,,,,,,,,,,,,,,,,,,,,,,,
,,,,,,,,,6389301d2575b8e4c1e7cc5c,Spanish,13 or older,"no, only English or Spanish",no,2025-07-24_10h13.11.904,empathy_intonation_perc_control,2024.2.4,Win32,29.92936669,6389301d2575b8e4c1e7cc5c,68817205a84113384fffdfe3,68823ee06fbecf226656d901,,,,,,,,,,,,./stim/wavs/mexican_match_interrogative-total-yn_David-leia-el-libro.wav,1,,,100.7382,102.9025,0,0,1.6004,,0,11,11,14,1,15,0,mexican,,,,,,,,,,,,,,,,,,,,,,,,,,,,,,,,,,,,,,,,,,,,,,,,,,,,,,,,
,,,,,,,,,6389301d2575b8e4c1e7cc5c,Spanish,13 or older,"no, only English or Spanish",no,2025-07-24_10h13.11.904,empathy_intonation_perc_control,2024.2.4,Win32,29.92936669,6389301d2575b8e4c1e7cc5c,68817205a84113384fffdfe3,68823ee06fbecf226656d901,,,,,,,,,,,,./stim/wavs/castilian_mismatch_interrogative-total-yn_La-maestra-vive-en-Paris.wav,1,,,102.9162,105.531,1,1,2.0444,,0,12,12,24,1,25,0,castilian,,,,,,,,,,,,,,,,,,,,,,,,,,,,,,,,,,,,,,,,,,,,,,,,,,,,,,,,
,,,,,,,,,6389301d2575b8e4c1e7cc5c,Spanish,13 or older,"no, only English or Spanish",no,2025-07-24_10h13.11.904,empathy_intonation_perc_control,2024.2.4,Win32,29.92936669,6389301d2575b8e4c1e7cc5c,68817205a84113384fffdfe3,68823ee06fbecf226656d901,,,,,,,,,,,,./stim/wavs/mexican_match_declarative-broad-focus_Emilio-ama-la-marcha.wav,0,,,105.5332,107.7828,0,1,1.6965,,0,13,13,59,1,60,0,mexican,,,,,,,,,,,,,,,,,,,,,,,,,,,,,,,,,,,,,,,,,,,,,,,,,,,,,,,,
,,,,,,,,,6389301d2575b8e4c1e7cc5c,Spanish,13 or older,"no, only English or Spanish",no,2025-07-24_10h13.11.904,empathy_intonation_perc_control,2024.2.4,Win32,29.92936669,6389301d2575b8e4c1e7cc5c,68817205a84113384fffdfe3,68823ee06fbecf226656d901,,,,,,,,,,,,./stim/wavs/castilian_match_interrogative-total-yn_Emilio-ama-la-marcha.wav,1,,,107.784,110.3199,1,1,1.9831,,0,14,14,1,1,2,0,castilian,,,,,,,,,,,,,,,,,,,,,,,,,,,,,,,,,,,,,,,,,,,,,,,,,,,,,,,,
,,,,,,,,,6389301d2575b8e4c1e7cc5c,Spanish,13 or older,"no, only English or Spanish",no,2025-07-24_10h13.11.904,empathy_intonation_perc_control,2024.2.4,Win32,29.92936669,6389301d2575b8e4c1e7cc5c,68817205a84113384fffdfe3,68823ee06fbecf226656d901,,,,,,,,,,,,./stim/wavs/castilian_mismatch_declarative-broad-focus_Mi-tia-odia-la-lluvia.wav,0,,,110.3213,113.5156,1,0,2.6503,,0,15,15,72,1,73,0,castilian,,,,,,,,,,,,,,,,,,,,,,,,,,,,,,,,,,,,,,,,,,,,,,,,,,,,,,,,
,,,,,,,,,6389301d2575b8e4c1e7cc5c,Spanish,13 or older,"no, only English or Spanish",no,2025-07-24_10h13.11.904,empathy_intonation_perc_control,2024.2.4,Win32,29.92936669,6389301d2575b8e4c1e7cc5c,68817205a84113384fffdfe3,68823ee06fbecf226656d901,,,,,,,,,,,,./stim/wavs/puertorican_match_declarative-broad-focus_Ana-lleva-el-abrigo.wav,0,,,113.5342,116.0023,1,0,1.9224,,0,16,16,62,1,63,0,puertorican,,,,,,,,,,,,,,,,,,,,,,,,,,,,,,,,,,,,,,,,,,,,,,,,,,,,,,,,
,,,,,,,,,6389301d2575b8e4c1e7cc5c,Spanish,13 or older,"no, only English or Spanish",no,2025-07-24_10h13.11.904,empathy_intonation_perc_control,2024.2.4,Win32,29.92936669,6389301d2575b8e4c1e7cc5c,68817205a84113384fffdfe3,68823ee06fbecf226656d901,,,,,,,,,,,,./stim/wavs/cuban_mismatch_declarative-broad-focus_Mi-tia-odia-la-lluvia.wav,0,,,116.0044,118.474,0,1,1.9232,,0,17,17,77,1,78,0,cuban,,,,,,,,,,,,,,,,,,,,,,,,,,,,,,,,,,,,,,,,,,,,,,,,,,,,,,,,
,,,,,,,,,6389301d2575b8e4c1e7cc5c,Spanish,13 or older,"no, only English or Spanish",no,2025-07-24_10h13.11.904,empathy_intonation_perc_control,2024.2.4,Win32,29.92936669,6389301d2575b8e4c1e7cc5c,68817205a84113384fffdfe3,68823ee06fbecf226656d901,,,,,,,,,,,,./stim/wavs/castilian_match_declarative-broad-focus_Emilio-ama-la-marcha.wav,0,,,118.4751,122.1406,0,1,3.1184,,0,18,18,45,1,46,0,castilian,,,,,,,,,,,,,,,,,,,,,,,,,,,,,,,,,,,,,,,,,,,,,,,,,,,,,,,,
,,,,,,,,,6389301d2575b8e4c1e7cc5c,Spanish,13 or older,"no, only English or Spanish",no,2025-07-24_10h13.11.904,empathy_intonation_perc_control,2024.2.4,Win32,29.92936669,6389301d2575b8e4c1e7cc5c,68817205a84113384fffdfe3,68823ee06fbecf226656d901,,,,,,,,,,,,./stim/wavs/cuban_match_interrogative-total-yn_Mariano-habla-del-tiempo.wav,1,,,122.1561,124.8617,1,1,2.1655,,0,19,19,10,1,11,1,cuban,,,,,,,,,,,,,,,,,,,,,,,,,,,,,,,,,,,,,,,,,,,,,,,,,,,,,,,,
,,,,,,,,,6389301d2575b8e4c1e7cc5c,Spanish,13 or older,"no, only English or Spanish",no,2025-07-24_10h13.11.904,empathy_intonation_perc_control,2024.2.4,Win32,29.92936669,6389301d2575b8e4c1e7cc5c,68817205a84113384fffdfe3,68823ee06fbecf226656d901,,,,,,,,,,,,./stim/wavs/puertorican_match_declarative-broad-focus_David-leia-el-libro.wav,0,,,124.8627,127.2327,1,0,1.813,,0,20,20,64,1,65,0,puertorican,,,,,,,,,,,,,,,,,,,,,,,,,,,,,,,,,,,,,,,,,,,,,,,,,,,,,,,,
,,,,,,,,,6389301d2575b8e4c1e7cc5c,Spanish,13 or older,"no, only English or Spanish",no,2025-07-24_10h13.11.904,empathy_intonation_perc_control,2024.2.4,Win32,29.92936669,6389301d2575b8e4c1e7cc5c,68817205a84113384fffdfe3,68823ee06fbecf226656d901,,,,,,,,,,,,./stim/wavs/castilian_match_declarative-broad-focus_Maria-bebe-el-vino.wav,0,,,127.2335,129.5197,1,0,1.737,,0,21,21,47,1,48,0,castilian,,,,,,,,,,,,,,,,,,,,,,,,,,,,,,,,,,,,,,,,,,,,,,,,,,,,,,,,
,,,,,,,,,6389301d2575b8e4c1e7cc5c,Spanish,13 or older,"no, only English or Spanish",no,2025-07-24_10h13.11.904,empathy_intonation_perc_control,2024.2.4,Win32,29.92936669,6389301d2575b8e4c1e7cc5c,68817205a84113384fffdfe3,68823ee06fbecf226656d901,,,,,,,,,,,,./stim/wavs/mexican_mismatch_declarative-broad-focus_Mi-tia-odia-la-lluvia.wav,0,,,129.5332,131.7675,0,1,1.6894,,0,22,22,82,1,83,0,mexican,,,,,,,,,,,,,,,,,,,,,,,,,,,,,,,,,,,,,,,,,,,,,,,,,,,,,,,,
,,,,,,,,,6389301d2575b8e4c1e7cc5c,Spanish,13 or older,"no, only English or Spanish",no,2025-07-24_10h13.11.904,empathy_intonation_perc_control,2024.2.4,Win32,29.92936669,6389301d2575b8e4c1e7cc5c,68817205a84113384fffdfe3,68823ee06fbecf226656d901,,,,,,,,,,,,./stim/wavs/cuban_mismatch_declarative-broad-focus_El-bebe-comia-muy-bien.wav,0,,,131.7689,134.135,0,1,1.8162,,0,23,23,73,1,74,0,cuban,,,,,,,,,,,,,,,,,,,,,,,,,,,,,,,,,,,,,,,,,,,,,,,,,,,,,,,,
,,,,,,,,,6389301d2575b8e4c1e7cc5c,Spanish,13 or older,"no, only English or Spanish",no,2025-07-24_10h13.11.904,empathy_intonation_perc_control,2024.2.4,Win32,29.92936669,6389301d2575b8e4c1e7cc5c,68817205a84113384fffdfe3,68823ee06fbecf226656d901,,,,,,,,,,,,./stim/wavs/mexican_mismatch_interrogative-total-yn_La-maestra-vive-en-Paris.wav,1,,,134.1359,136.7221,1,1,2.0358,,0,24,24,36,1,37,0,mexican,,,,,,,,,,,,,,,,,,,,,,,,,,,,,,,,,,,,,,,,,,,,,,,,,,,,,,,,
,,,,,,,,,6389301d2575b8e4c1e7cc5c,Spanish,13 or older,"no, only English or Spanish",no,2025-07-24_10h13.11.904,empathy_intonation_perc_control,2024.2.4,Win32,29.92936669,6389301d2575b8e4c1e7cc5c,68817205a84113384fffdfe3,68823ee06fbecf226656d901,,,,,,,,,,,,./stim/wavs/mexican_mismatch_declarative-broad-focus_Mi-novio-viene-del-lago.wav,0,,,136.723,139.2478,0,1,1.9782,,0,25,25,81,1,82,0,mexican,,,,,,,,,,,,,,,,,,,,,,,,,,,,,,,,,,,,,,,,,,,,,,,,,,,,,,,,
,,,,,,,,,6389301d2575b8e4c1e7cc5c,Spanish,13 or older,"no, only English or Spanish",no,2025-07-24_10h13.11.904,empathy_intonation_perc_control,2024.2.4,Win32,29.92936669,6389301d2575b8e4c1e7cc5c,68817205a84113384fffdfe3,68823ee06fbecf226656d901,,,,,,,,,,,,./stim/wavs/mexican_match_declarative-broad-focus_Mariano-habla-del-tiempo.wav,0,,,139.2489,141.8952,1,0,2.0977,,0,26,26,60,1,61,0,mexican,,,,,,,,,,,,,,,,,,,,,,,,,,,,,,,,,,,,,,,,,,,,,,,,,,,,,,,,
,,,,,,,,,6389301d2575b8e4c1e7cc5c,Spanish,13 or older,"no, only English or Spanish",no,2025-07-24_10h13.11.904,empathy_intonation_perc_control,2024.2.4,Win32,29.92936669,6389301d2575b8e4c1e7cc5c,68817205a84113384fffdfe3,68823ee06fbecf226656d901,,,,,,,,,,,,./stim/wavs/puertorican_mismatch_interrogative-total-yn_El-hombre-mira-la-luna.wav,1,,,141.9084,144.3336,1,1,1.8812,,0,27,27,39,1,40,1,puertorican,,,,,,,,,,,,,,,,,,,,,,,,,,,,,,,,,,,,,,,,,,,,,,,,,,,,,,,,
,,,,,,,,,6389301d2575b8e4c1e7cc5c,Spanish,13 or older,"no, only English or Spanish",no,2025-07-24_10h13.11.904,empathy_intonation_perc_control,2024.2.4,Win32,29.92936669,6389301d2575b8e4c1e7cc5c,68817205a84113384fffdfe3,68823ee06fbecf226656d901,,,,,,,,,,,,./stim/wavs/mexican_match_declarative-broad-focus_Ana-lleva-el-abrigo.wav,0,,,144.3368,147.8779,1,0,2.9899,,0,28,28,56,1,57,0,mexican,,,,,,,,,,,,,,,,,,,,,,,,,,,,,,,,,,,,,,,,,,,,,,,,,,,,,,,,
,,,,,,,,,6389301d2575b8e4c1e7cc5c,Spanish,13 or older,"no, only English or Spanish",no,2025-07-24_10h13.11.904,empathy_intonation_perc_control,2024.2.4,Win32,29.92936669,6389301d2575b8e4c1e7cc5c,68817205a84113384fffdfe3,68823ee06fbecf226656d901,,,,,,,,,,,,./stim/wavs/castilian_mismatch_declarative-broad-focus_Mi-novio-viene-del-lago.wav,0,,,147.8951,150.5854,1,0,2.1067,,0,29,29,71,1,72,0,castilian,,,,,,,,,,,,,,,,,,,,,,,,,,,,,,,,,,,,,,,,,,,,,,,,,,,,,,,,
,,,,,,,,,6389301d2575b8e4c1e7cc5c,Spanish,13 or older,"no, only English or Spanish",no,2025-07-24_10h13.11.904,empathy_intonation_perc_control,2024.2.4,Win32,29.92936669,6389301d2575b8e4c1e7cc5c,68817205a84113384fffdfe3,68823ee06fbecf226656d901,,,,,,,,,,,,./stim/wavs/castilian_match_declarative-broad-focus_David-leia-el-libro.wav,0,,,150.5863,153.4213,1,0,2.2863,,0,30,30,44,1,45,0,castilian,,,,,,,,,,,,,,,,,,,,,,,,,,,,,,,,,,,,,,,,,,,,,,,,,,,,,,,,
,,,,,,,,,6389301d2575b8e4c1e7cc5c,Spanish,13 or older,"no, only English or Spanish",no,2025-07-24_10h13.11.904,empathy_intonation_perc_control,2024.2.4,Win32,29.92936669,6389301d2575b8e4c1e7cc5c,68817205a84113384fffdfe3,68823ee06fbecf226656d901,,,,,,,,,,,,./stim/wavs/puertorican_mismatch_interrogative-total-yn_El-nino-oye-el-rio.wav,1,,,153.4225,155.9489,1,1,1.9802,,0,31,31,40,1,41,1,puertorican,,,,,,,,,,,,,,,,,,,,,,,,,,,,,,,,,,,,,,,,,,,,,,,,,,,,,,,,
,,,,,,,,,6389301d2575b8e4c1e7cc5c,Spanish,13 or older,"no, only English or Spanish",no,2025-07-24_10h13.11.904,empathy_intonation_perc_control,2024.2.4,Win32,29.92936669,6389301d2575b8e4c1e7cc5c,68817205a84113384fffdfe3,68823ee06fbecf226656d901,,,,,,,,,,,,./stim/wavs/puertorican_mismatch_declarative-broad-focus_La-nina-lava-el-plato.wav,0,,,155.9503,158.3142,1,0,1.8165,,0,32,32,87,1,88,0,puertorican,,,,,,,,,,,,,,,,,,,,,,,,,,,,,,,,,,,,,,,,,,,,,,,,,,,,,,,,
,,,,,,,,,6389301d2575b8e4c1e7cc5c,Spanish,13 or older,"no, only English or Spanish",no,2025-07-24_10h13.11.904,empathy_intonation_perc_control,2024.2.4,Win32,29.92936669,6389301d2575b8e4c1e7cc5c,68817205a84113384fffdfe3,68823ee06fbecf226656d901,,,,,,,,,,,,./stim/wavs/puertorican_mismatch_declarative-broad-focus_La-maestra-vive-en-Paris.wav,0,,,158.3276,160.8312,0,1,1.9569,,0,33,33,86,1,87,0,puertorican,,,,,,,,,,,,,,,,,,,,,,,,,,,,,,,,,,,,,,,,,,,,,,,,,,,,,,,,
,,,,,,,,,6389301d2575b8e4c1e7cc5c,Spanish,13 or older,"no, only English or Spanish",no,2025-07-24_10h13.11.904,empathy_intonation_perc_control,2024.2.4,Win32,29.92936669,6389301d2575b8e4c1e7cc5c,68817205a84113384fffdfe3,68823ee06fbecf226656d901,,,,,,,,,,,,./stim/wavs/cuban_mismatch_interrogative-total-yn_Mi-tia-odia-la-lluvia.wav,1,,,160.8327,163.2992,0,0,1.9216,,0,34,34,33,1,34,1,cuban,,,,,,,,,,,,,,,,,,,,,,,,,,,,,,,,,,,,,,,,,,,,,,,,,,,,,,,,
,,,,,,,,,6389301d2575b8e4c1e7cc5c,Spanish,13 or older,"no, only English or Spanish",no,2025-07-24_10h13.11.904,empathy_intonation_perc_control,2024.2.4,Win32,29.92936669,6389301d2575b8e4c1e7cc5c,68817205a84113384fffdfe3,68823ee06fbecf226656d901,,,,,,,,,,,,./stim/wavs/mexican_match_interrogative-total-yn_Ana-lleva-el-abrigo.wav,1,,,163.3015,165.5516,1,1,1.7063,,0,35,35,12,1,13,0,mexican,,,,,,,,,,,,,,,,,,,,,,,,,,,,,,,,,,,,,,,,,,,,,,,,,,,,,,,,
,,,,,,,,,6389301d2575b8e4c1e7cc5c,Spanish,13 or older,"no, only English or Spanish",no,2025-07-24_10h13.11.904,empathy_intonation_perc_control,2024.2.4,Win32,29.92936669,6389301d2575b8e4c1e7cc5c,68817205a84113384fffdfe3,68823ee06fbecf226656d901,,,,,,,,,,,,./stim/wavs/cuban_mismatch_declarative-broad-focus_Mi-novio-viene-del-lago.wav,0,,,165.5539,168.4157,0,1,2.3188,,0,36,36,76,1,77,0,cuban,,,,,,,,,,,,,,,,,,,,,,,,,,,,,,,,,,,,,,,,,,,,,,,,,,,,,,,,
,,,,,,,,,6389301d2575b8e4c1e7cc5c,Spanish,13 or older,"no, only English or Spanish",no,2025-07-24_10h13.11.904,empathy_intonation_perc_control,2024.2.4,Win32,29.92936669,6389301d2575b8e4c1e7cc5c,68817205a84113384fffdfe3,68823ee06fbecf226656d901,,,,,,,,,,,,./stim/wavs/mexican_match_interrogative-total-yn_Emilio-ama-la-marcha.wav,1,,,168.4329,170.811,1,1,1.833,,0,37,37,15,1,16,0,mexican,,,,,,,,,,,,,,,,,,,,,,,,,,,,,,,,,,,,,,,,,,,,,,,,,,,,,,,,
,,,,,,,,,6389301d2575b8e4c1e7cc5c,Spanish,13 or older,"no, only English or Spanish",no,2025-07-24_10h13.11.904,empathy_intonation_perc_control,2024.2.4,Win32,29.92936669,6389301d2575b8e4c1e7cc5c,68817205a84113384fffdfe3,68823ee06fbecf226656d901,,,,,,,,,,,,./stim/wavs/mexican_match_interrogative-total-yn_Daniel-iba-a-Bolivia.wav,1,,,170.8127,173.5788,1,1,2.2076,,0,38,38,13,1,14,0,mexican,,,,,,,,,,,,,,,,,,,,,,,,,,,,,,,,,,,,,,,,,,,,,,,,,,,,,,,,
,,,,,,,,,6389301d2575b8e4c1e7cc5c,Spanish,13 or older,"no, only English or Spanish",no,2025-07-24_10h13.11.904,empathy_intonation_perc_control,2024.2.4,Win32,29.92936669,6389301d2575b8e4c1e7cc5c,68817205a84113384fffdfe3,68823ee06fbecf226656d901,,,,,,,,,,,,./stim/wavs/puertorican_match_declarative-broad-focus_Emilio-ama-la-marcha.wav,0,,,173.5805,176.5779,0,1,2.4532,,0,39,39,65,1,66,0,puertorican,,,,,,,,,,,,,,,,,,,,,,,,,,,,,,,,,,,,,,,,,,,,,,,,,,,,,,,,
,,,,,,,,,6389301d2575b8e4c1e7cc5c,Spanish,13 or older,"no, only English or Spanish",no,2025-07-24_10h13.11.904,empathy_intonation_perc_control,2024.2.4,Win32,29.92936669,6389301d2575b8e4c1e7cc5c,68817205a84113384fffdfe3,68823ee06fbecf226656d901,,,,,,,,,,,,./stim/wavs/cuban_match_declarative-broad-focus_Marta-abre-el-regalo.wav,0,,,176.5934,178.6893,0,1,1.5581,,0,40,40,55,1,56,0,cuban,,,,,,,,,,,,,,,,,,,,,,,,,,,,,,,,,,,,,,,,,,,,,,,,,,,,,,,,
,,,,,,,,,6389301d2575b8e4c1e7cc5c,Spanish,13 or older,"no, only English or Spanish",no,2025-07-24_10h13.11.904,empathy_intonation_perc_control,2024.2.4,Win32,29.92936669,6389301d2575b8e4c1e7cc5c,68817205a84113384fffdfe3,68823ee06fbecf226656d901,,,,,,,,,,,,./stim/wavs/cuban_mismatch_interrogative-total-yn_Mi-madre-come-la-fruta.wav,1,,,178.691,181.3116,0,0,2.0625,,0,41,41,31,1,32,1,cuban,,,,,,,,,,,,,,,,,,,,,,,,,,,,,,,,,,,,,,,,,,,,,,,,,,,,,,,,
,,,,,,,,,6389301d2575b8e4c1e7cc5c,Spanish,13 or older,"no, only English or Spanish",no,2025-07-24_10h13.11.904,empathy_intonation_perc_control,2024.2.4,Win32,29.92936669,6389301d2575b8e4c1e7cc5c,68817205a84113384fffdfe3,68823ee06fbecf226656d901,,,,,,,,,,,,./stim/wavs/puertorican_match_interrogative-total-yn_Emilio-ama-la-marcha.wav,1,,,181.3141,184.2305,1,1,2.3667,,0,42,42,21,1,22,1,puertorican,,,,,,,,,,,,,,,,,,,,,,,,,,,,,,,,,,,,,,,,,,,,,,,,,,,,,,,,
,,,,,,,,,6389301d2575b8e4c1e7cc5c,Spanish,13 or older,"no, only English or Spanish",no,2025-07-24_10h13.11.904,empathy_intonation_perc_control,2024.2.4,Win32,29.92936669,6389301d2575b8e4c1e7cc5c,68817205a84113384fffdfe3,68823ee06fbecf226656d901,,,,,,,,,,,,./stim/wavs/castilian_match_interrogative-total-yn_Maria-bebe-el-vino.wav,1,,,184.234,186.3712,1,1,1.5839,,0,43,43,3,1,4,0,castilian,,,,,,,,,,,,,,,,,,,,,,,,,,,,,,,,,,,,,,,,,,,,,,,,,,,,,,,,
,,,,,,,,,6389301d2575b8e4c1e7cc5c,Spanish,13 or older,"no, only English or Spanish",no,2025-07-24_10h13.11.904,empathy_intonation_perc_control,2024.2.4,Win32,29.92936669,6389301d2575b8e4c1e7cc5c,68817205a84113384fffdfe3,68823ee06fbecf226656d901,,,,,,,,,,,,./stim/wavs/puertorican_match_interrogative-total-yn_David-leia-el-libro.wav,1,,,186.3728,189.17,0,0,2.2488,,0,44,44,20,1,21,1,puertorican,,,,,,,,,,,,,,,,,,,,,,,,,,,,,,,,,,,,,,,,,,,,,,,,,,,,,,,,
,,,,,,,,,6389301d2575b8e4c1e7cc5c,Spanish,13 or older,"no, only English or Spanish",no,2025-07-24_10h13.11.904,empathy_intonation_perc_control,2024.2.4,Win32,29.92936669,6389301d2575b8e4c1e7cc5c,68817205a84113384fffdfe3,68823ee06fbecf226656d901,,,,,,,,,,,,./stim/wavs/mexican_match_declarative-broad-focus_Marta-abre-el-regalo.wav,0,,,189.185,191.4328,0,1,1.6914,,0,45,45,61,1,62,0,mexican,,,,,,,,,,,,,,,,,,,,,,,,,,,,,,,,,,,,,,,,,,,,,,,,,,,,,,,,
,,,,,,,,,6389301d2575b8e4c1e7cc5c,Spanish,13 or older,"no, only English or Spanish",no,2025-07-24_10h13.11.904,empathy_intonation_perc_control,2024.2.4,Win32,29.92936669,6389301d2575b8e4c1e7cc5c,68817205a84113384fffdfe3,68823ee06fbecf226656d901,,,,,,,,,,,,./stim/wavs/cuban_match_declarative-broad-focus_Daniel-iba-a-Bolivia.wav,0,,,191.4356,194.1454,0,1,2.1636,,0,46,46,51,1,52,0,cuban,,,,,,,,,,,,,,,,,,,,,,,,,,,,,,,,,,,,,,,,,,,,,,,,,,,,,,,,
,,,,,,,,,6389301d2575b8e4c1e7cc5c,Spanish,13 or older,"no, only English or Spanish",no,2025-07-24_10h13.11.904,empathy_intonation_perc_control,2024.2.4,Win32,29.92936669,6389301d2575b8e4c1e7cc5c,68817205a84113384fffdfe3,68823ee06fbecf226656d901,,,,,,,,,,,,./stim/wavs/puertorican_match_declarative-broad-focus_Daniel-iba-a-Bolivia.wav,0,,,194.1489,196.3799,0,1,1.6833,,0,47,47,63,1,64,0,puertorican,,,,,,,,,,,,,,,,,,,,,,,,,,,,,,,,,,,,,,,,,,,,,,,,,,,,,,,,
,,,,,,,,,6389301d2575b8e4c1e7cc5c,Spanish,13 or older,"no, only English or Spanish",no,2025-07-24_10h13.11.904,empathy_intonation_perc_control,2024.2.4,Win32,29.92936669,6389301d2575b8e4c1e7cc5c,68817205a84113384fffdfe3,68823ee06fbecf226656d901,,,,,,,,,,,,./stim/wavs/castilian_match_interrogative-total-yn_Mariano-habla-del-tiempo.wav,1,,,196.3809,198.805,1,1,1.8787,,0,48,48,4,1,5,0,castilian,,,,,,,,,,,,,,,,,,,,,,,,,,,,,,,,,,,,,,,,,,,,,,,,,,,,,,,,
,,,,,,,,,6389301d2575b8e4c1e7cc5c,Spanish,13 or older,"no, only English or Spanish",no,2025-07-24_10h13.11.904,empathy_intonation_perc_control,2024.2.4,Win32,29.92936669,6389301d2575b8e4c1e7cc5c,68817205a84113384fffdfe3,68823ee06fbecf226656d901,,,,,,,,,,,,./stim/wavs/puertorican_match_interrogative-total-yn_Daniel-iba-a-Bolivia.wav,1,,,198.8066,201.7325,0,0,2.3847,,0,49,49,19,1,20,1,puertorican,,,,,,,,,,,,,,,,,,,,,,,,,,,,,,,,,,,,,,,,,,,,,,,,,,,,,,,,
,,,,,,,,,6389301d2575b8e4c1e7cc5c,Spanish,13 or older,"no, only English or Spanish",no,2025-07-24_10h13.11.904,empathy_intonation_perc_control,2024.2.4,Win32,29.92936669,6389301d2575b8e4c1e7cc5c,68817205a84113384fffdfe3,68823ee06fbecf226656d901,,,,,,,,,,,,./stim/wavs/mexican_match_declarative-broad-focus_David-leia-el-libro.wav,0,,,201.7466,204.1428,0,1,1.8489,,0,50,50,58,1,59,0,mexican,,,,,,,,,,,,,,,,,,,,,,,,,,,,,,,,,,,,,,,,,,,,,,,,,,,,,,,,
,,,,,,,,,6389301d2575b8e4c1e7cc5c,Spanish,13 or older,"no, only English or Spanish",no,2025-07-24_10h13.11.904,empathy_intonation_perc_control,2024.2.4,Win32,29.92936669,6389301d2575b8e4c1e7cc5c,68817205a84113384fffdfe3,68823ee06fbecf226656d901,,,,,,,,,,,,./stim/wavs/puertorican_match_declarative-broad-focus_Manuela-vende-el-carro.wav,0,,,204.1449,206.6455,0,1,1.9498,,0,51,51,66,1,67,0,puertorican,,,,,,,,,,,,,,,,,,,,,,,,,,,,,,,,,,,,,,,,,,,,,,,,,,,,,,,,
,,,,,,,,,6389301d2575b8e4c1e7cc5c,Spanish,13 or older,"no, only English or Spanish",no,2025-07-24_10h13.11.904,empathy_intonation_perc_control,2024.2.4,Win32,29.92936669,6389301d2575b8e4c1e7cc5c,68817205a84113384fffdfe3,68823ee06fbecf226656d901,,,,,,,,,,,,./stim/wavs/cuban_mismatch_declarative-broad-focus_El-hombre-mira-la-luna.wav,0,,,206.6484,208.8052,0,1,1.6134,,0,52,52,74,1,75,0,cuban,,,,,,,,,,,,,,,,,,,,,,,,,,,,,,,,,,,,,,,,,,,,,,,,,,,,,,,,
,,,,,,,,,6389301d2575b8e4c1e7cc5c,Spanish,13 or older,"no, only English or Spanish",no,2025-07-24_10h13.11.904,empathy_intonation_perc_control,2024.2.4,Win32,29.92936669,6389301d2575b8e4c1e7cc5c,68817205a84113384fffdfe3,68823ee06fbecf226656d901,,,,,,,,,,,,./stim/wavs/castilian_match_interrogative-total-yn_Marta-abre-el-regalo.wav,1,,,208.8086,211.0441,1,1,1.6939,,0,53,53,5,1,6,0,castilian,,,,,,,,,,,,,,,,,,,,,,,,,,,,,,,,,,,,,,,,,,,,,,,,,,,,,,,,
,,,,,,,,,6389301d2575b8e4c1e7cc5c,Spanish,13 or older,"no, only English or Spanish",no,2025-07-24_10h13.11.904,empathy_intonation_perc_control,2024.2.4,Win32,29.92936669,6389301d2575b8e4c1e7cc5c,68817205a84113384fffdfe3,68823ee06fbecf226656d901,,,,,,,,,,,,./stim/wavs/puertorican_match_interrogative-total-yn_Maria-bebe-el-vino.wav,1,,,211.0467,213.0793,1,1,1.4843,,0,54,54,23,1,24,1,puertorican,,,,,,,,,,,,,,,,,,,,,,,,,,,,,,,,,,,,,,,,,,,,,,,,,,,,,,,,
,,,,,,,,,6389301d2575b8e4c1e7cc5c,Spanish,13 or older,"no, only English or Spanish",no,2025-07-24_10h13.11.904,empathy_intonation_perc_control,2024.2.4,Win32,29.92936669,6389301d2575b8e4c1e7cc5c,68817205a84113384fffdfe3,68823ee06fbecf226656d901,,,,,,,,,,,,./stim/wavs/castilian_mismatch_declarative-broad-focus_La-maestra-vive-en-Paris.wav,0,,,213.0813,215.7421,1,0,2.1193,,0,55,55,69,1,70,0,castilian,,,,,,,,,,,,,,,,,,,,,,,,,,,,,,,,,,,,,,,,,,,,,,,,,,,,,,,,
,,,,,,,,,6389301d2575b8e4c1e7cc5c,Spanish,13 or older,"no, only English or Spanish",no,2025-07-24_10h13.11.904,empathy_intonation_perc_control,2024.2.4,Win32,29.92936669,6389301d2575b8e4c1e7cc5c,68817205a84113384fffdfe3,68823ee06fbecf226656d901,,,,,,,,,,,,./stim/wavs/mexican_match_interrogative-total-yn_Mariano-habla-del-tiempo.wav,1,,,215.7564,218.0447,1,1,1.7474,,0,56,56,16,1,17,0,mexican,,,,,,,,,,,,,,,,,,,,,,,,,,,,,,,,,,,,,,,,,,,,,,,,,,,,,,,,
,,,,,,,,,6389301d2575b8e4c1e7cc5c,Spanish,13 or older,"no, only English or Spanish",no,2025-07-24_10h13.11.904,empathy_intonation_perc_control,2024.2.4,Win32,29.92936669,6389301d2575b8e4c1e7cc5c,68817205a84113384fffdfe3,68823ee06fbecf226656d901,,,,,,,,,,,,./stim/wavs/castilian_match_declarative-broad-focus_Manuela-vende-el-carro.wav,0,,,218.0456,220.4345,0,1,1.8356,,0,57,57,46,1,47,0,castilian,,,,,,,,,,,,,,,,,,,,,,,,,,,,,,,,,,,,,,,,,,,,,,,,,,,,,,,,
,,,,,,,,,6389301d2575b8e4c1e7cc5c,Spanish,13 or older,"no, only English or Spanish",no,2025-07-24_10h13.11.904,empathy_intonation_perc_control,2024.2.4,Win32,29.92936669,6389301d2575b8e4c1e7cc5c,68817205a84113384fffdfe3,68823ee06fbecf226656d901,,,,,,,,,,,,./stim/wavs/castilian_mismatch_interrogative-total-yn_Mi-novio-viene-del-lago.wav,1,,,220.4357,222.9422,1,1,1.9603,,0,58,58,27,1,28,0,castilian,,,,,,,,,,,,,,,,,,,,,,,,,,,,,,,,,,,,,,,,,,,,,,,,,,,,,,,,
,,,,,,,,,6389301d2575b8e4c1e7cc5c,Spanish,13 or older,"no, only English or Spanish",no,2025-07-24_10h13.11.904,empathy_intonation_perc_control,2024.2.4,Win32,29.92936669,6389301d2575b8e4c1e7cc5c,68817205a84113384fffdfe3,68823ee06fbecf226656d901,,,,,,,,,,,,./stim/wavs/puertorican_mismatch_interrogative-total-yn_Mi-madre-come-la-fruta.wav,1,,,222.9449,225.2652,0,0,1.7754,,0,59,59,43,1,44,1,puertorican,,,,,,,,,,,,,,,,,,,,,,,,,,,,,,,,,,,,,,,,,,,,,,,,,,,,,,,,
,,,,,,,,,6389301d2575b8e4c1e7cc5c,Spanish,13 or older,"no, only English or Spanish",no,2025-07-24_10h13.11.904,empathy_intonation_perc_control,2024.2.4,Win32,29.92936669,6389301d2575b8e4c1e7cc5c,68817205a84113384fffdfe3,68823ee06fbecf226656d901,,,,,,,,,,,,./stim/wavs/cuban_match_interrogative-total-yn_Marta-abre-el-regalo.wav,1,,,225.2668,227.7951,0,0,1.9654,,0,60,60,11,1,12,1,cuban,,,,,,,,,,,,,,,,,,,,,,,,,,,,,,,,,,,,,,,,,,,,,,,,,,,,,,,,
,,,,,,,,,6389301d2575b8e4c1e7cc5c,Spanish,13 or older,"no, only English or Spanish",no,2025-07-24_10h13.11.904,empathy_intonation_perc_control,2024.2.4,Win32,29.92936669,6389301d2575b8e4c1e7cc5c,68817205a84113384fffdfe3,68823ee06fbecf226656d901,,,,,,,,,,,,./stim/wavs/castilian_match_interrogative-total-yn_Manuela-vende-el-carro.wav,1,,,227.8121,230.2962,1,1,1.9325,,0,61,61,2,1,3,0,castilian,,,,,,,,,,,,,,,,,,,,,,,,,,,,,,,,,,,,,,,,,,,,,,,,,,,,,,,,
,,,,,,,,,6389301d2575b8e4c1e7cc5c,Spanish,13 or older,"no, only English or Spanish",no,2025-07-24_10h13.11.904,empathy_intonation_perc_control,2024.2.4,Win32,29.92936669,6389301d2575b8e4c1e7cc5c,68817205a84113384fffdfe3,68823ee06fbecf226656d901,,,,,,,,,,,,./stim/wavs/castilian_mismatch_declarative-broad-focus_La-nina-lava-el-plato.wav,0,,,230.298,232.7106,0,1,1.8682,,0,62,62,70,1,71,0,castilian,,,,,,,,,,,,,,,,,,,,,,,,,,,,,,,,,,,,,,,,,,,,,,,,,,,,,,,,
,,,,,,,,,6389301d2575b8e4c1e7cc5c,Spanish,13 or older,"no, only English or Spanish",no,2025-07-24_10h13.11.904,empathy_intonation_perc_control,2024.2.4,Win32,29.92936669,6389301d2575b8e4c1e7cc5c,68817205a84113384fffdfe3,68823ee06fbecf226656d901,,,,,,,,,,,,./stim/wavs/mexican_mismatch_interrogative-total-yn_El-hombre-mira-la-luna.wav,1,,,232.7125,234.8849,1,1,1.6358,,0,63,63,34,1,35,0,mexican,,,,,,,,,,,,,,,,,,,,,,,,,,,,,,,,,,,,,,,,,,,,,,,,,,,,,,,,
,,,,,,,,,6389301d2575b8e4c1e7cc5c,Spanish,13 or older,"no, only English or Spanish",no,2025-07-24_10h13.11.904,empathy_intonation_perc_control,2024.2.4,Win32,29.92936669,6389301d2575b8e4c1e7cc5c,68817205a84113384fffdfe3,68823ee06fbecf226656d901,,,,,,,,,,,,./stim/wavs/cuban_match_interrogative-total-yn_Maria-bebe-el-vino.wav,1,,,234.8882,237.0562,0,0,1.6199,,0,64,64,9,1,10,1,cuban,,,,,,,,,,,,,,,,,,,,,,,,,,,,,,,,,,,,,,,,,,,,,,,,,,,,,,,,
,,,,,,,,,6389301d2575b8e4c1e7cc5c,Spanish,13 or older,"no, only English or Spanish",no,2025-07-24_10h13.11.904,empathy_intonation_perc_control,2024.2.4,Win32,29.92936669,6389301d2575b8e4c1e7cc5c,68817205a84113384fffdfe3,68823ee06fbecf226656d901,,,,,,,,,,,,./stim/wavs/mexican_mismatch_declarative-broad-focus_La-maestra-vive-en-Paris.wav,0,,,237.0584,240.2504,0,1,2.6433,,0,65,65,80,1,81,0,mexican,,,,,,,,,,,,,,,,,,,,,,,,,,,,,,,,,,,,,,,,,,,,,,,,,,,,,,,,
,,,,,,,,,6389301d2575b8e4c1e7cc5c,Spanish,13 or older,"no, only English or Spanish",no,2025-07-24_10h13.11.904,empathy_intonation_perc_control,2024.2.4,Win32,29.92936669,6389301d2575b8e4c1e7cc5c,68817205a84113384fffdfe3,68823ee06fbecf226656d901,,,,,,,,,,,,./stim/wavs/cuban_match_interrogative-total-yn_Daniel-iba-a-Bolivia.wav,1,,,240.268,242.7678,0,0,1.9495,,0,66,66,7,1,8,1,cuban,,,,,,,,,,,,,,,,,,,,,,,,,,,,,,,,,,,,,,,,,,,,,,,,,,,,,,,,
,,,,,,,,,6389301d2575b8e4c1e7cc5c,Spanish,13 or older,"no, only English or Spanish",no,2025-07-24_10h13.11.904,empathy_intonation_perc_control,2024.2.4,Win32,29.92936669,6389301d2575b8e4c1e7cc5c,68817205a84113384fffdfe3,68823ee06fbecf226656d901,,,,,,,,,,,,./stim/wavs/castilian_match_declarative-broad-focus_Marta-abre-el-regalo.wav,0,,,242.7688,245.3097,0,1,2.0002,,0,67,67,49,1,50,0,castilian,,,,,,,,,,,,,,,,,,,,,,,,,,,,,,,,,,,,,,,,,,,,,,,,,,,,,,,,
,,,,,,,,,6389301d2575b8e4c1e7cc5c,Spanish,13 or older,"no, only English or Spanish",no,2025-07-24_10h13.11.904,empathy_intonation_perc_control,2024.2.4,Win32,29.92936669,6389301d2575b8e4c1e7cc5c,68817205a84113384fffdfe3,68823ee06fbecf226656d901,,,,,,,,,,,,./stim/wavs/cuban_mismatch_interrogative-total-yn_El-hombre-mira-la-luna.wav,1,,,245.3115,247.4854,0,0,1.6316,,0,68,68,29,1,30,1,cuban,,,,,,,,,,,,,,,,,,,,,,,,,,,,,,,,,,,,,,,,,,,,,,,,,,,,,,,,
,,,,,,,,,6389301d2575b8e4c1e7cc5c,Spanish,13 or older,"no, only English or Spanish",no,2025-07-24_10h13.11.904,empathy_intonation_perc_control,2024.2.4,Win32,29.92936669,6389301d2575b8e4c1e7cc5c,68817205a84113384fffdfe3,68823ee06fbecf226656d901,,,,,,,,,,,,./stim/wavs/castilian_mismatch_declarative-broad-focus_El-nino-oye-el-rio.wav,0,,,247.4875,249.9055,0,1,1.8754,,0,69,69,68,1,69,0,castilian,,,,,,,,,,,,,,,,,,,,,,,,,,,,,,,,,,,,,,,,,,,,,,,,,,,,,,,,
,,,,,,,,,6389301d2575b8e4c1e7cc5c,Spanish,13 or older,"no, only English or Spanish",no,2025-07-24_10h13.11.904,empathy_intonation_perc_control,2024.2.4,Win32,29.92936669,6389301d2575b8e4c1e7cc5c,68817205a84113384fffdfe3,68823ee06fbecf226656d901,,,,,,,,,,,,./stim/wavs/cuban_match_declarative-broad-focus_Maria-bebe-el-vino.wav,0,,,249.907,252.0667,0,1,1.6135,,0,70,70,53,1,54,0,cuban,,,,,,,,,,,,,,,,,,,,,,,,,,,,,,,,,,,,,,,,,,,,,,,,,,,,,,,,
,,,,,,,,,6389301d2575b8e4c1e7cc5c,Spanish,13 or older,"no, only English or Spanish",no,2025-07-24_10h13.11.904,empathy_intonation_perc_control,2024.2.4,Win32,29.92936669,6389301d2575b8e4c1e7cc5c,68817205a84113384fffdfe3,68823ee06fbecf226656d901,,,,,,,,,,,,./stim/wavs/mexican_match_interrogative-total-yn_Marta-abre-el-regalo.wav,1,,,252.068,254.1326,1,1,1.5184,,0,71,71,17,1,18,0,mexican,,,,,,,,,,,,,,,,,,,,,,,,,,,,,,,,,,,,,,,,,,,,,,,,,,,,,,,,
,,,,,,,,,6389301d2575b8e4c1e7cc5c,Spanish,13 or older,"no, only English or Spanish",no,2025-07-24_10h13.11.904,empathy_intonation_perc_control,2024.2.4,Win32,29.92936669,6389301d2575b8e4c1e7cc5c,68817205a84113384fffdfe3,68823ee06fbecf226656d901,,,,,,,,,,,,./stim/wavs/castilian_mismatch_interrogative-total-yn_La-nina-lava-el-plato.wav,1,,,254.1336,256.3538,1,1,1.6739,,0,72,72,25,1,26,0,castilian,,,,,,,,,,,,,,,,,,,,,,,,,,,,,,,,,,,,,,,,,,,,,,,,,,,,,,,,
,,,,,,,,,6389301d2575b8e4c1e7cc5c,Spanish,13 or older,"no, only English or Spanish",no,2025-07-24_10h13.11.904,empathy_intonation_perc_control,2024.2.4,Win32,29.92936669,6389301d2575b8e4c1e7cc5c,68817205a84113384fffdfe3,68823ee06fbecf226656d901,,,,,,,,,,,,./stim/wavs/mexican_mismatch_interrogative-total-yn_Mi-tia-odia-la-lluvia.wav,1,,,256.3689,258.4972,1,1,1.5813,,0,73,73,38,1,39,0,mexican,,,,,,,,,,,,,,,,,,,,,,,,,,,,,,,,,,,,,,,,,,,,,,,,,,,,,,,,
,,,,,,,,,6389301d2575b8e4c1e7cc5c,Spanish,13 or older,"no, only English or Spanish",no,2025-07-24_10h13.11.904,empathy_intonation_perc_control,2024.2.4,Win32,29.92936669,6389301d2575b8e4c1e7cc5c,68817205a84113384fffdfe3,68823ee06fbecf226656d901,,,,,,,,,,,,./stim/wavs/puertorican_mismatch_interrogative-total-yn_La-maestra-vive-en-Paris.wav,1,,,258.4985,260.8526,0,0,1.8116,,0,74,74,41,1,42,1,puertorican,,,,,,,,,,,,,,,,,,,,,,,,,,,,,,,,,,,,,,,,,,,,,,,,,,,,,,,,
,,,,,,,,,6389301d2575b8e4c1e7cc5c,Spanish,13 or older,"no, only English or Spanish",no,2025-07-24_10h13.11.904,empathy_intonation_perc_control,2024.2.4,Win32,29.92936669,6389301d2575b8e4c1e7cc5c,68817205a84113384fffdfe3,68823ee06fbecf226656d901,,,,,,,,,,,,./stim/wavs/puertorican_mismatch_declarative-broad-focus_El-bebe-comia-muy-bien.wav,0,,,260.8545,263.0694,0,1,1.6703,,0,75,75,83,1,84,0,puertorican,,,,,,,,,,,,,,,,,,,,,,,,,,,,,,,,,,,,,,,,,,,,,,,,,,,,,,,,
,,,,,,,,,6389301d2575b8e4c1e7cc5c,Spanish,13 or older,"no, only English or Spanish",no,2025-07-24_10h13.11.904,empathy_intonation_perc_control,2024.2.4,Win32,29.92936669,6389301d2575b8e4c1e7cc5c,68817205a84113384fffdfe3,68823ee06fbecf226656d901,,,,,,,,,,,,./stim/wavs/cuban_match_declarative-broad-focus_Mariano-habla-del-tiempo.wav,0,,,263.0711,265.5922,0,1,1.965,,0,76,76,54,1,55,0,cuban,,,,,,,,,,,,,,,,,,,,,,,,,,,,,,,,,,,,,,,,,,,,,,,,,,,,,,,,
,,,,,,,,,6389301d2575b8e4c1e7cc5c,Spanish,13 or older,"no, only English or Spanish",no,2025-07-24_10h13.11.904,empathy_intonation_perc_control,2024.2.4,Win32,29.92936669,6389301d2575b8e4c1e7cc5c,68817205a84113384fffdfe3,68823ee06fbecf226656d901,,,,,,,,,,,,./stim/wavs/castilian_mismatch_interrogative-total-yn_Mi-tia-odia-la-lluvia.wav,1,,,265.5937,267.7485,1,1,1.6065,,0,77,77,28,1,29,0,castilian,,,,,,,,,,,,,,,,,,,,,,,,,,,,,,,,,,,,,,,,,,,,,,,,,,,,,,,,
,,,,,,,,,6389301d2575b8e4c1e7cc5c,Spanish,13 or older,"no, only English or Spanish",no,2025-07-24_10h13.11.904,empathy_intonation_perc_control,2024.2.4,Win32,29.92936669,6389301d2575b8e4c1e7cc5c,68817205a84113384fffdfe3,68823ee06fbecf226656d901,,,,,,,,,,,,./stim/wavs/puertorican_mismatch_interrogative-total-yn_La-nina-lava-el-plato.wav,1,,,267.7496,270.0934,0,0,1.7949,,0,78,78,42,1,43,1,puertorican,,,,,,,,,,,,,,,,,,,,,,,,,,,,,,,,,,,,,,,,,,,,,,,,,,,,,,,,
,,,,,,,,,6389301d2575b8e4c1e7cc5c,Spanish,13 or older,"no, only English or Spanish",no,2025-07-24_10h13.11.904,empathy_intonation_perc_control,2024.2.4,Win32,29.92936669,6389301d2575b8e4c1e7cc5c,68817205a84113384fffdfe3,68823ee06fbecf226656d901,,,,,,,,,,,,./stim/wavs/cuban_match_declarative-broad-focus_Manuela-vende-el-carro.wav,0,,,270.0944,272.7535,0,1,2.1083,,0,79,79,52,1,53,0,cuban,,,,,,,,,,,,,,,,,,,,,,,,,,,,,,,,,,,,,,,,,,,,,,,,,,,,,,,,
,,,,,,,,,6389301d2575b8e4c1e7cc5c,Spanish,13 or older,"no, only English or Spanish",no,2025-07-24_10h13.11.904,empathy_intonation_perc_control,2024.2.4,Win32,29.92936669,6389301d2575b8e4c1e7cc5c,68817205a84113384fffdfe3,68823ee06fbecf226656d901,,,,,,,,,,,,./stim/wavs/mexican_match_declarative-broad-focus_Daniel-iba-a-Bolivia.wav,0,,,272.7675,275.1872,0,1,1.8752,,0,80,80,57,1,58,0,mexican,,,,,,,,,,,,,,,,,,,,,,,,,,,,,,,,,,,,,,,,,,,,,,,,,,,,,,,,
,,,,,,,,,6389301d2575b8e4c1e7cc5c,Spanish,13 or older,"no, only English or Spanish",no,2025-07-24_10h13.11.904,empathy_intonation_perc_control,2024.2.4,Win32,29.92936669,6389301d2575b8e4c1e7cc5c,68817205a84113384fffdfe3,68823ee06fbecf226656d901,,,,,,,,,,,,./stim/wavs/puertorican_mismatch_declarative-broad-focus_El-hombre-mira-la-luna.wav,0,,,275.1879,277.4579,0,1,1.7253,,0,81,81,84,1,85,0,puertorican,,,,,,,,,,,,,,,,,,,,,,,,,,,,,,,,,,,,,,,,,,,,,,,,,,,,,,,,
,,,,,,,,,6389301d2575b8e4c1e7cc5c,Spanish,13 or older,"no, only English or Spanish",no,2025-07-24_10h13.11.904,empathy_intonation_perc_control,2024.2.4,Win32,29.92936669,6389301d2575b8e4c1e7cc5c,68817205a84113384fffdfe3,68823ee06fbecf226656d901,,,,,,,,,,,,./stim/wavs/cuban_match_declarative-broad-focus_Ana-lleva-el-abrigo.wav,0,,,277.4589,279.8098,0,1,1.786,,0,82,82,50,1,51,0,cuban,,,,,,,,,,,,,,,,,,,,,,,,,,,,,,,,,,,,,,,,,,,,,,,,,,,,,,,,
,,,,,,,,,6389301d2575b8e4c1e7cc5c,Spanish,13 or older,"no, only English or Spanish",no,2025-07-24_10h13.11.904,empathy_intonation_perc_control,2024.2.4,Win32,29.92936669,6389301d2575b8e4c1e7cc5c,68817205a84113384fffdfe3,68823ee06fbecf226656d901,,,,,,,,,,,,./stim/wavs/cuban_match_interrogative-total-yn_Ana-lleva-el-abrigo.wav,1,,,279.8113,282.1359,1,1,1.7763,,0,83,83,6,1,7,1,cuban,,,,,,,,,,,,,,,,,,,,,,,,,,,,,,,,,,,,,,,,,,,,,,,,,,,,,,,,
,,,,,,,,,6389301d2575b8e4c1e7cc5c,Spanish,13 or older,"no, only English or Spanish",no,2025-07-24_10h13.11.904,empathy_intonation_perc_control,2024.2.4,Win32,29.92936669,6389301d2575b8e4c1e7cc5c,68817205a84113384fffdfe3,68823ee06fbecf226656d901,,,,,,,,,,,,./stim/wavs/puertorican_match_declarative-broad-focus_Maria-bebe-el-vino.wav,0,,,282.1372,284.5268,1,0,1.8451,,0,84,84,67,1,68,0,puertorican,,,,,,,,,,,,,,,,,,,,,,,,,,,,,,,,,,,,,,,,,,,,,,,,,,,,,,,,
,,,,,,,,,6389301d2575b8e4c1e7cc5c,Spanish,13 or older,"no, only English or Spanish",no,2025-07-24_10h13.11.904,empathy_intonation_perc_control,2024.2.4,Win32,29.92936669,6389301d2575b8e4c1e7cc5c,68817205a84113384fffdfe3,68823ee06fbecf226656d901,,,,,,,,,,,,./stim/wavs/cuban_mismatch_interrogative-total-yn_Mi-novio-viene-del-lago.wav,1,,,284.5289,286.9106,1,1,1.8384,,0,85,85,32,1,33,1,cuban,,,,,,,,,,,,,,,,,,,,,,,,,,,,,,,,,,,,,,,,,,,,,,,,,,,,,,,,
,,,,,,,,,6389301d2575b8e4c1e7cc5c,Spanish,13 or older,"no, only English or Spanish",no,2025-07-24_10h13.11.904,empathy_intonation_perc_control,2024.2.4,Win32,29.92936669,6389301d2575b8e4c1e7cc5c,68817205a84113384fffdfe3,68823ee06fbecf226656d901,,,,,,,,,,,,./stim/wavs/cuban_mismatch_declarative-broad-focus_La-nina-lava-el-plato.wav,0,,,286.9124,289.0489,0,1,1.5912,,0,86,86,75,1,76,0,cuban,,,,,,,,,,,,,,,,,,,,,,,,,,,,,,,,,,,,,,,,,,,,,,,,,,,,,,,,
,,,,,,,,,6389301d2575b8e4c1e7cc5c,Spanish,13 or older,"no, only English or Spanish",no,2025-07-24_10h13.11.904,empathy_intonation_perc_control,2024.2.4,Win32,29.92936669,6389301d2575b8e4c1e7cc5c,68817205a84113384fffdfe3,68823ee06fbecf226656d901,,,,,,,,,,,,./stim/wavs/mexican_mismatch_declarative-broad-focus_El-bebe-comia-muy-bien.wav,0,,,289.0509,291.6427,1,0,2.0405,,0,87,87,78,1,79,0,mexican,,,,,,,,,,,,,,,,,,,,,,,,,,,,,,,,,,,,,,,,,,,,,,,,,,,,,,,,
,,,,,,,"Great! Now we will move on. The next task consists of about 60 trials, in each of which you will see a string of letters. 
  
  Your task is to decide whether this is a real Spanish word or not.", (press the spacebar to continue),6389301d2575b8e4c1e7cc5c,Spanish,13 or older,"no, only English or Spanish",no,2025-07-24_10h13.11.904,empathy_intonation_perc_control,2024.2.4,Win32,29.92936669,6389301d2575b8e4c1e7cc5c,68817205a84113384fffdfe3,68823ee06fbecf226656d901,,,,,,,,,,,,,,,,,,,,,,,,,,,,,,291.6666,300.5598,0,0,0,0,1,,,,,,,,,,,,,,,,,,,,,,,,,,,,,,,,,,,,,,,,,,,,,,,,,
,,,,,,,"If you think it is an existing Spanish word, you type '1' (for 'REAL'), and if you think it is not an existing Spanish word, you type '0' (for 'FAKE').", (press the spacebar to continue),6389301d2575b8e4c1e7cc5c,Spanish,13 or older,"no, only English or Spanish",no,2025-07-24_10h13.11.904,empathy_intonation_perc_control,2024.2.4,Win32,29.92936669,6389301d2575b8e4c1e7cc5c,68817205a84113384fffdfe3,68823ee06fbecf226656d901,,,,,,,,,,,,,,,,,,,,,,,,,,,,,,300.5762,310.5462,0,1,1,1,1,,,,,,,,,,,,,,,,,,,,,,,,,,,,,,,,,,,,,,,,,,,,,,,,,
,,,,,,,"If you are sure that the word exists, even though you don’t know its exact meaning, you may still respond '1' (REAL). 
  
  But if you are not sure if it is an existing word, you should respond '0' (FAKE).
  
  Let's do a practice round...", (press the spacebar to continue),6389301d2575b8e4c1e7cc5c,Spanish,13 or older,"no, only English or Spanish",no,2025-07-24_10h13.11.904,empathy_intonation_perc_control,2024.2.4,Win32,29.92936669,6389301d2575b8e4c1e7cc5c,68817205a84113384fffdfe3,68823ee06fbecf226656d901,,,,,,,,,,,,,,,,,,,,,,,,,,,,,,310.5626,320.3042,0,2,2,2,1,,,,,,,,,,,,,,,,,,,,,,,,,,,,,,,,,,,,,,,,,,,,,,,,,
,,,,,,,,,6389301d2575b8e4c1e7cc5c,Spanish,13 or older,"no, only English or Spanish",no,2025-07-24_10h13.11.904,empathy_intonation_perc_control,2024.2.4,Win32,29.92936669,6389301d2575b8e4c1e7cc5c,68817205a84113384fffdfe3,68823ee06fbecf226656d901,,,,,,,,,,,,,0,,,,,,,,,,,,,,,,,,,,,,,,320.3257,322.5976,1,0,1.7145,,322.5983,323.5939,0,0,0,0,1,0,depiste,REAL,FAKE,,,,,,,,,,,,,,,,,,,,,,,,,,,,,,,,
,,,,,,,,,6389301d2575b8e4c1e7cc5c,Spanish,13 or older,"no, only English or Spanish",no,2025-07-24_10h13.11.904,empathy_intonation_perc_control,2024.2.4,Win32,29.92936669,6389301d2575b8e4c1e7cc5c,68817205a84113384fffdfe3,68823ee06fbecf226656d901,,,,,,,,,,,,,1,,,,,,,,,,,,,,,,,,,,,,,,323.5968,326.0811,1,1,1.9471,,326.0839,327.0736,0,1,1,1,1,0,sí,REAL,FAKE,,,,,,,,,,,,,,,,,,,,,,,,,,,,,,,,
,,,,,,,,,6389301d2575b8e4c1e7cc5c,Spanish,13 or older,"no, only English or Spanish",no,2025-07-24_10h13.11.904,empathy_intonation_perc_control,2024.2.4,Win32,29.92936669,6389301d2575b8e4c1e7cc5c,68817205a84113384fffdfe3,68823ee06fbecf226656d901,,,,,,,,,,,,,0,,,,,,,,,,,,,,,,,,,,,,,,327.0875,329.7265,1,0,2.1,,329.7279,330.7119,0,2,2,2,1,0,coné,REAL,FAKE,,,,,,,,,,,,,,,,,,,,,,,,,,,,,,,,
,,,,,,,,,6389301d2575b8e4c1e7cc5c,Spanish,13 or older,"no, only English or Spanish",no,2025-07-24_10h13.11.904,empathy_intonation_perc_control,2024.2.4,Win32,29.92936669,6389301d2575b8e4c1e7cc5c,68817205a84113384fffdfe3,68823ee06fbecf226656d901,,,,,,,,,,,,,0,,,,,,,,,,,,,,,,,,,,,,,,330.7145,333.6107,1,0,2.3516,,333.6109,334.5881,0,3,3,3,1,0,calpar,REAL,FAKE,,,,,,,,,,,,,,,,,,,,,,,,,,,,,,,,
,,,,,,,,,6389301d2575b8e4c1e7cc5c,Spanish,13 or older,"no, only English or Spanish",no,2025-07-24_10h13.11.904,empathy_intonation_perc_control,2024.2.4,Win32,29.92936669,6389301d2575b8e4c1e7cc5c,68817205a84113384fffdfe3,68823ee06fbecf226656d901,,,,,,,,,,,,,0,,,,,,,,,,,,,,,,,,,,,,,,334.6021,336.4818,0,1,1.3411,,336.4827,337.4975,0,4,4,4,1,0,joten,REAL,FAKE,,,,,,,,,,,,,,,,,,,,,,,,,,,,,,,,
,,,,,,,,,6389301d2575b8e4c1e7cc5c,Spanish,13 or older,"no, only English or Spanish",no,2025-07-24_10h13.11.904,empathy_intonation_perc_control,2024.2.4,Win32,29.92936669,6389301d2575b8e4c1e7cc5c,68817205a84113384fffdfe3,68823ee06fbecf226656d901,,,,,,,,,,,,,1,,,,,,,,,,,,,,,,,,,,,,,,337.5119,340.9319,1,1,2.8601,,340.9321,341.9415,0,5,5,5,1,0,sacapuntas,REAL,FAKE,,,,,,,,,,,,,,,,,,,,,,,,,,,,,,,,
,,,,,,,,,6389301d2575b8e4c1e7cc5c,Spanish,13 or older,"no, only English or Spanish",no,2025-07-24_10h13.11.904,empathy_intonation_perc_control,2024.2.4,Win32,29.92936669,6389301d2575b8e4c1e7cc5c,68817205a84113384fffdfe3,68823ee06fbecf226656d901,,,,,,,,,,,,,0,,,,,,,,,,,,,,,,,,,,,,,,341.9559,344.0251,0,1,1.5281,,344.0252,345.0053,0,6,6,6,1,0,priba,REAL,FAKE,,,,,,,,,,,,,,,,,,,,,,,,,,,,,,,,
,,,,,,,,,6389301d2575b8e4c1e7cc5c,Spanish,13 or older,"no, only English or Spanish",no,2025-07-24_10h13.11.904,empathy_intonation_perc_control,2024.2.4,Win32,29.92936669,6389301d2575b8e4c1e7cc5c,68817205a84113384fffdfe3,68823ee06fbecf226656d901,,,,,,,,,,,,,0,,,,,,,,,,,,,,,,,,,,,,,,345.0075,348.0022,1,0,2.4556,,348.0037,348.9881,0,7,7,7,1,0,pelasula,REAL,FAKE,,,,,,,,,,,,,,,,,,,,,,,,,,,,,,,,
,,,,,,,,,6389301d2575b8e4c1e7cc5c,Spanish,13 or older,"no, only English or Spanish",no,2025-07-24_10h13.11.904,empathy_intonation_perc_control,2024.2.4,Win32,29.92936669,6389301d2575b8e4c1e7cc5c,68817205a84113384fffdfe3,68823ee06fbecf226656d901,,,,,,,,,,,,,1,,,,,,,,,,,,,,,,,,,,,,,,349.0014,350.791,1,1,1.2406,,350.7921,351.7737,0,8,8,8,1,0,bien,REAL,FAKE,,,,,,,,,,,,,,,,,,,,,,,,,,,,,,,,
,,,,,,,,,6389301d2575b8e4c1e7cc5c,Spanish,13 or older,"no, only English or Spanish",no,2025-07-24_10h13.11.904,empathy_intonation_perc_control,2024.2.4,Win32,29.92936669,6389301d2575b8e4c1e7cc5c,68817205a84113384fffdfe3,68823ee06fbecf226656d901,,,,,,,,,,,,,1,,,,,,,,,,,,,,,,,,,,,,,,351.7878,353.3137,1,1,0.9875,,353.3139,354.292,0,9,9,9,1,0,casa,REAL,FAKE,,,,,,,,,,,,,,,,,,,,,,,,,,,,,,,,
,,,,,,,,,6389301d2575b8e4c1e7cc5c,Spanish,13 or older,"no, only English or Spanish",no,2025-07-24_10h13.11.904,empathy_intonation_perc_control,2024.2.4,Win32,29.92936669,6389301d2575b8e4c1e7cc5c,68817205a84113384fffdfe3,68823ee06fbecf226656d901,,,,,,,,,,,,,0,,,,,,,,,,,,,,,,,,,,,,,,354.2943,356.0439,1,0,1.2086,,356.0452,357.0594,0,10,10,10,1,0,lejo,REAL,FAKE,,,,,,,,,,,,,,,,,,,,,,,,,,,,,,,,
,,,,,,,,,6389301d2575b8e4c1e7cc5c,Spanish,13 or older,"no, only English or Spanish",no,2025-07-24_10h13.11.904,empathy_intonation_perc_control,2024.2.4,Win32,29.92936669,6389301d2575b8e4c1e7cc5c,68817205a84113384fffdfe3,68823ee06fbecf226656d901,,,,,,,,,,,,,0,,,,,,,,,,,,,,,,,,,,,,,,357.0614,359.676,1,0,2.0732,,359.6761,360.6567,0,11,11,11,1,0,pretantas,REAL,FAKE,,,,,,,,,,,,,,,,,,,,,,,,,,,,,,,,
,,,,,,,,,6389301d2575b8e4c1e7cc5c,Spanish,13 or older,"no, only English or Spanish",no,2025-07-24_10h13.11.904,empathy_intonation_perc_control,2024.2.4,Win32,29.92936669,6389301d2575b8e4c1e7cc5c,68817205a84113384fffdfe3,68823ee06fbecf226656d901,,,,,,,,,,,,,,,,,,,,,,,,,,,,,,,,,,,,,,,,,,,,,,,,,,,,,,360.6581,362.3803,,,,,,,,,,,,,,,,,,,,,,,,,,,,,,
,,,,,,,,,6389301d2575b8e4c1e7cc5c,Spanish,13 or older,"no, only English or Spanish",no,2025-07-24_10h13.11.904,empathy_intonation_perc_control,2024.2.4,Win32,29.92936669,6389301d2575b8e4c1e7cc5c,68817205a84113384fffdfe3,68823ee06fbecf226656d901,,,,,,,,,,,,,0,,,,,,,,,,,,,,,,,,,,,,,,,,,,,,,,,,,,,87,grodo,,,,,362.4071,364.5347,0,1,1.5857,,0,0,0,86,1,REAL,FAKE,,,,,,,,,,,,,,,,,
,,,,,,,,,6389301d2575b8e4c1e7cc5c,Spanish,13 or older,"no, only English or Spanish",no,2025-07-24_10h13.11.904,empathy_intonation_perc_control,2024.2.4,Win32,29.92936669,6389301d2575b8e4c1e7cc5c,68817205a84113384fffdfe3,68823ee06fbecf226656d901,,,,,,,,,,,,,1,,,,,,,,,,,,,,,,,,,,,,,,,,,,,,,,,,,,,14,yunque,,,,,364.5363,366.3827,0,0,1.3062,,0,1,1,13,1,REAL,FAKE,,,,,,,,,,,,,,,,,
,,,,,,,,,6389301d2575b8e4c1e7cc5c,Spanish,13 or older,"no, only English or Spanish",no,2025-07-24_10h13.11.904,empathy_intonation_perc_control,2024.2.4,Win32,29.92936669,6389301d2575b8e4c1e7cc5c,68817205a84113384fffdfe3,68823ee06fbecf226656d901,,,,,,,,,,,,,1,,,,,,,,,,,,,,,,,,,,,,,,,,,,,,,,,,,,,83,guante,,,,,366.3843,368.4403,0,0,1.5152,,0,2,2,82,1,REAL,FAKE,,,,,,,,,,,,,,,,,
,,,,,,,,,6389301d2575b8e4c1e7cc5c,Spanish,13 or older,"no, only English or Spanish",no,2025-07-24_10h13.11.904,empathy_intonation_perc_control,2024.2.4,Win32,29.92936669,6389301d2575b8e4c1e7cc5c,68817205a84113384fffdfe3,68823ee06fbecf226656d901,,,,,,,,,,,,,0,,,,,,,,,,,,,,,,,,,,,,,,,,,,,,,,,,,,,18,arsa,,,,,368.4419,370.2508,1,0,1.267,,0,3,3,17,1,REAL,FAKE,,,,,,,,,,,,,,,,,
,,,,,,,,,6389301d2575b8e4c1e7cc5c,Spanish,13 or older,"no, only English or Spanish",no,2025-07-24_10h13.11.904,empathy_intonation_perc_control,2024.2.4,Win32,29.92936669,6389301d2575b8e4c1e7cc5c,68817205a84113384fffdfe3,68823ee06fbecf226656d901,,,,,,,,,,,,,1,,,,,,,,,,,,,,,,,,,,,,,,,,,,,,,,,,,,,20,ávido,,,,,370.2535,371.9415,1,1,1.1485,,0,4,4,19,1,REAL,FAKE,,,,,,,,,,,,,,,,,
,,,,,,,,,6389301d2575b8e4c1e7cc5c,Spanish,13 or older,"no, only English or Spanish",no,2025-07-24_10h13.11.904,empathy_intonation_perc_control,2024.2.4,Win32,29.92936669,6389301d2575b8e4c1e7cc5c,68817205a84113384fffdfe3,68823ee06fbecf226656d901,,,,,,,,,,,,,0,,,,,,,,,,,,,,,,,,,,,,,,,,,,,,,,,,,,,29,decar,,,,,371.9429,373.7835,0,1,1.3015,,0,5,5,28,1,REAL,FAKE,,,,,,,,,,,,,,,,,
,,,,,,,,,6389301d2575b8e4c1e7cc5c,Spanish,13 or older,"no, only English or Spanish",no,2025-07-24_10h13.11.904,empathy_intonation_perc_control,2024.2.4,Win32,29.92936669,6389301d2575b8e4c1e7cc5c,68817205a84113384fffdfe3,68823ee06fbecf226656d901,,,,,,,,,,,,,1,,,,,,,,,,,,,,,,,,,,,,,,,,,,,,,,,,,,,41,rebuscar,,,,,373.7854,375.4998,0,0,1.1771,,0,6,6,40,1,REAL,FAKE,,,,,,,,,,,,,,,,,
,,,,,,,,,6389301d2575b8e4c1e7cc5c,Spanish,13 or older,"no, only English or Spanish",no,2025-07-24_10h13.11.904,empathy_intonation_perc_control,2024.2.4,Win32,29.92936669,6389301d2575b8e4c1e7cc5c,68817205a84113384fffdfe3,68823ee06fbecf226656d901,,,,,,,,,,,,,1,,,,,,,,,,,,,,,,,,,,,,,,,,,,,,,,,,,,,22,lacayo,,,,,375.5012,377.3748,0,0,1.336,,0,7,7,21,1,REAL,FAKE,,,,,,,,,,,,,,,,,
,,,,,,,,,6389301d2575b8e4c1e7cc5c,Spanish,13 or older,"no, only English or Spanish",no,2025-07-24_10h13.11.904,empathy_intonation_perc_control,2024.2.4,Win32,29.92936669,6389301d2575b8e4c1e7cc5c,68817205a84113384fffdfe3,68823ee06fbecf226656d901,,,,,,,,,,,,,1,,,,,,,,,,,,,,,,,,,,,,,,,,,,,,,,,,,,,46,martillo,,,,,377.3782,378.9692,1,1,1.0525,,0,8,8,45,1,REAL,FAKE,,,,,,,,,,,,,,,,,
,,,,,,,,,6389301d2575b8e4c1e7cc5c,Spanish,13 or older,"no, only English or Spanish",no,2025-07-24_10h13.11.904,empathy_intonation_perc_control,2024.2.4,Win32,29.92936669,6389301d2575b8e4c1e7cc5c,68817205a84113384fffdfe3,68823ee06fbecf226656d901,,,,,,,,,,,,,0,,,,,,,,,,,,,,,,,,,,,,,,,,,,,,,,,,,,,21,capillo,,,,,378.9708,380.6569,1,0,1.1461,,0,9,9,20,1,REAL,FAKE,,,,,,,,,,,,,,,,,
,,,,,,,,,6389301d2575b8e4c1e7cc5c,Spanish,13 or older,"no, only English or Spanish",no,2025-07-24_10h13.11.904,empathy_intonation_perc_control,2024.2.4,Win32,29.92936669,6389301d2575b8e4c1e7cc5c,68817205a84113384fffdfe3,68823ee06fbecf226656d901,,,,,,,,,,,,,1,,,,,,,,,,,,,,,,,,,,,,,,,,,,,,,,,,,,,6,tergiversar,,,,,380.6583,382.2517,0,0,1.0476,,0,10,10,5,1,REAL,FAKE,,,,,,,,,,,,,,,,,
,,,,,,,,,6389301d2575b8e4c1e7cc5c,Spanish,13 or older,"no, only English or Spanish",no,2025-07-24_10h13.11.904,empathy_intonation_perc_control,2024.2.4,Win32,29.92936669,6389301d2575b8e4c1e7cc5c,68817205a84113384fffdfe3,68823ee06fbecf226656d901,,,,,,,,,,,,,1,,,,,,,,,,,,,,,,,,,,,,,,,,,,,,,,,,,,,69,engatusar,,,,,382.2545,383.7839,0,0,0.9873,,0,11,11,68,1,REAL,FAKE,,,,,,,,,,,,,,,,,
,,,,,,,,,6389301d2575b8e4c1e7cc5c,Spanish,13 or older,"no, only English or Spanish",no,2025-07-24_10h13.11.904,empathy_intonation_perc_control,2024.2.4,Win32,29.92936669,6389301d2575b8e4c1e7cc5c,68817205a84113384fffdfe3,68823ee06fbecf226656d901,,,,,,,,,,,,,1,,,,,,,,,,,,,,,,,,,,,,,,,,,,,,,,,,,,,91,click the 1 key.,,,,,383.788,385.8813,1,1,1.5595,,0,12,12,90,1,REAL,FAKE,,,,,,,,,,,,,,,,,
,,,,,,,,,6389301d2575b8e4c1e7cc5c,Spanish,13 or older,"no, only English or Spanish",no,2025-07-24_10h13.11.904,empathy_intonation_perc_control,2024.2.4,Win32,29.92936669,6389301d2575b8e4c1e7cc5c,68817205a84113384fffdfe3,68823ee06fbecf226656d901,,,,,,,,,,,,,0,,,,,,,,,,,,,,,,,,,,,,,,,,,,,,,,,,,,,23,lampera,,,,,385.8841,387.5894,1,0,1.1704,,0,13,13,22,1,REAL,FAKE,,,,,,,,,,,,,,,,,
,,,,,,,,,6389301d2575b8e4c1e7cc5c,Spanish,13 or older,"no, only English or Spanish",no,2025-07-24_10h13.11.904,empathy_intonation_perc_control,2024.2.4,Win32,29.92936669,6389301d2575b8e4c1e7cc5c,68817205a84113384fffdfe3,68823ee06fbecf226656d901,,,,,,,,,,,,,1,,,,,,,,,,,,,,,,,,,,,,,,,,,,,,,,,,,,,65,bizcocho,,,,,387.5923,389.1764,0,0,1.036,,0,14,14,64,1,REAL,FAKE,,,,,,,,,,,,,,,,,
,,,,,,,,,6389301d2575b8e4c1e7cc5c,Spanish,13 or older,"no, only English or Spanish",no,2025-07-24_10h13.11.904,empathy_intonation_perc_control,2024.2.4,Win32,29.92936669,6389301d2575b8e4c1e7cc5c,68817205a84113384fffdfe3,68823ee06fbecf226656d901,,,,,,,,,,,,,0,,,,,,,,,,,,,,,,,,,,,,,,,,,,,,,,,,,,,17,floroso,,,,,389.18,390.8736,1,0,1.1544,,0,15,15,16,1,REAL,FAKE,,,,,,,,,,,,,,,,,
,,,,,,,,,6389301d2575b8e4c1e7cc5c,Spanish,13 or older,"no, only English or Spanish",no,2025-07-24_10h13.11.904,empathy_intonation_perc_control,2024.2.4,Win32,29.92936669,6389301d2575b8e4c1e7cc5c,68817205a84113384fffdfe3,68823ee06fbecf226656d901,,,,,,,,,,,,,0,,,,,,,,,,,,,,,,,,,,,,,,,,,,,,,,,,,,,70,temblo,,,,,390.8764,392.5791,0,1,1.1636,,0,16,16,69,1,REAL,FAKE,,,,,,,,,,,,,,,,,
,,,,,,,,,6389301d2575b8e4c1e7cc5c,Spanish,13 or older,"no, only English or Spanish",no,2025-07-24_10h13.11.904,empathy_intonation_perc_control,2024.2.4,Win32,29.92936669,6389301d2575b8e4c1e7cc5c,68817205a84113384fffdfe3,68823ee06fbecf226656d901,,,,,,,,,,,,,1,,,,,,,,,,,,,,,,,,,,,,,,,,,,,,,,,,,,,51,candado,,,,,392.5817,394.2096,1,1,1.065,,0,17,17,50,1,REAL,FAKE,,,,,,,,,,,,,,,,,
,,,,,,,,,6389301d2575b8e4c1e7cc5c,Spanish,13 or older,"no, only English or Spanish",no,2025-07-24_10h13.11.904,empathy_intonation_perc_control,2024.2.4,Win32,29.92936669,6389301d2575b8e4c1e7cc5c,68817205a84113384fffdfe3,68823ee06fbecf226656d901,,,,,,,,,,,,,1,,,,,,,,,,,,,,,,,,,,,,,,,,,,,,,,,,,,,43,canela,,,,,394.2111,395.6914,1,1,0.9441,,0,18,18,42,1,REAL,FAKE,,,,,,,,,,,,,,,,,
,,,,,,,,,6389301d2575b8e4c1e7cc5c,Spanish,13 or older,"no, only English or Spanish",no,2025-07-24_10h13.11.904,empathy_intonation_perc_control,2024.2.4,Win32,29.92936669,6389301d2575b8e4c1e7cc5c,68817205a84113384fffdfe3,68823ee06fbecf226656d901,,,,,,,,,,,,,0,,,,,,,,,,,,,,,,,,,,,,,,,,,,,,,,,,,,,72,pemición,,,,,395.6952,397.7096,0,1,1.4792,,0,19,19,71,1,REAL,FAKE,,,,,,,,,,,,,,,,,
,,,,,,,,,6389301d2575b8e4c1e7cc5c,Spanish,13 or older,"no, only English or Spanish",no,2025-07-24_10h13.11.904,empathy_intonation_perc_control,2024.2.4,Win32,29.92936669,6389301d2575b8e4c1e7cc5c,68817205a84113384fffdfe3,68823ee06fbecf226656d901,,,,,,,,,,,,,1,,,,,,,,,,,,,,,,,,,,,,,,,,,,,,,,,,,,,68,alegre,,,,,397.7134,399.377,1,1,1.1042,,0,20,20,67,1,REAL,FAKE,,,,,,,,,,,,,,,,,
,,,,,,,,,6389301d2575b8e4c1e7cc5c,Spanish,13 or older,"no, only English or Spanish",no,2025-07-24_10h13.11.904,empathy_intonation_perc_control,2024.2.4,Win32,29.92936669,6389301d2575b8e4c1e7cc5c,68817205a84113384fffdfe3,68823ee06fbecf226656d901,,,,,,,,,,,,,1,,,,,,,,,,,,,,,,,,,,,,,,,,,,,,,,,,,,,90,clavel,,,,,399.3801,401.3236,0,0,1.4073,,0,21,21,89,1,REAL,FAKE,,,,,,,,,,,,,,,,,
,,,,,,,,,6389301d2575b8e4c1e7cc5c,Spanish,13 or older,"no, only English or Spanish",no,2025-07-24_10h13.11.904,empathy_intonation_perc_control,2024.2.4,Win32,29.92936669,6389301d2575b8e4c1e7cc5c,68817205a84113384fffdfe3,68823ee06fbecf226656d901,,,,,,,,,,,,,0,,,,,,,,,,,,,,,,,,,,,,,,,,,,,,,,,,,,,84,escuto,,,,,401.3259,402.8945,1,0,1.0368,,0,22,22,83,1,REAL,FAKE,,,,,,,,,,,,,,,,,
,,,,,,,,,6389301d2575b8e4c1e7cc5c,Spanish,13 or older,"no, only English or Spanish",no,2025-07-24_10h13.11.904,empathy_intonation_perc_control,2024.2.4,Win32,29.92936669,6389301d2575b8e4c1e7cc5c,68817205a84113384fffdfe3,68823ee06fbecf226656d901,,,,,,,,,,,,,1,,,,,,,,,,,,,,,,,,,,,,,,,,,,,,,,,,,,,24,látigo,,,,,402.8977,404.4422,1,1,1.0065,,0,23,23,23,1,REAL,FAKE,,,,,,,,,,,,,,,,,
,,,,,,,,,6389301d2575b8e4c1e7cc5c,Spanish,13 or older,"no, only English or Spanish",no,2025-07-24_10h13.11.904,empathy_intonation_perc_control,2024.2.4,Win32,29.92936669,6389301d2575b8e4c1e7cc5c,68817205a84113384fffdfe3,68823ee06fbecf226656d901,,,,,,,,,,,,,0,,,,,,,,,,,,,,,,,,,,,,,,,,,,,,,,,,,,,35,rompido,,,,,404.4439,405.9057,0,1,0.9236,,0,24,24,34,1,REAL,FAKE,,,,,,,,,,,,,,,,,
,,,,,,,,,6389301d2575b8e4c1e7cc5c,Spanish,13 or older,"no, only English or Spanish",no,2025-07-24_10h13.11.904,empathy_intonation_perc_control,2024.2.4,Win32,29.92936669,6389301d2575b8e4c1e7cc5c,68817205a84113384fffdfe3,68823ee06fbecf226656d901,,,,,,,,,,,,,1,,,,,,,,,,,,,,,,,,,,,,,,,,,,,,,,,,,,,44,cuchara,,,,,405.9076,407.4711,1,1,1.013,,0,25,25,43,1,REAL,FAKE,,,,,,,,,,,,,,,,,
,,,,,,,,,6389301d2575b8e4c1e7cc5c,Spanish,13 or older,"no, only English or Spanish",no,2025-07-24_10h13.11.904,empathy_intonation_perc_control,2024.2.4,Win32,29.92936669,6389301d2575b8e4c1e7cc5c,68817205a84113384fffdfe3,68823ee06fbecf226656d901,,,,,,,,,,,,,0,,,,,,,,,,,,,,,,,,,,,,,,,,,,,,,,,,,,,10,antar,,,,,407.4745,408.9274,0,1,0.9108,,0,26,26,9,1,REAL,FAKE,,,,,,,,,,,,,,,,,
,,,,,,,,,6389301d2575b8e4c1e7cc5c,Spanish,13 or older,"no, only English or Spanish",no,2025-07-24_10h13.11.904,empathy_intonation_perc_control,2024.2.4,Win32,29.92936669,6389301d2575b8e4c1e7cc5c,68817205a84113384fffdfe3,68823ee06fbecf226656d901,,,,,,,,,,,,,1,,,,,,,,,,,,,,,,,,,,,,,,,,,,,,,,,,,,,67,cabello,,,,,408.9304,410.4856,1,1,1.0046,,0,27,27,66,1,REAL,FAKE,,,,,,,,,,,,,,,,,
,,,,,,,,,6389301d2575b8e4c1e7cc5c,Spanish,13 or older,"no, only English or Spanish",no,2025-07-24_10h13.11.904,empathy_intonation_perc_control,2024.2.4,Win32,29.92936669,6389301d2575b8e4c1e7cc5c,68817205a84113384fffdfe3,68823ee06fbecf226656d901,,,,,,,,,,,,,0,,,,,,,,,,,,,,,,,,,,,,,,,,,,,,,,,,,,,53,vegada,,,,,410.4883,412.131,1,0,1.1025,,0,28,28,52,1,REAL,FAKE,,,,,,,,,,,,,,,,,
,,,,,,,,,6389301d2575b8e4c1e7cc5c,Spanish,13 or older,"no, only English or Spanish",no,2025-07-24_10h13.11.904,empathy_intonation_perc_control,2024.2.4,Win32,29.92936669,6389301d2575b8e4c1e7cc5c,68817205a84113384fffdfe3,68823ee06fbecf226656d901,,,,,,,,,,,,,1,,,,,,,,,,,,,,,,,,,,,,,,,,,,,,,,,,,,,80,hormiga,,,,,412.1342,413.72,0,0,1.0446,,0,29,29,79,1,REAL,FAKE,,,,,,,,,,,,,,,,,
,,,,,,,,,6389301d2575b8e4c1e7cc5c,Spanish,13 or older,"no, only English or Spanish",no,2025-07-24_10h13.11.904,empathy_intonation_perc_control,2024.2.4,Win32,29.92936669,6389301d2575b8e4c1e7cc5c,68817205a84113384fffdfe3,68823ee06fbecf226656d901,,,,,,,,,,,,,1,,,,,,,,,,,,,,,,,,,,,,,,,,,,,,,,,,,,,25,bisagra,,,,,413.7227,415.1755,0,0,0.9209,,0,30,30,24,1,REAL,FAKE,,,,,,,,,,,,,,,,,
,,,,,,,,,6389301d2575b8e4c1e7cc5c,Spanish,13 or older,"no, only English or Spanish",no,2025-07-24_10h13.11.904,empathy_intonation_perc_control,2024.2.4,Win32,29.92936669,6389301d2575b8e4c1e7cc5c,68817205a84113384fffdfe3,68823ee06fbecf226656d901,,,,,,,,,,,,,0,,,,,,,,,,,,,,,,,,,,,,,,,,,,,,,,,,,,,8,cadeña,,,,,415.1792,416.6348,1,0,0.919,,0,31,31,7,1,REAL,FAKE,,,,,,,,,,,,,,,,,
,,,,,,,,,6389301d2575b8e4c1e7cc5c,Spanish,13 or older,"no, only English or Spanish",no,2025-07-24_10h13.11.904,empathy_intonation_perc_control,2024.2.4,Win32,29.92936669,6389301d2575b8e4c1e7cc5c,68817205a84113384fffdfe3,68823ee06fbecf226656d901,,,,,,,,,,,,,1,,,,,,,,,,,,,,,,,,,,,,,,,,,,,,,,,,,,,77,tiburón,,,,,416.6375,418.2034,1,1,1.0049,,0,32,32,76,1,REAL,FAKE,,,,,,,,,,,,,,,,,
,,,,,,,,,6389301d2575b8e4c1e7cc5c,Spanish,13 or older,"no, only English or Spanish",no,2025-07-24_10h13.11.904,empathy_intonation_perc_control,2024.2.4,Win32,29.92936669,6389301d2575b8e4c1e7cc5c,68817205a84113384fffdfe3,68823ee06fbecf226656d901,,,,,,,,,,,,,1,,,,,,,,,,,,,,,,,,,,,,,,,,,,,,,,,,,,,55,nevar,,,,,418.2064,419.6192,0,0,0.8799,,0,33,33,54,1,REAL,FAKE,,,,,,,,,,,,,,,,,
,,,,,,,,,6389301d2575b8e4c1e7cc5c,Spanish,13 or older,"no, only English or Spanish",no,2025-07-24_10h13.11.904,empathy_intonation_perc_control,2024.2.4,Win32,29.92936669,6389301d2575b8e4c1e7cc5c,68817205a84113384fffdfe3,68823ee06fbecf226656d901,,,,,,,,,,,,,0,,,,,,,,,,,,,,,,,,,,,,,,,,,,,,,,,,,,,33,pauca,,,,,419.6227,421.0759,0,1,0.9194,,0,34,34,32,1,REAL,FAKE,,,,,,,,,,,,,,,,,
,,,,,,,,,6389301d2575b8e4c1e7cc5c,Spanish,13 or older,"no, only English or Spanish",no,2025-07-24_10h13.11.904,empathy_intonation_perc_control,2024.2.4,Win32,29.92936669,6389301d2575b8e4c1e7cc5c,68817205a84113384fffdfe3,68823ee06fbecf226656d901,,,,,,,,,,,,,0,,,,,,,,,,,,,,,,,,,,,,,,,,,,,,,,,,,,,32,fatacidad,,,,,421.0783,422.73,0,1,1.1056,,0,35,35,31,1,REAL,FAKE,,,,,,,,,,,,,,,,,
,,,,,,,,,6389301d2575b8e4c1e7cc5c,Spanish,13 or older,"no, only English or Spanish",no,2025-07-24_10h13.11.904,empathy_intonation_perc_control,2024.2.4,Win32,29.92936669,6389301d2575b8e4c1e7cc5c,68817205a84113384fffdfe3,68823ee06fbecf226656d901,,,,,,,,,,,,,1,,,,,,,,,,,,,,,,,,,,,,,,,,,,,,,,,,,,,28,merodear,,,,,422.7327,424.303,0,0,1.0373,,0,36,36,27,1,REAL,FAKE,,,,,,,,,,,,,,,,,
,,,,,,,,,6389301d2575b8e4c1e7cc5c,Spanish,13 or older,"no, only English or Spanish",no,2025-07-24_10h13.11.904,empathy_intonation_perc_control,2024.2.4,Win32,29.92936669,6389301d2575b8e4c1e7cc5c,68817205a84113384fffdfe3,68823ee06fbecf226656d901,,,,,,,,,,,,,1,,,,,,,,,,,,,,,,,,,,,,,,,,,,,,,,,,,,,49,ganar,,,,,424.3061,425.7584,0,0,0.9135,,0,37,37,48,1,REAL,FAKE,,,,,,,,,,,,,,,,,
,,,,,,,,,6389301d2575b8e4c1e7cc5c,Spanish,13 or older,"no, only English or Spanish",no,2025-07-24_10h13.11.904,empathy_intonation_perc_control,2024.2.4,Win32,29.92936669,6389301d2575b8e4c1e7cc5c,68817205a84113384fffdfe3,68823ee06fbecf226656d901,,,,,,,,,,,,,0,,,,,,,,,,,,,,,,,,,,,,,,,,,,,,,,,,,,,74,cintro,,,,,425.7611,427.3147,1,0,0.989,,0,38,38,73,1,REAL,FAKE,,,,,,,,,,,,,,,,,
,,,,,,,,,6389301d2575b8e4c1e7cc5c,Spanish,13 or older,"no, only English or Spanish",no,2025-07-24_10h13.11.904,empathy_intonation_perc_control,2024.2.4,Win32,29.92936669,6389301d2575b8e4c1e7cc5c,68817205a84113384fffdfe3,68823ee06fbecf226656d901,,,,,,,,,,,,,0,,,,,,,,,,,,,,,,,,,,,,,,,,,,,,,,,,,,,47,cartinar,,,,,427.3162,428.8745,1,0,1.0052,,0,39,39,46,1,REAL,FAKE,,,,,,,,,,,,,,,,,
,,,,,,,,,6389301d2575b8e4c1e7cc5c,Spanish,13 or older,"no, only English or Spanish",no,2025-07-24_10h13.11.904,empathy_intonation_perc_control,2024.2.4,Win32,29.92936669,6389301d2575b8e4c1e7cc5c,68817205a84113384fffdfe3,68823ee06fbecf226656d901,,,,,,,,,,,,,1,,,,,,,,,,,,,,,,,,,,,,,,,,,,,,,,,,,,,15,regar,,,,,428.8776,430.4186,1,1,1.006,,0,40,40,14,1,REAL,FAKE,,,,,,,,,,,,,,,,,
,,,,,,,,,6389301d2575b8e4c1e7cc5c,Spanish,13 or older,"no, only English or Spanish",no,2025-07-24_10h13.11.904,empathy_intonation_perc_control,2024.2.4,Win32,29.92936669,6389301d2575b8e4c1e7cc5c,68817205a84113384fffdfe3,68823ee06fbecf226656d901,,,,,,,,,,,,,1,,,,,,,,,,,,,,,,,,,,,,,,,,,,,,,,,,,,,75,yacer,,,,,430.4217,431.9021,0,0,0.9481,,0,41,41,74,1,REAL,FAKE,,,,,,,,,,,,,,,,,
,,,,,,,,,6389301d2575b8e4c1e7cc5c,Spanish,13 or older,"no, only English or Spanish",no,2025-07-24_10h13.11.904,empathy_intonation_perc_control,2024.2.4,Win32,29.92936669,6389301d2575b8e4c1e7cc5c,68817205a84113384fffdfe3,68823ee06fbecf226656d901,,,,,,,,,,,,,1,,,,,,,,,,,,,,,,,,,,,,,,,,,,,,,,,,,,,48,ladrón,,,,,431.9046,434.3062,1,1,1.8624,,0,42,42,47,1,REAL,FAKE,,,,,,,,,,,,,,,,,
,,,,,,,,,6389301d2575b8e4c1e7cc5c,Spanish,13 or older,"no, only English or Spanish",no,2025-07-24_10h13.11.904,empathy_intonation_perc_control,2024.2.4,Win32,29.92936669,6389301d2575b8e4c1e7cc5c,68817205a84113384fffdfe3,68823ee06fbecf226656d901,,,,,,,,,,,,,1,,,,,,,,,,,,,,,,,,,,,,,,,,,,,,,,,,,,,37,granuja,,,,,434.309,436.7439,1,1,1.9,,0,43,43,36,1,REAL,FAKE,,,,,,,,,,,,,,,,,
,,,,,,,,,6389301d2575b8e4c1e7cc5c,Spanish,13 or older,"no, only English or Spanish",no,2025-07-24_10h13.11.904,empathy_intonation_perc_control,2024.2.4,Win32,29.92936669,6389301d2575b8e4c1e7cc5c,68817205a84113384fffdfe3,68823ee06fbecf226656d901,,,,,,,,,,,,,0,,,,,,,,,,,,,,,,,,,,,,,,,,,,,,,,,,,,,50,flamida,,,,,436.7469,438.2703,0,1,0.985,,0,44,44,49,1,REAL,FAKE,,,,,,,,,,,,,,,,,
,,,,,,,,,6389301d2575b8e4c1e7cc5c,Spanish,13 or older,"no, only English or Spanish",no,2025-07-24_10h13.11.904,empathy_intonation_perc_control,2024.2.4,Win32,29.92936669,6389301d2575b8e4c1e7cc5c,68817205a84113384fffdfe3,68823ee06fbecf226656d901,,,,,,,,,,,,,1,,,,,,,,,,,,,,,,,,,,,,,,,,,,,,,,,,,,,89,prisa,,,,,438.2728,439.7515,0,0,0.9169,,0,45,45,88,1,REAL,FAKE,,,,,,,,,,,,,,,,,
,,,,,,,,,6389301d2575b8e4c1e7cc5c,Spanish,13 or older,"no, only English or Spanish",no,2025-07-24_10h13.11.904,empathy_intonation_perc_control,2024.2.4,Win32,29.92936669,6389301d2575b8e4c1e7cc5c,68817205a84113384fffdfe3,68823ee06fbecf226656d901,,,,,,,,,,,,,1,,,,,,,,,,,,,,,,,,,,,,,,,,,,,,,,,,,,,78,frondoso,,,,,439.7546,441.2707,0,0,0.9821,,0,46,46,77,1,REAL,FAKE,,,,,,,,,,,,,,,,,
,,,,,,,,,6389301d2575b8e4c1e7cc5c,Spanish,13 or older,"no, only English or Spanish",no,2025-07-24_10h13.11.904,empathy_intonation_perc_control,2024.2.4,Win32,29.92936669,6389301d2575b8e4c1e7cc5c,68817205a84113384fffdfe3,68823ee06fbecf226656d901,,,,,,,,,,,,,0,,,,,,,,,,,,,,,,,,,,,,,,,,,,,,,,,,,,,27,acutación,,,,,441.2735,443.2252,1,0,1.4174,,0,47,47,26,1,REAL,FAKE,,,,,,,,,,,,,,,,,
,,,,,,,,,6389301d2575b8e4c1e7cc5c,Spanish,13 or older,"no, only English or Spanish",no,2025-07-24_10h13.11.904,empathy_intonation_perc_control,2024.2.4,Win32,29.92936669,6389301d2575b8e4c1e7cc5c,68817205a84113384fffdfe3,68823ee06fbecf226656d901,,,,,,,,,,,,,1,,,,,,,,,,,,,,,,,,,,,,,,,,,,,,,,,,,,,34,aviso,,,,,443.2276,444.5115,1,1,0.7319,,0,48,48,33,1,REAL,FAKE,,,,,,,,,,,,,,,,,
,,,,,,,,,6389301d2575b8e4c1e7cc5c,Spanish,13 or older,"no, only English or Spanish",no,2025-07-24_10h13.11.904,empathy_intonation_perc_control,2024.2.4,Win32,29.92936669,6389301d2575b8e4c1e7cc5c,68817205a84113384fffdfe3,68823ee06fbecf226656d901,,,,,,,,,,,,,1,,,,,,,,,,,,,,,,,,,,,,,,,,,,,,,,,,,,,7,pésimo,,,,,444.5142,446.0214,1,1,0.9512,,0,49,49,6,1,REAL,FAKE,,,,,,,,,,,,,,,,,
,,,,,,,,,6389301d2575b8e4c1e7cc5c,Spanish,13 or older,"no, only English or Spanish",no,2025-07-24_10h13.11.904,empathy_intonation_perc_control,2024.2.4,Win32,29.92936669,6389301d2575b8e4c1e7cc5c,68817205a84113384fffdfe3,68823ee06fbecf226656d901,,,,,,,,,,,,,1,,,,,,,,,,,,,,,,,,,,,,,,,,,,,,,,,,,,,11,cenefa,,,,,446.0238,447.7806,0,0,1.2238,,0,50,50,10,1,REAL,FAKE,,,,,,,,,,,,,,,,,
,,,,,,,,,6389301d2575b8e4c1e7cc5c,Spanish,13 or older,"no, only English or Spanish",no,2025-07-24_10h13.11.904,empathy_intonation_perc_control,2024.2.4,Win32,29.92936669,6389301d2575b8e4c1e7cc5c,68817205a84113384fffdfe3,68823ee06fbecf226656d901,,,,,,,,,,,,,1,,,,,,,,,,,,,,,,,,,,,,,,,,,,,,,,,,,,,71,polvoriento,,,,,447.7834,449.2347,0,0,0.911,,0,51,51,70,1,REAL,FAKE,,,,,,,,,,,,,,,,,
,,,,,,,,,6389301d2575b8e4c1e7cc5c,Spanish,13 or older,"no, only English or Spanish",no,2025-07-24_10h13.11.904,empathy_intonation_perc_control,2024.2.4,Win32,29.92936669,6389301d2575b8e4c1e7cc5c,68817205a84113384fffdfe3,68823ee06fbecf226656d901,,,,,,,,,,,,,1,,,,,,,,,,,,,,,,,,,,,,,,,,,,,,,,,,,,,12,asesinato,,,,,449.2371,450.6062,0,0,0.8145,,0,52,52,11,1,REAL,FAKE,,,,,,,,,,,,,,,,,
,,,,,,,,,6389301d2575b8e4c1e7cc5c,Spanish,13 or older,"no, only English or Spanish",no,2025-07-24_10h13.11.904,empathy_intonation_perc_control,2024.2.4,Win32,29.92936669,6389301d2575b8e4c1e7cc5c,68817205a84113384fffdfe3,68823ee06fbecf226656d901,,,,,,,,,,,,,0,,,,,,,,,,,,,,,,,,,,,,,,,,,,,,,,,,,,,1,terzo,,,,,450.6091,451.9991,0,1,0.8577,,0,53,53,0,1,REAL,FAKE,,,,,,,,,,,,,,,,,
,,,,,,,,,6389301d2575b8e4c1e7cc5c,Spanish,13 or older,"no, only English or Spanish",no,2025-07-24_10h13.11.904,empathy_intonation_perc_control,2024.2.4,Win32,29.92936669,6389301d2575b8e4c1e7cc5c,68817205a84113384fffdfe3,68823ee06fbecf226656d901,,,,,,,,,,,,,1,,,,,,,,,,,,,,,,,,,,,,,,,,,,,,,,,,,,,3,pulmones,,,,,452.0024,453.5709,1,1,1.0348,,0,54,54,2,1,REAL,FAKE,,,,,,,,,,,,,,,,,
,,,,,,,,,6389301d2575b8e4c1e7cc5c,Spanish,13 or older,"no, only English or Spanish",no,2025-07-24_10h13.11.904,empathy_intonation_perc_control,2024.2.4,Win32,29.92936669,6389301d2575b8e4c1e7cc5c,68817205a84113384fffdfe3,68823ee06fbecf226656d901,,,,,,,,,,,,,1,,,,,,,,,,,,,,,,,,,,,,,,,,,,,,,,,,,,,31,pandilla,,,,,453.5737,455.1894,1,1,1.0684,,0,55,55,30,1,REAL,FAKE,,,,,,,,,,,,,,,,,
,,,,,,,,,6389301d2575b8e4c1e7cc5c,Spanish,13 or older,"no, only English or Spanish",no,2025-07-24_10h13.11.904,empathy_intonation_perc_control,2024.2.4,Win32,29.92936669,6389301d2575b8e4c1e7cc5c,68817205a84113384fffdfe3,68823ee06fbecf226656d901,,,,,,,,,,,,,0,,,,,,,,,,,,,,,,,,,,,,,,,,,,,,,,,,,,,58,plaudir,,,,,455.1923,457.0276,1,0,1.2969,,0,56,56,57,1,REAL,FAKE,,,,,,,,,,,,,,,,,
,,,,,,,,,6389301d2575b8e4c1e7cc5c,Spanish,13 or older,"no, only English or Spanish",no,2025-07-24_10h13.11.904,empathy_intonation_perc_control,2024.2.4,Win32,29.92936669,6389301d2575b8e4c1e7cc5c,68817205a84113384fffdfe3,68823ee06fbecf226656d901,,,,,,,,,,,,,1,,,,,,,,,,,,,,,,,,,,,,,,,,,,,,,,,,,,,54,fomentar,,,,,457.03,458.4595,0,0,0.8935,,0,57,57,53,1,REAL,FAKE,,,,,,,,,,,,,,,,,
,,,,,,,,,6389301d2575b8e4c1e7cc5c,Spanish,13 or older,"no, only English or Spanish",no,2025-07-24_10h13.11.904,empathy_intonation_perc_control,2024.2.4,Win32,29.92936669,6389301d2575b8e4c1e7cc5c,68817205a84113384fffdfe3,68823ee06fbecf226656d901,,,,,,,,,,,,,1,,,,,,,,,,,,,,,,,,,,,,,,,,,,,,,,,,,,,85,laúd,,,,,458.4622,460.2353,1,1,1.2379,,0,58,58,84,1,REAL,FAKE,,,,,,,,,,,,,,,,,
,,,,,,,,,6389301d2575b8e4c1e7cc5c,Spanish,13 or older,"no, only English or Spanish",no,2025-07-24_10h13.11.904,empathy_intonation_perc_control,2024.2.4,Win32,29.92936669,6389301d2575b8e4c1e7cc5c,68817205a84113384fffdfe3,68823ee06fbecf226656d901,,,,,,,,,,,,,1,,,,,,,,,,,,,,,,,,,,,,,,,,,,,,,,,,,,,39,torpe,,,,,460.2378,461.8621,1,1,1.0708,,0,59,59,38,1,REAL,FAKE,,,,,,,,,,,,,,,,,
,,,,,,,,,6389301d2575b8e4c1e7cc5c,Spanish,13 or older,"no, only English or Spanish",no,2025-07-24_10h13.11.904,empathy_intonation_perc_control,2024.2.4,Win32,29.92936669,6389301d2575b8e4c1e7cc5c,68817205a84113384fffdfe3,68823ee06fbecf226656d901,,,,,,,,,,,,,0,,,,,,,,,,,,,,,,,,,,,,,,,,,,,,,,,,,,,19,brecedad,,,,,461.8648,463.3206,0,1,0.9118,,0,60,60,18,1,REAL,FAKE,,,,,,,,,,,,,,,,,
,,,,,,,,,6389301d2575b8e4c1e7cc5c,Spanish,13 or older,"no, only English or Spanish",no,2025-07-24_10h13.11.904,empathy_intonation_perc_control,2024.2.4,Win32,29.92936669,6389301d2575b8e4c1e7cc5c,68817205a84113384fffdfe3,68823ee06fbecf226656d901,,,,,,,,,,,,,0,,,,,,,,,,,,,,,,,,,,,,,,,,,,,,,,,,,,,92,click the 0 key.,,,,,463.3236,465.1042,0,1,1.2402,,0,61,61,91,1,REAL,FAKE,,,,,,,,,,,,,,,,,
,,,,,,,,,6389301d2575b8e4c1e7cc5c,Spanish,13 or older,"no, only English or Spanish",no,2025-07-24_10h13.11.904,empathy_intonation_perc_control,2024.2.4,Win32,29.92936669,6389301d2575b8e4c1e7cc5c,68817205a84113384fffdfe3,68823ee06fbecf226656d901,,,,,,,,,,,,,1,,,,,,,,,,,,,,,,,,,,,,,,,,,,,,,,,,,,,76,atar,,,,,465.1078,466.6187,0,0,0.9772,,0,62,62,75,1,REAL,FAKE,,,,,,,,,,,,,,,,,
,,,,,,,,,6389301d2575b8e4c1e7cc5c,Spanish,13 or older,"no, only English or Spanish",no,2025-07-24_10h13.11.904,empathy_intonation_perc_control,2024.2.4,Win32,29.92936669,6389301d2575b8e4c1e7cc5c,68817205a84113384fffdfe3,68823ee06fbecf226656d901,,,,,,,,,,,,,1,,,,,,,,,,,,,,,,,,,,,,,,,,,,,,,,,,,,,59,besar,,,,,466.6209,468.136,0,0,0.957,,0,63,63,58,1,REAL,FAKE,,,,,,,,,,,,,,,,,
,,,,,,,,,6389301d2575b8e4c1e7cc5c,Spanish,13 or older,"no, only English or Spanish",no,2025-07-24_10h13.11.904,empathy_intonation_perc_control,2024.2.4,Win32,29.92936669,6389301d2575b8e4c1e7cc5c,68817205a84113384fffdfe3,68823ee06fbecf226656d901,,,,,,,,,,,,,0,,,,,,,,,,,,,,,,,,,,,,,,,,,,,,,,,,,,,42,cadallo,,,,,468.1388,469.5731,0,1,0.9011,,0,64,64,41,1,REAL,FAKE,,,,,,,,,,,,,,,,,
,,,,,,,,,6389301d2575b8e4c1e7cc5c,Spanish,13 or older,"no, only English or Spanish",no,2025-07-24_10h13.11.904,empathy_intonation_perc_control,2024.2.4,Win32,29.92936669,6389301d2575b8e4c1e7cc5c,68817205a84113384fffdfe3,68823ee06fbecf226656d901,,,,,,,,,,,,,1,,,,,,,,,,,,,,,,,,,,,,,,,,,,,,,,,,,,,60,matar,,,,,469.575,470.894,0,0,0.7864,,0,65,65,59,1,REAL,FAKE,,,,,,,,,,,,,,,,,
,,,,,,,,,6389301d2575b8e4c1e7cc5c,Spanish,13 or older,"no, only English or Spanish",no,2025-07-24_10h13.11.904,empathy_intonation_perc_control,2024.2.4,Win32,29.92936669,6389301d2575b8e4c1e7cc5c,68817205a84113384fffdfe3,68823ee06fbecf226656d901,,,,,,,,,,,,,1,,,,,,,,,,,,,,,,,,,,,,,,,,,,,,,,,,,,,40,alfombra,,,,,470.8971,472.2841,0,0,0.8535,,0,66,66,39,1,REAL,FAKE,,,,,,,,,,,,,,,,,
,,,,,,,,,6389301d2575b8e4c1e7cc5c,Spanish,13 or older,"no, only English or Spanish",no,2025-07-24_10h13.11.904,empathy_intonation_perc_control,2024.2.4,Win32,29.92936669,6389301d2575b8e4c1e7cc5c,68817205a84113384fffdfe3,68823ee06fbecf226656d901,,,,,,,,,,,,,1,,,,,,,,,,,,,,,,,,,,,,,,,,,,,,,,,,,,,5,zapato,,,,,472.2863,473.7969,1,1,0.9484,,0,67,67,4,1,REAL,FAKE,,,,,,,,,,,,,,,,,
,,,,,,,,,6389301d2575b8e4c1e7cc5c,Spanish,13 or older,"no, only English or Spanish",no,2025-07-24_10h13.11.904,empathy_intonation_perc_control,2024.2.4,Win32,29.92936669,6389301d2575b8e4c1e7cc5c,68817205a84113384fffdfe3,68823ee06fbecf226656d901,,,,,,,,,,,,,0,,,,,,,,,,,,,,,,,,,,,,,,,,,,,,,,,,,,,79,tropaje,,,,,473.7994,475.4196,0,1,1.0706,,0,68,68,78,1,REAL,FAKE,,,,,,,,,,,,,,,,,
,,,,,,,,,6389301d2575b8e4c1e7cc5c,Spanish,13 or older,"no, only English or Spanish",no,2025-07-24_10h13.11.904,empathy_intonation_perc_control,2024.2.4,Win32,29.92936669,6389301d2575b8e4c1e7cc5c,68817205a84113384fffdfe3,68823ee06fbecf226656d901,,,,,,,,,,,,,0,,,,,,,,,,,,,,,,,,,,,,,,,,,,,,,,,,,,,82,empirador,,,,,475.4226,477.0404,1,0,1.073,,0,69,69,81,1,REAL,FAKE,,,,,,,,,,,,,,,,,
,,,,,,,,,6389301d2575b8e4c1e7cc5c,Spanish,13 or older,"no, only English or Spanish",no,2025-07-24_10h13.11.904,empathy_intonation_perc_control,2024.2.4,Win32,29.92936669,6389301d2575b8e4c1e7cc5c,68817205a84113384fffdfe3,68823ee06fbecf226656d901,,,,,,,,,,,,,0,,,,,,,,,,,,,,,,,,,,,,,,,,,,,,,,,,,,,16,abracer,,,,,477.0429,478.6,1,0,1.0091,,0,70,70,15,1,REAL,FAKE,,,,,,,,,,,,,,,,,
,,,,,,,,,6389301d2575b8e4c1e7cc5c,Spanish,13 or older,"no, only English or Spanish",no,2025-07-24_10h13.11.904,empathy_intonation_perc_control,2024.2.4,Win32,29.92936669,6389301d2575b8e4c1e7cc5c,68817205a84113384fffdfe3,68823ee06fbecf226656d901,,,,,,,,,,,,,1,,,,,,,,,,,,,,,,,,,,,,,,,,,,,,,,,,,,,52,camisa,,,,,478.6024,480.2575,1,1,1.0935,,0,71,71,51,1,REAL,FAKE,,,,,,,,,,,,,,,,,
,,,,,,,,,6389301d2575b8e4c1e7cc5c,Spanish,13 or older,"no, only English or Spanish",no,2025-07-24_10h13.11.904,empathy_intonation_perc_control,2024.2.4,Win32,29.92936669,6389301d2575b8e4c1e7cc5c,68817205a84113384fffdfe3,68823ee06fbecf226656d901,,,,,,,,,,,,,1,,,,,,,,,,,,,,,,,,,,,,,,,,,,,,,,,,,,,56,musgo,,,,,480.2603,481.9408,0,0,1.1215,,0,72,72,55,1,REAL,FAKE,,,,,,,,,,,,,,,,,
,,,,,,,,,6389301d2575b8e4c1e7cc5c,Spanish,13 or older,"no, only English or Spanish",no,2025-07-24_10h13.11.904,empathy_intonation_perc_control,2024.2.4,Win32,29.92936669,6389301d2575b8e4c1e7cc5c,68817205a84113384fffdfe3,68823ee06fbecf226656d901,,,,,,,,,,,,,0,,,,,,,,,,,,,,,,,,,,,,,,,,,,,,,,,,,,,66,hacido,,,,,481.943,483.5204,1,0,1.0443,,0,73,73,65,1,REAL,FAKE,,,,,,,,,,,,,,,,,
,,,,,,,,,6389301d2575b8e4c1e7cc5c,Spanish,13 or older,"no, only English or Spanish",no,2025-07-24_10h13.11.904,empathy_intonation_perc_control,2024.2.4,Win32,29.92936669,6389301d2575b8e4c1e7cc5c,68817205a84113384fffdfe3,68823ee06fbecf226656d901,,,,,,,,,,,,,0,,,,,,,,,,,,,,,,,,,,,,,,,,,,,,,,,,,,,30,alardio,,,,,483.5227,485.1131,0,1,1.0571,,0,74,74,29,1,REAL,FAKE,,,,,,,,,,,,,,,,,
,,,,,,,,,6389301d2575b8e4c1e7cc5c,Spanish,13 or older,"no, only English or Spanish",no,2025-07-24_10h13.11.904,empathy_intonation_perc_control,2024.2.4,Win32,29.92936669,6389301d2575b8e4c1e7cc5c,68817205a84113384fffdfe3,68823ee06fbecf226656d901,,,,,,,,,,,,,1,,,,,,,,,,,,,,,,,,,,,,,,,,,,,,,,,,,,,61,seda,,,,,485.1161,486.5991,1,1,0.9453,,0,75,75,60,1,REAL,FAKE,,,,,,,,,,,,,,,,,
,,,,,,,,,6389301d2575b8e4c1e7cc5c,Spanish,13 or older,"no, only English or Spanish",no,2025-07-24_10h13.11.904,empathy_intonation_perc_control,2024.2.4,Win32,29.92936669,6389301d2575b8e4c1e7cc5c,68817205a84113384fffdfe3,68823ee06fbecf226656d901,,,,,,,,,,,,,1,,,,,,,,,,,,,,,,,,,,,,,,,,,,,,,,,,,,,9,hacha,,,,,486.602,488.1379,0,0,0.9764,,0,76,76,8,1,REAL,FAKE,,,,,,,,,,,,,,,,,
,,,,,,,,,6389301d2575b8e4c1e7cc5c,Spanish,13 or older,"no, only English or Spanish",no,2025-07-24_10h13.11.904,empathy_intonation_perc_control,2024.2.4,Win32,29.92936669,6389301d2575b8e4c1e7cc5c,68817205a84113384fffdfe3,68823ee06fbecf226656d901,,,,,,,,,,,,,1,,,,,,,,,,,,,,,,,,,,,,,,,,,,,,,,,,,,,45,jilguero,,,,,488.1405,489.716,0,0,1.0409,,0,77,77,44,1,REAL,FAKE,,,,,,,,,,,,,,,,,
,,,,,,,,,6389301d2575b8e4c1e7cc5c,Spanish,13 or older,"no, only English or Spanish",no,2025-07-24_10h13.11.904,empathy_intonation_perc_control,2024.2.4,Win32,29.92936669,6389301d2575b8e4c1e7cc5c,68817205a84113384fffdfe3,68823ee06fbecf226656d901,,,,,,,,,,,,,1,,,,,,,,,,,,,,,,,,,,,,,,,,,,,,,,,,,,,73,hervidor,,,,,489.7184,491.3324,0,0,1.0727,,0,78,78,72,1,REAL,FAKE,,,,,,,,,,,,,,,,,
,,,,,,,,,6389301d2575b8e4c1e7cc5c,Spanish,13 or older,"no, only English or Spanish",no,2025-07-24_10h13.11.904,empathy_intonation_perc_control,2024.2.4,Win32,29.92936669,6389301d2575b8e4c1e7cc5c,68817205a84113384fffdfe3,68823ee06fbecf226656d901,,,,,,,,,,,,,1,,,,,,,,,,,,,,,,,,,,,,,,,,,,,,,,,,,,,88,acantilado,,,,,491.335,492.7998,0,0,0.9065,,0,79,79,87,1,REAL,FAKE,,,,,,,,,,,,,,,,,
,,,,,,,,,6389301d2575b8e4c1e7cc5c,Spanish,13 or older,"no, only English or Spanish",no,2025-07-24_10h13.11.904,empathy_intonation_perc_control,2024.2.4,Win32,29.92936669,6389301d2575b8e4c1e7cc5c,68817205a84113384fffdfe3,68823ee06fbecf226656d901,,,,,,,,,,,,,1,,,,,,,,,,,,,,,,,,,,,,,,,,,,,,,,,,,,,26,secuestro,,,,,492.8023,494.1863,1,1,0.8492,,0,80,80,25,1,REAL,FAKE,,,,,,,,,,,,,,,,,
,,,,,,,,,6389301d2575b8e4c1e7cc5c,Spanish,13 or older,"no, only English or Spanish",no,2025-07-24_10h13.11.904,empathy_intonation_perc_control,2024.2.4,Win32,29.92936669,6389301d2575b8e4c1e7cc5c,68817205a84113384fffdfe3,68823ee06fbecf226656d901,,,,,,,,,,,,,1,,,,,,,,,,,,,,,,,,,,,,,,,,,,,,,,,,,,,86,barato,,,,,494.1884,495.9545,1,1,1.2337,,0,81,81,85,1,REAL,FAKE,,,,,,,,,,,,,,,,,
,,,,,,,,,6389301d2575b8e4c1e7cc5c,Spanish,13 or older,"no, only English or Spanish",no,2025-07-24_10h13.11.904,empathy_intonation_perc_control,2024.2.4,Win32,29.92936669,6389301d2575b8e4c1e7cc5c,68817205a84113384fffdfe3,68823ee06fbecf226656d901,,,,,,,,,,,,,1,,,,,,,,,,,,,,,,,,,,,,,,,,,,,,,,,,,,,38,estornudar,,,,,495.957,497.6127,0,0,1.1178,,0,82,82,37,1,REAL,FAKE,,,,,,,,,,,,,,,,,
,,,,,,,,,6389301d2575b8e4c1e7cc5c,Spanish,13 or older,"no, only English or Spanish",no,2025-07-24_10h13.11.904,empathy_intonation_perc_control,2024.2.4,Win32,29.92936669,6389301d2575b8e4c1e7cc5c,68817205a84113384fffdfe3,68823ee06fbecf226656d901,,,,,,,,,,,,,1,,,,,,,,,,,,,,,,,,,,,,,,,,,,,,,,,,,,,2,pellizcar,,,,,497.616,499.8931,0,0,1.7324,,0,83,83,1,1,REAL,FAKE,,,,,,,,,,,,,,,,,
,,,,,,,,,6389301d2575b8e4c1e7cc5c,Spanish,13 or older,"no, only English or Spanish",no,2025-07-24_10h13.11.904,empathy_intonation_perc_control,2024.2.4,Win32,29.92936669,6389301d2575b8e4c1e7cc5c,68817205a84113384fffdfe3,68823ee06fbecf226656d901,,,,,,,,,,,,,1,,,,,,,,,,,,,,,,,,,,,,,,,,,,,,,,,,,,,36,loro,,,,,499.8959,501.3626,1,1,0.9078,,0,84,84,35,1,REAL,FAKE,,,,,,,,,,,,,,,,,
,,,,,,,,,6389301d2575b8e4c1e7cc5c,Spanish,13 or older,"no, only English or Spanish",no,2025-07-24_10h13.11.904,empathy_intonation_perc_control,2024.2.4,Win32,29.92936669,6389301d2575b8e4c1e7cc5c,68817205a84113384fffdfe3,68823ee06fbecf226656d901,,,,,,,,,,,,,1,,,,,,,,,,,,,,,,,,,,,,,,,,,,,,,,,,,,,13,helar,,,,,501.3652,502.8534,0,0,0.9458,,0,85,85,12,1,REAL,FAKE,,,,,,,,,,,,,,,,,
,,,,,,,,,6389301d2575b8e4c1e7cc5c,Spanish,13 or older,"no, only English or Spanish",no,2025-07-24_10h13.11.904,empathy_intonation_perc_control,2024.2.4,Win32,29.92936669,6389301d2575b8e4c1e7cc5c,68817205a84113384fffdfe3,68823ee06fbecf226656d901,,,,,,,,,,,,,1,,,,,,,,,,,,,,,,,,,,,,,,,,,,,,,,,,,,,62,flaco,,,,,502.8555,504.3358,1,1,0.9408,,0,86,86,61,1,REAL,FAKE,,,,,,,,,,,,,,,,,
,,,,,,,,,6389301d2575b8e4c1e7cc5c,Spanish,13 or older,"no, only English or Spanish",no,2025-07-24_10h13.11.904,empathy_intonation_perc_control,2024.2.4,Win32,29.92936669,6389301d2575b8e4c1e7cc5c,68817205a84113384fffdfe3,68823ee06fbecf226656d901,,,,,,,,,,,,,1,,,,,,,,,,,,,,,,,,,,,,,,,,,,,,,,,,,,,64,orgulloso,,,,,504.3384,505.7796,0,0,0.9085,,0,87,87,63,1,REAL,FAKE,,,,,,,,,,,,,,,,,
,,,,,,,,,6389301d2575b8e4c1e7cc5c,Spanish,13 or older,"no, only English or Spanish",no,2025-07-24_10h13.11.904,empathy_intonation_perc_control,2024.2.4,Win32,29.92936669,6389301d2575b8e4c1e7cc5c,68817205a84113384fffdfe3,68823ee06fbecf226656d901,,,,,,,,,,,,,1,,,,,,,,,,,,,,,,,,,,,,,,,,,,,,,,,,,,,57,tacaño,,,,,505.7829,507.5065,1,1,1.1753,,0,88,88,56,1,REAL,FAKE,,,,,,,,,,,,,,,,,
,,,,,,,,,6389301d2575b8e4c1e7cc5c,Spanish,13 or older,"no, only English or Spanish",no,2025-07-24_10h13.11.904,empathy_intonation_perc_control,2024.2.4,Win32,29.92936669,6389301d2575b8e4c1e7cc5c,68817205a84113384fffdfe3,68823ee06fbecf226656d901,,,,,,,,,,,,,0,,,,,,,,,,,,,,,,,,,,,,,,,,,,,,,,,,,,,63,esposante,,,,,507.5095,509.1438,1,0,1.07,,0,89,89,62,1,REAL,FAKE,,,,,,,,,,,,,,,,,
,,,,,,,,,6389301d2575b8e4c1e7cc5c,Spanish,13 or older,"no, only English or Spanish",no,2025-07-24_10h13.11.904,empathy_intonation_perc_control,2024.2.4,Win32,29.92936669,6389301d2575b8e4c1e7cc5c,68817205a84113384fffdfe3,68823ee06fbecf226656d901,,,,,,,,,,,,,0,,,,,,,,,,,,,,,,,,,,,,,,,,,,,,,,,,,,,4,batillón,,,,,509.146,510.7501,1,0,1.0411,,0,90,90,3,1,REAL,FAKE,,,,,,,,,,,,,,,,,
,,,,,,,,,6389301d2575b8e4c1e7cc5c,Spanish,13 or older,"no, only English or Spanish",no,2025-07-24_10h13.11.904,empathy_intonation_perc_control,2024.2.4,Win32,29.92936669,6389301d2575b8e4c1e7cc5c,68817205a84113384fffdfe3,68823ee06fbecf226656d901,,,,,,,,,,,,,1,,,,,,,,,,,,,,,,,,,,,,,,,,,,,,,,,,,,,81,pozo,,,,,510.7525,512.2936,0,0,0.9851,,0,91,91,80,1,REAL,FAKE,,,,,,,,,,,,,,,,,
,,,,,,,,,6389301d2575b8e4c1e7cc5c,Spanish,13 or older,"no, only English or Spanish",no,2025-07-24_10h13.11.904,empathy_intonation_perc_control,2024.2.4,Win32,29.92936669,6389301d2575b8e4c1e7cc5c,68817205a84113384fffdfe3,68823ee06fbecf226656d901,,,,,,,,,,,,,,,,,,,,,,,,,,,,,,,,,,,,,,,,,,,,,,,,,,,,,,,,,,,,,,,,,,,,,512.2952,524.2918,,,,,,,,,,,,,,,
,,,,,,,,,6389301d2575b8e4c1e7cc5c,Spanish,13 or older,"no, only English or Spanish",no,2025-07-24_10h13.11.904,empathy_intonation_perc_control,2024.2.4,Win32,29.92936669,6389301d2575b8e4c1e7cc5c,68817205a84113384fffdfe3,68823ee06fbecf226656d901,,,,,,,,,,,,,,,,,,,,,,,,,,,1,,,,,,,,,,,,,,,,,,,,,,,,,,,,,,,,,,,,,,,,,,,,524.3304,541.8537,slightly disagree,0,0,0,0,1,I can easily tell if someone else wants to enter a conversation.,1,0,1,0,,
,,,,,,,,,6389301d2575b8e4c1e7cc5c,Spanish,13 or older,"no, only English or Spanish",no,2025-07-24_10h13.11.904,empathy_intonation_perc_control,2024.2.4,Win32,29.92936669,6389301d2575b8e4c1e7cc5c,68817205a84113384fffdfe3,68823ee06fbecf226656d901,,,,,,,,,,,,,,,,,,,,,,,,,,,2,,,,,,,,,,,,,,,,,,,,,,,,,,,,,,,,,,,,,,,,,,,,541.8561,547.2338,strongly disagree,0,1,1,1,1,I prefer animals to humans.,0,1,0,0,,
,,,,,,,,,6389301d2575b8e4c1e7cc5c,Spanish,13 or older,"no, only English or Spanish",no,2025-07-24_10h13.11.904,empathy_intonation_perc_control,2024.2.4,Win32,29.92936669,6389301d2575b8e4c1e7cc5c,68817205a84113384fffdfe3,68823ee06fbecf226656d901,,,,,,,,,,,,,,,,,,,,,,,,,,,3,,,,,,,,,,,,,,,,,,,,,,,,,,,,,,,,,,,,,,,,,,,,547.2361,551.767,strongly disagree,0,2,2,2,1,I try to keep up with the current trends and fashions.,0,1,0,0,,
,,,,,,,,,6389301d2575b8e4c1e7cc5c,Spanish,13 or older,"no, only English or Spanish",no,2025-07-24_10h13.11.904,empathy_intonation_perc_control,2024.2.4,Win32,29.92936669,6389301d2575b8e4c1e7cc5c,68817205a84113384fffdfe3,68823ee06fbecf226656d901,,,,,,,,,,,,,,,,,,,,,,,,,,,4,,,,,,,,,,,,,,,,,,,,,,,,,,,,,,,,,,,,,,,,,,,,551.77,558.0291,strongly disagree,0,3,3,3,1,"I find it difficult to explain to others things that I understand easily,   when they don't understand it first time.",1,0,0,1,,
,,,,,,,,,6389301d2575b8e4c1e7cc5c,Spanish,13 or older,"no, only English or Spanish",no,2025-07-24_10h13.11.904,empathy_intonation_perc_control,2024.2.4,Win32,29.92936669,6389301d2575b8e4c1e7cc5c,68817205a84113384fffdfe3,68823ee06fbecf226656d901,,,,,,,,,,,,,,,,,,,,,,,,,,,5,,,,,,,,,,,,,,,,,,,,,,,,,,,,,,,,,,,,,,,,,,,,558.0309,562.18,slightly agree,0,4,4,4,1,I dream most nights.,0,1,0,0,,
,,,,,,,,,6389301d2575b8e4c1e7cc5c,Spanish,13 or older,"no, only English or Spanish",no,2025-07-24_10h13.11.904,empathy_intonation_perc_control,2024.2.4,Win32,29.92936669,6389301d2575b8e4c1e7cc5c,68817205a84113384fffdfe3,68823ee06fbecf226656d901,,,,,,,,,,,,,,,,,,,,,,,,,,,6,,,,,,,,,,,,,,,,,,,,,,,,,,,,,,,,,,,,,,,,,,,,562.1825,566.4252,slightly disagree,0,5,5,5,1,I really enjoy caring for other people.,1,0,1,0,,
,,,,,,,,,6389301d2575b8e4c1e7cc5c,Spanish,13 or older,"no, only English or Spanish",no,2025-07-24_10h13.11.904,empathy_intonation_perc_control,2024.2.4,Win32,29.92936669,6389301d2575b8e4c1e7cc5c,68817205a84113384fffdfe3,68823ee06fbecf226656d901,,,,,,,,,,,,,,,,,,,,,,,,,,,7,,,,,,,,,,,,,,,,,,,,,,,,,,,,,,,,,,,,,,,,,,,,566.4282,570.3552,slightly disagree,0,6,6,6,1,I try to solve my own problems rather than discussing them with others.,0,1,0,0,,
,,,,,,,,,6389301d2575b8e4c1e7cc5c,Spanish,13 or older,"no, only English or Spanish",no,2025-07-24_10h13.11.904,empathy_intonation_perc_control,2024.2.4,Win32,29.92936669,6389301d2575b8e4c1e7cc5c,68817205a84113384fffdfe3,68823ee06fbecf226656d901,,,,,,,,,,,,,,,,,,,,,,,,,,,8,,,,,,,,,,,,,,,,,,,,,,,,,,,,,,,,,,,,,,,,,,,,570.3573,575.5449,strongly disagree,0,7,7,7,1,I find it hard to know what to do in a social situation.,1,0,0,1,,
,,,,,,,,,6389301d2575b8e4c1e7cc5c,Spanish,13 or older,"no, only English or Spanish",no,2025-07-24_10h13.11.904,empathy_intonation_perc_control,2024.2.4,Win32,29.92936669,6389301d2575b8e4c1e7cc5c,68817205a84113384fffdfe3,68823ee06fbecf226656d901,,,,,,,,,,,,,,,,,,,,,,,,,,,9,,,,,,,,,,,,,,,,,,,,,,,,,,,,,,,,,,,,,,,,,,,,575.5471,578.124,strongly disagree,0,8,8,8,1,I am at my best first thing in the morning.,0,1,0,0,,
,,,,,,,,,6389301d2575b8e4c1e7cc5c,Spanish,13 or older,"no, only English or Spanish",no,2025-07-24_10h13.11.904,empathy_intonation_perc_control,2024.2.4,Win32,29.92936669,6389301d2575b8e4c1e7cc5c,68817205a84113384fffdfe3,68823ee06fbecf226656d901,,,,,,,,,,,,,,,,,,,,,,,,,,,10,,,,,,,,,,,,,,,,,,,,,,,,,,,,,,,,,,,,,,,,,,,,578.127,582.338,strongly disagree,0,9,9,9,1,People often tell me that I went too far in driving my point home in a discussion.,1,0,0,1,,
,,,,,,,,,6389301d2575b8e4c1e7cc5c,Spanish,13 or older,"no, only English or Spanish",no,2025-07-24_10h13.11.904,empathy_intonation_perc_control,2024.2.4,Win32,29.92936669,6389301d2575b8e4c1e7cc5c,68817205a84113384fffdfe3,68823ee06fbecf226656d901,,,,,,,,,,,,,,,,,,,,,,,,,,,11,,,,,,,,,,,,,,,,,,,,,,,,,,,,,,,,,,,,,,,,,,,,582.3401,586.5548,strongly disagree,0,10,10,10,1,It doesn't bother me too much if I am late meeting a friend.,1,0,0,1,,
,,,,,,,,,6389301d2575b8e4c1e7cc5c,Spanish,13 or older,"no, only English or Spanish",no,2025-07-24_10h13.11.904,empathy_intonation_perc_control,2024.2.4,Win32,29.92936669,6389301d2575b8e4c1e7cc5c,68817205a84113384fffdfe3,68823ee06fbecf226656d901,,,,,,,,,,,,,,,,,,,,,,,,,,,12,,,,,,,,,,,,,,,,,,,,,,,,,,,,,,,,,,,,,,,,,,,,586.5571,586.95,strongly disagree,0,11,11,11,1,"Friendships and relationships are just too difficult, so I tend not to 
  bother with them.",1,0,0,1,,
,,,,,,,,,6389301d2575b8e4c1e7cc5c,Spanish,13 or older,"no, only English or Spanish",no,2025-07-24_10h13.11.904,empathy_intonation_perc_control,2024.2.4,Win32,29.92936669,6389301d2575b8e4c1e7cc5c,68817205a84113384fffdfe3,68823ee06fbecf226656d901,,,,,,,,,,,,,,,,,,,,,,,,,,,13,,,,,,,,,,,,,,,,,,,,,,,,,,,,,,,,,,,,,,,,,,,,586.9531,591.9632,slightly disagree,0,12,12,12,1,"I would never break a law, no matter how minor.",0,1,0,0,,
,,,,,,,,,6389301d2575b8e4c1e7cc5c,Spanish,13 or older,"no, only English or Spanish",no,2025-07-24_10h13.11.904,empathy_intonation_perc_control,2024.2.4,Win32,29.92936669,6389301d2575b8e4c1e7cc5c,68817205a84113384fffdfe3,68823ee06fbecf226656d901,,,,,,,,,,,,,,,,,,,,,,,,,,,14,,,,,,,,,,,,,,,,,,,,,,,,,,,,,,,,,,,,,,,,,,,,591.965,603.639,slightly disagree,0,13,13,13,1,I often find it difficult to judge if something is rude or polite.,1,0,0,1,,
,,,,,,,,,6389301d2575b8e4c1e7cc5c,Spanish,13 or older,"no, only English or Spanish",no,2025-07-24_10h13.11.904,empathy_intonation_perc_control,2024.2.4,Win32,29.92936669,6389301d2575b8e4c1e7cc5c,68817205a84113384fffdfe3,68823ee06fbecf226656d901,,,,,,,,,,,,,,,,,,,,,,,,,,,15,,,,,,,,,,,,,,,,,,,,,,,,,,,,,,,,,,,,,,,,,,,,603.6414,612.2756,strongly disagree,0,14,14,14,1,"In a conversation, I tend to focus on my own thoughts rather than on what 
  my listener might be thinking.",1,0,0,1,,
,,,,,,,,,6389301d2575b8e4c1e7cc5c,Spanish,13 or older,"no, only English or Spanish",no,2025-07-24_10h13.11.904,empathy_intonation_perc_control,2024.2.4,Win32,29.92936669,6389301d2575b8e4c1e7cc5c,68817205a84113384fffdfe3,68823ee06fbecf226656d901,,,,,,,,,,,,,,,,,,,,,,,,,,,16,,,,,,,,,,,,,,,,,,,,,,,,,,,,,,,,,,,,,,,,,,,,612.2774,615.9855,strongly disagree,0,15,15,15,1,I prefer practical jokes to verbal humor.,0,1,0,0,,
,,,,,,,,,6389301d2575b8e4c1e7cc5c,Spanish,13 or older,"no, only English or Spanish",no,2025-07-24_10h13.11.904,empathy_intonation_perc_control,2024.2.4,Win32,29.92936669,6389301d2575b8e4c1e7cc5c,68817205a84113384fffdfe3,68823ee06fbecf226656d901,,,,,,,,,,,,,,,,,,,,,,,,,,,17,,,,,,,,,,,,,,,,,,,,,,,,,,,,,,,,,,,,,,,,,,,,615.9873,619.9155,strongly disagree,0,16,16,16,1,I live life for today rather than the future.,0,1,0,0,,
,,,,,,,,,6389301d2575b8e4c1e7cc5c,Spanish,13 or older,"no, only English or Spanish",no,2025-07-24_10h13.11.904,empathy_intonation_perc_control,2024.2.4,Win32,29.92936669,6389301d2575b8e4c1e7cc5c,68817205a84113384fffdfe3,68823ee06fbecf226656d901,,,,,,,,,,,,,,,,,,,,,,,,,,,18,,,,,,,,,,,,,,,,,,,,,,,,,,,,,,,,,,,,,,,,,,,,619.9177,622.7372,strongly disagree,0,17,17,17,1,"When I was a child, I enjoyed cutting up worms to see what would happen.",1,0,0,1,,
,,,,,,,,,6389301d2575b8e4c1e7cc5c,Spanish,13 or older,"no, only English or Spanish",no,2025-07-24_10h13.11.904,empathy_intonation_perc_control,2024.2.4,Win32,29.92936669,6389301d2575b8e4c1e7cc5c,68817205a84113384fffdfe3,68823ee06fbecf226656d901,,,,,,,,,,,,,,,,,,,,,,,,,,,19,,,,,,,,,,,,,,,,,,,,,,,,,,,,,,,,,,,,,,,,,,,,622.7391,629.4978,slightly disagree,0,18,18,18,1,I can pick up quickly if someone says one thing but means another.,1,0,1,0,,
,,,,,,,,,6389301d2575b8e4c1e7cc5c,Spanish,13 or older,"no, only English or Spanish",no,2025-07-24_10h13.11.904,empathy_intonation_perc_control,2024.2.4,Win32,29.92936669,6389301d2575b8e4c1e7cc5c,68817205a84113384fffdfe3,68823ee06fbecf226656d901,,,,,,,,,,,,,,,,,,,,,,,,,,,20,,,,,,,,,,,,,,,,,,,,,,,,,,,,,,,,,,,,,,,,,,,,629.5,638.1058,slightly agree,0,19,19,19,1,I tend to have very strong opinions about morality.,0,1,0,0,,
,,,,,,,,,6389301d2575b8e4c1e7cc5c,Spanish,13 or older,"no, only English or Spanish",no,2025-07-24_10h13.11.904,empathy_intonation_perc_control,2024.2.4,Win32,29.92936669,6389301d2575b8e4c1e7cc5c,68817205a84113384fffdfe3,68823ee06fbecf226656d901,,,,,,,,,,,,,,,,,,,,,,,,,,,21,,,,,,,,,,,,,,,,,,,,,,,,,,,,,,,,,,,,,,,,,,,,638.1091,645.8636,slightly disagree,0,20,20,20,1,It is hard for me to see why some things upset people so much.,1,0,0,1,,
,,,,,,,,,6389301d2575b8e4c1e7cc5c,Spanish,13 or older,"no, only English or Spanish",no,2025-07-24_10h13.11.904,empathy_intonation_perc_control,2024.2.4,Win32,29.92936669,6389301d2575b8e4c1e7cc5c,68817205a84113384fffdfe3,68823ee06fbecf226656d901,,,,,,,,,,,,,,,,,,,,,,,,,,,22,,,,,,,,,,,,,,,,,,,,,,,,,,,,,,,,,,,,,,,,,,,,645.8678,649.9638,slightly agree,0,21,21,21,1,I find it easy to put myself in somebody else's shoes.,1,0,1,0,,
,,,,,,,,,6389301d2575b8e4c1e7cc5c,Spanish,13 or older,"no, only English or Spanish",no,2025-07-24_10h13.11.904,empathy_intonation_perc_control,2024.2.4,Win32,29.92936669,6389301d2575b8e4c1e7cc5c,68817205a84113384fffdfe3,68823ee06fbecf226656d901,,,,,,,,,,,,,,,,,,,,,,,,,,,23,,,,,,,,,,,,,,,,,,,,,,,,,,,,,,,,,,,,,,,,,,,,649.9667,657.7496,strongly agree,0,22,22,22,1,I think that good manners are the most important thing a parent can teach their child.,0,1,0,0,,
,,,,,,,,,6389301d2575b8e4c1e7cc5c,Spanish,13 or older,"no, only English or Spanish",no,2025-07-24_10h13.11.904,empathy_intonation_perc_control,2024.2.4,Win32,29.92936669,6389301d2575b8e4c1e7cc5c,68817205a84113384fffdfe3,68823ee06fbecf226656d901,,,,,,,,,,,,,,,,,,,,,,,,,,,24,,,,,,,,,,,,,,,,,,,,,,,,,,,,,,,,,,,,,,,,,,,,657.7517,665.0516,slightly disagree,0,23,23,23,1,I like to do things on the spur of the moment.,0,1,0,0,,
,,,,,,,,,6389301d2575b8e4c1e7cc5c,Spanish,13 or older,"no, only English or Spanish",no,2025-07-24_10h13.11.904,empathy_intonation_perc_control,2024.2.4,Win32,29.92936669,6389301d2575b8e4c1e7cc5c,68817205a84113384fffdfe3,68823ee06fbecf226656d901,,,,,,,,,,,,,,,,,,,,,,,,,,,25,,,,,,,,,,,,,,,,,,,,,,,,,,,,,,,,,,,,,,,,,,,,665.0553,672.2889,strongly disagree,0,24,24,24,1,I am good at predicting how someone will feel.,1,0,1,0,,
