instructions_2afc.started,instructions_2afc.stopped,instructions_2afc_loop.thisRepN,instructions_2afc_loop.thisTrialN,instructions_2afc_loop.thisN,instructions_2afc_loop.thisIndex,instructions_2afc_loop.ran,instructions_text,continue_text,participant_id,"What variety of Spanish are you most familiar with? (e.g., Peruvian, Spanish, Mexican)",At what age did you begin learning Spanish?,Are you proficient in any languages other than English/Spanish?,"Are you familiar with Caribbean (e.g., Caribbean, Puerto Rican) or Galician Spanish?",date,expName,psychopyVersion,OS,frameRate,id,study_id,session,practice_2afc.started,practice_2afc.stopped,key_resp_2afc_practice.keys,key_resp_2afc_practice.corr,key_resp_2afc_practice.rt,key_resp_2afc_practice.duration,trials_2afc_practice_loop.thisRepN,trials_2afc_practice_loop.thisTrialN,trials_2afc_practice_loop.thisN,trials_2afc_practice_loop.thisIndex,trials_2afc_practice_loop.ran,path,correct_response,check_2afc.started,check_2afc.stopped,trial_2afc.started,trial_2afc.stopped,key_resp_2afc_trial.keys,key_resp_2afc_trial.corr,key_resp_2afc_trial.rt,key_resp_2afc_trial.duration,trials_2afc_loop.thisRepN,trials_2afc_loop.thisTrialN,trials_2afc_loop.thisN,trials_2afc_loop.thisIndex,trials_2afc_loop.ran,item_num,target,variety,instructions_lextale.started,instructions_lextale.stopped,instructions_lextale_loop.thisRepN,instructions_lextale_loop.thisTrialN,instructions_lextale_loop.thisN,instructions_lextale_loop.thisIndex,instructions_lextale_loop.ran,practice_lextale.started,practice_lextale.stopped,key_resp_lextale_practice.keys,key_resp_lextale_practice.corr,key_resp_lextale_practice.rt,key_resp_lextale_practice.duration,practice_feedback_lextale.started,practice_feedback_lextale.stopped,trials_lextale_practice_loop.thisRepN,trials_lextale_practice_loop.thisTrialN,trials_lextale_practice_loop.thisN,trials_lextale_practice_loop.thisIndex,trials_lextale_practice_loop.ran,stim,word,prac_button_real,prac_button_false,check_lextale.started,check_lextale.stopped,trial_lextale.started,trial_lextale.stopped,key_resp_lextale_trial.keys,key_resp_lextale_trial.corr,key_resp_lextale_trial.rt,key_resp_lextale_trial.duration,trials_lextale_loop.thisRepN,trials_lextale_loop.thisTrialN,trials_lextale_loop.thisN,trials_lextale_loop.thisIndex,trials_lextale_loop.ran,button_real,button_false,instructions_eq.started,instructions_eq.stopped,trial_eq.started,trial_eq.stopped,slider_eq_trial.response,trials_eq_loop.thisRepN,trials_eq_loop.thisTrialN,trials_eq_loop.thisN,trials_eq_loop.thisIndex,trials_eq_loop.ran,item,is_test_item,is_distractor,is_agree_score,is_disagree_score,end_exp.started,end_exp.stopped
0.0183,17.1119,0,0,0,0,1,"In the following task you are going to hear a series of utterances. 

  You will decide if the utterances sound like questions or not using your keyboard.", (press the spacebar to continue),638a3fd5992f01b81d0e1e93,Mexican,click here to respond,"no, only English or Spanish",no,2025-07-24_08h01.46.154,empathy_intonation_perc_control,2024.2.4,Win32,59.88023952,638a3fd5992f01b81d0e1e93,68817205a84113384fffdfe3,68822049e0bec326fd0d2c48,,,,,,,,,,,,,,,,,,,,,,,,,,,,,,,,,,,,,,,,,,,,,,,,,,,,,,,,,,,,,,,,,,,,,,,,,,,,,,,,,,,,,
17.1155,54.8956,0,1,1,1,1,"If you believe the utterance is a question, type '1' (for 'yes') and if you do not 
  believe it is a question type '0' (for 'no').

  Let's practice a bit...", (press the spacebar to continue),638a3fd5992f01b81d0e1e93,Mexican,click here to respond,"no, only English or Spanish",no,2025-07-24_08h01.46.154,empathy_intonation_perc_control,2024.2.4,Win32,59.88023952,638a3fd5992f01b81d0e1e93,68817205a84113384fffdfe3,68822049e0bec326fd0d2c48,,,,,,,,,,,,,,,,,,,,,,,,,,,,,,,,,,,,,,,,,,,,,,,,,,,,,,,,,,,,,,,,,,,,,,,,,,,,,,,,,,,,,
,,,,,,,,,638a3fd5992f01b81d0e1e93,Mexican,click here to respond,"no, only English or Spanish",no,2025-07-24_08h01.46.154,empathy_intonation_perc_control,2024.2.4,Win32,59.88023952,638a3fd5992f01b81d0e1e93,68817205a84113384fffdfe3,68822049e0bec326fd0d2c48,54.906,64.7168,1,0,9.2866,,0,0,0,5,1,./stim/wavs/andalusian_statement_filler_Alberto-nunca-se-afeita.wav,0,,,,,,,,,,,,,,,,,,,,,,,,,,,,,,,,,,,,,,,,,,,,,,,,,,,,,,,,,,,,,,,,,,,,,,,,
,,,,,,,,,638a3fd5992f01b81d0e1e93,Mexican,click here to respond,"no, only English or Spanish",no,2025-07-24_08h01.46.154,empathy_intonation_perc_control,2024.2.4,Win32,59.88023952,638a3fd5992f01b81d0e1e93,68817205a84113384fffdfe3,68822049e0bec326fd0d2c48,64.7177,70.0523,1,1,4.8025,,0,1,1,2,1,./stim/wavs/chilean_question_filler_Mi-padre-cantaba-bien.wav,1,,,,,,,,,,,,,,,,,,,,,,,,,,,,,,,,,,,,,,,,,,,,,,,,,,,,,,,,,,,,,,,,,,,,,,,,
,,,,,,,,,638a3fd5992f01b81d0e1e93,Mexican,click here to respond,"no, only English or Spanish",no,2025-07-24_08h01.46.154,empathy_intonation_perc_control,2024.2.4,Win32,59.88023952,638a3fd5992f01b81d0e1e93,68817205a84113384fffdfe3,68822049e0bec326fd0d2c48,70.0532,72.8536,0,1,2.2677,,0,2,2,4,1,./stim/wavs/cuban_statement_filler_Cocinabas-por-la-noche.wav,0,,,,,,,,,,,,,,,,,,,,,,,,,,,,,,,,,,,,,,,,,,,,,,,,,,,,,,,,,,,,,,,,,,,,,,,,
,,,,,,,,,638a3fd5992f01b81d0e1e93,Mexican,click here to respond,"no, only English or Spanish",no,2025-07-24_08h01.46.154,empathy_intonation_perc_control,2024.2.4,Win32,59.88023952,638a3fd5992f01b81d0e1e93,68817205a84113384fffdfe3,68822049e0bec326fd0d2c48,72.8543,75.8051,0,1,2.4175,,0,3,3,6,1,./stim/wavs/peruvian_statement_filler_El-nino-habla-con-su-madre.wav,0,,,,,,,,,,,,,,,,,,,,,,,,,,,,,,,,,,,,,,,,,,,,,,,,,,,,,,,,,,,,,,,,,,,,,,,,
,,,,,,,,,638a3fd5992f01b81d0e1e93,Mexican,click here to respond,"no, only English or Spanish",no,2025-07-24_08h01.46.154,empathy_intonation_perc_control,2024.2.4,Win32,59.88023952,638a3fd5992f01b81d0e1e93,68817205a84113384fffdfe3,68822049e0bec326fd0d2c48,75.8057,78.5228,1,1,2.1858,,0,4,4,0,1,./stim/wavs/castilian_question_filler_Mi-esposo-conoce-al-chico.wav,1,,,,,,,,,,,,,,,,,,,,,,,,,,,,,,,,,,,,,,,,,,,,,,,,,,,,,,,,,,,,,,,,,,,,,,,,
,,,,,,,,,638a3fd5992f01b81d0e1e93,Mexican,click here to respond,"no, only English or Spanish",no,2025-07-24_08h01.46.154,empathy_intonation_perc_control,2024.2.4,Win32,59.88023952,638a3fd5992f01b81d0e1e93,68817205a84113384fffdfe3,68822049e0bec326fd0d2c48,78.5236,80.9238,1,1,1.8761,,0,5,5,3,1,./stim/wavs/mexican_question_filler_Felipe-no-tiene-contrasena.wav,1,,,,,,,,,,,,,,,,,,,,,,,,,,,,,,,,,,,,,,,,,,,,,,,,,,,,,,,,,,,,,,,,,,,,,,,,
,,,,,,,,,638a3fd5992f01b81d0e1e93,Mexican,click here to respond,"no, only English or Spanish",no,2025-07-24_08h01.46.154,empathy_intonation_perc_control,2024.2.4,Win32,59.88023952,638a3fd5992f01b81d0e1e93,68817205a84113384fffdfe3,68822049e0bec326fd0d2c48,80.9244,115.3892,1,1,33.9325,,0,6,6,1,1,./stim/wavs/argentine_question_filler_Mi-vecino-habla-mucho.wav,1,,,,,,,,,,,,,,,,,,,,,,,,,,,,,,,,,,,,,,,,,,,,,,,,,,,,,,,,,,,,,,,,,,,,,,,,
,,,,,,,,,638a3fd5992f01b81d0e1e93,Mexican,click here to respond,"no, only English or Spanish",no,2025-07-24_08h01.46.154,empathy_intonation_perc_control,2024.2.4,Win32,59.88023952,638a3fd5992f01b81d0e1e93,68817205a84113384fffdfe3,68822049e0bec326fd0d2c48,115.3899,120.3916,1,0,4.4688,,0,7,7,7,1,./stim/wavs/puertorican_statement_filler_La-nina-pinta-con-su-amiga.wav,0,,,,,,,,,,,,,,,,,,,,,,,,,,,,,,,,,,,,,,,,,,,,,,,,,,,,,,,,,,,,,,,,,,,,,,,,
,,,,,,,,,638a3fd5992f01b81d0e1e93,Mexican,click here to respond,"no, only English or Spanish",no,2025-07-24_08h01.46.154,empathy_intonation_perc_control,2024.2.4,Win32,59.88023952,638a3fd5992f01b81d0e1e93,68817205a84113384fffdfe3,68822049e0bec326fd0d2c48,,,,,,,,,,,,,,120.392,124.2937,,,,,,,,,,,,,,,,,,,,,,,,,,,,,,,,,,,,,,,,,,,,,,,,,,,,,,,,,,,,,,,,,,,,,,
,,,,,,,,,638a3fd5992f01b81d0e1e93,Mexican,click here to respond,"no, only English or Spanish",no,2025-07-24_08h01.46.154,empathy_intonation_perc_control,2024.2.4,Win32,59.88023952,638a3fd5992f01b81d0e1e93,68817205a84113384fffdfe3,68822049e0bec326fd0d2c48,,,,,,,,,,,,./stim/wavs/cuban_mismatch_declarative-broad-focus_Mi-tia-odia-la-lluvia.wav,0,,,124.3018,127.4118,0,1,2.5839,,0,0,0,77,1,78,0,cuban,,,,,,,,,,,,,,,,,,,,,,,,,,,,,,,,,,,,,,,,,,,,,,,,,,,,,,,,
,,,,,,,,,638a3fd5992f01b81d0e1e93,Mexican,click here to respond,"no, only English or Spanish",no,2025-07-24_08h01.46.154,empathy_intonation_perc_control,2024.2.4,Win32,59.88023952,638a3fd5992f01b81d0e1e93,68817205a84113384fffdfe3,68822049e0bec326fd0d2c48,,,,,,,,,,,,./stim/wavs/cuban_match_declarative-broad-focus_Daniel-iba-a-Bolivia.wav,0,,,127.4127,129.9794,0,1,2.0445,,0,1,1,51,1,52,0,cuban,,,,,,,,,,,,,,,,,,,,,,,,,,,,,,,,,,,,,,,,,,,,,,,,,,,,,,,,
,,,,,,,,,638a3fd5992f01b81d0e1e93,Mexican,click here to respond,"no, only English or Spanish",no,2025-07-24_08h01.46.154,empathy_intonation_perc_control,2024.2.4,Win32,59.88023952,638a3fd5992f01b81d0e1e93,68817205a84113384fffdfe3,68822049e0bec326fd0d2c48,,,,,,,,,,,,./stim/wavs/mexican_match_interrogative-total-yn_Mariano-habla-del-tiempo.wav,1,,,129.9799,132.2969,1,1,1.7832,,0,2,2,16,1,17,0,mexican,,,,,,,,,,,,,,,,,,,,,,,,,,,,,,,,,,,,,,,,,,,,,,,,,,,,,,,,
,,,,,,,,,638a3fd5992f01b81d0e1e93,Mexican,click here to respond,"no, only English or Spanish",no,2025-07-24_08h01.46.154,empathy_intonation_perc_control,2024.2.4,Win32,59.88023952,638a3fd5992f01b81d0e1e93,68817205a84113384fffdfe3,68822049e0bec326fd0d2c48,,,,,,,,,,,,./stim/wavs/mexican_match_interrogative-total-yn_David-leia-el-libro.wav,1,,,132.2976,134.9158,1,1,2.0953,,0,3,3,14,1,15,0,mexican,,,,,,,,,,,,,,,,,,,,,,,,,,,,,,,,,,,,,,,,,,,,,,,,,,,,,,,,
,,,,,,,,,638a3fd5992f01b81d0e1e93,Mexican,click here to respond,"no, only English or Spanish",no,2025-07-24_08h01.46.154,empathy_intonation_perc_control,2024.2.4,Win32,59.88023952,638a3fd5992f01b81d0e1e93,68817205a84113384fffdfe3,68822049e0bec326fd0d2c48,,,,,,,,,,,,./stim/wavs/castilian_mismatch_interrogative-total-yn_Mi-novio-viene-del-lago.wav,1,,,134.9163,167.596,0,0,32.1556,,0,4,4,27,1,28,0,castilian,,,,,,,,,,,,,,,,,,,,,,,,,,,,,,,,,,,,,,,,,,,,,,,,,,,,,,,,
,,,,,,,,,638a3fd5992f01b81d0e1e93,Mexican,click here to respond,"no, only English or Spanish",no,2025-07-24_08h01.46.154,empathy_intonation_perc_control,2024.2.4,Win32,59.88023952,638a3fd5992f01b81d0e1e93,68817205a84113384fffdfe3,68822049e0bec326fd0d2c48,,,,,,,,,,,,./stim/wavs/mexican_mismatch_declarative-broad-focus_El-bebe-comia-muy-bien.wav,0,,,167.5965,171.1312,0,1,3.0224,,0,5,5,78,1,79,0,mexican,,,,,,,,,,,,,,,,,,,,,,,,,,,,,,,,,,,,,,,,,,,,,,,,,,,,,,,,
,,,,,,,,,638a3fd5992f01b81d0e1e93,Mexican,click here to respond,"no, only English or Spanish",no,2025-07-24_08h01.46.154,empathy_intonation_perc_control,2024.2.4,Win32,59.88023952,638a3fd5992f01b81d0e1e93,68817205a84113384fffdfe3,68822049e0bec326fd0d2c48,,,,,,,,,,,,./stim/wavs/cuban_mismatch_interrogative-total-yn_Mi-tia-odia-la-lluvia.wav,1,,,171.1318,173.499,0,0,1.8367,,0,6,6,33,1,34,1,cuban,,,,,,,,,,,,,,,,,,,,,,,,,,,,,,,,,,,,,,,,,,,,,,,,,,,,,,,,
,,,,,,,,,638a3fd5992f01b81d0e1e93,Mexican,click here to respond,"no, only English or Spanish",no,2025-07-24_08h01.46.154,empathy_intonation_perc_control,2024.2.4,Win32,59.88023952,638a3fd5992f01b81d0e1e93,68817205a84113384fffdfe3,68822049e0bec326fd0d2c48,,,,,,,,,,,,./stim/wavs/puertorican_match_declarative-broad-focus_Emilio-ama-la-marcha.wav,0,,,173.4997,176.05,0,1,2.0214,,0,7,7,65,1,66,0,puertorican,,,,,,,,,,,,,,,,,,,,,,,,,,,,,,,,,,,,,,,,,,,,,,,,,,,,,,,,
,,,,,,,,,638a3fd5992f01b81d0e1e93,Mexican,click here to respond,"no, only English or Spanish",no,2025-07-24_08h01.46.154,empathy_intonation_perc_control,2024.2.4,Win32,59.88023952,638a3fd5992f01b81d0e1e93,68817205a84113384fffdfe3,68822049e0bec326fd0d2c48,,,,,,,,,,,,./stim/wavs/cuban_mismatch_declarative-broad-focus_Mi-novio-viene-del-lago.wav,0,,,176.0506,178.4012,0,1,1.8223,,0,8,8,76,1,77,0,cuban,,,,,,,,,,,,,,,,,,,,,,,,,,,,,,,,,,,,,,,,,,,,,,,,,,,,,,,,
,,,,,,,,,638a3fd5992f01b81d0e1e93,Mexican,click here to respond,"no, only English or Spanish",no,2025-07-24_08h01.46.154,empathy_intonation_perc_control,2024.2.4,Win32,59.88023952,638a3fd5992f01b81d0e1e93,68817205a84113384fffdfe3,68822049e0bec326fd0d2c48,,,,,,,,,,,,./stim/wavs/castilian_match_interrogative-total-yn_David-leia-el-libro.wav,1,,,178.4019,180.6689,1,1,1.7348,,0,9,9,0,1,1,0,castilian,,,,,,,,,,,,,,,,,,,,,,,,,,,,,,,,,,,,,,,,,,,,,,,,,,,,,,,,
,,,,,,,,,638a3fd5992f01b81d0e1e93,Mexican,click here to respond,"no, only English or Spanish",no,2025-07-24_08h01.46.154,empathy_intonation_perc_control,2024.2.4,Win32,59.88023952,638a3fd5992f01b81d0e1e93,68817205a84113384fffdfe3,68822049e0bec326fd0d2c48,,,,,,,,,,,,./stim/wavs/puertorican_match_interrogative-total-yn_Emilio-ama-la-marcha.wav,1,,,180.6695,183.1367,0,0,1.9344,,0,10,10,21,1,22,1,puertorican,,,,,,,,,,,,,,,,,,,,,,,,,,,,,,,,,,,,,,,,,,,,,,,,,,,,,,,,
,,,,,,,,,638a3fd5992f01b81d0e1e93,Mexican,click here to respond,"no, only English or Spanish",no,2025-07-24_08h01.46.154,empathy_intonation_perc_control,2024.2.4,Win32,59.88023952,638a3fd5992f01b81d0e1e93,68817205a84113384fffdfe3,68822049e0bec326fd0d2c48,,,,,,,,,,,,./stim/wavs/castilian_match_interrogative-total-yn_Marta-abre-el-regalo.wav,1,,,183.1375,186.0046,1,1,2.3436,,0,11,11,5,1,6,0,castilian,,,,,,,,,,,,,,,,,,,,,,,,,,,,,,,,,,,,,,,,,,,,,,,,,,,,,,,,
,,,,,,,,,638a3fd5992f01b81d0e1e93,Mexican,click here to respond,"no, only English or Spanish",no,2025-07-24_08h01.46.154,empathy_intonation_perc_control,2024.2.4,Win32,59.88023952,638a3fd5992f01b81d0e1e93,68817205a84113384fffdfe3,68822049e0bec326fd0d2c48,,,,,,,,,,,,./stim/wavs/mexican_match_interrogative-total-yn_Daniel-iba-a-Bolivia.wav,1,,,186.005,188.2555,1,1,1.7154,,0,12,12,13,1,14,0,mexican,,,,,,,,,,,,,,,,,,,,,,,,,,,,,,,,,,,,,,,,,,,,,,,,,,,,,,,,
,,,,,,,,,638a3fd5992f01b81d0e1e93,Mexican,click here to respond,"no, only English or Spanish",no,2025-07-24_08h01.46.154,empathy_intonation_perc_control,2024.2.4,Win32,59.88023952,638a3fd5992f01b81d0e1e93,68817205a84113384fffdfe3,68822049e0bec326fd0d2c48,,,,,,,,,,,,./stim/wavs/puertorican_mismatch_interrogative-total-yn_El-hombre-mira-la-luna.wav,1,,,188.2561,190.4566,1,1,1.6678,,0,13,13,39,1,40,1,puertorican,,,,,,,,,,,,,,,,,,,,,,,,,,,,,,,,,,,,,,,,,,,,,,,,,,,,,,,,
,,,,,,,,,638a3fd5992f01b81d0e1e93,Mexican,click here to respond,"no, only English or Spanish",no,2025-07-24_08h01.46.154,empathy_intonation_perc_control,2024.2.4,Win32,59.88023952,638a3fd5992f01b81d0e1e93,68817205a84113384fffdfe3,68822049e0bec326fd0d2c48,,,,,,,,,,,,./stim/wavs/cuban_mismatch_interrogative-total-yn_El-nino-oye-el-rio.wav,1,,,190.4572,192.5909,0,0,1.6078,,0,14,14,30,1,31,1,cuban,,,,,,,,,,,,,,,,,,,,,,,,,,,,,,,,,,,,,,,,,,,,,,,,,,,,,,,,
,,,,,,,,,638a3fd5992f01b81d0e1e93,Mexican,click here to respond,"no, only English or Spanish",no,2025-07-24_08h01.46.154,empathy_intonation_perc_control,2024.2.4,Win32,59.88023952,638a3fd5992f01b81d0e1e93,68817205a84113384fffdfe3,68822049e0bec326fd0d2c48,,,,,,,,,,,,./stim/wavs/puertorican_mismatch_declarative-broad-focus_El-hombre-mira-la-luna.wav,0,,,192.5916,194.8419,0,1,1.7166,,0,15,15,84,1,85,0,puertorican,,,,,,,,,,,,,,,,,,,,,,,,,,,,,,,,,,,,,,,,,,,,,,,,,,,,,,,,
,,,,,,,,,638a3fd5992f01b81d0e1e93,Mexican,click here to respond,"no, only English or Spanish",no,2025-07-24_08h01.46.154,empathy_intonation_perc_control,2024.2.4,Win32,59.88023952,638a3fd5992f01b81d0e1e93,68817205a84113384fffdfe3,68822049e0bec326fd0d2c48,,,,,,,,,,,,./stim/wavs/cuban_match_declarative-broad-focus_Marta-abre-el-regalo.wav,0,,,194.8423,197.4264,0,1,2.0516,,0,16,16,55,1,56,0,cuban,,,,,,,,,,,,,,,,,,,,,,,,,,,,,,,,,,,,,,,,,,,,,,,,,,,,,,,,
,,,,,,,,,638a3fd5992f01b81d0e1e93,Mexican,click here to respond,"no, only English or Spanish",no,2025-07-24_08h01.46.154,empathy_intonation_perc_control,2024.2.4,Win32,59.88023952,638a3fd5992f01b81d0e1e93,68817205a84113384fffdfe3,68822049e0bec326fd0d2c48,,,,,,,,,,,,./stim/wavs/cuban_match_interrogative-total-yn_Maria-bebe-el-vino.wav,1,,,197.427,200.4277,0,0,2.4682,,0,17,17,9,1,10,1,cuban,,,,,,,,,,,,,,,,,,,,,,,,,,,,,,,,,,,,,,,,,,,,,,,,,,,,,,,,
,,,,,,,,,638a3fd5992f01b81d0e1e93,Mexican,click here to respond,"no, only English or Spanish",no,2025-07-24_08h01.46.154,empathy_intonation_perc_control,2024.2.4,Win32,59.88023952,638a3fd5992f01b81d0e1e93,68817205a84113384fffdfe3,68822049e0bec326fd0d2c48,,,,,,,,,,,,./stim/wavs/mexican_match_declarative-broad-focus_Mariano-habla-del-tiempo.wav,0,,,200.4281,203.0956,0,1,2.1344,,0,18,18,60,1,61,0,mexican,,,,,,,,,,,,,,,,,,,,,,,,,,,,,,,,,,,,,,,,,,,,,,,,,,,,,,,,
,,,,,,,,,638a3fd5992f01b81d0e1e93,Mexican,click here to respond,"no, only English or Spanish",no,2025-07-24_08h01.46.154,empathy_intonation_perc_control,2024.2.4,Win32,59.88023952,638a3fd5992f01b81d0e1e93,68817205a84113384fffdfe3,68822049e0bec326fd0d2c48,,,,,,,,,,,,./stim/wavs/cuban_match_interrogative-total-yn_Manuela-vende-el-carro.wav,1,,,203.0962,205.6968,0,0,2.072,,0,19,19,8,1,9,1,cuban,,,,,,,,,,,,,,,,,,,,,,,,,,,,,,,,,,,,,,,,,,,,,,,,,,,,,,,,
,,,,,,,,,638a3fd5992f01b81d0e1e93,Mexican,click here to respond,"no, only English or Spanish",no,2025-07-24_08h01.46.154,empathy_intonation_perc_control,2024.2.4,Win32,59.88023952,638a3fd5992f01b81d0e1e93,68817205a84113384fffdfe3,68822049e0bec326fd0d2c48,,,,,,,,,,,,./stim/wavs/cuban_mismatch_declarative-broad-focus_El-bebe-comia-muy-bien.wav,0,,,205.6975,208.0313,0,1,1.801,,0,20,20,73,1,74,0,cuban,,,,,,,,,,,,,,,,,,,,,,,,,,,,,,,,,,,,,,,,,,,,,,,,,,,,,,,,
,,,,,,,,,638a3fd5992f01b81d0e1e93,Mexican,click here to respond,"no, only English or Spanish",no,2025-07-24_08h01.46.154,empathy_intonation_perc_control,2024.2.4,Win32,59.88023952,638a3fd5992f01b81d0e1e93,68817205a84113384fffdfe3,68822049e0bec326fd0d2c48,,,,,,,,,,,,./stim/wavs/cuban_match_interrogative-total-yn_Ana-lleva-el-abrigo.wav,1,,,208.032,210.3156,0,0,1.7534,,0,21,21,6,1,7,1,cuban,,,,,,,,,,,,,,,,,,,,,,,,,,,,,,,,,,,,,,,,,,,,,,,,,,,,,,,,
,,,,,,,,,638a3fd5992f01b81d0e1e93,Mexican,click here to respond,"no, only English or Spanish",no,2025-07-24_08h01.46.154,empathy_intonation_perc_control,2024.2.4,Win32,59.88023952,638a3fd5992f01b81d0e1e93,68817205a84113384fffdfe3,68822049e0bec326fd0d2c48,,,,,,,,,,,,./stim/wavs/puertorican_match_interrogative-total-yn_Manuela-vende-el-carro.wav,1,,,210.3161,212.6837,1,1,1.8441,,0,22,22,22,1,23,1,puertorican,,,,,,,,,,,,,,,,,,,,,,,,,,,,,,,,,,,,,,,,,,,,,,,,,,,,,,,,
,,,,,,,,,638a3fd5992f01b81d0e1e93,Mexican,click here to respond,"no, only English or Spanish",no,2025-07-24_08h01.46.154,empathy_intonation_perc_control,2024.2.4,Win32,59.88023952,638a3fd5992f01b81d0e1e93,68817205a84113384fffdfe3,68822049e0bec326fd0d2c48,,,,,,,,,,,,./stim/wavs/mexican_mismatch_declarative-broad-focus_El-hombre-mira-la-luna.wav,0,,,212.6843,214.8008,0,1,1.5849,,0,23,23,79,1,80,0,mexican,,,,,,,,,,,,,,,,,,,,,,,,,,,,,,,,,,,,,,,,,,,,,,,,,,,,,,,,
,,,,,,,,,638a3fd5992f01b81d0e1e93,Mexican,click here to respond,"no, only English or Spanish",no,2025-07-24_08h01.46.154,empathy_intonation_perc_control,2024.2.4,Win32,59.88023952,638a3fd5992f01b81d0e1e93,68817205a84113384fffdfe3,68822049e0bec326fd0d2c48,,,,,,,,,,,,./stim/wavs/mexican_match_interrogative-total-yn_Ana-lleva-el-abrigo.wav,1,,,214.8014,217.0685,1,1,1.741,,0,24,24,12,1,13,0,mexican,,,,,,,,,,,,,,,,,,,,,,,,,,,,,,,,,,,,,,,,,,,,,,,,,,,,,,,,
,,,,,,,,,638a3fd5992f01b81d0e1e93,Mexican,click here to respond,"no, only English or Spanish",no,2025-07-24_08h01.46.154,empathy_intonation_perc_control,2024.2.4,Win32,59.88023952,638a3fd5992f01b81d0e1e93,68817205a84113384fffdfe3,68822049e0bec326fd0d2c48,,,,,,,,,,,,./stim/wavs/mexican_mismatch_declarative-broad-focus_Mi-novio-viene-del-lago.wav,0,,,217.0689,219.3697,0,1,1.7865,,0,25,25,81,1,82,0,mexican,,,,,,,,,,,,,,,,,,,,,,,,,,,,,,,,,,,,,,,,,,,,,,,,,,,,,,,,
,,,,,,,,,638a3fd5992f01b81d0e1e93,Mexican,click here to respond,"no, only English or Spanish",no,2025-07-24_08h01.46.154,empathy_intonation_perc_control,2024.2.4,Win32,59.88023952,638a3fd5992f01b81d0e1e93,68817205a84113384fffdfe3,68822049e0bec326fd0d2c48,,,,,,,,,,,,./stim/wavs/puertorican_mismatch_interrogative-total-yn_La-maestra-vive-en-Paris.wav,1,,,219.3703,222.0876,0,0,2.1877,,0,26,26,41,1,42,1,puertorican,,,,,,,,,,,,,,,,,,,,,,,,,,,,,,,,,,,,,,,,,,,,,,,,,,,,,,,,
,,,,,,,,,638a3fd5992f01b81d0e1e93,Mexican,click here to respond,"no, only English or Spanish",no,2025-07-24_08h01.46.154,empathy_intonation_perc_control,2024.2.4,Win32,59.88023952,638a3fd5992f01b81d0e1e93,68817205a84113384fffdfe3,68822049e0bec326fd0d2c48,,,,,,,,,,,,./stim/wavs/puertorican_mismatch_declarative-broad-focus_El-nino-oye-el-rio.wav,0,,,222.0881,224.2384,0,1,1.6166,,0,27,27,85,1,86,0,puertorican,,,,,,,,,,,,,,,,,,,,,,,,,,,,,,,,,,,,,,,,,,,,,,,,,,,,,,,,
,,,,,,,,,638a3fd5992f01b81d0e1e93,Mexican,click here to respond,"no, only English or Spanish",no,2025-07-24_08h01.46.154,empathy_intonation_perc_control,2024.2.4,Win32,59.88023952,638a3fd5992f01b81d0e1e93,68817205a84113384fffdfe3,68822049e0bec326fd0d2c48,,,,,,,,,,,,./stim/wavs/puertorican_mismatch_declarative-broad-focus_El-bebe-comia-muy-bien.wav,0,,,224.2392,226.4063,0,1,1.6342,,0,28,28,83,1,84,0,puertorican,,,,,,,,,,,,,,,,,,,,,,,,,,,,,,,,,,,,,,,,,,,,,,,,,,,,,,,,
,,,,,,,,,638a3fd5992f01b81d0e1e93,Mexican,click here to respond,"no, only English or Spanish",no,2025-07-24_08h01.46.154,empathy_intonation_perc_control,2024.2.4,Win32,59.88023952,638a3fd5992f01b81d0e1e93,68817205a84113384fffdfe3,68822049e0bec326fd0d2c48,,,,,,,,,,,,./stim/wavs/castilian_mismatch_interrogative-total-yn_Mi-madre-come-la-fruta.wav,1,,,226.4069,228.8406,1,1,1.9054,,0,29,29,26,1,27,0,castilian,,,,,,,,,,,,,,,,,,,,,,,,,,,,,,,,,,,,,,,,,,,,,,,,,,,,,,,,
,,,,,,,,,638a3fd5992f01b81d0e1e93,Mexican,click here to respond,"no, only English or Spanish",no,2025-07-24_08h01.46.154,empathy_intonation_perc_control,2024.2.4,Win32,59.88023952,638a3fd5992f01b81d0e1e93,68817205a84113384fffdfe3,68822049e0bec326fd0d2c48,,,,,,,,,,,,./stim/wavs/puertorican_mismatch_declarative-broad-focus_La-nina-lava-el-plato.wav,0,,,228.8412,231.3419,0,1,1.9678,,0,30,30,87,1,88,0,puertorican,,,,,,,,,,,,,,,,,,,,,,,,,,,,,,,,,,,,,,,,,,,,,,,,,,,,,,,,
,,,,,,,,,638a3fd5992f01b81d0e1e93,Mexican,click here to respond,"no, only English or Spanish",no,2025-07-24_08h01.46.154,empathy_intonation_perc_control,2024.2.4,Win32,59.88023952,638a3fd5992f01b81d0e1e93,68817205a84113384fffdfe3,68822049e0bec326fd0d2c48,,,,,,,,,,,,./stim/wavs/castilian_match_declarative-broad-focus_Manuela-vende-el-carro.wav,0,,,231.3425,235.0433,0,1,3.1709,,0,31,31,46,1,47,0,castilian,,,,,,,,,,,,,,,,,,,,,,,,,,,,,,,,,,,,,,,,,,,,,,,,,,,,,,,,
,,,,,,,,,638a3fd5992f01b81d0e1e93,Mexican,click here to respond,"no, only English or Spanish",no,2025-07-24_08h01.46.154,empathy_intonation_perc_control,2024.2.4,Win32,59.88023952,638a3fd5992f01b81d0e1e93,68817205a84113384fffdfe3,68822049e0bec326fd0d2c48,,,,,,,,,,,,./stim/wavs/puertorican_match_interrogative-total-yn_David-leia-el-libro.wav,1,,,235.0438,239.0784,1,1,3.4994,,0,32,32,20,1,21,1,puertorican,,,,,,,,,,,,,,,,,,,,,,,,,,,,,,,,,,,,,,,,,,,,,,,,,,,,,,,,
,,,,,,,,,638a3fd5992f01b81d0e1e93,Mexican,click here to respond,"no, only English or Spanish",no,2025-07-24_08h01.46.154,empathy_intonation_perc_control,2024.2.4,Win32,59.88023952,638a3fd5992f01b81d0e1e93,68817205a84113384fffdfe3,68822049e0bec326fd0d2c48,,,,,,,,,,,,./stim/wavs/mexican_match_declarative-broad-focus_Ana-lleva-el-abrigo.wav,0,,,239.0788,242.1132,0,1,2.5221,,0,33,33,56,1,57,0,mexican,,,,,,,,,,,,,,,,,,,,,,,,,,,,,,,,,,,,,,,,,,,,,,,,,,,,,,,,
,,,,,,,,,638a3fd5992f01b81d0e1e93,Mexican,click here to respond,"no, only English or Spanish",no,2025-07-24_08h01.46.154,empathy_intonation_perc_control,2024.2.4,Win32,59.88023952,638a3fd5992f01b81d0e1e93,68817205a84113384fffdfe3,68822049e0bec326fd0d2c48,,,,,,,,,,,,./stim/wavs/cuban_match_declarative-broad-focus_Ana-lleva-el-abrigo.wav,0,,,242.114,246.0149,0,1,3.3756,,0,34,34,50,1,51,0,cuban,,,,,,,,,,,,,,,,,,,,,,,,,,,,,,,,,,,,,,,,,,,,,,,,,,,,,,,,
,,,,,,,,,638a3fd5992f01b81d0e1e93,Mexican,click here to respond,"no, only English or Spanish",no,2025-07-24_08h01.46.154,empathy_intonation_perc_control,2024.2.4,Win32,59.88023952,638a3fd5992f01b81d0e1e93,68817205a84113384fffdfe3,68822049e0bec326fd0d2c48,,,,,,,,,,,,./stim/wavs/cuban_mismatch_interrogative-total-yn_El-hombre-mira-la-luna.wav,1,,,246.0154,253.7518,0,0,7.2081,,0,35,35,29,1,30,1,cuban,,,,,,,,,,,,,,,,,,,,,,,,,,,,,,,,,,,,,,,,,,,,,,,,,,,,,,,,
,,,,,,,,,638a3fd5992f01b81d0e1e93,Mexican,click here to respond,"no, only English or Spanish",no,2025-07-24_08h01.46.154,empathy_intonation_perc_control,2024.2.4,Win32,59.88023952,638a3fd5992f01b81d0e1e93,68817205a84113384fffdfe3,68822049e0bec326fd0d2c48,,,,,,,,,,,,./stim/wavs/castilian_mismatch_interrogative-total-yn_Mi-tia-odia-la-lluvia.wav,1,,,253.7522,256.1695,1,1,1.8841,,0,36,36,28,1,29,0,castilian,,,,,,,,,,,,,,,,,,,,,,,,,,,,,,,,,,,,,,,,,,,,,,,,,,,,,,,,
,,,,,,,,,638a3fd5992f01b81d0e1e93,Mexican,click here to respond,"no, only English or Spanish",no,2025-07-24_08h01.46.154,empathy_intonation_perc_control,2024.2.4,Win32,59.88023952,638a3fd5992f01b81d0e1e93,68817205a84113384fffdfe3,68822049e0bec326fd0d2c48,,,,,,,,,,,,./stim/wavs/cuban_mismatch_declarative-broad-focus_La-nina-lava-el-plato.wav,0,,,256.1703,258.7209,0,1,2.0228,,0,37,37,75,1,76,0,cuban,,,,,,,,,,,,,,,,,,,,,,,,,,,,,,,,,,,,,,,,,,,,,,,,,,,,,,,,
,,,,,,,,,638a3fd5992f01b81d0e1e93,Mexican,click here to respond,"no, only English or Spanish",no,2025-07-24_08h01.46.154,empathy_intonation_perc_control,2024.2.4,Win32,59.88023952,638a3fd5992f01b81d0e1e93,68817205a84113384fffdfe3,68822049e0bec326fd0d2c48,,,,,,,,,,,,./stim/wavs/puertorican_mismatch_interrogative-total-yn_El-nino-oye-el-rio.wav,1,,,258.7216,260.9049,0,0,1.6535,,0,38,38,40,1,41,1,puertorican,,,,,,,,,,,,,,,,,,,,,,,,,,,,,,,,,,,,,,,,,,,,,,,,,,,,,,,,
,,,,,,,,,638a3fd5992f01b81d0e1e93,Mexican,click here to respond,"no, only English or Spanish",no,2025-07-24_08h01.46.154,empathy_intonation_perc_control,2024.2.4,Win32,59.88023952,638a3fd5992f01b81d0e1e93,68817205a84113384fffdfe3,68822049e0bec326fd0d2c48,,,,,,,,,,,,./stim/wavs/mexican_mismatch_interrogative-total-yn_La-maestra-vive-en-Paris.wav,1,,,260.9055,263.673,1,1,2.2344,,0,39,39,36,1,37,0,mexican,,,,,,,,,,,,,,,,,,,,,,,,,,,,,,,,,,,,,,,,,,,,,,,,,,,,,,,,
,,,,,,,,,638a3fd5992f01b81d0e1e93,Mexican,click here to respond,"no, only English or Spanish",no,2025-07-24_08h01.46.154,empathy_intonation_perc_control,2024.2.4,Win32,59.88023952,638a3fd5992f01b81d0e1e93,68817205a84113384fffdfe3,68822049e0bec326fd0d2c48,,,,,,,,,,,,./stim/wavs/puertorican_match_interrogative-total-yn_Ana-lleva-el-abrigo.wav,1,,,263.6737,265.9404,1,1,1.7433,,0,40,40,18,1,19,1,puertorican,,,,,,,,,,,,,,,,,,,,,,,,,,,,,,,,,,,,,,,,,,,,,,,,,,,,,,,,
,,,,,,,,,638a3fd5992f01b81d0e1e93,Mexican,click here to respond,"no, only English or Spanish",no,2025-07-24_08h01.46.154,empathy_intonation_perc_control,2024.2.4,Win32,59.88023952,638a3fd5992f01b81d0e1e93,68817205a84113384fffdfe3,68822049e0bec326fd0d2c48,,,,,,,,,,,,./stim/wavs/cuban_mismatch_interrogative-total-yn_Mi-novio-viene-del-lago.wav,1,,,265.9409,268.3082,0,0,1.8589,,0,41,41,32,1,33,1,cuban,,,,,,,,,,,,,,,,,,,,,,,,,,,,,,,,,,,,,,,,,,,,,,,,,,,,,,,,
,,,,,,,,,638a3fd5992f01b81d0e1e93,Mexican,click here to respond,"no, only English or Spanish",no,2025-07-24_08h01.46.154,empathy_intonation_perc_control,2024.2.4,Win32,59.88023952,638a3fd5992f01b81d0e1e93,68817205a84113384fffdfe3,68822049e0bec326fd0d2c48,,,,,,,,,,,,./stim/wavs/cuban_match_declarative-broad-focus_Mariano-habla-del-tiempo.wav,0,,,268.3087,270.8761,0,1,2.0362,,0,42,42,54,1,55,0,cuban,,,,,,,,,,,,,,,,,,,,,,,,,,,,,,,,,,,,,,,,,,,,,,,,,,,,,,,,
,,,,,,,,,638a3fd5992f01b81d0e1e93,Mexican,click here to respond,"no, only English or Spanish",no,2025-07-24_08h01.46.154,empathy_intonation_perc_control,2024.2.4,Win32,59.88023952,638a3fd5992f01b81d0e1e93,68817205a84113384fffdfe3,68822049e0bec326fd0d2c48,,,,,,,,,,,,./stim/wavs/cuban_match_interrogative-total-yn_Marta-abre-el-regalo.wav,1,,,270.8769,273.5608,0,0,2.1545,,0,43,43,11,1,12,1,cuban,,,,,,,,,,,,,,,,,,,,,,,,,,,,,,,,,,,,,,,,,,,,,,,,,,,,,,,,
,,,,,,,,,638a3fd5992f01b81d0e1e93,Mexican,click here to respond,"no, only English or Spanish",no,2025-07-24_08h01.46.154,empathy_intonation_perc_control,2024.2.4,Win32,59.88023952,638a3fd5992f01b81d0e1e93,68817205a84113384fffdfe3,68822049e0bec326fd0d2c48,,,,,,,,,,,,./stim/wavs/castilian_match_declarative-broad-focus_Marta-abre-el-regalo.wav,0,,,273.5615,276.4953,0,1,2.4004,,0,44,44,49,1,50,0,castilian,,,,,,,,,,,,,,,,,,,,,,,,,,,,,,,,,,,,,,,,,,,,,,,,,,,,,,,,
,,,,,,,,,638a3fd5992f01b81d0e1e93,Mexican,click here to respond,"no, only English or Spanish",no,2025-07-24_08h01.46.154,empathy_intonation_perc_control,2024.2.4,Win32,59.88023952,638a3fd5992f01b81d0e1e93,68817205a84113384fffdfe3,68822049e0bec326fd0d2c48,,,,,,,,,,,,./stim/wavs/mexican_match_declarative-broad-focus_Daniel-iba-a-Bolivia.wav,0,,,276.4959,283.9156,0,1,6.8901,,0,45,45,57,1,58,0,mexican,,,,,,,,,,,,,,,,,,,,,,,,,,,,,,,,,,,,,,,,,,,,,,,,,,,,,,,,
,,,,,,,,,638a3fd5992f01b81d0e1e93,Mexican,click here to respond,"no, only English or Spanish",no,2025-07-24_08h01.46.154,empathy_intonation_perc_control,2024.2.4,Win32,59.88023952,638a3fd5992f01b81d0e1e93,68817205a84113384fffdfe3,68822049e0bec326fd0d2c48,,,,,,,,,,,,./stim/wavs/mexican_match_interrogative-total-yn_Emilio-ama-la-marcha.wav,1,,,283.9162,286.1997,1,1,1.7558,,0,46,46,15,1,16,0,mexican,,,,,,,,,,,,,,,,,,,,,,,,,,,,,,,,,,,,,,,,,,,,,,,,,,,,,,,,
,,,,,,,,,638a3fd5992f01b81d0e1e93,Mexican,click here to respond,"no, only English or Spanish",no,2025-07-24_08h01.46.154,empathy_intonation_perc_control,2024.2.4,Win32,59.88023952,638a3fd5992f01b81d0e1e93,68817205a84113384fffdfe3,68822049e0bec326fd0d2c48,,,,,,,,,,,,./stim/wavs/mexican_match_declarative-broad-focus_Marta-abre-el-regalo.wav,0,,,286.2004,288.8844,0,1,2.1526,,0,47,47,61,1,62,0,mexican,,,,,,,,,,,,,,,,,,,,,,,,,,,,,,,,,,,,,,,,,,,,,,,,,,,,,,,,
,,,,,,,,,638a3fd5992f01b81d0e1e93,Mexican,click here to respond,"no, only English or Spanish",no,2025-07-24_08h01.46.154,empathy_intonation_perc_control,2024.2.4,Win32,59.88023952,638a3fd5992f01b81d0e1e93,68817205a84113384fffdfe3,68822049e0bec326fd0d2c48,,,,,,,,,,,,./stim/wavs/puertorican_mismatch_declarative-broad-focus_La-maestra-vive-en-Paris.wav,0,,,288.8851,291.4854,0,1,2.0754,,0,48,48,86,1,87,0,puertorican,,,,,,,,,,,,,,,,,,,,,,,,,,,,,,,,,,,,,,,,,,,,,,,,,,,,,,,,
,,,,,,,,,638a3fd5992f01b81d0e1e93,Mexican,click here to respond,"no, only English or Spanish",no,2025-07-24_08h01.46.154,empathy_intonation_perc_control,2024.2.4,Win32,59.88023952,638a3fd5992f01b81d0e1e93,68817205a84113384fffdfe3,68822049e0bec326fd0d2c48,,,,,,,,,,,,./stim/wavs/cuban_mismatch_interrogative-total-yn_Mi-madre-come-la-fruta.wav,1,,,291.4859,293.9869,0,0,1.9674,,0,49,49,31,1,32,1,cuban,,,,,,,,,,,,,,,,,,,,,,,,,,,,,,,,,,,,,,,,,,,,,,,,,,,,,,,,
,,,,,,,,,638a3fd5992f01b81d0e1e93,Mexican,click here to respond,"no, only English or Spanish",no,2025-07-24_08h01.46.154,empathy_intonation_perc_control,2024.2.4,Win32,59.88023952,638a3fd5992f01b81d0e1e93,68817205a84113384fffdfe3,68822049e0bec326fd0d2c48,,,,,,,,,,,,./stim/wavs/cuban_match_declarative-broad-focus_Manuela-vende-el-carro.wav,0,,,293.9874,296.4042,0,1,1.8921,,0,50,50,52,1,53,0,cuban,,,,,,,,,,,,,,,,,,,,,,,,,,,,,,,,,,,,,,,,,,,,,,,,,,,,,,,,
,,,,,,,,,638a3fd5992f01b81d0e1e93,Mexican,click here to respond,"no, only English or Spanish",no,2025-07-24_08h01.46.154,empathy_intonation_perc_control,2024.2.4,Win32,59.88023952,638a3fd5992f01b81d0e1e93,68817205a84113384fffdfe3,68822049e0bec326fd0d2c48,,,,,,,,,,,,./stim/wavs/castilian_mismatch_interrogative-total-yn_La-maestra-vive-en-Paris.wav,1,,,296.405,299.1222,0,0,2.1879,,0,51,51,24,1,25,0,castilian,,,,,,,,,,,,,,,,,,,,,,,,,,,,,,,,,,,,,,,,,,,,,,,,,,,,,,,,
,,,,,,,,,638a3fd5992f01b81d0e1e93,Mexican,click here to respond,"no, only English or Spanish",no,2025-07-24_08h01.46.154,empathy_intonation_perc_control,2024.2.4,Win32,59.88023952,638a3fd5992f01b81d0e1e93,68817205a84113384fffdfe3,68822049e0bec326fd0d2c48,,,,,,,,,,,,./stim/wavs/castilian_mismatch_declarative-broad-focus_El-nino-oye-el-rio.wav,0,,,299.1228,301.5567,0,1,1.9017,,0,52,52,68,1,69,0,castilian,,,,,,,,,,,,,,,,,,,,,,,,,,,,,,,,,,,,,,,,,,,,,,,,,,,,,,,,
,,,,,,,,,638a3fd5992f01b81d0e1e93,Mexican,click here to respond,"no, only English or Spanish",no,2025-07-24_08h01.46.154,empathy_intonation_perc_control,2024.2.4,Win32,59.88023952,638a3fd5992f01b81d0e1e93,68817205a84113384fffdfe3,68822049e0bec326fd0d2c48,,,,,,,,,,,,./stim/wavs/mexican_mismatch_interrogative-total-yn_El-hombre-mira-la-luna.wav,1,,,301.5573,304.141,0,0,2.06,,0,53,53,34,1,35,0,mexican,,,,,,,,,,,,,,,,,,,,,,,,,,,,,,,,,,,,,,,,,,,,,,,,,,,,,,,,
,,,,,,,,,638a3fd5992f01b81d0e1e93,Mexican,click here to respond,"no, only English or Spanish",no,2025-07-24_08h01.46.154,empathy_intonation_perc_control,2024.2.4,Win32,59.88023952,638a3fd5992f01b81d0e1e93,68817205a84113384fffdfe3,68822049e0bec326fd0d2c48,,,,,,,,,,,,./stim/wavs/mexican_mismatch_declarative-broad-focus_Mi-tia-odia-la-lluvia.wav,0,,,304.1415,308.5935,0,1,3.923,,0,54,54,82,1,83,0,mexican,,,,,,,,,,,,,,,,,,,,,,,,,,,,,,,,,,,,,,,,,,,,,,,,,,,,,,,,
,,,,,,,,,638a3fd5992f01b81d0e1e93,Mexican,click here to respond,"no, only English or Spanish",no,2025-07-24_08h01.46.154,empathy_intonation_perc_control,2024.2.4,Win32,59.88023952,638a3fd5992f01b81d0e1e93,68817205a84113384fffdfe3,68822049e0bec326fd0d2c48,,,,,,,,,,,,./stim/wavs/castilian_match_interrogative-total-yn_Mariano-habla-del-tiempo.wav,1,,,308.5941,311.0275,1,1,1.9023,,0,55,55,4,1,5,0,castilian,,,,,,,,,,,,,,,,,,,,,,,,,,,,,,,,,,,,,,,,,,,,,,,,,,,,,,,,
,,,,,,,,,638a3fd5992f01b81d0e1e93,Mexican,click here to respond,"no, only English or Spanish",no,2025-07-24_08h01.46.154,empathy_intonation_perc_control,2024.2.4,Win32,59.88023952,638a3fd5992f01b81d0e1e93,68817205a84113384fffdfe3,68822049e0bec326fd0d2c48,,,,,,,,,,,,./stim/wavs/castilian_match_interrogative-total-yn_Emilio-ama-la-marcha.wav,1,,,311.0281,313.3953,1,1,1.8353,,0,56,56,1,1,2,0,castilian,,,,,,,,,,,,,,,,,,,,,,,,,,,,,,,,,,,,,,,,,,,,,,,,,,,,,,,,
,,,,,,,,,638a3fd5992f01b81d0e1e93,Mexican,click here to respond,"no, only English or Spanish",no,2025-07-24_08h01.46.154,empathy_intonation_perc_control,2024.2.4,Win32,59.88023952,638a3fd5992f01b81d0e1e93,68817205a84113384fffdfe3,68822049e0bec326fd0d2c48,,,,,,,,,,,,./stim/wavs/puertorican_match_declarative-broad-focus_Daniel-iba-a-Bolivia.wav,0,,,313.3959,315.6462,0,1,1.7161,,0,57,57,63,1,64,0,puertorican,,,,,,,,,,,,,,,,,,,,,,,,,,,,,,,,,,,,,,,,,,,,,,,,,,,,,,,,
,,,,,,,,,638a3fd5992f01b81d0e1e93,Mexican,click here to respond,"no, only English or Spanish",no,2025-07-24_08h01.46.154,empathy_intonation_perc_control,2024.2.4,Win32,59.88023952,638a3fd5992f01b81d0e1e93,68817205a84113384fffdfe3,68822049e0bec326fd0d2c48,,,,,,,,,,,,./stim/wavs/mexican_mismatch_interrogative-total-yn_El-nino-oye-el-rio.wav,1,,,315.6467,318.1653,1,1,1.995,,0,58,58,35,1,36,0,mexican,,,,,,,,,,,,,,,,,,,,,,,,,,,,,,,,,,,,,,,,,,,,,,,,,,,,,,,,
,,,,,,,,,638a3fd5992f01b81d0e1e93,Mexican,click here to respond,"no, only English or Spanish",no,2025-07-24_08h01.46.154,empathy_intonation_perc_control,2024.2.4,Win32,59.88023952,638a3fd5992f01b81d0e1e93,68817205a84113384fffdfe3,68822049e0bec326fd0d2c48,,,,,,,,,,,,./stim/wavs/mexican_match_interrogative-total-yn_Marta-abre-el-regalo.wav,1,,,318.1662,321.3823,0,0,2.6845,,0,59,59,17,1,18,0,mexican,,,,,,,,,,,,,,,,,,,,,,,,,,,,,,,,,,,,,,,,,,,,,,,,,,,,,,,,
,,,,,,,,,638a3fd5992f01b81d0e1e93,Mexican,click here to respond,"no, only English or Spanish",no,2025-07-24_08h01.46.154,empathy_intonation_perc_control,2024.2.4,Win32,59.88023952,638a3fd5992f01b81d0e1e93,68817205a84113384fffdfe3,68822049e0bec326fd0d2c48,,,,,,,,,,,,./stim/wavs/cuban_mismatch_declarative-broad-focus_El-hombre-mira-la-luna.wav,0,,,321.3828,324.0004,0,1,2.0862,,0,60,60,74,1,75,0,cuban,,,,,,,,,,,,,,,,,,,,,,,,,,,,,,,,,,,,,,,,,,,,,,,,,,,,,,,,
,,,,,,,,,638a3fd5992f01b81d0e1e93,Mexican,click here to respond,"no, only English or Spanish",no,2025-07-24_08h01.46.154,empathy_intonation_perc_control,2024.2.4,Win32,59.88023952,638a3fd5992f01b81d0e1e93,68817205a84113384fffdfe3,68822049e0bec326fd0d2c48,,,,,,,,,,,,./stim/wavs/cuban_match_interrogative-total-yn_Mariano-habla-del-tiempo.wav,1,,,324.0009,327.2849,0,0,2.7533,,0,61,61,10,1,11,1,cuban,,,,,,,,,,,,,,,,,,,,,,,,,,,,,,,,,,,,,,,,,,,,,,,,,,,,,,,,
,,,,,,,,,638a3fd5992f01b81d0e1e93,Mexican,click here to respond,"no, only English or Spanish",no,2025-07-24_08h01.46.154,empathy_intonation_perc_control,2024.2.4,Win32,59.88023952,638a3fd5992f01b81d0e1e93,68817205a84113384fffdfe3,68822049e0bec326fd0d2c48,,,,,,,,,,,,./stim/wavs/puertorican_match_interrogative-total-yn_Maria-bebe-el-vino.wav,1,,,327.2854,329.7361,0,0,1.917,,0,62,62,23,1,24,1,puertorican,,,,,,,,,,,,,,,,,,,,,,,,,,,,,,,,,,,,,,,,,,,,,,,,,,,,,,,,
,,,,,,,,,638a3fd5992f01b81d0e1e93,Mexican,click here to respond,"no, only English or Spanish",no,2025-07-24_08h01.46.154,empathy_intonation_perc_control,2024.2.4,Win32,59.88023952,638a3fd5992f01b81d0e1e93,68817205a84113384fffdfe3,68822049e0bec326fd0d2c48,,,,,,,,,,,,./stim/wavs/mexican_mismatch_interrogative-total-yn_Mi-novio-viene-del-lago.wav,1,,,329.7368,332.4205,0,0,2.1592,,0,63,63,37,1,38,0,mexican,,,,,,,,,,,,,,,,,,,,,,,,,,,,,,,,,,,,,,,,,,,,,,,,,,,,,,,,
,,,,,,,,,638a3fd5992f01b81d0e1e93,Mexican,click here to respond,"no, only English or Spanish",no,2025-07-24_08h01.46.154,empathy_intonation_perc_control,2024.2.4,Win32,59.88023952,638a3fd5992f01b81d0e1e93,68817205a84113384fffdfe3,68822049e0bec326fd0d2c48,,,,,,,,,,,,./stim/wavs/castilian_mismatch_declarative-broad-focus_Mi-tia-odia-la-lluvia.wav,0,,,332.4209,334.8049,0,1,1.8594,,0,64,64,72,1,73,0,castilian,,,,,,,,,,,,,,,,,,,,,,,,,,,,,,,,,,,,,,,,,,,,,,,,,,,,,,,,
,,,,,,,,,638a3fd5992f01b81d0e1e93,Mexican,click here to respond,"no, only English or Spanish",no,2025-07-24_08h01.46.154,empathy_intonation_perc_control,2024.2.4,Win32,59.88023952,638a3fd5992f01b81d0e1e93,68817205a84113384fffdfe3,68822049e0bec326fd0d2c48,,,,,,,,,,,,./stim/wavs/castilian_match_interrogative-total-yn_Maria-bebe-el-vino.wav,1,,,334.8056,336.9892,1,1,1.6573,,0,65,65,3,1,4,0,castilian,,,,,,,,,,,,,,,,,,,,,,,,,,,,,,,,,,,,,,,,,,,,,,,,,,,,,,,,
,,,,,,,,,638a3fd5992f01b81d0e1e93,Mexican,click here to respond,"no, only English or Spanish",no,2025-07-24_08h01.46.154,empathy_intonation_perc_control,2024.2.4,Win32,59.88023952,638a3fd5992f01b81d0e1e93,68817205a84113384fffdfe3,68822049e0bec326fd0d2c48,,,,,,,,,,,,./stim/wavs/castilian_mismatch_interrogative-total-yn_La-nina-lava-el-plato.wav,1,,,336.9898,339.2915,1,1,1.7786,,0,66,66,25,1,26,0,castilian,,,,,,,,,,,,,,,,,,,,,,,,,,,,,,,,,,,,,,,,,,,,,,,,,,,,,,,,
,,,,,,,,,638a3fd5992f01b81d0e1e93,Mexican,click here to respond,"no, only English or Spanish",no,2025-07-24_08h01.46.154,empathy_intonation_perc_control,2024.2.4,Win32,59.88023952,638a3fd5992f01b81d0e1e93,68817205a84113384fffdfe3,68822049e0bec326fd0d2c48,,,,,,,,,,,,./stim/wavs/castilian_match_declarative-broad-focus_Maria-bebe-el-vino.wav,0,,,339.292,341.8582,0,1,2.0376,,0,67,67,47,1,48,0,castilian,,,,,,,,,,,,,,,,,,,,,,,,,,,,,,,,,,,,,,,,,,,,,,,,,,,,,,,,
,,,,,,,,,638a3fd5992f01b81d0e1e93,Mexican,click here to respond,"no, only English or Spanish",no,2025-07-24_08h01.46.154,empathy_intonation_perc_control,2024.2.4,Win32,59.88023952,638a3fd5992f01b81d0e1e93,68817205a84113384fffdfe3,68822049e0bec326fd0d2c48,,,,,,,,,,,,./stim/wavs/puertorican_match_declarative-broad-focus_Ana-lleva-el-abrigo.wav,0,,,341.8589,344.2759,0,1,1.886,,0,68,68,62,1,63,0,puertorican,,,,,,,,,,,,,,,,,,,,,,,,,,,,,,,,,,,,,,,,,,,,,,,,,,,,,,,,
,,,,,,,,,638a3fd5992f01b81d0e1e93,Mexican,click here to respond,"no, only English or Spanish",no,2025-07-24_08h01.46.154,empathy_intonation_perc_control,2024.2.4,Win32,59.88023952,638a3fd5992f01b81d0e1e93,68817205a84113384fffdfe3,68822049e0bec326fd0d2c48,,,,,,,,,,,,./stim/wavs/castilian_mismatch_declarative-broad-focus_La-maestra-vive-en-Paris.wav,0,,,344.2766,347.1441,0,1,2.3389,,0,69,69,69,1,70,0,castilian,,,,,,,,,,,,,,,,,,,,,,,,,,,,,,,,,,,,,,,,,,,,,,,,,,,,,,,,
,,,,,,,,,638a3fd5992f01b81d0e1e93,Mexican,click here to respond,"no, only English or Spanish",no,2025-07-24_08h01.46.154,empathy_intonation_perc_control,2024.2.4,Win32,59.88023952,638a3fd5992f01b81d0e1e93,68817205a84113384fffdfe3,68822049e0bec326fd0d2c48,,,,,,,,,,,,./stim/wavs/cuban_match_interrogative-total-yn_Daniel-iba-a-Bolivia.wav,1,,,347.1448,350.712,0,0,3.0415,,0,70,70,7,1,8,1,cuban,,,,,,,,,,,,,,,,,,,,,,,,,,,,,,,,,,,,,,,,,,,,,,,,,,,,,,,,
,,,,,,,,,638a3fd5992f01b81d0e1e93,Mexican,click here to respond,"no, only English or Spanish",no,2025-07-24_08h01.46.154,empathy_intonation_perc_control,2024.2.4,Win32,59.88023952,638a3fd5992f01b81d0e1e93,68817205a84113384fffdfe3,68822049e0bec326fd0d2c48,,,,,,,,,,,,./stim/wavs/puertorican_match_declarative-broad-focus_Manuela-vende-el-carro.wav,0,,,350.7125,355.9481,0,1,4.7021,,0,71,71,66,1,67,0,puertorican,,,,,,,,,,,,,,,,,,,,,,,,,,,,,,,,,,,,,,,,,,,,,,,,,,,,,,,,
,,,,,,,,,638a3fd5992f01b81d0e1e93,Mexican,click here to respond,"no, only English or Spanish",no,2025-07-24_08h01.46.154,empathy_intonation_perc_control,2024.2.4,Win32,59.88023952,638a3fd5992f01b81d0e1e93,68817205a84113384fffdfe3,68822049e0bec326fd0d2c48,,,,,,,,,,,,./stim/wavs/castilian_mismatch_declarative-broad-focus_La-nina-lava-el-plato.wav,0,,,355.9487,380.1587,0,1,23.6785,,0,72,72,70,1,71,0,castilian,,,,,,,,,,,,,,,,,,,,,,,,,,,,,,,,,,,,,,,,,,,,,,,,,,,,,,,,
,,,,,,,,,638a3fd5992f01b81d0e1e93,Mexican,click here to respond,"no, only English or Spanish",no,2025-07-24_08h01.46.154,empathy_intonation_perc_control,2024.2.4,Win32,59.88023952,638a3fd5992f01b81d0e1e93,68817205a84113384fffdfe3,68822049e0bec326fd0d2c48,,,,,,,,,,,,./stim/wavs/puertorican_match_interrogative-total-yn_Daniel-iba-a-Bolivia.wav,1,,,380.1596,382.3934,0,0,1.7044,,0,73,73,19,1,20,1,puertorican,,,,,,,,,,,,,,,,,,,,,,,,,,,,,,,,,,,,,,,,,,,,,,,,,,,,,,,,
,,,,,,,,,638a3fd5992f01b81d0e1e93,Mexican,click here to respond,"no, only English or Spanish",no,2025-07-24_08h01.46.154,empathy_intonation_perc_control,2024.2.4,Win32,59.88023952,638a3fd5992f01b81d0e1e93,68817205a84113384fffdfe3,68822049e0bec326fd0d2c48,,,,,,,,,,,,./stim/wavs/castilian_mismatch_declarative-broad-focus_Mi-novio-viene-del-lago.wav,0,,,382.3939,385.311,0,1,2.3891,,0,74,74,71,1,72,0,castilian,,,,,,,,,,,,,,,,,,,,,,,,,,,,,,,,,,,,,,,,,,,,,,,,,,,,,,,,
,,,,,,,,,638a3fd5992f01b81d0e1e93,Mexican,click here to respond,"no, only English or Spanish",no,2025-07-24_08h01.46.154,empathy_intonation_perc_control,2024.2.4,Win32,59.88023952,638a3fd5992f01b81d0e1e93,68817205a84113384fffdfe3,68822049e0bec326fd0d2c48,,,,,,,,,,,,./stim/wavs/mexican_match_declarative-broad-focus_Emilio-ama-la-marcha.wav,0,,,385.3116,388.4126,0,1,2.5695,,0,75,75,59,1,60,0,mexican,,,,,,,,,,,,,,,,,,,,,,,,,,,,,,,,,,,,,,,,,,,,,,,,,,,,,,,,
,,,,,,,,,638a3fd5992f01b81d0e1e93,Mexican,click here to respond,"no, only English or Spanish",no,2025-07-24_08h01.46.154,empathy_intonation_perc_control,2024.2.4,Win32,59.88023952,638a3fd5992f01b81d0e1e93,68817205a84113384fffdfe3,68822049e0bec326fd0d2c48,,,,,,,,,,,,./stim/wavs/puertorican_match_declarative-broad-focus_Maria-bebe-el-vino.wav,0,,,388.4132,390.5968,0,1,1.6673,,0,76,76,67,1,68,0,puertorican,,,,,,,,,,,,,,,,,,,,,,,,,,,,,,,,,,,,,,,,,,,,,,,,,,,,,,,,
,,,,,,,,,638a3fd5992f01b81d0e1e93,Mexican,click here to respond,"no, only English or Spanish",no,2025-07-24_08h01.46.154,empathy_intonation_perc_control,2024.2.4,Win32,59.88023952,638a3fd5992f01b81d0e1e93,68817205a84113384fffdfe3,68822049e0bec326fd0d2c48,,,,,,,,,,,,./stim/wavs/castilian_match_interrogative-total-yn_Manuela-vende-el-carro.wav,1,,,390.5976,392.9156,1,1,1.7938,,0,77,77,2,1,3,0,castilian,,,,,,,,,,,,,,,,,,,,,,,,,,,,,,,,,,,,,,,,,,,,,,,,,,,,,,,,
,,,,,,,,,638a3fd5992f01b81d0e1e93,Mexican,click here to respond,"no, only English or Spanish",no,2025-07-24_08h01.46.154,empathy_intonation_perc_control,2024.2.4,Win32,59.88023952,638a3fd5992f01b81d0e1e93,68817205a84113384fffdfe3,68822049e0bec326fd0d2c48,,,,,,,,,,,,./stim/wavs/castilian_match_declarative-broad-focus_Emilio-ama-la-marcha.wav,0,,,392.916,395.6658,0,1,2.2212,,0,78,78,45,1,46,0,castilian,,,,,,,,,,,,,,,,,,,,,,,,,,,,,,,,,,,,,,,,,,,,,,,,,,,,,,,,
,,,,,,,,,638a3fd5992f01b81d0e1e93,Mexican,click here to respond,"no, only English or Spanish",no,2025-07-24_08h01.46.154,empathy_intonation_perc_control,2024.2.4,Win32,59.88023952,638a3fd5992f01b81d0e1e93,68817205a84113384fffdfe3,68822049e0bec326fd0d2c48,,,,,,,,,,,,./stim/wavs/castilian_match_declarative-broad-focus_David-leia-el-libro.wav,0,,,395.6666,398.217,0,1,2.0178,,0,79,79,44,1,45,0,castilian,,,,,,,,,,,,,,,,,,,,,,,,,,,,,,,,,,,,,,,,,,,,,,,,,,,,,,,,
,,,,,,,,,638a3fd5992f01b81d0e1e93,Mexican,click here to respond,"no, only English or Spanish",no,2025-07-24_08h01.46.154,empathy_intonation_perc_control,2024.2.4,Win32,59.88023952,638a3fd5992f01b81d0e1e93,68817205a84113384fffdfe3,68822049e0bec326fd0d2c48,,,,,,,,,,,,./stim/wavs/mexican_match_declarative-broad-focus_David-leia-el-libro.wav,0,,,398.2176,403.3194,0,1,4.5738,,0,80,80,58,1,59,0,mexican,,,,,,,,,,,,,,,,,,,,,,,,,,,,,,,,,,,,,,,,,,,,,,,,,,,,,,,,
,,,,,,,,,638a3fd5992f01b81d0e1e93,Mexican,click here to respond,"no, only English or Spanish",no,2025-07-24_08h01.46.154,empathy_intonation_perc_control,2024.2.4,Win32,59.88023952,638a3fd5992f01b81d0e1e93,68817205a84113384fffdfe3,68822049e0bec326fd0d2c48,,,,,,,,,,,,./stim/wavs/mexican_mismatch_interrogative-total-yn_Mi-tia-odia-la-lluvia.wav,1,,,403.3199,406.7541,1,1,2.9028,,0,81,81,38,1,39,0,mexican,,,,,,,,,,,,,,,,,,,,,,,,,,,,,,,,,,,,,,,,,,,,,,,,,,,,,,,,
,,,,,,,,,638a3fd5992f01b81d0e1e93,Mexican,click here to respond,"no, only English or Spanish",no,2025-07-24_08h01.46.154,empathy_intonation_perc_control,2024.2.4,Win32,59.88023952,638a3fd5992f01b81d0e1e93,68817205a84113384fffdfe3,68822049e0bec326fd0d2c48,,,,,,,,,,,,./stim/wavs/castilian_match_declarative-broad-focus_Mariano-habla-del-tiempo.wav,0,,,406.7548,409.8222,0,1,2.5355,,0,82,82,48,1,49,0,castilian,,,,,,,,,,,,,,,,,,,,,,,,,,,,,,,,,,,,,,,,,,,,,,,,,,,,,,,,
,,,,,,,,,638a3fd5992f01b81d0e1e93,Mexican,click here to respond,"no, only English or Spanish",no,2025-07-24_08h01.46.154,empathy_intonation_perc_control,2024.2.4,Win32,59.88023952,638a3fd5992f01b81d0e1e93,68817205a84113384fffdfe3,68822049e0bec326fd0d2c48,,,,,,,,,,,,./stim/wavs/puertorican_mismatch_interrogative-total-yn_La-nina-lava-el-plato.wav,1,,,409.8231,412.4069,0,0,2.0518,,0,83,83,42,1,43,1,puertorican,,,,,,,,,,,,,,,,,,,,,,,,,,,,,,,,,,,,,,,,,,,,,,,,,,,,,,,,
,,,,,,,,,638a3fd5992f01b81d0e1e93,Mexican,click here to respond,"no, only English or Spanish",no,2025-07-24_08h01.46.154,empathy_intonation_perc_control,2024.2.4,Win32,59.88023952,638a3fd5992f01b81d0e1e93,68817205a84113384fffdfe3,68822049e0bec326fd0d2c48,,,,,,,,,,,,./stim/wavs/cuban_match_declarative-broad-focus_Maria-bebe-el-vino.wav,0,,,412.4077,414.641,0,1,1.704,,0,84,84,53,1,54,0,cuban,,,,,,,,,,,,,,,,,,,,,,,,,,,,,,,,,,,,,,,,,,,,,,,,,,,,,,,,
,,,,,,,,,638a3fd5992f01b81d0e1e93,Mexican,click here to respond,"no, only English or Spanish",no,2025-07-24_08h01.46.154,empathy_intonation_perc_control,2024.2.4,Win32,59.88023952,638a3fd5992f01b81d0e1e93,68817205a84113384fffdfe3,68822049e0bec326fd0d2c48,,,,,,,,,,,,./stim/wavs/puertorican_mismatch_interrogative-total-yn_Mi-madre-come-la-fruta.wav,1,,,414.6416,416.8086,0,0,1.6384,,0,85,85,43,1,44,1,puertorican,,,,,,,,,,,,,,,,,,,,,,,,,,,,,,,,,,,,,,,,,,,,,,,,,,,,,,,,
,,,,,,,,,638a3fd5992f01b81d0e1e93,Mexican,click here to respond,"no, only English or Spanish",no,2025-07-24_08h01.46.154,empathy_intonation_perc_control,2024.2.4,Win32,59.88023952,638a3fd5992f01b81d0e1e93,68817205a84113384fffdfe3,68822049e0bec326fd0d2c48,,,,,,,,,,,,./stim/wavs/mexican_mismatch_declarative-broad-focus_La-maestra-vive-en-Paris.wav,0,,,416.8093,419.5598,0,1,2.2226,,0,86,86,80,1,81,0,mexican,,,,,,,,,,,,,,,,,,,,,,,,,,,,,,,,,,,,,,,,,,,,,,,,,,,,,,,,
,,,,,,,,,638a3fd5992f01b81d0e1e93,Mexican,click here to respond,"no, only English or Spanish",no,2025-07-24_08h01.46.154,empathy_intonation_perc_control,2024.2.4,Win32,59.88023952,638a3fd5992f01b81d0e1e93,68817205a84113384fffdfe3,68822049e0bec326fd0d2c48,,,,,,,,,,,,./stim/wavs/puertorican_match_declarative-broad-focus_David-leia-el-libro.wav,0,,,419.5604,421.9276,0,1,1.8385,,0,87,87,64,1,65,0,puertorican,,,,,,,,,,,,,,,,,,,,,,,,,,,,,,,,,,,,,,,,,,,,,,,,,,,,,,,,
,,,,,,,"Great! Now we will move on. The next task consists of about 60 trials, in each of which you will see a string of letters. 
  
  Your task is to decide whether this is a real Spanish word or not.", (press the spacebar to continue),638a3fd5992f01b81d0e1e93,Mexican,click here to respond,"no, only English or Spanish",no,2025-07-24_08h01.46.154,empathy_intonation_perc_control,2024.2.4,Win32,59.88023952,638a3fd5992f01b81d0e1e93,68817205a84113384fffdfe3,68822049e0bec326fd0d2c48,,,,,,,,,,,,,,,,,,,,,,,,,,,,,,421.9326,548.185,0,0,0,0,1,,,,,,,,,,,,,,,,,,,,,,,,,,,,,,,,,,,,,,,,,,,,,,,,,
,,,,,,,"If you think it is an existing Spanish word, you type '1' (for 'REAL'), and if you think it is not an existing Spanish word, you type '0' (for 'FAKE').", (press the spacebar to continue),638a3fd5992f01b81d0e1e93,Mexican,click here to respond,"no, only English or Spanish",no,2025-07-24_08h01.46.154,empathy_intonation_perc_control,2024.2.4,Win32,59.88023952,638a3fd5992f01b81d0e1e93,68817205a84113384fffdfe3,68822049e0bec326fd0d2c48,,,,,,,,,,,,,,,,,,,,,,,,,,,,,,548.1877,554.6041,0,1,1,1,1,,,,,,,,,,,,,,,,,,,,,,,,,,,,,,,,,,,,,,,,,,,,,,,,,
,,,,,,,"If you are sure that the word exists, even though you don’t know its exact meaning, you may still respond '1' (REAL). 
  
  But if you are not sure if it is an existing word, you should respond '0' (FAKE).
  
  Let's do a practice round...", (press the spacebar to continue),638a3fd5992f01b81d0e1e93,Mexican,click here to respond,"no, only English or Spanish",no,2025-07-24_08h01.46.154,empathy_intonation_perc_control,2024.2.4,Win32,59.88023952,638a3fd5992f01b81d0e1e93,68817205a84113384fffdfe3,68822049e0bec326fd0d2c48,,,,,,,,,,,,,,,,,,,,,,,,,,,,,,554.606,561.1737,0,2,2,2,1,,,,,,,,,,,,,,,,,,,,,,,,,,,,,,,,,,,,,,,,,,,,,,,,,
,,,,,,,,,638a3fd5992f01b81d0e1e93,Mexican,click here to respond,"no, only English or Spanish",no,2025-07-24_08h01.46.154,empathy_intonation_perc_control,2024.2.4,Win32,59.88023952,638a3fd5992f01b81d0e1e93,68817205a84113384fffdfe3,68822049e0bec326fd0d2c48,,,,,,,,,,,,,0,,,,,,,,,,,,,,,,,,,,,,,,561.1786,563.8252,0,1,2.1202,,563.8255,564.8255,0,0,0,0,1,0,depiste,REAL,FAKE,,,,,,,,,,,,,,,,,,,,,,,,,,,,,,,,
,,,,,,,,,638a3fd5992f01b81d0e1e93,Mexican,click here to respond,"no, only English or Spanish",no,2025-07-24_08h01.46.154,empathy_intonation_perc_control,2024.2.4,Win32,59.88023952,638a3fd5992f01b81d0e1e93,68817205a84113384fffdfe3,68822049e0bec326fd0d2c48,,,,,,,,,,,,,1,,,,,,,,,,,,,,,,,,,,,,,,564.8269,567.0428,1,1,1.6932,,567.0428,568.0433,0,1,1,1,1,0,sí,REAL,FAKE,,,,,,,,,,,,,,,,,,,,,,,,,,,,,,,,
,,,,,,,,,638a3fd5992f01b81d0e1e93,Mexican,click here to respond,"no, only English or Spanish",no,2025-07-24_08h01.46.154,empathy_intonation_perc_control,2024.2.4,Win32,59.88023952,638a3fd5992f01b81d0e1e93,68817205a84113384fffdfe3,68822049e0bec326fd0d2c48,,,,,,,,,,,,,0,,,,,,,,,,,,,,,,,,,,,,,,568.0445,570.0611,1,0,1.4901,,570.0625,571.0614,0,2,2,2,1,0,coné,REAL,FAKE,,,,,,,,,,,,,,,,,,,,,,,,,,,,,,,,
,,,,,,,,,638a3fd5992f01b81d0e1e93,Mexican,click here to respond,"no, only English or Spanish",no,2025-07-24_08h01.46.154,empathy_intonation_perc_control,2024.2.4,Win32,59.88023952,638a3fd5992f01b81d0e1e93,68817205a84113384fffdfe3,68822049e0bec326fd0d2c48,,,,,,,,,,,,,0,,,,,,,,,,,,,,,,,,,,,,,,571.0626,573.4293,0,1,1.834,,573.4299,574.4297,0,3,3,3,1,0,calpar,REAL,FAKE,,,,,,,,,,,,,,,,,,,,,,,,,,,,,,,,
,,,,,,,,,638a3fd5992f01b81d0e1e93,Mexican,click here to respond,"no, only English or Spanish",no,2025-07-24_08h01.46.154,empathy_intonation_perc_control,2024.2.4,Win32,59.88023952,638a3fd5992f01b81d0e1e93,68817205a84113384fffdfe3,68822049e0bec326fd0d2c48,,,,,,,,,,,,,0,,,,,,,,,,,,,,,,,,,,,,,,574.4312,576.2639,0,1,1.3001,,576.2639,577.2642,0,4,4,4,1,0,joten,REAL,FAKE,,,,,,,,,,,,,,,,,,,,,,,,,,,,,,,,
,,,,,,,,,638a3fd5992f01b81d0e1e93,Mexican,click here to respond,"no, only English or Spanish",no,2025-07-24_08h01.46.154,empathy_intonation_perc_control,2024.2.4,Win32,59.88023952,638a3fd5992f01b81d0e1e93,68817205a84113384fffdfe3,68822049e0bec326fd0d2c48,,,,,,,,,,,,,1,,,,,,,,,,,,,,,,,,,,,,,,577.2653,579.0651,0,0,1.2663,,579.0661,580.0654,0,5,5,5,1,0,sacapuntas,REAL,FAKE,,,,,,,,,,,,,,,,,,,,,,,,,,,,,,,,
,,,,,,,,,638a3fd5992f01b81d0e1e93,Mexican,click here to respond,"no, only English or Spanish",no,2025-07-24_08h01.46.154,empathy_intonation_perc_control,2024.2.4,Win32,59.88023952,638a3fd5992f01b81d0e1e93,68817205a84113384fffdfe3,68822049e0bec326fd0d2c48,,,,,,,,,,,,,0,,,,,,,,,,,,,,,,,,,,,,,,580.0665,581.6839,0,1,1.1097,,581.6845,582.6834,0,6,6,6,1,0,priba,REAL,FAKE,,,,,,,,,,,,,,,,,,,,,,,,,,,,,,,,
,,,,,,,,,638a3fd5992f01b81d0e1e93,Mexican,click here to respond,"no, only English or Spanish",no,2025-07-24_08h01.46.154,empathy_intonation_perc_control,2024.2.4,Win32,59.88023952,638a3fd5992f01b81d0e1e93,68817205a84113384fffdfe3,68822049e0bec326fd0d2c48,,,,,,,,,,,,,0,,,,,,,,,,,,,,,,,,,,,,,,582.6841,588.2358,1,0,5.0275,,588.2364,589.2364,0,7,7,7,1,0,pelasula,REAL,FAKE,,,,,,,,,,,,,,,,,,,,,,,,,,,,,,,,
,,,,,,,,,638a3fd5992f01b81d0e1e93,Mexican,click here to respond,"no, only English or Spanish",no,2025-07-24_08h01.46.154,empathy_intonation_perc_control,2024.2.4,Win32,59.88023952,638a3fd5992f01b81d0e1e93,68817205a84113384fffdfe3,68822049e0bec326fd0d2c48,,,,,,,,,,,,,1,,,,,,,,,,,,,,,,,,,,,,,,589.2374,591.2039,1,1,1.4419,,591.2044,592.2043,0,8,8,8,1,0,bien,REAL,FAKE,,,,,,,,,,,,,,,,,,,,,,,,,,,,,,,,
,,,,,,,,,638a3fd5992f01b81d0e1e93,Mexican,click here to respond,"no, only English or Spanish",no,2025-07-24_08h01.46.154,empathy_intonation_perc_control,2024.2.4,Win32,59.88023952,638a3fd5992f01b81d0e1e93,68817205a84113384fffdfe3,68822049e0bec326fd0d2c48,,,,,,,,,,,,,1,,,,,,,,,,,,,,,,,,,,,,,,592.2052,593.7716,1,1,1.0422,,593.7717,594.7723,0,9,9,9,1,0,casa,REAL,FAKE,,,,,,,,,,,,,,,,,,,,,,,,,,,,,,,,
,,,,,,,,,638a3fd5992f01b81d0e1e93,Mexican,click here to respond,"no, only English or Spanish",no,2025-07-24_08h01.46.154,empathy_intonation_perc_control,2024.2.4,Win32,59.88023952,638a3fd5992f01b81d0e1e93,68817205a84113384fffdfe3,68822049e0bec326fd0d2c48,,,,,,,,,,,,,0,,,,,,,,,,,,,,,,,,,,,,,,594.7732,596.8565,1,0,1.5545,,596.8573,597.8571,0,10,10,10,1,0,lejo,REAL,FAKE,,,,,,,,,,,,,,,,,,,,,,,,,,,,,,,,
,,,,,,,,,638a3fd5992f01b81d0e1e93,Mexican,click here to respond,"no, only English or Spanish",no,2025-07-24_08h01.46.154,empathy_intonation_perc_control,2024.2.4,Win32,59.88023952,638a3fd5992f01b81d0e1e93,68817205a84113384fffdfe3,68822049e0bec326fd0d2c48,,,,,,,,,,,,,0,,,,,,,,,,,,,,,,,,,,,,,,597.8582,603.7928,0,1,5.4013,,603.7935,604.7933,0,11,11,11,1,0,pretantas,REAL,FAKE,,,,,,,,,,,,,,,,,,,,,,,,,,,,,,,,
,,,,,,,,,638a3fd5992f01b81d0e1e93,Mexican,click here to respond,"no, only English or Spanish",no,2025-07-24_08h01.46.154,empathy_intonation_perc_control,2024.2.4,Win32,59.88023952,638a3fd5992f01b81d0e1e93,68817205a84113384fffdfe3,68822049e0bec326fd0d2c48,,,,,,,,,,,,,,,,,,,,,,,,,,,,,,,,,,,,,,,,,,,,,,,,,,,,,,604.7937,608.6787,,,,,,,,,,,,,,,,,,,,,,,,,,,,,,
,,,,,,,,,638a3fd5992f01b81d0e1e93,Mexican,click here to respond,"no, only English or Spanish",no,2025-07-24_08h01.46.154,empathy_intonation_perc_control,2024.2.4,Win32,59.88023952,638a3fd5992f01b81d0e1e93,68817205a84113384fffdfe3,68822049e0bec326fd0d2c48,,,,,,,,,,,,,1,,,,,,,,,,,,,,,,,,,,,,,,,,,,,,,,,,,,,31,pandilla,,,,,608.6871,611.9469,0,0,2.7332,,0,0,0,30,1,REAL,FAKE,,,,,,,,,,,,,,,,,
,,,,,,,,,638a3fd5992f01b81d0e1e93,Mexican,click here to respond,"no, only English or Spanish",no,2025-07-24_08h01.46.154,empathy_intonation_perc_control,2024.2.4,Win32,59.88023952,638a3fd5992f01b81d0e1e93,68817205a84113384fffdfe3,68822049e0bec326fd0d2c48,,,,,,,,,,,,,0,,,,,,,,,,,,,,,,,,,,,,,,,,,,,,,,,,,,,32,fatacidad,,,,,611.9483,615.448,0,1,2.9678,,0,1,1,31,1,REAL,FAKE,,,,,,,,,,,,,,,,,
,,,,,,,,,638a3fd5992f01b81d0e1e93,Mexican,click here to respond,"no, only English or Spanish",no,2025-07-24_08h01.46.154,empathy_intonation_perc_control,2024.2.4,Win32,59.88023952,638a3fd5992f01b81d0e1e93,68817205a84113384fffdfe3,68822049e0bec326fd0d2c48,,,,,,,,,,,,,1,,,,,,,,,,,,,,,,,,,,,,,,,,,,,,,,,,,,,54,fomentar,,,,,615.4494,617.3155,1,1,1.3346,,0,2,2,53,1,REAL,FAKE,,,,,,,,,,,,,,,,,
,,,,,,,,,638a3fd5992f01b81d0e1e93,Mexican,click here to respond,"no, only English or Spanish",no,2025-07-24_08h01.46.154,empathy_intonation_perc_control,2024.2.4,Win32,59.88023952,638a3fd5992f01b81d0e1e93,68817205a84113384fffdfe3,68822049e0bec326fd0d2c48,,,,,,,,,,,,,1,,,,,,,,,,,,,,,,,,,,,,,,,,,,,,,,,,,,,43,canela,,,,,617.3165,618.8664,0,0,1.0353,,0,3,3,42,1,REAL,FAKE,,,,,,,,,,,,,,,,,
,,,,,,,,,638a3fd5992f01b81d0e1e93,Mexican,click here to respond,"no, only English or Spanish",no,2025-07-24_08h01.46.154,empathy_intonation_perc_control,2024.2.4,Win32,59.88023952,638a3fd5992f01b81d0e1e93,68817205a84113384fffdfe3,68822049e0bec326fd0d2c48,,,,,,,,,,,,,0,,,,,,,,,,,,,,,,,,,,,,,,,,,,,,,,,,,,,82,empirador,,,,,618.8675,620.3337,0,1,0.9393,,0,4,4,81,1,REAL,FAKE,,,,,,,,,,,,,,,,,
,,,,,,,,,638a3fd5992f01b81d0e1e93,Mexican,click here to respond,"no, only English or Spanish",no,2025-07-24_08h01.46.154,empathy_intonation_perc_control,2024.2.4,Win32,59.88023952,638a3fd5992f01b81d0e1e93,68817205a84113384fffdfe3,68822049e0bec326fd0d2c48,,,,,,,,,,,,,0,,,,,,,,,,,,,,,,,,,,,,,,,,,,,,,,,,,,,33,pauca,,,,,620.3348,622.7348,0,1,1.8722,,0,5,5,32,1,REAL,FAKE,,,,,,,,,,,,,,,,,
,,,,,,,,,638a3fd5992f01b81d0e1e93,Mexican,click here to respond,"no, only English or Spanish",no,2025-07-24_08h01.46.154,empathy_intonation_perc_control,2024.2.4,Win32,59.88023952,638a3fd5992f01b81d0e1e93,68817205a84113384fffdfe3,68822049e0bec326fd0d2c48,,,,,,,,,,,,,0,,,,,,,,,,,,,,,,,,,,,,,,,,,,,,,,,,,,,79,tropaje,,,,,622.7358,624.3021,0,1,1.0388,,0,6,6,78,1,REAL,FAKE,,,,,,,,,,,,,,,,,
,,,,,,,,,638a3fd5992f01b81d0e1e93,Mexican,click here to respond,"no, only English or Spanish",no,2025-07-24_08h01.46.154,empathy_intonation_perc_control,2024.2.4,Win32,59.88023952,638a3fd5992f01b81d0e1e93,68817205a84113384fffdfe3,68822049e0bec326fd0d2c48,,,,,,,,,,,,,1,,,,,,,,,,,,,,,,,,,,,,,,,,,,,,,,,,,,,40,alfombra,,,,,624.303,625.7528,0,0,0.9205,,0,7,7,39,1,REAL,FAKE,,,,,,,,,,,,,,,,,
,,,,,,,,,638a3fd5992f01b81d0e1e93,Mexican,click here to respond,"no, only English or Spanish",no,2025-07-24_08h01.46.154,empathy_intonation_perc_control,2024.2.4,Win32,59.88023952,638a3fd5992f01b81d0e1e93,68817205a84113384fffdfe3,68822049e0bec326fd0d2c48,,,,,,,,,,,,,1,,,,,,,,,,,,,,,,,,,,,,,,,,,,,,,,,,,,,38,estornudar,,,,,625.7536,627.2701,0,0,0.9834,,0,8,8,37,1,REAL,FAKE,,,,,,,,,,,,,,,,,
,,,,,,,,,638a3fd5992f01b81d0e1e93,Mexican,click here to respond,"no, only English or Spanish",no,2025-07-24_08h01.46.154,empathy_intonation_perc_control,2024.2.4,Win32,59.88023952,638a3fd5992f01b81d0e1e93,68817205a84113384fffdfe3,68822049e0bec326fd0d2c48,,,,,,,,,,,,,1,,,,,,,,,,,,,,,,,,,,,,,,,,,,,,,,,,,,,61,seda,,,,,627.2711,628.8877,0,0,1.0883,,0,9,9,60,1,REAL,FAKE,,,,,,,,,,,,,,,,,
,,,,,,,,,638a3fd5992f01b81d0e1e93,Mexican,click here to respond,"no, only English or Spanish",no,2025-07-24_08h01.46.154,empathy_intonation_perc_control,2024.2.4,Win32,59.88023952,638a3fd5992f01b81d0e1e93,68817205a84113384fffdfe3,68822049e0bec326fd0d2c48,,,,,,,,,,,,,1,,,,,,,,,,,,,,,,,,,,,,,,,,,,,,,,,,,,,81,pozo,,,,,628.8889,630.405,0,0,0.9822,,0,10,10,80,1,REAL,FAKE,,,,,,,,,,,,,,,,,
,,,,,,,,,638a3fd5992f01b81d0e1e93,Mexican,click here to respond,"no, only English or Spanish",no,2025-07-24_08h01.46.154,empathy_intonation_perc_control,2024.2.4,Win32,59.88023952,638a3fd5992f01b81d0e1e93,68817205a84113384fffdfe3,68822049e0bec326fd0d2c48,,,,,,,,,,,,,0,,,,,,,,,,,,,,,,,,,,,,,,,,,,,,,,,,,,,27,acutación,,,,,630.4065,633.8064,0,1,2.8695,,0,11,11,26,1,REAL,FAKE,,,,,,,,,,,,,,,,,
,,,,,,,,,638a3fd5992f01b81d0e1e93,Mexican,click here to respond,"no, only English or Spanish",no,2025-07-24_08h01.46.154,empathy_intonation_perc_control,2024.2.4,Win32,59.88023952,638a3fd5992f01b81d0e1e93,68817205a84113384fffdfe3,68822049e0bec326fd0d2c48,,,,,,,,,,,,,1,,,,,,,,,,,,,,,,,,,,,,,,,,,,,,,,,,,,,37,granuja,,,,,633.8081,636.0755,0,0,1.7434,,0,12,12,36,1,REAL,FAKE,,,,,,,,,,,,,,,,,
,,,,,,,,,638a3fd5992f01b81d0e1e93,Mexican,click here to respond,"no, only English or Spanish",no,2025-07-24_08h01.46.154,empathy_intonation_perc_control,2024.2.4,Win32,59.88023952,638a3fd5992f01b81d0e1e93,68817205a84113384fffdfe3,68822049e0bec326fd0d2c48,,,,,,,,,,,,,1,,,,,,,,,,,,,,,,,,,,,,,,,,,,,,,,,,,,,91,click the 1 key.,,,,,636.0773,638.6753,1,1,2.0682,,0,13,13,90,1,REAL,FAKE,,,,,,,,,,,,,,,,,
,,,,,,,,,638a3fd5992f01b81d0e1e93,Mexican,click here to respond,"no, only English or Spanish",no,2025-07-24_08h01.46.154,empathy_intonation_perc_control,2024.2.4,Win32,59.88023952,638a3fd5992f01b81d0e1e93,68817205a84113384fffdfe3,68822049e0bec326fd0d2c48,,,,,,,,,,,,,1,,,,,,,,,,,,,,,,,,,,,,,,,,,,,,,,,,,,,14,yunque,,,,,638.6763,640.3594,0,0,1.154,,0,14,14,13,1,REAL,FAKE,,,,,,,,,,,,,,,,,
,,,,,,,,,638a3fd5992f01b81d0e1e93,Mexican,click here to respond,"no, only English or Spanish",no,2025-07-24_08h01.46.154,empathy_intonation_perc_control,2024.2.4,Win32,59.88023952,638a3fd5992f01b81d0e1e93,68817205a84113384fffdfe3,68822049e0bec326fd0d2c48,,,,,,,,,,,,,1,,,,,,,,,,,,,,,,,,,,,,,,,,,,,,,,,,,,,9,hacha,,,,,640.3604,642.2435,0,0,1.3508,,0,15,15,8,1,REAL,FAKE,,,,,,,,,,,,,,,,,
,,,,,,,,,638a3fd5992f01b81d0e1e93,Mexican,click here to respond,"no, only English or Spanish",no,2025-07-24_08h01.46.154,empathy_intonation_perc_control,2024.2.4,Win32,59.88023952,638a3fd5992f01b81d0e1e93,68817205a84113384fffdfe3,68822049e0bec326fd0d2c48,,,,,,,,,,,,,0,,,,,,,,,,,,,,,,,,,,,,,,,,,,,,,,,,,,,63,esposante,,,,,642.2444,644.4611,1,0,1.6915,,0,16,16,62,1,REAL,FAKE,,,,,,,,,,,,,,,,,
,,,,,,,,,638a3fd5992f01b81d0e1e93,Mexican,click here to respond,"no, only English or Spanish",no,2025-07-24_08h01.46.154,empathy_intonation_perc_control,2024.2.4,Win32,59.88023952,638a3fd5992f01b81d0e1e93,68817205a84113384fffdfe3,68822049e0bec326fd0d2c48,,,,,,,,,,,,,0,,,,,,,,,,,,,,,,,,,,,,,,,,,,,,,,,,,,,1,terzo,,,,,644.4619,646.0286,0,1,1.057,,0,17,17,0,1,REAL,FAKE,,,,,,,,,,,,,,,,,
,,,,,,,,,638a3fd5992f01b81d0e1e93,Mexican,click here to respond,"no, only English or Spanish",no,2025-07-24_08h01.46.154,empathy_intonation_perc_control,2024.2.4,Win32,59.88023952,638a3fd5992f01b81d0e1e93,68817205a84113384fffdfe3,68822049e0bec326fd0d2c48,,,,,,,,,,,,,0,,,,,,,,,,,,,,,,,,,,,,,,,,,,,,,,,,,,,66,hacido,,,,,646.0297,655.7495,1,0,9.189,,0,18,18,65,1,REAL,FAKE,,,,,,,,,,,,,,,,,
,,,,,,,,,638a3fd5992f01b81d0e1e93,Mexican,click here to respond,"no, only English or Spanish",no,2025-07-24_08h01.46.154,empathy_intonation_perc_control,2024.2.4,Win32,59.88023952,638a3fd5992f01b81d0e1e93,68817205a84113384fffdfe3,68822049e0bec326fd0d2c48,,,,,,,,,,,,,0,,,,,,,,,,,,,,,,,,,,,,,,,,,,,,,,,,,,,50,flamida,,,,,655.7502,657.7172,0,1,1.4494,,0,19,19,49,1,REAL,FAKE,,,,,,,,,,,,,,,,,
,,,,,,,,,638a3fd5992f01b81d0e1e93,Mexican,click here to respond,"no, only English or Spanish",no,2025-07-24_08h01.46.154,empathy_intonation_perc_control,2024.2.4,Win32,59.88023952,638a3fd5992f01b81d0e1e93,68817205a84113384fffdfe3,68822049e0bec326fd0d2c48,,,,,,,,,,,,,1,,,,,,,,,,,,,,,,,,,,,,,,,,,,,,,,,,,,,6,tergiversar,,,,,657.7186,659.6348,0,0,1.3838,,0,20,20,5,1,REAL,FAKE,,,,,,,,,,,,,,,,,
,,,,,,,,,638a3fd5992f01b81d0e1e93,Mexican,click here to respond,"no, only English or Spanish",no,2025-07-24_08h01.46.154,empathy_intonation_perc_control,2024.2.4,Win32,59.88023952,638a3fd5992f01b81d0e1e93,68817205a84113384fffdfe3,68822049e0bec326fd0d2c48,,,,,,,,,,,,,1,,,,,,,,,,,,,,,,,,,,,,,,,,,,,,,,,,,,,13,helar,,,,,659.6357,661.5356,0,0,1.3676,,0,21,21,12,1,REAL,FAKE,,,,,,,,,,,,,,,,,
,,,,,,,,,638a3fd5992f01b81d0e1e93,Mexican,click here to respond,"no, only English or Spanish",no,2025-07-24_08h01.46.154,empathy_intonation_perc_control,2024.2.4,Win32,59.88023952,638a3fd5992f01b81d0e1e93,68817205a84113384fffdfe3,68822049e0bec326fd0d2c48,,,,,,,,,,,,,1,,,,,,,,,,,,,,,,,,,,,,,,,,,,,,,,,,,,,7,pésimo,,,,,661.5366,663.153,1,1,1.0857,,0,22,22,6,1,REAL,FAKE,,,,,,,,,,,,,,,,,
,,,,,,,,,638a3fd5992f01b81d0e1e93,Mexican,click here to respond,"no, only English or Spanish",no,2025-07-24_08h01.46.154,empathy_intonation_perc_control,2024.2.4,Win32,59.88023952,638a3fd5992f01b81d0e1e93,68817205a84113384fffdfe3,68822049e0bec326fd0d2c48,,,,,,,,,,,,,0,,,,,,,,,,,,,,,,,,,,,,,,,,,,,,,,,,,,,10,antar,,,,,663.1541,664.9552,1,0,1.2781,,0,23,23,9,1,REAL,FAKE,,,,,,,,,,,,,,,,,
,,,,,,,,,638a3fd5992f01b81d0e1e93,Mexican,click here to respond,"no, only English or Spanish",no,2025-07-24_08h01.46.154,empathy_intonation_perc_control,2024.2.4,Win32,59.88023952,638a3fd5992f01b81d0e1e93,68817205a84113384fffdfe3,68822049e0bec326fd0d2c48,,,,,,,,,,,,,0,,,,,,,,,,,,,,,,,,,,,,,,,,,,,,,,,,,,,19,brecedad,,,,,664.956,666.6379,0,1,1.1566,,0,24,24,18,1,REAL,FAKE,,,,,,,,,,,,,,,,,
,,,,,,,,,638a3fd5992f01b81d0e1e93,Mexican,click here to respond,"no, only English or Spanish",no,2025-07-24_08h01.46.154,empathy_intonation_perc_control,2024.2.4,Win32,59.88023952,638a3fd5992f01b81d0e1e93,68817205a84113384fffdfe3,68822049e0bec326fd0d2c48,,,,,,,,,,,,,0,,,,,,,,,,,,,,,,,,,,,,,,,,,,,,,,,,,,,58,plaudir,,,,,666.6388,668.1551,0,1,0.9924,,0,25,25,57,1,REAL,FAKE,,,,,,,,,,,,,,,,,
,,,,,,,,,638a3fd5992f01b81d0e1e93,Mexican,click here to respond,"no, only English or Spanish",no,2025-07-24_08h01.46.154,empathy_intonation_perc_control,2024.2.4,Win32,59.88023952,638a3fd5992f01b81d0e1e93,68817205a84113384fffdfe3,68822049e0bec326fd0d2c48,,,,,,,,,,,,,1,,,,,,,,,,,,,,,,,,,,,,,,,,,,,,,,,,,,,51,candado,,,,,668.1559,669.6559,0,0,0.9708,,0,26,26,50,1,REAL,FAKE,,,,,,,,,,,,,,,,,
,,,,,,,,,638a3fd5992f01b81d0e1e93,Mexican,click here to respond,"no, only English or Spanish",no,2025-07-24_08h01.46.154,empathy_intonation_perc_control,2024.2.4,Win32,59.88023952,638a3fd5992f01b81d0e1e93,68817205a84113384fffdfe3,68822049e0bec326fd0d2c48,,,,,,,,,,,,,1,,,,,,,,,,,,,,,,,,,,,,,,,,,,,,,,,,,,,28,merodear,,,,,669.6568,672.6408,0,0,2.4509,,0,27,27,27,1,REAL,FAKE,,,,,,,,,,,,,,,,,
,,,,,,,,,638a3fd5992f01b81d0e1e93,Mexican,click here to respond,"no, only English or Spanish",no,2025-07-24_08h01.46.154,empathy_intonation_perc_control,2024.2.4,Win32,59.88023952,638a3fd5992f01b81d0e1e93,68817205a84113384fffdfe3,68822049e0bec326fd0d2c48,,,,,,,,,,,,,1,,,,,,,,,,,,,,,,,,,,,,,,,,,,,,,,,,,,,73,hervidor,,,,,672.6416,675.4252,0,0,2.2513,,0,28,28,72,1,REAL,FAKE,,,,,,,,,,,,,,,,,
,,,,,,,,,638a3fd5992f01b81d0e1e93,Mexican,click here to respond,"no, only English or Spanish",no,2025-07-24_08h01.46.154,empathy_intonation_perc_control,2024.2.4,Win32,59.88023952,638a3fd5992f01b81d0e1e93,68817205a84113384fffdfe3,68822049e0bec326fd0d2c48,,,,,,,,,,,,,1,,,,,,,,,,,,,,,,,,,,,,,,,,,,,,,,,,,,,60,matar,,,,,675.4261,681.5445,1,1,5.5845,,0,29,29,59,1,REAL,FAKE,,,,,,,,,,,,,,,,,
,,,,,,,,,638a3fd5992f01b81d0e1e93,Mexican,click here to respond,"no, only English or Spanish",no,2025-07-24_08h01.46.154,empathy_intonation_perc_control,2024.2.4,Win32,59.88023952,638a3fd5992f01b81d0e1e93,68817205a84113384fffdfe3,68822049e0bec326fd0d2c48,,,,,,,,,,,,,0,,,,,,,,,,,,,,,,,,,,,,,,,,,,,,,,,,,,,8,cadeña,,,,,681.5457,683.0621,1,0,0.9892,,0,30,30,7,1,REAL,FAKE,,,,,,,,,,,,,,,,,
,,,,,,,,,638a3fd5992f01b81d0e1e93,Mexican,click here to respond,"no, only English or Spanish",no,2025-07-24_08h01.46.154,empathy_intonation_perc_control,2024.2.4,Win32,59.88023952,638a3fd5992f01b81d0e1e93,68817205a84113384fffdfe3,68822049e0bec326fd0d2c48,,,,,,,,,,,,,1,,,,,,,,,,,,,,,,,,,,,,,,,,,,,,,,,,,,,62,flaco,,,,,683.063,685.4796,1,1,1.8839,,0,31,31,61,1,REAL,FAKE,,,,,,,,,,,,,,,,,
,,,,,,,,,638a3fd5992f01b81d0e1e93,Mexican,click here to respond,"no, only English or Spanish",no,2025-07-24_08h01.46.154,empathy_intonation_perc_control,2024.2.4,Win32,59.88023952,638a3fd5992f01b81d0e1e93,68817205a84113384fffdfe3,68822049e0bec326fd0d2c48,,,,,,,,,,,,,0,,,,,,,,,,,,,,,,,,,,,,,,,,,,,,,,,,,,,4,batillón,,,,,685.4806,688.9312,1,0,2.9181,,0,32,32,3,1,REAL,FAKE,,,,,,,,,,,,,,,,,
,,,,,,,,,638a3fd5992f01b81d0e1e93,Mexican,click here to respond,"no, only English or Spanish",no,2025-07-24_08h01.46.154,empathy_intonation_perc_control,2024.2.4,Win32,59.88023952,638a3fd5992f01b81d0e1e93,68817205a84113384fffdfe3,68822049e0bec326fd0d2c48,,,,,,,,,,,,,0,,,,,,,,,,,,,,,,,,,,,,,,,,,,,,,,,,,,,53,vegada,,,,,688.9324,696.7015,0,1,7.2429,,0,33,33,52,1,REAL,FAKE,,,,,,,,,,,,,,,,,
,,,,,,,,,638a3fd5992f01b81d0e1e93,Mexican,click here to respond,"no, only English or Spanish",no,2025-07-24_08h01.46.154,empathy_intonation_perc_control,2024.2.4,Win32,59.88023952,638a3fd5992f01b81d0e1e93,68817205a84113384fffdfe3,68822049e0bec326fd0d2c48,,,,,,,,,,,,,1,,,,,,,,,,,,,,,,,,,,,,,,,,,,,,,,,,,,,80,hormiga,,,,,696.7026,698.7355,0,0,1.5039,,0,34,34,79,1,REAL,FAKE,,,,,,,,,,,,,,,,,
,,,,,,,,,638a3fd5992f01b81d0e1e93,Mexican,click here to respond,"no, only English or Spanish",no,2025-07-24_08h01.46.154,empathy_intonation_perc_control,2024.2.4,Win32,59.88023952,638a3fd5992f01b81d0e1e93,68817205a84113384fffdfe3,68822049e0bec326fd0d2c48,,,,,,,,,,,,,0,,,,,,,,,,,,,,,,,,,,,,,,,,,,,,,,,,,,,72,pemición,,,,,698.7365,700.353,0,1,1.0834,,0,35,35,71,1,REAL,FAKE,,,,,,,,,,,,,,,,,
,,,,,,,,,638a3fd5992f01b81d0e1e93,Mexican,click here to respond,"no, only English or Spanish",no,2025-07-24_08h01.46.154,empathy_intonation_perc_control,2024.2.4,Win32,59.88023952,638a3fd5992f01b81d0e1e93,68817205a84113384fffdfe3,68822049e0bec326fd0d2c48,,,,,,,,,,,,,1,,,,,,,,,,,,,,,,,,,,,,,,,,,,,,,,,,,,,83,guante,,,,,700.3538,702.2872,0,0,1.4218,,0,36,36,82,1,REAL,FAKE,,,,,,,,,,,,,,,,,
,,,,,,,,,638a3fd5992f01b81d0e1e93,Mexican,click here to respond,"no, only English or Spanish",no,2025-07-24_08h01.46.154,empathy_intonation_perc_control,2024.2.4,Win32,59.88023952,638a3fd5992f01b81d0e1e93,68817205a84113384fffdfe3,68822049e0bec326fd0d2c48,,,,,,,,,,,,,1,,,,,,,,,,,,,,,,,,,,,,,,,,,,,,,,,,,,,69,engatusar,,,,,702.2882,703.9713,0,0,1.1584,,0,37,37,68,1,REAL,FAKE,,,,,,,,,,,,,,,,,
,,,,,,,,,638a3fd5992f01b81d0e1e93,Mexican,click here to respond,"no, only English or Spanish",no,2025-07-24_08h01.46.154,empathy_intonation_perc_control,2024.2.4,Win32,59.88023952,638a3fd5992f01b81d0e1e93,68817205a84113384fffdfe3,68822049e0bec326fd0d2c48,,,,,,,,,,,,,0,,,,,,,,,,,,,,,,,,,,,,,,,,,,,,,,,,,,,42,cadallo,,,,,703.9722,705.4221,0,1,0.9157,,0,38,38,41,1,REAL,FAKE,,,,,,,,,,,,,,,,,
,,,,,,,,,638a3fd5992f01b81d0e1e93,Mexican,click here to respond,"no, only English or Spanish",no,2025-07-24_08h01.46.154,empathy_intonation_perc_control,2024.2.4,Win32,59.88023952,638a3fd5992f01b81d0e1e93,68817205a84113384fffdfe3,68822049e0bec326fd0d2c48,,,,,,,,,,,,,1,,,,,,,,,,,,,,,,,,,,,,,,,,,,,,,,,,,,,76,atar,,,,,705.4232,712.1919,0,0,6.2357,,0,39,39,75,1,REAL,FAKE,,,,,,,,,,,,,,,,,
,,,,,,,,,638a3fd5992f01b81d0e1e93,Mexican,click here to respond,"no, only English or Spanish",no,2025-07-24_08h01.46.154,empathy_intonation_perc_control,2024.2.4,Win32,59.88023952,638a3fd5992f01b81d0e1e93,68817205a84113384fffdfe3,68822049e0bec326fd0d2c48,,,,,,,,,,,,,1,,,,,,,,,,,,,,,,,,,,,,,,,,,,,,,,,,,,,36,loro,,,,,712.1929,714.0268,0,0,1.3107,,0,40,40,35,1,REAL,FAKE,,,,,,,,,,,,,,,,,
,,,,,,,,,638a3fd5992f01b81d0e1e93,Mexican,click here to respond,"no, only English or Spanish",no,2025-07-24_08h01.46.154,empathy_intonation_perc_control,2024.2.4,Win32,59.88023952,638a3fd5992f01b81d0e1e93,68817205a84113384fffdfe3,68822049e0bec326fd0d2c48,,,,,,,,,,,,,1,,,,,,,,,,,,,,,,,,,,,,,,,,,,,,,,,,,,,24,látigo,,,,,714.0282,715.5099,1,1,0.9506,,0,41,41,23,1,REAL,FAKE,,,,,,,,,,,,,,,,,
,,,,,,,,,638a3fd5992f01b81d0e1e93,Mexican,click here to respond,"no, only English or Spanish",no,2025-07-24_08h01.46.154,empathy_intonation_perc_control,2024.2.4,Win32,59.88023952,638a3fd5992f01b81d0e1e93,68817205a84113384fffdfe3,68822049e0bec326fd0d2c48,,,,,,,,,,,,,0,,,,,,,,,,,,,,,,,,,,,,,,,,,,,,,,,,,,,29,decar,,,,,715.511,718.2115,0,1,2.1759,,0,42,42,28,1,REAL,FAKE,,,,,,,,,,,,,,,,,
,,,,,,,,,638a3fd5992f01b81d0e1e93,Mexican,click here to respond,"no, only English or Spanish",no,2025-07-24_08h01.46.154,empathy_intonation_perc_control,2024.2.4,Win32,59.88023952,638a3fd5992f01b81d0e1e93,68817205a84113384fffdfe3,68822049e0bec326fd0d2c48,,,,,,,,,,,,,1,,,,,,,,,,,,,,,,,,,,,,,,,,,,,,,,,,,,,48,ladrón,,,,,718.2122,719.6784,0,0,0.934,,0,43,43,47,1,REAL,FAKE,,,,,,,,,,,,,,,,,
,,,,,,,,,638a3fd5992f01b81d0e1e93,Mexican,click here to respond,"no, only English or Spanish",no,2025-07-24_08h01.46.154,empathy_intonation_perc_control,2024.2.4,Win32,59.88023952,638a3fd5992f01b81d0e1e93,68817205a84113384fffdfe3,68822049e0bec326fd0d2c48,,,,,,,,,,,,,1,,,,,,,,,,,,,,,,,,,,,,,,,,,,,,,,,,,,,20,ávido,,,,,719.6794,721.1123,1,1,0.904,,0,44,44,19,1,REAL,FAKE,,,,,,,,,,,,,,,,,
,,,,,,,,,638a3fd5992f01b81d0e1e93,Mexican,click here to respond,"no, only English or Spanish",no,2025-07-24_08h01.46.154,empathy_intonation_perc_control,2024.2.4,Win32,59.88023952,638a3fd5992f01b81d0e1e93,68817205a84113384fffdfe3,68822049e0bec326fd0d2c48,,,,,,,,,,,,,0,,,,,,,,,,,,,,,,,,,,,,,,,,,,,,,,,,,,,23,lampera,,,,,721.1131,722.6964,0,1,1.0536,,0,45,45,22,1,REAL,FAKE,,,,,,,,,,,,,,,,,
,,,,,,,,,638a3fd5992f01b81d0e1e93,Mexican,click here to respond,"no, only English or Spanish",no,2025-07-24_08h01.46.154,empathy_intonation_perc_control,2024.2.4,Win32,59.88023952,638a3fd5992f01b81d0e1e93,68817205a84113384fffdfe3,68822049e0bec326fd0d2c48,,,,,,,,,,,,,1,,,,,,,,,,,,,,,,,,,,,,,,,,,,,,,,,,,,,64,orgulloso,,,,,722.6978,724.1805,0,0,0.9577,,0,46,46,63,1,REAL,FAKE,,,,,,,,,,,,,,,,,
,,,,,,,,,638a3fd5992f01b81d0e1e93,Mexican,click here to respond,"no, only English or Spanish",no,2025-07-24_08h01.46.154,empathy_intonation_perc_control,2024.2.4,Win32,59.88023952,638a3fd5992f01b81d0e1e93,68817205a84113384fffdfe3,68822049e0bec326fd0d2c48,,,,,,,,,,,,,0,,,,,,,,,,,,,,,,,,,,,,,,,,,,,,,,,,,,,74,cintro,,,,,724.1816,726.3481,0,1,1.6336,,0,47,47,73,1,REAL,FAKE,,,,,,,,,,,,,,,,,
,,,,,,,,,638a3fd5992f01b81d0e1e93,Mexican,click here to respond,"no, only English or Spanish",no,2025-07-24_08h01.46.154,empathy_intonation_perc_control,2024.2.4,Win32,59.88023952,638a3fd5992f01b81d0e1e93,68817205a84113384fffdfe3,68822049e0bec326fd0d2c48,,,,,,,,,,,,,1,,,,,,,,,,,,,,,,,,,,,,,,,,,,,,,,,,,,,67,cabello,,,,,726.3491,728.6658,0,0,1.7844,,0,48,48,66,1,REAL,FAKE,,,,,,,,,,,,,,,,,
,,,,,,,,,638a3fd5992f01b81d0e1e93,Mexican,click here to respond,"no, only English or Spanish",no,2025-07-24_08h01.46.154,empathy_intonation_perc_control,2024.2.4,Win32,59.88023952,638a3fd5992f01b81d0e1e93,68817205a84113384fffdfe3,68822049e0bec326fd0d2c48,,,,,,,,,,,,,1,,,,,,,,,,,,,,,,,,,,,,,,,,,,,,,,,,,,,44,cuchara,,,,,728.6668,732.0008,1,1,2.8044,,0,49,49,43,1,REAL,FAKE,,,,,,,,,,,,,,,,,
,,,,,,,,,638a3fd5992f01b81d0e1e93,Mexican,click here to respond,"no, only English or Spanish",no,2025-07-24_08h01.46.154,empathy_intonation_perc_control,2024.2.4,Win32,59.88023952,638a3fd5992f01b81d0e1e93,68817205a84113384fffdfe3,68822049e0bec326fd0d2c48,,,,,,,,,,,,,0,,,,,,,,,,,,,,,,,,,,,,,,,,,,,,,,,,,,,47,cartinar,,,,,732.0018,733.9685,0,1,1.4382,,0,50,50,46,1,REAL,FAKE,,,,,,,,,,,,,,,,,
,,,,,,,,,638a3fd5992f01b81d0e1e93,Mexican,click here to respond,"no, only English or Spanish",no,2025-07-24_08h01.46.154,empathy_intonation_perc_control,2024.2.4,Win32,59.88023952,638a3fd5992f01b81d0e1e93,68817205a84113384fffdfe3,68822049e0bec326fd0d2c48,,,,,,,,,,,,,1,,,,,,,,,,,,,,,,,,,,,,,,,,,,,,,,,,,,,89,prisa,,,,,733.9694,735.9692,0,0,1.4699,,0,51,51,88,1,REAL,FAKE,,,,,,,,,,,,,,,,,
,,,,,,,,,638a3fd5992f01b81d0e1e93,Mexican,click here to respond,"no, only English or Spanish",no,2025-07-24_08h01.46.154,empathy_intonation_perc_control,2024.2.4,Win32,59.88023952,638a3fd5992f01b81d0e1e93,68817205a84113384fffdfe3,68822049e0bec326fd0d2c48,,,,,,,,,,,,,1,,,,,,,,,,,,,,,,,,,,,,,,,,,,,,,,,,,,,52,camisa,,,,,735.9703,737.72,0,0,1.2211,,0,52,52,51,1,REAL,FAKE,,,,,,,,,,,,,,,,,
,,,,,,,,,638a3fd5992f01b81d0e1e93,Mexican,click here to respond,"no, only English or Spanish",no,2025-07-24_08h01.46.154,empathy_intonation_perc_control,2024.2.4,Win32,59.88023952,638a3fd5992f01b81d0e1e93,68817205a84113384fffdfe3,68822049e0bec326fd0d2c48,,,,,,,,,,,,,0,,,,,,,,,,,,,,,,,,,,,,,,,,,,,,,,,,,,,84,escuto,,,,,737.7208,739.4374,1,0,1.1828,,0,53,53,83,1,REAL,FAKE,,,,,,,,,,,,,,,,,
,,,,,,,,,638a3fd5992f01b81d0e1e93,Mexican,click here to respond,"no, only English or Spanish",no,2025-07-24_08h01.46.154,empathy_intonation_perc_control,2024.2.4,Win32,59.88023952,638a3fd5992f01b81d0e1e93,68817205a84113384fffdfe3,68822049e0bec326fd0d2c48,,,,,,,,,,,,,1,,,,,,,,,,,,,,,,,,,,,,,,,,,,,,,,,,,,,2,pellizcar,,,,,739.4385,741.4218,0,0,1.4507,,0,54,54,1,1,REAL,FAKE,,,,,,,,,,,,,,,,,
,,,,,,,,,638a3fd5992f01b81d0e1e93,Mexican,click here to respond,"no, only English or Spanish",no,2025-07-24_08h01.46.154,empathy_intonation_perc_control,2024.2.4,Win32,59.88023952,638a3fd5992f01b81d0e1e93,68817205a84113384fffdfe3,68822049e0bec326fd0d2c48,,,,,,,,,,,,,1,,,,,,,,,,,,,,,,,,,,,,,,,,,,,,,,,,,,,55,nevar,,,,,741.4227,745.691,0,0,3.7619,,0,55,55,54,1,REAL,FAKE,,,,,,,,,,,,,,,,,
,,,,,,,,,638a3fd5992f01b81d0e1e93,Mexican,click here to respond,"no, only English or Spanish",no,2025-07-24_08h01.46.154,empathy_intonation_perc_control,2024.2.4,Win32,59.88023952,638a3fd5992f01b81d0e1e93,68817205a84113384fffdfe3,68822049e0bec326fd0d2c48,,,,,,,,,,,,,1,,,,,,,,,,,,,,,,,,,,,,,,,,,,,,,,,,,,,59,besar,,,,,745.6916,748.0745,0,0,1.8506,,0,56,56,58,1,REAL,FAKE,,,,,,,,,,,,,,,,,
,,,,,,,,,638a3fd5992f01b81d0e1e93,Mexican,click here to respond,"no, only English or Spanish",no,2025-07-24_08h01.46.154,empathy_intonation_perc_control,2024.2.4,Win32,59.88023952,638a3fd5992f01b81d0e1e93,68817205a84113384fffdfe3,68822049e0bec326fd0d2c48,,,,,,,,,,,,,0,,,,,,,,,,,,,,,,,,,,,,,,,,,,,,,,,,,,,21,capillo,,,,,748.0754,749.7754,1,0,1.166,,0,57,57,20,1,REAL,FAKE,,,,,,,,,,,,,,,,,
,,,,,,,,,638a3fd5992f01b81d0e1e93,Mexican,click here to respond,"no, only English or Spanish",no,2025-07-24_08h01.46.154,empathy_intonation_perc_control,2024.2.4,Win32,59.88023952,638a3fd5992f01b81d0e1e93,68817205a84113384fffdfe3,68822049e0bec326fd0d2c48,,,,,,,,,,,,,0,,,,,,,,,,,,,,,,,,,,,,,,,,,,,,,,,,,,,18,arsa,,,,,749.7765,751.7596,0,1,1.452,,0,58,58,17,1,REAL,FAKE,,,,,,,,,,,,,,,,,
,,,,,,,,,638a3fd5992f01b81d0e1e93,Mexican,click here to respond,"no, only English or Spanish",no,2025-07-24_08h01.46.154,empathy_intonation_perc_control,2024.2.4,Win32,59.88023952,638a3fd5992f01b81d0e1e93,68817205a84113384fffdfe3,68822049e0bec326fd0d2c48,,,,,,,,,,,,,1,,,,,,,,,,,,,,,,,,,,,,,,,,,,,,,,,,,,,26,secuestro,,,,,751.7606,754.2774,1,1,1.9824,,0,59,59,25,1,REAL,FAKE,,,,,,,,,,,,,,,,,
,,,,,,,,,638a3fd5992f01b81d0e1e93,Mexican,click here to respond,"no, only English or Spanish",no,2025-07-24_08h01.46.154,empathy_intonation_perc_control,2024.2.4,Win32,59.88023952,638a3fd5992f01b81d0e1e93,68817205a84113384fffdfe3,68822049e0bec326fd0d2c48,,,,,,,,,,,,,1,,,,,,,,,,,,,,,,,,,,,,,,,,,,,,,,,,,,,41,rebuscar,,,,,754.2784,758.3459,1,1,3.5366,,0,60,60,40,1,REAL,FAKE,,,,,,,,,,,,,,,,,
,,,,,,,,,638a3fd5992f01b81d0e1e93,Mexican,click here to respond,"no, only English or Spanish",no,2025-07-24_08h01.46.154,empathy_intonation_perc_control,2024.2.4,Win32,59.88023952,638a3fd5992f01b81d0e1e93,68817205a84113384fffdfe3,68822049e0bec326fd0d2c48,,,,,,,,,,,,,1,,,,,,,,,,,,,,,,,,,,,,,,,,,,,,,,,,,,,11,cenefa,,,,,758.3469,759.9966,0,0,1.1233,,0,61,61,10,1,REAL,FAKE,,,,,,,,,,,,,,,,,
,,,,,,,,,638a3fd5992f01b81d0e1e93,Mexican,click here to respond,"no, only English or Spanish",no,2025-07-24_08h01.46.154,empathy_intonation_perc_control,2024.2.4,Win32,59.88023952,638a3fd5992f01b81d0e1e93,68817205a84113384fffdfe3,68822049e0bec326fd0d2c48,,,,,,,,,,,,,1,,,,,,,,,,,,,,,,,,,,,,,,,,,,,,,,,,,,,88,acantilado,,,,,759.9975,767.6169,1,1,7.0882,,0,62,62,87,1,REAL,FAKE,,,,,,,,,,,,,,,,,
,,,,,,,,,638a3fd5992f01b81d0e1e93,Mexican,click here to respond,"no, only English or Spanish",no,2025-07-24_08h01.46.154,empathy_intonation_perc_control,2024.2.4,Win32,59.88023952,638a3fd5992f01b81d0e1e93,68817205a84113384fffdfe3,68822049e0bec326fd0d2c48,,,,,,,,,,,,,1,,,,,,,,,,,,,,,,,,,,,,,,,,,,,,,,,,,,,77,tiburón,,,,,767.618,770.218,1,1,2.0678,,0,63,63,76,1,REAL,FAKE,,,,,,,,,,,,,,,,,
,,,,,,,,,638a3fd5992f01b81d0e1e93,Mexican,click here to respond,"no, only English or Spanish",no,2025-07-24_08h01.46.154,empathy_intonation_perc_control,2024.2.4,Win32,59.88023952,638a3fd5992f01b81d0e1e93,68817205a84113384fffdfe3,68822049e0bec326fd0d2c48,,,,,,,,,,,,,0,,,,,,,,,,,,,,,,,,,,,,,,,,,,,,,,,,,,,87,grodo,,,,,770.219,771.803,1,0,1.0603,,0,64,64,86,1,REAL,FAKE,,,,,,,,,,,,,,,,,
,,,,,,,,,638a3fd5992f01b81d0e1e93,Mexican,click here to respond,"no, only English or Spanish",no,2025-07-24_08h01.46.154,empathy_intonation_perc_control,2024.2.4,Win32,59.88023952,638a3fd5992f01b81d0e1e93,68817205a84113384fffdfe3,68822049e0bec326fd0d2c48,,,,,,,,,,,,,1,,,,,,,,,,,,,,,,,,,,,,,,,,,,,,,,,,,,,68,alegre,,,,,771.8038,773.5697,1,1,1.2336,,0,65,65,67,1,REAL,FAKE,,,,,,,,,,,,,,,,,
,,,,,,,,,638a3fd5992f01b81d0e1e93,Mexican,click here to respond,"no, only English or Spanish",no,2025-07-24_08h01.46.154,empathy_intonation_perc_control,2024.2.4,Win32,59.88023952,638a3fd5992f01b81d0e1e93,68817205a84113384fffdfe3,68822049e0bec326fd0d2c48,,,,,,,,,,,,,0,,,,,,,,,,,,,,,,,,,,,,,,,,,,,,,,,,,,,30,alardio,,,,,773.5706,775.2035,0,1,1.0992,,0,66,66,29,1,REAL,FAKE,,,,,,,,,,,,,,,,,
,,,,,,,,,638a3fd5992f01b81d0e1e93,Mexican,click here to respond,"no, only English or Spanish",no,2025-07-24_08h01.46.154,empathy_intonation_perc_control,2024.2.4,Win32,59.88023952,638a3fd5992f01b81d0e1e93,68817205a84113384fffdfe3,68822049e0bec326fd0d2c48,,,,,,,,,,,,,1,,,,,,,,,,,,,,,,,,,,,,,,,,,,,,,,,,,,,65,bizcocho,,,,,775.2045,776.6373,0,0,0.9067,,0,67,67,64,1,REAL,FAKE,,,,,,,,,,,,,,,,,
,,,,,,,,,638a3fd5992f01b81d0e1e93,Mexican,click here to respond,"no, only English or Spanish",no,2025-07-24_08h01.46.154,empathy_intonation_perc_control,2024.2.4,Win32,59.88023952,638a3fd5992f01b81d0e1e93,68817205a84113384fffdfe3,68822049e0bec326fd0d2c48,,,,,,,,,,,,,1,,,,,,,,,,,,,,,,,,,,,,,,,,,,,,,,,,,,,39,torpe,,,,,776.6383,779.3053,0,0,2.134,,0,68,68,38,1,REAL,FAKE,,,,,,,,,,,,,,,,,
,,,,,,,,,638a3fd5992f01b81d0e1e93,Mexican,click here to respond,"no, only English or Spanish",no,2025-07-24_08h01.46.154,empathy_intonation_perc_control,2024.2.4,Win32,59.88023952,638a3fd5992f01b81d0e1e93,68817205a84113384fffdfe3,68822049e0bec326fd0d2c48,,,,,,,,,,,,,1,,,,,,,,,,,,,,,,,,,,,,,,,,,,,,,,,,,,,78,frondoso,,,,,779.3063,780.7894,0,0,0.951,,0,69,69,77,1,REAL,FAKE,,,,,,,,,,,,,,,,,
,,,,,,,,,638a3fd5992f01b81d0e1e93,Mexican,click here to respond,"no, only English or Spanish",no,2025-07-24_08h01.46.154,empathy_intonation_perc_control,2024.2.4,Win32,59.88023952,638a3fd5992f01b81d0e1e93,68817205a84113384fffdfe3,68822049e0bec326fd0d2c48,,,,,,,,,,,,,1,,,,,,,,,,,,,,,,,,,,,,,,,,,,,,,,,,,,,49,ganar,,,,,780.7905,782.3734,1,1,1.0561,,0,70,70,48,1,REAL,FAKE,,,,,,,,,,,,,,,,,
,,,,,,,,,638a3fd5992f01b81d0e1e93,Mexican,click here to respond,"no, only English or Spanish",no,2025-07-24_08h01.46.154,empathy_intonation_perc_control,2024.2.4,Win32,59.88023952,638a3fd5992f01b81d0e1e93,68817205a84113384fffdfe3,68822049e0bec326fd0d2c48,,,,,,,,,,,,,1,,,,,,,,,,,,,,,,,,,,,,,,,,,,,,,,,,,,,34,aviso,,,,,782.3744,783.9072,0,0,1.0082,,0,71,71,33,1,REAL,FAKE,,,,,,,,,,,,,,,,,
,,,,,,,,,638a3fd5992f01b81d0e1e93,Mexican,click here to respond,"no, only English or Spanish",no,2025-07-24_08h01.46.154,empathy_intonation_perc_control,2024.2.4,Win32,59.88023952,638a3fd5992f01b81d0e1e93,68817205a84113384fffdfe3,68822049e0bec326fd0d2c48,,,,,,,,,,,,,1,,,,,,,,,,,,,,,,,,,,,,,,,,,,,,,,,,,,,86,barato,,,,,783.9082,785.3915,1,1,0.9491,,0,72,72,85,1,REAL,FAKE,,,,,,,,,,,,,,,,,
,,,,,,,,,638a3fd5992f01b81d0e1e93,Mexican,click here to respond,"no, only English or Spanish",no,2025-07-24_08h01.46.154,empathy_intonation_perc_control,2024.2.4,Win32,59.88023952,638a3fd5992f01b81d0e1e93,68817205a84113384fffdfe3,68822049e0bec326fd0d2c48,,,,,,,,,,,,,1,,,,,,,,,,,,,,,,,,,,,,,,,,,,,,,,,,,,,3,pulmones,,,,,785.3924,786.9589,0,0,1.0346,,0,73,73,2,1,REAL,FAKE,,,,,,,,,,,,,,,,,
,,,,,,,,,638a3fd5992f01b81d0e1e93,Mexican,click here to respond,"no, only English or Spanish",no,2025-07-24_08h01.46.154,empathy_intonation_perc_control,2024.2.4,Win32,59.88023952,638a3fd5992f01b81d0e1e93,68817205a84113384fffdfe3,68822049e0bec326fd0d2c48,,,,,,,,,,,,,1,,,,,,,,,,,,,,,,,,,,,,,,,,,,,,,,,,,,,71,polvoriento,,,,,786.9603,788.4267,0,0,0.9431,,0,74,74,70,1,REAL,FAKE,,,,,,,,,,,,,,,,,
,,,,,,,,,638a3fd5992f01b81d0e1e93,Mexican,click here to respond,"no, only English or Spanish",no,2025-07-24_08h01.46.154,empathy_intonation_perc_control,2024.2.4,Win32,59.88023952,638a3fd5992f01b81d0e1e93,68817205a84113384fffdfe3,68822049e0bec326fd0d2c48,,,,,,,,,,,,,1,,,,,,,,,,,,,,,,,,,,,,,,,,,,,,,,,,,,,75,yacer,,,,,788.4279,789.9769,0,0,1.0168,,0,75,75,74,1,REAL,FAKE,,,,,,,,,,,,,,,,,
,,,,,,,,,638a3fd5992f01b81d0e1e93,Mexican,click here to respond,"no, only English or Spanish",no,2025-07-24_08h01.46.154,empathy_intonation_perc_control,2024.2.4,Win32,59.88023952,638a3fd5992f01b81d0e1e93,68817205a84113384fffdfe3,68822049e0bec326fd0d2c48,,,,,,,,,,,,,1,,,,,,,,,,,,,,,,,,,,,,,,,,,,,,,,,,,,,45,jilguero,,,,,789.9777,791.4609,0,0,0.9574,,0,76,76,44,1,REAL,FAKE,,,,,,,,,,,,,,,,,
,,,,,,,,,638a3fd5992f01b81d0e1e93,Mexican,click here to respond,"no, only English or Spanish",no,2025-07-24_08h01.46.154,empathy_intonation_perc_control,2024.2.4,Win32,59.88023952,638a3fd5992f01b81d0e1e93,68817205a84113384fffdfe3,68822049e0bec326fd0d2c48,,,,,,,,,,,,,0,,,,,,,,,,,,,,,,,,,,,,,,,,,,,,,,,,,,,35,rompido,,,,,791.4617,792.8948,0,1,0.9,,0,77,77,34,1,REAL,FAKE,,,,,,,,,,,,,,,,,
,,,,,,,,,638a3fd5992f01b81d0e1e93,Mexican,click here to respond,"no, only English or Spanish",no,2025-07-24_08h01.46.154,empathy_intonation_perc_control,2024.2.4,Win32,59.88023952,638a3fd5992f01b81d0e1e93,68817205a84113384fffdfe3,68822049e0bec326fd0d2c48,,,,,,,,,,,,,1,,,,,,,,,,,,,,,,,,,,,,,,,,,,,,,,,,,,,57,tacaño,,,,,792.8958,794.3123,1,1,0.885,,0,78,78,56,1,REAL,FAKE,,,,,,,,,,,,,,,,,
,,,,,,,,,638a3fd5992f01b81d0e1e93,Mexican,click here to respond,"no, only English or Spanish",no,2025-07-24_08h01.46.154,empathy_intonation_perc_control,2024.2.4,Win32,59.88023952,638a3fd5992f01b81d0e1e93,68817205a84113384fffdfe3,68822049e0bec326fd0d2c48,,,,,,,,,,,,,1,,,,,,,,,,,,,,,,,,,,,,,,,,,,,,,,,,,,,12,asesinato,,,,,794.3131,801.6985,0,0,6.8613,,0,79,79,11,1,REAL,FAKE,,,,,,,,,,,,,,,,,
,,,,,,,,,638a3fd5992f01b81d0e1e93,Mexican,click here to respond,"no, only English or Spanish",no,2025-07-24_08h01.46.154,empathy_intonation_perc_control,2024.2.4,Win32,59.88023952,638a3fd5992f01b81d0e1e93,68817205a84113384fffdfe3,68822049e0bec326fd0d2c48,,,,,,,,,,,,,1,,,,,,,,,,,,,,,,,,,,,,,,,,,,,,,,,,,,,22,lacayo,,,,,801.6993,804.0329,0,0,1.8186,,0,80,80,21,1,REAL,FAKE,,,,,,,,,,,,,,,,,
,,,,,,,,,638a3fd5992f01b81d0e1e93,Mexican,click here to respond,"no, only English or Spanish",no,2025-07-24_08h01.46.154,empathy_intonation_perc_control,2024.2.4,Win32,59.88023952,638a3fd5992f01b81d0e1e93,68817205a84113384fffdfe3,68822049e0bec326fd0d2c48,,,,,,,,,,,,,1,,,,,,,,,,,,,,,,,,,,,,,,,,,,,,,,,,,,,56,musgo,,,,,804.0339,805.7838,0,0,1.2163,,0,81,81,55,1,REAL,FAKE,,,,,,,,,,,,,,,,,
,,,,,,,,,638a3fd5992f01b81d0e1e93,Mexican,click here to respond,"no, only English or Spanish",no,2025-07-24_08h01.46.154,empathy_intonation_perc_control,2024.2.4,Win32,59.88023952,638a3fd5992f01b81d0e1e93,68817205a84113384fffdfe3,68822049e0bec326fd0d2c48,,,,,,,,,,,,,0,,,,,,,,,,,,,,,,,,,,,,,,,,,,,,,,,,,,,92,click the 0 key.,,,,,805.7849,809.269,0,1,2.9503,,0,82,82,91,1,REAL,FAKE,,,,,,,,,,,,,,,,,
,,,,,,,,,638a3fd5992f01b81d0e1e93,Mexican,click here to respond,"no, only English or Spanish",no,2025-07-24_08h01.46.154,empathy_intonation_perc_control,2024.2.4,Win32,59.88023952,638a3fd5992f01b81d0e1e93,68817205a84113384fffdfe3,68822049e0bec326fd0d2c48,,,,,,,,,,,,,0,,,,,,,,,,,,,,,,,,,,,,,,,,,,,,,,,,,,,16,abracer,,,,,809.27,813.0206,0,1,3.2168,,0,83,83,15,1,REAL,FAKE,,,,,,,,,,,,,,,,,
,,,,,,,,,638a3fd5992f01b81d0e1e93,Mexican,click here to respond,"no, only English or Spanish",no,2025-07-24_08h01.46.154,empathy_intonation_perc_control,2024.2.4,Win32,59.88023952,638a3fd5992f01b81d0e1e93,68817205a84113384fffdfe3,68822049e0bec326fd0d2c48,,,,,,,,,,,,,0,,,,,,,,,,,,,,,,,,,,,,,,,,,,,,,,,,,,,17,floroso,,,,,813.0215,814.4877,1,0,0.9373,,0,84,84,16,1,REAL,FAKE,,,,,,,,,,,,,,,,,
,,,,,,,,,638a3fd5992f01b81d0e1e93,Mexican,click here to respond,"no, only English or Spanish",no,2025-07-24_08h01.46.154,empathy_intonation_perc_control,2024.2.4,Win32,59.88023952,638a3fd5992f01b81d0e1e93,68817205a84113384fffdfe3,68822049e0bec326fd0d2c48,,,,,,,,,,,,,1,,,,,,,,,,,,,,,,,,,,,,,,,,,,,,,,,,,,,85,laúd,,,,,814.4892,816.0385,0,0,1.0171,,0,85,85,84,1,REAL,FAKE,,,,,,,,,,,,,,,,,
,,,,,,,,,638a3fd5992f01b81d0e1e93,Mexican,click here to respond,"no, only English or Spanish",no,2025-07-24_08h01.46.154,empathy_intonation_perc_control,2024.2.4,Win32,59.88023952,638a3fd5992f01b81d0e1e93,68817205a84113384fffdfe3,68822049e0bec326fd0d2c48,,,,,,,,,,,,,1,,,,,,,,,,,,,,,,,,,,,,,,,,,,,,,,,,,,,25,bisagra,,,,,816.0394,819.7735,0,0,3.1998,,0,86,86,24,1,REAL,FAKE,,,,,,,,,,,,,,,,,
,,,,,,,,,638a3fd5992f01b81d0e1e93,Mexican,click here to respond,"no, only English or Spanish",no,2025-07-24_08h01.46.154,empathy_intonation_perc_control,2024.2.4,Win32,59.88023952,638a3fd5992f01b81d0e1e93,68817205a84113384fffdfe3,68822049e0bec326fd0d2c48,,,,,,,,,,,,,1,,,,,,,,,,,,,,,,,,,,,,,,,,,,,,,,,,,,,46,martillo,,,,,819.7745,821.5244,0,0,1.2157,,0,87,87,45,1,REAL,FAKE,,,,,,,,,,,,,,,,,
,,,,,,,,,638a3fd5992f01b81d0e1e93,Mexican,click here to respond,"no, only English or Spanish",no,2025-07-24_08h01.46.154,empathy_intonation_perc_control,2024.2.4,Win32,59.88023952,638a3fd5992f01b81d0e1e93,68817205a84113384fffdfe3,68822049e0bec326fd0d2c48,,,,,,,,,,,,,1,,,,,,,,,,,,,,,,,,,,,,,,,,,,,,,,,,,,,15,regar,,,,,821.5252,823.3084,0,0,1.2516,,0,88,88,14,1,REAL,FAKE,,,,,,,,,,,,,,,,,
,,,,,,,,,638a3fd5992f01b81d0e1e93,Mexican,click here to respond,"no, only English or Spanish",no,2025-07-24_08h01.46.154,empathy_intonation_perc_control,2024.2.4,Win32,59.88023952,638a3fd5992f01b81d0e1e93,68817205a84113384fffdfe3,68822049e0bec326fd0d2c48,,,,,,,,,,,,,1,,,,,,,,,,,,,,,,,,,,,,,,,,,,,,,,,,,,,5,zapato,,,,,823.3092,824.8092,1,1,0.9681,,0,89,89,4,1,REAL,FAKE,,,,,,,,,,,,,,,,,
,,,,,,,,,638a3fd5992f01b81d0e1e93,Mexican,click here to respond,"no, only English or Spanish",no,2025-07-24_08h01.46.154,empathy_intonation_perc_control,2024.2.4,Win32,59.88023952,638a3fd5992f01b81d0e1e93,68817205a84113384fffdfe3,68822049e0bec326fd0d2c48,,,,,,,,,,,,,0,,,,,,,,,,,,,,,,,,,,,,,,,,,,,,,,,,,,,70,temblo,,,,,824.81,826.8272,0,1,1.4931,,0,90,90,69,1,REAL,FAKE,,,,,,,,,,,,,,,,,
,,,,,,,,,638a3fd5992f01b81d0e1e93,Mexican,click here to respond,"no, only English or Spanish",no,2025-07-24_08h01.46.154,empathy_intonation_perc_control,2024.2.4,Win32,59.88023952,638a3fd5992f01b81d0e1e93,68817205a84113384fffdfe3,68822049e0bec326fd0d2c48,,,,,,,,,,,,,1,,,,,,,,,,,,,,,,,,,,,,,,,,,,,,,,,,,,,90,clavel,,,,,826.828,828.9444,0,0,1.5841,,0,91,91,89,1,REAL,FAKE,,,,,,,,,,,,,,,,,
,,,,,,,,,638a3fd5992f01b81d0e1e93,Mexican,click here to respond,"no, only English or Spanish",no,2025-07-24_08h01.46.154,empathy_intonation_perc_control,2024.2.4,Win32,59.88023952,638a3fd5992f01b81d0e1e93,68817205a84113384fffdfe3,68822049e0bec326fd0d2c48,,,,,,,,,,,,,,,,,,,,,,,,,,,,,,,,,,,,,,,,,,,,,,,,,,,,,,,,,,,,,,,,,,,,,828.9447,888.1379,,,,,,,,,,,,,,,
,,,,,,,,,638a3fd5992f01b81d0e1e93,Mexican,click here to respond,"no, only English or Spanish",no,2025-07-24_08h01.46.154,empathy_intonation_perc_control,2024.2.4,Win32,59.88023952,638a3fd5992f01b81d0e1e93,68817205a84113384fffdfe3,68822049e0bec326fd0d2c48,,,,,,,,,,,,,,,,,,,,,,,,,,,1,,,,,,,,,,,,,,,,,,,,,,,,,,,,,,,,,,,,,,,,,,,,888.1465,898.7427,strongly agree,0,0,0,0,1,I can easily tell if someone else wants to enter a conversation.,1,0,1,0,,
,,,,,,,,,638a3fd5992f01b81d0e1e93,Mexican,click here to respond,"no, only English or Spanish",no,2025-07-24_08h01.46.154,empathy_intonation_perc_control,2024.2.4,Win32,59.88023952,638a3fd5992f01b81d0e1e93,68817205a84113384fffdfe3,68822049e0bec326fd0d2c48,,,,,,,,,,,,,,,,,,,,,,,,,,,2,,,,,,,,,,,,,,,,,,,,,,,,,,,,,,,,,,,,,,,,,,,,898.7445,900.4935,strongly agree,0,1,1,1,1,I prefer animals to humans.,0,1,0,0,,
,,,,,,,,,638a3fd5992f01b81d0e1e93,Mexican,click here to respond,"no, only English or Spanish",no,2025-07-24_08h01.46.154,empathy_intonation_perc_control,2024.2.4,Win32,59.88023952,638a3fd5992f01b81d0e1e93,68817205a84113384fffdfe3,68822049e0bec326fd0d2c48,,,,,,,,,,,,,,,,,,,,,,,,,,,3,,,,,,,,,,,,,,,,,,,,,,,,,,,,,,,,,,,,,,,,,,,,900.4955,905.879,strongly disagree,0,2,2,2,1,I try to keep up with the current trends and fashions.,0,1,0,0,,
,,,,,,,,,638a3fd5992f01b81d0e1e93,Mexican,click here to respond,"no, only English or Spanish",no,2025-07-24_08h01.46.154,empathy_intonation_perc_control,2024.2.4,Win32,59.88023952,638a3fd5992f01b81d0e1e93,68817205a84113384fffdfe3,68822049e0bec326fd0d2c48,,,,,,,,,,,,,,,,,,,,,,,,,,,4,,,,,,,,,,,,,,,,,,,,,,,,,,,,,,,,,,,,,,,,,,,,905.8814,912.1153,slightly agree,0,3,3,3,1,"I find it difficult to explain to others things that I understand easily,   when they don't understand it first time.",1,0,0,1,,
,,,,,,,,,638a3fd5992f01b81d0e1e93,Mexican,click here to respond,"no, only English or Spanish",no,2025-07-24_08h01.46.154,empathy_intonation_perc_control,2024.2.4,Win32,59.88023952,638a3fd5992f01b81d0e1e93,68817205a84113384fffdfe3,68822049e0bec326fd0d2c48,,,,,,,,,,,,,,,,,,,,,,,,,,,5,,,,,,,,,,,,,,,,,,,,,,,,,,,,,,,,,,,,,,,,,,,,912.1167,914.283,strongly agree,0,4,4,4,1,I dream most nights.,0,1,0,0,,
,,,,,,,,,638a3fd5992f01b81d0e1e93,Mexican,click here to respond,"no, only English or Spanish",no,2025-07-24_08h01.46.154,empathy_intonation_perc_control,2024.2.4,Win32,59.88023952,638a3fd5992f01b81d0e1e93,68817205a84113384fffdfe3,68822049e0bec326fd0d2c48,,,,,,,,,,,,,,,,,,,,,,,,,,,6,,,,,,,,,,,,,,,,,,,,,,,,,,,,,,,,,,,,,,,,,,,,914.2847,927.3887,strongly agree,0,5,5,5,1,I really enjoy caring for other people.,1,0,1,0,,
,,,,,,,,,638a3fd5992f01b81d0e1e93,Mexican,click here to respond,"no, only English or Spanish",no,2025-07-24_08h01.46.154,empathy_intonation_perc_control,2024.2.4,Win32,59.88023952,638a3fd5992f01b81d0e1e93,68817205a84113384fffdfe3,68822049e0bec326fd0d2c48,,,,,,,,,,,,,,,,,,,,,,,,,,,7,,,,,,,,,,,,,,,,,,,,,,,,,,,,,,,,,,,,,,,,,,,,927.3906,932.1079,slightly disagree,0,6,6,6,1,I try to solve my own problems rather than discussing them with others.,0,1,0,0,,
,,,,,,,,,638a3fd5992f01b81d0e1e93,Mexican,click here to respond,"no, only English or Spanish",no,2025-07-24_08h01.46.154,empathy_intonation_perc_control,2024.2.4,Win32,59.88023952,638a3fd5992f01b81d0e1e93,68817205a84113384fffdfe3,68822049e0bec326fd0d2c48,,,,,,,,,,,,,,,,,,,,,,,,,,,8,,,,,,,,,,,,,,,,,,,,,,,,,,,,,,,,,,,,,,,,,,,,932.1089,940.1946,slightly disagree,0,7,7,7,1,I find it hard to know what to do in a social situation.,1,0,0,1,,
,,,,,,,,,638a3fd5992f01b81d0e1e93,Mexican,click here to respond,"no, only English or Spanish",no,2025-07-24_08h01.46.154,empathy_intonation_perc_control,2024.2.4,Win32,59.88023952,638a3fd5992f01b81d0e1e93,68817205a84113384fffdfe3,68822049e0bec326fd0d2c48,,,,,,,,,,,,,,,,,,,,,,,,,,,9,,,,,,,,,,,,,,,,,,,,,,,,,,,,,,,,,,,,,,,,,,,,940.196,946.2138,strongly agree,0,8,8,8,1,I am at my best first thing in the morning.,0,1,0,0,,
,,,,,,,,,638a3fd5992f01b81d0e1e93,Mexican,click here to respond,"no, only English or Spanish",no,2025-07-24_08h01.46.154,empathy_intonation_perc_control,2024.2.4,Win32,59.88023952,638a3fd5992f01b81d0e1e93,68817205a84113384fffdfe3,68822049e0bec326fd0d2c48,,,,,,,,,,,,,,,,,,,,,,,,,,,10,,,,,,,,,,,,,,,,,,,,,,,,,,,,,,,,,,,,,,,,,,,,946.2156,951.3495,slightly disagree,0,9,9,9,1,People often tell me that I went too far in driving my point home in a discussion.,1,0,0,1,,
,,,,,,,,,638a3fd5992f01b81d0e1e93,Mexican,click here to respond,"no, only English or Spanish",no,2025-07-24_08h01.46.154,empathy_intonation_perc_control,2024.2.4,Win32,59.88023952,638a3fd5992f01b81d0e1e93,68817205a84113384fffdfe3,68822049e0bec326fd0d2c48,,,,,,,,,,,,,,,,,,,,,,,,,,,11,,,,,,,,,,,,,,,,,,,,,,,,,,,,,,,,,,,,,,,,,,,,951.3512,958.6026,strongly disagree,0,10,10,10,1,It doesn't bother me too much if I am late meeting a friend.,1,0,0,1,,
,,,,,,,,,638a3fd5992f01b81d0e1e93,Mexican,click here to respond,"no, only English or Spanish",no,2025-07-24_08h01.46.154,empathy_intonation_perc_control,2024.2.4,Win32,59.88023952,638a3fd5992f01b81d0e1e93,68817205a84113384fffdfe3,68822049e0bec326fd0d2c48,,,,,,,,,,,,,,,,,,,,,,,,,,,12,,,,,,,,,,,,,,,,,,,,,,,,,,,,,,,,,,,,,,,,,,,,958.6043,962.9047,strongly disagree,0,11,11,11,1,"Friendships and relationships are just too difficult, so I tend not to 
  bother with them.",1,0,0,1,,
,,,,,,,,,638a3fd5992f01b81d0e1e93,Mexican,click here to respond,"no, only English or Spanish",no,2025-07-24_08h01.46.154,empathy_intonation_perc_control,2024.2.4,Win32,59.88023952,638a3fd5992f01b81d0e1e93,68817205a84113384fffdfe3,68822049e0bec326fd0d2c48,,,,,,,,,,,,,,,,,,,,,,,,,,,13,,,,,,,,,,,,,,,,,,,,,,,,,,,,,,,,,,,,,,,,,,,,962.9069,968.5573,strongly agree,0,12,12,12,1,"I would never break a law, no matter how minor.",0,1,0,0,,
,,,,,,,,,638a3fd5992f01b81d0e1e93,Mexican,click here to respond,"no, only English or Spanish",no,2025-07-24_08h01.46.154,empathy_intonation_perc_control,2024.2.4,Win32,59.88023952,638a3fd5992f01b81d0e1e93,68817205a84113384fffdfe3,68822049e0bec326fd0d2c48,,,,,,,,,,,,,,,,,,,,,,,,,,,14,,,,,,,,,,,,,,,,,,,,,,,,,,,,,,,,,,,,,,,,,,,,968.559,974.8268,strongly disagree,0,13,13,13,1,I often find it difficult to judge if something is rude or polite.,1,0,0,1,,
,,,,,,,,,638a3fd5992f01b81d0e1e93,Mexican,click here to respond,"no, only English or Spanish",no,2025-07-24_08h01.46.154,empathy_intonation_perc_control,2024.2.4,Win32,59.88023952,638a3fd5992f01b81d0e1e93,68817205a84113384fffdfe3,68822049e0bec326fd0d2c48,,,,,,,,,,,,,,,,,,,,,,,,,,,15,,,,,,,,,,,,,,,,,,,,,,,,,,,,,,,,,,,,,,,,,,,,974.8287,1024.3158,slightly agree,0,14,14,14,1,"In a conversation, I tend to focus on my own thoughts rather than on what 
  my listener might be thinking.",1,0,0,1,,
,,,,,,,,,638a3fd5992f01b81d0e1e93,Mexican,click here to respond,"no, only English or Spanish",no,2025-07-24_08h01.46.154,empathy_intonation_perc_control,2024.2.4,Win32,59.88023952,638a3fd5992f01b81d0e1e93,68817205a84113384fffdfe3,68822049e0bec326fd0d2c48,,,,,,,,,,,,,,,,,,,,,,,,,,,16,,,,,,,,,,,,,,,,,,,,,,,,,,,,,,,,,,,,,,,,,,,,1024.3173,1028.0841,strongly agree,0,15,15,15,1,I prefer practical jokes to verbal humor.,0,1,0,0,,
,,,,,,,,,638a3fd5992f01b81d0e1e93,Mexican,click here to respond,"no, only English or Spanish",no,2025-07-24_08h01.46.154,empathy_intonation_perc_control,2024.2.4,Win32,59.88023952,638a3fd5992f01b81d0e1e93,68817205a84113384fffdfe3,68822049e0bec326fd0d2c48,,,,,,,,,,,,,,,,,,,,,,,,,,,17,,,,,,,,,,,,,,,,,,,,,,,,,,,,,,,,,,,,,,,,,,,,1028.0856,1033.8537,slightly agree,0,16,16,16,1,I live life for today rather than the future.,0,1,0,0,,
,,,,,,,,,638a3fd5992f01b81d0e1e93,Mexican,click here to respond,"no, only English or Spanish",no,2025-07-24_08h01.46.154,empathy_intonation_perc_control,2024.2.4,Win32,59.88023952,638a3fd5992f01b81d0e1e93,68817205a84113384fffdfe3,68822049e0bec326fd0d2c48,,,,,,,,,,,,,,,,,,,,,,,,,,,18,,,,,,,,,,,,,,,,,,,,,,,,,,,,,,,,,,,,,,,,,,,,1033.8554,1038.689,strongly disagree,0,17,17,17,1,"When I was a child, I enjoyed cutting up worms to see what would happen.",1,0,0,1,,
,,,,,,,,,638a3fd5992f01b81d0e1e93,Mexican,click here to respond,"no, only English or Spanish",no,2025-07-24_08h01.46.154,empathy_intonation_perc_control,2024.2.4,Win32,59.88023952,638a3fd5992f01b81d0e1e93,68817205a84113384fffdfe3,68822049e0bec326fd0d2c48,,,,,,,,,,,,,,,,,,,,,,,,,,,19,,,,,,,,,,,,,,,,,,,,,,,,,,,,,,,,,,,,,,,,,,,,1038.6904,1044.6919,strongly agree,0,18,18,18,1,I can pick up quickly if someone says one thing but means another.,1,0,1,0,,
