instructions_2afc.started,instructions_2afc.stopped,instructions_2afc_loop.thisRepN,instructions_2afc_loop.thisTrialN,instructions_2afc_loop.thisN,instructions_2afc_loop.thisIndex,instructions_2afc_loop.ran,instructions_text,continue_text,participant_id,"What variety of Spanish are you most familiar with? (e.g., Peruvian, Spanish, Mexican)",At what age did you begin learning Spanish?,Are you proficient in any languages other than English/Spanish?,"Are you familiar with Caribbean (e.g., Caribbean, Puerto Rican) or Galician Spanish?",date,expName,psychopyVersion,OS,frameRate,id,study_id,session,practice_2afc.started,practice_2afc.stopped,key_resp_2afc_practice.keys,key_resp_2afc_practice.corr,key_resp_2afc_practice.rt,key_resp_2afc_practice.duration,trials_2afc_practice_loop.thisRepN,trials_2afc_practice_loop.thisTrialN,trials_2afc_practice_loop.thisN,trials_2afc_practice_loop.thisIndex,trials_2afc_practice_loop.ran,path,correct_response,check_2afc.started,check_2afc.stopped,trial_2afc.started,trial_2afc.stopped,key_resp_2afc_trial.keys,key_resp_2afc_trial.corr,key_resp_2afc_trial.rt,key_resp_2afc_trial.duration,trials_2afc_loop.thisRepN,trials_2afc_loop.thisTrialN,trials_2afc_loop.thisN,trials_2afc_loop.thisIndex,trials_2afc_loop.ran,item_num,target,variety,instructions_lextale.started,instructions_lextale.stopped,instructions_lextale_loop.thisRepN,instructions_lextale_loop.thisTrialN,instructions_lextale_loop.thisN,instructions_lextale_loop.thisIndex,instructions_lextale_loop.ran,practice_lextale.started,practice_lextale.stopped,key_resp_lextale_practice.keys,key_resp_lextale_practice.corr,key_resp_lextale_practice.rt,key_resp_lextale_practice.duration,practice_feedback_lextale.started,practice_feedback_lextale.stopped,trials_lextale_practice_loop.thisRepN,trials_lextale_practice_loop.thisTrialN,trials_lextale_practice_loop.thisN,trials_lextale_practice_loop.thisIndex,trials_lextale_practice_loop.ran,stim,word,prac_button_real,prac_button_false,check_lextale.started,check_lextale.stopped,trial_lextale.started,trial_lextale.stopped,key_resp_lextale_trial.keys,key_resp_lextale_trial.corr,key_resp_lextale_trial.rt,key_resp_lextale_trial.duration,trials_lextale_loop.thisRepN,trials_lextale_loop.thisTrialN,trials_lextale_loop.thisN,trials_lextale_loop.thisIndex,trials_lextale_loop.ran,button_real,button_false,instructions_eq.started,instructions_eq.stopped,trial_eq.started,trial_eq.stopped,slider_eq_trial.response,trials_eq_loop.thisRepN,trials_eq_loop.thisTrialN,trials_eq_loop.thisN,trials_eq_loop.thisIndex,trials_eq_loop.ran,item,is_test_item,is_distractor,is_agree_score,is_disagree_score,end_exp.started,end_exp.stopped
0.0211,3.0676,0,0,0,0,1,"In the following task you are going to hear a series of utterances. 

  You will decide if the utterances sound like questions or not using your keyboard.", (press the spacebar to continue),63d13cb81a0a88a3ce29e33f,spanish,13 or older,"no, only English or Spanish",no,2025-07-24_10h37.56.839,empathy_intonation_perc_control,2024.2.4,Win32,59.88023952,63d13cb81a0a88a3ce29e33f,68817205a84113384fffdfe3,6882451c108c085c731023e0,,,,,,,,,,,,,,,,,,,,,,,,,,,,,,,,,,,,,,,,,,,,,,,,,,,,,,,,,,,,,,,,,,,,,,,,,,,,,,,,,,,,,
3.0724,7.9506,0,1,1,1,1,"If you believe the utterance is a question, type '1' (for 'yes') and if you do not 
  believe it is a question type '0' (for 'no').

  Let's practice a bit...", (press the spacebar to continue),63d13cb81a0a88a3ce29e33f,spanish,13 or older,"no, only English or Spanish",no,2025-07-24_10h37.56.839,empathy_intonation_perc_control,2024.2.4,Win32,59.88023952,63d13cb81a0a88a3ce29e33f,68817205a84113384fffdfe3,6882451c108c085c731023e0,,,,,,,,,,,,,,,,,,,,,,,,,,,,,,,,,,,,,,,,,,,,,,,,,,,,,,,,,,,,,,,,,,,,,,,,,,,,,,,,,,,,,
,,,,,,,,,63d13cb81a0a88a3ce29e33f,spanish,13 or older,"no, only English or Spanish",no,2025-07-24_10h37.56.839,empathy_intonation_perc_control,2024.2.4,Win32,59.88023952,63d13cb81a0a88a3ce29e33f,68817205a84113384fffdfe3,6882451c108c085c731023e0,7.9647,13.6343,0,1,5.1481,,0,0,0,5,1,./stim/wavs/andalusian_statement_filler_Alberto-nunca-se-afeita.wav,0,,,,,,,,,,,,,,,,,,,,,,,,,,,,,,,,,,,,,,,,,,,,,,,,,,,,,,,,,,,,,,,,,,,,,,,,
,,,,,,,,,63d13cb81a0a88a3ce29e33f,spanish,13 or older,"no, only English or Spanish",no,2025-07-24_10h37.56.839,empathy_intonation_perc_control,2024.2.4,Win32,59.88023952,63d13cb81a0a88a3ce29e33f,68817205a84113384fffdfe3,6882451c108c085c731023e0,13.6358,17.4831,1,1,3.3197,,0,1,1,3,1,./stim/wavs/mexican_question_filler_Felipe-no-tiene-contrasena.wav,1,,,,,,,,,,,,,,,,,,,,,,,,,,,,,,,,,,,,,,,,,,,,,,,,,,,,,,,,,,,,,,,,,,,,,,,,
,,,,,,,,,63d13cb81a0a88a3ce29e33f,spanish,13 or older,"no, only English or Spanish",no,2025-07-24_10h37.56.839,empathy_intonation_perc_control,2024.2.4,Win32,59.88023952,63d13cb81a0a88a3ce29e33f,68817205a84113384fffdfe3,6882451c108c085c731023e0,17.4846,20.0333,0,1,2.0058,,0,2,2,7,1,./stim/wavs/puertorican_statement_filler_La-nina-pinta-con-su-amiga.wav,0,,,,,,,,,,,,,,,,,,,,,,,,,,,,,,,,,,,,,,,,,,,,,,,,,,,,,,,,,,,,,,,,,,,,,,,,
,,,,,,,,,63d13cb81a0a88a3ce29e33f,spanish,13 or older,"no, only English or Spanish",no,2025-07-24_10h37.56.839,empathy_intonation_perc_control,2024.2.4,Win32,59.88023952,63d13cb81a0a88a3ce29e33f,68817205a84113384fffdfe3,6882451c108c085c731023e0,20.0346,22.1827,1,1,1.6266,,0,3,3,1,1,./stim/wavs/argentine_question_filler_Mi-vecino-habla-mucho.wav,1,,,,,,,,,,,,,,,,,,,,,,,,,,,,,,,,,,,,,,,,,,,,,,,,,,,,,,,,,,,,,,,,,,,,,,,,
,,,,,,,,,63d13cb81a0a88a3ce29e33f,spanish,13 or older,"no, only English or Spanish",no,2025-07-24_10h37.56.839,empathy_intonation_perc_control,2024.2.4,Win32,59.88023952,63d13cb81a0a88a3ce29e33f,68817205a84113384fffdfe3,6882451c108c085c731023e0,22.1835,24.8829,1,1,2.1679,,0,4,4,2,1,./stim/wavs/chilean_question_filler_Mi-padre-cantaba-bien.wav,1,,,,,,,,,,,,,,,,,,,,,,,,,,,,,,,,,,,,,,,,,,,,,,,,,,,,,,,,,,,,,,,,,,,,,,,,
,,,,,,,,,63d13cb81a0a88a3ce29e33f,spanish,13 or older,"no, only English or Spanish",no,2025-07-24_10h37.56.839,empathy_intonation_perc_control,2024.2.4,Win32,59.88023952,63d13cb81a0a88a3ce29e33f,68817205a84113384fffdfe3,6882451c108c085c731023e0,24.8838,30.0324,0,1,4.6262,,0,5,5,6,1,./stim/wavs/peruvian_statement_filler_El-nino-habla-con-su-madre.wav,0,,,,,,,,,,,,,,,,,,,,,,,,,,,,,,,,,,,,,,,,,,,,,,,,,,,,,,,,,,,,,,,,,,,,,,,,
,,,,,,,,,63d13cb81a0a88a3ce29e33f,spanish,13 or older,"no, only English or Spanish",no,2025-07-24_10h37.56.839,empathy_intonation_perc_control,2024.2.4,Win32,59.88023952,63d13cb81a0a88a3ce29e33f,68817205a84113384fffdfe3,6882451c108c085c731023e0,30.0333,33.1995,0,1,2.6418,,0,6,6,4,1,./stim/wavs/cuban_statement_filler_Cocinabas-por-la-noche.wav,0,,,,,,,,,,,,,,,,,,,,,,,,,,,,,,,,,,,,,,,,,,,,,,,,,,,,,,,,,,,,,,,,,,,,,,,,
,,,,,,,,,63d13cb81a0a88a3ce29e33f,spanish,13 or older,"no, only English or Spanish",no,2025-07-24_10h37.56.839,empathy_intonation_perc_control,2024.2.4,Win32,59.88023952,63d13cb81a0a88a3ce29e33f,68817205a84113384fffdfe3,6882451c108c085c731023e0,33.2011,37.6818,1,1,3.9396,,0,7,7,0,1,./stim/wavs/castilian_question_filler_Mi-esposo-conoce-al-chico.wav,1,,,,,,,,,,,,,,,,,,,,,,,,,,,,,,,,,,,,,,,,,,,,,,,,,,,,,,,,,,,,,,,,,,,,,,,,
,,,,,,,,,63d13cb81a0a88a3ce29e33f,spanish,13 or older,"no, only English or Spanish",no,2025-07-24_10h37.56.839,empathy_intonation_perc_control,2024.2.4,Win32,59.88023952,63d13cb81a0a88a3ce29e33f,68817205a84113384fffdfe3,6882451c108c085c731023e0,,,,,,,,,,,,,,37.6824,47.1144,,,,,,,,,,,,,,,,,,,,,,,,,,,,,,,,,,,,,,,,,,,,,,,,,,,,,,,,,,,,,,,,,,,,,,
,,,,,,,,,63d13cb81a0a88a3ce29e33f,spanish,13 or older,"no, only English or Spanish",no,2025-07-24_10h37.56.839,empathy_intonation_perc_control,2024.2.4,Win32,59.88023952,63d13cb81a0a88a3ce29e33f,68817205a84113384fffdfe3,6882451c108c085c731023e0,,,,,,,,,,,,./stim/wavs/mexican_mismatch_interrogative-total-yn_La-maestra-vive-en-Paris.wav,1,,,47.1337,50.2811,1,1,2.628,,0,0,0,36,1,37,0,mexican,,,,,,,,,,,,,,,,,,,,,,,,,,,,,,,,,,,,,,,,,,,,,,,,,,,,,,,,
,,,,,,,,,63d13cb81a0a88a3ce29e33f,spanish,13 or older,"no, only English or Spanish",no,2025-07-24_10h37.56.839,empathy_intonation_perc_control,2024.2.4,Win32,59.88023952,63d13cb81a0a88a3ce29e33f,68817205a84113384fffdfe3,6882451c108c085c731023e0,,,,,,,,,,,,./stim/wavs/castilian_match_declarative-broad-focus_Emilio-ama-la-marcha.wav,0,,,50.282,53.5168,0,1,2.7154,,0,1,1,45,1,46,0,castilian,,,,,,,,,,,,,,,,,,,,,,,,,,,,,,,,,,,,,,,,,,,,,,,,,,,,,,,,
,,,,,,,,,63d13cb81a0a88a3ce29e33f,spanish,13 or older,"no, only English or Spanish",no,2025-07-24_10h37.56.839,empathy_intonation_perc_control,2024.2.4,Win32,59.88023952,63d13cb81a0a88a3ce29e33f,68817205a84113384fffdfe3,6882451c108c085c731023e0,,,,,,,,,,,,./stim/wavs/mexican_mismatch_declarative-broad-focus_Mi-tia-odia-la-lluvia.wav,0,,,53.5177,55.9188,0,1,1.884,,0,2,2,82,1,83,0,mexican,,,,,,,,,,,,,,,,,,,,,,,,,,,,,,,,,,,,,,,,,,,,,,,,,,,,,,,,
,,,,,,,,,63d13cb81a0a88a3ce29e33f,spanish,13 or older,"no, only English or Spanish",no,2025-07-24_10h37.56.839,empathy_intonation_perc_control,2024.2.4,Win32,59.88023952,63d13cb81a0a88a3ce29e33f,68817205a84113384fffdfe3,6882451c108c085c731023e0,,,,,,,,,,,,./stim/wavs/mexican_mismatch_declarative-broad-focus_El-bebe-comia-muy-bien.wav,0,,,55.9194,58.419,0,1,1.9839,,0,3,3,78,1,79,0,mexican,,,,,,,,,,,,,,,,,,,,,,,,,,,,,,,,,,,,,,,,,,,,,,,,,,,,,,,,
,,,,,,,,,63d13cb81a0a88a3ce29e33f,spanish,13 or older,"no, only English or Spanish",no,2025-07-24_10h37.56.839,empathy_intonation_perc_control,2024.2.4,Win32,59.88023952,63d13cb81a0a88a3ce29e33f,68817205a84113384fffdfe3,6882451c108c085c731023e0,,,,,,,,,,,,./stim/wavs/puertorican_match_interrogative-total-yn_Emilio-ama-la-marcha.wav,1,,,58.4199,61.8498,0,0,2.9104,,0,4,4,21,1,22,1,puertorican,,,,,,,,,,,,,,,,,,,,,,,,,,,,,,,,,,,,,,,,,,,,,,,,,,,,,,,,
,,,,,,,,,63d13cb81a0a88a3ce29e33f,spanish,13 or older,"no, only English or Spanish",no,2025-07-24_10h37.56.839,empathy_intonation_perc_control,2024.2.4,Win32,59.88023952,63d13cb81a0a88a3ce29e33f,68817205a84113384fffdfe3,6882451c108c085c731023e0,,,,,,,,,,,,./stim/wavs/castilian_match_interrogative-total-yn_Marta-abre-el-regalo.wav,1,,,61.8504,65.2328,1,1,2.8648,,0,5,5,5,1,6,0,castilian,,,,,,,,,,,,,,,,,,,,,,,,,,,,,,,,,,,,,,,,,,,,,,,,,,,,,,,,
,,,,,,,,,63d13cb81a0a88a3ce29e33f,spanish,13 or older,"no, only English or Spanish",no,2025-07-24_10h37.56.839,empathy_intonation_perc_control,2024.2.4,Win32,59.88023952,63d13cb81a0a88a3ce29e33f,68817205a84113384fffdfe3,6882451c108c085c731023e0,,,,,,,,,,,,./stim/wavs/castilian_mismatch_interrogative-total-yn_Mi-madre-come-la-fruta.wav,1,,,65.2333,68.6799,0,0,2.919,,0,6,6,26,1,27,0,castilian,,,,,,,,,,,,,,,,,,,,,,,,,,,,,,,,,,,,,,,,,,,,,,,,,,,,,,,,
,,,,,,,,,63d13cb81a0a88a3ce29e33f,spanish,13 or older,"no, only English or Spanish",no,2025-07-24_10h37.56.839,empathy_intonation_perc_control,2024.2.4,Win32,59.88023952,63d13cb81a0a88a3ce29e33f,68817205a84113384fffdfe3,6882451c108c085c731023e0,,,,,,,,,,,,./stim/wavs/castilian_match_declarative-broad-focus_Maria-bebe-el-vino.wav,0,,,68.6808,71.3177,0,1,2.1169,,0,7,7,47,1,48,0,castilian,,,,,,,,,,,,,,,,,,,,,,,,,,,,,,,,,,,,,,,,,,,,,,,,,,,,,,,,
,,,,,,,,,63d13cb81a0a88a3ce29e33f,spanish,13 or older,"no, only English or Spanish",no,2025-07-24_10h37.56.839,empathy_intonation_perc_control,2024.2.4,Win32,59.88023952,63d13cb81a0a88a3ce29e33f,68817205a84113384fffdfe3,6882451c108c085c731023e0,,,,,,,,,,,,./stim/wavs/castilian_match_declarative-broad-focus_Marta-abre-el-regalo.wav,0,,,71.3182,73.6007,0,1,1.7668,,0,8,8,49,1,50,0,castilian,,,,,,,,,,,,,,,,,,,,,,,,,,,,,,,,,,,,,,,,,,,,,,,,,,,,,,,,
,,,,,,,,,63d13cb81a0a88a3ce29e33f,spanish,13 or older,"no, only English or Spanish",no,2025-07-24_10h37.56.839,empathy_intonation_perc_control,2024.2.4,Win32,59.88023952,63d13cb81a0a88a3ce29e33f,68817205a84113384fffdfe3,6882451c108c085c731023e0,,,,,,,,,,,,./stim/wavs/puertorican_mismatch_interrogative-total-yn_La-nina-lava-el-plato.wav,1,,,73.6017,75.9626,0,0,1.838,,0,9,9,42,1,43,1,puertorican,,,,,,,,,,,,,,,,,,,,,,,,,,,,,,,,,,,,,,,,,,,,,,,,,,,,,,,,
,,,,,,,,,63d13cb81a0a88a3ce29e33f,spanish,13 or older,"no, only English or Spanish",no,2025-07-24_10h37.56.839,empathy_intonation_perc_control,2024.2.4,Win32,59.88023952,63d13cb81a0a88a3ce29e33f,68817205a84113384fffdfe3,6882451c108c085c731023e0,,,,,,,,,,,,./stim/wavs/cuban_mismatch_declarative-broad-focus_El-hombre-mira-la-luna.wav,0,,,75.9634,78.1462,0,1,1.6681,,0,10,10,74,1,75,0,cuban,,,,,,,,,,,,,,,,,,,,,,,,,,,,,,,,,,,,,,,,,,,,,,,,,,,,,,,,
,,,,,,,,,63d13cb81a0a88a3ce29e33f,spanish,13 or older,"no, only English or Spanish",no,2025-07-24_10h37.56.839,empathy_intonation_perc_control,2024.2.4,Win32,59.88023952,63d13cb81a0a88a3ce29e33f,68817205a84113384fffdfe3,6882451c108c085c731023e0,,,,,,,,,,,,./stim/wavs/mexican_match_declarative-broad-focus_Daniel-iba-a-Bolivia.wav,0,,,78.1473,81.8835,0,1,3.2167,,0,11,11,57,1,58,0,mexican,,,,,,,,,,,,,,,,,,,,,,,,,,,,,,,,,,,,,,,,,,,,,,,,,,,,,,,,
,,,,,,,,,63d13cb81a0a88a3ce29e33f,spanish,13 or older,"no, only English or Spanish",no,2025-07-24_10h37.56.839,empathy_intonation_perc_control,2024.2.4,Win32,59.88023952,63d13cb81a0a88a3ce29e33f,68817205a84113384fffdfe3,6882451c108c085c731023e0,,,,,,,,,,,,./stim/wavs/mexican_match_interrogative-total-yn_Marta-abre-el-regalo.wav,1,,,81.884,85.8458,1,1,3.4336,,0,12,12,17,1,18,0,mexican,,,,,,,,,,,,,,,,,,,,,,,,,,,,,,,,,,,,,,,,,,,,,,,,,,,,,,,,
,,,,,,,,,63d13cb81a0a88a3ce29e33f,spanish,13 or older,"no, only English or Spanish",no,2025-07-24_10h37.56.839,empathy_intonation_perc_control,2024.2.4,Win32,59.88023952,63d13cb81a0a88a3ce29e33f,68817205a84113384fffdfe3,6882451c108c085c731023e0,,,,,,,,,,,,./stim/wavs/cuban_match_interrogative-total-yn_Marta-abre-el-regalo.wav,1,,,85.8474,88.8953,0,0,2.5171,,0,13,13,11,1,12,1,cuban,,,,,,,,,,,,,,,,,,,,,,,,,,,,,,,,,,,,,,,,,,,,,,,,,,,,,,,,
,,,,,,,,,63d13cb81a0a88a3ce29e33f,spanish,13 or older,"no, only English or Spanish",no,2025-07-24_10h37.56.839,empathy_intonation_perc_control,2024.2.4,Win32,59.88023952,63d13cb81a0a88a3ce29e33f,68817205a84113384fffdfe3,6882451c108c085c731023e0,,,,,,,,,,,,./stim/wavs/puertorican_mismatch_declarative-broad-focus_El-hombre-mira-la-luna.wav,0,,,88.8961,91.1664,0,1,1.7501,,0,14,14,84,1,85,0,puertorican,,,,,,,,,,,,,,,,,,,,,,,,,,,,,,,,,,,,,,,,,,,,,,,,,,,,,,,,
,,,,,,,,,63d13cb81a0a88a3ce29e33f,spanish,13 or older,"no, only English or Spanish",no,2025-07-24_10h37.56.839,empathy_intonation_perc_control,2024.2.4,Win32,59.88023952,63d13cb81a0a88a3ce29e33f,68817205a84113384fffdfe3,6882451c108c085c731023e0,,,,,,,,,,,,./stim/wavs/mexican_match_declarative-broad-focus_David-leia-el-libro.wav,0,,,91.1675,93.6284,0,1,1.9396,,0,15,15,58,1,59,0,mexican,,,,,,,,,,,,,,,,,,,,,,,,,,,,,,,,,,,,,,,,,,,,,,,,,,,,,,,,
,,,,,,,,,63d13cb81a0a88a3ce29e33f,spanish,13 or older,"no, only English or Spanish",no,2025-07-24_10h37.56.839,empathy_intonation_perc_control,2024.2.4,Win32,59.88023952,63d13cb81a0a88a3ce29e33f,68817205a84113384fffdfe3,6882451c108c085c731023e0,,,,,,,,,,,,./stim/wavs/puertorican_match_declarative-broad-focus_Manuela-vende-el-carro.wav,0,,,93.6293,96.9615,0,1,2.8082,,0,16,16,66,1,67,0,puertorican,,,,,,,,,,,,,,,,,,,,,,,,,,,,,,,,,,,,,,,,,,,,,,,,,,,,,,,,
,,,,,,,,,63d13cb81a0a88a3ce29e33f,spanish,13 or older,"no, only English or Spanish",no,2025-07-24_10h37.56.839,empathy_intonation_perc_control,2024.2.4,Win32,59.88023952,63d13cb81a0a88a3ce29e33f,68817205a84113384fffdfe3,6882451c108c085c731023e0,,,,,,,,,,,,./stim/wavs/mexican_match_interrogative-total-yn_Mariano-habla-del-tiempo.wav,1,,,96.9622,101.095,1,1,3.6017,,0,17,17,16,1,17,0,mexican,,,,,,,,,,,,,,,,,,,,,,,,,,,,,,,,,,,,,,,,,,,,,,,,,,,,,,,,
,,,,,,,,,63d13cb81a0a88a3ce29e33f,spanish,13 or older,"no, only English or Spanish",no,2025-07-24_10h37.56.839,empathy_intonation_perc_control,2024.2.4,Win32,59.88023952,63d13cb81a0a88a3ce29e33f,68817205a84113384fffdfe3,6882451c108c085c731023e0,,,,,,,,,,,,./stim/wavs/cuban_mismatch_declarative-broad-focus_El-bebe-comia-muy-bien.wav,0,,,101.096,103.8946,0,1,2.2785,,0,18,18,73,1,74,0,cuban,,,,,,,,,,,,,,,,,,,,,,,,,,,,,,,,,,,,,,,,,,,,,,,,,,,,,,,,
,,,,,,,,,63d13cb81a0a88a3ce29e33f,spanish,13 or older,"no, only English or Spanish",no,2025-07-24_10h37.56.839,empathy_intonation_perc_control,2024.2.4,Win32,59.88023952,63d13cb81a0a88a3ce29e33f,68817205a84113384fffdfe3,6882451c108c085c731023e0,,,,,,,,,,,,./stim/wavs/puertorican_mismatch_interrogative-total-yn_La-maestra-vive-en-Paris.wav,1,,,103.8954,106.3608,0,0,1.9345,,0,19,19,41,1,42,1,puertorican,,,,,,,,,,,,,,,,,,,,,,,,,,,,,,,,,,,,,,,,,,,,,,,,,,,,,,,,
,,,,,,,,,63d13cb81a0a88a3ce29e33f,spanish,13 or older,"no, only English or Spanish",no,2025-07-24_10h37.56.839,empathy_intonation_perc_control,2024.2.4,Win32,59.88023952,63d13cb81a0a88a3ce29e33f,68817205a84113384fffdfe3,6882451c108c085c731023e0,,,,,,,,,,,,./stim/wavs/mexican_mismatch_declarative-broad-focus_Mi-novio-viene-del-lago.wav,0,,,106.3616,108.5106,0,1,1.6198,,0,20,20,81,1,82,0,mexican,,,,,,,,,,,,,,,,,,,,,,,,,,,,,,,,,,,,,,,,,,,,,,,,,,,,,,,,
,,,,,,,,,63d13cb81a0a88a3ce29e33f,spanish,13 or older,"no, only English or Spanish",no,2025-07-24_10h37.56.839,empathy_intonation_perc_control,2024.2.4,Win32,59.88023952,63d13cb81a0a88a3ce29e33f,68817205a84113384fffdfe3,6882451c108c085c731023e0,,,,,,,,,,,,./stim/wavs/castilian_mismatch_interrogative-total-yn_La-maestra-vive-en-Paris.wav,1,,,108.5112,112.1602,1,1,3.1252,,0,21,21,24,1,25,0,castilian,,,,,,,,,,,,,,,,,,,,,,,,,,,,,,,,,,,,,,,,,,,,,,,,,,,,,,,,
,,,,,,,,,63d13cb81a0a88a3ce29e33f,spanish,13 or older,"no, only English or Spanish",no,2025-07-24_10h37.56.839,empathy_intonation_perc_control,2024.2.4,Win32,59.88023952,63d13cb81a0a88a3ce29e33f,68817205a84113384fffdfe3,6882451c108c085c731023e0,,,,,,,,,,,,./stim/wavs/puertorican_match_interrogative-total-yn_Daniel-iba-a-Bolivia.wav,1,,,112.1608,115.2269,0,0,2.5385,,0,22,22,19,1,20,1,puertorican,,,,,,,,,,,,,,,,,,,,,,,,,,,,,,,,,,,,,,,,,,,,,,,,,,,,,,,,
,,,,,,,,,63d13cb81a0a88a3ce29e33f,spanish,13 or older,"no, only English or Spanish",no,2025-07-24_10h37.56.839,empathy_intonation_perc_control,2024.2.4,Win32,59.88023952,63d13cb81a0a88a3ce29e33f,68817205a84113384fffdfe3,6882451c108c085c731023e0,,,,,,,,,,,,./stim/wavs/castilian_mismatch_declarative-broad-focus_La-maestra-vive-en-Paris.wav,0,,,115.228,118.4437,0,1,2.6887,,0,23,23,69,1,70,0,castilian,,,,,,,,,,,,,,,,,,,,,,,,,,,,,,,,,,,,,,,,,,,,,,,,,,,,,,,,
,,,,,,,,,63d13cb81a0a88a3ce29e33f,spanish,13 or older,"no, only English or Spanish",no,2025-07-24_10h37.56.839,empathy_intonation_perc_control,2024.2.4,Win32,59.88023952,63d13cb81a0a88a3ce29e33f,68817205a84113384fffdfe3,6882451c108c085c731023e0,,,,,,,,,,,,./stim/wavs/cuban_match_declarative-broad-focus_Daniel-iba-a-Bolivia.wav,0,,,118.4447,120.9931,0,1,2.029,,0,24,24,51,1,52,0,cuban,,,,,,,,,,,,,,,,,,,,,,,,,,,,,,,,,,,,,,,,,,,,,,,,,,,,,,,,
,,,,,,,,,63d13cb81a0a88a3ce29e33f,spanish,13 or older,"no, only English or Spanish",no,2025-07-24_10h37.56.839,empathy_intonation_perc_control,2024.2.4,Win32,59.88023952,63d13cb81a0a88a3ce29e33f,68817205a84113384fffdfe3,6882451c108c085c731023e0,,,,,,,,,,,,./stim/wavs/castilian_mismatch_declarative-broad-focus_Mi-novio-viene-del-lago.wav,0,,,120.9937,123.493,0,1,1.9763,,0,25,25,71,1,72,0,castilian,,,,,,,,,,,,,,,,,,,,,,,,,,,,,,,,,,,,,,,,,,,,,,,,,,,,,,,,
,,,,,,,,,63d13cb81a0a88a3ce29e33f,spanish,13 or older,"no, only English or Spanish",no,2025-07-24_10h37.56.839,empathy_intonation_perc_control,2024.2.4,Win32,59.88023952,63d13cb81a0a88a3ce29e33f,68817205a84113384fffdfe3,6882451c108c085c731023e0,,,,,,,,,,,,./stim/wavs/mexican_match_declarative-broad-focus_Mariano-habla-del-tiempo.wav,0,,,123.4936,125.743,0,1,1.7175,,0,26,26,60,1,61,0,mexican,,,,,,,,,,,,,,,,,,,,,,,,,,,,,,,,,,,,,,,,,,,,,,,,,,,,,,,,
,,,,,,,,,63d13cb81a0a88a3ce29e33f,spanish,13 or older,"no, only English or Spanish",no,2025-07-24_10h37.56.839,empathy_intonation_perc_control,2024.2.4,Win32,59.88023952,63d13cb81a0a88a3ce29e33f,68817205a84113384fffdfe3,6882451c108c085c731023e0,,,,,,,,,,,,./stim/wavs/castilian_match_interrogative-total-yn_Mariano-habla-del-tiempo.wav,1,,,125.7438,130.2759,1,1,4.0118,,0,27,27,4,1,5,0,castilian,,,,,,,,,,,,,,,,,,,,,,,,,,,,,,,,,,,,,,,,,,,,,,,,,,,,,,,,
,,,,,,,,,63d13cb81a0a88a3ce29e33f,spanish,13 or older,"no, only English or Spanish",no,2025-07-24_10h37.56.839,empathy_intonation_perc_control,2024.2.4,Win32,59.88023952,63d13cb81a0a88a3ce29e33f,68817205a84113384fffdfe3,6882451c108c085c731023e0,,,,,,,,,,,,./stim/wavs/cuban_match_declarative-broad-focus_Manuela-vende-el-carro.wav,0,,,130.2765,135.3427,0,1,4.5347,,0,28,28,52,1,53,0,cuban,,,,,,,,,,,,,,,,,,,,,,,,,,,,,,,,,,,,,,,,,,,,,,,,,,,,,,,,
,,,,,,,,,63d13cb81a0a88a3ce29e33f,spanish,13 or older,"no, only English or Spanish",no,2025-07-24_10h37.56.839,empathy_intonation_perc_control,2024.2.4,Win32,59.88023952,63d13cb81a0a88a3ce29e33f,68817205a84113384fffdfe3,6882451c108c085c731023e0,,,,,,,,,,,,./stim/wavs/cuban_mismatch_declarative-broad-focus_La-nina-lava-el-plato.wav,0,,,135.3435,138.0254,0,1,2.1542,,0,29,29,75,1,76,0,cuban,,,,,,,,,,,,,,,,,,,,,,,,,,,,,,,,,,,,,,,,,,,,,,,,,,,,,,,,
,,,,,,,,,63d13cb81a0a88a3ce29e33f,spanish,13 or older,"no, only English or Spanish",no,2025-07-24_10h37.56.839,empathy_intonation_perc_control,2024.2.4,Win32,59.88023952,63d13cb81a0a88a3ce29e33f,68817205a84113384fffdfe3,6882451c108c085c731023e0,,,,,,,,,,,,./stim/wavs/castilian_mismatch_interrogative-total-yn_Mi-tia-odia-la-lluvia.wav,1,,,138.026,141.9421,1,1,3.3849,,0,30,30,28,1,29,0,castilian,,,,,,,,,,,,,,,,,,,,,,,,,,,,,,,,,,,,,,,,,,,,,,,,,,,,,,,,
,,,,,,,,,63d13cb81a0a88a3ce29e33f,spanish,13 or older,"no, only English or Spanish",no,2025-07-24_10h37.56.839,empathy_intonation_perc_control,2024.2.4,Win32,59.88023952,63d13cb81a0a88a3ce29e33f,68817205a84113384fffdfe3,6882451c108c085c731023e0,,,,,,,,,,,,./stim/wavs/castilian_mismatch_declarative-broad-focus_El-nino-oye-el-rio.wav,0,,,141.9431,144.3763,0,1,1.9018,,0,31,31,68,1,69,0,castilian,,,,,,,,,,,,,,,,,,,,,,,,,,,,,,,,,,,,,,,,,,,,,,,,,,,,,,,,
,,,,,,,,,63d13cb81a0a88a3ce29e33f,spanish,13 or older,"no, only English or Spanish",no,2025-07-24_10h37.56.839,empathy_intonation_perc_control,2024.2.4,Win32,59.88023952,63d13cb81a0a88a3ce29e33f,68817205a84113384fffdfe3,6882451c108c085c731023e0,,,,,,,,,,,,./stim/wavs/cuban_match_interrogative-total-yn_Mariano-habla-del-tiempo.wav,1,,,144.3768,146.5797,0,0,1.6827,,0,32,32,10,1,11,1,cuban,,,,,,,,,,,,,,,,,,,,,,,,,,,,,,,,,,,,,,,,,,,,,,,,,,,,,,,,
,,,,,,,,,63d13cb81a0a88a3ce29e33f,spanish,13 or older,"no, only English or Spanish",no,2025-07-24_10h37.56.839,empathy_intonation_perc_control,2024.2.4,Win32,59.88023952,63d13cb81a0a88a3ce29e33f,68817205a84113384fffdfe3,6882451c108c085c731023e0,,,,,,,,,,,,./stim/wavs/castilian_mismatch_declarative-broad-focus_Mi-tia-odia-la-lluvia.wav,0,,,146.5801,149.9963,0,1,2.8836,,0,33,33,72,1,73,0,castilian,,,,,,,,,,,,,,,,,,,,,,,,,,,,,,,,,,,,,,,,,,,,,,,,,,,,,,,,
,,,,,,,,,63d13cb81a0a88a3ce29e33f,spanish,13 or older,"no, only English or Spanish",no,2025-07-24_10h37.56.839,empathy_intonation_perc_control,2024.2.4,Win32,59.88023952,63d13cb81a0a88a3ce29e33f,68817205a84113384fffdfe3,6882451c108c085c731023e0,,,,,,,,,,,,./stim/wavs/cuban_match_declarative-broad-focus_Maria-bebe-el-vino.wav,0,,,149.9968,154.9463,0,1,4.4172,,0,34,34,53,1,54,0,cuban,,,,,,,,,,,,,,,,,,,,,,,,,,,,,,,,,,,,,,,,,,,,,,,,,,,,,,,,
,,,,,,,,,63d13cb81a0a88a3ce29e33f,spanish,13 or older,"no, only English or Spanish",no,2025-07-24_10h37.56.839,empathy_intonation_perc_control,2024.2.4,Win32,59.88023952,63d13cb81a0a88a3ce29e33f,68817205a84113384fffdfe3,6882451c108c085c731023e0,,,,,,,,,,,,./stim/wavs/puertorican_match_interrogative-total-yn_Maria-bebe-el-vino.wav,1,,,154.947,158.1957,1,1,2.7166,,0,35,35,23,1,24,1,puertorican,,,,,,,,,,,,,,,,,,,,,,,,,,,,,,,,,,,,,,,,,,,,,,,,,,,,,,,,
,,,,,,,,,63d13cb81a0a88a3ce29e33f,spanish,13 or older,"no, only English or Spanish",no,2025-07-24_10h37.56.839,empathy_intonation_perc_control,2024.2.4,Win32,59.88023952,63d13cb81a0a88a3ce29e33f,68817205a84113384fffdfe3,6882451c108c085c731023e0,,,,,,,,,,,,./stim/wavs/mexican_match_declarative-broad-focus_Ana-lleva-el-abrigo.wav,0,,,158.1962,163.2787,0,1,4.5504,,0,36,36,56,1,57,0,mexican,,,,,,,,,,,,,,,,,,,,,,,,,,,,,,,,,,,,,,,,,,,,,,,,,,,,,,,,
,,,,,,,,,63d13cb81a0a88a3ce29e33f,spanish,13 or older,"no, only English or Spanish",no,2025-07-24_10h37.56.839,empathy_intonation_perc_control,2024.2.4,Win32,59.88023952,63d13cb81a0a88a3ce29e33f,68817205a84113384fffdfe3,6882451c108c085c731023e0,,,,,,,,,,,,./stim/wavs/puertorican_match_interrogative-total-yn_Ana-lleva-el-abrigo.wav,1,,,163.2792,166.2286,1,1,2.4172,,0,37,37,18,1,19,1,puertorican,,,,,,,,,,,,,,,,,,,,,,,,,,,,,,,,,,,,,,,,,,,,,,,,,,,,,,,,
,,,,,,,,,63d13cb81a0a88a3ce29e33f,spanish,13 or older,"no, only English or Spanish",no,2025-07-24_10h37.56.839,empathy_intonation_perc_control,2024.2.4,Win32,59.88023952,63d13cb81a0a88a3ce29e33f,68817205a84113384fffdfe3,6882451c108c085c731023e0,,,,,,,,,,,,./stim/wavs/castilian_match_declarative-broad-focus_David-leia-el-libro.wav,0,,,166.2289,169.2448,0,1,2.4837,,0,38,38,44,1,45,0,castilian,,,,,,,,,,,,,,,,,,,,,,,,,,,,,,,,,,,,,,,,,,,,,,,,,,,,,,,,
,,,,,,,,,63d13cb81a0a88a3ce29e33f,spanish,13 or older,"no, only English or Spanish",no,2025-07-24_10h37.56.839,empathy_intonation_perc_control,2024.2.4,Win32,59.88023952,63d13cb81a0a88a3ce29e33f,68817205a84113384fffdfe3,6882451c108c085c731023e0,,,,,,,,,,,,./stim/wavs/cuban_match_declarative-broad-focus_Marta-abre-el-regalo.wav,0,,,169.2452,170.2616,0,1,0.4837,,0,39,39,55,1,56,0,cuban,,,,,,,,,,,,,,,,,,,,,,,,,,,,,,,,,,,,,,,,,,,,,,,,,,,,,,,,
,,,,,,,,,63d13cb81a0a88a3ce29e33f,spanish,13 or older,"no, only English or Spanish",no,2025-07-24_10h37.56.839,empathy_intonation_perc_control,2024.2.4,Win32,59.88023952,63d13cb81a0a88a3ce29e33f,68817205a84113384fffdfe3,6882451c108c085c731023e0,,,,,,,,,,,,./stim/wavs/mexican_mismatch_declarative-broad-focus_La-maestra-vive-en-Paris.wav,0,,,170.262,173.1285,0,1,2.3342,,0,40,40,80,1,81,0,mexican,,,,,,,,,,,,,,,,,,,,,,,,,,,,,,,,,,,,,,,,,,,,,,,,,,,,,,,,
,,,,,,,,,63d13cb81a0a88a3ce29e33f,spanish,13 or older,"no, only English or Spanish",no,2025-07-24_10h37.56.839,empathy_intonation_perc_control,2024.2.4,Win32,59.88023952,63d13cb81a0a88a3ce29e33f,68817205a84113384fffdfe3,6882451c108c085c731023e0,,,,,,,,,,,,./stim/wavs/cuban_mismatch_interrogative-total-yn_Mi-madre-come-la-fruta.wav,1,,,173.129,175.4282,0,0,1.7671,,0,41,41,31,1,32,1,cuban,,,,,,,,,,,,,,,,,,,,,,,,,,,,,,,,,,,,,,,,,,,,,,,,,,,,,,,,
,,,,,,,,,63d13cb81a0a88a3ce29e33f,spanish,13 or older,"no, only English or Spanish",no,2025-07-24_10h37.56.839,empathy_intonation_perc_control,2024.2.4,Win32,59.88023952,63d13cb81a0a88a3ce29e33f,68817205a84113384fffdfe3,6882451c108c085c731023e0,,,,,,,,,,,,./stim/wavs/cuban_mismatch_interrogative-total-yn_Mi-novio-viene-del-lago.wav,1,,,175.4285,177.9614,0,0,2.0008,0.0001,0,42,42,32,1,33,1,cuban,,,,,,,,,,,,,,,,,,,,,,,,,,,,,,,,,,,,,,,,,,,,,,,,,,,,,,,,
,,,,,,,,,63d13cb81a0a88a3ce29e33f,spanish,13 or older,"no, only English or Spanish",no,2025-07-24_10h37.56.839,empathy_intonation_perc_control,2024.2.4,Win32,59.88023952,63d13cb81a0a88a3ce29e33f,68817205a84113384fffdfe3,6882451c108c085c731023e0,,,,,,,,,,,,./stim/wavs/mexican_mismatch_declarative-broad-focus_El-hombre-mira-la-luna.wav,0,,,177.9617,180.0942,0,1,1.6164,,0,43,43,79,1,80,0,mexican,,,,,,,,,,,,,,,,,,,,,,,,,,,,,,,,,,,,,,,,,,,,,,,,,,,,,,,,
,,,,,,,,,63d13cb81a0a88a3ce29e33f,spanish,13 or older,"no, only English or Spanish",no,2025-07-24_10h37.56.839,empathy_intonation_perc_control,2024.2.4,Win32,59.88023952,63d13cb81a0a88a3ce29e33f,68817205a84113384fffdfe3,6882451c108c085c731023e0,,,,,,,,,,,,./stim/wavs/mexican_match_declarative-broad-focus_Emilio-ama-la-marcha.wav,0,,,180.0945,182.3107,0,1,1.6836,,0,44,44,59,1,60,0,mexican,,,,,,,,,,,,,,,,,,,,,,,,,,,,,,,,,,,,,,,,,,,,,,,,,,,,,,,,
,,,,,,,,,63d13cb81a0a88a3ce29e33f,spanish,13 or older,"no, only English or Spanish",no,2025-07-24_10h37.56.839,empathy_intonation_perc_control,2024.2.4,Win32,59.88023952,63d13cb81a0a88a3ce29e33f,68817205a84113384fffdfe3,6882451c108c085c731023e0,,,,,,,,,,,,./stim/wavs/puertorican_mismatch_declarative-broad-focus_La-maestra-vive-en-Paris.wav,0,,,182.3111,184.7778,0,1,1.9342,,0,45,45,86,1,87,0,puertorican,,,,,,,,,,,,,,,,,,,,,,,,,,,,,,,,,,,,,,,,,,,,,,,,,,,,,,,,
,,,,,,,,,63d13cb81a0a88a3ce29e33f,spanish,13 or older,"no, only English or Spanish",no,2025-07-24_10h37.56.839,empathy_intonation_perc_control,2024.2.4,Win32,59.88023952,63d13cb81a0a88a3ce29e33f,68817205a84113384fffdfe3,6882451c108c085c731023e0,,,,,,,,,,,,./stim/wavs/cuban_match_interrogative-total-yn_Ana-lleva-el-abrigo.wav,1,,,184.7782,187.5104,0,0,2.2002,,0,46,46,6,1,7,1,cuban,,,,,,,,,,,,,,,,,,,,,,,,,,,,,,,,,,,,,,,,,,,,,,,,,,,,,,,,
,,,,,,,,,63d13cb81a0a88a3ce29e33f,spanish,13 or older,"no, only English or Spanish",no,2025-07-24_10h37.56.839,empathy_intonation_perc_control,2024.2.4,Win32,59.88023952,63d13cb81a0a88a3ce29e33f,68817205a84113384fffdfe3,6882451c108c085c731023e0,,,,,,,,,,,,./stim/wavs/castilian_match_interrogative-total-yn_Maria-bebe-el-vino.wav,1,,,187.5109,190.527,1,1,2.4838,,0,47,47,3,1,4,0,castilian,,,,,,,,,,,,,,,,,,,,,,,,,,,,,,,,,,,,,,,,,,,,,,,,,,,,,,,,
,,,,,,,,,63d13cb81a0a88a3ce29e33f,spanish,13 or older,"no, only English or Spanish",no,2025-07-24_10h37.56.839,empathy_intonation_perc_control,2024.2.4,Win32,59.88023952,63d13cb81a0a88a3ce29e33f,68817205a84113384fffdfe3,6882451c108c085c731023e0,,,,,,,,,,,,./stim/wavs/puertorican_mismatch_interrogative-total-yn_El-nino-oye-el-rio.wav,1,,,190.5276,193.6099,0,0,2.55,,0,48,48,40,1,41,1,puertorican,,,,,,,,,,,,,,,,,,,,,,,,,,,,,,,,,,,,,,,,,,,,,,,,,,,,,,,,
,,,,,,,,,63d13cb81a0a88a3ce29e33f,spanish,13 or older,"no, only English or Spanish",no,2025-07-24_10h37.56.839,empathy_intonation_perc_control,2024.2.4,Win32,59.88023952,63d13cb81a0a88a3ce29e33f,68817205a84113384fffdfe3,6882451c108c085c731023e0,,,,,,,,,,,,./stim/wavs/cuban_match_interrogative-total-yn_Manuela-vende-el-carro.wav,1,,,193.6103,196.8098,0,0,2.6668,,0,49,49,8,1,9,1,cuban,,,,,,,,,,,,,,,,,,,,,,,,,,,,,,,,,,,,,,,,,,,,,,,,,,,,,,,,
,,,,,,,,,63d13cb81a0a88a3ce29e33f,spanish,13 or older,"no, only English or Spanish",no,2025-07-24_10h37.56.839,empathy_intonation_perc_control,2024.2.4,Win32,59.88023952,63d13cb81a0a88a3ce29e33f,68817205a84113384fffdfe3,6882451c108c085c731023e0,,,,,,,,,,,,./stim/wavs/puertorican_mismatch_interrogative-total-yn_Mi-madre-come-la-fruta.wav,1,,,196.8102,199.1599,0,0,1.8172,,0,50,50,43,1,44,1,puertorican,,,,,,,,,,,,,,,,,,,,,,,,,,,,,,,,,,,,,,,,,,,,,,,,,,,,,,,,
,,,,,,,,,63d13cb81a0a88a3ce29e33f,spanish,13 or older,"no, only English or Spanish",no,2025-07-24_10h37.56.839,empathy_intonation_perc_control,2024.2.4,Win32,59.88023952,63d13cb81a0a88a3ce29e33f,68817205a84113384fffdfe3,6882451c108c085c731023e0,,,,,,,,,,,,./stim/wavs/castilian_match_interrogative-total-yn_Manuela-vende-el-carro.wav,1,,,199.1604,204.4107,1,1,4.718,,0,51,51,2,1,3,0,castilian,,,,,,,,,,,,,,,,,,,,,,,,,,,,,,,,,,,,,,,,,,,,,,,,,,,,,,,,
,,,,,,,,,63d13cb81a0a88a3ce29e33f,spanish,13 or older,"no, only English or Spanish",no,2025-07-24_10h37.56.839,empathy_intonation_perc_control,2024.2.4,Win32,59.88023952,63d13cb81a0a88a3ce29e33f,68817205a84113384fffdfe3,6882451c108c085c731023e0,,,,,,,,,,,,./stim/wavs/cuban_mismatch_declarative-broad-focus_Mi-tia-odia-la-lluvia.wav,0,,,204.4114,208.0264,0,1,3.0841,,0,52,52,77,1,78,0,cuban,,,,,,,,,,,,,,,,,,,,,,,,,,,,,,,,,,,,,,,,,,,,,,,,,,,,,,,,
,,,,,,,,,63d13cb81a0a88a3ce29e33f,spanish,13 or older,"no, only English or Spanish",no,2025-07-24_10h37.56.839,empathy_intonation_perc_control,2024.2.4,Win32,59.88023952,63d13cb81a0a88a3ce29e33f,68817205a84113384fffdfe3,6882451c108c085c731023e0,,,,,,,,,,,,./stim/wavs/puertorican_mismatch_declarative-broad-focus_El-nino-oye-el-rio.wav,0,,,208.027,211.359,0,1,2.8001,,0,53,53,85,1,86,0,puertorican,,,,,,,,,,,,,,,,,,,,,,,,,,,,,,,,,,,,,,,,,,,,,,,,,,,,,,,,
,,,,,,,,,63d13cb81a0a88a3ce29e33f,spanish,13 or older,"no, only English or Spanish",no,2025-07-24_10h37.56.839,empathy_intonation_perc_control,2024.2.4,Win32,59.88023952,63d13cb81a0a88a3ce29e33f,68817205a84113384fffdfe3,6882451c108c085c731023e0,,,,,,,,,,,,./stim/wavs/puertorican_match_interrogative-total-yn_Manuela-vende-el-carro.wav,1,,,211.3596,213.9733,1,1,2.0814,,0,54,54,22,1,23,1,puertorican,,,,,,,,,,,,,,,,,,,,,,,,,,,,,,,,,,,,,,,,,,,,,,,,,,,,,,,,
,,,,,,,,,63d13cb81a0a88a3ce29e33f,spanish,13 or older,"no, only English or Spanish",no,2025-07-24_10h37.56.839,empathy_intonation_perc_control,2024.2.4,Win32,59.88023952,63d13cb81a0a88a3ce29e33f,68817205a84113384fffdfe3,6882451c108c085c731023e0,,,,,,,,,,,,./stim/wavs/puertorican_mismatch_declarative-broad-focus_La-nina-lava-el-plato.wav,0,,,213.9738,217.34,0,1,2.8314,,0,55,55,87,1,88,0,puertorican,,,,,,,,,,,,,,,,,,,,,,,,,,,,,,,,,,,,,,,,,,,,,,,,,,,,,,,,
,,,,,,,,,63d13cb81a0a88a3ce29e33f,spanish,13 or older,"no, only English or Spanish",no,2025-07-24_10h37.56.839,empathy_intonation_perc_control,2024.2.4,Win32,59.88023952,63d13cb81a0a88a3ce29e33f,68817205a84113384fffdfe3,6882451c108c085c731023e0,,,,,,,,,,,,./stim/wavs/puertorican_mismatch_interrogative-total-yn_El-hombre-mira-la-luna.wav,1,,,217.3406,220.0047,1,1,2.1555,,0,56,56,39,1,40,1,puertorican,,,,,,,,,,,,,,,,,,,,,,,,,,,,,,,,,,,,,,,,,,,,,,,,,,,,,,,,
,,,,,,,,,63d13cb81a0a88a3ce29e33f,spanish,13 or older,"no, only English or Spanish",no,2025-07-24_10h37.56.839,empathy_intonation_perc_control,2024.2.4,Win32,59.88023952,63d13cb81a0a88a3ce29e33f,68817205a84113384fffdfe3,6882451c108c085c731023e0,,,,,,,,,,,,./stim/wavs/cuban_mismatch_interrogative-total-yn_El-nino-oye-el-rio.wav,1,,,220.0059,223.9583,0,0,3.4169,,0,57,57,30,1,31,1,cuban,,,,,,,,,,,,,,,,,,,,,,,,,,,,,,,,,,,,,,,,,,,,,,,,,,,,,,,,
,,,,,,,,,63d13cb81a0a88a3ce29e33f,spanish,13 or older,"no, only English or Spanish",no,2025-07-24_10h37.56.839,empathy_intonation_perc_control,2024.2.4,Win32,59.88023952,63d13cb81a0a88a3ce29e33f,68817205a84113384fffdfe3,6882451c108c085c731023e0,,,,,,,,,,,,./stim/wavs/castilian_match_interrogative-total-yn_Emilio-ama-la-marcha.wav,1,,,223.959,226.8745,1,1,2.3994,,0,58,58,1,1,2,0,castilian,,,,,,,,,,,,,,,,,,,,,,,,,,,,,,,,,,,,,,,,,,,,,,,,,,,,,,,,
,,,,,,,,,63d13cb81a0a88a3ce29e33f,spanish,13 or older,"no, only English or Spanish",no,2025-07-24_10h37.56.839,empathy_intonation_perc_control,2024.2.4,Win32,59.88023952,63d13cb81a0a88a3ce29e33f,68817205a84113384fffdfe3,6882451c108c085c731023e0,,,,,,,,,,,,./stim/wavs/puertorican_mismatch_declarative-broad-focus_El-bebe-comia-muy-bien.wav,0,,,226.875,229.2743,0,1,1.88,,0,59,59,83,1,84,0,puertorican,,,,,,,,,,,,,,,,,,,,,,,,,,,,,,,,,,,,,,,,,,,,,,,,,,,,,,,,
,,,,,,,,,63d13cb81a0a88a3ce29e33f,spanish,13 or older,"no, only English or Spanish",no,2025-07-24_10h37.56.839,empathy_intonation_perc_control,2024.2.4,Win32,59.88023952,63d13cb81a0a88a3ce29e33f,68817205a84113384fffdfe3,6882451c108c085c731023e0,,,,,,,,,,,,./stim/wavs/mexican_match_declarative-broad-focus_Marta-abre-el-regalo.wav,0,,,229.275,231.9078,0,1,2.1134,,0,60,60,61,1,62,0,mexican,,,,,,,,,,,,,,,,,,,,,,,,,,,,,,,,,,,,,,,,,,,,,,,,,,,,,,,,
,,,,,,,,,63d13cb81a0a88a3ce29e33f,spanish,13 or older,"no, only English or Spanish",no,2025-07-24_10h37.56.839,empathy_intonation_perc_control,2024.2.4,Win32,59.88023952,63d13cb81a0a88a3ce29e33f,68817205a84113384fffdfe3,6882451c108c085c731023e0,,,,,,,,,,,,./stim/wavs/mexican_match_interrogative-total-yn_Emilio-ama-la-marcha.wav,1,,,231.9083,234.8579,1,1,2.417,,0,61,61,15,1,16,0,mexican,,,,,,,,,,,,,,,,,,,,,,,,,,,,,,,,,,,,,,,,,,,,,,,,,,,,,,,,
,,,,,,,,,63d13cb81a0a88a3ce29e33f,spanish,13 or older,"no, only English or Spanish",no,2025-07-24_10h37.56.839,empathy_intonation_perc_control,2024.2.4,Win32,59.88023952,63d13cb81a0a88a3ce29e33f,68817205a84113384fffdfe3,6882451c108c085c731023e0,,,,,,,,,,,,./stim/wavs/cuban_match_interrogative-total-yn_Daniel-iba-a-Bolivia.wav,1,,,234.8584,237.7697,0,0,2.375,,0,62,62,7,1,8,1,cuban,,,,,,,,,,,,,,,,,,,,,,,,,,,,,,,,,,,,,,,,,,,,,,,,,,,,,,,,
,,,,,,,,,63d13cb81a0a88a3ce29e33f,spanish,13 or older,"no, only English or Spanish",no,2025-07-24_10h37.56.839,empathy_intonation_perc_control,2024.2.4,Win32,59.88023952,63d13cb81a0a88a3ce29e33f,68817205a84113384fffdfe3,6882451c108c085c731023e0,,,,,,,,,,,,./stim/wavs/castilian_match_declarative-broad-focus_Mariano-habla-del-tiempo.wav,0,,,237.7706,241.2074,0,1,2.8999,,0,63,63,48,1,49,0,castilian,,,,,,,,,,,,,,,,,,,,,,,,,,,,,,,,,,,,,,,,,,,,,,,,,,,,,,,,
,,,,,,,,,63d13cb81a0a88a3ce29e33f,spanish,13 or older,"no, only English or Spanish",no,2025-07-24_10h37.56.839,empathy_intonation_perc_control,2024.2.4,Win32,59.88023952,63d13cb81a0a88a3ce29e33f,68817205a84113384fffdfe3,6882451c108c085c731023e0,,,,,,,,,,,,./stim/wavs/puertorican_match_declarative-broad-focus_Emilio-ama-la-marcha.wav,0,,,241.208,243.6387,0,1,1.8985,,0,64,64,65,1,66,0,puertorican,,,,,,,,,,,,,,,,,,,,,,,,,,,,,,,,,,,,,,,,,,,,,,,,,,,,,,,,
,,,,,,,,,63d13cb81a0a88a3ce29e33f,spanish,13 or older,"no, only English or Spanish",no,2025-07-24_10h37.56.839,empathy_intonation_perc_control,2024.2.4,Win32,59.88023952,63d13cb81a0a88a3ce29e33f,68817205a84113384fffdfe3,6882451c108c085c731023e0,,,,,,,,,,,,./stim/wavs/mexican_mismatch_interrogative-total-yn_El-hombre-mira-la-luna.wav,1,,,243.6394,246.8234,1,1,2.65,,0,65,65,34,1,35,0,mexican,,,,,,,,,,,,,,,,,,,,,,,,,,,,,,,,,,,,,,,,,,,,,,,,,,,,,,,,
,,,,,,,,,63d13cb81a0a88a3ce29e33f,spanish,13 or older,"no, only English or Spanish",no,2025-07-24_10h37.56.839,empathy_intonation_perc_control,2024.2.4,Win32,59.88023952,63d13cb81a0a88a3ce29e33f,68817205a84113384fffdfe3,6882451c108c085c731023e0,,,,,,,,,,,,./stim/wavs/castilian_mismatch_interrogative-total-yn_Mi-novio-viene-del-lago.wav,1,,,246.8241,249.7859,1,1,2.4307,,0,66,66,27,1,28,0,castilian,,,,,,,,,,,,,,,,,,,,,,,,,,,,,,,,,,,,,,,,,,,,,,,,,,,,,,,,
,,,,,,,,,63d13cb81a0a88a3ce29e33f,spanish,13 or older,"no, only English or Spanish",no,2025-07-24_10h37.56.839,empathy_intonation_perc_control,2024.2.4,Win32,59.88023952,63d13cb81a0a88a3ce29e33f,68817205a84113384fffdfe3,6882451c108c085c731023e0,,,,,,,,,,,,./stim/wavs/puertorican_match_declarative-broad-focus_Maria-bebe-el-vino.wav,0,,,249.7868,252.6065,0,1,2.2835,,0,67,67,67,1,68,0,puertorican,,,,,,,,,,,,,,,,,,,,,,,,,,,,,,,,,,,,,,,,,,,,,,,,,,,,,,,,
,,,,,,,,,63d13cb81a0a88a3ce29e33f,spanish,13 or older,"no, only English or Spanish",no,2025-07-24_10h37.56.839,empathy_intonation_perc_control,2024.2.4,Win32,59.88023952,63d13cb81a0a88a3ce29e33f,68817205a84113384fffdfe3,6882451c108c085c731023e0,,,,,,,,,,,,./stim/wavs/cuban_mismatch_declarative-broad-focus_Mi-novio-viene-del-lago.wav,0,,,252.6073,255.0517,0,1,1.9246,,0,68,68,76,1,77,0,cuban,,,,,,,,,,,,,,,,,,,,,,,,,,,,,,,,,,,,,,,,,,,,,,,,,,,,,,,,
,,,,,,,,,63d13cb81a0a88a3ce29e33f,spanish,13 or older,"no, only English or Spanish",no,2025-07-24_10h37.56.839,empathy_intonation_perc_control,2024.2.4,Win32,59.88023952,63d13cb81a0a88a3ce29e33f,68817205a84113384fffdfe3,6882451c108c085c731023e0,,,,,,,,,,,,./stim/wavs/cuban_mismatch_interrogative-total-yn_Mi-tia-odia-la-lluvia.wav,1,,,255.0532,257.4561,0,0,1.8967,,0,69,69,33,1,34,1,cuban,,,,,,,,,,,,,,,,,,,,,,,,,,,,,,,,,,,,,,,,,,,,,,,,,,,,,,,,
,,,,,,,,,63d13cb81a0a88a3ce29e33f,spanish,13 or older,"no, only English or Spanish",no,2025-07-24_10h37.56.839,empathy_intonation_perc_control,2024.2.4,Win32,59.88023952,63d13cb81a0a88a3ce29e33f,68817205a84113384fffdfe3,6882451c108c085c731023e0,,,,,,,,,,,,./stim/wavs/castilian_match_interrogative-total-yn_David-leia-el-libro.wav,1,,,257.457,260.3891,1,1,2.4,,0,70,70,0,1,1,0,castilian,,,,,,,,,,,,,,,,,,,,,,,,,,,,,,,,,,,,,,,,,,,,,,,,,,,,,,,,
,,,,,,,,,63d13cb81a0a88a3ce29e33f,spanish,13 or older,"no, only English or Spanish",no,2025-07-24_10h37.56.839,empathy_intonation_perc_control,2024.2.4,Win32,59.88023952,63d13cb81a0a88a3ce29e33f,68817205a84113384fffdfe3,6882451c108c085c731023e0,,,,,,,,,,,,./stim/wavs/castilian_mismatch_interrogative-total-yn_La-nina-lava-el-plato.wav,1,,,260.3896,264.2065,1,1,3.2841,,0,71,71,25,1,26,0,castilian,,,,,,,,,,,,,,,,,,,,,,,,,,,,,,,,,,,,,,,,,,,,,,,,,,,,,,,,
,,,,,,,,,63d13cb81a0a88a3ce29e33f,spanish,13 or older,"no, only English or Spanish",no,2025-07-24_10h37.56.839,empathy_intonation_perc_control,2024.2.4,Win32,59.88023952,63d13cb81a0a88a3ce29e33f,68817205a84113384fffdfe3,6882451c108c085c731023e0,,,,,,,,,,,,./stim/wavs/puertorican_match_interrogative-total-yn_David-leia-el-libro.wav,1,,,264.2075,268.2514,0,0,3.5177,,0,72,72,20,1,21,1,puertorican,,,,,,,,,,,,,,,,,,,,,,,,,,,,,,,,,,,,,,,,,,,,,,,,,,,,,,,,
,,,,,,,,,63d13cb81a0a88a3ce29e33f,spanish,13 or older,"no, only English or Spanish",no,2025-07-24_10h37.56.839,empathy_intonation_perc_control,2024.2.4,Win32,59.88023952,63d13cb81a0a88a3ce29e33f,68817205a84113384fffdfe3,6882451c108c085c731023e0,,,,,,,,,,,,./stim/wavs/mexican_mismatch_interrogative-total-yn_El-nino-oye-el-rio.wav,1,,,268.2521,272.0718,1,1,3.2834,,0,73,73,35,1,36,0,mexican,,,,,,,,,,,,,,,,,,,,,,,,,,,,,,,,,,,,,,,,,,,,,,,,,,,,,,,,
,,,,,,,,,63d13cb81a0a88a3ce29e33f,spanish,13 or older,"no, only English or Spanish",no,2025-07-24_10h37.56.839,empathy_intonation_perc_control,2024.2.4,Win32,59.88023952,63d13cb81a0a88a3ce29e33f,68817205a84113384fffdfe3,6882451c108c085c731023e0,,,,,,,,,,,,./stim/wavs/castilian_match_declarative-broad-focus_Manuela-vende-el-carro.wav,0,,,272.0725,275.1342,0,1,2.5338,,0,74,74,46,1,47,0,castilian,,,,,,,,,,,,,,,,,,,,,,,,,,,,,,,,,,,,,,,,,,,,,,,,,,,,,,,,
,,,,,,,,,63d13cb81a0a88a3ce29e33f,spanish,13 or older,"no, only English or Spanish",no,2025-07-24_10h37.56.839,empathy_intonation_perc_control,2024.2.4,Win32,59.88023952,63d13cb81a0a88a3ce29e33f,68817205a84113384fffdfe3,6882451c108c085c731023e0,,,,,,,,,,,,./stim/wavs/cuban_match_declarative-broad-focus_Ana-lleva-el-abrigo.wav,0,,,275.1354,278.8045,0,1,3.1499,,0,75,75,50,1,51,0,cuban,,,,,,,,,,,,,,,,,,,,,,,,,,,,,,,,,,,,,,,,,,,,,,,,,,,,,,,,
,,,,,,,,,63d13cb81a0a88a3ce29e33f,spanish,13 or older,"no, only English or Spanish",no,2025-07-24_10h37.56.839,empathy_intonation_perc_control,2024.2.4,Win32,59.88023952,63d13cb81a0a88a3ce29e33f,68817205a84113384fffdfe3,6882451c108c085c731023e0,,,,,,,,,,,,./stim/wavs/cuban_match_declarative-broad-focus_Mariano-habla-del-tiempo.wav,0,,,278.805,282.0333,0,1,2.6909,,0,76,76,54,1,55,0,cuban,,,,,,,,,,,,,,,,,,,,,,,,,,,,,,,,,,,,,,,,,,,,,,,,,,,,,,,,
,,,,,,,,,63d13cb81a0a88a3ce29e33f,spanish,13 or older,"no, only English or Spanish",no,2025-07-24_10h37.56.839,empathy_intonation_perc_control,2024.2.4,Win32,59.88023952,63d13cb81a0a88a3ce29e33f,68817205a84113384fffdfe3,6882451c108c085c731023e0,,,,,,,,,,,,./stim/wavs/puertorican_match_declarative-broad-focus_Ana-lleva-el-abrigo.wav,0,,,282.0344,284.138,0,1,1.567,,0,77,77,62,1,63,0,puertorican,,,,,,,,,,,,,,,,,,,,,,,,,,,,,,,,,,,,,,,,,,,,,,,,,,,,,,,,
,,,,,,,,,63d13cb81a0a88a3ce29e33f,spanish,13 or older,"no, only English or Spanish",no,2025-07-24_10h37.56.839,empathy_intonation_perc_control,2024.2.4,Win32,59.88023952,63d13cb81a0a88a3ce29e33f,68817205a84113384fffdfe3,6882451c108c085c731023e0,,,,,,,,,,,,./stim/wavs/mexican_match_interrogative-total-yn_David-leia-el-libro.wav,1,,,284.1385,287.1207,1,1,2.4502,,0,78,78,14,1,15,0,mexican,,,,,,,,,,,,,,,,,,,,,,,,,,,,,,,,,,,,,,,,,,,,,,,,,,,,,,,,
,,,,,,,,,63d13cb81a0a88a3ce29e33f,spanish,13 or older,"no, only English or Spanish",no,2025-07-24_10h37.56.839,empathy_intonation_perc_control,2024.2.4,Win32,59.88023952,63d13cb81a0a88a3ce29e33f,68817205a84113384fffdfe3,6882451c108c085c731023e0,,,,,,,,,,,,./stim/wavs/puertorican_match_declarative-broad-focus_Daniel-iba-a-Bolivia.wav,0,,,287.1213,290.4495,0,1,2.8108,,0,79,79,63,1,64,0,puertorican,,,,,,,,,,,,,,,,,,,,,,,,,,,,,,,,,,,,,,,,,,,,,,,,,,,,,,,,
,,,,,,,,,63d13cb81a0a88a3ce29e33f,spanish,13 or older,"no, only English or Spanish",no,2025-07-24_10h37.56.839,empathy_intonation_perc_control,2024.2.4,Win32,59.88023952,63d13cb81a0a88a3ce29e33f,68817205a84113384fffdfe3,6882451c108c085c731023e0,,,,,,,,,,,,./stim/wavs/mexican_mismatch_interrogative-total-yn_Mi-tia-odia-la-lluvia.wav,1,,,290.4505,294.6203,0,0,3.6334,,0,80,80,38,1,39,0,mexican,,,,,,,,,,,,,,,,,,,,,,,,,,,,,,,,,,,,,,,,,,,,,,,,,,,,,,,,
,,,,,,,,,63d13cb81a0a88a3ce29e33f,spanish,13 or older,"no, only English or Spanish",no,2025-07-24_10h37.56.839,empathy_intonation_perc_control,2024.2.4,Win32,59.88023952,63d13cb81a0a88a3ce29e33f,68817205a84113384fffdfe3,6882451c108c085c731023e0,,,,,,,,,,,,./stim/wavs/mexican_match_interrogative-total-yn_Ana-lleva-el-abrigo.wav,1,,,294.6209,298.2535,1,1,3.0998,,0,81,81,12,1,13,0,mexican,,,,,,,,,,,,,,,,,,,,,,,,,,,,,,,,,,,,,,,,,,,,,,,,,,,,,,,,
,,,,,,,,,63d13cb81a0a88a3ce29e33f,spanish,13 or older,"no, only English or Spanish",no,2025-07-24_10h37.56.839,empathy_intonation_perc_control,2024.2.4,Win32,59.88023952,63d13cb81a0a88a3ce29e33f,68817205a84113384fffdfe3,6882451c108c085c731023e0,,,,,,,,,,,,./stim/wavs/mexican_match_interrogative-total-yn_Daniel-iba-a-Bolivia.wav,1,,,298.2542,302.0532,1,1,3.2795,,0,82,82,13,1,14,0,mexican,,,,,,,,,,,,,,,,,,,,,,,,,,,,,,,,,,,,,,,,,,,,,,,,,,,,,,,,
,,,,,,,,,63d13cb81a0a88a3ce29e33f,spanish,13 or older,"no, only English or Spanish",no,2025-07-24_10h37.56.839,empathy_intonation_perc_control,2024.2.4,Win32,59.88023952,63d13cb81a0a88a3ce29e33f,68817205a84113384fffdfe3,6882451c108c085c731023e0,,,,,,,,,,,,./stim/wavs/cuban_mismatch_interrogative-total-yn_El-hombre-mira-la-luna.wav,1,,,302.0537,307.4843,0,0,4.8979,,0,83,83,29,1,30,1,cuban,,,,,,,,,,,,,,,,,,,,,,,,,,,,,,,,,,,,,,,,,,,,,,,,,,,,,,,,
,,,,,,,,,63d13cb81a0a88a3ce29e33f,spanish,13 or older,"no, only English or Spanish",no,2025-07-24_10h37.56.839,empathy_intonation_perc_control,2024.2.4,Win32,59.88023952,63d13cb81a0a88a3ce29e33f,68817205a84113384fffdfe3,6882451c108c085c731023e0,,,,,,,,,,,,./stim/wavs/puertorican_match_declarative-broad-focus_David-leia-el-libro.wav,0,,,307.4849,310.736,0,1,2.7331,,0,84,84,64,1,65,0,puertorican,,,,,,,,,,,,,,,,,,,,,,,,,,,,,,,,,,,,,,,,,,,,,,,,,,,,,,,,
,,,,,,,,,63d13cb81a0a88a3ce29e33f,spanish,13 or older,"no, only English or Spanish",no,2025-07-24_10h37.56.839,empathy_intonation_perc_control,2024.2.4,Win32,59.88023952,63d13cb81a0a88a3ce29e33f,68817205a84113384fffdfe3,6882451c108c085c731023e0,,,,,,,,,,,,./stim/wavs/cuban_match_interrogative-total-yn_Maria-bebe-el-vino.wav,1,,,310.7366,313.4865,0,0,2.217,,0,85,85,9,1,10,1,cuban,,,,,,,,,,,,,,,,,,,,,,,,,,,,,,,,,,,,,,,,,,,,,,,,,,,,,,,,
,,,,,,,,,63d13cb81a0a88a3ce29e33f,spanish,13 or older,"no, only English or Spanish",no,2025-07-24_10h37.56.839,empathy_intonation_perc_control,2024.2.4,Win32,59.88023952,63d13cb81a0a88a3ce29e33f,68817205a84113384fffdfe3,6882451c108c085c731023e0,,,,,,,,,,,,./stim/wavs/mexican_mismatch_interrogative-total-yn_Mi-novio-viene-del-lago.wav,1,,,313.4874,315.6839,0,0,1.6817,,0,86,86,37,1,38,0,mexican,,,,,,,,,,,,,,,,,,,,,,,,,,,,,,,,,,,,,,,,,,,,,,,,,,,,,,,,
,,,,,,,,,63d13cb81a0a88a3ce29e33f,spanish,13 or older,"no, only English or Spanish",no,2025-07-24_10h37.56.839,empathy_intonation_perc_control,2024.2.4,Win32,59.88023952,63d13cb81a0a88a3ce29e33f,68817205a84113384fffdfe3,6882451c108c085c731023e0,,,,,,,,,,,,./stim/wavs/castilian_mismatch_declarative-broad-focus_La-nina-lava-el-plato.wav,0,,,315.6845,319.3478,0,1,3.1222,,0,87,87,70,1,71,0,castilian,,,,,,,,,,,,,,,,,,,,,,,,,,,,,,,,,,,,,,,,,,,,,,,,,,,,,,,,
,,,,,,,"Great! Now we will move on. The next task consists of about 60 trials, in each of which you will see a string of letters. 
  
  Your task is to decide whether this is a real Spanish word or not.", (press the spacebar to continue),63d13cb81a0a88a3ce29e33f,spanish,13 or older,"no, only English or Spanish",no,2025-07-24_10h37.56.839,empathy_intonation_perc_control,2024.2.4,Win32,59.88023952,63d13cb81a0a88a3ce29e33f,68817205a84113384fffdfe3,6882451c108c085c731023e0,,,,,,,,,,,,,,,,,,,,,,,,,,,,,,319.3632,325.1358,0,0,0,0,1,,,,,,,,,,,,,,,,,,,,,,,,,,,,,,,,,,,,,,,,,,,,,,,,,
,,,,,,,"If you think it is an existing Spanish word, you type '1' (for 'REAL'), and if you think it is not an existing Spanish word, you type '0' (for 'FAKE').", (press the spacebar to continue),63d13cb81a0a88a3ce29e33f,spanish,13 or older,"no, only English or Spanish",no,2025-07-24_10h37.56.839,empathy_intonation_perc_control,2024.2.4,Win32,59.88023952,63d13cb81a0a88a3ce29e33f,68817205a84113384fffdfe3,6882451c108c085c731023e0,,,,,,,,,,,,,,,,,,,,,,,,,,,,,,325.1389,326.5142,0,1,1,1,1,,,,,,,,,,,,,,,,,,,,,,,,,,,,,,,,,,,,,,,,,,,,,,,,,
,,,,,,,"If you are sure that the word exists, even though you don’t know its exact meaning, you may still respond '1' (REAL). 
  
  But if you are not sure if it is an existing word, you should respond '0' (FAKE).
  
  Let's do a practice round...", (press the spacebar to continue),63d13cb81a0a88a3ce29e33f,spanish,13 or older,"no, only English or Spanish",no,2025-07-24_10h37.56.839,empathy_intonation_perc_control,2024.2.4,Win32,59.88023952,63d13cb81a0a88a3ce29e33f,68817205a84113384fffdfe3,6882451c108c085c731023e0,,,,,,,,,,,,,,,,,,,,,,,,,,,,,,326.5171,327.9814,0,2,2,2,1,,,,,,,,,,,,,,,,,,,,,,,,,,,,,,,,,,,,,,,,,,,,,,,,,
,,,,,,,,,63d13cb81a0a88a3ce29e33f,spanish,13 or older,"no, only English or Spanish",no,2025-07-24_10h37.56.839,empathy_intonation_perc_control,2024.2.4,Win32,59.88023952,63d13cb81a0a88a3ce29e33f,68817205a84113384fffdfe3,6882451c108c085c731023e0,,,,,,,,,,,,,0,,,,,,,,,,,,,,,,,,,,,,,,327.9912,330.8352,0,1,2.3149,,330.8358,331.834,0,0,0,0,1,0,depiste,REAL,FAKE,,,,,,,,,,,,,,,,,,,,,,,,,,,,,,,,
,,,,,,,,,63d13cb81a0a88a3ce29e33f,spanish,13 or older,"no, only English or Spanish",no,2025-07-24_10h37.56.839,empathy_intonation_perc_control,2024.2.4,Win32,59.88023952,63d13cb81a0a88a3ce29e33f,68817205a84113384fffdfe3,6882451c108c085c731023e0,,,,,,,,,,,,,1,,,,,,,,,,,,,,,,,,,,,,,,331.8358,333.6138,1,1,1.237,,333.6138,334.6138,0,1,1,1,1,0,sí,REAL,FAKE,,,,,,,,,,,,,,,,,,,,,,,,,,,,,,,,
,,,,,,,,,63d13cb81a0a88a3ce29e33f,spanish,13 or older,"no, only English or Spanish",no,2025-07-24_10h37.56.839,empathy_intonation_perc_control,2024.2.4,Win32,59.88023952,63d13cb81a0a88a3ce29e33f,68817205a84113384fffdfe3,6882451c108c085c731023e0,,,,,,,,,,,,,0,,,,,,,,,,,,,,,,,,,,,,,,334.6163,337.0513,1,0,1.9005,,337.0524,338.0504,0,2,2,2,1,0,coné,REAL,FAKE,,,,,,,,,,,,,,,,,,,,,,,,,,,,,,,,
,,,,,,,,,63d13cb81a0a88a3ce29e33f,spanish,13 or older,"no, only English or Spanish",no,2025-07-24_10h37.56.839,empathy_intonation_perc_control,2024.2.4,Win32,59.88023952,63d13cb81a0a88a3ce29e33f,68817205a84113384fffdfe3,6882451c108c085c731023e0,,,,,,,,,,,,,0,,,,,,,,,,,,,,,,,,,,,,,,338.0516,340.4179,0,1,1.8475,,340.4186,341.4176,0,3,3,3,1,0,calpar,REAL,FAKE,,,,,,,,,,,,,,,,,,,,,,,,,,,,,,,,
,,,,,,,,,63d13cb81a0a88a3ce29e33f,spanish,13 or older,"no, only English or Spanish",no,2025-07-24_10h37.56.839,empathy_intonation_perc_control,2024.2.4,Win32,59.88023952,63d13cb81a0a88a3ce29e33f,68817205a84113384fffdfe3,6882451c108c085c731023e0,,,,,,,,,,,,,0,,,,,,,,,,,,,,,,,,,,,,,,341.4188,342.7658,0,1,0.8154,,342.7658,343.7639,0,4,4,4,1,0,joten,REAL,FAKE,,,,,,,,,,,,,,,,,,,,,,,,,,,,,,,,
,,,,,,,,,63d13cb81a0a88a3ce29e33f,spanish,13 or older,"no, only English or Spanish",no,2025-07-24_10h37.56.839,empathy_intonation_perc_control,2024.2.4,Win32,59.88023952,63d13cb81a0a88a3ce29e33f,68817205a84113384fffdfe3,6882451c108c085c731023e0,,,,,,,,,,,,,1,,,,,,,,,,,,,,,,,,,,,,,,343.7652,345.2673,0,0,0.9735,,345.2681,346.2651,0,5,5,5,1,0,sacapuntas,REAL,FAKE,,,,,,,,,,,,,,,,,,,,,,,,,,,,,,,,
,,,,,,,,,63d13cb81a0a88a3ce29e33f,spanish,13 or older,"no, only English or Spanish",no,2025-07-24_10h37.56.839,empathy_intonation_perc_control,2024.2.4,Win32,59.88023952,63d13cb81a0a88a3ce29e33f,68817205a84113384fffdfe3,6882451c108c085c731023e0,,,,,,,,,,,,,0,,,,,,,,,,,,,,,,,,,,,,,,346.2669,348.0837,0,1,1.3002,,348.0844,349.0833,0,6,6,6,1,0,priba,REAL,FAKE,,,,,,,,,,,,,,,,,,,,,,,,,,,,,,,,
,,,,,,,,,63d13cb81a0a88a3ce29e33f,spanish,13 or older,"no, only English or Spanish",no,2025-07-24_10h37.56.839,empathy_intonation_perc_control,2024.2.4,Win32,59.88023952,63d13cb81a0a88a3ce29e33f,68817205a84113384fffdfe3,6882451c108c085c731023e0,,,,,,,,,,,,,0,,,,,,,,,,,,,,,,,,,,,,,,349.0845,351.0957,0,1,1.4771,,351.0958,352.0836,0,7,7,7,1,0,pelasula,REAL,FAKE,,,,,,,,,,,,,,,,,,,,,,,,,,,,,,,,
,,,,,,,,,63d13cb81a0a88a3ce29e33f,spanish,13 or older,"no, only English or Spanish",no,2025-07-24_10h37.56.839,empathy_intonation_perc_control,2024.2.4,Win32,59.88023952,63d13cb81a0a88a3ce29e33f,68817205a84113384fffdfe3,6882451c108c085c731023e0,,,,,,,,,,,,,1,,,,,,,,,,,,,,,,,,,,,,,,352.0846,353.9005,1,1,1.2836,,353.9005,354.8959,0,8,8,8,1,0,bien,REAL,FAKE,,,,,,,,,,,,,,,,,,,,,,,,,,,,,,,,
,,,,,,,,,63d13cb81a0a88a3ce29e33f,spanish,13 or older,"no, only English or Spanish",no,2025-07-24_10h37.56.839,empathy_intonation_perc_control,2024.2.4,Win32,59.88023952,63d13cb81a0a88a3ce29e33f,68817205a84113384fffdfe3,6882451c108c085c731023e0,,,,,,,,,,,,,1,,,,,,,,,,,,,,,,,,,,,,,,354.8972,356.1324,1,1,0.6992,,356.1324,357.131,0,9,9,9,1,0,casa,REAL,FAKE,,,,,,,,,,,,,,,,,,,,,,,,,,,,,,,,
,,,,,,,,,63d13cb81a0a88a3ce29e33f,spanish,13 or older,"no, only English or Spanish",no,2025-07-24_10h37.56.839,empathy_intonation_perc_control,2024.2.4,Win32,59.88023952,63d13cb81a0a88a3ce29e33f,68817205a84113384fffdfe3,6882451c108c085c731023e0,,,,,,,,,,,,,0,,,,,,,,,,,,,,,,,,,,,,,,357.132,358.9456,1,0,1.2743,,358.9475,359.9492,0,10,10,10,1,0,lejo,REAL,FAKE,,,,,,,,,,,,,,,,,,,,,,,,,,,,,,,,
,,,,,,,,,63d13cb81a0a88a3ce29e33f,spanish,13 or older,"no, only English or Spanish",no,2025-07-24_10h37.56.839,empathy_intonation_perc_control,2024.2.4,Win32,59.88023952,63d13cb81a0a88a3ce29e33f,68817205a84113384fffdfe3,6882451c108c085c731023e0,,,,,,,,,,,,,0,,,,,,,,,,,,,,,,,,,,,,,,359.9504,361.4785,0,1,0.9826,,361.4797,362.4786,0,11,11,11,1,0,pretantas,REAL,FAKE,,,,,,,,,,,,,,,,,,,,,,,,,,,,,,,,
,,,,,,,,,63d13cb81a0a88a3ce29e33f,spanish,13 or older,"no, only English or Spanish",no,2025-07-24_10h37.56.839,empathy_intonation_perc_control,2024.2.4,Win32,59.88023952,63d13cb81a0a88a3ce29e33f,68817205a84113384fffdfe3,6882451c108c085c731023e0,,,,,,,,,,,,,,,,,,,,,,,,,,,,,,,,,,,,,,,,,,,,,,,,,,,,,,362.4797,363.9498,,,,,,,,,,,,,,,,,,,,,,,,,,,,,,
,,,,,,,,,63d13cb81a0a88a3ce29e33f,spanish,13 or older,"no, only English or Spanish",no,2025-07-24_10h37.56.839,empathy_intonation_perc_control,2024.2.4,Win32,59.88023952,63d13cb81a0a88a3ce29e33f,68817205a84113384fffdfe3,6882451c108c085c731023e0,,,,,,,,,,,,,1,,,,,,,,,,,,,,,,,,,,,,,,,,,,,,,,,,,,,22,lacayo,,,,,363.9729,365.4162,0,0,0.9162,,0,0,0,21,1,REAL,FAKE,,,,,,,,,,,,,,,,,
,,,,,,,,,63d13cb81a0a88a3ce29e33f,spanish,13 or older,"no, only English or Spanish",no,2025-07-24_10h37.56.839,empathy_intonation_perc_control,2024.2.4,Win32,59.88023952,63d13cb81a0a88a3ce29e33f,68817205a84113384fffdfe3,6882451c108c085c731023e0,,,,,,,,,,,,,0,,,,,,,,,,,,,,,,,,,,,,,,,,,,,,,,,,,,,21,capillo,,,,,365.4171,367.8952,1,0,1.9337,,0,1,1,20,1,REAL,FAKE,,,,,,,,,,,,,,,,,
,,,,,,,,,63d13cb81a0a88a3ce29e33f,spanish,13 or older,"no, only English or Spanish",no,2025-07-24_10h37.56.839,empathy_intonation_perc_control,2024.2.4,Win32,59.88023952,63d13cb81a0a88a3ce29e33f,68817205a84113384fffdfe3,6882451c108c085c731023e0,,,,,,,,,,,,,0,,,,,,,,,,,,,,,,,,,,,,,,,,,,,,,,,,,,,10,antar,,,,,367.8969,369.7998,0,1,1.3677,,0,2,2,9,1,REAL,FAKE,,,,,,,,,,,,,,,,,
,,,,,,,,,63d13cb81a0a88a3ce29e33f,spanish,13 or older,"no, only English or Spanish",no,2025-07-24_10h37.56.839,empathy_intonation_perc_control,2024.2.4,Win32,59.88023952,63d13cb81a0a88a3ce29e33f,68817205a84113384fffdfe3,6882451c108c085c731023e0,,,,,,,,,,,,,0,,,,,,,,,,,,,,,,,,,,,,,,,,,,,,,,,,,,,4,batillón,,,,,369.8011,372.0782,1,0,1.7377,,0,3,3,3,1,REAL,FAKE,,,,,,,,,,,,,,,,,
,,,,,,,,,63d13cb81a0a88a3ce29e33f,spanish,13 or older,"no, only English or Spanish",no,2025-07-24_10h37.56.839,empathy_intonation_perc_control,2024.2.4,Win32,59.88023952,63d13cb81a0a88a3ce29e33f,68817205a84113384fffdfe3,6882451c108c085c731023e0,,,,,,,,,,,,,1,,,,,,,,,,,,,,,,,,,,,,,,,,,,,,,,,,,,,71,polvoriento,,,,,372.0805,373.4822,0,0,0.8619,,0,4,4,70,1,REAL,FAKE,,,,,,,,,,,,,,,,,
,,,,,,,,,63d13cb81a0a88a3ce29e33f,spanish,13 or older,"no, only English or Spanish",no,2025-07-24_10h37.56.839,empathy_intonation_perc_control,2024.2.4,Win32,59.88023952,63d13cb81a0a88a3ce29e33f,68817205a84113384fffdfe3,6882451c108c085c731023e0,,,,,,,,,,,,,1,,,,,,,,,,,,,,,,,,,,,,,,,,,,,,,,,,,,,60,matar,,,,,373.4834,374.9155,1,1,0.9004,,0,5,5,59,1,REAL,FAKE,,,,,,,,,,,,,,,,,
,,,,,,,,,63d13cb81a0a88a3ce29e33f,spanish,13 or older,"no, only English or Spanish",no,2025-07-24_10h37.56.839,empathy_intonation_perc_control,2024.2.4,Win32,59.88023952,63d13cb81a0a88a3ce29e33f,68817205a84113384fffdfe3,6882451c108c085c731023e0,,,,,,,,,,,,,1,,,,,,,,,,,,,,,,,,,,,,,,,,,,,,,,,,,,,38,estornudar,,,,,374.9164,376.3779,0,0,0.9201,,0,6,6,37,1,REAL,FAKE,,,,,,,,,,,,,,,,,
,,,,,,,,,63d13cb81a0a88a3ce29e33f,spanish,13 or older,"no, only English or Spanish",no,2025-07-24_10h37.56.839,empathy_intonation_perc_control,2024.2.4,Win32,59.88023952,63d13cb81a0a88a3ce29e33f,68817205a84113384fffdfe3,6882451c108c085c731023e0,,,,,,,,,,,,,0,,,,,,,,,,,,,,,,,,,,,,,,,,,,,,,,,,,,,35,rompido,,,,,376.3797,378.2987,0,1,1.3984,,0,7,7,34,1,REAL,FAKE,,,,,,,,,,,,,,,,,
,,,,,,,,,63d13cb81a0a88a3ce29e33f,spanish,13 or older,"no, only English or Spanish",no,2025-07-24_10h37.56.839,empathy_intonation_perc_control,2024.2.4,Win32,59.88023952,63d13cb81a0a88a3ce29e33f,68817205a84113384fffdfe3,6882451c108c085c731023e0,,,,,,,,,,,,,1,,,,,,,,,,,,,,,,,,,,,,,,,,,,,,,,,,,,,5,zapato,,,,,378.3002,379.6652,1,1,0.8336,,0,8,8,4,1,REAL,FAKE,,,,,,,,,,,,,,,,,
,,,,,,,,,63d13cb81a0a88a3ce29e33f,spanish,13 or older,"no, only English or Spanish",no,2025-07-24_10h37.56.839,empathy_intonation_perc_control,2024.2.4,Win32,59.88023952,63d13cb81a0a88a3ce29e33f,68817205a84113384fffdfe3,6882451c108c085c731023e0,,,,,,,,,,,,,1,,,,,,,,,,,,,,,,,,,,,,,,,,,,,,,,,,,,,49,ganar,,,,,379.6665,381.2651,1,1,1.0639,,0,9,9,48,1,REAL,FAKE,,,,,,,,,,,,,,,,,
,,,,,,,,,63d13cb81a0a88a3ce29e33f,spanish,13 or older,"no, only English or Spanish",no,2025-07-24_10h37.56.839,empathy_intonation_perc_control,2024.2.4,Win32,59.88023952,63d13cb81a0a88a3ce29e33f,68817205a84113384fffdfe3,6882451c108c085c731023e0,,,,,,,,,,,,,1,,,,,,,,,,,,,,,,,,,,,,,,,,,,,,,,,,,,,3,pulmones,,,,,381.2659,382.7775,0,0,0.9634,,0,10,10,2,1,REAL,FAKE,,,,,,,,,,,,,,,,,
,,,,,,,,,63d13cb81a0a88a3ce29e33f,spanish,13 or older,"no, only English or Spanish",no,2025-07-24_10h37.56.839,empathy_intonation_perc_control,2024.2.4,Win32,59.88023952,63d13cb81a0a88a3ce29e33f,68817205a84113384fffdfe3,6882451c108c085c731023e0,,,,,,,,,,,,,0,,,,,,,,,,,,,,,,,,,,,,,,,,,,,,,,,,,,,23,lampera,,,,,382.7791,384.6649,0,1,1.3651,,0,11,11,22,1,REAL,FAKE,,,,,,,,,,,,,,,,,
,,,,,,,,,63d13cb81a0a88a3ce29e33f,spanish,13 or older,"no, only English or Spanish",no,2025-07-24_10h37.56.839,empathy_intonation_perc_control,2024.2.4,Win32,59.88023952,63d13cb81a0a88a3ce29e33f,68817205a84113384fffdfe3,6882451c108c085c731023e0,,,,,,,,,,,,,0,,,,,,,,,,,,,,,,,,,,,,,,,,,,,,,,,,,,,47,cartinar,,,,,384.6659,386.3112,0,1,1.1129,,0,12,12,46,1,REAL,FAKE,,,,,,,,,,,,,,,,,
,,,,,,,,,63d13cb81a0a88a3ce29e33f,spanish,13 or older,"no, only English or Spanish",no,2025-07-24_10h37.56.839,empathy_intonation_perc_control,2024.2.4,Win32,59.88023952,63d13cb81a0a88a3ce29e33f,68817205a84113384fffdfe3,6882451c108c085c731023e0,,,,,,,,,,,,,1,,,,,,,,,,,,,,,,,,,,,,,,,,,,,,,,,,,,,2,pellizcar,,,,,386.3122,387.648,0,0,0.7934,,0,13,13,1,1,REAL,FAKE,,,,,,,,,,,,,,,,,
,,,,,,,,,63d13cb81a0a88a3ce29e33f,spanish,13 or older,"no, only English or Spanish",no,2025-07-24_10h37.56.839,empathy_intonation_perc_control,2024.2.4,Win32,59.88023952,63d13cb81a0a88a3ce29e33f,68817205a84113384fffdfe3,6882451c108c085c731023e0,,,,,,,,,,,,,1,,,,,,,,,,,,,,,,,,,,,,,,,,,,,,,,,,,,,81,pozo,,,,,387.6488,389.3479,1,1,1.1668,,0,14,14,80,1,REAL,FAKE,,,,,,,,,,,,,,,,,
,,,,,,,,,63d13cb81a0a88a3ce29e33f,spanish,13 or older,"no, only English or Spanish",no,2025-07-24_10h37.56.839,empathy_intonation_perc_control,2024.2.4,Win32,59.88023952,63d13cb81a0a88a3ce29e33f,68817205a84113384fffdfe3,6882451c108c085c731023e0,,,,,,,,,,,,,0,,,,,,,,,,,,,,,,,,,,,,,,,,,,,,,,,,,,,29,decar,,,,,389.349,390.581,1,0,0.7115,,0,15,15,28,1,REAL,FAKE,,,,,,,,,,,,,,,,,
,,,,,,,,,63d13cb81a0a88a3ce29e33f,spanish,13 or older,"no, only English or Spanish",no,2025-07-24_10h37.56.839,empathy_intonation_perc_control,2024.2.4,Win32,59.88023952,63d13cb81a0a88a3ce29e33f,68817205a84113384fffdfe3,6882451c108c085c731023e0,,,,,,,,,,,,,0,,,,,,,,,,,,,,,,,,,,,,,,,,,,,,,,,,,,,58,plaudir,,,,,390.5819,391.848,0,1,0.7338,,0,16,16,57,1,REAL,FAKE,,,,,,,,,,,,,,,,,
,,,,,,,,,63d13cb81a0a88a3ce29e33f,spanish,13 or older,"no, only English or Spanish",no,2025-07-24_10h37.56.839,empathy_intonation_perc_control,2024.2.4,Win32,59.88023952,63d13cb81a0a88a3ce29e33f,68817205a84113384fffdfe3,6882451c108c085c731023e0,,,,,,,,,,,,,1,,,,,,,,,,,,,,,,,,,,,,,,,,,,,,,,,,,,,56,musgo,,,,,391.8491,393.2434,0,0,0.8511,,0,17,17,55,1,REAL,FAKE,,,,,,,,,,,,,,,,,
,,,,,,,,,63d13cb81a0a88a3ce29e33f,spanish,13 or older,"no, only English or Spanish",no,2025-07-24_10h37.56.839,empathy_intonation_perc_control,2024.2.4,Win32,59.88023952,63d13cb81a0a88a3ce29e33f,68817205a84113384fffdfe3,6882451c108c085c731023e0,,,,,,,,,,,,,1,,,,,,,,,,,,,,,,,,,,,,,,,,,,,,,,,,,,,25,bisagra,,,,,393.245,394.6601,0,0,0.8742,,0,18,18,24,1,REAL,FAKE,,,,,,,,,,,,,,,,,
,,,,,,,,,63d13cb81a0a88a3ce29e33f,spanish,13 or older,"no, only English or Spanish",no,2025-07-24_10h37.56.839,empathy_intonation_perc_control,2024.2.4,Win32,59.88023952,63d13cb81a0a88a3ce29e33f,68817205a84113384fffdfe3,6882451c108c085c731023e0,,,,,,,,,,,,,0,,,,,,,,,,,,,,,,,,,,,,,,,,,,,,,,,,,,,82,empirador,,,,,394.6618,397.3126,0,1,2.1253,,0,19,19,81,1,REAL,FAKE,,,,,,,,,,,,,,,,,
,,,,,,,,,63d13cb81a0a88a3ce29e33f,spanish,13 or older,"no, only English or Spanish",no,2025-07-24_10h37.56.839,empathy_intonation_perc_control,2024.2.4,Win32,59.88023952,63d13cb81a0a88a3ce29e33f,68817205a84113384fffdfe3,6882451c108c085c731023e0,,,,,,,,,,,,,1,,,,,,,,,,,,,,,,,,,,,,,,,,,,,,,,,,,,,34,aviso,,,,,397.3137,399.1479,1,1,1.301,,0,20,20,33,1,REAL,FAKE,,,,,,,,,,,,,,,,,
,,,,,,,,,63d13cb81a0a88a3ce29e33f,spanish,13 or older,"no, only English or Spanish",no,2025-07-24_10h37.56.839,empathy_intonation_perc_control,2024.2.4,Win32,59.88023952,63d13cb81a0a88a3ce29e33f,68817205a84113384fffdfe3,6882451c108c085c731023e0,,,,,,,,,,,,,1,,,,,,,,,,,,,,,,,,,,,,,,,,,,,,,,,,,,,52,camisa,,,,,399.1489,400.4139,1,1,0.7338,,0,21,21,51,1,REAL,FAKE,,,,,,,,,,,,,,,,,
,,,,,,,,,63d13cb81a0a88a3ce29e33f,spanish,13 or older,"no, only English or Spanish",no,2025-07-24_10h37.56.839,empathy_intonation_perc_control,2024.2.4,Win32,59.88023952,63d13cb81a0a88a3ce29e33f,68817205a84113384fffdfe3,6882451c108c085c731023e0,,,,,,,,,,,,,0,,,,,,,,,,,,,,,,,,,,,,,,,,,,,,,,,,,,,74,cintro,,,,,400.4148,402.0121,1,0,1.0654,,0,22,22,73,1,REAL,FAKE,,,,,,,,,,,,,,,,,
,,,,,,,,,63d13cb81a0a88a3ce29e33f,spanish,13 or older,"no, only English or Spanish",no,2025-07-24_10h37.56.839,empathy_intonation_perc_control,2024.2.4,Win32,59.88023952,63d13cb81a0a88a3ce29e33f,68817205a84113384fffdfe3,6882451c108c085c731023e0,,,,,,,,,,,,,0,,,,,,,,,,,,,,,,,,,,,,,,,,,,,,,,,,,,,27,acutación,,,,,402.0133,404.4461,0,1,1.8928,,0,23,23,26,1,REAL,FAKE,,,,,,,,,,,,,,,,,
,,,,,,,,,63d13cb81a0a88a3ce29e33f,spanish,13 or older,"no, only English or Spanish",no,2025-07-24_10h37.56.839,empathy_intonation_perc_control,2024.2.4,Win32,59.88023952,63d13cb81a0a88a3ce29e33f,68817205a84113384fffdfe3,6882451c108c085c731023e0,,,,,,,,,,,,,1,,,,,,,,,,,,,,,,,,,,,,,,,,,,,,,,,,,,,43,canela,,,,,404.4471,406.6761,1,1,1.7063,,0,24,24,42,1,REAL,FAKE,,,,,,,,,,,,,,,,,
,,,,,,,,,63d13cb81a0a88a3ce29e33f,spanish,13 or older,"no, only English or Spanish",no,2025-07-24_10h37.56.839,empathy_intonation_perc_control,2024.2.4,Win32,59.88023952,63d13cb81a0a88a3ce29e33f,68817205a84113384fffdfe3,6882451c108c085c731023e0,,,,,,,,,,,,,1,,,,,,,,,,,,,,,,,,,,,,,,,,,,,,,,,,,,,24,látigo,,,,,406.6787,408.1258,1,1,0.9231,,0,25,25,23,1,REAL,FAKE,,,,,,,,,,,,,,,,,
,,,,,,,,,63d13cb81a0a88a3ce29e33f,spanish,13 or older,"no, only English or Spanish",no,2025-07-24_10h37.56.839,empathy_intonation_perc_control,2024.2.4,Win32,59.88023952,63d13cb81a0a88a3ce29e33f,68817205a84113384fffdfe3,6882451c108c085c731023e0,,,,,,,,,,,,,1,,,,,,,,,,,,,,,,,,,,,,,,,,,,,,,,,,,,,15,regar,,,,,408.1276,409.5592,1,1,0.9062,,0,26,26,14,1,REAL,FAKE,,,,,,,,,,,,,,,,,
,,,,,,,,,63d13cb81a0a88a3ce29e33f,spanish,13 or older,"no, only English or Spanish",no,2025-07-24_10h37.56.839,empathy_intonation_perc_control,2024.2.4,Win32,59.88023952,63d13cb81a0a88a3ce29e33f,68817205a84113384fffdfe3,6882451c108c085c731023e0,,,,,,,,,,,,,1,,,,,,,,,,,,,,,,,,,,,,,,,,,,,,,,,,,,,76,atar,,,,,409.5612,410.9791,0,0,0.883,,0,27,27,75,1,REAL,FAKE,,,,,,,,,,,,,,,,,
,,,,,,,,,63d13cb81a0a88a3ce29e33f,spanish,13 or older,"no, only English or Spanish",no,2025-07-24_10h37.56.839,empathy_intonation_perc_control,2024.2.4,Win32,59.88023952,63d13cb81a0a88a3ce29e33f,68817205a84113384fffdfe3,6882451c108c085c731023e0,,,,,,,,,,,,,1,,,,,,,,,,,,,,,,,,,,,,,,,,,,,,,,,,,,,26,secuestro,,,,,410.98,413.1768,1,1,1.6496,,0,28,28,25,1,REAL,FAKE,,,,,,,,,,,,,,,,,
,,,,,,,,,63d13cb81a0a88a3ce29e33f,spanish,13 or older,"no, only English or Spanish",no,2025-07-24_10h37.56.839,empathy_intonation_perc_control,2024.2.4,Win32,59.88023952,63d13cb81a0a88a3ce29e33f,68817205a84113384fffdfe3,6882451c108c085c731023e0,,,,,,,,,,,,,1,,,,,,,,,,,,,,,,,,,,,,,,,,,,,,,,,,,,,61,seda,,,,,413.1779,414.4598,0,0,0.7463,,0,29,29,60,1,REAL,FAKE,,,,,,,,,,,,,,,,,
,,,,,,,,,63d13cb81a0a88a3ce29e33f,spanish,13 or older,"no, only English or Spanish",no,2025-07-24_10h37.56.839,empathy_intonation_perc_control,2024.2.4,Win32,59.88023952,63d13cb81a0a88a3ce29e33f,68817205a84113384fffdfe3,6882451c108c085c731023e0,,,,,,,,,,,,,1,,,,,,,,,,,,,,,,,,,,,,,,,,,,,,,,,,,,,64,orgulloso,,,,,414.4611,415.6253,0,0,0.6237,,0,30,30,63,1,REAL,FAKE,,,,,,,,,,,,,,,,,
,,,,,,,,,63d13cb81a0a88a3ce29e33f,spanish,13 or older,"no, only English or Spanish",no,2025-07-24_10h37.56.839,empathy_intonation_perc_control,2024.2.4,Win32,59.88023952,63d13cb81a0a88a3ce29e33f,68817205a84113384fffdfe3,6882451c108c085c731023e0,,,,,,,,,,,,,0,,,,,,,,,,,,,,,,,,,,,,,,,,,,,,,,,,,,,8,cadeña,,,,,415.6278,417.4919,0,1,1.3227,,0,31,31,7,1,REAL,FAKE,,,,,,,,,,,,,,,,,
,,,,,,,,,63d13cb81a0a88a3ce29e33f,spanish,13 or older,"no, only English or Spanish",no,2025-07-24_10h37.56.839,empathy_intonation_perc_control,2024.2.4,Win32,59.88023952,63d13cb81a0a88a3ce29e33f,68817205a84113384fffdfe3,6882451c108c085c731023e0,,,,,,,,,,,,,1,,,,,,,,,,,,,,,,,,,,,,,,,,,,,,,,,,,,,73,hervidor,,,,,417.4934,419.0294,0,0,1.0092,,0,32,32,72,1,REAL,FAKE,,,,,,,,,,,,,,,,,
,,,,,,,,,63d13cb81a0a88a3ce29e33f,spanish,13 or older,"no, only English or Spanish",no,2025-07-24_10h37.56.839,empathy_intonation_perc_control,2024.2.4,Win32,59.88023952,63d13cb81a0a88a3ce29e33f,68817205a84113384fffdfe3,6882451c108c085c731023e0,,,,,,,,,,,,,0,,,,,,,,,,,,,,,,,,,,,,,,,,,,,,,,,,,,,17,floroso,,,,,419.0306,421.2959,1,0,1.7336,,0,33,33,16,1,REAL,FAKE,,,,,,,,,,,,,,,,,
,,,,,,,,,63d13cb81a0a88a3ce29e33f,spanish,13 or older,"no, only English or Spanish",no,2025-07-24_10h37.56.839,empathy_intonation_perc_control,2024.2.4,Win32,59.88023952,63d13cb81a0a88a3ce29e33f,68817205a84113384fffdfe3,6882451c108c085c731023e0,,,,,,,,,,,,,1,,,,,,,,,,,,,,,,,,,,,,,,,,,,,,,,,,,,,91,click the 1 key.,,,,,421.2978,422.9624,1,1,1.1259,,0,34,34,90,1,REAL,FAKE,,,,,,,,,,,,,,,,,
,,,,,,,,,63d13cb81a0a88a3ce29e33f,spanish,13 or older,"no, only English or Spanish",no,2025-07-24_10h37.56.839,empathy_intonation_perc_control,2024.2.4,Win32,59.88023952,63d13cb81a0a88a3ce29e33f,68817205a84113384fffdfe3,6882451c108c085c731023e0,,,,,,,,,,,,,1,,,,,,,,,,,,,,,,,,,,,,,,,,,,,,,,,,,,,67,cabello,,,,,422.9634,424.3462,1,1,0.8509,,0,35,35,66,1,REAL,FAKE,,,,,,,,,,,,,,,,,
,,,,,,,,,63d13cb81a0a88a3ce29e33f,spanish,13 or older,"no, only English or Spanish",no,2025-07-24_10h37.56.839,empathy_intonation_perc_control,2024.2.4,Win32,59.88023952,63d13cb81a0a88a3ce29e33f,68817205a84113384fffdfe3,6882451c108c085c731023e0,,,,,,,,,,,,,1,,,,,,,,,,,,,,,,,,,,,,,,,,,,,,,,,,,,,28,merodear,,,,,424.3473,425.7623,0,0,0.8778,,0,36,36,27,1,REAL,FAKE,,,,,,,,,,,,,,,,,
,,,,,,,,,63d13cb81a0a88a3ce29e33f,spanish,13 or older,"no, only English or Spanish",no,2025-07-24_10h37.56.839,empathy_intonation_perc_control,2024.2.4,Win32,59.88023952,63d13cb81a0a88a3ce29e33f,68817205a84113384fffdfe3,6882451c108c085c731023e0,,,,,,,,,,,,,1,,,,,,,,,,,,,,,,,,,,,,,,,,,,,,,,,,,,,89,prisa,,,,,425.7631,426.9606,1,1,0.6652,,0,37,37,88,1,REAL,FAKE,,,,,,,,,,,,,,,,,
,,,,,,,,,63d13cb81a0a88a3ce29e33f,spanish,13 or older,"no, only English or Spanish",no,2025-07-24_10h37.56.839,empathy_intonation_perc_control,2024.2.4,Win32,59.88023952,63d13cb81a0a88a3ce29e33f,68817205a84113384fffdfe3,6882451c108c085c731023e0,,,,,,,,,,,,,1,,,,,,,,,,,,,,,,,,,,,,,,,,,,,,,,,,,,,78,frondoso,,,,,426.9614,428.1745,0,0,0.6732,,0,38,38,77,1,REAL,FAKE,,,,,,,,,,,,,,,,,
,,,,,,,,,63d13cb81a0a88a3ce29e33f,spanish,13 or older,"no, only English or Spanish",no,2025-07-24_10h37.56.839,empathy_intonation_perc_control,2024.2.4,Win32,59.88023952,63d13cb81a0a88a3ce29e33f,68817205a84113384fffdfe3,6882451c108c085c731023e0,,,,,,,,,,,,,1,,,,,,,,,,,,,,,,,,,,,,,,,,,,,,,,,,,,,80,hormiga,,,,,428.1762,429.6123,0,0,0.9174,0.0002,0,39,39,79,1,REAL,FAKE,,,,,,,,,,,,,,,,,
,,,,,,,,,63d13cb81a0a88a3ce29e33f,spanish,13 or older,"no, only English or Spanish",no,2025-07-24_10h37.56.839,empathy_intonation_perc_control,2024.2.4,Win32,59.88023952,63d13cb81a0a88a3ce29e33f,68817205a84113384fffdfe3,6882451c108c085c731023e0,,,,,,,,,,,,,0,,,,,,,,,,,,,,,,,,,,,,,,,,,,,,,,,,,,,19,brecedad,,,,,429.6131,430.891,0,1,0.7264,,0,40,40,18,1,REAL,FAKE,,,,,,,,,,,,,,,,,
,,,,,,,,,63d13cb81a0a88a3ce29e33f,spanish,13 or older,"no, only English or Spanish",no,2025-07-24_10h37.56.839,empathy_intonation_perc_control,2024.2.4,Win32,59.88023952,63d13cb81a0a88a3ce29e33f,68817205a84113384fffdfe3,6882451c108c085c731023e0,,,,,,,,,,,,,1,,,,,,,,,,,,,,,,,,,,,,,,,,,,,,,,,,,,,39,torpe,,,,,430.8928,432.2244,0,0,0.8032,,0,41,41,38,1,REAL,FAKE,,,,,,,,,,,,,,,,,
,,,,,,,,,63d13cb81a0a88a3ce29e33f,spanish,13 or older,"no, only English or Spanish",no,2025-07-24_10h37.56.839,empathy_intonation_perc_control,2024.2.4,Win32,59.88023952,63d13cb81a0a88a3ce29e33f,68817205a84113384fffdfe3,6882451c108c085c731023e0,,,,,,,,,,,,,1,,,,,,,,,,,,,,,,,,,,,,,,,,,,,,,,,,,,,9,hacha,,,,,432.226,434.1073,0,0,1.3412,,0,42,42,8,1,REAL,FAKE,,,,,,,,,,,,,,,,,
,,,,,,,,,63d13cb81a0a88a3ce29e33f,spanish,13 or older,"no, only English or Spanish",no,2025-07-24_10h37.56.839,empathy_intonation_perc_control,2024.2.4,Win32,59.88023952,63d13cb81a0a88a3ce29e33f,68817205a84113384fffdfe3,6882451c108c085c731023e0,,,,,,,,,,,,,1,,,,,,,,,,,,,,,,,,,,,,,,,,,,,,,,,,,,,44,cuchara,,,,,434.1084,435.5407,1,1,0.8973,,0,43,43,43,1,REAL,FAKE,,,,,,,,,,,,,,,,,
,,,,,,,,,63d13cb81a0a88a3ce29e33f,spanish,13 or older,"no, only English or Spanish",no,2025-07-24_10h37.56.839,empathy_intonation_perc_control,2024.2.4,Win32,59.88023952,63d13cb81a0a88a3ce29e33f,68817205a84113384fffdfe3,6882451c108c085c731023e0,,,,,,,,,,,,,1,,,,,,,,,,,,,,,,,,,,,,,,,,,,,,,,,,,,,88,acantilado,,,,,435.5427,437.1403,0,0,1.0538,,0,44,44,87,1,REAL,FAKE,,,,,,,,,,,,,,,,,
,,,,,,,,,63d13cb81a0a88a3ce29e33f,spanish,13 or older,"no, only English or Spanish",no,2025-07-24_10h37.56.839,empathy_intonation_perc_control,2024.2.4,Win32,59.88023952,63d13cb81a0a88a3ce29e33f,68817205a84113384fffdfe3,6882451c108c085c731023e0,,,,,,,,,,,,,0,,,,,,,,,,,,,,,,,,,,,,,,,,,,,,,,,,,,,63,esposante,,,,,437.1415,439.0904,1,0,1.4103,,0,45,45,62,1,REAL,FAKE,,,,,,,,,,,,,,,,,
,,,,,,,,,63d13cb81a0a88a3ce29e33f,spanish,13 or older,"no, only English or Spanish",no,2025-07-24_10h37.56.839,empathy_intonation_perc_control,2024.2.4,Win32,59.88023952,63d13cb81a0a88a3ce29e33f,68817205a84113384fffdfe3,6882451c108c085c731023e0,,,,,,,,,,,,,1,,,,,,,,,,,,,,,,,,,,,,,,,,,,,,,,,,,,,65,bizcocho,,,,,439.0924,440.4902,0,0,0.8586,,0,46,46,64,1,REAL,FAKE,,,,,,,,,,,,,,,,,
,,,,,,,,,63d13cb81a0a88a3ce29e33f,spanish,13 or older,"no, only English or Spanish",no,2025-07-24_10h37.56.839,empathy_intonation_perc_control,2024.2.4,Win32,59.88023952,63d13cb81a0a88a3ce29e33f,68817205a84113384fffdfe3,6882451c108c085c731023e0,,,,,,,,,,,,,1,,,,,,,,,,,,,,,,,,,,,,,,,,,,,,,,,,,,,62,flaco,,,,,440.4914,441.7404,1,1,0.7132,,0,47,47,61,1,REAL,FAKE,,,,,,,,,,,,,,,,,
,,,,,,,,,63d13cb81a0a88a3ce29e33f,spanish,13 or older,"no, only English or Spanish",no,2025-07-24_10h37.56.839,empathy_intonation_perc_control,2024.2.4,Win32,59.88023952,63d13cb81a0a88a3ce29e33f,68817205a84113384fffdfe3,6882451c108c085c731023e0,,,,,,,,,,,,,0,,,,,,,,,,,,,,,,,,,,,,,,,,,,,,,,,,,,,42,cadallo,,,,,441.742,443.0407,1,0,0.7639,,0,48,48,41,1,REAL,FAKE,,,,,,,,,,,,,,,,,
,,,,,,,,,63d13cb81a0a88a3ce29e33f,spanish,13 or older,"no, only English or Spanish",no,2025-07-24_10h37.56.839,empathy_intonation_perc_control,2024.2.4,Win32,59.88023952,63d13cb81a0a88a3ce29e33f,68817205a84113384fffdfe3,6882451c108c085c731023e0,,,,,,,,,,,,,1,,,,,,,,,,,,,,,,,,,,,,,,,,,,,,,,,,,,,75,yacer,,,,,443.0419,444.5903,0,0,1.0125,,0,49,49,74,1,REAL,FAKE,,,,,,,,,,,,,,,,,
,,,,,,,,,63d13cb81a0a88a3ce29e33f,spanish,13 or older,"no, only English or Spanish",no,2025-07-24_10h37.56.839,empathy_intonation_perc_control,2024.2.4,Win32,59.88023952,63d13cb81a0a88a3ce29e33f,68817205a84113384fffdfe3,6882451c108c085c731023e0,,,,,,,,,,,,,1,,,,,,,,,,,,,,,,,,,,,,,,,,,,,,,,,,,,,54,fomentar,,,,,444.5914,446.0232,1,1,0.8914,,0,50,50,53,1,REAL,FAKE,,,,,,,,,,,,,,,,,
,,,,,,,,,63d13cb81a0a88a3ce29e33f,spanish,13 or older,"no, only English or Spanish",no,2025-07-24_10h37.56.839,empathy_intonation_perc_control,2024.2.4,Win32,59.88023952,63d13cb81a0a88a3ce29e33f,68817205a84113384fffdfe3,6882451c108c085c731023e0,,,,,,,,,,,,,0,,,,,,,,,,,,,,,,,,,,,,,,,,,,,,,,,,,,,33,pauca,,,,,446.0246,447.2564,0,1,0.7039,,0,51,51,32,1,REAL,FAKE,,,,,,,,,,,,,,,,,
,,,,,,,,,63d13cb81a0a88a3ce29e33f,spanish,13 or older,"no, only English or Spanish",no,2025-07-24_10h37.56.839,empathy_intonation_perc_control,2024.2.4,Win32,59.88023952,63d13cb81a0a88a3ce29e33f,68817205a84113384fffdfe3,6882451c108c085c731023e0,,,,,,,,,,,,,1,,,,,,,,,,,,,,,,,,,,,,,,,,,,,,,,,,,,,6,tergiversar,,,,,447.2577,448.5067,0,0,0.7081,,0,52,52,5,1,REAL,FAKE,,,,,,,,,,,,,,,,,
,,,,,,,,,63d13cb81a0a88a3ce29e33f,spanish,13 or older,"no, only English or Spanish",no,2025-07-24_10h37.56.839,empathy_intonation_perc_control,2024.2.4,Win32,59.88023952,63d13cb81a0a88a3ce29e33f,68817205a84113384fffdfe3,6882451c108c085c731023e0,,,,,,,,,,,,,0,,,,,,,,,,,,,,,,,,,,,,,,,,,,,,,,,,,,,70,temblo,,,,,448.5076,449.7563,0,1,0.7137,,0,53,53,69,1,REAL,FAKE,,,,,,,,,,,,,,,,,
,,,,,,,,,63d13cb81a0a88a3ce29e33f,spanish,13 or older,"no, only English or Spanish",no,2025-07-24_10h37.56.839,empathy_intonation_perc_control,2024.2.4,Win32,59.88023952,63d13cb81a0a88a3ce29e33f,68817205a84113384fffdfe3,6882451c108c085c731023e0,,,,,,,,,,,,,0,,,,,,,,,,,,,,,,,,,,,,,,,,,,,,,,,,,,,50,flamida,,,,,449.7577,451.2396,1,0,0.9505,,0,54,54,49,1,REAL,FAKE,,,,,,,,,,,,,,,,,
,,,,,,,,,63d13cb81a0a88a3ce29e33f,spanish,13 or older,"no, only English or Spanish",no,2025-07-24_10h37.56.839,empathy_intonation_perc_control,2024.2.4,Win32,59.88023952,63d13cb81a0a88a3ce29e33f,68817205a84113384fffdfe3,6882451c108c085c731023e0,,,,,,,,,,,,,0,,,,,,,,,,,,,,,,,,,,,,,,,,,,,,,,,,,,,53,vegada,,,,,451.2408,452.7895,1,0,1.0174,,0,55,55,52,1,REAL,FAKE,,,,,,,,,,,,,,,,,
,,,,,,,,,63d13cb81a0a88a3ce29e33f,spanish,13 or older,"no, only English or Spanish",no,2025-07-24_10h37.56.839,empathy_intonation_perc_control,2024.2.4,Win32,59.88023952,63d13cb81a0a88a3ce29e33f,68817205a84113384fffdfe3,6882451c108c085c731023e0,,,,,,,,,,,,,0,,,,,,,,,,,,,,,,,,,,,,,,,,,,,,,,,,,,,66,hacido,,,,,452.791,454.1062,1,0,0.7687,,0,56,56,65,1,REAL,FAKE,,,,,,,,,,,,,,,,,
,,,,,,,,,63d13cb81a0a88a3ce29e33f,spanish,13 or older,"no, only English or Spanish",no,2025-07-24_10h37.56.839,empathy_intonation_perc_control,2024.2.4,Win32,59.88023952,63d13cb81a0a88a3ce29e33f,68817205a84113384fffdfe3,6882451c108c085c731023e0,,,,,,,,,,,,,1,,,,,,,,,,,,,,,,,,,,,,,,,,,,,,,,,,,,,85,laúd,,,,,454.1081,455.3395,0,0,0.6987,,0,57,57,84,1,REAL,FAKE,,,,,,,,,,,,,,,,,
,,,,,,,,,63d13cb81a0a88a3ce29e33f,spanish,13 or older,"no, only English or Spanish",no,2025-07-24_10h37.56.839,empathy_intonation_perc_control,2024.2.4,Win32,59.88023952,63d13cb81a0a88a3ce29e33f,68817205a84113384fffdfe3,6882451c108c085c731023e0,,,,,,,,,,,,,1,,,,,,,,,,,,,,,,,,,,,,,,,,,,,,,,,,,,,55,nevar,,,,,455.3411,456.8727,0,0,0.9936,,0,58,58,54,1,REAL,FAKE,,,,,,,,,,,,,,,,,
,,,,,,,,,63d13cb81a0a88a3ce29e33f,spanish,13 or older,"no, only English or Spanish",no,2025-07-24_10h37.56.839,empathy_intonation_perc_control,2024.2.4,Win32,59.88023952,63d13cb81a0a88a3ce29e33f,68817205a84113384fffdfe3,6882451c108c085c731023e0,,,,,,,,,,,,,0,,,,,,,,,,,,,,,,,,,,,,,,,,,,,,,,,,,,,92,click the 0 key.,,,,,456.8743,458.656,0,1,1.2482,,0,59,59,91,1,REAL,FAKE,,,,,,,,,,,,,,,,,
,,,,,,,,,63d13cb81a0a88a3ce29e33f,spanish,13 or older,"no, only English or Spanish",no,2025-07-24_10h37.56.839,empathy_intonation_perc_control,2024.2.4,Win32,59.88023952,63d13cb81a0a88a3ce29e33f,68817205a84113384fffdfe3,6882451c108c085c731023e0,,,,,,,,,,,,,0,,,,,,,,,,,,,,,,,,,,,,,,,,,,,,,,,,,,,1,terzo,,,,,458.6576,459.7905,0,1,0.6095,,0,60,60,0,1,REAL,FAKE,,,,,,,,,,,,,,,,,
,,,,,,,,,63d13cb81a0a88a3ce29e33f,spanish,13 or older,"no, only English or Spanish",no,2025-07-24_10h37.56.839,empathy_intonation_perc_control,2024.2.4,Win32,59.88023952,63d13cb81a0a88a3ce29e33f,68817205a84113384fffdfe3,6882451c108c085c731023e0,,,,,,,,,,,,,1,,,,,,,,,,,,,,,,,,,,,,,,,,,,,,,,,,,,,12,asesinato,,,,,459.7915,461.1223,0,0,0.79,,0,61,61,11,1,REAL,FAKE,,,,,,,,,,,,,,,,,
,,,,,,,,,63d13cb81a0a88a3ce29e33f,spanish,13 or older,"no, only English or Spanish",no,2025-07-24_10h37.56.839,empathy_intonation_perc_control,2024.2.4,Win32,59.88023952,63d13cb81a0a88a3ce29e33f,68817205a84113384fffdfe3,6882451c108c085c731023e0,,,,,,,,,,,,,1,,,,,,,,,,,,,,,,,,,,,,,,,,,,,,,,,,,,,40,alfombra,,,,,461.1235,463.0227,0,0,1.3589,,0,62,62,39,1,REAL,FAKE,,,,,,,,,,,,,,,,,
,,,,,,,,,63d13cb81a0a88a3ce29e33f,spanish,13 or older,"no, only English or Spanish",no,2025-07-24_10h37.56.839,empathy_intonation_perc_control,2024.2.4,Win32,59.88023952,63d13cb81a0a88a3ce29e33f,68817205a84113384fffdfe3,6882451c108c085c731023e0,,,,,,,,,,,,,1,,,,,,,,,,,,,,,,,,,,,,,,,,,,,,,,,,,,,45,jilguero,,,,,463.0246,464.9389,0,0,1.3777,,0,63,63,44,1,REAL,FAKE,,,,,,,,,,,,,,,,,
,,,,,,,,,63d13cb81a0a88a3ce29e33f,spanish,13 or older,"no, only English or Spanish",no,2025-07-24_10h37.56.839,empathy_intonation_perc_control,2024.2.4,Win32,59.88023952,63d13cb81a0a88a3ce29e33f,68817205a84113384fffdfe3,6882451c108c085c731023e0,,,,,,,,,,,,,1,,,,,,,,,,,,,,,,,,,,,,,,,,,,,,,,,,,,,14,yunque,,,,,464.9406,466.2886,0,0,0.8144,,0,64,64,13,1,REAL,FAKE,,,,,,,,,,,,,,,,,
,,,,,,,,,63d13cb81a0a88a3ce29e33f,spanish,13 or older,"no, only English or Spanish",no,2025-07-24_10h37.56.839,empathy_intonation_perc_control,2024.2.4,Win32,59.88023952,63d13cb81a0a88a3ce29e33f,68817205a84113384fffdfe3,6882451c108c085c731023e0,,,,,,,,,,,,,1,,,,,,,,,,,,,,,,,,,,,,,,,,,,,,,,,,,,,31,pandilla,,,,,466.29,467.872,1,1,1.0444,,0,65,65,30,1,REAL,FAKE,,,,,,,,,,,,,,,,,
,,,,,,,,,63d13cb81a0a88a3ce29e33f,spanish,13 or older,"no, only English or Spanish",no,2025-07-24_10h37.56.839,empathy_intonation_perc_control,2024.2.4,Win32,59.88023952,63d13cb81a0a88a3ce29e33f,68817205a84113384fffdfe3,6882451c108c085c731023e0,,,,,,,,,,,,,0,,,,,,,,,,,,,,,,,,,,,,,,,,,,,,,,,,,,,18,arsa,,,,,467.8738,469.2386,0,1,0.8376,,0,66,66,17,1,REAL,FAKE,,,,,,,,,,,,,,,,,
,,,,,,,,,63d13cb81a0a88a3ce29e33f,spanish,13 or older,"no, only English or Spanish",no,2025-07-24_10h37.56.839,empathy_intonation_perc_control,2024.2.4,Win32,59.88023952,63d13cb81a0a88a3ce29e33f,68817205a84113384fffdfe3,6882451c108c085c731023e0,,,,,,,,,,,,,1,,,,,,,,,,,,,,,,,,,,,,,,,,,,,,,,,,,,,48,ladrón,,,,,469.2404,470.9386,1,1,1.1636,,0,67,67,47,1,REAL,FAKE,,,,,,,,,,,,,,,,,
,,,,,,,,,63d13cb81a0a88a3ce29e33f,spanish,13 or older,"no, only English or Spanish",no,2025-07-24_10h37.56.839,empathy_intonation_perc_control,2024.2.4,Win32,59.88023952,63d13cb81a0a88a3ce29e33f,68817205a84113384fffdfe3,6882451c108c085c731023e0,,,,,,,,,,,,,1,,,,,,,,,,,,,,,,,,,,,,,,,,,,,,,,,,,,,51,candado,,,,,470.9397,472.7051,1,1,1.2437,,0,68,68,50,1,REAL,FAKE,,,,,,,,,,,,,,,,,
,,,,,,,,,63d13cb81a0a88a3ce29e33f,spanish,13 or older,"no, only English or Spanish",no,2025-07-24_10h37.56.839,empathy_intonation_perc_control,2024.2.4,Win32,59.88023952,63d13cb81a0a88a3ce29e33f,68817205a84113384fffdfe3,6882451c108c085c731023e0,,,,,,,,,,,,,1,,,,,,,,,,,,,,,,,,,,,,,,,,,,,,,,,,,,,68,alegre,,,,,472.7063,474.1052,1,1,0.8573,,0,69,69,67,1,REAL,FAKE,,,,,,,,,,,,,,,,,
,,,,,,,,,63d13cb81a0a88a3ce29e33f,spanish,13 or older,"no, only English or Spanish",no,2025-07-24_10h37.56.839,empathy_intonation_perc_control,2024.2.4,Win32,59.88023952,63d13cb81a0a88a3ce29e33f,68817205a84113384fffdfe3,6882451c108c085c731023e0,,,,,,,,,,,,,1,,,,,,,,,,,,,,,,,,,,,,,,,,,,,,,,,,,,,7,pésimo,,,,,474.1064,475.605,1,1,0.9733,,0,70,70,6,1,REAL,FAKE,,,,,,,,,,,,,,,,,
,,,,,,,,,63d13cb81a0a88a3ce29e33f,spanish,13 or older,"no, only English or Spanish",no,2025-07-24_10h37.56.839,empathy_intonation_perc_control,2024.2.4,Win32,59.88023952,63d13cb81a0a88a3ce29e33f,68817205a84113384fffdfe3,6882451c108c085c731023e0,,,,,,,,,,,,,0,,,,,,,,,,,,,,,,,,,,,,,,,,,,,,,,,,,,,16,abracer,,,,,475.6063,477.5048,0,1,1.3571,,0,71,71,15,1,REAL,FAKE,,,,,,,,,,,,,,,,,
,,,,,,,,,63d13cb81a0a88a3ce29e33f,spanish,13 or older,"no, only English or Spanish",no,2025-07-24_10h37.56.839,empathy_intonation_perc_control,2024.2.4,Win32,59.88023952,63d13cb81a0a88a3ce29e33f,68817205a84113384fffdfe3,6882451c108c085c731023e0,,,,,,,,,,,,,1,,,,,,,,,,,,,,,,,,,,,,,,,,,,,,,,,,,,,90,clavel,,,,,477.5061,478.6716,0,0,0.6228,,0,72,72,89,1,REAL,FAKE,,,,,,,,,,,,,,,,,
,,,,,,,,,63d13cb81a0a88a3ce29e33f,spanish,13 or older,"no, only English or Spanish",no,2025-07-24_10h37.56.839,empathy_intonation_perc_control,2024.2.4,Win32,59.88023952,63d13cb81a0a88a3ce29e33f,68817205a84113384fffdfe3,6882451c108c085c731023e0,,,,,,,,,,,,,1,,,,,,,,,,,,,,,,,,,,,,,,,,,,,,,,,,,,,77,tiburón,,,,,478.6729,479.9712,1,1,0.7679,,0,73,73,76,1,REAL,FAKE,,,,,,,,,,,,,,,,,
,,,,,,,,,63d13cb81a0a88a3ce29e33f,spanish,13 or older,"no, only English or Spanish",no,2025-07-24_10h37.56.839,empathy_intonation_perc_control,2024.2.4,Win32,59.88023952,63d13cb81a0a88a3ce29e33f,68817205a84113384fffdfe3,6882451c108c085c731023e0,,,,,,,,,,,,,1,,,,,,,,,,,,,,,,,,,,,,,,,,,,,,,,,,,,,57,tacaño,,,,,479.973,481.7213,1,1,1.213,,0,74,74,56,1,REAL,FAKE,,,,,,,,,,,,,,,,,
,,,,,,,,,63d13cb81a0a88a3ce29e33f,spanish,13 or older,"no, only English or Spanish",no,2025-07-24_10h37.56.839,empathy_intonation_perc_control,2024.2.4,Win32,59.88023952,63d13cb81a0a88a3ce29e33f,68817205a84113384fffdfe3,6882451c108c085c731023e0,,,,,,,,,,,,,0,,,,,,,,,,,,,,,,,,,,,,,,,,,,,,,,,,,,,87,grodo,,,,,481.7223,482.9212,0,1,0.6548,,0,75,75,86,1,REAL,FAKE,,,,,,,,,,,,,,,,,
,,,,,,,,,63d13cb81a0a88a3ce29e33f,spanish,13 or older,"no, only English or Spanish",no,2025-07-24_10h37.56.839,empathy_intonation_perc_control,2024.2.4,Win32,59.88023952,63d13cb81a0a88a3ce29e33f,68817205a84113384fffdfe3,6882451c108c085c731023e0,,,,,,,,,,,,,1,,,,,,,,,,,,,,,,,,,,,,,,,,,,,,,,,,,,,86,barato,,,,,482.9228,484.0045,0,0,0.5463,,0,76,76,85,1,REAL,FAKE,,,,,,,,,,,,,,,,,
,,,,,,,,,63d13cb81a0a88a3ce29e33f,spanish,13 or older,"no, only English or Spanish",no,2025-07-24_10h37.56.839,empathy_intonation_perc_control,2024.2.4,Win32,59.88023952,63d13cb81a0a88a3ce29e33f,68817205a84113384fffdfe3,6882451c108c085c731023e0,,,,,,,,,,,,,0,,,,,,,,,,,,,,,,,,,,,,,,,,,,,,,,,,,,,72,pemición,,,,,484.0057,486.0041,1,0,1.4663,,0,77,77,71,1,REAL,FAKE,,,,,,,,,,,,,,,,,
,,,,,,,,,63d13cb81a0a88a3ce29e33f,spanish,13 or older,"no, only English or Spanish",no,2025-07-24_10h37.56.839,empathy_intonation_perc_control,2024.2.4,Win32,59.88023952,63d13cb81a0a88a3ce29e33f,68817205a84113384fffdfe3,6882451c108c085c731023e0,,,,,,,,,,,,,1,,,,,,,,,,,,,,,,,,,,,,,,,,,,,,,,,,,,,59,besar,,,,,486.0054,487.2545,1,1,0.7163,,0,78,78,58,1,REAL,FAKE,,,,,,,,,,,,,,,,,
,,,,,,,,,63d13cb81a0a88a3ce29e33f,spanish,13 or older,"no, only English or Spanish",no,2025-07-24_10h37.56.839,empathy_intonation_perc_control,2024.2.4,Win32,59.88023952,63d13cb81a0a88a3ce29e33f,68817205a84113384fffdfe3,6882451c108c085c731023e0,,,,,,,,,,,,,1,,,,,,,,,,,,,,,,,,,,,,,,,,,,,,,,,,,,,46,martillo,,,,,487.2554,488.7373,1,1,0.9514,,0,79,79,45,1,REAL,FAKE,,,,,,,,,,,,,,,,,
,,,,,,,,,63d13cb81a0a88a3ce29e33f,spanish,13 or older,"no, only English or Spanish",no,2025-07-24_10h37.56.839,empathy_intonation_perc_control,2024.2.4,Win32,59.88023952,63d13cb81a0a88a3ce29e33f,68817205a84113384fffdfe3,6882451c108c085c731023e0,,,,,,,,,,,,,1,,,,,,,,,,,,,,,,,,,,,,,,,,,,,,,,,,,,,13,helar,,,,,488.7383,490.192,0,0,0.932,,0,80,80,12,1,REAL,FAKE,,,,,,,,,,,,,,,,,
,,,,,,,,,63d13cb81a0a88a3ce29e33f,spanish,13 or older,"no, only English or Spanish",no,2025-07-24_10h37.56.839,empathy_intonation_perc_control,2024.2.4,Win32,59.88023952,63d13cb81a0a88a3ce29e33f,68817205a84113384fffdfe3,6882451c108c085c731023e0,,,,,,,,,,,,,1,,,,,,,,,,,,,,,,,,,,,,,,,,,,,,,,,,,,,69,engatusar,,,,,490.1936,491.3585,0,0,0.6279,,0,81,81,68,1,REAL,FAKE,,,,,,,,,,,,,,,,,
,,,,,,,,,63d13cb81a0a88a3ce29e33f,spanish,13 or older,"no, only English or Spanish",no,2025-07-24_10h37.56.839,empathy_intonation_perc_control,2024.2.4,Win32,59.88023952,63d13cb81a0a88a3ce29e33f,68817205a84113384fffdfe3,6882451c108c085c731023e0,,,,,,,,,,,,,0,,,,,,,,,,,,,,,,,,,,,,,,,,,,,,,,,,,,,79,tropaje,,,,,491.3593,493.8915,0,1,2.0005,,0,82,82,78,1,REAL,FAKE,,,,,,,,,,,,,,,,,
,,,,,,,,,63d13cb81a0a88a3ce29e33f,spanish,13 or older,"no, only English or Spanish",no,2025-07-24_10h37.56.839,empathy_intonation_perc_control,2024.2.4,Win32,59.88023952,63d13cb81a0a88a3ce29e33f,68817205a84113384fffdfe3,6882451c108c085c731023e0,,,,,,,,,,,,,1,,,,,,,,,,,,,,,,,,,,,,,,,,,,,,,,,,,,,11,cenefa,,,,,493.8923,494.9912,0,0,0.5672,,0,83,83,10,1,REAL,FAKE,,,,,,,,,,,,,,,,,
,,,,,,,,,63d13cb81a0a88a3ce29e33f,spanish,13 or older,"no, only English or Spanish",no,2025-07-24_10h37.56.839,empathy_intonation_perc_control,2024.2.4,Win32,59.88023952,63d13cb81a0a88a3ce29e33f,68817205a84113384fffdfe3,6882451c108c085c731023e0,,,,,,,,,,,,,1,,,,,,,,,,,,,,,,,,,,,,,,,,,,,,,,,,,,,20,ávido,,,,,494.9925,496.5414,1,1,1.0169,,0,84,84,19,1,REAL,FAKE,,,,,,,,,,,,,,,,,
,,,,,,,,,63d13cb81a0a88a3ce29e33f,spanish,13 or older,"no, only English or Spanish",no,2025-07-24_10h37.56.839,empathy_intonation_perc_control,2024.2.4,Win32,59.88023952,63d13cb81a0a88a3ce29e33f,68817205a84113384fffdfe3,6882451c108c085c731023e0,,,,,,,,,,,,,1,,,,,,,,,,,,,,,,,,,,,,,,,,,,,,,,,,,,,83,guante,,,,,496.5423,497.8249,0,0,0.7499,,0,85,85,82,1,REAL,FAKE,,,,,,,,,,,,,,,,,
,,,,,,,,,63d13cb81a0a88a3ce29e33f,spanish,13 or older,"no, only English or Spanish",no,2025-07-24_10h37.56.839,empathy_intonation_perc_control,2024.2.4,Win32,59.88023952,63d13cb81a0a88a3ce29e33f,68817205a84113384fffdfe3,6882451c108c085c731023e0,,,,,,,,,,,,,1,,,,,,,,,,,,,,,,,,,,,,,,,,,,,,,,,,,,,41,rebuscar,,,,,497.8265,499.3866,0,0,1.0271,,0,86,86,40,1,REAL,FAKE,,,,,,,,,,,,,,,,,
,,,,,,,,,63d13cb81a0a88a3ce29e33f,spanish,13 or older,"no, only English or Spanish",no,2025-07-24_10h37.56.839,empathy_intonation_perc_control,2024.2.4,Win32,59.88023952,63d13cb81a0a88a3ce29e33f,68817205a84113384fffdfe3,6882451c108c085c731023e0,,,,,,,,,,,,,1,,,,,,,,,,,,,,,,,,,,,,,,,,,,,,,,,,,,,36,loro,,,,,499.388,500.7225,0,0,0.7986,,0,87,87,35,1,REAL,FAKE,,,,,,,,,,,,,,,,,
,,,,,,,,,63d13cb81a0a88a3ce29e33f,spanish,13 or older,"no, only English or Spanish",no,2025-07-24_10h37.56.839,empathy_intonation_perc_control,2024.2.4,Win32,59.88023952,63d13cb81a0a88a3ce29e33f,68817205a84113384fffdfe3,6882451c108c085c731023e0,,,,,,,,,,,,,0,,,,,,,,,,,,,,,,,,,,,,,,,,,,,,,,,,,,,30,alardio,,,,,500.7233,501.8909,0,1,0.6339,,0,88,88,29,1,REAL,FAKE,,,,,,,,,,,,,,,,,
,,,,,,,,,63d13cb81a0a88a3ce29e33f,spanish,13 or older,"no, only English or Spanish",no,2025-07-24_10h37.56.839,empathy_intonation_perc_control,2024.2.4,Win32,59.88023952,63d13cb81a0a88a3ce29e33f,68817205a84113384fffdfe3,6882451c108c085c731023e0,,,,,,,,,,,,,1,,,,,,,,,,,,,,,,,,,,,,,,,,,,,,,,,,,,,37,granuja,,,,,501.8918,503.2035,1,1,0.7707,,0,89,89,36,1,REAL,FAKE,,,,,,,,,,,,,,,,,
,,,,,,,,,63d13cb81a0a88a3ce29e33f,spanish,13 or older,"no, only English or Spanish",no,2025-07-24_10h37.56.839,empathy_intonation_perc_control,2024.2.4,Win32,59.88023952,63d13cb81a0a88a3ce29e33f,68817205a84113384fffdfe3,6882451c108c085c731023e0,,,,,,,,,,,,,0,,,,,,,,,,,,,,,,,,,,,,,,,,,,,,,,,,,,,84,escuto,,,,,503.2054,504.6242,1,0,0.9004,,0,90,90,83,1,REAL,FAKE,,,,,,,,,,,,,,,,,
,,,,,,,,,63d13cb81a0a88a3ce29e33f,spanish,13 or older,"no, only English or Spanish",no,2025-07-24_10h37.56.839,empathy_intonation_perc_control,2024.2.4,Win32,59.88023952,63d13cb81a0a88a3ce29e33f,68817205a84113384fffdfe3,6882451c108c085c731023e0,,,,,,,,,,,,,0,,,,,,,,,,,,,,,,,,,,,,,,,,,,,,,,,,,,,32,fatacidad,,,,,504.6251,505.8712,0,1,0.711,,0,91,91,31,1,REAL,FAKE,,,,,,,,,,,,,,,,,
,,,,,,,,,63d13cb81a0a88a3ce29e33f,spanish,13 or older,"no, only English or Spanish",no,2025-07-24_10h37.56.839,empathy_intonation_perc_control,2024.2.4,Win32,59.88023952,63d13cb81a0a88a3ce29e33f,68817205a84113384fffdfe3,6882451c108c085c731023e0,,,,,,,,,,,,,,,,,,,,,,,,,,,,,,,,,,,,,,,,,,,,,,,,,,,,,,,,,,,,,,,,,,,,,505.8716,509.8199,,,,,,,,,,,,,,,
,,,,,,,,,63d13cb81a0a88a3ce29e33f,spanish,13 or older,"no, only English or Spanish",no,2025-07-24_10h37.56.839,empathy_intonation_perc_control,2024.2.4,Win32,59.88023952,63d13cb81a0a88a3ce29e33f,68817205a84113384fffdfe3,6882451c108c085c731023e0,,,,,,,,,,,,,,,,,,,,,,,,,,,1,,,,,,,,,,,,,,,,,,,,,,,,,,,,,,,,,,,,,,,,,,,,509.8435,514.7208,slightly agree,0,0,0,0,1,I can easily tell if someone else wants to enter a conversation.,1,0,1,0,,
,,,,,,,,,63d13cb81a0a88a3ce29e33f,spanish,13 or older,"no, only English or Spanish",no,2025-07-24_10h37.56.839,empathy_intonation_perc_control,2024.2.4,Win32,59.88023952,63d13cb81a0a88a3ce29e33f,68817205a84113384fffdfe3,6882451c108c085c731023e0,,,,,,,,,,,,,,,,,,,,,,,,,,,2,,,,,,,,,,,,,,,,,,,,,,,,,,,,,,,,,,,,,,,,,,,,514.7226,516.6738,slightly agree,0,1,1,1,1,I prefer animals to humans.,0,1,0,0,,
,,,,,,,,,63d13cb81a0a88a3ce29e33f,spanish,13 or older,"no, only English or Spanish",no,2025-07-24_10h37.56.839,empathy_intonation_perc_control,2024.2.4,Win32,59.88023952,63d13cb81a0a88a3ce29e33f,68817205a84113384fffdfe3,6882451c108c085c731023e0,,,,,,,,,,,,,,,,,,,,,,,,,,,3,,,,,,,,,,,,,,,,,,,,,,,,,,,,,,,,,,,,,,,,,,,,516.6752,518.719,slightly agree,0,2,2,2,1,I try to keep up with the current trends and fashions.,0,1,0,0,,
,,,,,,,,,63d13cb81a0a88a3ce29e33f,spanish,13 or older,"no, only English or Spanish",no,2025-07-24_10h37.56.839,empathy_intonation_perc_control,2024.2.4,Win32,59.88023952,63d13cb81a0a88a3ce29e33f,68817205a84113384fffdfe3,6882451c108c085c731023e0,,,,,,,,,,,,,,,,,,,,,,,,,,,4,,,,,,,,,,,,,,,,,,,,,,,,,,,,,,,,,,,,,,,,,,,,518.7216,522.6688,slightly disagree,0,3,3,3,1,"I find it difficult to explain to others things that I understand easily,   when they don't understand it first time.",1,0,0,1,,
,,,,,,,,,63d13cb81a0a88a3ce29e33f,spanish,13 or older,"no, only English or Spanish",no,2025-07-24_10h37.56.839,empathy_intonation_perc_control,2024.2.4,Win32,59.88023952,63d13cb81a0a88a3ce29e33f,68817205a84113384fffdfe3,6882451c108c085c731023e0,,,,,,,,,,,,,,,,,,,,,,,,,,,5,,,,,,,,,,,,,,,,,,,,,,,,,,,,,,,,,,,,,,,,,,,,522.6708,524.4686,slightly disagree,0,4,4,4,1,I dream most nights.,0,1,0,0,,
,,,,,,,,,63d13cb81a0a88a3ce29e33f,spanish,13 or older,"no, only English or Spanish",no,2025-07-24_10h37.56.839,empathy_intonation_perc_control,2024.2.4,Win32,59.88023952,63d13cb81a0a88a3ce29e33f,68817205a84113384fffdfe3,6882451c108c085c731023e0,,,,,,,,,,,,,,,,,,,,,,,,,,,6,,,,,,,,,,,,,,,,,,,,,,,,,,,,,,,,,,,,,,,,,,,,524.4713,527.4854,strongly agree,0,5,5,5,1,I really enjoy caring for other people.,1,0,1,0,,
,,,,,,,,,63d13cb81a0a88a3ce29e33f,spanish,13 or older,"no, only English or Spanish",no,2025-07-24_10h37.56.839,empathy_intonation_perc_control,2024.2.4,Win32,59.88023952,63d13cb81a0a88a3ce29e33f,68817205a84113384fffdfe3,6882451c108c085c731023e0,,,,,,,,,,,,,,,,,,,,,,,,,,,7,,,,,,,,,,,,,,,,,,,,,,,,,,,,,,,,,,,,,,,,,,,,527.4875,530.5396,slightly disagree,0,6,6,6,1,I try to solve my own problems rather than discussing them with others.,0,1,0,0,,
,,,,,,,,,63d13cb81a0a88a3ce29e33f,spanish,13 or older,"no, only English or Spanish",no,2025-07-24_10h37.56.839,empathy_intonation_perc_control,2024.2.4,Win32,59.88023952,63d13cb81a0a88a3ce29e33f,68817205a84113384fffdfe3,6882451c108c085c731023e0,,,,,,,,,,,,,,,,,,,,,,,,,,,8,,,,,,,,,,,,,,,,,,,,,,,,,,,,,,,,,,,,,,,,,,,,530.5407,532.4349,slightly disagree,0,7,7,7,1,I find it hard to know what to do in a social situation.,1,0,0,1,,
,,,,,,,,,63d13cb81a0a88a3ce29e33f,spanish,13 or older,"no, only English or Spanish",no,2025-07-24_10h37.56.839,empathy_intonation_perc_control,2024.2.4,Win32,59.88023952,63d13cb81a0a88a3ce29e33f,68817205a84113384fffdfe3,6882451c108c085c731023e0,,,,,,,,,,,,,,,,,,,,,,,,,,,9,,,,,,,,,,,,,,,,,,,,,,,,,,,,,,,,,,,,,,,,,,,,532.4368,533.9358,slightly disagree,0,8,8,8,1,I am at my best first thing in the morning.,0,1,0,0,,
,,,,,,,,,63d13cb81a0a88a3ce29e33f,spanish,13 or older,"no, only English or Spanish",no,2025-07-24_10h37.56.839,empathy_intonation_perc_control,2024.2.4,Win32,59.88023952,63d13cb81a0a88a3ce29e33f,68817205a84113384fffdfe3,6882451c108c085c731023e0,,,,,,,,,,,,,,,,,,,,,,,,,,,10,,,,,,,,,,,,,,,,,,,,,,,,,,,,,,,,,,,,,,,,,,,,533.938,536.0726,slightly disagree,0,9,9,9,1,People often tell me that I went too far in driving my point home in a discussion.,1,0,0,1,,
,,,,,,,,,63d13cb81a0a88a3ce29e33f,spanish,13 or older,"no, only English or Spanish",no,2025-07-24_10h37.56.839,empathy_intonation_perc_control,2024.2.4,Win32,59.88023952,63d13cb81a0a88a3ce29e33f,68817205a84113384fffdfe3,6882451c108c085c731023e0,,,,,,,,,,,,,,,,,,,,,,,,,,,11,,,,,,,,,,,,,,,,,,,,,,,,,,,,,,,,,,,,,,,,,,,,536.0741,541.3507,strongly disagree,0,10,10,10,1,It doesn't bother me too much if I am late meeting a friend.,1,0,0,1,,
,,,,,,,,,63d13cb81a0a88a3ce29e33f,spanish,13 or older,"no, only English or Spanish",no,2025-07-24_10h37.56.839,empathy_intonation_perc_control,2024.2.4,Win32,59.88023952,63d13cb81a0a88a3ce29e33f,68817205a84113384fffdfe3,6882451c108c085c731023e0,,,,,,,,,,,,,,,,,,,,,,,,,,,12,,,,,,,,,,,,,,,,,,,,,,,,,,,,,,,,,,,,,,,,,,,,541.3529,544.1221,strongly disagree,0,11,11,11,1,"Friendships and relationships are just too difficult, so I tend not to 
  bother with them.",1,0,0,1,,
,,,,,,,,,63d13cb81a0a88a3ce29e33f,spanish,13 or older,"no, only English or Spanish",no,2025-07-24_10h37.56.839,empathy_intonation_perc_control,2024.2.4,Win32,59.88023952,63d13cb81a0a88a3ce29e33f,68817205a84113384fffdfe3,6882451c108c085c731023e0,,,,,,,,,,,,,,,,,,,,,,,,,,,13,,,,,,,,,,,,,,,,,,,,,,,,,,,,,,,,,,,,,,,,,,,,544.1232,546.8888,slightly agree,0,12,12,12,1,"I would never break a law, no matter how minor.",0,1,0,0,,
,,,,,,,,,63d13cb81a0a88a3ce29e33f,spanish,13 or older,"no, only English or Spanish",no,2025-07-24_10h37.56.839,empathy_intonation_perc_control,2024.2.4,Win32,59.88023952,63d13cb81a0a88a3ce29e33f,68817205a84113384fffdfe3,6882451c108c085c731023e0,,,,,,,,,,,,,,,,,,,,,,,,,,,14,,,,,,,,,,,,,,,,,,,,,,,,,,,,,,,,,,,,,,,,,,,,546.8903,550.2882,slightly disagree,0,13,13,13,1,I often find it difficult to judge if something is rude or polite.,1,0,0,1,,
,,,,,,,,,63d13cb81a0a88a3ce29e33f,spanish,13 or older,"no, only English or Spanish",no,2025-07-24_10h37.56.839,empathy_intonation_perc_control,2024.2.4,Win32,59.88023952,63d13cb81a0a88a3ce29e33f,68817205a84113384fffdfe3,6882451c108c085c731023e0,,,,,,,,,,,,,,,,,,,,,,,,,,,15,,,,,,,,,,,,,,,,,,,,,,,,,,,,,,,,,,,,,,,,,,,,550.2893,553.0221,slightly disagree,0,14,14,14,1,"In a conversation, I tend to focus on my own thoughts rather than on what 
  my listener might be thinking.",1,0,0,1,,
,,,,,,,,,63d13cb81a0a88a3ce29e33f,spanish,13 or older,"no, only English or Spanish",no,2025-07-24_10h37.56.839,empathy_intonation_perc_control,2024.2.4,Win32,59.88023952,63d13cb81a0a88a3ce29e33f,68817205a84113384fffdfe3,6882451c108c085c731023e0,,,,,,,,,,,,,,,,,,,,,,,,,,,16,,,,,,,,,,,,,,,,,,,,,,,,,,,,,,,,,,,,,,,,,,,,553.0235,555.5166,slightly disagree,0,15,15,15,1,I prefer practical jokes to verbal humor.,0,1,0,0,,
,,,,,,,,,63d13cb81a0a88a3ce29e33f,spanish,13 or older,"no, only English or Spanish",no,2025-07-24_10h37.56.839,empathy_intonation_perc_control,2024.2.4,Win32,59.88023952,63d13cb81a0a88a3ce29e33f,68817205a84113384fffdfe3,6882451c108c085c731023e0,,,,,,,,,,,,,,,,,,,,,,,,,,,17,,,,,,,,,,,,,,,,,,,,,,,,,,,,,,,,,,,,,,,,,,,,555.5189,558.0536,slightly disagree,0,16,16,16,1,I live life for today rather than the future.,0,1,0,0,,
,,,,,,,,,63d13cb81a0a88a3ce29e33f,spanish,13 or older,"no, only English or Spanish",no,2025-07-24_10h37.56.839,empathy_intonation_perc_control,2024.2.4,Win32,59.88023952,63d13cb81a0a88a3ce29e33f,68817205a84113384fffdfe3,6882451c108c085c731023e0,,,,,,,,,,,,,,,,,,,,,,,,,,,18,,,,,,,,,,,,,,,,,,,,,,,,,,,,,,,,,,,,,,,,,,,,558.0568,563.3182,strongly disagree,0,17,17,17,1,"When I was a child, I enjoyed cutting up worms to see what would happen.",1,0,0,1,,
,,,,,,,,,63d13cb81a0a88a3ce29e33f,spanish,13 or older,"no, only English or Spanish",no,2025-07-24_10h37.56.839,empathy_intonation_perc_control,2024.2.4,Win32,59.88023952,63d13cb81a0a88a3ce29e33f,68817205a84113384fffdfe3,6882451c108c085c731023e0,,,,,,,,,,,,,,,,,,,,,,,,,,,19,,,,,,,,,,,,,,,,,,,,,,,,,,,,,,,,,,,,,,,,,,,,563.3196,566.0541,slightly agree,0,18,18,18,1,I can pick up quickly if someone says one thing but means another.,1,0,1,0,,
,,,,,,,,,63d13cb81a0a88a3ce29e33f,spanish,13 or older,"no, only English or Spanish",no,2025-07-24_10h37.56.839,empathy_intonation_perc_control,2024.2.4,Win32,59.88023952,63d13cb81a0a88a3ce29e33f,68817205a84113384fffdfe3,6882451c108c085c731023e0,,,,,,,,,,,,,,,,,,,,,,,,,,,20,,,,,,,,,,,,,,,,,,,,,,,,,,,,,,,,,,,,,,,,,,,,566.0552,568.333,slightly agree,0,19,19,19,1,I tend to have very strong opinions about morality.,0,1,0,0,,
,,,,,,,,,63d13cb81a0a88a3ce29e33f,spanish,13 or older,"no, only English or Spanish",no,2025-07-24_10h37.56.839,empathy_intonation_perc_control,2024.2.4,Win32,59.88023952,63d13cb81a0a88a3ce29e33f,68817205a84113384fffdfe3,6882451c108c085c731023e0,,,,,,,,,,,,,,,,,,,,,,,,,,,21,,,,,,,,,,,,,,,,,,,,,,,,,,,,,,,,,,,,,,,,,,,,568.3352,571.2874,slightly disagree,0,20,20,20,1,It is hard for me to see why some things upset people so much.,1,0,0,1,,
,,,,,,,,,63d13cb81a0a88a3ce29e33f,spanish,13 or older,"no, only English or Spanish",no,2025-07-24_10h37.56.839,empathy_intonation_perc_control,2024.2.4,Win32,59.88023952,63d13cb81a0a88a3ce29e33f,68817205a84113384fffdfe3,6882451c108c085c731023e0,,,,,,,,,,,,,,,,,,,,,,,,,,,22,,,,,,,,,,,,,,,,,,,,,,,,,,,,,,,,,,,,,,,,,,,,571.2888,574.9159,slightly agree,0,21,21,21,1,I find it easy to put myself in somebody else's shoes.,1,0,1,0,,
,,,,,,,,,63d13cb81a0a88a3ce29e33f,spanish,13 or older,"no, only English or Spanish",no,2025-07-24_10h37.56.839,empathy_intonation_perc_control,2024.2.4,Win32,59.88023952,63d13cb81a0a88a3ce29e33f,68817205a84113384fffdfe3,6882451c108c085c731023e0,,,,,,,,,,,,,,,,,,,,,,,,,,,23,,,,,,,,,,,,,,,,,,,,,,,,,,,,,,,,,,,,,,,,,,,,574.9178,579.0321,slightly disagree,0,22,22,22,1,I think that good manners are the most important thing a parent can teach their child.,0,1,0,0,,
,,,,,,,,,63d13cb81a0a88a3ce29e33f,spanish,13 or older,"no, only English or Spanish",no,2025-07-24_10h37.56.839,empathy_intonation_perc_control,2024.2.4,Win32,59.88023952,63d13cb81a0a88a3ce29e33f,68817205a84113384fffdfe3,6882451c108c085c731023e0,,,,,,,,,,,,,,,,,,,,,,,,,,,24,,,,,,,,,,,,,,,,,,,,,,,,,,,,,,,,,,,,,,,,,,,,579.0339,582.015,slightly agree,0,23,23,23,1,I like to do things on the spur of the moment.,0,1,0,0,,
,,,,,,,,,63d13cb81a0a88a3ce29e33f,spanish,13 or older,"no, only English or Spanish",no,2025-07-24_10h37.56.839,empathy_intonation_perc_control,2024.2.4,Win32,59.88023952,63d13cb81a0a88a3ce29e33f,68817205a84113384fffdfe3,6882451c108c085c731023e0,,,,,,,,,,,,,,,,,,,,,,,,,,,25,,,,,,,,,,,,,,,,,,,,,,,,,,,,,,,,,,,,,,,,,,,,582.0174,583.9314,slightly agree,0,24,24,24,1,I am good at predicting how someone will feel.,1,0,1,0,,
