instructions_2afc.started,instructions_2afc.stopped,instructions_2afc_loop.thisRepN,instructions_2afc_loop.thisTrialN,instructions_2afc_loop.thisN,instructions_2afc_loop.thisIndex,instructions_2afc_loop.ran,instructions_text,continue_text,participant_id,"What variety of Spanish are you most familiar with? (e.g., Peruvian, Spanish, Mexican)",At what age did you begin learning Spanish?,Are you proficient in any languages other than English/Spanish?,"Are you familiar with Caribbean (e.g., Caribbean, Puerto Rican) or Galician Spanish?",date,expName,psychopyVersion,OS,frameRate,id,study_id,session,practice_2afc.started,practice_2afc.stopped,key_resp_2afc_practice.keys,key_resp_2afc_practice.corr,key_resp_2afc_practice.rt,key_resp_2afc_practice.duration,trials_2afc_practice_loop.thisRepN,trials_2afc_practice_loop.thisTrialN,trials_2afc_practice_loop.thisN,trials_2afc_practice_loop.thisIndex,trials_2afc_practice_loop.ran,path,correct_response,check_2afc.started,check_2afc.stopped,trial_2afc.started,trial_2afc.stopped,key_resp_2afc_trial.keys,key_resp_2afc_trial.corr,key_resp_2afc_trial.rt,key_resp_2afc_trial.duration,trials_2afc_loop.thisRepN,trials_2afc_loop.thisTrialN,trials_2afc_loop.thisN,trials_2afc_loop.thisIndex,trials_2afc_loop.ran,item_num,target,variety,instructions_lextale.started,instructions_lextale.stopped,instructions_lextale_loop.thisRepN,instructions_lextale_loop.thisTrialN,instructions_lextale_loop.thisN,instructions_lextale_loop.thisIndex,instructions_lextale_loop.ran,practice_lextale.started,practice_lextale.stopped,key_resp_lextale_practice.keys,key_resp_lextale_practice.corr,key_resp_lextale_practice.rt,key_resp_lextale_practice.duration,practice_feedback_lextale.started,practice_feedback_lextale.stopped,trials_lextale_practice_loop.thisRepN,trials_lextale_practice_loop.thisTrialN,trials_lextale_practice_loop.thisN,trials_lextale_practice_loop.thisIndex,trials_lextale_practice_loop.ran,stim,word,prac_button_real,prac_button_false,check_lextale.started,check_lextale.stopped,trial_lextale.started,trial_lextale.stopped,key_resp_lextale_trial.keys,key_resp_lextale_trial.corr,key_resp_lextale_trial.rt,key_resp_lextale_trial.duration,trials_lextale_loop.thisRepN,trials_lextale_loop.thisTrialN,trials_lextale_loop.thisN,trials_lextale_loop.thisIndex,trials_lextale_loop.ran,button_real,button_false,instructions_eq.started,instructions_eq.stopped,trial_eq.started,trial_eq.stopped,slider_eq_trial.response,trials_eq_loop.thisRepN,trials_eq_loop.thisTrialN,trials_eq_loop.thisN,trials_eq_loop.thisIndex,trials_eq_loop.ran,item,is_test_item,is_distractor,is_agree_score,is_disagree_score,end_exp.started,end_exp.stopped
0.0395,2.5699,0,0,0,0,1,"In the following task you are going to hear a series of utterances. 

  You will decide if the utterances sound like questions or not using your keyboard.", (press the spacebar to continue),63d85df2ce828accc88ba837,spanish,13 or older,click here to respond,yes,2026-01-21_16h05.01.500,empathy_intonation_perc_control,2024.2.4,Win32,60.24096386,63d85df2ce828accc88ba837,69712dc693a3960bdb483245,69716987afe314f825fd8383,,,,,,,,,,,,,,,,,,,,,,,,,,,,,,,,,,,,,,,,,,,,,,,,,,,,,,,,,,,,,,,,,,,,,,,,,,,,,,,,,,,,,
2.5772,15.448,0,1,1,1,1,"If you believe the utterance is a question, type '1' (for 'yes') and if you do not 
  believe it is a question type '0' (for 'no').

  Let's practice a bit...", (press the spacebar to continue),63d85df2ce828accc88ba837,spanish,13 or older,click here to respond,yes,2026-01-21_16h05.01.500,empathy_intonation_perc_control,2024.2.4,Win32,60.24096386,63d85df2ce828accc88ba837,69712dc693a3960bdb483245,69716987afe314f825fd8383,,,,,,,,,,,,,,,,,,,,,,,,,,,,,,,,,,,,,,,,,,,,,,,,,,,,,,,,,,,,,,,,,,,,,,,,,,,,,,,,,,,,,
,,,,,,,,,63d85df2ce828accc88ba837,spanish,13 or older,click here to respond,yes,2026-01-21_16h05.01.500,empathy_intonation_perc_control,2024.2.4,Win32,60.24096386,63d85df2ce828accc88ba837,69712dc693a3960bdb483245,69716987afe314f825fd8383,15.4846,23.0599,1,0,7.04,,0,0,0,7,1,./stim/wavs/puertorican_statement_filler_La-nina-pinta-con-su-amiga.wav,0,,,,,,,,,,,,,,,,,,,,,,,,,,,,,,,,,,,,,,,,,,,,,,,,,,,,,,,,,,,,,,,,,,,,,,,,
,,,,,,,,,63d85df2ce828accc88ba837,spanish,13 or older,click here to respond,yes,2026-01-21_16h05.01.500,empathy_intonation_perc_control,2024.2.4,Win32,60.24096386,63d85df2ce828accc88ba837,69712dc693a3960bdb483245,69716987afe314f825fd8383,23.0623,26.4247,0,1,2.8319,,0,1,1,5,1,./stim/wavs/andalusian_statement_filler_Alberto-nunca-se-afeita.wav,0,,,,,,,,,,,,,,,,,,,,,,,,,,,,,,,,,,,,,,,,,,,,,,,,,,,,,,,,,,,,,,,,,,,,,,,,
,,,,,,,,,63d85df2ce828accc88ba837,spanish,13 or older,click here to respond,yes,2026-01-21_16h05.01.500,empathy_intonation_perc_control,2024.2.4,Win32,60.24096386,63d85df2ce828accc88ba837,69712dc693a3960bdb483245,69716987afe314f825fd8383,26.4276,29.0564,1,1,2.1019,,0,2,2,3,1,./stim/wavs/mexican_question_filler_Felipe-no-tiene-contrasena.wav,1,,,,,,,,,,,,,,,,,,,,,,,,,,,,,,,,,,,,,,,,,,,,,,,,,,,,,,,,,,,,,,,,,,,,,,,,
,,,,,,,,,63d85df2ce828accc88ba837,spanish,13 or older,click here to respond,yes,2026-01-21_16h05.01.500,empathy_intonation_perc_control,2024.2.4,Win32,60.24096386,63d85df2ce828accc88ba837,69712dc693a3960bdb483245,69716987afe314f825fd8383,29.0582,31.6221,0,0,2.0365,,0,3,3,2,1,./stim/wavs/chilean_question_filler_Mi-padre-cantaba-bien.wav,1,,,,,,,,,,,,,,,,,,,,,,,,,,,,,,,,,,,,,,,,,,,,,,,,,,,,,,,,,,,,,,,,,,,,,,,,
,,,,,,,,,63d85df2ce828accc88ba837,spanish,13 or older,click here to respond,yes,2026-01-21_16h05.01.500,empathy_intonation_perc_control,2024.2.4,Win32,60.24096386,63d85df2ce828accc88ba837,69712dc693a3960bdb483245,69716987afe314f825fd8383,31.6237,34.4036,0,1,2.2552,,0,4,4,4,1,./stim/wavs/cuban_statement_filler_Cocinabas-por-la-noche.wav,0,,,,,,,,,,,,,,,,,,,,,,,,,,,,,,,,,,,,,,,,,,,,,,,,,,,,,,,,,,,,,,,,,,,,,,,,
,,,,,,,,,63d85df2ce828accc88ba837,spanish,13 or older,click here to respond,yes,2026-01-21_16h05.01.500,empathy_intonation_perc_control,2024.2.4,Win32,60.24096386,63d85df2ce828accc88ba837,69712dc693a3960bdb483245,69716987afe314f825fd8383,34.4048,36.6024,1,1,1.666,,0,5,5,1,1,./stim/wavs/argentine_question_filler_Mi-vecino-habla-mucho.wav,1,,,,,,,,,,,,,,,,,,,,,,,,,,,,,,,,,,,,,,,,,,,,,,,,,,,,,,,,,,,,,,,,,,,,,,,,
,,,,,,,,,63d85df2ce828accc88ba837,spanish,13 or older,click here to respond,yes,2026-01-21_16h05.01.500,empathy_intonation_perc_control,2024.2.4,Win32,60.24096386,63d85df2ce828accc88ba837,69712dc693a3960bdb483245,69716987afe314f825fd8383,36.6031,39.3525,0,1,2.2281,,0,6,6,6,1,./stim/wavs/peruvian_statement_filler_El-nino-habla-con-su-madre.wav,0,,,,,,,,,,,,,,,,,,,,,,,,,,,,,,,,,,,,,,,,,,,,,,,,,,,,,,,,,,,,,,,,,,,,,,,,
,,,,,,,,,63d85df2ce828accc88ba837,spanish,13 or older,click here to respond,yes,2026-01-21_16h05.01.500,empathy_intonation_perc_control,2024.2.4,Win32,60.24096386,63d85df2ce828accc88ba837,69712dc693a3960bdb483245,69716987afe314f825fd8383,39.3541,42.0505,1,1,2.1707,,0,7,7,0,1,./stim/wavs/castilian_question_filler_Mi-esposo-conoce-al-chico.wav,1,,,,,,,,,,,,,,,,,,,,,,,,,,,,,,,,,,,,,,,,,,,,,,,,,,,,,,,,,,,,,,,,,,,,,,,,
,,,,,,,,,63d85df2ce828accc88ba837,spanish,13 or older,click here to respond,yes,2026-01-21_16h05.01.500,empathy_intonation_perc_control,2024.2.4,Win32,60.24096386,63d85df2ce828accc88ba837,69712dc693a3960bdb483245,69716987afe314f825fd8383,,,,,,,,,,,,,,42.0512,45.3334,,,,,,,,,,,,,,,,,,,,,,,,,,,,,,,,,,,,,,,,,,,,,,,,,,,,,,,,,,,,,,,,,,,,,,
,,,,,,,,,63d85df2ce828accc88ba837,spanish,13 or older,click here to respond,yes,2026-01-21_16h05.01.500,empathy_intonation_perc_control,2024.2.4,Win32,60.24096386,63d85df2ce828accc88ba837,69712dc693a3960bdb483245,69716987afe314f825fd8383,,,,,,,,,,,,./stim/wavs/castilian_match_declarative-broad-focus_Manuela-vende-el-carro.wav,0,,,45.3728,47.9647,0,1,2.0693,,0,0,0,46,1,47,0,castilian,,,,,,,,,,,,,,,,,,,,,,,,,,,,,,,,,,,,,,,,,,,,,,,,,,,,,,,,
,,,,,,,,,63d85df2ce828accc88ba837,spanish,13 or older,click here to respond,yes,2026-01-21_16h05.01.500,empathy_intonation_perc_control,2024.2.4,Win32,60.24096386,63d85df2ce828accc88ba837,69712dc693a3960bdb483245,69716987afe314f825fd8383,,,,,,,,,,,,./stim/wavs/castilian_mismatch_declarative-broad-focus_La-nina-lava-el-plato.wav,0,,,47.9656,51.4957,0,1,2.9989,,0,1,1,70,1,71,0,castilian,,,,,,,,,,,,,,,,,,,,,,,,,,,,,,,,,,,,,,,,,,,,,,,,,,,,,,,,
,,,,,,,,,63d85df2ce828accc88ba837,spanish,13 or older,click here to respond,yes,2026-01-21_16h05.01.500,empathy_intonation_perc_control,2024.2.4,Win32,60.24096386,63d85df2ce828accc88ba837,69712dc693a3960bdb483245,69716987afe314f825fd8383,,,,,,,,,,,,./stim/wavs/castilian_mismatch_declarative-broad-focus_La-maestra-vive-en-Paris.wav,0,,,51.4964,54.1618,0,1,2.1409,,0,2,2,69,1,70,0,castilian,,,,,,,,,,,,,,,,,,,,,,,,,,,,,,,,,,,,,,,,,,,,,,,,,,,,,,,,
,,,,,,,,,63d85df2ce828accc88ba837,spanish,13 or older,click here to respond,yes,2026-01-21_16h05.01.500,empathy_intonation_perc_control,2024.2.4,Win32,60.24096386,63d85df2ce828accc88ba837,69712dc693a3960bdb483245,69716987afe314f825fd8383,,,,,,,,,,,,./stim/wavs/castilian_match_declarative-broad-focus_Mariano-habla-del-tiempo.wav,0,,,54.1632,56.9271,0,1,2.2368,,0,3,3,48,1,49,0,castilian,,,,,,,,,,,,,,,,,,,,,,,,,,,,,,,,,,,,,,,,,,,,,,,,,,,,,,,,
,,,,,,,,,63d85df2ce828accc88ba837,spanish,13 or older,click here to respond,yes,2026-01-21_16h05.01.500,empathy_intonation_perc_control,2024.2.4,Win32,60.24096386,63d85df2ce828accc88ba837,69712dc693a3960bdb483245,69716987afe314f825fd8383,,,,,,,,,,,,./stim/wavs/puertorican_match_declarative-broad-focus_Manuela-vende-el-carro.wav,0,,,56.9284,59.359,0,1,1.8995,,0,4,4,66,1,67,0,puertorican,,,,,,,,,,,,,,,,,,,,,,,,,,,,,,,,,,,,,,,,,,,,,,,,,,,,,,,,
,,,,,,,,,63d85df2ce828accc88ba837,spanish,13 or older,click here to respond,yes,2026-01-21_16h05.01.500,empathy_intonation_perc_control,2024.2.4,Win32,60.24096386,63d85df2ce828accc88ba837,69712dc693a3960bdb483245,69716987afe314f825fd8383,,,,,,,,,,,,./stim/wavs/cuban_mismatch_interrogative-total-yn_El-hombre-mira-la-luna.wav,1,,,59.3597,61.8419,0,0,1.9539,,0,5,5,29,1,30,1,cuban,,,,,,,,,,,,,,,,,,,,,,,,,,,,,,,,,,,,,,,,,,,,,,,,,,,,,,,,
,,,,,,,,,63d85df2ce828accc88ba837,spanish,13 or older,click here to respond,yes,2026-01-21_16h05.01.500,empathy_intonation_perc_control,2024.2.4,Win32,60.24096386,63d85df2ce828accc88ba837,69712dc693a3960bdb483245,69716987afe314f825fd8383,,,,,,,,,,,,./stim/wavs/mexican_mismatch_declarative-broad-focus_Mi-novio-viene-del-lago.wav,0,,,61.8433,64.0407,0,1,1.6686,,0,6,6,81,1,82,0,mexican,,,,,,,,,,,,,,,,,,,,,,,,,,,,,,,,,,,,,,,,,,,,,,,,,,,,,,,,
,,,,,,,,,63d85df2ce828accc88ba837,spanish,13 or older,click here to respond,yes,2026-01-21_16h05.01.500,empathy_intonation_perc_control,2024.2.4,Win32,60.24096386,63d85df2ce828accc88ba837,69712dc693a3960bdb483245,69716987afe314f825fd8383,,,,,,,,,,,,./stim/wavs/castilian_mismatch_interrogative-total-yn_Mi-madre-come-la-fruta.wav,1,,,64.0421,66.6731,1,1,2.1044,,0,7,7,26,1,27,0,castilian,,,,,,,,,,,,,,,,,,,,,,,,,,,,,,,,,,,,,,,,,,,,,,,,,,,,,,,,
,,,,,,,,,63d85df2ce828accc88ba837,spanish,13 or older,click here to respond,yes,2026-01-21_16h05.01.500,empathy_intonation_perc_control,2024.2.4,Win32,60.24096386,63d85df2ce828accc88ba837,69712dc693a3960bdb483245,69716987afe314f825fd8383,,,,,,,,,,,,./stim/wavs/castilian_match_declarative-broad-focus_Marta-abre-el-regalo.wav,0,,,66.6745,68.9221,0,1,1.718,,0,8,8,49,1,50,0,castilian,,,,,,,,,,,,,,,,,,,,,,,,,,,,,,,,,,,,,,,,,,,,,,,,,,,,,,,,
,,,,,,,,,63d85df2ce828accc88ba837,spanish,13 or older,click here to respond,yes,2026-01-21_16h05.01.500,empathy_intonation_perc_control,2024.2.4,Win32,60.24096386,63d85df2ce828accc88ba837,69712dc693a3960bdb483245,69716987afe314f825fd8383,,,,,,,,,,,,./stim/wavs/puertorican_mismatch_interrogative-total-yn_La-maestra-vive-en-Paris.wav,1,,,68.9233,71.5372,0,0,2.0849,,0,9,9,41,1,42,1,puertorican,,,,,,,,,,,,,,,,,,,,,,,,,,,,,,,,,,,,,,,,,,,,,,,,,,,,,,,,
,,,,,,,,,63d85df2ce828accc88ba837,spanish,13 or older,click here to respond,yes,2026-01-21_16h05.01.500,empathy_intonation_perc_control,2024.2.4,Win32,60.24096386,63d85df2ce828accc88ba837,69712dc693a3960bdb483245,69716987afe314f825fd8383,,,,,,,,,,,,./stim/wavs/cuban_mismatch_declarative-broad-focus_El-bebe-comia-muy-bien.wav,0,,,71.5386,73.6359,0,1,1.5731,,0,10,10,73,1,74,0,cuban,,,,,,,,,,,,,,,,,,,,,,,,,,,,,,,,,,,,,,,,,,,,,,,,,,,,,,,,
,,,,,,,,,63d85df2ce828accc88ba837,spanish,13 or older,click here to respond,yes,2026-01-21_16h05.01.500,empathy_intonation_perc_control,2024.2.4,Win32,60.24096386,63d85df2ce828accc88ba837,69712dc693a3960bdb483245,69716987afe314f825fd8383,,,,,,,,,,,,./stim/wavs/mexican_match_interrogative-total-yn_Emilio-ama-la-marcha.wav,1,,,73.637,75.8352,1,1,1.6668,,0,11,11,15,1,16,0,mexican,,,,,,,,,,,,,,,,,,,,,,,,,,,,,,,,,,,,,,,,,,,,,,,,,,,,,,,,
,,,,,,,,,63d85df2ce828accc88ba837,spanish,13 or older,click here to respond,yes,2026-01-21_16h05.01.500,empathy_intonation_perc_control,2024.2.4,Win32,60.24096386,63d85df2ce828accc88ba837,69712dc693a3960bdb483245,69716987afe314f825fd8383,,,,,,,,,,,,./stim/wavs/mexican_match_declarative-broad-focus_Ana-lleva-el-abrigo.wav,0,,,75.836,78.6674,0,1,2.2998,,0,12,12,56,1,57,0,mexican,,,,,,,,,,,,,,,,,,,,,,,,,,,,,,,,,,,,,,,,,,,,,,,,,,,,,,,,
,,,,,,,,,63d85df2ce828accc88ba837,spanish,13 or older,click here to respond,yes,2026-01-21_16h05.01.500,empathy_intonation_perc_control,2024.2.4,Win32,60.24096386,63d85df2ce828accc88ba837,69712dc693a3960bdb483245,69716987afe314f825fd8383,,,,,,,,,,,,./stim/wavs/mexican_match_interrogative-total-yn_David-leia-el-libro.wav,1,,,78.6687,80.8826,1,1,1.6843,,0,13,13,14,1,15,0,mexican,,,,,,,,,,,,,,,,,,,,,,,,,,,,,,,,,,,,,,,,,,,,,,,,,,,,,,,,
,,,,,,,,,63d85df2ce828accc88ba837,spanish,13 or older,click here to respond,yes,2026-01-21_16h05.01.500,empathy_intonation_perc_control,2024.2.4,Win32,60.24096386,63d85df2ce828accc88ba837,69712dc693a3960bdb483245,69716987afe314f825fd8383,,,,,,,,,,,,./stim/wavs/cuban_match_interrogative-total-yn_Manuela-vende-el-carro.wav,1,,,80.8832,83.1173,0,0,1.7133,,0,14,14,8,1,9,1,cuban,,,,,,,,,,,,,,,,,,,,,,,,,,,,,,,,,,,,,,,,,,,,,,,,,,,,,,,,
,,,,,,,,,63d85df2ce828accc88ba837,spanish,13 or older,click here to respond,yes,2026-01-21_16h05.01.500,empathy_intonation_perc_control,2024.2.4,Win32,60.24096386,63d85df2ce828accc88ba837,69712dc693a3960bdb483245,69716987afe314f825fd8383,,,,,,,,,,,,./stim/wavs/mexican_mismatch_declarative-broad-focus_La-maestra-vive-en-Paris.wav,0,,,83.1189,85.531,0,1,1.8879,,0,15,15,80,1,81,0,mexican,,,,,,,,,,,,,,,,,,,,,,,,,,,,,,,,,,,,,,,,,,,,,,,,,,,,,,,,
,,,,,,,,,63d85df2ce828accc88ba837,spanish,13 or older,click here to respond,yes,2026-01-21_16h05.01.500,empathy_intonation_perc_control,2024.2.4,Win32,60.24096386,63d85df2ce828accc88ba837,69712dc693a3960bdb483245,69716987afe314f825fd8383,,,,,,,,,,,,./stim/wavs/mexican_mismatch_interrogative-total-yn_La-maestra-vive-en-Paris.wav,1,,,85.5321,88.0468,1,1,1.9833,,0,16,16,36,1,37,0,mexican,,,,,,,,,,,,,,,,,,,,,,,,,,,,,,,,,,,,,,,,,,,,,,,,,,,,,,,,
,,,,,,,,,63d85df2ce828accc88ba837,spanish,13 or older,click here to respond,yes,2026-01-21_16h05.01.500,empathy_intonation_perc_control,2024.2.4,Win32,60.24096386,63d85df2ce828accc88ba837,69712dc693a3960bdb483245,69716987afe314f825fd8383,,,,,,,,,,,,./stim/wavs/puertorican_mismatch_declarative-broad-focus_La-nina-lava-el-plato.wav,0,,,88.0479,90.1123,0,1,1.5334,,0,17,17,87,1,88,0,puertorican,,,,,,,,,,,,,,,,,,,,,,,,,,,,,,,,,,,,,,,,,,,,,,,,,,,,,,,,
,,,,,,,,,63d85df2ce828accc88ba837,spanish,13 or older,click here to respond,yes,2026-01-21_16h05.01.500,empathy_intonation_perc_control,2024.2.4,Win32,60.24096386,63d85df2ce828accc88ba837,69712dc693a3960bdb483245,69716987afe314f825fd8383,,,,,,,,,,,,./stim/wavs/cuban_match_interrogative-total-yn_Marta-abre-el-regalo.wav,1,,,90.1137,92.4607,0,0,1.8246,,0,18,18,11,1,12,1,cuban,,,,,,,,,,,,,,,,,,,,,,,,,,,,,,,,,,,,,,,,,,,,,,,,,,,,,,,,
,,,,,,,,,63d85df2ce828accc88ba837,spanish,13 or older,click here to respond,yes,2026-01-21_16h05.01.500,empathy_intonation_perc_control,2024.2.4,Win32,60.24096386,63d85df2ce828accc88ba837,69712dc693a3960bdb483245,69716987afe314f825fd8383,,,,,,,,,,,,./stim/wavs/mexican_match_declarative-broad-focus_Mariano-habla-del-tiempo.wav,0,,,92.4617,94.7097,0,1,1.7161,,0,19,19,60,1,61,0,mexican,,,,,,,,,,,,,,,,,,,,,,,,,,,,,,,,,,,,,,,,,,,,,,,,,,,,,,,,
,,,,,,,,,63d85df2ce828accc88ba837,spanish,13 or older,click here to respond,yes,2026-01-21_16h05.01.500,empathy_intonation_perc_control,2024.2.4,Win32,60.24096386,63d85df2ce828accc88ba837,69712dc693a3960bdb483245,69716987afe314f825fd8383,,,,,,,,,,,,./stim/wavs/mexican_match_declarative-broad-focus_Daniel-iba-a-Bolivia.wav,0,,,94.7102,97.5761,0,1,2.3451,,0,20,20,57,1,58,0,mexican,,,,,,,,,,,,,,,,,,,,,,,,,,,,,,,,,,,,,,,,,,,,,,,,,,,,,,,,
,,,,,,,,,63d85df2ce828accc88ba837,spanish,13 or older,click here to respond,yes,2026-01-21_16h05.01.500,empathy_intonation_perc_control,2024.2.4,Win32,60.24096386,63d85df2ce828accc88ba837,69712dc693a3960bdb483245,69716987afe314f825fd8383,,,,,,,,,,,,./stim/wavs/puertorican_match_interrogative-total-yn_David-leia-el-libro.wav,1,,,97.5776,99.7246,0,0,1.62,,0,21,21,20,1,21,1,puertorican,,,,,,,,,,,,,,,,,,,,,,,,,,,,,,,,,,,,,,,,,,,,,,,,,,,,,,,,
,,,,,,,,,63d85df2ce828accc88ba837,spanish,13 or older,click here to respond,yes,2026-01-21_16h05.01.500,empathy_intonation_perc_control,2024.2.4,Win32,60.24096386,63d85df2ce828accc88ba837,69712dc693a3960bdb483245,69716987afe314f825fd8383,,,,,,,,,,,,./stim/wavs/castilian_match_interrogative-total-yn_David-leia-el-libro.wav,1,,,99.7264,102.0402,1,1,1.7857,,0,22,22,0,1,1,0,castilian,,,,,,,,,,,,,,,,,,,,,,,,,,,,,,,,,,,,,,,,,,,,,,,,,,,,,,,,
,,,,,,,,,63d85df2ce828accc88ba837,spanish,13 or older,click here to respond,yes,2026-01-21_16h05.01.500,empathy_intonation_perc_control,2024.2.4,Win32,60.24096386,63d85df2ce828accc88ba837,69712dc693a3960bdb483245,69716987afe314f825fd8383,,,,,,,,,,,,./stim/wavs/cuban_match_interrogative-total-yn_Daniel-iba-a-Bolivia.wav,1,,,102.0415,105.1721,0,0,2.6047,,0,23,23,7,1,8,1,cuban,,,,,,,,,,,,,,,,,,,,,,,,,,,,,,,,,,,,,,,,,,,,,,,,,,,,,,,,
,,,,,,,,,63d85df2ce828accc88ba837,spanish,13 or older,click here to respond,yes,2026-01-21_16h05.01.500,empathy_intonation_perc_control,2024.2.4,Win32,60.24096386,63d85df2ce828accc88ba837,69712dc693a3960bdb483245,69716987afe314f825fd8383,,,,,,,,,,,,./stim/wavs/mexican_match_interrogative-total-yn_Ana-lleva-el-abrigo.wav,1,,,105.1737,107.3878,1,1,1.6902,,0,24,24,12,1,13,0,mexican,,,,,,,,,,,,,,,,,,,,,,,,,,,,,,,,,,,,,,,,,,,,,,,,,,,,,,,,
,,,,,,,,,63d85df2ce828accc88ba837,spanish,13 or older,click here to respond,yes,2026-01-21_16h05.01.500,empathy_intonation_perc_control,2024.2.4,Win32,60.24096386,63d85df2ce828accc88ba837,69712dc693a3960bdb483245,69716987afe314f825fd8383,,,,,,,,,,,,./stim/wavs/mexican_match_interrogative-total-yn_Mariano-habla-del-tiempo.wav,1,,,107.3896,109.8364,1,1,1.9175,,0,25,25,16,1,17,0,mexican,,,,,,,,,,,,,,,,,,,,,,,,,,,,,,,,,,,,,,,,,,,,,,,,,,,,,,,,
,,,,,,,,,63d85df2ce828accc88ba837,spanish,13 or older,click here to respond,yes,2026-01-21_16h05.01.500,empathy_intonation_perc_control,2024.2.4,Win32,60.24096386,63d85df2ce828accc88ba837,69712dc693a3960bdb483245,69716987afe314f825fd8383,,,,,,,,,,,,./stim/wavs/castilian_mismatch_interrogative-total-yn_La-maestra-vive-en-Paris.wav,1,,,109.837,112.6856,1,1,2.3281,,0,26,26,24,1,25,0,castilian,,,,,,,,,,,,,,,,,,,,,,,,,,,,,,,,,,,,,,,,,,,,,,,,,,,,,,,,
,,,,,,,,,63d85df2ce828accc88ba837,spanish,13 or older,click here to respond,yes,2026-01-21_16h05.01.500,empathy_intonation_perc_control,2024.2.4,Win32,60.24096386,63d85df2ce828accc88ba837,69712dc693a3960bdb483245,69716987afe314f825fd8383,,,,,,,,,,,,./stim/wavs/cuban_match_declarative-broad-focus_Daniel-iba-a-Bolivia.wav,0,,,112.6875,115.1176,0,1,1.8996,,0,27,27,51,1,52,0,cuban,,,,,,,,,,,,,,,,,,,,,,,,,,,,,,,,,,,,,,,,,,,,,,,,,,,,,,,,
,,,,,,,,,63d85df2ce828accc88ba837,spanish,13 or older,click here to respond,yes,2026-01-21_16h05.01.500,empathy_intonation_perc_control,2024.2.4,Win32,60.24096386,63d85df2ce828accc88ba837,69712dc693a3960bdb483245,69716987afe314f825fd8383,,,,,,,,,,,,./stim/wavs/puertorican_match_declarative-broad-focus_Emilio-ama-la-marcha.wav,0,,,115.1191,117.5666,0,1,1.9205,,0,28,28,65,1,66,0,puertorican,,,,,,,,,,,,,,,,,,,,,,,,,,,,,,,,,,,,,,,,,,,,,,,,,,,,,,,,
,,,,,,,,,63d85df2ce828accc88ba837,spanish,13 or older,click here to respond,yes,2026-01-21_16h05.01.500,empathy_intonation_perc_control,2024.2.4,Win32,60.24096386,63d85df2ce828accc88ba837,69712dc693a3960bdb483245,69716987afe314f825fd8383,,,,,,,,,,,,./stim/wavs/cuban_match_declarative-broad-focus_Maria-bebe-el-vino.wav,0,,,117.568,119.865,0,1,1.7701,,0,29,29,53,1,54,0,cuban,,,,,,,,,,,,,,,,,,,,,,,,,,,,,,,,,,,,,,,,,,,,,,,,,,,,,,,,
,,,,,,,,,63d85df2ce828accc88ba837,spanish,13 or older,click here to respond,yes,2026-01-21_16h05.01.500,empathy_intonation_perc_control,2024.2.4,Win32,60.24096386,63d85df2ce828accc88ba837,69712dc693a3960bdb483245,69716987afe314f825fd8383,,,,,,,,,,,,./stim/wavs/castilian_mismatch_declarative-broad-focus_El-nino-oye-el-rio.wav,0,,,119.8657,122.3647,0,1,1.9707,,0,30,30,68,1,69,0,castilian,,,,,,,,,,,,,,,,,,,,,,,,,,,,,,,,,,,,,,,,,,,,,,,,,,,,,,,,
,,,,,,,,,63d85df2ce828accc88ba837,spanish,13 or older,click here to respond,yes,2026-01-21_16h05.01.500,empathy_intonation_perc_control,2024.2.4,Win32,60.24096386,63d85df2ce828accc88ba837,69712dc693a3960bdb483245,69716987afe314f825fd8383,,,,,,,,,,,,./stim/wavs/mexican_mismatch_declarative-broad-focus_Mi-tia-odia-la-lluvia.wav,0,,,122.3658,124.5628,0,1,1.6686,,0,31,31,82,1,83,0,mexican,,,,,,,,,,,,,,,,,,,,,,,,,,,,,,,,,,,,,,,,,,,,,,,,,,,,,,,,
,,,,,,,,,63d85df2ce828accc88ba837,spanish,13 or older,click here to respond,yes,2026-01-21_16h05.01.500,empathy_intonation_perc_control,2024.2.4,Win32,60.24096386,63d85df2ce828accc88ba837,69712dc693a3960bdb483245,69716987afe314f825fd8383,,,,,,,,,,,,./stim/wavs/cuban_match_interrogative-total-yn_Ana-lleva-el-abrigo.wav,1,,,124.5634,126.9454,0,0,1.852,,0,32,32,6,1,7,1,cuban,,,,,,,,,,,,,,,,,,,,,,,,,,,,,,,,,,,,,,,,,,,,,,,,,,,,,,,,
,,,,,,,,,63d85df2ce828accc88ba837,spanish,13 or older,click here to respond,yes,2026-01-21_16h05.01.500,empathy_intonation_perc_control,2024.2.4,Win32,60.24096386,63d85df2ce828accc88ba837,69712dc693a3960bdb483245,69716987afe314f825fd8383,,,,,,,,,,,,./stim/wavs/castilian_match_interrogative-total-yn_Mariano-habla-del-tiempo.wav,1,,,126.9459,129.6949,1,1,2.2209,,0,33,33,4,1,5,0,castilian,,,,,,,,,,,,,,,,,,,,,,,,,,,,,,,,,,,,,,,,,,,,,,,,,,,,,,,,
,,,,,,,,,63d85df2ce828accc88ba837,spanish,13 or older,click here to respond,yes,2026-01-21_16h05.01.500,empathy_intonation_perc_control,2024.2.4,Win32,60.24096386,63d85df2ce828accc88ba837,69712dc693a3960bdb483245,69716987afe314f825fd8383,,,,,,,,,,,,./stim/wavs/mexican_mismatch_declarative-broad-focus_El-hombre-mira-la-luna.wav,0,,,129.696,132.0767,0,1,1.8506,,0,34,34,79,1,80,0,mexican,,,,,,,,,,,,,,,,,,,,,,,,,,,,,,,,,,,,,,,,,,,,,,,,,,,,,,,,
,,,,,,,,,63d85df2ce828accc88ba837,spanish,13 or older,click here to respond,yes,2026-01-21_16h05.01.500,empathy_intonation_perc_control,2024.2.4,Win32,60.24096386,63d85df2ce828accc88ba837,69712dc693a3960bdb483245,69716987afe314f825fd8383,,,,,,,,,,,,./stim/wavs/puertorican_match_declarative-broad-focus_Maria-bebe-el-vino.wav,0,,,132.0785,135.7254,0,1,3.1118,,0,35,35,67,1,68,0,puertorican,,,,,,,,,,,,,,,,,,,,,,,,,,,,,,,,,,,,,,,,,,,,,,,,,,,,,,,,
,,,,,,,,,63d85df2ce828accc88ba837,spanish,13 or older,click here to respond,yes,2026-01-21_16h05.01.500,empathy_intonation_perc_control,2024.2.4,Win32,60.24096386,63d85df2ce828accc88ba837,69712dc693a3960bdb483245,69716987afe314f825fd8383,,,,,,,,,,,,./stim/wavs/castilian_match_interrogative-total-yn_Maria-bebe-el-vino.wav,1,,,135.7264,138.0402,1,1,1.7878,,0,36,36,3,1,4,0,castilian,,,,,,,,,,,,,,,,,,,,,,,,,,,,,,,,,,,,,,,,,,,,,,,,,,,,,,,,
,,,,,,,,,63d85df2ce828accc88ba837,spanish,13 or older,click here to respond,yes,2026-01-21_16h05.01.500,empathy_intonation_perc_control,2024.2.4,Win32,60.24096386,63d85df2ce828accc88ba837,69712dc693a3960bdb483245,69716987afe314f825fd8383,,,,,,,,,,,,./stim/wavs/cuban_mismatch_interrogative-total-yn_Mi-madre-come-la-fruta.wav,1,,,138.0408,140.6891,0,0,2.1153,,0,37,37,31,1,32,1,cuban,,,,,,,,,,,,,,,,,,,,,,,,,,,,,,,,,,,,,,,,,,,,,,,,,,,,,,,,
,,,,,,,,,63d85df2ce828accc88ba837,spanish,13 or older,click here to respond,yes,2026-01-21_16h05.01.500,empathy_intonation_perc_control,2024.2.4,Win32,60.24096386,63d85df2ce828accc88ba837,69712dc693a3960bdb483245,69716987afe314f825fd8383,,,,,,,,,,,,./stim/wavs/puertorican_mismatch_interrogative-total-yn_La-nina-lava-el-plato.wav,1,,,140.6896,144.7877,0,0,3.5659,,0,38,38,42,1,43,1,puertorican,,,,,,,,,,,,,,,,,,,,,,,,,,,,,,,,,,,,,,,,,,,,,,,,,,,,,,,,
,,,,,,,,,63d85df2ce828accc88ba837,spanish,13 or older,click here to respond,yes,2026-01-21_16h05.01.500,empathy_intonation_perc_control,2024.2.4,Win32,60.24096386,63d85df2ce828accc88ba837,69712dc693a3960bdb483245,69716987afe314f825fd8383,,,,,,,,,,,,./stim/wavs/mexican_mismatch_interrogative-total-yn_Mi-novio-viene-del-lago.wav,1,,,144.7892,147.1533,1,1,1.8415,,0,39,39,37,1,38,0,mexican,,,,,,,,,,,,,,,,,,,,,,,,,,,,,,,,,,,,,,,,,,,,,,,,,,,,,,,,
,,,,,,,,,63d85df2ce828accc88ba837,spanish,13 or older,click here to respond,yes,2026-01-21_16h05.01.500,empathy_intonation_perc_control,2024.2.4,Win32,60.24096386,63d85df2ce828accc88ba837,69712dc693a3960bdb483245,69716987afe314f825fd8383,,,,,,,,,,,,./stim/wavs/castilian_mismatch_interrogative-total-yn_La-nina-lava-el-plato.wav,1,,,147.1542,149.5687,1,1,1.8926,,0,40,40,25,1,26,0,castilian,,,,,,,,,,,,,,,,,,,,,,,,,,,,,,,,,,,,,,,,,,,,,,,,,,,,,,,,
,,,,,,,,,63d85df2ce828accc88ba837,spanish,13 or older,click here to respond,yes,2026-01-21_16h05.01.500,empathy_intonation_perc_control,2024.2.4,Win32,60.24096386,63d85df2ce828accc88ba837,69712dc693a3960bdb483245,69716987afe314f825fd8383,,,,,,,,,,,,./stim/wavs/mexican_mismatch_interrogative-total-yn_El-nino-oye-el-rio.wav,1,,,149.57,152.0181,1,1,1.9157,,0,41,41,35,1,36,0,mexican,,,,,,,,,,,,,,,,,,,,,,,,,,,,,,,,,,,,,,,,,,,,,,,,,,,,,,,,
,,,,,,,,,63d85df2ce828accc88ba837,spanish,13 or older,click here to respond,yes,2026-01-21_16h05.01.500,empathy_intonation_perc_control,2024.2.4,Win32,60.24096386,63d85df2ce828accc88ba837,69712dc693a3960bdb483245,69716987afe314f825fd8383,,,,,,,,,,,,./stim/wavs/castilian_match_interrogative-total-yn_Marta-abre-el-regalo.wav,1,,,152.0194,154.3168,1,1,1.7692,,0,42,42,5,1,6,0,castilian,,,,,,,,,,,,,,,,,,,,,,,,,,,,,,,,,,,,,,,,,,,,,,,,,,,,,,,,
,,,,,,,,,63d85df2ce828accc88ba837,spanish,13 or older,click here to respond,yes,2026-01-21_16h05.01.500,empathy_intonation_perc_control,2024.2.4,Win32,60.24096386,63d85df2ce828accc88ba837,69712dc693a3960bdb483245,69716987afe314f825fd8383,,,,,,,,,,,,./stim/wavs/puertorican_mismatch_declarative-broad-focus_El-hombre-mira-la-luna.wav,0,,,154.3183,156.5491,0,1,1.7001,,0,43,43,84,1,85,0,puertorican,,,,,,,,,,,,,,,,,,,,,,,,,,,,,,,,,,,,,,,,,,,,,,,,,,,,,,,,
,,,,,,,,,63d85df2ce828accc88ba837,spanish,13 or older,click here to respond,yes,2026-01-21_16h05.01.500,empathy_intonation_perc_control,2024.2.4,Win32,60.24096386,63d85df2ce828accc88ba837,69712dc693a3960bdb483245,69716987afe314f825fd8383,,,,,,,,,,,,./stim/wavs/puertorican_match_declarative-broad-focus_David-leia-el-libro.wav,0,,,156.5501,159.6649,0,1,2.5862,,0,44,44,64,1,65,0,puertorican,,,,,,,,,,,,,,,,,,,,,,,,,,,,,,,,,,,,,,,,,,,,,,,,,,,,,,,,
,,,,,,,,,63d85df2ce828accc88ba837,spanish,13 or older,click here to respond,yes,2026-01-21_16h05.01.500,empathy_intonation_perc_control,2024.2.4,Win32,60.24096386,63d85df2ce828accc88ba837,69712dc693a3960bdb483245,69716987afe314f825fd8383,,,,,,,,,,,,./stim/wavs/puertorican_match_interrogative-total-yn_Emilio-ama-la-marcha.wav,1,,,159.6661,164.5796,1,1,4.3826,,0,45,45,21,1,22,1,puertorican,,,,,,,,,,,,,,,,,,,,,,,,,,,,,,,,,,,,,,,,,,,,,,,,,,,,,,,,
,,,,,,,,,63d85df2ce828accc88ba837,spanish,13 or older,click here to respond,yes,2026-01-21_16h05.01.500,empathy_intonation_perc_control,2024.2.4,Win32,60.24096386,63d85df2ce828accc88ba837,69712dc693a3960bdb483245,69716987afe314f825fd8383,,,,,,,,,,,,./stim/wavs/puertorican_mismatch_interrogative-total-yn_Mi-madre-come-la-fruta.wav,1,,,164.5813,166.8273,0,0,1.7164,,0,46,46,43,1,44,1,puertorican,,,,,,,,,,,,,,,,,,,,,,,,,,,,,,,,,,,,,,,,,,,,,,,,,,,,,,,,
,,,,,,,,,63d85df2ce828accc88ba837,spanish,13 or older,click here to respond,yes,2026-01-21_16h05.01.500,empathy_intonation_perc_control,2024.2.4,Win32,60.24096386,63d85df2ce828accc88ba837,69712dc693a3960bdb483245,69716987afe314f825fd8383,,,,,,,,,,,,./stim/wavs/castilian_match_declarative-broad-focus_David-leia-el-libro.wav,0,,,166.828,169.2601,0,1,1.9002,,0,47,47,44,1,45,0,castilian,,,,,,,,,,,,,,,,,,,,,,,,,,,,,,,,,,,,,,,,,,,,,,,,,,,,,,,,
,,,,,,,,,63d85df2ce828accc88ba837,spanish,13 or older,click here to respond,yes,2026-01-21_16h05.01.500,empathy_intonation_perc_control,2024.2.4,Win32,60.24096386,63d85df2ce828accc88ba837,69712dc693a3960bdb483245,69716987afe314f825fd8383,,,,,,,,,,,,./stim/wavs/cuban_mismatch_declarative-broad-focus_La-nina-lava-el-plato.wav,0,,,169.2615,171.6085,0,1,1.8259,,0,48,48,75,1,76,0,cuban,,,,,,,,,,,,,,,,,,,,,,,,,,,,,,,,,,,,,,,,,,,,,,,,,,,,,,,,
,,,,,,,,,63d85df2ce828accc88ba837,spanish,13 or older,click here to respond,yes,2026-01-21_16h05.01.500,empathy_intonation_perc_control,2024.2.4,Win32,60.24096386,63d85df2ce828accc88ba837,69712dc693a3960bdb483245,69716987afe314f825fd8383,,,,,,,,,,,,./stim/wavs/cuban_mismatch_declarative-broad-focus_El-hombre-mira-la-luna.wav,0,,,171.6092,173.7417,0,1,1.5997,,0,49,49,74,1,75,0,cuban,,,,,,,,,,,,,,,,,,,,,,,,,,,,,,,,,,,,,,,,,,,,,,,,,,,,,,,,
,,,,,,,,,63d85df2ce828accc88ba837,spanish,13 or older,click here to respond,yes,2026-01-21_16h05.01.500,empathy_intonation_perc_control,2024.2.4,Win32,60.24096386,63d85df2ce828accc88ba837,69712dc693a3960bdb483245,69716987afe314f825fd8383,,,,,,,,,,,,./stim/wavs/castilian_match_declarative-broad-focus_Maria-bebe-el-vino.wav,0,,,173.7429,175.9738,0,1,1.7003,,0,50,50,47,1,48,0,castilian,,,,,,,,,,,,,,,,,,,,,,,,,,,,,,,,,,,,,,,,,,,,,,,,,,,,,,,,
,,,,,,,,,63d85df2ce828accc88ba837,spanish,13 or older,click here to respond,yes,2026-01-21_16h05.01.500,empathy_intonation_perc_control,2024.2.4,Win32,60.24096386,63d85df2ce828accc88ba837,69712dc693a3960bdb483245,69716987afe314f825fd8383,,,,,,,,,,,,./stim/wavs/puertorican_match_interrogative-total-yn_Manuela-vende-el-carro.wav,1,,,175.9757,178.3227,0,0,1.8159,,0,51,51,22,1,23,1,puertorican,,,,,,,,,,,,,,,,,,,,,,,,,,,,,,,,,,,,,,,,,,,,,,,,,,,,,,,,
,,,,,,,,,63d85df2ce828accc88ba837,spanish,13 or older,click here to respond,yes,2026-01-21_16h05.01.500,empathy_intonation_perc_control,2024.2.4,Win32,60.24096386,63d85df2ce828accc88ba837,69712dc693a3960bdb483245,69716987afe314f825fd8383,,,,,,,,,,,,./stim/wavs/mexican_match_interrogative-total-yn_Marta-abre-el-regalo.wav,1,,,178.3246,180.971,1,1,2.1163,,0,52,52,17,1,18,0,mexican,,,,,,,,,,,,,,,,,,,,,,,,,,,,,,,,,,,,,,,,,,,,,,,,,,,,,,,,
,,,,,,,,,63d85df2ce828accc88ba837,spanish,13 or older,click here to respond,yes,2026-01-21_16h05.01.500,empathy_intonation_perc_control,2024.2.4,Win32,60.24096386,63d85df2ce828accc88ba837,69712dc693a3960bdb483245,69716987afe314f825fd8383,,,,,,,,,,,,./stim/wavs/puertorican_match_declarative-broad-focus_Daniel-iba-a-Bolivia.wav,0,,,180.9714,183.0706,0,1,1.5907,,0,53,53,63,1,64,0,puertorican,,,,,,,,,,,,,,,,,,,,,,,,,,,,,,,,,,,,,,,,,,,,,,,,,,,,,,,,
,,,,,,,,,63d85df2ce828accc88ba837,spanish,13 or older,click here to respond,yes,2026-01-21_16h05.01.500,empathy_intonation_perc_control,2024.2.4,Win32,60.24096386,63d85df2ce828accc88ba837,69712dc693a3960bdb483245,69716987afe314f825fd8383,,,,,,,,,,,,./stim/wavs/cuban_match_interrogative-total-yn_Maria-bebe-el-vino.wav,1,,,183.072,185.4023,0,0,1.8033,,0,54,54,9,1,10,1,cuban,,,,,,,,,,,,,,,,,,,,,,,,,,,,,,,,,,,,,,,,,,,,,,,,,,,,,,,,
,,,,,,,,,63d85df2ce828accc88ba837,spanish,13 or older,click here to respond,yes,2026-01-21_16h05.01.500,empathy_intonation_perc_control,2024.2.4,Win32,60.24096386,63d85df2ce828accc88ba837,69712dc693a3960bdb483245,69716987afe314f825fd8383,,,,,,,,,,,,./stim/wavs/cuban_mismatch_declarative-broad-focus_Mi-tia-odia-la-lluvia.wav,0,,,185.4029,187.5514,0,1,1.6246,,0,55,55,77,1,78,0,cuban,,,,,,,,,,,,,,,,,,,,,,,,,,,,,,,,,,,,,,,,,,,,,,,,,,,,,,,,
,,,,,,,,,63d85df2ce828accc88ba837,spanish,13 or older,click here to respond,yes,2026-01-21_16h05.01.500,empathy_intonation_perc_control,2024.2.4,Win32,60.24096386,63d85df2ce828accc88ba837,69712dc693a3960bdb483245,69716987afe314f825fd8383,,,,,,,,,,,,./stim/wavs/puertorican_mismatch_interrogative-total-yn_El-hombre-mira-la-luna.wav,1,,,187.5523,190.1177,0,0,2.0332,,0,56,56,39,1,40,1,puertorican,,,,,,,,,,,,,,,,,,,,,,,,,,,,,,,,,,,,,,,,,,,,,,,,,,,,,,,,
,,,,,,,,,63d85df2ce828accc88ba837,spanish,13 or older,click here to respond,yes,2026-01-21_16h05.01.500,empathy_intonation_perc_control,2024.2.4,Win32,60.24096386,63d85df2ce828accc88ba837,69712dc693a3960bdb483245,69716987afe314f825fd8383,,,,,,,,,,,,./stim/wavs/castilian_mismatch_declarative-broad-focus_Mi-novio-viene-del-lago.wav,0,,,190.119,192.6992,0,1,2.0488,,0,57,57,71,1,72,0,castilian,,,,,,,,,,,,,,,,,,,,,,,,,,,,,,,,,,,,,,,,,,,,,,,,,,,,,,,,
,,,,,,,,,63d85df2ce828accc88ba837,spanish,13 or older,click here to respond,yes,2026-01-21_16h05.01.500,empathy_intonation_perc_control,2024.2.4,Win32,60.24096386,63d85df2ce828accc88ba837,69712dc693a3960bdb483245,69716987afe314f825fd8383,,,,,,,,,,,,./stim/wavs/castilian_mismatch_interrogative-total-yn_Mi-tia-odia-la-lluvia.wav,1,,,192.7,195.0813,1,1,1.8471,,0,58,58,28,1,29,0,castilian,,,,,,,,,,,,,,,,,,,,,,,,,,,,,,,,,,,,,,,,,,,,,,,,,,,,,,,,
,,,,,,,,,63d85df2ce828accc88ba837,spanish,13 or older,click here to respond,yes,2026-01-21_16h05.01.500,empathy_intonation_perc_control,2024.2.4,Win32,60.24096386,63d85df2ce828accc88ba837,69712dc693a3960bdb483245,69716987afe314f825fd8383,,,,,,,,,,,,./stim/wavs/puertorican_mismatch_declarative-broad-focus_El-bebe-comia-muy-bien.wav,0,,,195.0818,197.3138,0,1,1.7033,,0,59,59,83,1,84,0,puertorican,,,,,,,,,,,,,,,,,,,,,,,,,,,,,,,,,,,,,,,,,,,,,,,,,,,,,,,,
,,,,,,,,,63d85df2ce828accc88ba837,spanish,13 or older,click here to respond,yes,2026-01-21_16h05.01.500,empathy_intonation_perc_control,2024.2.4,Win32,60.24096386,63d85df2ce828accc88ba837,69712dc693a3960bdb483245,69716987afe314f825fd8383,,,,,,,,,,,,./stim/wavs/cuban_match_declarative-broad-focus_Manuela-vende-el-carro.wav,0,,,197.3144,199.7629,0,1,1.9203,,0,60,60,52,1,53,0,cuban,,,,,,,,,,,,,,,,,,,,,,,,,,,,,,,,,,,,,,,,,,,,,,,,,,,,,,,,
,,,,,,,,,63d85df2ce828accc88ba837,spanish,13 or older,click here to respond,yes,2026-01-21_16h05.01.500,empathy_intonation_perc_control,2024.2.4,Win32,60.24096386,63d85df2ce828accc88ba837,69712dc693a3960bdb483245,69716987afe314f825fd8383,,,,,,,,,,,,./stim/wavs/mexican_match_declarative-broad-focus_David-leia-el-libro.wav,0,,,199.7636,201.8122,0,1,1.5224,,0,61,61,58,1,59,0,mexican,,,,,,,,,,,,,,,,,,,,,,,,,,,,,,,,,,,,,,,,,,,,,,,,,,,,,,,,
,,,,,,,,,63d85df2ce828accc88ba837,spanish,13 or older,click here to respond,yes,2026-01-21_16h05.01.500,empathy_intonation_perc_control,2024.2.4,Win32,60.24096386,63d85df2ce828accc88ba837,69712dc693a3960bdb483245,69716987afe314f825fd8383,,,,,,,,,,,,./stim/wavs/castilian_mismatch_declarative-broad-focus_Mi-tia-odia-la-lluvia.wav,0,,,201.8133,204.1467,0,1,1.809,,0,62,62,72,1,73,0,castilian,,,,,,,,,,,,,,,,,,,,,,,,,,,,,,,,,,,,,,,,,,,,,,,,,,,,,,,,
,,,,,,,,,63d85df2ce828accc88ba837,spanish,13 or older,click here to respond,yes,2026-01-21_16h05.01.500,empathy_intonation_perc_control,2024.2.4,Win32,60.24096386,63d85df2ce828accc88ba837,69712dc693a3960bdb483245,69716987afe314f825fd8383,,,,,,,,,,,,./stim/wavs/castilian_match_declarative-broad-focus_Emilio-ama-la-marcha.wav,0,,,204.1484,206.4267,0,1,1.7544,,0,63,63,45,1,46,0,castilian,,,,,,,,,,,,,,,,,,,,,,,,,,,,,,,,,,,,,,,,,,,,,,,,,,,,,,,,
,,,,,,,,,63d85df2ce828accc88ba837,spanish,13 or older,click here to respond,yes,2026-01-21_16h05.01.500,empathy_intonation_perc_control,2024.2.4,Win32,60.24096386,63d85df2ce828accc88ba837,69712dc693a3960bdb483245,69716987afe314f825fd8383,,,,,,,,,,,,./stim/wavs/puertorican_match_declarative-broad-focus_Ana-lleva-el-abrigo.wav,0,,,206.4294,208.5921,0,1,1.6357,,0,64,64,62,1,63,0,puertorican,,,,,,,,,,,,,,,,,,,,,,,,,,,,,,,,,,,,,,,,,,,,,,,,,,,,,,,,
,,,,,,,,,63d85df2ce828accc88ba837,spanish,13 or older,click here to respond,yes,2026-01-21_16h05.01.500,empathy_intonation_perc_control,2024.2.4,Win32,60.24096386,63d85df2ce828accc88ba837,69712dc693a3960bdb483245,69716987afe314f825fd8383,,,,,,,,,,,,./stim/wavs/puertorican_match_interrogative-total-yn_Maria-bebe-el-vino.wav,1,,,208.5929,211.527,0,0,2.4096,,0,65,65,23,1,24,1,puertorican,,,,,,,,,,,,,,,,,,,,,,,,,,,,,,,,,,,,,,,,,,,,,,,,,,,,,,,,
,,,,,,,,,63d85df2ce828accc88ba837,spanish,13 or older,click here to respond,yes,2026-01-21_16h05.01.500,empathy_intonation_perc_control,2024.2.4,Win32,60.24096386,63d85df2ce828accc88ba837,69712dc693a3960bdb483245,69716987afe314f825fd8383,,,,,,,,,,,,./stim/wavs/cuban_mismatch_declarative-broad-focus_Mi-novio-viene-del-lago.wav,0,,,211.5285,213.8572,0,1,1.7996,,0,66,66,76,1,77,0,cuban,,,,,,,,,,,,,,,,,,,,,,,,,,,,,,,,,,,,,,,,,,,,,,,,,,,,,,,,
,,,,,,,,,63d85df2ce828accc88ba837,spanish,13 or older,click here to respond,yes,2026-01-21_16h05.01.500,empathy_intonation_perc_control,2024.2.4,Win32,60.24096386,63d85df2ce828accc88ba837,69712dc693a3960bdb483245,69716987afe314f825fd8383,,,,,,,,,,,,./stim/wavs/mexican_match_interrogative-total-yn_Daniel-iba-a-Bolivia.wav,1,,,213.8588,216.0386,0,0,1.6558,,0,67,67,13,1,14,0,mexican,,,,,,,,,,,,,,,,,,,,,,,,,,,,,,,,,,,,,,,,,,,,,,,,,,,,,,,,
,,,,,,,,,63d85df2ce828accc88ba837,spanish,13 or older,click here to respond,yes,2026-01-21_16h05.01.500,empathy_intonation_perc_control,2024.2.4,Win32,60.24096386,63d85df2ce828accc88ba837,69712dc693a3960bdb483245,69716987afe314f825fd8383,,,,,,,,,,,,./stim/wavs/cuban_mismatch_interrogative-total-yn_Mi-novio-viene-del-lago.wav,1,,,216.0393,218.4378,0,0,1.8712,,0,68,68,32,1,33,1,cuban,,,,,,,,,,,,,,,,,,,,,,,,,,,,,,,,,,,,,,,,,,,,,,,,,,,,,,,,
,,,,,,,,,63d85df2ce828accc88ba837,spanish,13 or older,click here to respond,yes,2026-01-21_16h05.01.500,empathy_intonation_perc_control,2024.2.4,Win32,60.24096386,63d85df2ce828accc88ba837,69712dc693a3960bdb483245,69716987afe314f825fd8383,,,,,,,,,,,,./stim/wavs/castilian_match_interrogative-total-yn_Manuela-vende-el-carro.wav,1,,,218.4389,220.756,1,1,1.8047,,0,69,69,2,1,3,0,castilian,,,,,,,,,,,,,,,,,,,,,,,,,,,,,,,,,,,,,,,,,,,,,,,,,,,,,,,,
,,,,,,,,,63d85df2ce828accc88ba837,spanish,13 or older,click here to respond,yes,2026-01-21_16h05.01.500,empathy_intonation_perc_control,2024.2.4,Win32,60.24096386,63d85df2ce828accc88ba837,69712dc693a3960bdb483245,69716987afe314f825fd8383,,,,,,,,,,,,./stim/wavs/mexican_match_declarative-broad-focus_Emilio-ama-la-marcha.wav,0,,,220.758,223.0371,0,1,1.7534,,0,70,70,59,1,60,0,mexican,,,,,,,,,,,,,,,,,,,,,,,,,,,,,,,,,,,,,,,,,,,,,,,,,,,,,,,,
,,,,,,,,,63d85df2ce828accc88ba837,spanish,13 or older,click here to respond,yes,2026-01-21_16h05.01.500,empathy_intonation_perc_control,2024.2.4,Win32,60.24096386,63d85df2ce828accc88ba837,69712dc693a3960bdb483245,69716987afe314f825fd8383,,,,,,,,,,,,./stim/wavs/puertorican_mismatch_interrogative-total-yn_El-nino-oye-el-rio.wav,1,,,223.0385,225.5185,0,0,1.9494,,0,71,71,40,1,41,1,puertorican,,,,,,,,,,,,,,,,,,,,,,,,,,,,,,,,,,,,,,,,,,,,,,,,,,,,,,,,
,,,,,,,,,63d85df2ce828accc88ba837,spanish,13 or older,click here to respond,yes,2026-01-21_16h05.01.500,empathy_intonation_perc_control,2024.2.4,Win32,60.24096386,63d85df2ce828accc88ba837,69712dc693a3960bdb483245,69716987afe314f825fd8383,,,,,,,,,,,,./stim/wavs/puertorican_mismatch_declarative-broad-focus_El-nino-oye-el-rio.wav,0,,,225.5201,227.6175,0,1,1.5668,,0,72,72,85,1,86,0,puertorican,,,,,,,,,,,,,,,,,,,,,,,,,,,,,,,,,,,,,,,,,,,,,,,,,,,,,,,,
,,,,,,,,,63d85df2ce828accc88ba837,spanish,13 or older,click here to respond,yes,2026-01-21_16h05.01.500,empathy_intonation_perc_control,2024.2.4,Win32,60.24096386,63d85df2ce828accc88ba837,69712dc693a3960bdb483245,69716987afe314f825fd8383,,,,,,,,,,,,./stim/wavs/mexican_match_declarative-broad-focus_Marta-abre-el-regalo.wav,0,,,227.619,229.8826,0,1,1.7314,,0,73,73,61,1,62,0,mexican,,,,,,,,,,,,,,,,,,,,,,,,,,,,,,,,,,,,,,,,,,,,,,,,,,,,,,,,
,,,,,,,,,63d85df2ce828accc88ba837,spanish,13 or older,click here to respond,yes,2026-01-21_16h05.01.500,empathy_intonation_perc_control,2024.2.4,Win32,60.24096386,63d85df2ce828accc88ba837,69712dc693a3960bdb483245,69716987afe314f825fd8383,,,,,,,,,,,,./stim/wavs/castilian_mismatch_interrogative-total-yn_Mi-novio-viene-del-lago.wav,1,,,229.8832,232.2992,1,1,1.8858,,0,74,74,27,1,28,0,castilian,,,,,,,,,,,,,,,,,,,,,,,,,,,,,,,,,,,,,,,,,,,,,,,,,,,,,,,,
,,,,,,,,,63d85df2ce828accc88ba837,spanish,13 or older,click here to respond,yes,2026-01-21_16h05.01.500,empathy_intonation_perc_control,2024.2.4,Win32,60.24096386,63d85df2ce828accc88ba837,69712dc693a3960bdb483245,69716987afe314f825fd8383,,,,,,,,,,,,./stim/wavs/mexican_mismatch_interrogative-total-yn_El-hombre-mira-la-luna.wav,1,,,232.3006,234.597,1,1,1.7681,,0,75,75,34,1,35,0,mexican,,,,,,,,,,,,,,,,,,,,,,,,,,,,,,,,,,,,,,,,,,,,,,,,,,,,,,,,
,,,,,,,,,63d85df2ce828accc88ba837,spanish,13 or older,click here to respond,yes,2026-01-21_16h05.01.500,empathy_intonation_perc_control,2024.2.4,Win32,60.24096386,63d85df2ce828accc88ba837,69712dc693a3960bdb483245,69716987afe314f825fd8383,,,,,,,,,,,,./stim/wavs/cuban_match_interrogative-total-yn_Mariano-habla-del-tiempo.wav,1,,,234.5977,237.0459,0,0,1.9156,,0,76,76,10,1,11,1,cuban,,,,,,,,,,,,,,,,,,,,,,,,,,,,,,,,,,,,,,,,,,,,,,,,,,,,,,,,
,,,,,,,,,63d85df2ce828accc88ba837,spanish,13 or older,click here to respond,yes,2026-01-21_16h05.01.500,empathy_intonation_perc_control,2024.2.4,Win32,60.24096386,63d85df2ce828accc88ba837,69712dc693a3960bdb483245,69716987afe314f825fd8383,,,,,,,,,,,,./stim/wavs/puertorican_mismatch_declarative-broad-focus_La-maestra-vive-en-Paris.wav,0,,,237.0465,239.4449,0,1,1.8726,,0,77,77,86,1,87,0,puertorican,,,,,,,,,,,,,,,,,,,,,,,,,,,,,,,,,,,,,,,,,,,,,,,,,,,,,,,,
,,,,,,,,,63d85df2ce828accc88ba837,spanish,13 or older,click here to respond,yes,2026-01-21_16h05.01.500,empathy_intonation_perc_control,2024.2.4,Win32,60.24096386,63d85df2ce828accc88ba837,69712dc693a3960bdb483245,69716987afe314f825fd8383,,,,,,,,,,,,./stim/wavs/cuban_match_declarative-broad-focus_Marta-abre-el-regalo.wav,0,,,239.4455,241.6605,0,1,1.6906,,0,78,78,55,1,56,0,cuban,,,,,,,,,,,,,,,,,,,,,,,,,,,,,,,,,,,,,,,,,,,,,,,,,,,,,,,,
,,,,,,,,,63d85df2ce828accc88ba837,spanish,13 or older,click here to respond,yes,2026-01-21_16h05.01.500,empathy_intonation_perc_control,2024.2.4,Win32,60.24096386,63d85df2ce828accc88ba837,69712dc693a3960bdb483245,69716987afe314f825fd8383,,,,,,,,,,,,./stim/wavs/puertorican_match_interrogative-total-yn_Ana-lleva-el-abrigo.wav,1,,,241.6614,243.6097,0,0,1.4226,,0,79,79,18,1,19,1,puertorican,,,,,,,,,,,,,,,,,,,,,,,,,,,,,,,,,,,,,,,,,,,,,,,,,,,,,,,,
,,,,,,,,,63d85df2ce828accc88ba837,spanish,13 or older,click here to respond,yes,2026-01-21_16h05.01.500,empathy_intonation_perc_control,2024.2.4,Win32,60.24096386,63d85df2ce828accc88ba837,69712dc693a3960bdb483245,69716987afe314f825fd8383,,,,,,,,,,,,./stim/wavs/mexican_mismatch_declarative-broad-focus_El-bebe-comia-muy-bien.wav,0,,,243.6106,246.4588,0,1,2.3186,,0,80,80,78,1,79,0,mexican,,,,,,,,,,,,,,,,,,,,,,,,,,,,,,,,,,,,,,,,,,,,,,,,,,,,,,,,
,,,,,,,,,63d85df2ce828accc88ba837,spanish,13 or older,click here to respond,yes,2026-01-21_16h05.01.500,empathy_intonation_perc_control,2024.2.4,Win32,60.24096386,63d85df2ce828accc88ba837,69712dc693a3960bdb483245,69716987afe314f825fd8383,,,,,,,,,,,,./stim/wavs/puertorican_match_interrogative-total-yn_Daniel-iba-a-Bolivia.wav,1,,,246.4601,249.575,0,0,2.5852,,0,81,81,19,1,20,1,puertorican,,,,,,,,,,,,,,,,,,,,,,,,,,,,,,,,,,,,,,,,,,,,,,,,,,,,,,,,
,,,,,,,,,63d85df2ce828accc88ba837,spanish,13 or older,click here to respond,yes,2026-01-21_16h05.01.500,empathy_intonation_perc_control,2024.2.4,Win32,60.24096386,63d85df2ce828accc88ba837,69712dc693a3960bdb483245,69716987afe314f825fd8383,,,,,,,,,,,,./stim/wavs/cuban_mismatch_interrogative-total-yn_El-nino-oye-el-rio.wav,1,,,249.5765,252.0731,0,0,1.9641,,0,82,82,30,1,31,1,cuban,,,,,,,,,,,,,,,,,,,,,,,,,,,,,,,,,,,,,,,,,,,,,,,,,,,,,,,,
,,,,,,,,,63d85df2ce828accc88ba837,spanish,13 or older,click here to respond,yes,2026-01-21_16h05.01.500,empathy_intonation_perc_control,2024.2.4,Win32,60.24096386,63d85df2ce828accc88ba837,69712dc693a3960bdb483245,69716987afe314f825fd8383,,,,,,,,,,,,./stim/wavs/cuban_mismatch_interrogative-total-yn_Mi-tia-odia-la-lluvia.wav,1,,,252.0742,255.0048,0,0,2.4027,,0,83,83,33,1,34,1,cuban,,,,,,,,,,,,,,,,,,,,,,,,,,,,,,,,,,,,,,,,,,,,,,,,,,,,,,,,
,,,,,,,,,63d85df2ce828accc88ba837,spanish,13 or older,click here to respond,yes,2026-01-21_16h05.01.500,empathy_intonation_perc_control,2024.2.4,Win32,60.24096386,63d85df2ce828accc88ba837,69712dc693a3960bdb483245,69716987afe314f825fd8383,,,,,,,,,,,,./stim/wavs/castilian_match_interrogative-total-yn_Emilio-ama-la-marcha.wav,1,,,255.0057,258.1703,1,1,2.6328,,0,84,84,1,1,2,0,castilian,,,,,,,,,,,,,,,,,,,,,,,,,,,,,,,,,,,,,,,,,,,,,,,,,,,,,,,,
,,,,,,,,,63d85df2ce828accc88ba837,spanish,13 or older,click here to respond,yes,2026-01-21_16h05.01.500,empathy_intonation_perc_control,2024.2.4,Win32,60.24096386,63d85df2ce828accc88ba837,69712dc693a3960bdb483245,69716987afe314f825fd8383,,,,,,,,,,,,./stim/wavs/cuban_match_declarative-broad-focus_Mariano-habla-del-tiempo.wav,0,,,258.1717,260.8853,0,1,2.1847,,0,85,85,54,1,55,0,cuban,,,,,,,,,,,,,,,,,,,,,,,,,,,,,,,,,,,,,,,,,,,,,,,,,,,,,,,,
,,,,,,,,,63d85df2ce828accc88ba837,spanish,13 or older,click here to respond,yes,2026-01-21_16h05.01.500,empathy_intonation_perc_control,2024.2.4,Win32,60.24096386,63d85df2ce828accc88ba837,69712dc693a3960bdb483245,69716987afe314f825fd8383,,,,,,,,,,,,./stim/wavs/cuban_match_declarative-broad-focus_Ana-lleva-el-abrigo.wav,0,,,260.8859,263.5518,0,1,2.1338,,0,86,86,50,1,51,0,cuban,,,,,,,,,,,,,,,,,,,,,,,,,,,,,,,,,,,,,,,,,,,,,,,,,,,,,,,,
,,,,,,,,,63d85df2ce828accc88ba837,spanish,13 or older,click here to respond,yes,2026-01-21_16h05.01.500,empathy_intonation_perc_control,2024.2.4,Win32,60.24096386,63d85df2ce828accc88ba837,69712dc693a3960bdb483245,69716987afe314f825fd8383,,,,,,,,,,,,./stim/wavs/mexican_mismatch_interrogative-total-yn_Mi-tia-odia-la-lluvia.wav,1,,,263.5533,265.8009,1,1,1.718,,0,87,87,38,1,39,0,mexican,,,,,,,,,,,,,,,,,,,,,,,,,,,,,,,,,,,,,,,,,,,,,,,,,,,,,,,,
,,,,,,,"Great! Now we will move on. The next task consists of about 60 trials, in each of which you will see a string of letters. 
  
  Your task is to decide whether this is a real Spanish word or not.", (press the spacebar to continue),63d85df2ce828accc88ba837,spanish,13 or older,click here to respond,yes,2026-01-21_16h05.01.500,empathy_intonation_perc_control,2024.2.4,Win32,60.24096386,63d85df2ce828accc88ba837,69712dc693a3960bdb483245,69716987afe314f825fd8383,,,,,,,,,,,,,,,,,,,,,,,,,,,,,,265.82,275.5121,0,0,0,0,1,,,,,,,,,,,,,,,,,,,,,,,,,,,,,,,,,,,,,,,,,,,,,,,,,
,,,,,,,"If you think it is an existing Spanish word, you type '1' (for 'REAL'), and if you think it is not an existing Spanish word, you type '0' (for 'FAKE').", (press the spacebar to continue),63d85df2ce828accc88ba837,spanish,13 or older,click here to respond,yes,2026-01-21_16h05.01.500,empathy_intonation_perc_control,2024.2.4,Win32,60.24096386,63d85df2ce828accc88ba837,69712dc693a3960bdb483245,69716987afe314f825fd8383,,,,,,,,,,,,,,,,,,,,,,,,,,,,,,275.5147,284.242,0,1,1,1,1,,,,,,,,,,,,,,,,,,,,,,,,,,,,,,,,,,,,,,,,,,,,,,,,,
,,,,,,,"If you are sure that the word exists, even though you don’t know its exact meaning, you may still respond '1' (REAL). 
  
  But if you are not sure if it is an existing word, you should respond '0' (FAKE).
  
  Let's do a practice round...", (press the spacebar to continue),63d85df2ce828accc88ba837,spanish,13 or older,click here to respond,yes,2026-01-21_16h05.01.500,empathy_intonation_perc_control,2024.2.4,Win32,60.24096386,63d85df2ce828accc88ba837,69712dc693a3960bdb483245,69716987afe314f825fd8383,,,,,,,,,,,,,,,,,,,,,,,,,,,,,,284.2479,285.9079,0,2,2,2,1,,,,,,,,,,,,,,,,,,,,,,,,,,,,,,,,,,,,,,,,,,,,,,,,,
,,,,,,,,,63d85df2ce828accc88ba837,spanish,13 or older,click here to respond,yes,2026-01-21_16h05.01.500,empathy_intonation_perc_control,2024.2.4,Win32,60.24096386,63d85df2ce828accc88ba837,69712dc693a3960bdb483245,69716987afe314f825fd8383,,,,,,,,,,,,,0,,,,,,,,,,,,,,,,,,,,,,,,285.9298,289.2733,1,0,2.8118,,289.2743,290.2722,0,0,0,0,1,0,depiste,REAL,FAKE,,,,,,,,,,,,,,,,,,,,,,,,,,,,,,,,
,,,,,,,,,63d85df2ce828accc88ba837,spanish,13 or older,click here to respond,yes,2026-01-21_16h05.01.500,empathy_intonation_perc_control,2024.2.4,Win32,60.24096386,63d85df2ce828accc88ba837,69712dc693a3960bdb483245,69716987afe314f825fd8383,,,,,,,,,,,,,1,,,,,,,,,,,,,,,,,,,,,,,,290.2753,296.07,1,1,5.2716,,296.0732,297.0694,0,1,1,1,1,0,sí,REAL,FAKE,,,,,,,,,,,,,,,,,,,,,,,,,,,,,,,,
,,,,,,,,,63d85df2ce828accc88ba837,spanish,13 or older,click here to respond,yes,2026-01-21_16h05.01.500,empathy_intonation_perc_control,2024.2.4,Win32,60.24096386,63d85df2ce828accc88ba837,69712dc693a3960bdb483245,69716987afe314f825fd8383,,,,,,,,,,,,,0,,,,,,,,,,,,,,,,,,,,,,,,297.073,299.5011,1,0,1.8894,,299.5018,300.5007,0,2,2,2,1,0,coné,REAL,FAKE,,,,,,,,,,,,,,,,,,,,,,,,,,,,,,,,
,,,,,,,,,63d85df2ce828accc88ba837,spanish,13 or older,click here to respond,yes,2026-01-21_16h05.01.500,empathy_intonation_perc_control,2024.2.4,Win32,60.24096386,63d85df2ce828accc88ba837,69712dc693a3960bdb483245,69716987afe314f825fd8383,,,,,,,,,,,,,0,,,,,,,,,,,,,,,,,,,,,,,,300.502,302.1166,1,0,1.0822,,302.1167,303.1171,0,3,3,3,1,0,calpar,REAL,FAKE,,,,,,,,,,,,,,,,,,,,,,,,,,,,,,,,
,,,,,,,,,63d85df2ce828accc88ba837,spanish,13 or older,click here to respond,yes,2026-01-21_16h05.01.500,empathy_intonation_perc_control,2024.2.4,Win32,60.24096386,63d85df2ce828accc88ba837,69712dc693a3960bdb483245,69716987afe314f825fd8383,,,,,,,,,,,,,0,,,,,,,,,,,,,,,,,,,,,,,,303.1198,304.8321,1,0,1.1749,,304.8322,305.8316,0,4,4,4,1,0,joten,REAL,FAKE,,,,,,,,,,,,,,,,,,,,,,,,,,,,,,,,
,,,,,,,,,63d85df2ce828accc88ba837,spanish,13 or older,click here to respond,yes,2026-01-21_16h05.01.500,empathy_intonation_perc_control,2024.2.4,Win32,60.24096386,63d85df2ce828accc88ba837,69712dc693a3960bdb483245,69716987afe314f825fd8383,,,,,,,,,,,,,1,,,,,,,,,,,,,,,,,,,,,,,,305.8326,307.498,1,1,1.141,,307.4995,308.4979,0,5,5,5,1,0,sacapuntas,REAL,FAKE,,,,,,,,,,,,,,,,,,,,,,,,,,,,,,,,
,,,,,,,,,63d85df2ce828accc88ba837,spanish,13 or older,click here to respond,yes,2026-01-21_16h05.01.500,empathy_intonation_perc_control,2024.2.4,Win32,60.24096386,63d85df2ce828accc88ba837,69712dc693a3960bdb483245,69716987afe314f825fd8383,,,,,,,,,,,,,0,,,,,,,,,,,,,,,,,,,,,,,,308.501,310.2139,1,0,1.1798,,310.2152,311.2131,0,6,6,6,1,0,priba,REAL,FAKE,,,,,,,,,,,,,,,,,,,,,,,,,,,,,,,,
,,,,,,,,,63d85df2ce828accc88ba837,spanish,13 or older,click here to respond,yes,2026-01-21_16h05.01.500,empathy_intonation_perc_control,2024.2.4,Win32,60.24096386,63d85df2ce828accc88ba837,69712dc693a3960bdb483245,69716987afe314f825fd8383,,,,,,,,,,,,,0,,,,,,,,,,,,,,,,,,,,,,,,311.2153,315.8947,0,1,4.143,,315.896,316.8943,0,7,7,7,1,0,pelasula,REAL,FAKE,,,,,,,,,,,,,,,,,,,,,,,,,,,,,,,,
,,,,,,,,,63d85df2ce828accc88ba837,spanish,13 or older,click here to respond,yes,2026-01-21_16h05.01.500,empathy_intonation_perc_control,2024.2.4,Win32,60.24096386,63d85df2ce828accc88ba837,69712dc693a3960bdb483245,69716987afe314f825fd8383,,,,,,,,,,,,,1,,,,,,,,,,,,,,,,,,,,,,,,316.8961,318.8932,1,1,1.4636,,318.8935,319.892,0,8,8,8,1,0,bien,REAL,FAKE,,,,,,,,,,,,,,,,,,,,,,,,,,,,,,,,
,,,,,,,,,63d85df2ce828accc88ba837,spanish,13 or older,click here to respond,yes,2026-01-21_16h05.01.500,empathy_intonation_perc_control,2024.2.4,Win32,60.24096386,63d85df2ce828accc88ba837,69712dc693a3960bdb483245,69716987afe314f825fd8383,,,,,,,,,,,,,1,,,,,,,,,,,,,,,,,,,,,,,,319.893,321.4912,1,1,1.0682,,321.4914,322.4913,0,9,9,9,1,0,casa,REAL,FAKE,,,,,,,,,,,,,,,,,,,,,,,,,,,,,,,,
,,,,,,,,,63d85df2ce828accc88ba837,spanish,13 or older,click here to respond,yes,2026-01-21_16h05.01.500,empathy_intonation_perc_control,2024.2.4,Win32,60.24096386,63d85df2ce828accc88ba837,69712dc693a3960bdb483245,69716987afe314f825fd8383,,,,,,,,,,,,,0,,,,,,,,,,,,,,,,,,,,,,,,322.4934,324.1407,0,1,1.1158,,324.1408,325.1397,0,10,10,10,1,0,lejo,REAL,FAKE,,,,,,,,,,,,,,,,,,,,,,,,,,,,,,,,
,,,,,,,,,63d85df2ce828accc88ba837,spanish,13 or older,click here to respond,yes,2026-01-21_16h05.01.500,empathy_intonation_perc_control,2024.2.4,Win32,60.24096386,63d85df2ce828accc88ba837,69712dc693a3960bdb483245,69716987afe314f825fd8383,,,,,,,,,,,,,0,,,,,,,,,,,,,,,,,,,,,,,,325.1409,328.2222,0,1,2.5464,,328.2223,329.222,0,11,11,11,1,0,pretantas,REAL,FAKE,,,,,,,,,,,,,,,,,,,,,,,,,,,,,,,,
,,,,,,,,,63d85df2ce828accc88ba837,spanish,13 or older,click here to respond,yes,2026-01-21_16h05.01.500,empathy_intonation_perc_control,2024.2.4,Win32,60.24096386,63d85df2ce828accc88ba837,69712dc693a3960bdb483245,69716987afe314f825fd8383,,,,,,,,,,,,,,,,,,,,,,,,,,,,,,,,,,,,,,,,,,,,,,,,,,,,,,329.2227,331.0718,,,,,,,,,,,,,,,,,,,,,,,,,,,,,,
,,,,,,,,,63d85df2ce828accc88ba837,spanish,13 or older,click here to respond,yes,2026-01-21_16h05.01.500,empathy_intonation_perc_control,2024.2.4,Win32,60.24096386,63d85df2ce828accc88ba837,69712dc693a3960bdb483245,69716987afe314f825fd8383,,,,,,,,,,,,,1,,,,,,,,,,,,,,,,,,,,,,,,,,,,,,,,,,,,,28,merodear,,,,,331.1131,333.603,1,1,1.9502,,0,0,0,27,1,REAL,FAKE,,,,,,,,,,,,,,,,,
,,,,,,,,,63d85df2ce828accc88ba837,spanish,13 or older,click here to respond,yes,2026-01-21_16h05.01.500,empathy_intonation_perc_control,2024.2.4,Win32,60.24096386,63d85df2ce828accc88ba837,69712dc693a3960bdb483245,69716987afe314f825fd8383,,,,,,,,,,,,,1,,,,,,,,,,,,,,,,,,,,,,,,,,,,,,,,,,,,,68,alegre,,,,,333.6053,336.4013,1,1,2.2545,,0,1,1,67,1,REAL,FAKE,,,,,,,,,,,,,,,,,
,,,,,,,,,63d85df2ce828accc88ba837,spanish,13 or older,click here to respond,yes,2026-01-21_16h05.01.500,empathy_intonation_perc_control,2024.2.4,Win32,60.24096386,63d85df2ce828accc88ba837,69712dc693a3960bdb483245,69716987afe314f825fd8383,,,,,,,,,,,,,1,,,,,,,,,,,,,,,,,,,,,,,,,,,,,,,,,,,,,62,flaco,,,,,336.4032,362.3238,1,1,25.3811,,0,2,2,61,1,REAL,FAKE,,,,,,,,,,,,,,,,,
,,,,,,,,,63d85df2ce828accc88ba837,spanish,13 or older,click here to respond,yes,2026-01-21_16h05.01.500,empathy_intonation_perc_control,2024.2.4,Win32,60.24096386,63d85df2ce828accc88ba837,69712dc693a3960bdb483245,69716987afe314f825fd8383,,,,,,,,,,,,,1,,,,,,,,,,,,,,,,,,,,,,,,,,,,,,,,,,,,,36,loro,,,,,362.3269,371.9377,1,1,9.0746,,0,3,3,35,1,REAL,FAKE,,,,,,,,,,,,,,,,,
,,,,,,,,,63d85df2ce828accc88ba837,spanish,13 or older,click here to respond,yes,2026-01-21_16h05.01.500,empathy_intonation_perc_control,2024.2.4,Win32,60.24096386,63d85df2ce828accc88ba837,69712dc693a3960bdb483245,69716987afe314f825fd8383,,,,,,,,,,,,,0,,,,,,,,,,,,,,,,,,,,,,,,,,,,,,,,,,,,,87,grodo,,,,,371.94,379.1996,0,1,6.7204,,0,4,4,86,1,REAL,FAKE,,,,,,,,,,,,,,,,,
,,,,,,,,,63d85df2ce828accc88ba837,spanish,13 or older,click here to respond,yes,2026-01-21_16h05.01.500,empathy_intonation_perc_control,2024.2.4,Win32,60.24096386,63d85df2ce828accc88ba837,69712dc693a3960bdb483245,69716987afe314f825fd8383,,,,,,,,,,,,,0,,,,,,,,,,,,,,,,,,,,,,,,,,,,,,,,,,,,,82,empirador,,,,,379.2024,382.6476,0,1,2.9067,,0,5,5,81,1,REAL,FAKE,,,,,,,,,,,,,,,,,
,,,,,,,,,63d85df2ce828accc88ba837,spanish,13 or older,click here to respond,yes,2026-01-21_16h05.01.500,empathy_intonation_perc_control,2024.2.4,Win32,60.24096386,63d85df2ce828accc88ba837,69712dc693a3960bdb483245,69716987afe314f825fd8383,,,,,,,,,,,,,1,,,,,,,,,,,,,,,,,,,,,,,,,,,,,,,,,,,,,61,seda,,,,,382.6498,390.761,1,1,7.5654,,0,6,6,60,1,REAL,FAKE,,,,,,,,,,,,,,,,,
,,,,,,,,,63d85df2ce828accc88ba837,spanish,13 or older,click here to respond,yes,2026-01-21_16h05.01.500,empathy_intonation_perc_control,2024.2.4,Win32,60.24096386,63d85df2ce828accc88ba837,69712dc693a3960bdb483245,69716987afe314f825fd8383,,,,,,,,,,,,,1,,,,,,,,,,,,,,,,,,,,,,,,,,,,,,,,,,,,,75,yacer,,,,,390.7651,397.0081,1,1,5.7002,,0,7,7,74,1,REAL,FAKE,,,,,,,,,,,,,,,,,
,,,,,,,,,63d85df2ce828accc88ba837,spanish,13 or older,click here to respond,yes,2026-01-21_16h05.01.500,empathy_intonation_perc_control,2024.2.4,Win32,60.24096386,63d85df2ce828accc88ba837,69712dc693a3960bdb483245,69716987afe314f825fd8383,,,,,,,,,,,,,1,,,,,,,,,,,,,,,,,,,,,,,,,,,,,,,,,,,,,80,hormiga,,,,,397.0109,414.5498,1,1,16.9927,,0,8,8,79,1,REAL,FAKE,,,,,,,,,,,,,,,,,
,,,,,,,,,63d85df2ce828accc88ba837,spanish,13 or older,click here to respond,yes,2026-01-21_16h05.01.500,empathy_intonation_perc_control,2024.2.4,Win32,60.24096386,63d85df2ce828accc88ba837,69712dc693a3960bdb483245,69716987afe314f825fd8383,,,,,,,,,,,,,1,,,,,,,,,,,,,,,,,,,,,,,,,,,,,,,,,,,,,69,engatusar,,,,,414.5518,416.0829,0,0,0.9936,,0,9,9,68,1,REAL,FAKE,,,,,,,,,,,,,,,,,
,,,,,,,,,63d85df2ce828accc88ba837,spanish,13 or older,click here to respond,yes,2026-01-21_16h05.01.500,empathy_intonation_perc_control,2024.2.4,Win32,60.24096386,63d85df2ce828accc88ba837,69712dc693a3960bdb483245,69716987afe314f825fd8383,,,,,,,,,,,,,0,,,,,,,,,,,,,,,,,,,,,,,,,,,,,,,,,,,,,79,tropaje,,,,,416.0855,425.2781,1,0,8.652,,0,10,10,78,1,REAL,FAKE,,,,,,,,,,,,,,,,,
,,,,,,,,,63d85df2ce828accc88ba837,spanish,13 or older,click here to respond,yes,2026-01-21_16h05.01.500,empathy_intonation_perc_control,2024.2.4,Win32,60.24096386,63d85df2ce828accc88ba837,69712dc693a3960bdb483245,69716987afe314f825fd8383,,,,,,,,,,,,,0,,,,,,,,,,,,,,,,,,,,,,,,,,,,,,,,,,,,,18,arsa,,,,,425.2803,426.9281,1,0,1.104,,0,11,11,17,1,REAL,FAKE,,,,,,,,,,,,,,,,,
,,,,,,,,,63d85df2ce828accc88ba837,spanish,13 or older,click here to respond,yes,2026-01-21_16h05.01.500,empathy_intonation_perc_control,2024.2.4,Win32,60.24096386,63d85df2ce828accc88ba837,69712dc693a3960bdb483245,69716987afe314f825fd8383,,,,,,,,,,,,,0,,,,,,,,,,,,,,,,,,,,,,,,,,,,,,,,,,,,,63,esposante,,,,,426.9308,429.0931,1,0,1.6153,,0,12,12,62,1,REAL,FAKE,,,,,,,,,,,,,,,,,
,,,,,,,,,63d85df2ce828accc88ba837,spanish,13 or older,click here to respond,yes,2026-01-21_16h05.01.500,empathy_intonation_perc_control,2024.2.4,Win32,60.24096386,63d85df2ce828accc88ba837,69712dc693a3960bdb483245,69716987afe314f825fd8383,,,,,,,,,,,,,0,,,,,,,,,,,,,,,,,,,,,,,,,,,,,,,,,,,,,84,escuto,,,,,429.095,430.7765,0,1,1.1346,,0,13,13,83,1,REAL,FAKE,,,,,,,,,,,,,,,,,
,,,,,,,,,63d85df2ce828accc88ba837,spanish,13 or older,click here to respond,yes,2026-01-21_16h05.01.500,empathy_intonation_perc_control,2024.2.4,Win32,60.24096386,63d85df2ce828accc88ba837,69712dc693a3960bdb483245,69716987afe314f825fd8383,,,,,,,,,,,,,1,,,,,,,,,,,,,,,,,,,,,,,,,,,,,,,,,,,,,24,látigo,,,,,430.781,439.0062,1,1,7.6819,,0,14,14,23,1,REAL,FAKE,,,,,,,,,,,,,,,,,
,,,,,,,,,63d85df2ce828accc88ba837,spanish,13 or older,click here to respond,yes,2026-01-21_16h05.01.500,empathy_intonation_perc_control,2024.2.4,Win32,60.24096386,63d85df2ce828accc88ba837,69712dc693a3960bdb483245,69716987afe314f825fd8383,,,,,,,,,,,,,1,,,,,,,,,,,,,,,,,,,,,,,,,,,,,,,,,,,,,45,jilguero,,,,,439.0093,441.0211,0,0,1.4728,,0,15,15,44,1,REAL,FAKE,,,,,,,,,,,,,,,,,
,,,,,,,,,63d85df2ce828accc88ba837,spanish,13 or older,click here to respond,yes,2026-01-21_16h05.01.500,empathy_intonation_perc_control,2024.2.4,Win32,60.24096386,63d85df2ce828accc88ba837,69712dc693a3960bdb483245,69716987afe314f825fd8383,,,,,,,,,,,,,1,,,,,,,,,,,,,,,,,,,,,,,,,,,,,,,,,,,,,90,clavel,,,,,441.0231,453.6662,1,1,12.0973,,0,16,16,89,1,REAL,FAKE,,,,,,,,,,,,,,,,,
,,,,,,,,,63d85df2ce828accc88ba837,spanish,13 or older,click here to respond,yes,2026-01-21_16h05.01.500,empathy_intonation_perc_control,2024.2.4,Win32,60.24096386,63d85df2ce828accc88ba837,69712dc693a3960bdb483245,69716987afe314f825fd8383,,,,,,,,,,,,,1,,,,,,,,,,,,,,,,,,,,,,,,,,,,,,,,,,,,,85,laúd,,,,,453.6702,455.1647,0,0,0.9577,,0,17,17,84,1,REAL,FAKE,,,,,,,,,,,,,,,,,
,,,,,,,,,63d85df2ce828accc88ba837,spanish,13 or older,click here to respond,yes,2026-01-21_16h05.01.500,empathy_intonation_perc_control,2024.2.4,Win32,60.24096386,63d85df2ce828accc88ba837,69712dc693a3960bdb483245,69716987afe314f825fd8383,,,,,,,,,,,,,1,,,,,,,,,,,,,,,,,,,,,,,,,,,,,,,,,,,,,56,musgo,,,,,455.1669,462.3288,1,1,6.6224,,0,18,18,55,1,REAL,FAKE,,,,,,,,,,,,,,,,,
,,,,,,,,,63d85df2ce828accc88ba837,spanish,13 or older,click here to respond,yes,2026-01-21_16h05.01.500,empathy_intonation_perc_control,2024.2.4,Win32,60.24096386,63d85df2ce828accc88ba837,69712dc693a3960bdb483245,69716987afe314f825fd8383,,,,,,,,,,,,,1,,,,,,,,,,,,,,,,,,,,,,,,,,,,,,,,,,,,,44,cuchara,,,,,462.3319,469.8914,1,1,7.0223,,0,19,19,43,1,REAL,FAKE,,,,,,,,,,,,,,,,,
,,,,,,,,,63d85df2ce828accc88ba837,spanish,13 or older,click here to respond,yes,2026-01-21_16h05.01.500,empathy_intonation_perc_control,2024.2.4,Win32,60.24096386,63d85df2ce828accc88ba837,69712dc693a3960bdb483245,69716987afe314f825fd8383,,,,,,,,,,,,,1,,,,,,,,,,,,,,,,,,,,,,,,,,,,,,,,,,,,,81,pozo,,,,,469.8939,480.0702,1,1,9.6401,,0,20,20,80,1,REAL,FAKE,,,,,,,,,,,,,,,,,
,,,,,,,,,63d85df2ce828accc88ba837,spanish,13 or older,click here to respond,yes,2026-01-21_16h05.01.500,empathy_intonation_perc_control,2024.2.4,Win32,60.24096386,63d85df2ce828accc88ba837,69712dc693a3960bdb483245,69716987afe314f825fd8383,,,,,,,,,,,,,1,,,,,,,,,,,,,,,,,,,,,,,,,,,,,,,,,,,,,37,granuja,,,,,480.0718,487.7175,1,1,7.1016,,0,21,21,36,1,REAL,FAKE,,,,,,,,,,,,,,,,,
,,,,,,,,,63d85df2ce828accc88ba837,spanish,13 or older,click here to respond,yes,2026-01-21_16h05.01.500,empathy_intonation_perc_control,2024.2.4,Win32,60.24096386,63d85df2ce828accc88ba837,69712dc693a3960bdb483245,69716987afe314f825fd8383,,,,,,,,,,,,,0,,,,,,,,,,,,,,,,,,,,,,,,,,,,,,,,,,,,,70,temblo,,,,,487.7207,496.4301,0,1,8.1673,,0,22,22,69,1,REAL,FAKE,,,,,,,,,,,,,,,,,
,,,,,,,,,63d85df2ce828accc88ba837,spanish,13 or older,click here to respond,yes,2026-01-21_16h05.01.500,empathy_intonation_perc_control,2024.2.4,Win32,60.24096386,63d85df2ce828accc88ba837,69712dc693a3960bdb483245,69716987afe314f825fd8383,,,,,,,,,,,,,0,,,,,,,,,,,,,,,,,,,,,,,,,,,,,,,,,,,,,27,acutación,,,,,496.4344,505.5588,1,0,8.5837,,0,23,23,26,1,REAL,FAKE,,,,,,,,,,,,,,,,,
,,,,,,,,,63d85df2ce828accc88ba837,spanish,13 or older,click here to respond,yes,2026-01-21_16h05.01.500,empathy_intonation_perc_control,2024.2.4,Win32,60.24096386,63d85df2ce828accc88ba837,69712dc693a3960bdb483245,69716987afe314f825fd8383,,,,,,,,,,,,,0,,,,,,,,,,,,,,,,,,,,,,,,,,,,,,,,,,,,,92,click the 0 key.,,,,,505.5609,507.8461,0,1,1.7491,,0,24,24,91,1,REAL,FAKE,,,,,,,,,,,,,,,,,
,,,,,,,,,63d85df2ce828accc88ba837,spanish,13 or older,click here to respond,yes,2026-01-21_16h05.01.500,empathy_intonation_perc_control,2024.2.4,Win32,60.24096386,63d85df2ce828accc88ba837,69712dc693a3960bdb483245,69716987afe314f825fd8383,,,,,,,,,,,,,1,,,,,,,,,,,,,,,,,,,,,,,,,,,,,,,,,,,,,67,cabello,,,,,507.847,509.6735,1,1,1.29,,0,25,25,66,1,REAL,FAKE,,,,,,,,,,,,,,,,,
,,,,,,,,,63d85df2ce828accc88ba837,spanish,13 or older,click here to respond,yes,2026-01-21_16h05.01.500,empathy_intonation_perc_control,2024.2.4,Win32,60.24096386,63d85df2ce828accc88ba837,69712dc693a3960bdb483245,69716987afe314f825fd8383,,,,,,,,,,,,,1,,,,,,,,,,,,,,,,,,,,,,,,,,,,,,,,,,,,,86,barato,,,,,509.6758,512.5404,1,1,2.327,,0,26,26,85,1,REAL,FAKE,,,,,,,,,,,,,,,,,
,,,,,,,,,63d85df2ce828accc88ba837,spanish,13 or older,click here to respond,yes,2026-01-21_16h05.01.500,empathy_intonation_perc_control,2024.2.4,Win32,60.24096386,63d85df2ce828accc88ba837,69712dc693a3960bdb483245,69716987afe314f825fd8383,,,,,,,,,,,,,1,,,,,,,,,,,,,,,,,,,,,,,,,,,,,,,,,,,,,31,pandilla,,,,,512.5432,514.4547,0,0,1.3766,,0,27,27,30,1,REAL,FAKE,,,,,,,,,,,,,,,,,
,,,,,,,,,63d85df2ce828accc88ba837,spanish,13 or older,click here to respond,yes,2026-01-21_16h05.01.500,empathy_intonation_perc_control,2024.2.4,Win32,60.24096386,63d85df2ce828accc88ba837,69712dc693a3960bdb483245,69716987afe314f825fd8383,,,,,,,,,,,,,1,,,,,,,,,,,,,,,,,,,,,,,,,,,,,,,,,,,,,6,tergiversar,,,,,514.4564,516.3211,0,0,1.3188,,0,28,28,5,1,REAL,FAKE,,,,,,,,,,,,,,,,,
,,,,,,,,,63d85df2ce828accc88ba837,spanish,13 or older,click here to respond,yes,2026-01-21_16h05.01.500,empathy_intonation_perc_control,2024.2.4,Win32,60.24096386,63d85df2ce828accc88ba837,69712dc693a3960bdb483245,69716987afe314f825fd8383,,,,,,,,,,,,,0,,,,,,,,,,,,,,,,,,,,,,,,,,,,,,,,,,,,,42,cadallo,,,,,516.3238,524.4007,0,1,7.5349,,0,29,29,41,1,REAL,FAKE,,,,,,,,,,,,,,,,,
,,,,,,,,,63d85df2ce828accc88ba837,spanish,13 or older,click here to respond,yes,2026-01-21_16h05.01.500,empathy_intonation_perc_control,2024.2.4,Win32,60.24096386,63d85df2ce828accc88ba837,69712dc693a3960bdb483245,69716987afe314f825fd8383,,,,,,,,,,,,,1,,,,,,,,,,,,,,,,,,,,,,,,,,,,,,,,,,,,,38,estornudar,,,,,524.403,541.4269,1,1,16.4775,,0,30,30,37,1,REAL,FAKE,,,,,,,,,,,,,,,,,
,,,,,,,,,63d85df2ce828accc88ba837,spanish,13 or older,click here to respond,yes,2026-01-21_16h05.01.500,empathy_intonation_perc_control,2024.2.4,Win32,60.24096386,63d85df2ce828accc88ba837,69712dc693a3960bdb483245,69716987afe314f825fd8383,,,,,,,,,,,,,1,,,,,,,,,,,,,,,,,,,,,,,,,,,,,,,,,,,,,3,pulmones,,,,,541.4302,543.5091,0,0,1.5352,,0,31,31,2,1,REAL,FAKE,,,,,,,,,,,,,,,,,
,,,,,,,,,63d85df2ce828accc88ba837,spanish,13 or older,click here to respond,yes,2026-01-21_16h05.01.500,empathy_intonation_perc_control,2024.2.4,Win32,60.24096386,63d85df2ce828accc88ba837,69712dc693a3960bdb483245,69716987afe314f825fd8383,,,,,,,,,,,,,1,,,,,,,,,,,,,,,,,,,,,,,,,,,,,,,,,,,,,25,bisagra,,,,,543.512,551.2225,1,1,7.1662,,0,32,32,24,1,REAL,FAKE,,,,,,,,,,,,,,,,,
,,,,,,,,,63d85df2ce828accc88ba837,spanish,13 or older,click here to respond,yes,2026-01-21_16h05.01.500,empathy_intonation_perc_control,2024.2.4,Win32,60.24096386,63d85df2ce828accc88ba837,69712dc693a3960bdb483245,69716987afe314f825fd8383,,,,,,,,,,,,,1,,,,,,,,,,,,,,,,,,,,,,,,,,,,,,,,,,,,,55,nevar,,,,,551.2253,553.4712,0,0,1.7088,,0,33,33,54,1,REAL,FAKE,,,,,,,,,,,,,,,,,
,,,,,,,,,63d85df2ce828accc88ba837,spanish,13 or older,click here to respond,yes,2026-01-21_16h05.01.500,empathy_intonation_perc_control,2024.2.4,Win32,60.24096386,63d85df2ce828accc88ba837,69712dc693a3960bdb483245,69716987afe314f825fd8383,,,,,,,,,,,,,1,,,,,,,,,,,,,,,,,,,,,,,,,,,,,,,,,,,,,52,camisa,,,,,553.474,560.4008,1,1,6.397,,0,34,34,51,1,REAL,FAKE,,,,,,,,,,,,,,,,,
,,,,,,,,,63d85df2ce828accc88ba837,spanish,13 or older,click here to respond,yes,2026-01-21_16h05.01.500,empathy_intonation_perc_control,2024.2.4,Win32,60.24096386,63d85df2ce828accc88ba837,69712dc693a3960bdb483245,69716987afe314f825fd8383,,,,,,,,,,,,,0,,,,,,,,,,,,,,,,,,,,,,,,,,,,,,,,,,,,,66,hacido,,,,,560.4025,568.0375,0,1,7.0983,,0,35,35,65,1,REAL,FAKE,,,,,,,,,,,,,,,,,
,,,,,,,,,63d85df2ce828accc88ba837,spanish,13 or older,click here to respond,yes,2026-01-21_16h05.01.500,empathy_intonation_perc_control,2024.2.4,Win32,60.24096386,63d85df2ce828accc88ba837,69712dc693a3960bdb483245,69716987afe314f825fd8383,,,,,,,,,,,,,1,,,,,,,,,,,,,,,,,,,,,,,,,,,,,,,,,,,,,60,matar,,,,,568.0394,574.828,1,1,6.2473,,0,36,36,59,1,REAL,FAKE,,,,,,,,,,,,,,,,,
,,,,,,,,,63d85df2ce828accc88ba837,spanish,13 or older,click here to respond,yes,2026-01-21_16h05.01.500,empathy_intonation_perc_control,2024.2.4,Win32,60.24096386,63d85df2ce828accc88ba837,69712dc693a3960bdb483245,69716987afe314f825fd8383,,,,,,,,,,,,,1,,,,,,,,,,,,,,,,,,,,,,,,,,,,,,,,,,,,,71,polvoriento,,,,,574.8296,577.4106,1,1,2.0357,,0,37,37,70,1,REAL,FAKE,,,,,,,,,,,,,,,,,
,,,,,,,,,63d85df2ce828accc88ba837,spanish,13 or older,click here to respond,yes,2026-01-21_16h05.01.500,empathy_intonation_perc_control,2024.2.4,Win32,60.24096386,63d85df2ce828accc88ba837,69712dc693a3960bdb483245,69716987afe314f825fd8383,,,,,,,,,,,,,1,,,,,,,,,,,,,,,,,,,,,,,,,,,,,,,,,,,,,15,regar,,,,,577.4139,584.2409,1,1,6.2871,,0,38,38,14,1,REAL,FAKE,,,,,,,,,,,,,,,,,
,,,,,,,,,63d85df2ce828accc88ba837,spanish,13 or older,click here to respond,yes,2026-01-21_16h05.01.500,empathy_intonation_perc_control,2024.2.4,Win32,60.24096386,63d85df2ce828accc88ba837,69712dc693a3960bdb483245,69716987afe314f825fd8383,,,,,,,,,,,,,0,,,,,,,,,,,,,,,,,,,,,,,,,,,,,,,,,,,,,19,brecedad,,,,,584.2441,597.136,1,0,12.356,,0,39,39,18,1,REAL,FAKE,,,,,,,,,,,,,,,,,
,,,,,,,,,63d85df2ce828accc88ba837,spanish,13 or older,click here to respond,yes,2026-01-21_16h05.01.500,empathy_intonation_perc_control,2024.2.4,Win32,60.24096386,63d85df2ce828accc88ba837,69712dc693a3960bdb483245,69716987afe314f825fd8383,,,,,,,,,,,,,0,,,,,,,,,,,,,,,,,,,,,,,,,,,,,,,,,,,,,35,rompido,,,,,597.1388,604.681,1,0,7.0047,,0,40,40,34,1,REAL,FAKE,,,,,,,,,,,,,,,,,
,,,,,,,,,63d85df2ce828accc88ba837,spanish,13 or older,click here to respond,yes,2026-01-21_16h05.01.500,empathy_intonation_perc_control,2024.2.4,Win32,60.24096386,63d85df2ce828accc88ba837,69712dc693a3960bdb483245,69716987afe314f825fd8383,,,,,,,,,,,,,1,,,,,,,,,,,,,,,,,,,,,,,,,,,,,,,,,,,,,12,asesinato,,,,,604.683,620.7239,1,1,15.4943,,0,41,41,11,1,REAL,FAKE,,,,,,,,,,,,,,,,,
,,,,,,,,,63d85df2ce828accc88ba837,spanish,13 or older,click here to respond,yes,2026-01-21_16h05.01.500,empathy_intonation_perc_control,2024.2.4,Win32,60.24096386,63d85df2ce828accc88ba837,69712dc693a3960bdb483245,69716987afe314f825fd8383,,,,,,,,,,,,,1,,,,,,,,,,,,,,,,,,,,,,,,,,,,,,,,,,,,,46,martillo,,,,,620.726,624.8555,0,0,3.5844,,0,42,42,45,1,REAL,FAKE,,,,,,,,,,,,,,,,,
,,,,,,,,,63d85df2ce828accc88ba837,spanish,13 or older,click here to respond,yes,2026-01-21_16h05.01.500,empathy_intonation_perc_control,2024.2.4,Win32,60.24096386,63d85df2ce828accc88ba837,69712dc693a3960bdb483245,69716987afe314f825fd8383,,,,,,,,,,,,,0,,,,,,,,,,,,,,,,,,,,,,,,,,,,,,,,,,,,,33,pauca,,,,,624.8574,636.1003,1,0,10.6952,,0,43,43,32,1,REAL,FAKE,,,,,,,,,,,,,,,,,
,,,,,,,,,63d85df2ce828accc88ba837,spanish,13 or older,click here to respond,yes,2026-01-21_16h05.01.500,empathy_intonation_perc_control,2024.2.4,Win32,60.24096386,63d85df2ce828accc88ba837,69712dc693a3960bdb483245,69716987afe314f825fd8383,,,,,,,,,,,,,1,,,,,,,,,,,,,,,,,,,,,,,,,,,,,,,,,,,,,48,ladrón,,,,,636.1021,638.1332,1,1,1.4934,,0,44,44,47,1,REAL,FAKE,,,,,,,,,,,,,,,,,
,,,,,,,,,63d85df2ce828accc88ba837,spanish,13 or older,click here to respond,yes,2026-01-21_16h05.01.500,empathy_intonation_perc_control,2024.2.4,Win32,60.24096386,63d85df2ce828accc88ba837,69712dc693a3960bdb483245,69716987afe314f825fd8383,,,,,,,,,,,,,1,,,,,,,,,,,,,,,,,,,,,,,,,,,,,,,,,,,,,41,rebuscar,,,,,638.1362,639.6878,0,0,1.016,,0,45,45,40,1,REAL,FAKE,,,,,,,,,,,,,,,,,
,,,,,,,,,63d85df2ce828accc88ba837,spanish,13 or older,click here to respond,yes,2026-01-21_16h05.01.500,empathy_intonation_perc_control,2024.2.4,Win32,60.24096386,63d85df2ce828accc88ba837,69712dc693a3960bdb483245,69716987afe314f825fd8383,,,,,,,,,,,,,0,,,,,,,,,,,,,,,,,,,,,,,,,,,,,,,,,,,,,16,abracer,,,,,639.6892,647.6126,0,1,7.3847,,0,46,46,15,1,REAL,FAKE,,,,,,,,,,,,,,,,,
,,,,,,,,,63d85df2ce828accc88ba837,spanish,13 or older,click here to respond,yes,2026-01-21_16h05.01.500,empathy_intonation_perc_control,2024.2.4,Win32,60.24096386,63d85df2ce828accc88ba837,69712dc693a3960bdb483245,69716987afe314f825fd8383,,,,,,,,,,,,,1,,,,,,,,,,,,,,,,,,,,,,,,,,,,,,,,,,,,,83,guante,,,,,647.6156,656.6084,1,1,8.4529,,0,47,47,82,1,REAL,FAKE,,,,,,,,,,,,,,,,,
,,,,,,,,,63d85df2ce828accc88ba837,spanish,13 or older,click here to respond,yes,2026-01-21_16h05.01.500,empathy_intonation_perc_control,2024.2.4,Win32,60.24096386,63d85df2ce828accc88ba837,69712dc693a3960bdb483245,69716987afe314f825fd8383,,,,,,,,,,,,,0,,,,,,,,,,,,,,,,,,,,,,,,,,,,,,,,,,,,,17,floroso,,,,,656.611,658.5286,1,0,1.3812,,0,48,48,16,1,REAL,FAKE,,,,,,,,,,,,,,,,,
,,,,,,,,,63d85df2ce828accc88ba837,spanish,13 or older,click here to respond,yes,2026-01-21_16h05.01.500,empathy_intonation_perc_control,2024.2.4,Win32,60.24096386,63d85df2ce828accc88ba837,69712dc693a3960bdb483245,69716987afe314f825fd8383,,,,,,,,,,,,,0,,,,,,,,,,,,,,,,,,,,,,,,,,,,,,,,,,,,,8,cadeña,,,,,658.5328,660.2395,1,0,1.173,,0,49,49,7,1,REAL,FAKE,,,,,,,,,,,,,,,,,
,,,,,,,,,63d85df2ce828accc88ba837,spanish,13 or older,click here to respond,yes,2026-01-21_16h05.01.500,empathy_intonation_perc_control,2024.2.4,Win32,60.24096386,63d85df2ce828accc88ba837,69712dc693a3960bdb483245,69716987afe314f825fd8383,,,,,,,,,,,,,1,,,,,,,,,,,,,,,,,,,,,,,,,,,,,,,,,,,,,2,pellizcar,,,,,660.2417,671.7686,1,1,10.983,,0,50,50,1,1,REAL,FAKE,,,,,,,,,,,,,,,,,
,,,,,,,,,63d85df2ce828accc88ba837,spanish,13 or older,click here to respond,yes,2026-01-21_16h05.01.500,empathy_intonation_perc_control,2024.2.4,Win32,60.24096386,63d85df2ce828accc88ba837,69712dc693a3960bdb483245,69716987afe314f825fd8383,,,,,,,,,,,,,1,,,,,,,,,,,,,,,,,,,,,,,,,,,,,,,,,,,,,57,tacaño,,,,,671.7719,673.1384,1,1,0.8318,,0,51,51,56,1,REAL,FAKE,,,,,,,,,,,,,,,,,
,,,,,,,,,63d85df2ce828accc88ba837,spanish,13 or older,click here to respond,yes,2026-01-21_16h05.01.500,empathy_intonation_perc_control,2024.2.4,Win32,60.24096386,63d85df2ce828accc88ba837,69712dc693a3960bdb483245,69716987afe314f825fd8383,,,,,,,,,,,,,1,,,,,,,,,,,,,,,,,,,,,,,,,,,,,,,,,,,,,43,canela,,,,,673.1406,675.0513,1,1,1.379,,0,52,52,42,1,REAL,FAKE,,,,,,,,,,,,,,,,,
,,,,,,,,,63d85df2ce828accc88ba837,spanish,13 or older,click here to respond,yes,2026-01-21_16h05.01.500,empathy_intonation_perc_control,2024.2.4,Win32,60.24096386,63d85df2ce828accc88ba837,69712dc693a3960bdb483245,69716987afe314f825fd8383,,,,,,,,,,,,,1,,,,,,,,,,,,,,,,,,,,,,,,,,,,,,,,,,,,,40,alfombra,,,,,675.052,677.1152,0,0,1.5223,,0,53,53,39,1,REAL,FAKE,,,,,,,,,,,,,,,,,
,,,,,,,,,63d85df2ce828accc88ba837,spanish,13 or older,click here to respond,yes,2026-01-21_16h05.01.500,empathy_intonation_perc_control,2024.2.4,Win32,60.24096386,63d85df2ce828accc88ba837,69712dc693a3960bdb483245,69716987afe314f825fd8383,,,,,,,,,,,,,1,,,,,,,,,,,,,,,,,,,,,,,,,,,,,,,,,,,,,7,pésimo,,,,,677.1169,687.911,0,0,10.248,,0,54,54,6,1,REAL,FAKE,,,,,,,,,,,,,,,,,
,,,,,,,,,63d85df2ce828accc88ba837,spanish,13 or older,click here to respond,yes,2026-01-21_16h05.01.500,empathy_intonation_perc_control,2024.2.4,Win32,60.24096386,63d85df2ce828accc88ba837,69712dc693a3960bdb483245,69716987afe314f825fd8383,,,,,,,,,,,,,1,,,,,,,,,,,,,,,,,,,,,,,,,,,,,,,,,,,,,77,tiburón,,,,,687.9134,689.7604,0,0,1.3015,,0,55,55,76,1,REAL,FAKE,,,,,,,,,,,,,,,,,
,,,,,,,,,63d85df2ce828accc88ba837,spanish,13 or older,click here to respond,yes,2026-01-21_16h05.01.500,empathy_intonation_perc_control,2024.2.4,Win32,60.24096386,63d85df2ce828accc88ba837,69712dc693a3960bdb483245,69716987afe314f825fd8383,,,,,,,,,,,,,0,,,,,,,,,,,,,,,,,,,,,,,,,,,,,,,,,,,,,72,pemición,,,,,689.7634,692.3261,0,1,2.0145,,0,56,56,71,1,REAL,FAKE,,,,,,,,,,,,,,,,,
,,,,,,,,,63d85df2ce828accc88ba837,spanish,13 or older,click here to respond,yes,2026-01-21_16h05.01.500,empathy_intonation_perc_control,2024.2.4,Win32,60.24096386,63d85df2ce828accc88ba837,69712dc693a3960bdb483245,69716987afe314f825fd8383,,,,,,,,,,,,,1,,,,,,,,,,,,,,,,,,,,,,,,,,,,,,,,,,,,,73,hervidor,,,,,692.3293,699.7059,1,1,6.8319,,0,57,57,72,1,REAL,FAKE,,,,,,,,,,,,,,,,,
,,,,,,,,,63d85df2ce828accc88ba837,spanish,13 or older,click here to respond,yes,2026-01-21_16h05.01.500,empathy_intonation_perc_control,2024.2.4,Win32,60.24096386,63d85df2ce828accc88ba837,69712dc693a3960bdb483245,69716987afe314f825fd8383,,,,,,,,,,,,,1,,,,,,,,,,,,,,,,,,,,,,,,,,,,,,,,,,,,,9,hacha,,,,,699.709,707.1852,1,1,6.9326,,0,58,58,8,1,REAL,FAKE,,,,,,,,,,,,,,,,,
,,,,,,,,,63d85df2ce828accc88ba837,spanish,13 or older,click here to respond,yes,2026-01-21_16h05.01.500,empathy_intonation_perc_control,2024.2.4,Win32,60.24096386,63d85df2ce828accc88ba837,69712dc693a3960bdb483245,69716987afe314f825fd8383,,,,,,,,,,,,,0,,,,,,,,,,,,,,,,,,,,,,,,,,,,,,,,,,,,,21,capillo,,,,,707.1875,716.0485,0,1,8.3153,,0,59,59,20,1,REAL,FAKE,,,,,,,,,,,,,,,,,
,,,,,,,,,63d85df2ce828accc88ba837,spanish,13 or older,click here to respond,yes,2026-01-21_16h05.01.500,empathy_intonation_perc_control,2024.2.4,Win32,60.24096386,63d85df2ce828accc88ba837,69712dc693a3960bdb483245,69716987afe314f825fd8383,,,,,,,,,,,,,0,,,,,,,,,,,,,,,,,,,,,,,,,,,,,,,,,,,,,1,terzo,,,,,716.0513,723.8275,0,1,7.2344,,0,60,60,0,1,REAL,FAKE,,,,,,,,,,,,,,,,,
,,,,,,,,,63d85df2ce828accc88ba837,spanish,13 or older,click here to respond,yes,2026-01-21_16h05.01.500,empathy_intonation_perc_control,2024.2.4,Win32,60.24096386,63d85df2ce828accc88ba837,69712dc693a3960bdb483245,69716987afe314f825fd8383,,,,,,,,,,,,,0,,,,,,,,,,,,,,,,,,,,,,,,,,,,,,,,,,,,,30,alardio,,,,,723.8292,732.0312,1,0,7.6652,,0,61,61,29,1,REAL,FAKE,,,,,,,,,,,,,,,,,
,,,,,,,,,63d85df2ce828accc88ba837,spanish,13 or older,click here to respond,yes,2026-01-21_16h05.01.500,empathy_intonation_perc_control,2024.2.4,Win32,60.24096386,63d85df2ce828accc88ba837,69712dc693a3960bdb483245,69716987afe314f825fd8383,,,,,,,,,,,,,0,,,,,,,,,,,,,,,,,,,,,,,,,,,,,,,,,,,,,47,cartinar,,,,,732.0333,740.1702,0,1,7.5984,,0,62,62,46,1,REAL,FAKE,,,,,,,,,,,,,,,,,
,,,,,,,,,63d85df2ce828accc88ba837,spanish,13 or older,click here to respond,yes,2026-01-21_16h05.01.500,empathy_intonation_perc_control,2024.2.4,Win32,60.24096386,63d85df2ce828accc88ba837,69712dc693a3960bdb483245,69716987afe314f825fd8383,,,,,,,,,,,,,1,,,,,,,,,,,,,,,,,,,,,,,,,,,,,,,,,,,,,91,click the 1 key.,,,,,740.1727,742.2868,1,1,1.5697,,0,63,63,90,1,REAL,FAKE,,,,,,,,,,,,,,,,,
,,,,,,,,,63d85df2ce828accc88ba837,spanish,13 or older,click here to respond,yes,2026-01-21_16h05.01.500,empathy_intonation_perc_control,2024.2.4,Win32,60.24096386,63d85df2ce828accc88ba837,69712dc693a3960bdb483245,69716987afe314f825fd8383,,,,,,,,,,,,,1,,,,,,,,,,,,,,,,,,,,,,,,,,,,,,,,,,,,,89,prisa,,,,,742.2894,744.8551,1,1,2.0264,,0,64,64,88,1,REAL,FAKE,,,,,,,,,,,,,,,,,
,,,,,,,,,63d85df2ce828accc88ba837,spanish,13 or older,click here to respond,yes,2026-01-21_16h05.01.500,empathy_intonation_perc_control,2024.2.4,Win32,60.24096386,63d85df2ce828accc88ba837,69712dc693a3960bdb483245,69716987afe314f825fd8383,,,,,,,,,,,,,0,,,,,,,,,,,,,,,,,,,,,,,,,,,,,,,,,,,,,32,fatacidad,,,,,744.858,746.8243,1,0,1.4332,,0,65,65,31,1,REAL,FAKE,,,,,,,,,,,,,,,,,
,,,,,,,,,63d85df2ce828accc88ba837,spanish,13 or older,click here to respond,yes,2026-01-21_16h05.01.500,empathy_intonation_perc_control,2024.2.4,Win32,60.24096386,63d85df2ce828accc88ba837,69712dc693a3960bdb483245,69716987afe314f825fd8383,,,,,,,,,,,,,0,,,,,,,,,,,,,,,,,,,,,,,,,,,,,,,,,,,,,58,plaudir,,,,,746.8265,755.8182,0,1,8.4622,,0,66,66,57,1,REAL,FAKE,,,,,,,,,,,,,,,,,
,,,,,,,,,63d85df2ce828accc88ba837,spanish,13 or older,click here to respond,yes,2026-01-21_16h05.01.500,empathy_intonation_perc_control,2024.2.4,Win32,60.24096386,63d85df2ce828accc88ba837,69712dc693a3960bdb483245,69716987afe314f825fd8383,,,,,,,,,,,,,1,,,,,,,,,,,,,,,,,,,,,,,,,,,,,,,,,,,,,54,fomentar,,,,,755.8193,765.9261,1,1,9.5896,,0,67,67,53,1,REAL,FAKE,,,,,,,,,,,,,,,,,
,,,,,,,,,63d85df2ce828accc88ba837,spanish,13 or older,click here to respond,yes,2026-01-21_16h05.01.500,empathy_intonation_perc_control,2024.2.4,Win32,60.24096386,63d85df2ce828accc88ba837,69712dc693a3960bdb483245,69716987afe314f825fd8383,,,,,,,,,,,,,1,,,,,,,,,,,,,,,,,,,,,,,,,,,,,,,,,,,,,59,besar,,,,,765.929,773.7561,1,1,7.2837,,0,68,68,58,1,REAL,FAKE,,,,,,,,,,,,,,,,,
,,,,,,,,,63d85df2ce828accc88ba837,spanish,13 or older,click here to respond,yes,2026-01-21_16h05.01.500,empathy_intonation_perc_control,2024.2.4,Win32,60.24096386,63d85df2ce828accc88ba837,69712dc693a3960bdb483245,69716987afe314f825fd8383,,,,,,,,,,,,,1,,,,,,,,,,,,,,,,,,,,,,,,,,,,,,,,,,,,,26,secuestro,,,,,773.7589,785.8831,1,1,11.5858,,0,69,69,25,1,REAL,FAKE,,,,,,,,,,,,,,,,,
,,,,,,,,,63d85df2ce828accc88ba837,spanish,13 or older,click here to respond,yes,2026-01-21_16h05.01.500,empathy_intonation_perc_control,2024.2.4,Win32,60.24096386,63d85df2ce828accc88ba837,69712dc693a3960bdb483245,69716987afe314f825fd8383,,,,,,,,,,,,,1,,,,,,,,,,,,,,,,,,,,,,,,,,,,,,,,,,,,,39,torpe,,,,,785.8853,788.3162,1,1,1.8908,,0,70,70,38,1,REAL,FAKE,,,,,,,,,,,,,,,,,
,,,,,,,,,63d85df2ce828accc88ba837,spanish,13 or older,click here to respond,yes,2026-01-21_16h05.01.500,empathy_intonation_perc_control,2024.2.4,Win32,60.24096386,63d85df2ce828accc88ba837,69712dc693a3960bdb483245,69716987afe314f825fd8383,,,,,,,,,,,,,1,,,,,,,,,,,,,,,,,,,,,,,,,,,,,,,,,,,,,49,ganar,,,,,788.319,789.7986,0,0,0.9408,,0,71,71,48,1,REAL,FAKE,,,,,,,,,,,,,,,,,
,,,,,,,,,63d85df2ce828accc88ba837,spanish,13 or older,click here to respond,yes,2026-01-21_16h05.01.500,empathy_intonation_perc_control,2024.2.4,Win32,60.24096386,63d85df2ce828accc88ba837,69712dc693a3960bdb483245,69716987afe314f825fd8383,,,,,,,,,,,,,1,,,,,,,,,,,,,,,,,,,,,,,,,,,,,,,,,,,,,34,aviso,,,,,789.8014,798.9605,1,1,8.6162,,0,72,72,33,1,REAL,FAKE,,,,,,,,,,,,,,,,,
,,,,,,,,,63d85df2ce828accc88ba837,spanish,13 or older,click here to respond,yes,2026-01-21_16h05.01.500,empathy_intonation_perc_control,2024.2.4,Win32,60.24096386,63d85df2ce828accc88ba837,69712dc693a3960bdb483245,69716987afe314f825fd8383,,,,,,,,,,,,,0,,,,,,,,,,,,,,,,,,,,,,,,,,,,,,,,,,,,,50,flamida,,,,,798.9621,808.507,0,1,8.9989,,0,73,73,49,1,REAL,FAKE,,,,,,,,,,,,,,,,,
,,,,,,,,,63d85df2ce828accc88ba837,spanish,13 or older,click here to respond,yes,2026-01-21_16h05.01.500,empathy_intonation_perc_control,2024.2.4,Win32,60.24096386,63d85df2ce828accc88ba837,69712dc693a3960bdb483245,69716987afe314f825fd8383,,,,,,,,,,,,,0,,,,,,,,,,,,,,,,,,,,,,,,,,,,,,,,,,,,,74,cintro,,,,,808.5098,821.5678,0,1,12.5131,,0,74,74,73,1,REAL,FAKE,,,,,,,,,,,,,,,,,
,,,,,,,,,63d85df2ce828accc88ba837,spanish,13 or older,click here to respond,yes,2026-01-21_16h05.01.500,empathy_intonation_perc_control,2024.2.4,Win32,60.24096386,63d85df2ce828accc88ba837,69712dc693a3960bdb483245,69716987afe314f825fd8383,,,,,,,,,,,,,1,,,,,,,,,,,,,,,,,,,,,,,,,,,,,,,,,,,,,14,yunque,,,,,821.5706,823.0339,0,0,0.9203,,0,75,75,13,1,REAL,FAKE,,,,,,,,,,,,,,,,,
,,,,,,,,,63d85df2ce828accc88ba837,spanish,13 or older,click here to respond,yes,2026-01-21_16h05.01.500,empathy_intonation_perc_control,2024.2.4,Win32,60.24096386,63d85df2ce828accc88ba837,69712dc693a3960bdb483245,69716987afe314f825fd8383,,,,,,,,,,,,,1,,,,,,,,,,,,,,,,,,,,,,,,,,,,,,,,,,,,,51,candado,,,,,823.0367,824.7823,1,1,1.2053,,0,76,76,50,1,REAL,FAKE,,,,,,,,,,,,,,,,,
,,,,,,,,,63d85df2ce828accc88ba837,spanish,13 or older,click here to respond,yes,2026-01-21_16h05.01.500,empathy_intonation_perc_control,2024.2.4,Win32,60.24096386,63d85df2ce828accc88ba837,69712dc693a3960bdb483245,69716987afe314f825fd8383,,,,,,,,,,,,,1,,,,,,,,,,,,,,,,,,,,,,,,,,,,,,,,,,,,,5,zapato,,,,,824.7837,826.1484,1,1,0.8436,,0,77,77,4,1,REAL,FAKE,,,,,,,,,,,,,,,,,
,,,,,,,,,63d85df2ce828accc88ba837,spanish,13 or older,click here to respond,yes,2026-01-21_16h05.01.500,empathy_intonation_perc_control,2024.2.4,Win32,60.24096386,63d85df2ce828accc88ba837,69712dc693a3960bdb483245,69716987afe314f825fd8383,,,,,,,,,,,,,0,,,,,,,,,,,,,,,,,,,,,,,,,,,,,,,,,,,,,10,antar,,,,,826.1501,834.7015,0,1,8.0147,,0,78,78,9,1,REAL,FAKE,,,,,,,,,,,,,,,,,
,,,,,,,,,63d85df2ce828accc88ba837,spanish,13 or older,click here to respond,yes,2026-01-21_16h05.01.500,empathy_intonation_perc_control,2024.2.4,Win32,60.24096386,63d85df2ce828accc88ba837,69712dc693a3960bdb483245,69716987afe314f825fd8383,,,,,,,,,,,,,0,,,,,,,,,,,,,,,,,,,,,,,,,,,,,,,,,,,,,29,decar,,,,,834.7038,844.2077,0,1,8.9685,,0,79,79,28,1,REAL,FAKE,,,,,,,,,,,,,,,,,
,,,,,,,,,63d85df2ce828accc88ba837,spanish,13 or older,click here to respond,yes,2026-01-21_16h05.01.500,empathy_intonation_perc_control,2024.2.4,Win32,60.24096386,63d85df2ce828accc88ba837,69712dc693a3960bdb483245,69716987afe314f825fd8383,,,,,,,,,,,,,1,,,,,,,,,,,,,,,,,,,,,,,,,,,,,,,,,,,,,13,helar,,,,,844.2107,859.151,1,1,14.3968,,0,80,80,12,1,REAL,FAKE,,,,,,,,,,,,,,,,,
,,,,,,,,,63d85df2ce828accc88ba837,spanish,13 or older,click here to respond,yes,2026-01-21_16h05.01.500,empathy_intonation_perc_control,2024.2.4,Win32,60.24096386,63d85df2ce828accc88ba837,69712dc693a3960bdb483245,69716987afe314f825fd8383,,,,,,,,,,,,,0,,,,,,,,,,,,,,,,,,,,,,,,,,,,,,,,,,,,,53,vegada,,,,,859.1537,869.4956,0,1,9.7973,,0,81,81,52,1,REAL,FAKE,,,,,,,,,,,,,,,,,
,,,,,,,,,63d85df2ce828accc88ba837,spanish,13 or older,click here to respond,yes,2026-01-21_16h05.01.500,empathy_intonation_perc_control,2024.2.4,Win32,60.24096386,63d85df2ce828accc88ba837,69712dc693a3960bdb483245,69716987afe314f825fd8383,,,,,,,,,,,,,0,,,,,,,,,,,,,,,,,,,,,,,,,,,,,,,,,,,,,23,lampera,,,,,869.4972,878.4652,0,1,8.4313,,0,82,82,22,1,REAL,FAKE,,,,,,,,,,,,,,,,,
,,,,,,,,,63d85df2ce828accc88ba837,spanish,13 or older,click here to respond,yes,2026-01-21_16h05.01.500,empathy_intonation_perc_control,2024.2.4,Win32,60.24096386,63d85df2ce828accc88ba837,69712dc693a3960bdb483245,69716987afe314f825fd8383,,,,,,,,,,,,,1,,,,,,,,,,,,,,,,,,,,,,,,,,,,,,,,,,,,,11,cenefa,,,,,878.4675,880.7077,0,0,1.7024,,0,83,83,10,1,REAL,FAKE,,,,,,,,,,,,,,,,,
,,,,,,,,,63d85df2ce828accc88ba837,spanish,13 or older,click here to respond,yes,2026-01-21_16h05.01.500,empathy_intonation_perc_control,2024.2.4,Win32,60.24096386,63d85df2ce828accc88ba837,69712dc693a3960bdb483245,69716987afe314f825fd8383,,,,,,,,,,,,,1,,,,,,,,,,,,,,,,,,,,,,,,,,,,,,,,,,,,,78,frondoso,,,,,880.71,882.1742,1,1,0.9238,,0,84,84,77,1,REAL,FAKE,,,,,,,,,,,,,,,,,
,,,,,,,,,63d85df2ce828accc88ba837,spanish,13 or older,click here to respond,yes,2026-01-21_16h05.01.500,empathy_intonation_perc_control,2024.2.4,Win32,60.24096386,63d85df2ce828accc88ba837,69712dc693a3960bdb483245,69716987afe314f825fd8383,,,,,,,,,,,,,1,,,,,,,,,,,,,,,,,,,,,,,,,,,,,,,,,,,,,76,atar,,,,,882.177,895.0677,1,1,12.3549,,0,85,85,75,1,REAL,FAKE,,,,,,,,,,,,,,,,,
,,,,,,,,,63d85df2ce828accc88ba837,spanish,13 or older,click here to respond,yes,2026-01-21_16h05.01.500,empathy_intonation_perc_control,2024.2.4,Win32,60.24096386,63d85df2ce828accc88ba837,69712dc693a3960bdb483245,69716987afe314f825fd8383,,,,,,,,,,,,,1,,,,,,,,,,,,,,,,,,,,,,,,,,,,,,,,,,,,,20,ávido,,,,,895.0703,896.4343,1,1,0.821,,0,86,86,19,1,REAL,FAKE,,,,,,,,,,,,,,,,,
,,,,,,,,,63d85df2ce828accc88ba837,spanish,13 or older,click here to respond,yes,2026-01-21_16h05.01.500,empathy_intonation_perc_control,2024.2.4,Win32,60.24096386,63d85df2ce828accc88ba837,69712dc693a3960bdb483245,69716987afe314f825fd8383,,,,,,,,,,,,,1,,,,,,,,,,,,,,,,,,,,,,,,,,,,,,,,,,,,,88,acantilado,,,,,896.4372,898.2999,1,1,1.3348,,0,87,87,87,1,REAL,FAKE,,,,,,,,,,,,,,,,,
,,,,,,,,,63d85df2ce828accc88ba837,spanish,13 or older,click here to respond,yes,2026-01-21_16h05.01.500,empathy_intonation_perc_control,2024.2.4,Win32,60.24096386,63d85df2ce828accc88ba837,69712dc693a3960bdb483245,69716987afe314f825fd8383,,,,,,,,,,,,,0,,,,,,,,,,,,,,,,,,,,,,,,,,,,,,,,,,,,,4,batillón,,,,,898.3028,900.3151,0,1,1.4679,,0,88,88,3,1,REAL,FAKE,,,,,,,,,,,,,,,,,
,,,,,,,,,63d85df2ce828accc88ba837,spanish,13 or older,click here to respond,yes,2026-01-21_16h05.01.500,empathy_intonation_perc_control,2024.2.4,Win32,60.24096386,63d85df2ce828accc88ba837,69712dc693a3960bdb483245,69716987afe314f825fd8383,,,,,,,,,,,,,1,,,,,,,,,,,,,,,,,,,,,,,,,,,,,,,,,,,,,65,bizcocho,,,,,900.3168,902.2189,0,0,1.3814,,0,89,89,64,1,REAL,FAKE,,,,,,,,,,,,,,,,,
,,,,,,,,,63d85df2ce828accc88ba837,spanish,13 or older,click here to respond,yes,2026-01-21_16h05.01.500,empathy_intonation_perc_control,2024.2.4,Win32,60.24096386,63d85df2ce828accc88ba837,69712dc693a3960bdb483245,69716987afe314f825fd8383,,,,,,,,,,,,,1,,,,,,,,,,,,,,,,,,,,,,,,,,,,,,,,,,,,,22,lacayo,,,,,902.2213,910.2113,1,1,7.4559,,0,90,90,21,1,REAL,FAKE,,,,,,,,,,,,,,,,,
,,,,,,,,,63d85df2ce828accc88ba837,spanish,13 or older,click here to respond,yes,2026-01-21_16h05.01.500,empathy_intonation_perc_control,2024.2.4,Win32,60.24096386,63d85df2ce828accc88ba837,69712dc693a3960bdb483245,69716987afe314f825fd8383,,,,,,,,,,,,,1,,,,,,,,,,,,,,,,,,,,,,,,,,,,,,,,,,,,,64,orgulloso,,,,,910.2141,911.8274,1,1,1.069,,0,91,91,63,1,REAL,FAKE,,,,,,,,,,,,,,,,,
,,,,,,,,,63d85df2ce828accc88ba837,spanish,13 or older,click here to respond,yes,2026-01-21_16h05.01.500,empathy_intonation_perc_control,2024.2.4,Win32,60.24096386,63d85df2ce828accc88ba837,69712dc693a3960bdb483245,69716987afe314f825fd8383,,,,,,,,,,,,,,,,,,,,,,,,,,,,,,,,,,,,,,,,,,,,,,,,,,,,,,,,,,,,,,,,,,,,,911.8292,918.7088,,,,,,,,,,,,,,,
,,,,,,,,,63d85df2ce828accc88ba837,spanish,13 or older,click here to respond,yes,2026-01-21_16h05.01.500,empathy_intonation_perc_control,2024.2.4,Win32,60.24096386,63d85df2ce828accc88ba837,69712dc693a3960bdb483245,69716987afe314f825fd8383,,,,,,,,,,,,,,,,,,,,,,,,,,,1,,,,,,,,,,,,,,,,,,,,,,,,,,,,,,,,,,,,,,,,,,,,918.7576,928.8708,slightly agree,0,0,0,0,1,I can easily tell if someone else wants to enter a conversation.,1,0,1,0,,
,,,,,,,,,63d85df2ce828accc88ba837,spanish,13 or older,click here to respond,yes,2026-01-21_16h05.01.500,empathy_intonation_perc_control,2024.2.4,Win32,60.24096386,63d85df2ce828accc88ba837,69712dc693a3960bdb483245,69716987afe314f825fd8383,,,,,,,,,,,,,,,,,,,,,,,,,,,2,,,,,,,,,,,,,,,,,,,,,,,,,,,,,,,,,,,,,,,,,,,,928.874,932.6673,strongly agree,0,1,1,1,1,I prefer animals to humans.,0,1,0,0,,
,,,,,,,,,63d85df2ce828accc88ba837,spanish,13 or older,click here to respond,yes,2026-01-21_16h05.01.500,empathy_intonation_perc_control,2024.2.4,Win32,60.24096386,63d85df2ce828accc88ba837,69712dc693a3960bdb483245,69716987afe314f825fd8383,,,,,,,,,,,,,,,,,,,,,,,,,,,3,,,,,,,,,,,,,,,,,,,,,,,,,,,,,,,,,,,,,,,,,,,,932.6707,935.8492,slightly disagree,0,2,2,2,1,I try to keep up with the current trends and fashions.,0,1,0,0,,
,,,,,,,,,63d85df2ce828accc88ba837,spanish,13 or older,click here to respond,yes,2026-01-21_16h05.01.500,empathy_intonation_perc_control,2024.2.4,Win32,60.24096386,63d85df2ce828accc88ba837,69712dc693a3960bdb483245,69716987afe314f825fd8383,,,,,,,,,,,,,,,,,,,,,,,,,,,4,,,,,,,,,,,,,,,,,,,,,,,,,,,,,,,,,,,,,,,,,,,,935.8526,941.131,slightly agree,0,3,3,3,1,"I find it difficult to explain to others things that I understand easily,   when they don't understand it first time.",1,0,0,1,,
,,,,,,,,,63d85df2ce828accc88ba837,spanish,13 or older,click here to respond,yes,2026-01-21_16h05.01.500,empathy_intonation_perc_control,2024.2.4,Win32,60.24096386,63d85df2ce828accc88ba837,69712dc693a3960bdb483245,69716987afe314f825fd8383,,,,,,,,,,,,,,,,,,,,,,,,,,,5,,,,,,,,,,,,,,,,,,,,,,,,,,,,,,,,,,,,,,,,,,,,941.1342,944.0289,slightly agree,0,4,4,4,1,I dream most nights.,0,1,0,0,,
,,,,,,,,,63d85df2ce828accc88ba837,spanish,13 or older,click here to respond,yes,2026-01-21_16h05.01.500,empathy_intonation_perc_control,2024.2.4,Win32,60.24096386,63d85df2ce828accc88ba837,69712dc693a3960bdb483245,69716987afe314f825fd8383,,,,,,,,,,,,,,,,,,,,,,,,,,,6,,,,,,,,,,,,,,,,,,,,,,,,,,,,,,,,,,,,,,,,,,,,944.0316,945.8959,slightly agree,0,5,5,5,1,I really enjoy caring for other people.,1,0,1,0,,
,,,,,,,,,63d85df2ce828accc88ba837,spanish,13 or older,click here to respond,yes,2026-01-21_16h05.01.500,empathy_intonation_perc_control,2024.2.4,Win32,60.24096386,63d85df2ce828accc88ba837,69712dc693a3960bdb483245,69716987afe314f825fd8383,,,,,,,,,,,,,,,,,,,,,,,,,,,7,,,,,,,,,,,,,,,,,,,,,,,,,,,,,,,,,,,,,,,,,,,,945.8981,948.3939,slightly agree,0,6,6,6,1,I try to solve my own problems rather than discussing them with others.,0,1,0,0,,
,,,,,,,,,63d85df2ce828accc88ba837,spanish,13 or older,click here to respond,yes,2026-01-21_16h05.01.500,empathy_intonation_perc_control,2024.2.4,Win32,60.24096386,63d85df2ce828accc88ba837,69712dc693a3960bdb483245,69716987afe314f825fd8383,,,,,,,,,,,,,,,,,,,,,,,,,,,8,,,,,,,,,,,,,,,,,,,,,,,,,,,,,,,,,,,,,,,,,,,,948.396,951.6922,slightly disagree,0,7,7,7,1,I find it hard to know what to do in a social situation.,1,0,0,1,,
,,,,,,,,,63d85df2ce828accc88ba837,spanish,13 or older,click here to respond,yes,2026-01-21_16h05.01.500,empathy_intonation_perc_control,2024.2.4,Win32,60.24096386,63d85df2ce828accc88ba837,69712dc693a3960bdb483245,69716987afe314f825fd8383,,,,,,,,,,,,,,,,,,,,,,,,,,,9,,,,,,,,,,,,,,,,,,,,,,,,,,,,,,,,,,,,,,,,,,,,951.694,954.8411,slightly disagree,0,8,8,8,1,I am at my best first thing in the morning.,0,1,0,0,,
,,,,,,,,,63d85df2ce828accc88ba837,spanish,13 or older,click here to respond,yes,2026-01-21_16h05.01.500,empathy_intonation_perc_control,2024.2.4,Win32,60.24096386,63d85df2ce828accc88ba837,69712dc693a3960bdb483245,69716987afe314f825fd8383,,,,,,,,,,,,,,,,,,,,,,,,,,,10,,,,,,,,,,,,,,,,,,,,,,,,,,,,,,,,,,,,,,,,,,,,954.843,959.1056,slightly disagree,0,9,9,9,1,People often tell me that I went too far in driving my point home in a discussion.,1,0,0,1,,
,,,,,,,,,63d85df2ce828accc88ba837,spanish,13 or older,click here to respond,yes,2026-01-21_16h05.01.500,empathy_intonation_perc_control,2024.2.4,Win32,60.24096386,63d85df2ce828accc88ba837,69712dc693a3960bdb483245,69716987afe314f825fd8383,,,,,,,,,,,,,,,,,,,,,,,,,,,11,,,,,,,,,,,,,,,,,,,,,,,,,,,,,,,,,,,,,,,,,,,,959.1074,962.1878,slightly disagree,0,10,10,10,1,It doesn't bother me too much if I am late meeting a friend.,1,0,0,1,,
,,,,,,,,,63d85df2ce828accc88ba837,spanish,13 or older,click here to respond,yes,2026-01-21_16h05.01.500,empathy_intonation_perc_control,2024.2.4,Win32,60.24096386,63d85df2ce828accc88ba837,69712dc693a3960bdb483245,69716987afe314f825fd8383,,,,,,,,,,,,,,,,,,,,,,,,,,,12,,,,,,,,,,,,,,,,,,,,,,,,,,,,,,,,,,,,,,,,,,,,962.19,967.6019,slightly disagree,0,11,11,11,1,"Friendships and relationships are just too difficult, so I tend not to 
  bother with them.",1,0,0,1,,
,,,,,,,,,63d85df2ce828accc88ba837,spanish,13 or older,click here to respond,yes,2026-01-21_16h05.01.500,empathy_intonation_perc_control,2024.2.4,Win32,60.24096386,63d85df2ce828accc88ba837,69712dc693a3960bdb483245,69716987afe314f825fd8383,,,,,,,,,,,,,,,,,,,,,,,,,,,13,,,,,,,,,,,,,,,,,,,,,,,,,,,,,,,,,,,,,,,,,,,,967.6037,970.4507,slightly agree,0,12,12,12,1,"I would never break a law, no matter how minor.",0,1,0,0,,
,,,,,,,,,63d85df2ce828accc88ba837,spanish,13 or older,click here to respond,yes,2026-01-21_16h05.01.500,empathy_intonation_perc_control,2024.2.4,Win32,60.24096386,63d85df2ce828accc88ba837,69712dc693a3960bdb483245,69716987afe314f825fd8383,,,,,,,,,,,,,,,,,,,,,,,,,,,14,,,,,,,,,,,,,,,,,,,,,,,,,,,,,,,,,,,,,,,,,,,,970.4524,975.2484,slightly agree,0,13,13,13,1,I often find it difficult to judge if something is rude or polite.,1,0,0,1,,
,,,,,,,,,63d85df2ce828accc88ba837,spanish,13 or older,click here to respond,yes,2026-01-21_16h05.01.500,empathy_intonation_perc_control,2024.2.4,Win32,60.24096386,63d85df2ce828accc88ba837,69712dc693a3960bdb483245,69716987afe314f825fd8383,,,,,,,,,,,,,,,,,,,,,,,,,,,15,,,,,,,,,,,,,,,,,,,,,,,,,,,,,,,,,,,,,,,,,,,,975.2504,979.2634,slightly disagree,0,14,14,14,1,"In a conversation, I tend to focus on my own thoughts rather than on what 
  my listener might be thinking.",1,0,0,1,,
,,,,,,,,,63d85df2ce828accc88ba837,spanish,13 or older,click here to respond,yes,2026-01-21_16h05.01.500,empathy_intonation_perc_control,2024.2.4,Win32,60.24096386,63d85df2ce828accc88ba837,69712dc693a3960bdb483245,69716987afe314f825fd8383,,,,,,,,,,,,,,,,,,,,,,,,,,,16,,,,,,,,,,,,,,,,,,,,,,,,,,,,,,,,,,,,,,,,,,,,979.265,983.8281,slightly agree,0,15,15,15,1,I prefer practical jokes to verbal humor.,0,1,0,0,,
,,,,,,,,,63d85df2ce828accc88ba837,spanish,13 or older,click here to respond,yes,2026-01-21_16h05.01.500,empathy_intonation_perc_control,2024.2.4,Win32,60.24096386,63d85df2ce828accc88ba837,69712dc693a3960bdb483245,69716987afe314f825fd8383,,,,,,,,,,,,,,,,,,,,,,,,,,,17,,,,,,,,,,,,,,,,,,,,,,,,,,,,,,,,,,,,,,,,,,,,983.8297,987.1931,slightly disagree,0,16,16,16,1,I live life for today rather than the future.,0,1,0,0,,
,,,,,,,,,63d85df2ce828accc88ba837,spanish,13 or older,click here to respond,yes,2026-01-21_16h05.01.500,empathy_intonation_perc_control,2024.2.4,Win32,60.24096386,63d85df2ce828accc88ba837,69712dc693a3960bdb483245,69716987afe314f825fd8383,,,,,,,,,,,,,,,,,,,,,,,,,,,18,,,,,,,,,,,,,,,,,,,,,,,,,,,,,,,,,,,,,,,,,,,,987.1953,992.6237,slightly agree,0,17,17,17,1,"When I was a child, I enjoyed cutting up worms to see what would happen.",1,0,0,1,,
,,,,,,,,,63d85df2ce828accc88ba837,spanish,13 or older,click here to respond,yes,2026-01-21_16h05.01.500,empathy_intonation_perc_control,2024.2.4,Win32,60.24096386,63d85df2ce828accc88ba837,69712dc693a3960bdb483245,69716987afe314f825fd8383,,,,,,,,,,,,,,,,,,,,,,,,,,,19,,,,,,,,,,,,,,,,,,,,,,,,,,,,,,,,,,,,,,,,,,,,992.6253,1003.2193,slightly agree,0,18,18,18,1,I can pick up quickly if someone says one thing but means another.,1,0,1,0,,
,,,,,,,,,63d85df2ce828accc88ba837,spanish,13 or older,click here to respond,yes,2026-01-21_16h05.01.500,empathy_intonation_perc_control,2024.2.4,Win32,60.24096386,63d85df2ce828accc88ba837,69712dc693a3960bdb483245,69716987afe314f825fd8383,,,,,,,,,,,,,,,,,,,,,,,,,,,20,,,,,,,,,,,,,,,,,,,,,,,,,,,,,,,,,,,,,,,,,,,,1003.2209,1006.2178,slightly agree,0,19,19,19,1,I tend to have very strong opinions about morality.,0,1,0,0,,
,,,,,,,,,63d85df2ce828accc88ba837,spanish,13 or older,click here to respond,yes,2026-01-21_16h05.01.500,empathy_intonation_perc_control,2024.2.4,Win32,60.24096386,63d85df2ce828accc88ba837,69712dc693a3960bdb483245,69716987afe314f825fd8383,,,,,,,,,,,,,,,,,,,,,,,,,,,21,,,,,,,,,,,,,,,,,,,,,,,,,,,,,,,,,,,,,,,,,,,,1006.2196,1009.7994,slightly agree,0,20,20,20,1,It is hard for me to see why some things upset people so much.,1,0,0,1,,
,,,,,,,,,63d85df2ce828accc88ba837,spanish,13 or older,click here to respond,yes,2026-01-21_16h05.01.500,empathy_intonation_perc_control,2024.2.4,Win32,60.24096386,63d85df2ce828accc88ba837,69712dc693a3960bdb483245,69716987afe314f825fd8383,,,,,,,,,,,,,,,,,,,,,,,,,,,22,,,,,,,,,,,,,,,,,,,,,,,,,,,,,,,,,,,,,,,,,,,,1009.8018,1012.2319,slightly agree,0,21,21,21,1,I find it easy to put myself in somebody else's shoes.,1,0,1,0,,
,,,,,,,,,63d85df2ce828accc88ba837,spanish,13 or older,click here to respond,yes,2026-01-21_16h05.01.500,empathy_intonation_perc_control,2024.2.4,Win32,60.24096386,63d85df2ce828accc88ba837,69712dc693a3960bdb483245,69716987afe314f825fd8383,,,,,,,,,,,,,,,,,,,,,,,,,,,23,,,,,,,,,,,,,,,,,,,,,,,,,,,,,,,,,,,,,,,,,,,,1012.2337,1016.3964,slightly agree,0,22,22,22,1,I think that good manners are the most important thing a parent can teach their child.,0,1,0,0,,
,,,,,,,,,63d85df2ce828accc88ba837,spanish,13 or older,click here to respond,yes,2026-01-21_16h05.01.500,empathy_intonation_perc_control,2024.2.4,Win32,60.24096386,63d85df2ce828accc88ba837,69712dc693a3960bdb483245,69716987afe314f825fd8383,,,,,,,,,,,,,,,,,,,,,,,,,,,24,,,,,,,,,,,,,,,,,,,,,,,,,,,,,,,,,,,,,,,,,,,,1016.398,1018.6459,slightly agree,0,23,23,23,1,I like to do things on the spur of the moment.,0,1,0,0,,
,,,,,,,,,63d85df2ce828accc88ba837,spanish,13 or older,click here to respond,yes,2026-01-21_16h05.01.500,empathy_intonation_perc_control,2024.2.4,Win32,60.24096386,63d85df2ce828accc88ba837,69712dc693a3960bdb483245,69716987afe314f825fd8383,,,,,,,,,,,,,,,,,,,,,,,,,,,25,,,,,,,,,,,,,,,,,,,,,,,,,,,,,,,,,,,,,,,,,,,,1018.6474,1025.7589,slightly agree,0,24,24,24,1,I am good at predicting how someone will feel.,1,0,1,0,,
,,,,,,,,,63d85df2ce828accc88ba837,spanish,13 or older,click here to respond,yes,2026-01-21_16h05.01.500,empathy_intonation_perc_control,2024.2.4,Win32,60.24096386,63d85df2ce828accc88ba837,69712dc693a3960bdb483245,69716987afe314f825fd8383,,,,,,,,,,,,,,,,,,,,,,,,,,,26,,,,,,,,,,,,,,,,,,,,,,,,,,,,,,,,,,,,,,,,,,,,1025.7612,1028.9245,slightly agree,0,25,25,25,1,I am quick to spot when someone in a group is feeling awkward or uncomfortable.,1,0,1,0,,
,,,,,,,,,63d85df2ce828accc88ba837,spanish,13 or older,click here to respond,yes,2026-01-21_16h05.01.500,empathy_intonation_perc_control,2024.2.4,Win32,60.24096386,63d85df2ce828accc88ba837,69712dc693a3960bdb483245,69716987afe314f825fd8383,,,,,,,,,,,,,,,,,,,,,,,,,,,27,,,,,,,,,,,,,,,,,,,,,,,,,,,,,,,,,,,,,,,,,,,,1028.9262,1033.8393,strongly disagree,0,26,26,26,1,"If I say something that someone else is offended by, I think that that's their problem, not mine.",1,0,0,1,,
,,,,,,,,,63d85df2ce828accc88ba837,spanish,13 or older,click here to respond,yes,2026-01-21_16h05.01.500,empathy_intonation_perc_control,2024.2.4,Win32,60.24096386,63d85df2ce828accc88ba837,69712dc693a3960bdb483245,69716987afe314f825fd8383,,,,,,,,,,,,,,,,,,,,,,,,,,,28,,,,,,,,,,,,,,,,,,,,,,,,,,,,,,,,,,,,,,,,,,,,1033.8408,1038.4035,slightly disagree,0,27,27,27,1,"If anyone asked me if I liked their haircut, I would reply truthfully, even if I didn't like it.",1,0,0,1,,
