instructions_2afc.started,instructions_2afc.stopped,instructions_2afc_loop.thisRepN,instructions_2afc_loop.thisTrialN,instructions_2afc_loop.thisN,instructions_2afc_loop.thisIndex,instructions_2afc_loop.ran,instructions_text,continue_text,participant_id,"What variety of Spanish are you most familiar with? (e.g., Peruvian, Spanish, Mexican)",At what age did you begin learning Spanish?,Are you proficient in any languages other than English/Spanish?,"Are you familiar with Caribbean (e.g., Caribbean, Puerto Rican) or Galician Spanish?",date,expName,psychopyVersion,OS,frameRate,id,study_id,session,practice_2afc.started,practice_2afc.stopped,key_resp_2afc_practice.keys,key_resp_2afc_practice.corr,key_resp_2afc_practice.rt,key_resp_2afc_practice.duration,trials_2afc_practice_loop.thisRepN,trials_2afc_practice_loop.thisTrialN,trials_2afc_practice_loop.thisN,trials_2afc_practice_loop.thisIndex,trials_2afc_practice_loop.ran,path,correct_response,check_2afc.started,check_2afc.stopped,trial_2afc.started,trial_2afc.stopped,key_resp_2afc_trial.keys,key_resp_2afc_trial.corr,key_resp_2afc_trial.rt,key_resp_2afc_trial.duration,trials_2afc_loop.thisRepN,trials_2afc_loop.thisTrialN,trials_2afc_loop.thisN,trials_2afc_loop.thisIndex,trials_2afc_loop.ran,item_num,target,variety,instructions_lextale.started,instructions_lextale.stopped,instructions_lextale_loop.thisRepN,instructions_lextale_loop.thisTrialN,instructions_lextale_loop.thisN,instructions_lextale_loop.thisIndex,instructions_lextale_loop.ran,practice_lextale.started,practice_lextale.stopped,key_resp_lextale_practice.keys,key_resp_lextale_practice.corr,key_resp_lextale_practice.rt,key_resp_lextale_practice.duration,practice_feedback_lextale.started,practice_feedback_lextale.stopped,trials_lextale_practice_loop.thisRepN,trials_lextale_practice_loop.thisTrialN,trials_lextale_practice_loop.thisN,trials_lextale_practice_loop.thisIndex,trials_lextale_practice_loop.ran,stim,word,prac_button_real,prac_button_false,check_lextale.started,check_lextale.stopped,trial_lextale.started,trial_lextale.stopped,key_resp_lextale_trial.keys,key_resp_lextale_trial.corr,key_resp_lextale_trial.rt,key_resp_lextale_trial.duration,trials_lextale_loop.thisRepN,trials_lextale_loop.thisTrialN,trials_lextale_loop.thisN,trials_lextale_loop.thisIndex,trials_lextale_loop.ran,button_real,button_false,instructions_eq.started,instructions_eq.stopped,trial_eq.started,trial_eq.stopped,slider_eq_trial.response,trials_eq_loop.thisRepN,trials_eq_loop.thisTrialN,trials_eq_loop.thisN,trials_eq_loop.thisIndex,trials_eq_loop.ran,item,is_test_item,is_distractor,is_agree_score,is_disagree_score,end_exp.started,end_exp.stopped
0.0104,4.0654,0,0,0,0,1,"In the following task you are going to hear a series of utterances. 

  You will decide if the utterances sound like questions or not using your keyboard.", (press the spacebar to continue),647b94fa0a35e23330edcc2f,mexican,13 or older,click here to respond,no,2025-07-24_10h19.25.946,empathy_intonation_perc_control,2024.2.4,Win32,59.88023952,647b94fa0a35e23330edcc2f,68817205a84113384fffdfe3,688240a4fa1d0320840838cc,,,,,,,,,,,,,,,,,,,,,,,,,,,,,,,,,,,,,,,,,,,,,,,,,,,,,,,,,,,,,,,,,,,,,,,,,,,,,,,,,,,,,
4.0656,9.4365,0,1,1,1,1,"If you believe the utterance is a question, type '1' (for 'yes') and if you do not 
  believe it is a question type '0' (for 'no').

  Let's practice a bit...", (press the spacebar to continue),647b94fa0a35e23330edcc2f,mexican,13 or older,click here to respond,no,2025-07-24_10h19.25.946,empathy_intonation_perc_control,2024.2.4,Win32,59.88023952,647b94fa0a35e23330edcc2f,68817205a84113384fffdfe3,688240a4fa1d0320840838cc,,,,,,,,,,,,,,,,,,,,,,,,,,,,,,,,,,,,,,,,,,,,,,,,,,,,,,,,,,,,,,,,,,,,,,,,,,,,,,,,,,,,,
,,,,,,,,,647b94fa0a35e23330edcc2f,mexican,13 or older,click here to respond,no,2025-07-24_10h19.25.946,empathy_intonation_perc_control,2024.2.4,Win32,59.88023952,647b94fa0a35e23330edcc2f,68817205a84113384fffdfe3,688240a4fa1d0320840838cc,9.4419,26.0477,0,1,16.0887,,0,0,0,7,1,./stim/wavs/puertorican_statement_filler_La-nina-pinta-con-su-amiga.wav,0,,,,,,,,,,,,,,,,,,,,,,,,,,,,,,,,,,,,,,,,,,,,,,,,,,,,,,,,,,,,,,,,,,,,,,,,
,,,,,,,,,647b94fa0a35e23330edcc2f,mexican,13 or older,click here to respond,no,2025-07-24_10h19.25.946,empathy_intonation_perc_control,2024.2.4,Win32,59.88023952,647b94fa0a35e23330edcc2f,68817205a84113384fffdfe3,688240a4fa1d0320840838cc,26.048,45.3512,0,1,18.7815,,0,1,1,6,1,./stim/wavs/peruvian_statement_filler_El-nino-habla-con-su-madre.wav,0,,,,,,,,,,,,,,,,,,,,,,,,,,,,,,,,,,,,,,,,,,,,,,,,,,,,,,,,,,,,,,,,,,,,,,,,
,,,,,,,,,647b94fa0a35e23330edcc2f,mexican,13 or older,click here to respond,no,2025-07-24_10h19.25.946,empathy_intonation_perc_control,2024.2.4,Win32,59.88023952,647b94fa0a35e23330edcc2f,68817205a84113384fffdfe3,688240a4fa1d0320840838cc,45.3516,52.8848,1,1,6.988,,0,2,2,3,1,./stim/wavs/mexican_question_filler_Felipe-no-tiene-contrasena.wav,1,,,,,,,,,,,,,,,,,,,,,,,,,,,,,,,,,,,,,,,,,,,,,,,,,,,,,,,,,,,,,,,,,,,,,,,,
,,,,,,,,,647b94fa0a35e23330edcc2f,mexican,13 or older,click here to respond,no,2025-07-24_10h19.25.946,empathy_intonation_perc_control,2024.2.4,Win32,59.88023952,647b94fa0a35e23330edcc2f,68817205a84113384fffdfe3,688240a4fa1d0320840838cc,52.8852,66.8843,0,0,13.4835,,0,3,3,0,1,./stim/wavs/castilian_question_filler_Mi-esposo-conoce-al-chico.wav,1,,,,,,,,,,,,,,,,,,,,,,,,,,,,,,,,,,,,,,,,,,,,,,,,,,,,,,,,,,,,,,,,,,,,,,,,
,,,,,,,,,647b94fa0a35e23330edcc2f,mexican,13 or older,click here to respond,no,2025-07-24_10h19.25.946,empathy_intonation_perc_control,2024.2.4,Win32,59.88023952,647b94fa0a35e23330edcc2f,68817205a84113384fffdfe3,688240a4fa1d0320840838cc,66.8846,78.701,0,1,11.3008,,0,4,4,5,1,./stim/wavs/andalusian_statement_filler_Alberto-nunca-se-afeita.wav,0,,,,,,,,,,,,,,,,,,,,,,,,,,,,,,,,,,,,,,,,,,,,,,,,,,,,,,,,,,,,,,,,,,,,,,,,
,,,,,,,,,647b94fa0a35e23330edcc2f,mexican,13 or older,click here to respond,no,2025-07-24_10h19.25.946,empathy_intonation_perc_control,2024.2.4,Win32,59.88023952,647b94fa0a35e23330edcc2f,68817205a84113384fffdfe3,688240a4fa1d0320840838cc,78.7013,86.2496,1,1,7.016,,0,5,5,1,1,./stim/wavs/argentine_question_filler_Mi-vecino-habla-mucho.wav,1,,,,,,,,,,,,,,,,,,,,,,,,,,,,,,,,,,,,,,,,,,,,,,,,,,,,,,,,,,,,,,,,,,,,,,,,
,,,,,,,,,647b94fa0a35e23330edcc2f,mexican,13 or older,click here to respond,no,2025-07-24_10h19.25.946,empathy_intonation_perc_control,2024.2.4,Win32,59.88023952,647b94fa0a35e23330edcc2f,68817205a84113384fffdfe3,688240a4fa1d0320840838cc,86.2498,105.7113,0,1,18.9243,,0,6,6,4,1,./stim/wavs/cuban_statement_filler_Cocinabas-por-la-noche.wav,0,,,,,,,,,,,,,,,,,,,,,,,,,,,,,,,,,,,,,,,,,,,,,,,,,,,,,,,,,,,,,,,,,,,,,,,,
,,,,,,,,,647b94fa0a35e23330edcc2f,mexican,13 or older,click here to respond,no,2025-07-24_10h19.25.946,empathy_intonation_perc_control,2024.2.4,Win32,59.88023952,647b94fa0a35e23330edcc2f,68817205a84113384fffdfe3,688240a4fa1d0320840838cc,105.7121,110.8885,1,1,4.6561,,0,7,7,2,1,./stim/wavs/chilean_question_filler_Mi-padre-cantaba-bien.wav,1,,,,,,,,,,,,,,,,,,,,,,,,,,,,,,,,,,,,,,,,,,,,,,,,,,,,,,,,,,,,,,,,,,,,,,,,
,,,,,,,,,647b94fa0a35e23330edcc2f,mexican,13 or older,click here to respond,no,2025-07-24_10h19.25.946,empathy_intonation_perc_control,2024.2.4,Win32,59.88023952,647b94fa0a35e23330edcc2f,68817205a84113384fffdfe3,688240a4fa1d0320840838cc,,,,,,,,,,,,,,110.8892,121.0483,,,,,,,,,,,,,,,,,,,,,,,,,,,,,,,,,,,,,,,,,,,,,,,,,,,,,,,,,,,,,,,,,,,,,,
,,,,,,,,,647b94fa0a35e23330edcc2f,mexican,13 or older,click here to respond,no,2025-07-24_10h19.25.946,empathy_intonation_perc_control,2024.2.4,Win32,59.88023952,647b94fa0a35e23330edcc2f,68817205a84113384fffdfe3,688240a4fa1d0320840838cc,,,,,,,,,,,,./stim/wavs/mexican_mismatch_interrogative-total-yn_El-nino-oye-el-rio.wav,1,,,121.0534,136.4264,0,0,14.8613,,0,0,0,35,1,36,0,mexican,,,,,,,,,,,,,,,,,,,,,,,,,,,,,,,,,,,,,,,,,,,,,,,,,,,,,,,,
,,,,,,,,,647b94fa0a35e23330edcc2f,mexican,13 or older,click here to respond,no,2025-07-24_10h19.25.946,empathy_intonation_perc_control,2024.2.4,Win32,59.88023952,647b94fa0a35e23330edcc2f,68817205a84113384fffdfe3,688240a4fa1d0320840838cc,,,,,,,,,,,,./stim/wavs/mexican_mismatch_interrogative-total-yn_Mi-tia-odia-la-lluvia.wav,1,,,136.4267,143.9142,1,1,6.9668,,0,1,1,38,1,39,0,mexican,,,,,,,,,,,,,,,,,,,,,,,,,,,,,,,,,,,,,,,,,,,,,,,,,,,,,,,,
,,,,,,,,,647b94fa0a35e23330edcc2f,mexican,13 or older,click here to respond,no,2025-07-24_10h19.25.946,empathy_intonation_perc_control,2024.2.4,Win32,59.88023952,647b94fa0a35e23330edcc2f,68817205a84113384fffdfe3,688240a4fa1d0320840838cc,,,,,,,,,,,,./stim/wavs/mexican_match_declarative-broad-focus_Daniel-iba-a-Bolivia.wav,0,,,143.9145,155.2967,0,1,10.8496,,0,2,2,57,1,58,0,mexican,,,,,,,,,,,,,,,,,,,,,,,,,,,,,,,,,,,,,,,,,,,,,,,,,,,,,,,,
,,,,,,,,,647b94fa0a35e23330edcc2f,mexican,13 or older,click here to respond,no,2025-07-24_10h19.25.946,empathy_intonation_perc_control,2024.2.4,Win32,59.88023952,647b94fa0a35e23330edcc2f,68817205a84113384fffdfe3,688240a4fa1d0320840838cc,,,,,,,,,,,,./stim/wavs/mexican_mismatch_declarative-broad-focus_El-bebe-comia-muy-bien.wav,0,,,155.297,162.2464,1,0,6.4152,,0,3,3,78,1,79,0,mexican,,,,,,,,,,,,,,,,,,,,,,,,,,,,,,,,,,,,,,,,,,,,,,,,,,,,,,,,
,,,,,,,,,647b94fa0a35e23330edcc2f,mexican,13 or older,click here to respond,no,2025-07-24_10h19.25.946,empathy_intonation_perc_control,2024.2.4,Win32,59.88023952,647b94fa0a35e23330edcc2f,68817205a84113384fffdfe3,688240a4fa1d0320840838cc,,,,,,,,,,,,./stim/wavs/cuban_match_declarative-broad-focus_Ana-lleva-el-abrigo.wav,0,,,162.2466,174.3171,0,1,11.5374,,0,4,4,50,1,51,0,cuban,,,,,,,,,,,,,,,,,,,,,,,,,,,,,,,,,,,,,,,,,,,,,,,,,,,,,,,,
,,,,,,,,,647b94fa0a35e23330edcc2f,mexican,13 or older,click here to respond,no,2025-07-24_10h19.25.946,empathy_intonation_perc_control,2024.2.4,Win32,59.88023952,647b94fa0a35e23330edcc2f,68817205a84113384fffdfe3,688240a4fa1d0320840838cc,,,,,,,,,,,,./stim/wavs/castilian_match_declarative-broad-focus_David-leia-el-libro.wav,0,,,174.3173,182.7577,0,1,7.883,,0,5,5,44,1,45,0,castilian,,,,,,,,,,,,,,,,,,,,,,,,,,,,,,,,,,,,,,,,,,,,,,,,,,,,,,,,
,,,,,,,,,647b94fa0a35e23330edcc2f,mexican,13 or older,click here to respond,no,2025-07-24_10h19.25.946,empathy_intonation_perc_control,2024.2.4,Win32,59.88023952,647b94fa0a35e23330edcc2f,68817205a84113384fffdfe3,688240a4fa1d0320840838cc,,,,,,,,,,,,./stim/wavs/puertorican_mismatch_interrogative-total-yn_El-nino-oye-el-rio.wav,1,,,182.758,193.6127,0,0,10.335,,0,6,6,40,1,41,1,puertorican,,,,,,,,,,,,,,,,,,,,,,,,,,,,,,,,,,,,,,,,,,,,,,,,,,,,,,,,
,,,,,,,,,647b94fa0a35e23330edcc2f,mexican,13 or older,click here to respond,no,2025-07-24_10h19.25.946,empathy_intonation_perc_control,2024.2.4,Win32,59.88023952,647b94fa0a35e23330edcc2f,68817205a84113384fffdfe3,688240a4fa1d0320840838cc,,,,,,,,,,,,./stim/wavs/cuban_mismatch_declarative-broad-focus_La-nina-lava-el-plato.wav,0,,,193.6134,202.5781,0,1,8.4318,,0,7,7,75,1,76,0,cuban,,,,,,,,,,,,,,,,,,,,,,,,,,,,,,,,,,,,,,,,,,,,,,,,,,,,,,,,
,,,,,,,,,647b94fa0a35e23330edcc2f,mexican,13 or older,click here to respond,no,2025-07-24_10h19.25.946,empathy_intonation_perc_control,2024.2.4,Win32,59.88023952,647b94fa0a35e23330edcc2f,68817205a84113384fffdfe3,688240a4fa1d0320840838cc,,,,,,,,,,,,./stim/wavs/mexican_mismatch_declarative-broad-focus_Mi-novio-viene-del-lago.wav,0,,,202.5785,210.9066,0,1,7.8117,,0,8,8,81,1,82,0,mexican,,,,,,,,,,,,,,,,,,,,,,,,,,,,,,,,,,,,,,,,,,,,,,,,,,,,,,,,
,,,,,,,,,647b94fa0a35e23330edcc2f,mexican,13 or older,click here to respond,no,2025-07-24_10h19.25.946,empathy_intonation_perc_control,2024.2.4,Win32,59.88023952,647b94fa0a35e23330edcc2f,68817205a84113384fffdfe3,688240a4fa1d0320840838cc,,,,,,,,,,,,./stim/wavs/mexican_mismatch_interrogative-total-yn_El-hombre-mira-la-luna.wav,1,,,210.9068,217.8477,0,0,6.4031,,0,9,9,34,1,35,0,mexican,,,,,,,,,,,,,,,,,,,,,,,,,,,,,,,,,,,,,,,,,,,,,,,,,,,,,,,,
,,,,,,,,,647b94fa0a35e23330edcc2f,mexican,13 or older,click here to respond,no,2025-07-24_10h19.25.946,empathy_intonation_perc_control,2024.2.4,Win32,59.88023952,647b94fa0a35e23330edcc2f,68817205a84113384fffdfe3,688240a4fa1d0320840838cc,,,,,,,,,,,,./stim/wavs/puertorican_match_interrogative-total-yn_Daniel-iba-a-Bolivia.wav,1,,,217.8481,227.1464,0,0,8.7481,,0,10,10,19,1,20,1,puertorican,,,,,,,,,,,,,,,,,,,,,,,,,,,,,,,,,,,,,,,,,,,,,,,,,,,,,,,,
,,,,,,,,,647b94fa0a35e23330edcc2f,mexican,13 or older,click here to respond,no,2025-07-24_10h19.25.946,empathy_intonation_perc_control,2024.2.4,Win32,59.88023952,647b94fa0a35e23330edcc2f,68817205a84113384fffdfe3,688240a4fa1d0320840838cc,,,,,,,,,,,,./stim/wavs/puertorican_mismatch_declarative-broad-focus_La-nina-lava-el-plato.wav,0,,,227.1467,234.01,0,1,6.3332,,0,11,11,87,1,88,0,puertorican,,,,,,,,,,,,,,,,,,,,,,,,,,,,,,,,,,,,,,,,,,,,,,,,,,,,,,,,
,,,,,,,,,647b94fa0a35e23330edcc2f,mexican,13 or older,click here to respond,no,2025-07-24_10h19.25.946,empathy_intonation_perc_control,2024.2.4,Win32,59.88023952,647b94fa0a35e23330edcc2f,68817205a84113384fffdfe3,688240a4fa1d0320840838cc,,,,,,,,,,,,./stim/wavs/cuban_mismatch_declarative-broad-focus_Mi-tia-odia-la-lluvia.wav,0,,,234.0103,241.3762,0,1,6.8495,,0,12,12,77,1,78,0,cuban,,,,,,,,,,,,,,,,,,,,,,,,,,,,,,,,,,,,,,,,,,,,,,,,,,,,,,,,
,,,,,,,,,647b94fa0a35e23330edcc2f,mexican,13 or older,click here to respond,no,2025-07-24_10h19.25.946,empathy_intonation_perc_control,2024.2.4,Win32,59.88023952,647b94fa0a35e23330edcc2f,68817205a84113384fffdfe3,688240a4fa1d0320840838cc,,,,,,,,,,,,./stim/wavs/cuban_match_interrogative-total-yn_Manuela-vende-el-carro.wav,1,,,241.3765,250.976,0,0,9.0831,,0,13,13,8,1,9,1,cuban,,,,,,,,,,,,,,,,,,,,,,,,,,,,,,,,,,,,,,,,,,,,,,,,,,,,,,,,
,,,,,,,,,647b94fa0a35e23330edcc2f,mexican,13 or older,click here to respond,no,2025-07-24_10h19.25.946,empathy_intonation_perc_control,2024.2.4,Win32,59.88023952,647b94fa0a35e23330edcc2f,68817205a84113384fffdfe3,688240a4fa1d0320840838cc,,,,,,,,,,,,./stim/wavs/puertorican_match_declarative-broad-focus_Daniel-iba-a-Bolivia.wav,0,,,250.9763,259.5465,0,1,8.0532,,0,14,14,63,1,64,0,puertorican,,,,,,,,,,,,,,,,,,,,,,,,,,,,,,,,,,,,,,,,,,,,,,,,,,,,,,,,
,,,,,,,,,647b94fa0a35e23330edcc2f,mexican,13 or older,click here to respond,no,2025-07-24_10h19.25.946,empathy_intonation_perc_control,2024.2.4,Win32,59.88023952,647b94fa0a35e23330edcc2f,68817205a84113384fffdfe3,688240a4fa1d0320840838cc,,,,,,,,,,,,./stim/wavs/cuban_match_declarative-broad-focus_Daniel-iba-a-Bolivia.wav,0,,,259.5468,267.5754,1,0,7.5167,,0,15,15,51,1,52,0,cuban,,,,,,,,,,,,,,,,,,,,,,,,,,,,,,,,,,,,,,,,,,,,,,,,,,,,,,,,
,,,,,,,,,647b94fa0a35e23330edcc2f,mexican,13 or older,click here to respond,no,2025-07-24_10h19.25.946,empathy_intonation_perc_control,2024.2.4,Win32,59.88023952,647b94fa0a35e23330edcc2f,68817205a84113384fffdfe3,688240a4fa1d0320840838cc,,,,,,,,,,,,./stim/wavs/castilian_match_declarative-broad-focus_Marta-abre-el-regalo.wav,0,,,267.5757,274.4917,0,1,6.4,,0,16,16,49,1,50,0,castilian,,,,,,,,,,,,,,,,,,,,,,,,,,,,,,,,,,,,,,,,,,,,,,,,,,,,,,,,
,,,,,,,,,647b94fa0a35e23330edcc2f,mexican,13 or older,click here to respond,no,2025-07-24_10h19.25.946,empathy_intonation_perc_control,2024.2.4,Win32,59.88023952,647b94fa0a35e23330edcc2f,68817205a84113384fffdfe3,688240a4fa1d0320840838cc,,,,,,,,,,,,./stim/wavs/puertorican_match_declarative-broad-focus_David-leia-el-libro.wav,0,,,274.492,280.7113,0,1,5.6855,,0,17,17,64,1,65,0,puertorican,,,,,,,,,,,,,,,,,,,,,,,,,,,,,,,,,,,,,,,,,,,,,,,,,,,,,,,,
,,,,,,,,,647b94fa0a35e23330edcc2f,mexican,13 or older,click here to respond,no,2025-07-24_10h19.25.946,empathy_intonation_perc_control,2024.2.4,Win32,59.88023952,647b94fa0a35e23330edcc2f,68817205a84113384fffdfe3,688240a4fa1d0320840838cc,,,,,,,,,,,,./stim/wavs/mexican_match_declarative-broad-focus_Emilio-ama-la-marcha.wav,0,,,280.7117,290.0085,0,1,8.767,,0,18,18,59,1,60,0,mexican,,,,,,,,,,,,,,,,,,,,,,,,,,,,,,,,,,,,,,,,,,,,,,,,,,,,,,,,
,,,,,,,,,647b94fa0a35e23330edcc2f,mexican,13 or older,click here to respond,no,2025-07-24_10h19.25.946,empathy_intonation_perc_control,2024.2.4,Win32,59.88023952,647b94fa0a35e23330edcc2f,68817205a84113384fffdfe3,688240a4fa1d0320840838cc,,,,,,,,,,,,./stim/wavs/mexican_match_interrogative-total-yn_David-leia-el-libro.wav,1,,,290.0092,296.2913,0,0,5.7671,,0,19,19,14,1,15,0,mexican,,,,,,,,,,,,,,,,,,,,,,,,,,,,,,,,,,,,,,,,,,,,,,,,,,,,,,,,
,,,,,,,,,647b94fa0a35e23330edcc2f,mexican,13 or older,click here to respond,no,2025-07-24_10h19.25.946,empathy_intonation_perc_control,2024.2.4,Win32,59.88023952,647b94fa0a35e23330edcc2f,68817205a84113384fffdfe3,688240a4fa1d0320840838cc,,,,,,,,,,,,./stim/wavs/castilian_mismatch_interrogative-total-yn_La-maestra-vive-en-Paris.wav,1,,,296.2917,304.9196,1,1,8.0862,,0,20,20,24,1,25,0,castilian,,,,,,,,,,,,,,,,,,,,,,,,,,,,,,,,,,,,,,,,,,,,,,,,,,,,,,,,
,,,,,,,,,647b94fa0a35e23330edcc2f,mexican,13 or older,click here to respond,no,2025-07-24_10h19.25.946,empathy_intonation_perc_control,2024.2.4,Win32,59.88023952,647b94fa0a35e23330edcc2f,68817205a84113384fffdfe3,688240a4fa1d0320840838cc,,,,,,,,,,,,./stim/wavs/mexican_mismatch_interrogative-total-yn_La-maestra-vive-en-Paris.wav,1,,,304.9199,313.4567,1,1,8.0164,,0,21,21,36,1,37,0,mexican,,,,,,,,,,,,,,,,,,,,,,,,,,,,,,,,,,,,,,,,,,,,,,,,,,,,,,,,
,,,,,,,,,647b94fa0a35e23330edcc2f,mexican,13 or older,click here to respond,no,2025-07-24_10h19.25.946,empathy_intonation_perc_control,2024.2.4,Win32,59.88023952,647b94fa0a35e23330edcc2f,68817205a84113384fffdfe3,688240a4fa1d0320840838cc,,,,,,,,,,,,./stim/wavs/cuban_match_declarative-broad-focus_Mariano-habla-del-tiempo.wav,0,,,313.4571,321.9397,0,1,7.9665,,0,22,22,54,1,55,0,cuban,,,,,,,,,,,,,,,,,,,,,,,,,,,,,,,,,,,,,,,,,,,,,,,,,,,,,,,,
,,,,,,,,,647b94fa0a35e23330edcc2f,mexican,13 or older,click here to respond,no,2025-07-24_10h19.25.946,empathy_intonation_perc_control,2024.2.4,Win32,59.88023952,647b94fa0a35e23330edcc2f,68817205a84113384fffdfe3,688240a4fa1d0320840838cc,,,,,,,,,,,,./stim/wavs/castilian_match_declarative-broad-focus_Manuela-vende-el-carro.wav,0,,,321.94,328.5657,0,1,6.0924,,0,23,23,46,1,47,0,castilian,,,,,,,,,,,,,,,,,,,,,,,,,,,,,,,,,,,,,,,,,,,,,,,,,,,,,,,,
,,,,,,,,,647b94fa0a35e23330edcc2f,mexican,13 or older,click here to respond,no,2025-07-24_10h19.25.946,empathy_intonation_perc_control,2024.2.4,Win32,59.88023952,647b94fa0a35e23330edcc2f,68817205a84113384fffdfe3,688240a4fa1d0320840838cc,,,,,,,,,,,,./stim/wavs/mexican_match_declarative-broad-focus_Ana-lleva-el-abrigo.wav,0,,,328.566,341.1913,0,1,12.0961,,0,24,24,56,1,57,0,mexican,,,,,,,,,,,,,,,,,,,,,,,,,,,,,,,,,,,,,,,,,,,,,,,,,,,,,,,,
,,,,,,,,,647b94fa0a35e23330edcc2f,mexican,13 or older,click here to respond,no,2025-07-24_10h19.25.946,empathy_intonation_perc_control,2024.2.4,Win32,59.88023952,647b94fa0a35e23330edcc2f,68817205a84113384fffdfe3,688240a4fa1d0320840838cc,,,,,,,,,,,,./stim/wavs/puertorican_match_declarative-broad-focus_Maria-bebe-el-vino.wav,0,,,341.1916,348.7387,0,1,7.0161,,0,25,25,67,1,68,0,puertorican,,,,,,,,,,,,,,,,,,,,,,,,,,,,,,,,,,,,,,,,,,,,,,,,,,,,,,,,
,,,,,,,,,647b94fa0a35e23330edcc2f,mexican,13 or older,click here to respond,no,2025-07-24_10h19.25.946,empathy_intonation_perc_control,2024.2.4,Win32,59.88023952,647b94fa0a35e23330edcc2f,68817205a84113384fffdfe3,688240a4fa1d0320840838cc,,,,,,,,,,,,./stim/wavs/puertorican_match_interrogative-total-yn_Maria-bebe-el-vino.wav,1,,,348.7389,358.9216,1,1,9.6661,,0,26,26,23,1,24,1,puertorican,,,,,,,,,,,,,,,,,,,,,,,,,,,,,,,,,,,,,,,,,,,,,,,,,,,,,,,,
,,,,,,,,,647b94fa0a35e23330edcc2f,mexican,13 or older,click here to respond,no,2025-07-24_10h19.25.946,empathy_intonation_perc_control,2024.2.4,Win32,59.88023952,647b94fa0a35e23330edcc2f,68817205a84113384fffdfe3,688240a4fa1d0320840838cc,,,,,,,,,,,,./stim/wavs/mexican_mismatch_declarative-broad-focus_Mi-tia-odia-la-lluvia.wav,0,,,358.9219,365.1505,0,1,5.6922,,0,27,27,82,1,83,0,mexican,,,,,,,,,,,,,,,,,,,,,,,,,,,,,,,,,,,,,,,,,,,,,,,,,,,,,,,,
,,,,,,,,,647b94fa0a35e23330edcc2f,mexican,13 or older,click here to respond,no,2025-07-24_10h19.25.946,empathy_intonation_perc_control,2024.2.4,Win32,59.88023952,647b94fa0a35e23330edcc2f,68817205a84113384fffdfe3,688240a4fa1d0320840838cc,,,,,,,,,,,,./stim/wavs/cuban_mismatch_interrogative-total-yn_Mi-tia-odia-la-lluvia.wav,1,,,365.1511,371.2711,0,0,5.6002,,0,28,28,33,1,34,1,cuban,,,,,,,,,,,,,,,,,,,,,,,,,,,,,,,,,,,,,,,,,,,,,,,,,,,,,,,,
,,,,,,,,,647b94fa0a35e23330edcc2f,mexican,13 or older,click here to respond,no,2025-07-24_10h19.25.946,empathy_intonation_perc_control,2024.2.4,Win32,59.88023952,647b94fa0a35e23330edcc2f,68817205a84113384fffdfe3,688240a4fa1d0320840838cc,,,,,,,,,,,,./stim/wavs/cuban_mismatch_interrogative-total-yn_El-nino-oye-el-rio.wav,1,,,371.2713,382.5709,1,1,10.783,,0,29,29,30,1,31,1,cuban,,,,,,,,,,,,,,,,,,,,,,,,,,,,,,,,,,,,,,,,,,,,,,,,,,,,,,,,
,,,,,,,,,647b94fa0a35e23330edcc2f,mexican,13 or older,click here to respond,no,2025-07-24_10h19.25.946,empathy_intonation_perc_control,2024.2.4,Win32,59.88023952,647b94fa0a35e23330edcc2f,68817205a84113384fffdfe3,688240a4fa1d0320840838cc,,,,,,,,,,,,./stim/wavs/cuban_match_interrogative-total-yn_Mariano-habla-del-tiempo.wav,1,,,382.5713,392.5037,0,0,9.3998,,0,30,30,10,1,11,1,cuban,,,,,,,,,,,,,,,,,,,,,,,,,,,,,,,,,,,,,,,,,,,,,,,,,,,,,,,,
,,,,,,,,,647b94fa0a35e23330edcc2f,mexican,13 or older,click here to respond,no,2025-07-24_10h19.25.946,empathy_intonation_perc_control,2024.2.4,Win32,59.88023952,647b94fa0a35e23330edcc2f,68817205a84113384fffdfe3,688240a4fa1d0320840838cc,,,,,,,,,,,,./stim/wavs/mexican_match_interrogative-total-yn_Marta-abre-el-regalo.wav,1,,,392.504,399.0488,0,0,6.0221,,0,31,31,17,1,18,0,mexican,,,,,,,,,,,,,,,,,,,,,,,,,,,,,,,,,,,,,,,,,,,,,,,,,,,,,,,,
,,,,,,,,,647b94fa0a35e23330edcc2f,mexican,13 or older,click here to respond,no,2025-07-24_10h19.25.946,empathy_intonation_perc_control,2024.2.4,Win32,59.88023952,647b94fa0a35e23330edcc2f,68817205a84113384fffdfe3,688240a4fa1d0320840838cc,,,,,,,,,,,,./stim/wavs/puertorican_mismatch_interrogative-total-yn_Mi-madre-come-la-fruta.wav,1,,,399.049,406.7538,0,0,7.2006,,0,32,32,43,1,44,1,puertorican,,,,,,,,,,,,,,,,,,,,,,,,,,,,,,,,,,,,,,,,,,,,,,,,,,,,,,,,
,,,,,,,,,647b94fa0a35e23330edcc2f,mexican,13 or older,click here to respond,no,2025-07-24_10h19.25.946,empathy_intonation_perc_control,2024.2.4,Win32,59.88023952,647b94fa0a35e23330edcc2f,68817205a84113384fffdfe3,688240a4fa1d0320840838cc,,,,,,,,,,,,./stim/wavs/puertorican_mismatch_interrogative-total-yn_El-hombre-mira-la-luna.wav,1,,,406.754,415.2859,1,1,8.0178,,0,33,33,39,1,40,1,puertorican,,,,,,,,,,,,,,,,,,,,,,,,,,,,,,,,,,,,,,,,,,,,,,,,,,,,,,,,
,,,,,,,,,647b94fa0a35e23330edcc2f,mexican,13 or older,click here to respond,no,2025-07-24_10h19.25.946,empathy_intonation_perc_control,2024.2.4,Win32,59.88023952,647b94fa0a35e23330edcc2f,68817205a84113384fffdfe3,688240a4fa1d0320840838cc,,,,,,,,,,,,./stim/wavs/puertorican_match_declarative-broad-focus_Ana-lleva-el-abrigo.wav,0,,,415.2862,421.2726,0,1,5.4533,,0,34,34,62,1,63,0,puertorican,,,,,,,,,,,,,,,,,,,,,,,,,,,,,,,,,,,,,,,,,,,,,,,,,,,,,,,,
,,,,,,,,,647b94fa0a35e23330edcc2f,mexican,13 or older,click here to respond,no,2025-07-24_10h19.25.946,empathy_intonation_perc_control,2024.2.4,Win32,59.88023952,647b94fa0a35e23330edcc2f,68817205a84113384fffdfe3,688240a4fa1d0320840838cc,,,,,,,,,,,,./stim/wavs/castilian_mismatch_interrogative-total-yn_Mi-madre-come-la-fruta.wav,1,,,421.2728,429.5258,1,1,7.7236,,0,35,35,26,1,27,0,castilian,,,,,,,,,,,,,,,,,,,,,,,,,,,,,,,,,,,,,,,,,,,,,,,,,,,,,,,,
,,,,,,,,,647b94fa0a35e23330edcc2f,mexican,13 or older,click here to respond,no,2025-07-24_10h19.25.946,empathy_intonation_perc_control,2024.2.4,Win32,59.88023952,647b94fa0a35e23330edcc2f,68817205a84113384fffdfe3,688240a4fa1d0320840838cc,,,,,,,,,,,,./stim/wavs/puertorican_match_interrogative-total-yn_Manuela-vende-el-carro.wav,1,,,429.5261,436.3518,0,0,6.2999,,0,36,36,22,1,23,1,puertorican,,,,,,,,,,,,,,,,,,,,,,,,,,,,,,,,,,,,,,,,,,,,,,,,,,,,,,,,
,,,,,,,,,647b94fa0a35e23330edcc2f,mexican,13 or older,click here to respond,no,2025-07-24_10h19.25.946,empathy_intonation_perc_control,2024.2.4,Win32,59.88023952,647b94fa0a35e23330edcc2f,68817205a84113384fffdfe3,688240a4fa1d0320840838cc,,,,,,,,,,,,./stim/wavs/mexican_match_interrogative-total-yn_Emilio-ama-la-marcha.wav,1,,,436.3521,444.9037,0,0,8.0175,,0,37,37,15,1,16,0,mexican,,,,,,,,,,,,,,,,,,,,,,,,,,,,,,,,,,,,,,,,,,,,,,,,,,,,,,,,
,,,,,,,,,647b94fa0a35e23330edcc2f,mexican,13 or older,click here to respond,no,2025-07-24_10h19.25.946,empathy_intonation_perc_control,2024.2.4,Win32,59.88023952,647b94fa0a35e23330edcc2f,68817205a84113384fffdfe3,688240a4fa1d0320840838cc,,,,,,,,,,,,./stim/wavs/puertorican_mismatch_interrogative-total-yn_La-maestra-vive-en-Paris.wav,1,,,444.9039,453.1014,1,1,7.6667,,0,38,38,41,1,42,1,puertorican,,,,,,,,,,,,,,,,,,,,,,,,,,,,,,,,,,,,,,,,,,,,,,,,,,,,,,,,
,,,,,,,,,647b94fa0a35e23330edcc2f,mexican,13 or older,click here to respond,no,2025-07-24_10h19.25.946,empathy_intonation_perc_control,2024.2.4,Win32,59.88023952,647b94fa0a35e23330edcc2f,68817205a84113384fffdfe3,688240a4fa1d0320840838cc,,,,,,,,,,,,./stim/wavs/cuban_match_declarative-broad-focus_Manuela-vende-el-carro.wav,0,,,453.1018,459.1184,0,1,5.5008,,0,39,39,52,1,53,0,cuban,,,,,,,,,,,,,,,,,,,,,,,,,,,,,,,,,,,,,,,,,,,,,,,,,,,,,,,,
,,,,,,,,,647b94fa0a35e23330edcc2f,mexican,13 or older,click here to respond,no,2025-07-24_10h19.25.946,empathy_intonation_perc_control,2024.2.4,Win32,59.88023952,647b94fa0a35e23330edcc2f,68817205a84113384fffdfe3,688240a4fa1d0320840838cc,,,,,,,,,,,,./stim/wavs/puertorican_mismatch_declarative-broad-focus_El-nino-oye-el-rio.wav,0,,,459.1187,468.1129,0,1,8.4556,,0,40,40,85,1,86,0,puertorican,,,,,,,,,,,,,,,,,,,,,,,,,,,,,,,,,,,,,,,,,,,,,,,,,,,,,,,,
,,,,,,,,,647b94fa0a35e23330edcc2f,mexican,13 or older,click here to respond,no,2025-07-24_10h19.25.946,empathy_intonation_perc_control,2024.2.4,Win32,59.88023952,647b94fa0a35e23330edcc2f,68817205a84113384fffdfe3,688240a4fa1d0320840838cc,,,,,,,,,,,,./stim/wavs/puertorican_match_interrogative-total-yn_David-leia-el-libro.wav,1,,,468.1138,474.946,0,0,6.3117,,0,41,41,20,1,21,1,puertorican,,,,,,,,,,,,,,,,,,,,,,,,,,,,,,,,,,,,,,,,,,,,,,,,,,,,,,,,
,,,,,,,,,647b94fa0a35e23330edcc2f,mexican,13 or older,click here to respond,no,2025-07-24_10h19.25.946,empathy_intonation_perc_control,2024.2.4,Win32,59.88023952,647b94fa0a35e23330edcc2f,68817205a84113384fffdfe3,688240a4fa1d0320840838cc,,,,,,,,,,,,./stim/wavs/cuban_match_interrogative-total-yn_Ana-lleva-el-abrigo.wav,1,,,474.9461,484.4786,0,0,9.0074,,0,42,42,6,1,7,1,cuban,,,,,,,,,,,,,,,,,,,,,,,,,,,,,,,,,,,,,,,,,,,,,,,,,,,,,,,,
,,,,,,,,,647b94fa0a35e23330edcc2f,mexican,13 or older,click here to respond,no,2025-07-24_10h19.25.946,empathy_intonation_perc_control,2024.2.4,Win32,59.88023952,647b94fa0a35e23330edcc2f,68817205a84113384fffdfe3,688240a4fa1d0320840838cc,,,,,,,,,,,,./stim/wavs/castilian_match_interrogative-total-yn_Maria-bebe-el-vino.wav,1,,,484.4788,490.5829,0,0,5.5821,,0,43,43,3,1,4,0,castilian,,,,,,,,,,,,,,,,,,,,,,,,,,,,,,,,,,,,,,,,,,,,,,,,,,,,,,,,
,,,,,,,,,647b94fa0a35e23330edcc2f,mexican,13 or older,click here to respond,no,2025-07-24_10h19.25.946,empathy_intonation_perc_control,2024.2.4,Win32,59.88023952,647b94fa0a35e23330edcc2f,68817205a84113384fffdfe3,688240a4fa1d0320840838cc,,,,,,,,,,,,./stim/wavs/cuban_match_declarative-broad-focus_Marta-abre-el-regalo.wav,0,,,490.5832,496.3992,0,1,5.2998,,0,44,44,55,1,56,0,cuban,,,,,,,,,,,,,,,,,,,,,,,,,,,,,,,,,,,,,,,,,,,,,,,,,,,,,,,,
,,,,,,,,,647b94fa0a35e23330edcc2f,mexican,13 or older,click here to respond,no,2025-07-24_10h19.25.946,empathy_intonation_perc_control,2024.2.4,Win32,59.88023952,647b94fa0a35e23330edcc2f,68817205a84113384fffdfe3,688240a4fa1d0320840838cc,,,,,,,,,,,,./stim/wavs/castilian_match_interrogative-total-yn_Marta-abre-el-regalo.wav,1,,,496.3994,502.599,1,1,5.6827,,0,45,45,5,1,6,0,castilian,,,,,,,,,,,,,,,,,,,,,,,,,,,,,,,,,,,,,,,,,,,,,,,,,,,,,,,,
,,,,,,,,,647b94fa0a35e23330edcc2f,mexican,13 or older,click here to respond,no,2025-07-24_10h19.25.946,empathy_intonation_perc_control,2024.2.4,Win32,59.88023952,647b94fa0a35e23330edcc2f,68817205a84113384fffdfe3,688240a4fa1d0320840838cc,,,,,,,,,,,,./stim/wavs/castilian_mismatch_declarative-broad-focus_La-nina-lava-el-plato.wav,0,,,502.5993,510.8154,1,0,7.6831,,0,46,46,70,1,71,0,castilian,,,,,,,,,,,,,,,,,,,,,,,,,,,,,,,,,,,,,,,,,,,,,,,,,,,,,,,,
,,,,,,,,,647b94fa0a35e23330edcc2f,mexican,13 or older,click here to respond,no,2025-07-24_10h19.25.946,empathy_intonation_perc_control,2024.2.4,Win32,59.88023952,647b94fa0a35e23330edcc2f,68817205a84113384fffdfe3,688240a4fa1d0320840838cc,,,,,,,,,,,,./stim/wavs/castilian_match_declarative-broad-focus_Emilio-ama-la-marcha.wav,0,,,510.8156,518.2818,0,1,6.9498,,0,47,47,45,1,46,0,castilian,,,,,,,,,,,,,,,,,,,,,,,,,,,,,,,,,,,,,,,,,,,,,,,,,,,,,,,,
,,,,,,,,,647b94fa0a35e23330edcc2f,mexican,13 or older,click here to respond,no,2025-07-24_10h19.25.946,empathy_intonation_perc_control,2024.2.4,Win32,59.88023952,647b94fa0a35e23330edcc2f,68817205a84113384fffdfe3,688240a4fa1d0320840838cc,,,,,,,,,,,,./stim/wavs/castilian_mismatch_interrogative-total-yn_Mi-novio-viene-del-lago.wav,1,,,518.282,529.1312,1,1,10.3331,,0,48,48,27,1,28,0,castilian,,,,,,,,,,,,,,,,,,,,,,,,,,,,,,,,,,,,,,,,,,,,,,,,,,,,,,,,
,,,,,,,,,647b94fa0a35e23330edcc2f,mexican,13 or older,click here to respond,no,2025-07-24_10h19.25.946,empathy_intonation_perc_control,2024.2.4,Win32,59.88023952,647b94fa0a35e23330edcc2f,68817205a84113384fffdfe3,688240a4fa1d0320840838cc,,,,,,,,,,,,./stim/wavs/cuban_match_declarative-broad-focus_Maria-bebe-el-vino.wav,0,,,529.1315,536.5765,1,0,6.8992,,0,49,49,53,1,54,0,cuban,,,,,,,,,,,,,,,,,,,,,,,,,,,,,,,,,,,,,,,,,,,,,,,,,,,,,,,,
,,,,,,,,,647b94fa0a35e23330edcc2f,mexican,13 or older,click here to respond,no,2025-07-24_10h19.25.946,empathy_intonation_perc_control,2024.2.4,Win32,59.88023952,647b94fa0a35e23330edcc2f,68817205a84113384fffdfe3,688240a4fa1d0320840838cc,,,,,,,,,,,,./stim/wavs/castilian_match_declarative-broad-focus_Mariano-habla-del-tiempo.wav,0,,,536.5767,544.1861,0,1,7.0719,,0,50,50,48,1,49,0,castilian,,,,,,,,,,,,,,,,,,,,,,,,,,,,,,,,,,,,,,,,,,,,,,,,,,,,,,,,
,,,,,,,,,647b94fa0a35e23330edcc2f,mexican,13 or older,click here to respond,no,2025-07-24_10h19.25.946,empathy_intonation_perc_control,2024.2.4,Win32,59.88023952,647b94fa0a35e23330edcc2f,68817205a84113384fffdfe3,688240a4fa1d0320840838cc,,,,,,,,,,,,./stim/wavs/cuban_mismatch_interrogative-total-yn_Mi-madre-come-la-fruta.wav,1,,,544.1864,550.3971,1,1,5.6998,,0,51,51,31,1,32,1,cuban,,,,,,,,,,,,,,,,,,,,,,,,,,,,,,,,,,,,,,,,,,,,,,,,,,,,,,,,
,,,,,,,,,647b94fa0a35e23330edcc2f,mexican,13 or older,click here to respond,no,2025-07-24_10h19.25.946,empathy_intonation_perc_control,2024.2.4,Win32,59.88023952,647b94fa0a35e23330edcc2f,68817205a84113384fffdfe3,688240a4fa1d0320840838cc,,,,,,,,,,,,./stim/wavs/castilian_match_interrogative-total-yn_Manuela-vende-el-carro.wav,1,,,550.3974,563.7139,0,0,12.8004,,0,52,52,2,1,3,0,castilian,,,,,,,,,,,,,,,,,,,,,,,,,,,,,,,,,,,,,,,,,,,,,,,,,,,,,,,,
,,,,,,,,,647b94fa0a35e23330edcc2f,mexican,13 or older,click here to respond,no,2025-07-24_10h19.25.946,empathy_intonation_perc_control,2024.2.4,Win32,59.88023952,647b94fa0a35e23330edcc2f,68817205a84113384fffdfe3,688240a4fa1d0320840838cc,,,,,,,,,,,,./stim/wavs/cuban_mismatch_declarative-broad-focus_Mi-novio-viene-del-lago.wav,0,,,563.7141,570.6584,0,1,6.4155,,0,53,53,76,1,77,0,cuban,,,,,,,,,,,,,,,,,,,,,,,,,,,,,,,,,,,,,,,,,,,,,,,,,,,,,,,,
,,,,,,,,,647b94fa0a35e23330edcc2f,mexican,13 or older,click here to respond,no,2025-07-24_10h19.25.946,empathy_intonation_perc_control,2024.2.4,Win32,59.88023952,647b94fa0a35e23330edcc2f,68817205a84113384fffdfe3,688240a4fa1d0320840838cc,,,,,,,,,,,,./stim/wavs/puertorican_mismatch_declarative-broad-focus_El-bebe-comia-muy-bien.wav,0,,,570.6587,580.8012,0,1,9.6217,,0,54,54,83,1,84,0,puertorican,,,,,,,,,,,,,,,,,,,,,,,,,,,,,,,,,,,,,,,,,,,,,,,,,,,,,,,,
,,,,,,,,,647b94fa0a35e23330edcc2f,mexican,13 or older,click here to respond,no,2025-07-24_10h19.25.946,empathy_intonation_perc_control,2024.2.4,Win32,59.88023952,647b94fa0a35e23330edcc2f,68817205a84113384fffdfe3,688240a4fa1d0320840838cc,,,,,,,,,,,,./stim/wavs/cuban_match_interrogative-total-yn_Marta-abre-el-regalo.wav,1,,,580.8014,589.8454,0,0,8.5157,,0,55,55,11,1,12,1,cuban,,,,,,,,,,,,,,,,,,,,,,,,,,,,,,,,,,,,,,,,,,,,,,,,,,,,,,,,
,,,,,,,,,647b94fa0a35e23330edcc2f,mexican,13 or older,click here to respond,no,2025-07-24_10h19.25.946,empathy_intonation_perc_control,2024.2.4,Win32,59.88023952,647b94fa0a35e23330edcc2f,68817205a84113384fffdfe3,688240a4fa1d0320840838cc,,,,,,,,,,,,./stim/wavs/cuban_match_interrogative-total-yn_Daniel-iba-a-Bolivia.wav,1,,,589.8456,598.7287,0,0,8.3667,,0,56,56,7,1,8,1,cuban,,,,,,,,,,,,,,,,,,,,,,,,,,,,,,,,,,,,,,,,,,,,,,,,,,,,,,,,
,,,,,,,,,647b94fa0a35e23330edcc2f,mexican,13 or older,click here to respond,no,2025-07-24_10h19.25.946,empathy_intonation_perc_control,2024.2.4,Win32,59.88023952,647b94fa0a35e23330edcc2f,68817205a84113384fffdfe3,688240a4fa1d0320840838cc,,,,,,,,,,,,./stim/wavs/mexican_mismatch_interrogative-total-yn_Mi-novio-viene-del-lago.wav,1,,,598.7289,608.9069,0,0,9.6366,,0,57,57,37,1,38,0,mexican,,,,,,,,,,,,,,,,,,,,,,,,,,,,,,,,,,,,,,,,,,,,,,,,,,,,,,,,
,,,,,,,,,647b94fa0a35e23330edcc2f,mexican,13 or older,click here to respond,no,2025-07-24_10h19.25.946,empathy_intonation_perc_control,2024.2.4,Win32,59.88023952,647b94fa0a35e23330edcc2f,68817205a84113384fffdfe3,688240a4fa1d0320840838cc,,,,,,,,,,,,./stim/wavs/mexican_match_interrogative-total-yn_Daniel-iba-a-Bolivia.wav,1,,,608.9072,617.5274,1,1,8.0829,,0,58,58,13,1,14,0,mexican,,,,,,,,,,,,,,,,,,,,,,,,,,,,,,,,,,,,,,,,,,,,,,,,,,,,,,,,
,,,,,,,,,647b94fa0a35e23330edcc2f,mexican,13 or older,click here to respond,no,2025-07-24_10h19.25.946,empathy_intonation_perc_control,2024.2.4,Win32,59.88023952,647b94fa0a35e23330edcc2f,68817205a84113384fffdfe3,688240a4fa1d0320840838cc,,,,,,,,,,,,./stim/wavs/castilian_match_interrogative-total-yn_David-leia-el-libro.wav,1,,,617.5277,626.5447,1,1,8.4836,,0,59,59,0,1,1,0,castilian,,,,,,,,,,,,,,,,,,,,,,,,,,,,,,,,,,,,,,,,,,,,,,,,,,,,,,,,
,,,,,,,,,647b94fa0a35e23330edcc2f,mexican,13 or older,click here to respond,no,2025-07-24_10h19.25.946,empathy_intonation_perc_control,2024.2.4,Win32,59.88023952,647b94fa0a35e23330edcc2f,68817205a84113384fffdfe3,688240a4fa1d0320840838cc,,,,,,,,,,,,./stim/wavs/castilian_mismatch_interrogative-total-yn_Mi-tia-odia-la-lluvia.wav,1,,,626.5449,634.606,0,0,7.5392,,0,60,60,28,1,29,0,castilian,,,,,,,,,,,,,,,,,,,,,,,,,,,,,,,,,,,,,,,,,,,,,,,,,,,,,,,,
,,,,,,,,,647b94fa0a35e23330edcc2f,mexican,13 or older,click here to respond,no,2025-07-24_10h19.25.946,empathy_intonation_perc_control,2024.2.4,Win32,59.88023952,647b94fa0a35e23330edcc2f,68817205a84113384fffdfe3,688240a4fa1d0320840838cc,,,,,,,,,,,,./stim/wavs/puertorican_match_declarative-broad-focus_Manuela-vende-el-carro.wav,0,,,634.6063,644.3597,0,1,9.232,,0,61,61,66,1,67,0,puertorican,,,,,,,,,,,,,,,,,,,,,,,,,,,,,,,,,,,,,,,,,,,,,,,,,,,,,,,,
,,,,,,,,,647b94fa0a35e23330edcc2f,mexican,13 or older,click here to respond,no,2025-07-24_10h19.25.946,empathy_intonation_perc_control,2024.2.4,Win32,59.88023952,647b94fa0a35e23330edcc2f,68817205a84113384fffdfe3,688240a4fa1d0320840838cc,,,,,,,,,,,,./stim/wavs/puertorican_mismatch_interrogative-total-yn_La-nina-lava-el-plato.wav,1,,,644.36,651.6553,0,0,6.7498,,0,62,62,42,1,43,1,puertorican,,,,,,,,,,,,,,,,,,,,,,,,,,,,,,,,,,,,,,,,,,,,,,,,,,,,,,,,
,,,,,,,,,647b94fa0a35e23330edcc2f,mexican,13 or older,click here to respond,no,2025-07-24_10h19.25.946,empathy_intonation_perc_control,2024.2.4,Win32,59.88023952,647b94fa0a35e23330edcc2f,68817205a84113384fffdfe3,688240a4fa1d0320840838cc,,,,,,,,,,,,./stim/wavs/puertorican_match_interrogative-total-yn_Ana-lleva-el-abrigo.wav,1,,,651.6555,662.2924,0,0,10.1165,,0,63,63,18,1,19,1,puertorican,,,,,,,,,,,,,,,,,,,,,,,,,,,,,,,,,,,,,,,,,,,,,,,,,,,,,,,,
,,,,,,,,,647b94fa0a35e23330edcc2f,mexican,13 or older,click here to respond,no,2025-07-24_10h19.25.946,empathy_intonation_perc_control,2024.2.4,Win32,59.88023952,647b94fa0a35e23330edcc2f,68817205a84113384fffdfe3,688240a4fa1d0320840838cc,,,,,,,,,,,,./stim/wavs/castilian_mismatch_declarative-broad-focus_El-nino-oye-el-rio.wav,0,,,662.2925,669.0757,0,1,6.2661,,0,64,64,68,1,69,0,castilian,,,,,,,,,,,,,,,,,,,,,,,,,,,,,,,,,,,,,,,,,,,,,,,,,,,,,,,,
,,,,,,,,,647b94fa0a35e23330edcc2f,mexican,13 or older,click here to respond,no,2025-07-24_10h19.25.946,empathy_intonation_perc_control,2024.2.4,Win32,59.88023952,647b94fa0a35e23330edcc2f,68817205a84113384fffdfe3,688240a4fa1d0320840838cc,,,,,,,,,,,,./stim/wavs/puertorican_mismatch_declarative-broad-focus_La-maestra-vive-en-Paris.wav,0,,,669.076,675.8419,1,0,6.2332,,0,65,65,86,1,87,0,puertorican,,,,,,,,,,,,,,,,,,,,,,,,,,,,,,,,,,,,,,,,,,,,,,,,,,,,,,,,
,,,,,,,,,647b94fa0a35e23330edcc2f,mexican,13 or older,click here to respond,no,2025-07-24_10h19.25.946,empathy_intonation_perc_control,2024.2.4,Win32,59.88023952,647b94fa0a35e23330edcc2f,68817205a84113384fffdfe3,688240a4fa1d0320840838cc,,,,,,,,,,,,./stim/wavs/castilian_mismatch_declarative-broad-focus_Mi-novio-viene-del-lago.wav,0,,,675.8421,682.7203,0,1,6.332,,0,66,66,71,1,72,0,castilian,,,,,,,,,,,,,,,,,,,,,,,,,,,,,,,,,,,,,,,,,,,,,,,,,,,,,,,,
,,,,,,,,,647b94fa0a35e23330edcc2f,mexican,13 or older,click here to respond,no,2025-07-24_10h19.25.946,empathy_intonation_perc_control,2024.2.4,Win32,59.88023952,647b94fa0a35e23330edcc2f,68817205a84113384fffdfe3,688240a4fa1d0320840838cc,,,,,,,,,,,,./stim/wavs/castilian_match_interrogative-total-yn_Mariano-habla-del-tiempo.wav,1,,,682.7206,690.0913,0,0,6.8493,,0,67,67,4,1,5,0,castilian,,,,,,,,,,,,,,,,,,,,,,,,,,,,,,,,,,,,,,,,,,,,,,,,,,,,,,,,
,,,,,,,,,647b94fa0a35e23330edcc2f,mexican,13 or older,click here to respond,no,2025-07-24_10h19.25.946,empathy_intonation_perc_control,2024.2.4,Win32,59.88023952,647b94fa0a35e23330edcc2f,68817205a84113384fffdfe3,688240a4fa1d0320840838cc,,,,,,,,,,,,./stim/wavs/puertorican_mismatch_declarative-broad-focus_El-hombre-mira-la-luna.wav,0,,,690.0915,698.6576,0,1,8.0176,,0,68,68,84,1,85,0,puertorican,,,,,,,,,,,,,,,,,,,,,,,,,,,,,,,,,,,,,,,,,,,,,,,,,,,,,,,,
,,,,,,,,,647b94fa0a35e23330edcc2f,mexican,13 or older,click here to respond,no,2025-07-24_10h19.25.946,empathy_intonation_perc_control,2024.2.4,Win32,59.88023952,647b94fa0a35e23330edcc2f,68817205a84113384fffdfe3,688240a4fa1d0320840838cc,,,,,,,,,,,,./stim/wavs/cuban_mismatch_declarative-broad-focus_El-hombre-mira-la-luna.wav,0,,,698.6579,707.5075,1,0,8.3165,,0,69,69,74,1,75,0,cuban,,,,,,,,,,,,,,,,,,,,,,,,,,,,,,,,,,,,,,,,,,,,,,,,,,,,,,,,
,,,,,,,,,647b94fa0a35e23330edcc2f,mexican,13 or older,click here to respond,no,2025-07-24_10h19.25.946,empathy_intonation_perc_control,2024.2.4,Win32,59.88023952,647b94fa0a35e23330edcc2f,68817205a84113384fffdfe3,688240a4fa1d0320840838cc,,,,,,,,,,,,./stim/wavs/puertorican_match_declarative-broad-focus_Emilio-ama-la-marcha.wav,0,,,707.5078,718.5734,1,0,10.5326,,0,70,70,65,1,66,0,puertorican,,,,,,,,,,,,,,,,,,,,,,,,,,,,,,,,,,,,,,,,,,,,,,,,,,,,,,,,
,,,,,,,,,647b94fa0a35e23330edcc2f,mexican,13 or older,click here to respond,no,2025-07-24_10h19.25.946,empathy_intonation_perc_control,2024.2.4,Win32,59.88023952,647b94fa0a35e23330edcc2f,68817205a84113384fffdfe3,688240a4fa1d0320840838cc,,,,,,,,,,,,./stim/wavs/puertorican_match_interrogative-total-yn_Emilio-ama-la-marcha.wav,1,,,718.5738,723.4565,1,1,4.3491,,0,71,71,21,1,22,1,puertorican,,,,,,,,,,,,,,,,,,,,,,,,,,,,,,,,,,,,,,,,,,,,,,,,,,,,,,,,
,,,,,,,,,647b94fa0a35e23330edcc2f,mexican,13 or older,click here to respond,no,2025-07-24_10h19.25.946,empathy_intonation_perc_control,2024.2.4,Win32,59.88023952,647b94fa0a35e23330edcc2f,68817205a84113384fffdfe3,688240a4fa1d0320840838cc,,,,,,,,,,,,./stim/wavs/castilian_mismatch_declarative-broad-focus_Mi-tia-odia-la-lluvia.wav,0,,,723.4568,730.0815,0,1,6.1078,,0,72,72,72,1,73,0,castilian,,,,,,,,,,,,,,,,,,,,,,,,,,,,,,,,,,,,,,,,,,,,,,,,,,,,,,,,
,,,,,,,,,647b94fa0a35e23330edcc2f,mexican,13 or older,click here to respond,no,2025-07-24_10h19.25.946,empathy_intonation_perc_control,2024.2.4,Win32,59.88023952,647b94fa0a35e23330edcc2f,68817205a84113384fffdfe3,688240a4fa1d0320840838cc,,,,,,,,,,,,./stim/wavs/cuban_match_interrogative-total-yn_Maria-bebe-el-vino.wav,1,,,730.0818,741.2225,1,1,10.6039,,0,73,73,9,1,10,1,cuban,,,,,,,,,,,,,,,,,,,,,,,,,,,,,,,,,,,,,,,,,,,,,,,,,,,,,,,,
,,,,,,,,,647b94fa0a35e23330edcc2f,mexican,13 or older,click here to respond,no,2025-07-24_10h19.25.946,empathy_intonation_perc_control,2024.2.4,Win32,59.88023952,647b94fa0a35e23330edcc2f,68817205a84113384fffdfe3,688240a4fa1d0320840838cc,,,,,,,,,,,,./stim/wavs/mexican_match_declarative-broad-focus_Mariano-habla-del-tiempo.wav,0,,,741.2228,749.5219,1,0,7.7826,,0,74,74,60,1,61,0,mexican,,,,,,,,,,,,,,,,,,,,,,,,,,,,,,,,,,,,,,,,,,,,,,,,,,,,,,,,
,,,,,,,,,647b94fa0a35e23330edcc2f,mexican,13 or older,click here to respond,no,2025-07-24_10h19.25.946,empathy_intonation_perc_control,2024.2.4,Win32,59.88023952,647b94fa0a35e23330edcc2f,68817205a84113384fffdfe3,688240a4fa1d0320840838cc,,,,,,,,,,,,./stim/wavs/mexican_mismatch_declarative-broad-focus_La-maestra-vive-en-Paris.wav,0,,,749.5223,755.0558,1,0,4.9999,,0,75,75,80,1,81,0,mexican,,,,,,,,,,,,,,,,,,,,,,,,,,,,,,,,,,,,,,,,,,,,,,,,,,,,,,,,
,,,,,,,,,647b94fa0a35e23330edcc2f,mexican,13 or older,click here to respond,no,2025-07-24_10h19.25.946,empathy_intonation_perc_control,2024.2.4,Win32,59.88023952,647b94fa0a35e23330edcc2f,68817205a84113384fffdfe3,688240a4fa1d0320840838cc,,,,,,,,,,,,./stim/wavs/castilian_mismatch_interrogative-total-yn_La-nina-lava-el-plato.wav,1,,,755.0561,762.3881,0,0,6.7996,,0,76,76,25,1,26,0,castilian,,,,,,,,,,,,,,,,,,,,,,,,,,,,,,,,,,,,,,,,,,,,,,,,,,,,,,,,
,,,,,,,,,647b94fa0a35e23330edcc2f,mexican,13 or older,click here to respond,no,2025-07-24_10h19.25.946,empathy_intonation_perc_control,2024.2.4,Win32,59.88023952,647b94fa0a35e23330edcc2f,68817205a84113384fffdfe3,688240a4fa1d0320840838cc,,,,,,,,,,,,./stim/wavs/mexican_match_interrogative-total-yn_Ana-lleva-el-abrigo.wav,1,,,762.3884,770.2673,1,1,7.3335,,0,77,77,12,1,13,0,mexican,,,,,,,,,,,,,,,,,,,,,,,,,,,,,,,,,,,,,,,,,,,,,,,,,,,,,,,,
,,,,,,,,,647b94fa0a35e23330edcc2f,mexican,13 or older,click here to respond,no,2025-07-24_10h19.25.946,empathy_intonation_perc_control,2024.2.4,Win32,59.88023952,647b94fa0a35e23330edcc2f,68817205a84113384fffdfe3,688240a4fa1d0320840838cc,,,,,,,,,,,,./stim/wavs/castilian_match_interrogative-total-yn_Emilio-ama-la-marcha.wav,1,,,770.2681,777.0554,0,0,6.2527,,0,78,78,1,1,2,0,castilian,,,,,,,,,,,,,,,,,,,,,,,,,,,,,,,,,,,,,,,,,,,,,,,,,,,,,,,,
,,,,,,,,,647b94fa0a35e23330edcc2f,mexican,13 or older,click here to respond,no,2025-07-24_10h19.25.946,empathy_intonation_perc_control,2024.2.4,Win32,59.88023952,647b94fa0a35e23330edcc2f,68817205a84113384fffdfe3,688240a4fa1d0320840838cc,,,,,,,,,,,,./stim/wavs/castilian_match_declarative-broad-focus_Maria-bebe-el-vino.wav,0,,,777.0557,786.1373,1,0,8.5497,,0,79,79,47,1,48,0,castilian,,,,,,,,,,,,,,,,,,,,,,,,,,,,,,,,,,,,,,,,,,,,,,,,,,,,,,,,
,,,,,,,,,647b94fa0a35e23330edcc2f,mexican,13 or older,click here to respond,no,2025-07-24_10h19.25.946,empathy_intonation_perc_control,2024.2.4,Win32,59.88023952,647b94fa0a35e23330edcc2f,68817205a84113384fffdfe3,688240a4fa1d0320840838cc,,,,,,,,,,,,./stim/wavs/mexican_mismatch_declarative-broad-focus_El-hombre-mira-la-luna.wav,0,,,786.1375,791.9036,1,0,5.2329,,0,80,80,79,1,80,0,mexican,,,,,,,,,,,,,,,,,,,,,,,,,,,,,,,,,,,,,,,,,,,,,,,,,,,,,,,,
,,,,,,,,,647b94fa0a35e23330edcc2f,mexican,13 or older,click here to respond,no,2025-07-24_10h19.25.946,empathy_intonation_perc_control,2024.2.4,Win32,59.88023952,647b94fa0a35e23330edcc2f,68817205a84113384fffdfe3,688240a4fa1d0320840838cc,,,,,,,,,,,,./stim/wavs/mexican_match_declarative-broad-focus_David-leia-el-libro.wav,0,,,791.9038,799.287,0,1,6.8498,,0,81,81,58,1,59,0,mexican,,,,,,,,,,,,,,,,,,,,,,,,,,,,,,,,,,,,,,,,,,,,,,,,,,,,,,,,
,,,,,,,,,647b94fa0a35e23330edcc2f,mexican,13 or older,click here to respond,no,2025-07-24_10h19.25.946,empathy_intonation_perc_control,2024.2.4,Win32,59.88023952,647b94fa0a35e23330edcc2f,68817205a84113384fffdfe3,688240a4fa1d0320840838cc,,,,,,,,,,,,./stim/wavs/cuban_mismatch_interrogative-total-yn_El-hombre-mira-la-luna.wav,1,,,799.2872,806.9039,1,1,7.0838,,0,82,82,29,1,30,1,cuban,,,,,,,,,,,,,,,,,,,,,,,,,,,,,,,,,,,,,,,,,,,,,,,,,,,,,,,,
,,,,,,,,,647b94fa0a35e23330edcc2f,mexican,13 or older,click here to respond,no,2025-07-24_10h19.25.946,empathy_intonation_perc_control,2024.2.4,Win32,59.88023952,647b94fa0a35e23330edcc2f,68817205a84113384fffdfe3,688240a4fa1d0320840838cc,,,,,,,,,,,,./stim/wavs/castilian_mismatch_declarative-broad-focus_La-maestra-vive-en-Paris.wav,0,,,806.9041,812.2749,1,0,4.8387,,0,83,83,69,1,70,0,castilian,,,,,,,,,,,,,,,,,,,,,,,,,,,,,,,,,,,,,,,,,,,,,,,,,,,,,,,,
,,,,,,,,,647b94fa0a35e23330edcc2f,mexican,13 or older,click here to respond,no,2025-07-24_10h19.25.946,empathy_intonation_perc_control,2024.2.4,Win32,59.88023952,647b94fa0a35e23330edcc2f,68817205a84113384fffdfe3,688240a4fa1d0320840838cc,,,,,,,,,,,,./stim/wavs/mexican_match_interrogative-total-yn_Mariano-habla-del-tiempo.wav,1,,,812.2752,820.6026,0,0,7.7998,,0,84,84,16,1,17,0,mexican,,,,,,,,,,,,,,,,,,,,,,,,,,,,,,,,,,,,,,,,,,,,,,,,,,,,,,,,
,,,,,,,,,647b94fa0a35e23330edcc2f,mexican,13 or older,click here to respond,no,2025-07-24_10h19.25.946,empathy_intonation_perc_control,2024.2.4,Win32,59.88023952,647b94fa0a35e23330edcc2f,68817205a84113384fffdfe3,688240a4fa1d0320840838cc,,,,,,,,,,,,./stim/wavs/mexican_match_declarative-broad-focus_Marta-abre-el-regalo.wav,0,,,820.6028,826.448,1,0,5.3175,,0,85,85,61,1,62,0,mexican,,,,,,,,,,,,,,,,,,,,,,,,,,,,,,,,,,,,,,,,,,,,,,,,,,,,,,,,
,,,,,,,,,647b94fa0a35e23330edcc2f,mexican,13 or older,click here to respond,no,2025-07-24_10h19.25.946,empathy_intonation_perc_control,2024.2.4,Win32,59.88023952,647b94fa0a35e23330edcc2f,68817205a84113384fffdfe3,688240a4fa1d0320840838cc,,,,,,,,,,,,./stim/wavs/cuban_mismatch_declarative-broad-focus_El-bebe-comia-muy-bien.wav,0,,,826.4482,835.0361,1,0,8.0673,,0,86,86,73,1,74,0,cuban,,,,,,,,,,,,,,,,,,,,,,,,,,,,,,,,,,,,,,,,,,,,,,,,,,,,,,,,
,,,,,,,,,647b94fa0a35e23330edcc2f,mexican,13 or older,click here to respond,no,2025-07-24_10h19.25.946,empathy_intonation_perc_control,2024.2.4,Win32,59.88023952,647b94fa0a35e23330edcc2f,68817205a84113384fffdfe3,688240a4fa1d0320840838cc,,,,,,,,,,,,./stim/wavs/cuban_mismatch_interrogative-total-yn_Mi-novio-viene-del-lago.wav,1,,,835.0364,840.6684,0,0,5.0998,,0,87,87,32,1,33,1,cuban,,,,,,,,,,,,,,,,,,,,,,,,,,,,,,,,,,,,,,,,,,,,,,,,,,,,,,,,
,,,,,,,"Great! Now we will move on. The next task consists of about 60 trials, in each of which you will see a string of letters. 
  
  Your task is to decide whether this is a real Spanish word or not.", (press the spacebar to continue),647b94fa0a35e23330edcc2f,mexican,13 or older,click here to respond,no,2025-07-24_10h19.25.946,empathy_intonation_perc_control,2024.2.4,Win32,59.88023952,647b94fa0a35e23330edcc2f,68817205a84113384fffdfe3,688240a4fa1d0320840838cc,,,,,,,,,,,,,,,,,,,,,,,,,,,,,,840.6732,855.8683,0,0,0,0,1,,,,,,,,,,,,,,,,,,,,,,,,,,,,,,,,,,,,,,,,,,,,,,,,,
,,,,,,,"If you think it is an existing Spanish word, you type '1' (for 'REAL'), and if you think it is not an existing Spanish word, you type '0' (for 'FAKE').", (press the spacebar to continue),647b94fa0a35e23330edcc2f,mexican,13 or older,click here to respond,no,2025-07-24_10h19.25.946,empathy_intonation_perc_control,2024.2.4,Win32,59.88023952,647b94fa0a35e23330edcc2f,68817205a84113384fffdfe3,688240a4fa1d0320840838cc,,,,,,,,,,,,,,,,,,,,,,,,,,,,,,855.8695,858.6509,0,1,1,1,1,,,,,,,,,,,,,,,,,,,,,,,,,,,,,,,,,,,,,,,,,,,,,,,,,
,,,,,,,"If you are sure that the word exists, even though you don’t know its exact meaning, you may still respond '1' (REAL). 
  
  But if you are not sure if it is an existing word, you should respond '0' (FAKE).
  
  Let's do a practice round...", (press the spacebar to continue),647b94fa0a35e23330edcc2f,mexican,13 or older,click here to respond,no,2025-07-24_10h19.25.946,empathy_intonation_perc_control,2024.2.4,Win32,59.88023952,647b94fa0a35e23330edcc2f,68817205a84113384fffdfe3,688240a4fa1d0320840838cc,,,,,,,,,,,,,,,,,,,,,,,,,,,,,,858.6517,863.0009,0,2,2,2,1,,,,,,,,,,,,,,,,,,,,,,,,,,,,,,,,,,,,,,,,,,,,,,,,,
,,,,,,,,,647b94fa0a35e23330edcc2f,mexican,13 or older,click here to respond,no,2025-07-24_10h19.25.946,empathy_intonation_perc_control,2024.2.4,Win32,59.88023952,647b94fa0a35e23330edcc2f,68817205a84113384fffdfe3,688240a4fa1d0320840838cc,,,,,,,,,,,,,0,,,,,,,,,,,,,,,,,,,,,,,,863.0034,865.701,1,0,2.1493,,865.7011,866.6964,0,0,0,0,1,0,depiste,REAL,FAKE,,,,,,,,,,,,,,,,,,,,,,,,,,,,,,,,
,,,,,,,,,647b94fa0a35e23330edcc2f,mexican,13 or older,click here to respond,no,2025-07-24_10h19.25.946,empathy_intonation_perc_control,2024.2.4,Win32,59.88023952,647b94fa0a35e23330edcc2f,68817205a84113384fffdfe3,688240a4fa1d0320840838cc,,,,,,,,,,,,,1,,,,,,,,,,,,,,,,,,,,,,,,866.6973,868.5182,1,1,1.2838,,868.5189,869.5182,0,1,1,1,1,0,sí,REAL,FAKE,,,,,,,,,,,,,,,,,,,,,,,,,,,,,,,,
,,,,,,,,,647b94fa0a35e23330edcc2f,mexican,13 or older,click here to respond,no,2025-07-24_10h19.25.946,empathy_intonation_perc_control,2024.2.4,Win32,59.88023952,647b94fa0a35e23330edcc2f,68817205a84113384fffdfe3,688240a4fa1d0320840838cc,,,,,,,,,,,,,0,,,,,,,,,,,,,,,,,,,,,,,,869.5187,871.7126,0,1,1.639,,871.7126,872.7001,0,2,2,2,1,0,coné,REAL,FAKE,,,,,,,,,,,,,,,,,,,,,,,,,,,,,,,,
,,,,,,,,,647b94fa0a35e23330edcc2f,mexican,13 or older,click here to respond,no,2025-07-24_10h19.25.946,empathy_intonation_perc_control,2024.2.4,Win32,59.88023952,647b94fa0a35e23330edcc2f,68817205a84113384fffdfe3,688240a4fa1d0320840838cc,,,,,,,,,,,,,0,,,,,,,,,,,,,,,,,,,,,,,,872.7005,874.234,1,0,0.9977,,874.2343,875.2335,0,3,3,3,1,0,calpar,REAL,FAKE,,,,,,,,,,,,,,,,,,,,,,,,,,,,,,,,
,,,,,,,,,647b94fa0a35e23330edcc2f,mexican,13 or older,click here to respond,no,2025-07-24_10h19.25.946,empathy_intonation_perc_control,2024.2.4,Win32,59.88023952,647b94fa0a35e23330edcc2f,68817205a84113384fffdfe3,688240a4fa1d0320840838cc,,,,,,,,,,,,,0,,,,,,,,,,,,,,,,,,,,,,,,875.234,876.7335,1,0,0.9496,,876.7336,877.7401,0,4,4,4,1,0,joten,REAL,FAKE,,,,,,,,,,,,,,,,,,,,,,,,,,,,,,,,
,,,,,,,,,647b94fa0a35e23330edcc2f,mexican,13 or older,click here to respond,no,2025-07-24_10h19.25.946,empathy_intonation_perc_control,2024.2.4,Win32,59.88023952,647b94fa0a35e23330edcc2f,68817205a84113384fffdfe3,688240a4fa1d0320840838cc,,,,,,,,,,,,,1,,,,,,,,,,,,,,,,,,,,,,,,877.7405,880.0677,0,0,1.7832,,880.0677,881.0665,0,5,5,5,1,0,sacapuntas,REAL,FAKE,,,,,,,,,,,,,,,,,,,,,,,,,,,,,,,,
,,,,,,,,,647b94fa0a35e23330edcc2f,mexican,13 or older,click here to respond,no,2025-07-24_10h19.25.946,empathy_intonation_perc_control,2024.2.4,Win32,59.88023952,647b94fa0a35e23330edcc2f,68817205a84113384fffdfe3,688240a4fa1d0320840838cc,,,,,,,,,,,,,0,,,,,,,,,,,,,,,,,,,,,,,,881.0672,883.0936,1,0,1.4932,,883.0937,884.0831,0,6,6,6,1,0,priba,REAL,FAKE,,,,,,,,,,,,,,,,,,,,,,,,,,,,,,,,
,,,,,,,,,647b94fa0a35e23330edcc2f,mexican,13 or older,click here to respond,no,2025-07-24_10h19.25.946,empathy_intonation_perc_control,2024.2.4,Win32,59.88023952,647b94fa0a35e23330edcc2f,68817205a84113384fffdfe3,688240a4fa1d0320840838cc,,,,,,,,,,,,,0,,,,,,,,,,,,,,,,,,,,,,,,884.0834,885.9003,1,0,1.2663,,885.9004,886.9003,0,7,7,7,1,0,pelasula,REAL,FAKE,,,,,,,,,,,,,,,,,,,,,,,,,,,,,,,,
,,,,,,,,,647b94fa0a35e23330edcc2f,mexican,13 or older,click here to respond,no,2025-07-24_10h19.25.946,empathy_intonation_perc_control,2024.2.4,Win32,59.88023952,647b94fa0a35e23330edcc2f,68817205a84113384fffdfe3,688240a4fa1d0320840838cc,,,,,,,,,,,,,1,,,,,,,,,,,,,,,,,,,,,,,,886.9008,888.6998,1,1,1.2497,,888.7,889.6994,0,8,8,8,1,0,bien,REAL,FAKE,,,,,,,,,,,,,,,,,,,,,,,,,,,,,,,,
,,,,,,,,,647b94fa0a35e23330edcc2f,mexican,13 or older,click here to respond,no,2025-07-24_10h19.25.946,empathy_intonation_perc_control,2024.2.4,Win32,59.88023952,647b94fa0a35e23330edcc2f,68817205a84113384fffdfe3,688240a4fa1d0320840838cc,,,,,,,,,,,,,1,,,,,,,,,,,,,,,,,,,,,,,,889.6998,891.0996,1,1,0.8347,,891.0996,892.0994,0,9,9,9,1,0,casa,REAL,FAKE,,,,,,,,,,,,,,,,,,,,,,,,,,,,,,,,
,,,,,,,,,647b94fa0a35e23330edcc2f,mexican,13 or older,click here to respond,no,2025-07-24_10h19.25.946,empathy_intonation_perc_control,2024.2.4,Win32,59.88023952,647b94fa0a35e23330edcc2f,68817205a84113384fffdfe3,688240a4fa1d0320840838cc,,,,,,,,,,,,,0,,,,,,,,,,,,,,,,,,,,,,,,892.0998,893.8669,0,1,1.2502,,893.8669,894.8668,0,10,10,10,1,0,lejo,REAL,FAKE,,,,,,,,,,,,,,,,,,,,,,,,,,,,,,,,
,,,,,,,,,647b94fa0a35e23330edcc2f,mexican,13 or older,click here to respond,no,2025-07-24_10h19.25.946,empathy_intonation_perc_control,2024.2.4,Win32,59.88023952,647b94fa0a35e23330edcc2f,68817205a84113384fffdfe3,688240a4fa1d0320840838cc,,,,,,,,,,,,,0,,,,,,,,,,,,,,,,,,,,,,,,894.8673,897.8831,1,0,2.4663,,897.8834,898.8833,0,11,11,11,1,0,pretantas,REAL,FAKE,,,,,,,,,,,,,,,,,,,,,,,,,,,,,,,,
,,,,,,,,,647b94fa0a35e23330edcc2f,mexican,13 or older,click here to respond,no,2025-07-24_10h19.25.946,empathy_intonation_perc_control,2024.2.4,Win32,59.88023952,647b94fa0a35e23330edcc2f,68817205a84113384fffdfe3,688240a4fa1d0320840838cc,,,,,,,,,,,,,,,,,,,,,,,,,,,,,,,,,,,,,,,,,,,,,,,,,,,,,,898.8835,900.066,,,,,,,,,,,,,,,,,,,,,,,,,,,,,,
,,,,,,,,,647b94fa0a35e23330edcc2f,mexican,13 or older,click here to respond,no,2025-07-24_10h19.25.946,empathy_intonation_perc_control,2024.2.4,Win32,59.88023952,647b94fa0a35e23330edcc2f,68817205a84113384fffdfe3,688240a4fa1d0320840838cc,,,,,,,,,,,,,1,,,,,,,,,,,,,,,,,,,,,,,,,,,,,,,,,,,,,7,pésimo,,,,,900.0702,902.1664,1,1,1.5663,,0,0,0,6,1,REAL,FAKE,,,,,,,,,,,,,,,,,
,,,,,,,,,647b94fa0a35e23330edcc2f,mexican,13 or older,click here to respond,no,2025-07-24_10h19.25.946,empathy_intonation_perc_control,2024.2.4,Win32,59.88023952,647b94fa0a35e23330edcc2f,68817205a84113384fffdfe3,688240a4fa1d0320840838cc,,,,,,,,,,,,,1,,,,,,,,,,,,,,,,,,,,,,,,,,,,,,,,,,,,,51,candado,,,,,902.1669,903.8658,0,0,1.166,,0,1,1,50,1,REAL,FAKE,,,,,,,,,,,,,,,,,
,,,,,,,,,647b94fa0a35e23330edcc2f,mexican,13 or older,click here to respond,no,2025-07-24_10h19.25.946,empathy_intonation_perc_control,2024.2.4,Win32,59.88023952,647b94fa0a35e23330edcc2f,68817205a84113384fffdfe3,688240a4fa1d0320840838cc,,,,,,,,,,,,,1,,,,,,,,,,,,,,,,,,,,,,,,,,,,,,,,,,,,,83,guante,,,,,903.8664,907.5827,0,0,3.1662,,0,2,2,82,1,REAL,FAKE,,,,,,,,,,,,,,,,,
,,,,,,,,,647b94fa0a35e23330edcc2f,mexican,13 or older,click here to respond,no,2025-07-24_10h19.25.946,empathy_intonation_perc_control,2024.2.4,Win32,59.88023952,647b94fa0a35e23330edcc2f,68817205a84113384fffdfe3,688240a4fa1d0320840838cc,,,,,,,,,,,,,0,,,,,,,,,,,,,,,,,,,,,,,,,,,,,,,,,,,,,84,escuto,,,,,907.5832,909.3166,0,1,1.2005,,0,3,3,83,1,REAL,FAKE,,,,,,,,,,,,,,,,,
,,,,,,,,,647b94fa0a35e23330edcc2f,mexican,13 or older,click here to respond,no,2025-07-24_10h19.25.946,empathy_intonation_perc_control,2024.2.4,Win32,59.88023952,647b94fa0a35e23330edcc2f,68817205a84113384fffdfe3,688240a4fa1d0320840838cc,,,,,,,,,,,,,1,,,,,,,,,,,,,,,,,,,,,,,,,,,,,,,,,,,,,55,nevar,,,,,909.3172,910.6987,1,1,0.8294,,0,4,4,54,1,REAL,FAKE,,,,,,,,,,,,,,,,,
,,,,,,,,,647b94fa0a35e23330edcc2f,mexican,13 or older,click here to respond,no,2025-07-24_10h19.25.946,empathy_intonation_perc_control,2024.2.4,Win32,59.88023952,647b94fa0a35e23330edcc2f,68817205a84113384fffdfe3,688240a4fa1d0320840838cc,,,,,,,,,,,,,0,,,,,,,,,,,,,,,,,,,,,,,,,,,,,,,,,,,,,87,grodo,,,,,910.6991,914.6657,0,1,3.4163,,0,5,5,86,1,REAL,FAKE,,,,,,,,,,,,,,,,,
,,,,,,,,,647b94fa0a35e23330edcc2f,mexican,13 or older,click here to respond,no,2025-07-24_10h19.25.946,empathy_intonation_perc_control,2024.2.4,Win32,59.88023952,647b94fa0a35e23330edcc2f,68817205a84113384fffdfe3,688240a4fa1d0320840838cc,,,,,,,,,,,,,0,,,,,,,,,,,,,,,,,,,,,,,,,,,,,,,,,,,,,35,rompido,,,,,914.6661,916.4322,0,1,1.1997,,0,6,6,34,1,REAL,FAKE,,,,,,,,,,,,,,,,,
,,,,,,,,,647b94fa0a35e23330edcc2f,mexican,13 or older,click here to respond,no,2025-07-24_10h19.25.946,empathy_intonation_perc_control,2024.2.4,Win32,59.88023952,647b94fa0a35e23330edcc2f,68817205a84113384fffdfe3,688240a4fa1d0320840838cc,,,,,,,,,,,,,1,,,,,,,,,,,,,,,,,,,,,,,,,,,,,,,,,,,,,36,loro,,,,,916.4326,918.1495,1,1,1.1647,,0,7,7,35,1,REAL,FAKE,,,,,,,,,,,,,,,,,
,,,,,,,,,647b94fa0a35e23330edcc2f,mexican,13 or older,click here to respond,no,2025-07-24_10h19.25.946,empathy_intonation_perc_control,2024.2.4,Win32,59.88023952,647b94fa0a35e23330edcc2f,68817205a84113384fffdfe3,688240a4fa1d0320840838cc,,,,,,,,,,,,,1,,,,,,,,,,,,,,,,,,,,,,,,,,,,,,,,,,,,,65,bizcocho,,,,,918.1501,919.9608,0,0,1.2722,,0,8,8,64,1,REAL,FAKE,,,,,,,,,,,,,,,,,
,,,,,,,,,647b94fa0a35e23330edcc2f,mexican,13 or older,click here to respond,no,2025-07-24_10h19.25.946,empathy_intonation_perc_control,2024.2.4,Win32,59.88023952,647b94fa0a35e23330edcc2f,68817205a84113384fffdfe3,688240a4fa1d0320840838cc,,,,,,,,,,,,,1,,,,,,,,,,,,,,,,,,,,,,,,,,,,,,,,,,,,,45,jilguero,,,,,919.9614,921.9521,1,1,1.4533,,0,9,9,44,1,REAL,FAKE,,,,,,,,,,,,,,,,,
,,,,,,,,,647b94fa0a35e23330edcc2f,mexican,13 or older,click here to respond,no,2025-07-24_10h19.25.946,empathy_intonation_perc_control,2024.2.4,Win32,59.88023952,647b94fa0a35e23330edcc2f,68817205a84113384fffdfe3,688240a4fa1d0320840838cc,,,,,,,,,,,,,1,,,,,,,,,,,,,,,,,,,,,,,,,,,,,,,,,,,,,38,estornudar,,,,,921.9526,924.3126,1,1,1.7971,,0,10,10,37,1,REAL,FAKE,,,,,,,,,,,,,,,,,
,,,,,,,,,647b94fa0a35e23330edcc2f,mexican,13 or older,click here to respond,no,2025-07-24_10h19.25.946,empathy_intonation_perc_control,2024.2.4,Win32,59.88023952,647b94fa0a35e23330edcc2f,68817205a84113384fffdfe3,688240a4fa1d0320840838cc,,,,,,,,,,,,,1,,,,,,,,,,,,,,,,,,,,,,,,,,,,,,,,,,,,,28,merodear,,,,,924.313,926.4648,1,1,1.6159,,0,11,11,27,1,REAL,FAKE,,,,,,,,,,,,,,,,,
,,,,,,,,,647b94fa0a35e23330edcc2f,mexican,13 or older,click here to respond,no,2025-07-24_10h19.25.946,empathy_intonation_perc_control,2024.2.4,Win32,59.88023952,647b94fa0a35e23330edcc2f,68817205a84113384fffdfe3,688240a4fa1d0320840838cc,,,,,,,,,,,,,1,,,,,,,,,,,,,,,,,,,,,,,,,,,,,,,,,,,,,80,hormiga,,,,,926.4651,928.0602,0,0,1.0207,,0,12,12,79,1,REAL,FAKE,,,,,,,,,,,,,,,,,
,,,,,,,,,647b94fa0a35e23330edcc2f,mexican,13 or older,click here to respond,no,2025-07-24_10h19.25.946,empathy_intonation_perc_control,2024.2.4,Win32,59.88023952,647b94fa0a35e23330edcc2f,68817205a84113384fffdfe3,688240a4fa1d0320840838cc,,,,,,,,,,,,,0,,,,,,,,,,,,,,,,,,,,,,,,,,,,,,,,,,,,,42,cadallo,,,,,928.0607,931.1813,0,1,2.5947,,0,13,13,41,1,REAL,FAKE,,,,,,,,,,,,,,,,,
,,,,,,,,,647b94fa0a35e23330edcc2f,mexican,13 or older,click here to respond,no,2025-07-24_10h19.25.946,empathy_intonation_perc_control,2024.2.4,Win32,59.88023952,647b94fa0a35e23330edcc2f,68817205a84113384fffdfe3,688240a4fa1d0320840838cc,,,,,,,,,,,,,0,,,,,,,,,,,,,,,,,,,,,,,,,,,,,,,,,,,,,32,fatacidad,,,,,931.1819,934.2978,0,1,2.5492,,0,14,14,31,1,REAL,FAKE,,,,,,,,,,,,,,,,,
,,,,,,,,,647b94fa0a35e23330edcc2f,mexican,13 or older,click here to respond,no,2025-07-24_10h19.25.946,empathy_intonation_perc_control,2024.2.4,Win32,59.88023952,647b94fa0a35e23330edcc2f,68817205a84113384fffdfe3,688240a4fa1d0320840838cc,,,,,,,,,,,,,1,,,,,,,,,,,,,,,,,,,,,,,,,,,,,,,,,,,,,88,acantilado,,,,,934.2983,936.0978,0,0,1.2495,,0,15,15,87,1,REAL,FAKE,,,,,,,,,,,,,,,,,
,,,,,,,,,647b94fa0a35e23330edcc2f,mexican,13 or older,click here to respond,no,2025-07-24_10h19.25.946,empathy_intonation_perc_control,2024.2.4,Win32,59.88023952,647b94fa0a35e23330edcc2f,68817205a84113384fffdfe3,688240a4fa1d0320840838cc,,,,,,,,,,,,,1,,,,,,,,,,,,,,,,,,,,,,,,,,,,,,,,,,,,,61,seda,,,,,936.0982,937.4144,1,1,0.7828,,0,16,16,60,1,REAL,FAKE,,,,,,,,,,,,,,,,,
,,,,,,,,,647b94fa0a35e23330edcc2f,mexican,13 or older,click here to respond,no,2025-07-24_10h19.25.946,empathy_intonation_perc_control,2024.2.4,Win32,59.88023952,647b94fa0a35e23330edcc2f,68817205a84113384fffdfe3,688240a4fa1d0320840838cc,,,,,,,,,,,,,0,,,,,,,,,,,,,,,,,,,,,,,,,,,,,,,,,,,,,10,antar,,,,,937.4147,939.7764,1,0,1.816,,0,17,17,9,1,REAL,FAKE,,,,,,,,,,,,,,,,,
,,,,,,,,,647b94fa0a35e23330edcc2f,mexican,13 or older,click here to respond,no,2025-07-24_10h19.25.946,empathy_intonation_perc_control,2024.2.4,Win32,59.88023952,647b94fa0a35e23330edcc2f,68817205a84113384fffdfe3,688240a4fa1d0320840838cc,,,,,,,,,,,,,1,,,,,,,,,,,,,,,,,,,,,,,,,,,,,,,,,,,,,25,bisagra,,,,,939.7769,942.8141,0,0,2.4829,,0,18,18,24,1,REAL,FAKE,,,,,,,,,,,,,,,,,
,,,,,,,,,647b94fa0a35e23330edcc2f,mexican,13 or older,click here to respond,no,2025-07-24_10h19.25.946,empathy_intonation_perc_control,2024.2.4,Win32,59.88023952,647b94fa0a35e23330edcc2f,68817205a84113384fffdfe3,688240a4fa1d0320840838cc,,,,,,,,,,,,,0,,,,,,,,,,,,,,,,,,,,,,,,,,,,,,,,,,,,,58,plaudir,,,,,942.8145,944.3806,1,0,1.0158,,0,19,19,57,1,REAL,FAKE,,,,,,,,,,,,,,,,,
,,,,,,,,,647b94fa0a35e23330edcc2f,mexican,13 or older,click here to respond,no,2025-07-24_10h19.25.946,empathy_intonation_perc_control,2024.2.4,Win32,59.88023952,647b94fa0a35e23330edcc2f,68817205a84113384fffdfe3,688240a4fa1d0320840838cc,,,,,,,,,,,,,0,,,,,,,,,,,,,,,,,,,,,,,,,,,,,,,,,,,,,70,temblo,,,,,944.3812,945.9138,1,0,0.9994,,0,20,20,69,1,REAL,FAKE,,,,,,,,,,,,,,,,,
,,,,,,,,,647b94fa0a35e23330edcc2f,mexican,13 or older,click here to respond,no,2025-07-24_10h19.25.946,empathy_intonation_perc_control,2024.2.4,Win32,59.88023952,647b94fa0a35e23330edcc2f,68817205a84113384fffdfe3,688240a4fa1d0320840838cc,,,,,,,,,,,,,1,,,,,,,,,,,,,,,,,,,,,,,,,,,,,,,,,,,,,12,asesinato,,,,,945.9143,947.2159,1,1,0.7679,,0,21,21,11,1,REAL,FAKE,,,,,,,,,,,,,,,,,
,,,,,,,,,647b94fa0a35e23330edcc2f,mexican,13 or older,click here to respond,no,2025-07-24_10h19.25.946,empathy_intonation_perc_control,2024.2.4,Win32,59.88023952,647b94fa0a35e23330edcc2f,68817205a84113384fffdfe3,688240a4fa1d0320840838cc,,,,,,,,,,,,,1,,,,,,,,,,,,,,,,,,,,,,,,,,,,,,,,,,,,,43,canela,,,,,947.2163,949.0761,0,0,1.3104,,0,22,22,42,1,REAL,FAKE,,,,,,,,,,,,,,,,,
,,,,,,,,,647b94fa0a35e23330edcc2f,mexican,13 or older,click here to respond,no,2025-07-24_10h19.25.946,empathy_intonation_perc_control,2024.2.4,Win32,59.88023952,647b94fa0a35e23330edcc2f,68817205a84113384fffdfe3,688240a4fa1d0320840838cc,,,,,,,,,,,,,1,,,,,,,,,,,,,,,,,,,,,,,,,,,,,,,,,,,,,41,rebuscar,,,,,949.0766,952.1304,0,0,2.4995,,0,23,23,40,1,REAL,FAKE,,,,,,,,,,,,,,,,,
,,,,,,,,,647b94fa0a35e23330edcc2f,mexican,13 or older,click here to respond,no,2025-07-24_10h19.25.946,empathy_intonation_perc_control,2024.2.4,Win32,59.88023952,647b94fa0a35e23330edcc2f,68817205a84113384fffdfe3,688240a4fa1d0320840838cc,,,,,,,,,,,,,1,,,,,,,,,,,,,,,,,,,,,,,,,,,,,,,,,,,,,26,secuestro,,,,,952.1308,953.8469,1,1,1.1829,,0,24,24,25,1,REAL,FAKE,,,,,,,,,,,,,,,,,
,,,,,,,,,647b94fa0a35e23330edcc2f,mexican,13 or older,click here to respond,no,2025-07-24_10h19.25.946,empathy_intonation_perc_control,2024.2.4,Win32,59.88023952,647b94fa0a35e23330edcc2f,68817205a84113384fffdfe3,688240a4fa1d0320840838cc,,,,,,,,,,,,,0,,,,,,,,,,,,,,,,,,,,,,,,,,,,,,,,,,,,,16,abracer,,,,,953.8473,956.3303,0,1,1.9494,,0,25,25,15,1,REAL,FAKE,,,,,,,,,,,,,,,,,
,,,,,,,,,647b94fa0a35e23330edcc2f,mexican,13 or older,click here to respond,no,2025-07-24_10h19.25.946,empathy_intonation_perc_control,2024.2.4,Win32,59.88023952,647b94fa0a35e23330edcc2f,68817205a84113384fffdfe3,688240a4fa1d0320840838cc,,,,,,,,,,,,,1,,,,,,,,,,,,,,,,,,,,,,,,,,,,,,,,,,,,,60,matar,,,,,956.3307,958.0468,1,1,1.1828,,0,26,26,59,1,REAL,FAKE,,,,,,,,,,,,,,,,,
,,,,,,,,,647b94fa0a35e23330edcc2f,mexican,13 or older,click here to respond,no,2025-07-24_10h19.25.946,empathy_intonation_perc_control,2024.2.4,Win32,59.88023952,647b94fa0a35e23330edcc2f,68817205a84113384fffdfe3,688240a4fa1d0320840838cc,,,,,,,,,,,,,1,,,,,,,,,,,,,,,,,,,,,,,,,,,,,,,,,,,,,37,granuja,,,,,958.0472,960.1466,1,1,1.5661,,0,27,27,36,1,REAL,FAKE,,,,,,,,,,,,,,,,,
,,,,,,,,,647b94fa0a35e23330edcc2f,mexican,13 or older,click here to respond,no,2025-07-24_10h19.25.946,empathy_intonation_perc_control,2024.2.4,Win32,59.88023952,647b94fa0a35e23330edcc2f,68817205a84113384fffdfe3,688240a4fa1d0320840838cc,,,,,,,,,,,,,1,,,,,,,,,,,,,,,,,,,,,,,,,,,,,,,,,,,,,2,pellizcar,,,,,960.147,962.1163,0,0,1.4189,,0,28,28,1,1,REAL,FAKE,,,,,,,,,,,,,,,,,
,,,,,,,,,647b94fa0a35e23330edcc2f,mexican,13 or older,click here to respond,no,2025-07-24_10h19.25.946,empathy_intonation_perc_control,2024.2.4,Win32,59.88023952,647b94fa0a35e23330edcc2f,68817205a84113384fffdfe3,688240a4fa1d0320840838cc,,,,,,,,,,,,,0,,,,,,,,,,,,,,,,,,,,,,,,,,,,,,,,,,,,,1,terzo,,,,,962.1167,963.9635,1,0,1.3164,,0,29,29,0,1,REAL,FAKE,,,,,,,,,,,,,,,,,
,,,,,,,,,647b94fa0a35e23330edcc2f,mexican,13 or older,click here to respond,no,2025-07-24_10h19.25.946,empathy_intonation_perc_control,2024.2.4,Win32,59.88023952,647b94fa0a35e23330edcc2f,68817205a84113384fffdfe3,688240a4fa1d0320840838cc,,,,,,,,,,,,,1,,,,,,,,,,,,,,,,,,,,,,,,,,,,,,,,,,,,,81,pozo,,,,,963.9638,1005.3449,0,0,40.8309,,0,30,30,80,1,REAL,FAKE,,,,,,,,,,,,,,,,,
,,,,,,,,,647b94fa0a35e23330edcc2f,mexican,13 or older,click here to respond,no,2025-07-24_10h19.25.946,empathy_intonation_perc_control,2024.2.4,Win32,59.88023952,647b94fa0a35e23330edcc2f,68817205a84113384fffdfe3,688240a4fa1d0320840838cc,,,,,,,,,,,,,0,,,,,,,,,,,,,,,,,,,,,,,,,,,,,,,,,,,,,66,hacido,,,,,1005.3452,1007.7284,1,0,1.8081,,0,31,31,65,1,REAL,FAKE,,,,,,,,,,,,,,,,,
,,,,,,,,,647b94fa0a35e23330edcc2f,mexican,13 or older,click here to respond,no,2025-07-24_10h19.25.946,empathy_intonation_perc_control,2024.2.4,Win32,59.88023952,647b94fa0a35e23330edcc2f,68817205a84113384fffdfe3,688240a4fa1d0320840838cc,,,,,,,,,,,,,1,,,,,,,,,,,,,,,,,,,,,,,,,,,,,,,,,,,,,13,helar,,,,,1007.7289,1022.2608,0,0,13.9823,,0,32,32,12,1,REAL,FAKE,,,,,,,,,,,,,,,,,
,,,,,,,,,647b94fa0a35e23330edcc2f,mexican,13 or older,click here to respond,no,2025-07-24_10h19.25.946,empathy_intonation_perc_control,2024.2.4,Win32,59.88023952,647b94fa0a35e23330edcc2f,68817205a84113384fffdfe3,688240a4fa1d0320840838cc,,,,,,,,,,,,,1,,,,,,,,,,,,,,,,,,,,,,,,,,,,,,,,,,,,,78,frondoso,,,,,1022.2612,1024.0107,0,0,1.1994,,0,33,33,77,1,REAL,FAKE,,,,,,,,,,,,,,,,,
,,,,,,,,,647b94fa0a35e23330edcc2f,mexican,13 or older,click here to respond,no,2025-07-24_10h19.25.946,empathy_intonation_perc_control,2024.2.4,Win32,59.88023952,647b94fa0a35e23330edcc2f,68817205a84113384fffdfe3,688240a4fa1d0320840838cc,,,,,,,,,,,,,1,,,,,,,,,,,,,,,,,,,,,,,,,,,,,,,,,,,,,44,cuchara,,,,,1024.0111,1025.7231,1,1,1.1703,,0,34,34,43,1,REAL,FAKE,,,,,,,,,,,,,,,,,
,,,,,,,,,647b94fa0a35e23330edcc2f,mexican,13 or older,click here to respond,no,2025-07-24_10h19.25.946,empathy_intonation_perc_control,2024.2.4,Win32,59.88023952,647b94fa0a35e23330edcc2f,68817205a84113384fffdfe3,688240a4fa1d0320840838cc,,,,,,,,,,,,,1,,,,,,,,,,,,,,,,,,,,,,,,,,,,,,,,,,,,,20,ávido,,,,,1025.7239,1027.177,1,1,0.9161,,0,35,35,19,1,REAL,FAKE,,,,,,,,,,,,,,,,,
,,,,,,,,,647b94fa0a35e23330edcc2f,mexican,13 or older,click here to respond,no,2025-07-24_10h19.25.946,empathy_intonation_perc_control,2024.2.4,Win32,59.88023952,647b94fa0a35e23330edcc2f,68817205a84113384fffdfe3,688240a4fa1d0320840838cc,,,,,,,,,,,,,0,,,,,,,,,,,,,,,,,,,,,,,,,,,,,,,,,,,,,19,brecedad,,,,,1027.1774,1028.9277,0,1,1.2166,,0,36,36,18,1,REAL,FAKE,,,,,,,,,,,,,,,,,
,,,,,,,,,647b94fa0a35e23330edcc2f,mexican,13 or older,click here to respond,no,2025-07-24_10h19.25.946,empathy_intonation_perc_control,2024.2.4,Win32,59.88023952,647b94fa0a35e23330edcc2f,68817205a84113384fffdfe3,688240a4fa1d0320840838cc,,,,,,,,,,,,,0,,,,,,,,,,,,,,,,,,,,,,,,,,,,,,,,,,,,,47,cartinar,,,,,1028.9282,1031.6726,0,1,2.2057,,0,37,37,46,1,REAL,FAKE,,,,,,,,,,,,,,,,,
,,,,,,,,,647b94fa0a35e23330edcc2f,mexican,13 or older,click here to respond,no,2025-07-24_10h19.25.946,empathy_intonation_perc_control,2024.2.4,Win32,59.88023952,647b94fa0a35e23330edcc2f,68817205a84113384fffdfe3,688240a4fa1d0320840838cc,,,,,,,,,,,,,0,,,,,,,,,,,,,,,,,,,,,,,,,,,,,,,,,,,,,50,flamida,,,,,1031.6729,1033.1271,0,1,0.9322,,0,38,38,49,1,REAL,FAKE,,,,,,,,,,,,,,,,,
,,,,,,,,,647b94fa0a35e23330edcc2f,mexican,13 or older,click here to respond,no,2025-07-24_10h19.25.946,empathy_intonation_perc_control,2024.2.4,Win32,59.88023952,647b94fa0a35e23330edcc2f,68817205a84113384fffdfe3,688240a4fa1d0320840838cc,,,,,,,,,,,,,0,,,,,,,,,,,,,,,,,,,,,,,,,,,,,,,,,,,,,21,capillo,,,,,1033.1274,1034.7091,0,1,1.0316,,0,39,39,20,1,REAL,FAKE,,,,,,,,,,,,,,,,,
,,,,,,,,,647b94fa0a35e23330edcc2f,mexican,13 or older,click here to respond,no,2025-07-24_10h19.25.946,empathy_intonation_perc_control,2024.2.4,Win32,59.88023952,647b94fa0a35e23330edcc2f,68817205a84113384fffdfe3,688240a4fa1d0320840838cc,,,,,,,,,,,,,0,,,,,,,,,,,,,,,,,,,,,,,,,,,,,,,,,,,,,18,arsa,,,,,1034.7095,1036.594,0,1,1.3498,,0,40,40,17,1,REAL,FAKE,,,,,,,,,,,,,,,,,
,,,,,,,,,647b94fa0a35e23330edcc2f,mexican,13 or older,click here to respond,no,2025-07-24_10h19.25.946,empathy_intonation_perc_control,2024.2.4,Win32,59.88023952,647b94fa0a35e23330edcc2f,68817205a84113384fffdfe3,688240a4fa1d0320840838cc,,,,,,,,,,,,,1,,,,,,,,,,,,,,,,,,,,,,,,,,,,,,,,,,,,,77,tiburón,,,,,1036.5946,1037.9778,1,1,0.8333,,0,41,41,76,1,REAL,FAKE,,,,,,,,,,,,,,,,,
,,,,,,,,,647b94fa0a35e23330edcc2f,mexican,13 or older,click here to respond,no,2025-07-24_10h19.25.946,empathy_intonation_perc_control,2024.2.4,Win32,59.88023952,647b94fa0a35e23330edcc2f,68817205a84113384fffdfe3,688240a4fa1d0320840838cc,,,,,,,,,,,,,1,,,,,,,,,,,,,,,,,,,,,,,,,,,,,,,,,,,,,3,pulmones,,,,,1037.9783,1042.1434,1,1,3.6494,,0,42,42,2,1,REAL,FAKE,,,,,,,,,,,,,,,,,
,,,,,,,,,647b94fa0a35e23330edcc2f,mexican,13 or older,click here to respond,no,2025-07-24_10h19.25.946,empathy_intonation_perc_control,2024.2.4,Win32,59.88023952,647b94fa0a35e23330edcc2f,68817205a84113384fffdfe3,688240a4fa1d0320840838cc,,,,,,,,,,,,,0,,,,,,,,,,,,,,,,,,,,,,,,,,,,,,,,,,,,,79,tropaje,,,,,1042.1438,1044.0888,1,0,1.3827,,0,43,43,78,1,REAL,FAKE,,,,,,,,,,,,,,,,,
,,,,,,,,,647b94fa0a35e23330edcc2f,mexican,13 or older,click here to respond,no,2025-07-24_10h19.25.946,empathy_intonation_perc_control,2024.2.4,Win32,59.88023952,647b94fa0a35e23330edcc2f,68817205a84113384fffdfe3,688240a4fa1d0320840838cc,,,,,,,,,,,,,1,,,,,,,,,,,,,,,,,,,,,,,,,,,,,,,,,,,,,6,tergiversar,,,,,1044.0892,1046.3608,0,0,1.7337,,0,44,44,5,1,REAL,FAKE,,,,,,,,,,,,,,,,,
,,,,,,,,,647b94fa0a35e23330edcc2f,mexican,13 or older,click here to respond,no,2025-07-24_10h19.25.946,empathy_intonation_perc_control,2024.2.4,Win32,59.88023952,647b94fa0a35e23330edcc2f,68817205a84113384fffdfe3,688240a4fa1d0320840838cc,,,,,,,,,,,,,1,,,,,,,,,,,,,,,,,,,,,,,,,,,,,,,,,,,,,75,yacer,,,,,1046.3615,1062.0761,0,0,15.1826,,0,45,45,74,1,REAL,FAKE,,,,,,,,,,,,,,,,,
,,,,,,,,,647b94fa0a35e23330edcc2f,mexican,13 or older,click here to respond,no,2025-07-24_10h19.25.946,empathy_intonation_perc_control,2024.2.4,Win32,59.88023952,647b94fa0a35e23330edcc2f,68817205a84113384fffdfe3,688240a4fa1d0320840838cc,,,,,,,,,,,,,1,,,,,,,,,,,,,,,,,,,,,,,,,,,,,,,,,,,,,48,ladrón,,,,,1062.0767,1082.8838,0,0,20.2573,,0,46,46,47,1,REAL,FAKE,,,,,,,,,,,,,,,,,
,,,,,,,,,647b94fa0a35e23330edcc2f,mexican,13 or older,click here to respond,no,2025-07-24_10h19.25.946,empathy_intonation_perc_control,2024.2.4,Win32,59.88023952,647b94fa0a35e23330edcc2f,68817205a84113384fffdfe3,688240a4fa1d0320840838cc,,,,,,,,,,,,,1,,,,,,,,,,,,,,,,,,,,,,,,,,,,,,,,,,,,,67,cabello,,,,,1082.8843,1107.7741,0,0,24.3321,,0,47,47,66,1,REAL,FAKE,,,,,,,,,,,,,,,,,
,,,,,,,,,647b94fa0a35e23330edcc2f,mexican,13 or older,click here to respond,no,2025-07-24_10h19.25.946,empathy_intonation_perc_control,2024.2.4,Win32,59.88023952,647b94fa0a35e23330edcc2f,68817205a84113384fffdfe3,688240a4fa1d0320840838cc,,,,,,,,,,,,,0,,,,,,,,,,,,,,,,,,,,,,,,,,,,,,,,,,,,,29,decar,,,,,1107.7745,1120.4739,1,0,12.1662,,0,48,48,28,1,REAL,FAKE,,,,,,,,,,,,,,,,,
,,,,,,,,,647b94fa0a35e23330edcc2f,mexican,13 or older,click here to respond,no,2025-07-24_10h19.25.946,empathy_intonation_perc_control,2024.2.4,Win32,59.88023952,647b94fa0a35e23330edcc2f,68817205a84113384fffdfe3,688240a4fa1d0320840838cc,,,,,,,,,,,,,1,,,,,,,,,,,,,,,,,,,,,,,,,,,,,,,,,,,,,49,ganar,,,,,1120.4743,1134.5564,0,0,13.5325,,0,49,49,48,1,REAL,FAKE,,,,,,,,,,,,,,,,,
,,,,,,,,,647b94fa0a35e23330edcc2f,mexican,13 or older,click here to respond,no,2025-07-24_10h19.25.946,empathy_intonation_perc_control,2024.2.4,Win32,59.88023952,647b94fa0a35e23330edcc2f,68817205a84113384fffdfe3,688240a4fa1d0320840838cc,,,,,,,,,,,,,1,,,,,,,,,,,,,,,,,,,,,,,,,,,,,,,,,,,,,62,flaco,,,,,1134.5569,1149.0556,0,0,13.949,,0,50,50,61,1,REAL,FAKE,,,,,,,,,,,,,,,,,
,,,,,,,,,647b94fa0a35e23330edcc2f,mexican,13 or older,click here to respond,no,2025-07-24_10h19.25.946,empathy_intonation_perc_control,2024.2.4,Win32,59.88023952,647b94fa0a35e23330edcc2f,68817205a84113384fffdfe3,688240a4fa1d0320840838cc,,,,,,,,,,,,,0,,,,,,,,,,,,,,,,,,,,,,,,,,,,,,,,,,,,,8,cadeña,,,,,1149.0563,1151.1513,1,0,1.5495,,0,51,51,7,1,REAL,FAKE,,,,,,,,,,,,,,,,,
,,,,,,,,,647b94fa0a35e23330edcc2f,mexican,13 or older,click here to respond,no,2025-07-24_10h19.25.946,empathy_intonation_perc_control,2024.2.4,Win32,59.88023952,647b94fa0a35e23330edcc2f,68817205a84113384fffdfe3,688240a4fa1d0320840838cc,,,,,,,,,,,,,1,,,,,,,,,,,,,,,,,,,,,,,,,,,,,,,,,,,,,68,alegre,,,,,1151.1519,1164.3884,0,0,12.699,,0,52,52,67,1,REAL,FAKE,,,,,,,,,,,,,,,,,
,,,,,,,,,647b94fa0a35e23330edcc2f,mexican,13 or older,click here to respond,no,2025-07-24_10h19.25.946,empathy_intonation_perc_control,2024.2.4,Win32,59.88023952,647b94fa0a35e23330edcc2f,68817205a84113384fffdfe3,688240a4fa1d0320840838cc,,,,,,,,,,,,,0,,,,,,,,,,,,,,,,,,,,,,,,,,,,,,,,,,,,,23,lampera,,,,,1164.3888,1179.3878,0,1,14.4656,,0,53,53,22,1,REAL,FAKE,,,,,,,,,,,,,,,,,
,,,,,,,,,647b94fa0a35e23330edcc2f,mexican,13 or older,click here to respond,no,2025-07-24_10h19.25.946,empathy_intonation_perc_control,2024.2.4,Win32,59.88023952,647b94fa0a35e23330edcc2f,68817205a84113384fffdfe3,688240a4fa1d0320840838cc,,,,,,,,,,,,,1,,,,,,,,,,,,,,,,,,,,,,,,,,,,,,,,,,,,,22,lacayo,,,,,1179.3882,1181.1208,0,0,1.1828,,0,54,54,21,1,REAL,FAKE,,,,,,,,,,,,,,,,,
,,,,,,,,,647b94fa0a35e23330edcc2f,mexican,13 or older,click here to respond,no,2025-07-24_10h19.25.946,empathy_intonation_perc_control,2024.2.4,Win32,59.88023952,647b94fa0a35e23330edcc2f,68817205a84113384fffdfe3,688240a4fa1d0320840838cc,,,,,,,,,,,,,1,,,,,,,,,,,,,,,,,,,,,,,,,,,,,,,,,,,,,15,regar,,,,,1181.1212,1205.1989,0,0,23.5237,,0,55,55,14,1,REAL,FAKE,,,,,,,,,,,,,,,,,
,,,,,,,,,647b94fa0a35e23330edcc2f,mexican,13 or older,click here to respond,no,2025-07-24_10h19.25.946,empathy_intonation_perc_control,2024.2.4,Win32,59.88023952,647b94fa0a35e23330edcc2f,68817205a84113384fffdfe3,688240a4fa1d0320840838cc,,,,,,,,,,,,,1,,,,,,,,,,,,,,,,,,,,,,,,,,,,,,,,,,,,,91,click the 1 key.,,,,,1205.1996,1207.5031,1,1,1.7494,,0,56,56,90,1,REAL,FAKE,,,,,,,,,,,,,,,,,
,,,,,,,,,647b94fa0a35e23330edcc2f,mexican,13 or older,click here to respond,no,2025-07-24_10h19.25.946,empathy_intonation_perc_control,2024.2.4,Win32,59.88023952,647b94fa0a35e23330edcc2f,68817205a84113384fffdfe3,688240a4fa1d0320840838cc,,,,,,,,,,,,,1,,,,,,,,,,,,,,,,,,,,,,,,,,,,,,,,,,,,,54,fomentar,,,,,1207.5035,1211.0698,1,1,3.0328,,0,57,57,53,1,REAL,FAKE,,,,,,,,,,,,,,,,,
,,,,,,,,,647b94fa0a35e23330edcc2f,mexican,13 or older,click here to respond,no,2025-07-24_10h19.25.946,empathy_intonation_perc_control,2024.2.4,Win32,59.88023952,647b94fa0a35e23330edcc2f,68817205a84113384fffdfe3,688240a4fa1d0320840838cc,,,,,,,,,,,,,1,,,,,,,,,,,,,,,,,,,,,,,,,,,,,,,,,,,,,59,besar,,,,,1211.0703,1213.0863,0,0,1.4639,,0,58,58,58,1,REAL,FAKE,,,,,,,,,,,,,,,,,
,,,,,,,,,647b94fa0a35e23330edcc2f,mexican,13 or older,click here to respond,no,2025-07-24_10h19.25.946,empathy_intonation_perc_control,2024.2.4,Win32,59.88023952,647b94fa0a35e23330edcc2f,68817205a84113384fffdfe3,688240a4fa1d0320840838cc,,,,,,,,,,,,,1,,,,,,,,,,,,,,,,,,,,,,,,,,,,,,,,,,,,,73,hervidor,,,,,1213.0866,1214.9369,1,1,1.317,,0,59,59,72,1,REAL,FAKE,,,,,,,,,,,,,,,,,
,,,,,,,,,647b94fa0a35e23330edcc2f,mexican,13 or older,click here to respond,no,2025-07-24_10h19.25.946,empathy_intonation_perc_control,2024.2.4,Win32,59.88023952,647b94fa0a35e23330edcc2f,68817205a84113384fffdfe3,688240a4fa1d0320840838cc,,,,,,,,,,,,,1,,,,,,,,,,,,,,,,,,,,,,,,,,,,,,,,,,,,,90,clavel,,,,,1214.9372,1217.3203,0,0,1.8335,,0,60,60,89,1,REAL,FAKE,,,,,,,,,,,,,,,,,
,,,,,,,,,647b94fa0a35e23330edcc2f,mexican,13 or older,click here to respond,no,2025-07-24_10h19.25.946,empathy_intonation_perc_control,2024.2.4,Win32,59.88023952,647b94fa0a35e23330edcc2f,68817205a84113384fffdfe3,688240a4fa1d0320840838cc,,,,,,,,,,,,,1,,,,,,,,,,,,,,,,,,,,,,,,,,,,,,,,,,,,,85,laúd,,,,,1217.3209,1219.386,1,1,1.5328,,0,61,61,84,1,REAL,FAKE,,,,,,,,,,,,,,,,,
,,,,,,,,,647b94fa0a35e23330edcc2f,mexican,13 or older,click here to respond,no,2025-07-24_10h19.25.946,empathy_intonation_perc_control,2024.2.4,Win32,59.88023952,647b94fa0a35e23330edcc2f,68817205a84113384fffdfe3,688240a4fa1d0320840838cc,,,,,,,,,,,,,1,,,,,,,,,,,,,,,,,,,,,,,,,,,,,,,,,,,,,24,látigo,,,,,1219.3865,1220.8867,1,1,0.967,,0,62,62,23,1,REAL,FAKE,,,,,,,,,,,,,,,,,
,,,,,,,,,647b94fa0a35e23330edcc2f,mexican,13 or older,click here to respond,no,2025-07-24_10h19.25.946,empathy_intonation_perc_control,2024.2.4,Win32,59.88023952,647b94fa0a35e23330edcc2f,68817205a84113384fffdfe3,688240a4fa1d0320840838cc,,,,,,,,,,,,,1,,,,,,,,,,,,,,,,,,,,,,,,,,,,,,,,,,,,,86,barato,,,,,1220.8871,1238.569,1,1,17.1498,,0,63,63,85,1,REAL,FAKE,,,,,,,,,,,,,,,,,
,,,,,,,,,647b94fa0a35e23330edcc2f,mexican,13 or older,click here to respond,no,2025-07-24_10h19.25.946,empathy_intonation_perc_control,2024.2.4,Win32,59.88023952,647b94fa0a35e23330edcc2f,68817205a84113384fffdfe3,688240a4fa1d0320840838cc,,,,,,,,,,,,,1,,,,,,,,,,,,,,,,,,,,,,,,,,,,,,,,,,,,,14,yunque,,,,,1238.5695,1240.6696,0,0,1.5341,,0,64,64,13,1,REAL,FAKE,,,,,,,,,,,,,,,,,
,,,,,,,,,647b94fa0a35e23330edcc2f,mexican,13 or older,click here to respond,no,2025-07-24_10h19.25.946,empathy_intonation_perc_control,2024.2.4,Win32,59.88023952,647b94fa0a35e23330edcc2f,68817205a84113384fffdfe3,688240a4fa1d0320840838cc,,,,,,,,,,,,,0,,,,,,,,,,,,,,,,,,,,,,,,,,,,,,,,,,,,,92,click the 0 key.,,,,,1240.67,1242.4851,0,1,1.2902,,0,65,65,91,1,REAL,FAKE,,,,,,,,,,,,,,,,,
,,,,,,,,,647b94fa0a35e23330edcc2f,mexican,13 or older,click here to respond,no,2025-07-24_10h19.25.946,empathy_intonation_perc_control,2024.2.4,Win32,59.88023952,647b94fa0a35e23330edcc2f,68817205a84113384fffdfe3,688240a4fa1d0320840838cc,,,,,,,,,,,,,0,,,,,,,,,,,,,,,,,,,,,,,,,,,,,,,,,,,,,72,pemición,,,,,1242.4857,1244.4349,1,0,1.3995,,0,66,66,71,1,REAL,FAKE,,,,,,,,,,,,,,,,,
,,,,,,,,,647b94fa0a35e23330edcc2f,mexican,13 or older,click here to respond,no,2025-07-24_10h19.25.946,empathy_intonation_perc_control,2024.2.4,Win32,59.88023952,647b94fa0a35e23330edcc2f,68817205a84113384fffdfe3,688240a4fa1d0320840838cc,,,,,,,,,,,,,1,,,,,,,,,,,,,,,,,,,,,,,,,,,,,,,,,,,,,5,zapato,,,,,1244.4352,1247.2848,1,1,2.2994,,0,67,67,4,1,REAL,FAKE,,,,,,,,,,,,,,,,,
,,,,,,,,,647b94fa0a35e23330edcc2f,mexican,13 or older,click here to respond,no,2025-07-24_10h19.25.946,empathy_intonation_perc_control,2024.2.4,Win32,59.88023952,647b94fa0a35e23330edcc2f,68817205a84113384fffdfe3,688240a4fa1d0320840838cc,,,,,,,,,,,,,0,,,,,,,,,,,,,,,,,,,,,,,,,,,,,,,,,,,,,53,vegada,,,,,1247.2851,1249.8351,0,1,1.9924,,0,68,68,52,1,REAL,FAKE,,,,,,,,,,,,,,,,,
,,,,,,,,,647b94fa0a35e23330edcc2f,mexican,13 or older,click here to respond,no,2025-07-24_10h19.25.946,empathy_intonation_perc_control,2024.2.4,Win32,59.88023952,647b94fa0a35e23330edcc2f,68817205a84113384fffdfe3,688240a4fa1d0320840838cc,,,,,,,,,,,,,1,,,,,,,,,,,,,,,,,,,,,,,,,,,,,,,,,,,,,89,prisa,,,,,1249.8356,1251.4513,1,1,1.0828,,0,69,69,88,1,REAL,FAKE,,,,,,,,,,,,,,,,,
,,,,,,,,,647b94fa0a35e23330edcc2f,mexican,13 or older,click here to respond,no,2025-07-24_10h19.25.946,empathy_intonation_perc_control,2024.2.4,Win32,59.88023952,647b94fa0a35e23330edcc2f,68817205a84113384fffdfe3,688240a4fa1d0320840838cc,,,,,,,,,,,,,1,,,,,,,,,,,,,,,,,,,,,,,,,,,,,,,,,,,,,71,polvoriento,,,,,1251.4517,1253.2683,1,1,1.2832,,0,70,70,70,1,REAL,FAKE,,,,,,,,,,,,,,,,,
,,,,,,,,,647b94fa0a35e23330edcc2f,mexican,13 or older,click here to respond,no,2025-07-24_10h19.25.946,empathy_intonation_perc_control,2024.2.4,Win32,59.88023952,647b94fa0a35e23330edcc2f,68817205a84113384fffdfe3,688240a4fa1d0320840838cc,,,,,,,,,,,,,0,,,,,,,,,,,,,,,,,,,,,,,,,,,,,,,,,,,,,30,alardio,,,,,1253.2687,1255.2356,1,0,1.4168,,0,71,71,29,1,REAL,FAKE,,,,,,,,,,,,,,,,,
,,,,,,,,,647b94fa0a35e23330edcc2f,mexican,13 or older,click here to respond,no,2025-07-24_10h19.25.946,empathy_intonation_perc_control,2024.2.4,Win32,59.88023952,647b94fa0a35e23330edcc2f,68817205a84113384fffdfe3,688240a4fa1d0320840838cc,,,,,,,,,,,,,1,,,,,,,,,,,,,,,,,,,,,,,,,,,,,,,,,,,,,40,alfombra,,,,,1255.236,1256.8515,0,0,1.0667,,0,72,72,39,1,REAL,FAKE,,,,,,,,,,,,,,,,,
,,,,,,,,,647b94fa0a35e23330edcc2f,mexican,13 or older,click here to respond,no,2025-07-24_10h19.25.946,empathy_intonation_perc_control,2024.2.4,Win32,59.88023952,647b94fa0a35e23330edcc2f,68817205a84113384fffdfe3,688240a4fa1d0320840838cc,,,,,,,,,,,,,0,,,,,,,,,,,,,,,,,,,,,,,,,,,,,,,,,,,,,17,floroso,,,,,1256.852,1259.259,1,0,1.8574,,0,73,73,16,1,REAL,FAKE,,,,,,,,,,,,,,,,,
,,,,,,,,,647b94fa0a35e23330edcc2f,mexican,13 or older,click here to respond,no,2025-07-24_10h19.25.946,empathy_intonation_perc_control,2024.2.4,Win32,59.88023952,647b94fa0a35e23330edcc2f,68817205a84113384fffdfe3,688240a4fa1d0320840838cc,,,,,,,,,,,,,1,,,,,,,,,,,,,,,,,,,,,,,,,,,,,,,,,,,,,11,cenefa,,,,,1259.2594,1260.8464,0,0,1.0501,,0,74,74,10,1,REAL,FAKE,,,,,,,,,,,,,,,,,
,,,,,,,,,647b94fa0a35e23330edcc2f,mexican,13 or older,click here to respond,no,2025-07-24_10h19.25.946,empathy_intonation_perc_control,2024.2.4,Win32,59.88023952,647b94fa0a35e23330edcc2f,68817205a84113384fffdfe3,688240a4fa1d0320840838cc,,,,,,,,,,,,,1,,,,,,,,,,,,,,,,,,,,,,,,,,,,,,,,,,,,,46,martillo,,,,,1260.8468,1262.6176,1,1,1.2287,,0,75,75,45,1,REAL,FAKE,,,,,,,,,,,,,,,,,
,,,,,,,,,647b94fa0a35e23330edcc2f,mexican,13 or older,click here to respond,no,2025-07-24_10h19.25.946,empathy_intonation_perc_control,2024.2.4,Win32,59.88023952,647b94fa0a35e23330edcc2f,68817205a84113384fffdfe3,688240a4fa1d0320840838cc,,,,,,,,,,,,,1,,,,,,,,,,,,,,,,,,,,,,,,,,,,,,,,,,,,,31,pandilla,,,,,1262.6179,1264.284,1,1,1.1326,,0,76,76,30,1,REAL,FAKE,,,,,,,,,,,,,,,,,
,,,,,,,,,647b94fa0a35e23330edcc2f,mexican,13 or older,click here to respond,no,2025-07-24_10h19.25.946,empathy_intonation_perc_control,2024.2.4,Win32,59.88023952,647b94fa0a35e23330edcc2f,68817205a84113384fffdfe3,688240a4fa1d0320840838cc,,,,,,,,,,,,,0,,,,,,,,,,,,,,,,,,,,,,,,,,,,,,,,,,,,,82,empirador,,,,,1264.2844,1266.4513,1,0,1.6166,,0,77,77,81,1,REAL,FAKE,,,,,,,,,,,,,,,,,
,,,,,,,,,647b94fa0a35e23330edcc2f,mexican,13 or older,click here to respond,no,2025-07-24_10h19.25.946,empathy_intonation_perc_control,2024.2.4,Win32,59.88023952,647b94fa0a35e23330edcc2f,68817205a84113384fffdfe3,688240a4fa1d0320840838cc,,,,,,,,,,,,,0,,,,,,,,,,,,,,,,,,,,,,,,,,,,,,,,,,,,,33,pauca,,,,,1266.4517,1268.9507,1,0,1.9495,,0,78,78,32,1,REAL,FAKE,,,,,,,,,,,,,,,,,
,,,,,,,,,647b94fa0a35e23330edcc2f,mexican,13 or older,click here to respond,no,2025-07-24_10h19.25.946,empathy_intonation_perc_control,2024.2.4,Win32,59.88023952,647b94fa0a35e23330edcc2f,68817205a84113384fffdfe3,688240a4fa1d0320840838cc,,,,,,,,,,,,,1,,,,,,,,,,,,,,,,,,,,,,,,,,,,,,,,,,,,,34,aviso,,,,,1268.951,1270.5512,0,0,1.0667,,0,79,79,33,1,REAL,FAKE,,,,,,,,,,,,,,,,,
,,,,,,,,,647b94fa0a35e23330edcc2f,mexican,13 or older,click here to respond,no,2025-07-24_10h19.25.946,empathy_intonation_perc_control,2024.2.4,Win32,59.88023952,647b94fa0a35e23330edcc2f,68817205a84113384fffdfe3,688240a4fa1d0320840838cc,,,,,,,,,,,,,0,,,,,,,,,,,,,,,,,,,,,,,,,,,,,,,,,,,,,27,acutación,,,,,1270.5515,1272.5861,1,0,1.4849,,0,80,80,26,1,REAL,FAKE,,,,,,,,,,,,,,,,,
,,,,,,,,,647b94fa0a35e23330edcc2f,mexican,13 or older,click here to respond,no,2025-07-24_10h19.25.946,empathy_intonation_perc_control,2024.2.4,Win32,59.88023952,647b94fa0a35e23330edcc2f,68817205a84113384fffdfe3,688240a4fa1d0320840838cc,,,,,,,,,,,,,0,,,,,,,,,,,,,,,,,,,,,,,,,,,,,,,,,,,,,63,esposante,,,,,1272.5865,1274.2127,1,0,1.0687,,0,81,81,62,1,REAL,FAKE,,,,,,,,,,,,,,,,,
,,,,,,,,,647b94fa0a35e23330edcc2f,mexican,13 or older,click here to respond,no,2025-07-24_10h19.25.946,empathy_intonation_perc_control,2024.2.4,Win32,59.88023952,647b94fa0a35e23330edcc2f,68817205a84113384fffdfe3,688240a4fa1d0320840838cc,,,,,,,,,,,,,1,,,,,,,,,,,,,,,,,,,,,,,,,,,,,,,,,,,,,39,torpe,,,,,1274.213,1275.6837,0,0,0.9328,,0,82,82,38,1,REAL,FAKE,,,,,,,,,,,,,,,,,
,,,,,,,,,647b94fa0a35e23330edcc2f,mexican,13 or older,click here to respond,no,2025-07-24_10h19.25.946,empathy_intonation_perc_control,2024.2.4,Win32,59.88023952,647b94fa0a35e23330edcc2f,68817205a84113384fffdfe3,688240a4fa1d0320840838cc,,,,,,,,,,,,,1,,,,,,,,,,,,,,,,,,,,,,,,,,,,,,,,,,,,,76,atar,,,,,1275.684,1278.7002,1,1,2.4655,,0,83,83,75,1,REAL,FAKE,,,,,,,,,,,,,,,,,
,,,,,,,,,647b94fa0a35e23330edcc2f,mexican,13 or older,click here to respond,no,2025-07-24_10h19.25.946,empathy_intonation_perc_control,2024.2.4,Win32,59.88023952,647b94fa0a35e23330edcc2f,68817205a84113384fffdfe3,688240a4fa1d0320840838cc,,,,,,,,,,,,,0,,,,,,,,,,,,,,,,,,,,,,,,,,,,,,,,,,,,,4,batillón,,,,,1278.7005,1280.1667,1,0,0.9004,,0,84,84,3,1,REAL,FAKE,,,,,,,,,,,,,,,,,
,,,,,,,,,647b94fa0a35e23330edcc2f,mexican,13 or older,click here to respond,no,2025-07-24_10h19.25.946,empathy_intonation_perc_control,2024.2.4,Win32,59.88023952,647b94fa0a35e23330edcc2f,68817205a84113384fffdfe3,688240a4fa1d0320840838cc,,,,,,,,,,,,,1,,,,,,,,,,,,,,,,,,,,,,,,,,,,,,,,,,,,,64,orgulloso,,,,,1280.1671,1281.9334,0,0,1.2328,,0,85,85,63,1,REAL,FAKE,,,,,,,,,,,,,,,,,
,,,,,,,,,647b94fa0a35e23330edcc2f,mexican,13 or older,click here to respond,no,2025-07-24_10h19.25.946,empathy_intonation_perc_control,2024.2.4,Win32,59.88023952,647b94fa0a35e23330edcc2f,68817205a84113384fffdfe3,688240a4fa1d0320840838cc,,,,,,,,,,,,,1,,,,,,,,,,,,,,,,,,,,,,,,,,,,,,,,,,,,,57,tacaño,,,,,1281.9338,1283.3833,1,1,0.9162,,0,86,86,56,1,REAL,FAKE,,,,,,,,,,,,,,,,,
,,,,,,,,,647b94fa0a35e23330edcc2f,mexican,13 or older,click here to respond,no,2025-07-24_10h19.25.946,empathy_intonation_perc_control,2024.2.4,Win32,59.88023952,647b94fa0a35e23330edcc2f,68817205a84113384fffdfe3,688240a4fa1d0320840838cc,,,,,,,,,,,,,1,,,,,,,,,,,,,,,,,,,,,,,,,,,,,,,,,,,,,56,musgo,,,,,1283.3837,1284.9487,0,0,1.0316,,0,87,87,55,1,REAL,FAKE,,,,,,,,,,,,,,,,,
,,,,,,,,,647b94fa0a35e23330edcc2f,mexican,13 or older,click here to respond,no,2025-07-24_10h19.25.946,empathy_intonation_perc_control,2024.2.4,Win32,59.88023952,647b94fa0a35e23330edcc2f,68817205a84113384fffdfe3,688240a4fa1d0320840838cc,,,,,,,,,,,,,1,,,,,,,,,,,,,,,,,,,,,,,,,,,,,,,,,,,,,69,engatusar,,,,,1284.949,1286.5833,0,0,1.0994,,0,88,88,68,1,REAL,FAKE,,,,,,,,,,,,,,,,,
,,,,,,,,,647b94fa0a35e23330edcc2f,mexican,13 or older,click here to respond,no,2025-07-24_10h19.25.946,empathy_intonation_perc_control,2024.2.4,Win32,59.88023952,647b94fa0a35e23330edcc2f,68817205a84113384fffdfe3,688240a4fa1d0320840838cc,,,,,,,,,,,,,1,,,,,,,,,,,,,,,,,,,,,,,,,,,,,,,,,,,,,52,camisa,,,,,1286.5837,1288.6002,0,0,1.4665,,0,89,89,51,1,REAL,FAKE,,,,,,,,,,,,,,,,,
,,,,,,,,,647b94fa0a35e23330edcc2f,mexican,13 or older,click here to respond,no,2025-07-24_10h19.25.946,empathy_intonation_perc_control,2024.2.4,Win32,59.88023952,647b94fa0a35e23330edcc2f,68817205a84113384fffdfe3,688240a4fa1d0320840838cc,,,,,,,,,,,,,1,,,,,,,,,,,,,,,,,,,,,,,,,,,,,,,,,,,,,9,hacha,,,,,1288.6006,1290.0006,1,1,0.8503,,0,90,90,8,1,REAL,FAKE,,,,,,,,,,,,,,,,,
,,,,,,,,,647b94fa0a35e23330edcc2f,mexican,13 or older,click here to respond,no,2025-07-24_10h19.25.946,empathy_intonation_perc_control,2024.2.4,Win32,59.88023952,647b94fa0a35e23330edcc2f,68817205a84113384fffdfe3,688240a4fa1d0320840838cc,,,,,,,,,,,,,0,,,,,,,,,,,,,,,,,,,,,,,,,,,,,,,,,,,,,74,cintro,,,,,1290.0011,1291.8586,1,0,1.3251,,0,91,91,73,1,REAL,FAKE,,,,,,,,,,,,,,,,,
,,,,,,,,,647b94fa0a35e23330edcc2f,mexican,13 or older,click here to respond,no,2025-07-24_10h19.25.946,empathy_intonation_perc_control,2024.2.4,Win32,59.88023952,647b94fa0a35e23330edcc2f,68817205a84113384fffdfe3,688240a4fa1d0320840838cc,,,,,,,,,,,,,,,,,,,,,,,,,,,,,,,,,,,,,,,,,,,,,,,,,,,,,,,,,,,,,,,,,,,,,1291.8587,1300.3328,,,,,,,,,,,,,,,
,,,,,,,,,647b94fa0a35e23330edcc2f,mexican,13 or older,click here to respond,no,2025-07-24_10h19.25.946,empathy_intonation_perc_control,2024.2.4,Win32,59.88023952,647b94fa0a35e23330edcc2f,68817205a84113384fffdfe3,688240a4fa1d0320840838cc,,,,,,,,,,,,,,,,,,,,,,,,,,,1,,,,,,,,,,,,,,,,,,,,,,,,,,,,,,,,,,,,,,,,,,,,1300.3375,1304.6947,slightly disagree,0,0,0,0,1,I can easily tell if someone else wants to enter a conversation.,1,0,1,0,,
,,,,,,,,,647b94fa0a35e23330edcc2f,mexican,13 or older,click here to respond,no,2025-07-24_10h19.25.946,empathy_intonation_perc_control,2024.2.4,Win32,59.88023952,647b94fa0a35e23330edcc2f,68817205a84113384fffdfe3,688240a4fa1d0320840838cc,,,,,,,,,,,,,,,,,,,,,,,,,,,2,,,,,,,,,,,,,,,,,,,,,,,,,,,,,,,,,,,,,,,,,,,,1304.6955,1310.7779,slightly disagree,0,1,1,1,1,I prefer animals to humans.,0,1,0,0,,
,,,,,,,,,647b94fa0a35e23330edcc2f,mexican,13 or older,click here to respond,no,2025-07-24_10h19.25.946,empathy_intonation_perc_control,2024.2.4,Win32,59.88023952,647b94fa0a35e23330edcc2f,68817205a84113384fffdfe3,688240a4fa1d0320840838cc,,,,,,,,,,,,,,,,,,,,,,,,,,,3,,,,,,,,,,,,,,,,,,,,,,,,,,,,,,,,,,,,,,,,,,,,1310.7788,1315.9321,slightly agree,0,2,2,2,1,I try to keep up with the current trends and fashions.,0,1,0,0,,
,,,,,,,,,647b94fa0a35e23330edcc2f,mexican,13 or older,click here to respond,no,2025-07-24_10h19.25.946,empathy_intonation_perc_control,2024.2.4,Win32,59.88023952,647b94fa0a35e23330edcc2f,68817205a84113384fffdfe3,688240a4fa1d0320840838cc,,,,,,,,,,,,,,,,,,,,,,,,,,,4,,,,,,,,,,,,,,,,,,,,,,,,,,,,,,,,,,,,,,,,,,,,1315.9331,1320.944,slightly agree,0,3,3,3,1,"I find it difficult to explain to others things that I understand easily,   when they don't understand it first time.",1,0,0,1,,
,,,,,,,,,647b94fa0a35e23330edcc2f,mexican,13 or older,click here to respond,no,2025-07-24_10h19.25.946,empathy_intonation_perc_control,2024.2.4,Win32,59.88023952,647b94fa0a35e23330edcc2f,68817205a84113384fffdfe3,688240a4fa1d0320840838cc,,,,,,,,,,,,,,,,,,,,,,,,,,,5,,,,,,,,,,,,,,,,,,,,,,,,,,,,,,,,,,,,,,,,,,,,1320.9445,1324.3522,strongly agree,0,4,4,4,1,I dream most nights.,0,1,0,0,,
,,,,,,,,,647b94fa0a35e23330edcc2f,mexican,13 or older,click here to respond,no,2025-07-24_10h19.25.946,empathy_intonation_perc_control,2024.2.4,Win32,59.88023952,647b94fa0a35e23330edcc2f,68817205a84113384fffdfe3,688240a4fa1d0320840838cc,,,,,,,,,,,,,,,,,,,,,,,,,,,6,,,,,,,,,,,,,,,,,,,,,,,,,,,,,,,,,,,,,,,,,,,,1324.3529,1327.3847,slightly agree,0,5,5,5,1,I really enjoy caring for other people.,1,0,1,0,,
,,,,,,,,,647b94fa0a35e23330edcc2f,mexican,13 or older,click here to respond,no,2025-07-24_10h19.25.946,empathy_intonation_perc_control,2024.2.4,Win32,59.88023952,647b94fa0a35e23330edcc2f,68817205a84113384fffdfe3,688240a4fa1d0320840838cc,,,,,,,,,,,,,,,,,,,,,,,,,,,7,,,,,,,,,,,,,,,,,,,,,,,,,,,,,,,,,,,,,,,,,,,,1327.3853,1330.777,slightly agree,0,6,6,6,1,I try to solve my own problems rather than discussing them with others.,0,1,0,0,,
,,,,,,,,,647b94fa0a35e23330edcc2f,mexican,13 or older,click here to respond,no,2025-07-24_10h19.25.946,empathy_intonation_perc_control,2024.2.4,Win32,59.88023952,647b94fa0a35e23330edcc2f,68817205a84113384fffdfe3,688240a4fa1d0320840838cc,,,,,,,,,,,,,,,,,,,,,,,,,,,8,,,,,,,,,,,,,,,,,,,,,,,,,,,,,,,,,,,,,,,,,,,,1330.7774,1334.4101,slightly disagree,0,7,7,7,1,I find it hard to know what to do in a social situation.,1,0,0,1,,
,,,,,,,,,647b94fa0a35e23330edcc2f,mexican,13 or older,click here to respond,no,2025-07-24_10h19.25.946,empathy_intonation_perc_control,2024.2.4,Win32,59.88023952,647b94fa0a35e23330edcc2f,68817205a84113384fffdfe3,688240a4fa1d0320840838cc,,,,,,,,,,,,,,,,,,,,,,,,,,,9,,,,,,,,,,,,,,,,,,,,,,,,,,,,,,,,,,,,,,,,,,,,1334.4106,1339.3101,slightly disagree,0,8,8,8,1,I am at my best first thing in the morning.,0,1,0,0,,
,,,,,,,,,647b94fa0a35e23330edcc2f,mexican,13 or older,click here to respond,no,2025-07-24_10h19.25.946,empathy_intonation_perc_control,2024.2.4,Win32,59.88023952,647b94fa0a35e23330edcc2f,68817205a84113384fffdfe3,688240a4fa1d0320840838cc,,,,,,,,,,,,,,,,,,,,,,,,,,,10,,,,,,,,,,,,,,,,,,,,,,,,,,,,,,,,,,,,,,,,,,,,1339.311,1344.35,slightly disagree,0,9,9,9,1,People often tell me that I went too far in driving my point home in a discussion.,1,0,0,1,,
,,,,,,,,,647b94fa0a35e23330edcc2f,mexican,13 or older,click here to respond,no,2025-07-24_10h19.25.946,empathy_intonation_perc_control,2024.2.4,Win32,59.88023952,647b94fa0a35e23330edcc2f,68817205a84113384fffdfe3,688240a4fa1d0320840838cc,,,,,,,,,,,,,,,,,,,,,,,,,,,11,,,,,,,,,,,,,,,,,,,,,,,,,,,,,,,,,,,,,,,,,,,,1344.3505,1349.8098,slightly disagree,0,10,10,10,1,It doesn't bother me too much if I am late meeting a friend.,1,0,0,1,,
,,,,,,,,,647b94fa0a35e23330edcc2f,mexican,13 or older,click here to respond,no,2025-07-24_10h19.25.946,empathy_intonation_perc_control,2024.2.4,Win32,59.88023952,647b94fa0a35e23330edcc2f,68817205a84113384fffdfe3,688240a4fa1d0320840838cc,,,,,,,,,,,,,,,,,,,,,,,,,,,12,,,,,,,,,,,,,,,,,,,,,,,,,,,,,,,,,,,,,,,,,,,,1349.8106,1356.7259,slightly disagree,0,11,11,11,1,"Friendships and relationships are just too difficult, so I tend not to 
  bother with them.",1,0,0,1,,
,,,,,,,,,647b94fa0a35e23330edcc2f,mexican,13 or older,click here to respond,no,2025-07-24_10h19.25.946,empathy_intonation_perc_control,2024.2.4,Win32,59.88023952,647b94fa0a35e23330edcc2f,68817205a84113384fffdfe3,688240a4fa1d0320840838cc,,,,,,,,,,,,,,,,,,,,,,,,,,,13,,,,,,,,,,,,,,,,,,,,,,,,,,,,,,,,,,,,,,,,,,,,1356.7265,1361.9333,slightly agree,0,12,12,12,1,"I would never break a law, no matter how minor.",0,1,0,0,,
,,,,,,,,,647b94fa0a35e23330edcc2f,mexican,13 or older,click here to respond,no,2025-07-24_10h19.25.946,empathy_intonation_perc_control,2024.2.4,Win32,59.88023952,647b94fa0a35e23330edcc2f,68817205a84113384fffdfe3,688240a4fa1d0320840838cc,,,,,,,,,,,,,,,,,,,,,,,,,,,14,,,,,,,,,,,,,,,,,,,,,,,,,,,,,,,,,,,,,,,,,,,,1361.9338,1366.9421,slightly agree,0,13,13,13,1,I often find it difficult to judge if something is rude or polite.,1,0,0,1,,
,,,,,,,,,647b94fa0a35e23330edcc2f,mexican,13 or older,click here to respond,no,2025-07-24_10h19.25.946,empathy_intonation_perc_control,2024.2.4,Win32,59.88023952,647b94fa0a35e23330edcc2f,68817205a84113384fffdfe3,688240a4fa1d0320840838cc,,,,,,,,,,,,,,,,,,,,,,,,,,,15,,,,,,,,,,,,,,,,,,,,,,,,,,,,,,,,,,,,,,,,,,,,1366.9426,1371.4587,slightly disagree,0,14,14,14,1,"In a conversation, I tend to focus on my own thoughts rather than on what 
  my listener might be thinking.",1,0,0,1,,
,,,,,,,,,647b94fa0a35e23330edcc2f,mexican,13 or older,click here to respond,no,2025-07-24_10h19.25.946,empathy_intonation_perc_control,2024.2.4,Win32,59.88023952,647b94fa0a35e23330edcc2f,68817205a84113384fffdfe3,688240a4fa1d0320840838cc,,,,,,,,,,,,,,,,,,,,,,,,,,,16,,,,,,,,,,,,,,,,,,,,,,,,,,,,,,,,,,,,,,,,,,,,1371.4593,1377.5176,slightly disagree,0,15,15,15,1,I prefer practical jokes to verbal humor.,0,1,0,0,,
,,,,,,,,,647b94fa0a35e23330edcc2f,mexican,13 or older,click here to respond,no,2025-07-24_10h19.25.946,empathy_intonation_perc_control,2024.2.4,Win32,59.88023952,647b94fa0a35e23330edcc2f,68817205a84113384fffdfe3,688240a4fa1d0320840838cc,,,,,,,,,,,,,,,,,,,,,,,,,,,17,,,,,,,,,,,,,,,,,,,,,,,,,,,,,,,,,,,,,,,,,,,,1377.5181,1382.6461,slightly disagree,0,16,16,16,1,I live life for today rather than the future.,0,1,0,0,,
,,,,,,,,,647b94fa0a35e23330edcc2f,mexican,13 or older,click here to respond,no,2025-07-24_10h19.25.946,empathy_intonation_perc_control,2024.2.4,Win32,59.88023952,647b94fa0a35e23330edcc2f,68817205a84113384fffdfe3,688240a4fa1d0320840838cc,,,,,,,,,,,,,,,,,,,,,,,,,,,18,,,,,,,,,,,,,,,,,,,,,,,,,,,,,,,,,,,,,,,,,,,,1382.6468,1387.2748,strongly disagree,0,17,17,17,1,"When I was a child, I enjoyed cutting up worms to see what would happen.",1,0,0,1,,
,,,,,,,,,647b94fa0a35e23330edcc2f,mexican,13 or older,click here to respond,no,2025-07-24_10h19.25.946,empathy_intonation_perc_control,2024.2.4,Win32,59.88023952,647b94fa0a35e23330edcc2f,68817205a84113384fffdfe3,688240a4fa1d0320840838cc,,,,,,,,,,,,,,,,,,,,,,,,,,,19,,,,,,,,,,,,,,,,,,,,,,,,,,,,,,,,,,,,,,,,,,,,1387.2754,1391.5744,slightly disagree,0,18,18,18,1,I can pick up quickly if someone says one thing but means another.,1,0,1,0,,
,,,,,,,,,647b94fa0a35e23330edcc2f,mexican,13 or older,click here to respond,no,2025-07-24_10h19.25.946,empathy_intonation_perc_control,2024.2.4,Win32,59.88023952,647b94fa0a35e23330edcc2f,68817205a84113384fffdfe3,688240a4fa1d0320840838cc,,,,,,,,,,,,,,,,,,,,,,,,,,,20,,,,,,,,,,,,,,,,,,,,,,,,,,,,,,,,,,,,,,,,,,,,1391.5751,1396.2912,slightly agree,0,19,19,19,1,I tend to have very strong opinions about morality.,0,1,0,0,,
,,,,,,,,,647b94fa0a35e23330edcc2f,mexican,13 or older,click here to respond,no,2025-07-24_10h19.25.946,empathy_intonation_perc_control,2024.2.4,Win32,59.88023952,647b94fa0a35e23330edcc2f,68817205a84113384fffdfe3,688240a4fa1d0320840838cc,,,,,,,,,,,,,,,,,,,,,,,,,,,21,,,,,,,,,,,,,,,,,,,,,,,,,,,,,,,,,,,,,,,,,,,,1396.292,1399.5076,slightly agree,0,20,20,20,1,It is hard for me to see why some things upset people so much.,1,0,0,1,,
,,,,,,,,,647b94fa0a35e23330edcc2f,mexican,13 or older,click here to respond,no,2025-07-24_10h19.25.946,empathy_intonation_perc_control,2024.2.4,Win32,59.88023952,647b94fa0a35e23330edcc2f,68817205a84113384fffdfe3,688240a4fa1d0320840838cc,,,,,,,,,,,,,,,,,,,,,,,,,,,22,,,,,,,,,,,,,,,,,,,,,,,,,,,,,,,,,,,,,,,,,,,,1399.5083,1403.1286,slightly agree,0,21,21,21,1,I find it easy to put myself in somebody else's shoes.,1,0,1,0,,
,,,,,,,,,647b94fa0a35e23330edcc2f,mexican,13 or older,click here to respond,no,2025-07-24_10h19.25.946,empathy_intonation_perc_control,2024.2.4,Win32,59.88023952,647b94fa0a35e23330edcc2f,68817205a84113384fffdfe3,688240a4fa1d0320840838cc,,,,,,,,,,,,,,,,,,,,,,,,,,,23,,,,,,,,,,,,,,,,,,,,,,,,,,,,,,,,,,,,,,,,,,,,1403.1292,1409.8403,slightly agree,0,22,22,22,1,I think that good manners are the most important thing a parent can teach their child.,0,1,0,0,,
,,,,,,,,,647b94fa0a35e23330edcc2f,mexican,13 or older,click here to respond,no,2025-07-24_10h19.25.946,empathy_intonation_perc_control,2024.2.4,Win32,59.88023952,647b94fa0a35e23330edcc2f,68817205a84113384fffdfe3,688240a4fa1d0320840838cc,,,,,,,,,,,,,,,,,,,,,,,,,,,24,,,,,,,,,,,,,,,,,,,,,,,,,,,,,,,,,,,,,,,,,,,,1409.8408,1412.8615,slightly agree,0,23,23,23,1,I like to do things on the spur of the moment.,0,1,0,0,,
,,,,,,,,,647b94fa0a35e23330edcc2f,mexican,13 or older,click here to respond,no,2025-07-24_10h19.25.946,empathy_intonation_perc_control,2024.2.4,Win32,59.88023952,647b94fa0a35e23330edcc2f,68817205a84113384fffdfe3,688240a4fa1d0320840838cc,,,,,,,,,,,,,,,,,,,,,,,,,,,25,,,,,,,,,,,,,,,,,,,,,,,,,,,,,,,,,,,,,,,,,,,,1412.8619,1417.4233,slightly disagree,0,24,24,24,1,I am good at predicting how someone will feel.,1,0,1,0,,
,,,,,,,,,647b94fa0a35e23330edcc2f,mexican,13 or older,click here to respond,no,2025-07-24_10h19.25.946,empathy_intonation_perc_control,2024.2.4,Win32,59.88023952,647b94fa0a35e23330edcc2f,68817205a84113384fffdfe3,688240a4fa1d0320840838cc,,,,,,,,,,,,,,,,,,,,,,,,,,,26,,,,,,,,,,,,,,,,,,,,,,,,,,,,,,,,,,,,,,,,,,,,1417.4238,1422.8151,slightly agree,0,25,25,25,1,I am quick to spot when someone in a group is feeling awkward or uncomfortable.,1,0,1,0,,
,,,,,,,,,647b94fa0a35e23330edcc2f,mexican,13 or older,click here to respond,no,2025-07-24_10h19.25.946,empathy_intonation_perc_control,2024.2.4,Win32,59.88023952,647b94fa0a35e23330edcc2f,68817205a84113384fffdfe3,688240a4fa1d0320840838cc,,,,,,,,,,,,,,,,,,,,,,,,,,,27,,,,,,,,,,,,,,,,,,,,,,,,,,,,,,,,,,,,,,,,,,,,1422.8157,1428.6942,slightly disagree,0,26,26,26,1,"If I say something that someone else is offended by, I think that that's their problem, not mine.",1,0,0,1,,
,,,,,,,,,647b94fa0a35e23330edcc2f,mexican,13 or older,click here to respond,no,2025-07-24_10h19.25.946,empathy_intonation_perc_control,2024.2.4,Win32,59.88023952,647b94fa0a35e23330edcc2f,68817205a84113384fffdfe3,688240a4fa1d0320840838cc,,,,,,,,,,,,,,,,,,,,,,,,,,,28,,,,,,,,,,,,,,,,,,,,,,,,,,,,,,,,,,,,,,,,,,,,1428.6947,1434.0723,slightly disagree,0,27,27,27,1,"If anyone asked me if I liked their haircut, I would reply truthfully, even if I didn't like it.",1,0,0,1,,
