instructions_2afc.started,instructions_2afc.stopped,instructions_2afc_loop.thisRepN,instructions_2afc_loop.thisTrialN,instructions_2afc_loop.thisN,instructions_2afc_loop.thisIndex,instructions_2afc_loop.ran,instructions_text,continue_text,participant_id,"What variety of Spanish are you most familiar with? (e.g., Peruvian, Spanish, Mexican)",At what age did you begin learning Spanish?,Are you proficient in any languages other than English/Spanish?,"Are you familiar with Caribbean (e.g., Caribbean, Puerto Rican) or Galician Spanish?",date,expName,psychopyVersion,OS,frameRate,id,study_id,session,practice_2afc.started,practice_2afc.stopped,key_resp_2afc_practice.keys,key_resp_2afc_practice.corr,key_resp_2afc_practice.rt,key_resp_2afc_practice.duration,trials_2afc_practice_loop.thisRepN,trials_2afc_practice_loop.thisTrialN,trials_2afc_practice_loop.thisN,trials_2afc_practice_loop.thisIndex,trials_2afc_practice_loop.ran,path,correct_response,check_2afc.started,check_2afc.stopped,trial_2afc.started,trial_2afc.stopped,key_resp_2afc_trial.keys,key_resp_2afc_trial.corr,key_resp_2afc_trial.rt,key_resp_2afc_trial.duration,trials_2afc_loop.thisRepN,trials_2afc_loop.thisTrialN,trials_2afc_loop.thisN,trials_2afc_loop.thisIndex,trials_2afc_loop.ran,item_num,target,variety,instructions_lextale.started,instructions_lextale.stopped,instructions_lextale_loop.thisRepN,instructions_lextale_loop.thisTrialN,instructions_lextale_loop.thisN,instructions_lextale_loop.thisIndex,instructions_lextale_loop.ran,practice_lextale.started,practice_lextale.stopped,key_resp_lextale_practice.keys,key_resp_lextale_practice.corr,key_resp_lextale_practice.rt,key_resp_lextale_practice.duration,practice_feedback_lextale.started,practice_feedback_lextale.stopped,trials_lextale_practice_loop.thisRepN,trials_lextale_practice_loop.thisTrialN,trials_lextale_practice_loop.thisN,trials_lextale_practice_loop.thisIndex,trials_lextale_practice_loop.ran,stim,word,prac_button_real,prac_button_false,check_lextale.started,check_lextale.stopped,trial_lextale.started,trial_lextale.stopped,key_resp_lextale_trial.keys,key_resp_lextale_trial.corr,key_resp_lextale_trial.rt,key_resp_lextale_trial.duration,trials_lextale_loop.thisRepN,trials_lextale_loop.thisTrialN,trials_lextale_loop.thisN,trials_lextale_loop.thisIndex,trials_lextale_loop.ran,button_real,button_false,instructions_eq.started,instructions_eq.stopped,trial_eq.started,trial_eq.stopped,slider_eq_trial.response,trials_eq_loop.thisRepN,trials_eq_loop.thisTrialN,trials_eq_loop.thisN,trials_eq_loop.thisIndex,trials_eq_loop.ran,item,is_test_item,is_distractor,is_agree_score,is_disagree_score,end_exp.started,end_exp.stopped
0.015,2.731,0,0,0,0,1,"In the following task you are going to hear a series of utterances. 

  You will decide if the utterances sound like questions or not using your keyboard.", (press the spacebar to continue),653d144d2e894446d55babdb,spanish,13 or older,"no, only English or Spanish",no,2025-07-24_08h03.38.560,empathy_intonation_perc_control,2024.2.4,Win32,59.88023952,653d144d2e894446d55babdb,68817205a84113384fffdfe3,688220e93bd86dceab525a62,,,,,,,,,,,,,,,,,,,,,,,,,,,,,,,,,,,,,,,,,,,,,,,,,,,,,,,,,,,,,,,,,,,,,,,,,,,,,,,,,,,,,
2.7316,11.2293,0,1,1,1,1,"If you believe the utterance is a question, type '1' (for 'yes') and if you do not 
  believe it is a question type '0' (for 'no').

  Let's practice a bit...", (press the spacebar to continue),653d144d2e894446d55babdb,spanish,13 or older,"no, only English or Spanish",no,2025-07-24_08h03.38.560,empathy_intonation_perc_control,2024.2.4,Win32,59.88023952,653d144d2e894446d55babdb,68817205a84113384fffdfe3,688220e93bd86dceab525a62,,,,,,,,,,,,,,,,,,,,,,,,,,,,,,,,,,,,,,,,,,,,,,,,,,,,,,,,,,,,,,,,,,,,,,,,,,,,,,,,,,,,,
,,,,,,,,,653d144d2e894446d55babdb,spanish,13 or older,"no, only English or Spanish",no,2025-07-24_08h03.38.560,empathy_intonation_perc_control,2024.2.4,Win32,59.88023952,653d144d2e894446d55babdb,68817205a84113384fffdfe3,688220e93bd86dceab525a62,11.2379,15.2971,0,1,3.5369,,0,0,0,4,1,./stim/wavs/cuban_statement_filler_Cocinabas-por-la-noche.wav,0,,,,,,,,,,,,,,,,,,,,,,,,,,,,,,,,,,,,,,,,,,,,,,,,,,,,,,,,,,,,,,,,,,,,,,,,
,,,,,,,,,653d144d2e894446d55babdb,spanish,13 or older,"no, only English or Spanish",no,2025-07-24_08h03.38.560,empathy_intonation_perc_control,2024.2.4,Win32,59.88023952,653d144d2e894446d55babdb,68817205a84113384fffdfe3,688220e93bd86dceab525a62,15.2984,17.8137,0,1,1.9925,,0,1,1,5,1,./stim/wavs/andalusian_statement_filler_Alberto-nunca-se-afeita.wav,0,,,,,,,,,,,,,,,,,,,,,,,,,,,,,,,,,,,,,,,,,,,,,,,,,,,,,,,,,,,,,,,,,,,,,,,,
,,,,,,,,,653d144d2e894446d55babdb,spanish,13 or older,"no, only English or Spanish",no,2025-07-24_08h03.38.560,empathy_intonation_perc_control,2024.2.4,Win32,59.88023952,653d144d2e894446d55babdb,68817205a84113384fffdfe3,688220e93bd86dceab525a62,17.8148,20.5466,1,1,2.1991,,0,2,2,2,1,./stim/wavs/chilean_question_filler_Mi-padre-cantaba-bien.wav,1,,,,,,,,,,,,,,,,,,,,,,,,,,,,,,,,,,,,,,,,,,,,,,,,,,,,,,,,,,,,,,,,,,,,,,,,
,,,,,,,,,653d144d2e894446d55babdb,spanish,13 or older,"no, only English or Spanish",no,2025-07-24_08h03.38.560,empathy_intonation_perc_control,2024.2.4,Win32,59.88023952,653d144d2e894446d55babdb,68817205a84113384fffdfe3,688220e93bd86dceab525a62,20.5474,23.4128,0,1,2.3513,,0,3,3,7,1,./stim/wavs/puertorican_statement_filler_La-nina-pinta-con-su-amiga.wav,0,,,,,,,,,,,,,,,,,,,,,,,,,,,,,,,,,,,,,,,,,,,,,,,,,,,,,,,,,,,,,,,,,,,,,,,,
,,,,,,,,,653d144d2e894446d55babdb,spanish,13 or older,"no, only English or Spanish",no,2025-07-24_08h03.38.560,empathy_intonation_perc_control,2024.2.4,Win32,59.88023952,653d144d2e894446d55babdb,68817205a84113384fffdfe3,688220e93bd86dceab525a62,23.414,28.2291,1,1,4.2897,,0,4,4,1,1,./stim/wavs/argentine_question_filler_Mi-vecino-habla-mucho.wav,1,,,,,,,,,,,,,,,,,,,,,,,,,,,,,,,,,,,,,,,,,,,,,,,,,,,,,,,,,,,,,,,,,,,,,,,,
,,,,,,,,,653d144d2e894446d55babdb,spanish,13 or older,"no, only English or Spanish",no,2025-07-24_08h03.38.560,empathy_intonation_perc_control,2024.2.4,Win32,59.88023952,653d144d2e894446d55babdb,68817205a84113384fffdfe3,688220e93bd86dceab525a62,28.2304,31.68,1,1,2.9178,,0,5,5,0,1,./stim/wavs/castilian_question_filler_Mi-esposo-conoce-al-chico.wav,1,,,,,,,,,,,,,,,,,,,,,,,,,,,,,,,,,,,,,,,,,,,,,,,,,,,,,,,,,,,,,,,,,,,,,,,,
,,,,,,,,,653d144d2e894446d55babdb,spanish,13 or older,"no, only English or Spanish",no,2025-07-24_08h03.38.560,empathy_intonation_perc_control,2024.2.4,Win32,59.88023952,653d144d2e894446d55babdb,68817205a84113384fffdfe3,688220e93bd86dceab525a62,31.6809,34.2793,1,1,2.0722,,0,6,6,3,1,./stim/wavs/mexican_question_filler_Felipe-no-tiene-contrasena.wav,1,,,,,,,,,,,,,,,,,,,,,,,,,,,,,,,,,,,,,,,,,,,,,,,,,,,,,,,,,,,,,,,,,,,,,,,,
,,,,,,,,,653d144d2e894446d55babdb,spanish,13 or older,"no, only English or Spanish",no,2025-07-24_08h03.38.560,empathy_intonation_perc_control,2024.2.4,Win32,59.88023952,653d144d2e894446d55babdb,68817205a84113384fffdfe3,688220e93bd86dceab525a62,34.2807,38.0126,0,1,3.193,,0,7,7,6,1,./stim/wavs/peruvian_statement_filler_El-nino-habla-con-su-madre.wav,0,,,,,,,,,,,,,,,,,,,,,,,,,,,,,,,,,,,,,,,,,,,,,,,,,,,,,,,,,,,,,,,,,,,,,,,,
,,,,,,,,,653d144d2e894446d55babdb,spanish,13 or older,"no, only English or Spanish",no,2025-07-24_08h03.38.560,empathy_intonation_perc_control,2024.2.4,Win32,59.88023952,653d144d2e894446d55babdb,68817205a84113384fffdfe3,688220e93bd86dceab525a62,,,,,,,,,,,,,,38.0135,44.6963,,,,,,,,,,,,,,,,,,,,,,,,,,,,,,,,,,,,,,,,,,,,,,,,,,,,,,,,,,,,,,,,,,,,,,
,,,,,,,,,653d144d2e894446d55babdb,spanish,13 or older,"no, only English or Spanish",no,2025-07-24_08h03.38.560,empathy_intonation_perc_control,2024.2.4,Win32,59.88023952,653d144d2e894446d55babdb,68817205a84113384fffdfe3,688220e93bd86dceab525a62,,,,,,,,,,,,./stim/wavs/castilian_mismatch_interrogative-total-yn_La-nina-lava-el-plato.wav,1,,,44.711,47.7965,1,1,2.5671,,0,0,0,25,1,26,0,castilian,,,,,,,,,,,,,,,,,,,,,,,,,,,,,,,,,,,,,,,,,,,,,,,,,,,,,,,,
,,,,,,,,,653d144d2e894446d55babdb,spanish,13 or older,"no, only English or Spanish",no,2025-07-24_08h03.38.560,empathy_intonation_perc_control,2024.2.4,Win32,59.88023952,653d144d2e894446d55babdb,68817205a84113384fffdfe3,688220e93bd86dceab525a62,,,,,,,,,,,,./stim/wavs/castilian_match_declarative-broad-focus_Marta-abre-el-regalo.wav,0,,,47.7974,50.3017,0,1,1.9822,,0,1,1,49,1,50,0,castilian,,,,,,,,,,,,,,,,,,,,,,,,,,,,,,,,,,,,,,,,,,,,,,,,,,,,,,,,
,,,,,,,,,653d144d2e894446d55babdb,spanish,13 or older,"no, only English or Spanish",no,2025-07-24_08h03.38.560,empathy_intonation_perc_control,2024.2.4,Win32,59.88023952,653d144d2e894446d55babdb,68817205a84113384fffdfe3,688220e93bd86dceab525a62,,,,,,,,,,,,./stim/wavs/cuban_match_interrogative-total-yn_Maria-bebe-el-vino.wav,1,,,50.3026,52.6461,0,0,1.8196,,0,2,2,9,1,10,1,cuban,,,,,,,,,,,,,,,,,,,,,,,,,,,,,,,,,,,,,,,,,,,,,,,,,,,,,,,,
,,,,,,,,,653d144d2e894446d55babdb,spanish,13 or older,"no, only English or Spanish",no,2025-07-24_08h03.38.560,empathy_intonation_perc_control,2024.2.4,Win32,59.88023952,653d144d2e894446d55babdb,68817205a84113384fffdfe3,688220e93bd86dceab525a62,,,,,,,,,,,,./stim/wavs/cuban_match_declarative-broad-focus_Manuela-vende-el-carro.wav,0,,,52.6472,54.8798,0,1,1.7094,,0,3,3,52,1,53,0,cuban,,,,,,,,,,,,,,,,,,,,,,,,,,,,,,,,,,,,,,,,,,,,,,,,,,,,,,,,
,,,,,,,,,653d144d2e894446d55babdb,spanish,13 or older,"no, only English or Spanish",no,2025-07-24_08h03.38.560,empathy_intonation_perc_control,2024.2.4,Win32,59.88023952,653d144d2e894446d55babdb,68817205a84113384fffdfe3,688220e93bd86dceab525a62,,,,,,,,,,,,./stim/wavs/castilian_mismatch_interrogative-total-yn_Mi-tia-odia-la-lluvia.wav,1,,,54.8806,57.2954,1,1,1.8837,,0,4,4,28,1,29,0,castilian,,,,,,,,,,,,,,,,,,,,,,,,,,,,,,,,,,,,,,,,,,,,,,,,,,,,,,,,
,,,,,,,,,653d144d2e894446d55babdb,spanish,13 or older,"no, only English or Spanish",no,2025-07-24_08h03.38.560,empathy_intonation_perc_control,2024.2.4,Win32,59.88023952,653d144d2e894446d55babdb,68817205a84113384fffdfe3,688220e93bd86dceab525a62,,,,,,,,,,,,./stim/wavs/mexican_match_declarative-broad-focus_Mariano-habla-del-tiempo.wav,0,,,57.2966,59.6626,0,1,1.8454,,0,5,5,60,1,61,0,mexican,,,,,,,,,,,,,,,,,,,,,,,,,,,,,,,,,,,,,,,,,,,,,,,,,,,,,,,,
,,,,,,,,,653d144d2e894446d55babdb,spanish,13 or older,"no, only English or Spanish",no,2025-07-24_08h03.38.560,empathy_intonation_perc_control,2024.2.4,Win32,59.88023952,653d144d2e894446d55babdb,68817205a84113384fffdfe3,688220e93bd86dceab525a62,,,,,,,,,,,,./stim/wavs/cuban_mismatch_interrogative-total-yn_Mi-madre-come-la-fruta.wav,1,,,59.6635,62.1456,0,0,1.9453,,0,6,6,31,1,32,1,cuban,,,,,,,,,,,,,,,,,,,,,,,,,,,,,,,,,,,,,,,,,,,,,,,,,,,,,,,,
,,,,,,,,,653d144d2e894446d55babdb,spanish,13 or older,"no, only English or Spanish",no,2025-07-24_08h03.38.560,empathy_intonation_perc_control,2024.2.4,Win32,59.88023952,653d144d2e894446d55babdb,68817205a84113384fffdfe3,688220e93bd86dceab525a62,,,,,,,,,,,,./stim/wavs/puertorican_mismatch_declarative-broad-focus_La-maestra-vive-en-Paris.wav,0,,,62.1461,64.3456,0,1,1.6518,,0,7,7,86,1,87,0,puertorican,,,,,,,,,,,,,,,,,,,,,,,,,,,,,,,,,,,,,,,,,,,,,,,,,,,,,,,,
,,,,,,,,,653d144d2e894446d55babdb,spanish,13 or older,"no, only English or Spanish",no,2025-07-24_08h03.38.560,empathy_intonation_perc_control,2024.2.4,Win32,59.88023952,653d144d2e894446d55babdb,68817205a84113384fffdfe3,688220e93bd86dceab525a62,,,,,,,,,,,,./stim/wavs/castilian_match_interrogative-total-yn_Marta-abre-el-regalo.wav,1,,,64.3462,66.8128,1,1,1.9283,,0,8,8,5,1,6,0,castilian,,,,,,,,,,,,,,,,,,,,,,,,,,,,,,,,,,,,,,,,,,,,,,,,,,,,,,,,
,,,,,,,,,653d144d2e894446d55babdb,spanish,13 or older,"no, only English or Spanish",no,2025-07-24_08h03.38.560,empathy_intonation_perc_control,2024.2.4,Win32,59.88023952,653d144d2e894446d55babdb,68817205a84113384fffdfe3,688220e93bd86dceab525a62,,,,,,,,,,,,./stim/wavs/castilian_match_declarative-broad-focus_Emilio-ama-la-marcha.wav,0,,,66.8136,69.1955,0,1,1.8514,,0,9,9,45,1,46,0,castilian,,,,,,,,,,,,,,,,,,,,,,,,,,,,,,,,,,,,,,,,,,,,,,,,,,,,,,,,
,,,,,,,,,653d144d2e894446d55babdb,spanish,13 or older,"no, only English or Spanish",no,2025-07-24_08h03.38.560,empathy_intonation_perc_control,2024.2.4,Win32,59.88023952,653d144d2e894446d55babdb,68817205a84113384fffdfe3,688220e93bd86dceab525a62,,,,,,,,,,,,./stim/wavs/castilian_mismatch_declarative-broad-focus_Mi-novio-viene-del-lago.wav,0,,,69.1968,71.6122,0,1,1.8875,,0,10,10,71,1,72,0,castilian,,,,,,,,,,,,,,,,,,,,,,,,,,,,,,,,,,,,,,,,,,,,,,,,,,,,,,,,
,,,,,,,,,653d144d2e894446d55babdb,spanish,13 or older,"no, only English or Spanish",no,2025-07-24_08h03.38.560,empathy_intonation_perc_control,2024.2.4,Win32,59.88023952,653d144d2e894446d55babdb,68817205a84113384fffdfe3,688220e93bd86dceab525a62,,,,,,,,,,,,./stim/wavs/castilian_match_interrogative-total-yn_Emilio-ama-la-marcha.wav,1,,,71.6131,73.9451,1,1,1.8041,,0,11,11,1,1,2,0,castilian,,,,,,,,,,,,,,,,,,,,,,,,,,,,,,,,,,,,,,,,,,,,,,,,,,,,,,,,
,,,,,,,,,653d144d2e894446d55babdb,spanish,13 or older,"no, only English or Spanish",no,2025-07-24_08h03.38.560,empathy_intonation_perc_control,2024.2.4,Win32,59.88023952,653d144d2e894446d55babdb,68817205a84113384fffdfe3,688220e93bd86dceab525a62,,,,,,,,,,,,./stim/wavs/castilian_mismatch_declarative-broad-focus_La-maestra-vive-en-Paris.wav,0,,,73.9459,77.212,0,1,2.733,,0,12,12,69,1,70,0,castilian,,,,,,,,,,,,,,,,,,,,,,,,,,,,,,,,,,,,,,,,,,,,,,,,,,,,,,,,
,,,,,,,,,653d144d2e894446d55babdb,spanish,13 or older,"no, only English or Spanish",no,2025-07-24_08h03.38.560,empathy_intonation_perc_control,2024.2.4,Win32,59.88023952,653d144d2e894446d55babdb,68817205a84113384fffdfe3,688220e93bd86dceab525a62,,,,,,,,,,,,./stim/wavs/mexican_mismatch_interrogative-total-yn_Mi-novio-viene-del-lago.wav,1,,,77.2129,79.7955,1,1,2.053,,0,13,13,37,1,38,0,mexican,,,,,,,,,,,,,,,,,,,,,,,,,,,,,,,,,,,,,,,,,,,,,,,,,,,,,,,,
,,,,,,,,,653d144d2e894446d55babdb,spanish,13 or older,"no, only English or Spanish",no,2025-07-24_08h03.38.560,empathy_intonation_perc_control,2024.2.4,Win32,59.88023952,653d144d2e894446d55babdb,68817205a84113384fffdfe3,688220e93bd86dceab525a62,,,,,,,,,,,,./stim/wavs/cuban_mismatch_declarative-broad-focus_Mi-novio-viene-del-lago.wav,0,,,79.7964,82.3178,0,1,2.0103,,0,14,14,76,1,77,0,cuban,,,,,,,,,,,,,,,,,,,,,,,,,,,,,,,,,,,,,,,,,,,,,,,,,,,,,,,,
,,,,,,,,,653d144d2e894446d55babdb,spanish,13 or older,"no, only English or Spanish",no,2025-07-24_08h03.38.560,empathy_intonation_perc_control,2024.2.4,Win32,59.88023952,653d144d2e894446d55babdb,68817205a84113384fffdfe3,688220e93bd86dceab525a62,,,,,,,,,,,,./stim/wavs/puertorican_match_interrogative-total-yn_Maria-bebe-el-vino.wav,1,,,82.3181,86.295,0,0,3.4599,,0,15,15,23,1,24,1,puertorican,,,,,,,,,,,,,,,,,,,,,,,,,,,,,,,,,,,,,,,,,,,,,,,,,,,,,,,,
,,,,,,,,,653d144d2e894446d55babdb,spanish,13 or older,"no, only English or Spanish",no,2025-07-24_08h03.38.560,empathy_intonation_perc_control,2024.2.4,Win32,59.88023952,653d144d2e894446d55babdb,68817205a84113384fffdfe3,688220e93bd86dceab525a62,,,,,,,,,,,,./stim/wavs/mexican_match_interrogative-total-yn_Ana-lleva-el-abrigo.wav,1,,,86.2958,89.5786,1,1,2.7379,,0,16,16,12,1,13,0,mexican,,,,,,,,,,,,,,,,,,,,,,,,,,,,,,,,,,,,,,,,,,,,,,,,,,,,,,,,
,,,,,,,,,653d144d2e894446d55babdb,spanish,13 or older,"no, only English or Spanish",no,2025-07-24_08h03.38.560,empathy_intonation_perc_control,2024.2.4,Win32,59.88023952,653d144d2e894446d55babdb,68817205a84113384fffdfe3,688220e93bd86dceab525a62,,,,,,,,,,,,./stim/wavs/mexican_match_declarative-broad-focus_Marta-abre-el-regalo.wav,0,,,89.5793,93.4778,0,1,3.3836,,0,17,17,61,1,62,0,mexican,,,,,,,,,,,,,,,,,,,,,,,,,,,,,,,,,,,,,,,,,,,,,,,,,,,,,,,,
,,,,,,,,,653d144d2e894446d55babdb,spanish,13 or older,"no, only English or Spanish",no,2025-07-24_08h03.38.560,empathy_intonation_perc_control,2024.2.4,Win32,59.88023952,653d144d2e894446d55babdb,68817205a84113384fffdfe3,688220e93bd86dceab525a62,,,,,,,,,,,,./stim/wavs/puertorican_match_interrogative-total-yn_Emilio-ama-la-marcha.wav,1,,,93.4792,95.8953,0,0,1.8965,,0,18,18,21,1,22,1,puertorican,,,,,,,,,,,,,,,,,,,,,,,,,,,,,,,,,,,,,,,,,,,,,,,,,,,,,,,,
,,,,,,,,,653d144d2e894446d55babdb,spanish,13 or older,"no, only English or Spanish",no,2025-07-24_08h03.38.560,empathy_intonation_perc_control,2024.2.4,Win32,59.88023952,653d144d2e894446d55babdb,68817205a84113384fffdfe3,688220e93bd86dceab525a62,,,,,,,,,,,,./stim/wavs/mexican_mismatch_declarative-broad-focus_El-hombre-mira-la-luna.wav,0,,,95.8964,98.5114,0,1,2.0824,,0,19,19,79,1,80,0,mexican,,,,,,,,,,,,,,,,,,,,,,,,,,,,,,,,,,,,,,,,,,,,,,,,,,,,,,,,
,,,,,,,,,653d144d2e894446d55babdb,spanish,13 or older,"no, only English or Spanish",no,2025-07-24_08h03.38.560,empathy_intonation_perc_control,2024.2.4,Win32,59.88023952,653d144d2e894446d55babdb,68817205a84113384fffdfe3,688220e93bd86dceab525a62,,,,,,,,,,,,./stim/wavs/puertorican_match_interrogative-total-yn_David-leia-el-libro.wav,1,,,98.5122,102.3444,1,1,3.3017,,0,20,20,20,1,21,1,puertorican,,,,,,,,,,,,,,,,,,,,,,,,,,,,,,,,,,,,,,,,,,,,,,,,,,,,,,,,
,,,,,,,,,653d144d2e894446d55babdb,spanish,13 or older,"no, only English or Spanish",no,2025-07-24_08h03.38.560,empathy_intonation_perc_control,2024.2.4,Win32,59.88023952,653d144d2e894446d55babdb,68817205a84113384fffdfe3,688220e93bd86dceab525a62,,,,,,,,,,,,./stim/wavs/mexican_match_declarative-broad-focus_Ana-lleva-el-abrigo.wav,0,,,102.3457,104.4784,0,1,1.6019,,0,21,21,56,1,57,0,mexican,,,,,,,,,,,,,,,,,,,,,,,,,,,,,,,,,,,,,,,,,,,,,,,,,,,,,,,,
,,,,,,,,,653d144d2e894446d55babdb,spanish,13 or older,"no, only English or Spanish",no,2025-07-24_08h03.38.560,empathy_intonation_perc_control,2024.2.4,Win32,59.88023952,653d144d2e894446d55babdb,68817205a84113384fffdfe3,688220e93bd86dceab525a62,,,,,,,,,,,,./stim/wavs/cuban_mismatch_interrogative-total-yn_Mi-tia-odia-la-lluvia.wav,1,,,104.4797,106.6451,0,0,1.6343,,0,22,22,33,1,34,1,cuban,,,,,,,,,,,,,,,,,,,,,,,,,,,,,,,,,,,,,,,,,,,,,,,,,,,,,,,,
,,,,,,,,,653d144d2e894446d55babdb,spanish,13 or older,"no, only English or Spanish",no,2025-07-24_08h03.38.560,empathy_intonation_perc_control,2024.2.4,Win32,59.88023952,653d144d2e894446d55babdb,68817205a84113384fffdfe3,688220e93bd86dceab525a62,,,,,,,,,,,,./stim/wavs/mexican_mismatch_interrogative-total-yn_Mi-tia-odia-la-lluvia.wav,1,,,106.6462,110.3843,1,1,3.216,,0,23,23,38,1,39,0,mexican,,,,,,,,,,,,,,,,,,,,,,,,,,,,,,,,,,,,,,,,,,,,,,,,,,,,,,,,
,,,,,,,,,653d144d2e894446d55babdb,spanish,13 or older,"no, only English or Spanish",no,2025-07-24_08h03.38.560,empathy_intonation_perc_control,2024.2.4,Win32,59.88023952,653d144d2e894446d55babdb,68817205a84113384fffdfe3,688220e93bd86dceab525a62,,,,,,,,,,,,./stim/wavs/castilian_mismatch_interrogative-total-yn_Mi-madre-come-la-fruta.wav,1,,,110.385,112.9784,1,1,2.0736,,0,24,24,26,1,27,0,castilian,,,,,,,,,,,,,,,,,,,,,,,,,,,,,,,,,,,,,,,,,,,,,,,,,,,,,,,,
,,,,,,,,,653d144d2e894446d55babdb,spanish,13 or older,"no, only English or Spanish",no,2025-07-24_08h03.38.560,empathy_intonation_perc_control,2024.2.4,Win32,59.88023952,653d144d2e894446d55babdb,68817205a84113384fffdfe3,688220e93bd86dceab525a62,,,,,,,,,,,,./stim/wavs/cuban_mismatch_declarative-broad-focus_El-hombre-mira-la-luna.wav,0,,,112.9792,115.4779,0,1,1.9737,,0,25,25,74,1,75,0,cuban,,,,,,,,,,,,,,,,,,,,,,,,,,,,,,,,,,,,,,,,,,,,,,,,,,,,,,,,
,,,,,,,,,653d144d2e894446d55babdb,spanish,13 or older,"no, only English or Spanish",no,2025-07-24_08h03.38.560,empathy_intonation_perc_control,2024.2.4,Win32,59.88023952,653d144d2e894446d55babdb,68817205a84113384fffdfe3,688220e93bd86dceab525a62,,,,,,,,,,,,./stim/wavs/puertorican_match_declarative-broad-focus_Emilio-ama-la-marcha.wav,0,,,115.4792,117.9774,0,1,1.9749,,0,26,26,65,1,66,0,puertorican,,,,,,,,,,,,,,,,,,,,,,,,,,,,,,,,,,,,,,,,,,,,,,,,,,,,,,,,
,,,,,,,,,653d144d2e894446d55babdb,spanish,13 or older,"no, only English or Spanish",no,2025-07-24_08h03.38.560,empathy_intonation_perc_control,2024.2.4,Win32,59.88023952,653d144d2e894446d55babdb,68817205a84113384fffdfe3,688220e93bd86dceab525a62,,,,,,,,,,,,./stim/wavs/cuban_mismatch_interrogative-total-yn_El-nino-oye-el-rio.wav,1,,,117.9786,121.1277,0,0,2.6185,,0,27,27,30,1,31,1,cuban,,,,,,,,,,,,,,,,,,,,,,,,,,,,,,,,,,,,,,,,,,,,,,,,,,,,,,,,
,,,,,,,,,653d144d2e894446d55babdb,spanish,13 or older,"no, only English or Spanish",no,2025-07-24_08h03.38.560,empathy_intonation_perc_control,2024.2.4,Win32,59.88023952,653d144d2e894446d55babdb,68817205a84113384fffdfe3,688220e93bd86dceab525a62,,,,,,,,,,,,./stim/wavs/cuban_match_declarative-broad-focus_Ana-lleva-el-abrigo.wav,0,,,121.129,123.4782,0,1,1.8216,,0,28,28,50,1,51,0,cuban,,,,,,,,,,,,,,,,,,,,,,,,,,,,,,,,,,,,,,,,,,,,,,,,,,,,,,,,
,,,,,,,,,653d144d2e894446d55babdb,spanish,13 or older,"no, only English or Spanish",no,2025-07-24_08h03.38.560,empathy_intonation_perc_control,2024.2.4,Win32,59.88023952,653d144d2e894446d55babdb,68817205a84113384fffdfe3,688220e93bd86dceab525a62,,,,,,,,,,,,./stim/wavs/cuban_match_declarative-broad-focus_Daniel-iba-a-Bolivia.wav,0,,,123.479,126.0779,0,1,2.0676,,0,29,29,51,1,52,0,cuban,,,,,,,,,,,,,,,,,,,,,,,,,,,,,,,,,,,,,,,,,,,,,,,,,,,,,,,,
,,,,,,,,,653d144d2e894446d55babdb,spanish,13 or older,"no, only English or Spanish",no,2025-07-24_08h03.38.560,empathy_intonation_perc_control,2024.2.4,Win32,59.88023952,653d144d2e894446d55babdb,68817205a84113384fffdfe3,688220e93bd86dceab525a62,,,,,,,,,,,,./stim/wavs/puertorican_mismatch_declarative-broad-focus_El-hombre-mira-la-luna.wav,0,,,126.0792,128.2275,0,1,1.628,,0,30,30,84,1,85,0,puertorican,,,,,,,,,,,,,,,,,,,,,,,,,,,,,,,,,,,,,,,,,,,,,,,,,,,,,,,,
,,,,,,,,,653d144d2e894446d55babdb,spanish,13 or older,"no, only English or Spanish",no,2025-07-24_08h03.38.560,empathy_intonation_perc_control,2024.2.4,Win32,59.88023952,653d144d2e894446d55babdb,68817205a84113384fffdfe3,688220e93bd86dceab525a62,,,,,,,,,,,,./stim/wavs/castilian_match_declarative-broad-focus_David-leia-el-libro.wav,0,,,128.2284,130.661,0,1,1.9,,0,31,31,44,1,45,0,castilian,,,,,,,,,,,,,,,,,,,,,,,,,,,,,,,,,,,,,,,,,,,,,,,,,,,,,,,,
,,,,,,,,,653d144d2e894446d55babdb,spanish,13 or older,"no, only English or Spanish",no,2025-07-24_08h03.38.560,empathy_intonation_perc_control,2024.2.4,Win32,59.88023952,653d144d2e894446d55babdb,68817205a84113384fffdfe3,688220e93bd86dceab525a62,,,,,,,,,,,,./stim/wavs/puertorican_mismatch_interrogative-total-yn_La-maestra-vive-en-Paris.wav,1,,,130.6621,133.7271,0,0,2.5403,,0,32,32,41,1,42,1,puertorican,,,,,,,,,,,,,,,,,,,,,,,,,,,,,,,,,,,,,,,,,,,,,,,,,,,,,,,,
,,,,,,,,,653d144d2e894446d55babdb,spanish,13 or older,"no, only English or Spanish",no,2025-07-24_08h03.38.560,empathy_intonation_perc_control,2024.2.4,Win32,59.88023952,653d144d2e894446d55babdb,68817205a84113384fffdfe3,688220e93bd86dceab525a62,,,,,,,,,,,,./stim/wavs/puertorican_mismatch_interrogative-total-yn_El-nino-oye-el-rio.wav,1,,,133.7283,135.7935,0,0,1.5341,,0,33,33,40,1,41,1,puertorican,,,,,,,,,,,,,,,,,,,,,,,,,,,,,,,,,,,,,,,,,,,,,,,,,,,,,,,,
,,,,,,,,,653d144d2e894446d55babdb,spanish,13 or older,"no, only English or Spanish",no,2025-07-24_08h03.38.560,empathy_intonation_perc_control,2024.2.4,Win32,59.88023952,653d144d2e894446d55babdb,68817205a84113384fffdfe3,688220e93bd86dceab525a62,,,,,,,,,,,,./stim/wavs/mexican_mismatch_declarative-broad-focus_La-maestra-vive-en-Paris.wav,0,,,135.795,138.0267,0,1,1.7018,,0,34,34,80,1,81,0,mexican,,,,,,,,,,,,,,,,,,,,,,,,,,,,,,,,,,,,,,,,,,,,,,,,,,,,,,,,
,,,,,,,,,653d144d2e894446d55babdb,spanish,13 or older,"no, only English or Spanish",no,2025-07-24_08h03.38.560,empathy_intonation_perc_control,2024.2.4,Win32,59.88023952,653d144d2e894446d55babdb,68817205a84113384fffdfe3,688220e93bd86dceab525a62,,,,,,,,,,,,./stim/wavs/mexican_mismatch_interrogative-total-yn_El-hombre-mira-la-luna.wav,1,,,138.0281,140.0268,1,1,1.4673,,0,35,35,34,1,35,0,mexican,,,,,,,,,,,,,,,,,,,,,,,,,,,,,,,,,,,,,,,,,,,,,,,,,,,,,,,,
,,,,,,,,,653d144d2e894446d55babdb,spanish,13 or older,"no, only English or Spanish",no,2025-07-24_08h03.38.560,empathy_intonation_perc_control,2024.2.4,Win32,59.88023952,653d144d2e894446d55babdb,68817205a84113384fffdfe3,688220e93bd86dceab525a62,,,,,,,,,,,,./stim/wavs/puertorican_match_declarative-broad-focus_Ana-lleva-el-abrigo.wav,0,,,140.0282,141.9943,0,1,1.4325,,0,36,36,62,1,63,0,puertorican,,,,,,,,,,,,,,,,,,,,,,,,,,,,,,,,,,,,,,,,,,,,,,,,,,,,,,,,
,,,,,,,,,653d144d2e894446d55babdb,spanish,13 or older,"no, only English or Spanish",no,2025-07-24_08h03.38.560,empathy_intonation_perc_control,2024.2.4,Win32,59.88023952,653d144d2e894446d55babdb,68817205a84113384fffdfe3,688220e93bd86dceab525a62,,,,,,,,,,,,./stim/wavs/puertorican_match_interrogative-total-yn_Manuela-vende-el-carro.wav,1,,,141.9949,144.7109,1,1,2.193,,0,37,37,22,1,23,1,puertorican,,,,,,,,,,,,,,,,,,,,,,,,,,,,,,,,,,,,,,,,,,,,,,,,,,,,,,,,
,,,,,,,,,653d144d2e894446d55babdb,spanish,13 or older,"no, only English or Spanish",no,2025-07-24_08h03.38.560,empathy_intonation_perc_control,2024.2.4,Win32,59.88023952,653d144d2e894446d55babdb,68817205a84113384fffdfe3,688220e93bd86dceab525a62,,,,,,,,,,,,./stim/wavs/mexican_match_interrogative-total-yn_Daniel-iba-a-Bolivia.wav,1,,,144.7115,147.1157,1,1,1.882,,0,38,38,13,1,14,0,mexican,,,,,,,,,,,,,,,,,,,,,,,,,,,,,,,,,,,,,,,,,,,,,,,,,,,,,,,,
,,,,,,,,,653d144d2e894446d55babdb,spanish,13 or older,"no, only English or Spanish",no,2025-07-24_08h03.38.560,empathy_intonation_perc_control,2024.2.4,Win32,59.88023952,653d144d2e894446d55babdb,68817205a84113384fffdfe3,688220e93bd86dceab525a62,,,,,,,,,,,,./stim/wavs/puertorican_match_interrogative-total-yn_Daniel-iba-a-Bolivia.wav,1,,,147.1163,149.3109,0,0,1.6679,,0,39,39,19,1,20,1,puertorican,,,,,,,,,,,,,,,,,,,,,,,,,,,,,,,,,,,,,,,,,,,,,,,,,,,,,,,,
,,,,,,,,,653d144d2e894446d55babdb,spanish,13 or older,"no, only English or Spanish",no,2025-07-24_08h03.38.560,empathy_intonation_perc_control,2024.2.4,Win32,59.88023952,653d144d2e894446d55babdb,68817205a84113384fffdfe3,688220e93bd86dceab525a62,,,,,,,,,,,,./stim/wavs/mexican_mismatch_declarative-broad-focus_Mi-tia-odia-la-lluvia.wav,0,,,149.3119,152.4605,0,1,2.6207,,0,40,40,82,1,83,0,mexican,,,,,,,,,,,,,,,,,,,,,,,,,,,,,,,,,,,,,,,,,,,,,,,,,,,,,,,,
,,,,,,,,,653d144d2e894446d55babdb,spanish,13 or older,"no, only English or Spanish",no,2025-07-24_08h03.38.560,empathy_intonation_perc_control,2024.2.4,Win32,59.88023952,653d144d2e894446d55babdb,68817205a84113384fffdfe3,688220e93bd86dceab525a62,,,,,,,,,,,,./stim/wavs/castilian_mismatch_interrogative-total-yn_La-maestra-vive-en-Paris.wav,1,,,152.4621,155.144,1,1,2.1509,,0,41,41,24,1,25,0,castilian,,,,,,,,,,,,,,,,,,,,,,,,,,,,,,,,,,,,,,,,,,,,,,,,,,,,,,,,
,,,,,,,,,653d144d2e894446d55babdb,spanish,13 or older,"no, only English or Spanish",no,2025-07-24_08h03.38.560,empathy_intonation_perc_control,2024.2.4,Win32,59.88023952,653d144d2e894446d55babdb,68817205a84113384fffdfe3,688220e93bd86dceab525a62,,,,,,,,,,,,./stim/wavs/cuban_match_interrogative-total-yn_Manuela-vende-el-carro.wav,1,,,155.145,157.544,0,0,1.8855,,0,42,42,8,1,9,1,cuban,,,,,,,,,,,,,,,,,,,,,,,,,,,,,,,,,,,,,,,,,,,,,,,,,,,,,,,,
,,,,,,,,,653d144d2e894446d55babdb,spanish,13 or older,"no, only English or Spanish",no,2025-07-24_08h03.38.560,empathy_intonation_perc_control,2024.2.4,Win32,59.88023952,653d144d2e894446d55babdb,68817205a84113384fffdfe3,688220e93bd86dceab525a62,,,,,,,,,,,,./stim/wavs/mexican_match_interrogative-total-yn_Mariano-habla-del-tiempo.wav,1,,,157.5452,159.8609,1,1,1.7836,,0,43,43,16,1,17,0,mexican,,,,,,,,,,,,,,,,,,,,,,,,,,,,,,,,,,,,,,,,,,,,,,,,,,,,,,,,
,,,,,,,,,653d144d2e894446d55babdb,spanish,13 or older,"no, only English or Spanish",no,2025-07-24_08h03.38.560,empathy_intonation_perc_control,2024.2.4,Win32,59.88023952,653d144d2e894446d55babdb,68817205a84113384fffdfe3,688220e93bd86dceab525a62,,,,,,,,,,,,./stim/wavs/puertorican_match_interrogative-total-yn_Ana-lleva-el-abrigo.wav,1,,,159.8628,161.8279,1,1,1.444,,0,44,44,18,1,19,1,puertorican,,,,,,,,,,,,,,,,,,,,,,,,,,,,,,,,,,,,,,,,,,,,,,,,,,,,,,,,
,,,,,,,,,653d144d2e894446d55babdb,spanish,13 or older,"no, only English or Spanish",no,2025-07-24_08h03.38.560,empathy_intonation_perc_control,2024.2.4,Win32,59.88023952,653d144d2e894446d55babdb,68817205a84113384fffdfe3,688220e93bd86dceab525a62,,,,,,,,,,,,./stim/wavs/castilian_mismatch_interrogative-total-yn_Mi-novio-viene-del-lago.wav,1,,,161.8286,164.3772,1,1,2.0224,,0,45,45,27,1,28,0,castilian,,,,,,,,,,,,,,,,,,,,,,,,,,,,,,,,,,,,,,,,,,,,,,,,,,,,,,,,
,,,,,,,,,653d144d2e894446d55babdb,spanish,13 or older,"no, only English or Spanish",no,2025-07-24_08h03.38.560,empathy_intonation_perc_control,2024.2.4,Win32,59.88023952,653d144d2e894446d55babdb,68817205a84113384fffdfe3,688220e93bd86dceab525a62,,,,,,,,,,,,./stim/wavs/puertorican_mismatch_interrogative-total-yn_La-nina-lava-el-plato.wav,1,,,164.3785,166.9937,1,1,2.0847,,0,46,46,42,1,43,1,puertorican,,,,,,,,,,,,,,,,,,,,,,,,,,,,,,,,,,,,,,,,,,,,,,,,,,,,,,,,
,,,,,,,,,653d144d2e894446d55babdb,spanish,13 or older,"no, only English or Spanish",no,2025-07-24_08h03.38.560,empathy_intonation_perc_control,2024.2.4,Win32,59.88023952,653d144d2e894446d55babdb,68817205a84113384fffdfe3,688220e93bd86dceab525a62,,,,,,,,,,,,./stim/wavs/castilian_mismatch_declarative-broad-focus_El-nino-oye-el-rio.wav,0,,,166.9948,169.91,1,0,2.3916,,0,47,47,68,1,69,0,castilian,,,,,,,,,,,,,,,,,,,,,,,,,,,,,,,,,,,,,,,,,,,,,,,,,,,,,,,,
,,,,,,,,,653d144d2e894446d55babdb,spanish,13 or older,"no, only English or Spanish",no,2025-07-24_08h03.38.560,empathy_intonation_perc_control,2024.2.4,Win32,59.88023952,653d144d2e894446d55babdb,68817205a84113384fffdfe3,688220e93bd86dceab525a62,,,,,,,,,,,,./stim/wavs/mexican_match_interrogative-total-yn_David-leia-el-libro.wav,1,,,169.9113,172.3105,1,1,1.8674,,0,48,48,14,1,15,0,mexican,,,,,,,,,,,,,,,,,,,,,,,,,,,,,,,,,,,,,,,,,,,,,,,,,,,,,,,,
,,,,,,,,,653d144d2e894446d55babdb,spanish,13 or older,"no, only English or Spanish",no,2025-07-24_08h03.38.560,empathy_intonation_perc_control,2024.2.4,Win32,59.88023952,653d144d2e894446d55babdb,68817205a84113384fffdfe3,688220e93bd86dceab525a62,,,,,,,,,,,,./stim/wavs/cuban_match_interrogative-total-yn_Ana-lleva-el-abrigo.wav,1,,,172.3114,174.1771,1,1,1.3387,,0,49,49,6,1,7,1,cuban,,,,,,,,,,,,,,,,,,,,,,,,,,,,,,,,,,,,,,,,,,,,,,,,,,,,,,,,
,,,,,,,,,653d144d2e894446d55babdb,spanish,13 or older,"no, only English or Spanish",no,2025-07-24_08h03.38.560,empathy_intonation_perc_control,2024.2.4,Win32,59.88023952,653d144d2e894446d55babdb,68817205a84113384fffdfe3,688220e93bd86dceab525a62,,,,,,,,,,,,./stim/wavs/puertorican_mismatch_declarative-broad-focus_El-nino-oye-el-rio.wav,0,,,174.1779,175.9933,1,0,1.2895,,0,50,50,85,1,86,0,puertorican,,,,,,,,,,,,,,,,,,,,,,,,,,,,,,,,,,,,,,,,,,,,,,,,,,,,,,,,
,,,,,,,,,653d144d2e894446d55babdb,spanish,13 or older,"no, only English or Spanish",no,2025-07-24_08h03.38.560,empathy_intonation_perc_control,2024.2.4,Win32,59.88023952,653d144d2e894446d55babdb,68817205a84113384fffdfe3,688220e93bd86dceab525a62,,,,,,,,,,,,./stim/wavs/cuban_match_declarative-broad-focus_Marta-abre-el-regalo.wav,0,,,175.9946,178.4772,0,1,1.937,,0,51,51,55,1,56,0,cuban,,,,,,,,,,,,,,,,,,,,,,,,,,,,,,,,,,,,,,,,,,,,,,,,,,,,,,,,
,,,,,,,,,653d144d2e894446d55babdb,spanish,13 or older,"no, only English or Spanish",no,2025-07-24_08h03.38.560,empathy_intonation_perc_control,2024.2.4,Win32,59.88023952,653d144d2e894446d55babdb,68817205a84113384fffdfe3,688220e93bd86dceab525a62,,,,,,,,,,,,./stim/wavs/puertorican_match_declarative-broad-focus_Daniel-iba-a-Bolivia.wav,0,,,178.4783,183.043,1,0,4.0419,,0,52,52,63,1,64,0,puertorican,,,,,,,,,,,,,,,,,,,,,,,,,,,,,,,,,,,,,,,,,,,,,,,,,,,,,,,,
,,,,,,,,,653d144d2e894446d55babdb,spanish,13 or older,"no, only English or Spanish",no,2025-07-24_08h03.38.560,empathy_intonation_perc_control,2024.2.4,Win32,59.88023952,653d144d2e894446d55babdb,68817205a84113384fffdfe3,688220e93bd86dceab525a62,,,,,,,,,,,,./stim/wavs/mexican_mismatch_interrogative-total-yn_El-nino-oye-el-rio.wav,1,,,183.0446,185.0438,1,1,1.4666,,0,53,53,35,1,36,0,mexican,,,,,,,,,,,,,,,,,,,,,,,,,,,,,,,,,,,,,,,,,,,,,,,,,,,,,,,,
,,,,,,,,,653d144d2e894446d55babdb,spanish,13 or older,"no, only English or Spanish",no,2025-07-24_08h03.38.560,empathy_intonation_perc_control,2024.2.4,Win32,59.88023952,653d144d2e894446d55babdb,68817205a84113384fffdfe3,688220e93bd86dceab525a62,,,,,,,,,,,,./stim/wavs/mexican_match_interrogative-total-yn_Marta-abre-el-regalo.wav,1,,,185.0447,187.3436,1,1,1.7669,,0,54,54,17,1,18,0,mexican,,,,,,,,,,,,,,,,,,,,,,,,,,,,,,,,,,,,,,,,,,,,,,,,,,,,,,,,
,,,,,,,,,653d144d2e894446d55babdb,spanish,13 or older,"no, only English or Spanish",no,2025-07-24_08h03.38.560,empathy_intonation_perc_control,2024.2.4,Win32,59.88023952,653d144d2e894446d55babdb,68817205a84113384fffdfe3,688220e93bd86dceab525a62,,,,,,,,,,,,./stim/wavs/puertorican_mismatch_interrogative-total-yn_Mi-madre-come-la-fruta.wav,1,,,187.3446,189.6267,0,0,1.7528,,0,55,55,43,1,44,1,puertorican,,,,,,,,,,,,,,,,,,,,,,,,,,,,,,,,,,,,,,,,,,,,,,,,,,,,,,,,
,,,,,,,,,653d144d2e894446d55babdb,spanish,13 or older,"no, only English or Spanish",no,2025-07-24_08h03.38.560,empathy_intonation_perc_control,2024.2.4,Win32,59.88023952,653d144d2e894446d55babdb,68817205a84113384fffdfe3,688220e93bd86dceab525a62,,,,,,,,,,,,./stim/wavs/castilian_match_interrogative-total-yn_Maria-bebe-el-vino.wav,1,,,189.628,191.96,1,1,1.7996,,0,56,56,3,1,4,0,castilian,,,,,,,,,,,,,,,,,,,,,,,,,,,,,,,,,,,,,,,,,,,,,,,,,,,,,,,,
,,,,,,,,,653d144d2e894446d55babdb,spanish,13 or older,"no, only English or Spanish",no,2025-07-24_08h03.38.560,empathy_intonation_perc_control,2024.2.4,Win32,59.88023952,653d144d2e894446d55babdb,68817205a84113384fffdfe3,688220e93bd86dceab525a62,,,,,,,,,,,,./stim/wavs/cuban_mismatch_declarative-broad-focus_La-nina-lava-el-plato.wav,0,,,191.9608,194.1268,0,1,1.6339,,0,57,57,75,1,76,0,cuban,,,,,,,,,,,,,,,,,,,,,,,,,,,,,,,,,,,,,,,,,,,,,,,,,,,,,,,,
,,,,,,,,,653d144d2e894446d55babdb,spanish,13 or older,"no, only English or Spanish",no,2025-07-24_08h03.38.560,empathy_intonation_perc_control,2024.2.4,Win32,59.88023952,653d144d2e894446d55babdb,68817205a84113384fffdfe3,688220e93bd86dceab525a62,,,,,,,,,,,,./stim/wavs/castilian_match_declarative-broad-focus_Maria-bebe-el-vino.wav,0,,,194.1275,196.626,0,1,1.9693,,0,58,58,47,1,48,0,castilian,,,,,,,,,,,,,,,,,,,,,,,,,,,,,,,,,,,,,,,,,,,,,,,,,,,,,,,,
,,,,,,,,,653d144d2e894446d55babdb,spanish,13 or older,"no, only English or Spanish",no,2025-07-24_08h03.38.560,empathy_intonation_perc_control,2024.2.4,Win32,59.88023952,653d144d2e894446d55babdb,68817205a84113384fffdfe3,688220e93bd86dceab525a62,,,,,,,,,,,,./stim/wavs/puertorican_match_declarative-broad-focus_David-leia-el-libro.wav,0,,,196.627,198.5763,0,1,1.4227,,0,59,59,64,1,65,0,puertorican,,,,,,,,,,,,,,,,,,,,,,,,,,,,,,,,,,,,,,,,,,,,,,,,,,,,,,,,
,,,,,,,,,653d144d2e894446d55babdb,spanish,13 or older,"no, only English or Spanish",no,2025-07-24_08h03.38.560,empathy_intonation_perc_control,2024.2.4,Win32,59.88023952,653d144d2e894446d55babdb,68817205a84113384fffdfe3,688220e93bd86dceab525a62,,,,,,,,,,,,./stim/wavs/puertorican_mismatch_interrogative-total-yn_El-hombre-mira-la-luna.wav,1,,,198.5772,200.5265,1,1,1.4181,,0,60,60,39,1,40,1,puertorican,,,,,,,,,,,,,,,,,,,,,,,,,,,,,,,,,,,,,,,,,,,,,,,,,,,,,,,,
,,,,,,,,,653d144d2e894446d55babdb,spanish,13 or older,"no, only English or Spanish",no,2025-07-24_08h03.38.560,empathy_intonation_perc_control,2024.2.4,Win32,59.88023952,653d144d2e894446d55babdb,68817205a84113384fffdfe3,688220e93bd86dceab525a62,,,,,,,,,,,,./stim/wavs/puertorican_match_declarative-broad-focus_Manuela-vende-el-carro.wav,0,,,200.5277,202.9759,0,1,1.9245,,0,61,61,66,1,67,0,puertorican,,,,,,,,,,,,,,,,,,,,,,,,,,,,,,,,,,,,,,,,,,,,,,,,,,,,,,,,
,,,,,,,,,653d144d2e894446d55babdb,spanish,13 or older,"no, only English or Spanish",no,2025-07-24_08h03.38.560,empathy_intonation_perc_control,2024.2.4,Win32,59.88023952,653d144d2e894446d55babdb,68817205a84113384fffdfe3,688220e93bd86dceab525a62,,,,,,,,,,,,./stim/wavs/cuban_mismatch_interrogative-total-yn_Mi-novio-viene-del-lago.wav,1,,,202.9775,205.7932,0,0,2.2676,,0,62,62,32,1,33,1,cuban,,,,,,,,,,,,,,,,,,,,,,,,,,,,,,,,,,,,,,,,,,,,,,,,,,,,,,,,
,,,,,,,,,653d144d2e894446d55babdb,spanish,13 or older,"no, only English or Spanish",no,2025-07-24_08h03.38.560,empathy_intonation_perc_control,2024.2.4,Win32,59.88023952,653d144d2e894446d55babdb,68817205a84113384fffdfe3,688220e93bd86dceab525a62,,,,,,,,,,,,./stim/wavs/puertorican_mismatch_declarative-broad-focus_El-bebe-comia-muy-bien.wav,0,,,205.7942,208.0264,0,1,1.7077,,0,63,63,83,1,84,0,puertorican,,,,,,,,,,,,,,,,,,,,,,,,,,,,,,,,,,,,,,,,,,,,,,,,,,,,,,,,
,,,,,,,,,653d144d2e894446d55babdb,spanish,13 or older,"no, only English or Spanish",no,2025-07-24_08h03.38.560,empathy_intonation_perc_control,2024.2.4,Win32,59.88023952,653d144d2e894446d55babdb,68817205a84113384fffdfe3,688220e93bd86dceab525a62,,,,,,,,,,,,./stim/wavs/mexican_mismatch_declarative-broad-focus_El-bebe-comia-muy-bien.wav,0,,,208.0273,210.2621,0,1,1.7067,,0,64,64,78,1,79,0,mexican,,,,,,,,,,,,,,,,,,,,,,,,,,,,,,,,,,,,,,,,,,,,,,,,,,,,,,,,
,,,,,,,,,653d144d2e894446d55babdb,spanish,13 or older,"no, only English or Spanish",no,2025-07-24_08h03.38.560,empathy_intonation_perc_control,2024.2.4,Win32,59.88023952,653d144d2e894446d55babdb,68817205a84113384fffdfe3,688220e93bd86dceab525a62,,,,,,,,,,,,./stim/wavs/cuban_match_declarative-broad-focus_Mariano-habla-del-tiempo.wav,0,,,210.2627,213.0427,0,1,2.2585,,0,65,65,54,1,55,0,cuban,,,,,,,,,,,,,,,,,,,,,,,,,,,,,,,,,,,,,,,,,,,,,,,,,,,,,,,,
,,,,,,,,,653d144d2e894446d55babdb,spanish,13 or older,"no, only English or Spanish",no,2025-07-24_08h03.38.560,empathy_intonation_perc_control,2024.2.4,Win32,59.88023952,653d144d2e894446d55babdb,68817205a84113384fffdfe3,688220e93bd86dceab525a62,,,,,,,,,,,,./stim/wavs/puertorican_match_declarative-broad-focus_Maria-bebe-el-vino.wav,0,,,213.044,215.2436,0,1,1.6764,,0,66,66,67,1,68,0,puertorican,,,,,,,,,,,,,,,,,,,,,,,,,,,,,,,,,,,,,,,,,,,,,,,,,,,,,,,,
,,,,,,,,,653d144d2e894446d55babdb,spanish,13 or older,"no, only English or Spanish",no,2025-07-24_08h03.38.560,empathy_intonation_perc_control,2024.2.4,Win32,59.88023952,653d144d2e894446d55babdb,68817205a84113384fffdfe3,688220e93bd86dceab525a62,,,,,,,,,,,,./stim/wavs/cuban_match_interrogative-total-yn_Marta-abre-el-regalo.wav,1,,,215.2444,217.9927,0,0,2.2186,,0,67,67,11,1,12,1,cuban,,,,,,,,,,,,,,,,,,,,,,,,,,,,,,,,,,,,,,,,,,,,,,,,,,,,,,,,
,,,,,,,,,653d144d2e894446d55babdb,spanish,13 or older,"no, only English or Spanish",no,2025-07-24_08h03.38.560,empathy_intonation_perc_control,2024.2.4,Win32,59.88023952,653d144d2e894446d55babdb,68817205a84113384fffdfe3,688220e93bd86dceab525a62,,,,,,,,,,,,./stim/wavs/puertorican_mismatch_declarative-broad-focus_La-nina-lava-el-plato.wav,0,,,217.9937,219.9767,0,1,1.4389,,0,68,68,87,1,88,0,puertorican,,,,,,,,,,,,,,,,,,,,,,,,,,,,,,,,,,,,,,,,,,,,,,,,,,,,,,,,
,,,,,,,,,653d144d2e894446d55babdb,spanish,13 or older,"no, only English or Spanish",no,2025-07-24_08h03.38.560,empathy_intonation_perc_control,2024.2.4,Win32,59.88023952,653d144d2e894446d55babdb,68817205a84113384fffdfe3,688220e93bd86dceab525a62,,,,,,,,,,,,./stim/wavs/castilian_match_declarative-broad-focus_Manuela-vende-el-carro.wav,0,,,219.9776,222.576,0,1,2.0667,,0,69,69,46,1,47,0,castilian,,,,,,,,,,,,,,,,,,,,,,,,,,,,,,,,,,,,,,,,,,,,,,,,,,,,,,,,
,,,,,,,,,653d144d2e894446d55babdb,spanish,13 or older,"no, only English or Spanish",no,2025-07-24_08h03.38.560,empathy_intonation_perc_control,2024.2.4,Win32,59.88023952,653d144d2e894446d55babdb,68817205a84113384fffdfe3,688220e93bd86dceab525a62,,,,,,,,,,,,./stim/wavs/castilian_mismatch_declarative-broad-focus_La-nina-lava-el-plato.wav,0,,,222.577,225.2325,0,1,2.1335,,0,70,70,70,1,71,0,castilian,,,,,,,,,,,,,,,,,,,,,,,,,,,,,,,,,,,,,,,,,,,,,,,,,,,,,,,,
,,,,,,,,,653d144d2e894446d55babdb,spanish,13 or older,"no, only English or Spanish",no,2025-07-24_08h03.38.560,empathy_intonation_perc_control,2024.2.4,Win32,59.88023952,653d144d2e894446d55babdb,68817205a84113384fffdfe3,688220e93bd86dceab525a62,,,,,,,,,,,,./stim/wavs/cuban_mismatch_declarative-broad-focus_Mi-tia-odia-la-lluvia.wav,0,,,225.2333,228.0596,0,1,2.3018,,0,71,71,77,1,78,0,cuban,,,,,,,,,,,,,,,,,,,,,,,,,,,,,,,,,,,,,,,,,,,,,,,,,,,,,,,,
,,,,,,,,,653d144d2e894446d55babdb,spanish,13 or older,"no, only English or Spanish",no,2025-07-24_08h03.38.560,empathy_intonation_perc_control,2024.2.4,Win32,59.88023952,653d144d2e894446d55babdb,68817205a84113384fffdfe3,688220e93bd86dceab525a62,,,,,,,,,,,,./stim/wavs/mexican_match_declarative-broad-focus_David-leia-el-libro.wav,0,,,228.0606,232.326,0,1,3.7357,,0,72,72,58,1,59,0,mexican,,,,,,,,,,,,,,,,,,,,,,,,,,,,,,,,,,,,,,,,,,,,,,,,,,,,,,,,
,,,,,,,,,653d144d2e894446d55babdb,spanish,13 or older,"no, only English or Spanish",no,2025-07-24_08h03.38.560,empathy_intonation_perc_control,2024.2.4,Win32,59.88023952,653d144d2e894446d55babdb,68817205a84113384fffdfe3,688220e93bd86dceab525a62,,,,,,,,,,,,./stim/wavs/castilian_match_interrogative-total-yn_Mariano-habla-del-tiempo.wav,1,,,232.3271,234.8429,1,1,1.9948,,0,73,73,4,1,5,0,castilian,,,,,,,,,,,,,,,,,,,,,,,,,,,,,,,,,,,,,,,,,,,,,,,,,,,,,,,,
,,,,,,,,,653d144d2e894446d55babdb,spanish,13 or older,"no, only English or Spanish",no,2025-07-24_08h03.38.560,empathy_intonation_perc_control,2024.2.4,Win32,59.88023952,653d144d2e894446d55babdb,68817205a84113384fffdfe3,688220e93bd86dceab525a62,,,,,,,,,,,,./stim/wavs/mexican_mismatch_declarative-broad-focus_Mi-novio-viene-del-lago.wav,0,,,234.844,236.8152,0,1,1.4494,,0,74,74,81,1,82,0,mexican,,,,,,,,,,,,,,,,,,,,,,,,,,,,,,,,,,,,,,,,,,,,,,,,,,,,,,,,
,,,,,,,,,653d144d2e894446d55babdb,spanish,13 or older,"no, only English or Spanish",no,2025-07-24_08h03.38.560,empathy_intonation_perc_control,2024.2.4,Win32,59.88023952,653d144d2e894446d55babdb,68817205a84113384fffdfe3,688220e93bd86dceab525a62,,,,,,,,,,,,./stim/wavs/castilian_match_interrogative-total-yn_Manuela-vende-el-carro.wav,1,,,236.816,238.8988,1,1,1.5664,,0,75,75,2,1,3,0,castilian,,,,,,,,,,,,,,,,,,,,,,,,,,,,,,,,,,,,,,,,,,,,,,,,,,,,,,,,
,,,,,,,,,653d144d2e894446d55babdb,spanish,13 or older,"no, only English or Spanish",no,2025-07-24_08h03.38.560,empathy_intonation_perc_control,2024.2.4,Win32,59.88023952,653d144d2e894446d55babdb,68817205a84113384fffdfe3,688220e93bd86dceab525a62,,,,,,,,,,,,./stim/wavs/cuban_match_declarative-broad-focus_Maria-bebe-el-vino.wav,0,,,238.8994,240.9264,0,1,1.5007,,0,76,76,53,1,54,0,cuban,,,,,,,,,,,,,,,,,,,,,,,,,,,,,,,,,,,,,,,,,,,,,,,,,,,,,,,,
,,,,,,,,,653d144d2e894446d55babdb,spanish,13 or older,"no, only English or Spanish",no,2025-07-24_08h03.38.560,empathy_intonation_perc_control,2024.2.4,Win32,59.88023952,653d144d2e894446d55babdb,68817205a84113384fffdfe3,688220e93bd86dceab525a62,,,,,,,,,,,,./stim/wavs/mexican_match_declarative-broad-focus_Daniel-iba-a-Bolivia.wav,0,,,240.9272,243.7158,0,1,2.2664,,0,77,77,57,1,58,0,mexican,,,,,,,,,,,,,,,,,,,,,,,,,,,,,,,,,,,,,,,,,,,,,,,,,,,,,,,,
,,,,,,,,,653d144d2e894446d55babdb,spanish,13 or older,"no, only English or Spanish",no,2025-07-24_08h03.38.560,empathy_intonation_perc_control,2024.2.4,Win32,59.88023952,653d144d2e894446d55babdb,68817205a84113384fffdfe3,688220e93bd86dceab525a62,,,,,,,,,,,,./stim/wavs/cuban_mismatch_interrogative-total-yn_El-hombre-mira-la-luna.wav,1,,,243.7164,248.5127,0,0,4.2801,,0,78,78,29,1,30,1,cuban,,,,,,,,,,,,,,,,,,,,,,,,,,,,,,,,,,,,,,,,,,,,,,,,,,,,,,,,
,,,,,,,,,653d144d2e894446d55babdb,spanish,13 or older,"no, only English or Spanish",no,2025-07-24_08h03.38.560,empathy_intonation_perc_control,2024.2.4,Win32,59.88023952,653d144d2e894446d55babdb,68817205a84113384fffdfe3,688220e93bd86dceab525a62,,,,,,,,,,,,./stim/wavs/castilian_mismatch_declarative-broad-focus_Mi-tia-odia-la-lluvia.wav,0,,,248.5135,250.7422,0,1,1.7009,,0,79,79,72,1,73,0,castilian,,,,,,,,,,,,,,,,,,,,,,,,,,,,,,,,,,,,,,,,,,,,,,,,,,,,,,,,
,,,,,,,,,653d144d2e894446d55babdb,spanish,13 or older,"no, only English or Spanish",no,2025-07-24_08h03.38.560,empathy_intonation_perc_control,2024.2.4,Win32,59.88023952,653d144d2e894446d55babdb,68817205a84113384fffdfe3,688220e93bd86dceab525a62,,,,,,,,,,,,./stim/wavs/castilian_match_interrogative-total-yn_David-leia-el-libro.wav,1,,,250.7434,253.8255,1,1,2.5573,,0,80,80,0,1,1,0,castilian,,,,,,,,,,,,,,,,,,,,,,,,,,,,,,,,,,,,,,,,,,,,,,,,,,,,,,,,
,,,,,,,,,653d144d2e894446d55babdb,spanish,13 or older,"no, only English or Spanish",no,2025-07-24_08h03.38.560,empathy_intonation_perc_control,2024.2.4,Win32,59.88023952,653d144d2e894446d55babdb,68817205a84113384fffdfe3,688220e93bd86dceab525a62,,,,,,,,,,,,./stim/wavs/castilian_match_declarative-broad-focus_Mariano-habla-del-tiempo.wav,0,,,253.8266,256.4934,0,1,2.1438,,0,81,81,48,1,49,0,castilian,,,,,,,,,,,,,,,,,,,,,,,,,,,,,,,,,,,,,,,,,,,,,,,,,,,,,,,,
,,,,,,,,,653d144d2e894446d55babdb,spanish,13 or older,"no, only English or Spanish",no,2025-07-24_08h03.38.560,empathy_intonation_perc_control,2024.2.4,Win32,59.88023952,653d144d2e894446d55babdb,68817205a84113384fffdfe3,688220e93bd86dceab525a62,,,,,,,,,,,,./stim/wavs/mexican_match_declarative-broad-focus_Emilio-ama-la-marcha.wav,0,,,256.4942,258.7586,0,1,1.7401,,0,82,82,59,1,60,0,mexican,,,,,,,,,,,,,,,,,,,,,,,,,,,,,,,,,,,,,,,,,,,,,,,,,,,,,,,,
,,,,,,,,,653d144d2e894446d55babdb,spanish,13 or older,"no, only English or Spanish",no,2025-07-24_08h03.38.560,empathy_intonation_perc_control,2024.2.4,Win32,59.88023952,653d144d2e894446d55babdb,68817205a84113384fffdfe3,688220e93bd86dceab525a62,,,,,,,,,,,,./stim/wavs/mexican_match_interrogative-total-yn_Emilio-ama-la-marcha.wav,1,,,258.76,260.8091,0,0,1.5176,,0,83,83,15,1,16,0,mexican,,,,,,,,,,,,,,,,,,,,,,,,,,,,,,,,,,,,,,,,,,,,,,,,,,,,,,,,
,,,,,,,,,653d144d2e894446d55babdb,spanish,13 or older,"no, only English or Spanish",no,2025-07-24_08h03.38.560,empathy_intonation_perc_control,2024.2.4,Win32,59.88023952,653d144d2e894446d55babdb,68817205a84113384fffdfe3,688220e93bd86dceab525a62,,,,,,,,,,,,./stim/wavs/cuban_match_interrogative-total-yn_Daniel-iba-a-Bolivia.wav,1,,,260.8101,263.2087,1,1,1.8671,,0,84,84,7,1,8,1,cuban,,,,,,,,,,,,,,,,,,,,,,,,,,,,,,,,,,,,,,,,,,,,,,,,,,,,,,,,
,,,,,,,,,653d144d2e894446d55babdb,spanish,13 or older,"no, only English or Spanish",no,2025-07-24_08h03.38.560,empathy_intonation_perc_control,2024.2.4,Win32,59.88023952,653d144d2e894446d55babdb,68817205a84113384fffdfe3,688220e93bd86dceab525a62,,,,,,,,,,,,./stim/wavs/cuban_mismatch_declarative-broad-focus_El-bebe-comia-muy-bien.wav,0,,,263.2098,268.2753,0,1,4.534,,0,85,85,73,1,74,0,cuban,,,,,,,,,,,,,,,,,,,,,,,,,,,,,,,,,,,,,,,,,,,,,,,,,,,,,,,,
,,,,,,,,,653d144d2e894446d55babdb,spanish,13 or older,"no, only English or Spanish",no,2025-07-24_08h03.38.560,empathy_intonation_perc_control,2024.2.4,Win32,59.88023952,653d144d2e894446d55babdb,68817205a84113384fffdfe3,688220e93bd86dceab525a62,,,,,,,,,,,,./stim/wavs/cuban_match_interrogative-total-yn_Mariano-habla-del-tiempo.wav,1,,,268.2764,271.5254,0,0,2.7237,,0,86,86,10,1,11,1,cuban,,,,,,,,,,,,,,,,,,,,,,,,,,,,,,,,,,,,,,,,,,,,,,,,,,,,,,,,
,,,,,,,,,653d144d2e894446d55babdb,spanish,13 or older,"no, only English or Spanish",no,2025-07-24_08h03.38.560,empathy_intonation_perc_control,2024.2.4,Win32,59.88023952,653d144d2e894446d55babdb,68817205a84113384fffdfe3,688220e93bd86dceab525a62,,,,,,,,,,,,./stim/wavs/mexican_mismatch_interrogative-total-yn_La-maestra-vive-en-Paris.wav,1,,,271.5264,274.125,0,0,2.0732,,0,87,87,36,1,37,0,mexican,,,,,,,,,,,,,,,,,,,,,,,,,,,,,,,,,,,,,,,,,,,,,,,,,,,,,,,,
,,,,,,,"Great! Now we will move on. The next task consists of about 60 trials, in each of which you will see a string of letters. 
  
  Your task is to decide whether this is a real Spanish word or not.", (press the spacebar to continue),653d144d2e894446d55babdb,spanish,13 or older,"no, only English or Spanish",no,2025-07-24_08h03.38.560,empathy_intonation_perc_control,2024.2.4,Win32,59.88023952,653d144d2e894446d55babdb,68817205a84113384fffdfe3,688220e93bd86dceab525a62,,,,,,,,,,,,,,,,,,,,,,,,,,,,,,274.135,304.0423,0,0,0,0,1,,,,,,,,,,,,,,,,,,,,,,,,,,,,,,,,,,,,,,,,,,,,,,,,,
,,,,,,,"If you think it is an existing Spanish word, you type '1' (for 'REAL'), and if you think it is not an existing Spanish word, you type '0' (for 'FAKE').", (press the spacebar to continue),653d144d2e894446d55babdb,spanish,13 or older,"no, only English or Spanish",no,2025-07-24_08h03.38.560,empathy_intonation_perc_control,2024.2.4,Win32,59.88023952,653d144d2e894446d55babdb,68817205a84113384fffdfe3,688220e93bd86dceab525a62,,,,,,,,,,,,,,,,,,,,,,,,,,,,,,304.0464,305.542,0,1,1,1,1,,,,,,,,,,,,,,,,,,,,,,,,,,,,,,,,,,,,,,,,,,,,,,,,,
,,,,,,,"If you are sure that the word exists, even though you don’t know its exact meaning, you may still respond '1' (REAL). 
  
  But if you are not sure if it is an existing word, you should respond '0' (FAKE).
  
  Let's do a practice round...", (press the spacebar to continue),653d144d2e894446d55babdb,spanish,13 or older,"no, only English or Spanish",no,2025-07-24_08h03.38.560,empathy_intonation_perc_control,2024.2.4,Win32,59.88023952,653d144d2e894446d55babdb,68817205a84113384fffdfe3,688220e93bd86dceab525a62,,,,,,,,,,,,,,,,,,,,,,,,,,,,,,305.5456,307.558,0,2,2,2,1,,,,,,,,,,,,,,,,,,,,,,,,,,,,,,,,,,,,,,,,,,,,,,,,,
,,,,,,,,,653d144d2e894446d55babdb,spanish,13 or older,"no, only English or Spanish",no,2025-07-24_08h03.38.560,empathy_intonation_perc_control,2024.2.4,Win32,59.88023952,653d144d2e894446d55babdb,68817205a84113384fffdfe3,688220e93bd86dceab525a62,,,,,,,,,,,,,0,,,,,,,,,,,,,,,,,,,,,,,,307.5666,311.5421,1,0,3.4338,,311.5423,312.5421,0,0,0,0,1,0,depiste,REAL,FAKE,,,,,,,,,,,,,,,,,,,,,,,,,,,,,,,,
,,,,,,,,,653d144d2e894446d55babdb,spanish,13 or older,"no, only English or Spanish",no,2025-07-24_08h03.38.560,empathy_intonation_perc_control,2024.2.4,Win32,59.88023952,653d144d2e894446d55babdb,68817205a84113384fffdfe3,688220e93bd86dceab525a62,,,,,,,,,,,,,1,,,,,,,,,,,,,,,,,,,,,,,,312.5469,314.5582,1,1,1.468,,314.5596,315.5578,0,1,1,1,1,0,sí,REAL,FAKE,,,,,,,,,,,,,,,,,,,,,,,,,,,,,,,,
,,,,,,,,,653d144d2e894446d55babdb,spanish,13 or older,"no, only English or Spanish",no,2025-07-24_08h03.38.560,empathy_intonation_perc_control,2024.2.4,Win32,59.88023952,653d144d2e894446d55babdb,68817205a84113384fffdfe3,688220e93bd86dceab525a62,,,,,,,,,,,,,0,,,,,,,,,,,,,,,,,,,,,,,,315.5596,317.5085,0,1,1.4013,,317.5091,318.5125,0,2,2,2,1,0,coné,REAL,FAKE,,,,,,,,,,,,,,,,,,,,,,,,,,,,,,,,
,,,,,,,,,653d144d2e894446d55babdb,spanish,13 or older,"no, only English or Spanish",no,2025-07-24_08h03.38.560,empathy_intonation_perc_control,2024.2.4,Win32,59.88023952,653d144d2e894446d55babdb,68817205a84113384fffdfe3,688220e93bd86dceab525a62,,,,,,,,,,,,,0,,,,,,,,,,,,,,,,,,,,,,,,318.5139,320.6083,1,0,1.5517,,320.6092,321.6077,0,3,3,3,1,0,calpar,REAL,FAKE,,,,,,,,,,,,,,,,,,,,,,,,,,,,,,,,
,,,,,,,,,653d144d2e894446d55babdb,spanish,13 or older,"no, only English or Spanish",no,2025-07-24_08h03.38.560,empathy_intonation_perc_control,2024.2.4,Win32,59.88023952,653d144d2e894446d55babdb,68817205a84113384fffdfe3,688220e93bd86dceab525a62,,,,,,,,,,,,,0,,,,,,,,,,,,,,,,,,,,,,,,321.6093,323.3744,0,1,1.2246,,323.3756,324.3745,0,4,4,4,1,0,joten,REAL,FAKE,,,,,,,,,,,,,,,,,,,,,,,,,,,,,,,,
,,,,,,,,,653d144d2e894446d55babdb,spanish,13 or older,"no, only English or Spanish",no,2025-07-24_08h03.38.560,empathy_intonation_perc_control,2024.2.4,Win32,59.88023952,653d144d2e894446d55babdb,68817205a84113384fffdfe3,688220e93bd86dceab525a62,,,,,,,,,,,,,1,,,,,,,,,,,,,,,,,,,,,,,,324.376,326.0573,0,0,1.1426,,326.0589,327.0581,0,5,5,5,1,0,sacapuntas,REAL,FAKE,,,,,,,,,,,,,,,,,,,,,,,,,,,,,,,,
,,,,,,,,,653d144d2e894446d55babdb,spanish,13 or older,"no, only English or Spanish",no,2025-07-24_08h03.38.560,empathy_intonation_perc_control,2024.2.4,Win32,59.88023952,653d144d2e894446d55babdb,68817205a84113384fffdfe3,688220e93bd86dceab525a62,,,,,,,,,,,,,0,,,,,,,,,,,,,,,,,,,,,,,,327.0601,328.8915,0,1,1.285,,328.8925,329.8911,0,6,6,6,1,0,priba,REAL,FAKE,,,,,,,,,,,,,,,,,,,,,,,,,,,,,,,,
,,,,,,,,,653d144d2e894446d55babdb,spanish,13 or older,"no, only English or Spanish",no,2025-07-24_08h03.38.560,empathy_intonation_perc_control,2024.2.4,Win32,59.88023952,653d144d2e894446d55babdb,68817205a84113384fffdfe3,688220e93bd86dceab525a62,,,,,,,,,,,,,0,,,,,,,,,,,,,,,,,,,,,,,,329.8928,332.6747,1,0,2.2346,,332.6758,333.6746,0,7,7,7,1,0,pelasula,REAL,FAKE,,,,,,,,,,,,,,,,,,,,,,,,,,,,,,,,
,,,,,,,,,653d144d2e894446d55babdb,spanish,13 or older,"no, only English or Spanish",no,2025-07-24_08h03.38.560,empathy_intonation_perc_control,2024.2.4,Win32,59.88023952,653d144d2e894446d55babdb,68817205a84113384fffdfe3,688220e93bd86dceab525a62,,,,,,,,,,,,,1,,,,,,,,,,,,,,,,,,,,,,,,333.6765,335.29,1,1,1.071,,335.2914,336.2907,0,8,8,8,1,0,bien,REAL,FAKE,,,,,,,,,,,,,,,,,,,,,,,,,,,,,,,,
,,,,,,,,,653d144d2e894446d55babdb,spanish,13 or older,"no, only English or Spanish",no,2025-07-24_08h03.38.560,empathy_intonation_perc_control,2024.2.4,Win32,59.88023952,653d144d2e894446d55babdb,68817205a84113384fffdfe3,688220e93bd86dceab525a62,,,,,,,,,,,,,1,,,,,,,,,,,,,,,,,,,,,,,,336.2923,340.9069,1,1,4.0725,,340.9071,341.9072,0,9,9,9,1,0,casa,REAL,FAKE,,,,,,,,,,,,,,,,,,,,,,,,,,,,,,,,
,,,,,,,,,653d144d2e894446d55babdb,spanish,13 or older,"no, only English or Spanish",no,2025-07-24_08h03.38.560,empathy_intonation_perc_control,2024.2.4,Win32,59.88023952,653d144d2e894446d55babdb,68817205a84113384fffdfe3,688220e93bd86dceab525a62,,,,,,,,,,,,,0,,,,,,,,,,,,,,,,,,,,,,,,341.9091,343.3075,1,0,0.8577,,343.3087,344.3076,0,10,10,10,1,0,lejo,REAL,FAKE,,,,,,,,,,,,,,,,,,,,,,,,,,,,,,,,
,,,,,,,,,653d144d2e894446d55babdb,spanish,13 or older,"no, only English or Spanish",no,2025-07-24_08h03.38.560,empathy_intonation_perc_control,2024.2.4,Win32,59.88023952,653d144d2e894446d55babdb,68817205a84113384fffdfe3,688220e93bd86dceab525a62,,,,,,,,,,,,,0,,,,,,,,,,,,,,,,,,,,,,,,344.3091,345.8965,1,0,1.0498,,345.8966,346.8912,0,11,11,11,1,0,pretantas,REAL,FAKE,,,,,,,,,,,,,,,,,,,,,,,,,,,,,,,,
,,,,,,,,,653d144d2e894446d55babdb,spanish,13 or older,"no, only English or Spanish",no,2025-07-24_08h03.38.560,empathy_intonation_perc_control,2024.2.4,Win32,59.88023952,653d144d2e894446d55babdb,68817205a84113384fffdfe3,688220e93bd86dceab525a62,,,,,,,,,,,,,,,,,,,,,,,,,,,,,,,,,,,,,,,,,,,,,,,,,,,,,,346.8919,361.2579,,,,,,,,,,,,,,,,,,,,,,,,,,,,,,
,,,,,,,,,653d144d2e894446d55babdb,spanish,13 or older,"no, only English or Spanish",no,2025-07-24_08h03.38.560,empathy_intonation_perc_control,2024.2.4,Win32,59.88023952,653d144d2e894446d55babdb,68817205a84113384fffdfe3,688220e93bd86dceab525a62,,,,,,,,,,,,,0,,,,,,,,,,,,,,,,,,,,,,,,,,,,,,,,,,,,,74,cintro,,,,,361.2788,363.8578,1,0,2.0345,,0,0,0,73,1,REAL,FAKE,,,,,,,,,,,,,,,,,
,,,,,,,,,653d144d2e894446d55babdb,spanish,13 or older,"no, only English or Spanish",no,2025-07-24_08h03.38.560,empathy_intonation_perc_control,2024.2.4,Win32,59.88023952,653d144d2e894446d55babdb,68817205a84113384fffdfe3,688220e93bd86dceab525a62,,,,,,,,,,,,,1,,,,,,,,,,,,,,,,,,,,,,,,,,,,,,,,,,,,,83,guante,,,,,363.8598,365.7403,0,0,1.3388,,0,1,1,82,1,REAL,FAKE,,,,,,,,,,,,,,,,,
,,,,,,,,,653d144d2e894446d55babdb,spanish,13 or older,"no, only English or Spanish",no,2025-07-24_08h03.38.560,empathy_intonation_perc_control,2024.2.4,Win32,59.88023952,653d144d2e894446d55babdb,68817205a84113384fffdfe3,688220e93bd86dceab525a62,,,,,,,,,,,,,1,,,,,,,,,,,,,,,,,,,,,,,,,,,,,,,,,,,,,76,atar,,,,,365.7419,367.2069,1,1,0.9419,,0,2,2,75,1,REAL,FAKE,,,,,,,,,,,,,,,,,
,,,,,,,,,653d144d2e894446d55babdb,spanish,13 or older,"no, only English or Spanish",no,2025-07-24_08h03.38.560,empathy_intonation_perc_control,2024.2.4,Win32,59.88023952,653d144d2e894446d55babdb,68817205a84113384fffdfe3,688220e93bd86dceab525a62,,,,,,,,,,,,,1,,,,,,,,,,,,,,,,,,,,,,,,,,,,,,,,,,,,,26,secuestro,,,,,367.2085,369.0572,1,1,1.3037,,0,3,3,25,1,REAL,FAKE,,,,,,,,,,,,,,,,,
,,,,,,,,,653d144d2e894446d55babdb,spanish,13 or older,"no, only English or Spanish",no,2025-07-24_08h03.38.560,empathy_intonation_perc_control,2024.2.4,Win32,59.88023952,653d144d2e894446d55babdb,68817205a84113384fffdfe3,688220e93bd86dceab525a62,,,,,,,,,,,,,1,,,,,,,,,,,,,,,,,,,,,,,,,,,,,,,,,,,,,12,asesinato,,,,,369.0587,370.89,0,0,1.292,,0,4,4,11,1,REAL,FAKE,,,,,,,,,,,,,,,,,
,,,,,,,,,653d144d2e894446d55babdb,spanish,13 or older,"no, only English or Spanish",no,2025-07-24_08h03.38.560,empathy_intonation_perc_control,2024.2.4,Win32,59.88023952,653d144d2e894446d55babdb,68817205a84113384fffdfe3,688220e93bd86dceab525a62,,,,,,,,,,,,,0,,,,,,,,,,,,,,,,,,,,,,,,,,,,,,,,,,,,,10,antar,,,,,370.8915,372.5093,1,0,1.08,,0,5,5,9,1,REAL,FAKE,,,,,,,,,,,,,,,,,
,,,,,,,,,653d144d2e894446d55babdb,spanish,13 or older,"no, only English or Spanish",no,2025-07-24_08h03.38.560,empathy_intonation_perc_control,2024.2.4,Win32,59.88023952,653d144d2e894446d55babdb,68817205a84113384fffdfe3,688220e93bd86dceab525a62,,,,,,,,,,,,,1,,,,,,,,,,,,,,,,,,,,,,,,,,,,,,,,,,,,,5,zapato,,,,,372.511,374.8776,0,0,1.8318,,0,6,6,4,1,REAL,FAKE,,,,,,,,,,,,,,,,,
,,,,,,,,,653d144d2e894446d55babdb,spanish,13 or older,"no, only English or Spanish",no,2025-07-24_08h03.38.560,empathy_intonation_perc_control,2024.2.4,Win32,59.88023952,653d144d2e894446d55babdb,68817205a84113384fffdfe3,688220e93bd86dceab525a62,,,,,,,,,,,,,1,,,,,,,,,,,,,,,,,,,,,,,,,,,,,,,,,,,,,43,canela,,,,,374.8789,376.5569,1,1,1.1355,,0,7,7,42,1,REAL,FAKE,,,,,,,,,,,,,,,,,
,,,,,,,,,653d144d2e894446d55babdb,spanish,13 or older,"no, only English or Spanish",no,2025-07-24_08h03.38.560,empathy_intonation_perc_control,2024.2.4,Win32,59.88023952,653d144d2e894446d55babdb,68817205a84113384fffdfe3,688220e93bd86dceab525a62,,,,,,,,,,,,,1,,,,,,,,,,,,,,,,,,,,,,,,,,,,,,,,,,,,,91,click the 1 key.,,,,,376.5598,378.4404,1,1,1.3359,,0,8,8,90,1,REAL,FAKE,,,,,,,,,,,,,,,,,
,,,,,,,,,653d144d2e894446d55babdb,spanish,13 or older,"no, only English or Spanish",no,2025-07-24_08h03.38.560,empathy_intonation_perc_control,2024.2.4,Win32,59.88023952,653d144d2e894446d55babdb,68817205a84113384fffdfe3,688220e93bd86dceab525a62,,,,,,,,,,,,,1,,,,,,,,,,,,,,,,,,,,,,,,,,,,,,,,,,,,,68,alegre,,,,,378.4426,379.9923,0,0,1.0134,,0,9,9,67,1,REAL,FAKE,,,,,,,,,,,,,,,,,
,,,,,,,,,653d144d2e894446d55babdb,spanish,13 or older,"no, only English or Spanish",no,2025-07-24_08h03.38.560,empathy_intonation_perc_control,2024.2.4,Win32,59.88023952,653d144d2e894446d55babdb,68817205a84113384fffdfe3,688220e93bd86dceab525a62,,,,,,,,,,,,,0,,,,,,,,,,,,,,,,,,,,,,,,,,,,,,,,,,,,,84,escuto,,,,,379.9934,381.7235,1,0,1.1909,,0,10,10,83,1,REAL,FAKE,,,,,,,,,,,,,,,,,
,,,,,,,,,653d144d2e894446d55babdb,spanish,13 or older,"no, only English or Spanish",no,2025-07-24_08h03.38.560,empathy_intonation_perc_control,2024.2.4,Win32,59.88023952,653d144d2e894446d55babdb,68817205a84113384fffdfe3,688220e93bd86dceab525a62,,,,,,,,,,,,,1,,,,,,,,,,,,,,,,,,,,,,,,,,,,,,,,,,,,,34,aviso,,,,,381.7257,383.3069,1,1,1.0349,,0,11,11,33,1,REAL,FAKE,,,,,,,,,,,,,,,,,
,,,,,,,,,653d144d2e894446d55babdb,spanish,13 or older,"no, only English or Spanish",no,2025-07-24_08h03.38.560,empathy_intonation_perc_control,2024.2.4,Win32,59.88023952,653d144d2e894446d55babdb,68817205a84113384fffdfe3,688220e93bd86dceab525a62,,,,,,,,,,,,,0,,,,,,,,,,,,,,,,,,,,,,,,,,,,,,,,,,,,,50,flamida,,,,,383.3094,385.2908,0,1,1.4444,,0,12,12,49,1,REAL,FAKE,,,,,,,,,,,,,,,,,
,,,,,,,,,653d144d2e894446d55babdb,spanish,13 or older,"no, only English or Spanish",no,2025-07-24_08h03.38.560,empathy_intonation_perc_control,2024.2.4,Win32,59.88023952,653d144d2e894446d55babdb,68817205a84113384fffdfe3,688220e93bd86dceab525a62,,,,,,,,,,,,,1,,,,,,,,,,,,,,,,,,,,,,,,,,,,,,,,,,,,,65,bizcocho,,,,,385.292,386.657,0,0,0.8198,,0,13,13,64,1,REAL,FAKE,,,,,,,,,,,,,,,,,
,,,,,,,,,653d144d2e894446d55babdb,spanish,13 or older,"no, only English or Spanish",no,2025-07-24_08h03.38.560,empathy_intonation_perc_control,2024.2.4,Win32,59.88023952,653d144d2e894446d55babdb,68817205a84113384fffdfe3,688220e93bd86dceab525a62,,,,,,,,,,,,,0,,,,,,,,,,,,,,,,,,,,,,,,,,,,,,,,,,,,,19,brecedad,,,,,386.6583,387.957,0,1,0.756,,0,14,14,18,1,REAL,FAKE,,,,,,,,,,,,,,,,,
,,,,,,,,,653d144d2e894446d55babdb,spanish,13 or older,"no, only English or Spanish",no,2025-07-24_08h03.38.560,empathy_intonation_perc_control,2024.2.4,Win32,59.88023952,653d144d2e894446d55babdb,68817205a84113384fffdfe3,688220e93bd86dceab525a62,,,,,,,,,,,,,1,,,,,,,,,,,,,,,,,,,,,,,,,,,,,,,,,,,,,81,pozo,,,,,387.9585,389.4901,0,0,0.9867,,0,15,15,80,1,REAL,FAKE,,,,,,,,,,,,,,,,,
,,,,,,,,,653d144d2e894446d55babdb,spanish,13 or older,"no, only English or Spanish",no,2025-07-24_08h03.38.560,empathy_intonation_perc_control,2024.2.4,Win32,59.88023952,653d144d2e894446d55babdb,68817205a84113384fffdfe3,688220e93bd86dceab525a62,,,,,,,,,,,,,1,,,,,,,,,,,,,,,,,,,,,,,,,,,,,,,,,,,,,40,alfombra,,,,,389.4918,390.8902,0,0,0.8518,,0,16,16,39,1,REAL,FAKE,,,,,,,,,,,,,,,,,
,,,,,,,,,653d144d2e894446d55babdb,spanish,13 or older,"no, only English or Spanish",no,2025-07-24_08h03.38.560,empathy_intonation_perc_control,2024.2.4,Win32,59.88023952,653d144d2e894446d55babdb,68817205a84113384fffdfe3,688220e93bd86dceab525a62,,,,,,,,,,,,,1,,,,,,,,,,,,,,,,,,,,,,,,,,,,,,,,,,,,,52,camisa,,,,,390.8917,392.3908,1,1,0.952,,0,17,17,51,1,REAL,FAKE,,,,,,,,,,,,,,,,,
,,,,,,,,,653d144d2e894446d55babdb,spanish,13 or older,"no, only English or Spanish",no,2025-07-24_08h03.38.560,empathy_intonation_perc_control,2024.2.4,Win32,59.88023952,653d144d2e894446d55babdb,68817205a84113384fffdfe3,688220e93bd86dceab525a62,,,,,,,,,,,,,0,,,,,,,,,,,,,,,,,,,,,,,,,,,,,,,,,,,,,4,batillón,,,,,392.3929,393.7423,1,0,0.8135,,0,18,18,3,1,REAL,FAKE,,,,,,,,,,,,,,,,,
,,,,,,,,,653d144d2e894446d55babdb,spanish,13 or older,"no, only English or Spanish",no,2025-07-24_08h03.38.560,empathy_intonation_perc_control,2024.2.4,Win32,59.88023952,653d144d2e894446d55babdb,68817205a84113384fffdfe3,688220e93bd86dceab525a62,,,,,,,,,,,,,1,,,,,,,,,,,,,,,,,,,,,,,,,,,,,,,,,,,,,11,cenefa,,,,,393.7434,395.4232,0,0,1.136,,0,19,19,10,1,REAL,FAKE,,,,,,,,,,,,,,,,,
,,,,,,,,,653d144d2e894446d55babdb,spanish,13 or older,"no, only English or Spanish",no,2025-07-24_08h03.38.560,empathy_intonation_perc_control,2024.2.4,Win32,59.88023952,653d144d2e894446d55babdb,68817205a84113384fffdfe3,688220e93bd86dceab525a62,,,,,,,,,,,,,1,,,,,,,,,,,,,,,,,,,,,,,,,,,,,,,,,,,,,86,barato,,,,,395.4249,396.9232,1,1,0.9552,,0,20,20,85,1,REAL,FAKE,,,,,,,,,,,,,,,,,
,,,,,,,,,653d144d2e894446d55babdb,spanish,13 or older,"no, only English or Spanish",no,2025-07-24_08h03.38.560,empathy_intonation_perc_control,2024.2.4,Win32,59.88023952,653d144d2e894446d55babdb,68817205a84113384fffdfe3,688220e93bd86dceab525a62,,,,,,,,,,,,,0,,,,,,,,,,,,,,,,,,,,,,,,,,,,,,,,,,,,,27,acutación,,,,,396.925,398.3234,0,1,0.852,,0,21,21,26,1,REAL,FAKE,,,,,,,,,,,,,,,,,
,,,,,,,,,653d144d2e894446d55babdb,spanish,13 or older,"no, only English or Spanish",no,2025-07-24_08h03.38.560,empathy_intonation_perc_control,2024.2.4,Win32,59.88023952,653d144d2e894446d55babdb,68817205a84113384fffdfe3,688220e93bd86dceab525a62,,,,,,,,,,,,,0,,,,,,,,,,,,,,,,,,,,,,,,,,,,,,,,,,,,,1,terzo,,,,,398.3249,399.6402,1,0,0.7681,,0,22,22,0,1,REAL,FAKE,,,,,,,,,,,,,,,,,
,,,,,,,,,653d144d2e894446d55babdb,spanish,13 or older,"no, only English or Spanish",no,2025-07-24_08h03.38.560,empathy_intonation_perc_control,2024.2.4,Win32,59.88023952,653d144d2e894446d55babdb,68817205a84113384fffdfe3,688220e93bd86dceab525a62,,,,,,,,,,,,,1,,,,,,,,,,,,,,,,,,,,,,,,,,,,,,,,,,,,,80,hormiga,,,,,399.6417,400.9902,1,1,0.8041,,0,23,23,79,1,REAL,FAKE,,,,,,,,,,,,,,,,,
,,,,,,,,,653d144d2e894446d55babdb,spanish,13 or older,"no, only English or Spanish",no,2025-07-24_08h03.38.560,empathy_intonation_perc_control,2024.2.4,Win32,59.88023952,653d144d2e894446d55babdb,68817205a84113384fffdfe3,688220e93bd86dceab525a62,,,,,,,,,,,,,1,,,,,,,,,,,,,,,,,,,,,,,,,,,,,,,,,,,,,88,acantilado,,,,,400.9912,402.8729,0,0,1.3347,,0,24,24,87,1,REAL,FAKE,,,,,,,,,,,,,,,,,
,,,,,,,,,653d144d2e894446d55babdb,spanish,13 or older,"no, only English or Spanish",no,2025-07-24_08h03.38.560,empathy_intonation_perc_control,2024.2.4,Win32,59.88023952,653d144d2e894446d55babdb,68817205a84113384fffdfe3,688220e93bd86dceab525a62,,,,,,,,,,,,,1,,,,,,,,,,,,,,,,,,,,,,,,,,,,,,,,,,,,,69,engatusar,,,,,402.8746,404.3231,0,0,0.9016,,0,25,25,68,1,REAL,FAKE,,,,,,,,,,,,,,,,,
,,,,,,,,,653d144d2e894446d55babdb,spanish,13 or older,"no, only English or Spanish",no,2025-07-24_08h03.38.560,empathy_intonation_perc_control,2024.2.4,Win32,59.88023952,653d144d2e894446d55babdb,68817205a84113384fffdfe3,688220e93bd86dceab525a62,,,,,,,,,,,,,1,,,,,,,,,,,,,,,,,,,,,,,,,,,,,,,,,,,,,89,prisa,,,,,404.3245,405.6907,1,1,0.8179,,0,26,26,88,1,REAL,FAKE,,,,,,,,,,,,,,,,,
,,,,,,,,,653d144d2e894446d55babdb,spanish,13 or older,"no, only English or Spanish",no,2025-07-24_08h03.38.560,empathy_intonation_perc_control,2024.2.4,Win32,59.88023952,653d144d2e894446d55babdb,68817205a84113384fffdfe3,688220e93bd86dceab525a62,,,,,,,,,,,,,1,,,,,,,,,,,,,,,,,,,,,,,,,,,,,,,,,,,,,73,hervidor,,,,,405.6918,407.142,0,0,0.9133,,0,27,27,72,1,REAL,FAKE,,,,,,,,,,,,,,,,,
,,,,,,,,,653d144d2e894446d55babdb,spanish,13 or older,"no, only English or Spanish",no,2025-07-24_08h03.38.560,empathy_intonation_perc_control,2024.2.4,Win32,59.88023952,653d144d2e894446d55babdb,68817205a84113384fffdfe3,688220e93bd86dceab525a62,,,,,,,,,,,,,0,,,,,,,,,,,,,,,,,,,,,,,,,,,,,,,,,,,,,72,pemición,,,,,407.1431,408.3402,0,1,0.6512,,0,28,28,71,1,REAL,FAKE,,,,,,,,,,,,,,,,,
,,,,,,,,,653d144d2e894446d55babdb,spanish,13 or older,"no, only English or Spanish",no,2025-07-24_08h03.38.560,empathy_intonation_perc_control,2024.2.4,Win32,59.88023952,653d144d2e894446d55babdb,68817205a84113384fffdfe3,688220e93bd86dceab525a62,,,,,,,,,,,,,1,,,,,,,,,,,,,,,,,,,,,,,,,,,,,,,,,,,,,71,polvoriento,,,,,408.3415,409.6397,0,0,0.753,,0,29,29,70,1,REAL,FAKE,,,,,,,,,,,,,,,,,
,,,,,,,,,653d144d2e894446d55babdb,spanish,13 or older,"no, only English or Spanish",no,2025-07-24_08h03.38.560,empathy_intonation_perc_control,2024.2.4,Win32,59.88023952,653d144d2e894446d55babdb,68817205a84113384fffdfe3,688220e93bd86dceab525a62,,,,,,,,,,,,,1,,,,,,,,,,,,,,,,,,,,,,,,,,,,,,,,,,,,,25,bisagra,,,,,409.6411,410.878,0,0,0.6986,,0,30,30,24,1,REAL,FAKE,,,,,,,,,,,,,,,,,
,,,,,,,,,653d144d2e894446d55babdb,spanish,13 or older,"no, only English or Spanish",no,2025-07-24_08h03.38.560,empathy_intonation_perc_control,2024.2.4,Win32,59.88023952,653d144d2e894446d55babdb,68817205a84113384fffdfe3,688220e93bd86dceab525a62,,,,,,,,,,,,,1,,,,,,,,,,,,,,,,,,,,,,,,,,,,,,,,,,,,,7,pésimo,,,,,410.8791,412.0731,0,0,0.6603,,0,31,31,6,1,REAL,FAKE,,,,,,,,,,,,,,,,,
,,,,,,,,,653d144d2e894446d55babdb,spanish,13 or older,"no, only English or Spanish",no,2025-07-24_08h03.38.560,empathy_intonation_perc_control,2024.2.4,Win32,59.88023952,653d144d2e894446d55babdb,68817205a84113384fffdfe3,688220e93bd86dceab525a62,,,,,,,,,,,,,0,,,,,,,,,,,,,,,,,,,,,,,,,,,,,,,,,,,,,63,esposante,,,,,412.0744,413.5387,0,1,0.9201,,0,32,32,62,1,REAL,FAKE,,,,,,,,,,,,,,,,,
,,,,,,,,,653d144d2e894446d55babdb,spanish,13 or older,"no, only English or Spanish",no,2025-07-24_08h03.38.560,empathy_intonation_perc_control,2024.2.4,Win32,59.88023952,653d144d2e894446d55babdb,68817205a84113384fffdfe3,688220e93bd86dceab525a62,,,,,,,,,,,,,1,,,,,,,,,,,,,,,,,,,,,,,,,,,,,,,,,,,,,90,clavel,,,,,413.5404,415.2075,0,0,1.1298,,0,33,33,89,1,REAL,FAKE,,,,,,,,,,,,,,,,,
,,,,,,,,,653d144d2e894446d55babdb,spanish,13 or older,"no, only English or Spanish",no,2025-07-24_08h03.38.560,empathy_intonation_perc_control,2024.2.4,Win32,59.88023952,653d144d2e894446d55babdb,68817205a84113384fffdfe3,688220e93bd86dceab525a62,,,,,,,,,,,,,1,,,,,,,,,,,,,,,,,,,,,,,,,,,,,,,,,,,,,13,helar,,,,,415.2082,416.4556,1,1,0.7013,,0,34,34,12,1,REAL,FAKE,,,,,,,,,,,,,,,,,
,,,,,,,,,653d144d2e894446d55babdb,spanish,13 or older,"no, only English or Spanish",no,2025-07-24_08h03.38.560,empathy_intonation_perc_control,2024.2.4,Win32,59.88023952,653d144d2e894446d55babdb,68817205a84113384fffdfe3,688220e93bd86dceab525a62,,,,,,,,,,,,,0,,,,,,,,,,,,,,,,,,,,,,,,,,,,,,,,,,,,,18,arsa,,,,,416.4572,417.6556,1,0,0.6768,,0,35,35,17,1,REAL,FAKE,,,,,,,,,,,,,,,,,
,,,,,,,,,653d144d2e894446d55babdb,spanish,13 or older,"no, only English or Spanish",no,2025-07-24_08h03.38.560,empathy_intonation_perc_control,2024.2.4,Win32,59.88023952,653d144d2e894446d55babdb,68817205a84113384fffdfe3,688220e93bd86dceab525a62,,,,,,,,,,,,,1,,,,,,,,,,,,,,,,,,,,,,,,,,,,,,,,,,,,,85,laúd,,,,,417.6578,419.3062,0,0,1.1019,,0,36,36,84,1,REAL,FAKE,,,,,,,,,,,,,,,,,
,,,,,,,,,653d144d2e894446d55babdb,spanish,13 or older,"no, only English or Spanish",no,2025-07-24_08h03.38.560,empathy_intonation_perc_control,2024.2.4,Win32,59.88023952,653d144d2e894446d55babdb,68817205a84113384fffdfe3,688220e93bd86dceab525a62,,,,,,,,,,,,,1,,,,,,,,,,,,,,,,,,,,,,,,,,,,,,,,,,,,,24,látigo,,,,,419.3086,420.706,1,1,0.8511,,0,37,37,23,1,REAL,FAKE,,,,,,,,,,,,,,,,,
,,,,,,,,,653d144d2e894446d55babdb,spanish,13 or older,"no, only English or Spanish",no,2025-07-24_08h03.38.560,empathy_intonation_perc_control,2024.2.4,Win32,59.88023952,653d144d2e894446d55babdb,68817205a84113384fffdfe3,688220e93bd86dceab525a62,,,,,,,,,,,,,1,,,,,,,,,,,,,,,,,,,,,,,,,,,,,,,,,,,,,38,estornudar,,,,,420.7076,422.3395,0,0,1.0912,,0,38,38,37,1,REAL,FAKE,,,,,,,,,,,,,,,,,
,,,,,,,,,653d144d2e894446d55babdb,spanish,13 or older,"no, only English or Spanish",no,2025-07-24_08h03.38.560,empathy_intonation_perc_control,2024.2.4,Win32,59.88023952,653d144d2e894446d55babdb,68817205a84113384fffdfe3,688220e93bd86dceab525a62,,,,,,,,,,,,,1,,,,,,,,,,,,,,,,,,,,,,,,,,,,,,,,,,,,,6,tergiversar,,,,,422.341,424.9392,0,0,2.0581,,0,39,39,5,1,REAL,FAKE,,,,,,,,,,,,,,,,,
,,,,,,,,,653d144d2e894446d55babdb,spanish,13 or older,"no, only English or Spanish",no,2025-07-24_08h03.38.560,empathy_intonation_perc_control,2024.2.4,Win32,59.88023952,653d144d2e894446d55babdb,68817205a84113384fffdfe3,688220e93bd86dceab525a62,,,,,,,,,,,,,1,,,,,,,,,,,,,,,,,,,,,,,,,,,,,,,,,,,,,22,lacayo,,,,,424.9408,426.6225,0,0,1.1355,,0,40,40,21,1,REAL,FAKE,,,,,,,,,,,,,,,,,
,,,,,,,,,653d144d2e894446d55babdb,spanish,13 or older,"no, only English or Spanish",no,2025-07-24_08h03.38.560,empathy_intonation_perc_control,2024.2.4,Win32,59.88023952,653d144d2e894446d55babdb,68817205a84113384fffdfe3,688220e93bd86dceab525a62,,,,,,,,,,,,,1,,,,,,,,,,,,,,,,,,,,,,,,,,,,,,,,,,,,,78,frondoso,,,,,426.6246,428.1728,0,0,1.0057,,0,41,41,77,1,REAL,FAKE,,,,,,,,,,,,,,,,,
,,,,,,,,,653d144d2e894446d55babdb,spanish,13 or older,"no, only English or Spanish",no,2025-07-24_08h03.38.560,empathy_intonation_perc_control,2024.2.4,Win32,59.88023952,653d144d2e894446d55babdb,68817205a84113384fffdfe3,688220e93bd86dceab525a62,,,,,,,,,,,,,1,,,,,,,,,,,,,,,,,,,,,,,,,,,,,,,,,,,,,61,seda,,,,,428.1742,429.7231,1,1,1.0026,,0,42,42,60,1,REAL,FAKE,,,,,,,,,,,,,,,,,
,,,,,,,,,653d144d2e894446d55babdb,spanish,13 or older,"no, only English or Spanish",no,2025-07-24_08h03.38.560,empathy_intonation_perc_control,2024.2.4,Win32,59.88023952,653d144d2e894446d55babdb,68817205a84113384fffdfe3,688220e93bd86dceab525a62,,,,,,,,,,,,,0,,,,,,,,,,,,,,,,,,,,,,,,,,,,,,,,,,,,,47,cartinar,,,,,429.7247,432.0479,1,0,1.576,0.1026,0,43,43,46,1,REAL,FAKE,,,,,,,,,,,,,,,,,
,,,,,,,,,653d144d2e894446d55babdb,spanish,13 or older,"no, only English or Spanish",no,2025-07-24_08h03.38.560,empathy_intonation_perc_control,2024.2.4,Win32,59.88023952,653d144d2e894446d55babdb,68817205a84113384fffdfe3,688220e93bd86dceab525a62,,,,,,,,,,,,,1,,,,,,,,,,,,,,,,,,,,,,,,,,,,,,,,,,,,,46,martillo,,,,,432.0497,433.8218,0,0,1.2342,,0,44,44,45,1,REAL,FAKE,,,,,,,,,,,,,,,,,
,,,,,,,,,653d144d2e894446d55babdb,spanish,13 or older,"no, only English or Spanish",no,2025-07-24_08h03.38.560,empathy_intonation_perc_control,2024.2.4,Win32,59.88023952,653d144d2e894446d55babdb,68817205a84113384fffdfe3,688220e93bd86dceab525a62,,,,,,,,,,,,,0,,,,,,,,,,,,,,,,,,,,,,,,,,,,,,,,,,,,,42,cadallo,,,,,433.8233,435.2719,1,0,0.9093,,0,45,45,41,1,REAL,FAKE,,,,,,,,,,,,,,,,,
,,,,,,,,,653d144d2e894446d55babdb,spanish,13 or older,"no, only English or Spanish",no,2025-07-24_08h03.38.560,empathy_intonation_perc_control,2024.2.4,Win32,59.88023952,653d144d2e894446d55babdb,68817205a84113384fffdfe3,688220e93bd86dceab525a62,,,,,,,,,,,,,0,,,,,,,,,,,,,,,,,,,,,,,,,,,,,,,,,,,,,17,floroso,,,,,435.2737,436.7272,1,0,0.9153,,0,46,46,16,1,REAL,FAKE,,,,,,,,,,,,,,,,,
,,,,,,,,,653d144d2e894446d55babdb,spanish,13 or older,"no, only English or Spanish",no,2025-07-24_08h03.38.560,empathy_intonation_perc_control,2024.2.4,Win32,59.88023952,653d144d2e894446d55babdb,68817205a84113384fffdfe3,688220e93bd86dceab525a62,,,,,,,,,,,,,0,,,,,,,,,,,,,,,,,,,,,,,,,,,,,,,,,,,,,79,tropaje,,,,,436.7284,438.0233,0,1,0.7615,,0,47,47,78,1,REAL,FAKE,,,,,,,,,,,,,,,,,
,,,,,,,,,653d144d2e894446d55babdb,spanish,13 or older,"no, only English or Spanish",no,2025-07-24_08h03.38.560,empathy_intonation_perc_control,2024.2.4,Win32,59.88023952,653d144d2e894446d55babdb,68817205a84113384fffdfe3,688220e93bd86dceab525a62,,,,,,,,,,,,,1,,,,,,,,,,,,,,,,,,,,,,,,,,,,,,,,,,,,,67,cabello,,,,,438.0245,439.345,1,1,0.8002,,0,48,48,66,1,REAL,FAKE,,,,,,,,,,,,,,,,,
,,,,,,,,,653d144d2e894446d55babdb,spanish,13 or older,"no, only English or Spanish",no,2025-07-24_08h03.38.560,empathy_intonation_perc_control,2024.2.4,Win32,59.88023952,653d144d2e894446d55babdb,68817205a84113384fffdfe3,688220e93bd86dceab525a62,,,,,,,,,,,,,1,,,,,,,,,,,,,,,,,,,,,,,,,,,,,,,,,,,,,51,candado,,,,,439.3461,440.6223,1,1,0.7346,,0,49,49,50,1,REAL,FAKE,,,,,,,,,,,,,,,,,
,,,,,,,,,653d144d2e894446d55babdb,spanish,13 or older,"no, only English or Spanish",no,2025-07-24_08h03.38.560,empathy_intonation_perc_control,2024.2.4,Win32,59.88023952,653d144d2e894446d55babdb,68817205a84113384fffdfe3,688220e93bd86dceab525a62,,,,,,,,,,,,,1,,,,,,,,,,,,,,,,,,,,,,,,,,,,,,,,,,,,,64,orgulloso,,,,,440.6243,441.939,0,0,0.7748,,0,50,50,63,1,REAL,FAKE,,,,,,,,,,,,,,,,,
,,,,,,,,,653d144d2e894446d55babdb,spanish,13 or older,"no, only English or Spanish",no,2025-07-24_08h03.38.560,empathy_intonation_perc_control,2024.2.4,Win32,59.88023952,653d144d2e894446d55babdb,68817205a84113384fffdfe3,688220e93bd86dceab525a62,,,,,,,,,,,,,0,,,,,,,,,,,,,,,,,,,,,,,,,,,,,,,,,,,,,92,click the 0 key.,,,,,441.9408,443.4227,0,1,0.9372,,0,51,51,91,1,REAL,FAKE,,,,,,,,,,,,,,,,,
,,,,,,,,,653d144d2e894446d55babdb,spanish,13 or older,"no, only English or Spanish",no,2025-07-24_08h03.38.560,empathy_intonation_perc_control,2024.2.4,Win32,59.88023952,653d144d2e894446d55babdb,68817205a84113384fffdfe3,688220e93bd86dceab525a62,,,,,,,,,,,,,1,,,,,,,,,,,,,,,,,,,,,,,,,,,,,,,,,,,,,75,yacer,,,,,443.4246,445.1394,1,1,1.1699,,0,52,52,74,1,REAL,FAKE,,,,,,,,,,,,,,,,,
,,,,,,,,,653d144d2e894446d55babdb,spanish,13 or older,"no, only English or Spanish",no,2025-07-24_08h03.38.560,empathy_intonation_perc_control,2024.2.4,Win32,59.88023952,653d144d2e894446d55babdb,68817205a84113384fffdfe3,688220e93bd86dceab525a62,,,,,,,,,,,,,0,,,,,,,,,,,,,,,,,,,,,,,,,,,,,,,,,,,,,33,pauca,,,,,445.1411,447.6884,0,1,2.009,,0,53,53,32,1,REAL,FAKE,,,,,,,,,,,,,,,,,
,,,,,,,,,653d144d2e894446d55babdb,spanish,13 or older,"no, only English or Spanish",no,2025-07-24_08h03.38.560,empathy_intonation_perc_control,2024.2.4,Win32,59.88023952,653d144d2e894446d55babdb,68817205a84113384fffdfe3,688220e93bd86dceab525a62,,,,,,,,,,,,,1,,,,,,,,,,,,,,,,,,,,,,,,,,,,,,,,,,,,,55,nevar,,,,,447.6905,450.0723,0,0,1.8386,,0,54,54,54,1,REAL,FAKE,,,,,,,,,,,,,,,,,
,,,,,,,,,653d144d2e894446d55babdb,spanish,13 or older,"no, only English or Spanish",no,2025-07-24_08h03.38.560,empathy_intonation_perc_control,2024.2.4,Win32,59.88023952,653d144d2e894446d55babdb,68817205a84113384fffdfe3,688220e93bd86dceab525a62,,,,,,,,,,,,,0,,,,,,,,,,,,,,,,,,,,,,,,,,,,,,,,,,,,,16,abracer,,,,,450.0738,451.8392,1,0,1.2233,,0,55,55,15,1,REAL,FAKE,,,,,,,,,,,,,,,,,
,,,,,,,,,653d144d2e894446d55babdb,spanish,13 or older,"no, only English or Spanish",no,2025-07-24_08h03.38.560,empathy_intonation_perc_control,2024.2.4,Win32,59.88023952,653d144d2e894446d55babdb,68817205a84113384fffdfe3,688220e93bd86dceab525a62,,,,,,,,,,,,,1,,,,,,,,,,,,,,,,,,,,,,,,,,,,,,,,,,,,,54,fomentar,,,,,451.8404,453.7387,0,0,1.36,,0,56,56,53,1,REAL,FAKE,,,,,,,,,,,,,,,,,
,,,,,,,,,653d144d2e894446d55babdb,spanish,13 or older,"no, only English or Spanish",no,2025-07-24_08h03.38.560,empathy_intonation_perc_control,2024.2.4,Win32,59.88023952,653d144d2e894446d55babdb,68817205a84113384fffdfe3,688220e93bd86dceab525a62,,,,,,,,,,,,,1,,,,,,,,,,,,,,,,,,,,,,,,,,,,,,,,,,,,,39,torpe,,,,,453.7405,455.2891,0,0,1.0016,,0,57,57,38,1,REAL,FAKE,,,,,,,,,,,,,,,,,
,,,,,,,,,653d144d2e894446d55babdb,spanish,13 or older,"no, only English or Spanish",no,2025-07-24_08h03.38.560,empathy_intonation_perc_control,2024.2.4,Win32,59.88023952,653d144d2e894446d55babdb,68817205a84113384fffdfe3,688220e93bd86dceab525a62,,,,,,,,,,,,,1,,,,,,,,,,,,,,,,,,,,,,,,,,,,,,,,,,,,,44,cuchara,,,,,455.2906,457.0055,0,0,1.1679,,0,58,58,43,1,REAL,FAKE,,,,,,,,,,,,,,,,,
,,,,,,,,,653d144d2e894446d55babdb,spanish,13 or older,"no, only English or Spanish",no,2025-07-24_08h03.38.560,empathy_intonation_perc_control,2024.2.4,Win32,59.88023952,653d144d2e894446d55babdb,68817205a84113384fffdfe3,688220e93bd86dceab525a62,,,,,,,,,,,,,1,,,,,,,,,,,,,,,,,,,,,,,,,,,,,,,,,,,,,36,loro,,,,,457.0069,458.4391,1,1,0.8852,,0,59,59,35,1,REAL,FAKE,,,,,,,,,,,,,,,,,
,,,,,,,,,653d144d2e894446d55babdb,spanish,13 or older,"no, only English or Spanish",no,2025-07-24_08h03.38.560,empathy_intonation_perc_control,2024.2.4,Win32,59.88023952,653d144d2e894446d55babdb,68817205a84113384fffdfe3,688220e93bd86dceab525a62,,,,,,,,,,,,,1,,,,,,,,,,,,,,,,,,,,,,,,,,,,,,,,,,,,,49,ganar,,,,,458.4402,459.9223,1,1,0.9405,,0,60,60,48,1,REAL,FAKE,,,,,,,,,,,,,,,,,
,,,,,,,,,653d144d2e894446d55babdb,spanish,13 or older,"no, only English or Spanish",no,2025-07-24_08h03.38.560,empathy_intonation_perc_control,2024.2.4,Win32,59.88023952,653d144d2e894446d55babdb,68817205a84113384fffdfe3,688220e93bd86dceab525a62,,,,,,,,,,,,,1,,,,,,,,,,,,,,,,,,,,,,,,,,,,,,,,,,,,,28,merodear,,,,,459.9296,461.5555,1,1,1.0874,,0,61,61,27,1,REAL,FAKE,,,,,,,,,,,,,,,,,
,,,,,,,,,653d144d2e894446d55babdb,spanish,13 or older,"no, only English or Spanish",no,2025-07-24_08h03.38.560,empathy_intonation_perc_control,2024.2.4,Win32,59.88023952,653d144d2e894446d55babdb,68817205a84113384fffdfe3,688220e93bd86dceab525a62,,,,,,,,,,,,,1,,,,,,,,,,,,,,,,,,,,,,,,,,,,,,,,,,,,,15,regar,,,,,461.5567,462.8217,1,1,0.727,,0,62,62,14,1,REAL,FAKE,,,,,,,,,,,,,,,,,
,,,,,,,,,653d144d2e894446d55babdb,spanish,13 or older,"no, only English or Spanish",no,2025-07-24_08h03.38.560,empathy_intonation_perc_control,2024.2.4,Win32,59.88023952,653d144d2e894446d55babdb,68817205a84113384fffdfe3,688220e93bd86dceab525a62,,,,,,,,,,,,,1,,,,,,,,,,,,,,,,,,,,,,,,,,,,,,,,,,,,,59,besar,,,,,462.8232,464.1721,1,1,0.802,,0,63,63,58,1,REAL,FAKE,,,,,,,,,,,,,,,,,
,,,,,,,,,653d144d2e894446d55babdb,spanish,13 or older,"no, only English or Spanish",no,2025-07-24_08h03.38.560,empathy_intonation_perc_control,2024.2.4,Win32,59.88023952,653d144d2e894446d55babdb,68817205a84113384fffdfe3,688220e93bd86dceab525a62,,,,,,,,,,,,,0,,,,,,,,,,,,,,,,,,,,,,,,,,,,,,,,,,,,,32,fatacidad,,,,,464.1737,465.6222,0,1,0.9041,,0,64,64,31,1,REAL,FAKE,,,,,,,,,,,,,,,,,
,,,,,,,,,653d144d2e894446d55babdb,spanish,13 or older,"no, only English or Spanish",no,2025-07-24_08h03.38.560,empathy_intonation_perc_control,2024.2.4,Win32,59.88023952,653d144d2e894446d55babdb,68817205a84113384fffdfe3,688220e93bd86dceab525a62,,,,,,,,,,,,,1,,,,,,,,,,,,,,,,,,,,,,,,,,,,,,,,,,,,,31,pandilla,,,,,465.6236,467.4886,0,0,1.3219,,0,65,65,30,1,REAL,FAKE,,,,,,,,,,,,,,,,,
,,,,,,,,,653d144d2e894446d55babdb,spanish,13 or older,"no, only English or Spanish",no,2025-07-24_08h03.38.560,empathy_intonation_perc_control,2024.2.4,Win32,59.88023952,653d144d2e894446d55babdb,68817205a84113384fffdfe3,688220e93bd86dceab525a62,,,,,,,,,,,,,1,,,,,,,,,,,,,,,,,,,,,,,,,,,,,,,,,,,,,41,rebuscar,,,,,467.4901,469.0389,1,1,1.0022,,0,66,66,40,1,REAL,FAKE,,,,,,,,,,,,,,,,,
,,,,,,,,,653d144d2e894446d55babdb,spanish,13 or older,"no, only English or Spanish",no,2025-07-24_08h03.38.560,empathy_intonation_perc_control,2024.2.4,Win32,59.88023952,653d144d2e894446d55babdb,68817205a84113384fffdfe3,688220e93bd86dceab525a62,,,,,,,,,,,,,0,,,,,,,,,,,,,,,,,,,,,,,,,,,,,,,,,,,,,66,hacido,,,,,469.0405,471.4609,1,0,1.8834,,0,67,67,65,1,REAL,FAKE,,,,,,,,,,,,,,,,,
,,,,,,,,,653d144d2e894446d55babdb,spanish,13 or older,"no, only English or Spanish",no,2025-07-24_08h03.38.560,empathy_intonation_perc_control,2024.2.4,Win32,59.88023952,653d144d2e894446d55babdb,68817205a84113384fffdfe3,688220e93bd86dceab525a62,,,,,,,,,,,,,1,,,,,,,,,,,,,,,,,,,,,,,,,,,,,,,,,,,,,60,matar,,,,,471.4621,472.9051,1,1,0.9071,,0,68,68,59,1,REAL,FAKE,,,,,,,,,,,,,,,,,
,,,,,,,,,653d144d2e894446d55babdb,spanish,13 or older,"no, only English or Spanish",no,2025-07-24_08h03.38.560,empathy_intonation_perc_control,2024.2.4,Win32,59.88023952,653d144d2e894446d55babdb,68817205a84113384fffdfe3,688220e93bd86dceab525a62,,,,,,,,,,,,,1,,,,,,,,,,,,,,,,,,,,,,,,,,,,,,,,,,,,,56,musgo,,,,,472.9065,474.6267,1,1,1.1826,,0,69,69,55,1,REAL,FAKE,,,,,,,,,,,,,,,,,
,,,,,,,,,653d144d2e894446d55babdb,spanish,13 or older,"no, only English or Spanish",no,2025-07-24_08h03.38.560,empathy_intonation_perc_control,2024.2.4,Win32,59.88023952,653d144d2e894446d55babdb,68817205a84113384fffdfe3,688220e93bd86dceab525a62,,,,,,,,,,,,,1,,,,,,,,,,,,,,,,,,,,,,,,,,,,,,,,,,,,,20,ávido,,,,,474.629,475.8386,1,1,0.6692,,0,70,70,19,1,REAL,FAKE,,,,,,,,,,,,,,,,,
,,,,,,,,,653d144d2e894446d55babdb,spanish,13 or older,"no, only English or Spanish",no,2025-07-24_08h03.38.560,empathy_intonation_perc_control,2024.2.4,Win32,59.88023952,653d144d2e894446d55babdb,68817205a84113384fffdfe3,688220e93bd86dceab525a62,,,,,,,,,,,,,0,,,,,,,,,,,,,,,,,,,,,,,,,,,,,,,,,,,,,82,empirador,,,,,475.84,477.155,0,1,0.7715,,0,71,71,81,1,REAL,FAKE,,,,,,,,,,,,,,,,,
,,,,,,,,,653d144d2e894446d55babdb,spanish,13 or older,"no, only English or Spanish",no,2025-07-24_08h03.38.560,empathy_intonation_perc_control,2024.2.4,Win32,59.88023952,653d144d2e894446d55babdb,68817205a84113384fffdfe3,688220e93bd86dceab525a62,,,,,,,,,,,,,1,,,,,,,,,,,,,,,,,,,,,,,,,,,,,,,,,,,,,9,hacha,,,,,477.1566,479.2547,0,0,1.5516,,0,72,72,8,1,REAL,FAKE,,,,,,,,,,,,,,,,,
,,,,,,,,,653d144d2e894446d55babdb,spanish,13 or older,"no, only English or Spanish",no,2025-07-24_08h03.38.560,empathy_intonation_perc_control,2024.2.4,Win32,59.88023952,653d144d2e894446d55babdb,68817205a84113384fffdfe3,688220e93bd86dceab525a62,,,,,,,,,,,,,0,,,,,,,,,,,,,,,,,,,,,,,,,,,,,,,,,,,,,29,decar,,,,,479.2564,480.9882,1,0,1.1914,,0,73,73,28,1,REAL,FAKE,,,,,,,,,,,,,,,,,
,,,,,,,,,653d144d2e894446d55babdb,spanish,13 or older,"no, only English or Spanish",no,2025-07-24_08h03.38.560,empathy_intonation_perc_control,2024.2.4,Win32,59.88023952,653d144d2e894446d55babdb,68817205a84113384fffdfe3,688220e93bd86dceab525a62,,,,,,,,,,,,,0,,,,,,,,,,,,,,,,,,,,,,,,,,,,,,,,,,,,,21,capillo,,,,,480.9899,482.4878,0,1,0.9597,,0,74,74,20,1,REAL,FAKE,,,,,,,,,,,,,,,,,
,,,,,,,,,653d144d2e894446d55babdb,spanish,13 or older,"no, only English or Spanish",no,2025-07-24_08h03.38.560,empathy_intonation_perc_control,2024.2.4,Win32,59.88023952,653d144d2e894446d55babdb,68817205a84113384fffdfe3,688220e93bd86dceab525a62,,,,,,,,,,,,,0,,,,,,,,,,,,,,,,,,,,,,,,,,,,,,,,,,,,,58,plaudir,,,,,482.4896,483.9551,0,1,0.9246,,0,75,75,57,1,REAL,FAKE,,,,,,,,,,,,,,,,,
,,,,,,,,,653d144d2e894446d55babdb,spanish,13 or older,"no, only English or Spanish",no,2025-07-24_08h03.38.560,empathy_intonation_perc_control,2024.2.4,Win32,59.88023952,653d144d2e894446d55babdb,68817205a84113384fffdfe3,688220e93bd86dceab525a62,,,,,,,,,,,,,0,,,,,,,,,,,,,,,,,,,,,,,,,,,,,,,,,,,,,70,temblo,,,,,483.9564,485.3219,1,0,0.8349,,0,76,76,69,1,REAL,FAKE,,,,,,,,,,,,,,,,,
,,,,,,,,,653d144d2e894446d55babdb,spanish,13 or older,"no, only English or Spanish",no,2025-07-24_08h03.38.560,empathy_intonation_perc_control,2024.2.4,Win32,59.88023952,653d144d2e894446d55babdb,68817205a84113384fffdfe3,688220e93bd86dceab525a62,,,,,,,,,,,,,0,,,,,,,,,,,,,,,,,,,,,,,,,,,,,,,,,,,,,8,cadeña,,,,,485.3237,486.7882,1,0,0.9175,,0,77,77,7,1,REAL,FAKE,,,,,,,,,,,,,,,,,
,,,,,,,,,653d144d2e894446d55babdb,spanish,13 or older,"no, only English or Spanish",no,2025-07-24_08h03.38.560,empathy_intonation_perc_control,2024.2.4,Win32,59.88023952,653d144d2e894446d55babdb,68817205a84113384fffdfe3,688220e93bd86dceab525a62,,,,,,,,,,,,,0,,,,,,,,,,,,,,,,,,,,,,,,,,,,,,,,,,,,,53,vegada,,,,,486.79,489.0883,0,1,1.7513,,0,78,78,52,1,REAL,FAKE,,,,,,,,,,,,,,,,,
,,,,,,,,,653d144d2e894446d55babdb,spanish,13 or older,"no, only English or Spanish",no,2025-07-24_08h03.38.560,empathy_intonation_perc_control,2024.2.4,Win32,59.88023952,653d144d2e894446d55babdb,68817205a84113384fffdfe3,688220e93bd86dceab525a62,,,,,,,,,,,,,1,,,,,,,,,,,,,,,,,,,,,,,,,,,,,,,,,,,,,45,jilguero,,,,,489.0894,490.555,0,0,0.9191,,0,79,79,44,1,REAL,FAKE,,,,,,,,,,,,,,,,,
,,,,,,,,,653d144d2e894446d55babdb,spanish,13 or older,"no, only English or Spanish",no,2025-07-24_08h03.38.560,empathy_intonation_perc_control,2024.2.4,Win32,59.88023952,653d144d2e894446d55babdb,68817205a84113384fffdfe3,688220e93bd86dceab525a62,,,,,,,,,,,,,0,,,,,,,,,,,,,,,,,,,,,,,,,,,,,,,,,,,,,30,alardio,,,,,490.5566,492.3549,0,1,1.2532,,0,80,80,29,1,REAL,FAKE,,,,,,,,,,,,,,,,,
,,,,,,,,,653d144d2e894446d55babdb,spanish,13 or older,"no, only English or Spanish",no,2025-07-24_08h03.38.560,empathy_intonation_perc_control,2024.2.4,Win32,59.88023952,653d144d2e894446d55babdb,68817205a84113384fffdfe3,688220e93bd86dceab525a62,,,,,,,,,,,,,1,,,,,,,,,,,,,,,,,,,,,,,,,,,,,,,,,,,,,37,granuja,,,,,492.3565,493.9047,0,0,1.002,,0,81,81,36,1,REAL,FAKE,,,,,,,,,,,,,,,,,
,,,,,,,,,653d144d2e894446d55babdb,spanish,13 or older,"no, only English or Spanish",no,2025-07-24_08h03.38.560,empathy_intonation_perc_control,2024.2.4,Win32,59.88023952,653d144d2e894446d55babdb,68817205a84113384fffdfe3,688220e93bd86dceab525a62,,,,,,,,,,,,,0,,,,,,,,,,,,,,,,,,,,,,,,,,,,,,,,,,,,,87,grodo,,,,,493.9057,495.5213,1,0,1.0753,,0,82,82,86,1,REAL,FAKE,,,,,,,,,,,,,,,,,
,,,,,,,,,653d144d2e894446d55babdb,spanish,13 or older,"no, only English or Spanish",no,2025-07-24_08h03.38.560,empathy_intonation_perc_control,2024.2.4,Win32,59.88023952,653d144d2e894446d55babdb,68817205a84113384fffdfe3,688220e93bd86dceab525a62,,,,,,,,,,,,,1,,,,,,,,,,,,,,,,,,,,,,,,,,,,,,,,,,,,,2,pellizcar,,,,,495.523,497.1051,1,1,1.0346,,0,83,83,1,1,REAL,FAKE,,,,,,,,,,,,,,,,,
,,,,,,,,,653d144d2e894446d55babdb,spanish,13 or older,"no, only English or Spanish",no,2025-07-24_08h03.38.560,empathy_intonation_perc_control,2024.2.4,Win32,59.88023952,653d144d2e894446d55babdb,68817205a84113384fffdfe3,688220e93bd86dceab525a62,,,,,,,,,,,,,0,,,,,,,,,,,,,,,,,,,,,,,,,,,,,,,,,,,,,23,lampera,,,,,497.1062,498.538,1,0,0.8913,,0,84,84,22,1,REAL,FAKE,,,,,,,,,,,,,,,,,
,,,,,,,,,653d144d2e894446d55babdb,spanish,13 or older,"no, only English or Spanish",no,2025-07-24_08h03.38.560,empathy_intonation_perc_control,2024.2.4,Win32,59.88023952,653d144d2e894446d55babdb,68817205a84113384fffdfe3,688220e93bd86dceab525a62,,,,,,,,,,,,,1,,,,,,,,,,,,,,,,,,,,,,,,,,,,,,,,,,,,,48,ladrón,,,,,498.5396,499.8256,0,0,0.7485,,0,85,85,47,1,REAL,FAKE,,,,,,,,,,,,,,,,,
,,,,,,,,,653d144d2e894446d55babdb,spanish,13 or older,"no, only English or Spanish",no,2025-07-24_08h03.38.560,empathy_intonation_perc_control,2024.2.4,Win32,59.88023952,653d144d2e894446d55babdb,68817205a84113384fffdfe3,688220e93bd86dceab525a62,,,,,,,,,,,,,1,,,,,,,,,,,,,,,,,,,,,,,,,,,,,,,,,,,,,62,flaco,,,,,499.8266,501.2225,1,1,0.8623,,0,86,86,61,1,REAL,FAKE,,,,,,,,,,,,,,,,,
,,,,,,,,,653d144d2e894446d55babdb,spanish,13 or older,"no, only English or Spanish",no,2025-07-24_08h03.38.560,empathy_intonation_perc_control,2024.2.4,Win32,59.88023952,653d144d2e894446d55babdb,68817205a84113384fffdfe3,688220e93bd86dceab525a62,,,,,,,,,,,,,1,,,,,,,,,,,,,,,,,,,,,,,,,,,,,,,,,,,,,77,tiburón,,,,,501.2238,502.9548,0,0,1.1857,,0,87,87,76,1,REAL,FAKE,,,,,,,,,,,,,,,,,
,,,,,,,,,653d144d2e894446d55babdb,spanish,13 or older,"no, only English or Spanish",no,2025-07-24_08h03.38.560,empathy_intonation_perc_control,2024.2.4,Win32,59.88023952,653d144d2e894446d55babdb,68817205a84113384fffdfe3,688220e93bd86dceab525a62,,,,,,,,,,,,,1,,,,,,,,,,,,,,,,,,,,,,,,,,,,,,,,,,,,,14,yunque,,,,,502.956,504.322,0,0,0.8198,,0,88,88,13,1,REAL,FAKE,,,,,,,,,,,,,,,,,
,,,,,,,,,653d144d2e894446d55babdb,spanish,13 or older,"no, only English or Spanish",no,2025-07-24_08h03.38.560,empathy_intonation_perc_control,2024.2.4,Win32,59.88023952,653d144d2e894446d55babdb,68817205a84113384fffdfe3,688220e93bd86dceab525a62,,,,,,,,,,,,,1,,,,,,,,,,,,,,,,,,,,,,,,,,,,,,,,,,,,,3,pulmones,,,,,504.3233,506.0544,0,0,1.1903,,0,89,89,2,1,REAL,FAKE,,,,,,,,,,,,,,,,,
,,,,,,,,,653d144d2e894446d55babdb,spanish,13 or older,"no, only English or Spanish",no,2025-07-24_08h03.38.560,empathy_intonation_perc_control,2024.2.4,Win32,59.88023952,653d144d2e894446d55babdb,68817205a84113384fffdfe3,688220e93bd86dceab525a62,,,,,,,,,,,,,0,,,,,,,,,,,,,,,,,,,,,,,,,,,,,,,,,,,,,35,rompido,,,,,506.0561,507.4873,0,1,0.884,,0,90,90,34,1,REAL,FAKE,,,,,,,,,,,,,,,,,
,,,,,,,,,653d144d2e894446d55babdb,spanish,13 or older,"no, only English or Spanish",no,2025-07-24_08h03.38.560,empathy_intonation_perc_control,2024.2.4,Win32,59.88023952,653d144d2e894446d55babdb,68817205a84113384fffdfe3,688220e93bd86dceab525a62,,,,,,,,,,,,,1,,,,,,,,,,,,,,,,,,,,,,,,,,,,,,,,,,,,,57,tacaño,,,,,507.4889,509.2546,1,1,1.2208,,0,91,91,56,1,REAL,FAKE,,,,,,,,,,,,,,,,,
,,,,,,,,,653d144d2e894446d55babdb,spanish,13 or older,"no, only English or Spanish",no,2025-07-24_08h03.38.560,empathy_intonation_perc_control,2024.2.4,Win32,59.88023952,653d144d2e894446d55babdb,68817205a84113384fffdfe3,688220e93bd86dceab525a62,,,,,,,,,,,,,,,,,,,,,,,,,,,,,,,,,,,,,,,,,,,,,,,,,,,,,,,,,,,,,,,,,,,,,509.2556,519.7415,,,,,,,,,,,,,,,
,,,,,,,,,653d144d2e894446d55babdb,spanish,13 or older,"no, only English or Spanish",no,2025-07-24_08h03.38.560,empathy_intonation_perc_control,2024.2.4,Win32,59.88023952,653d144d2e894446d55babdb,68817205a84113384fffdfe3,688220e93bd86dceab525a62,,,,,,,,,,,,,,,,,,,,,,,,,,,1,,,,,,,,,,,,,,,,,,,,,,,,,,,,,,,,,,,,,,,,,,,,519.7574,523.7207,slightly agree,0,0,0,0,1,I can easily tell if someone else wants to enter a conversation.,1,0,1,0,,
,,,,,,,,,653d144d2e894446d55babdb,spanish,13 or older,"no, only English or Spanish",no,2025-07-24_08h03.38.560,empathy_intonation_perc_control,2024.2.4,Win32,59.88023952,653d144d2e894446d55babdb,68817205a84113384fffdfe3,688220e93bd86dceab525a62,,,,,,,,,,,,,,,,,,,,,,,,,,,2,,,,,,,,,,,,,,,,,,,,,,,,,,,,,,,,,,,,,,,,,,,,523.7229,526.2036,strongly agree,0,1,1,1,1,I prefer animals to humans.,0,1,0,0,,
,,,,,,,,,653d144d2e894446d55babdb,spanish,13 or older,"no, only English or Spanish",no,2025-07-24_08h03.38.560,empathy_intonation_perc_control,2024.2.4,Win32,59.88023952,653d144d2e894446d55babdb,68817205a84113384fffdfe3,688220e93bd86dceab525a62,,,,,,,,,,,,,,,,,,,,,,,,,,,3,,,,,,,,,,,,,,,,,,,,,,,,,,,,,,,,,,,,,,,,,,,,526.2051,527.5207,strongly agree,0,2,2,2,1,I try to keep up with the current trends and fashions.,0,1,0,0,,
,,,,,,,,,653d144d2e894446d55babdb,spanish,13 or older,"no, only English or Spanish",no,2025-07-24_08h03.38.560,empathy_intonation_perc_control,2024.2.4,Win32,59.88023952,653d144d2e894446d55babdb,68817205a84113384fffdfe3,688220e93bd86dceab525a62,,,,,,,,,,,,,,,,,,,,,,,,,,,4,,,,,,,,,,,,,,,,,,,,,,,,,,,,,,,,,,,,,,,,,,,,527.523,531.2537,slightly agree,0,3,3,3,1,"I find it difficult to explain to others things that I understand easily,   when they don't understand it first time.",1,0,0,1,,
,,,,,,,,,653d144d2e894446d55babdb,spanish,13 or older,"no, only English or Spanish",no,2025-07-24_08h03.38.560,empathy_intonation_perc_control,2024.2.4,Win32,59.88023952,653d144d2e894446d55babdb,68817205a84113384fffdfe3,688220e93bd86dceab525a62,,,,,,,,,,,,,,,,,,,,,,,,,,,5,,,,,,,,,,,,,,,,,,,,,,,,,,,,,,,,,,,,,,,,,,,,531.2548,533.2367,strongly agree,0,4,4,4,1,I dream most nights.,0,1,0,0,,
,,,,,,,,,653d144d2e894446d55babdb,spanish,13 or older,"no, only English or Spanish",no,2025-07-24_08h03.38.560,empathy_intonation_perc_control,2024.2.4,Win32,59.88023952,653d144d2e894446d55babdb,68817205a84113384fffdfe3,688220e93bd86dceab525a62,,,,,,,,,,,,,,,,,,,,,,,,,,,6,,,,,,,,,,,,,,,,,,,,,,,,,,,,,,,,,,,,,,,,,,,,533.2379,534.787,strongly agree,0,5,5,5,1,I really enjoy caring for other people.,1,0,1,0,,
,,,,,,,,,653d144d2e894446d55babdb,spanish,13 or older,"no, only English or Spanish",no,2025-07-24_08h03.38.560,empathy_intonation_perc_control,2024.2.4,Win32,59.88023952,653d144d2e894446d55babdb,68817205a84113384fffdfe3,688220e93bd86dceab525a62,,,,,,,,,,,,,,,,,,,,,,,,,,,7,,,,,,,,,,,,,,,,,,,,,,,,,,,,,,,,,,,,,,,,,,,,534.7886,536.1871,strongly agree,0,6,6,6,1,I try to solve my own problems rather than discussing them with others.,0,1,0,0,,
,,,,,,,,,653d144d2e894446d55babdb,spanish,13 or older,"no, only English or Spanish",no,2025-07-24_08h03.38.560,empathy_intonation_perc_control,2024.2.4,Win32,59.88023952,653d144d2e894446d55babdb,68817205a84113384fffdfe3,688220e93bd86dceab525a62,,,,,,,,,,,,,,,,,,,,,,,,,,,8,,,,,,,,,,,,,,,,,,,,,,,,,,,,,,,,,,,,,,,,,,,,536.1881,538.9704,slightly disagree,0,7,7,7,1,I find it hard to know what to do in a social situation.,1,0,0,1,,
,,,,,,,,,653d144d2e894446d55babdb,spanish,13 or older,"no, only English or Spanish",no,2025-07-24_08h03.38.560,empathy_intonation_perc_control,2024.2.4,Win32,59.88023952,653d144d2e894446d55babdb,68817205a84113384fffdfe3,688220e93bd86dceab525a62,,,,,,,,,,,,,,,,,,,,,,,,,,,9,,,,,,,,,,,,,,,,,,,,,,,,,,,,,,,,,,,,,,,,,,,,538.9716,542.3201,slightly disagree,0,8,8,8,1,I am at my best first thing in the morning.,0,1,0,0,,
,,,,,,,,,653d144d2e894446d55babdb,spanish,13 or older,"no, only English or Spanish",no,2025-07-24_08h03.38.560,empathy_intonation_perc_control,2024.2.4,Win32,59.88023952,653d144d2e894446d55babdb,68817205a84113384fffdfe3,688220e93bd86dceab525a62,,,,,,,,,,,,,,,,,,,,,,,,,,,10,,,,,,,,,,,,,,,,,,,,,,,,,,,,,,,,,,,,,,,,,,,,542.3217,545.9031,slightly disagree,0,9,9,9,1,People often tell me that I went too far in driving my point home in a discussion.,1,0,0,1,,
,,,,,,,,,653d144d2e894446d55babdb,spanish,13 or older,"no, only English or Spanish",no,2025-07-24_08h03.38.560,empathy_intonation_perc_control,2024.2.4,Win32,59.88023952,653d144d2e894446d55babdb,68817205a84113384fffdfe3,688220e93bd86dceab525a62,,,,,,,,,,,,,,,,,,,,,,,,,,,11,,,,,,,,,,,,,,,,,,,,,,,,,,,,,,,,,,,,,,,,,,,,545.9042,549.3869,strongly disagree,0,10,10,10,1,It doesn't bother me too much if I am late meeting a friend.,1,0,0,1,,
,,,,,,,,,653d144d2e894446d55babdb,spanish,13 or older,"no, only English or Spanish",no,2025-07-24_08h03.38.560,empathy_intonation_perc_control,2024.2.4,Win32,59.88023952,653d144d2e894446d55babdb,68817205a84113384fffdfe3,688220e93bd86dceab525a62,,,,,,,,,,,,,,,,,,,,,,,,,,,12,,,,,,,,,,,,,,,,,,,,,,,,,,,,,,,,,,,,,,,,,,,,549.3889,553.6534,slightly disagree,0,11,11,11,1,"Friendships and relationships are just too difficult, so I tend not to 
  bother with them.",1,0,0,1,,
,,,,,,,,,653d144d2e894446d55babdb,spanish,13 or older,"no, only English or Spanish",no,2025-07-24_08h03.38.560,empathy_intonation_perc_control,2024.2.4,Win32,59.88023952,653d144d2e894446d55babdb,68817205a84113384fffdfe3,688220e93bd86dceab525a62,,,,,,,,,,,,,,,,,,,,,,,,,,,13,,,,,,,,,,,,,,,,,,,,,,,,,,,,,,,,,,,,,,,,,,,,553.6549,558.1362,slightly agree,0,12,12,12,1,"I would never break a law, no matter how minor.",0,1,0,0,,
,,,,,,,,,653d144d2e894446d55babdb,spanish,13 or older,"no, only English or Spanish",no,2025-07-24_08h03.38.560,empathy_intonation_perc_control,2024.2.4,Win32,59.88023952,653d144d2e894446d55babdb,68817205a84113384fffdfe3,688220e93bd86dceab525a62,,,,,,,,,,,,,,,,,,,,,,,,,,,14,,,,,,,,,,,,,,,,,,,,,,,,,,,,,,,,,,,,,,,,,,,,558.1374,562.5365,slightly disagree,0,13,13,13,1,I often find it difficult to judge if something is rude or polite.,1,0,0,1,,
,,,,,,,,,653d144d2e894446d55babdb,spanish,13 or older,"no, only English or Spanish",no,2025-07-24_08h03.38.560,empathy_intonation_perc_control,2024.2.4,Win32,59.88023952,653d144d2e894446d55babdb,68817205a84113384fffdfe3,688220e93bd86dceab525a62,,,,,,,,,,,,,,,,,,,,,,,,,,,15,,,,,,,,,,,,,,,,,,,,,,,,,,,,,,,,,,,,,,,,,,,,562.5378,565.2198,slightly agree,0,14,14,14,1,"In a conversation, I tend to focus on my own thoughts rather than on what 
  my listener might be thinking.",1,0,0,1,,
,,,,,,,,,653d144d2e894446d55babdb,spanish,13 or older,"no, only English or Spanish",no,2025-07-24_08h03.38.560,empathy_intonation_perc_control,2024.2.4,Win32,59.88023952,653d144d2e894446d55babdb,68817205a84113384fffdfe3,688220e93bd86dceab525a62,,,,,,,,,,,,,,,,,,,,,,,,,,,16,,,,,,,,,,,,,,,,,,,,,,,,,,,,,,,,,,,,,,,,,,,,565.2208,569.9364,strongly disagree,0,15,15,15,1,I prefer practical jokes to verbal humor.,0,1,0,0,,
,,,,,,,,,653d144d2e894446d55babdb,spanish,13 or older,"no, only English or Spanish",no,2025-07-24_08h03.38.560,empathy_intonation_perc_control,2024.2.4,Win32,59.88023952,653d144d2e894446d55babdb,68817205a84113384fffdfe3,688220e93bd86dceab525a62,,,,,,,,,,,,,,,,,,,,,,,,,,,17,,,,,,,,,,,,,,,,,,,,,,,,,,,,,,,,,,,,,,,,,,,,569.9374,572.8864,slightly disagree,0,16,16,16,1,I live life for today rather than the future.,0,1,0,0,,
,,,,,,,,,653d144d2e894446d55babdb,spanish,13 or older,"no, only English or Spanish",no,2025-07-24_08h03.38.560,empathy_intonation_perc_control,2024.2.4,Win32,59.88023952,653d144d2e894446d55babdb,68817205a84113384fffdfe3,688220e93bd86dceab525a62,,,,,,,,,,,,,,,,,,,,,,,,,,,18,,,,,,,,,,,,,,,,,,,,,,,,,,,,,,,,,,,,,,,,,,,,572.8896,575.7862,strongly disagree,0,17,17,17,1,"When I was a child, I enjoyed cutting up worms to see what would happen.",1,0,0,1,,
,,,,,,,,,653d144d2e894446d55babdb,spanish,13 or older,"no, only English or Spanish",no,2025-07-24_08h03.38.560,empathy_intonation_perc_control,2024.2.4,Win32,59.88023952,653d144d2e894446d55babdb,68817205a84113384fffdfe3,688220e93bd86dceab525a62,,,,,,,,,,,,,,,,,,,,,,,,,,,19,,,,,,,,,,,,,,,,,,,,,,,,,,,,,,,,,,,,,,,,,,,,575.7873,583.103,slightly agree,0,18,18,18,1,I can pick up quickly if someone says one thing but means another.,1,0,1,0,,
,,,,,,,,,653d144d2e894446d55babdb,spanish,13 or older,"no, only English or Spanish",no,2025-07-24_08h03.38.560,empathy_intonation_perc_control,2024.2.4,Win32,59.88023952,653d144d2e894446d55babdb,68817205a84113384fffdfe3,688220e93bd86dceab525a62,,,,,,,,,,,,,,,,,,,,,,,,,,,20,,,,,,,,,,,,,,,,,,,,,,,,,,,,,,,,,,,,,,,,,,,,583.1043,585.0529,slightly agree,0,19,19,19,1,I tend to have very strong opinions about morality.,0,1,0,0,,
,,,,,,,,,653d144d2e894446d55babdb,spanish,13 or older,"no, only English or Spanish",no,2025-07-24_08h03.38.560,empathy_intonation_perc_control,2024.2.4,Win32,59.88023952,653d144d2e894446d55babdb,68817205a84113384fffdfe3,688220e93bd86dceab525a62,,,,,,,,,,,,,,,,,,,,,,,,,,,21,,,,,,,,,,,,,,,,,,,,,,,,,,,,,,,,,,,,,,,,,,,,585.0546,588.4196,slightly disagree,0,20,20,20,1,It is hard for me to see why some things upset people so much.,1,0,0,1,,
,,,,,,,,,653d144d2e894446d55babdb,spanish,13 or older,"no, only English or Spanish",no,2025-07-24_08h03.38.560,empathy_intonation_perc_control,2024.2.4,Win32,59.88023952,653d144d2e894446d55babdb,68817205a84113384fffdfe3,688220e93bd86dceab525a62,,,,,,,,,,,,,,,,,,,,,,,,,,,22,,,,,,,,,,,,,,,,,,,,,,,,,,,,,,,,,,,,,,,,,,,,588.4204,591.1528,slightly agree,0,21,21,21,1,I find it easy to put myself in somebody else's shoes.,1,0,1,0,,
,,,,,,,,,653d144d2e894446d55babdb,spanish,13 or older,"no, only English or Spanish",no,2025-07-24_08h03.38.560,empathy_intonation_perc_control,2024.2.4,Win32,59.88023952,653d144d2e894446d55babdb,68817205a84113384fffdfe3,688220e93bd86dceab525a62,,,,,,,,,,,,,,,,,,,,,,,,,,,23,,,,,,,,,,,,,,,,,,,,,,,,,,,,,,,,,,,,,,,,,,,,591.1541,594.9695,slightly disagree,0,22,22,22,1,I think that good manners are the most important thing a parent can teach their child.,0,1,0,0,,
,,,,,,,,,653d144d2e894446d55babdb,spanish,13 or older,"no, only English or Spanish",no,2025-07-24_08h03.38.560,empathy_intonation_perc_control,2024.2.4,Win32,59.88023952,653d144d2e894446d55babdb,68817205a84113384fffdfe3,688220e93bd86dceab525a62,,,,,,,,,,,,,,,,,,,,,,,,,,,24,,,,,,,,,,,,,,,,,,,,,,,,,,,,,,,,,,,,,,,,,,,,594.9708,597.0859,slightly disagree,0,23,23,23,1,I like to do things on the spur of the moment.,0,1,0,0,,
,,,,,,,,,653d144d2e894446d55babdb,spanish,13 or older,"no, only English or Spanish",no,2025-07-24_08h03.38.560,empathy_intonation_perc_control,2024.2.4,Win32,59.88023952,653d144d2e894446d55babdb,68817205a84113384fffdfe3,688220e93bd86dceab525a62,,,,,,,,,,,,,,,,,,,,,,,,,,,25,,,,,,,,,,,,,,,,,,,,,,,,,,,,,,,,,,,,,,,,,,,,597.0869,599.7193,strongly agree,0,24,24,24,1,I am good at predicting how someone will feel.,1,0,1,0,,
