instructions_2afc.started,instructions_2afc.stopped,instructions_2afc_loop.thisRepN,instructions_2afc_loop.thisTrialN,instructions_2afc_loop.thisN,instructions_2afc_loop.thisIndex,instructions_2afc_loop.ran,instructions_text,continue_text,participant_id,"What variety of Spanish are you most familiar with? (e.g., Peruvian, Spanish, Mexican)",At what age did you begin learning Spanish?,Are you proficient in any languages other than English/Spanish?,"Are you familiar with Caribbean (e.g., Caribbean, Puerto Rican) or Galician Spanish?",date,expName,psychopyVersion,OS,frameRate,id,study_id,session,practice_2afc.started,practice_2afc.stopped,key_resp_2afc_practice.keys,key_resp_2afc_practice.corr,key_resp_2afc_practice.rt,key_resp_2afc_practice.duration,trials_2afc_practice_loop.thisRepN,trials_2afc_practice_loop.thisTrialN,trials_2afc_practice_loop.thisN,trials_2afc_practice_loop.thisIndex,trials_2afc_practice_loop.ran,path,correct_response,check_2afc.started,check_2afc.stopped,trial_2afc.started,trial_2afc.stopped,key_resp_2afc_trial.keys,key_resp_2afc_trial.corr,key_resp_2afc_trial.rt,key_resp_2afc_trial.duration,trials_2afc_loop.thisRepN,trials_2afc_loop.thisTrialN,trials_2afc_loop.thisN,trials_2afc_loop.thisIndex,trials_2afc_loop.ran,item_num,target,variety,instructions_lextale.started,instructions_lextale.stopped,instructions_lextale_loop.thisRepN,instructions_lextale_loop.thisTrialN,instructions_lextale_loop.thisN,instructions_lextale_loop.thisIndex,instructions_lextale_loop.ran,practice_lextale.started,practice_lextale.stopped,key_resp_lextale_practice.keys,key_resp_lextale_practice.corr,key_resp_lextale_practice.rt,key_resp_lextale_practice.duration,practice_feedback_lextale.started,practice_feedback_lextale.stopped,trials_lextale_practice_loop.thisRepN,trials_lextale_practice_loop.thisTrialN,trials_lextale_practice_loop.thisN,trials_lextale_practice_loop.thisIndex,trials_lextale_practice_loop.ran,stim,word,prac_button_real,prac_button_false,check_lextale.started,check_lextale.stopped,trial_lextale.started,trial_lextale.stopped,key_resp_lextale_trial.keys,key_resp_lextale_trial.corr,key_resp_lextale_trial.rt,key_resp_lextale_trial.duration,trials_lextale_loop.thisRepN,trials_lextale_loop.thisTrialN,trials_lextale_loop.thisN,trials_lextale_loop.thisIndex,trials_lextale_loop.ran,button_real,button_false,instructions_eq.started,instructions_eq.stopped,trial_eq.started,trial_eq.stopped,slider_eq_trial.response,trials_eq_loop.thisRepN,trials_eq_loop.thisTrialN,trials_eq_loop.thisN,trials_eq_loop.thisIndex,trials_eq_loop.ran,item,is_test_item,is_distractor,is_agree_score,is_disagree_score,end_exp.started,end_exp.stopped
0.0083,5.9203,0,0,0,0,1,"In the following task you are going to hear a series of utterances. 

  You will decide if the utterances sound like questions or not using your keyboard.", (press the spacebar to continue),65486ad91a5493d24f94d4d1,spanish,13 or older,"no, only English or Spanish",yes,2025-07-23_22h25.52.550,empathy_intonation_perc_control,2024.2.4,Win32,166.6666667,65486ad91a5493d24f94d4d1,68817205a84113384fffdfe3,6881997b024da5b9006ab048,,,,,,,,,,,,,,,,,,,,,,,,,,,,,,,,,,,,,,,,,,,,,,,,,,,,,,,,,,,,,,,,,,,,,,,,,,,,,,,,,,,,,
5.9215,11.3908,0,1,1,1,1,"If you believe the utterance is a question, type '1' (for 'yes') and if you do not 
  believe it is a question type '0' (for 'no').

  Let's practice a bit...", (press the spacebar to continue),65486ad91a5493d24f94d4d1,spanish,13 or older,"no, only English or Spanish",yes,2025-07-23_22h25.52.550,empathy_intonation_perc_control,2024.2.4,Win32,166.6666667,65486ad91a5493d24f94d4d1,68817205a84113384fffdfe3,6881997b024da5b9006ab048,,,,,,,,,,,,,,,,,,,,,,,,,,,,,,,,,,,,,,,,,,,,,,,,,,,,,,,,,,,,,,,,,,,,,,,,,,,,,,,,,,,,,
,,,,,,,,,65486ad91a5493d24f94d4d1,spanish,13 or older,"no, only English or Spanish",yes,2025-07-23_22h25.52.550,empathy_intonation_perc_control,2024.2.4,Win32,166.6666667,65486ad91a5493d24f94d4d1,68817205a84113384fffdfe3,6881997b024da5b9006ab048,11.3957,13.9507,1,0,2.0469,,0,0,0,4,1,./stim/wavs/cuban_statement_filler_Cocinabas-por-la-noche.wav,0,,,,,,,,,,,,,,,,,,,,,,,,,,,,,,,,,,,,,,,,,,,,,,,,,,,,,,,,,,,,,,,,,,,,,,,,
,,,,,,,,,65486ad91a5493d24f94d4d1,spanish,13 or older,"no, only English or Spanish",yes,2025-07-23_22h25.52.550,empathy_intonation_perc_control,2024.2.4,Win32,166.6666667,65486ad91a5493d24f94d4d1,68817205a84113384fffdfe3,6881997b024da5b9006ab048,13.9512,16.3143,1,0,1.8486,,0,1,1,5,1,./stim/wavs/andalusian_statement_filler_Alberto-nunca-se-afeita.wav,0,,,,,,,,,,,,,,,,,,,,,,,,,,,,,,,,,,,,,,,,,,,,,,,,,,,,,,,,,,,,,,,,,,,,,,,,
,,,,,,,,,65486ad91a5493d24f94d4d1,spanish,13 or older,"no, only English or Spanish",yes,2025-07-23_22h25.52.550,empathy_intonation_perc_control,2024.2.4,Win32,166.6666667,65486ad91a5493d24f94d4d1,68817205a84113384fffdfe3,6881997b024da5b9006ab048,16.3146,19.2719,0,1,2.4516,,0,2,2,7,1,./stim/wavs/puertorican_statement_filler_La-nina-pinta-con-su-amiga.wav,0,,,,,,,,,,,,,,,,,,,,,,,,,,,,,,,,,,,,,,,,,,,,,,,,,,,,,,,,,,,,,,,,,,,,,,,,
,,,,,,,,,65486ad91a5493d24f94d4d1,spanish,13 or older,"no, only English or Spanish",yes,2025-07-23_22h25.52.550,empathy_intonation_perc_control,2024.2.4,Win32,166.6666667,65486ad91a5493d24f94d4d1,68817205a84113384fffdfe3,6881997b024da5b9006ab048,19.2721,22.8176,0,0,3.0386,,0,3,3,2,1,./stim/wavs/chilean_question_filler_Mi-padre-cantaba-bien.wav,1,,,,,,,,,,,,,,,,,,,,,,,,,,,,,,,,,,,,,,,,,,,,,,,,,,,,,,,,,,,,,,,,,,,,,,,,
,,,,,,,,,65486ad91a5493d24f94d4d1,spanish,13 or older,"no, only English or Spanish",yes,2025-07-23_22h25.52.550,empathy_intonation_perc_control,2024.2.4,Win32,166.6666667,65486ad91a5493d24f94d4d1,68817205a84113384fffdfe3,6881997b024da5b9006ab048,22.8179,25.969,1,0,2.641,,0,4,4,6,1,./stim/wavs/peruvian_statement_filler_El-nino-habla-con-su-madre.wav,0,,,,,,,,,,,,,,,,,,,,,,,,,,,,,,,,,,,,,,,,,,,,,,,,,,,,,,,,,,,,,,,,,,,,,,,,
,,,,,,,,,65486ad91a5493d24f94d4d1,spanish,13 or older,"no, only English or Spanish",yes,2025-07-23_22h25.52.550,empathy_intonation_perc_control,2024.2.4,Win32,166.6666667,65486ad91a5493d24f94d4d1,68817205a84113384fffdfe3,6881997b024da5b9006ab048,25.9693,27.9449,1,1,1.4691,,0,5,5,1,1,./stim/wavs/argentine_question_filler_Mi-vecino-habla-mucho.wav,1,,,,,,,,,,,,,,,,,,,,,,,,,,,,,,,,,,,,,,,,,,,,,,,,,,,,,,,,,,,,,,,,,,,,,,,,
,,,,,,,,,65486ad91a5493d24f94d4d1,spanish,13 or older,"no, only English or Spanish",yes,2025-07-23_22h25.52.550,empathy_intonation_perc_control,2024.2.4,Win32,166.6666667,65486ad91a5493d24f94d4d1,68817205a84113384fffdfe3,6881997b024da5b9006ab048,27.9451,30.2904,1,1,1.8374,,0,6,6,0,1,./stim/wavs/castilian_question_filler_Mi-esposo-conoce-al-chico.wav,1,,,,,,,,,,,,,,,,,,,,,,,,,,,,,,,,,,,,,,,,,,,,,,,,,,,,,,,,,,,,,,,,,,,,,,,,
,,,,,,,,,65486ad91a5493d24f94d4d1,spanish,13 or older,"no, only English or Spanish",yes,2025-07-23_22h25.52.550,empathy_intonation_perc_control,2024.2.4,Win32,166.6666667,65486ad91a5493d24f94d4d1,68817205a84113384fffdfe3,6881997b024da5b9006ab048,30.2907,32.5268,1,1,1.7316,,0,7,7,3,1,./stim/wavs/mexican_question_filler_Felipe-no-tiene-contrasena.wav,1,,,,,,,,,,,,,,,,,,,,,,,,,,,,,,,,,,,,,,,,,,,,,,,,,,,,,,,,,,,,,,,,,,,,,,,,
,,,,,,,,,65486ad91a5493d24f94d4d1,spanish,13 or older,"no, only English or Spanish",yes,2025-07-23_22h25.52.550,empathy_intonation_perc_control,2024.2.4,Win32,166.6666667,65486ad91a5493d24f94d4d1,68817205a84113384fffdfe3,6881997b024da5b9006ab048,,,,,,,,,,,,,,32.527,33.939,,,,,,,,,,,,,,,,,,,,,,,,,,,,,,,,,,,,,,,,,,,,,,,,,,,,,,,,,,,,,,,,,,,,,,
,,,,,,,,,65486ad91a5493d24f94d4d1,spanish,13 or older,"no, only English or Spanish",yes,2025-07-23_22h25.52.550,empathy_intonation_perc_control,2024.2.4,Win32,166.6666667,65486ad91a5493d24f94d4d1,68817205a84113384fffdfe3,6881997b024da5b9006ab048,,,,,,,,,,,,./stim/wavs/cuban_match_interrogative-total-yn_Mariano-habla-del-tiempo.wav,1,,,33.9471,37.1514,0,0,2.7009,,0,0,0,10,1,11,1,cuban,,,,,,,,,,,,,,,,,,,,,,,,,,,,,,,,,,,,,,,,,,,,,,,,,,,,,,,,
,,,,,,,,,65486ad91a5493d24f94d4d1,spanish,13 or older,"no, only English or Spanish",yes,2025-07-23_22h25.52.550,empathy_intonation_perc_control,2024.2.4,Win32,166.6666667,65486ad91a5493d24f94d4d1,68817205a84113384fffdfe3,6881997b024da5b9006ab048,,,,,,,,,,,,./stim/wavs/mexican_match_declarative-broad-focus_Emilio-ama-la-marcha.wav,0,,,37.152,39.5604,0,1,1.9028,,0,1,1,59,1,60,0,mexican,,,,,,,,,,,,,,,,,,,,,,,,,,,,,,,,,,,,,,,,,,,,,,,,,,,,,,,,
,,,,,,,,,65486ad91a5493d24f94d4d1,spanish,13 or older,"no, only English or Spanish",yes,2025-07-23_22h25.52.550,empathy_intonation_perc_control,2024.2.4,Win32,166.6666667,65486ad91a5493d24f94d4d1,68817205a84113384fffdfe3,6881997b024da5b9006ab048,,,,,,,,,,,,./stim/wavs/mexican_mismatch_declarative-broad-focus_Mi-tia-odia-la-lluvia.wav,0,,,39.5607,42.6425,0,1,2.5758,,0,2,2,82,1,83,0,mexican,,,,,,,,,,,,,,,,,,,,,,,,,,,,,,,,,,,,,,,,,,,,,,,,,,,,,,,,
,,,,,,,,,65486ad91a5493d24f94d4d1,spanish,13 or older,"no, only English or Spanish",yes,2025-07-23_22h25.52.550,empathy_intonation_perc_control,2024.2.4,Win32,166.6666667,65486ad91a5493d24f94d4d1,68817205a84113384fffdfe3,6881997b024da5b9006ab048,,,,,,,,,,,,./stim/wavs/puertorican_mismatch_interrogative-total-yn_El-hombre-mira-la-luna.wav,1,,,42.6429,44.5938,1,1,1.445,,0,3,3,39,1,40,1,puertorican,,,,,,,,,,,,,,,,,,,,,,,,,,,,,,,,,,,,,,,,,,,,,,,,,,,,,,,,
,,,,,,,,,65486ad91a5493d24f94d4d1,spanish,13 or older,"no, only English or Spanish",yes,2025-07-23_22h25.52.550,empathy_intonation_perc_control,2024.2.4,Win32,166.6666667,65486ad91a5493d24f94d4d1,68817205a84113384fffdfe3,6881997b024da5b9006ab048,,,,,,,,,,,,./stim/wavs/cuban_mismatch_interrogative-total-yn_El-nino-oye-el-rio.wav,1,,,44.594,48.4545,0,0,3.3567,,0,4,4,30,1,31,1,cuban,,,,,,,,,,,,,,,,,,,,,,,,,,,,,,,,,,,,,,,,,,,,,,,,,,,,,,,,
,,,,,,,,,65486ad91a5493d24f94d4d1,spanish,13 or older,"no, only English or Spanish",yes,2025-07-23_22h25.52.550,empathy_intonation_perc_control,2024.2.4,Win32,166.6666667,65486ad91a5493d24f94d4d1,68817205a84113384fffdfe3,6881997b024da5b9006ab048,,,,,,,,,,,,./stim/wavs/puertorican_match_interrogative-total-yn_David-leia-el-libro.wav,1,,,48.4548,50.2796,1,1,1.3196,,0,5,5,20,1,21,1,puertorican,,,,,,,,,,,,,,,,,,,,,,,,,,,,,,,,,,,,,,,,,,,,,,,,,,,,,,,,
,,,,,,,,,65486ad91a5493d24f94d4d1,spanish,13 or older,"no, only English or Spanish",yes,2025-07-23_22h25.52.550,empathy_intonation_perc_control,2024.2.4,Win32,166.6666667,65486ad91a5493d24f94d4d1,68817205a84113384fffdfe3,6881997b024da5b9006ab048,,,,,,,,,,,,./stim/wavs/puertorican_match_interrogative-total-yn_Manuela-vende-el-carro.wav,1,,,50.2798,52.1273,1,1,1.3433,,0,6,6,22,1,23,1,puertorican,,,,,,,,,,,,,,,,,,,,,,,,,,,,,,,,,,,,,,,,,,,,,,,,,,,,,,,,
,,,,,,,,,65486ad91a5493d24f94d4d1,spanish,13 or older,"no, only English or Spanish",yes,2025-07-23_22h25.52.550,empathy_intonation_perc_control,2024.2.4,Win32,166.6666667,65486ad91a5493d24f94d4d1,68817205a84113384fffdfe3,6881997b024da5b9006ab048,,,,,,,,,,,,./stim/wavs/mexican_mismatch_interrogative-total-yn_El-nino-oye-el-rio.wav,1,,,52.1276,54.1822,1,1,1.5511,,0,7,7,35,1,36,0,mexican,,,,,,,,,,,,,,,,,,,,,,,,,,,,,,,,,,,,,,,,,,,,,,,,,,,,,,,,
,,,,,,,,,65486ad91a5493d24f94d4d1,spanish,13 or older,"no, only English or Spanish",yes,2025-07-23_22h25.52.550,empathy_intonation_perc_control,2024.2.4,Win32,166.6666667,65486ad91a5493d24f94d4d1,68817205a84113384fffdfe3,6881997b024da5b9006ab048,,,,,,,,,,,,./stim/wavs/puertorican_mismatch_declarative-broad-focus_El-hombre-mira-la-luna.wav,0,,,54.1825,56.3699,0,1,1.6798,,0,8,8,84,1,85,0,puertorican,,,,,,,,,,,,,,,,,,,,,,,,,,,,,,,,,,,,,,,,,,,,,,,,,,,,,,,,
,,,,,,,,,65486ad91a5493d24f94d4d1,spanish,13 or older,"no, only English or Spanish",yes,2025-07-23_22h25.52.550,empathy_intonation_perc_control,2024.2.4,Win32,166.6666667,65486ad91a5493d24f94d4d1,68817205a84113384fffdfe3,6881997b024da5b9006ab048,,,,,,,,,,,,./stim/wavs/puertorican_match_interrogative-total-yn_Maria-bebe-el-vino.wav,1,,,56.3702,58.4548,1,1,1.5805,,0,9,9,23,1,24,1,puertorican,,,,,,,,,,,,,,,,,,,,,,,,,,,,,,,,,,,,,,,,,,,,,,,,,,,,,,,,
,,,,,,,,,65486ad91a5493d24f94d4d1,spanish,13 or older,"no, only English or Spanish",yes,2025-07-23_22h25.52.550,empathy_intonation_perc_control,2024.2.4,Win32,166.6666667,65486ad91a5493d24f94d4d1,68817205a84113384fffdfe3,6881997b024da5b9006ab048,,,,,,,,,,,,./stim/wavs/puertorican_mismatch_interrogative-total-yn_Mi-madre-come-la-fruta.wav,1,,,58.4551,61.2792,0,0,2.3132,,0,10,10,43,1,44,1,puertorican,,,,,,,,,,,,,,,,,,,,,,,,,,,,,,,,,,,,,,,,,,,,,,,,,,,,,,,,
,,,,,,,,,65486ad91a5493d24f94d4d1,spanish,13 or older,"no, only English or Spanish",yes,2025-07-23_22h25.52.550,empathy_intonation_perc_control,2024.2.4,Win32,166.6666667,65486ad91a5493d24f94d4d1,68817205a84113384fffdfe3,6881997b024da5b9006ab048,,,,,,,,,,,,./stim/wavs/puertorican_match_declarative-broad-focus_Daniel-iba-a-Bolivia.wav,0,,,61.2794,63.5216,0,1,1.7349,,0,11,11,63,1,64,0,puertorican,,,,,,,,,,,,,,,,,,,,,,,,,,,,,,,,,,,,,,,,,,,,,,,,,,,,,,,,
,,,,,,,,,65486ad91a5493d24f94d4d1,spanish,13 or older,"no, only English or Spanish",yes,2025-07-23_22h25.52.550,empathy_intonation_perc_control,2024.2.4,Win32,166.6666667,65486ad91a5493d24f94d4d1,68817205a84113384fffdfe3,6881997b024da5b9006ab048,,,,,,,,,,,,./stim/wavs/cuban_match_interrogative-total-yn_Daniel-iba-a-Bolivia.wav,1,,,63.5219,65.7218,1,1,1.6907,,0,12,12,7,1,8,1,cuban,,,,,,,,,,,,,,,,,,,,,,,,,,,,,,,,,,,,,,,,,,,,,,,,,,,,,,,,
,,,,,,,,,65486ad91a5493d24f94d4d1,spanish,13 or older,"no, only English or Spanish",yes,2025-07-23_22h25.52.550,empathy_intonation_perc_control,2024.2.4,Win32,166.6666667,65486ad91a5493d24f94d4d1,68817205a84113384fffdfe3,6881997b024da5b9006ab048,,,,,,,,,,,,./stim/wavs/mexican_mismatch_interrogative-total-yn_La-maestra-vive-en-Paris.wav,1,,,65.722,68.2733,1,1,2.043,,0,13,13,36,1,37,0,mexican,,,,,,,,,,,,,,,,,,,,,,,,,,,,,,,,,,,,,,,,,,,,,,,,,,,,,,,,
,,,,,,,,,65486ad91a5493d24f94d4d1,spanish,13 or older,"no, only English or Spanish",yes,2025-07-23_22h25.52.550,empathy_intonation_perc_control,2024.2.4,Win32,166.6666667,65486ad91a5493d24f94d4d1,68817205a84113384fffdfe3,6881997b024da5b9006ab048,,,,,,,,,,,,./stim/wavs/castilian_mismatch_interrogative-total-yn_Mi-novio-viene-del-lago.wav,1,,,68.2735,70.5461,1,1,1.7648,,0,14,14,27,1,28,0,castilian,,,,,,,,,,,,,,,,,,,,,,,,,,,,,,,,,,,,,,,,,,,,,,,,,,,,,,,,
,,,,,,,,,65486ad91a5493d24f94d4d1,spanish,13 or older,"no, only English or Spanish",yes,2025-07-23_22h25.52.550,empathy_intonation_perc_control,2024.2.4,Win32,166.6666667,65486ad91a5493d24f94d4d1,68817205a84113384fffdfe3,6881997b024da5b9006ab048,,,,,,,,,,,,./stim/wavs/castilian_mismatch_declarative-broad-focus_Mi-tia-odia-la-lluvia.wav,0,,,70.5464,72.9582,0,1,1.908,,0,15,15,72,1,73,0,castilian,,,,,,,,,,,,,,,,,,,,,,,,,,,,,,,,,,,,,,,,,,,,,,,,,,,,,,,,
,,,,,,,,,65486ad91a5493d24f94d4d1,spanish,13 or older,"no, only English or Spanish",yes,2025-07-23_22h25.52.550,empathy_intonation_perc_control,2024.2.4,Win32,166.6666667,65486ad91a5493d24f94d4d1,68817205a84113384fffdfe3,6881997b024da5b9006ab048,,,,,,,,,,,,./stim/wavs/castilian_match_interrogative-total-yn_Mariano-habla-del-tiempo.wav,1,,,72.9585,75.1836,1,1,1.7215,,0,16,16,4,1,5,0,castilian,,,,,,,,,,,,,,,,,,,,,,,,,,,,,,,,,,,,,,,,,,,,,,,,,,,,,,,,
,,,,,,,,,65486ad91a5493d24f94d4d1,spanish,13 or older,"no, only English or Spanish",yes,2025-07-23_22h25.52.550,empathy_intonation_perc_control,2024.2.4,Win32,166.6666667,65486ad91a5493d24f94d4d1,68817205a84113384fffdfe3,6881997b024da5b9006ab048,,,,,,,,,,,,./stim/wavs/puertorican_match_declarative-broad-focus_Ana-lleva-el-abrigo.wav,0,,,75.1839,77.2069,1,0,1.519,,0,17,17,62,1,63,0,puertorican,,,,,,,,,,,,,,,,,,,,,,,,,,,,,,,,,,,,,,,,,,,,,,,,,,,,,,,,
,,,,,,,,,65486ad91a5493d24f94d4d1,spanish,13 or older,"no, only English or Spanish",yes,2025-07-23_22h25.52.550,empathy_intonation_perc_control,2024.2.4,Win32,166.6666667,65486ad91a5493d24f94d4d1,68817205a84113384fffdfe3,6881997b024da5b9006ab048,,,,,,,,,,,,./stim/wavs/mexican_mismatch_declarative-broad-focus_La-maestra-vive-en-Paris.wav,0,,,77.2071,79.3828,0,1,1.6715,,0,18,18,80,1,81,0,mexican,,,,,,,,,,,,,,,,,,,,,,,,,,,,,,,,,,,,,,,,,,,,,,,,,,,,,,,,
,,,,,,,,,65486ad91a5493d24f94d4d1,spanish,13 or older,"no, only English or Spanish",yes,2025-07-23_22h25.52.550,empathy_intonation_perc_control,2024.2.4,Win32,166.6666667,65486ad91a5493d24f94d4d1,68817205a84113384fffdfe3,6881997b024da5b9006ab048,,,,,,,,,,,,./stim/wavs/cuban_match_interrogative-total-yn_Manuela-vende-el-carro.wav,1,,,79.383,81.2918,0,0,1.397,,0,19,19,8,1,9,1,cuban,,,,,,,,,,,,,,,,,,,,,,,,,,,,,,,,,,,,,,,,,,,,,,,,,,,,,,,,
,,,,,,,,,65486ad91a5493d24f94d4d1,spanish,13 or older,"no, only English or Spanish",yes,2025-07-23_22h25.52.550,empathy_intonation_perc_control,2024.2.4,Win32,166.6666667,65486ad91a5493d24f94d4d1,68817205a84113384fffdfe3,6881997b024da5b9006ab048,,,,,,,,,,,,./stim/wavs/castilian_match_interrogative-total-yn_David-leia-el-libro.wav,1,,,81.2921,83.6253,1,1,1.8265,,0,20,20,0,1,1,0,castilian,,,,,,,,,,,,,,,,,,,,,,,,,,,,,,,,,,,,,,,,,,,,,,,,,,,,,,,,
,,,,,,,,,65486ad91a5493d24f94d4d1,spanish,13 or older,"no, only English or Spanish",yes,2025-07-23_22h25.52.550,empathy_intonation_perc_control,2024.2.4,Win32,166.6666667,65486ad91a5493d24f94d4d1,68817205a84113384fffdfe3,6881997b024da5b9006ab048,,,,,,,,,,,,./stim/wavs/castilian_match_declarative-broad-focus_David-leia-el-libro.wav,0,,,83.6254,86.8071,1,0,2.6769,,0,21,21,44,1,45,0,castilian,,,,,,,,,,,,,,,,,,,,,,,,,,,,,,,,,,,,,,,,,,,,,,,,,,,,,,,,
,,,,,,,,,65486ad91a5493d24f94d4d1,spanish,13 or older,"no, only English or Spanish",yes,2025-07-23_22h25.52.550,empathy_intonation_perc_control,2024.2.4,Win32,166.6666667,65486ad91a5493d24f94d4d1,68817205a84113384fffdfe3,6881997b024da5b9006ab048,,,,,,,,,,,,./stim/wavs/castilian_match_declarative-broad-focus_Marta-abre-el-regalo.wav,0,,,86.8074,89.0254,0,1,1.7112,,0,22,22,49,1,50,0,castilian,,,,,,,,,,,,,,,,,,,,,,,,,,,,,,,,,,,,,,,,,,,,,,,,,,,,,,,,
,,,,,,,,,65486ad91a5493d24f94d4d1,spanish,13 or older,"no, only English or Spanish",yes,2025-07-23_22h25.52.550,empathy_intonation_perc_control,2024.2.4,Win32,166.6666667,65486ad91a5493d24f94d4d1,68817205a84113384fffdfe3,6881997b024da5b9006ab048,,,,,,,,,,,,./stim/wavs/mexican_mismatch_declarative-broad-focus_Mi-novio-viene-del-lago.wav,0,,,89.0257,91.7225,0,1,2.1892,,0,23,23,81,1,82,0,mexican,,,,,,,,,,,,,,,,,,,,,,,,,,,,,,,,,,,,,,,,,,,,,,,,,,,,,,,,
,,,,,,,,,65486ad91a5493d24f94d4d1,spanish,13 or older,"no, only English or Spanish",yes,2025-07-23_22h25.52.550,empathy_intonation_perc_control,2024.2.4,Win32,166.6666667,65486ad91a5493d24f94d4d1,68817205a84113384fffdfe3,6881997b024da5b9006ab048,,,,,,,,,,,,./stim/wavs/cuban_match_declarative-broad-focus_Mariano-habla-del-tiempo.wav,0,,,91.7227,94.2438,0,1,2.0138,,0,24,24,54,1,55,0,cuban,,,,,,,,,,,,,,,,,,,,,,,,,,,,,,,,,,,,,,,,,,,,,,,,,,,,,,,,
,,,,,,,,,65486ad91a5493d24f94d4d1,spanish,13 or older,"no, only English or Spanish",yes,2025-07-23_22h25.52.550,empathy_intonation_perc_control,2024.2.4,Win32,166.6666667,65486ad91a5493d24f94d4d1,68817205a84113384fffdfe3,6881997b024da5b9006ab048,,,,,,,,,,,,./stim/wavs/cuban_mismatch_declarative-broad-focus_El-hombre-mira-la-luna.wav,0,,,94.2439,96.3112,0,1,1.5637,,0,25,25,74,1,75,0,cuban,,,,,,,,,,,,,,,,,,,,,,,,,,,,,,,,,,,,,,,,,,,,,,,,,,,,,,,,
,,,,,,,,,65486ad91a5493d24f94d4d1,spanish,13 or older,"no, only English or Spanish",yes,2025-07-23_22h25.52.550,empathy_intonation_perc_control,2024.2.4,Win32,166.6666667,65486ad91a5493d24f94d4d1,68817205a84113384fffdfe3,6881997b024da5b9006ab048,,,,,,,,,,,,./stim/wavs/castilian_mismatch_interrogative-total-yn_La-nina-lava-el-plato.wav,1,,,96.3113,98.5711,1,1,1.7516,,0,26,26,25,1,26,0,castilian,,,,,,,,,,,,,,,,,,,,,,,,,,,,,,,,,,,,,,,,,,,,,,,,,,,,,,,,
,,,,,,,,,65486ad91a5493d24f94d4d1,spanish,13 or older,"no, only English or Spanish",yes,2025-07-23_22h25.52.550,empathy_intonation_perc_control,2024.2.4,Win32,166.6666667,65486ad91a5493d24f94d4d1,68817205a84113384fffdfe3,6881997b024da5b9006ab048,,,,,,,,,,,,./stim/wavs/cuban_mismatch_declarative-broad-focus_Mi-novio-viene-del-lago.wav,0,,,98.5714,100.8379,0,1,1.7631,,0,27,27,76,1,77,0,cuban,,,,,,,,,,,,,,,,,,,,,,,,,,,,,,,,,,,,,,,,,,,,,,,,,,,,,,,,
,,,,,,,,,65486ad91a5493d24f94d4d1,spanish,13 or older,"no, only English or Spanish",yes,2025-07-23_22h25.52.550,empathy_intonation_perc_control,2024.2.4,Win32,166.6666667,65486ad91a5493d24f94d4d1,68817205a84113384fffdfe3,6881997b024da5b9006ab048,,,,,,,,,,,,./stim/wavs/castilian_match_declarative-broad-focus_Emilio-ama-la-marcha.wav,0,,,100.8381,103.3835,0,1,2.0408,,0,28,28,45,1,46,0,castilian,,,,,,,,,,,,,,,,,,,,,,,,,,,,,,,,,,,,,,,,,,,,,,,,,,,,,,,,
,,,,,,,,,65486ad91a5493d24f94d4d1,spanish,13 or older,"no, only English or Spanish",yes,2025-07-23_22h25.52.550,empathy_intonation_perc_control,2024.2.4,Win32,166.6666667,65486ad91a5493d24f94d4d1,68817205a84113384fffdfe3,6881997b024da5b9006ab048,,,,,,,,,,,,./stim/wavs/castilian_mismatch_declarative-broad-focus_Mi-novio-viene-del-lago.wav,0,,,103.3837,105.8502,0,1,1.9583,,0,29,29,71,1,72,0,castilian,,,,,,,,,,,,,,,,,,,,,,,,,,,,,,,,,,,,,,,,,,,,,,,,,,,,,,,,
,,,,,,,,,65486ad91a5493d24f94d4d1,spanish,13 or older,"no, only English or Spanish",yes,2025-07-23_22h25.52.550,empathy_intonation_perc_control,2024.2.4,Win32,166.6666667,65486ad91a5493d24f94d4d1,68817205a84113384fffdfe3,6881997b024da5b9006ab048,,,,,,,,,,,,./stim/wavs/cuban_match_declarative-broad-focus_Manuela-vende-el-carro.wav,0,,,105.8505,108.3471,0,1,1.9859,,0,30,30,52,1,53,0,cuban,,,,,,,,,,,,,,,,,,,,,,,,,,,,,,,,,,,,,,,,,,,,,,,,,,,,,,,,
,,,,,,,,,65486ad91a5493d24f94d4d1,spanish,13 or older,"no, only English or Spanish",yes,2025-07-23_22h25.52.550,empathy_intonation_perc_control,2024.2.4,Win32,166.6666667,65486ad91a5493d24f94d4d1,68817205a84113384fffdfe3,6881997b024da5b9006ab048,,,,,,,,,,,,./stim/wavs/mexican_mismatch_interrogative-total-yn_Mi-novio-viene-del-lago.wav,1,,,108.3474,110.4988,1,1,1.6426,,0,31,31,37,1,38,0,mexican,,,,,,,,,,,,,,,,,,,,,,,,,,,,,,,,,,,,,,,,,,,,,,,,,,,,,,,,
,,,,,,,,,65486ad91a5493d24f94d4d1,spanish,13 or older,"no, only English or Spanish",yes,2025-07-23_22h25.52.550,empathy_intonation_perc_control,2024.2.4,Win32,166.6666667,65486ad91a5493d24f94d4d1,68817205a84113384fffdfe3,6881997b024da5b9006ab048,,,,,,,,,,,,./stim/wavs/puertorican_match_interrogative-total-yn_Emilio-ama-la-marcha.wav,1,,,110.499,112.6746,1,1,1.6675,,0,32,32,21,1,22,1,puertorican,,,,,,,,,,,,,,,,,,,,,,,,,,,,,,,,,,,,,,,,,,,,,,,,,,,,,,,,
,,,,,,,,,65486ad91a5493d24f94d4d1,spanish,13 or older,"no, only English or Spanish",yes,2025-07-23_22h25.52.550,empathy_intonation_perc_control,2024.2.4,Win32,166.6666667,65486ad91a5493d24f94d4d1,68817205a84113384fffdfe3,6881997b024da5b9006ab048,,,,,,,,,,,,./stim/wavs/puertorican_match_declarative-broad-focus_Maria-bebe-el-vino.wav,0,,,112.6748,114.7049,0,1,1.5236,,0,33,33,67,1,68,0,puertorican,,,,,,,,,,,,,,,,,,,,,,,,,,,,,,,,,,,,,,,,,,,,,,,,,,,,,,,,
,,,,,,,,,65486ad91a5493d24f94d4d1,spanish,13 or older,"no, only English or Spanish",yes,2025-07-23_22h25.52.550,empathy_intonation_perc_control,2024.2.4,Win32,166.6666667,65486ad91a5493d24f94d4d1,68817205a84113384fffdfe3,6881997b024da5b9006ab048,,,,,,,,,,,,./stim/wavs/castilian_match_declarative-broad-focus_Mariano-habla-del-tiempo.wav,0,,,114.7052,117.3232,0,1,2.1096,,0,34,34,48,1,49,0,castilian,,,,,,,,,,,,,,,,,,,,,,,,,,,,,,,,,,,,,,,,,,,,,,,,,,,,,,,,
,,,,,,,,,65486ad91a5493d24f94d4d1,spanish,13 or older,"no, only English or Spanish",yes,2025-07-23_22h25.52.550,empathy_intonation_perc_control,2024.2.4,Win32,166.6666667,65486ad91a5493d24f94d4d1,68817205a84113384fffdfe3,6881997b024da5b9006ab048,,,,,,,,,,,,./stim/wavs/cuban_mismatch_interrogative-total-yn_Mi-madre-come-la-fruta.wav,1,,,117.3235,119.584,0,0,1.7539,,0,35,35,31,1,32,1,cuban,,,,,,,,,,,,,,,,,,,,,,,,,,,,,,,,,,,,,,,,,,,,,,,,,,,,,,,,
,,,,,,,,,65486ad91a5493d24f94d4d1,spanish,13 or older,"no, only English or Spanish",yes,2025-07-23_22h25.52.550,empathy_intonation_perc_control,2024.2.4,Win32,166.6666667,65486ad91a5493d24f94d4d1,68817205a84113384fffdfe3,6881997b024da5b9006ab048,,,,,,,,,,,,./stim/wavs/puertorican_match_declarative-broad-focus_David-leia-el-libro.wav,0,,,119.5843,121.6991,0,1,1.6036,,0,36,36,64,1,65,0,puertorican,,,,,,,,,,,,,,,,,,,,,,,,,,,,,,,,,,,,,,,,,,,,,,,,,,,,,,,,
,,,,,,,,,65486ad91a5493d24f94d4d1,spanish,13 or older,"no, only English or Spanish",yes,2025-07-23_22h25.52.550,empathy_intonation_perc_control,2024.2.4,Win32,166.6666667,65486ad91a5493d24f94d4d1,68817205a84113384fffdfe3,6881997b024da5b9006ab048,,,,,,,,,,,,./stim/wavs/castilian_mismatch_declarative-broad-focus_La-nina-lava-el-plato.wav,0,,,121.6993,124.1052,0,1,1.8992,,0,37,37,70,1,71,0,castilian,,,,,,,,,,,,,,,,,,,,,,,,,,,,,,,,,,,,,,,,,,,,,,,,,,,,,,,,
,,,,,,,,,65486ad91a5493d24f94d4d1,spanish,13 or older,"no, only English or Spanish",yes,2025-07-23_22h25.52.550,empathy_intonation_perc_control,2024.2.4,Win32,166.6666667,65486ad91a5493d24f94d4d1,68817205a84113384fffdfe3,6881997b024da5b9006ab048,,,,,,,,,,,,./stim/wavs/castilian_match_declarative-broad-focus_Maria-bebe-el-vino.wav,0,,,124.1054,126.475,0,1,1.8613,,0,38,38,47,1,48,0,castilian,,,,,,,,,,,,,,,,,,,,,,,,,,,,,,,,,,,,,,,,,,,,,,,,,,,,,,,,
,,,,,,,,,65486ad91a5493d24f94d4d1,spanish,13 or older,"no, only English or Spanish",yes,2025-07-23_22h25.52.550,empathy_intonation_perc_control,2024.2.4,Win32,166.6666667,65486ad91a5493d24f94d4d1,68817205a84113384fffdfe3,6881997b024da5b9006ab048,,,,,,,,,,,,./stim/wavs/mexican_match_declarative-broad-focus_Ana-lleva-el-abrigo.wav,0,,,126.4752,128.3478,0,1,1.3637,,0,39,39,56,1,57,0,mexican,,,,,,,,,,,,,,,,,,,,,,,,,,,,,,,,,,,,,,,,,,,,,,,,,,,,,,,,
,,,,,,,,,65486ad91a5493d24f94d4d1,spanish,13 or older,"no, only English or Spanish",yes,2025-07-23_22h25.52.550,empathy_intonation_perc_control,2024.2.4,Win32,166.6666667,65486ad91a5493d24f94d4d1,68817205a84113384fffdfe3,6881997b024da5b9006ab048,,,,,,,,,,,,./stim/wavs/puertorican_mismatch_interrogative-total-yn_El-nino-oye-el-rio.wav,1,,,128.348,130.8511,0,0,1.9849,,0,40,40,40,1,41,1,puertorican,,,,,,,,,,,,,,,,,,,,,,,,,,,,,,,,,,,,,,,,,,,,,,,,,,,,,,,,
,,,,,,,,,65486ad91a5493d24f94d4d1,spanish,13 or older,"no, only English or Spanish",yes,2025-07-23_22h25.52.550,empathy_intonation_perc_control,2024.2.4,Win32,166.6666667,65486ad91a5493d24f94d4d1,68817205a84113384fffdfe3,6881997b024da5b9006ab048,,,,,,,,,,,,./stim/wavs/mexican_match_interrogative-total-yn_Marta-abre-el-regalo.wav,1,,,130.8515,132.9357,1,1,1.5765,,0,41,41,17,1,18,0,mexican,,,,,,,,,,,,,,,,,,,,,,,,,,,,,,,,,,,,,,,,,,,,,,,,,,,,,,,,
,,,,,,,,,65486ad91a5493d24f94d4d1,spanish,13 or older,"no, only English or Spanish",yes,2025-07-23_22h25.52.550,empathy_intonation_perc_control,2024.2.4,Win32,166.6666667,65486ad91a5493d24f94d4d1,68817205a84113384fffdfe3,6881997b024da5b9006ab048,,,,,,,,,,,,./stim/wavs/mexican_match_interrogative-total-yn_Ana-lleva-el-abrigo.wav,1,,,132.936,135.0995,1,1,1.6547,,0,42,42,12,1,13,0,mexican,,,,,,,,,,,,,,,,,,,,,,,,,,,,,,,,,,,,,,,,,,,,,,,,,,,,,,,,
,,,,,,,,,65486ad91a5493d24f94d4d1,spanish,13 or older,"no, only English or Spanish",yes,2025-07-23_22h25.52.550,empathy_intonation_perc_control,2024.2.4,Win32,166.6666667,65486ad91a5493d24f94d4d1,68817205a84113384fffdfe3,6881997b024da5b9006ab048,,,,,,,,,,,,./stim/wavs/mexican_mismatch_declarative-broad-focus_El-bebe-comia-muy-bien.wav,0,,,135.0997,137.3056,0,1,1.699,,0,43,43,78,1,79,0,mexican,,,,,,,,,,,,,,,,,,,,,,,,,,,,,,,,,,,,,,,,,,,,,,,,,,,,,,,,
,,,,,,,,,65486ad91a5493d24f94d4d1,spanish,13 or older,"no, only English or Spanish",yes,2025-07-23_22h25.52.550,empathy_intonation_perc_control,2024.2.4,Win32,166.6666667,65486ad91a5493d24f94d4d1,68817205a84113384fffdfe3,6881997b024da5b9006ab048,,,,,,,,,,,,./stim/wavs/puertorican_mismatch_interrogative-total-yn_La-maestra-vive-en-Paris.wav,1,,,137.3058,139.5927,0,0,1.7835,,0,44,44,41,1,42,1,puertorican,,,,,,,,,,,,,,,,,,,,,,,,,,,,,,,,,,,,,,,,,,,,,,,,,,,,,,,,
,,,,,,,,,65486ad91a5493d24f94d4d1,spanish,13 or older,"no, only English or Spanish",yes,2025-07-23_22h25.52.550,empathy_intonation_perc_control,2024.2.4,Win32,166.6666667,65486ad91a5493d24f94d4d1,68817205a84113384fffdfe3,6881997b024da5b9006ab048,,,,,,,,,,,,./stim/wavs/mexican_match_declarative-broad-focus_Marta-abre-el-regalo.wav,0,,,139.5929,141.9299,0,1,1.8323,,0,45,45,61,1,62,0,mexican,,,,,,,,,,,,,,,,,,,,,,,,,,,,,,,,,,,,,,,,,,,,,,,,,,,,,,,,
,,,,,,,,,65486ad91a5493d24f94d4d1,spanish,13 or older,"no, only English or Spanish",yes,2025-07-23_22h25.52.550,empathy_intonation_perc_control,2024.2.4,Win32,166.6666667,65486ad91a5493d24f94d4d1,68817205a84113384fffdfe3,6881997b024da5b9006ab048,,,,,,,,,,,,./stim/wavs/castilian_mismatch_interrogative-total-yn_Mi-tia-odia-la-lluvia.wav,1,,,141.9301,143.9906,1,1,1.5564,,0,46,46,28,1,29,0,castilian,,,,,,,,,,,,,,,,,,,,,,,,,,,,,,,,,,,,,,,,,,,,,,,,,,,,,,,,
,,,,,,,,,65486ad91a5493d24f94d4d1,spanish,13 or older,"no, only English or Spanish",yes,2025-07-23_22h25.52.550,empathy_intonation_perc_control,2024.2.4,Win32,166.6666667,65486ad91a5493d24f94d4d1,68817205a84113384fffdfe3,6881997b024da5b9006ab048,,,,,,,,,,,,./stim/wavs/mexican_match_interrogative-total-yn_Emilio-ama-la-marcha.wav,1,,,143.9909,146.0574,1,1,1.5592,,0,47,47,15,1,16,0,mexican,,,,,,,,,,,,,,,,,,,,,,,,,,,,,,,,,,,,,,,,,,,,,,,,,,,,,,,,
,,,,,,,,,65486ad91a5493d24f94d4d1,spanish,13 or older,"no, only English or Spanish",yes,2025-07-23_22h25.52.550,empathy_intonation_perc_control,2024.2.4,Win32,166.6666667,65486ad91a5493d24f94d4d1,68817205a84113384fffdfe3,6881997b024da5b9006ab048,,,,,,,,,,,,./stim/wavs/puertorican_mismatch_declarative-broad-focus_El-nino-oye-el-rio.wav,0,,,146.0576,148.015,0,1,1.4531,,0,48,48,85,1,86,0,puertorican,,,,,,,,,,,,,,,,,,,,,,,,,,,,,,,,,,,,,,,,,,,,,,,,,,,,,,,,
,,,,,,,,,65486ad91a5493d24f94d4d1,spanish,13 or older,"no, only English or Spanish",yes,2025-07-23_22h25.52.550,empathy_intonation_perc_control,2024.2.4,Win32,166.6666667,65486ad91a5493d24f94d4d1,68817205a84113384fffdfe3,6881997b024da5b9006ab048,,,,,,,,,,,,./stim/wavs/mexican_match_declarative-broad-focus_Daniel-iba-a-Bolivia.wav,0,,,148.0152,150.1786,0,1,1.6548,,0,49,49,57,1,58,0,mexican,,,,,,,,,,,,,,,,,,,,,,,,,,,,,,,,,,,,,,,,,,,,,,,,,,,,,,,,
,,,,,,,,,65486ad91a5493d24f94d4d1,spanish,13 or older,"no, only English or Spanish",yes,2025-07-23_22h25.52.550,empathy_intonation_perc_control,2024.2.4,Win32,166.6666667,65486ad91a5493d24f94d4d1,68817205a84113384fffdfe3,6881997b024da5b9006ab048,,,,,,,,,,,,./stim/wavs/cuban_match_interrogative-total-yn_Maria-bebe-el-vino.wav,1,,,150.1789,152.2607,0,0,1.5778,,0,50,50,9,1,10,1,cuban,,,,,,,,,,,,,,,,,,,,,,,,,,,,,,,,,,,,,,,,,,,,,,,,,,,,,,,,
,,,,,,,,,65486ad91a5493d24f94d4d1,spanish,13 or older,"no, only English or Spanish",yes,2025-07-23_22h25.52.550,empathy_intonation_perc_control,2024.2.4,Win32,166.6666667,65486ad91a5493d24f94d4d1,68817205a84113384fffdfe3,6881997b024da5b9006ab048,,,,,,,,,,,,./stim/wavs/castilian_match_declarative-broad-focus_Manuela-vende-el-carro.wav,0,,,152.2609,154.5183,0,1,1.7507,,0,51,51,46,1,47,0,castilian,,,,,,,,,,,,,,,,,,,,,,,,,,,,,,,,,,,,,,,,,,,,,,,,,,,,,,,,
,,,,,,,,,65486ad91a5493d24f94d4d1,spanish,13 or older,"no, only English or Spanish",yes,2025-07-23_22h25.52.550,empathy_intonation_perc_control,2024.2.4,Win32,166.6666667,65486ad91a5493d24f94d4d1,68817205a84113384fffdfe3,6881997b024da5b9006ab048,,,,,,,,,,,,./stim/wavs/puertorican_match_declarative-broad-focus_Emilio-ama-la-marcha.wav,0,,,154.5186,156.4759,0,1,1.4457,,0,52,52,65,1,66,0,puertorican,,,,,,,,,,,,,,,,,,,,,,,,,,,,,,,,,,,,,,,,,,,,,,,,,,,,,,,,
,,,,,,,,,65486ad91a5493d24f94d4d1,spanish,13 or older,"no, only English or Spanish",yes,2025-07-23_22h25.52.550,empathy_intonation_perc_control,2024.2.4,Win32,166.6666667,65486ad91a5493d24f94d4d1,68817205a84113384fffdfe3,6881997b024da5b9006ab048,,,,,,,,,,,,./stim/wavs/cuban_match_declarative-broad-focus_Ana-lleva-el-abrigo.wav,0,,,156.4761,158.4394,0,1,1.4583,,0,53,53,50,1,51,0,cuban,,,,,,,,,,,,,,,,,,,,,,,,,,,,,,,,,,,,,,,,,,,,,,,,,,,,,,,,
,,,,,,,,,65486ad91a5493d24f94d4d1,spanish,13 or older,"no, only English or Spanish",yes,2025-07-23_22h25.52.550,empathy_intonation_perc_control,2024.2.4,Win32,166.6666667,65486ad91a5493d24f94d4d1,68817205a84113384fffdfe3,6881997b024da5b9006ab048,,,,,,,,,,,,./stim/wavs/mexican_mismatch_interrogative-total-yn_Mi-tia-odia-la-lluvia.wav,1,,,158.4398,160.7063,1,1,1.7587,,0,54,54,38,1,39,0,mexican,,,,,,,,,,,,,,,,,,,,,,,,,,,,,,,,,,,,,,,,,,,,,,,,,,,,,,,,
,,,,,,,,,65486ad91a5493d24f94d4d1,spanish,13 or older,"no, only English or Spanish",yes,2025-07-23_22h25.52.550,empathy_intonation_perc_control,2024.2.4,Win32,166.6666667,65486ad91a5493d24f94d4d1,68817205a84113384fffdfe3,6881997b024da5b9006ab048,,,,,,,,,,,,./stim/wavs/cuban_mismatch_interrogative-total-yn_El-hombre-mira-la-luna.wav,1,,,160.7065,162.5931,1,1,1.3831,,0,55,55,29,1,30,1,cuban,,,,,,,,,,,,,,,,,,,,,,,,,,,,,,,,,,,,,,,,,,,,,,,,,,,,,,,,
,,,,,,,,,65486ad91a5493d24f94d4d1,spanish,13 or older,"no, only English or Spanish",yes,2025-07-23_22h25.52.550,empathy_intonation_perc_control,2024.2.4,Win32,166.6666667,65486ad91a5493d24f94d4d1,68817205a84113384fffdfe3,6881997b024da5b9006ab048,,,,,,,,,,,,./stim/wavs/puertorican_match_declarative-broad-focus_Manuela-vende-el-carro.wav,0,,,162.5933,165.064,0,1,1.967,,0,56,56,66,1,67,0,puertorican,,,,,,,,,,,,,,,,,,,,,,,,,,,,,,,,,,,,,,,,,,,,,,,,,,,,,,,,
,,,,,,,,,65486ad91a5493d24f94d4d1,spanish,13 or older,"no, only English or Spanish",yes,2025-07-23_22h25.52.550,empathy_intonation_perc_control,2024.2.4,Win32,166.6666667,65486ad91a5493d24f94d4d1,68817205a84113384fffdfe3,6881997b024da5b9006ab048,,,,,,,,,,,,./stim/wavs/mexican_match_interrogative-total-yn_David-leia-el-libro.wav,1,,,165.0641,167.4943,1,1,1.9264,,0,57,57,14,1,15,0,mexican,,,,,,,,,,,,,,,,,,,,,,,,,,,,,,,,,,,,,,,,,,,,,,,,,,,,,,,,
,,,,,,,,,65486ad91a5493d24f94d4d1,spanish,13 or older,"no, only English or Spanish",yes,2025-07-23_22h25.52.550,empathy_intonation_perc_control,2024.2.4,Win32,166.6666667,65486ad91a5493d24f94d4d1,68817205a84113384fffdfe3,6881997b024da5b9006ab048,,,,,,,,,,,,./stim/wavs/cuban_mismatch_declarative-broad-focus_La-nina-lava-el-plato.wav,0,,,167.4945,169.464,0,1,1.4641,,0,58,58,75,1,76,0,cuban,,,,,,,,,,,,,,,,,,,,,,,,,,,,,,,,,,,,,,,,,,,,,,,,,,,,,,,,
,,,,,,,,,65486ad91a5493d24f94d4d1,spanish,13 or older,"no, only English or Spanish",yes,2025-07-23_22h25.52.550,empathy_intonation_perc_control,2024.2.4,Win32,166.6666667,65486ad91a5493d24f94d4d1,68817205a84113384fffdfe3,6881997b024da5b9006ab048,,,,,,,,,,,,./stim/wavs/puertorican_mismatch_declarative-broad-focus_La-nina-lava-el-plato.wav,0,,,169.4643,171.5855,1,0,1.6143,,0,59,59,87,1,88,0,puertorican,,,,,,,,,,,,,,,,,,,,,,,,,,,,,,,,,,,,,,,,,,,,,,,,,,,,,,,,
,,,,,,,,,65486ad91a5493d24f94d4d1,spanish,13 or older,"no, only English or Spanish",yes,2025-07-23_22h25.52.550,empathy_intonation_perc_control,2024.2.4,Win32,166.6666667,65486ad91a5493d24f94d4d1,68817205a84113384fffdfe3,6881997b024da5b9006ab048,,,,,,,,,,,,./stim/wavs/castilian_mismatch_interrogative-total-yn_La-maestra-vive-en-Paris.wav,1,,,171.5857,174.3801,1,1,2.2897,,0,60,60,24,1,25,0,castilian,,,,,,,,,,,,,,,,,,,,,,,,,,,,,,,,,,,,,,,,,,,,,,,,,,,,,,,,
,,,,,,,,,65486ad91a5493d24f94d4d1,spanish,13 or older,"no, only English or Spanish",yes,2025-07-23_22h25.52.550,empathy_intonation_perc_control,2024.2.4,Win32,166.6666667,65486ad91a5493d24f94d4d1,68817205a84113384fffdfe3,6881997b024da5b9006ab048,,,,,,,,,,,,./stim/wavs/puertorican_mismatch_interrogative-total-yn_La-nina-lava-el-plato.wav,1,,,174.3803,176.2602,1,1,1.3699,,0,61,61,42,1,43,1,puertorican,,,,,,,,,,,,,,,,,,,,,,,,,,,,,,,,,,,,,,,,,,,,,,,,,,,,,,,,
,,,,,,,,,65486ad91a5493d24f94d4d1,spanish,13 or older,"no, only English or Spanish",yes,2025-07-23_22h25.52.550,empathy_intonation_perc_control,2024.2.4,Win32,166.6666667,65486ad91a5493d24f94d4d1,68817205a84113384fffdfe3,6881997b024da5b9006ab048,,,,,,,,,,,,./stim/wavs/castilian_match_interrogative-total-yn_Manuela-vende-el-carro.wav,1,,,176.2605,178.7128,1,1,1.9419,,0,62,62,2,1,3,0,castilian,,,,,,,,,,,,,,,,,,,,,,,,,,,,,,,,,,,,,,,,,,,,,,,,,,,,,,,,
,,,,,,,,,65486ad91a5493d24f94d4d1,spanish,13 or older,"no, only English or Spanish",yes,2025-07-23_22h25.52.550,empathy_intonation_perc_control,2024.2.4,Win32,166.6666667,65486ad91a5493d24f94d4d1,68817205a84113384fffdfe3,6881997b024da5b9006ab048,,,,,,,,,,,,./stim/wavs/cuban_match_declarative-broad-focus_Daniel-iba-a-Bolivia.wav,0,,,178.7131,181.0889,0,1,1.87,,0,63,63,51,1,52,0,cuban,,,,,,,,,,,,,,,,,,,,,,,,,,,,,,,,,,,,,,,,,,,,,,,,,,,,,,,,
,,,,,,,,,65486ad91a5493d24f94d4d1,spanish,13 or older,"no, only English or Spanish",yes,2025-07-23_22h25.52.550,empathy_intonation_perc_control,2024.2.4,Win32,166.6666667,65486ad91a5493d24f94d4d1,68817205a84113384fffdfe3,6881997b024da5b9006ab048,,,,,,,,,,,,./stim/wavs/castilian_mismatch_declarative-broad-focus_La-maestra-vive-en-Paris.wav,0,,,181.0894,183.461,0,1,1.8673,,0,64,64,69,1,70,0,castilian,,,,,,,,,,,,,,,,,,,,,,,,,,,,,,,,,,,,,,,,,,,,,,,,,,,,,,,,
,,,,,,,,,65486ad91a5493d24f94d4d1,spanish,13 or older,"no, only English or Spanish",yes,2025-07-23_22h25.52.550,empathy_intonation_perc_control,2024.2.4,Win32,166.6666667,65486ad91a5493d24f94d4d1,68817205a84113384fffdfe3,6881997b024da5b9006ab048,,,,,,,,,,,,./stim/wavs/puertorican_mismatch_declarative-broad-focus_El-bebe-comia-muy-bien.wav,0,,,183.4613,185.6464,0,1,1.6839,,0,65,65,83,1,84,0,puertorican,,,,,,,,,,,,,,,,,,,,,,,,,,,,,,,,,,,,,,,,,,,,,,,,,,,,,,,,
,,,,,,,,,65486ad91a5493d24f94d4d1,spanish,13 or older,"no, only English or Spanish",yes,2025-07-23_22h25.52.550,empathy_intonation_perc_control,2024.2.4,Win32,166.6666667,65486ad91a5493d24f94d4d1,68817205a84113384fffdfe3,6881997b024da5b9006ab048,,,,,,,,,,,,./stim/wavs/castilian_mismatch_interrogative-total-yn_Mi-madre-come-la-fruta.wav,1,,,185.6465,187.8585,0,0,1.7039,,0,66,66,26,1,27,0,castilian,,,,,,,,,,,,,,,,,,,,,,,,,,,,,,,,,,,,,,,,,,,,,,,,,,,,,,,,
,,,,,,,,,65486ad91a5493d24f94d4d1,spanish,13 or older,"no, only English or Spanish",yes,2025-07-23_22h25.52.550,empathy_intonation_perc_control,2024.2.4,Win32,166.6666667,65486ad91a5493d24f94d4d1,68817205a84113384fffdfe3,6881997b024da5b9006ab048,,,,,,,,,,,,./stim/wavs/mexican_match_interrogative-total-yn_Mariano-habla-del-tiempo.wav,1,,,187.8588,190.284,1,1,1.9216,,0,67,67,16,1,17,0,mexican,,,,,,,,,,,,,,,,,,,,,,,,,,,,,,,,,,,,,,,,,,,,,,,,,,,,,,,,
,,,,,,,,,65486ad91a5493d24f94d4d1,spanish,13 or older,"no, only English or Spanish",yes,2025-07-23_22h25.52.550,empathy_intonation_perc_control,2024.2.4,Win32,166.6666667,65486ad91a5493d24f94d4d1,68817205a84113384fffdfe3,6881997b024da5b9006ab048,,,,,,,,,,,,./stim/wavs/cuban_mismatch_interrogative-total-yn_Mi-tia-odia-la-lluvia.wav,1,,,190.2842,192.8109,0,0,2.0167,,0,68,68,33,1,34,1,cuban,,,,,,,,,,,,,,,,,,,,,,,,,,,,,,,,,,,,,,,,,,,,,,,,,,,,,,,,
,,,,,,,,,65486ad91a5493d24f94d4d1,spanish,13 or older,"no, only English or Spanish",yes,2025-07-23_22h25.52.550,empathy_intonation_perc_control,2024.2.4,Win32,166.6666667,65486ad91a5493d24f94d4d1,68817205a84113384fffdfe3,6881997b024da5b9006ab048,,,,,,,,,,,,./stim/wavs/puertorican_match_interrogative-total-yn_Daniel-iba-a-Bolivia.wav,1,,,192.8111,194.974,1,1,1.6531,,0,69,69,19,1,20,1,puertorican,,,,,,,,,,,,,,,,,,,,,,,,,,,,,,,,,,,,,,,,,,,,,,,,,,,,,,,,
,,,,,,,,,65486ad91a5493d24f94d4d1,spanish,13 or older,"no, only English or Spanish",yes,2025-07-23_22h25.52.550,empathy_intonation_perc_control,2024.2.4,Win32,166.6666667,65486ad91a5493d24f94d4d1,68817205a84113384fffdfe3,6881997b024da5b9006ab048,,,,,,,,,,,,./stim/wavs/mexican_mismatch_interrogative-total-yn_El-hombre-mira-la-luna.wav,1,,,194.9743,196.9134,1,1,1.4322,,0,70,70,34,1,35,0,mexican,,,,,,,,,,,,,,,,,,,,,,,,,,,,,,,,,,,,,,,,,,,,,,,,,,,,,,,,
,,,,,,,,,65486ad91a5493d24f94d4d1,spanish,13 or older,"no, only English or Spanish",yes,2025-07-23_22h25.52.550,empathy_intonation_perc_control,2024.2.4,Win32,166.6666667,65486ad91a5493d24f94d4d1,68817205a84113384fffdfe3,6881997b024da5b9006ab048,,,,,,,,,,,,./stim/wavs/mexican_mismatch_declarative-broad-focus_El-hombre-mira-la-luna.wav,0,,,196.9136,198.871,1,0,1.4525,,0,71,71,79,1,80,0,mexican,,,,,,,,,,,,,,,,,,,,,,,,,,,,,,,,,,,,,,,,,,,,,,,,,,,,,,,,
,,,,,,,,,65486ad91a5493d24f94d4d1,spanish,13 or older,"no, only English or Spanish",yes,2025-07-23_22h25.52.550,empathy_intonation_perc_control,2024.2.4,Win32,166.6666667,65486ad91a5493d24f94d4d1,68817205a84113384fffdfe3,6881997b024da5b9006ab048,,,,,,,,,,,,./stim/wavs/cuban_mismatch_declarative-broad-focus_El-bebe-comia-muy-bien.wav,0,,,198.8712,200.8467,0,1,1.4713,,0,72,72,73,1,74,0,cuban,,,,,,,,,,,,,,,,,,,,,,,,,,,,,,,,,,,,,,,,,,,,,,,,,,,,,,,,
,,,,,,,,,65486ad91a5493d24f94d4d1,spanish,13 or older,"no, only English or Spanish",yes,2025-07-23_22h25.52.550,empathy_intonation_perc_control,2024.2.4,Win32,166.6666667,65486ad91a5493d24f94d4d1,68817205a84113384fffdfe3,6881997b024da5b9006ab048,,,,,,,,,,,,./stim/wavs/castilian_match_interrogative-total-yn_Emilio-ama-la-marcha.wav,1,,,200.847,203.1923,1,1,1.8392,,0,73,73,1,1,2,0,castilian,,,,,,,,,,,,,,,,,,,,,,,,,,,,,,,,,,,,,,,,,,,,,,,,,,,,,,,,
,,,,,,,,,65486ad91a5493d24f94d4d1,spanish,13 or older,"no, only English or Spanish",yes,2025-07-23_22h25.52.550,empathy_intonation_perc_control,2024.2.4,Win32,166.6666667,65486ad91a5493d24f94d4d1,68817205a84113384fffdfe3,6881997b024da5b9006ab048,,,,,,,,,,,,./stim/wavs/mexican_match_declarative-broad-focus_David-leia-el-libro.wav,0,,,203.1925,205.6469,0,1,1.95,,0,74,74,58,1,59,0,mexican,,,,,,,,,,,,,,,,,,,,,,,,,,,,,,,,,,,,,,,,,,,,,,,,,,,,,,,,
,,,,,,,,,65486ad91a5493d24f94d4d1,spanish,13 or older,"no, only English or Spanish",yes,2025-07-23_22h25.52.550,empathy_intonation_perc_control,2024.2.4,Win32,166.6666667,65486ad91a5493d24f94d4d1,68817205a84113384fffdfe3,6881997b024da5b9006ab048,,,,,,,,,,,,./stim/wavs/cuban_match_interrogative-total-yn_Ana-lleva-el-abrigo.wav,1,,,205.6472,207.8167,0,0,1.663,,0,75,75,6,1,7,1,cuban,,,,,,,,,,,,,,,,,,,,,,,,,,,,,,,,,,,,,,,,,,,,,,,,,,,,,,,,
,,,,,,,,,65486ad91a5493d24f94d4d1,spanish,13 or older,"no, only English or Spanish",yes,2025-07-23_22h25.52.550,empathy_intonation_perc_control,2024.2.4,Win32,166.6666667,65486ad91a5493d24f94d4d1,68817205a84113384fffdfe3,6881997b024da5b9006ab048,,,,,,,,,,,,./stim/wavs/puertorican_mismatch_declarative-broad-focus_La-maestra-vive-en-Paris.wav,0,,,207.817,209.9501,0,1,1.6257,,0,76,76,86,1,87,0,puertorican,,,,,,,,,,,,,,,,,,,,,,,,,,,,,,,,,,,,,,,,,,,,,,,,,,,,,,,,
,,,,,,,,,65486ad91a5493d24f94d4d1,spanish,13 or older,"no, only English or Spanish",yes,2025-07-23_22h25.52.550,empathy_intonation_perc_control,2024.2.4,Win32,166.6666667,65486ad91a5493d24f94d4d1,68817205a84113384fffdfe3,6881997b024da5b9006ab048,,,,,,,,,,,,./stim/wavs/castilian_match_interrogative-total-yn_Maria-bebe-el-vino.wav,1,,,209.9504,211.9076,1,1,1.4456,,0,77,77,3,1,4,0,castilian,,,,,,,,,,,,,,,,,,,,,,,,,,,,,,,,,,,,,,,,,,,,,,,,,,,,,,,,
,,,,,,,,,65486ad91a5493d24f94d4d1,spanish,13 or older,"no, only English or Spanish",yes,2025-07-23_22h25.52.550,empathy_intonation_perc_control,2024.2.4,Win32,166.6666667,65486ad91a5493d24f94d4d1,68817205a84113384fffdfe3,6881997b024da5b9006ab048,,,,,,,,,,,,./stim/wavs/castilian_mismatch_declarative-broad-focus_El-nino-oye-el-rio.wav,0,,,211.9079,214.7745,0,1,2.3626,,0,78,78,68,1,69,0,castilian,,,,,,,,,,,,,,,,,,,,,,,,,,,,,,,,,,,,,,,,,,,,,,,,,,,,,,,,
,,,,,,,,,65486ad91a5493d24f94d4d1,spanish,13 or older,"no, only English or Spanish",yes,2025-07-23_22h25.52.550,empathy_intonation_perc_control,2024.2.4,Win32,166.6666667,65486ad91a5493d24f94d4d1,68817205a84113384fffdfe3,6881997b024da5b9006ab048,,,,,,,,,,,,./stim/wavs/mexican_match_interrogative-total-yn_Daniel-iba-a-Bolivia.wav,1,,,214.7747,216.8897,0,0,1.608,,0,79,79,13,1,14,0,mexican,,,,,,,,,,,,,,,,,,,,,,,,,,,,,,,,,,,,,,,,,,,,,,,,,,,,,,,,
,,,,,,,,,65486ad91a5493d24f94d4d1,spanish,13 or older,"no, only English or Spanish",yes,2025-07-23_22h25.52.550,empathy_intonation_perc_control,2024.2.4,Win32,166.6666667,65486ad91a5493d24f94d4d1,68817205a84113384fffdfe3,6881997b024da5b9006ab048,,,,,,,,,,,,./stim/wavs/castilian_match_interrogative-total-yn_Marta-abre-el-regalo.wav,1,,,216.8899,219.2109,0,0,1.812,,0,80,80,5,1,6,0,castilian,,,,,,,,,,,,,,,,,,,,,,,,,,,,,,,,,,,,,,,,,,,,,,,,,,,,,,,,
,,,,,,,,,65486ad91a5493d24f94d4d1,spanish,13 or older,"no, only English or Spanish",yes,2025-07-23_22h25.52.550,empathy_intonation_perc_control,2024.2.4,Win32,166.6666667,65486ad91a5493d24f94d4d1,68817205a84113384fffdfe3,6881997b024da5b9006ab048,,,,,,,,,,,,./stim/wavs/puertorican_match_interrogative-total-yn_Ana-lleva-el-abrigo.wav,1,,,219.2112,221.914,0,0,2.1952,,0,81,81,18,1,19,1,puertorican,,,,,,,,,,,,,,,,,,,,,,,,,,,,,,,,,,,,,,,,,,,,,,,,,,,,,,,,
,,,,,,,,,65486ad91a5493d24f94d4d1,spanish,13 or older,"no, only English or Spanish",yes,2025-07-23_22h25.52.550,empathy_intonation_perc_control,2024.2.4,Win32,166.6666667,65486ad91a5493d24f94d4d1,68817205a84113384fffdfe3,6881997b024da5b9006ab048,,,,,,,,,,,,./stim/wavs/cuban_match_declarative-broad-focus_Maria-bebe-el-vino.wav,0,,,221.9142,223.9506,0,1,1.5323,,0,82,82,53,1,54,0,cuban,,,,,,,,,,,,,,,,,,,,,,,,,,,,,,,,,,,,,,,,,,,,,,,,,,,,,,,,
,,,,,,,,,65486ad91a5493d24f94d4d1,spanish,13 or older,"no, only English or Spanish",yes,2025-07-23_22h25.52.550,empathy_intonation_perc_control,2024.2.4,Win32,166.6666667,65486ad91a5493d24f94d4d1,68817205a84113384fffdfe3,6881997b024da5b9006ab048,,,,,,,,,,,,./stim/wavs/cuban_mismatch_interrogative-total-yn_Mi-novio-viene-del-lago.wav,1,,,223.9509,227.324,0,0,2.867,,0,83,83,32,1,33,1,cuban,,,,,,,,,,,,,,,,,,,,,,,,,,,,,,,,,,,,,,,,,,,,,,,,,,,,,,,,
,,,,,,,,,65486ad91a5493d24f94d4d1,spanish,13 or older,"no, only English or Spanish",yes,2025-07-23_22h25.52.550,empathy_intonation_perc_control,2024.2.4,Win32,166.6666667,65486ad91a5493d24f94d4d1,68817205a84113384fffdfe3,6881997b024da5b9006ab048,,,,,,,,,,,,./stim/wavs/cuban_mismatch_declarative-broad-focus_Mi-tia-odia-la-lluvia.wav,0,,,227.3243,229.7385,0,1,1.9038,,0,84,84,77,1,78,0,cuban,,,,,,,,,,,,,,,,,,,,,,,,,,,,,,,,,,,,,,,,,,,,,,,,,,,,,,,,
,,,,,,,,,65486ad91a5493d24f94d4d1,spanish,13 or older,"no, only English or Spanish",yes,2025-07-23_22h25.52.550,empathy_intonation_perc_control,2024.2.4,Win32,166.6666667,65486ad91a5493d24f94d4d1,68817205a84113384fffdfe3,6881997b024da5b9006ab048,,,,,,,,,,,,./stim/wavs/mexican_match_declarative-broad-focus_Mariano-habla-del-tiempo.wav,0,,,229.7388,232.2356,0,1,1.9879,,0,85,85,60,1,61,0,mexican,,,,,,,,,,,,,,,,,,,,,,,,,,,,,,,,,,,,,,,,,,,,,,,,,,,,,,,,
,,,,,,,,,65486ad91a5493d24f94d4d1,spanish,13 or older,"no, only English or Spanish",yes,2025-07-23_22h25.52.550,empathy_intonation_perc_control,2024.2.4,Win32,166.6666667,65486ad91a5493d24f94d4d1,68817205a84113384fffdfe3,6881997b024da5b9006ab048,,,,,,,,,,,,./stim/wavs/cuban_match_interrogative-total-yn_Marta-abre-el-regalo.wav,1,,,232.2357,234.6902,0,0,1.9469,,0,86,86,11,1,12,1,cuban,,,,,,,,,,,,,,,,,,,,,,,,,,,,,,,,,,,,,,,,,,,,,,,,,,,,,,,,
,,,,,,,,,65486ad91a5493d24f94d4d1,spanish,13 or older,"no, only English or Spanish",yes,2025-07-23_22h25.52.550,empathy_intonation_perc_control,2024.2.4,Win32,166.6666667,65486ad91a5493d24f94d4d1,68817205a84113384fffdfe3,6881997b024da5b9006ab048,,,,,,,,,,,,./stim/wavs/cuban_match_declarative-broad-focus_Marta-abre-el-regalo.wav,0,,,234.6904,237.4418,0,1,2.2437,,0,87,87,55,1,56,0,cuban,,,,,,,,,,,,,,,,,,,,,,,,,,,,,,,,,,,,,,,,,,,,,,,,,,,,,,,,
,,,,,,,"Great! Now we will move on. The next task consists of about 60 trials, in each of which you will see a string of letters. 
  
  Your task is to decide whether this is a real Spanish word or not.", (press the spacebar to continue),65486ad91a5493d24f94d4d1,spanish,13 or older,"no, only English or Spanish",yes,2025-07-23_22h25.52.550,empathy_intonation_perc_control,2024.2.4,Win32,166.6666667,65486ad91a5493d24f94d4d1,68817205a84113384fffdfe3,6881997b024da5b9006ab048,,,,,,,,,,,,,,,,,,,,,,,,,,,,,,237.4458,244.1996,0,0,0,0,1,,,,,,,,,,,,,,,,,,,,,,,,,,,,,,,,,,,,,,,,,,,,,,,,,
,,,,,,,"If you think it is an existing Spanish word, you type '1' (for 'REAL'), and if you think it is not an existing Spanish word, you type '0' (for 'FAKE').", (press the spacebar to continue),65486ad91a5493d24f94d4d1,spanish,13 or older,"no, only English or Spanish",yes,2025-07-23_22h25.52.550,empathy_intonation_perc_control,2024.2.4,Win32,166.6666667,65486ad91a5493d24f94d4d1,68817205a84113384fffdfe3,6881997b024da5b9006ab048,,,,,,,,,,,,,,,,,,,,,,,,,,,,,,244.2005,246.1026,0,1,1,1,1,,,,,,,,,,,,,,,,,,,,,,,,,,,,,,,,,,,,,,,,,,,,,,,,,
,,,,,,,"If you are sure that the word exists, even though you don’t know its exact meaning, you may still respond '1' (REAL). 
  
  But if you are not sure if it is an existing word, you should respond '0' (FAKE).
  
  Let's do a practice round...", (press the spacebar to continue),65486ad91a5493d24f94d4d1,spanish,13 or older,"no, only English or Spanish",yes,2025-07-23_22h25.52.550,empathy_intonation_perc_control,2024.2.4,Win32,166.6666667,65486ad91a5493d24f94d4d1,68817205a84113384fffdfe3,6881997b024da5b9006ab048,,,,,,,,,,,,,,,,,,,,,,,,,,,,,,246.1034,247.6724,0,2,2,2,1,,,,,,,,,,,,,,,,,,,,,,,,,,,,,,,,,,,,,,,,,,,,,,,,,
,,,,,,,,,65486ad91a5493d24f94d4d1,spanish,13 or older,"no, only English or Spanish",yes,2025-07-23_22h25.52.550,empathy_intonation_perc_control,2024.2.4,Win32,166.6666667,65486ad91a5493d24f94d4d1,68817205a84113384fffdfe3,6881997b024da5b9006ab048,,,,,,,,,,,,,0,,,,,,,,,,,,,,,,,,,,,,,,247.6752,249.4907,0,1,1.3039,,249.4908,250.4929,0,0,0,0,1,0,depiste,REAL,FAKE,,,,,,,,,,,,,,,,,,,,,,,,,,,,,,,,
,,,,,,,,,65486ad91a5493d24f94d4d1,spanish,13 or older,"no, only English or Spanish",yes,2025-07-23_22h25.52.550,empathy_intonation_perc_control,2024.2.4,Win32,166.6666667,65486ad91a5493d24f94d4d1,68817205a84113384fffdfe3,6881997b024da5b9006ab048,,,,,,,,,,,,,1,,,,,,,,,,,,,,,,,,,,,,,,250.4936,251.7937,1,1,0.7933,,251.7937,252.7937,0,1,1,1,1,0,sí,REAL,FAKE,,,,,,,,,,,,,,,,,,,,,,,,,,,,,,,,
,,,,,,,,,65486ad91a5493d24f94d4d1,spanish,13 or older,"no, only English or Spanish",yes,2025-07-23_22h25.52.550,empathy_intonation_perc_control,2024.2.4,Win32,166.6666667,65486ad91a5493d24f94d4d1,68817205a84113384fffdfe3,6881997b024da5b9006ab048,,,,,,,,,,,,,0,,,,,,,,,,,,,,,,,,,,,,,,252.7943,254.3755,0,1,1.0705,,254.3756,255.3756,0,2,2,2,1,0,coné,REAL,FAKE,,,,,,,,,,,,,,,,,,,,,,,,,,,,,,,,
,,,,,,,,,65486ad91a5493d24f94d4d1,spanish,13 or older,"no, only English or Spanish",yes,2025-07-23_22h25.52.550,empathy_intonation_perc_control,2024.2.4,Win32,166.6666667,65486ad91a5493d24f94d4d1,68817205a84113384fffdfe3,6881997b024da5b9006ab048,,,,,,,,,,,,,0,,,,,,,,,,,,,,,,,,,,,,,,255.3761,256.9756,0,1,1.0883,,256.9757,257.9757,0,3,3,3,1,0,calpar,REAL,FAKE,,,,,,,,,,,,,,,,,,,,,,,,,,,,,,,,
,,,,,,,,,65486ad91a5493d24f94d4d1,spanish,13 or older,"no, only English or Spanish",yes,2025-07-23_22h25.52.550,empathy_intonation_perc_control,2024.2.4,Win32,166.6666667,65486ad91a5493d24f94d4d1,68817205a84113384fffdfe3,6881997b024da5b9006ab048,,,,,,,,,,,,,0,,,,,,,,,,,,,,,,,,,,,,,,257.9763,259.3272,0,1,0.8403,,259.3272,260.3272,0,4,4,4,1,0,joten,REAL,FAKE,,,,,,,,,,,,,,,,,,,,,,,,,,,,,,,,
,,,,,,,,,65486ad91a5493d24f94d4d1,spanish,13 or older,"no, only English or Spanish",yes,2025-07-23_22h25.52.550,empathy_intonation_perc_control,2024.2.4,Win32,166.6666667,65486ad91a5493d24f94d4d1,68817205a84113384fffdfe3,6881997b024da5b9006ab048,,,,,,,,,,,,,1,,,,,,,,,,,,,,,,,,,,,,,,260.3277,261.5519,0,0,0.7131,,261.5525,262.5519,0,5,5,5,1,0,sacapuntas,REAL,FAKE,,,,,,,,,,,,,,,,,,,,,,,,,,,,,,,,
,,,,,,,,,65486ad91a5493d24f94d4d1,spanish,13 or older,"no, only English or Spanish",yes,2025-07-23_22h25.52.550,empathy_intonation_perc_control,2024.2.4,Win32,166.6666667,65486ad91a5493d24f94d4d1,68817205a84113384fffdfe3,6881997b024da5b9006ab048,,,,,,,,,,,,,0,,,,,,,,,,,,,,,,,,,,,,,,262.5527,264.4244,1,0,1.3609,,264.4244,265.4244,0,6,6,6,1,0,priba,REAL,FAKE,,,,,,,,,,,,,,,,,,,,,,,,,,,,,,,,
,,,,,,,,,65486ad91a5493d24f94d4d1,spanish,13 or older,"no, only English or Spanish",yes,2025-07-23_22h25.52.550,empathy_intonation_perc_control,2024.2.4,Win32,166.6666667,65486ad91a5493d24f94d4d1,68817205a84113384fffdfe3,6881997b024da5b9006ab048,,,,,,,,,,,,,0,,,,,,,,,,,,,,,,,,,,,,,,265.4247,268.0427,1,0,2.1038,,268.0427,269.0426,0,7,7,7,1,0,pelasula,REAL,FAKE,,,,,,,,,,,,,,,,,,,,,,,,,,,,,,,,
,,,,,,,,,65486ad91a5493d24f94d4d1,spanish,13 or older,"no, only English or Spanish",yes,2025-07-23_22h25.52.550,empathy_intonation_perc_control,2024.2.4,Win32,166.6666667,65486ad91a5493d24f94d4d1,68817205a84113384fffdfe3,6881997b024da5b9006ab048,,,,,,,,,,,,,1,,,,,,,,,,,,,,,,,,,,,,,,269.0431,270.5396,1,1,0.9741,,270.54,271.5397,0,8,8,8,1,0,bien,REAL,FAKE,,,,,,,,,,,,,,,,,,,,,,,,,,,,,,,,
,,,,,,,,,65486ad91a5493d24f94d4d1,spanish,13 or older,"no, only English or Spanish",yes,2025-07-23_22h25.52.550,empathy_intonation_perc_control,2024.2.4,Win32,166.6666667,65486ad91a5493d24f94d4d1,68817205a84113384fffdfe3,6881997b024da5b9006ab048,,,,,,,,,,,,,1,,,,,,,,,,,,,,,,,,,,,,,,271.5401,272.6913,1,1,0.6373,,272.6913,273.6912,0,9,9,9,1,0,casa,REAL,FAKE,,,,,,,,,,,,,,,,,,,,,,,,,,,,,,,,
,,,,,,,,,65486ad91a5493d24f94d4d1,spanish,13 or older,"no, only English or Spanish",yes,2025-07-23_22h25.52.550,empathy_intonation_perc_control,2024.2.4,Win32,166.6666667,65486ad91a5493d24f94d4d1,68817205a84113384fffdfe3,6881997b024da5b9006ab048,,,,,,,,,,,,,0,,,,,,,,,,,,,,,,,,,,,,,,273.6917,274.898,0,1,0.7022,,274.898,275.8974,0,10,10,10,1,0,lejo,REAL,FAKE,,,,,,,,,,,,,,,,,,,,,,,,,,,,,,,,
,,,,,,,,,65486ad91a5493d24f94d4d1,spanish,13 or older,"no, only English or Spanish",yes,2025-07-23_22h25.52.550,empathy_intonation_perc_control,2024.2.4,Win32,166.6666667,65486ad91a5493d24f94d4d1,68817205a84113384fffdfe3,6881997b024da5b9006ab048,,,,,,,,,,,,,0,,,,,,,,,,,,,,,,,,,,,,,,275.8978,277.3339,0,1,0.9269,,277.334,278.3339,0,11,11,11,1,0,pretantas,REAL,FAKE,,,,,,,,,,,,,,,,,,,,,,,,,,,,,,,,
,,,,,,,,,65486ad91a5493d24f94d4d1,spanish,13 or older,"no, only English or Spanish",yes,2025-07-23_22h25.52.550,empathy_intonation_perc_control,2024.2.4,Win32,166.6666667,65486ad91a5493d24f94d4d1,68817205a84113384fffdfe3,6881997b024da5b9006ab048,,,,,,,,,,,,,,,,,,,,,,,,,,,,,,,,,,,,,,,,,,,,,,,,,,,,,,278.334,279.922,,,,,,,,,,,,,,,,,,,,,,,,,,,,,,
,,,,,,,,,65486ad91a5493d24f94d4d1,spanish,13 or older,"no, only English or Spanish",yes,2025-07-23_22h25.52.550,empathy_intonation_perc_control,2024.2.4,Win32,166.6666667,65486ad91a5493d24f94d4d1,68817205a84113384fffdfe3,6881997b024da5b9006ab048,,,,,,,,,,,,,1,,,,,,,,,,,,,,,,,,,,,,,,,,,,,,,,,,,,,39,torpe,,,,,279.9289,281.3582,0,0,0.9206,,0,0,0,38,1,REAL,FAKE,,,,,,,,,,,,,,,,,
,,,,,,,,,65486ad91a5493d24f94d4d1,spanish,13 or older,"no, only English or Spanish",yes,2025-07-23_22h25.52.550,empathy_intonation_perc_control,2024.2.4,Win32,166.6666667,65486ad91a5493d24f94d4d1,68817205a84113384fffdfe3,6881997b024da5b9006ab048,,,,,,,,,,,,,1,,,,,,,,,,,,,,,,,,,,,,,,,,,,,,,,,,,,,41,rebuscar,,,,,281.3587,282.8936,1,1,1.0258,,0,1,1,40,1,REAL,FAKE,,,,,,,,,,,,,,,,,
,,,,,,,,,65486ad91a5493d24f94d4d1,spanish,13 or older,"no, only English or Spanish",yes,2025-07-23_22h25.52.550,empathy_intonation_perc_control,2024.2.4,Win32,166.6666667,65486ad91a5493d24f94d4d1,68817205a84113384fffdfe3,6881997b024da5b9006ab048,,,,,,,,,,,,,0,,,,,,,,,,,,,,,,,,,,,,,,,,,,,,,,,,,,,18,arsa,,,,,282.894,284.1037,0,1,0.7007,,0,2,2,17,1,REAL,FAKE,,,,,,,,,,,,,,,,,
,,,,,,,,,65486ad91a5493d24f94d4d1,spanish,13 or older,"no, only English or Spanish",yes,2025-07-23_22h25.52.550,empathy_intonation_perc_control,2024.2.4,Win32,166.6666667,65486ad91a5493d24f94d4d1,68817205a84113384fffdfe3,6881997b024da5b9006ab048,,,,,,,,,,,,,0,,,,,,,,,,,,,,,,,,,,,,,,,,,,,,,,,,,,,17,floroso,,,,,284.1042,285.8008,1,0,1.1844,,0,3,3,16,1,REAL,FAKE,,,,,,,,,,,,,,,,,
,,,,,,,,,65486ad91a5493d24f94d4d1,spanish,13 or older,"no, only English or Spanish",yes,2025-07-23_22h25.52.550,empathy_intonation_perc_control,2024.2.4,Win32,166.6666667,65486ad91a5493d24f94d4d1,68817205a84113384fffdfe3,6881997b024da5b9006ab048,,,,,,,,,,,,,1,,,,,,,,,,,,,,,,,,,,,,,,,,,,,,,,,,,,,76,atar,,,,,285.8011,287.0249,0,0,0.7134,,0,4,4,75,1,REAL,FAKE,,,,,,,,,,,,,,,,,
,,,,,,,,,65486ad91a5493d24f94d4d1,spanish,13 or older,"no, only English or Spanish",yes,2025-07-23_22h25.52.550,empathy_intonation_perc_control,2024.2.4,Win32,166.6666667,65486ad91a5493d24f94d4d1,68817205a84113384fffdfe3,6881997b024da5b9006ab048,,,,,,,,,,,,,1,,,,,,,,,,,,,,,,,,,,,,,,,,,,,,,,,,,,,59,besar,,,,,287.0253,288.3705,1,1,0.8312,,0,5,5,58,1,REAL,FAKE,,,,,,,,,,,,,,,,,
,,,,,,,,,65486ad91a5493d24f94d4d1,spanish,13 or older,"no, only English or Spanish",yes,2025-07-23_22h25.52.550,empathy_intonation_perc_control,2024.2.4,Win32,166.6666667,65486ad91a5493d24f94d4d1,68817205a84113384fffdfe3,6881997b024da5b9006ab048,,,,,,,,,,,,,0,,,,,,,,,,,,,,,,,,,,,,,,,,,,,,,,,,,,,70,temblo,,,,,288.3711,290.3828,0,1,1.5019,,0,6,6,69,1,REAL,FAKE,,,,,,,,,,,,,,,,,
,,,,,,,,,65486ad91a5493d24f94d4d1,spanish,13 or older,"no, only English or Spanish",yes,2025-07-23_22h25.52.550,empathy_intonation_perc_control,2024.2.4,Win32,166.6666667,65486ad91a5493d24f94d4d1,68817205a84113384fffdfe3,6881997b024da5b9006ab048,,,,,,,,,,,,,1,,,,,,,,,,,,,,,,,,,,,,,,,,,,,,,,,,,,,65,bizcocho,,,,,290.3833,291.5603,0,0,0.6667,,0,7,7,64,1,REAL,FAKE,,,,,,,,,,,,,,,,,
,,,,,,,,,65486ad91a5493d24f94d4d1,spanish,13 or older,"no, only English or Spanish",yes,2025-07-23_22h25.52.550,empathy_intonation_perc_control,2024.2.4,Win32,166.6666667,65486ad91a5493d24f94d4d1,68817205a84113384fffdfe3,6881997b024da5b9006ab048,,,,,,,,,,,,,0,,,,,,,,,,,,,,,,,,,,,,,,,,,,,,,,,,,,,92,click the 0 key.,,,,,291.561,292.9828,0,1,0.9141,,0,8,8,91,1,REAL,FAKE,,,,,,,,,,,,,,,,,
,,,,,,,,,65486ad91a5493d24f94d4d1,spanish,13 or older,"no, only English or Spanish",yes,2025-07-23_22h25.52.550,empathy_intonation_perc_control,2024.2.4,Win32,166.6666667,65486ad91a5493d24f94d4d1,68817205a84113384fffdfe3,6881997b024da5b9006ab048,,,,,,,,,,,,,1,,,,,,,,,,,,,,,,,,,,,,,,,,,,,,,,,,,,,60,matar,,,,,292.9832,295.5829,0,0,2.0888,,0,9,9,59,1,REAL,FAKE,,,,,,,,,,,,,,,,,
,,,,,,,,,65486ad91a5493d24f94d4d1,spanish,13 or older,"no, only English or Spanish",yes,2025-07-23_22h25.52.550,empathy_intonation_perc_control,2024.2.4,Win32,166.6666667,65486ad91a5493d24f94d4d1,68817205a84113384fffdfe3,6881997b024da5b9006ab048,,,,,,,,,,,,,0,,,,,,,,,,,,,,,,,,,,,,,,,,,,,,,,,,,,,66,hacido,,,,,295.5832,296.7465,1,0,0.6478,,0,10,10,65,1,REAL,FAKE,,,,,,,,,,,,,,,,,
,,,,,,,,,65486ad91a5493d24f94d4d1,spanish,13 or older,"no, only English or Spanish",yes,2025-07-23_22h25.52.550,empathy_intonation_perc_control,2024.2.4,Win32,166.6666667,65486ad91a5493d24f94d4d1,68817205a84113384fffdfe3,6881997b024da5b9006ab048,,,,,,,,,,,,,1,,,,,,,,,,,,,,,,,,,,,,,,,,,,,,,,,,,,,2,pellizcar,,,,,296.7469,297.8738,0,0,0.6076,,0,11,11,1,1,REAL,FAKE,,,,,,,,,,,,,,,,,
,,,,,,,,,65486ad91a5493d24f94d4d1,spanish,13 or older,"no, only English or Spanish",yes,2025-07-23_22h25.52.550,empathy_intonation_perc_control,2024.2.4,Win32,166.6666667,65486ad91a5493d24f94d4d1,68817205a84113384fffdfe3,6881997b024da5b9006ab048,,,,,,,,,,,,,1,,,,,,,,,,,,,,,,,,,,,,,,,,,,,,,,,,,,,83,guante,,,,,297.8745,299.4011,1,1,1.0143,,0,12,12,82,1,REAL,FAKE,,,,,,,,,,,,,,,,,
,,,,,,,,,65486ad91a5493d24f94d4d1,spanish,13 or older,"no, only English or Spanish",yes,2025-07-23_22h25.52.550,empathy_intonation_perc_control,2024.2.4,Win32,166.6666667,65486ad91a5493d24f94d4d1,68817205a84113384fffdfe3,6881997b024da5b9006ab048,,,,,,,,,,,,,1,,,,,,,,,,,,,,,,,,,,,,,,,,,,,,,,,,,,,9,hacha,,,,,299.4015,300.6196,1,1,0.7035,,0,13,13,8,1,REAL,FAKE,,,,,,,,,,,,,,,,,
,,,,,,,,,65486ad91a5493d24f94d4d1,spanish,13 or older,"no, only English or Spanish",yes,2025-07-23_22h25.52.550,empathy_intonation_perc_control,2024.2.4,Win32,166.6666667,65486ad91a5493d24f94d4d1,68817205a84113384fffdfe3,6881997b024da5b9006ab048,,,,,,,,,,,,,1,,,,,,,,,,,,,,,,,,,,,,,,,,,,,,,,,,,,,25,bisagra,,,,,300.62,301.9042,0,0,0.773,,0,14,14,24,1,REAL,FAKE,,,,,,,,,,,,,,,,,
,,,,,,,,,65486ad91a5493d24f94d4d1,spanish,13 or older,"no, only English or Spanish",yes,2025-07-23_22h25.52.550,empathy_intonation_perc_control,2024.2.4,Win32,166.6666667,65486ad91a5493d24f94d4d1,68817205a84113384fffdfe3,6881997b024da5b9006ab048,,,,,,,,,,,,,0,,,,,,,,,,,,,,,,,,,,,,,,,,,,,,,,,,,,,35,rompido,,,,,301.9046,304.1831,1,0,1.7682,,0,15,15,34,1,REAL,FAKE,,,,,,,,,,,,,,,,,
,,,,,,,,,65486ad91a5493d24f94d4d1,spanish,13 or older,"no, only English or Spanish",yes,2025-07-23_22h25.52.550,empathy_intonation_perc_control,2024.2.4,Win32,166.6666667,65486ad91a5493d24f94d4d1,68817205a84113384fffdfe3,6881997b024da5b9006ab048,,,,,,,,,,,,,0,,,,,,,,,,,,,,,,,,,,,,,,,,,,,,,,,,,,,79,tropaje,,,,,304.1836,305.602,1,0,0.9086,,0,16,16,78,1,REAL,FAKE,,,,,,,,,,,,,,,,,
,,,,,,,,,65486ad91a5493d24f94d4d1,spanish,13 or older,"no, only English or Spanish",yes,2025-07-23_22h25.52.550,empathy_intonation_perc_control,2024.2.4,Win32,166.6666667,65486ad91a5493d24f94d4d1,68817205a84113384fffdfe3,6881997b024da5b9006ab048,,,,,,,,,,,,,0,,,,,,,,,,,,,,,,,,,,,,,,,,,,,,,,,,,,,1,terzo,,,,,305.6023,306.7346,0,1,0.6228,,0,17,17,0,1,REAL,FAKE,,,,,,,,,,,,,,,,,
,,,,,,,,,65486ad91a5493d24f94d4d1,spanish,13 or older,"no, only English or Spanish",yes,2025-07-23_22h25.52.550,empathy_intonation_perc_control,2024.2.4,Win32,166.6666667,65486ad91a5493d24f94d4d1,68817205a84113384fffdfe3,6881997b024da5b9006ab048,,,,,,,,,,,,,0,,,,,,,,,,,,,,,,,,,,,,,,,,,,,,,,,,,,,19,brecedad,,,,,306.735,307.8741,0,1,0.6257,,0,18,18,18,1,REAL,FAKE,,,,,,,,,,,,,,,,,
,,,,,,,,,65486ad91a5493d24f94d4d1,spanish,13 or older,"no, only English or Spanish",yes,2025-07-23_22h25.52.550,empathy_intonation_perc_control,2024.2.4,Win32,166.6666667,65486ad91a5493d24f94d4d1,68817205a84113384fffdfe3,6881997b024da5b9006ab048,,,,,,,,,,,,,1,,,,,,,,,,,,,,,,,,,,,,,,,,,,,,,,,,,,,57,tacaño,,,,,307.8746,309.6256,1,1,1.2407,,0,19,19,56,1,REAL,FAKE,,,,,,,,,,,,,,,,,
,,,,,,,,,65486ad91a5493d24f94d4d1,spanish,13 or older,"no, only English or Spanish",yes,2025-07-23_22h25.52.550,empathy_intonation_perc_control,2024.2.4,Win32,166.6666667,65486ad91a5493d24f94d4d1,68817205a84113384fffdfe3,6881997b024da5b9006ab048,,,,,,,,,,,,,1,,,,,,,,,,,,,,,,,,,,,,,,,,,,,,,,,,,,,61,seda,,,,,309.626,310.7226,0,0,0.5828,,0,20,20,60,1,REAL,FAKE,,,,,,,,,,,,,,,,,
,,,,,,,,,65486ad91a5493d24f94d4d1,spanish,13 or older,"no, only English or Spanish",yes,2025-07-23_22h25.52.550,empathy_intonation_perc_control,2024.2.4,Win32,166.6666667,65486ad91a5493d24f94d4d1,68817205a84113384fffdfe3,6881997b024da5b9006ab048,,,,,,,,,,,,,1,,,,,,,,,,,,,,,,,,,,,,,,,,,,,,,,,,,,,56,musgo,,,,,310.7231,311.8257,0,0,0.5921,,0,21,21,55,1,REAL,FAKE,,,,,,,,,,,,,,,,,
,,,,,,,,,65486ad91a5493d24f94d4d1,spanish,13 or older,"no, only English or Spanish",yes,2025-07-23_22h25.52.550,empathy_intonation_perc_control,2024.2.4,Win32,166.6666667,65486ad91a5493d24f94d4d1,68817205a84113384fffdfe3,6881997b024da5b9006ab048,,,,,,,,,,,,,1,,,,,,,,,,,,,,,,,,,,,,,,,,,,,,,,,,,,,55,nevar,,,,,311.8262,313.6258,0,0,1.2895,,0,22,22,54,1,REAL,FAKE,,,,,,,,,,,,,,,,,
,,,,,,,,,65486ad91a5493d24f94d4d1,spanish,13 or older,"no, only English or Spanish",yes,2025-07-23_22h25.52.550,empathy_intonation_perc_control,2024.2.4,Win32,166.6666667,65486ad91a5493d24f94d4d1,68817205a84113384fffdfe3,6881997b024da5b9006ab048,,,,,,,,,,,,,1,,,,,,,,,,,,,,,,,,,,,,,,,,,,,,,,,,,,,36,loro,,,,,313.6261,315.6743,0,0,1.5345,,0,23,23,35,1,REAL,FAKE,,,,,,,,,,,,,,,,,
,,,,,,,,,65486ad91a5493d24f94d4d1,spanish,13 or older,"no, only English or Spanish",yes,2025-07-23_22h25.52.550,empathy_intonation_perc_control,2024.2.4,Win32,166.6666667,65486ad91a5493d24f94d4d1,68817205a84113384fffdfe3,6881997b024da5b9006ab048,,,,,,,,,,,,,1,,,,,,,,,,,,,,,,,,,,,,,,,,,,,,,,,,,,,40,alfombra,,,,,315.6747,316.9773,0,0,0.7898,,0,24,24,39,1,REAL,FAKE,,,,,,,,,,,,,,,,,
,,,,,,,,,65486ad91a5493d24f94d4d1,spanish,13 or older,"no, only English or Spanish",yes,2025-07-23_22h25.52.550,empathy_intonation_perc_control,2024.2.4,Win32,166.6666667,65486ad91a5493d24f94d4d1,68817205a84113384fffdfe3,6881997b024da5b9006ab048,,,,,,,,,,,,,1,,,,,,,,,,,,,,,,,,,,,,,,,,,,,,,,,,,,,89,prisa,,,,,316.9777,318.2622,0,0,0.7721,,0,25,25,88,1,REAL,FAKE,,,,,,,,,,,,,,,,,
,,,,,,,,,65486ad91a5493d24f94d4d1,spanish,13 or older,"no, only English or Spanish",yes,2025-07-23_22h25.52.550,empathy_intonation_perc_control,2024.2.4,Win32,166.6666667,65486ad91a5493d24f94d4d1,68817205a84113384fffdfe3,6881997b024da5b9006ab048,,,,,,,,,,,,,1,,,,,,,,,,,,,,,,,,,,,,,,,,,,,,,,,,,,,88,acantilado,,,,,318.2626,320.1047,1,1,1.33,,0,26,26,87,1,REAL,FAKE,,,,,,,,,,,,,,,,,
,,,,,,,,,65486ad91a5493d24f94d4d1,spanish,13 or older,"no, only English or Spanish",yes,2025-07-23_22h25.52.550,empathy_intonation_perc_control,2024.2.4,Win32,166.6666667,65486ad91a5493d24f94d4d1,68817205a84113384fffdfe3,6881997b024da5b9006ab048,,,,,,,,,,,,,0,,,,,,,,,,,,,,,,,,,,,,,,,,,,,,,,,,,,,63,esposante,,,,,320.1051,321.3534,1,0,0.7355,,0,27,27,62,1,REAL,FAKE,,,,,,,,,,,,,,,,,
,,,,,,,,,65486ad91a5493d24f94d4d1,spanish,13 or older,"no, only English or Spanish",yes,2025-07-23_22h25.52.550,empathy_intonation_perc_control,2024.2.4,Win32,166.6666667,65486ad91a5493d24f94d4d1,68817205a84113384fffdfe3,6881997b024da5b9006ab048,,,,,,,,,,,,,1,,,,,,,,,,,,,,,,,,,,,,,,,,,,,,,,,,,,,71,polvoriento,,,,,321.3538,322.7774,0,0,0.911,,0,28,28,70,1,REAL,FAKE,,,,,,,,,,,,,,,,,
,,,,,,,,,65486ad91a5493d24f94d4d1,spanish,13 or older,"no, only English or Spanish",yes,2025-07-23_22h25.52.550,empathy_intonation_perc_control,2024.2.4,Win32,166.6666667,65486ad91a5493d24f94d4d1,68817205a84113384fffdfe3,6881997b024da5b9006ab048,,,,,,,,,,,,,1,,,,,,,,,,,,,,,,,,,,,,,,,,,,,,,,,,,,,90,clavel,,,,,322.7779,323.9837,0,0,0.6922,,0,29,29,89,1,REAL,FAKE,,,,,,,,,,,,,,,,,
,,,,,,,,,65486ad91a5493d24f94d4d1,spanish,13 or older,"no, only English or Spanish",yes,2025-07-23_22h25.52.550,empathy_intonation_perc_control,2024.2.4,Win32,166.6666667,65486ad91a5493d24f94d4d1,68817205a84113384fffdfe3,6881997b024da5b9006ab048,,,,,,,,,,,,,1,,,,,,,,,,,,,,,,,,,,,,,,,,,,,,,,,,,,,73,hervidor,,,,,323.9842,325.2079,0,0,0.7122,,0,30,30,72,1,REAL,FAKE,,,,,,,,,,,,,,,,,
,,,,,,,,,65486ad91a5493d24f94d4d1,spanish,13 or older,"no, only English or Spanish",yes,2025-07-23_22h25.52.550,empathy_intonation_perc_control,2024.2.4,Win32,166.6666667,65486ad91a5493d24f94d4d1,68817205a84113384fffdfe3,6881997b024da5b9006ab048,,,,,,,,,,,,,1,,,,,,,,,,,,,,,,,,,,,,,,,,,,,,,,,,,,,20,ávido,,,,,325.2085,326.3776,1,1,0.6562,,0,31,31,19,1,REAL,FAKE,,,,,,,,,,,,,,,,,
,,,,,,,,,65486ad91a5493d24f94d4d1,spanish,13 or older,"no, only English or Spanish",yes,2025-07-23_22h25.52.550,empathy_intonation_perc_control,2024.2.4,Win32,166.6666667,65486ad91a5493d24f94d4d1,68817205a84113384fffdfe3,6881997b024da5b9006ab048,,,,,,,,,,,,,1,,,,,,,,,,,,,,,,,,,,,,,,,,,,,,,,,,,,,3,pulmones,,,,,326.378,327.4807,0,0,0.5878,,0,32,32,2,1,REAL,FAKE,,,,,,,,,,,,,,,,,
,,,,,,,,,65486ad91a5493d24f94d4d1,spanish,13 or older,"no, only English or Spanish",yes,2025-07-23_22h25.52.550,empathy_intonation_perc_control,2024.2.4,Win32,166.6666667,65486ad91a5493d24f94d4d1,68817205a84113384fffdfe3,6881997b024da5b9006ab048,,,,,,,,,,,,,1,,,,,,,,,,,,,,,,,,,,,,,,,,,,,,,,,,,,,14,yunque,,,,,327.4811,328.905,0,0,0.9055,,0,33,33,13,1,REAL,FAKE,,,,,,,,,,,,,,,,,
,,,,,,,,,65486ad91a5493d24f94d4d1,spanish,13 or older,"no, only English or Spanish",yes,2025-07-23_22h25.52.550,empathy_intonation_perc_control,2024.2.4,Win32,166.6666667,65486ad91a5493d24f94d4d1,68817205a84113384fffdfe3,6881997b024da5b9006ab048,,,,,,,,,,,,,1,,,,,,,,,,,,,,,,,,,,,,,,,,,,,,,,,,,,,43,canela,,,,,328.9054,330.1536,1,1,0.7353,,0,34,34,42,1,REAL,FAKE,,,,,,,,,,,,,,,,,
,,,,,,,,,65486ad91a5493d24f94d4d1,spanish,13 or older,"no, only English or Spanish",yes,2025-07-23_22h25.52.550,empathy_intonation_perc_control,2024.2.4,Win32,166.6666667,65486ad91a5493d24f94d4d1,68817205a84113384fffdfe3,6881997b024da5b9006ab048,,,,,,,,,,,,,1,,,,,,,,,,,,,,,,,,,,,,,,,,,,,,,,,,,,,48,ladrón,,,,,330.1542,331.6565,1,1,0.9909,,0,35,35,47,1,REAL,FAKE,,,,,,,,,,,,,,,,,
,,,,,,,,,65486ad91a5493d24f94d4d1,spanish,13 or older,"no, only English or Spanish",yes,2025-07-23_22h25.52.550,empathy_intonation_perc_control,2024.2.4,Win32,166.6666667,65486ad91a5493d24f94d4d1,68817205a84113384fffdfe3,6881997b024da5b9006ab048,,,,,,,,,,,,,1,,,,,,,,,,,,,,,,,,,,,,,,,,,,,,,,,,,,,28,merodear,,,,,331.6569,333.2384,0,0,1.0714,,0,36,36,27,1,REAL,FAKE,,,,,,,,,,,,,,,,,
,,,,,,,,,65486ad91a5493d24f94d4d1,spanish,13 or older,"no, only English or Spanish",yes,2025-07-23_22h25.52.550,empathy_intonation_perc_control,2024.2.4,Win32,166.6666667,65486ad91a5493d24f94d4d1,68817205a84113384fffdfe3,6881997b024da5b9006ab048,,,,,,,,,,,,,1,,,,,,,,,,,,,,,,,,,,,,,,,,,,,,,,,,,,,77,tiburón,,,,,333.2388,334.99,0,0,1.2419,,0,37,37,76,1,REAL,FAKE,,,,,,,,,,,,,,,,,
,,,,,,,,,65486ad91a5493d24f94d4d1,spanish,13 or older,"no, only English or Spanish",yes,2025-07-23_22h25.52.550,empathy_intonation_perc_control,2024.2.4,Win32,166.6666667,65486ad91a5493d24f94d4d1,68817205a84113384fffdfe3,6881997b024da5b9006ab048,,,,,,,,,,,,,1,,,,,,,,,,,,,,,,,,,,,,,,,,,,,,,,,,,,,80,hormiga,,,,,334.9904,336.1537,0,0,0.6504,,0,38,38,79,1,REAL,FAKE,,,,,,,,,,,,,,,,,
,,,,,,,,,65486ad91a5493d24f94d4d1,spanish,13 or older,"no, only English or Spanish",yes,2025-07-23_22h25.52.550,empathy_intonation_perc_control,2024.2.4,Win32,166.6666667,65486ad91a5493d24f94d4d1,68817205a84113384fffdfe3,6881997b024da5b9006ab048,,,,,,,,,,,,,1,,,,,,,,,,,,,,,,,,,,,,,,,,,,,,,,,,,,,52,camisa,,,,,336.1542,337.6385,1,1,0.9746,,0,39,39,51,1,REAL,FAKE,,,,,,,,,,,,,,,,,
,,,,,,,,,65486ad91a5493d24f94d4d1,spanish,13 or older,"no, only English or Spanish",yes,2025-07-23_22h25.52.550,empathy_intonation_perc_control,2024.2.4,Win32,166.6666667,65486ad91a5493d24f94d4d1,68817205a84113384fffdfe3,6881997b024da5b9006ab048,,,,,,,,,,,,,1,,,,,,,,,,,,,,,,,,,,,,,,,,,,,,,,,,,,,31,pandilla,,,,,337.639,339.6386,0,0,1.4895,,0,40,40,30,1,REAL,FAKE,,,,,,,,,,,,,,,,,
,,,,,,,,,65486ad91a5493d24f94d4d1,spanish,13 or older,"no, only English or Spanish",yes,2025-07-23_22h25.52.550,empathy_intonation_perc_control,2024.2.4,Win32,166.6666667,65486ad91a5493d24f94d4d1,68817205a84113384fffdfe3,6881997b024da5b9006ab048,,,,,,,,,,,,,0,,,,,,,,,,,,,,,,,,,,,,,,,,,,,,,,,,,,,21,capillo,,,,,339.6389,341.2144,1,0,1.0657,,0,41,41,20,1,REAL,FAKE,,,,,,,,,,,,,,,,,
,,,,,,,,,65486ad91a5493d24f94d4d1,spanish,13 or older,"no, only English or Spanish",yes,2025-07-23_22h25.52.550,empathy_intonation_perc_control,2024.2.4,Win32,166.6666667,65486ad91a5493d24f94d4d1,68817205a84113384fffdfe3,6881997b024da5b9006ab048,,,,,,,,,,,,,1,,,,,,,,,,,,,,,,,,,,,,,,,,,,,,,,,,,,,75,yacer,,,,,341.2148,343.1608,0,0,1.4351,,0,42,42,74,1,REAL,FAKE,,,,,,,,,,,,,,,,,
,,,,,,,,,65486ad91a5493d24f94d4d1,spanish,13 or older,"no, only English or Spanish",yes,2025-07-23_22h25.52.550,empathy_intonation_perc_control,2024.2.4,Win32,166.6666667,65486ad91a5493d24f94d4d1,68817205a84113384fffdfe3,6881997b024da5b9006ab048,,,,,,,,,,,,,1,,,,,,,,,,,,,,,,,,,,,,,,,,,,,,,,,,,,,46,martillo,,,,,343.1613,344.4751,0,0,0.8006,,0,43,43,45,1,REAL,FAKE,,,,,,,,,,,,,,,,,
,,,,,,,,,65486ad91a5493d24f94d4d1,spanish,13 or older,"no, only English or Spanish",yes,2025-07-23_22h25.52.550,empathy_intonation_perc_control,2024.2.4,Win32,166.6666667,65486ad91a5493d24f94d4d1,68817205a84113384fffdfe3,6881997b024da5b9006ab048,,,,,,,,,,,,,0,,,,,,,,,,,,,,,,,,,,,,,,,,,,,,,,,,,,,23,lampera,,,,,344.4756,346.2387,1,0,1.2528,,0,44,44,22,1,REAL,FAKE,,,,,,,,,,,,,,,,,
,,,,,,,,,65486ad91a5493d24f94d4d1,spanish,13 or older,"no, only English or Spanish",yes,2025-07-23_22h25.52.550,empathy_intonation_perc_control,2024.2.4,Win32,166.6666667,65486ad91a5493d24f94d4d1,68817205a84113384fffdfe3,6881997b024da5b9006ab048,,,,,,,,,,,,,0,,,,,,,,,,,,,,,,,,,,,,,,,,,,,,,,,,,,,58,plaudir,,,,,346.2391,347.4632,0,1,0.7134,,0,45,45,57,1,REAL,FAKE,,,,,,,,,,,,,,,,,
,,,,,,,,,65486ad91a5493d24f94d4d1,spanish,13 or older,"no, only English or Spanish",yes,2025-07-23_22h25.52.550,empathy_intonation_perc_control,2024.2.4,Win32,166.6666667,65486ad91a5493d24f94d4d1,68817205a84113384fffdfe3,6881997b024da5b9006ab048,,,,,,,,,,,,,0,,,,,,,,,,,,,,,,,,,,,,,,,,,,,,,,,,,,,10,antar,,,,,347.4638,349.8994,0,1,1.9215,,0,46,46,9,1,REAL,FAKE,,,,,,,,,,,,,,,,,
,,,,,,,,,65486ad91a5493d24f94d4d1,spanish,13 or older,"no, only English or Spanish",yes,2025-07-23_22h25.52.550,empathy_intonation_perc_control,2024.2.4,Win32,166.6666667,65486ad91a5493d24f94d4d1,68817205a84113384fffdfe3,6881997b024da5b9006ab048,,,,,,,,,,,,,1,,,,,,,,,,,,,,,,,,,,,,,,,,,,,,,,,,,,,38,estornudar,,,,,349.8999,351.5542,0,0,1.1408,,0,47,47,37,1,REAL,FAKE,,,,,,,,,,,,,,,,,
,,,,,,,,,65486ad91a5493d24f94d4d1,spanish,13 or older,"no, only English or Spanish",yes,2025-07-23_22h25.52.550,empathy_intonation_perc_control,2024.2.4,Win32,166.6666667,65486ad91a5493d24f94d4d1,68817205a84113384fffdfe3,6881997b024da5b9006ab048,,,,,,,,,,,,,1,,,,,,,,,,,,,,,,,,,,,,,,,,,,,,,,,,,,,5,zapato,,,,,351.5547,352.8087,1,1,0.7422,,0,48,48,4,1,REAL,FAKE,,,,,,,,,,,,,,,,,
,,,,,,,,,65486ad91a5493d24f94d4d1,spanish,13 or older,"no, only English or Spanish",yes,2025-07-23_22h25.52.550,empathy_intonation_perc_control,2024.2.4,Win32,166.6666667,65486ad91a5493d24f94d4d1,68817205a84113384fffdfe3,6881997b024da5b9006ab048,,,,,,,,,,,,,0,,,,,,,,,,,,,,,,,,,,,,,,,,,,,,,,,,,,,16,abracer,,,,,352.809,354.1663,1,0,0.8474,,0,49,49,15,1,REAL,FAKE,,,,,,,,,,,,,,,,,
,,,,,,,,,65486ad91a5493d24f94d4d1,spanish,13 or older,"no, only English or Spanish",yes,2025-07-23_22h25.52.550,empathy_intonation_perc_control,2024.2.4,Win32,166.6666667,65486ad91a5493d24f94d4d1,68817205a84113384fffdfe3,6881997b024da5b9006ab048,,,,,,,,,,,,,1,,,,,,,,,,,,,,,,,,,,,,,,,,,,,,,,,,,,,78,frondoso,,,,,354.1667,355.3906,0,0,0.714,,0,50,50,77,1,REAL,FAKE,,,,,,,,,,,,,,,,,
,,,,,,,,,65486ad91a5493d24f94d4d1,spanish,13 or older,"no, only English or Spanish",yes,2025-07-23_22h25.52.550,empathy_intonation_perc_control,2024.2.4,Win32,166.6666667,65486ad91a5493d24f94d4d1,68817205a84113384fffdfe3,6881997b024da5b9006ab048,,,,,,,,,,,,,0,,,,,,,,,,,,,,,,,,,,,,,,,,,,,,,,,,,,,30,alardio,,,,,355.3911,356.5846,0,1,0.6821,,0,51,51,29,1,REAL,FAKE,,,,,,,,,,,,,,,,,
,,,,,,,,,65486ad91a5493d24f94d4d1,spanish,13 or older,"no, only English or Spanish",yes,2025-07-23_22h25.52.550,empathy_intonation_perc_control,2024.2.4,Win32,166.6666667,65486ad91a5493d24f94d4d1,68817205a84113384fffdfe3,6881997b024da5b9006ab048,,,,,,,,,,,,,1,,,,,,,,,,,,,,,,,,,,,,,,,,,,,,,,,,,,,51,candado,,,,,356.5856,358.0461,0,0,0.9563,,0,52,52,50,1,REAL,FAKE,,,,,,,,,,,,,,,,,
,,,,,,,,,65486ad91a5493d24f94d4d1,spanish,13 or older,"no, only English or Spanish",yes,2025-07-23_22h25.52.550,empathy_intonation_perc_control,2024.2.4,Win32,166.6666667,65486ad91a5493d24f94d4d1,68817205a84113384fffdfe3,6881997b024da5b9006ab048,,,,,,,,,,,,,1,,,,,,,,,,,,,,,,,,,,,,,,,,,,,,,,,,,,,69,engatusar,,,,,358.0465,359.4244,0,0,0.8676,,0,53,53,68,1,REAL,FAKE,,,,,,,,,,,,,,,,,
,,,,,,,,,65486ad91a5493d24f94d4d1,spanish,13 or older,"no, only English or Spanish",yes,2025-07-23_22h25.52.550,empathy_intonation_perc_control,2024.2.4,Win32,166.6666667,65486ad91a5493d24f94d4d1,68817205a84113384fffdfe3,6881997b024da5b9006ab048,,,,,,,,,,,,,0,,,,,,,,,,,,,,,,,,,,,,,,,,,,,,,,,,,,,87,grodo,,,,,359.4247,360.6826,0,1,0.7519,,0,54,54,86,1,REAL,FAKE,,,,,,,,,,,,,,,,,
,,,,,,,,,65486ad91a5493d24f94d4d1,spanish,13 or older,"no, only English or Spanish",yes,2025-07-23_22h25.52.550,empathy_intonation_perc_control,2024.2.4,Win32,166.6666667,65486ad91a5493d24f94d4d1,68817205a84113384fffdfe3,6881997b024da5b9006ab048,,,,,,,,,,,,,0,,,,,,,,,,,,,,,,,,,,,,,,,,,,,,,,,,,,,84,escuto,,,,,360.683,361.9794,0,1,0.7862,,0,55,55,83,1,REAL,FAKE,,,,,,,,,,,,,,,,,
,,,,,,,,,65486ad91a5493d24f94d4d1,spanish,13 or older,"no, only English or Spanish",yes,2025-07-23_22h25.52.550,empathy_intonation_perc_control,2024.2.4,Win32,166.6666667,65486ad91a5493d24f94d4d1,68817205a84113384fffdfe3,6881997b024da5b9006ab048,,,,,,,,,,,,,1,,,,,,,,,,,,,,,,,,,,,,,,,,,,,,,,,,,,,68,alegre,,,,,361.9798,363.1059,0,0,0.6111,,0,56,56,67,1,REAL,FAKE,,,,,,,,,,,,,,,,,
,,,,,,,,,65486ad91a5493d24f94d4d1,spanish,13 or older,"no, only English or Spanish",yes,2025-07-23_22h25.52.550,empathy_intonation_perc_control,2024.2.4,Win32,166.6666667,65486ad91a5493d24f94d4d1,68817205a84113384fffdfe3,6881997b024da5b9006ab048,,,,,,,,,,,,,1,,,,,,,,,,,,,,,,,,,,,,,,,,,,,,,,,,,,,7,pésimo,,,,,363.1063,364.5666,1,1,0.9503,,0,57,57,6,1,REAL,FAKE,,,,,,,,,,,,,,,,,
,,,,,,,,,65486ad91a5493d24f94d4d1,spanish,13 or older,"no, only English or Spanish",yes,2025-07-23_22h25.52.550,empathy_intonation_perc_control,2024.2.4,Win32,166.6666667,65486ad91a5493d24f94d4d1,68817205a84113384fffdfe3,6881997b024da5b9006ab048,,,,,,,,,,,,,0,,,,,,,,,,,,,,,,,,,,,,,,,,,,,,,,,,,,,82,empirador,,,,,364.567,365.8333,0,1,0.7536,,0,58,58,81,1,REAL,FAKE,,,,,,,,,,,,,,,,,
,,,,,,,,,65486ad91a5493d24f94d4d1,spanish,13 or older,"no, only English or Spanish",yes,2025-07-23_22h25.52.550,empathy_intonation_perc_control,2024.2.4,Win32,166.6666667,65486ad91a5493d24f94d4d1,68817205a84113384fffdfe3,6881997b024da5b9006ab048,,,,,,,,,,,,,1,,,,,,,,,,,,,,,,,,,,,,,,,,,,,,,,,,,,,6,tergiversar,,,,,365.8336,366.9303,0,0,0.5846,,0,59,59,5,1,REAL,FAKE,,,,,,,,,,,,,,,,,
,,,,,,,,,65486ad91a5493d24f94d4d1,spanish,13 or older,"no, only English or Spanish",yes,2025-07-23_22h25.52.550,empathy_intonation_perc_control,2024.2.4,Win32,166.6666667,65486ad91a5493d24f94d4d1,68817205a84113384fffdfe3,6881997b024da5b9006ab048,,,,,,,,,,,,,1,,,,,,,,,,,,,,,,,,,,,,,,,,,,,,,,,,,,,62,flaco,,,,,366.9306,368.2091,1,1,0.7659,,0,60,60,61,1,REAL,FAKE,,,,,,,,,,,,,,,,,
,,,,,,,,,65486ad91a5493d24f94d4d1,spanish,13 or older,"no, only English or Spanish",yes,2025-07-23_22h25.52.550,empathy_intonation_perc_control,2024.2.4,Win32,166.6666667,65486ad91a5493d24f94d4d1,68817205a84113384fffdfe3,6881997b024da5b9006ab048,,,,,,,,,,,,,1,,,,,,,,,,,,,,,,,,,,,,,,,,,,,,,,,,,,,26,secuestro,,,,,368.2095,369.5184,0,0,0.799,,0,61,61,25,1,REAL,FAKE,,,,,,,,,,,,,,,,,
,,,,,,,,,65486ad91a5493d24f94d4d1,spanish,13 or older,"no, only English or Spanish",yes,2025-07-23_22h25.52.550,empathy_intonation_perc_control,2024.2.4,Win32,166.6666667,65486ad91a5493d24f94d4d1,68817205a84113384fffdfe3,6881997b024da5b9006ab048,,,,,,,,,,,,,1,,,,,,,,,,,,,,,,,,,,,,,,,,,,,,,,,,,,,24,látigo,,,,,369.519,370.9364,0,0,0.9062,,0,62,62,23,1,REAL,FAKE,,,,,,,,,,,,,,,,,
,,,,,,,,,65486ad91a5493d24f94d4d1,spanish,13 or older,"no, only English or Spanish",yes,2025-07-23_22h25.52.550,empathy_intonation_perc_control,2024.2.4,Win32,166.6666667,65486ad91a5493d24f94d4d1,68817205a84113384fffdfe3,6881997b024da5b9006ab048,,,,,,,,,,,,,0,,,,,,,,,,,,,,,,,,,,,,,,,,,,,,,,,,,,,47,cartinar,,,,,370.9368,372.4941,1,0,1.0478,,0,63,63,46,1,REAL,FAKE,,,,,,,,,,,,,,,,,
,,,,,,,,,65486ad91a5493d24f94d4d1,spanish,13 or older,"no, only English or Spanish",yes,2025-07-23_22h25.52.550,empathy_intonation_perc_control,2024.2.4,Win32,166.6666667,65486ad91a5493d24f94d4d1,68817205a84113384fffdfe3,6881997b024da5b9006ab048,,,,,,,,,,,,,1,,,,,,,,,,,,,,,,,,,,,,,,,,,,,,,,,,,,,34,aviso,,,,,372.4945,374.2942,0,0,1.2903,,0,64,64,33,1,REAL,FAKE,,,,,,,,,,,,,,,,,
,,,,,,,,,65486ad91a5493d24f94d4d1,spanish,13 or older,"no, only English or Spanish",yes,2025-07-23_22h25.52.550,empathy_intonation_perc_control,2024.2.4,Win32,166.6666667,65486ad91a5493d24f94d4d1,68817205a84113384fffdfe3,6881997b024da5b9006ab048,,,,,,,,,,,,,0,,,,,,,,,,,,,,,,,,,,,,,,,,,,,,,,,,,,,42,cadallo,,,,,374.2945,375.5365,0,1,0.73,,0,65,65,41,1,REAL,FAKE,,,,,,,,,,,,,,,,,
,,,,,,,,,65486ad91a5493d24f94d4d1,spanish,13 or older,"no, only English or Spanish",yes,2025-07-23_22h25.52.550,empathy_intonation_perc_control,2024.2.4,Win32,166.6666667,65486ad91a5493d24f94d4d1,68817205a84113384fffdfe3,6881997b024da5b9006ab048,,,,,,,,,,,,,1,,,,,,,,,,,,,,,,,,,,,,,,,,,,,,,,,,,,,91,click the 1 key.,,,,,375.5371,377.0943,1,1,1.0478,,0,66,66,90,1,REAL,FAKE,,,,,,,,,,,,,,,,,
,,,,,,,,,65486ad91a5493d24f94d4d1,spanish,13 or older,"no, only English or Spanish",yes,2025-07-23_22h25.52.550,empathy_intonation_perc_control,2024.2.4,Win32,166.6666667,65486ad91a5493d24f94d4d1,68817205a84113384fffdfe3,6881997b024da5b9006ab048,,,,,,,,,,,,,0,,,,,,,,,,,,,,,,,,,,,,,,,,,,,,,,,,,,,4,batillón,,,,,377.0946,380.0823,0,1,2.474,,0,67,67,3,1,REAL,FAKE,,,,,,,,,,,,,,,,,
,,,,,,,,,65486ad91a5493d24f94d4d1,spanish,13 or older,"no, only English or Spanish",yes,2025-07-23_22h25.52.550,empathy_intonation_perc_control,2024.2.4,Win32,166.6666667,65486ad91a5493d24f94d4d1,68817205a84113384fffdfe3,6881997b024da5b9006ab048,,,,,,,,,,,,,0,,,,,,,,,,,,,,,,,,,,,,,,,,,,,,,,,,,,,53,vegada,,,,,380.0826,381.367,0,1,0.7724,,0,68,68,52,1,REAL,FAKE,,,,,,,,,,,,,,,,,
,,,,,,,,,65486ad91a5493d24f94d4d1,spanish,13 or older,"no, only English or Spanish",yes,2025-07-23_22h25.52.550,empathy_intonation_perc_control,2024.2.4,Win32,166.6666667,65486ad91a5493d24f94d4d1,68817205a84113384fffdfe3,6881997b024da5b9006ab048,,,,,,,,,,,,,1,,,,,,,,,,,,,,,,,,,,,,,,,,,,,,,,,,,,,12,asesinato,,,,,381.3674,382.6944,0,0,0.8173,,0,69,69,11,1,REAL,FAKE,,,,,,,,,,,,,,,,,
,,,,,,,,,65486ad91a5493d24f94d4d1,spanish,13 or older,"no, only English or Spanish",yes,2025-07-23_22h25.52.550,empathy_intonation_perc_control,2024.2.4,Win32,166.6666667,65486ad91a5493d24f94d4d1,68817205a84113384fffdfe3,6881997b024da5b9006ab048,,,,,,,,,,,,,0,,,,,,,,,,,,,,,,,,,,,,,,,,,,,,,,,,,,,33,pauca,,,,,382.6947,383.9793,0,1,0.7701,,0,70,70,32,1,REAL,FAKE,,,,,,,,,,,,,,,,,
,,,,,,,,,65486ad91a5493d24f94d4d1,spanish,13 or older,"no, only English or Spanish",yes,2025-07-23_22h25.52.550,empathy_intonation_perc_control,2024.2.4,Win32,166.6666667,65486ad91a5493d24f94d4d1,68817205a84113384fffdfe3,6881997b024da5b9006ab048,,,,,,,,,,,,,1,,,,,,,,,,,,,,,,,,,,,,,,,,,,,,,,,,,,,22,lacayo,,,,,383.9797,385.1314,0,0,0.6411,,0,71,71,21,1,REAL,FAKE,,,,,,,,,,,,,,,,,
,,,,,,,,,65486ad91a5493d24f94d4d1,spanish,13 or older,"no, only English or Spanish",yes,2025-07-23_22h25.52.550,empathy_intonation_perc_control,2024.2.4,Win32,166.6666667,65486ad91a5493d24f94d4d1,68817205a84113384fffdfe3,6881997b024da5b9006ab048,,,,,,,,,,,,,1,,,,,,,,,,,,,,,,,,,,,,,,,,,,,,,,,,,,,64,orgulloso,,,,,385.1318,386.3793,0,0,0.734,,0,72,72,63,1,REAL,FAKE,,,,,,,,,,,,,,,,,
,,,,,,,,,65486ad91a5493d24f94d4d1,spanish,13 or older,"no, only English or Spanish",yes,2025-07-23_22h25.52.550,empathy_intonation_perc_control,2024.2.4,Win32,166.6666667,65486ad91a5493d24f94d4d1,68817205a84113384fffdfe3,6881997b024da5b9006ab048,,,,,,,,,,,,,1,,,,,,,,,,,,,,,,,,,,,,,,,,,,,,,,,,,,,86,barato,,,,,386.3798,387.9672,0,0,1.0732,,0,73,73,85,1,REAL,FAKE,,,,,,,,,,,,,,,,,
,,,,,,,,,65486ad91a5493d24f94d4d1,spanish,13 or older,"no, only English or Spanish",yes,2025-07-23_22h25.52.550,empathy_intonation_perc_control,2024.2.4,Win32,166.6666667,65486ad91a5493d24f94d4d1,68817205a84113384fffdfe3,6881997b024da5b9006ab048,,,,,,,,,,,,,0,,,,,,,,,,,,,,,,,,,,,,,,,,,,,,,,,,,,,50,flamida,,,,,387.9676,389.834,0,1,1.3529,,0,74,74,49,1,REAL,FAKE,,,,,,,,,,,,,,,,,
,,,,,,,,,65486ad91a5493d24f94d4d1,spanish,13 or older,"no, only English or Spanish",yes,2025-07-23_22h25.52.550,empathy_intonation_perc_control,2024.2.4,Win32,166.6666667,65486ad91a5493d24f94d4d1,68817205a84113384fffdfe3,6881997b024da5b9006ab048,,,,,,,,,,,,,1,,,,,,,,,,,,,,,,,,,,,,,,,,,,,,,,,,,,,85,laúd,,,,,389.8346,390.9916,0,0,0.6464,,0,75,75,84,1,REAL,FAKE,,,,,,,,,,,,,,,,,
,,,,,,,,,65486ad91a5493d24f94d4d1,spanish,13 or older,"no, only English or Spanish",yes,2025-07-23_22h25.52.550,empathy_intonation_perc_control,2024.2.4,Win32,166.6666667,65486ad91a5493d24f94d4d1,68817205a84113384fffdfe3,6881997b024da5b9006ab048,,,,,,,,,,,,,0,,,,,,,,,,,,,,,,,,,,,,,,,,,,,,,,,,,,,32,fatacidad,,,,,390.9919,392.1612,0,1,0.6566,,0,76,76,31,1,REAL,FAKE,,,,,,,,,,,,,,,,,
,,,,,,,,,65486ad91a5493d24f94d4d1,spanish,13 or older,"no, only English or Spanish",yes,2025-07-23_22h25.52.550,empathy_intonation_perc_control,2024.2.4,Win32,166.6666667,65486ad91a5493d24f94d4d1,68817205a84113384fffdfe3,6881997b024da5b9006ab048,,,,,,,,,,,,,0,,,,,,,,,,,,,,,,,,,,,,,,,,,,,,,,,,,,,74,cintro,,,,,392.1617,394.0162,1,0,1.3433,,0,77,77,73,1,REAL,FAKE,,,,,,,,,,,,,,,,,
,,,,,,,,,65486ad91a5493d24f94d4d1,spanish,13 or older,"no, only English or Spanish",yes,2025-07-23_22h25.52.550,empathy_intonation_perc_control,2024.2.4,Win32,166.6666667,65486ad91a5493d24f94d4d1,68817205a84113384fffdfe3,6881997b024da5b9006ab048,,,,,,,,,,,,,1,,,,,,,,,,,,,,,,,,,,,,,,,,,,,,,,,,,,,81,pozo,,,,,394.0171,395.1674,0,0,0.6342,,0,78,78,80,1,REAL,FAKE,,,,,,,,,,,,,,,,,
,,,,,,,,,65486ad91a5493d24f94d4d1,spanish,13 or older,"no, only English or Spanish",yes,2025-07-23_22h25.52.550,empathy_intonation_perc_control,2024.2.4,Win32,166.6666667,65486ad91a5493d24f94d4d1,68817205a84113384fffdfe3,6881997b024da5b9006ab048,,,,,,,,,,,,,1,,,,,,,,,,,,,,,,,,,,,,,,,,,,,,,,,,,,,15,regar,,,,,395.1678,396.2583,0,0,0.577,,0,79,79,14,1,REAL,FAKE,,,,,,,,,,,,,,,,,
,,,,,,,,,65486ad91a5493d24f94d4d1,spanish,13 or older,"no, only English or Spanish",yes,2025-07-23_22h25.52.550,empathy_intonation_perc_control,2024.2.4,Win32,166.6666667,65486ad91a5493d24f94d4d1,68817205a84113384fffdfe3,6881997b024da5b9006ab048,,,,,,,,,,,,,1,,,,,,,,,,,,,,,,,,,,,,,,,,,,,,,,,,,,,37,granuja,,,,,396.2588,397.5311,0,0,0.7593,,0,80,80,36,1,REAL,FAKE,,,,,,,,,,,,,,,,,
,,,,,,,,,65486ad91a5493d24f94d4d1,spanish,13 or older,"no, only English or Spanish",yes,2025-07-23_22h25.52.550,empathy_intonation_perc_control,2024.2.4,Win32,166.6666667,65486ad91a5493d24f94d4d1,68817205a84113384fffdfe3,6881997b024da5b9006ab048,,,,,,,,,,,,,1,,,,,,,,,,,,,,,,,,,,,,,,,,,,,,,,,,,,,11,cenefa,,,,,397.5316,399.3312,0,0,1.2866,,0,81,81,10,1,REAL,FAKE,,,,,,,,,,,,,,,,,
,,,,,,,,,65486ad91a5493d24f94d4d1,spanish,13 or older,"no, only English or Spanish",yes,2025-07-23_22h25.52.550,empathy_intonation_perc_control,2024.2.4,Win32,166.6666667,65486ad91a5493d24f94d4d1,68817205a84113384fffdfe3,6881997b024da5b9006ab048,,,,,,,,,,,,,0,,,,,,,,,,,,,,,,,,,,,,,,,,,,,,,,,,,,,27,acutación,,,,,399.3316,400.5797,0,1,0.7336,,0,82,82,26,1,REAL,FAKE,,,,,,,,,,,,,,,,,
,,,,,,,,,65486ad91a5493d24f94d4d1,spanish,13 or older,"no, only English or Spanish",yes,2025-07-23_22h25.52.550,empathy_intonation_perc_control,2024.2.4,Win32,166.6666667,65486ad91a5493d24f94d4d1,68817205a84113384fffdfe3,6881997b024da5b9006ab048,,,,,,,,,,,,,1,,,,,,,,,,,,,,,,,,,,,,,,,,,,,,,,,,,,,45,jilguero,,,,,400.5801,401.7193,0,0,0.6269,,0,83,83,44,1,REAL,FAKE,,,,,,,,,,,,,,,,,
,,,,,,,,,65486ad91a5493d24f94d4d1,spanish,13 or older,"no, only English or Spanish",yes,2025-07-23_22h25.52.550,empathy_intonation_perc_control,2024.2.4,Win32,166.6666667,65486ad91a5493d24f94d4d1,68817205a84113384fffdfe3,6881997b024da5b9006ab048,,,,,,,,,,,,,1,,,,,,,,,,,,,,,,,,,,,,,,,,,,,,,,,,,,,49,ganar,,,,,401.7197,403.4949,1,1,1.2651,,0,84,84,48,1,REAL,FAKE,,,,,,,,,,,,,,,,,
,,,,,,,,,65486ad91a5493d24f94d4d1,spanish,13 or older,"no, only English or Spanish",yes,2025-07-23_22h25.52.550,empathy_intonation_perc_control,2024.2.4,Win32,166.6666667,65486ad91a5493d24f94d4d1,68817205a84113384fffdfe3,6881997b024da5b9006ab048,,,,,,,,,,,,,1,,,,,,,,,,,,,,,,,,,,,,,,,,,,,,,,,,,,,67,cabello,,,,,403.4954,404.992,0,0,0.9851,,0,85,85,66,1,REAL,FAKE,,,,,,,,,,,,,,,,,
,,,,,,,,,65486ad91a5493d24f94d4d1,spanish,13 or older,"no, only English or Spanish",yes,2025-07-23_22h25.52.550,empathy_intonation_perc_control,2024.2.4,Win32,166.6666667,65486ad91a5493d24f94d4d1,68817205a84113384fffdfe3,6881997b024da5b9006ab048,,,,,,,,,,,,,0,,,,,,,,,,,,,,,,,,,,,,,,,,,,,,,,,,,,,8,cadeña,,,,,404.9924,406.5435,1,0,1.0402,,0,86,86,7,1,REAL,FAKE,,,,,,,,,,,,,,,,,
,,,,,,,,,65486ad91a5493d24f94d4d1,spanish,13 or older,"no, only English or Spanish",yes,2025-07-23_22h25.52.550,empathy_intonation_perc_control,2024.2.4,Win32,166.6666667,65486ad91a5493d24f94d4d1,68817205a84113384fffdfe3,6881997b024da5b9006ab048,,,,,,,,,,,,,1,,,,,,,,,,,,,,,,,,,,,,,,,,,,,,,,,,,,,13,helar,,,,,406.5439,407.7072,0,0,0.6485,,0,87,87,12,1,REAL,FAKE,,,,,,,,,,,,,,,,,
,,,,,,,,,65486ad91a5493d24f94d4d1,spanish,13 or older,"no, only English or Spanish",yes,2025-07-23_22h25.52.550,empathy_intonation_perc_control,2024.2.4,Win32,166.6666667,65486ad91a5493d24f94d4d1,68817205a84113384fffdfe3,6881997b024da5b9006ab048,,,,,,,,,,,,,0,,,,,,,,,,,,,,,,,,,,,,,,,,,,,,,,,,,,,29,decar,,,,,407.7075,409.0891,0,1,0.8691,,0,88,88,28,1,REAL,FAKE,,,,,,,,,,,,,,,,,
,,,,,,,,,65486ad91a5493d24f94d4d1,spanish,13 or older,"no, only English or Spanish",yes,2025-07-23_22h25.52.550,empathy_intonation_perc_control,2024.2.4,Win32,166.6666667,65486ad91a5493d24f94d4d1,68817205a84113384fffdfe3,6881997b024da5b9006ab048,,,,,,,,,,,,,0,,,,,,,,,,,,,,,,,,,,,,,,,,,,,,,,,,,,,72,pemición,,,,,409.0895,410.3376,0,1,0.7353,,0,89,89,71,1,REAL,FAKE,,,,,,,,,,,,,,,,,
,,,,,,,,,65486ad91a5493d24f94d4d1,spanish,13 or older,"no, only English or Spanish",yes,2025-07-23_22h25.52.550,empathy_intonation_perc_control,2024.2.4,Win32,166.6666667,65486ad91a5493d24f94d4d1,68817205a84113384fffdfe3,6881997b024da5b9006ab048,,,,,,,,,,,,,1,,,,,,,,,,,,,,,,,,,,,,,,,,,,,,,,,,,,,54,fomentar,,,,,410.338,411.4164,0,0,0.5667,,0,90,90,53,1,REAL,FAKE,,,,,,,,,,,,,,,,,
,,,,,,,,,65486ad91a5493d24f94d4d1,spanish,13 or older,"no, only English or Spanish",yes,2025-07-23_22h25.52.550,empathy_intonation_perc_control,2024.2.4,Win32,166.6666667,65486ad91a5493d24f94d4d1,68817205a84113384fffdfe3,6881997b024da5b9006ab048,,,,,,,,,,,,,1,,,,,,,,,,,,,,,,,,,,,,,,,,,,,,,,,,,,,44,cuchara,,,,,411.4169,412.4225,0,0,0.4944,,0,91,91,43,1,REAL,FAKE,,,,,,,,,,,,,,,,,
,,,,,,,,,65486ad91a5493d24f94d4d1,spanish,13 or older,"no, only English or Spanish",yes,2025-07-23_22h25.52.550,empathy_intonation_perc_control,2024.2.4,Win32,166.6666667,65486ad91a5493d24f94d4d1,68817205a84113384fffdfe3,6881997b024da5b9006ab048,,,,,,,,,,,,,,,,,,,,,,,,,,,,,,,,,,,,,,,,,,,,,,,,,,,,,,,,,,,,,,,,,,,,,412.4227,424.8172,,,,,,,,,,,,,,,
,,,,,,,,,65486ad91a5493d24f94d4d1,spanish,13 or older,"no, only English or Spanish",yes,2025-07-23_22h25.52.550,empathy_intonation_perc_control,2024.2.4,Win32,166.6666667,65486ad91a5493d24f94d4d1,68817205a84113384fffdfe3,6881997b024da5b9006ab048,,,,,,,,,,,,,,,,,,,,,,,,,,,1,,,,,,,,,,,,,,,,,,,,,,,,,,,,,,,,,,,,,,,,,,,,424.8242,431.5322,slightly agree,0,0,0,0,1,I can easily tell if someone else wants to enter a conversation.,1,0,1,0,,
,,,,,,,,,65486ad91a5493d24f94d4d1,spanish,13 or older,"no, only English or Spanish",yes,2025-07-23_22h25.52.550,empathy_intonation_perc_control,2024.2.4,Win32,166.6666667,65486ad91a5493d24f94d4d1,68817205a84113384fffdfe3,6881997b024da5b9006ab048,,,,,,,,,,,,,,,,,,,,,,,,,,,2,,,,,,,,,,,,,,,,,,,,,,,,,,,,,,,,,,,,,,,,,,,,431.5328,434.5939,slightly disagree,0,1,1,1,1,I prefer animals to humans.,0,1,0,0,,
,,,,,,,,,65486ad91a5493d24f94d4d1,spanish,13 or older,"no, only English or Spanish",yes,2025-07-23_22h25.52.550,empathy_intonation_perc_control,2024.2.4,Win32,166.6666667,65486ad91a5493d24f94d4d1,68817205a84113384fffdfe3,6881997b024da5b9006ab048,,,,,,,,,,,,,,,,,,,,,,,,,,,3,,,,,,,,,,,,,,,,,,,,,,,,,,,,,,,,,,,,,,,,,,,,434.5946,436.8361,slightly disagree,0,2,2,2,1,I try to keep up with the current trends and fashions.,0,1,0,0,,
,,,,,,,,,65486ad91a5493d24f94d4d1,spanish,13 or older,"no, only English or Spanish",yes,2025-07-23_22h25.52.550,empathy_intonation_perc_control,2024.2.4,Win32,166.6666667,65486ad91a5493d24f94d4d1,68817205a84113384fffdfe3,6881997b024da5b9006ab048,,,,,,,,,,,,,,,,,,,,,,,,,,,4,,,,,,,,,,,,,,,,,,,,,,,,,,,,,,,,,,,,,,,,,,,,436.8369,439.5755,slightly disagree,0,3,3,3,1,"I find it difficult to explain to others things that I understand easily,   when they don't understand it first time.",1,0,0,1,,
,,,,,,,,,65486ad91a5493d24f94d4d1,spanish,13 or older,"no, only English or Spanish",yes,2025-07-23_22h25.52.550,empathy_intonation_perc_control,2024.2.4,Win32,166.6666667,65486ad91a5493d24f94d4d1,68817205a84113384fffdfe3,6881997b024da5b9006ab048,,,,,,,,,,,,,,,,,,,,,,,,,,,5,,,,,,,,,,,,,,,,,,,,,,,,,,,,,,,,,,,,,,,,,,,,439.5759,439.8726,slightly disagree,0,4,4,4,1,I dream most nights.,0,1,0,0,,
,,,,,,,,,65486ad91a5493d24f94d4d1,spanish,13 or older,"no, only English or Spanish",yes,2025-07-23_22h25.52.550,empathy_intonation_perc_control,2024.2.4,Win32,166.6666667,65486ad91a5493d24f94d4d1,68817205a84113384fffdfe3,6881997b024da5b9006ab048,,,,,,,,,,,,,,,,,,,,,,,,,,,6,,,,,,,,,,,,,,,,,,,,,,,,,,,,,,,,,,,,,,,,,,,,439.873,440.0575,slightly disagree,0,5,5,5,1,I really enjoy caring for other people.,1,0,1,0,,
,,,,,,,,,65486ad91a5493d24f94d4d1,spanish,13 or older,"no, only English or Spanish",yes,2025-07-23_22h25.52.550,empathy_intonation_perc_control,2024.2.4,Win32,166.6666667,65486ad91a5493d24f94d4d1,68817205a84113384fffdfe3,6881997b024da5b9006ab048,,,,,,,,,,,,,,,,,,,,,,,,,,,7,,,,,,,,,,,,,,,,,,,,,,,,,,,,,,,,,,,,,,,,,,,,440.058,440.2302,slightly disagree,0,6,6,6,1,I try to solve my own problems rather than discussing them with others.,0,1,0,0,,
,,,,,,,,,65486ad91a5493d24f94d4d1,spanish,13 or older,"no, only English or Spanish",yes,2025-07-23_22h25.52.550,empathy_intonation_perc_control,2024.2.4,Win32,166.6666667,65486ad91a5493d24f94d4d1,68817205a84113384fffdfe3,6881997b024da5b9006ab048,,,,,,,,,,,,,,,,,,,,,,,,,,,8,,,,,,,,,,,,,,,,,,,,,,,,,,,,,,,,,,,,,,,,,,,,440.2307,440.3907,slightly disagree,0,7,7,7,1,I find it hard to know what to do in a social situation.,1,0,0,1,,
,,,,,,,,,65486ad91a5493d24f94d4d1,spanish,13 or older,"no, only English or Spanish",yes,2025-07-23_22h25.52.550,empathy_intonation_perc_control,2024.2.4,Win32,166.6666667,65486ad91a5493d24f94d4d1,68817205a84113384fffdfe3,6881997b024da5b9006ab048,,,,,,,,,,,,,,,,,,,,,,,,,,,9,,,,,,,,,,,,,,,,,,,,,,,,,,,,,,,,,,,,,,,,,,,,440.391,440.5456,slightly disagree,0,8,8,8,1,I am at my best first thing in the morning.,0,1,0,0,,
,,,,,,,,,65486ad91a5493d24f94d4d1,spanish,13 or older,"no, only English or Spanish",yes,2025-07-23_22h25.52.550,empathy_intonation_perc_control,2024.2.4,Win32,166.6666667,65486ad91a5493d24f94d4d1,68817205a84113384fffdfe3,6881997b024da5b9006ab048,,,,,,,,,,,,,,,,,,,,,,,,,,,10,,,,,,,,,,,,,,,,,,,,,,,,,,,,,,,,,,,,,,,,,,,,440.5462,440.7029,slightly disagree,0,9,9,9,1,People often tell me that I went too far in driving my point home in a discussion.,1,0,0,1,,
,,,,,,,,,65486ad91a5493d24f94d4d1,spanish,13 or older,"no, only English or Spanish",yes,2025-07-23_22h25.52.550,empathy_intonation_perc_control,2024.2.4,Win32,166.6666667,65486ad91a5493d24f94d4d1,68817205a84113384fffdfe3,6881997b024da5b9006ab048,,,,,,,,,,,,,,,,,,,,,,,,,,,11,,,,,,,,,,,,,,,,,,,,,,,,,,,,,,,,,,,,,,,,,,,,440.7034,440.8665,slightly disagree,0,10,10,10,1,It doesn't bother me too much if I am late meeting a friend.,1,0,0,1,,
,,,,,,,,,65486ad91a5493d24f94d4d1,spanish,13 or older,"no, only English or Spanish",yes,2025-07-23_22h25.52.550,empathy_intonation_perc_control,2024.2.4,Win32,166.6666667,65486ad91a5493d24f94d4d1,68817205a84113384fffdfe3,6881997b024da5b9006ab048,,,,,,,,,,,,,,,,,,,,,,,,,,,12,,,,,,,,,,,,,,,,,,,,,,,,,,,,,,,,,,,,,,,,,,,,440.867,441.0276,slightly disagree,0,11,11,11,1,"Friendships and relationships are just too difficult, so I tend not to 
  bother with them.",1,0,0,1,,
,,,,,,,,,65486ad91a5493d24f94d4d1,spanish,13 or older,"no, only English or Spanish",yes,2025-07-23_22h25.52.550,empathy_intonation_perc_control,2024.2.4,Win32,166.6666667,65486ad91a5493d24f94d4d1,68817205a84113384fffdfe3,6881997b024da5b9006ab048,,,,,,,,,,,,,,,,,,,,,,,,,,,13,,,,,,,,,,,,,,,,,,,,,,,,,,,,,,,,,,,,,,,,,,,,441.028,442.3238,slightly disagree,0,12,12,12,1,"I would never break a law, no matter how minor.",0,1,0,0,,
,,,,,,,,,65486ad91a5493d24f94d4d1,spanish,13 or older,"no, only English or Spanish",yes,2025-07-23_22h25.52.550,empathy_intonation_perc_control,2024.2.4,Win32,166.6666667,65486ad91a5493d24f94d4d1,68817205a84113384fffdfe3,6881997b024da5b9006ab048,,,,,,,,,,,,,,,,,,,,,,,,,,,14,,,,,,,,,,,,,,,,,,,,,,,,,,,,,,,,,,,,,,,,,,,,442.3242,443.6486,slightly disagree,0,13,13,13,1,I often find it difficult to judge if something is rude or polite.,1,0,0,1,,
,,,,,,,,,65486ad91a5493d24f94d4d1,spanish,13 or older,"no, only English or Spanish",yes,2025-07-23_22h25.52.550,empathy_intonation_perc_control,2024.2.4,Win32,166.6666667,65486ad91a5493d24f94d4d1,68817205a84113384fffdfe3,6881997b024da5b9006ab048,,,,,,,,,,,,,,,,,,,,,,,,,,,15,,,,,,,,,,,,,,,,,,,,,,,,,,,,,,,,,,,,,,,,,,,,443.6491,445.9757,slightly disagree,0,14,14,14,1,"In a conversation, I tend to focus on my own thoughts rather than on what 
  my listener might be thinking.",1,0,0,1,,
,,,,,,,,,65486ad91a5493d24f94d4d1,spanish,13 or older,"no, only English or Spanish",yes,2025-07-23_22h25.52.550,empathy_intonation_perc_control,2024.2.4,Win32,166.6666667,65486ad91a5493d24f94d4d1,68817205a84113384fffdfe3,6881997b024da5b9006ab048,,,,,,,,,,,,,,,,,,,,,,,,,,,16,,,,,,,,,,,,,,,,,,,,,,,,,,,,,,,,,,,,,,,,,,,,445.9762,447.4727,slightly disagree,0,15,15,15,1,I prefer practical jokes to verbal humor.,0,1,0,0,,
,,,,,,,,,65486ad91a5493d24f94d4d1,spanish,13 or older,"no, only English or Spanish",yes,2025-07-23_22h25.52.550,empathy_intonation_perc_control,2024.2.4,Win32,166.6666667,65486ad91a5493d24f94d4d1,68817205a84113384fffdfe3,6881997b024da5b9006ab048,,,,,,,,,,,,,,,,,,,,,,,,,,,17,,,,,,,,,,,,,,,,,,,,,,,,,,,,,,,,,,,,,,,,,,,,447.4732,448.3155,slightly disagree,0,16,16,16,1,I live life for today rather than the future.,0,1,0,0,,
,,,,,,,,,65486ad91a5493d24f94d4d1,spanish,13 or older,"no, only English or Spanish",yes,2025-07-23_22h25.52.550,empathy_intonation_perc_control,2024.2.4,Win32,166.6666667,65486ad91a5493d24f94d4d1,68817205a84113384fffdfe3,6881997b024da5b9006ab048,,,,,,,,,,,,,,,,,,,,,,,,,,,18,,,,,,,,,,,,,,,,,,,,,,,,,,,,,,,,,,,,,,,,,,,,448.3161,449.0478,slightly disagree,0,17,17,17,1,"When I was a child, I enjoyed cutting up worms to see what would happen.",1,0,0,1,,
,,,,,,,,,65486ad91a5493d24f94d4d1,spanish,13 or older,"no, only English or Spanish",yes,2025-07-23_22h25.52.550,empathy_intonation_perc_control,2024.2.4,Win32,166.6666667,65486ad91a5493d24f94d4d1,68817205a84113384fffdfe3,6881997b024da5b9006ab048,,,,,,,,,,,,,,,,,,,,,,,,,,,19,,,,,,,,,,,,,,,,,,,,,,,,,,,,,,,,,,,,,,,,,,,,449.0484,449.7206,slightly disagree,0,18,18,18,1,I can pick up quickly if someone says one thing but means another.,1,0,1,0,,
,,,,,,,,,65486ad91a5493d24f94d4d1,spanish,13 or older,"no, only English or Spanish",yes,2025-07-23_22h25.52.550,empathy_intonation_perc_control,2024.2.4,Win32,166.6666667,65486ad91a5493d24f94d4d1,68817205a84113384fffdfe3,6881997b024da5b9006ab048,,,,,,,,,,,,,,,,,,,,,,,,,,,20,,,,,,,,,,,,,,,,,,,,,,,,,,,,,,,,,,,,,,,,,,,,449.7211,450.3387,slightly disagree,0,19,19,19,1,I tend to have very strong opinions about morality.,0,1,0,0,,
,,,,,,,,,65486ad91a5493d24f94d4d1,spanish,13 or older,"no, only English or Spanish",yes,2025-07-23_22h25.52.550,empathy_intonation_perc_control,2024.2.4,Win32,166.6666667,65486ad91a5493d24f94d4d1,68817205a84113384fffdfe3,6881997b024da5b9006ab048,,,,,,,,,,,,,,,,,,,,,,,,,,,21,,,,,,,,,,,,,,,,,,,,,,,,,,,,,,,,,,,,,,,,,,,,450.3391,451.0236,slightly disagree,0,20,20,20,1,It is hard for me to see why some things upset people so much.,1,0,0,1,,
,,,,,,,,,65486ad91a5493d24f94d4d1,spanish,13 or older,"no, only English or Spanish",yes,2025-07-23_22h25.52.550,empathy_intonation_perc_control,2024.2.4,Win32,166.6666667,65486ad91a5493d24f94d4d1,68817205a84113384fffdfe3,6881997b024da5b9006ab048,,,,,,,,,,,,,,,,,,,,,,,,,,,22,,,,,,,,,,,,,,,,,,,,,,,,,,,,,,,,,,,,,,,,,,,,451.0241,451.9207,slightly disagree,0,21,21,21,1,I find it easy to put myself in somebody else's shoes.,1,0,1,0,,
,,,,,,,,,65486ad91a5493d24f94d4d1,spanish,13 or older,"no, only English or Spanish",yes,2025-07-23_22h25.52.550,empathy_intonation_perc_control,2024.2.4,Win32,166.6666667,65486ad91a5493d24f94d4d1,68817205a84113384fffdfe3,6881997b024da5b9006ab048,,,,,,,,,,,,,,,,,,,,,,,,,,,23,,,,,,,,,,,,,,,,,,,,,,,,,,,,,,,,,,,,,,,,,,,,451.9213,452.854,slightly disagree,0,22,22,22,1,I think that good manners are the most important thing a parent can teach their child.,0,1,0,0,,
,,,,,,,,,65486ad91a5493d24f94d4d1,spanish,13 or older,"no, only English or Spanish",yes,2025-07-23_22h25.52.550,empathy_intonation_perc_control,2024.2.4,Win32,166.6666667,65486ad91a5493d24f94d4d1,68817205a84113384fffdfe3,6881997b024da5b9006ab048,,,,,,,,,,,,,,,,,,,,,,,,,,,24,,,,,,,,,,,,,,,,,,,,,,,,,,,,,,,,,,,,,,,,,,,,452.8546,453.6054,slightly disagree,0,23,23,23,1,I like to do things on the spur of the moment.,0,1,0,0,,
