instructions_2afc.started,instructions_2afc.stopped,instructions_2afc_loop.thisRepN,instructions_2afc_loop.thisTrialN,instructions_2afc_loop.thisN,instructions_2afc_loop.thisIndex,instructions_2afc_loop.ran,instructions_text,continue_text,participant_id,"What variety of Spanish are you most familiar with? (e.g., Peruvian, Spanish, Mexican)",At what age did you begin learning Spanish?,Are you proficient in any languages other than English/Spanish?,"Are you familiar with Caribbean (e.g., Caribbean, Puerto Rican) or Galician Spanish?",date,expName,psychopyVersion,OS,frameRate,id,study_id,session,practice_2afc.started,practice_2afc.stopped,key_resp_2afc_practice.keys,key_resp_2afc_practice.corr,key_resp_2afc_practice.rt,key_resp_2afc_practice.duration,trials_2afc_practice_loop.thisRepN,trials_2afc_practice_loop.thisTrialN,trials_2afc_practice_loop.thisN,trials_2afc_practice_loop.thisIndex,trials_2afc_practice_loop.ran,path,correct_response,check_2afc.started,check_2afc.stopped,trial_2afc.started,trial_2afc.stopped,key_resp_2afc_trial.keys,key_resp_2afc_trial.corr,key_resp_2afc_trial.rt,key_resp_2afc_trial.duration,trials_2afc_loop.thisRepN,trials_2afc_loop.thisTrialN,trials_2afc_loop.thisN,trials_2afc_loop.thisIndex,trials_2afc_loop.ran,item_num,target,variety,instructions_lextale.started,instructions_lextale.stopped,instructions_lextale_loop.thisRepN,instructions_lextale_loop.thisTrialN,instructions_lextale_loop.thisN,instructions_lextale_loop.thisIndex,instructions_lextale_loop.ran,practice_lextale.started,practice_lextale.stopped,key_resp_lextale_practice.keys,key_resp_lextale_practice.corr,key_resp_lextale_practice.rt,key_resp_lextale_practice.duration,practice_feedback_lextale.started,practice_feedback_lextale.stopped,trials_lextale_practice_loop.thisRepN,trials_lextale_practice_loop.thisTrialN,trials_lextale_practice_loop.thisN,trials_lextale_practice_loop.thisIndex,trials_lextale_practice_loop.ran,stim,word,prac_button_real,prac_button_false,check_lextale.started,check_lextale.stopped,trial_lextale.started,trial_lextale.stopped,key_resp_lextale_trial.keys,key_resp_lextale_trial.corr,key_resp_lextale_trial.rt,key_resp_lextale_trial.duration,trials_lextale_loop.thisRepN,trials_lextale_loop.thisTrialN,trials_lextale_loop.thisN,trials_lextale_loop.thisIndex,trials_lextale_loop.ran,button_real,button_false,instructions_eq.started,instructions_eq.stopped,trial_eq.started,trial_eq.stopped,slider_eq_trial.response,trials_eq_loop.thisRepN,trials_eq_loop.thisTrialN,trials_eq_loop.thisN,trials_eq_loop.thisIndex,trials_eq_loop.ran,item,is_test_item,is_distractor,is_agree_score,is_disagree_score,end_exp.started,end_exp.stopped
0.0139,6.5095,0,0,0,0,1,"In the following task you are going to hear a series of utterances. 

  You will decide if the utterances sound like questions or not using your keyboard.", (press the spacebar to continue),655fca2a80e5660b5d4ca8bf,Standard dialect,younger than 13,"yes, I am fluent in another language",yes,2025-07-24_00h37.49.299,empathy_intonation_perc_control,2024.2.4,Win32,147.0588235,655fca2a80e5660b5d4ca8bf,68817205a84113384fffdfe3,6881b860d9fa339eeb54cb36,,,,,,,,,,,,,,,,,,,,,,,,,,,,,,,,,,,,,,,,,,,,,,,,,,,,,,,,,,,,,,,,,,,,,,,,,,,,,,,,,,,,,
6.5123,11.0645,0,1,1,1,1,"If you believe the utterance is a question, type '1' (for 'yes') and if you do not 
  believe it is a question type '0' (for 'no').

  Let's practice a bit...", (press the spacebar to continue),655fca2a80e5660b5d4ca8bf,Standard dialect,younger than 13,"yes, I am fluent in another language",yes,2025-07-24_00h37.49.299,empathy_intonation_perc_control,2024.2.4,Win32,147.0588235,655fca2a80e5660b5d4ca8bf,68817205a84113384fffdfe3,6881b860d9fa339eeb54cb36,,,,,,,,,,,,,,,,,,,,,,,,,,,,,,,,,,,,,,,,,,,,,,,,,,,,,,,,,,,,,,,,,,,,,,,,,,,,,,,,,,,,,
,,,,,,,,,655fca2a80e5660b5d4ca8bf,Standard dialect,younger than 13,"yes, I am fluent in another language",yes,2025-07-24_00h37.49.299,empathy_intonation_perc_control,2024.2.4,Win32,147.0588235,655fca2a80e5660b5d4ca8bf,68817205a84113384fffdfe3,6881b860d9fa339eeb54cb36,11.0734,18.4745,0,1,6.8885,,0,0,0,4,1,./stim/wavs/cuban_statement_filler_Cocinabas-por-la-noche.wav,0,,,,,,,,,,,,,,,,,,,,,,,,,,,,,,,,,,,,,,,,,,,,,,,,,,,,,,,,,,,,,,,,,,,,,,,,
,,,,,,,,,655fca2a80e5660b5d4ca8bf,Standard dialect,younger than 13,"yes, I am fluent in another language",yes,2025-07-24_00h37.49.299,empathy_intonation_perc_control,2024.2.4,Win32,147.0588235,655fca2a80e5660b5d4ca8bf,68817205a84113384fffdfe3,6881b860d9fa339eeb54cb36,18.4754,21.128,1,1,2.1407,,0,1,1,0,1,./stim/wavs/castilian_question_filler_Mi-esposo-conoce-al-chico.wav,1,,,,,,,,,,,,,,,,,,,,,,,,,,,,,,,,,,,,,,,,,,,,,,,,,,,,,,,,,,,,,,,,,,,,,,,,
,,,,,,,,,655fca2a80e5660b5d4ca8bf,Standard dialect,younger than 13,"yes, I am fluent in another language",yes,2025-07-24_00h37.49.299,empathy_intonation_perc_control,2024.2.4,Win32,147.0588235,655fca2a80e5660b5d4ca8bf,68817205a84113384fffdfe3,6881b860d9fa339eeb54cb36,21.129,26.947,1,1,5.3061,,0,2,2,2,1,./stim/wavs/chilean_question_filler_Mi-padre-cantaba-bien.wav,1,,,,,,,,,,,,,,,,,,,,,,,,,,,,,,,,,,,,,,,,,,,,,,,,,,,,,,,,,,,,,,,,,,,,,,,,
,,,,,,,,,655fca2a80e5660b5d4ca8bf,Standard dialect,younger than 13,"yes, I am fluent in another language",yes,2025-07-24_00h37.49.299,empathy_intonation_perc_control,2024.2.4,Win32,147.0588235,655fca2a80e5660b5d4ca8bf,68817205a84113384fffdfe3,6881b860d9fa339eeb54cb36,26.9477,29.3495,1,1,1.889,,0,3,3,3,1,./stim/wavs/mexican_question_filler_Felipe-no-tiene-contrasena.wav,1,,,,,,,,,,,,,,,,,,,,,,,,,,,,,,,,,,,,,,,,,,,,,,,,,,,,,,,,,,,,,,,,,,,,,,,,
,,,,,,,,,655fca2a80e5660b5d4ca8bf,Standard dialect,younger than 13,"yes, I am fluent in another language",yes,2025-07-24_00h37.49.299,empathy_intonation_perc_control,2024.2.4,Win32,147.0588235,655fca2a80e5660b5d4ca8bf,68817205a84113384fffdfe3,6881b860d9fa339eeb54cb36,29.3499,31.5518,1,1,1.6889,,0,4,4,1,1,./stim/wavs/argentine_question_filler_Mi-vecino-habla-mucho.wav,1,,,,,,,,,,,,,,,,,,,,,,,,,,,,,,,,,,,,,,,,,,,,,,,,,,,,,,,,,,,,,,,,,,,,,,,,
,,,,,,,,,655fca2a80e5660b5d4ca8bf,Standard dialect,younger than 13,"yes, I am fluent in another language",yes,2025-07-24_00h37.49.299,empathy_intonation_perc_control,2024.2.4,Win32,147.0588235,655fca2a80e5660b5d4ca8bf,68817205a84113384fffdfe3,6881b860d9fa339eeb54cb36,31.553,34.0785,0,1,2.0132,,0,5,5,5,1,./stim/wavs/andalusian_statement_filler_Alberto-nunca-se-afeita.wav,0,,,,,,,,,,,,,,,,,,,,,,,,,,,,,,,,,,,,,,,,,,,,,,,,,,,,,,,,,,,,,,,,,,,,,,,,
,,,,,,,,,655fca2a80e5660b5d4ca8bf,Standard dialect,younger than 13,"yes, I am fluent in another language",yes,2025-07-24_00h37.49.299,empathy_intonation_perc_control,2024.2.4,Win32,147.0588235,655fca2a80e5660b5d4ca8bf,68817205a84113384fffdfe3,6881b860d9fa339eeb54cb36,34.0788,36.6833,0,1,2.091,,0,6,6,7,1,./stim/wavs/puertorican_statement_filler_La-nina-pinta-con-su-amiga.wav,0,,,,,,,,,,,,,,,,,,,,,,,,,,,,,,,,,,,,,,,,,,,,,,,,,,,,,,,,,,,,,,,,,,,,,,,,
,,,,,,,,,655fca2a80e5660b5d4ca8bf,Standard dialect,younger than 13,"yes, I am fluent in another language",yes,2025-07-24_00h37.49.299,empathy_intonation_perc_control,2024.2.4,Win32,147.0588235,655fca2a80e5660b5d4ca8bf,68817205a84113384fffdfe3,6881b860d9fa339eeb54cb36,36.684,39.5174,0,1,2.3201,,0,7,7,6,1,./stim/wavs/peruvian_statement_filler_El-nino-habla-con-su-madre.wav,0,,,,,,,,,,,,,,,,,,,,,,,,,,,,,,,,,,,,,,,,,,,,,,,,,,,,,,,,,,,,,,,,,,,,,,,,
,,,,,,,,,655fca2a80e5660b5d4ca8bf,Standard dialect,younger than 13,"yes, I am fluent in another language",yes,2025-07-24_00h37.49.299,empathy_intonation_perc_control,2024.2.4,Win32,147.0588235,655fca2a80e5660b5d4ca8bf,68817205a84113384fffdfe3,6881b860d9fa339eeb54cb36,,,,,,,,,,,,,,39.518,42.5791,,,,,,,,,,,,,,,,,,,,,,,,,,,,,,,,,,,,,,,,,,,,,,,,,,,,,,,,,,,,,,,,,,,,,,
,,,,,,,,,655fca2a80e5660b5d4ca8bf,Standard dialect,younger than 13,"yes, I am fluent in another language",yes,2025-07-24_00h37.49.299,empathy_intonation_perc_control,2024.2.4,Win32,147.0588235,655fca2a80e5660b5d4ca8bf,68817205a84113384fffdfe3,6881b860d9fa339eeb54cb36,,,,,,,,,,,,./stim/wavs/puertorican_match_declarative-broad-focus_Maria-bebe-el-vino.wav,0,,,42.5891,45.3425,1,0,2.2413,,0,0,0,67,1,68,0,puertorican,,,,,,,,,,,,,,,,,,,,,,,,,,,,,,,,,,,,,,,,,,,,,,,,,,,,,,,,
,,,,,,,,,655fca2a80e5660b5d4ca8bf,Standard dialect,younger than 13,"yes, I am fluent in another language",yes,2025-07-24_00h37.49.299,empathy_intonation_perc_control,2024.2.4,Win32,147.0588235,655fca2a80e5660b5d4ca8bf,68817205a84113384fffdfe3,6881b860d9fa339eeb54cb36,,,,,,,,,,,,./stim/wavs/mexican_match_interrogative-total-yn_Ana-lleva-el-abrigo.wav,1,,,45.343,47.6007,1,1,1.7447,,0,1,1,12,1,13,0,mexican,,,,,,,,,,,,,,,,,,,,,,,,,,,,,,,,,,,,,,,,,,,,,,,,,,,,,,,,
,,,,,,,,,655fca2a80e5660b5d4ca8bf,Standard dialect,younger than 13,"yes, I am fluent in another language",yes,2025-07-24_00h37.49.299,empathy_intonation_perc_control,2024.2.4,Win32,147.0588235,655fca2a80e5660b5d4ca8bf,68817205a84113384fffdfe3,6881b860d9fa339eeb54cb36,,,,,,,,,,,,./stim/wavs/puertorican_mismatch_interrogative-total-yn_La-nina-lava-el-plato.wav,1,,,47.6015,50.2596,0,0,2.1452,,0,2,2,42,1,43,1,puertorican,,,,,,,,,,,,,,,,,,,,,,,,,,,,,,,,,,,,,,,,,,,,,,,,,,,,,,,,
,,,,,,,,,655fca2a80e5660b5d4ca8bf,Standard dialect,younger than 13,"yes, I am fluent in another language",yes,2025-07-24_00h37.49.299,empathy_intonation_perc_control,2024.2.4,Win32,147.0588235,655fca2a80e5660b5d4ca8bf,68817205a84113384fffdfe3,6881b860d9fa339eeb54cb36,,,,,,,,,,,,./stim/wavs/mexican_match_interrogative-total-yn_Mariano-habla-del-tiempo.wav,1,,,50.2606,52.5661,1,1,1.793,,0,3,3,16,1,17,0,mexican,,,,,,,,,,,,,,,,,,,,,,,,,,,,,,,,,,,,,,,,,,,,,,,,,,,,,,,,
,,,,,,,,,655fca2a80e5660b5d4ca8bf,Standard dialect,younger than 13,"yes, I am fluent in another language",yes,2025-07-24_00h37.49.299,empathy_intonation_perc_control,2024.2.4,Win32,147.0588235,655fca2a80e5660b5d4ca8bf,68817205a84113384fffdfe3,6881b860d9fa339eeb54cb36,,,,,,,,,,,,./stim/wavs/puertorican_mismatch_declarative-broad-focus_La-nina-lava-el-plato.wav,0,,,52.5667,56.523,0,1,3.4443,,0,4,4,87,1,88,0,puertorican,,,,,,,,,,,,,,,,,,,,,,,,,,,,,,,,,,,,,,,,,,,,,,,,,,,,,,,,
,,,,,,,,,655fca2a80e5660b5d4ca8bf,Standard dialect,younger than 13,"yes, I am fluent in another language",yes,2025-07-24_00h37.49.299,empathy_intonation_perc_control,2024.2.4,Win32,147.0588235,655fca2a80e5660b5d4ca8bf,68817205a84113384fffdfe3,6881b860d9fa339eeb54cb36,,,,,,,,,,,,./stim/wavs/mexican_mismatch_interrogative-total-yn_El-hombre-mira-la-luna.wav,1,,,56.5234,58.7244,1,1,1.6946,,0,5,5,34,1,35,0,mexican,,,,,,,,,,,,,,,,,,,,,,,,,,,,,,,,,,,,,,,,,,,,,,,,,,,,,,,,
,,,,,,,,,655fca2a80e5660b5d4ca8bf,Standard dialect,younger than 13,"yes, I am fluent in another language",yes,2025-07-24_00h37.49.299,empathy_intonation_perc_control,2024.2.4,Win32,147.0588235,655fca2a80e5660b5d4ca8bf,68817205a84113384fffdfe3,6881b860d9fa339eeb54cb36,,,,,,,,,,,,./stim/wavs/mexican_mismatch_interrogative-total-yn_Mi-novio-viene-del-lago.wav,1,,,58.7248,60.8773,1,1,1.6379,,0,6,6,37,1,38,0,mexican,,,,,,,,,,,,,,,,,,,,,,,,,,,,,,,,,,,,,,,,,,,,,,,,,,,,,,,,
,,,,,,,,,655fca2a80e5660b5d4ca8bf,Standard dialect,younger than 13,"yes, I am fluent in another language",yes,2025-07-24_00h37.49.299,empathy_intonation_perc_control,2024.2.4,Win32,147.0588235,655fca2a80e5660b5d4ca8bf,68817205a84113384fffdfe3,6881b860d9fa339eeb54cb36,,,,,,,,,,,,./stim/wavs/cuban_match_interrogative-total-yn_Marta-abre-el-regalo.wav,1,,,60.8777,64.3423,0,0,2.9523,,0,7,7,11,1,12,1,cuban,,,,,,,,,,,,,,,,,,,,,,,,,,,,,,,,,,,,,,,,,,,,,,,,,,,,,,,,
,,,,,,,,,655fca2a80e5660b5d4ca8bf,Standard dialect,younger than 13,"yes, I am fluent in another language",yes,2025-07-24_00h37.49.299,empathy_intonation_perc_control,2024.2.4,Win32,147.0588235,655fca2a80e5660b5d4ca8bf,68817205a84113384fffdfe3,6881b860d9fa339eeb54cb36,,,,,,,,,,,,./stim/wavs/castilian_match_interrogative-total-yn_Manuela-vende-el-carro.wav,1,,,64.3428,66.6202,1,1,1.771,,0,8,8,2,1,3,0,castilian,,,,,,,,,,,,,,,,,,,,,,,,,,,,,,,,,,,,,,,,,,,,,,,,,,,,,,,,
,,,,,,,,,655fca2a80e5660b5d4ca8bf,Standard dialect,younger than 13,"yes, I am fluent in another language",yes,2025-07-24_00h37.49.299,empathy_intonation_perc_control,2024.2.4,Win32,147.0588235,655fca2a80e5660b5d4ca8bf,68817205a84113384fffdfe3,6881b860d9fa339eeb54cb36,,,,,,,,,,,,./stim/wavs/mexican_mismatch_declarative-broad-focus_El-bebe-comia-muy-bien.wav,0,,,66.6205,69.2107,0,1,2.0763,,0,9,9,78,1,79,0,mexican,,,,,,,,,,,,,,,,,,,,,,,,,,,,,,,,,,,,,,,,,,,,,,,,,,,,,,,,
,,,,,,,,,655fca2a80e5660b5d4ca8bf,Standard dialect,younger than 13,"yes, I am fluent in another language",yes,2025-07-24_00h37.49.299,empathy_intonation_perc_control,2024.2.4,Win32,147.0588235,655fca2a80e5660b5d4ca8bf,68817205a84113384fffdfe3,6881b860d9fa339eeb54cb36,,,,,,,,,,,,./stim/wavs/puertorican_mismatch_declarative-broad-focus_La-maestra-vive-en-Paris.wav,0,,,69.2112,73.9402,0,1,4.2158,,0,10,10,86,1,87,0,puertorican,,,,,,,,,,,,,,,,,,,,,,,,,,,,,,,,,,,,,,,,,,,,,,,,,,,,,,,,
,,,,,,,,,655fca2a80e5660b5d4ca8bf,Standard dialect,younger than 13,"yes, I am fluent in another language",yes,2025-07-24_00h37.49.299,empathy_intonation_perc_control,2024.2.4,Win32,147.0588235,655fca2a80e5660b5d4ca8bf,68817205a84113384fffdfe3,6881b860d9fa339eeb54cb36,,,,,,,,,,,,./stim/wavs/mexican_mismatch_declarative-broad-focus_Mi-tia-odia-la-lluvia.wav,0,,,73.9407,76.3772,0,1,1.9299,,0,11,11,82,1,83,0,mexican,,,,,,,,,,,,,,,,,,,,,,,,,,,,,,,,,,,,,,,,,,,,,,,,,,,,,,,,
,,,,,,,,,655fca2a80e5660b5d4ca8bf,Standard dialect,younger than 13,"yes, I am fluent in another language",yes,2025-07-24_00h37.49.299,empathy_intonation_perc_control,2024.2.4,Win32,147.0588235,655fca2a80e5660b5d4ca8bf,68817205a84113384fffdfe3,6881b860d9fa339eeb54cb36,,,,,,,,,,,,./stim/wavs/puertorican_match_interrogative-total-yn_Maria-bebe-el-vino.wav,1,,,76.3777,78.5661,1,1,1.6747,,0,12,12,23,1,24,1,puertorican,,,,,,,,,,,,,,,,,,,,,,,,,,,,,,,,,,,,,,,,,,,,,,,,,,,,,,,,
,,,,,,,,,655fca2a80e5660b5d4ca8bf,Standard dialect,younger than 13,"yes, I am fluent in another language",yes,2025-07-24_00h37.49.299,empathy_intonation_perc_control,2024.2.4,Win32,147.0588235,655fca2a80e5660b5d4ca8bf,68817205a84113384fffdfe3,6881b860d9fa339eeb54cb36,,,,,,,,,,,,./stim/wavs/cuban_match_interrogative-total-yn_Ana-lleva-el-abrigo.wav,1,,,78.5671,82.2452,0,0,3.1653,,0,13,13,6,1,7,1,cuban,,,,,,,,,,,,,,,,,,,,,,,,,,,,,,,,,,,,,,,,,,,,,,,,,,,,,,,,
,,,,,,,,,655fca2a80e5660b5d4ca8bf,Standard dialect,younger than 13,"yes, I am fluent in another language",yes,2025-07-24_00h37.49.299,empathy_intonation_perc_control,2024.2.4,Win32,147.0588235,655fca2a80e5660b5d4ca8bf,68817205a84113384fffdfe3,6881b860d9fa339eeb54cb36,,,,,,,,,,,,./stim/wavs/mexican_match_interrogative-total-yn_Daniel-iba-a-Bolivia.wav,1,,,82.2455,84.5507,1,1,1.7989,,0,14,14,13,1,14,0,mexican,,,,,,,,,,,,,,,,,,,,,,,,,,,,,,,,,,,,,,,,,,,,,,,,,,,,,,,,
,,,,,,,,,655fca2a80e5660b5d4ca8bf,Standard dialect,younger than 13,"yes, I am fluent in another language",yes,2025-07-24_00h37.49.299,empathy_intonation_perc_control,2024.2.4,Win32,147.0588235,655fca2a80e5660b5d4ca8bf,68817205a84113384fffdfe3,6881b860d9fa339eeb54cb36,,,,,,,,,,,,./stim/wavs/cuban_match_interrogative-total-yn_Mariano-habla-del-tiempo.wav,1,,,84.5511,86.759,0,0,1.6945,,0,15,15,10,1,11,1,cuban,,,,,,,,,,,,,,,,,,,,,,,,,,,,,,,,,,,,,,,,,,,,,,,,,,,,,,,,
,,,,,,,,,655fca2a80e5660b5d4ca8bf,Standard dialect,younger than 13,"yes, I am fluent in another language",yes,2025-07-24_00h37.49.299,empathy_intonation_perc_control,2024.2.4,Win32,147.0588235,655fca2a80e5660b5d4ca8bf,68817205a84113384fffdfe3,6881b860d9fa339eeb54cb36,,,,,,,,,,,,./stim/wavs/castilian_mismatch_interrogative-total-yn_Mi-madre-come-la-fruta.wav,1,,,86.7594,89.2521,1,1,1.9779,,0,16,16,26,1,27,0,castilian,,,,,,,,,,,,,,,,,,,,,,,,,,,,,,,,,,,,,,,,,,,,,,,,,,,,,,,,
,,,,,,,,,655fca2a80e5660b5d4ca8bf,Standard dialect,younger than 13,"yes, I am fluent in another language",yes,2025-07-24_00h37.49.299,empathy_intonation_perc_control,2024.2.4,Win32,147.0588235,655fca2a80e5660b5d4ca8bf,68817205a84113384fffdfe3,6881b860d9fa339eeb54cb36,,,,,,,,,,,,./stim/wavs/cuban_match_declarative-broad-focus_Mariano-habla-del-tiempo.wav,0,,,89.2525,91.9472,0,1,2.1819,,0,17,17,54,1,55,0,cuban,,,,,,,,,,,,,,,,,,,,,,,,,,,,,,,,,,,,,,,,,,,,,,,,,,,,,,,,
,,,,,,,,,655fca2a80e5660b5d4ca8bf,Standard dialect,younger than 13,"yes, I am fluent in another language",yes,2025-07-24_00h37.49.299,empathy_intonation_perc_control,2024.2.4,Win32,147.0588235,655fca2a80e5660b5d4ca8bf,68817205a84113384fffdfe3,6881b860d9fa339eeb54cb36,,,,,,,,,,,,./stim/wavs/mexican_match_declarative-broad-focus_Mariano-habla-del-tiempo.wav,0,,,91.9477,94.5451,0,1,2.0841,,0,18,18,60,1,61,0,mexican,,,,,,,,,,,,,,,,,,,,,,,,,,,,,,,,,,,,,,,,,,,,,,,,,,,,,,,,
,,,,,,,,,655fca2a80e5660b5d4ca8bf,Standard dialect,younger than 13,"yes, I am fluent in another language",yes,2025-07-24_00h37.49.299,empathy_intonation_perc_control,2024.2.4,Win32,147.0588235,655fca2a80e5660b5d4ca8bf,68817205a84113384fffdfe3,6881b860d9fa339eeb54cb36,,,,,,,,,,,,./stim/wavs/cuban_match_declarative-broad-focus_Maria-bebe-el-vino.wav,0,,,94.5459,97.6272,0,1,2.5692,,0,19,19,53,1,54,0,cuban,,,,,,,,,,,,,,,,,,,,,,,,,,,,,,,,,,,,,,,,,,,,,,,,,,,,,,,,
,,,,,,,,,655fca2a80e5660b5d4ca8bf,Standard dialect,younger than 13,"yes, I am fluent in another language",yes,2025-07-24_00h37.49.299,empathy_intonation_perc_control,2024.2.4,Win32,147.0588235,655fca2a80e5660b5d4ca8bf,68817205a84113384fffdfe3,6881b860d9fa339eeb54cb36,,,,,,,,,,,,./stim/wavs/puertorican_match_interrogative-total-yn_Daniel-iba-a-Bolivia.wav,1,,,97.6276,101.8389,1,1,3.6973,,0,20,20,19,1,20,1,puertorican,,,,,,,,,,,,,,,,,,,,,,,,,,,,,,,,,,,,,,,,,,,,,,,,,,,,,,,,
,,,,,,,,,655fca2a80e5660b5d4ca8bf,Standard dialect,younger than 13,"yes, I am fluent in another language",yes,2025-07-24_00h37.49.299,empathy_intonation_perc_control,2024.2.4,Win32,147.0588235,655fca2a80e5660b5d4ca8bf,68817205a84113384fffdfe3,6881b860d9fa339eeb54cb36,,,,,,,,,,,,./stim/wavs/puertorican_mismatch_interrogative-total-yn_El-hombre-mira-la-luna.wav,1,,,101.8395,103.8438,1,1,1.4936,,0,21,21,39,1,40,1,puertorican,,,,,,,,,,,,,,,,,,,,,,,,,,,,,,,,,,,,,,,,,,,,,,,,,,,,,,,,
,,,,,,,,,655fca2a80e5660b5d4ca8bf,Standard dialect,younger than 13,"yes, I am fluent in another language",yes,2025-07-24_00h37.49.299,empathy_intonation_perc_control,2024.2.4,Win32,147.0588235,655fca2a80e5660b5d4ca8bf,68817205a84113384fffdfe3,6881b860d9fa339eeb54cb36,,,,,,,,,,,,./stim/wavs/mexican_match_interrogative-total-yn_David-leia-el-libro.wav,1,,,103.8447,105.8772,1,1,1.5202,,0,22,22,14,1,15,0,mexican,,,,,,,,,,,,,,,,,,,,,,,,,,,,,,,,,,,,,,,,,,,,,,,,,,,,,,,,
,,,,,,,,,655fca2a80e5660b5d4ca8bf,Standard dialect,younger than 13,"yes, I am fluent in another language",yes,2025-07-24_00h37.49.299,empathy_intonation_perc_control,2024.2.4,Win32,147.0588235,655fca2a80e5660b5d4ca8bf,68817205a84113384fffdfe3,6881b860d9fa339eeb54cb36,,,,,,,,,,,,./stim/wavs/mexican_mismatch_interrogative-total-yn_Mi-tia-odia-la-lluvia.wav,1,,,105.8775,108.1487,1,1,1.7578,,0,23,23,38,1,39,0,mexican,,,,,,,,,,,,,,,,,,,,,,,,,,,,,,,,,,,,,,,,,,,,,,,,,,,,,,,,
,,,,,,,,,655fca2a80e5660b5d4ca8bf,Standard dialect,younger than 13,"yes, I am fluent in another language",yes,2025-07-24_00h37.49.299,empathy_intonation_perc_control,2024.2.4,Win32,147.0588235,655fca2a80e5660b5d4ca8bf,68817205a84113384fffdfe3,6881b860d9fa339eeb54cb36,,,,,,,,,,,,./stim/wavs/castilian_match_declarative-broad-focus_Manuela-vende-el-carro.wav,0,,,108.1494,110.7591,0,1,2.0962,,0,24,24,46,1,47,0,castilian,,,,,,,,,,,,,,,,,,,,,,,,,,,,,,,,,,,,,,,,,,,,,,,,,,,,,,,,
,,,,,,,,,655fca2a80e5660b5d4ca8bf,Standard dialect,younger than 13,"yes, I am fluent in another language",yes,2025-07-24_00h37.49.299,empathy_intonation_perc_control,2024.2.4,Win32,147.0588235,655fca2a80e5660b5d4ca8bf,68817205a84113384fffdfe3,6881b860d9fa339eeb54cb36,,,,,,,,,,,,./stim/wavs/cuban_match_interrogative-total-yn_Manuela-vende-el-carro.wav,1,,,110.7594,112.8146,0,0,1.5419,,0,25,25,8,1,9,1,cuban,,,,,,,,,,,,,,,,,,,,,,,,,,,,,,,,,,,,,,,,,,,,,,,,,,,,,,,,
,,,,,,,,,655fca2a80e5660b5d4ca8bf,Standard dialect,younger than 13,"yes, I am fluent in another language",yes,2025-07-24_00h37.49.299,empathy_intonation_perc_control,2024.2.4,Win32,147.0588235,655fca2a80e5660b5d4ca8bf,68817205a84113384fffdfe3,6881b860d9fa339eeb54cb36,,,,,,,,,,,,./stim/wavs/puertorican_match_interrogative-total-yn_David-leia-el-libro.wav,1,,,112.815,115.0091,1,1,1.6819,,0,26,26,20,1,21,1,puertorican,,,,,,,,,,,,,,,,,,,,,,,,,,,,,,,,,,,,,,,,,,,,,,,,,,,,,,,,
,,,,,,,,,655fca2a80e5660b5d4ca8bf,Standard dialect,younger than 13,"yes, I am fluent in another language",yes,2025-07-24_00h37.49.299,empathy_intonation_perc_control,2024.2.4,Win32,147.0588235,655fca2a80e5660b5d4ca8bf,68817205a84113384fffdfe3,6881b860d9fa339eeb54cb36,,,,,,,,,,,,./stim/wavs/castilian_mismatch_interrogative-total-yn_La-maestra-vive-en-Paris.wav,1,,,115.0094,117.4188,1,1,1.9025,,0,27,27,24,1,25,0,castilian,,,,,,,,,,,,,,,,,,,,,,,,,,,,,,,,,,,,,,,,,,,,,,,,,,,,,,,,
,,,,,,,,,655fca2a80e5660b5d4ca8bf,Standard dialect,younger than 13,"yes, I am fluent in another language",yes,2025-07-24_00h37.49.299,empathy_intonation_perc_control,2024.2.4,Win32,147.0588235,655fca2a80e5660b5d4ca8bf,68817205a84113384fffdfe3,6881b860d9fa339eeb54cb36,,,,,,,,,,,,./stim/wavs/mexican_mismatch_declarative-broad-focus_La-maestra-vive-en-Paris.wav,0,,,117.4191,119.3858,1,0,1.4589,,0,28,28,80,1,81,0,mexican,,,,,,,,,,,,,,,,,,,,,,,,,,,,,,,,,,,,,,,,,,,,,,,,,,,,,,,,
,,,,,,,,,655fca2a80e5660b5d4ca8bf,Standard dialect,younger than 13,"yes, I am fluent in another language",yes,2025-07-24_00h37.49.299,empathy_intonation_perc_control,2024.2.4,Win32,147.0588235,655fca2a80e5660b5d4ca8bf,68817205a84113384fffdfe3,6881b860d9fa339eeb54cb36,,,,,,,,,,,,./stim/wavs/mexican_mismatch_interrogative-total-yn_La-maestra-vive-en-Paris.wav,1,,,119.3868,121.5168,1,1,1.6186,,0,29,29,36,1,37,0,mexican,,,,,,,,,,,,,,,,,,,,,,,,,,,,,,,,,,,,,,,,,,,,,,,,,,,,,,,,
,,,,,,,,,655fca2a80e5660b5d4ca8bf,Standard dialect,younger than 13,"yes, I am fluent in another language",yes,2025-07-24_00h37.49.299,empathy_intonation_perc_control,2024.2.4,Win32,147.0588235,655fca2a80e5660b5d4ca8bf,68817205a84113384fffdfe3,6881b860d9fa339eeb54cb36,,,,,,,,,,,,./stim/wavs/mexican_match_interrogative-total-yn_Emilio-ama-la-marcha.wav,1,,,121.5174,127.0786,1,1,5.0481,,0,30,30,15,1,16,0,mexican,,,,,,,,,,,,,,,,,,,,,,,,,,,,,,,,,,,,,,,,,,,,,,,,,,,,,,,,
,,,,,,,,,655fca2a80e5660b5d4ca8bf,Standard dialect,younger than 13,"yes, I am fluent in another language",yes,2025-07-24_00h37.49.299,empathy_intonation_perc_control,2024.2.4,Win32,147.0588235,655fca2a80e5660b5d4ca8bf,68817205a84113384fffdfe3,6881b860d9fa339eeb54cb36,,,,,,,,,,,,./stim/wavs/castilian_match_interrogative-total-yn_Emilio-ama-la-marcha.wav,1,,,127.0789,129.2463,1,1,1.6541,,0,31,31,1,1,2,0,castilian,,,,,,,,,,,,,,,,,,,,,,,,,,,,,,,,,,,,,,,,,,,,,,,,,,,,,,,,
,,,,,,,,,655fca2a80e5660b5d4ca8bf,Standard dialect,younger than 13,"yes, I am fluent in another language",yes,2025-07-24_00h37.49.299,empathy_intonation_perc_control,2024.2.4,Win32,147.0588235,655fca2a80e5660b5d4ca8bf,68817205a84113384fffdfe3,6881b860d9fa339eeb54cb36,,,,,,,,,,,,./stim/wavs/puertorican_match_declarative-broad-focus_Manuela-vende-el-carro.wav,0,,,129.247,133.4676,0,1,3.7087,,0,32,32,66,1,67,0,puertorican,,,,,,,,,,,,,,,,,,,,,,,,,,,,,,,,,,,,,,,,,,,,,,,,,,,,,,,,
,,,,,,,,,655fca2a80e5660b5d4ca8bf,Standard dialect,younger than 13,"yes, I am fluent in another language",yes,2025-07-24_00h37.49.299,empathy_intonation_perc_control,2024.2.4,Win32,147.0588235,655fca2a80e5660b5d4ca8bf,68817205a84113384fffdfe3,6881b860d9fa339eeb54cb36,,,,,,,,,,,,./stim/wavs/puertorican_match_declarative-broad-focus_Ana-lleva-el-abrigo.wav,0,,,133.4681,136.0383,0,1,2.064,,0,33,33,62,1,63,0,puertorican,,,,,,,,,,,,,,,,,,,,,,,,,,,,,,,,,,,,,,,,,,,,,,,,,,,,,,,,
,,,,,,,,,655fca2a80e5660b5d4ca8bf,Standard dialect,younger than 13,"yes, I am fluent in another language",yes,2025-07-24_00h37.49.299,empathy_intonation_perc_control,2024.2.4,Win32,147.0588235,655fca2a80e5660b5d4ca8bf,68817205a84113384fffdfe3,6881b860d9fa339eeb54cb36,,,,,,,,,,,,./stim/wavs/cuban_mismatch_declarative-broad-focus_El-hombre-mira-la-luna.wav,0,,,136.039,138.3703,0,1,1.8198,,0,34,34,74,1,75,0,cuban,,,,,,,,,,,,,,,,,,,,,,,,,,,,,,,,,,,,,,,,,,,,,,,,,,,,,,,,
,,,,,,,,,655fca2a80e5660b5d4ca8bf,Standard dialect,younger than 13,"yes, I am fluent in another language",yes,2025-07-24_00h37.49.299,empathy_intonation_perc_control,2024.2.4,Win32,147.0588235,655fca2a80e5660b5d4ca8bf,68817205a84113384fffdfe3,6881b860d9fa339eeb54cb36,,,,,,,,,,,,./stim/wavs/puertorican_match_declarative-broad-focus_David-leia-el-libro.wav,0,,,138.3705,141.28,0,1,2.395,,0,35,35,64,1,65,0,puertorican,,,,,,,,,,,,,,,,,,,,,,,,,,,,,,,,,,,,,,,,,,,,,,,,,,,,,,,,
,,,,,,,,,655fca2a80e5660b5d4ca8bf,Standard dialect,younger than 13,"yes, I am fluent in another language",yes,2025-07-24_00h37.49.299,empathy_intonation_perc_control,2024.2.4,Win32,147.0588235,655fca2a80e5660b5d4ca8bf,68817205a84113384fffdfe3,6881b860d9fa339eeb54cb36,,,,,,,,,,,,./stim/wavs/castilian_mismatch_declarative-broad-focus_La-nina-lava-el-plato.wav,0,,,141.2805,145.3493,0,1,3.5561,,0,36,36,70,1,71,0,castilian,,,,,,,,,,,,,,,,,,,,,,,,,,,,,,,,,,,,,,,,,,,,,,,,,,,,,,,,
,,,,,,,,,655fca2a80e5660b5d4ca8bf,Standard dialect,younger than 13,"yes, I am fluent in another language",yes,2025-07-24_00h37.49.299,empathy_intonation_perc_control,2024.2.4,Win32,147.0588235,655fca2a80e5660b5d4ca8bf,68817205a84113384fffdfe3,6881b860d9fa339eeb54cb36,,,,,,,,,,,,./stim/wavs/cuban_mismatch_declarative-broad-focus_El-bebe-comia-muy-bien.wav,0,,,145.3497,147.6689,0,1,1.8114,,0,37,37,73,1,74,0,cuban,,,,,,,,,,,,,,,,,,,,,,,,,,,,,,,,,,,,,,,,,,,,,,,,,,,,,,,,
,,,,,,,,,655fca2a80e5660b5d4ca8bf,Standard dialect,younger than 13,"yes, I am fluent in another language",yes,2025-07-24_00h37.49.299,empathy_intonation_perc_control,2024.2.4,Win32,147.0588235,655fca2a80e5660b5d4ca8bf,68817205a84113384fffdfe3,6881b860d9fa339eeb54cb36,,,,,,,,,,,,./stim/wavs/castilian_match_declarative-broad-focus_Emilio-ama-la-marcha.wav,0,,,147.6692,150.2669,0,1,2.0845,,0,38,38,45,1,46,0,castilian,,,,,,,,,,,,,,,,,,,,,,,,,,,,,,,,,,,,,,,,,,,,,,,,,,,,,,,,
,,,,,,,,,655fca2a80e5660b5d4ca8bf,Standard dialect,younger than 13,"yes, I am fluent in another language",yes,2025-07-24_00h37.49.299,empathy_intonation_perc_control,2024.2.4,Win32,147.0588235,655fca2a80e5660b5d4ca8bf,68817205a84113384fffdfe3,6881b860d9fa339eeb54cb36,,,,,,,,,,,,./stim/wavs/castilian_mismatch_declarative-broad-focus_La-maestra-vive-en-Paris.wav,0,,,150.2677,154.0094,1,0,3.2292,,0,39,39,69,1,70,0,castilian,,,,,,,,,,,,,,,,,,,,,,,,,,,,,,,,,,,,,,,,,,,,,,,,,,,,,,,,
,,,,,,,,,655fca2a80e5660b5d4ca8bf,Standard dialect,younger than 13,"yes, I am fluent in another language",yes,2025-07-24_00h37.49.299,empathy_intonation_perc_control,2024.2.4,Win32,147.0588235,655fca2a80e5660b5d4ca8bf,68817205a84113384fffdfe3,6881b860d9fa339eeb54cb36,,,,,,,,,,,,./stim/wavs/mexican_match_interrogative-total-yn_Marta-abre-el-regalo.wav,1,,,154.0099,156.4536,1,1,1.93,,0,40,40,17,1,18,0,mexican,,,,,,,,,,,,,,,,,,,,,,,,,,,,,,,,,,,,,,,,,,,,,,,,,,,,,,,,
,,,,,,,,,655fca2a80e5660b5d4ca8bf,Standard dialect,younger than 13,"yes, I am fluent in another language",yes,2025-07-24_00h37.49.299,empathy_intonation_perc_control,2024.2.4,Win32,147.0588235,655fca2a80e5660b5d4ca8bf,68817205a84113384fffdfe3,6881b860d9fa339eeb54cb36,,,,,,,,,,,,./stim/wavs/cuban_mismatch_interrogative-total-yn_Mi-novio-viene-del-lago.wav,1,,,156.4539,162.4953,1,1,5.5277,,0,41,41,32,1,33,1,cuban,,,,,,,,,,,,,,,,,,,,,,,,,,,,,,,,,,,,,,,,,,,,,,,,,,,,,,,,
,,,,,,,,,655fca2a80e5660b5d4ca8bf,Standard dialect,younger than 13,"yes, I am fluent in another language",yes,2025-07-24_00h37.49.299,empathy_intonation_perc_control,2024.2.4,Win32,147.0588235,655fca2a80e5660b5d4ca8bf,68817205a84113384fffdfe3,6881b860d9fa339eeb54cb36,,,,,,,,,,,,./stim/wavs/castilian_mismatch_declarative-broad-focus_Mi-tia-odia-la-lluvia.wav,0,,,162.4958,165.6629,0,1,2.6536,,0,42,42,72,1,73,0,castilian,,,,,,,,,,,,,,,,,,,,,,,,,,,,,,,,,,,,,,,,,,,,,,,,,,,,,,,,
,,,,,,,,,655fca2a80e5660b5d4ca8bf,Standard dialect,younger than 13,"yes, I am fluent in another language",yes,2025-07-24_00h37.49.299,empathy_intonation_perc_control,2024.2.4,Win32,147.0588235,655fca2a80e5660b5d4ca8bf,68817205a84113384fffdfe3,6881b860d9fa339eeb54cb36,,,,,,,,,,,,./stim/wavs/mexican_mismatch_interrogative-total-yn_El-nino-oye-el-rio.wav,1,,,165.6639,168.0371,1,1,1.8613,,0,43,43,35,1,36,0,mexican,,,,,,,,,,,,,,,,,,,,,,,,,,,,,,,,,,,,,,,,,,,,,,,,,,,,,,,,
,,,,,,,,,655fca2a80e5660b5d4ca8bf,Standard dialect,younger than 13,"yes, I am fluent in another language",yes,2025-07-24_00h37.49.299,empathy_intonation_perc_control,2024.2.4,Win32,147.0588235,655fca2a80e5660b5d4ca8bf,68817205a84113384fffdfe3,6881b860d9fa339eeb54cb36,,,,,,,,,,,,./stim/wavs/puertorican_match_interrogative-total-yn_Ana-lleva-el-abrigo.wav,1,,,168.0375,173.1898,1,1,4.6448,,0,44,44,18,1,19,1,puertorican,,,,,,,,,,,,,,,,,,,,,,,,,,,,,,,,,,,,,,,,,,,,,,,,,,,,,,,,
,,,,,,,,,655fca2a80e5660b5d4ca8bf,Standard dialect,younger than 13,"yes, I am fluent in another language",yes,2025-07-24_00h37.49.299,empathy_intonation_perc_control,2024.2.4,Win32,147.0588235,655fca2a80e5660b5d4ca8bf,68817205a84113384fffdfe3,6881b860d9fa339eeb54cb36,,,,,,,,,,,,./stim/wavs/castilian_match_declarative-broad-focus_Mariano-habla-del-tiempo.wav,0,,,173.1901,176.2592,0,1,2.5556,,0,45,45,48,1,49,0,castilian,,,,,,,,,,,,,,,,,,,,,,,,,,,,,,,,,,,,,,,,,,,,,,,,,,,,,,,,
,,,,,,,,,655fca2a80e5660b5d4ca8bf,Standard dialect,younger than 13,"yes, I am fluent in another language",yes,2025-07-24_00h37.49.299,empathy_intonation_perc_control,2024.2.4,Win32,147.0588235,655fca2a80e5660b5d4ca8bf,68817205a84113384fffdfe3,6881b860d9fa339eeb54cb36,,,,,,,,,,,,./stim/wavs/cuban_match_declarative-broad-focus_Marta-abre-el-regalo.wav,0,,,176.2595,178.864,1,0,2.0975,,0,46,46,55,1,56,0,cuban,,,,,,,,,,,,,,,,,,,,,,,,,,,,,,,,,,,,,,,,,,,,,,,,,,,,,,,,
,,,,,,,,,655fca2a80e5660b5d4ca8bf,Standard dialect,younger than 13,"yes, I am fluent in another language",yes,2025-07-24_00h37.49.299,empathy_intonation_perc_control,2024.2.4,Win32,147.0588235,655fca2a80e5660b5d4ca8bf,68817205a84113384fffdfe3,6881b860d9fa339eeb54cb36,,,,,,,,,,,,./stim/wavs/puertorican_mismatch_interrogative-total-yn_Mi-madre-come-la-fruta.wav,1,,,178.865,182.0162,0,0,2.6379,,0,47,47,43,1,44,1,puertorican,,,,,,,,,,,,,,,,,,,,,,,,,,,,,,,,,,,,,,,,,,,,,,,,,,,,,,,,
,,,,,,,,,655fca2a80e5660b5d4ca8bf,Standard dialect,younger than 13,"yes, I am fluent in another language",yes,2025-07-24_00h37.49.299,empathy_intonation_perc_control,2024.2.4,Win32,147.0588235,655fca2a80e5660b5d4ca8bf,68817205a84113384fffdfe3,6881b860d9fa339eeb54cb36,,,,,,,,,,,,./stim/wavs/puertorican_mismatch_interrogative-total-yn_El-nino-oye-el-rio.wav,1,,,182.0164,185.7808,0,0,3.2511,,0,48,48,40,1,41,1,puertorican,,,,,,,,,,,,,,,,,,,,,,,,,,,,,,,,,,,,,,,,,,,,,,,,,,,,,,,,
,,,,,,,,,655fca2a80e5660b5d4ca8bf,Standard dialect,younger than 13,"yes, I am fluent in another language",yes,2025-07-24_00h37.49.299,empathy_intonation_perc_control,2024.2.4,Win32,147.0588235,655fca2a80e5660b5d4ca8bf,68817205a84113384fffdfe3,6881b860d9fa339eeb54cb36,,,,,,,,,,,,./stim/wavs/puertorican_mismatch_declarative-broad-focus_El-nino-oye-el-rio.wav,0,,,185.7814,187.9634,0,1,1.6594,,0,49,49,85,1,86,0,puertorican,,,,,,,,,,,,,,,,,,,,,,,,,,,,,,,,,,,,,,,,,,,,,,,,,,,,,,,,
,,,,,,,,,655fca2a80e5660b5d4ca8bf,Standard dialect,younger than 13,"yes, I am fluent in another language",yes,2025-07-24_00h37.49.299,empathy_intonation_perc_control,2024.2.4,Win32,147.0588235,655fca2a80e5660b5d4ca8bf,68817205a84113384fffdfe3,6881b860d9fa339eeb54cb36,,,,,,,,,,,,./stim/wavs/mexican_match_declarative-broad-focus_Emilio-ama-la-marcha.wav,0,,,187.9639,190.7036,0,1,2.2295,,0,50,50,59,1,60,0,mexican,,,,,,,,,,,,,,,,,,,,,,,,,,,,,,,,,,,,,,,,,,,,,,,,,,,,,,,,
,,,,,,,,,655fca2a80e5660b5d4ca8bf,Standard dialect,younger than 13,"yes, I am fluent in another language",yes,2025-07-24_00h37.49.299,empathy_intonation_perc_control,2024.2.4,Win32,147.0588235,655fca2a80e5660b5d4ca8bf,68817205a84113384fffdfe3,6881b860d9fa339eeb54cb36,,,,,,,,,,,,./stim/wavs/cuban_mismatch_declarative-broad-focus_La-nina-lava-el-plato.wav,0,,,190.704,195.1278,0,1,3.9164,,0,51,51,75,1,76,0,cuban,,,,,,,,,,,,,,,,,,,,,,,,,,,,,,,,,,,,,,,,,,,,,,,,,,,,,,,,
,,,,,,,,,655fca2a80e5660b5d4ca8bf,Standard dialect,younger than 13,"yes, I am fluent in another language",yes,2025-07-24_00h37.49.299,empathy_intonation_perc_control,2024.2.4,Win32,147.0588235,655fca2a80e5660b5d4ca8bf,68817205a84113384fffdfe3,6881b860d9fa339eeb54cb36,,,,,,,,,,,,./stim/wavs/cuban_mismatch_interrogative-total-yn_El-nino-oye-el-rio.wav,1,,,195.128,197.5508,1,1,1.9093,,0,52,52,30,1,31,1,cuban,,,,,,,,,,,,,,,,,,,,,,,,,,,,,,,,,,,,,,,,,,,,,,,,,,,,,,,,
,,,,,,,,,655fca2a80e5660b5d4ca8bf,Standard dialect,younger than 13,"yes, I am fluent in another language",yes,2025-07-24_00h37.49.299,empathy_intonation_perc_control,2024.2.4,Win32,147.0588235,655fca2a80e5660b5d4ca8bf,68817205a84113384fffdfe3,6881b860d9fa339eeb54cb36,,,,,,,,,,,,./stim/wavs/puertorican_match_interrogative-total-yn_Emilio-ama-la-marcha.wav,1,,,197.5512,199.6898,0,0,1.6256,,0,53,53,21,1,22,1,puertorican,,,,,,,,,,,,,,,,,,,,,,,,,,,,,,,,,,,,,,,,,,,,,,,,,,,,,,,,
,,,,,,,,,655fca2a80e5660b5d4ca8bf,Standard dialect,younger than 13,"yes, I am fluent in another language",yes,2025-07-24_00h37.49.299,empathy_intonation_perc_control,2024.2.4,Win32,147.0588235,655fca2a80e5660b5d4ca8bf,68817205a84113384fffdfe3,6881b860d9fa339eeb54cb36,,,,,,,,,,,,./stim/wavs/cuban_mismatch_declarative-broad-focus_Mi-tia-odia-la-lluvia.wav,0,,,199.69,202.2315,0,1,2.0288,,0,54,54,77,1,78,0,cuban,,,,,,,,,,,,,,,,,,,,,,,,,,,,,,,,,,,,,,,,,,,,,,,,,,,,,,,,
,,,,,,,,,655fca2a80e5660b5d4ca8bf,Standard dialect,younger than 13,"yes, I am fluent in another language",yes,2025-07-24_00h37.49.299,empathy_intonation_perc_control,2024.2.4,Win32,147.0588235,655fca2a80e5660b5d4ca8bf,68817205a84113384fffdfe3,6881b860d9fa339eeb54cb36,,,,,,,,,,,,./stim/wavs/puertorican_match_interrogative-total-yn_Manuela-vende-el-carro.wav,1,,,202.2323,204.9328,1,1,2.1871,,0,55,55,22,1,23,1,puertorican,,,,,,,,,,,,,,,,,,,,,,,,,,,,,,,,,,,,,,,,,,,,,,,,,,,,,,,,
,,,,,,,,,655fca2a80e5660b5d4ca8bf,Standard dialect,younger than 13,"yes, I am fluent in another language",yes,2025-07-24_00h37.49.299,empathy_intonation_perc_control,2024.2.4,Win32,147.0588235,655fca2a80e5660b5d4ca8bf,68817205a84113384fffdfe3,6881b860d9fa339eeb54cb36,,,,,,,,,,,,./stim/wavs/puertorican_mismatch_declarative-broad-focus_El-hombre-mira-la-luna.wav,0,,,204.9331,207.5801,0,1,2.1338,,0,56,56,84,1,85,0,puertorican,,,,,,,,,,,,,,,,,,,,,,,,,,,,,,,,,,,,,,,,,,,,,,,,,,,,,,,,
,,,,,,,,,655fca2a80e5660b5d4ca8bf,Standard dialect,younger than 13,"yes, I am fluent in another language",yes,2025-07-24_00h37.49.299,empathy_intonation_perc_control,2024.2.4,Win32,147.0588235,655fca2a80e5660b5d4ca8bf,68817205a84113384fffdfe3,6881b860d9fa339eeb54cb36,,,,,,,,,,,,./stim/wavs/castilian_match_declarative-broad-focus_David-leia-el-libro.wav,0,,,207.5809,210.0592,0,1,1.9654,,0,57,57,44,1,45,0,castilian,,,,,,,,,,,,,,,,,,,,,,,,,,,,,,,,,,,,,,,,,,,,,,,,,,,,,,,,
,,,,,,,,,655fca2a80e5660b5d4ca8bf,Standard dialect,younger than 13,"yes, I am fluent in another language",yes,2025-07-24_00h37.49.299,empathy_intonation_perc_control,2024.2.4,Win32,147.0588235,655fca2a80e5660b5d4ca8bf,68817205a84113384fffdfe3,6881b860d9fa339eeb54cb36,,,,,,,,,,,,./stim/wavs/cuban_match_declarative-broad-focus_Daniel-iba-a-Bolivia.wav,0,,,210.0603,212.801,0,1,2.2286,,0,58,58,51,1,52,0,cuban,,,,,,,,,,,,,,,,,,,,,,,,,,,,,,,,,,,,,,,,,,,,,,,,,,,,,,,,
,,,,,,,,,655fca2a80e5660b5d4ca8bf,Standard dialect,younger than 13,"yes, I am fluent in another language",yes,2025-07-24_00h37.49.299,empathy_intonation_perc_control,2024.2.4,Win32,147.0588235,655fca2a80e5660b5d4ca8bf,68817205a84113384fffdfe3,6881b860d9fa339eeb54cb36,,,,,,,,,,,,./stim/wavs/cuban_match_declarative-broad-focus_Ana-lleva-el-abrigo.wav,0,,,212.8013,214.9411,0,1,1.6268,,0,59,59,50,1,51,0,cuban,,,,,,,,,,,,,,,,,,,,,,,,,,,,,,,,,,,,,,,,,,,,,,,,,,,,,,,,
,,,,,,,,,655fca2a80e5660b5d4ca8bf,Standard dialect,younger than 13,"yes, I am fluent in another language",yes,2025-07-24_00h37.49.299,empathy_intonation_perc_control,2024.2.4,Win32,147.0588235,655fca2a80e5660b5d4ca8bf,68817205a84113384fffdfe3,6881b860d9fa339eeb54cb36,,,,,,,,,,,,./stim/wavs/castilian_mismatch_declarative-broad-focus_El-nino-oye-el-rio.wav,0,,,214.942,217.4334,0,1,1.9807,,0,60,60,68,1,69,0,castilian,,,,,,,,,,,,,,,,,,,,,,,,,,,,,,,,,,,,,,,,,,,,,,,,,,,,,,,,
,,,,,,,,,655fca2a80e5660b5d4ca8bf,Standard dialect,younger than 13,"yes, I am fluent in another language",yes,2025-07-24_00h37.49.299,empathy_intonation_perc_control,2024.2.4,Win32,147.0588235,655fca2a80e5660b5d4ca8bf,68817205a84113384fffdfe3,6881b860d9fa339eeb54cb36,,,,,,,,,,,,./stim/wavs/puertorican_mismatch_declarative-broad-focus_El-bebe-comia-muy-bien.wav,0,,,217.4339,220.537,0,1,2.5905,,0,61,61,83,1,84,0,puertorican,,,,,,,,,,,,,,,,,,,,,,,,,,,,,,,,,,,,,,,,,,,,,,,,,,,,,,,,
,,,,,,,,,655fca2a80e5660b5d4ca8bf,Standard dialect,younger than 13,"yes, I am fluent in another language",yes,2025-07-24_00h37.49.299,empathy_intonation_perc_control,2024.2.4,Win32,147.0588235,655fca2a80e5660b5d4ca8bf,68817205a84113384fffdfe3,6881b860d9fa339eeb54cb36,,,,,,,,,,,,./stim/wavs/castilian_match_interrogative-total-yn_Mariano-habla-del-tiempo.wav,1,,,220.5373,222.8151,1,1,1.7641,,0,62,62,4,1,5,0,castilian,,,,,,,,,,,,,,,,,,,,,,,,,,,,,,,,,,,,,,,,,,,,,,,,,,,,,,,,
,,,,,,,,,655fca2a80e5660b5d4ca8bf,Standard dialect,younger than 13,"yes, I am fluent in another language",yes,2025-07-24_00h37.49.299,empathy_intonation_perc_control,2024.2.4,Win32,147.0588235,655fca2a80e5660b5d4ca8bf,68817205a84113384fffdfe3,6881b860d9fa339eeb54cb36,,,,,,,,,,,,./stim/wavs/castilian_match_declarative-broad-focus_Maria-bebe-el-vino.wav,0,,,222.8157,225.3149,0,1,1.9849,,0,63,63,47,1,48,0,castilian,,,,,,,,,,,,,,,,,,,,,,,,,,,,,,,,,,,,,,,,,,,,,,,,,,,,,,,,
,,,,,,,,,655fca2a80e5660b5d4ca8bf,Standard dialect,younger than 13,"yes, I am fluent in another language",yes,2025-07-24_00h37.49.299,empathy_intonation_perc_control,2024.2.4,Win32,147.0588235,655fca2a80e5660b5d4ca8bf,68817205a84113384fffdfe3,6881b860d9fa339eeb54cb36,,,,,,,,,,,,./stim/wavs/cuban_mismatch_interrogative-total-yn_Mi-tia-odia-la-lluvia.wav,1,,,225.3152,229.2524,0,0,3.4241,,0,64,64,33,1,34,1,cuban,,,,,,,,,,,,,,,,,,,,,,,,,,,,,,,,,,,,,,,,,,,,,,,,,,,,,,,,
,,,,,,,,,655fca2a80e5660b5d4ca8bf,Standard dialect,younger than 13,"yes, I am fluent in another language",yes,2025-07-24_00h37.49.299,empathy_intonation_perc_control,2024.2.4,Win32,147.0588235,655fca2a80e5660b5d4ca8bf,68817205a84113384fffdfe3,6881b860d9fa339eeb54cb36,,,,,,,,,,,,./stim/wavs/cuban_mismatch_interrogative-total-yn_Mi-madre-come-la-fruta.wav,1,,,229.2527,231.9608,0,0,2.201,,0,65,65,31,1,32,1,cuban,,,,,,,,,,,,,,,,,,,,,,,,,,,,,,,,,,,,,,,,,,,,,,,,,,,,,,,,
,,,,,,,,,655fca2a80e5660b5d4ca8bf,Standard dialect,younger than 13,"yes, I am fluent in another language",yes,2025-07-24_00h37.49.299,empathy_intonation_perc_control,2024.2.4,Win32,147.0588235,655fca2a80e5660b5d4ca8bf,68817205a84113384fffdfe3,6881b860d9fa339eeb54cb36,,,,,,,,,,,,./stim/wavs/mexican_mismatch_declarative-broad-focus_El-hombre-mira-la-luna.wav,0,,,231.9612,234.273,0,1,1.7986,,0,66,66,79,1,80,0,mexican,,,,,,,,,,,,,,,,,,,,,,,,,,,,,,,,,,,,,,,,,,,,,,,,,,,,,,,,
,,,,,,,,,655fca2a80e5660b5d4ca8bf,Standard dialect,younger than 13,"yes, I am fluent in another language",yes,2025-07-24_00h37.49.299,empathy_intonation_perc_control,2024.2.4,Win32,147.0588235,655fca2a80e5660b5d4ca8bf,68817205a84113384fffdfe3,6881b860d9fa339eeb54cb36,,,,,,,,,,,,./stim/wavs/mexican_match_declarative-broad-focus_David-leia-el-libro.wav,0,,,234.2734,236.2801,0,1,1.4987,,0,67,67,58,1,59,0,mexican,,,,,,,,,,,,,,,,,,,,,,,,,,,,,,,,,,,,,,,,,,,,,,,,,,,,,,,,
,,,,,,,,,655fca2a80e5660b5d4ca8bf,Standard dialect,younger than 13,"yes, I am fluent in another language",yes,2025-07-24_00h37.49.299,empathy_intonation_perc_control,2024.2.4,Win32,147.0588235,655fca2a80e5660b5d4ca8bf,68817205a84113384fffdfe3,6881b860d9fa339eeb54cb36,,,,,,,,,,,,./stim/wavs/cuban_match_declarative-broad-focus_Manuela-vende-el-carro.wav,0,,,236.2803,239.044,0,1,2.2506,,0,68,68,52,1,53,0,cuban,,,,,,,,,,,,,,,,,,,,,,,,,,,,,,,,,,,,,,,,,,,,,,,,,,,,,,,,
,,,,,,,,,655fca2a80e5660b5d4ca8bf,Standard dialect,younger than 13,"yes, I am fluent in another language",yes,2025-07-24_00h37.49.299,empathy_intonation_perc_control,2024.2.4,Win32,147.0588235,655fca2a80e5660b5d4ca8bf,68817205a84113384fffdfe3,6881b860d9fa339eeb54cb36,,,,,,,,,,,,./stim/wavs/castilian_mismatch_interrogative-total-yn_La-nina-lava-el-plato.wav,1,,,239.0443,241.1692,1,1,1.6123,,0,69,69,25,1,26,0,castilian,,,,,,,,,,,,,,,,,,,,,,,,,,,,,,,,,,,,,,,,,,,,,,,,,,,,,,,,
,,,,,,,,,655fca2a80e5660b5d4ca8bf,Standard dialect,younger than 13,"yes, I am fluent in another language",yes,2025-07-24_00h37.49.299,empathy_intonation_perc_control,2024.2.4,Win32,147.0588235,655fca2a80e5660b5d4ca8bf,68817205a84113384fffdfe3,6881b860d9fa339eeb54cb36,,,,,,,,,,,,./stim/wavs/puertorican_match_declarative-broad-focus_Daniel-iba-a-Bolivia.wav,0,,,241.1698,243.5025,0,1,1.8196,,0,70,70,63,1,64,0,puertorican,,,,,,,,,,,,,,,,,,,,,,,,,,,,,,,,,,,,,,,,,,,,,,,,,,,,,,,,
,,,,,,,,,655fca2a80e5660b5d4ca8bf,Standard dialect,younger than 13,"yes, I am fluent in another language",yes,2025-07-24_00h37.49.299,empathy_intonation_perc_control,2024.2.4,Win32,147.0588235,655fca2a80e5660b5d4ca8bf,68817205a84113384fffdfe3,6881b860d9fa339eeb54cb36,,,,,,,,,,,,./stim/wavs/cuban_match_interrogative-total-yn_Daniel-iba-a-Bolivia.wav,1,,,243.5029,245.6759,0,0,1.66,,0,71,71,7,1,8,1,cuban,,,,,,,,,,,,,,,,,,,,,,,,,,,,,,,,,,,,,,,,,,,,,,,,,,,,,,,,
,,,,,,,,,655fca2a80e5660b5d4ca8bf,Standard dialect,younger than 13,"yes, I am fluent in another language",yes,2025-07-24_00h37.49.299,empathy_intonation_perc_control,2024.2.4,Win32,147.0588235,655fca2a80e5660b5d4ca8bf,68817205a84113384fffdfe3,6881b860d9fa339eeb54cb36,,,,,,,,,,,,./stim/wavs/cuban_mismatch_declarative-broad-focus_Mi-novio-viene-del-lago.wav,0,,,245.6763,248.5649,0,1,2.3744,,0,72,72,76,1,77,0,cuban,,,,,,,,,,,,,,,,,,,,,,,,,,,,,,,,,,,,,,,,,,,,,,,,,,,,,,,,
,,,,,,,,,655fca2a80e5660b5d4ca8bf,Standard dialect,younger than 13,"yes, I am fluent in another language",yes,2025-07-24_00h37.49.299,empathy_intonation_perc_control,2024.2.4,Win32,147.0588235,655fca2a80e5660b5d4ca8bf,68817205a84113384fffdfe3,6881b860d9fa339eeb54cb36,,,,,,,,,,,,./stim/wavs/castilian_match_interrogative-total-yn_Marta-abre-el-regalo.wav,1,,,248.5653,250.5308,1,1,1.453,,0,73,73,5,1,6,0,castilian,,,,,,,,,,,,,,,,,,,,,,,,,,,,,,,,,,,,,,,,,,,,,,,,,,,,,,,,
,,,,,,,,,655fca2a80e5660b5d4ca8bf,Standard dialect,younger than 13,"yes, I am fluent in another language",yes,2025-07-24_00h37.49.299,empathy_intonation_perc_control,2024.2.4,Win32,147.0588235,655fca2a80e5660b5d4ca8bf,68817205a84113384fffdfe3,6881b860d9fa339eeb54cb36,,,,,,,,,,,,./stim/wavs/castilian_match_declarative-broad-focus_Marta-abre-el-regalo.wav,0,,,250.5314,253.3148,1,0,2.2701,,0,74,74,49,1,50,0,castilian,,,,,,,,,,,,,,,,,,,,,,,,,,,,,,,,,,,,,,,,,,,,,,,,,,,,,,,,
,,,,,,,,,655fca2a80e5660b5d4ca8bf,Standard dialect,younger than 13,"yes, I am fluent in another language",yes,2025-07-24_00h37.49.299,empathy_intonation_perc_control,2024.2.4,Win32,147.0588235,655fca2a80e5660b5d4ca8bf,68817205a84113384fffdfe3,6881b860d9fa339eeb54cb36,,,,,,,,,,,,./stim/wavs/castilian_mismatch_declarative-broad-focus_Mi-novio-viene-del-lago.wav,0,,,253.3151,257.0441,0,1,3.2158,,0,75,75,71,1,72,0,castilian,,,,,,,,,,,,,,,,,,,,,,,,,,,,,,,,,,,,,,,,,,,,,,,,,,,,,,,,
,,,,,,,,,655fca2a80e5660b5d4ca8bf,Standard dialect,younger than 13,"yes, I am fluent in another language",yes,2025-07-24_00h37.49.299,empathy_intonation_perc_control,2024.2.4,Win32,147.0588235,655fca2a80e5660b5d4ca8bf,68817205a84113384fffdfe3,6881b860d9fa339eeb54cb36,,,,,,,,,,,,./stim/wavs/puertorican_mismatch_interrogative-total-yn_La-maestra-vive-en-Paris.wav,1,,,257.0444,259.7248,1,1,2.1674,,0,76,76,41,1,42,1,puertorican,,,,,,,,,,,,,,,,,,,,,,,,,,,,,,,,,,,,,,,,,,,,,,,,,,,,,,,,
,,,,,,,,,655fca2a80e5660b5d4ca8bf,Standard dialect,younger than 13,"yes, I am fluent in another language",yes,2025-07-24_00h37.49.299,empathy_intonation_perc_control,2024.2.4,Win32,147.0588235,655fca2a80e5660b5d4ca8bf,68817205a84113384fffdfe3,6881b860d9fa339eeb54cb36,,,,,,,,,,,,./stim/wavs/castilian_match_interrogative-total-yn_Maria-bebe-el-vino.wav,1,,,259.7253,261.8641,1,1,1.6265,,0,77,77,3,1,4,0,castilian,,,,,,,,,,,,,,,,,,,,,,,,,,,,,,,,,,,,,,,,,,,,,,,,,,,,,,,,
,,,,,,,,,655fca2a80e5660b5d4ca8bf,Standard dialect,younger than 13,"yes, I am fluent in another language",yes,2025-07-24_00h37.49.299,empathy_intonation_perc_control,2024.2.4,Win32,147.0588235,655fca2a80e5660b5d4ca8bf,68817205a84113384fffdfe3,6881b860d9fa339eeb54cb36,,,,,,,,,,,,./stim/wavs/castilian_match_interrogative-total-yn_David-leia-el-libro.wav,1,,,261.8645,263.9539,1,1,1.577,,0,78,78,0,1,1,0,castilian,,,,,,,,,,,,,,,,,,,,,,,,,,,,,,,,,,,,,,,,,,,,,,,,,,,,,,,,
,,,,,,,,,655fca2a80e5660b5d4ca8bf,Standard dialect,younger than 13,"yes, I am fluent in another language",yes,2025-07-24_00h37.49.299,empathy_intonation_perc_control,2024.2.4,Win32,147.0588235,655fca2a80e5660b5d4ca8bf,68817205a84113384fffdfe3,6881b860d9fa339eeb54cb36,,,,,,,,,,,,./stim/wavs/mexican_mismatch_declarative-broad-focus_Mi-novio-viene-del-lago.wav,0,,,263.9542,267.1141,0,1,2.6465,,0,79,79,81,1,82,0,mexican,,,,,,,,,,,,,,,,,,,,,,,,,,,,,,,,,,,,,,,,,,,,,,,,,,,,,,,,
,,,,,,,,,655fca2a80e5660b5d4ca8bf,Standard dialect,younger than 13,"yes, I am fluent in another language",yes,2025-07-24_00h37.49.299,empathy_intonation_perc_control,2024.2.4,Win32,147.0588235,655fca2a80e5660b5d4ca8bf,68817205a84113384fffdfe3,6881b860d9fa339eeb54cb36,,,,,,,,,,,,./stim/wavs/mexican_match_declarative-broad-focus_Daniel-iba-a-Bolivia.wav,0,,,267.1148,269.2105,0,1,1.5831,,0,80,80,57,1,58,0,mexican,,,,,,,,,,,,,,,,,,,,,,,,,,,,,,,,,,,,,,,,,,,,,,,,,,,,,,,,
,,,,,,,,,655fca2a80e5660b5d4ca8bf,Standard dialect,younger than 13,"yes, I am fluent in another language",yes,2025-07-24_00h37.49.299,empathy_intonation_perc_control,2024.2.4,Win32,147.0588235,655fca2a80e5660b5d4ca8bf,68817205a84113384fffdfe3,6881b860d9fa339eeb54cb36,,,,,,,,,,,,./stim/wavs/mexican_match_declarative-broad-focus_Ana-lleva-el-abrigo.wav,0,,,269.2108,271.2454,0,1,1.5275,,0,81,81,56,1,57,0,mexican,,,,,,,,,,,,,,,,,,,,,,,,,,,,,,,,,,,,,,,,,,,,,,,,,,,,,,,,
,,,,,,,,,655fca2a80e5660b5d4ca8bf,Standard dialect,younger than 13,"yes, I am fluent in another language",yes,2025-07-24_00h37.49.299,empathy_intonation_perc_control,2024.2.4,Win32,147.0588235,655fca2a80e5660b5d4ca8bf,68817205a84113384fffdfe3,6881b860d9fa339eeb54cb36,,,,,,,,,,,,./stim/wavs/castilian_mismatch_interrogative-total-yn_Mi-novio-viene-del-lago.wav,1,,,271.2458,273.2248,1,1,1.4667,,0,82,82,27,1,28,0,castilian,,,,,,,,,,,,,,,,,,,,,,,,,,,,,,,,,,,,,,,,,,,,,,,,,,,,,,,,
,,,,,,,,,655fca2a80e5660b5d4ca8bf,Standard dialect,younger than 13,"yes, I am fluent in another language",yes,2025-07-24_00h37.49.299,empathy_intonation_perc_control,2024.2.4,Win32,147.0588235,655fca2a80e5660b5d4ca8bf,68817205a84113384fffdfe3,6881b860d9fa339eeb54cb36,,,,,,,,,,,,./stim/wavs/puertorican_match_declarative-broad-focus_Emilio-ama-la-marcha.wav,0,,,273.2255,275.1782,1,0,1.4394,,0,83,83,65,1,66,0,puertorican,,,,,,,,,,,,,,,,,,,,,,,,,,,,,,,,,,,,,,,,,,,,,,,,,,,,,,,,
,,,,,,,,,655fca2a80e5660b5d4ca8bf,Standard dialect,younger than 13,"yes, I am fluent in another language",yes,2025-07-24_00h37.49.299,empathy_intonation_perc_control,2024.2.4,Win32,147.0588235,655fca2a80e5660b5d4ca8bf,68817205a84113384fffdfe3,6881b860d9fa339eeb54cb36,,,,,,,,,,,,./stim/wavs/cuban_match_interrogative-total-yn_Maria-bebe-el-vino.wav,1,,,275.1793,277.0926,1,1,1.4021,,0,84,84,9,1,10,1,cuban,,,,,,,,,,,,,,,,,,,,,,,,,,,,,,,,,,,,,,,,,,,,,,,,,,,,,,,,
,,,,,,,,,655fca2a80e5660b5d4ca8bf,Standard dialect,younger than 13,"yes, I am fluent in another language",yes,2025-07-24_00h37.49.299,empathy_intonation_perc_control,2024.2.4,Win32,147.0588235,655fca2a80e5660b5d4ca8bf,68817205a84113384fffdfe3,6881b860d9fa339eeb54cb36,,,,,,,,,,,,./stim/wavs/cuban_mismatch_interrogative-total-yn_El-hombre-mira-la-luna.wav,1,,,277.0929,279.0453,1,1,1.4389,,0,85,85,29,1,30,1,cuban,,,,,,,,,,,,,,,,,,,,,,,,,,,,,,,,,,,,,,,,,,,,,,,,,,,,,,,,
,,,,,,,,,655fca2a80e5660b5d4ca8bf,Standard dialect,younger than 13,"yes, I am fluent in another language",yes,2025-07-24_00h37.49.299,empathy_intonation_perc_control,2024.2.4,Win32,147.0588235,655fca2a80e5660b5d4ca8bf,68817205a84113384fffdfe3,6881b860d9fa339eeb54cb36,,,,,,,,,,,,./stim/wavs/mexican_match_declarative-broad-focus_Marta-abre-el-regalo.wav,0,,,279.046,280.9895,1,0,1.4305,,0,86,86,61,1,62,0,mexican,,,,,,,,,,,,,,,,,,,,,,,,,,,,,,,,,,,,,,,,,,,,,,,,,,,,,,,,
,,,,,,,,,655fca2a80e5660b5d4ca8bf,Standard dialect,younger than 13,"yes, I am fluent in another language",yes,2025-07-24_00h37.49.299,empathy_intonation_perc_control,2024.2.4,Win32,147.0588235,655fca2a80e5660b5d4ca8bf,68817205a84113384fffdfe3,6881b860d9fa339eeb54cb36,,,,,,,,,,,,./stim/wavs/castilian_mismatch_interrogative-total-yn_Mi-tia-odia-la-lluvia.wav,1,,,280.9903,283.3438,1,1,1.8405,,0,87,87,28,1,29,0,castilian,,,,,,,,,,,,,,,,,,,,,,,,,,,,,,,,,,,,,,,,,,,,,,,,,,,,,,,,
,,,,,,,"Great! Now we will move on. The next task consists of about 60 trials, in each of which you will see a string of letters. 
  
  Your task is to decide whether this is a real Spanish word or not.", (press the spacebar to continue),655fca2a80e5660b5d4ca8bf,Standard dialect,younger than 13,"yes, I am fluent in another language",yes,2025-07-24_00h37.49.299,empathy_intonation_perc_control,2024.2.4,Win32,147.0588235,655fca2a80e5660b5d4ca8bf,68817205a84113384fffdfe3,6881b860d9fa339eeb54cb36,,,,,,,,,,,,,,,,,,,,,,,,,,,,,,283.3643,291.7989,0,0,0,0,1,,,,,,,,,,,,,,,,,,,,,,,,,,,,,,,,,,,,,,,,,,,,,,,,,
,,,,,,,"If you think it is an existing Spanish word, you type '1' (for 'REAL'), and if you think it is not an existing Spanish word, you type '0' (for 'FAKE').", (press the spacebar to continue),655fca2a80e5660b5d4ca8bf,Standard dialect,younger than 13,"yes, I am fluent in another language",yes,2025-07-24_00h37.49.299,empathy_intonation_perc_control,2024.2.4,Win32,147.0588235,655fca2a80e5660b5d4ca8bf,68817205a84113384fffdfe3,6881b860d9fa339eeb54cb36,,,,,,,,,,,,,,,,,,,,,,,,,,,,,,291.8052,303.5929,0,1,1,1,1,,,,,,,,,,,,,,,,,,,,,,,,,,,,,,,,,,,,,,,,,,,,,,,,,
,,,,,,,"If you are sure that the word exists, even though you don’t know its exact meaning, you may still respond '1' (REAL). 
  
  But if you are not sure if it is an existing word, you should respond '0' (FAKE).
  
  Let's do a practice round...", (press the spacebar to continue),655fca2a80e5660b5d4ca8bf,Standard dialect,younger than 13,"yes, I am fluent in another language",yes,2025-07-24_00h37.49.299,empathy_intonation_perc_control,2024.2.4,Win32,147.0588235,655fca2a80e5660b5d4ca8bf,68817205a84113384fffdfe3,6881b860d9fa339eeb54cb36,,,,,,,,,,,,,,,,,,,,,,,,,,,,,,303.5955,309.7733,0,2,2,2,1,,,,,,,,,,,,,,,,,,,,,,,,,,,,,,,,,,,,,,,,,,,,,,,,,
,,,,,,,,,655fca2a80e5660b5d4ca8bf,Standard dialect,younger than 13,"yes, I am fluent in another language",yes,2025-07-24_00h37.49.299,empathy_intonation_perc_control,2024.2.4,Win32,147.0588235,655fca2a80e5660b5d4ca8bf,68817205a84113384fffdfe3,6881b860d9fa339eeb54cb36,,,,,,,,,,,,,0,,,,,,,,,,,,,,,,,,,,,,,,309.7789,313.2044,0,1,2.916,,313.2046,314.2043,0,0,0,0,1,0,depiste,REAL,FAKE,,,,,,,,,,,,,,,,,,,,,,,,,,,,,,,,
,,,,,,,,,655fca2a80e5660b5d4ca8bf,Standard dialect,younger than 13,"yes, I am fluent in another language",yes,2025-07-24_00h37.49.299,empathy_intonation_perc_control,2024.2.4,Win32,147.0588235,655fca2a80e5660b5d4ca8bf,68817205a84113384fffdfe3,6881b860d9fa339eeb54cb36,,,,,,,,,,,,,1,,,,,,,,,,,,,,,,,,,,,,,,314.2061,315.8984,1,1,1.1785,,315.8984,316.8986,0,1,1,1,1,0,sí,REAL,FAKE,,,,,,,,,,,,,,,,,,,,,,,,,,,,,,,,
,,,,,,,,,655fca2a80e5660b5d4ca8bf,Standard dialect,younger than 13,"yes, I am fluent in another language",yes,2025-07-24_00h37.49.299,empathy_intonation_perc_control,2024.2.4,Win32,147.0588235,655fca2a80e5660b5d4ca8bf,68817205a84113384fffdfe3,6881b860d9fa339eeb54cb36,,,,,,,,,,,,,0,,,,,,,,,,,,,,,,,,,,,,,,316.8997,319.0096,1,0,1.5942,,319.0104,320.0098,0,2,2,2,1,0,coné,REAL,FAKE,,,,,,,,,,,,,,,,,,,,,,,,,,,,,,,,
,,,,,,,,,655fca2a80e5660b5d4ca8bf,Standard dialect,younger than 13,"yes, I am fluent in another language",yes,2025-07-24_00h37.49.299,empathy_intonation_perc_control,2024.2.4,Win32,147.0588235,655fca2a80e5660b5d4ca8bf,68817205a84113384fffdfe3,6881b860d9fa339eeb54cb36,,,,,,,,,,,,,0,,,,,,,,,,,,,,,,,,,,,,,,320.0105,321.5102,1,0,0.9858,,321.5103,322.5094,0,3,3,3,1,0,calpar,REAL,FAKE,,,,,,,,,,,,,,,,,,,,,,,,,,,,,,,,
,,,,,,,,,655fca2a80e5660b5d4ca8bf,Standard dialect,younger than 13,"yes, I am fluent in another language",yes,2025-07-24_00h37.49.299,empathy_intonation_perc_control,2024.2.4,Win32,147.0588235,655fca2a80e5660b5d4ca8bf,68817205a84113384fffdfe3,6881b860d9fa339eeb54cb36,,,,,,,,,,,,,0,,,,,,,,,,,,,,,,,,,,,,,,322.5103,324.3495,0,1,1.3254,,324.3499,325.35,0,4,4,4,1,0,joten,REAL,FAKE,,,,,,,,,,,,,,,,,,,,,,,,,,,,,,,,
,,,,,,,,,655fca2a80e5660b5d4ca8bf,Standard dialect,younger than 13,"yes, I am fluent in another language",yes,2025-07-24_00h37.49.299,empathy_intonation_perc_control,2024.2.4,Win32,147.0588235,655fca2a80e5660b5d4ca8bf,68817205a84113384fffdfe3,6881b860d9fa339eeb54cb36,,,,,,,,,,,,,1,,,,,,,,,,,,,,,,,,,,,,,,325.3505,326.8705,1,1,1.0057,,326.8706,327.8706,0,5,5,5,1,0,sacapuntas,REAL,FAKE,,,,,,,,,,,,,,,,,,,,,,,,,,,,,,,,
,,,,,,,,,655fca2a80e5660b5d4ca8bf,Standard dialect,younger than 13,"yes, I am fluent in another language",yes,2025-07-24_00h37.49.299,empathy_intonation_perc_control,2024.2.4,Win32,147.0588235,655fca2a80e5660b5d4ca8bf,68817205a84113384fffdfe3,6881b860d9fa339eeb54cb36,,,,,,,,,,,,,0,,,,,,,,,,,,,,,,,,,,,,,,327.8714,329.0306,1,0,0.6444,,329.0309,330.0314,0,6,6,6,1,0,priba,REAL,FAKE,,,,,,,,,,,,,,,,,,,,,,,,,,,,,,,,
,,,,,,,,,655fca2a80e5660b5d4ca8bf,Standard dialect,younger than 13,"yes, I am fluent in another language",yes,2025-07-24_00h37.49.299,empathy_intonation_perc_control,2024.2.4,Win32,147.0588235,655fca2a80e5660b5d4ca8bf,68817205a84113384fffdfe3,6881b860d9fa339eeb54cb36,,,,,,,,,,,,,0,,,,,,,,,,,,,,,,,,,,,,,,330.0329,331.6968,1,0,1.1463,,331.6968,332.6969,0,7,7,7,1,0,pelasula,REAL,FAKE,,,,,,,,,,,,,,,,,,,,,,,,,,,,,,,,
,,,,,,,,,655fca2a80e5660b5d4ca8bf,Standard dialect,younger than 13,"yes, I am fluent in another language",yes,2025-07-24_00h37.49.299,empathy_intonation_perc_control,2024.2.4,Win32,147.0588235,655fca2a80e5660b5d4ca8bf,68817205a84113384fffdfe3,6881b860d9fa339eeb54cb36,,,,,,,,,,,,,1,,,,,,,,,,,,,,,,,,,,,,,,332.6977,333.8148,1,1,0.6041,,333.8151,334.8151,0,8,8,8,1,0,bien,REAL,FAKE,,,,,,,,,,,,,,,,,,,,,,,,,,,,,,,,
,,,,,,,,,655fca2a80e5660b5d4ca8bf,Standard dialect,younger than 13,"yes, I am fluent in another language",yes,2025-07-24_00h37.49.299,empathy_intonation_perc_control,2024.2.4,Win32,147.0588235,655fca2a80e5660b5d4ca8bf,68817205a84113384fffdfe3,6881b860d9fa339eeb54cb36,,,,,,,,,,,,,1,,,,,,,,,,,,,,,,,,,,,,,,334.8159,335.9754,1,1,0.6416,,335.9755,336.9751,0,9,9,9,1,0,casa,REAL,FAKE,,,,,,,,,,,,,,,,,,,,,,,,,,,,,,,,
,,,,,,,,,655fca2a80e5660b5d4ca8bf,Standard dialect,younger than 13,"yes, I am fluent in another language",yes,2025-07-24_00h37.49.299,empathy_intonation_perc_control,2024.2.4,Win32,147.0588235,655fca2a80e5660b5d4ca8bf,68817205a84113384fffdfe3,6881b860d9fa339eeb54cb36,,,,,,,,,,,,,0,,,,,,,,,,,,,,,,,,,,,,,,336.9763,340.5857,1,0,3.098,,340.5862,341.5859,0,10,10,10,1,0,lejo,REAL,FAKE,,,,,,,,,,,,,,,,,,,,,,,,,,,,,,,,
,,,,,,,,,655fca2a80e5660b5d4ca8bf,Standard dialect,younger than 13,"yes, I am fluent in another language",yes,2025-07-24_00h37.49.299,empathy_intonation_perc_control,2024.2.4,Win32,147.0588235,655fca2a80e5660b5d4ca8bf,68817205a84113384fffdfe3,6881b860d9fa339eeb54cb36,,,,,,,,,,,,,0,,,,,,,,,,,,,,,,,,,,,,,,341.5865,342.9607,1,0,0.8611,,342.9607,343.9612,0,11,11,11,1,0,pretantas,REAL,FAKE,,,,,,,,,,,,,,,,,,,,,,,,,,,,,,,,
,,,,,,,,,655fca2a80e5660b5d4ca8bf,Standard dialect,younger than 13,"yes, I am fluent in another language",yes,2025-07-24_00h37.49.299,empathy_intonation_perc_control,2024.2.4,Win32,147.0588235,655fca2a80e5660b5d4ca8bf,68817205a84113384fffdfe3,6881b860d9fa339eeb54cb36,,,,,,,,,,,,,,,,,,,,,,,,,,,,,,,,,,,,,,,,,,,,,,,,,,,,,,343.9617,344.739,,,,,,,,,,,,,,,,,,,,,,,,,,,,,,
,,,,,,,,,655fca2a80e5660b5d4ca8bf,Standard dialect,younger than 13,"yes, I am fluent in another language",yes,2025-07-24_00h37.49.299,empathy_intonation_perc_control,2024.2.4,Win32,147.0588235,655fca2a80e5660b5d4ca8bf,68817205a84113384fffdfe3,6881b860d9fa339eeb54cb36,,,,,,,,,,,,,0,,,,,,,,,,,,,,,,,,,,,,,,,,,,,,,,,,,,,10,antar,,,,,344.7451,366.0722,0,1,20.821,,0,0,0,9,1,REAL,FAKE,,,,,,,,,,,,,,,,,
,,,,,,,,,655fca2a80e5660b5d4ca8bf,Standard dialect,younger than 13,"yes, I am fluent in another language",yes,2025-07-24_00h37.49.299,empathy_intonation_perc_control,2024.2.4,Win32,147.0588235,655fca2a80e5660b5d4ca8bf,68817205a84113384fffdfe3,6881b860d9fa339eeb54cb36,,,,,,,,,,,,,0,,,,,,,,,,,,,,,,,,,,,,,,,,,,,,,,,,,,,92,click the 0 key.,,,,,366.0736,367.8082,0,1,1.2212,,0,1,1,91,1,REAL,FAKE,,,,,,,,,,,,,,,,,
,,,,,,,,,655fca2a80e5660b5d4ca8bf,Standard dialect,younger than 13,"yes, I am fluent in another language",yes,2025-07-24_00h37.49.299,empathy_intonation_perc_control,2024.2.4,Win32,147.0588235,655fca2a80e5660b5d4ca8bf,68817205a84113384fffdfe3,6881b860d9fa339eeb54cb36,,,,,,,,,,,,,1,,,,,,,,,,,,,,,,,,,,,,,,,,,,,,,,,,,,,81,pozo,,,,,367.8095,377.4608,1,1,9.14,,0,2,2,80,1,REAL,FAKE,,,,,,,,,,,,,,,,,
,,,,,,,,,655fca2a80e5660b5d4ca8bf,Standard dialect,younger than 13,"yes, I am fluent in another language",yes,2025-07-24_00h37.49.299,empathy_intonation_perc_control,2024.2.4,Win32,147.0588235,655fca2a80e5660b5d4ca8bf,68817205a84113384fffdfe3,6881b860d9fa339eeb54cb36,,,,,,,,,,,,,1,,,,,,,,,,,,,,,,,,,,,,,,,,,,,,,,,,,,,40,alfombra,,,,,377.4623,385.0233,1,1,7.0437,,0,3,3,39,1,REAL,FAKE,,,,,,,,,,,,,,,,,
,,,,,,,,,655fca2a80e5660b5d4ca8bf,Standard dialect,younger than 13,"yes, I am fluent in another language",yes,2025-07-24_00h37.49.299,empathy_intonation_perc_control,2024.2.4,Win32,147.0588235,655fca2a80e5660b5d4ca8bf,68817205a84113384fffdfe3,6881b860d9fa339eeb54cb36,,,,,,,,,,,,,1,,,,,,,,,,,,,,,,,,,,,,,,,,,,,,,,,,,,,83,guante,,,,,385.025,397.6067,1,1,12.071,,0,4,4,82,1,REAL,FAKE,,,,,,,,,,,,,,,,,
,,,,,,,,,655fca2a80e5660b5d4ca8bf,Standard dialect,younger than 13,"yes, I am fluent in another language",yes,2025-07-24_00h37.49.299,empathy_intonation_perc_control,2024.2.4,Win32,147.0588235,655fca2a80e5660b5d4ca8bf,68817205a84113384fffdfe3,6881b860d9fa339eeb54cb36,,,,,,,,,,,,,1,,,,,,,,,,,,,,,,,,,,,,,,,,,,,,,,,,,,,78,frondoso,,,,,397.6074,407.3514,1,1,9.2305,,0,5,5,77,1,REAL,FAKE,,,,,,,,,,,,,,,,,
,,,,,,,,,655fca2a80e5660b5d4ca8bf,Standard dialect,younger than 13,"yes, I am fluent in another language",yes,2025-07-24_00h37.49.299,empathy_intonation_perc_control,2024.2.4,Win32,147.0588235,655fca2a80e5660b5d4ca8bf,68817205a84113384fffdfe3,6881b860d9fa339eeb54cb36,,,,,,,,,,,,,1,,,,,,,,,,,,,,,,,,,,,,,,,,,,,,,,,,,,,2,pellizcar,,,,,407.3527,420.3915,1,1,12.5277,,0,6,6,1,1,REAL,FAKE,,,,,,,,,,,,,,,,,
,,,,,,,,,655fca2a80e5660b5d4ca8bf,Standard dialect,younger than 13,"yes, I am fluent in another language",yes,2025-07-24_00h37.49.299,empathy_intonation_perc_control,2024.2.4,Win32,147.0588235,655fca2a80e5660b5d4ca8bf,68817205a84113384fffdfe3,6881b860d9fa339eeb54cb36,,,,,,,,,,,,,0,,,,,,,,,,,,,,,,,,,,,,,,,,,,,,,,,,,,,32,fatacidad,,,,,420.392,441.2457,0,1,20.3403,,0,7,7,31,1,REAL,FAKE,,,,,,,,,,,,,,,,,
,,,,,,,,,655fca2a80e5660b5d4ca8bf,Standard dialect,younger than 13,"yes, I am fluent in another language",yes,2025-07-24_00h37.49.299,empathy_intonation_perc_control,2024.2.4,Win32,147.0588235,655fca2a80e5660b5d4ca8bf,68817205a84113384fffdfe3,6881b860d9fa339eeb54cb36,,,,,,,,,,,,,0,,,,,,,,,,,,,,,,,,,,,,,,,,,,,,,,,,,,,42,cadallo,,,,,441.2464,454.3845,0,1,12.6187,,0,8,8,41,1,REAL,FAKE,,,,,,,,,,,,,,,,,
,,,,,,,,,655fca2a80e5660b5d4ca8bf,Standard dialect,younger than 13,"yes, I am fluent in another language",yes,2025-07-24_00h37.49.299,empathy_intonation_perc_control,2024.2.4,Win32,147.0588235,655fca2a80e5660b5d4ca8bf,68817205a84113384fffdfe3,6881b860d9fa339eeb54cb36,,,,,,,,,,,,,1,,,,,,,,,,,,,,,,,,,,,,,,,,,,,,,,,,,,,44,cuchara,,,,,454.3851,462.3163,1,1,7.4179,,0,9,9,43,1,REAL,FAKE,,,,,,,,,,,,,,,,,
,,,,,,,,,655fca2a80e5660b5d4ca8bf,Standard dialect,younger than 13,"yes, I am fluent in another language",yes,2025-07-24_00h37.49.299,empathy_intonation_perc_control,2024.2.4,Win32,147.0588235,655fca2a80e5660b5d4ca8bf,68817205a84113384fffdfe3,6881b860d9fa339eeb54cb36,,,,,,,,,,,,,0,,,,,,,,,,,,,,,,,,,,,,,,,,,,,,,,,,,,,47,cartinar,,,,,462.3178,474.6761,0,1,11.8414,,0,10,10,46,1,REAL,FAKE,,,,,,,,,,,,,,,,,
,,,,,,,,,655fca2a80e5660b5d4ca8bf,Standard dialect,younger than 13,"yes, I am fluent in another language",yes,2025-07-24_00h37.49.299,empathy_intonation_perc_control,2024.2.4,Win32,147.0588235,655fca2a80e5660b5d4ca8bf,68817205a84113384fffdfe3,6881b860d9fa339eeb54cb36,,,,,,,,,,,,,0,,,,,,,,,,,,,,,,,,,,,,,,,,,,,,,,,,,,,50,flamida,,,,,474.6769,484.7457,0,1,9.5557,,0,11,11,49,1,REAL,FAKE,,,,,,,,,,,,,,,,,
,,,,,,,,,655fca2a80e5660b5d4ca8bf,Standard dialect,younger than 13,"yes, I am fluent in another language",yes,2025-07-24_00h37.49.299,empathy_intonation_perc_control,2024.2.4,Win32,147.0588235,655fca2a80e5660b5d4ca8bf,68817205a84113384fffdfe3,6881b860d9fa339eeb54cb36,,,,,,,,,,,,,0,,,,,,,,,,,,,,,,,,,,,,,,,,,,,,,,,,,,,4,batillón,,,,,484.7466,501.2676,0,1,16.0082,,0,12,12,3,1,REAL,FAKE,,,,,,,,,,,,,,,,,
,,,,,,,,,655fca2a80e5660b5d4ca8bf,Standard dialect,younger than 13,"yes, I am fluent in another language",yes,2025-07-24_00h37.49.299,empathy_intonation_perc_control,2024.2.4,Win32,147.0588235,655fca2a80e5660b5d4ca8bf,68817205a84113384fffdfe3,6881b860d9fa339eeb54cb36,,,,,,,,,,,,,1,,,,,,,,,,,,,,,,,,,,,,,,,,,,,,,,,,,,,6,tergiversar,,,,,501.27,513.3379,1,1,11.5573,,0,13,13,5,1,REAL,FAKE,,,,,,,,,,,,,,,,,
,,,,,,,,,655fca2a80e5660b5d4ca8bf,Standard dialect,younger than 13,"yes, I am fluent in another language",yes,2025-07-24_00h37.49.299,empathy_intonation_perc_control,2024.2.4,Win32,147.0588235,655fca2a80e5660b5d4ca8bf,68817205a84113384fffdfe3,6881b860d9fa339eeb54cb36,,,,,,,,,,,,,0,,,,,,,,,,,,,,,,,,,,,,,,,,,,,,,,,,,,,66,hacido,,,,,513.3393,520.0025,1,0,6.1464,,0,14,14,65,1,REAL,FAKE,,,,,,,,,,,,,,,,,
,,,,,,,,,655fca2a80e5660b5d4ca8bf,Standard dialect,younger than 13,"yes, I am fluent in another language",yes,2025-07-24_00h37.49.299,empathy_intonation_perc_control,2024.2.4,Win32,147.0588235,655fca2a80e5660b5d4ca8bf,68817205a84113384fffdfe3,6881b860d9fa339eeb54cb36,,,,,,,,,,,,,0,,,,,,,,,,,,,,,,,,,,,,,,,,,,,,,,,,,,,63,esposante,,,,,520.0032,529.8229,1,0,9.3064,,0,15,15,62,1,REAL,FAKE,,,,,,,,,,,,,,,,,
,,,,,,,,,655fca2a80e5660b5d4ca8bf,Standard dialect,younger than 13,"yes, I am fluent in another language",yes,2025-07-24_00h37.49.299,empathy_intonation_perc_control,2024.2.4,Win32,147.0588235,655fca2a80e5660b5d4ca8bf,68817205a84113384fffdfe3,6881b860d9fa339eeb54cb36,,,,,,,,,,,,,1,,,,,,,,,,,,,,,,,,,,,,,,,,,,,,,,,,,,,67,cabello,,,,,529.8238,531.4541,1,1,1.1164,,0,16,16,66,1,REAL,FAKE,,,,,,,,,,,,,,,,,
,,,,,,,,,655fca2a80e5660b5d4ca8bf,Standard dialect,younger than 13,"yes, I am fluent in another language",yes,2025-07-24_00h37.49.299,empathy_intonation_perc_control,2024.2.4,Win32,147.0588235,655fca2a80e5660b5d4ca8bf,68817205a84113384fffdfe3,6881b860d9fa339eeb54cb36,,,,,,,,,,,,,0,,,,,,,,,,,,,,,,,,,,,,,,,,,,,,,,,,,,,29,decar,,,,,531.4546,553.9125,0,1,21.9502,,0,17,17,28,1,REAL,FAKE,,,,,,,,,,,,,,,,,
,,,,,,,,,655fca2a80e5660b5d4ca8bf,Standard dialect,younger than 13,"yes, I am fluent in another language",yes,2025-07-24_00h37.49.299,empathy_intonation_perc_control,2024.2.4,Win32,147.0588235,655fca2a80e5660b5d4ca8bf,68817205a84113384fffdfe3,6881b860d9fa339eeb54cb36,,,,,,,,,,,,,1,,,,,,,,,,,,,,,,,,,,,,,,,,,,,,,,,,,,,5,zapato,,,,,553.9132,555.6348,1,1,1.209,,0,18,18,4,1,REAL,FAKE,,,,,,,,,,,,,,,,,
,,,,,,,,,655fca2a80e5660b5d4ca8bf,Standard dialect,younger than 13,"yes, I am fluent in another language",yes,2025-07-24_00h37.49.299,empathy_intonation_perc_control,2024.2.4,Win32,147.0588235,655fca2a80e5660b5d4ca8bf,68817205a84113384fffdfe3,6881b860d9fa339eeb54cb36,,,,,,,,,,,,,1,,,,,,,,,,,,,,,,,,,,,,,,,,,,,,,,,,,,,37,granuja,,,,,555.6359,563.996,1,1,7.8466,,0,19,19,36,1,REAL,FAKE,,,,,,,,,,,,,,,,,
,,,,,,,,,655fca2a80e5660b5d4ca8bf,Standard dialect,younger than 13,"yes, I am fluent in another language",yes,2025-07-24_00h37.49.299,empathy_intonation_perc_control,2024.2.4,Win32,147.0588235,655fca2a80e5660b5d4ca8bf,68817205a84113384fffdfe3,6881b860d9fa339eeb54cb36,,,,,,,,,,,,,1,,,,,,,,,,,,,,,,,,,,,,,,,,,,,,,,,,,,,73,hervidor,,,,,563.9965,571.843,1,1,7.329,,0,20,20,72,1,REAL,FAKE,,,,,,,,,,,,,,,,,
,,,,,,,,,655fca2a80e5660b5d4ca8bf,Standard dialect,younger than 13,"yes, I am fluent in another language",yes,2025-07-24_00h37.49.299,empathy_intonation_perc_control,2024.2.4,Win32,147.0588235,655fca2a80e5660b5d4ca8bf,68817205a84113384fffdfe3,6881b860d9fa339eeb54cb36,,,,,,,,,,,,,0,,,,,,,,,,,,,,,,,,,,,,,,,,,,,,,,,,,,,33,pauca,,,,,571.8435,581.8777,0,1,9.5207,,0,21,21,32,1,REAL,FAKE,,,,,,,,,,,,,,,,,
,,,,,,,,,655fca2a80e5660b5d4ca8bf,Standard dialect,younger than 13,"yes, I am fluent in another language",yes,2025-07-24_00h37.49.299,empathy_intonation_perc_control,2024.2.4,Win32,147.0588235,655fca2a80e5660b5d4ca8bf,68817205a84113384fffdfe3,6881b860d9fa339eeb54cb36,,,,,,,,,,,,,1,,,,,,,,,,,,,,,,,,,,,,,,,,,,,,,,,,,,,76,atar,,,,,581.8783,588.2807,1,1,5.8894,,0,22,22,75,1,REAL,FAKE,,,,,,,,,,,,,,,,,
,,,,,,,,,655fca2a80e5660b5d4ca8bf,Standard dialect,younger than 13,"yes, I am fluent in another language",yes,2025-07-24_00h37.49.299,empathy_intonation_perc_control,2024.2.4,Win32,147.0588235,655fca2a80e5660b5d4ca8bf,68817205a84113384fffdfe3,6881b860d9fa339eeb54cb36,,,,,,,,,,,,,1,,,,,,,,,,,,,,,,,,,,,,,,,,,,,,,,,,,,,9,hacha,,,,,588.2819,595.0584,1,1,6.2631,,0,23,23,8,1,REAL,FAKE,,,,,,,,,,,,,,,,,
,,,,,,,,,655fca2a80e5660b5d4ca8bf,Standard dialect,younger than 13,"yes, I am fluent in another language",yes,2025-07-24_00h37.49.299,empathy_intonation_perc_control,2024.2.4,Win32,147.0588235,655fca2a80e5660b5d4ca8bf,68817205a84113384fffdfe3,6881b860d9fa339eeb54cb36,,,,,,,,,,,,,1,,,,,,,,,,,,,,,,,,,,,,,,,,,,,,,,,,,,,77,tiburón,,,,,595.0588,608.0448,1,1,12.4721,,0,24,24,76,1,REAL,FAKE,,,,,,,,,,,,,,,,,
,,,,,,,,,655fca2a80e5660b5d4ca8bf,Standard dialect,younger than 13,"yes, I am fluent in another language",yes,2025-07-24_00h37.49.299,empathy_intonation_perc_control,2024.2.4,Win32,147.0588235,655fca2a80e5660b5d4ca8bf,68817205a84113384fffdfe3,6881b860d9fa339eeb54cb36,,,,,,,,,,,,,1,,,,,,,,,,,,,,,,,,,,,,,,,,,,,,,,,,,,,54,fomentar,,,,,608.0454,615.1555,1,1,6.595,,0,25,25,53,1,REAL,FAKE,,,,,,,,,,,,,,,,,
,,,,,,,,,655fca2a80e5660b5d4ca8bf,Standard dialect,younger than 13,"yes, I am fluent in another language",yes,2025-07-24_00h37.49.299,empathy_intonation_perc_control,2024.2.4,Win32,147.0588235,655fca2a80e5660b5d4ca8bf,68817205a84113384fffdfe3,6881b860d9fa339eeb54cb36,,,,,,,,,,,,,1,,,,,,,,,,,,,,,,,,,,,,,,,,,,,,,,,,,,,88,acantilado,,,,,615.1562,627.1313,1,1,11.4622,,0,26,26,87,1,REAL,FAKE,,,,,,,,,,,,,,,,,
,,,,,,,,,655fca2a80e5660b5d4ca8bf,Standard dialect,younger than 13,"yes, I am fluent in another language",yes,2025-07-24_00h37.49.299,empathy_intonation_perc_control,2024.2.4,Win32,147.0588235,655fca2a80e5660b5d4ca8bf,68817205a84113384fffdfe3,6881b860d9fa339eeb54cb36,,,,,,,,,,,,,1,,,,,,,,,,,,,,,,,,,,,,,,,,,,,,,,,,,,,7,pésimo,,,,,627.1329,636.9001,1,1,9.2567,,0,27,27,6,1,REAL,FAKE,,,,,,,,,,,,,,,,,
,,,,,,,,,655fca2a80e5660b5d4ca8bf,Standard dialect,younger than 13,"yes, I am fluent in another language",yes,2025-07-24_00h37.49.299,empathy_intonation_perc_control,2024.2.4,Win32,147.0588235,655fca2a80e5660b5d4ca8bf,68817205a84113384fffdfe3,6881b860d9fa339eeb54cb36,,,,,,,,,,,,,1,,,,,,,,,,,,,,,,,,,,,,,,,,,,,,,,,,,,,80,hormiga,,,,,636.9014,644.2815,1,1,6.8692,,0,28,28,79,1,REAL,FAKE,,,,,,,,,,,,,,,,,
,,,,,,,,,655fca2a80e5660b5d4ca8bf,Standard dialect,younger than 13,"yes, I am fluent in another language",yes,2025-07-24_00h37.49.299,empathy_intonation_perc_control,2024.2.4,Win32,147.0588235,655fca2a80e5660b5d4ca8bf,68817205a84113384fffdfe3,6881b860d9fa339eeb54cb36,,,,,,,,,,,,,1,,,,,,,,,,,,,,,,,,,,,,,,,,,,,,,,,,,,,69,engatusar,,,,,644.2829,655.8016,1,1,11.0066,,0,29,29,68,1,REAL,FAKE,,,,,,,,,,,,,,,,,
,,,,,,,,,655fca2a80e5660b5d4ca8bf,Standard dialect,younger than 13,"yes, I am fluent in another language",yes,2025-07-24_00h37.49.299,empathy_intonation_perc_control,2024.2.4,Win32,147.0588235,655fca2a80e5660b5d4ca8bf,68817205a84113384fffdfe3,6881b860d9fa339eeb54cb36,,,,,,,,,,,,,0,,,,,,,,,,,,,,,,,,,,,,,,,,,,,,,,,,,,,79,tropaje,,,,,655.8022,663.7041,1,0,7.3891,,0,30,30,78,1,REAL,FAKE,,,,,,,,,,,,,,,,,
,,,,,,,,,655fca2a80e5660b5d4ca8bf,Standard dialect,younger than 13,"yes, I am fluent in another language",yes,2025-07-24_00h37.49.299,empathy_intonation_perc_control,2024.2.4,Win32,147.0588235,655fca2a80e5660b5d4ca8bf,68817205a84113384fffdfe3,6881b860d9fa339eeb54cb36,,,,,,,,,,,,,0,,,,,,,,,,,,,,,,,,,,,,,,,,,,,,,,,,,,,35,rompido,,,,,663.7047,681.3588,1,0,17.1471,,0,31,31,34,1,REAL,FAKE,,,,,,,,,,,,,,,,,
,,,,,,,,,655fca2a80e5660b5d4ca8bf,Standard dialect,younger than 13,"yes, I am fluent in another language",yes,2025-07-24_00h37.49.299,empathy_intonation_perc_control,2024.2.4,Win32,147.0588235,655fca2a80e5660b5d4ca8bf,68817205a84113384fffdfe3,6881b860d9fa339eeb54cb36,,,,,,,,,,,,,1,,,,,,,,,,,,,,,,,,,,,,,,,,,,,,,,,,,,,14,yunque,,,,,681.3606,691.6349,1,1,9.7587,,0,32,32,13,1,REAL,FAKE,,,,,,,,,,,,,,,,,
,,,,,,,,,655fca2a80e5660b5d4ca8bf,Standard dialect,younger than 13,"yes, I am fluent in another language",yes,2025-07-24_00h37.49.299,empathy_intonation_perc_control,2024.2.4,Win32,147.0588235,655fca2a80e5660b5d4ca8bf,68817205a84113384fffdfe3,6881b860d9fa339eeb54cb36,,,,,,,,,,,,,0,,,,,,,,,,,,,,,,,,,,,,,,,,,,,,,,,,,,,18,arsa,,,,,691.6357,701.4483,0,1,9.2986,,0,33,33,17,1,REAL,FAKE,,,,,,,,,,,,,,,,,
,,,,,,,,,655fca2a80e5660b5d4ca8bf,Standard dialect,younger than 13,"yes, I am fluent in another language",yes,2025-07-24_00h37.49.299,empathy_intonation_perc_control,2024.2.4,Win32,147.0588235,655fca2a80e5660b5d4ca8bf,68817205a84113384fffdfe3,6881b860d9fa339eeb54cb36,,,,,,,,,,,,,1,,,,,,,,,,,,,,,,,,,,,,,,,,,,,,,,,,,,,28,merodear,,,,,701.4496,709.0879,1,1,7.1264,,0,34,34,27,1,REAL,FAKE,,,,,,,,,,,,,,,,,
,,,,,,,,,655fca2a80e5660b5d4ca8bf,Standard dialect,younger than 13,"yes, I am fluent in another language",yes,2025-07-24_00h37.49.299,empathy_intonation_perc_control,2024.2.4,Win32,147.0588235,655fca2a80e5660b5d4ca8bf,68817205a84113384fffdfe3,6881b860d9fa339eeb54cb36,,,,,,,,,,,,,1,,,,,,,,,,,,,,,,,,,,,,,,,,,,,,,,,,,,,90,clavel,,,,,709.0893,716.7529,1,1,7.1493,,0,35,35,89,1,REAL,FAKE,,,,,,,,,,,,,,,,,
,,,,,,,,,655fca2a80e5660b5d4ca8bf,Standard dialect,younger than 13,"yes, I am fluent in another language",yes,2025-07-24_00h37.49.299,empathy_intonation_perc_control,2024.2.4,Win32,147.0588235,655fca2a80e5660b5d4ca8bf,68817205a84113384fffdfe3,6881b860d9fa339eeb54cb36,,,,,,,,,,,,,1,,,,,,,,,,,,,,,,,,,,,,,,,,,,,,,,,,,,,49,ganar,,,,,716.7536,724.7112,1,1,7.4446,,0,36,36,48,1,REAL,FAKE,,,,,,,,,,,,,,,,,
,,,,,,,,,655fca2a80e5660b5d4ca8bf,Standard dialect,younger than 13,"yes, I am fluent in another language",yes,2025-07-24_00h37.49.299,empathy_intonation_perc_control,2024.2.4,Win32,147.0588235,655fca2a80e5660b5d4ca8bf,68817205a84113384fffdfe3,6881b860d9fa339eeb54cb36,,,,,,,,,,,,,1,,,,,,,,,,,,,,,,,,,,,,,,,,,,,,,,,,,,,36,loro,,,,,724.7117,726.4543,1,1,1.2287,,0,37,37,35,1,REAL,FAKE,,,,,,,,,,,,,,,,,
,,,,,,,,,655fca2a80e5660b5d4ca8bf,Standard dialect,younger than 13,"yes, I am fluent in another language",yes,2025-07-24_00h37.49.299,empathy_intonation_perc_control,2024.2.4,Win32,147.0588235,655fca2a80e5660b5d4ca8bf,68817205a84113384fffdfe3,6881b860d9fa339eeb54cb36,,,,,,,,,,,,,1,,,,,,,,,,,,,,,,,,,,,,,,,,,,,,,,,,,,,65,bizcocho,,,,,726.4549,749.5448,1,1,22.5754,,0,38,38,64,1,REAL,FAKE,,,,,,,,,,,,,,,,,
,,,,,,,,,655fca2a80e5660b5d4ca8bf,Standard dialect,younger than 13,"yes, I am fluent in another language",yes,2025-07-24_00h37.49.299,empathy_intonation_perc_control,2024.2.4,Win32,147.0588235,655fca2a80e5660b5d4ca8bf,68817205a84113384fffdfe3,6881b860d9fa339eeb54cb36,,,,,,,,,,,,,0,,,,,,,,,,,,,,,,,,,,,,,,,,,,,,,,,,,,,21,capillo,,,,,749.5453,757.8293,1,0,7.7692,,0,39,39,20,1,REAL,FAKE,,,,,,,,,,,,,,,,,
,,,,,,,,,655fca2a80e5660b5d4ca8bf,Standard dialect,younger than 13,"yes, I am fluent in another language",yes,2025-07-24_00h37.49.299,empathy_intonation_perc_control,2024.2.4,Win32,147.0588235,655fca2a80e5660b5d4ca8bf,68817205a84113384fffdfe3,6881b860d9fa339eeb54cb36,,,,,,,,,,,,,1,,,,,,,,,,,,,,,,,,,,,,,,,,,,,,,,,,,,,15,regar,,,,,757.83,766.5863,1,1,8.2438,,0,40,40,14,1,REAL,FAKE,,,,,,,,,,,,,,,,,
,,,,,,,,,655fca2a80e5660b5d4ca8bf,Standard dialect,younger than 13,"yes, I am fluent in another language",yes,2025-07-24_00h37.49.299,empathy_intonation_perc_control,2024.2.4,Win32,147.0588235,655fca2a80e5660b5d4ca8bf,68817205a84113384fffdfe3,6881b860d9fa339eeb54cb36,,,,,,,,,,,,,0,,,,,,,,,,,,,,,,,,,,,,,,,,,,,,,,,,,,,72,pemición,,,,,766.587,777.9752,1,0,10.8741,,0,41,41,71,1,REAL,FAKE,,,,,,,,,,,,,,,,,
,,,,,,,,,655fca2a80e5660b5d4ca8bf,Standard dialect,younger than 13,"yes, I am fluent in another language",yes,2025-07-24_00h37.49.299,empathy_intonation_perc_control,2024.2.4,Win32,147.0588235,655fca2a80e5660b5d4ca8bf,68817205a84113384fffdfe3,6881b860d9fa339eeb54cb36,,,,,,,,,,,,,1,,,,,,,,,,,,,,,,,,,,,,,,,,,,,,,,,,,,,89,prisa,,,,,777.9757,787.7532,1,1,9.2632,,0,42,42,88,1,REAL,FAKE,,,,,,,,,,,,,,,,,
,,,,,,,,,655fca2a80e5660b5d4ca8bf,Standard dialect,younger than 13,"yes, I am fluent in another language",yes,2025-07-24_00h37.49.299,empathy_intonation_perc_control,2024.2.4,Win32,147.0588235,655fca2a80e5660b5d4ca8bf,68817205a84113384fffdfe3,6881b860d9fa339eeb54cb36,,,,,,,,,,,,,0,,,,,,,,,,,,,,,,,,,,,,,,,,,,,,,,,,,,,19,brecedad,,,,,787.7544,797.9963,0,1,9.7292,,0,43,43,18,1,REAL,FAKE,,,,,,,,,,,,,,,,,
,,,,,,,,,655fca2a80e5660b5d4ca8bf,Standard dialect,younger than 13,"yes, I am fluent in another language",yes,2025-07-24_00h37.49.299,empathy_intonation_perc_control,2024.2.4,Win32,147.0588235,655fca2a80e5660b5d4ca8bf,68817205a84113384fffdfe3,6881b860d9fa339eeb54cb36,,,,,,,,,,,,,1,,,,,,,,,,,,,,,,,,,,,,,,,,,,,,,,,,,,,46,martillo,,,,,797.9975,805.2051,1,1,6.694,,0,44,44,45,1,REAL,FAKE,,,,,,,,,,,,,,,,,
,,,,,,,,,655fca2a80e5660b5d4ca8bf,Standard dialect,younger than 13,"yes, I am fluent in another language",yes,2025-07-24_00h37.49.299,empathy_intonation_perc_control,2024.2.4,Win32,147.0588235,655fca2a80e5660b5d4ca8bf,68817205a84113384fffdfe3,6881b860d9fa339eeb54cb36,,,,,,,,,,,,,1,,,,,,,,,,,,,,,,,,,,,,,,,,,,,,,,,,,,,64,orgulloso,,,,,805.2057,813.5737,1,1,7.8537,,0,45,45,63,1,REAL,FAKE,,,,,,,,,,,,,,,,,
,,,,,,,,,655fca2a80e5660b5d4ca8bf,Standard dialect,younger than 13,"yes, I am fluent in another language",yes,2025-07-24_00h37.49.299,empathy_intonation_perc_control,2024.2.4,Win32,147.0588235,655fca2a80e5660b5d4ca8bf,68817205a84113384fffdfe3,6881b860d9fa339eeb54cb36,,,,,,,,,,,,,0,,,,,,,,,,,,,,,,,,,,,,,,,,,,,,,,,,,,,74,cintro,,,,,813.5749,830.06,0,1,15.9676,,0,46,46,73,1,REAL,FAKE,,,,,,,,,,,,,,,,,
,,,,,,,,,655fca2a80e5660b5d4ca8bf,Standard dialect,younger than 13,"yes, I am fluent in another language",yes,2025-07-24_00h37.49.299,empathy_intonation_perc_control,2024.2.4,Win32,147.0588235,655fca2a80e5660b5d4ca8bf,68817205a84113384fffdfe3,6881b860d9fa339eeb54cb36,,,,,,,,,,,,,1,,,,,,,,,,,,,,,,,,,,,,,,,,,,,,,,,,,,,12,asesinato,,,,,830.0615,837.6303,1,1,7.0521,,0,47,47,11,1,REAL,FAKE,,,,,,,,,,,,,,,,,
,,,,,,,,,655fca2a80e5660b5d4ca8bf,Standard dialect,younger than 13,"yes, I am fluent in another language",yes,2025-07-24_00h37.49.299,empathy_intonation_perc_control,2024.2.4,Win32,147.0588235,655fca2a80e5660b5d4ca8bf,68817205a84113384fffdfe3,6881b860d9fa339eeb54cb36,,,,,,,,,,,,,0,,,,,,,,,,,,,,,,,,,,,,,,,,,,,,,,,,,,,8,cadeña,,,,,837.6329,853.7322,0,1,15.5875,,0,48,48,7,1,REAL,FAKE,,,,,,,,,,,,,,,,,
,,,,,,,,,655fca2a80e5660b5d4ca8bf,Standard dialect,younger than 13,"yes, I am fluent in another language",yes,2025-07-24_00h37.49.299,empathy_intonation_perc_control,2024.2.4,Win32,147.0588235,655fca2a80e5660b5d4ca8bf,68817205a84113384fffdfe3,6881b860d9fa339eeb54cb36,,,,,,,,,,,,,1,,,,,,,,,,,,,,,,,,,,,,,,,,,,,,,,,,,,,26,secuestro,,,,,853.7337,861.4761,1,1,7.2296,,0,49,49,25,1,REAL,FAKE,,,,,,,,,,,,,,,,,
,,,,,,,,,655fca2a80e5660b5d4ca8bf,Standard dialect,younger than 13,"yes, I am fluent in another language",yes,2025-07-24_00h37.49.299,empathy_intonation_perc_control,2024.2.4,Win32,147.0588235,655fca2a80e5660b5d4ca8bf,68817205a84113384fffdfe3,6881b860d9fa339eeb54cb36,,,,,,,,,,,,,0,,,,,,,,,,,,,,,,,,,,,,,,,,,,,,,,,,,,,84,escuto,,,,,861.4772,871.0865,0,1,9.0958,,0,50,50,83,1,REAL,FAKE,,,,,,,,,,,,,,,,,
,,,,,,,,,655fca2a80e5660b5d4ca8bf,Standard dialect,younger than 13,"yes, I am fluent in another language",yes,2025-07-24_00h37.49.299,empathy_intonation_perc_control,2024.2.4,Win32,147.0588235,655fca2a80e5660b5d4ca8bf,68817205a84113384fffdfe3,6881b860d9fa339eeb54cb36,,,,,,,,,,,,,1,,,,,,,,,,,,,,,,,,,,,,,,,,,,,,,,,,,,,62,flaco,,,,,871.0874,878.4475,1,1,6.848,,0,51,51,61,1,REAL,FAKE,,,,,,,,,,,,,,,,,
,,,,,,,,,655fca2a80e5660b5d4ca8bf,Standard dialect,younger than 13,"yes, I am fluent in another language",yes,2025-07-24_00h37.49.299,empathy_intonation_perc_control,2024.2.4,Win32,147.0588235,655fca2a80e5660b5d4ca8bf,68817205a84113384fffdfe3,6881b860d9fa339eeb54cb36,,,,,,,,,,,,,0,,,,,,,,,,,,,,,,,,,,,,,,,,,,,,,,,,,,,82,empirador,,,,,878.4481,894.4623,0,1,15.508,,0,52,52,81,1,REAL,FAKE,,,,,,,,,,,,,,,,,
,,,,,,,,,655fca2a80e5660b5d4ca8bf,Standard dialect,younger than 13,"yes, I am fluent in another language",yes,2025-07-24_00h37.49.299,empathy_intonation_perc_control,2024.2.4,Win32,147.0588235,655fca2a80e5660b5d4ca8bf,68817205a84113384fffdfe3,6881b860d9fa339eeb54cb36,,,,,,,,,,,,,1,,,,,,,,,,,,,,,,,,,,,,,,,,,,,,,,,,,,,57,tacaño,,,,,894.4636,912.9338,1,1,17.9577,,0,53,53,56,1,REAL,FAKE,,,,,,,,,,,,,,,,,
,,,,,,,,,655fca2a80e5660b5d4ca8bf,Standard dialect,younger than 13,"yes, I am fluent in another language",yes,2025-07-24_00h37.49.299,empathy_intonation_perc_control,2024.2.4,Win32,147.0588235,655fca2a80e5660b5d4ca8bf,68817205a84113384fffdfe3,6881b860d9fa339eeb54cb36,,,,,,,,,,,,,0,,,,,,,,,,,,,,,,,,,,,,,,,,,,,,,,,,,,,53,vegada,,,,,912.9347,926.0035,0,1,12.5562,,0,54,54,52,1,REAL,FAKE,,,,,,,,,,,,,,,,,
,,,,,,,,,655fca2a80e5660b5d4ca8bf,Standard dialect,younger than 13,"yes, I am fluent in another language",yes,2025-07-24_00h37.49.299,empathy_intonation_perc_control,2024.2.4,Win32,147.0588235,655fca2a80e5660b5d4ca8bf,68817205a84113384fffdfe3,6881b860d9fa339eeb54cb36,,,,,,,,,,,,,1,,,,,,,,,,,,,,,,,,,,,,,,,,,,,,,,,,,,,71,polvoriento,,,,,926.0045,942.4686,1,1,15.9511,,0,55,55,70,1,REAL,FAKE,,,,,,,,,,,,,,,,,
,,,,,,,,,655fca2a80e5660b5d4ca8bf,Standard dialect,younger than 13,"yes, I am fluent in another language",yes,2025-07-24_00h37.49.299,empathy_intonation_perc_control,2024.2.4,Win32,147.0588235,655fca2a80e5660b5d4ca8bf,68817205a84113384fffdfe3,6881b860d9fa339eeb54cb36,,,,,,,,,,,,,1,,,,,,,,,,,,,,,,,,,,,,,,,,,,,,,,,,,,,13,helar,,,,,942.4691,954.3225,1,1,11.3408,,0,56,56,12,1,REAL,FAKE,,,,,,,,,,,,,,,,,
,,,,,,,,,655fca2a80e5660b5d4ca8bf,Standard dialect,younger than 13,"yes, I am fluent in another language",yes,2025-07-24_00h37.49.299,empathy_intonation_perc_control,2024.2.4,Win32,147.0588235,655fca2a80e5660b5d4ca8bf,68817205a84113384fffdfe3,6881b860d9fa339eeb54cb36,,,,,,,,,,,,,1,,,,,,,,,,,,,,,,,,,,,,,,,,,,,,,,,,,,,43,canela,,,,,954.323,961.7056,1,1,6.8758,,0,57,57,42,1,REAL,FAKE,,,,,,,,,,,,,,,,,
,,,,,,,,,655fca2a80e5660b5d4ca8bf,Standard dialect,younger than 13,"yes, I am fluent in another language",yes,2025-07-24_00h37.49.299,empathy_intonation_perc_control,2024.2.4,Win32,147.0588235,655fca2a80e5660b5d4ca8bf,68817205a84113384fffdfe3,6881b860d9fa339eeb54cb36,,,,,,,,,,,,,1,,,,,,,,,,,,,,,,,,,,,,,,,,,,,,,,,,,,,91,click the 1 key.,,,,,961.7081,963.1298,1,1,0.9046,,0,58,58,90,1,REAL,FAKE,,,,,,,,,,,,,,,,,
,,,,,,,,,655fca2a80e5660b5d4ca8bf,Standard dialect,younger than 13,"yes, I am fluent in another language",yes,2025-07-24_00h37.49.299,empathy_intonation_perc_control,2024.2.4,Win32,147.0588235,655fca2a80e5660b5d4ca8bf,68817205a84113384fffdfe3,6881b860d9fa339eeb54cb36,,,,,,,,,,,,,0,,,,,,,,,,,,,,,,,,,,,,,,,,,,,,,,,,,,,16,abracer,,,,,963.1312,972.7188,1,0,9.0761,,0,59,59,15,1,REAL,FAKE,,,,,,,,,,,,,,,,,
,,,,,,,,,655fca2a80e5660b5d4ca8bf,Standard dialect,younger than 13,"yes, I am fluent in another language",yes,2025-07-24_00h37.49.299,empathy_intonation_perc_control,2024.2.4,Win32,147.0588235,655fca2a80e5660b5d4ca8bf,68817205a84113384fffdfe3,6881b860d9fa339eeb54cb36,,,,,,,,,,,,,1,,,,,,,,,,,,,,,,,,,,,,,,,,,,,,,,,,,,,31,pandilla,,,,,972.72,991.17,1,1,17.9369,,0,60,60,30,1,REAL,FAKE,,,,,,,,,,,,,,,,,
,,,,,,,,,655fca2a80e5660b5d4ca8bf,Standard dialect,younger than 13,"yes, I am fluent in another language",yes,2025-07-24_00h37.49.299,empathy_intonation_perc_control,2024.2.4,Win32,147.0588235,655fca2a80e5660b5d4ca8bf,68817205a84113384fffdfe3,6881b860d9fa339eeb54cb36,,,,,,,,,,,,,0,,,,,,,,,,,,,,,,,,,,,,,,,,,,,,,,,,,,,87,grodo,,,,,991.1707,1008.5877,0,1,16.9061,,0,61,61,86,1,REAL,FAKE,,,,,,,,,,,,,,,,,
,,,,,,,,,655fca2a80e5660b5d4ca8bf,Standard dialect,younger than 13,"yes, I am fluent in another language",yes,2025-07-24_00h37.49.299,empathy_intonation_perc_control,2024.2.4,Win32,147.0588235,655fca2a80e5660b5d4ca8bf,68817205a84113384fffdfe3,6881b860d9fa339eeb54cb36,,,,,,,,,,,,,1,,,,,,,,,,,,,,,,,,,,,,,,,,,,,,,,,,,,,68,alegre,,,,,1008.5891,1018.3297,1,1,9.2269,,0,62,62,67,1,REAL,FAKE,,,,,,,,,,,,,,,,,
,,,,,,,,,655fca2a80e5660b5d4ca8bf,Standard dialect,younger than 13,"yes, I am fluent in another language",yes,2025-07-24_00h37.49.299,empathy_intonation_perc_control,2024.2.4,Win32,147.0588235,655fca2a80e5660b5d4ca8bf,68817205a84113384fffdfe3,6881b860d9fa339eeb54cb36,,,,,,,,,,,,,1,,,,,,,,,,,,,,,,,,,,,,,,,,,,,,,,,,,,,59,besar,,,,,1018.3304,1020.4411,1,1,1.5979,,0,63,63,58,1,REAL,FAKE,,,,,,,,,,,,,,,,,
,,,,,,,,,655fca2a80e5660b5d4ca8bf,Standard dialect,younger than 13,"yes, I am fluent in another language",yes,2025-07-24_00h37.49.299,empathy_intonation_perc_control,2024.2.4,Win32,147.0588235,655fca2a80e5660b5d4ca8bf,68817205a84113384fffdfe3,6881b860d9fa339eeb54cb36,,,,,,,,,,,,,1,,,,,,,,,,,,,,,,,,,,,,,,,,,,,,,,,,,,,75,yacer,,,,,1020.4418,1027.3449,1,1,6.39,,0,64,64,74,1,REAL,FAKE,,,,,,,,,,,,,,,,,
,,,,,,,,,655fca2a80e5660b5d4ca8bf,Standard dialect,younger than 13,"yes, I am fluent in another language",yes,2025-07-24_00h37.49.299,empathy_intonation_perc_control,2024.2.4,Win32,147.0588235,655fca2a80e5660b5d4ca8bf,68817205a84113384fffdfe3,6881b860d9fa339eeb54cb36,,,,,,,,,,,,,0,,,,,,,,,,,,,,,,,,,,,,,,,,,,,,,,,,,,,58,plaudir,,,,,1027.3463,1035.2827,1,0,7.425,,0,65,65,57,1,REAL,FAKE,,,,,,,,,,,,,,,,,
,,,,,,,,,655fca2a80e5660b5d4ca8bf,Standard dialect,younger than 13,"yes, I am fluent in another language",yes,2025-07-24_00h37.49.299,empathy_intonation_perc_control,2024.2.4,Win32,147.0588235,655fca2a80e5660b5d4ca8bf,68817205a84113384fffdfe3,6881b860d9fa339eeb54cb36,,,,,,,,,,,,,1,,,,,,,,,,,,,,,,,,,,,,,,,,,,,,,,,,,,,45,jilguero,,,,,1035.2842,1047.6213,1,1,11.826,,0,66,66,44,1,REAL,FAKE,,,,,,,,,,,,,,,,,
,,,,,,,,,655fca2a80e5660b5d4ca8bf,Standard dialect,younger than 13,"yes, I am fluent in another language",yes,2025-07-24_00h37.49.299,empathy_intonation_perc_control,2024.2.4,Win32,147.0588235,655fca2a80e5660b5d4ca8bf,68817205a84113384fffdfe3,6881b860d9fa339eeb54cb36,,,,,,,,,,,,,0,,,,,,,,,,,,,,,,,,,,,,,,,,,,,,,,,,,,,23,lampera,,,,,1047.6218,1056.2061,0,1,8.0754,,0,67,67,22,1,REAL,FAKE,,,,,,,,,,,,,,,,,
,,,,,,,,,655fca2a80e5660b5d4ca8bf,Standard dialect,younger than 13,"yes, I am fluent in another language",yes,2025-07-24_00h37.49.299,empathy_intonation_perc_control,2024.2.4,Win32,147.0588235,655fca2a80e5660b5d4ca8bf,68817205a84113384fffdfe3,6881b860d9fa339eeb54cb36,,,,,,,,,,,,,1,,,,,,,,,,,,,,,,,,,,,,,,,,,,,,,,,,,,,34,aviso,,,,,1056.2075,1061.9409,1,1,5.2214,,0,68,68,33,1,REAL,FAKE,,,,,,,,,,,,,,,,,
,,,,,,,,,655fca2a80e5660b5d4ca8bf,Standard dialect,younger than 13,"yes, I am fluent in another language",yes,2025-07-24_00h37.49.299,empathy_intonation_perc_control,2024.2.4,Win32,147.0588235,655fca2a80e5660b5d4ca8bf,68817205a84113384fffdfe3,6881b860d9fa339eeb54cb36,,,,,,,,,,,,,1,,,,,,,,,,,,,,,,,,,,,,,,,,,,,,,,,,,,,24,látigo,,,,,1061.9419,1073.1703,1,1,10.7162,,0,69,69,23,1,REAL,FAKE,,,,,,,,,,,,,,,,,
,,,,,,,,,655fca2a80e5660b5d4ca8bf,Standard dialect,younger than 13,"yes, I am fluent in another language",yes,2025-07-24_00h37.49.299,empathy_intonation_perc_control,2024.2.4,Win32,147.0588235,655fca2a80e5660b5d4ca8bf,68817205a84113384fffdfe3,6881b860d9fa339eeb54cb36,,,,,,,,,,,,,1,,,,,,,,,,,,,,,,,,,,,,,,,,,,,,,,,,,,,60,matar,,,,,1073.1711,1080.2398,1,1,6.5565,,0,70,70,59,1,REAL,FAKE,,,,,,,,,,,,,,,,,
,,,,,,,,,655fca2a80e5660b5d4ca8bf,Standard dialect,younger than 13,"yes, I am fluent in another language",yes,2025-07-24_00h37.49.299,empathy_intonation_perc_control,2024.2.4,Win32,147.0588235,655fca2a80e5660b5d4ca8bf,68817205a84113384fffdfe3,6881b860d9fa339eeb54cb36,,,,,,,,,,,,,1,,,,,,,,,,,,,,,,,,,,,,,,,,,,,,,,,,,,,56,musgo,,,,,1080.2412,1087.3713,1,1,6.6134,,0,71,71,55,1,REAL,FAKE,,,,,,,,,,,,,,,,,
,,,,,,,,,655fca2a80e5660b5d4ca8bf,Standard dialect,younger than 13,"yes, I am fluent in another language",yes,2025-07-24_00h37.49.299,empathy_intonation_perc_control,2024.2.4,Win32,147.0588235,655fca2a80e5660b5d4ca8bf,68817205a84113384fffdfe3,6881b860d9fa339eeb54cb36,,,,,,,,,,,,,0,,,,,,,,,,,,,,,,,,,,,,,,,,,,,,,,,,,,,1,terzo,,,,,1087.3718,1100.6436,0,1,12.7599,,0,72,72,0,1,REAL,FAKE,,,,,,,,,,,,,,,,,
,,,,,,,,,655fca2a80e5660b5d4ca8bf,Standard dialect,younger than 13,"yes, I am fluent in another language",yes,2025-07-24_00h37.49.299,empathy_intonation_perc_control,2024.2.4,Win32,147.0588235,655fca2a80e5660b5d4ca8bf,68817205a84113384fffdfe3,6881b860d9fa339eeb54cb36,,,,,,,,,,,,,1,,,,,,,,,,,,,,,,,,,,,,,,,,,,,,,,,,,,,22,lacayo,,,,,1100.645,1109.6434,1,1,8.4852,,0,73,73,21,1,REAL,FAKE,,,,,,,,,,,,,,,,,
,,,,,,,,,655fca2a80e5660b5d4ca8bf,Standard dialect,younger than 13,"yes, I am fluent in another language",yes,2025-07-24_00h37.49.299,empathy_intonation_perc_control,2024.2.4,Win32,147.0588235,655fca2a80e5660b5d4ca8bf,68817205a84113384fffdfe3,6881b860d9fa339eeb54cb36,,,,,,,,,,,,,1,,,,,,,,,,,,,,,,,,,,,,,,,,,,,,,,,,,,,39,torpe,,,,,1109.645,1118.6978,1,1,8.5364,,0,74,74,38,1,REAL,FAKE,,,,,,,,,,,,,,,,,
,,,,,,,,,655fca2a80e5660b5d4ca8bf,Standard dialect,younger than 13,"yes, I am fluent in another language",yes,2025-07-24_00h37.49.299,empathy_intonation_perc_control,2024.2.4,Win32,147.0588235,655fca2a80e5660b5d4ca8bf,68817205a84113384fffdfe3,6881b860d9fa339eeb54cb36,,,,,,,,,,,,,1,,,,,,,,,,,,,,,,,,,,,,,,,,,,,,,,,,,,,51,candado,,,,,1118.6983,1128.8854,1,1,9.6738,,0,75,75,50,1,REAL,FAKE,,,,,,,,,,,,,,,,,
,,,,,,,,,655fca2a80e5660b5d4ca8bf,Standard dialect,younger than 13,"yes, I am fluent in another language",yes,2025-07-24_00h37.49.299,empathy_intonation_perc_control,2024.2.4,Win32,147.0588235,655fca2a80e5660b5d4ca8bf,68817205a84113384fffdfe3,6881b860d9fa339eeb54cb36,,,,,,,,,,,,,1,,,,,,,,,,,,,,,,,,,,,,,,,,,,,,,,,,,,,3,pulmones,,,,,1128.886,1136.6582,1,1,7.2593,,0,76,76,2,1,REAL,FAKE,,,,,,,,,,,,,,,,,
,,,,,,,,,655fca2a80e5660b5d4ca8bf,Standard dialect,younger than 13,"yes, I am fluent in another language",yes,2025-07-24_00h37.49.299,empathy_intonation_perc_control,2024.2.4,Win32,147.0588235,655fca2a80e5660b5d4ca8bf,68817205a84113384fffdfe3,6881b860d9fa339eeb54cb36,,,,,,,,,,,,,1,,,,,,,,,,,,,,,,,,,,,,,,,,,,,,,,,,,,,61,seda,,,,,1136.6597,1147.2673,0,0,10.0915,,0,77,77,60,1,REAL,FAKE,,,,,,,,,,,,,,,,,
,,,,,,,,,655fca2a80e5660b5d4ca8bf,Standard dialect,younger than 13,"yes, I am fluent in another language",yes,2025-07-24_00h37.49.299,empathy_intonation_perc_control,2024.2.4,Win32,147.0588235,655fca2a80e5660b5d4ca8bf,68817205a84113384fffdfe3,6881b860d9fa339eeb54cb36,,,,,,,,,,,,,1,,,,,,,,,,,,,,,,,,,,,,,,,,,,,,,,,,,,,11,cenefa,,,,,1147.2678,1156.4981,1,1,8.7172,,0,78,78,10,1,REAL,FAKE,,,,,,,,,,,,,,,,,
,,,,,,,,,655fca2a80e5660b5d4ca8bf,Standard dialect,younger than 13,"yes, I am fluent in another language",yes,2025-07-24_00h37.49.299,empathy_intonation_perc_control,2024.2.4,Win32,147.0588235,655fca2a80e5660b5d4ca8bf,68817205a84113384fffdfe3,6881b860d9fa339eeb54cb36,,,,,,,,,,,,,0,,,,,,,,,,,,,,,,,,,,,,,,,,,,,,,,,,,,,70,temblo,,,,,1156.4995,1165.4137,1,0,8.4013,,0,79,79,69,1,REAL,FAKE,,,,,,,,,,,,,,,,,
,,,,,,,,,655fca2a80e5660b5d4ca8bf,Standard dialect,younger than 13,"yes, I am fluent in another language",yes,2025-07-24_00h37.49.299,empathy_intonation_perc_control,2024.2.4,Win32,147.0588235,655fca2a80e5660b5d4ca8bf,68817205a84113384fffdfe3,6881b860d9fa339eeb54cb36,,,,,,,,,,,,,1,,,,,,,,,,,,,,,,,,,,,,,,,,,,,,,,,,,,,48,ladrón,,,,,1165.4149,1174.698,1,1,8.7699,,0,80,80,47,1,REAL,FAKE,,,,,,,,,,,,,,,,,
,,,,,,,,,655fca2a80e5660b5d4ca8bf,Standard dialect,younger than 13,"yes, I am fluent in another language",yes,2025-07-24_00h37.49.299,empathy_intonation_perc_control,2024.2.4,Win32,147.0588235,655fca2a80e5660b5d4ca8bf,68817205a84113384fffdfe3,6881b860d9fa339eeb54cb36,,,,,,,,,,,,,1,,,,,,,,,,,,,,,,,,,,,,,,,,,,,,,,,,,,,25,bisagra,,,,,1174.6985,1182.5452,1,1,7.3335,,0,81,81,24,1,REAL,FAKE,,,,,,,,,,,,,,,,,
,,,,,,,,,655fca2a80e5660b5d4ca8bf,Standard dialect,younger than 13,"yes, I am fluent in another language",yes,2025-07-24_00h37.49.299,empathy_intonation_perc_control,2024.2.4,Win32,147.0588235,655fca2a80e5660b5d4ca8bf,68817205a84113384fffdfe3,6881b860d9fa339eeb54cb36,,,,,,,,,,,,,0,,,,,,,,,,,,,,,,,,,,,,,,,,,,,,,,,,,,,17,floroso,,,,,1182.5458,1193.0326,0,1,9.9732,,0,82,82,16,1,REAL,FAKE,,,,,,,,,,,,,,,,,
,,,,,,,,,655fca2a80e5660b5d4ca8bf,Standard dialect,younger than 13,"yes, I am fluent in another language",yes,2025-07-24_00h37.49.299,empathy_intonation_perc_control,2024.2.4,Win32,147.0588235,655fca2a80e5660b5d4ca8bf,68817205a84113384fffdfe3,6881b860d9fa339eeb54cb36,,,,,,,,,,,,,1,,,,,,,,,,,,,,,,,,,,,,,,,,,,,,,,,,,,,55,nevar,,,,,1193.034,1205.0593,1,1,11.509,,0,83,83,54,1,REAL,FAKE,,,,,,,,,,,,,,,,,
,,,,,,,,,655fca2a80e5660b5d4ca8bf,Standard dialect,younger than 13,"yes, I am fluent in another language",yes,2025-07-24_00h37.49.299,empathy_intonation_perc_control,2024.2.4,Win32,147.0588235,655fca2a80e5660b5d4ca8bf,68817205a84113384fffdfe3,6881b860d9fa339eeb54cb36,,,,,,,,,,,,,1,,,,,,,,,,,,,,,,,,,,,,,,,,,,,,,,,,,,,52,camisa,,,,,1205.0602,1213.0036,1,1,7.4319,,0,84,84,51,1,REAL,FAKE,,,,,,,,,,,,,,,,,
,,,,,,,,,655fca2a80e5660b5d4ca8bf,Standard dialect,younger than 13,"yes, I am fluent in another language",yes,2025-07-24_00h37.49.299,empathy_intonation_perc_control,2024.2.4,Win32,147.0588235,655fca2a80e5660b5d4ca8bf,68817205a84113384fffdfe3,6881b860d9fa339eeb54cb36,,,,,,,,,,,,,1,,,,,,,,,,,,,,,,,,,,,,,,,,,,,,,,,,,,,85,laúd,,,,,1213.0044,1223.6702,1,1,10.1528,,0,85,85,84,1,REAL,FAKE,,,,,,,,,,,,,,,,,
,,,,,,,,,655fca2a80e5660b5d4ca8bf,Standard dialect,younger than 13,"yes, I am fluent in another language",yes,2025-07-24_00h37.49.299,empathy_intonation_perc_control,2024.2.4,Win32,147.0588235,655fca2a80e5660b5d4ca8bf,68817205a84113384fffdfe3,6881b860d9fa339eeb54cb36,,,,,,,,,,,,,1,,,,,,,,,,,,,,,,,,,,,,,,,,,,,,,,,,,,,41,rebuscar,,,,,1223.6707,1234.5382,1,1,10.3556,,0,86,86,40,1,REAL,FAKE,,,,,,,,,,,,,,,,,
,,,,,,,,,655fca2a80e5660b5d4ca8bf,Standard dialect,younger than 13,"yes, I am fluent in another language",yes,2025-07-24_00h37.49.299,empathy_intonation_perc_control,2024.2.4,Win32,147.0588235,655fca2a80e5660b5d4ca8bf,68817205a84113384fffdfe3,6881b860d9fa339eeb54cb36,,,,,,,,,,,,,0,,,,,,,,,,,,,,,,,,,,,,,,,,,,,,,,,,,,,30,alardio,,,,,1234.5386,1253.9626,0,1,18.9168,,0,87,87,29,1,REAL,FAKE,,,,,,,,,,,,,,,,,
,,,,,,,,,655fca2a80e5660b5d4ca8bf,Standard dialect,younger than 13,"yes, I am fluent in another language",yes,2025-07-24_00h37.49.299,empathy_intonation_perc_control,2024.2.4,Win32,147.0588235,655fca2a80e5660b5d4ca8bf,68817205a84113384fffdfe3,6881b860d9fa339eeb54cb36,,,,,,,,,,,,,1,,,,,,,,,,,,,,,,,,,,,,,,,,,,,,,,,,,,,86,barato,,,,,1253.9639,1262.081,1,1,7.605,,0,88,88,85,1,REAL,FAKE,,,,,,,,,,,,,,,,,
,,,,,,,,,655fca2a80e5660b5d4ca8bf,Standard dialect,younger than 13,"yes, I am fluent in another language",yes,2025-07-24_00h37.49.299,empathy_intonation_perc_control,2024.2.4,Win32,147.0588235,655fca2a80e5660b5d4ca8bf,68817205a84113384fffdfe3,6881b860d9fa339eeb54cb36,,,,,,,,,,,,,1,,,,,,,,,,,,,,,,,,,,,,,,,,,,,,,,,,,,,20,ávido,,,,,1262.0825,1264.1232,1,1,1.5238,,0,89,89,19,1,REAL,FAKE,,,,,,,,,,,,,,,,,
,,,,,,,,,655fca2a80e5660b5d4ca8bf,Standard dialect,younger than 13,"yes, I am fluent in another language",yes,2025-07-24_00h37.49.299,empathy_intonation_perc_control,2024.2.4,Win32,147.0588235,655fca2a80e5660b5d4ca8bf,68817205a84113384fffdfe3,6881b860d9fa339eeb54cb36,,,,,,,,,,,,,0,,,,,,,,,,,,,,,,,,,,,,,,,,,,,,,,,,,,,27,acutación,,,,,1264.1246,1293.1867,0,1,28.5512,,0,90,90,26,1,REAL,FAKE,,,,,,,,,,,,,,,,,
,,,,,,,,,655fca2a80e5660b5d4ca8bf,Standard dialect,younger than 13,"yes, I am fluent in another language",yes,2025-07-24_00h37.49.299,empathy_intonation_perc_control,2024.2.4,Win32,147.0588235,655fca2a80e5660b5d4ca8bf,68817205a84113384fffdfe3,6881b860d9fa339eeb54cb36,,,,,,,,,,,,,1,,,,,,,,,,,,,,,,,,,,,,,,,,,,,,,,,,,,,38,estornudar,,,,,1293.1883,1305.0313,1,1,11.3321,,0,91,91,37,1,REAL,FAKE,,,,,,,,,,,,,,,,,
,,,,,,,,,655fca2a80e5660b5d4ca8bf,Standard dialect,younger than 13,"yes, I am fluent in another language",yes,2025-07-24_00h37.49.299,empathy_intonation_perc_control,2024.2.4,Win32,147.0588235,655fca2a80e5660b5d4ca8bf,68817205a84113384fffdfe3,6881b860d9fa339eeb54cb36,,,,,,,,,,,,,,,,,,,,,,,,,,,,,,,,,,,,,,,,,,,,,,,,,,,,,,,,,,,,,,,,,,,,,1305.0316,1316.4767,,,,,,,,,,,,,,,
,,,,,,,,,655fca2a80e5660b5d4ca8bf,Standard dialect,younger than 13,"yes, I am fluent in another language",yes,2025-07-24_00h37.49.299,empathy_intonation_perc_control,2024.2.4,Win32,147.0588235,655fca2a80e5660b5d4ca8bf,68817205a84113384fffdfe3,6881b860d9fa339eeb54cb36,,,,,,,,,,,,,,,,,,,,,,,,,,,1,,,,,,,,,,,,,,,,,,,,,,,,,,,,,,,,,,,,,,,,,,,,1316.4981,1320.6985,slightly disagree,0,0,0,0,1,I can easily tell if someone else wants to enter a conversation.,1,0,1,0,,
,,,,,,,,,655fca2a80e5660b5d4ca8bf,Standard dialect,younger than 13,"yes, I am fluent in another language",yes,2025-07-24_00h37.49.299,empathy_intonation_perc_control,2024.2.4,Win32,147.0588235,655fca2a80e5660b5d4ca8bf,68817205a84113384fffdfe3,6881b860d9fa339eeb54cb36,,,,,,,,,,,,,,,,,,,,,,,,,,,2,,,,,,,,,,,,,,,,,,,,,,,,,,,,,,,,,,,,,,,,,,,,1320.7002,1325.4897,slightly agree,0,1,1,1,1,I prefer animals to humans.,0,1,0,0,,
,,,,,,,,,655fca2a80e5660b5d4ca8bf,Standard dialect,younger than 13,"yes, I am fluent in another language",yes,2025-07-24_00h37.49.299,empathy_intonation_perc_control,2024.2.4,Win32,147.0588235,655fca2a80e5660b5d4ca8bf,68817205a84113384fffdfe3,6881b860d9fa339eeb54cb36,,,,,,,,,,,,,,,,,,,,,,,,,,,3,,,,,,,,,,,,,,,,,,,,,,,,,,,,,,,,,,,,,,,,,,,,1325.4915,1329.1566,slightly agree,0,2,2,2,1,I try to keep up with the current trends and fashions.,0,1,0,0,,
,,,,,,,,,655fca2a80e5660b5d4ca8bf,Standard dialect,younger than 13,"yes, I am fluent in another language",yes,2025-07-24_00h37.49.299,empathy_intonation_perc_control,2024.2.4,Win32,147.0588235,655fca2a80e5660b5d4ca8bf,68817205a84113384fffdfe3,6881b860d9fa339eeb54cb36,,,,,,,,,,,,,,,,,,,,,,,,,,,4,,,,,,,,,,,,,,,,,,,,,,,,,,,,,,,,,,,,,,,,,,,,1329.1582,1333.4828,strongly agree,0,3,3,3,1,"I find it difficult to explain to others things that I understand easily,   when they don't understand it first time.",1,0,0,1,,
,,,,,,,,,655fca2a80e5660b5d4ca8bf,Standard dialect,younger than 13,"yes, I am fluent in another language",yes,2025-07-24_00h37.49.299,empathy_intonation_perc_control,2024.2.4,Win32,147.0588235,655fca2a80e5660b5d4ca8bf,68817205a84113384fffdfe3,6881b860d9fa339eeb54cb36,,,,,,,,,,,,,,,,,,,,,,,,,,,5,,,,,,,,,,,,,,,,,,,,,,,,,,,,,,,,,,,,,,,,,,,,1333.4834,1334.8161,strongly agree,0,4,4,4,1,I dream most nights.,0,1,0,0,,
,,,,,,,,,655fca2a80e5660b5d4ca8bf,Standard dialect,younger than 13,"yes, I am fluent in another language",yes,2025-07-24_00h37.49.299,empathy_intonation_perc_control,2024.2.4,Win32,147.0588235,655fca2a80e5660b5d4ca8bf,68817205a84113384fffdfe3,6881b860d9fa339eeb54cb36,,,,,,,,,,,,,,,,,,,,,,,,,,,6,,,,,,,,,,,,,,,,,,,,,,,,,,,,,,,,,,,,,,,,,,,,1334.8178,1335.8302,strongly agree,0,5,5,5,1,I really enjoy caring for other people.,1,0,1,0,,
,,,,,,,,,655fca2a80e5660b5d4ca8bf,Standard dialect,younger than 13,"yes, I am fluent in another language",yes,2025-07-24_00h37.49.299,empathy_intonation_perc_control,2024.2.4,Win32,147.0588235,655fca2a80e5660b5d4ca8bf,68817205a84113384fffdfe3,6881b860d9fa339eeb54cb36,,,,,,,,,,,,,,,,,,,,,,,,,,,7,,,,,,,,,,,,,,,,,,,,,,,,,,,,,,,,,,,,,,,,,,,,1335.8316,1338.4897,strongly agree,0,6,6,6,1,I try to solve my own problems rather than discussing them with others.,0,1,0,0,,
,,,,,,,,,655fca2a80e5660b5d4ca8bf,Standard dialect,younger than 13,"yes, I am fluent in another language",yes,2025-07-24_00h37.49.299,empathy_intonation_perc_control,2024.2.4,Win32,147.0588235,655fca2a80e5660b5d4ca8bf,68817205a84113384fffdfe3,6881b860d9fa339eeb54cb36,,,,,,,,,,,,,,,,,,,,,,,,,,,8,,,,,,,,,,,,,,,,,,,,,,,,,,,,,,,,,,,,,,,,,,,,1338.491,1341.1843,slightly agree,0,7,7,7,1,I find it hard to know what to do in a social situation.,1,0,0,1,,
,,,,,,,,,655fca2a80e5660b5d4ca8bf,Standard dialect,younger than 13,"yes, I am fluent in another language",yes,2025-07-24_00h37.49.299,empathy_intonation_perc_control,2024.2.4,Win32,147.0588235,655fca2a80e5660b5d4ca8bf,68817205a84113384fffdfe3,6881b860d9fa339eeb54cb36,,,,,,,,,,,,,,,,,,,,,,,,,,,9,,,,,,,,,,,,,,,,,,,,,,,,,,,,,,,,,,,,,,,,,,,,1341.1851,1344.2328,strongly disagree,0,8,8,8,1,I am at my best first thing in the morning.,0,1,0,0,,
,,,,,,,,,655fca2a80e5660b5d4ca8bf,Standard dialect,younger than 13,"yes, I am fluent in another language",yes,2025-07-24_00h37.49.299,empathy_intonation_perc_control,2024.2.4,Win32,147.0588235,655fca2a80e5660b5d4ca8bf,68817205a84113384fffdfe3,6881b860d9fa339eeb54cb36,,,,,,,,,,,,,,,,,,,,,,,,,,,10,,,,,,,,,,,,,,,,,,,,,,,,,,,,,,,,,,,,,,,,,,,,1344.234,1350.8368,strongly disagree,0,9,9,9,1,People often tell me that I went too far in driving my point home in a discussion.,1,0,0,1,,
,,,,,,,,,655fca2a80e5660b5d4ca8bf,Standard dialect,younger than 13,"yes, I am fluent in another language",yes,2025-07-24_00h37.49.299,empathy_intonation_perc_control,2024.2.4,Win32,147.0588235,655fca2a80e5660b5d4ca8bf,68817205a84113384fffdfe3,6881b860d9fa339eeb54cb36,,,,,,,,,,,,,,,,,,,,,,,,,,,11,,,,,,,,,,,,,,,,,,,,,,,,,,,,,,,,,,,,,,,,,,,,1350.838,1355.9342,slightly disagree,0,10,10,10,1,It doesn't bother me too much if I am late meeting a friend.,1,0,0,1,,
,,,,,,,,,655fca2a80e5660b5d4ca8bf,Standard dialect,younger than 13,"yes, I am fluent in another language",yes,2025-07-24_00h37.49.299,empathy_intonation_perc_control,2024.2.4,Win32,147.0588235,655fca2a80e5660b5d4ca8bf,68817205a84113384fffdfe3,6881b860d9fa339eeb54cb36,,,,,,,,,,,,,,,,,,,,,,,,,,,12,,,,,,,,,,,,,,,,,,,,,,,,,,,,,,,,,,,,,,,,,,,,1355.9355,1360.6147,strongly disagree,0,11,11,11,1,"Friendships and relationships are just too difficult, so I tend not to 
  bother with them.",1,0,0,1,,
,,,,,,,,,655fca2a80e5660b5d4ca8bf,Standard dialect,younger than 13,"yes, I am fluent in another language",yes,2025-07-24_00h37.49.299,empathy_intonation_perc_control,2024.2.4,Win32,147.0588235,655fca2a80e5660b5d4ca8bf,68817205a84113384fffdfe3,6881b860d9fa339eeb54cb36,,,,,,,,,,,,,,,,,,,,,,,,,,,13,,,,,,,,,,,,,,,,,,,,,,,,,,,,,,,,,,,,,,,,,,,,1360.6155,1362.9411,slightly disagree,0,12,12,12,1,"I would never break a law, no matter how minor.",0,1,0,0,,
