instructions_2afc.started,instructions_2afc.stopped,instructions_2afc_loop.thisRepN,instructions_2afc_loop.thisTrialN,instructions_2afc_loop.thisN,instructions_2afc_loop.thisIndex,instructions_2afc_loop.ran,instructions_text,continue_text,participant_id,"What variety of Spanish are you most familiar with? (e.g., Peruvian, Spanish, Mexican)",At what age did you begin learning Spanish?,Are you proficient in any languages other than English/Spanish?,"Are you familiar with Caribbean (e.g., Caribbean, Puerto Rican) or Galician Spanish?",date,expName,psychopyVersion,OS,frameRate,id,study_id,session,practice_2afc.started,practice_2afc.stopped,key_resp_2afc_practice.keys,key_resp_2afc_practice.corr,key_resp_2afc_practice.rt,key_resp_2afc_practice.duration,trials_2afc_practice_loop.thisRepN,trials_2afc_practice_loop.thisTrialN,trials_2afc_practice_loop.thisN,trials_2afc_practice_loop.thisIndex,trials_2afc_practice_loop.ran,path,correct_response,check_2afc.started,check_2afc.stopped,trial_2afc.started,trial_2afc.stopped,key_resp_2afc_trial.keys,key_resp_2afc_trial.corr,key_resp_2afc_trial.rt,key_resp_2afc_trial.duration,trials_2afc_loop.thisRepN,trials_2afc_loop.thisTrialN,trials_2afc_loop.thisN,trials_2afc_loop.thisIndex,trials_2afc_loop.ran,item_num,target,variety,instructions_lextale.started,instructions_lextale.stopped,instructions_lextale_loop.thisRepN,instructions_lextale_loop.thisTrialN,instructions_lextale_loop.thisN,instructions_lextale_loop.thisIndex,instructions_lextale_loop.ran,practice_lextale.started,practice_lextale.stopped,key_resp_lextale_practice.keys,key_resp_lextale_practice.corr,key_resp_lextale_practice.rt,key_resp_lextale_practice.duration,practice_feedback_lextale.started,practice_feedback_lextale.stopped,trials_lextale_practice_loop.thisRepN,trials_lextale_practice_loop.thisTrialN,trials_lextale_practice_loop.thisN,trials_lextale_practice_loop.thisIndex,trials_lextale_practice_loop.ran,stim,word,prac_button_real,prac_button_false,check_lextale.started,check_lextale.stopped,trial_lextale.started,trial_lextale.stopped,key_resp_lextale_trial.keys,key_resp_lextale_trial.corr,key_resp_lextale_trial.rt,key_resp_lextale_trial.duration,trials_lextale_loop.thisRepN,trials_lextale_loop.thisTrialN,trials_lextale_loop.thisN,trials_lextale_loop.thisIndex,trials_lextale_loop.ran,button_real,button_false,instructions_eq.started,instructions_eq.stopped,trial_eq.started,trial_eq.stopped,slider_eq_trial.response,trials_eq_loop.thisRepN,trials_eq_loop.thisTrialN,trials_eq_loop.thisN,trials_eq_loop.thisIndex,trials_eq_loop.ran,item,is_test_item,is_distractor,is_agree_score,is_disagree_score,end_exp.started,end_exp.stopped
0.0257,5.8719,0,0,0,0,1,"In the following task you are going to hear a series of utterances. 

  You will decide if the utterances sound like questions or not using your keyboard.", (press the spacebar to continue),6568b70075a2e3f099a181f2,Spanish,13 or older,"no, only English or Spanish",no,2026-01-21_17h09.08.321,empathy_intonation_perc_control,2024.2.4,MacIntel,57.14285714,6568b70075a2e3f099a181f2,69712dc693a3960bdb483245,69714e580bd551883f54fa8d,,,,,,,,,,,,,,,,,,,,,,,,,,,,,,,,,,,,,,,,,,,,,,,,,,,,,,,,,,,,,,,,,,,,,,,,,,,,,,,,,,,,,
5.8741,11.4227,0,1,1,1,1,"If you believe the utterance is a question, type '1' (for 'yes') and if you do not 
  believe it is a question type '0' (for 'no').

  Let's practice a bit...", (press the spacebar to continue),6568b70075a2e3f099a181f2,Spanish,13 or older,"no, only English or Spanish",no,2026-01-21_17h09.08.321,empathy_intonation_perc_control,2024.2.4,MacIntel,57.14285714,6568b70075a2e3f099a181f2,69712dc693a3960bdb483245,69714e580bd551883f54fa8d,,,,,,,,,,,,,,,,,,,,,,,,,,,,,,,,,,,,,,,,,,,,,,,,,,,,,,,,,,,,,,,,,,,,,,,,,,,,,,,,,,,,,
,,,,,,,,,6568b70075a2e3f099a181f2,Spanish,13 or older,"no, only English or Spanish",no,2026-01-21_17h09.08.321,empathy_intonation_perc_control,2024.2.4,MacIntel,57.14285714,6568b70075a2e3f099a181f2,69712dc693a3960bdb483245,69714e580bd551883f54fa8d,11.4379,15.6066,0,1,3.6529,,0,0,0,4,1,./stim/wavs/cuban_statement_filler_Cocinabas-por-la-noche.wav,0,,,,,,,,,,,,,,,,,,,,,,,,,,,,,,,,,,,,,,,,,,,,,,,,,,,,,,,,,,,,,,,,,,,,,,,,
,,,,,,,,,6568b70075a2e3f099a181f2,Spanish,13 or older,"no, only English or Spanish",no,2026-01-21_17h09.08.321,empathy_intonation_perc_control,2024.2.4,MacIntel,57.14285714,6568b70075a2e3f099a181f2,69712dc693a3960bdb483245,69714e580bd551883f54fa8d,15.6078,19.0898,1,1,2.9509,,0,1,1,3,1,./stim/wavs/mexican_question_filler_Felipe-no-tiene-contrasena.wav,1,,,,,,,,,,,,,,,,,,,,,,,,,,,,,,,,,,,,,,,,,,,,,,,,,,,,,,,,,,,,,,,,,,,,,,,,
,,,,,,,,,6568b70075a2e3f099a181f2,Spanish,13 or older,"no, only English or Spanish",no,2026-01-21_17h09.08.321,empathy_intonation_perc_control,2024.2.4,MacIntel,57.14285714,6568b70075a2e3f099a181f2,69712dc693a3960bdb483245,69714e580bd551883f54fa8d,19.0906,21.2571,1,1,1.6374,,0,2,2,1,1,./stim/wavs/argentine_question_filler_Mi-vecino-habla-mucho.wav,1,,,,,,,,,,,,,,,,,,,,,,,,,,,,,,,,,,,,,,,,,,,,,,,,,,,,,,,,,,,,,,,,,,,,,,,,
,,,,,,,,,6568b70075a2e3f099a181f2,Spanish,13 or older,"no, only English or Spanish",no,2026-01-21_17h09.08.321,empathy_intonation_perc_control,2024.2.4,MacIntel,57.14285714,6568b70075a2e3f099a181f2,69712dc693a3960bdb483245,69714e580bd551883f54fa8d,21.2578,24.0067,0,1,2.2187,,0,3,3,5,1,./stim/wavs/andalusian_statement_filler_Alberto-nunca-se-afeita.wav,0,,,,,,,,,,,,,,,,,,,,,,,,,,,,,,,,,,,,,,,,,,,,,,,,,,,,,,,,,,,,,,,,,,,,,,,,
,,,,,,,,,6568b70075a2e3f099a181f2,Spanish,13 or older,"no, only English or Spanish",no,2026-01-21_17h09.08.321,empathy_intonation_perc_control,2024.2.4,MacIntel,57.14285714,6568b70075a2e3f099a181f2,69712dc693a3960bdb483245,69714e580bd551883f54fa8d,24.0076,26.6234,1,1,2.0889,,0,4,4,0,1,./stim/wavs/castilian_question_filler_Mi-esposo-conoce-al-chico.wav,1,,,,,,,,,,,,,,,,,,,,,,,,,,,,,,,,,,,,,,,,,,,,,,,,,,,,,,,,,,,,,,,,,,,,,,,,
,,,,,,,,,6568b70075a2e3f099a181f2,Spanish,13 or older,"no, only English or Spanish",no,2026-01-21_17h09.08.321,empathy_intonation_perc_control,2024.2.4,MacIntel,57.14285714,6568b70075a2e3f099a181f2,69712dc693a3960bdb483245,69714e580bd551883f54fa8d,26.6241,29.2568,0,1,2.1081,,0,5,5,7,1,./stim/wavs/puertorican_statement_filler_La-nina-pinta-con-su-amiga.wav,0,,,,,,,,,,,,,,,,,,,,,,,,,,,,,,,,,,,,,,,,,,,,,,,,,,,,,,,,,,,,,,,,,,,,,,,,
,,,,,,,,,6568b70075a2e3f099a181f2,Spanish,13 or older,"no, only English or Spanish",no,2026-01-21_17h09.08.321,empathy_intonation_perc_control,2024.2.4,MacIntel,57.14285714,6568b70075a2e3f099a181f2,69712dc693a3960bdb483245,69714e580bd551883f54fa8d,29.2574,32.8237,0,1,3.0383,,0,6,6,6,1,./stim/wavs/peruvian_statement_filler_El-nino-habla-con-su-madre.wav,0,,,,,,,,,,,,,,,,,,,,,,,,,,,,,,,,,,,,,,,,,,,,,,,,,,,,,,,,,,,,,,,,,,,,,,,,
,,,,,,,,,6568b70075a2e3f099a181f2,Spanish,13 or older,"no, only English or Spanish",no,2026-01-21_17h09.08.321,empathy_intonation_perc_control,2024.2.4,MacIntel,57.14285714,6568b70075a2e3f099a181f2,69712dc693a3960bdb483245,69714e580bd551883f54fa8d,32.8244,35.741,0,0,2.3832,,0,7,7,2,1,./stim/wavs/chilean_question_filler_Mi-padre-cantaba-bien.wav,1,,,,,,,,,,,,,,,,,,,,,,,,,,,,,,,,,,,,,,,,,,,,,,,,,,,,,,,,,,,,,,,,,,,,,,,,
,,,,,,,,,6568b70075a2e3f099a181f2,Spanish,13 or older,"no, only English or Spanish",no,2026-01-21_17h09.08.321,empathy_intonation_perc_control,2024.2.4,MacIntel,57.14285714,6568b70075a2e3f099a181f2,69712dc693a3960bdb483245,69714e580bd551883f54fa8d,,,,,,,,,,,,,,35.7415,40.3742,,,,,,,,,,,,,,,,,,,,,,,,,,,,,,,,,,,,,,,,,,,,,,,,,,,,,,,,,,,,,,,,,,,,,,
,,,,,,,,,6568b70075a2e3f099a181f2,Spanish,13 or older,"no, only English or Spanish",no,2026-01-21_17h09.08.321,empathy_intonation_perc_control,2024.2.4,MacIntel,57.14285714,6568b70075a2e3f099a181f2,69712dc693a3960bdb483245,69714e580bd551883f54fa8d,,,,,,,,,,,,./stim/wavs/mexican_match_interrogative-total-yn_Mariano-habla-del-tiempo.wav,1,,,40.3871,42.6748,1,1,1.7658,,0,0,0,16,1,17,0,mexican,,,,,,,,,,,,,,,,,,,,,,,,,,,,,,,,,,,,,,,,,,,,,,,,,,,,,,,,
,,,,,,,,,6568b70075a2e3f099a181f2,Spanish,13 or older,"no, only English or Spanish",no,2026-01-21_17h09.08.321,empathy_intonation_perc_control,2024.2.4,MacIntel,57.14285714,6568b70075a2e3f099a181f2,69712dc693a3960bdb483245,69714e580bd551883f54fa8d,,,,,,,,,,,,./stim/wavs/cuban_mismatch_declarative-broad-focus_Mi-novio-viene-del-lago.wav,0,,,42.6758,44.8248,0,1,1.6165,,0,1,1,76,1,77,0,cuban,,,,,,,,,,,,,,,,,,,,,,,,,,,,,,,,,,,,,,,,,,,,,,,,,,,,,,,,
,,,,,,,,,6568b70075a2e3f099a181f2,Spanish,13 or older,"no, only English or Spanish",no,2026-01-21_17h09.08.321,empathy_intonation_perc_control,2024.2.4,MacIntel,57.14285714,6568b70075a2e3f099a181f2,69712dc693a3960bdb483245,69714e580bd551883f54fa8d,,,,,,,,,,,,./stim/wavs/mexican_mismatch_declarative-broad-focus_La-maestra-vive-en-Paris.wav,0,,,44.8258,47.0085,0,1,1.653,,0,2,2,80,1,81,0,mexican,,,,,,,,,,,,,,,,,,,,,,,,,,,,,,,,,,,,,,,,,,,,,,,,,,,,,,,,
,,,,,,,,,6568b70075a2e3f099a181f2,Spanish,13 or older,"no, only English or Spanish",no,2026-01-21_17h09.08.321,empathy_intonation_perc_control,2024.2.4,MacIntel,57.14285714,6568b70075a2e3f099a181f2,69712dc693a3960bdb483245,69714e580bd551883f54fa8d,,,,,,,,,,,,./stim/wavs/puertorican_match_declarative-broad-focus_Ana-lleva-el-abrigo.wav,0,,,47.0092,49.2084,0,1,1.6762,,0,3,3,62,1,63,0,puertorican,,,,,,,,,,,,,,,,,,,,,,,,,,,,,,,,,,,,,,,,,,,,,,,,,,,,,,,,
,,,,,,,,,6568b70075a2e3f099a181f2,Spanish,13 or older,"no, only English or Spanish",no,2026-01-21_17h09.08.321,empathy_intonation_perc_control,2024.2.4,MacIntel,57.14285714,6568b70075a2e3f099a181f2,69712dc693a3960bdb483245,69714e580bd551883f54fa8d,,,,,,,,,,,,./stim/wavs/mexican_match_declarative-broad-focus_Ana-lleva-el-abrigo.wav,0,,,49.209,51.0409,0,1,1.3071,,0,4,4,56,1,57,0,mexican,,,,,,,,,,,,,,,,,,,,,,,,,,,,,,,,,,,,,,,,,,,,,,,,,,,,,,,,
,,,,,,,,,6568b70075a2e3f099a181f2,Spanish,13 or older,"no, only English or Spanish",no,2026-01-21_17h09.08.321,empathy_intonation_perc_control,2024.2.4,MacIntel,57.14285714,6568b70075a2e3f099a181f2,69712dc693a3960bdb483245,69714e580bd551883f54fa8d,,,,,,,,,,,,./stim/wavs/puertorican_match_interrogative-total-yn_Manuela-vende-el-carro.wav,1,,,51.0414,53.0744,1,1,1.5217,,0,5,5,22,1,23,1,puertorican,,,,,,,,,,,,,,,,,,,,,,,,,,,,,,,,,,,,,,,,,,,,,,,,,,,,,,,,
,,,,,,,,,6568b70075a2e3f099a181f2,Spanish,13 or older,"no, only English or Spanish",no,2026-01-21_17h09.08.321,empathy_intonation_perc_control,2024.2.4,MacIntel,57.14285714,6568b70075a2e3f099a181f2,69712dc693a3960bdb483245,69714e580bd551883f54fa8d,,,,,,,,,,,,./stim/wavs/puertorican_mismatch_interrogative-total-yn_El-nino-oye-el-rio.wav,1,,,53.0748,55.3754,0,0,1.7898,,0,6,6,40,1,41,1,puertorican,,,,,,,,,,,,,,,,,,,,,,,,,,,,,,,,,,,,,,,,,,,,,,,,,,,,,,,,
,,,,,,,,,6568b70075a2e3f099a181f2,Spanish,13 or older,"no, only English or Spanish",no,2026-01-21_17h09.08.321,empathy_intonation_perc_control,2024.2.4,MacIntel,57.14285714,6568b70075a2e3f099a181f2,69712dc693a3960bdb483245,69714e580bd551883f54fa8d,,,,,,,,,,,,./stim/wavs/mexican_mismatch_interrogative-total-yn_La-maestra-vive-en-Paris.wav,1,,,55.3759,57.6757,1,1,1.7742,,0,7,7,36,1,37,0,mexican,,,,,,,,,,,,,,,,,,,,,,,,,,,,,,,,,,,,,,,,,,,,,,,,,,,,,,,,
,,,,,,,,,6568b70075a2e3f099a181f2,Spanish,13 or older,"no, only English or Spanish",no,2026-01-21_17h09.08.321,empathy_intonation_perc_control,2024.2.4,MacIntel,57.14285714,6568b70075a2e3f099a181f2,69712dc693a3960bdb483245,69714e580bd551883f54fa8d,,,,,,,,,,,,./stim/wavs/puertorican_mismatch_declarative-broad-focus_El-nino-oye-el-rio.wav,0,,,57.6761,59.8749,0,1,1.6706,,0,8,8,85,1,86,0,puertorican,,,,,,,,,,,,,,,,,,,,,,,,,,,,,,,,,,,,,,,,,,,,,,,,,,,,,,,,
,,,,,,,,,6568b70075a2e3f099a181f2,Spanish,13 or older,"no, only English or Spanish",no,2026-01-21_17h09.08.321,empathy_intonation_perc_control,2024.2.4,MacIntel,57.14285714,6568b70075a2e3f099a181f2,69712dc693a3960bdb483245,69714e580bd551883f54fa8d,,,,,,,,,,,,./stim/wavs/cuban_match_interrogative-total-yn_Ana-lleva-el-abrigo.wav,1,,,59.8754,61.7919,0,0,1.4062,,0,9,9,6,1,7,1,cuban,,,,,,,,,,,,,,,,,,,,,,,,,,,,,,,,,,,,,,,,,,,,,,,,,,,,,,,,
,,,,,,,,,6568b70075a2e3f099a181f2,Spanish,13 or older,"no, only English or Spanish",no,2026-01-21_17h09.08.321,empathy_intonation_perc_control,2024.2.4,MacIntel,57.14285714,6568b70075a2e3f099a181f2,69712dc693a3960bdb483245,69714e580bd551883f54fa8d,,,,,,,,,,,,./stim/wavs/castilian_match_interrogative-total-yn_Manuela-vende-el-carro.wav,1,,,61.7925,64.3752,1,1,2.07,,0,10,10,2,1,3,0,castilian,,,,,,,,,,,,,,,,,,,,,,,,,,,,,,,,,,,,,,,,,,,,,,,,,,,,,,,,
,,,,,,,,,6568b70075a2e3f099a181f2,Spanish,13 or older,"no, only English or Spanish",no,2026-01-21_17h09.08.321,empathy_intonation_perc_control,2024.2.4,MacIntel,57.14285714,6568b70075a2e3f099a181f2,69712dc693a3960bdb483245,69714e580bd551883f54fa8d,,,,,,,,,,,,./stim/wavs/mexican_mismatch_interrogative-total-yn_El-nino-oye-el-rio.wav,1,,,64.3757,66.3929,1,1,1.505,,0,11,11,35,1,36,0,mexican,,,,,,,,,,,,,,,,,,,,,,,,,,,,,,,,,,,,,,,,,,,,,,,,,,,,,,,,
,,,,,,,,,6568b70075a2e3f099a181f2,Spanish,13 or older,"no, only English or Spanish",no,2026-01-21_17h09.08.321,empathy_intonation_perc_control,2024.2.4,MacIntel,57.14285714,6568b70075a2e3f099a181f2,69712dc693a3960bdb483245,69714e580bd551883f54fa8d,,,,,,,,,,,,./stim/wavs/castilian_match_interrogative-total-yn_Mariano-habla-del-tiempo.wav,1,,,66.3934,68.7086,1,1,1.7906,,0,12,12,4,1,5,0,castilian,,,,,,,,,,,,,,,,,,,,,,,,,,,,,,,,,,,,,,,,,,,,,,,,,,,,,,,,
,,,,,,,,,6568b70075a2e3f099a181f2,Spanish,13 or older,"no, only English or Spanish",no,2026-01-21_17h09.08.321,empathy_intonation_perc_control,2024.2.4,MacIntel,57.14285714,6568b70075a2e3f099a181f2,69712dc693a3960bdb483245,69714e580bd551883f54fa8d,,,,,,,,,,,,./stim/wavs/cuban_mismatch_declarative-broad-focus_El-hombre-mira-la-luna.wav,0,,,68.7091,70.7932,0,1,1.5729,,0,13,13,74,1,75,0,cuban,,,,,,,,,,,,,,,,,,,,,,,,,,,,,,,,,,,,,,,,,,,,,,,,,,,,,,,,
,,,,,,,,,6568b70075a2e3f099a181f2,Spanish,13 or older,"no, only English or Spanish",no,2026-01-21_17h09.08.321,empathy_intonation_perc_control,2024.2.4,MacIntel,57.14285714,6568b70075a2e3f099a181f2,69712dc693a3960bdb483245,69714e580bd551883f54fa8d,,,,,,,,,,,,./stim/wavs/castilian_mismatch_declarative-broad-focus_Mi-tia-odia-la-lluvia.wav,0,,,70.7937,72.9589,0,1,1.64,,0,14,14,72,1,73,0,castilian,,,,,,,,,,,,,,,,,,,,,,,,,,,,,,,,,,,,,,,,,,,,,,,,,,,,,,,,
,,,,,,,,,6568b70075a2e3f099a181f2,Spanish,13 or older,"no, only English or Spanish",no,2026-01-21_17h09.08.321,empathy_intonation_perc_control,2024.2.4,MacIntel,57.14285714,6568b70075a2e3f099a181f2,69712dc693a3960bdb483245,69714e580bd551883f54fa8d,,,,,,,,,,,,./stim/wavs/castilian_mismatch_interrogative-total-yn_La-maestra-vive-en-Paris.wav,1,,,72.9592,75.5598,1,1,2.0866,,0,15,15,24,1,25,0,castilian,,,,,,,,,,,,,,,,,,,,,,,,,,,,,,,,,,,,,,,,,,,,,,,,,,,,,,,,
,,,,,,,,,6568b70075a2e3f099a181f2,Spanish,13 or older,"no, only English or Spanish",no,2026-01-21_17h09.08.321,empathy_intonation_perc_control,2024.2.4,MacIntel,57.14285714,6568b70075a2e3f099a181f2,69712dc693a3960bdb483245,69714e580bd551883f54fa8d,,,,,,,,,,,,./stim/wavs/castilian_match_interrogative-total-yn_Marta-abre-el-regalo.wav,1,,,75.5604,77.8439,1,1,1.7588,,0,16,16,5,1,6,0,castilian,,,,,,,,,,,,,,,,,,,,,,,,,,,,,,,,,,,,,,,,,,,,,,,,,,,,,,,,
,,,,,,,,,6568b70075a2e3f099a181f2,Spanish,13 or older,"no, only English or Spanish",no,2026-01-21_17h09.08.321,empathy_intonation_perc_control,2024.2.4,MacIntel,57.14285714,6568b70075a2e3f099a181f2,69712dc693a3960bdb483245,69714e580bd551883f54fa8d,,,,,,,,,,,,./stim/wavs/mexican_match_declarative-broad-focus_Daniel-iba-a-Bolivia.wav,0,,,77.8448,79.8604,0,1,1.484,,0,17,17,57,1,58,0,mexican,,,,,,,,,,,,,,,,,,,,,,,,,,,,,,,,,,,,,,,,,,,,,,,,,,,,,,,,
,,,,,,,,,6568b70075a2e3f099a181f2,Spanish,13 or older,"no, only English or Spanish",no,2026-01-21_17h09.08.321,empathy_intonation_perc_control,2024.2.4,MacIntel,57.14285714,6568b70075a2e3f099a181f2,69712dc693a3960bdb483245,69714e580bd551883f54fa8d,,,,,,,,,,,,./stim/wavs/cuban_match_interrogative-total-yn_Marta-abre-el-regalo.wav,1,,,79.861,81.9602,0,0,1.5687,,0,18,18,11,1,12,1,cuban,,,,,,,,,,,,,,,,,,,,,,,,,,,,,,,,,,,,,,,,,,,,,,,,,,,,,,,,
,,,,,,,,,6568b70075a2e3f099a181f2,Spanish,13 or older,"no, only English or Spanish",no,2026-01-21_17h09.08.321,empathy_intonation_perc_control,2024.2.4,MacIntel,57.14285714,6568b70075a2e3f099a181f2,69712dc693a3960bdb483245,69714e580bd551883f54fa8d,,,,,,,,,,,,./stim/wavs/mexican_match_declarative-broad-focus_Marta-abre-el-regalo.wav,0,,,81.9609,83.8606,0,1,1.377,,0,19,19,61,1,62,0,mexican,,,,,,,,,,,,,,,,,,,,,,,,,,,,,,,,,,,,,,,,,,,,,,,,,,,,,,,,
,,,,,,,,,6568b70075a2e3f099a181f2,Spanish,13 or older,"no, only English or Spanish",no,2026-01-21_17h09.08.321,empathy_intonation_perc_control,2024.2.4,MacIntel,57.14285714,6568b70075a2e3f099a181f2,69712dc693a3960bdb483245,69714e580bd551883f54fa8d,,,,,,,,,,,,./stim/wavs/cuban_mismatch_interrogative-total-yn_El-nino-oye-el-rio.wav,1,,,83.8611,85.8439,0,0,1.4492,,0,20,20,30,1,31,1,cuban,,,,,,,,,,,,,,,,,,,,,,,,,,,,,,,,,,,,,,,,,,,,,,,,,,,,,,,,
,,,,,,,,,6568b70075a2e3f099a181f2,Spanish,13 or older,"no, only English or Spanish",no,2026-01-21_17h09.08.321,empathy_intonation_perc_control,2024.2.4,MacIntel,57.14285714,6568b70075a2e3f099a181f2,69712dc693a3960bdb483245,69714e580bd551883f54fa8d,,,,,,,,,,,,./stim/wavs/mexican_mismatch_declarative-broad-focus_Mi-tia-odia-la-lluvia.wav,0,,,85.8444,87.8266,0,1,1.4578,,0,21,21,82,1,83,0,mexican,,,,,,,,,,,,,,,,,,,,,,,,,,,,,,,,,,,,,,,,,,,,,,,,,,,,,,,,
,,,,,,,,,6568b70075a2e3f099a181f2,Spanish,13 or older,"no, only English or Spanish",no,2026-01-21_17h09.08.321,empathy_intonation_perc_control,2024.2.4,MacIntel,57.14285714,6568b70075a2e3f099a181f2,69712dc693a3960bdb483245,69714e580bd551883f54fa8d,,,,,,,,,,,,./stim/wavs/cuban_match_interrogative-total-yn_Maria-bebe-el-vino.wav,1,,,87.827,89.9769,0,0,1.6393,,0,22,22,9,1,10,1,cuban,,,,,,,,,,,,,,,,,,,,,,,,,,,,,,,,,,,,,,,,,,,,,,,,,,,,,,,,
,,,,,,,,,6568b70075a2e3f099a181f2,Spanish,13 or older,"no, only English or Spanish",no,2026-01-21_17h09.08.321,empathy_intonation_perc_control,2024.2.4,MacIntel,57.14285714,6568b70075a2e3f099a181f2,69712dc693a3960bdb483245,69714e580bd551883f54fa8d,,,,,,,,,,,,./stim/wavs/cuban_match_declarative-broad-focus_Maria-bebe-el-vino.wav,0,,,89.9773,92.028,0,1,1.5385,,0,23,23,53,1,54,0,cuban,,,,,,,,,,,,,,,,,,,,,,,,,,,,,,,,,,,,,,,,,,,,,,,,,,,,,,,,
,,,,,,,,,6568b70075a2e3f099a181f2,Spanish,13 or older,"no, only English or Spanish",no,2026-01-21_17h09.08.321,empathy_intonation_perc_control,2024.2.4,MacIntel,57.14285714,6568b70075a2e3f099a181f2,69712dc693a3960bdb483245,69714e580bd551883f54fa8d,,,,,,,,,,,,./stim/wavs/castilian_mismatch_interrogative-total-yn_Mi-novio-viene-del-lago.wav,1,,,92.0285,94.3271,1,1,1.769,,0,24,24,27,1,28,0,castilian,,,,,,,,,,,,,,,,,,,,,,,,,,,,,,,,,,,,,,,,,,,,,,,,,,,,,,,,
,,,,,,,,,6568b70075a2e3f099a181f2,Spanish,13 or older,"no, only English or Spanish",no,2026-01-21_17h09.08.321,empathy_intonation_perc_control,2024.2.4,MacIntel,57.14285714,6568b70075a2e3f099a181f2,69712dc693a3960bdb483245,69714e580bd551883f54fa8d,,,,,,,,,,,,./stim/wavs/puertorican_mismatch_declarative-broad-focus_El-bebe-comia-muy-bien.wav,0,,,94.3277,96.5617,0,1,1.7215,,0,25,25,83,1,84,0,puertorican,,,,,,,,,,,,,,,,,,,,,,,,,,,,,,,,,,,,,,,,,,,,,,,,,,,,,,,,
,,,,,,,,,6568b70075a2e3f099a181f2,Spanish,13 or older,"no, only English or Spanish",no,2026-01-21_17h09.08.321,empathy_intonation_perc_control,2024.2.4,MacIntel,57.14285714,6568b70075a2e3f099a181f2,69712dc693a3960bdb483245,69714e580bd551883f54fa8d,,,,,,,,,,,,./stim/wavs/castilian_mismatch_declarative-broad-focus_La-nina-lava-el-plato.wav,0,,,96.5621,98.9113,0,1,1.8252,,0,26,26,70,1,71,0,castilian,,,,,,,,,,,,,,,,,,,,,,,,,,,,,,,,,,,,,,,,,,,,,,,,,,,,,,,,
,,,,,,,,,6568b70075a2e3f099a181f2,Spanish,13 or older,"no, only English or Spanish",no,2026-01-21_17h09.08.321,empathy_intonation_perc_control,2024.2.4,MacIntel,57.14285714,6568b70075a2e3f099a181f2,69712dc693a3960bdb483245,69714e580bd551883f54fa8d,,,,,,,,,,,,./stim/wavs/mexican_match_interrogative-total-yn_Ana-lleva-el-abrigo.wav,1,,,98.9118,101.1283,1,1,1.6834,,0,27,27,12,1,13,0,mexican,,,,,,,,,,,,,,,,,,,,,,,,,,,,,,,,,,,,,,,,,,,,,,,,,,,,,,,,
,,,,,,,,,6568b70075a2e3f099a181f2,Spanish,13 or older,"no, only English or Spanish",no,2026-01-21_17h09.08.321,empathy_intonation_perc_control,2024.2.4,MacIntel,57.14285714,6568b70075a2e3f099a181f2,69712dc693a3960bdb483245,69714e580bd551883f54fa8d,,,,,,,,,,,,./stim/wavs/mexican_mismatch_interrogative-total-yn_Mi-novio-viene-del-lago.wav,1,,,101.129,103.2788,1,1,1.6192,,0,28,28,37,1,38,0,mexican,,,,,,,,,,,,,,,,,,,,,,,,,,,,,,,,,,,,,,,,,,,,,,,,,,,,,,,,
,,,,,,,,,6568b70075a2e3f099a181f2,Spanish,13 or older,"no, only English or Spanish",no,2026-01-21_17h09.08.321,empathy_intonation_perc_control,2024.2.4,MacIntel,57.14285714,6568b70075a2e3f099a181f2,69712dc693a3960bdb483245,69714e580bd551883f54fa8d,,,,,,,,,,,,./stim/wavs/mexican_mismatch_interrogative-total-yn_Mi-tia-odia-la-lluvia.wav,1,,,103.2818,105.3777,1,1,1.5739,,0,29,29,38,1,39,0,mexican,,,,,,,,,,,,,,,,,,,,,,,,,,,,,,,,,,,,,,,,,,,,,,,,,,,,,,,,
,,,,,,,,,6568b70075a2e3f099a181f2,Spanish,13 or older,"no, only English or Spanish",no,2026-01-21_17h09.08.321,empathy_intonation_perc_control,2024.2.4,MacIntel,57.14285714,6568b70075a2e3f099a181f2,69712dc693a3960bdb483245,69714e580bd551883f54fa8d,,,,,,,,,,,,./stim/wavs/mexican_mismatch_declarative-broad-focus_El-hombre-mira-la-luna.wav,0,,,105.3781,107.4288,0,1,1.5328,,0,30,30,79,1,80,0,mexican,,,,,,,,,,,,,,,,,,,,,,,,,,,,,,,,,,,,,,,,,,,,,,,,,,,,,,,,
,,,,,,,,,6568b70075a2e3f099a181f2,Spanish,13 or older,"no, only English or Spanish",no,2026-01-21_17h09.08.321,empathy_intonation_perc_control,2024.2.4,MacIntel,57.14285714,6568b70075a2e3f099a181f2,69712dc693a3960bdb483245,69714e580bd551883f54fa8d,,,,,,,,,,,,./stim/wavs/puertorican_match_interrogative-total-yn_Ana-lleva-el-abrigo.wav,1,,,107.4292,109.7794,0,0,1.8162,,0,31,31,18,1,19,1,puertorican,,,,,,,,,,,,,,,,,,,,,,,,,,,,,,,,,,,,,,,,,,,,,,,,,,,,,,,,
,,,,,,,,,6568b70075a2e3f099a181f2,Spanish,13 or older,"no, only English or Spanish",no,2026-01-21_17h09.08.321,empathy_intonation_perc_control,2024.2.4,MacIntel,57.14285714,6568b70075a2e3f099a181f2,69712dc693a3960bdb483245,69714e580bd551883f54fa8d,,,,,,,,,,,,./stim/wavs/mexican_mismatch_interrogative-total-yn_El-hombre-mira-la-luna.wav,1,,,109.78,111.7453,1,1,1.4399,,0,32,32,34,1,35,0,mexican,,,,,,,,,,,,,,,,,,,,,,,,,,,,,,,,,,,,,,,,,,,,,,,,,,,,,,,,
,,,,,,,,,6568b70075a2e3f099a181f2,Spanish,13 or older,"no, only English or Spanish",no,2026-01-21_17h09.08.321,empathy_intonation_perc_control,2024.2.4,MacIntel,57.14285714,6568b70075a2e3f099a181f2,69712dc693a3960bdb483245,69714e580bd551883f54fa8d,,,,,,,,,,,,./stim/wavs/castilian_mismatch_interrogative-total-yn_Mi-tia-odia-la-lluvia.wav,1,,,111.7457,113.9285,1,1,1.6499,,0,33,33,28,1,29,0,castilian,,,,,,,,,,,,,,,,,,,,,,,,,,,,,,,,,,,,,,,,,,,,,,,,,,,,,,,,
,,,,,,,,,6568b70075a2e3f099a181f2,Spanish,13 or older,"no, only English or Spanish",no,2026-01-21_17h09.08.321,empathy_intonation_perc_control,2024.2.4,MacIntel,57.14285714,6568b70075a2e3f099a181f2,69712dc693a3960bdb483245,69714e580bd551883f54fa8d,,,,,,,,,,,,./stim/wavs/castilian_match_declarative-broad-focus_Manuela-vende-el-carro.wav,0,,,113.9292,116.2462,0,1,1.8065,,0,34,34,46,1,47,0,castilian,,,,,,,,,,,,,,,,,,,,,,,,,,,,,,,,,,,,,,,,,,,,,,,,,,,,,,,,
,,,,,,,,,6568b70075a2e3f099a181f2,Spanish,13 or older,"no, only English or Spanish",no,2026-01-21_17h09.08.321,empathy_intonation_perc_control,2024.2.4,MacIntel,57.14285714,6568b70075a2e3f099a181f2,69712dc693a3960bdb483245,69714e580bd551883f54fa8d,,,,,,,,,,,,./stim/wavs/cuban_match_declarative-broad-focus_Marta-abre-el-regalo.wav,0,,,116.2467,118.3131,0,1,1.5399,,0,35,35,55,1,56,0,cuban,,,,,,,,,,,,,,,,,,,,,,,,,,,,,,,,,,,,,,,,,,,,,,,,,,,,,,,,
,,,,,,,,,6568b70075a2e3f099a181f2,Spanish,13 or older,"no, only English or Spanish",no,2026-01-21_17h09.08.321,empathy_intonation_perc_control,2024.2.4,MacIntel,57.14285714,6568b70075a2e3f099a181f2,69712dc693a3960bdb483245,69714e580bd551883f54fa8d,,,,,,,,,,,,./stim/wavs/cuban_match_interrogative-total-yn_Daniel-iba-a-Bolivia.wav,1,,,118.3136,120.3801,0,0,1.5443,,0,36,36,7,1,8,1,cuban,,,,,,,,,,,,,,,,,,,,,,,,,,,,,,,,,,,,,,,,,,,,,,,,,,,,,,,,
,,,,,,,,,6568b70075a2e3f099a181f2,Spanish,13 or older,"no, only English or Spanish",no,2026-01-21_17h09.08.321,empathy_intonation_perc_control,2024.2.4,MacIntel,57.14285714,6568b70075a2e3f099a181f2,69712dc693a3960bdb483245,69714e580bd551883f54fa8d,,,,,,,,,,,,./stim/wavs/puertorican_match_declarative-broad-focus_Emilio-ama-la-marcha.wav,0,,,120.3808,122.3971,0,1,1.4871,,0,37,37,65,1,66,0,puertorican,,,,,,,,,,,,,,,,,,,,,,,,,,,,,,,,,,,,,,,,,,,,,,,,,,,,,,,,
,,,,,,,,,6568b70075a2e3f099a181f2,Spanish,13 or older,"no, only English or Spanish",no,2026-01-21_17h09.08.321,empathy_intonation_perc_control,2024.2.4,MacIntel,57.14285714,6568b70075a2e3f099a181f2,69712dc693a3960bdb483245,69714e580bd551883f54fa8d,,,,,,,,,,,,./stim/wavs/puertorican_match_interrogative-total-yn_Daniel-iba-a-Bolivia.wav,1,,,122.3976,124.5136,0,0,1.5884,,0,38,38,19,1,20,1,puertorican,,,,,,,,,,,,,,,,,,,,,,,,,,,,,,,,,,,,,,,,,,,,,,,,,,,,,,,,
,,,,,,,,,6568b70075a2e3f099a181f2,Spanish,13 or older,"no, only English or Spanish",no,2026-01-21_17h09.08.321,empathy_intonation_perc_control,2024.2.4,MacIntel,57.14285714,6568b70075a2e3f099a181f2,69712dc693a3960bdb483245,69714e580bd551883f54fa8d,,,,,,,,,,,,./stim/wavs/cuban_match_declarative-broad-focus_Manuela-vende-el-carro.wav,0,,,124.514,126.696,0,1,1.6562,,0,39,39,52,1,53,0,cuban,,,,,,,,,,,,,,,,,,,,,,,,,,,,,,,,,,,,,,,,,,,,,,,,,,,,,,,,
,,,,,,,,,6568b70075a2e3f099a181f2,Spanish,13 or older,"no, only English or Spanish",no,2026-01-21_17h09.08.321,empathy_intonation_perc_control,2024.2.4,MacIntel,57.14285714,6568b70075a2e3f099a181f2,69712dc693a3960bdb483245,69714e580bd551883f54fa8d,,,,,,,,,,,,./stim/wavs/cuban_mismatch_interrogative-total-yn_Mi-tia-odia-la-lluvia.wav,1,,,126.6965,128.8474,0,0,1.6275,,0,40,40,33,1,34,1,cuban,,,,,,,,,,,,,,,,,,,,,,,,,,,,,,,,,,,,,,,,,,,,,,,,,,,,,,,,
,,,,,,,,,6568b70075a2e3f099a181f2,Spanish,13 or older,"no, only English or Spanish",no,2026-01-21_17h09.08.321,empathy_intonation_perc_control,2024.2.4,MacIntel,57.14285714,6568b70075a2e3f099a181f2,69712dc693a3960bdb483245,69714e580bd551883f54fa8d,,,,,,,,,,,,./stim/wavs/cuban_mismatch_declarative-broad-focus_El-bebe-comia-muy-bien.wav,0,,,128.8481,130.7641,0,1,1.3881,,0,41,41,73,1,74,0,cuban,,,,,,,,,,,,,,,,,,,,,,,,,,,,,,,,,,,,,,,,,,,,,,,,,,,,,,,,
,,,,,,,,,6568b70075a2e3f099a181f2,Spanish,13 or older,"no, only English or Spanish",no,2026-01-21_17h09.08.321,empathy_intonation_perc_control,2024.2.4,MacIntel,57.14285714,6568b70075a2e3f099a181f2,69712dc693a3960bdb483245,69714e580bd551883f54fa8d,,,,,,,,,,,,./stim/wavs/cuban_match_declarative-broad-focus_Mariano-habla-del-tiempo.wav,0,,,130.7645,133.2309,0,1,1.94,,0,42,42,54,1,55,0,cuban,,,,,,,,,,,,,,,,,,,,,,,,,,,,,,,,,,,,,,,,,,,,,,,,,,,,,,,,
,,,,,,,,,6568b70075a2e3f099a181f2,Spanish,13 or older,"no, only English or Spanish",no,2026-01-21_17h09.08.321,empathy_intonation_perc_control,2024.2.4,MacIntel,57.14285714,6568b70075a2e3f099a181f2,69712dc693a3960bdb483245,69714e580bd551883f54fa8d,,,,,,,,,,,,./stim/wavs/mexican_match_interrogative-total-yn_David-leia-el-libro.wav,1,,,133.2314,135.4301,1,1,1.668,,0,43,43,14,1,15,0,mexican,,,,,,,,,,,,,,,,,,,,,,,,,,,,,,,,,,,,,,,,,,,,,,,,,,,,,,,,
,,,,,,,,,6568b70075a2e3f099a181f2,Spanish,13 or older,"no, only English or Spanish",no,2026-01-21_17h09.08.321,empathy_intonation_perc_control,2024.2.4,MacIntel,57.14285714,6568b70075a2e3f099a181f2,69712dc693a3960bdb483245,69714e580bd551883f54fa8d,,,,,,,,,,,,./stim/wavs/cuban_mismatch_declarative-broad-focus_Mi-tia-odia-la-lluvia.wav,0,,,135.4306,137.7303,0,1,1.7865,,0,44,44,77,1,78,0,cuban,,,,,,,,,,,,,,,,,,,,,,,,,,,,,,,,,,,,,,,,,,,,,,,,,,,,,,,,
,,,,,,,,,6568b70075a2e3f099a181f2,Spanish,13 or older,"no, only English or Spanish",no,2026-01-21_17h09.08.321,empathy_intonation_perc_control,2024.2.4,MacIntel,57.14285714,6568b70075a2e3f099a181f2,69712dc693a3960bdb483245,69714e580bd551883f54fa8d,,,,,,,,,,,,./stim/wavs/puertorican_match_declarative-broad-focus_David-leia-el-libro.wav,0,,,137.7311,139.7314,0,1,1.4656,,0,45,45,64,1,65,0,puertorican,,,,,,,,,,,,,,,,,,,,,,,,,,,,,,,,,,,,,,,,,,,,,,,,,,,,,,,,
,,,,,,,,,6568b70075a2e3f099a181f2,Spanish,13 or older,"no, only English or Spanish",no,2026-01-21_17h09.08.321,empathy_intonation_perc_control,2024.2.4,MacIntel,57.14285714,6568b70075a2e3f099a181f2,69712dc693a3960bdb483245,69714e580bd551883f54fa8d,,,,,,,,,,,,./stim/wavs/cuban_mismatch_declarative-broad-focus_La-nina-lava-el-plato.wav,0,,,139.7321,141.6979,0,1,1.4324,,0,46,46,75,1,76,0,cuban,,,,,,,,,,,,,,,,,,,,,,,,,,,,,,,,,,,,,,,,,,,,,,,,,,,,,,,,
,,,,,,,,,6568b70075a2e3f099a181f2,Spanish,13 or older,"no, only English or Spanish",no,2026-01-21_17h09.08.321,empathy_intonation_perc_control,2024.2.4,MacIntel,57.14285714,6568b70075a2e3f099a181f2,69712dc693a3960bdb483245,69714e580bd551883f54fa8d,,,,,,,,,,,,./stim/wavs/castilian_mismatch_declarative-broad-focus_El-nino-oye-el-rio.wav,0,,,141.6983,143.8482,0,1,1.6391,,0,47,47,68,1,69,0,castilian,,,,,,,,,,,,,,,,,,,,,,,,,,,,,,,,,,,,,,,,,,,,,,,,,,,,,,,,
,,,,,,,,,6568b70075a2e3f099a181f2,Spanish,13 or older,"no, only English or Spanish",no,2026-01-21_17h09.08.321,empathy_intonation_perc_control,2024.2.4,MacIntel,57.14285714,6568b70075a2e3f099a181f2,69712dc693a3960bdb483245,69714e580bd551883f54fa8d,,,,,,,,,,,,./stim/wavs/castilian_mismatch_declarative-broad-focus_Mi-novio-viene-del-lago.wav,0,,,143.8487,146.0152,0,1,1.6333,,0,48,48,71,1,72,0,castilian,,,,,,,,,,,,,,,,,,,,,,,,,,,,,,,,,,,,,,,,,,,,,,,,,,,,,,,,
,,,,,,,,,6568b70075a2e3f099a181f2,Spanish,13 or older,"no, only English or Spanish",no,2026-01-21_17h09.08.321,empathy_intonation_perc_control,2024.2.4,MacIntel,57.14285714,6568b70075a2e3f099a181f2,69712dc693a3960bdb483245,69714e580bd551883f54fa8d,,,,,,,,,,,,./stim/wavs/mexican_match_interrogative-total-yn_Marta-abre-el-regalo.wav,1,,,146.0158,148.0324,1,1,1.4936,,0,49,49,17,1,18,0,mexican,,,,,,,,,,,,,,,,,,,,,,,,,,,,,,,,,,,,,,,,,,,,,,,,,,,,,,,,
,,,,,,,,,6568b70075a2e3f099a181f2,Spanish,13 or older,"no, only English or Spanish",no,2026-01-21_17h09.08.321,empathy_intonation_perc_control,2024.2.4,MacIntel,57.14285714,6568b70075a2e3f099a181f2,69712dc693a3960bdb483245,69714e580bd551883f54fa8d,,,,,,,,,,,,./stim/wavs/castilian_match_declarative-broad-focus_Mariano-habla-del-tiempo.wav,0,,,148.033,150.365,0,1,1.8084,,0,50,50,48,1,49,0,castilian,,,,,,,,,,,,,,,,,,,,,,,,,,,,,,,,,,,,,,,,,,,,,,,,,,,,,,,,
,,,,,,,,,6568b70075a2e3f099a181f2,Spanish,13 or older,"no, only English or Spanish",no,2026-01-21_17h09.08.321,empathy_intonation_perc_control,2024.2.4,MacIntel,57.14285714,6568b70075a2e3f099a181f2,69712dc693a3960bdb483245,69714e580bd551883f54fa8d,,,,,,,,,,,,./stim/wavs/mexican_match_declarative-broad-focus_Emilio-ama-la-marcha.wav,0,,,150.3659,152.8158,0,1,1.9149,,0,51,51,59,1,60,0,mexican,,,,,,,,,,,,,,,,,,,,,,,,,,,,,,,,,,,,,,,,,,,,,,,,,,,,,,,,
,,,,,,,,,6568b70075a2e3f099a181f2,Spanish,13 or older,"no, only English or Spanish",no,2026-01-21_17h09.08.321,empathy_intonation_perc_control,2024.2.4,MacIntel,57.14285714,6568b70075a2e3f099a181f2,69712dc693a3960bdb483245,69714e580bd551883f54fa8d,,,,,,,,,,,,./stim/wavs/mexican_mismatch_declarative-broad-focus_Mi-novio-viene-del-lago.wav,0,,,152.8164,154.7824,0,1,1.4351,,0,52,52,81,1,82,0,mexican,,,,,,,,,,,,,,,,,,,,,,,,,,,,,,,,,,,,,,,,,,,,,,,,,,,,,,,,
,,,,,,,,,6568b70075a2e3f099a181f2,Spanish,13 or older,"no, only English or Spanish",no,2026-01-21_17h09.08.321,empathy_intonation_perc_control,2024.2.4,MacIntel,57.14285714,6568b70075a2e3f099a181f2,69712dc693a3960bdb483245,69714e580bd551883f54fa8d,,,,,,,,,,,,./stim/wavs/puertorican_mismatch_declarative-broad-focus_La-nina-lava-el-plato.wav,0,,,154.7833,156.6652,0,1,1.3591,,0,53,53,87,1,88,0,puertorican,,,,,,,,,,,,,,,,,,,,,,,,,,,,,,,,,,,,,,,,,,,,,,,,,,,,,,,,
,,,,,,,,,6568b70075a2e3f099a181f2,Spanish,13 or older,"no, only English or Spanish",no,2026-01-21_17h09.08.321,empathy_intonation_perc_control,2024.2.4,MacIntel,57.14285714,6568b70075a2e3f099a181f2,69712dc693a3960bdb483245,69714e580bd551883f54fa8d,,,,,,,,,,,,./stim/wavs/puertorican_match_interrogative-total-yn_Emilio-ama-la-marcha.wav,1,,,156.6657,158.9327,0,0,1.74,,0,54,54,21,1,22,1,puertorican,,,,,,,,,,,,,,,,,,,,,,,,,,,,,,,,,,,,,,,,,,,,,,,,,,,,,,,,
,,,,,,,,,6568b70075a2e3f099a181f2,Spanish,13 or older,"no, only English or Spanish",no,2026-01-21_17h09.08.321,empathy_intonation_perc_control,2024.2.4,MacIntel,57.14285714,6568b70075a2e3f099a181f2,69712dc693a3960bdb483245,69714e580bd551883f54fa8d,,,,,,,,,,,,./stim/wavs/puertorican_match_interrogative-total-yn_David-leia-el-libro.wav,1,,,158.9331,161.0326,0,0,1.5658,,0,55,55,20,1,21,1,puertorican,,,,,,,,,,,,,,,,,,,,,,,,,,,,,,,,,,,,,,,,,,,,,,,,,,,,,,,,
,,,,,,,,,6568b70075a2e3f099a181f2,Spanish,13 or older,"no, only English or Spanish",no,2026-01-21_17h09.08.321,empathy_intonation_perc_control,2024.2.4,MacIntel,57.14285714,6568b70075a2e3f099a181f2,69712dc693a3960bdb483245,69714e580bd551883f54fa8d,,,,,,,,,,,,./stim/wavs/cuban_mismatch_interrogative-total-yn_Mi-madre-come-la-fruta.wav,1,,,161.0332,163.0988,0,0,1.5405,,0,56,56,31,1,32,1,cuban,,,,,,,,,,,,,,,,,,,,,,,,,,,,,,,,,,,,,,,,,,,,,,,,,,,,,,,,
,,,,,,,,,6568b70075a2e3f099a181f2,Spanish,13 or older,"no, only English or Spanish",no,2026-01-21_17h09.08.321,empathy_intonation_perc_control,2024.2.4,MacIntel,57.14285714,6568b70075a2e3f099a181f2,69712dc693a3960bdb483245,69714e580bd551883f54fa8d,,,,,,,,,,,,./stim/wavs/puertorican_match_interrogative-total-yn_Maria-bebe-el-vino.wav,1,,,163.0992,165.1658,0,0,1.5602,,0,57,57,23,1,24,1,puertorican,,,,,,,,,,,,,,,,,,,,,,,,,,,,,,,,,,,,,,,,,,,,,,,,,,,,,,,,
,,,,,,,,,6568b70075a2e3f099a181f2,Spanish,13 or older,"no, only English or Spanish",no,2026-01-21_17h09.08.321,empathy_intonation_perc_control,2024.2.4,MacIntel,57.14285714,6568b70075a2e3f099a181f2,69712dc693a3960bdb483245,69714e580bd551883f54fa8d,,,,,,,,,,,,./stim/wavs/castilian_mismatch_declarative-broad-focus_La-maestra-vive-en-Paris.wav,0,,,165.1662,167.4491,0,1,1.767,,0,58,58,69,1,70,0,castilian,,,,,,,,,,,,,,,,,,,,,,,,,,,,,,,,,,,,,,,,,,,,,,,,,,,,,,,,
,,,,,,,,,6568b70075a2e3f099a181f2,Spanish,13 or older,"no, only English or Spanish",no,2026-01-21_17h09.08.321,empathy_intonation_perc_control,2024.2.4,MacIntel,57.14285714,6568b70075a2e3f099a181f2,69712dc693a3960bdb483245,69714e580bd551883f54fa8d,,,,,,,,,,,,./stim/wavs/cuban_match_interrogative-total-yn_Mariano-habla-del-tiempo.wav,1,,,167.4497,169.6996,0,0,1.7154,,0,59,59,10,1,11,1,cuban,,,,,,,,,,,,,,,,,,,,,,,,,,,,,,,,,,,,,,,,,,,,,,,,,,,,,,,,
,,,,,,,,,6568b70075a2e3f099a181f2,Spanish,13 or older,"no, only English or Spanish",no,2026-01-21_17h09.08.321,empathy_intonation_perc_control,2024.2.4,MacIntel,57.14285714,6568b70075a2e3f099a181f2,69712dc693a3960bdb483245,69714e580bd551883f54fa8d,,,,,,,,,,,,./stim/wavs/cuban_match_interrogative-total-yn_Manuela-vende-el-carro.wav,1,,,169.7002,171.7502,0,0,1.523,,0,60,60,8,1,9,1,cuban,,,,,,,,,,,,,,,,,,,,,,,,,,,,,,,,,,,,,,,,,,,,,,,,,,,,,,,,
,,,,,,,,,6568b70075a2e3f099a181f2,Spanish,13 or older,"no, only English or Spanish",no,2026-01-21_17h09.08.321,empathy_intonation_perc_control,2024.2.4,MacIntel,57.14285714,6568b70075a2e3f099a181f2,69712dc693a3960bdb483245,69714e580bd551883f54fa8d,,,,,,,,,,,,./stim/wavs/castilian_match_declarative-broad-focus_Marta-abre-el-regalo.wav,0,,,171.7507,173.9166,0,1,1.6372,,0,61,61,49,1,50,0,castilian,,,,,,,,,,,,,,,,,,,,,,,,,,,,,,,,,,,,,,,,,,,,,,,,,,,,,,,,
,,,,,,,,,6568b70075a2e3f099a181f2,Spanish,13 or older,"no, only English or Spanish",no,2026-01-21_17h09.08.321,empathy_intonation_perc_control,2024.2.4,MacIntel,57.14285714,6568b70075a2e3f099a181f2,69712dc693a3960bdb483245,69714e580bd551883f54fa8d,,,,,,,,,,,,./stim/wavs/castilian_mismatch_interrogative-total-yn_Mi-madre-come-la-fruta.wav,1,,,173.917,176.2172,0,0,1.777,,0,62,62,26,1,27,0,castilian,,,,,,,,,,,,,,,,,,,,,,,,,,,,,,,,,,,,,,,,,,,,,,,,,,,,,,,,
,,,,,,,,,6568b70075a2e3f099a181f2,Spanish,13 or older,"no, only English or Spanish",no,2026-01-21_17h09.08.321,empathy_intonation_perc_control,2024.2.4,MacIntel,57.14285714,6568b70075a2e3f099a181f2,69712dc693a3960bdb483245,69714e580bd551883f54fa8d,,,,,,,,,,,,./stim/wavs/cuban_match_declarative-broad-focus_Daniel-iba-a-Bolivia.wav,0,,,176.2177,179.4174,0,1,2.6744,,0,63,63,51,1,52,0,cuban,,,,,,,,,,,,,,,,,,,,,,,,,,,,,,,,,,,,,,,,,,,,,,,,,,,,,,,,
,,,,,,,,,6568b70075a2e3f099a181f2,Spanish,13 or older,"no, only English or Spanish",no,2026-01-21_17h09.08.321,empathy_intonation_perc_control,2024.2.4,MacIntel,57.14285714,6568b70075a2e3f099a181f2,69712dc693a3960bdb483245,69714e580bd551883f54fa8d,,,,,,,,,,,,./stim/wavs/cuban_match_declarative-broad-focus_Ana-lleva-el-abrigo.wav,0,,,179.4178,181.3675,0,1,1.4178,,0,64,64,50,1,51,0,cuban,,,,,,,,,,,,,,,,,,,,,,,,,,,,,,,,,,,,,,,,,,,,,,,,,,,,,,,,
,,,,,,,,,6568b70075a2e3f099a181f2,Spanish,13 or older,"no, only English or Spanish",no,2026-01-21_17h09.08.321,empathy_intonation_perc_control,2024.2.4,MacIntel,57.14285714,6568b70075a2e3f099a181f2,69712dc693a3960bdb483245,69714e580bd551883f54fa8d,,,,,,,,,,,,./stim/wavs/mexican_match_declarative-broad-focus_David-leia-el-libro.wav,0,,,181.3681,183.3337,0,1,1.4429,,0,65,65,58,1,59,0,mexican,,,,,,,,,,,,,,,,,,,,,,,,,,,,,,,,,,,,,,,,,,,,,,,,,,,,,,,,
,,,,,,,,,6568b70075a2e3f099a181f2,Spanish,13 or older,"no, only English or Spanish",no,2026-01-21_17h09.08.321,empathy_intonation_perc_control,2024.2.4,MacIntel,57.14285714,6568b70075a2e3f099a181f2,69712dc693a3960bdb483245,69714e580bd551883f54fa8d,,,,,,,,,,,,./stim/wavs/castilian_match_interrogative-total-yn_David-leia-el-libro.wav,1,,,183.3342,185.4834,1,1,1.6346,,0,66,66,0,1,1,0,castilian,,,,,,,,,,,,,,,,,,,,,,,,,,,,,,,,,,,,,,,,,,,,,,,,,,,,,,,,
,,,,,,,,,6568b70075a2e3f099a181f2,Spanish,13 or older,"no, only English or Spanish",no,2026-01-21_17h09.08.321,empathy_intonation_perc_control,2024.2.4,MacIntel,57.14285714,6568b70075a2e3f099a181f2,69712dc693a3960bdb483245,69714e580bd551883f54fa8d,,,,,,,,,,,,./stim/wavs/castilian_match_interrogative-total-yn_Maria-bebe-el-vino.wav,1,,,185.4841,187.5507,1,1,1.5481,,0,67,67,3,1,4,0,castilian,,,,,,,,,,,,,,,,,,,,,,,,,,,,,,,,,,,,,,,,,,,,,,,,,,,,,,,,
,,,,,,,,,6568b70075a2e3f099a181f2,Spanish,13 or older,"no, only English or Spanish",no,2026-01-21_17h09.08.321,empathy_intonation_perc_control,2024.2.4,MacIntel,57.14285714,6568b70075a2e3f099a181f2,69712dc693a3960bdb483245,69714e580bd551883f54fa8d,,,,,,,,,,,,./stim/wavs/mexican_match_interrogative-total-yn_Emilio-ama-la-marcha.wav,1,,,187.5512,189.6016,1,1,1.5178,,0,68,68,15,1,16,0,mexican,,,,,,,,,,,,,,,,,,,,,,,,,,,,,,,,,,,,,,,,,,,,,,,,,,,,,,,,
,,,,,,,,,6568b70075a2e3f099a181f2,Spanish,13 or older,"no, only English or Spanish",no,2026-01-21_17h09.08.321,empathy_intonation_perc_control,2024.2.4,MacIntel,57.14285714,6568b70075a2e3f099a181f2,69712dc693a3960bdb483245,69714e580bd551883f54fa8d,,,,,,,,,,,,./stim/wavs/puertorican_mismatch_declarative-broad-focus_La-maestra-vive-en-Paris.wav,0,,,189.6021,191.6672,0,1,1.5383,,0,69,69,86,1,87,0,puertorican,,,,,,,,,,,,,,,,,,,,,,,,,,,,,,,,,,,,,,,,,,,,,,,,,,,,,,,,
,,,,,,,,,6568b70075a2e3f099a181f2,Spanish,13 or older,"no, only English or Spanish",no,2026-01-21_17h09.08.321,empathy_intonation_perc_control,2024.2.4,MacIntel,57.14285714,6568b70075a2e3f099a181f2,69712dc693a3960bdb483245,69714e580bd551883f54fa8d,,,,,,,,,,,,./stim/wavs/mexican_mismatch_declarative-broad-focus_El-bebe-comia-muy-bien.wav,0,,,191.6675,194.1507,0,1,1.9579,,0,70,70,78,1,79,0,mexican,,,,,,,,,,,,,,,,,,,,,,,,,,,,,,,,,,,,,,,,,,,,,,,,,,,,,,,,
,,,,,,,,,6568b70075a2e3f099a181f2,Spanish,13 or older,"no, only English or Spanish",no,2026-01-21_17h09.08.321,empathy_intonation_perc_control,2024.2.4,MacIntel,57.14285714,6568b70075a2e3f099a181f2,69712dc693a3960bdb483245,69714e580bd551883f54fa8d,,,,,,,,,,,,./stim/wavs/puertorican_mismatch_interrogative-total-yn_Mi-madre-come-la-fruta.wav,1,,,194.151,196.2344,0,0,1.5779,,0,71,71,43,1,44,1,puertorican,,,,,,,,,,,,,,,,,,,,,,,,,,,,,,,,,,,,,,,,,,,,,,,,,,,,,,,,
,,,,,,,,,6568b70075a2e3f099a181f2,Spanish,13 or older,"no, only English or Spanish",no,2026-01-21_17h09.08.321,empathy_intonation_perc_control,2024.2.4,MacIntel,57.14285714,6568b70075a2e3f099a181f2,69712dc693a3960bdb483245,69714e580bd551883f54fa8d,,,,,,,,,,,,./stim/wavs/castilian_match_declarative-broad-focus_Emilio-ama-la-marcha.wav,0,,,196.2348,198.352,0,1,1.6066,,0,72,72,45,1,46,0,castilian,,,,,,,,,,,,,,,,,,,,,,,,,,,,,,,,,,,,,,,,,,,,,,,,,,,,,,,,
,,,,,,,,,6568b70075a2e3f099a181f2,Spanish,13 or older,"no, only English or Spanish",no,2026-01-21_17h09.08.321,empathy_intonation_perc_control,2024.2.4,MacIntel,57.14285714,6568b70075a2e3f099a181f2,69712dc693a3960bdb483245,69714e580bd551883f54fa8d,,,,,,,,,,,,./stim/wavs/mexican_match_declarative-broad-focus_Mariano-habla-del-tiempo.wav,0,,,198.3524,200.3845,0,1,1.5087,,0,73,73,60,1,61,0,mexican,,,,,,,,,,,,,,,,,,,,,,,,,,,,,,,,,,,,,,,,,,,,,,,,,,,,,,,,
,,,,,,,,,6568b70075a2e3f099a181f2,Spanish,13 or older,"no, only English or Spanish",no,2026-01-21_17h09.08.321,empathy_intonation_perc_control,2024.2.4,MacIntel,57.14285714,6568b70075a2e3f099a181f2,69712dc693a3960bdb483245,69714e580bd551883f54fa8d,,,,,,,,,,,,./stim/wavs/puertorican_mismatch_interrogative-total-yn_La-maestra-vive-en-Paris.wav,1,,,200.3852,202.5527,0,0,1.6453,,0,74,74,41,1,42,1,puertorican,,,,,,,,,,,,,,,,,,,,,,,,,,,,,,,,,,,,,,,,,,,,,,,,,,,,,,,,
,,,,,,,,,6568b70075a2e3f099a181f2,Spanish,13 or older,"no, only English or Spanish",no,2026-01-21_17h09.08.321,empathy_intonation_perc_control,2024.2.4,MacIntel,57.14285714,6568b70075a2e3f099a181f2,69712dc693a3960bdb483245,69714e580bd551883f54fa8d,,,,,,,,,,,,./stim/wavs/puertorican_mismatch_interrogative-total-yn_La-nina-lava-el-plato.wav,1,,,202.5533,204.6846,0,0,1.6059,,0,75,75,42,1,43,1,puertorican,,,,,,,,,,,,,,,,,,,,,,,,,,,,,,,,,,,,,,,,,,,,,,,,,,,,,,,,
,,,,,,,,,6568b70075a2e3f099a181f2,Spanish,13 or older,"no, only English or Spanish",no,2026-01-21_17h09.08.321,empathy_intonation_perc_control,2024.2.4,MacIntel,57.14285714,6568b70075a2e3f099a181f2,69712dc693a3960bdb483245,69714e580bd551883f54fa8d,,,,,,,,,,,,./stim/wavs/castilian_match_declarative-broad-focus_David-leia-el-libro.wav,0,,,204.685,206.8685,0,1,1.6584,,0,76,76,44,1,45,0,castilian,,,,,,,,,,,,,,,,,,,,,,,,,,,,,,,,,,,,,,,,,,,,,,,,,,,,,,,,
,,,,,,,,,6568b70075a2e3f099a181f2,Spanish,13 or older,"no, only English or Spanish",no,2026-01-21_17h09.08.321,empathy_intonation_perc_control,2024.2.4,MacIntel,57.14285714,6568b70075a2e3f099a181f2,69712dc693a3960bdb483245,69714e580bd551883f54fa8d,,,,,,,,,,,,./stim/wavs/castilian_match_interrogative-total-yn_Emilio-ama-la-marcha.wav,1,,,206.8688,209.0023,1,1,1.6011,,0,77,77,1,1,2,0,castilian,,,,,,,,,,,,,,,,,,,,,,,,,,,,,,,,,,,,,,,,,,,,,,,,,,,,,,,,
,,,,,,,,,6568b70075a2e3f099a181f2,Spanish,13 or older,"no, only English or Spanish",no,2026-01-21_17h09.08.321,empathy_intonation_perc_control,2024.2.4,MacIntel,57.14285714,6568b70075a2e3f099a181f2,69712dc693a3960bdb483245,69714e580bd551883f54fa8d,,,,,,,,,,,,./stim/wavs/puertorican_mismatch_declarative-broad-focus_El-hombre-mira-la-luna.wav,0,,,209.0029,211.1027,0,1,1.5767,,0,78,78,84,1,85,0,puertorican,,,,,,,,,,,,,,,,,,,,,,,,,,,,,,,,,,,,,,,,,,,,,,,,,,,,,,,,
,,,,,,,,,6568b70075a2e3f099a181f2,Spanish,13 or older,"no, only English or Spanish",no,2026-01-21_17h09.08.321,empathy_intonation_perc_control,2024.2.4,MacIntel,57.14285714,6568b70075a2e3f099a181f2,69712dc693a3960bdb483245,69714e580bd551883f54fa8d,,,,,,,,,,,,./stim/wavs/puertorican_match_declarative-broad-focus_Manuela-vende-el-carro.wav,0,,,211.1034,213.1529,0,1,1.5204,,0,79,79,66,1,67,0,puertorican,,,,,,,,,,,,,,,,,,,,,,,,,,,,,,,,,,,,,,,,,,,,,,,,,,,,,,,,
,,,,,,,,,6568b70075a2e3f099a181f2,Spanish,13 or older,"no, only English or Spanish",no,2026-01-21_17h09.08.321,empathy_intonation_perc_control,2024.2.4,MacIntel,57.14285714,6568b70075a2e3f099a181f2,69712dc693a3960bdb483245,69714e580bd551883f54fa8d,,,,,,,,,,,,./stim/wavs/cuban_mismatch_interrogative-total-yn_Mi-novio-viene-del-lago.wav,1,,,213.1535,215.304,0,0,1.6289,,0,80,80,32,1,33,1,cuban,,,,,,,,,,,,,,,,,,,,,,,,,,,,,,,,,,,,,,,,,,,,,,,,,,,,,,,,
,,,,,,,,,6568b70075a2e3f099a181f2,Spanish,13 or older,"no, only English or Spanish",no,2026-01-21_17h09.08.321,empathy_intonation_perc_control,2024.2.4,MacIntel,57.14285714,6568b70075a2e3f099a181f2,69712dc693a3960bdb483245,69714e580bd551883f54fa8d,,,,,,,,,,,,./stim/wavs/castilian_match_declarative-broad-focus_Maria-bebe-el-vino.wav,0,,,215.3046,217.4025,0,1,1.5755,,0,81,81,47,1,48,0,castilian,,,,,,,,,,,,,,,,,,,,,,,,,,,,,,,,,,,,,,,,,,,,,,,,,,,,,,,,
,,,,,,,,,6568b70075a2e3f099a181f2,Spanish,13 or older,"no, only English or Spanish",no,2026-01-21_17h09.08.321,empathy_intonation_perc_control,2024.2.4,MacIntel,57.14285714,6568b70075a2e3f099a181f2,69712dc693a3960bdb483245,69714e580bd551883f54fa8d,,,,,,,,,,,,./stim/wavs/mexican_match_interrogative-total-yn_Daniel-iba-a-Bolivia.wav,1,,,217.4029,219.6369,1,1,1.7239,,0,82,82,13,1,14,0,mexican,,,,,,,,,,,,,,,,,,,,,,,,,,,,,,,,,,,,,,,,,,,,,,,,,,,,,,,,
,,,,,,,,,6568b70075a2e3f099a181f2,Spanish,13 or older,"no, only English or Spanish",no,2026-01-21_17h09.08.321,empathy_intonation_perc_control,2024.2.4,MacIntel,57.14285714,6568b70075a2e3f099a181f2,69712dc693a3960bdb483245,69714e580bd551883f54fa8d,,,,,,,,,,,,./stim/wavs/cuban_mismatch_interrogative-total-yn_El-hombre-mira-la-luna.wav,1,,,219.6373,221.6534,0,0,1.4914,,0,83,83,29,1,30,1,cuban,,,,,,,,,,,,,,,,,,,,,,,,,,,,,,,,,,,,,,,,,,,,,,,,,,,,,,,,
,,,,,,,,,6568b70075a2e3f099a181f2,Spanish,13 or older,"no, only English or Spanish",no,2026-01-21_17h09.08.321,empathy_intonation_perc_control,2024.2.4,MacIntel,57.14285714,6568b70075a2e3f099a181f2,69712dc693a3960bdb483245,69714e580bd551883f54fa8d,,,,,,,,,,,,./stim/wavs/puertorican_mismatch_interrogative-total-yn_El-hombre-mira-la-luna.wav,1,,,221.6538,223.9868,1,1,1.8104,,0,84,84,39,1,40,1,puertorican,,,,,,,,,,,,,,,,,,,,,,,,,,,,,,,,,,,,,,,,,,,,,,,,,,,,,,,,
,,,,,,,,,6568b70075a2e3f099a181f2,Spanish,13 or older,"no, only English or Spanish",no,2026-01-21_17h09.08.321,empathy_intonation_perc_control,2024.2.4,MacIntel,57.14285714,6568b70075a2e3f099a181f2,69712dc693a3960bdb483245,69714e580bd551883f54fa8d,,,,,,,,,,,,./stim/wavs/puertorican_match_declarative-broad-focus_Maria-bebe-el-vino.wav,0,,,223.9873,226.1208,0,1,1.6021,,0,85,85,67,1,68,0,puertorican,,,,,,,,,,,,,,,,,,,,,,,,,,,,,,,,,,,,,,,,,,,,,,,,,,,,,,,,
,,,,,,,,,6568b70075a2e3f099a181f2,Spanish,13 or older,"no, only English or Spanish",no,2026-01-21_17h09.08.321,empathy_intonation_perc_control,2024.2.4,MacIntel,57.14285714,6568b70075a2e3f099a181f2,69712dc693a3960bdb483245,69714e580bd551883f54fa8d,,,,,,,,,,,,./stim/wavs/castilian_mismatch_interrogative-total-yn_La-nina-lava-el-plato.wav,1,,,226.1215,228.353,1,1,1.7008,,0,86,86,25,1,26,0,castilian,,,,,,,,,,,,,,,,,,,,,,,,,,,,,,,,,,,,,,,,,,,,,,,,,,,,,,,,
,,,,,,,,,6568b70075a2e3f099a181f2,Spanish,13 or older,"no, only English or Spanish",no,2026-01-21_17h09.08.321,empathy_intonation_perc_control,2024.2.4,MacIntel,57.14285714,6568b70075a2e3f099a181f2,69712dc693a3960bdb483245,69714e580bd551883f54fa8d,,,,,,,,,,,,./stim/wavs/puertorican_match_declarative-broad-focus_Daniel-iba-a-Bolivia.wav,0,,,228.3533,230.3368,0,1,1.4752,,0,87,87,63,1,64,0,puertorican,,,,,,,,,,,,,,,,,,,,,,,,,,,,,,,,,,,,,,,,,,,,,,,,,,,,,,,,
,,,,,,,"Great! Now we will move on. The next task consists of about 60 trials, in each of which you will see a string of letters. 
  
  Your task is to decide whether this is a real Spanish word or not.", (press the spacebar to continue),6568b70075a2e3f099a181f2,Spanish,13 or older,"no, only English or Spanish",no,2026-01-21_17h09.08.321,empathy_intonation_perc_control,2024.2.4,MacIntel,57.14285714,6568b70075a2e3f099a181f2,69712dc693a3960bdb483245,69714e580bd551883f54fa8d,,,,,,,,,,,,,,,,,,,,,,,,,,,,,,230.3423,238.7043,0,0,0,0,1,,,,,,,,,,,,,,,,,,,,,,,,,,,,,,,,,,,,,,,,,,,,,,,,,
,,,,,,,"If you think it is an existing Spanish word, you type '1' (for 'REAL'), and if you think it is not an existing Spanish word, you type '0' (for 'FAKE').", (press the spacebar to continue),6568b70075a2e3f099a181f2,Spanish,13 or older,"no, only English or Spanish",no,2026-01-21_17h09.08.321,empathy_intonation_perc_control,2024.2.4,MacIntel,57.14285714,6568b70075a2e3f099a181f2,69712dc693a3960bdb483245,69714e580bd551883f54fa8d,,,,,,,,,,,,,,,,,,,,,,,,,,,,,,238.7061,242.9208,0,1,1,1,1,,,,,,,,,,,,,,,,,,,,,,,,,,,,,,,,,,,,,,,,,,,,,,,,,
,,,,,,,"If you are sure that the word exists, even though you don’t know its exact meaning, you may still respond '1' (REAL). 
  
  But if you are not sure if it is an existing word, you should respond '0' (FAKE).
  
  Let's do a practice round...", (press the spacebar to continue),6568b70075a2e3f099a181f2,Spanish,13 or older,"no, only English or Spanish",no,2026-01-21_17h09.08.321,empathy_intonation_perc_control,2024.2.4,MacIntel,57.14285714,6568b70075a2e3f099a181f2,69712dc693a3960bdb483245,69714e580bd551883f54fa8d,,,,,,,,,,,,,,,,,,,,,,,,,,,,,,242.9223,250.1058,0,2,2,2,1,,,,,,,,,,,,,,,,,,,,,,,,,,,,,,,,,,,,,,,,,,,,,,,,,
,,,,,,,,,6568b70075a2e3f099a181f2,Spanish,13 or older,"no, only English or Spanish",no,2026-01-21_17h09.08.321,empathy_intonation_perc_control,2024.2.4,MacIntel,57.14285714,6568b70075a2e3f099a181f2,69712dc693a3960bdb483245,69714e580bd551883f54fa8d,,,,,,,,,,,,,0,,,,,,,,,,,,,,,,,,,,,,,,250.1134,253.1227,0,1,2.4863,,253.1229,254.1229,0,0,0,0,1,0,depiste,REAL,FAKE,,,,,,,,,,,,,,,,,,,,,,,,,,,,,,,,
,,,,,,,,,6568b70075a2e3f099a181f2,Spanish,13 or older,"no, only English or Spanish",no,2026-01-21_17h09.08.321,empathy_intonation_perc_control,2024.2.4,MacIntel,57.14285714,6568b70075a2e3f099a181f2,69712dc693a3960bdb483245,69714e580bd551883f54fa8d,,,,,,,,,,,,,1,,,,,,,,,,,,,,,,,,,,,,,,254.1246,256.0216,1,1,1.3701,,256.0216,257.0222,0,1,1,1,1,0,sí,REAL,FAKE,,,,,,,,,,,,,,,,,,,,,,,,,,,,,,,,
,,,,,,,,,6568b70075a2e3f099a181f2,Spanish,13 or older,"no, only English or Spanish",no,2026-01-21_17h09.08.321,empathy_intonation_perc_control,2024.2.4,MacIntel,57.14285714,6568b70075a2e3f099a181f2,69712dc693a3960bdb483245,69714e580bd551883f54fa8d,,,,,,,,,,,,,0,,,,,,,,,,,,,,,,,,,,,,,,257.0232,258.8898,0,1,1.3506,,258.8899,259.8889,0,2,2,2,1,0,coné,REAL,FAKE,,,,,,,,,,,,,,,,,,,,,,,,,,,,,,,,
,,,,,,,,,6568b70075a2e3f099a181f2,Spanish,13 or older,"no, only English or Spanish",no,2026-01-21_17h09.08.321,empathy_intonation_perc_control,2024.2.4,MacIntel,57.14285714,6568b70075a2e3f099a181f2,69712dc693a3960bdb483245,69714e580bd551883f54fa8d,,,,,,,,,,,,,0,,,,,,,,,,,,,,,,,,,,,,,,259.8899,261.5734,1,0,1.1735,,261.574,262.5732,0,3,3,3,1,0,calpar,REAL,FAKE,,,,,,,,,,,,,,,,,,,,,,,,,,,,,,,,
,,,,,,,,,6568b70075a2e3f099a181f2,Spanish,13 or older,"no, only English or Spanish",no,2026-01-21_17h09.08.321,empathy_intonation_perc_control,2024.2.4,MacIntel,57.14285714,6568b70075a2e3f099a181f2,69712dc693a3960bdb483245,69714e580bd551883f54fa8d,,,,,,,,,,,,,0,,,,,,,,,,,,,,,,,,,,,,,,262.5753,264.223,0,1,1.1126,,264.2234,265.2234,0,4,4,4,1,0,joten,REAL,FAKE,,,,,,,,,,,,,,,,,,,,,,,,,,,,,,,,
,,,,,,,,,6568b70075a2e3f099a181f2,Spanish,13 or older,"no, only English or Spanish",no,2026-01-21_17h09.08.321,empathy_intonation_perc_control,2024.2.4,MacIntel,57.14285714,6568b70075a2e3f099a181f2,69712dc693a3960bdb483245,69714e580bd551883f54fa8d,,,,,,,,,,,,,1,,,,,,,,,,,,,,,,,,,,,,,,265.2244,267.8235,0,0,2.0696,,267.824,268.8237,0,5,5,5,1,0,sacapuntas,REAL,FAKE,,,,,,,,,,,,,,,,,,,,,,,,,,,,,,,,
,,,,,,,,,6568b70075a2e3f099a181f2,Spanish,13 or older,"no, only English or Spanish",no,2026-01-21_17h09.08.321,empathy_intonation_perc_control,2024.2.4,MacIntel,57.14285714,6568b70075a2e3f099a181f2,69712dc693a3960bdb483245,69714e580bd551883f54fa8d,,,,,,,,,,,,,0,,,,,,,,,,,,,,,,,,,,,,,,268.8248,270.3905,0,1,1.0357,,270.391,271.3905,0,6,6,6,1,0,priba,REAL,FAKE,,,,,,,,,,,,,,,,,,,,,,,,,,,,,,,,
,,,,,,,,,6568b70075a2e3f099a181f2,Spanish,13 or older,"no, only English or Spanish",no,2026-01-21_17h09.08.321,empathy_intonation_perc_control,2024.2.4,MacIntel,57.14285714,6568b70075a2e3f099a181f2,69712dc693a3960bdb483245,69714e580bd551883f54fa8d,,,,,,,,,,,,,0,,,,,,,,,,,,,,,,,,,,,,,,271.3917,272.9573,0,1,1.0391,,272.9573,273.9571,0,7,7,7,1,0,pelasula,REAL,FAKE,,,,,,,,,,,,,,,,,,,,,,,,,,,,,,,,
,,,,,,,,,6568b70075a2e3f099a181f2,Spanish,13 or older,"no, only English or Spanish",no,2026-01-21_17h09.08.321,empathy_intonation_perc_control,2024.2.4,MacIntel,57.14285714,6568b70075a2e3f099a181f2,69712dc693a3960bdb483245,69714e580bd551883f54fa8d,,,,,,,,,,,,,1,,,,,,,,,,,,,,,,,,,,,,,,273.9582,275.4074,1,1,0.9165,,275.4075,276.4065,0,8,8,8,1,0,bien,REAL,FAKE,,,,,,,,,,,,,,,,,,,,,,,,,,,,,,,,
,,,,,,,,,6568b70075a2e3f099a181f2,Spanish,13 or older,"no, only English or Spanish",no,2026-01-21_17h09.08.321,empathy_intonation_perc_control,2024.2.4,MacIntel,57.14285714,6568b70075a2e3f099a181f2,69712dc693a3960bdb483245,69714e580bd551883f54fa8d,,,,,,,,,,,,,1,,,,,,,,,,,,,,,,,,,,,,,,276.4075,277.6741,1,1,0.7518,,277.6741,278.6743,0,9,9,9,1,0,casa,REAL,FAKE,,,,,,,,,,,,,,,,,,,,,,,,,,,,,,,,
,,,,,,,,,6568b70075a2e3f099a181f2,Spanish,13 or older,"no, only English or Spanish",no,2026-01-21_17h09.08.321,empathy_intonation_perc_control,2024.2.4,MacIntel,57.14285714,6568b70075a2e3f099a181f2,69712dc693a3960bdb483245,69714e580bd551883f54fa8d,,,,,,,,,,,,,0,,,,,,,,,,,,,,,,,,,,,,,,278.6754,280.5572,0,1,1.3515,,280.5572,281.5578,0,10,10,10,1,0,lejo,REAL,FAKE,,,,,,,,,,,,,,,,,,,,,,,,,,,,,,,,
,,,,,,,,,6568b70075a2e3f099a181f2,Spanish,13 or older,"no, only English or Spanish",no,2026-01-21_17h09.08.321,empathy_intonation_perc_control,2024.2.4,MacIntel,57.14285714,6568b70075a2e3f099a181f2,69712dc693a3960bdb483245,69714e580bd551883f54fa8d,,,,,,,,,,,,,0,,,,,,,,,,,,,,,,,,,,,,,,281.5588,284.1572,0,1,2.0718,,284.1573,285.1581,0,11,11,11,1,0,pretantas,REAL,FAKE,,,,,,,,,,,,,,,,,,,,,,,,,,,,,,,,
,,,,,,,,,6568b70075a2e3f099a181f2,Spanish,13 or older,"no, only English or Spanish",no,2026-01-21_17h09.08.321,empathy_intonation_perc_control,2024.2.4,MacIntel,57.14285714,6568b70075a2e3f099a181f2,69712dc693a3960bdb483245,69714e580bd551883f54fa8d,,,,,,,,,,,,,,,,,,,,,,,,,,,,,,,,,,,,,,,,,,,,,,,,,,,,,,285.1585,286.9584,,,,,,,,,,,,,,,,,,,,,,,,,,,,,,
,,,,,,,,,6568b70075a2e3f099a181f2,Spanish,13 or older,"no, only English or Spanish",no,2026-01-21_17h09.08.321,empathy_intonation_perc_control,2024.2.4,MacIntel,57.14285714,6568b70075a2e3f099a181f2,69712dc693a3960bdb483245,69714e580bd551883f54fa8d,,,,,,,,,,,,,0,,,,,,,,,,,,,,,,,,,,,,,,,,,,,,,,,,,,,19,brecedad,,,,,286.9691,288.5081,0,1,1.0235,,0,0,0,18,1,REAL,FAKE,,,,,,,,,,,,,,,,,
,,,,,,,,,6568b70075a2e3f099a181f2,Spanish,13 or older,"no, only English or Spanish",no,2026-01-21_17h09.08.321,empathy_intonation_perc_control,2024.2.4,MacIntel,57.14285714,6568b70075a2e3f099a181f2,69712dc693a3960bdb483245,69714e580bd551883f54fa8d,,,,,,,,,,,,,1,,,,,,,,,,,,,,,,,,,,,,,,,,,,,,,,,,,,,67,cabello,,,,,288.509,290.0085,1,1,0.9761,,0,1,1,66,1,REAL,FAKE,,,,,,,,,,,,,,,,,
,,,,,,,,,6568b70075a2e3f099a181f2,Spanish,13 or older,"no, only English or Spanish",no,2026-01-21_17h09.08.321,empathy_intonation_perc_control,2024.2.4,MacIntel,57.14285714,6568b70075a2e3f099a181f2,69712dc693a3960bdb483245,69714e580bd551883f54fa8d,,,,,,,,,,,,,1,,,,,,,,,,,,,,,,,,,,,,,,,,,,,,,,,,,,,69,engatusar,,,,,290.0099,291.9077,0,0,1.3685,,0,2,2,68,1,REAL,FAKE,,,,,,,,,,,,,,,,,
,,,,,,,,,6568b70075a2e3f099a181f2,Spanish,13 or older,"no, only English or Spanish",no,2026-01-21_17h09.08.321,empathy_intonation_perc_control,2024.2.4,MacIntel,57.14285714,6568b70075a2e3f099a181f2,69712dc693a3960bdb483245,69714e580bd551883f54fa8d,,,,,,,,,,,,,1,,,,,,,,,,,,,,,,,,,,,,,,,,,,,,,,,,,,,34,aviso,,,,,291.9085,293.3588,1,1,0.9408,,0,3,3,33,1,REAL,FAKE,,,,,,,,,,,,,,,,,
,,,,,,,,,6568b70075a2e3f099a181f2,Spanish,13 or older,"no, only English or Spanish",no,2026-01-21_17h09.08.321,empathy_intonation_perc_control,2024.2.4,MacIntel,57.14285714,6568b70075a2e3f099a181f2,69712dc693a3960bdb483245,69714e580bd551883f54fa8d,,,,,,,,,,,,,1,,,,,,,,,,,,,,,,,,,,,,,,,,,,,,,,,,,,,37,granuja,,,,,293.3601,295.3422,0,0,1.4451,,0,4,4,36,1,REAL,FAKE,,,,,,,,,,,,,,,,,
,,,,,,,,,6568b70075a2e3f099a181f2,Spanish,13 or older,"no, only English or Spanish",no,2026-01-21_17h09.08.321,empathy_intonation_perc_control,2024.2.4,MacIntel,57.14285714,6568b70075a2e3f099a181f2,69712dc693a3960bdb483245,69714e580bd551883f54fa8d,,,,,,,,,,,,,1,,,,,,,,,,,,,,,,,,,,,,,,,,,,,,,,,,,,,91,click the 1 key.,,,,,295.3434,297.2583,1,1,1.3783,,0,5,5,90,1,REAL,FAKE,,,,,,,,,,,,,,,,,
,,,,,,,,,6568b70075a2e3f099a181f2,Spanish,13 or older,"no, only English or Spanish",no,2026-01-21_17h09.08.321,empathy_intonation_perc_control,2024.2.4,MacIntel,57.14285714,6568b70075a2e3f099a181f2,69712dc693a3960bdb483245,69714e580bd551883f54fa8d,,,,,,,,,,,,,1,,,,,,,,,,,,,,,,,,,,,,,,,,,,,,,,,,,,,78,frondoso,,,,,297.2594,300.0425,0,0,2.261,,0,6,6,77,1,REAL,FAKE,,,,,,,,,,,,,,,,,
,,,,,,,,,6568b70075a2e3f099a181f2,Spanish,13 or older,"no, only English or Spanish",no,2026-01-21_17h09.08.321,empathy_intonation_perc_control,2024.2.4,MacIntel,57.14285714,6568b70075a2e3f099a181f2,69712dc693a3960bdb483245,69714e580bd551883f54fa8d,,,,,,,,,,,,,0,,,,,,,,,,,,,,,,,,,,,,,,,,,,,,,,,,,,,10,antar,,,,,300.0436,301.5092,1,0,0.9293,,0,7,7,9,1,REAL,FAKE,,,,,,,,,,,,,,,,,
,,,,,,,,,6568b70075a2e3f099a181f2,Spanish,13 or older,"no, only English or Spanish",no,2026-01-21_17h09.08.321,empathy_intonation_perc_control,2024.2.4,MacIntel,57.14285714,6568b70075a2e3f099a181f2,69712dc693a3960bdb483245,69714e580bd551883f54fa8d,,,,,,,,,,,,,0,,,,,,,,,,,,,,,,,,,,,,,,,,,,,,,,,,,,,23,lampera,,,,,301.5104,304.0927,0,1,2.053,,0,8,8,22,1,REAL,FAKE,,,,,,,,,,,,,,,,,
,,,,,,,,,6568b70075a2e3f099a181f2,Spanish,13 or older,"no, only English or Spanish",no,2026-01-21_17h09.08.321,empathy_intonation_perc_control,2024.2.4,MacIntel,57.14285714,6568b70075a2e3f099a181f2,69712dc693a3960bdb483245,69714e580bd551883f54fa8d,,,,,,,,,,,,,1,,,,,,,,,,,,,,,,,,,,,,,,,,,,,,,,,,,,,45,jilguero,,,,,304.0936,306.2429,0,0,1.6129,,0,9,9,44,1,REAL,FAKE,,,,,,,,,,,,,,,,,
,,,,,,,,,6568b70075a2e3f099a181f2,Spanish,13 or older,"no, only English or Spanish",no,2026-01-21_17h09.08.321,empathy_intonation_perc_control,2024.2.4,MacIntel,57.14285714,6568b70075a2e3f099a181f2,69712dc693a3960bdb483245,69714e580bd551883f54fa8d,,,,,,,,,,,,,1,,,,,,,,,,,,,,,,,,,,,,,,,,,,,,,,,,,,,9,hacha,,,,,306.244,307.6421,1,1,0.8731,,0,10,10,8,1,REAL,FAKE,,,,,,,,,,,,,,,,,
,,,,,,,,,6568b70075a2e3f099a181f2,Spanish,13 or older,"no, only English or Spanish",no,2026-01-21_17h09.08.321,empathy_intonation_perc_control,2024.2.4,MacIntel,57.14285714,6568b70075a2e3f099a181f2,69712dc693a3960bdb483245,69714e580bd551883f54fa8d,,,,,,,,,,,,,1,,,,,,,,,,,,,,,,,,,,,,,,,,,,,,,,,,,,,51,candado,,,,,307.643,309.126,1,1,0.9719,,0,11,11,50,1,REAL,FAKE,,,,,,,,,,,,,,,,,
,,,,,,,,,6568b70075a2e3f099a181f2,Spanish,13 or older,"no, only English or Spanish",no,2026-01-21_17h09.08.321,empathy_intonation_perc_control,2024.2.4,MacIntel,57.14285714,6568b70075a2e3f099a181f2,69712dc693a3960bdb483245,69714e580bd551883f54fa8d,,,,,,,,,,,,,1,,,,,,,,,,,,,,,,,,,,,,,,,,,,,,,,,,,,,25,bisagra,,,,,309.1268,311.8264,1,1,2.1735,,0,12,12,24,1,REAL,FAKE,,,,,,,,,,,,,,,,,
,,,,,,,,,6568b70075a2e3f099a181f2,Spanish,13 or older,"no, only English or Spanish",no,2026-01-21_17h09.08.321,empathy_intonation_perc_control,2024.2.4,MacIntel,57.14285714,6568b70075a2e3f099a181f2,69712dc693a3960bdb483245,69714e580bd551883f54fa8d,,,,,,,,,,,,,1,,,,,,,,,,,,,,,,,,,,,,,,,,,,,,,,,,,,,12,asesinato,,,,,311.8276,314.5264,0,0,2.1713,,0,13,13,11,1,REAL,FAKE,,,,,,,,,,,,,,,,,
,,,,,,,,,6568b70075a2e3f099a181f2,Spanish,13 or older,"no, only English or Spanish",no,2026-01-21_17h09.08.321,empathy_intonation_perc_control,2024.2.4,MacIntel,57.14285714,6568b70075a2e3f099a181f2,69712dc693a3960bdb483245,69714e580bd551883f54fa8d,,,,,,,,,,,,,1,,,,,,,,,,,,,,,,,,,,,,,,,,,,,,,,,,,,,64,orgulloso,,,,,314.5274,316.96,0,0,1.8963,,0,14,14,63,1,REAL,FAKE,,,,,,,,,,,,,,,,,
,,,,,,,,,6568b70075a2e3f099a181f2,Spanish,13 or older,"no, only English or Spanish",no,2026-01-21_17h09.08.321,empathy_intonation_perc_control,2024.2.4,MacIntel,57.14285714,6568b70075a2e3f099a181f2,69712dc693a3960bdb483245,69714e580bd551883f54fa8d,,,,,,,,,,,,,0,,,,,,,,,,,,,,,,,,,,,,,,,,,,,,,,,,,,,58,plaudir,,,,,316.9611,319.0101,1,0,1.5236,,0,15,15,57,1,REAL,FAKE,,,,,,,,,,,,,,,,,
,,,,,,,,,6568b70075a2e3f099a181f2,Spanish,13 or older,"no, only English or Spanish",no,2026-01-21_17h09.08.321,empathy_intonation_perc_control,2024.2.4,MacIntel,57.14285714,6568b70075a2e3f099a181f2,69712dc693a3960bdb483245,69714e580bd551883f54fa8d,,,,,,,,,,,,,1,,,,,,,,,,,,,,,,,,,,,,,,,,,,,,,,,,,,,65,bizcocho,,,,,319.011,320.5272,0,0,0.9851,,0,16,16,64,1,REAL,FAKE,,,,,,,,,,,,,,,,,
,,,,,,,,,6568b70075a2e3f099a181f2,Spanish,13 or older,"no, only English or Spanish",no,2026-01-21_17h09.08.321,empathy_intonation_perc_control,2024.2.4,MacIntel,57.14285714,6568b70075a2e3f099a181f2,69712dc693a3960bdb483245,69714e580bd551883f54fa8d,,,,,,,,,,,,,1,,,,,,,,,,,,,,,,,,,,,,,,,,,,,,,,,,,,,88,acantilado,,,,,320.528,323.1107,0,0,2.0535,,0,17,17,87,1,REAL,FAKE,,,,,,,,,,,,,,,,,
,,,,,,,,,6568b70075a2e3f099a181f2,Spanish,13 or older,"no, only English or Spanish",no,2026-01-21_17h09.08.321,empathy_intonation_perc_control,2024.2.4,MacIntel,57.14285714,6568b70075a2e3f099a181f2,69712dc693a3960bdb483245,69714e580bd551883f54fa8d,,,,,,,,,,,,,1,,,,,,,,,,,,,,,,,,,,,,,,,,,,,,,,,,,,,75,yacer,,,,,323.1115,325.2777,0,0,1.6392,,0,18,18,74,1,REAL,FAKE,,,,,,,,,,,,,,,,,
,,,,,,,,,6568b70075a2e3f099a181f2,Spanish,13 or older,"no, only English or Spanish",no,2026-01-21_17h09.08.321,empathy_intonation_perc_control,2024.2.4,MacIntel,57.14285714,6568b70075a2e3f099a181f2,69712dc693a3960bdb483245,69714e580bd551883f54fa8d,,,,,,,,,,,,,1,,,,,,,,,,,,,,,,,,,,,,,,,,,,,,,,,,,,,49,ganar,,,,,325.2791,327.3443,0,0,1.5297,,0,19,19,48,1,REAL,FAKE,,,,,,,,,,,,,,,,,
,,,,,,,,,6568b70075a2e3f099a181f2,Spanish,13 or older,"no, only English or Spanish",no,2026-01-21_17h09.08.321,empathy_intonation_perc_control,2024.2.4,MacIntel,57.14285714,6568b70075a2e3f099a181f2,69712dc693a3960bdb483245,69714e580bd551883f54fa8d,,,,,,,,,,,,,1,,,,,,,,,,,,,,,,,,,,,,,,,,,,,,,,,,,,,71,polvoriento,,,,,327.3452,329.3103,0,0,1.4377,,0,20,20,70,1,REAL,FAKE,,,,,,,,,,,,,,,,,
,,,,,,,,,6568b70075a2e3f099a181f2,Spanish,13 or older,"no, only English or Spanish",no,2026-01-21_17h09.08.321,empathy_intonation_perc_control,2024.2.4,MacIntel,57.14285714,6568b70075a2e3f099a181f2,69712dc693a3960bdb483245,69714e580bd551883f54fa8d,,,,,,,,,,,,,1,,,,,,,,,,,,,,,,,,,,,,,,,,,,,,,,,,,,,14,yunque,,,,,329.3115,331.6113,1,1,1.7788,,0,21,21,13,1,REAL,FAKE,,,,,,,,,,,,,,,,,
,,,,,,,,,6568b70075a2e3f099a181f2,Spanish,13 or older,"no, only English or Spanish",no,2026-01-21_17h09.08.321,empathy_intonation_perc_control,2024.2.4,MacIntel,57.14285714,6568b70075a2e3f099a181f2,69712dc693a3960bdb483245,69714e580bd551883f54fa8d,,,,,,,,,,,,,0,,,,,,,,,,,,,,,,,,,,,,,,,,,,,,,,,,,,,30,alardio,,,,,331.6124,333.9937,0,1,1.8545,,0,22,22,29,1,REAL,FAKE,,,,,,,,,,,,,,,,,
,,,,,,,,,6568b70075a2e3f099a181f2,Spanish,13 or older,"no, only English or Spanish",no,2026-01-21_17h09.08.321,empathy_intonation_perc_control,2024.2.4,MacIntel,57.14285714,6568b70075a2e3f099a181f2,69712dc693a3960bdb483245,69714e580bd551883f54fa8d,,,,,,,,,,,,,1,,,,,,,,,,,,,,,,,,,,,,,,,,,,,,,,,,,,,56,musgo,,,,,333.9948,335.6115,0,0,1.1029,,0,23,23,55,1,REAL,FAKE,,,,,,,,,,,,,,,,,
,,,,,,,,,6568b70075a2e3f099a181f2,Spanish,13 or older,"no, only English or Spanish",no,2026-01-21_17h09.08.321,empathy_intonation_perc_control,2024.2.4,MacIntel,57.14285714,6568b70075a2e3f099a181f2,69712dc693a3960bdb483245,69714e580bd551883f54fa8d,,,,,,,,,,,,,1,,,,,,,,,,,,,,,,,,,,,,,,,,,,,,,,,,,,,13,helar,,,,,335.6125,337.3774,1,1,1.2392,,0,24,24,12,1,REAL,FAKE,,,,,,,,,,,,,,,,,
,,,,,,,,,6568b70075a2e3f099a181f2,Spanish,13 or older,"no, only English or Spanish",no,2026-01-21_17h09.08.321,empathy_intonation_perc_control,2024.2.4,MacIntel,57.14285714,6568b70075a2e3f099a181f2,69712dc693a3960bdb483245,69714e580bd551883f54fa8d,,,,,,,,,,,,,1,,,,,,,,,,,,,,,,,,,,,,,,,,,,,,,,,,,,,43,canela,,,,,337.3786,339.2618,1,1,1.362,,0,25,25,42,1,REAL,FAKE,,,,,,,,,,,,,,,,,
,,,,,,,,,6568b70075a2e3f099a181f2,Spanish,13 or older,"no, only English or Spanish",no,2026-01-21_17h09.08.321,empathy_intonation_perc_control,2024.2.4,MacIntel,57.14285714,6568b70075a2e3f099a181f2,69712dc693a3960bdb483245,69714e580bd551883f54fa8d,,,,,,,,,,,,,1,,,,,,,,,,,,,,,,,,,,,,,,,,,,,,,,,,,,,6,tergiversar,,,,,339.2628,341.1607,0,0,1.3702,,0,26,26,5,1,REAL,FAKE,,,,,,,,,,,,,,,,,
,,,,,,,,,6568b70075a2e3f099a181f2,Spanish,13 or older,"no, only English or Spanish",no,2026-01-21_17h09.08.321,empathy_intonation_perc_control,2024.2.4,MacIntel,57.14285714,6568b70075a2e3f099a181f2,69712dc693a3960bdb483245,69714e580bd551883f54fa8d,,,,,,,,,,,,,0,,,,,,,,,,,,,,,,,,,,,,,,,,,,,,,,,,,,,8,cadeña,,,,,341.1613,343.545,0,1,1.8714,,0,27,27,7,1,REAL,FAKE,,,,,,,,,,,,,,,,,
,,,,,,,,,6568b70075a2e3f099a181f2,Spanish,13 or older,"no, only English or Spanish",no,2026-01-21_17h09.08.321,empathy_intonation_perc_control,2024.2.4,MacIntel,57.14285714,6568b70075a2e3f099a181f2,69712dc693a3960bdb483245,69714e580bd551883f54fa8d,,,,,,,,,,,,,1,,,,,,,,,,,,,,,,,,,,,,,,,,,,,,,,,,,,,15,regar,,,,,343.5461,344.9286,1,1,0.8526,,0,28,28,14,1,REAL,FAKE,,,,,,,,,,,,,,,,,
,,,,,,,,,6568b70075a2e3f099a181f2,Spanish,13 or older,"no, only English or Spanish",no,2026-01-21_17h09.08.321,empathy_intonation_perc_control,2024.2.4,MacIntel,57.14285714,6568b70075a2e3f099a181f2,69712dc693a3960bdb483245,69714e580bd551883f54fa8d,,,,,,,,,,,,,1,,,,,,,,,,,,,,,,,,,,,,,,,,,,,,,,,,,,,28,merodear,,,,,344.9294,346.6615,0,0,1.2064,,0,29,29,27,1,REAL,FAKE,,,,,,,,,,,,,,,,,
,,,,,,,,,6568b70075a2e3f099a181f2,Spanish,13 or older,"no, only English or Spanish",no,2026-01-21_17h09.08.321,empathy_intonation_perc_control,2024.2.4,MacIntel,57.14285714,6568b70075a2e3f099a181f2,69712dc693a3960bdb483245,69714e580bd551883f54fa8d,,,,,,,,,,,,,0,,,,,,,,,,,,,,,,,,,,,,,,,,,,,,,,,,,,,92,click the 0 key.,,,,,346.663,348.4956,0,1,1.2927,,0,30,30,91,1,REAL,FAKE,,,,,,,,,,,,,,,,,
,,,,,,,,,6568b70075a2e3f099a181f2,Spanish,13 or older,"no, only English or Spanish",no,2026-01-21_17h09.08.321,empathy_intonation_perc_control,2024.2.4,MacIntel,57.14285714,6568b70075a2e3f099a181f2,69712dc693a3960bdb483245,69714e580bd551883f54fa8d,,,,,,,,,,,,,1,,,,,,,,,,,,,,,,,,,,,,,,,,,,,,,,,,,,,46,martillo,,,,,348.4964,351.295,0,0,2.2721,,0,31,31,45,1,REAL,FAKE,,,,,,,,,,,,,,,,,
,,,,,,,,,6568b70075a2e3f099a181f2,Spanish,13 or older,"no, only English or Spanish",no,2026-01-21_17h09.08.321,empathy_intonation_perc_control,2024.2.4,MacIntel,57.14285714,6568b70075a2e3f099a181f2,69712dc693a3960bdb483245,69714e580bd551883f54fa8d,,,,,,,,,,,,,0,,,,,,,,,,,,,,,,,,,,,,,,,,,,,,,,,,,,,4,batillón,,,,,351.296,353.4794,1,0,1.6675,,0,32,32,3,1,REAL,FAKE,,,,,,,,,,,,,,,,,
,,,,,,,,,6568b70075a2e3f099a181f2,Spanish,13 or older,"no, only English or Spanish",no,2026-01-21_17h09.08.321,empathy_intonation_perc_control,2024.2.4,MacIntel,57.14285714,6568b70075a2e3f099a181f2,69712dc693a3960bdb483245,69714e580bd551883f54fa8d,,,,,,,,,,,,,1,,,,,,,,,,,,,,,,,,,,,,,,,,,,,,,,,,,,,77,tiburón,,,,,353.4802,355.5955,1,1,1.5889,,0,33,33,76,1,REAL,FAKE,,,,,,,,,,,,,,,,,
,,,,,,,,,6568b70075a2e3f099a181f2,Spanish,13 or older,"no, only English or Spanish",no,2026-01-21_17h09.08.321,empathy_intonation_perc_control,2024.2.4,MacIntel,57.14285714,6568b70075a2e3f099a181f2,69712dc693a3960bdb483245,69714e580bd551883f54fa8d,,,,,,,,,,,,,1,,,,,,,,,,,,,,,,,,,,,,,,,,,,,,,,,,,,,44,cuchara,,,,,355.5967,358.1128,0,0,2.0033,,0,34,34,43,1,REAL,FAKE,,,,,,,,,,,,,,,,,
,,,,,,,,,6568b70075a2e3f099a181f2,Spanish,13 or older,"no, only English or Spanish",no,2026-01-21_17h09.08.321,empathy_intonation_perc_control,2024.2.4,MacIntel,57.14285714,6568b70075a2e3f099a181f2,69712dc693a3960bdb483245,69714e580bd551883f54fa8d,,,,,,,,,,,,,1,,,,,,,,,,,,,,,,,,,,,,,,,,,,,,,,,,,,,20,ávido,,,,,358.1136,360.13,1,1,1.4771,,0,35,35,19,1,REAL,FAKE,,,,,,,,,,,,,,,,,
,,,,,,,,,6568b70075a2e3f099a181f2,Spanish,13 or older,"no, only English or Spanish",no,2026-01-21_17h09.08.321,empathy_intonation_perc_control,2024.2.4,MacIntel,57.14285714,6568b70075a2e3f099a181f2,69712dc693a3960bdb483245,69714e580bd551883f54fa8d,,,,,,,,,,,,,1,,,,,,,,,,,,,,,,,,,,,,,,,,,,,,,,,,,,,11,cenefa,,,,,360.1309,361.5962,0,0,0.9362,,0,36,36,10,1,REAL,FAKE,,,,,,,,,,,,,,,,,
,,,,,,,,,6568b70075a2e3f099a181f2,Spanish,13 or older,"no, only English or Spanish",no,2026-01-21_17h09.08.321,empathy_intonation_perc_control,2024.2.4,MacIntel,57.14285714,6568b70075a2e3f099a181f2,69712dc693a3960bdb483245,69714e580bd551883f54fa8d,,,,,,,,,,,,,0,,,,,,,,,,,,,,,,,,,,,,,,,,,,,,,,,,,,,16,abracer,,,,,361.5969,363.3467,1,0,1.2407,,0,37,37,15,1,REAL,FAKE,,,,,,,,,,,,,,,,,
,,,,,,,,,6568b70075a2e3f099a181f2,Spanish,13 or older,"no, only English or Spanish",no,2026-01-21_17h09.08.321,empathy_intonation_perc_control,2024.2.4,MacIntel,57.14285714,6568b70075a2e3f099a181f2,69712dc693a3960bdb483245,69714e580bd551883f54fa8d,,,,,,,,,,,,,0,,,,,,,,,,,,,,,,,,,,,,,,,,,,,,,,,,,,,1,terzo,,,,,363.3481,365.9135,0,1,2.0346,,0,38,38,0,1,REAL,FAKE,,,,,,,,,,,,,,,,,
,,,,,,,,,6568b70075a2e3f099a181f2,Spanish,13 or older,"no, only English or Spanish",no,2026-01-21_17h09.08.321,empathy_intonation_perc_control,2024.2.4,MacIntel,57.14285714,6568b70075a2e3f099a181f2,69712dc693a3960bdb483245,69714e580bd551883f54fa8d,,,,,,,,,,,,,1,,,,,,,,,,,,,,,,,,,,,,,,,,,,,,,,,,,,,7,pésimo,,,,,365.9145,368.1304,0,0,1.6875,,0,39,39,6,1,REAL,FAKE,,,,,,,,,,,,,,,,,
,,,,,,,,,6568b70075a2e3f099a181f2,Spanish,13 or older,"no, only English or Spanish",no,2026-01-21_17h09.08.321,empathy_intonation_perc_control,2024.2.4,MacIntel,57.14285714,6568b70075a2e3f099a181f2,69712dc693a3960bdb483245,69714e580bd551883f54fa8d,,,,,,,,,,,,,1,,,,,,,,,,,,,,,,,,,,,,,,,,,,,,,,,,,,,36,loro,,,,,368.1312,370.0463,0,0,1.3863,,0,40,40,35,1,REAL,FAKE,,,,,,,,,,,,,,,,,
,,,,,,,,,6568b70075a2e3f099a181f2,Spanish,13 or older,"no, only English or Spanish",no,2026-01-21_17h09.08.321,empathy_intonation_perc_control,2024.2.4,MacIntel,57.14285714,6568b70075a2e3f099a181f2,69712dc693a3960bdb483245,69714e580bd551883f54fa8d,,,,,,,,,,,,,1,,,,,,,,,,,,,,,,,,,,,,,,,,,,,,,,,,,,,31,pandilla,,,,,370.0473,371.8967,1,1,1.3221,,0,41,41,30,1,REAL,FAKE,,,,,,,,,,,,,,,,,
,,,,,,,,,6568b70075a2e3f099a181f2,Spanish,13 or older,"no, only English or Spanish",no,2026-01-21_17h09.08.321,empathy_intonation_perc_control,2024.2.4,MacIntel,57.14285714,6568b70075a2e3f099a181f2,69712dc693a3960bdb483245,69714e580bd551883f54fa8d,,,,,,,,,,,,,0,,,,,,,,,,,,,,,,,,,,,,,,,,,,,,,,,,,,,42,cadallo,,,,,371.8977,373.7971,0,1,1.3836,,0,42,42,41,1,REAL,FAKE,,,,,,,,,,,,,,,,,
,,,,,,,,,6568b70075a2e3f099a181f2,Spanish,13 or older,"no, only English or Spanish",no,2026-01-21_17h09.08.321,empathy_intonation_perc_control,2024.2.4,MacIntel,57.14285714,6568b70075a2e3f099a181f2,69712dc693a3960bdb483245,69714e580bd551883f54fa8d,,,,,,,,,,,,,1,,,,,,,,,,,,,,,,,,,,,,,,,,,,,,,,,,,,,61,seda,,,,,373.7981,375.2969,0,0,0.9727,,0,43,43,60,1,REAL,FAKE,,,,,,,,,,,,,,,,,
,,,,,,,,,6568b70075a2e3f099a181f2,Spanish,13 or older,"no, only English or Spanish",no,2026-01-21_17h09.08.321,empathy_intonation_perc_control,2024.2.4,MacIntel,57.14285714,6568b70075a2e3f099a181f2,69712dc693a3960bdb483245,69714e580bd551883f54fa8d,,,,,,,,,,,,,1,,,,,,,,,,,,,,,,,,,,,,,,,,,,,,,,,,,,,76,atar,,,,,375.2976,376.8635,0,0,1.0473,,0,44,44,75,1,REAL,FAKE,,,,,,,,,,,,,,,,,
,,,,,,,,,6568b70075a2e3f099a181f2,Spanish,13 or older,"no, only English or Spanish",no,2026-01-21_17h09.08.321,empathy_intonation_perc_control,2024.2.4,MacIntel,57.14285714,6568b70075a2e3f099a181f2,69712dc693a3960bdb483245,69714e580bd551883f54fa8d,,,,,,,,,,,,,0,,,,,,,,,,,,,,,,,,,,,,,,,,,,,,,,,,,,,74,cintro,,,,,376.8644,378.7646,1,0,1.3837,,0,45,45,73,1,REAL,FAKE,,,,,,,,,,,,,,,,,
,,,,,,,,,6568b70075a2e3f099a181f2,Spanish,13 or older,"no, only English or Spanish",no,2026-01-21_17h09.08.321,empathy_intonation_perc_control,2024.2.4,MacIntel,57.14285714,6568b70075a2e3f099a181f2,69712dc693a3960bdb483245,69714e580bd551883f54fa8d,,,,,,,,,,,,,1,,,,,,,,,,,,,,,,,,,,,,,,,,,,,,,,,,,,,81,pozo,,,,,378.7656,380.1804,0,0,0.8882,,0,46,46,80,1,REAL,FAKE,,,,,,,,,,,,,,,,,
,,,,,,,,,6568b70075a2e3f099a181f2,Spanish,13 or older,"no, only English or Spanish",no,2026-01-21_17h09.08.321,empathy_intonation_perc_control,2024.2.4,MacIntel,57.14285714,6568b70075a2e3f099a181f2,69712dc693a3960bdb483245,69714e580bd551883f54fa8d,,,,,,,,,,,,,0,,,,,,,,,,,,,,,,,,,,,,,,,,,,,,,,,,,,,79,tropaje,,,,,380.181,382.7478,0,1,2.0571,,0,47,47,78,1,REAL,FAKE,,,,,,,,,,,,,,,,,
,,,,,,,,,6568b70075a2e3f099a181f2,Spanish,13 or older,"no, only English or Spanish",no,2026-01-21_17h09.08.321,empathy_intonation_perc_control,2024.2.4,MacIntel,57.14285714,6568b70075a2e3f099a181f2,69712dc693a3960bdb483245,69714e580bd551883f54fa8d,,,,,,,,,,,,,1,,,,,,,,,,,,,,,,,,,,,,,,,,,,,,,,,,,,,55,nevar,,,,,382.7486,384.3816,0,0,1.102,,0,48,48,54,1,REAL,FAKE,,,,,,,,,,,,,,,,,
,,,,,,,,,6568b70075a2e3f099a181f2,Spanish,13 or older,"no, only English or Spanish",no,2026-01-21_17h09.08.321,empathy_intonation_perc_control,2024.2.4,MacIntel,57.14285714,6568b70075a2e3f099a181f2,69712dc693a3960bdb483245,69714e580bd551883f54fa8d,,,,,,,,,,,,,0,,,,,,,,,,,,,,,,,,,,,,,,,,,,,,,,,,,,,53,vegada,,,,,384.3823,385.7814,0,1,0.873,,0,49,49,52,1,REAL,FAKE,,,,,,,,,,,,,,,,,
,,,,,,,,,6568b70075a2e3f099a181f2,Spanish,13 or older,"no, only English or Spanish",no,2026-01-21_17h09.08.321,empathy_intonation_perc_control,2024.2.4,MacIntel,57.14285714,6568b70075a2e3f099a181f2,69712dc693a3960bdb483245,69714e580bd551883f54fa8d,,,,,,,,,,,,,1,,,,,,,,,,,,,,,,,,,,,,,,,,,,,,,,,,,,,85,laúd,,,,,385.7827,387.5484,1,1,1.2354,,0,50,50,84,1,REAL,FAKE,,,,,,,,,,,,,,,,,
,,,,,,,,,6568b70075a2e3f099a181f2,Spanish,13 or older,"no, only English or Spanish",no,2026-01-21_17h09.08.321,empathy_intonation_perc_control,2024.2.4,MacIntel,57.14285714,6568b70075a2e3f099a181f2,69712dc693a3960bdb483245,69714e580bd551883f54fa8d,,,,,,,,,,,,,0,,,,,,,,,,,,,,,,,,,,,,,,,,,,,,,,,,,,,21,capillo,,,,,387.5494,389.0486,1,0,0.9692,,0,51,51,20,1,REAL,FAKE,,,,,,,,,,,,,,,,,
,,,,,,,,,6568b70075a2e3f099a181f2,Spanish,13 or older,"no, only English or Spanish",no,2026-01-21_17h09.08.321,empathy_intonation_perc_control,2024.2.4,MacIntel,57.14285714,6568b70075a2e3f099a181f2,69712dc693a3960bdb483245,69714e580bd551883f54fa8d,,,,,,,,,,,,,1,,,,,,,,,,,,,,,,,,,,,,,,,,,,,,,,,,,,,2,pellizcar,,,,,389.0494,390.748,0,0,1.169,,0,52,52,1,1,REAL,FAKE,,,,,,,,,,,,,,,,,
,,,,,,,,,6568b70075a2e3f099a181f2,Spanish,13 or older,"no, only English or Spanish",no,2026-01-21_17h09.08.321,empathy_intonation_perc_control,2024.2.4,MacIntel,57.14285714,6568b70075a2e3f099a181f2,69712dc693a3960bdb483245,69714e580bd551883f54fa8d,,,,,,,,,,,,,0,,,,,,,,,,,,,,,,,,,,,,,,,,,,,,,,,,,,,66,hacido,,,,,390.7488,392.4145,1,0,1.1563,,0,53,53,65,1,REAL,FAKE,,,,,,,,,,,,,,,,,
,,,,,,,,,6568b70075a2e3f099a181f2,Spanish,13 or older,"no, only English or Spanish",no,2026-01-21_17h09.08.321,empathy_intonation_perc_control,2024.2.4,MacIntel,57.14285714,6568b70075a2e3f099a181f2,69712dc693a3960bdb483245,69714e580bd551883f54fa8d,,,,,,,,,,,,,1,,,,,,,,,,,,,,,,,,,,,,,,,,,,,,,,,,,,,86,barato,,,,,392.4158,394.1647,0,0,1.2378,,0,54,54,85,1,REAL,FAKE,,,,,,,,,,,,,,,,,
,,,,,,,,,6568b70075a2e3f099a181f2,Spanish,13 or older,"no, only English or Spanish",no,2026-01-21_17h09.08.321,empathy_intonation_perc_control,2024.2.4,MacIntel,57.14285714,6568b70075a2e3f099a181f2,69712dc693a3960bdb483245,69714e580bd551883f54fa8d,,,,,,,,,,,,,0,,,,,,,,,,,,,,,,,,,,,,,,,,,,,,,,,,,,,87,grodo,,,,,394.1655,396.3658,0,1,1.6834,,0,55,55,86,1,REAL,FAKE,,,,,,,,,,,,,,,,,
,,,,,,,,,6568b70075a2e3f099a181f2,Spanish,13 or older,"no, only English or Spanish",no,2026-01-21_17h09.08.321,empathy_intonation_perc_control,2024.2.4,MacIntel,57.14285714,6568b70075a2e3f099a181f2,69712dc693a3960bdb483245,69714e580bd551883f54fa8d,,,,,,,,,,,,,1,,,,,,,,,,,,,,,,,,,,,,,,,,,,,,,,,,,,,38,estornudar,,,,,396.3667,397.9815,0,0,1.0857,,0,56,56,37,1,REAL,FAKE,,,,,,,,,,,,,,,,,
,,,,,,,,,6568b70075a2e3f099a181f2,Spanish,13 or older,"no, only English or Spanish",no,2026-01-21_17h09.08.321,empathy_intonation_perc_control,2024.2.4,MacIntel,57.14285714,6568b70075a2e3f099a181f2,69712dc693a3960bdb483245,69714e580bd551883f54fa8d,,,,,,,,,,,,,1,,,,,,,,,,,,,,,,,,,,,,,,,,,,,,,,,,,,,3,pulmones,,,,,397.9822,400.7495,0,0,2.2473,,0,57,57,2,1,REAL,FAKE,,,,,,,,,,,,,,,,,
,,,,,,,,,6568b70075a2e3f099a181f2,Spanish,13 or older,"no, only English or Spanish",no,2026-01-21_17h09.08.321,empathy_intonation_perc_control,2024.2.4,MacIntel,57.14285714,6568b70075a2e3f099a181f2,69712dc693a3960bdb483245,69714e580bd551883f54fa8d,,,,,,,,,,,,,1,,,,,,,,,,,,,,,,,,,,,,,,,,,,,,,,,,,,,59,besar,,,,,400.7509,402.0662,1,1,0.7787,,0,58,58,58,1,REAL,FAKE,,,,,,,,,,,,,,,,,
,,,,,,,,,6568b70075a2e3f099a181f2,Spanish,13 or older,"no, only English or Spanish",no,2026-01-21_17h09.08.321,empathy_intonation_perc_control,2024.2.4,MacIntel,57.14285714,6568b70075a2e3f099a181f2,69712dc693a3960bdb483245,69714e580bd551883f54fa8d,,,,,,,,,,,,,1,,,,,,,,,,,,,,,,,,,,,,,,,,,,,,,,,,,,,60,matar,,,,,402.0671,403.8162,1,1,1.219,,0,59,59,59,1,REAL,FAKE,,,,,,,,,,,,,,,,,
,,,,,,,,,6568b70075a2e3f099a181f2,Spanish,13 or older,"no, only English or Spanish",no,2026-01-21_17h09.08.321,empathy_intonation_perc_control,2024.2.4,MacIntel,57.14285714,6568b70075a2e3f099a181f2,69712dc693a3960bdb483245,69714e580bd551883f54fa8d,,,,,,,,,,,,,1,,,,,,,,,,,,,,,,,,,,,,,,,,,,,,,,,,,,,73,hervidor,,,,,403.8171,407.0323,0,0,2.6869,,0,60,60,72,1,REAL,FAKE,,,,,,,,,,,,,,,,,
,,,,,,,,,6568b70075a2e3f099a181f2,Spanish,13 or older,"no, only English or Spanish",no,2026-01-21_17h09.08.321,empathy_intonation_perc_control,2024.2.4,MacIntel,57.14285714,6568b70075a2e3f099a181f2,69712dc693a3960bdb483245,69714e580bd551883f54fa8d,,,,,,,,,,,,,1,,,,,,,,,,,,,,,,,,,,,,,,,,,,,,,,,,,,,52,camisa,,,,,407.0331,409.3494,1,1,1.8052,,0,61,61,51,1,REAL,FAKE,,,,,,,,,,,,,,,,,
,,,,,,,,,6568b70075a2e3f099a181f2,Spanish,13 or older,"no, only English or Spanish",no,2026-01-21_17h09.08.321,empathy_intonation_perc_control,2024.2.4,MacIntel,57.14285714,6568b70075a2e3f099a181f2,69712dc693a3960bdb483245,69714e580bd551883f54fa8d,,,,,,,,,,,,,1,,,,,,,,,,,,,,,,,,,,,,,,,,,,,,,,,,,,,89,prisa,,,,,409.3506,411.0667,0,0,1.179,,0,62,62,88,1,REAL,FAKE,,,,,,,,,,,,,,,,,
,,,,,,,,,6568b70075a2e3f099a181f2,Spanish,13 or older,"no, only English or Spanish",no,2026-01-21_17h09.08.321,empathy_intonation_perc_control,2024.2.4,MacIntel,57.14285714,6568b70075a2e3f099a181f2,69712dc693a3960bdb483245,69714e580bd551883f54fa8d,,,,,,,,,,,,,1,,,,,,,,,,,,,,,,,,,,,,,,,,,,,,,,,,,,,5,zapato,,,,,411.0677,412.8493,1,1,1.2478,,0,63,63,4,1,REAL,FAKE,,,,,,,,,,,,,,,,,
,,,,,,,,,6568b70075a2e3f099a181f2,Spanish,13 or older,"no, only English or Spanish",no,2026-01-21_17h09.08.321,empathy_intonation_perc_control,2024.2.4,MacIntel,57.14285714,6568b70075a2e3f099a181f2,69712dc693a3960bdb483245,69714e580bd551883f54fa8d,,,,,,,,,,,,,0,,,,,,,,,,,,,,,,,,,,,,,,,,,,,,,,,,,,,84,escuto,,,,,412.8501,415.2502,0,1,1.8657,,0,64,64,83,1,REAL,FAKE,,,,,,,,,,,,,,,,,
,,,,,,,,,6568b70075a2e3f099a181f2,Spanish,13 or older,"no, only English or Spanish",no,2026-01-21_17h09.08.321,empathy_intonation_perc_control,2024.2.4,MacIntel,57.14285714,6568b70075a2e3f099a181f2,69712dc693a3960bdb483245,69714e580bd551883f54fa8d,,,,,,,,,,,,,0,,,,,,,,,,,,,,,,,,,,,,,,,,,,,,,,,,,,,17,floroso,,,,,415.2512,417.3662,0,1,1.5863,,0,65,65,16,1,REAL,FAKE,,,,,,,,,,,,,,,,,
,,,,,,,,,6568b70075a2e3f099a181f2,Spanish,13 or older,"no, only English or Spanish",no,2026-01-21_17h09.08.321,empathy_intonation_perc_control,2024.2.4,MacIntel,57.14285714,6568b70075a2e3f099a181f2,69712dc693a3960bdb483245,69714e580bd551883f54fa8d,,,,,,,,,,,,,1,,,,,,,,,,,,,,,,,,,,,,,,,,,,,,,,,,,,,68,alegre,,,,,417.3672,420.2504,1,1,2.37,,0,66,66,67,1,REAL,FAKE,,,,,,,,,,,,,,,,,
,,,,,,,,,6568b70075a2e3f099a181f2,Spanish,13 or older,"no, only English or Spanish",no,2026-01-21_17h09.08.321,empathy_intonation_perc_control,2024.2.4,MacIntel,57.14285714,6568b70075a2e3f099a181f2,69712dc693a3960bdb483245,69714e580bd551883f54fa8d,,,,,,,,,,,,,1,,,,,,,,,,,,,,,,,,,,,,,,,,,,,,,,,,,,,48,ladrón,,,,,420.2511,422.0665,1,1,1.3052,,0,67,67,47,1,REAL,FAKE,,,,,,,,,,,,,,,,,
,,,,,,,,,6568b70075a2e3f099a181f2,Spanish,13 or older,"no, only English or Spanish",no,2026-01-21_17h09.08.321,empathy_intonation_perc_control,2024.2.4,MacIntel,57.14285714,6568b70075a2e3f099a181f2,69712dc693a3960bdb483245,69714e580bd551883f54fa8d,,,,,,,,,,,,,0,,,,,,,,,,,,,,,,,,,,,,,,,,,,,,,,,,,,,18,arsa,,,,,422.0678,423.6842,0,1,1.1076,,0,68,68,17,1,REAL,FAKE,,,,,,,,,,,,,,,,,
,,,,,,,,,6568b70075a2e3f099a181f2,Spanish,13 or older,"no, only English or Spanish",no,2026-01-21_17h09.08.321,empathy_intonation_perc_control,2024.2.4,MacIntel,57.14285714,6568b70075a2e3f099a181f2,69712dc693a3960bdb483245,69714e580bd551883f54fa8d,,,,,,,,,,,,,1,,,,,,,,,,,,,,,,,,,,,,,,,,,,,,,,,,,,,39,torpe,,,,,423.6852,425.4345,0,0,1.2141,,0,69,69,38,1,REAL,FAKE,,,,,,,,,,,,,,,,,
,,,,,,,,,6568b70075a2e3f099a181f2,Spanish,13 or older,"no, only English or Spanish",no,2026-01-21_17h09.08.321,empathy_intonation_perc_control,2024.2.4,MacIntel,57.14285714,6568b70075a2e3f099a181f2,69712dc693a3960bdb483245,69714e580bd551883f54fa8d,,,,,,,,,,,,,1,,,,,,,,,,,,,,,,,,,,,,,,,,,,,,,,,,,,,40,alfombra,,,,,425.4354,428.4179,1,1,2.4458,,0,70,70,39,1,REAL,FAKE,,,,,,,,,,,,,,,,,
,,,,,,,,,6568b70075a2e3f099a181f2,Spanish,13 or older,"no, only English or Spanish",no,2026-01-21_17h09.08.321,empathy_intonation_perc_control,2024.2.4,MacIntel,57.14285714,6568b70075a2e3f099a181f2,69712dc693a3960bdb483245,69714e580bd551883f54fa8d,,,,,,,,,,,,,0,,,,,,,,,,,,,,,,,,,,,,,,,,,,,,,,,,,,,82,empirador,,,,,428.4189,431.4681,0,1,2.5153,,0,71,71,81,1,REAL,FAKE,,,,,,,,,,,,,,,,,
,,,,,,,,,6568b70075a2e3f099a181f2,Spanish,13 or older,"no, only English or Spanish",no,2026-01-21_17h09.08.321,empathy_intonation_perc_control,2024.2.4,MacIntel,57.14285714,6568b70075a2e3f099a181f2,69712dc693a3960bdb483245,69714e580bd551883f54fa8d,,,,,,,,,,,,,1,,,,,,,,,,,,,,,,,,,,,,,,,,,,,,,,,,,,,26,secuestro,,,,,431.4692,433.6678,1,1,1.6712,,0,72,72,25,1,REAL,FAKE,,,,,,,,,,,,,,,,,
,,,,,,,,,6568b70075a2e3f099a181f2,Spanish,13 or older,"no, only English or Spanish",no,2026-01-21_17h09.08.321,empathy_intonation_perc_control,2024.2.4,MacIntel,57.14285714,6568b70075a2e3f099a181f2,69712dc693a3960bdb483245,69714e580bd551883f54fa8d,,,,,,,,,,,,,0,,,,,,,,,,,,,,,,,,,,,,,,,,,,,,,,,,,,,72,pemición,,,,,433.669,436.2686,0,1,2.0779,,0,73,73,71,1,REAL,FAKE,,,,,,,,,,,,,,,,,
,,,,,,,,,6568b70075a2e3f099a181f2,Spanish,13 or older,"no, only English or Spanish",no,2026-01-21_17h09.08.321,empathy_intonation_perc_control,2024.2.4,MacIntel,57.14285714,6568b70075a2e3f099a181f2,69712dc693a3960bdb483245,69714e580bd551883f54fa8d,,,,,,,,,,,,,1,,,,,,,,,,,,,,,,,,,,,,,,,,,,,,,,,,,,,62,flaco,,,,,436.2695,437.8185,1,1,1.0185,,0,74,74,61,1,REAL,FAKE,,,,,,,,,,,,,,,,,
,,,,,,,,,6568b70075a2e3f099a181f2,Spanish,13 or older,"no, only English or Spanish",no,2026-01-21_17h09.08.321,empathy_intonation_perc_control,2024.2.4,MacIntel,57.14285714,6568b70075a2e3f099a181f2,69712dc693a3960bdb483245,69714e580bd551883f54fa8d,,,,,,,,,,,,,1,,,,,,,,,,,,,,,,,,,,,,,,,,,,,,,,,,,,,80,hormiga,,,,,437.8194,439.5019,0,0,1.1545,,0,75,75,79,1,REAL,FAKE,,,,,,,,,,,,,,,,,
,,,,,,,,,6568b70075a2e3f099a181f2,Spanish,13 or older,"no, only English or Spanish",no,2026-01-21_17h09.08.321,empathy_intonation_perc_control,2024.2.4,MacIntel,57.14285714,6568b70075a2e3f099a181f2,69712dc693a3960bdb483245,69714e580bd551883f54fa8d,,,,,,,,,,,,,1,,,,,,,,,,,,,,,,,,,,,,,,,,,,,,,,,,,,,22,lacayo,,,,,439.5026,441.0013,0,0,0.9715,,0,76,76,21,1,REAL,FAKE,,,,,,,,,,,,,,,,,
,,,,,,,,,6568b70075a2e3f099a181f2,Spanish,13 or older,"no, only English or Spanish",no,2026-01-21_17h09.08.321,empathy_intonation_perc_control,2024.2.4,MacIntel,57.14285714,6568b70075a2e3f099a181f2,69712dc693a3960bdb483245,69714e580bd551883f54fa8d,,,,,,,,,,,,,1,,,,,,,,,,,,,,,,,,,,,,,,,,,,,,,,,,,,,24,látigo,,,,,441.0021,443.2855,0,0,1.7708,,0,77,77,23,1,REAL,FAKE,,,,,,,,,,,,,,,,,
,,,,,,,,,6568b70075a2e3f099a181f2,Spanish,13 or older,"no, only English or Spanish",no,2026-01-21_17h09.08.321,empathy_intonation_perc_control,2024.2.4,MacIntel,57.14285714,6568b70075a2e3f099a181f2,69712dc693a3960bdb483245,69714e580bd551883f54fa8d,,,,,,,,,,,,,1,,,,,,,,,,,,,,,,,,,,,,,,,,,,,,,,,,,,,90,clavel,,,,,443.2864,446.0524,1,1,2.2354,,0,78,78,89,1,REAL,FAKE,,,,,,,,,,,,,,,,,
,,,,,,,,,6568b70075a2e3f099a181f2,Spanish,13 or older,"no, only English or Spanish",no,2026-01-21_17h09.08.321,empathy_intonation_perc_control,2024.2.4,MacIntel,57.14285714,6568b70075a2e3f099a181f2,69712dc693a3960bdb483245,69714e580bd551883f54fa8d,,,,,,,,,,,,,0,,,,,,,,,,,,,,,,,,,,,,,,,,,,,,,,,,,,,63,esposante,,,,,446.0531,448.4693,0,1,1.8857,,0,79,79,62,1,REAL,FAKE,,,,,,,,,,,,,,,,,
,,,,,,,,,6568b70075a2e3f099a181f2,Spanish,13 or older,"no, only English or Spanish",no,2026-01-21_17h09.08.321,empathy_intonation_perc_control,2024.2.4,MacIntel,57.14285714,6568b70075a2e3f099a181f2,69712dc693a3960bdb483245,69714e580bd551883f54fa8d,,,,,,,,,,,,,0,,,,,,,,,,,,,,,,,,,,,,,,,,,,,,,,,,,,,70,temblo,,,,,448.4702,450.8856,0,1,1.8815,,0,80,80,69,1,REAL,FAKE,,,,,,,,,,,,,,,,,
,,,,,,,,,6568b70075a2e3f099a181f2,Spanish,13 or older,"no, only English or Spanish",no,2026-01-21_17h09.08.321,empathy_intonation_perc_control,2024.2.4,MacIntel,57.14285714,6568b70075a2e3f099a181f2,69712dc693a3960bdb483245,69714e580bd551883f54fa8d,,,,,,,,,,,,,1,,,,,,,,,,,,,,,,,,,,,,,,,,,,,,,,,,,,,83,guante,,,,,450.8866,453.2363,0,0,1.8345,,0,81,81,82,1,REAL,FAKE,,,,,,,,,,,,,,,,,
,,,,,,,,,6568b70075a2e3f099a181f2,Spanish,13 or older,"no, only English or Spanish",no,2026-01-21_17h09.08.321,empathy_intonation_perc_control,2024.2.4,MacIntel,57.14285714,6568b70075a2e3f099a181f2,69712dc693a3960bdb483245,69714e580bd551883f54fa8d,,,,,,,,,,,,,0,,,,,,,,,,,,,,,,,,,,,,,,,,,,,,,,,,,,,35,rompido,,,,,453.2371,454.8855,0,1,1.1232,,0,82,82,34,1,REAL,FAKE,,,,,,,,,,,,,,,,,
,,,,,,,,,6568b70075a2e3f099a181f2,Spanish,13 or older,"no, only English or Spanish",no,2026-01-21_17h09.08.321,empathy_intonation_perc_control,2024.2.4,MacIntel,57.14285714,6568b70075a2e3f099a181f2,69712dc693a3960bdb483245,69714e580bd551883f54fa8d,,,,,,,,,,,,,0,,,,,,,,,,,,,,,,,,,,,,,,,,,,,,,,,,,,,50,flamida,,,,,454.8863,456.353,0,1,0.9555,,0,83,83,49,1,REAL,FAKE,,,,,,,,,,,,,,,,,
,,,,,,,,,6568b70075a2e3f099a181f2,Spanish,13 or older,"no, only English or Spanish",no,2026-01-21_17h09.08.321,empathy_intonation_perc_control,2024.2.4,MacIntel,57.14285714,6568b70075a2e3f099a181f2,69712dc693a3960bdb483245,69714e580bd551883f54fa8d,,,,,,,,,,,,,0,,,,,,,,,,,,,,,,,,,,,,,,,,,,,,,,,,,,,33,pauca,,,,,456.3538,458.1032,1,0,1.2182,,0,84,84,32,1,REAL,FAKE,,,,,,,,,,,,,,,,,
,,,,,,,,,6568b70075a2e3f099a181f2,Spanish,13 or older,"no, only English or Spanish",no,2026-01-21_17h09.08.321,empathy_intonation_perc_control,2024.2.4,MacIntel,57.14285714,6568b70075a2e3f099a181f2,69712dc693a3960bdb483245,69714e580bd551883f54fa8d,,,,,,,,,,,,,0,,,,,,,,,,,,,,,,,,,,,,,,,,,,,,,,,,,,,32,fatacidad,,,,,458.104,459.8689,0,1,1.2362,,0,85,85,31,1,REAL,FAKE,,,,,,,,,,,,,,,,,
,,,,,,,,,6568b70075a2e3f099a181f2,Spanish,13 or older,"no, only English or Spanish",no,2026-01-21_17h09.08.321,empathy_intonation_perc_control,2024.2.4,MacIntel,57.14285714,6568b70075a2e3f099a181f2,69712dc693a3960bdb483245,69714e580bd551883f54fa8d,,,,,,,,,,,,,1,,,,,,,,,,,,,,,,,,,,,,,,,,,,,,,,,,,,,54,fomentar,,,,,459.8697,462.0198,1,1,1.6377,,0,86,86,53,1,REAL,FAKE,,,,,,,,,,,,,,,,,
,,,,,,,,,6568b70075a2e3f099a181f2,Spanish,13 or older,"no, only English or Spanish",no,2026-01-21_17h09.08.321,empathy_intonation_perc_control,2024.2.4,MacIntel,57.14285714,6568b70075a2e3f099a181f2,69712dc693a3960bdb483245,69714e580bd551883f54fa8d,,,,,,,,,,,,,0,,,,,,,,,,,,,,,,,,,,,,,,,,,,,,,,,,,,,27,acutación,,,,,462.0211,465.0706,0,1,2.5161,,0,87,87,26,1,REAL,FAKE,,,,,,,,,,,,,,,,,
,,,,,,,,,6568b70075a2e3f099a181f2,Spanish,13 or older,"no, only English or Spanish",no,2026-01-21_17h09.08.321,empathy_intonation_perc_control,2024.2.4,MacIntel,57.14285714,6568b70075a2e3f099a181f2,69712dc693a3960bdb483245,69714e580bd551883f54fa8d,,,,,,,,,,,,,0,,,,,,,,,,,,,,,,,,,,,,,,,,,,,,,,,,,,,29,decar,,,,,465.0716,467.1694,1,0,1.5608,,0,88,88,28,1,REAL,FAKE,,,,,,,,,,,,,,,,,
,,,,,,,,,6568b70075a2e3f099a181f2,Spanish,13 or older,"no, only English or Spanish",no,2026-01-21_17h09.08.321,empathy_intonation_perc_control,2024.2.4,MacIntel,57.14285714,6568b70075a2e3f099a181f2,69712dc693a3960bdb483245,69714e580bd551883f54fa8d,,,,,,,,,,,,,1,,,,,,,,,,,,,,,,,,,,,,,,,,,,,,,,,,,,,57,tacaño,,,,,467.1702,469.2042,0,0,1.5107,,0,89,89,56,1,REAL,FAKE,,,,,,,,,,,,,,,,,
,,,,,,,,,6568b70075a2e3f099a181f2,Spanish,13 or older,"no, only English or Spanish",no,2026-01-21_17h09.08.321,empathy_intonation_perc_control,2024.2.4,MacIntel,57.14285714,6568b70075a2e3f099a181f2,69712dc693a3960bdb483245,69714e580bd551883f54fa8d,,,,,,,,,,,,,1,,,,,,,,,,,,,,,,,,,,,,,,,,,,,,,,,,,,,41,rebuscar,,,,,469.2052,471.0211,1,1,1.2778,,0,90,90,40,1,REAL,FAKE,,,,,,,,,,,,,,,,,
,,,,,,,,,6568b70075a2e3f099a181f2,Spanish,13 or older,"no, only English or Spanish",no,2026-01-21_17h09.08.321,empathy_intonation_perc_control,2024.2.4,MacIntel,57.14285714,6568b70075a2e3f099a181f2,69712dc693a3960bdb483245,69714e580bd551883f54fa8d,,,,,,,,,,,,,0,,,,,,,,,,,,,,,,,,,,,,,,,,,,,,,,,,,,,47,cartinar,,,,,471.022,472.7366,0,1,1.1888,,0,91,91,46,1,REAL,FAKE,,,,,,,,,,,,,,,,,
,,,,,,,,,6568b70075a2e3f099a181f2,Spanish,13 or older,"no, only English or Spanish",no,2026-01-21_17h09.08.321,empathy_intonation_perc_control,2024.2.4,MacIntel,57.14285714,6568b70075a2e3f099a181f2,69712dc693a3960bdb483245,69714e580bd551883f54fa8d,,,,,,,,,,,,,,,,,,,,,,,,,,,,,,,,,,,,,,,,,,,,,,,,,,,,,,,,,,,,,,,,,,,,,472.7372,480.6375,,,,,,,,,,,,,,,
,,,,,,,,,6568b70075a2e3f099a181f2,Spanish,13 or older,"no, only English or Spanish",no,2026-01-21_17h09.08.321,empathy_intonation_perc_control,2024.2.4,MacIntel,57.14285714,6568b70075a2e3f099a181f2,69712dc693a3960bdb483245,69714e580bd551883f54fa8d,,,,,,,,,,,,,,,,,,,,,,,,,,,1,,,,,,,,,,,,,,,,,,,,,,,,,,,,,,,,,,,,,,,,,,,,480.6493,486.0548,strongly agree,0,0,0,0,1,I can easily tell if someone else wants to enter a conversation.,1,0,1,0,,
,,,,,,,,,6568b70075a2e3f099a181f2,Spanish,13 or older,"no, only English or Spanish",no,2026-01-21_17h09.08.321,empathy_intonation_perc_control,2024.2.4,MacIntel,57.14285714,6568b70075a2e3f099a181f2,69712dc693a3960bdb483245,69714e580bd551883f54fa8d,,,,,,,,,,,,,,,,,,,,,,,,,,,2,,,,,,,,,,,,,,,,,,,,,,,,,,,,,,,,,,,,,,,,,,,,486.0571,488.8722,slightly agree,0,1,1,1,1,I prefer animals to humans.,0,1,0,0,,
,,,,,,,,,6568b70075a2e3f099a181f2,Spanish,13 or older,"no, only English or Spanish",no,2026-01-21_17h09.08.321,empathy_intonation_perc_control,2024.2.4,MacIntel,57.14285714,6568b70075a2e3f099a181f2,69712dc693a3960bdb483245,69714e580bd551883f54fa8d,,,,,,,,,,,,,,,,,,,,,,,,,,,3,,,,,,,,,,,,,,,,,,,,,,,,,,,,,,,,,,,,,,,,,,,,488.874,492.1391,slightly disagree,0,2,2,2,1,I try to keep up with the current trends and fashions.,0,1,0,0,,
,,,,,,,,,6568b70075a2e3f099a181f2,Spanish,13 or older,"no, only English or Spanish",no,2026-01-21_17h09.08.321,empathy_intonation_perc_control,2024.2.4,MacIntel,57.14285714,6568b70075a2e3f099a181f2,69712dc693a3960bdb483245,69714e580bd551883f54fa8d,,,,,,,,,,,,,,,,,,,,,,,,,,,4,,,,,,,,,,,,,,,,,,,,,,,,,,,,,,,,,,,,,,,,,,,,492.141,498.9063,strongly disagree,0,3,3,3,1,"I find it difficult to explain to others things that I understand easily,   when they don't understand it first time.",1,0,0,1,,
,,,,,,,,,6568b70075a2e3f099a181f2,Spanish,13 or older,"no, only English or Spanish",no,2026-01-21_17h09.08.321,empathy_intonation_perc_control,2024.2.4,MacIntel,57.14285714,6568b70075a2e3f099a181f2,69712dc693a3960bdb483245,69714e580bd551883f54fa8d,,,,,,,,,,,,,,,,,,,,,,,,,,,5,,,,,,,,,,,,,,,,,,,,,,,,,,,,,,,,,,,,,,,,,,,,498.9076,501.1735,strongly agree,0,4,4,4,1,I dream most nights.,0,1,0,0,,
,,,,,,,,,6568b70075a2e3f099a181f2,Spanish,13 or older,"no, only English or Spanish",no,2026-01-21_17h09.08.321,empathy_intonation_perc_control,2024.2.4,MacIntel,57.14285714,6568b70075a2e3f099a181f2,69712dc693a3960bdb483245,69714e580bd551883f54fa8d,,,,,,,,,,,,,,,,,,,,,,,,,,,6,,,,,,,,,,,,,,,,,,,,,,,,,,,,,,,,,,,,,,,,,,,,501.1748,502.9065,strongly agree,0,5,5,5,1,I really enjoy caring for other people.,1,0,1,0,,
,,,,,,,,,6568b70075a2e3f099a181f2,Spanish,13 or older,"no, only English or Spanish",no,2026-01-21_17h09.08.321,empathy_intonation_perc_control,2024.2.4,MacIntel,57.14285714,6568b70075a2e3f099a181f2,69712dc693a3960bdb483245,69714e580bd551883f54fa8d,,,,,,,,,,,,,,,,,,,,,,,,,,,7,,,,,,,,,,,,,,,,,,,,,,,,,,,,,,,,,,,,,,,,,,,,502.9085,504.9898,strongly agree,0,6,6,6,1,I try to solve my own problems rather than discussing them with others.,0,1,0,0,,
,,,,,,,,,6568b70075a2e3f099a181f2,Spanish,13 or older,"no, only English or Spanish",no,2026-01-21_17h09.08.321,empathy_intonation_perc_control,2024.2.4,MacIntel,57.14285714,6568b70075a2e3f099a181f2,69712dc693a3960bdb483245,69714e580bd551883f54fa8d,,,,,,,,,,,,,,,,,,,,,,,,,,,8,,,,,,,,,,,,,,,,,,,,,,,,,,,,,,,,,,,,,,,,,,,,504.9917,508.0728,strongly disagree,0,7,7,7,1,I find it hard to know what to do in a social situation.,1,0,0,1,,
,,,,,,,,,6568b70075a2e3f099a181f2,Spanish,13 or older,"no, only English or Spanish",no,2026-01-21_17h09.08.321,empathy_intonation_perc_control,2024.2.4,MacIntel,57.14285714,6568b70075a2e3f099a181f2,69712dc693a3960bdb483245,69714e580bd551883f54fa8d,,,,,,,,,,,,,,,,,,,,,,,,,,,9,,,,,,,,,,,,,,,,,,,,,,,,,,,,,,,,,,,,,,,,,,,,508.0743,511.2562,slightly disagree,0,8,8,8,1,I am at my best first thing in the morning.,0,1,0,0,,
,,,,,,,,,6568b70075a2e3f099a181f2,Spanish,13 or older,"no, only English or Spanish",no,2026-01-21_17h09.08.321,empathy_intonation_perc_control,2024.2.4,MacIntel,57.14285714,6568b70075a2e3f099a181f2,69712dc693a3960bdb483245,69714e580bd551883f54fa8d,,,,,,,,,,,,,,,,,,,,,,,,,,,10,,,,,,,,,,,,,,,,,,,,,,,,,,,,,,,,,,,,,,,,,,,,511.258,514.7395,strongly disagree,0,9,9,9,1,People often tell me that I went too far in driving my point home in a discussion.,1,0,0,1,,
,,,,,,,,,6568b70075a2e3f099a181f2,Spanish,13 or older,"no, only English or Spanish",no,2026-01-21_17h09.08.321,empathy_intonation_perc_control,2024.2.4,MacIntel,57.14285714,6568b70075a2e3f099a181f2,69712dc693a3960bdb483245,69714e580bd551883f54fa8d,,,,,,,,,,,,,,,,,,,,,,,,,,,11,,,,,,,,,,,,,,,,,,,,,,,,,,,,,,,,,,,,,,,,,,,,514.7408,518.0241,strongly disagree,0,10,10,10,1,It doesn't bother me too much if I am late meeting a friend.,1,0,0,1,,
,,,,,,,,,6568b70075a2e3f099a181f2,Spanish,13 or older,"no, only English or Spanish",no,2026-01-21_17h09.08.321,empathy_intonation_perc_control,2024.2.4,MacIntel,57.14285714,6568b70075a2e3f099a181f2,69712dc693a3960bdb483245,69714e580bd551883f54fa8d,,,,,,,,,,,,,,,,,,,,,,,,,,,12,,,,,,,,,,,,,,,,,,,,,,,,,,,,,,,,,,,,,,,,,,,,518.0263,520.541,strongly disagree,0,11,11,11,1,"Friendships and relationships are just too difficult, so I tend not to 
  bother with them.",1,0,0,1,,
,,,,,,,,,6568b70075a2e3f099a181f2,Spanish,13 or older,"no, only English or Spanish",no,2026-01-21_17h09.08.321,empathy_intonation_perc_control,2024.2.4,MacIntel,57.14285714,6568b70075a2e3f099a181f2,69712dc693a3960bdb483245,69714e580bd551883f54fa8d,,,,,,,,,,,,,,,,,,,,,,,,,,,13,,,,,,,,,,,,,,,,,,,,,,,,,,,,,,,,,,,,,,,,,,,,520.5424,525.0081,slightly disagree,0,12,12,12,1,"I would never break a law, no matter how minor.",0,1,0,0,,
,,,,,,,,,6568b70075a2e3f099a181f2,Spanish,13 or older,"no, only English or Spanish",no,2026-01-21_17h09.08.321,empathy_intonation_perc_control,2024.2.4,MacIntel,57.14285714,6568b70075a2e3f099a181f2,69712dc693a3960bdb483245,69714e580bd551883f54fa8d,,,,,,,,,,,,,,,,,,,,,,,,,,,14,,,,,,,,,,,,,,,,,,,,,,,,,,,,,,,,,,,,,,,,,,,,525.0094,528.5403,strongly disagree,0,13,13,13,1,I often find it difficult to judge if something is rude or polite.,1,0,0,1,,
,,,,,,,,,6568b70075a2e3f099a181f2,Spanish,13 or older,"no, only English or Spanish",no,2026-01-21_17h09.08.321,empathy_intonation_perc_control,2024.2.4,MacIntel,57.14285714,6568b70075a2e3f099a181f2,69712dc693a3960bdb483245,69714e580bd551883f54fa8d,,,,,,,,,,,,,,,,,,,,,,,,,,,15,,,,,,,,,,,,,,,,,,,,,,,,,,,,,,,,,,,,,,,,,,,,528.5417,531.4918,strongly disagree,0,14,14,14,1,"In a conversation, I tend to focus on my own thoughts rather than on what 
  my listener might be thinking.",1,0,0,1,,
,,,,,,,,,6568b70075a2e3f099a181f2,Spanish,13 or older,"no, only English or Spanish",no,2026-01-21_17h09.08.321,empathy_intonation_perc_control,2024.2.4,MacIntel,57.14285714,6568b70075a2e3f099a181f2,69712dc693a3960bdb483245,69714e580bd551883f54fa8d,,,,,,,,,,,,,,,,,,,,,,,,,,,16,,,,,,,,,,,,,,,,,,,,,,,,,,,,,,,,,,,,,,,,,,,,531.4933,534.6253,strongly disagree,0,15,15,15,1,I prefer practical jokes to verbal humor.,0,1,0,0,,
,,,,,,,,,6568b70075a2e3f099a181f2,Spanish,13 or older,"no, only English or Spanish",no,2026-01-21_17h09.08.321,empathy_intonation_perc_control,2024.2.4,MacIntel,57.14285714,6568b70075a2e3f099a181f2,69712dc693a3960bdb483245,69714e580bd551883f54fa8d,,,,,,,,,,,,,,,,,,,,,,,,,,,17,,,,,,,,,,,,,,,,,,,,,,,,,,,,,,,,,,,,,,,,,,,,534.627,539.1091,slightly agree,0,16,16,16,1,I live life for today rather than the future.,0,1,0,0,,
,,,,,,,,,6568b70075a2e3f099a181f2,Spanish,13 or older,"no, only English or Spanish",no,2026-01-21_17h09.08.321,empathy_intonation_perc_control,2024.2.4,MacIntel,57.14285714,6568b70075a2e3f099a181f2,69712dc693a3960bdb483245,69714e580bd551883f54fa8d,,,,,,,,,,,,,,,,,,,,,,,,,,,18,,,,,,,,,,,,,,,,,,,,,,,,,,,,,,,,,,,,,,,,,,,,539.1114,542.5091,strongly disagree,0,17,17,17,1,"When I was a child, I enjoyed cutting up worms to see what would happen.",1,0,0,1,,
,,,,,,,,,6568b70075a2e3f099a181f2,Spanish,13 or older,"no, only English or Spanish",no,2026-01-21_17h09.08.321,empathy_intonation_perc_control,2024.2.4,MacIntel,57.14285714,6568b70075a2e3f099a181f2,69712dc693a3960bdb483245,69714e580bd551883f54fa8d,,,,,,,,,,,,,,,,,,,,,,,,,,,19,,,,,,,,,,,,,,,,,,,,,,,,,,,,,,,,,,,,,,,,,,,,542.5109,549.1929,strongly agree,0,18,18,18,1,I can pick up quickly if someone says one thing but means another.,1,0,1,0,,
,,,,,,,,,6568b70075a2e3f099a181f2,Spanish,13 or older,"no, only English or Spanish",no,2026-01-21_17h09.08.321,empathy_intonation_perc_control,2024.2.4,MacIntel,57.14285714,6568b70075a2e3f099a181f2,69712dc693a3960bdb483245,69714e580bd551883f54fa8d,,,,,,,,,,,,,,,,,,,,,,,,,,,20,,,,,,,,,,,,,,,,,,,,,,,,,,,,,,,,,,,,,,,,,,,,549.1949,552.5431,slightly disagree,0,19,19,19,1,I tend to have very strong opinions about morality.,0,1,0,0,,
,,,,,,,,,6568b70075a2e3f099a181f2,Spanish,13 or older,"no, only English or Spanish",no,2026-01-21_17h09.08.321,empathy_intonation_perc_control,2024.2.4,MacIntel,57.14285714,6568b70075a2e3f099a181f2,69712dc693a3960bdb483245,69714e580bd551883f54fa8d,,,,,,,,,,,,,,,,,,,,,,,,,,,21,,,,,,,,,,,,,,,,,,,,,,,,,,,,,,,,,,,,,,,,,,,,552.5447,555.8423,strongly disagree,0,20,20,20,1,It is hard for me to see why some things upset people so much.,1,0,0,1,,
,,,,,,,,,6568b70075a2e3f099a181f2,Spanish,13 or older,"no, only English or Spanish",no,2026-01-21_17h09.08.321,empathy_intonation_perc_control,2024.2.4,MacIntel,57.14285714,6568b70075a2e3f099a181f2,69712dc693a3960bdb483245,69714e580bd551883f54fa8d,,,,,,,,,,,,,,,,,,,,,,,,,,,22,,,,,,,,,,,,,,,,,,,,,,,,,,,,,,,,,,,,,,,,,,,,555.8433,558.6925,strongly agree,0,21,21,21,1,I find it easy to put myself in somebody else's shoes.,1,0,1,0,,
,,,,,,,,,6568b70075a2e3f099a181f2,Spanish,13 or older,"no, only English or Spanish",no,2026-01-21_17h09.08.321,empathy_intonation_perc_control,2024.2.4,MacIntel,57.14285714,6568b70075a2e3f099a181f2,69712dc693a3960bdb483245,69714e580bd551883f54fa8d,,,,,,,,,,,,,,,,,,,,,,,,,,,23,,,,,,,,,,,,,,,,,,,,,,,,,,,,,,,,,,,,,,,,,,,,558.6942,562.7606,slightly disagree,0,22,22,22,1,I think that good manners are the most important thing a parent can teach their child.,0,1,0,0,,
