instructions_2afc.started,instructions_2afc.stopped,instructions_2afc_loop.thisRepN,instructions_2afc_loop.thisTrialN,instructions_2afc_loop.thisN,instructions_2afc_loop.thisIndex,instructions_2afc_loop.ran,instructions_text,continue_text,participant_id,"What variety of Spanish are you most familiar with? (e.g., Peruvian, Spanish, Mexican)",At what age did you begin learning Spanish?,Are you proficient in any languages other than English/Spanish?,"Are you familiar with Caribbean (e.g., Caribbean, Puerto Rican) or Galician Spanish?",date,expName,psychopyVersion,OS,frameRate,id,study_id,session,practice_2afc.started,practice_2afc.stopped,key_resp_2afc_practice.keys,key_resp_2afc_practice.corr,key_resp_2afc_practice.rt,key_resp_2afc_practice.duration,trials_2afc_practice_loop.thisRepN,trials_2afc_practice_loop.thisTrialN,trials_2afc_practice_loop.thisN,trials_2afc_practice_loop.thisIndex,trials_2afc_practice_loop.ran,path,correct_response,check_2afc.started,check_2afc.stopped,trial_2afc.started,trial_2afc.stopped,key_resp_2afc_trial.keys,key_resp_2afc_trial.corr,key_resp_2afc_trial.rt,key_resp_2afc_trial.duration,trials_2afc_loop.thisRepN,trials_2afc_loop.thisTrialN,trials_2afc_loop.thisN,trials_2afc_loop.thisIndex,trials_2afc_loop.ran,item_num,target,variety,instructions_lextale.started,instructions_lextale.stopped,instructions_lextale_loop.thisRepN,instructions_lextale_loop.thisTrialN,instructions_lextale_loop.thisN,instructions_lextale_loop.thisIndex,instructions_lextale_loop.ran,practice_lextale.started,practice_lextale.stopped,key_resp_lextale_practice.keys,key_resp_lextale_practice.corr,key_resp_lextale_practice.rt,key_resp_lextale_practice.duration,practice_feedback_lextale.started,practice_feedback_lextale.stopped,trials_lextale_practice_loop.thisRepN,trials_lextale_practice_loop.thisTrialN,trials_lextale_practice_loop.thisN,trials_lextale_practice_loop.thisIndex,trials_lextale_practice_loop.ran,stim,word,prac_button_real,prac_button_false,check_lextale.started,check_lextale.stopped,trial_lextale.started,trial_lextale.stopped,key_resp_lextale_trial.keys,key_resp_lextale_trial.corr,key_resp_lextale_trial.rt,key_resp_lextale_trial.duration,trials_lextale_loop.thisRepN,trials_lextale_loop.thisTrialN,trials_lextale_loop.thisN,trials_lextale_loop.thisIndex,trials_lextale_loop.ran,button_real,button_false,instructions_eq.started,instructions_eq.stopped,trial_eq.started,trial_eq.stopped,slider_eq_trial.response,trials_eq_loop.thisRepN,trials_eq_loop.thisTrialN,trials_eq_loop.thisN,trials_eq_loop.thisIndex,trials_eq_loop.ran,item,is_test_item,is_distractor,is_agree_score,is_disagree_score,end_exp.started,end_exp.stopped
0.0226,8.1238,0,0,0,0,1,"In the following task you are going to hear a series of utterances. 

  You will decide if the utterances sound like questions or not using your keyboard.", (press the spacebar to continue),6569ecf42ba18f5b855744db,Peruvian,13 or older,"no, only English or Spanish",no,2025-07-24_11h10.17.474,empathy_intonation_perc_control,2024.2.4,Win32,59.88023952,6569ecf42ba18f5b855744db,68817205a84113384fffdfe3,68824af2e5f668216add32a1,,,,,,,,,,,,,,,,,,,,,,,,,,,,,,,,,,,,,,,,,,,,,,,,,,,,,,,,,,,,,,,,,,,,,,,,,,,,,,,,,,,,,
8.1267,16.8866,0,1,1,1,1,"If you believe the utterance is a question, type '1' (for 'yes') and if you do not 
  believe it is a question type '0' (for 'no').

  Let's practice a bit...", (press the spacebar to continue),6569ecf42ba18f5b855744db,Peruvian,13 or older,"no, only English or Spanish",no,2025-07-24_11h10.17.474,empathy_intonation_perc_control,2024.2.4,Win32,59.88023952,6569ecf42ba18f5b855744db,68817205a84113384fffdfe3,68824af2e5f668216add32a1,,,,,,,,,,,,,,,,,,,,,,,,,,,,,,,,,,,,,,,,,,,,,,,,,,,,,,,,,,,,,,,,,,,,,,,,,,,,,,,,,,,,,
,,,,,,,,,6569ecf42ba18f5b855744db,Peruvian,13 or older,"no, only English or Spanish",no,2025-07-24_11h10.17.474,empathy_intonation_perc_control,2024.2.4,Win32,59.88023952,6569ecf42ba18f5b855744db,68817205a84113384fffdfe3,68824af2e5f668216add32a1,16.9011,20.6494,1,0,3.2316,,0,0,0,5,1,./stim/wavs/andalusian_statement_filler_Alberto-nunca-se-afeita.wav,0,,,,,,,,,,,,,,,,,,,,,,,,,,,,,,,,,,,,,,,,,,,,,,,,,,,,,,,,,,,,,,,,,,,,,,,,
,,,,,,,,,6569ecf42ba18f5b855744db,Peruvian,13 or older,"no, only English or Spanish",no,2025-07-24_11h10.17.474,empathy_intonation_perc_control,2024.2.4,Win32,59.88023952,6569ecf42ba18f5b855744db,68817205a84113384fffdfe3,68824af2e5f668216add32a1,20.6516,25.6136,1,1,4.4336,,0,1,1,0,1,./stim/wavs/castilian_question_filler_Mi-esposo-conoce-al-chico.wav,1,,,,,,,,,,,,,,,,,,,,,,,,,,,,,,,,,,,,,,,,,,,,,,,,,,,,,,,,,,,,,,,,,,,,,,,,
,,,,,,,,,6569ecf42ba18f5b855744db,Peruvian,13 or older,"no, only English or Spanish",no,2025-07-24_11h10.17.474,empathy_intonation_perc_control,2024.2.4,Win32,59.88023952,6569ecf42ba18f5b855744db,68817205a84113384fffdfe3,68824af2e5f668216add32a1,25.6145,28.8786,0,1,2.7384,,0,2,2,7,1,./stim/wavs/puertorican_statement_filler_La-nina-pinta-con-su-amiga.wav,0,,,,,,,,,,,,,,,,,,,,,,,,,,,,,,,,,,,,,,,,,,,,,,,,,,,,,,,,,,,,,,,,,,,,,,,,
,,,,,,,,,6569ecf42ba18f5b855744db,Peruvian,13 or older,"no, only English or Spanish",no,2025-07-24_11h10.17.474,empathy_intonation_perc_control,2024.2.4,Win32,59.88023952,6569ecf42ba18f5b855744db,68817205a84113384fffdfe3,68824af2e5f668216add32a1,28.8794,31.1609,0,0,1.7509,,0,3,3,2,1,./stim/wavs/chilean_question_filler_Mi-padre-cantaba-bien.wav,1,,,,,,,,,,,,,,,,,,,,,,,,,,,,,,,,,,,,,,,,,,,,,,,,,,,,,,,,,,,,,,,,,,,,,,,,
,,,,,,,,,6569ecf42ba18f5b855744db,Peruvian,13 or older,"no, only English or Spanish",no,2025-07-24_11h10.17.474,empathy_intonation_perc_control,2024.2.4,Win32,59.88023952,6569ecf42ba18f5b855744db,68817205a84113384fffdfe3,68824af2e5f668216add32a1,31.162,34.1271,0,1,2.4457,,0,4,4,4,1,./stim/wavs/cuban_statement_filler_Cocinabas-por-la-noche.wav,0,,,,,,,,,,,,,,,,,,,,,,,,,,,,,,,,,,,,,,,,,,,,,,,,,,,,,,,,,,,,,,,,,,,,,,,,
,,,,,,,,,6569ecf42ba18f5b855744db,Peruvian,13 or older,"no, only English or Spanish",no,2025-07-24_11h10.17.474,empathy_intonation_perc_control,2024.2.4,Win32,59.88023952,6569ecf42ba18f5b855744db,68817205a84113384fffdfe3,68824af2e5f668216add32a1,34.1281,36.1753,1,1,1.5283,,0,5,5,1,1,./stim/wavs/argentine_question_filler_Mi-vecino-habla-mucho.wav,1,,,,,,,,,,,,,,,,,,,,,,,,,,,,,,,,,,,,,,,,,,,,,,,,,,,,,,,,,,,,,,,,,,,,,,,,
,,,,,,,,,6569ecf42ba18f5b855744db,Peruvian,13 or older,"no, only English or Spanish",no,2025-07-24_11h10.17.474,empathy_intonation_perc_control,2024.2.4,Win32,59.88023952,6569ecf42ba18f5b855744db,68817205a84113384fffdfe3,68824af2e5f668216add32a1,36.1758,39.424,0,1,2.7181,,0,6,6,6,1,./stim/wavs/peruvian_statement_filler_El-nino-habla-con-su-madre.wav,0,,,,,,,,,,,,,,,,,,,,,,,,,,,,,,,,,,,,,,,,,,,,,,,,,,,,,,,,,,,,,,,,,,,,,,,,
,,,,,,,,,6569ecf42ba18f5b855744db,Peruvian,13 or older,"no, only English or Spanish",no,2025-07-24_11h10.17.474,empathy_intonation_perc_control,2024.2.4,Win32,59.88023952,6569ecf42ba18f5b855744db,68817205a84113384fffdfe3,68824af2e5f668216add32a1,39.4246,41.8061,1,1,1.8557,,0,7,7,3,1,./stim/wavs/mexican_question_filler_Felipe-no-tiene-contrasena.wav,1,,,,,,,,,,,,,,,,,,,,,,,,,,,,,,,,,,,,,,,,,,,,,,,,,,,,,,,,,,,,,,,,,,,,,,,,
,,,,,,,,,6569ecf42ba18f5b855744db,Peruvian,13 or older,"no, only English or Spanish",no,2025-07-24_11h10.17.474,empathy_intonation_perc_control,2024.2.4,Win32,59.88023952,6569ecf42ba18f5b855744db,68817205a84113384fffdfe3,68824af2e5f668216add32a1,,,,,,,,,,,,,,41.8066,44.4888,,,,,,,,,,,,,,,,,,,,,,,,,,,,,,,,,,,,,,,,,,,,,,,,,,,,,,,,,,,,,,,,,,,,,,
,,,,,,,,,6569ecf42ba18f5b855744db,Peruvian,13 or older,"no, only English or Spanish",no,2025-07-24_11h10.17.474,empathy_intonation_perc_control,2024.2.4,Win32,59.88023952,6569ecf42ba18f5b855744db,68817205a84113384fffdfe3,68824af2e5f668216add32a1,,,,,,,,,,,,./stim/wavs/mexican_match_declarative-broad-focus_Daniel-iba-a-Bolivia.wav,0,,,44.4993,46.4873,0,1,1.4782,,0,0,0,57,1,58,0,mexican,,,,,,,,,,,,,,,,,,,,,,,,,,,,,,,,,,,,,,,,,,,,,,,,,,,,,,,,
,,,,,,,,,6569ecf42ba18f5b855744db,Peruvian,13 or older,"no, only English or Spanish",no,2025-07-24_11h10.17.474,empathy_intonation_perc_control,2024.2.4,Win32,59.88023952,6569ecf42ba18f5b855744db,68817205a84113384fffdfe3,68824af2e5f668216add32a1,,,,,,,,,,,,./stim/wavs/castilian_mismatch_interrogative-total-yn_La-maestra-vive-en-Paris.wav,1,,,46.4882,49.1029,1,1,2.0904,,0,1,1,24,1,25,0,castilian,,,,,,,,,,,,,,,,,,,,,,,,,,,,,,,,,,,,,,,,,,,,,,,,,,,,,,,,
,,,,,,,,,6569ecf42ba18f5b855744db,Peruvian,13 or older,"no, only English or Spanish",no,2025-07-24_11h10.17.474,empathy_intonation_perc_control,2024.2.4,Win32,59.88023952,6569ecf42ba18f5b855744db,68817205a84113384fffdfe3,68824af2e5f668216add32a1,,,,,,,,,,,,./stim/wavs/mexican_mismatch_declarative-broad-focus_El-bebe-comia-muy-bien.wav,0,,,49.1035,52.2849,1,0,2.6495,,0,2,2,78,1,79,0,mexican,,,,,,,,,,,,,,,,,,,,,,,,,,,,,,,,,,,,,,,,,,,,,,,,,,,,,,,,
,,,,,,,,,6569ecf42ba18f5b855744db,Peruvian,13 or older,"no, only English or Spanish",no,2025-07-24_11h10.17.474,empathy_intonation_perc_control,2024.2.4,Win32,59.88023952,6569ecf42ba18f5b855744db,68817205a84113384fffdfe3,68824af2e5f668216add32a1,,,,,,,,,,,,./stim/wavs/castilian_mismatch_interrogative-total-yn_La-nina-lava-el-plato.wav,1,,,52.2858,54.8334,1,1,2.0169,,0,3,3,25,1,26,0,castilian,,,,,,,,,,,,,,,,,,,,,,,,,,,,,,,,,,,,,,,,,,,,,,,,,,,,,,,,
,,,,,,,,,6569ecf42ba18f5b855744db,Peruvian,13 or older,"no, only English or Spanish",no,2025-07-24_11h10.17.474,empathy_intonation_perc_control,2024.2.4,Win32,59.88023952,6569ecf42ba18f5b855744db,68817205a84113384fffdfe3,68824af2e5f668216add32a1,,,,,,,,,,,,./stim/wavs/mexican_mismatch_declarative-broad-focus_La-maestra-vive-en-Paris.wav,0,,,54.8339,57.0991,0,1,1.743,,0,4,4,80,1,81,0,mexican,,,,,,,,,,,,,,,,,,,,,,,,,,,,,,,,,,,,,,,,,,,,,,,,,,,,,,,,
,,,,,,,,,6569ecf42ba18f5b855744db,Peruvian,13 or older,"no, only English or Spanish",no,2025-07-24_11h10.17.474,empathy_intonation_perc_control,2024.2.4,Win32,59.88023952,6569ecf42ba18f5b855744db,68817205a84113384fffdfe3,68824af2e5f668216add32a1,,,,,,,,,,,,./stim/wavs/cuban_mismatch_declarative-broad-focus_El-bebe-comia-muy-bien.wav,0,,,57.1003,59.1986,0,1,1.5754,,0,5,5,73,1,74,0,cuban,,,,,,,,,,,,,,,,,,,,,,,,,,,,,,,,,,,,,,,,,,,,,,,,,,,,,,,,
,,,,,,,,,6569ecf42ba18f5b855744db,Peruvian,13 or older,"no, only English or Spanish",no,2025-07-24_11h10.17.474,empathy_intonation_perc_control,2024.2.4,Win32,59.88023952,6569ecf42ba18f5b855744db,68817205a84113384fffdfe3,68824af2e5f668216add32a1,,,,,,,,,,,,./stim/wavs/cuban_mismatch_interrogative-total-yn_Mi-novio-viene-del-lago.wav,1,,,59.1995,61.3974,0,0,1.6738,,0,6,6,32,1,33,1,cuban,,,,,,,,,,,,,,,,,,,,,,,,,,,,,,,,,,,,,,,,,,,,,,,,,,,,,,,,
,,,,,,,,,6569ecf42ba18f5b855744db,Peruvian,13 or older,"no, only English or Spanish",no,2025-07-24_11h10.17.474,empathy_intonation_perc_control,2024.2.4,Win32,59.88023952,6569ecf42ba18f5b855744db,68817205a84113384fffdfe3,68824af2e5f668216add32a1,,,,,,,,,,,,./stim/wavs/mexican_match_interrogative-total-yn_David-leia-el-libro.wav,1,,,61.3982,63.4133,1,1,1.4807,,0,7,7,14,1,15,0,mexican,,,,,,,,,,,,,,,,,,,,,,,,,,,,,,,,,,,,,,,,,,,,,,,,,,,,,,,,
,,,,,,,,,6569ecf42ba18f5b855744db,Peruvian,13 or older,"no, only English or Spanish",no,2025-07-24_11h10.17.474,empathy_intonation_perc_control,2024.2.4,Win32,59.88023952,6569ecf42ba18f5b855744db,68817205a84113384fffdfe3,68824af2e5f668216add32a1,,,,,,,,,,,,./stim/wavs/puertorican_match_interrogative-total-yn_Maria-bebe-el-vino.wav,1,,,63.4139,66.0285,0,0,2.0851,,0,8,8,23,1,24,1,puertorican,,,,,,,,,,,,,,,,,,,,,,,,,,,,,,,,,,,,,,,,,,,,,,,,,,,,,,,,
,,,,,,,,,6569ecf42ba18f5b855744db,Peruvian,13 or older,"no, only English or Spanish",no,2025-07-24_11h10.17.474,empathy_intonation_perc_control,2024.2.4,Win32,59.88023952,6569ecf42ba18f5b855744db,68817205a84113384fffdfe3,68824af2e5f668216add32a1,,,,,,,,,,,,./stim/wavs/castilian_match_declarative-broad-focus_Mariano-habla-del-tiempo.wav,0,,,66.0292,68.694,0,1,2.1353,,0,9,9,48,1,49,0,castilian,,,,,,,,,,,,,,,,,,,,,,,,,,,,,,,,,,,,,,,,,,,,,,,,,,,,,,,,
,,,,,,,,,6569ecf42ba18f5b855744db,Peruvian,13 or older,"no, only English or Spanish",no,2025-07-24_11h10.17.474,empathy_intonation_perc_control,2024.2.4,Win32,59.88023952,6569ecf42ba18f5b855744db,68817205a84113384fffdfe3,68824af2e5f668216add32a1,,,,,,,,,,,,./stim/wavs/cuban_match_declarative-broad-focus_Maria-bebe-el-vino.wav,0,,,68.6949,70.7596,0,1,1.5317,,0,10,10,53,1,54,0,cuban,,,,,,,,,,,,,,,,,,,,,,,,,,,,,,,,,,,,,,,,,,,,,,,,,,,,,,,,
,,,,,,,,,6569ecf42ba18f5b855744db,Peruvian,13 or older,"no, only English or Spanish",no,2025-07-24_11h10.17.474,empathy_intonation_perc_control,2024.2.4,Win32,59.88023952,6569ecf42ba18f5b855744db,68817205a84113384fffdfe3,68824af2e5f668216add32a1,,,,,,,,,,,,./stim/wavs/cuban_mismatch_interrogative-total-yn_El-nino-oye-el-rio.wav,1,,,70.7603,72.9088,0,0,1.6184,,0,11,11,30,1,31,1,cuban,,,,,,,,,,,,,,,,,,,,,,,,,,,,,,,,,,,,,,,,,,,,,,,,,,,,,,,,
,,,,,,,,,6569ecf42ba18f5b855744db,Peruvian,13 or older,"no, only English or Spanish",no,2025-07-24_11h10.17.474,empathy_intonation_perc_control,2024.2.4,Win32,59.88023952,6569ecf42ba18f5b855744db,68817205a84113384fffdfe3,68824af2e5f668216add32a1,,,,,,,,,,,,./stim/wavs/puertorican_match_declarative-broad-focus_Emilio-ama-la-marcha.wav,0,,,72.9095,75.0243,0,1,1.5951,,0,12,12,65,1,66,0,puertorican,,,,,,,,,,,,,,,,,,,,,,,,,,,,,,,,,,,,,,,,,,,,,,,,,,,,,,,,
,,,,,,,,,6569ecf42ba18f5b855744db,Peruvian,13 or older,"no, only English or Spanish",no,2025-07-24_11h10.17.474,empathy_intonation_perc_control,2024.2.4,Win32,59.88023952,6569ecf42ba18f5b855744db,68817205a84113384fffdfe3,68824af2e5f668216add32a1,,,,,,,,,,,,./stim/wavs/puertorican_match_interrogative-total-yn_Emilio-ama-la-marcha.wav,1,,,75.0249,77.4569,0,0,1.902,,0,13,13,21,1,22,1,puertorican,,,,,,,,,,,,,,,,,,,,,,,,,,,,,,,,,,,,,,,,,,,,,,,,,,,,,,,,
,,,,,,,,,6569ecf42ba18f5b855744db,Peruvian,13 or older,"no, only English or Spanish",no,2025-07-24_11h10.17.474,empathy_intonation_perc_control,2024.2.4,Win32,59.88023952,6569ecf42ba18f5b855744db,68817205a84113384fffdfe3,68824af2e5f668216add32a1,,,,,,,,,,,,./stim/wavs/cuban_match_interrogative-total-yn_Mariano-habla-del-tiempo.wav,1,,,77.4578,80.3393,0,0,2.3514,,0,14,14,10,1,11,1,cuban,,,,,,,,,,,,,,,,,,,,,,,,,,,,,,,,,,,,,,,,,,,,,,,,,,,,,,,,
,,,,,,,,,6569ecf42ba18f5b855744db,Peruvian,13 or older,"no, only English or Spanish",no,2025-07-24_11h10.17.474,empathy_intonation_perc_control,2024.2.4,Win32,59.88023952,6569ecf42ba18f5b855744db,68817205a84113384fffdfe3,68824af2e5f668216add32a1,,,,,,,,,,,,./stim/wavs/cuban_match_declarative-broad-focus_Daniel-iba-a-Bolivia.wav,0,,,80.3402,82.8043,0,1,1.9342,,0,15,15,51,1,52,0,cuban,,,,,,,,,,,,,,,,,,,,,,,,,,,,,,,,,,,,,,,,,,,,,,,,,,,,,,,,
,,,,,,,,,6569ecf42ba18f5b855744db,Peruvian,13 or older,"no, only English or Spanish",no,2025-07-24_11h10.17.474,empathy_intonation_perc_control,2024.2.4,Win32,59.88023952,6569ecf42ba18f5b855744db,68817205a84113384fffdfe3,68824af2e5f668216add32a1,,,,,,,,,,,,./stim/wavs/castilian_mismatch_interrogative-total-yn_Mi-novio-viene-del-lago.wav,1,,,82.8049,85.1367,1,1,1.8017,,0,16,16,27,1,28,0,castilian,,,,,,,,,,,,,,,,,,,,,,,,,,,,,,,,,,,,,,,,,,,,,,,,,,,,,,,,
,,,,,,,,,6569ecf42ba18f5b855744db,Peruvian,13 or older,"no, only English or Spanish",no,2025-07-24_11h10.17.474,empathy_intonation_perc_control,2024.2.4,Win32,59.88023952,6569ecf42ba18f5b855744db,68817205a84113384fffdfe3,68824af2e5f668216add32a1,,,,,,,,,,,,./stim/wavs/puertorican_mismatch_interrogative-total-yn_La-maestra-vive-en-Paris.wav,1,,,85.1371,87.5522,0,0,1.891,,0,17,17,41,1,42,1,puertorican,,,,,,,,,,,,,,,,,,,,,,,,,,,,,,,,,,,,,,,,,,,,,,,,,,,,,,,,
,,,,,,,,,6569ecf42ba18f5b855744db,Peruvian,13 or older,"no, only English or Spanish",no,2025-07-24_11h10.17.474,empathy_intonation_perc_control,2024.2.4,Win32,59.88023952,6569ecf42ba18f5b855744db,68817205a84113384fffdfe3,68824af2e5f668216add32a1,,,,,,,,,,,,./stim/wavs/castilian_mismatch_interrogative-total-yn_Mi-tia-odia-la-lluvia.wav,1,,,87.5527,89.7346,1,1,1.6508,,0,18,18,28,1,29,0,castilian,,,,,,,,,,,,,,,,,,,,,,,,,,,,,,,,,,,,,,,,,,,,,,,,,,,,,,,,
,,,,,,,,,6569ecf42ba18f5b855744db,Peruvian,13 or older,"no, only English or Spanish",no,2025-07-24_11h10.17.474,empathy_intonation_perc_control,2024.2.4,Win32,59.88023952,6569ecf42ba18f5b855744db,68817205a84113384fffdfe3,68824af2e5f668216add32a1,,,,,,,,,,,,./stim/wavs/cuban_match_declarative-broad-focus_Mariano-habla-del-tiempo.wav,0,,,89.7351,92,0,1,1.7337,,0,19,19,54,1,55,0,cuban,,,,,,,,,,,,,,,,,,,,,,,,,,,,,,,,,,,,,,,,,,,,,,,,,,,,,,,,
,,,,,,,,,6569ecf42ba18f5b855744db,Peruvian,13 or older,"no, only English or Spanish",no,2025-07-24_11h10.17.474,empathy_intonation_perc_control,2024.2.4,Win32,59.88023952,6569ecf42ba18f5b855744db,68817205a84113384fffdfe3,68824af2e5f668216add32a1,,,,,,,,,,,,./stim/wavs/puertorican_match_declarative-broad-focus_Manuela-vende-el-carro.wav,0,,,92.0006,94.2322,0,1,1.7113,,0,20,20,66,1,67,0,puertorican,,,,,,,,,,,,,,,,,,,,,,,,,,,,,,,,,,,,,,,,,,,,,,,,,,,,,,,,
,,,,,,,,,6569ecf42ba18f5b855744db,Peruvian,13 or older,"no, only English or Spanish",no,2025-07-24_11h10.17.474,empathy_intonation_perc_control,2024.2.4,Win32,59.88023952,6569ecf42ba18f5b855744db,68817205a84113384fffdfe3,68824af2e5f668216add32a1,,,,,,,,,,,,./stim/wavs/mexican_match_declarative-broad-focus_David-leia-el-libro.wav,0,,,94.2327,96.2984,0,1,1.5364,,0,21,21,58,1,59,0,mexican,,,,,,,,,,,,,,,,,,,,,,,,,,,,,,,,,,,,,,,,,,,,,,,,,,,,,,,,
,,,,,,,,,6569ecf42ba18f5b855744db,Peruvian,13 or older,"no, only English or Spanish",no,2025-07-24_11h10.17.474,empathy_intonation_perc_control,2024.2.4,Win32,59.88023952,6569ecf42ba18f5b855744db,68817205a84113384fffdfe3,68824af2e5f668216add32a1,,,,,,,,,,,,./stim/wavs/cuban_match_interrogative-total-yn_Marta-abre-el-regalo.wav,1,,,96.2992,98.3973,0,0,1.565,,0,22,22,11,1,12,1,cuban,,,,,,,,,,,,,,,,,,,,,,,,,,,,,,,,,,,,,,,,,,,,,,,,,,,,,,,,
,,,,,,,,,6569ecf42ba18f5b855744db,Peruvian,13 or older,"no, only English or Spanish",no,2025-07-24_11h10.17.474,empathy_intonation_perc_control,2024.2.4,Win32,59.88023952,6569ecf42ba18f5b855744db,68817205a84113384fffdfe3,68824af2e5f668216add32a1,,,,,,,,,,,,./stim/wavs/puertorican_mismatch_interrogative-total-yn_El-hombre-mira-la-luna.wav,1,,,98.3981,101.329,1,1,2.4054,,0,23,23,39,1,40,1,puertorican,,,,,,,,,,,,,,,,,,,,,,,,,,,,,,,,,,,,,,,,,,,,,,,,,,,,,,,,
,,,,,,,,,6569ecf42ba18f5b855744db,Peruvian,13 or older,"no, only English or Spanish",no,2025-07-24_11h10.17.474,empathy_intonation_perc_control,2024.2.4,Win32,59.88023952,6569ecf42ba18f5b855744db,68817205a84113384fffdfe3,68824af2e5f668216add32a1,,,,,,,,,,,,./stim/wavs/castilian_mismatch_declarative-broad-focus_Mi-tia-odia-la-lluvia.wav,0,,,101.3297,103.5448,0,1,1.6901,,0,24,24,72,1,73,0,castilian,,,,,,,,,,,,,,,,,,,,,,,,,,,,,,,,,,,,,,,,,,,,,,,,,,,,,,,,
,,,,,,,,,6569ecf42ba18f5b855744db,Peruvian,13 or older,"no, only English or Spanish",no,2025-07-24_11h10.17.474,empathy_intonation_perc_control,2024.2.4,Win32,59.88023952,6569ecf42ba18f5b855744db,68817205a84113384fffdfe3,68824af2e5f668216add32a1,,,,,,,,,,,,./stim/wavs/puertorican_mismatch_interrogative-total-yn_La-nina-lava-el-plato.wav,1,,,103.5453,106.0272,0,0,1.9555,,0,25,25,42,1,43,1,puertorican,,,,,,,,,,,,,,,,,,,,,,,,,,,,,,,,,,,,,,,,,,,,,,,,,,,,,,,,
,,,,,,,,,6569ecf42ba18f5b855744db,Peruvian,13 or older,"no, only English or Spanish",no,2025-07-24_11h10.17.474,empathy_intonation_perc_control,2024.2.4,Win32,59.88023952,6569ecf42ba18f5b855744db,68817205a84113384fffdfe3,68824af2e5f668216add32a1,,,,,,,,,,,,./stim/wavs/cuban_mismatch_interrogative-total-yn_Mi-madre-come-la-fruta.wav,1,,,106.0281,108.1929,0,0,1.6363,,0,26,26,31,1,32,1,cuban,,,,,,,,,,,,,,,,,,,,,,,,,,,,,,,,,,,,,,,,,,,,,,,,,,,,,,,,
,,,,,,,,,6569ecf42ba18f5b855744db,Peruvian,13 or older,"no, only English or Spanish",no,2025-07-24_11h10.17.474,empathy_intonation_perc_control,2024.2.4,Win32,59.88023952,6569ecf42ba18f5b855744db,68817205a84113384fffdfe3,68824af2e5f668216add32a1,,,,,,,,,,,,./stim/wavs/cuban_match_declarative-broad-focus_Marta-abre-el-regalo.wav,0,,,108.1935,110.2917,0,1,1.5692,,0,27,27,55,1,56,0,cuban,,,,,,,,,,,,,,,,,,,,,,,,,,,,,,,,,,,,,,,,,,,,,,,,,,,,,,,,
,,,,,,,,,6569ecf42ba18f5b855744db,Peruvian,13 or older,"no, only English or Spanish",no,2025-07-24_11h10.17.474,empathy_intonation_perc_control,2024.2.4,Win32,59.88023952,6569ecf42ba18f5b855744db,68817205a84113384fffdfe3,68824af2e5f668216add32a1,,,,,,,,,,,,./stim/wavs/cuban_mismatch_declarative-broad-focus_Mi-novio-viene-del-lago.wav,0,,,110.2922,112.7741,0,1,1.9616,,0,28,28,76,1,77,0,cuban,,,,,,,,,,,,,,,,,,,,,,,,,,,,,,,,,,,,,,,,,,,,,,,,,,,,,,,,
,,,,,,,,,6569ecf42ba18f5b855744db,Peruvian,13 or older,"no, only English or Spanish",no,2025-07-24_11h10.17.474,empathy_intonation_perc_control,2024.2.4,Win32,59.88023952,6569ecf42ba18f5b855744db,68817205a84113384fffdfe3,68824af2e5f668216add32a1,,,,,,,,,,,,./stim/wavs/puertorican_match_interrogative-total-yn_Manuela-vende-el-carro.wav,1,,,112.7748,114.7897,0,0,1.4876,,0,29,29,22,1,23,1,puertorican,,,,,,,,,,,,,,,,,,,,,,,,,,,,,,,,,,,,,,,,,,,,,,,,,,,,,,,,
,,,,,,,,,6569ecf42ba18f5b855744db,Peruvian,13 or older,"no, only English or Spanish",no,2025-07-24_11h10.17.474,empathy_intonation_perc_control,2024.2.4,Win32,59.88023952,6569ecf42ba18f5b855744db,68817205a84113384fffdfe3,68824af2e5f668216add32a1,,,,,,,,,,,,./stim/wavs/castilian_mismatch_declarative-broad-focus_Mi-novio-viene-del-lago.wav,0,,,114.7904,117.5718,0,1,2.2495,,0,30,30,71,1,72,0,castilian,,,,,,,,,,,,,,,,,,,,,,,,,,,,,,,,,,,,,,,,,,,,,,,,,,,,,,,,
,,,,,,,,,6569ecf42ba18f5b855744db,Peruvian,13 or older,"no, only English or Spanish",no,2025-07-24_11h10.17.474,empathy_intonation_perc_control,2024.2.4,Win32,59.88023952,6569ecf42ba18f5b855744db,68817205a84113384fffdfe3,68824af2e5f668216add32a1,,,,,,,,,,,,./stim/wavs/castilian_match_interrogative-total-yn_Emilio-ama-la-marcha.wav,1,,,117.5723,119.9043,1,1,1.7988,,0,31,31,1,1,2,0,castilian,,,,,,,,,,,,,,,,,,,,,,,,,,,,,,,,,,,,,,,,,,,,,,,,,,,,,,,,
,,,,,,,,,6569ecf42ba18f5b855744db,Peruvian,13 or older,"no, only English or Spanish",no,2025-07-24_11h10.17.474,empathy_intonation_perc_control,2024.2.4,Win32,59.88023952,6569ecf42ba18f5b855744db,68817205a84113384fffdfe3,68824af2e5f668216add32a1,,,,,,,,,,,,./stim/wavs/puertorican_mismatch_declarative-broad-focus_El-nino-oye-el-rio.wav,0,,,119.9048,121.9363,0,1,1.5124,,0,32,32,85,1,86,0,puertorican,,,,,,,,,,,,,,,,,,,,,,,,,,,,,,,,,,,,,,,,,,,,,,,,,,,,,,,,
,,,,,,,,,6569ecf42ba18f5b855744db,Peruvian,13 or older,"no, only English or Spanish",no,2025-07-24_11h10.17.474,empathy_intonation_perc_control,2024.2.4,Win32,59.88023952,6569ecf42ba18f5b855744db,68817205a84113384fffdfe3,68824af2e5f668216add32a1,,,,,,,,,,,,./stim/wavs/castilian_match_declarative-broad-focus_David-leia-el-libro.wav,0,,,121.937,124.2189,0,1,1.75,,0,33,33,44,1,45,0,castilian,,,,,,,,,,,,,,,,,,,,,,,,,,,,,,,,,,,,,,,,,,,,,,,,,,,,,,,,
,,,,,,,,,6569ecf42ba18f5b855744db,Peruvian,13 or older,"no, only English or Spanish",no,2025-07-24_11h10.17.474,empathy_intonation_perc_control,2024.2.4,Win32,59.88023952,6569ecf42ba18f5b855744db,68817205a84113384fffdfe3,68824af2e5f668216add32a1,,,,,,,,,,,,./stim/wavs/puertorican_match_interrogative-total-yn_Daniel-iba-a-Bolivia.wav,1,,,124.2196,126.5845,0,0,1.8352,,0,34,34,19,1,20,1,puertorican,,,,,,,,,,,,,,,,,,,,,,,,,,,,,,,,,,,,,,,,,,,,,,,,,,,,,,,,
,,,,,,,,,6569ecf42ba18f5b855744db,Peruvian,13 or older,"no, only English or Spanish",no,2025-07-24_11h10.17.474,empathy_intonation_perc_control,2024.2.4,Win32,59.88023952,6569ecf42ba18f5b855744db,68817205a84113384fffdfe3,68824af2e5f668216add32a1,,,,,,,,,,,,./stim/wavs/mexican_match_interrogative-total-yn_Ana-lleva-el-abrigo.wav,1,,,126.5851,128.9998,1,1,1.8858,,0,35,35,12,1,13,0,mexican,,,,,,,,,,,,,,,,,,,,,,,,,,,,,,,,,,,,,,,,,,,,,,,,,,,,,,,,
,,,,,,,,,6569ecf42ba18f5b855744db,Peruvian,13 or older,"no, only English or Spanish",no,2025-07-24_11h10.17.474,empathy_intonation_perc_control,2024.2.4,Win32,59.88023952,6569ecf42ba18f5b855744db,68817205a84113384fffdfe3,68824af2e5f668216add32a1,,,,,,,,,,,,./stim/wavs/mexican_mismatch_interrogative-total-yn_Mi-novio-viene-del-lago.wav,1,,,129.0005,131.2491,1,1,1.7182,,0,36,36,37,1,38,0,mexican,,,,,,,,,,,,,,,,,,,,,,,,,,,,,,,,,,,,,,,,,,,,,,,,,,,,,,,,
,,,,,,,,,6569ecf42ba18f5b855744db,Peruvian,13 or older,"no, only English or Spanish",no,2025-07-24_11h10.17.474,empathy_intonation_perc_control,2024.2.4,Win32,59.88023952,6569ecf42ba18f5b855744db,68817205a84113384fffdfe3,68824af2e5f668216add32a1,,,,,,,,,,,,./stim/wavs/cuban_mismatch_interrogative-total-yn_El-hombre-mira-la-luna.wav,1,,,131.2502,133.2649,0,0,1.4809,,0,37,37,29,1,30,1,cuban,,,,,,,,,,,,,,,,,,,,,,,,,,,,,,,,,,,,,,,,,,,,,,,,,,,,,,,,
,,,,,,,,,6569ecf42ba18f5b855744db,Peruvian,13 or older,"no, only English or Spanish",no,2025-07-24_11h10.17.474,empathy_intonation_perc_control,2024.2.4,Win32,59.88023952,6569ecf42ba18f5b855744db,68817205a84113384fffdfe3,68824af2e5f668216add32a1,,,,,,,,,,,,./stim/wavs/puertorican_mismatch_declarative-broad-focus_El-bebe-comia-muy-bien.wav,0,,,133.2657,135.947,0,1,2.1511,,0,38,38,83,1,84,0,puertorican,,,,,,,,,,,,,,,,,,,,,,,,,,,,,,,,,,,,,,,,,,,,,,,,,,,,,,,,
,,,,,,,,,6569ecf42ba18f5b855744db,Peruvian,13 or older,"no, only English or Spanish",no,2025-07-24_11h10.17.474,empathy_intonation_perc_control,2024.2.4,Win32,59.88023952,6569ecf42ba18f5b855744db,68817205a84113384fffdfe3,68824af2e5f668216add32a1,,,,,,,,,,,,./stim/wavs/mexican_match_interrogative-total-yn_Daniel-iba-a-Bolivia.wav,1,,,135.9479,138.196,1,1,1.718,,0,39,39,13,1,14,0,mexican,,,,,,,,,,,,,,,,,,,,,,,,,,,,,,,,,,,,,,,,,,,,,,,,,,,,,,,,
,,,,,,,,,6569ecf42ba18f5b855744db,Peruvian,13 or older,"no, only English or Spanish",no,2025-07-24_11h10.17.474,empathy_intonation_perc_control,2024.2.4,Win32,59.88023952,6569ecf42ba18f5b855744db,68817205a84113384fffdfe3,68824af2e5f668216add32a1,,,,,,,,,,,,./stim/wavs/cuban_match_interrogative-total-yn_Daniel-iba-a-Bolivia.wav,1,,,138.1964,140.7282,0,0,2.0012,,0,40,40,7,1,8,1,cuban,,,,,,,,,,,,,,,,,,,,,,,,,,,,,,,,,,,,,,,,,,,,,,,,,,,,,,,,
,,,,,,,,,6569ecf42ba18f5b855744db,Peruvian,13 or older,"no, only English or Spanish",no,2025-07-24_11h10.17.474,empathy_intonation_perc_control,2024.2.4,Win32,59.88023952,6569ecf42ba18f5b855744db,68817205a84113384fffdfe3,68824af2e5f668216add32a1,,,,,,,,,,,,./stim/wavs/cuban_match_declarative-broad-focus_Ana-lleva-el-abrigo.wav,0,,,140.7291,143.1603,0,1,1.9054,,0,41,41,50,1,51,0,cuban,,,,,,,,,,,,,,,,,,,,,,,,,,,,,,,,,,,,,,,,,,,,,,,,,,,,,,,,
,,,,,,,,,6569ecf42ba18f5b855744db,Peruvian,13 or older,"no, only English or Spanish",no,2025-07-24_11h10.17.474,empathy_intonation_perc_control,2024.2.4,Win32,59.88023952,6569ecf42ba18f5b855744db,68817205a84113384fffdfe3,68824af2e5f668216add32a1,,,,,,,,,,,,./stim/wavs/castilian_match_interrogative-total-yn_Mariano-habla-del-tiempo.wav,1,,,143.1612,145.3927,1,1,1.7014,,0,42,42,4,1,5,0,castilian,,,,,,,,,,,,,,,,,,,,,,,,,,,,,,,,,,,,,,,,,,,,,,,,,,,,,,,,
,,,,,,,,,6569ecf42ba18f5b855744db,Peruvian,13 or older,"no, only English or Spanish",no,2025-07-24_11h10.17.474,empathy_intonation_perc_control,2024.2.4,Win32,59.88023952,6569ecf42ba18f5b855744db,68817205a84113384fffdfe3,68824af2e5f668216add32a1,,,,,,,,,,,,./stim/wavs/puertorican_match_declarative-broad-focus_Ana-lleva-el-abrigo.wav,0,,,145.3933,147.6251,0,1,1.7013,,0,43,43,62,1,63,0,puertorican,,,,,,,,,,,,,,,,,,,,,,,,,,,,,,,,,,,,,,,,,,,,,,,,,,,,,,,,
,,,,,,,,,6569ecf42ba18f5b855744db,Peruvian,13 or older,"no, only English or Spanish",no,2025-07-24_11h10.17.474,empathy_intonation_perc_control,2024.2.4,Win32,59.88023952,6569ecf42ba18f5b855744db,68817205a84113384fffdfe3,68824af2e5f668216add32a1,,,,,,,,,,,,./stim/wavs/puertorican_mismatch_interrogative-total-yn_Mi-madre-come-la-fruta.wav,1,,,147.6257,149.8573,0,0,1.7112,,0,44,44,43,1,44,1,puertorican,,,,,,,,,,,,,,,,,,,,,,,,,,,,,,,,,,,,,,,,,,,,,,,,,,,,,,,,
,,,,,,,,,6569ecf42ba18f5b855744db,Peruvian,13 or older,"no, only English or Spanish",no,2025-07-24_11h10.17.474,empathy_intonation_perc_control,2024.2.4,Win32,59.88023952,6569ecf42ba18f5b855744db,68817205a84113384fffdfe3,68824af2e5f668216add32a1,,,,,,,,,,,,./stim/wavs/castilian_match_declarative-broad-focus_Emilio-ama-la-marcha.wav,0,,,149.858,152.1564,0,1,1.77,,0,45,45,45,1,46,0,castilian,,,,,,,,,,,,,,,,,,,,,,,,,,,,,,,,,,,,,,,,,,,,,,,,,,,,,,,,
,,,,,,,,,6569ecf42ba18f5b855744db,Peruvian,13 or older,"no, only English or Spanish",no,2025-07-24_11h10.17.474,empathy_intonation_perc_control,2024.2.4,Win32,59.88023952,6569ecf42ba18f5b855744db,68817205a84113384fffdfe3,68824af2e5f668216add32a1,,,,,,,,,,,,./stim/wavs/mexican_mismatch_declarative-broad-focus_Mi-novio-viene-del-lago.wav,0,,,152.1571,154.5553,0,1,1.8681,,0,46,46,81,1,82,0,mexican,,,,,,,,,,,,,,,,,,,,,,,,,,,,,,,,,,,,,,,,,,,,,,,,,,,,,,,,
,,,,,,,,,6569ecf42ba18f5b855744db,Peruvian,13 or older,"no, only English or Spanish",no,2025-07-24_11h10.17.474,empathy_intonation_perc_control,2024.2.4,Win32,59.88023952,6569ecf42ba18f5b855744db,68817205a84113384fffdfe3,68824af2e5f668216add32a1,,,,,,,,,,,,./stim/wavs/mexican_mismatch_interrogative-total-yn_El-nino-oye-el-rio.wav,1,,,154.556,156.4878,0,0,1.4034,,0,47,47,35,1,36,0,mexican,,,,,,,,,,,,,,,,,,,,,,,,,,,,,,,,,,,,,,,,,,,,,,,,,,,,,,,,
,,,,,,,,,6569ecf42ba18f5b855744db,Peruvian,13 or older,"no, only English or Spanish",no,2025-07-24_11h10.17.474,empathy_intonation_perc_control,2024.2.4,Win32,59.88023952,6569ecf42ba18f5b855744db,68817205a84113384fffdfe3,68824af2e5f668216add32a1,,,,,,,,,,,,./stim/wavs/mexican_match_interrogative-total-yn_Emilio-ama-la-marcha.wav,1,,,156.4891,158.4867,1,1,1.4773,,0,48,48,15,1,16,0,mexican,,,,,,,,,,,,,,,,,,,,,,,,,,,,,,,,,,,,,,,,,,,,,,,,,,,,,,,,
,,,,,,,,,6569ecf42ba18f5b855744db,Peruvian,13 or older,"no, only English or Spanish",no,2025-07-24_11h10.17.474,empathy_intonation_perc_control,2024.2.4,Win32,59.88023952,6569ecf42ba18f5b855744db,68817205a84113384fffdfe3,68824af2e5f668216add32a1,,,,,,,,,,,,./stim/wavs/castilian_match_declarative-broad-focus_Marta-abre-el-regalo.wav,0,,,158.4871,161.4354,0,1,2.4183,,0,49,49,49,1,50,0,castilian,,,,,,,,,,,,,,,,,,,,,,,,,,,,,,,,,,,,,,,,,,,,,,,,,,,,,,,,
,,,,,,,,,6569ecf42ba18f5b855744db,Peruvian,13 or older,"no, only English or Spanish",no,2025-07-24_11h10.17.474,empathy_intonation_perc_control,2024.2.4,Win32,59.88023952,6569ecf42ba18f5b855744db,68817205a84113384fffdfe3,68824af2e5f668216add32a1,,,,,,,,,,,,./stim/wavs/mexican_mismatch_interrogative-total-yn_La-maestra-vive-en-Paris.wav,1,,,161.4362,164.3842,1,1,2.4174,,0,50,50,36,1,37,0,mexican,,,,,,,,,,,,,,,,,,,,,,,,,,,,,,,,,,,,,,,,,,,,,,,,,,,,,,,,
,,,,,,,,,6569ecf42ba18f5b855744db,Peruvian,13 or older,"no, only English or Spanish",no,2025-07-24_11h10.17.474,empathy_intonation_perc_control,2024.2.4,Win32,59.88023952,6569ecf42ba18f5b855744db,68817205a84113384fffdfe3,68824af2e5f668216add32a1,,,,,,,,,,,,./stim/wavs/cuban_mismatch_interrogative-total-yn_Mi-tia-odia-la-lluvia.wav,1,,,164.3849,167.7826,0,0,2.8688,,0,51,51,33,1,34,1,cuban,,,,,,,,,,,,,,,,,,,,,,,,,,,,,,,,,,,,,,,,,,,,,,,,,,,,,,,,
,,,,,,,,,6569ecf42ba18f5b855744db,Peruvian,13 or older,"no, only English or Spanish",no,2025-07-24_11h10.17.474,empathy_intonation_perc_control,2024.2.4,Win32,59.88023952,6569ecf42ba18f5b855744db,68817205a84113384fffdfe3,68824af2e5f668216add32a1,,,,,,,,,,,,./stim/wavs/cuban_match_interrogative-total-yn_Ana-lleva-el-abrigo.wav,1,,,167.7833,170.2146,0,0,1.9017,,0,52,52,6,1,7,1,cuban,,,,,,,,,,,,,,,,,,,,,,,,,,,,,,,,,,,,,,,,,,,,,,,,,,,,,,,,
,,,,,,,,,6569ecf42ba18f5b855744db,Peruvian,13 or older,"no, only English or Spanish",no,2025-07-24_11h10.17.474,empathy_intonation_perc_control,2024.2.4,Win32,59.88023952,6569ecf42ba18f5b855744db,68817205a84113384fffdfe3,68824af2e5f668216add32a1,,,,,,,,,,,,./stim/wavs/puertorican_match_declarative-broad-focus_David-leia-el-libro.wav,0,,,170.2154,172.7466,0,1,2.0094,,0,53,53,64,1,65,0,puertorican,,,,,,,,,,,,,,,,,,,,,,,,,,,,,,,,,,,,,,,,,,,,,,,,,,,,,,,,
,,,,,,,,,6569ecf42ba18f5b855744db,Peruvian,13 or older,"no, only English or Spanish",no,2025-07-24_11h10.17.474,empathy_intonation_perc_control,2024.2.4,Win32,59.88023952,6569ecf42ba18f5b855744db,68817205a84113384fffdfe3,68824af2e5f668216add32a1,,,,,,,,,,,,./stim/wavs/mexican_match_declarative-broad-focus_Ana-lleva-el-abrigo.wav,0,,,172.7471,174.9628,0,1,1.6942,,0,54,54,56,1,57,0,mexican,,,,,,,,,,,,,,,,,,,,,,,,,,,,,,,,,,,,,,,,,,,,,,,,,,,,,,,,
,,,,,,,,,6569ecf42ba18f5b855744db,Peruvian,13 or older,"no, only English or Spanish",no,2025-07-24_11h10.17.474,empathy_intonation_perc_control,2024.2.4,Win32,59.88023952,6569ecf42ba18f5b855744db,68817205a84113384fffdfe3,68824af2e5f668216add32a1,,,,,,,,,,,,./stim/wavs/castilian_match_declarative-broad-focus_Manuela-vende-el-carro.wav,0,,,174.9633,176.9617,1,0,1.4729,,0,55,55,46,1,47,0,castilian,,,,,,,,,,,,,,,,,,,,,,,,,,,,,,,,,,,,,,,,,,,,,,,,,,,,,,,,
,,,,,,,,,6569ecf42ba18f5b855744db,Peruvian,13 or older,"no, only English or Spanish",no,2025-07-24_11h10.17.474,empathy_intonation_perc_control,2024.2.4,Win32,59.88023952,6569ecf42ba18f5b855744db,68817205a84113384fffdfe3,68824af2e5f668216add32a1,,,,,,,,,,,,./stim/wavs/castilian_mismatch_declarative-broad-focus_La-maestra-vive-en-Paris.wav,0,,,176.9626,179.2941,0,1,1.8044,,0,56,56,69,1,70,0,castilian,,,,,,,,,,,,,,,,,,,,,,,,,,,,,,,,,,,,,,,,,,,,,,,,,,,,,,,,
,,,,,,,,,6569ecf42ba18f5b855744db,Peruvian,13 or older,"no, only English or Spanish",no,2025-07-24_11h10.17.474,empathy_intonation_perc_control,2024.2.4,Win32,59.88023952,6569ecf42ba18f5b855744db,68817205a84113384fffdfe3,68824af2e5f668216add32a1,,,,,,,,,,,,./stim/wavs/mexican_match_declarative-broad-focus_Mariano-habla-del-tiempo.wav,0,,,179.295,182.0093,0,1,2.1918,,0,57,57,60,1,61,0,mexican,,,,,,,,,,,,,,,,,,,,,,,,,,,,,,,,,,,,,,,,,,,,,,,,,,,,,,,,
,,,,,,,,,6569ecf42ba18f5b855744db,Peruvian,13 or older,"no, only English or Spanish",no,2025-07-24_11h10.17.474,empathy_intonation_perc_control,2024.2.4,Win32,59.88023952,6569ecf42ba18f5b855744db,68817205a84113384fffdfe3,68824af2e5f668216add32a1,,,,,,,,,,,,./stim/wavs/mexican_mismatch_declarative-broad-focus_Mi-tia-odia-la-lluvia.wav,0,,,182.0101,184.125,0,1,1.5918,,0,58,58,82,1,83,0,mexican,,,,,,,,,,,,,,,,,,,,,,,,,,,,,,,,,,,,,,,,,,,,,,,,,,,,,,,,
,,,,,,,,,6569ecf42ba18f5b855744db,Peruvian,13 or older,"no, only English or Spanish",no,2025-07-24_11h10.17.474,empathy_intonation_perc_control,2024.2.4,Win32,59.88023952,6569ecf42ba18f5b855744db,68817205a84113384fffdfe3,68824af2e5f668216add32a1,,,,,,,,,,,,./stim/wavs/cuban_match_declarative-broad-focus_Manuela-vende-el-carro.wav,0,,,184.1258,186.5072,0,1,1.8563,,0,59,59,52,1,53,0,cuban,,,,,,,,,,,,,,,,,,,,,,,,,,,,,,,,,,,,,,,,,,,,,,,,,,,,,,,,
,,,,,,,,,6569ecf42ba18f5b855744db,Peruvian,13 or older,"no, only English or Spanish",no,2025-07-24_11h10.17.474,empathy_intonation_perc_control,2024.2.4,Win32,59.88023952,6569ecf42ba18f5b855744db,68817205a84113384fffdfe3,68824af2e5f668216add32a1,,,,,,,,,,,,./stim/wavs/mexican_mismatch_declarative-broad-focus_El-hombre-mira-la-luna.wav,0,,,186.5078,188.8063,0,1,1.7664,,0,60,60,79,1,80,0,mexican,,,,,,,,,,,,,,,,,,,,,,,,,,,,,,,,,,,,,,,,,,,,,,,,,,,,,,,,
,,,,,,,,,6569ecf42ba18f5b855744db,Peruvian,13 or older,"no, only English or Spanish",no,2025-07-24_11h10.17.474,empathy_intonation_perc_control,2024.2.4,Win32,59.88023952,6569ecf42ba18f5b855744db,68817205a84113384fffdfe3,68824af2e5f668216add32a1,,,,,,,,,,,,./stim/wavs/mexican_match_interrogative-total-yn_Marta-abre-el-regalo.wav,1,,,188.8073,190.922,1,1,1.5846,,0,61,61,17,1,18,0,mexican,,,,,,,,,,,,,,,,,,,,,,,,,,,,,,,,,,,,,,,,,,,,,,,,,,,,,,,,
,,,,,,,,,6569ecf42ba18f5b855744db,Peruvian,13 or older,"no, only English or Spanish",no,2025-07-24_11h10.17.474,empathy_intonation_perc_control,2024.2.4,Win32,59.88023952,6569ecf42ba18f5b855744db,68817205a84113384fffdfe3,68824af2e5f668216add32a1,,,,,,,,,,,,./stim/wavs/castilian_mismatch_declarative-broad-focus_La-nina-lava-el-plato.wav,0,,,190.9224,197.5525,0,1,6.1003,,0,62,62,70,1,71,0,castilian,,,,,,,,,,,,,,,,,,,,,,,,,,,,,,,,,,,,,,,,,,,,,,,,,,,,,,,,
,,,,,,,,,6569ecf42ba18f5b855744db,Peruvian,13 or older,"no, only English or Spanish",no,2025-07-24_11h10.17.474,empathy_intonation_perc_control,2024.2.4,Win32,59.88023952,6569ecf42ba18f5b855744db,68817205a84113384fffdfe3,68824af2e5f668216add32a1,,,,,,,,,,,,./stim/wavs/mexican_match_declarative-broad-focus_Marta-abre-el-regalo.wav,0,,,197.5535,203.9994,0,1,5.9204,,0,63,63,61,1,62,0,mexican,,,,,,,,,,,,,,,,,,,,,,,,,,,,,,,,,,,,,,,,,,,,,,,,,,,,,,,,
,,,,,,,,,6569ecf42ba18f5b855744db,Peruvian,13 or older,"no, only English or Spanish",no,2025-07-24_11h10.17.474,empathy_intonation_perc_control,2024.2.4,Win32,59.88023952,6569ecf42ba18f5b855744db,68817205a84113384fffdfe3,68824af2e5f668216add32a1,,,,,,,,,,,,./stim/wavs/mexican_match_interrogative-total-yn_Mariano-habla-del-tiempo.wav,1,,,204.0019,206.0652,0,0,1.5384,,0,64,64,16,1,17,0,mexican,,,,,,,,,,,,,,,,,,,,,,,,,,,,,,,,,,,,,,,,,,,,,,,,,,,,,,,,
,,,,,,,,,6569ecf42ba18f5b855744db,Peruvian,13 or older,"no, only English or Spanish",no,2025-07-24_11h10.17.474,empathy_intonation_perc_control,2024.2.4,Win32,59.88023952,6569ecf42ba18f5b855744db,68817205a84113384fffdfe3,68824af2e5f668216add32a1,,,,,,,,,,,,./stim/wavs/mexican_match_declarative-broad-focus_Emilio-ama-la-marcha.wav,0,,,206.0661,208.2814,0,1,1.6801,,0,65,65,59,1,60,0,mexican,,,,,,,,,,,,,,,,,,,,,,,,,,,,,,,,,,,,,,,,,,,,,,,,,,,,,,,,
,,,,,,,,,6569ecf42ba18f5b855744db,Peruvian,13 or older,"no, only English or Spanish",no,2025-07-24_11h10.17.474,empathy_intonation_perc_control,2024.2.4,Win32,59.88023952,6569ecf42ba18f5b855744db,68817205a84113384fffdfe3,68824af2e5f668216add32a1,,,,,,,,,,,,./stim/wavs/castilian_mismatch_interrogative-total-yn_Mi-madre-come-la-fruta.wav,1,,,208.2833,210.8134,1,1,2.0005,,0,66,66,26,1,27,0,castilian,,,,,,,,,,,,,,,,,,,,,,,,,,,,,,,,,,,,,,,,,,,,,,,,,,,,,,,,
,,,,,,,,,6569ecf42ba18f5b855744db,Peruvian,13 or older,"no, only English or Spanish",no,2025-07-24_11h10.17.474,empathy_intonation_perc_control,2024.2.4,Win32,59.88023952,6569ecf42ba18f5b855744db,68817205a84113384fffdfe3,68824af2e5f668216add32a1,,,,,,,,,,,,./stim/wavs/cuban_mismatch_declarative-broad-focus_Mi-tia-odia-la-lluvia.wav,0,,,210.8153,213.1293,0,1,1.7684,,0,67,67,77,1,78,0,cuban,,,,,,,,,,,,,,,,,,,,,,,,,,,,,,,,,,,,,,,,,,,,,,,,,,,,,,,,
,,,,,,,,,6569ecf42ba18f5b855744db,Peruvian,13 or older,"no, only English or Spanish",no,2025-07-24_11h10.17.474,empathy_intonation_perc_control,2024.2.4,Win32,59.88023952,6569ecf42ba18f5b855744db,68817205a84113384fffdfe3,68824af2e5f668216add32a1,,,,,,,,,,,,./stim/wavs/cuban_match_interrogative-total-yn_Maria-bebe-el-vino.wav,1,,,213.1317,215.1951,0,0,1.5342,,0,68,68,9,1,10,1,cuban,,,,,,,,,,,,,,,,,,,,,,,,,,,,,,,,,,,,,,,,,,,,,,,,,,,,,,,,
,,,,,,,,,6569ecf42ba18f5b855744db,Peruvian,13 or older,"no, only English or Spanish",no,2025-07-24_11h10.17.474,empathy_intonation_perc_control,2024.2.4,Win32,59.88023952,6569ecf42ba18f5b855744db,68817205a84113384fffdfe3,68824af2e5f668216add32a1,,,,,,,,,,,,./stim/wavs/puertorican_match_interrogative-total-yn_Ana-lleva-el-abrigo.wav,1,,,215.197,218.2318,1,1,2.4996,,0,69,69,18,1,19,1,puertorican,,,,,,,,,,,,,,,,,,,,,,,,,,,,,,,,,,,,,,,,,,,,,,,,,,,,,,,,
,,,,,,,,,6569ecf42ba18f5b855744db,Peruvian,13 or older,"no, only English or Spanish",no,2025-07-24_11h10.17.474,empathy_intonation_perc_control,2024.2.4,Win32,59.88023952,6569ecf42ba18f5b855744db,68817205a84113384fffdfe3,68824af2e5f668216add32a1,,,,,,,,,,,,./stim/wavs/puertorican_mismatch_declarative-broad-focus_La-maestra-vive-en-Paris.wav,0,,,218.2323,220.7087,0,1,1.9497,,0,70,70,86,1,87,0,puertorican,,,,,,,,,,,,,,,,,,,,,,,,,,,,,,,,,,,,,,,,,,,,,,,,,,,,,,,,
,,,,,,,,,6569ecf42ba18f5b855744db,Peruvian,13 or older,"no, only English or Spanish",no,2025-07-24_11h10.17.474,empathy_intonation_perc_control,2024.2.4,Win32,59.88023952,6569ecf42ba18f5b855744db,68817205a84113384fffdfe3,68824af2e5f668216add32a1,,,,,,,,,,,,./stim/wavs/cuban_mismatch_declarative-broad-focus_El-hombre-mira-la-luna.wav,0,,,220.7114,222.5915,0,1,1.3556,,0,71,71,74,1,75,0,cuban,,,,,,,,,,,,,,,,,,,,,,,,,,,,,,,,,,,,,,,,,,,,,,,,,,,,,,,,
,,,,,,,,,6569ecf42ba18f5b855744db,Peruvian,13 or older,"no, only English or Spanish",no,2025-07-24_11h10.17.474,empathy_intonation_perc_control,2024.2.4,Win32,59.88023952,6569ecf42ba18f5b855744db,68817205a84113384fffdfe3,68824af2e5f668216add32a1,,,,,,,,,,,,./stim/wavs/mexican_mismatch_interrogative-total-yn_Mi-tia-odia-la-lluvia.wav,1,,,222.5936,224.6606,1,1,1.5487,,0,72,72,38,1,39,0,mexican,,,,,,,,,,,,,,,,,,,,,,,,,,,,,,,,,,,,,,,,,,,,,,,,,,,,,,,,
,,,,,,,,,6569ecf42ba18f5b855744db,Peruvian,13 or older,"no, only English or Spanish",no,2025-07-24_11h10.17.474,empathy_intonation_perc_control,2024.2.4,Win32,59.88023952,6569ecf42ba18f5b855744db,68817205a84113384fffdfe3,68824af2e5f668216add32a1,,,,,,,,,,,,./stim/wavs/castilian_match_interrogative-total-yn_David-leia-el-libro.wav,1,,,224.6613,227.1405,1,1,1.9333,,0,73,73,0,1,1,0,castilian,,,,,,,,,,,,,,,,,,,,,,,,,,,,,,,,,,,,,,,,,,,,,,,,,,,,,,,,
,,,,,,,,,6569ecf42ba18f5b855744db,Peruvian,13 or older,"no, only English or Spanish",no,2025-07-24_11h10.17.474,empathy_intonation_perc_control,2024.2.4,Win32,59.88023952,6569ecf42ba18f5b855744db,68817205a84113384fffdfe3,68824af2e5f668216add32a1,,,,,,,,,,,,./stim/wavs/puertorican_mismatch_declarative-broad-focus_El-hombre-mira-la-luna.wav,0,,,227.142,229.3884,0,1,1.7163,,0,74,74,84,1,85,0,puertorican,,,,,,,,,,,,,,,,,,,,,,,,,,,,,,,,,,,,,,,,,,,,,,,,,,,,,,,,
,,,,,,,,,6569ecf42ba18f5b855744db,Peruvian,13 or older,"no, only English or Spanish",no,2025-07-24_11h10.17.474,empathy_intonation_perc_control,2024.2.4,Win32,59.88023952,6569ecf42ba18f5b855744db,68817205a84113384fffdfe3,68824af2e5f668216add32a1,,,,,,,,,,,,./stim/wavs/puertorican_match_declarative-broad-focus_Daniel-iba-a-Bolivia.wav,0,,,229.3909,231.5909,0,1,1.681,,0,75,75,63,1,64,0,puertorican,,,,,,,,,,,,,,,,,,,,,,,,,,,,,,,,,,,,,,,,,,,,,,,,,,,,,,,,
,,,,,,,,,6569ecf42ba18f5b855744db,Peruvian,13 or older,"no, only English or Spanish",no,2025-07-24_11h10.17.474,empathy_intonation_perc_control,2024.2.4,Win32,59.88023952,6569ecf42ba18f5b855744db,68817205a84113384fffdfe3,68824af2e5f668216add32a1,,,,,,,,,,,,./stim/wavs/puertorican_match_interrogative-total-yn_David-leia-el-libro.wav,1,,,231.5917,233.6531,0,0,1.5368,,0,76,76,20,1,21,1,puertorican,,,,,,,,,,,,,,,,,,,,,,,,,,,,,,,,,,,,,,,,,,,,,,,,,,,,,,,,
,,,,,,,,,6569ecf42ba18f5b855744db,Peruvian,13 or older,"no, only English or Spanish",no,2025-07-24_11h10.17.474,empathy_intonation_perc_control,2024.2.4,Win32,59.88023952,6569ecf42ba18f5b855744db,68817205a84113384fffdfe3,68824af2e5f668216add32a1,,,,,,,,,,,,./stim/wavs/puertorican_mismatch_interrogative-total-yn_El-nino-oye-el-rio.wav,1,,,233.6555,235.7199,0,0,1.5219,,0,77,77,40,1,41,1,puertorican,,,,,,,,,,,,,,,,,,,,,,,,,,,,,,,,,,,,,,,,,,,,,,,,,,,,,,,,
,,,,,,,,,6569ecf42ba18f5b855744db,Peruvian,13 or older,"no, only English or Spanish",no,2025-07-24_11h10.17.474,empathy_intonation_perc_control,2024.2.4,Win32,59.88023952,6569ecf42ba18f5b855744db,68817205a84113384fffdfe3,68824af2e5f668216add32a1,,,,,,,,,,,,./stim/wavs/cuban_mismatch_declarative-broad-focus_La-nina-lava-el-plato.wav,0,,,235.7213,237.7511,1,0,1.5006,,0,78,78,75,1,76,0,cuban,,,,,,,,,,,,,,,,,,,,,,,,,,,,,,,,,,,,,,,,,,,,,,,,,,,,,,,,
,,,,,,,,,6569ecf42ba18f5b855744db,Peruvian,13 or older,"no, only English or Spanish",no,2025-07-24_11h10.17.474,empathy_intonation_perc_control,2024.2.4,Win32,59.88023952,6569ecf42ba18f5b855744db,68817205a84113384fffdfe3,68824af2e5f668216add32a1,,,,,,,,,,,,./stim/wavs/mexican_mismatch_interrogative-total-yn_El-hombre-mira-la-luna.wav,1,,,237.7532,239.9506,1,1,1.6723,,0,79,79,34,1,35,0,mexican,,,,,,,,,,,,,,,,,,,,,,,,,,,,,,,,,,,,,,,,,,,,,,,,,,,,,,,,
,,,,,,,,,6569ecf42ba18f5b855744db,Peruvian,13 or older,"no, only English or Spanish",no,2025-07-24_11h10.17.474,empathy_intonation_perc_control,2024.2.4,Win32,59.88023952,6569ecf42ba18f5b855744db,68817205a84113384fffdfe3,68824af2e5f668216add32a1,,,,,,,,,,,,./stim/wavs/puertorican_mismatch_declarative-broad-focus_La-nina-lava-el-plato.wav,0,,,239.9526,242.4662,0,1,1.9884,,0,80,80,87,1,88,0,puertorican,,,,,,,,,,,,,,,,,,,,,,,,,,,,,,,,,,,,,,,,,,,,,,,,,,,,,,,,
,,,,,,,,,6569ecf42ba18f5b855744db,Peruvian,13 or older,"no, only English or Spanish",no,2025-07-24_11h10.17.474,empathy_intonation_perc_control,2024.2.4,Win32,59.88023952,6569ecf42ba18f5b855744db,68817205a84113384fffdfe3,68824af2e5f668216add32a1,,,,,,,,,,,,./stim/wavs/castilian_mismatch_declarative-broad-focus_El-nino-oye-el-rio.wav,0,,,242.4684,245.4355,0,1,2.4458,,0,81,81,68,1,69,0,castilian,,,,,,,,,,,,,,,,,,,,,,,,,,,,,,,,,,,,,,,,,,,,,,,,,,,,,,,,
,,,,,,,,,6569ecf42ba18f5b855744db,Peruvian,13 or older,"no, only English or Spanish",no,2025-07-24_11h10.17.474,empathy_intonation_perc_control,2024.2.4,Win32,59.88023952,6569ecf42ba18f5b855744db,68817205a84113384fffdfe3,68824af2e5f668216add32a1,,,,,,,,,,,,./stim/wavs/castilian_match_declarative-broad-focus_Maria-bebe-el-vino.wav,0,,,245.4362,247.5998,0,1,1.6475,,0,82,82,47,1,48,0,castilian,,,,,,,,,,,,,,,,,,,,,,,,,,,,,,,,,,,,,,,,,,,,,,,,,,,,,,,,
,,,,,,,,,6569ecf42ba18f5b855744db,Peruvian,13 or older,"no, only English or Spanish",no,2025-07-24_11h10.17.474,empathy_intonation_perc_control,2024.2.4,Win32,59.88023952,6569ecf42ba18f5b855744db,68817205a84113384fffdfe3,68824af2e5f668216add32a1,,,,,,,,,,,,./stim/wavs/castilian_match_interrogative-total-yn_Maria-bebe-el-vino.wav,1,,,247.6003,249.499,0,0,1.3809,,0,83,83,3,1,4,0,castilian,,,,,,,,,,,,,,,,,,,,,,,,,,,,,,,,,,,,,,,,,,,,,,,,,,,,,,,,
,,,,,,,,,6569ecf42ba18f5b855744db,Peruvian,13 or older,"no, only English or Spanish",no,2025-07-24_11h10.17.474,empathy_intonation_perc_control,2024.2.4,Win32,59.88023952,6569ecf42ba18f5b855744db,68817205a84113384fffdfe3,68824af2e5f668216add32a1,,,,,,,,,,,,./stim/wavs/castilian_match_interrogative-total-yn_Manuela-vende-el-carro.wav,1,,,249.4995,251.7996,1,1,1.782,,0,84,84,2,1,3,0,castilian,,,,,,,,,,,,,,,,,,,,,,,,,,,,,,,,,,,,,,,,,,,,,,,,,,,,,,,,
,,,,,,,,,6569ecf42ba18f5b855744db,Peruvian,13 or older,"no, only English or Spanish",no,2025-07-24_11h10.17.474,empathy_intonation_perc_control,2024.2.4,Win32,59.88023952,6569ecf42ba18f5b855744db,68817205a84113384fffdfe3,68824af2e5f668216add32a1,,,,,,,,,,,,./stim/wavs/cuban_match_interrogative-total-yn_Manuela-vende-el-carro.wav,1,,,251.8001,255.5603,0,0,3.2164,,0,85,85,8,1,9,1,cuban,,,,,,,,,,,,,,,,,,,,,,,,,,,,,,,,,,,,,,,,,,,,,,,,,,,,,,,,
,,,,,,,,,6569ecf42ba18f5b855744db,Peruvian,13 or older,"no, only English or Spanish",no,2025-07-24_11h10.17.474,empathy_intonation_perc_control,2024.2.4,Win32,59.88023952,6569ecf42ba18f5b855744db,68817205a84113384fffdfe3,68824af2e5f668216add32a1,,,,,,,,,,,,./stim/wavs/puertorican_match_declarative-broad-focus_Maria-bebe-el-vino.wav,0,,,255.5621,257.6587,1,0,1.5656,,0,86,86,67,1,68,0,puertorican,,,,,,,,,,,,,,,,,,,,,,,,,,,,,,,,,,,,,,,,,,,,,,,,,,,,,,,,
,,,,,,,,,6569ecf42ba18f5b855744db,Peruvian,13 or older,"no, only English or Spanish",no,2025-07-24_11h10.17.474,empathy_intonation_perc_control,2024.2.4,Win32,59.88023952,6569ecf42ba18f5b855744db,68817205a84113384fffdfe3,68824af2e5f668216add32a1,,,,,,,,,,,,./stim/wavs/castilian_match_interrogative-total-yn_Marta-abre-el-regalo.wav,1,,,257.6609,259.8622,1,1,1.6822,,0,87,87,5,1,6,0,castilian,,,,,,,,,,,,,,,,,,,,,,,,,,,,,,,,,,,,,,,,,,,,,,,,,,,,,,,,
,,,,,,,"Great! Now we will move on. The next task consists of about 60 trials, in each of which you will see a string of letters. 
  
  Your task is to decide whether this is a real Spanish word or not.", (press the spacebar to continue),6569ecf42ba18f5b855744db,Peruvian,13 or older,"no, only English or Spanish",no,2025-07-24_11h10.17.474,empathy_intonation_perc_control,2024.2.4,Win32,59.88023952,6569ecf42ba18f5b855744db,68817205a84113384fffdfe3,68824af2e5f668216add32a1,,,,,,,,,,,,,,,,,,,,,,,,,,,,,,259.8699,269.3919,0,0,0,0,1,,,,,,,,,,,,,,,,,,,,,,,,,,,,,,,,,,,,,,,,,,,,,,,,,
,,,,,,,"If you think it is an existing Spanish word, you type '1' (for 'REAL'), and if you think it is not an existing Spanish word, you type '0' (for 'FAKE').", (press the spacebar to continue),6569ecf42ba18f5b855744db,Peruvian,13 or older,"no, only English or Spanish",no,2025-07-24_11h10.17.474,empathy_intonation_perc_control,2024.2.4,Win32,59.88023952,6569ecf42ba18f5b855744db,68817205a84113384fffdfe3,68824af2e5f668216add32a1,,,,,,,,,,,,,,,,,,,,,,,,,,,,,,269.3945,275.0893,0,1,1,1,1,,,,,,,,,,,,,,,,,,,,,,,,,,,,,,,,,,,,,,,,,,,,,,,,,
,,,,,,,"If you are sure that the word exists, even though you don’t know its exact meaning, you may still respond '1' (REAL). 
  
  But if you are not sure if it is an existing word, you should respond '0' (FAKE).
  
  Let's do a practice round...", (press the spacebar to continue),6569ecf42ba18f5b855744db,Peruvian,13 or older,"no, only English or Spanish",no,2025-07-24_11h10.17.474,empathy_intonation_perc_control,2024.2.4,Win32,59.88023952,6569ecf42ba18f5b855744db,68817205a84113384fffdfe3,68824af2e5f668216add32a1,,,,,,,,,,,,,,,,,,,,,,,,,,,,,,275.0915,276.8509,0,2,2,2,1,,,,,,,,,,,,,,,,,,,,,,,,,,,,,,,,,,,,,,,,,,,,,,,,,
,,,,,,,,,6569ecf42ba18f5b855744db,Peruvian,13 or older,"no, only English or Spanish",no,2025-07-24_11h10.17.474,empathy_intonation_perc_control,2024.2.4,Win32,59.88023952,6569ecf42ba18f5b855744db,68817205a84113384fffdfe3,68824af2e5f668216add32a1,,,,,,,,,,,,,0,,,,,,,,,,,,,,,,,,,,,,,,276.8562,280.9825,0,1,3.5869,,280.9838,281.9818,0,0,0,0,1,0,depiste,REAL,FAKE,,,,,,,,,,,,,,,,,,,,,,,,,,,,,,,,
,,,,,,,,,6569ecf42ba18f5b855744db,Peruvian,13 or older,"no, only English or Spanish",no,2025-07-24_11h10.17.474,empathy_intonation_perc_control,2024.2.4,Win32,59.88023952,6569ecf42ba18f5b855744db,68817205a84113384fffdfe3,68824af2e5f668216add32a1,,,,,,,,,,,,,1,,,,,,,,,,,,,,,,,,,,,,,,281.9892,283.5516,1,1,1.0335,,283.5516,284.5505,0,1,1,1,1,0,sí,REAL,FAKE,,,,,,,,,,,,,,,,,,,,,,,,,,,,,,,,
,,,,,,,,,6569ecf42ba18f5b855744db,Peruvian,13 or older,"no, only English or Spanish",no,2025-07-24_11h10.17.474,empathy_intonation_perc_control,2024.2.4,Win32,59.88023952,6569ecf42ba18f5b855744db,68817205a84113384fffdfe3,68824af2e5f668216add32a1,,,,,,,,,,,,,0,,,,,,,,,,,,,,,,,,,,,,,,284.5519,286.2464,1,0,1.152,,286.2489,287.2472,0,2,2,2,1,0,coné,REAL,FAKE,,,,,,,,,,,,,,,,,,,,,,,,,,,,,,,,
,,,,,,,,,6569ecf42ba18f5b855744db,Peruvian,13 or older,"no, only English or Spanish",no,2025-07-24_11h10.17.474,empathy_intonation_perc_control,2024.2.4,Win32,59.88023952,6569ecf42ba18f5b855744db,68817205a84113384fffdfe3,68824af2e5f668216add32a1,,,,,,,,,,,,,0,,,,,,,,,,,,,,,,,,,,,,,,287.2487,288.9493,0,1,1.183,,288.9498,289.9479,0,3,3,3,1,0,calpar,REAL,FAKE,,,,,,,,,,,,,,,,,,,,,,,,,,,,,,,,
,,,,,,,,,6569ecf42ba18f5b855744db,Peruvian,13 or older,"no, only English or Spanish",no,2025-07-24_11h10.17.474,empathy_intonation_perc_control,2024.2.4,Win32,59.88023952,6569ecf42ba18f5b855744db,68817205a84113384fffdfe3,68824af2e5f668216add32a1,,,,,,,,,,,,,0,,,,,,,,,,,,,,,,,,,,,,,,289.9494,292.1437,0,1,1.6529,,292.1439,293.1457,0,4,4,4,1,0,joten,REAL,FAKE,,,,,,,,,,,,,,,,,,,,,,,,,,,,,,,,
,,,,,,,,,6569ecf42ba18f5b855744db,Peruvian,13 or older,"no, only English or Spanish",no,2025-07-24_11h10.17.474,empathy_intonation_perc_control,2024.2.4,Win32,59.88023952,6569ecf42ba18f5b855744db,68817205a84113384fffdfe3,68824af2e5f668216add32a1,,,,,,,,,,,,,1,,,,,,,,,,,,,,,,,,,,,,,,293.1477,295.1606,0,0,1.4789,,295.1621,296.1632,0,5,5,5,1,0,sacapuntas,REAL,FAKE,,,,,,,,,,,,,,,,,,,,,,,,,,,,,,,,
,,,,,,,,,6569ecf42ba18f5b855744db,Peruvian,13 or older,"no, only English or Spanish",no,2025-07-24_11h10.17.474,empathy_intonation_perc_control,2024.2.4,Win32,59.88023952,6569ecf42ba18f5b855744db,68817205a84113384fffdfe3,68824af2e5f668216add32a1,,,,,,,,,,,,,0,,,,,,,,,,,,,,,,,,,,,,,,296.165,297.9289,1,0,1.2333,,297.9289,298.9235,0,6,6,6,1,0,priba,REAL,FAKE,,,,,,,,,,,,,,,,,,,,,,,,,,,,,,,,
,,,,,,,,,6569ecf42ba18f5b855744db,Peruvian,13 or older,"no, only English or Spanish",no,2025-07-24_11h10.17.474,empathy_intonation_perc_control,2024.2.4,Win32,59.88023952,6569ecf42ba18f5b855744db,68817205a84113384fffdfe3,68824af2e5f668216add32a1,,,,,,,,,,,,,0,,,,,,,,,,,,,,,,,,,,,,,,298.926,301.2909,1,0,1.8173,,301.2912,302.2887,0,7,7,7,1,0,pelasula,REAL,FAKE,,,,,,,,,,,,,,,,,,,,,,,,,,,,,,,,
,,,,,,,,,6569ecf42ba18f5b855744db,Peruvian,13 or older,"no, only English or Spanish",no,2025-07-24_11h10.17.474,empathy_intonation_perc_control,2024.2.4,Win32,59.88023952,6569ecf42ba18f5b855744db,68817205a84113384fffdfe3,68824af2e5f668216add32a1,,,,,,,,,,,,,1,,,,,,,,,,,,,,,,,,,,,,,,302.2916,303.5216,1,1,0.6928,,303.5236,304.5218,0,8,8,8,1,0,bien,REAL,FAKE,,,,,,,,,,,,,,,,,,,,,,,,,,,,,,,,
,,,,,,,,,6569ecf42ba18f5b855744db,Peruvian,13 or older,"no, only English or Spanish",no,2025-07-24_11h10.17.474,empathy_intonation_perc_control,2024.2.4,Win32,59.88023952,6569ecf42ba18f5b855744db,68817205a84113384fffdfe3,68824af2e5f668216add32a1,,,,,,,,,,,,,1,,,,,,,,,,,,,,,,,,,,,,,,304.5244,305.9076,1,1,0.8499,,305.9077,306.9032,0,9,9,9,1,0,casa,REAL,FAKE,,,,,,,,,,,,,,,,,,,,,,,,,,,,,,,,
,,,,,,,,,6569ecf42ba18f5b855744db,Peruvian,13 or older,"no, only English or Spanish",no,2025-07-24_11h10.17.474,empathy_intonation_perc_control,2024.2.4,Win32,59.88023952,6569ecf42ba18f5b855744db,68817205a84113384fffdfe3,68824af2e5f668216add32a1,,,,,,,,,,,,,0,,,,,,,,,,,,,,,,,,,,,,,,306.9063,309.5023,1,0,2.0772,,309.5047,310.4922,0,10,10,10,1,0,lejo,REAL,FAKE,,,,,,,,,,,,,,,,,,,,,,,,,,,,,,,,
,,,,,,,,,6569ecf42ba18f5b855744db,Peruvian,13 or older,"no, only English or Spanish",no,2025-07-24_11h10.17.474,empathy_intonation_perc_control,2024.2.4,Win32,59.88023952,6569ecf42ba18f5b855744db,68817205a84113384fffdfe3,68824af2e5f668216add32a1,,,,,,,,,,,,,0,,,,,,,,,,,,,,,,,,,,,,,,310.4957,311.868,1,0,0.8384,,311.8683,312.8676,0,11,11,11,1,0,pretantas,REAL,FAKE,,,,,,,,,,,,,,,,,,,,,,,,,,,,,,,,
,,,,,,,,,6569ecf42ba18f5b855744db,Peruvian,13 or older,"no, only English or Spanish",no,2025-07-24_11h10.17.474,empathy_intonation_perc_control,2024.2.4,Win32,59.88023952,6569ecf42ba18f5b855744db,68817205a84113384fffdfe3,68824af2e5f668216add32a1,,,,,,,,,,,,,,,,,,,,,,,,,,,,,,,,,,,,,,,,,,,,,,,,,,,,,,312.8692,314.0897,,,,,,,,,,,,,,,,,,,,,,,,,,,,,,
,,,,,,,,,6569ecf42ba18f5b855744db,Peruvian,13 or older,"no, only English or Spanish",no,2025-07-24_11h10.17.474,empathy_intonation_perc_control,2024.2.4,Win32,59.88023952,6569ecf42ba18f5b855744db,68817205a84113384fffdfe3,68824af2e5f668216add32a1,,,,,,,,,,,,,1,,,,,,,,,,,,,,,,,,,,,,,,,,,,,,,,,,,,,6,tergiversar,,,,,314.1144,317.0322,0,0,2.3977,,0,0,0,5,1,REAL,FAKE,,,,,,,,,,,,,,,,,
,,,,,,,,,6569ecf42ba18f5b855744db,Peruvian,13 or older,"no, only English or Spanish",no,2025-07-24_11h10.17.474,empathy_intonation_perc_control,2024.2.4,Win32,59.88023952,6569ecf42ba18f5b855744db,68817205a84113384fffdfe3,68824af2e5f668216add32a1,,,,,,,,,,,,,1,,,,,,,,,,,,,,,,,,,,,,,,,,,,,,,,,,,,,44,cuchara,,,,,317.0359,319.9974,1,1,2.4379,,0,1,1,43,1,REAL,FAKE,,,,,,,,,,,,,,,,,
,,,,,,,,,6569ecf42ba18f5b855744db,Peruvian,13 or older,"no, only English or Spanish",no,2025-07-24_11h10.17.474,empathy_intonation_perc_control,2024.2.4,Win32,59.88023952,6569ecf42ba18f5b855744db,68817205a84113384fffdfe3,68824af2e5f668216add32a1,,,,,,,,,,,,,1,,,,,,,,,,,,,,,,,,,,,,,,,,,,,,,,,,,,,61,seda,,,,,319.9995,321.513,1,1,0.9805,,0,2,2,60,1,REAL,FAKE,,,,,,,,,,,,,,,,,
,,,,,,,,,6569ecf42ba18f5b855744db,Peruvian,13 or older,"no, only English or Spanish",no,2025-07-24_11h10.17.474,empathy_intonation_perc_control,2024.2.4,Win32,59.88023952,6569ecf42ba18f5b855744db,68817205a84113384fffdfe3,68824af2e5f668216add32a1,,,,,,,,,,,,,1,,,,,,,,,,,,,,,,,,,,,,,,,,,,,,,,,,,,,90,clavel,,,,,321.5139,323.1315,0,0,1.0833,,0,3,3,89,1,REAL,FAKE,,,,,,,,,,,,,,,,,
,,,,,,,,,6569ecf42ba18f5b855744db,Peruvian,13 or older,"no, only English or Spanish",no,2025-07-24_11h10.17.474,empathy_intonation_perc_control,2024.2.4,Win32,59.88023952,6569ecf42ba18f5b855744db,68817205a84113384fffdfe3,68824af2e5f668216add32a1,,,,,,,,,,,,,0,,,,,,,,,,,,,,,,,,,,,,,,,,,,,,,,,,,,,18,arsa,,,,,323.1342,324.6448,1,0,0.9813,,0,4,4,17,1,REAL,FAKE,,,,,,,,,,,,,,,,,
,,,,,,,,,6569ecf42ba18f5b855744db,Peruvian,13 or older,"no, only English or Spanish",no,2025-07-24_11h10.17.474,empathy_intonation_perc_control,2024.2.4,Win32,59.88023952,6569ecf42ba18f5b855744db,68817205a84113384fffdfe3,68824af2e5f668216add32a1,,,,,,,,,,,,,1,,,,,,,,,,,,,,,,,,,,,,,,,,,,,,,,,,,,,13,helar,,,,,324.6462,326.6774,1,1,1.5011,,0,5,5,12,1,REAL,FAKE,,,,,,,,,,,,,,,,,
,,,,,,,,,6569ecf42ba18f5b855744db,Peruvian,13 or older,"no, only English or Spanish",no,2025-07-24_11h10.17.474,empathy_intonation_perc_control,2024.2.4,Win32,59.88023952,6569ecf42ba18f5b855744db,68817205a84113384fffdfe3,68824af2e5f668216add32a1,,,,,,,,,,,,,1,,,,,,,,,,,,,,,,,,,,,,,,,,,,,,,,,,,,,85,laúd,,,,,326.6805,329.393,0,0,2.1807,,0,6,6,84,1,REAL,FAKE,,,,,,,,,,,,,,,,,
,,,,,,,,,6569ecf42ba18f5b855744db,Peruvian,13 or older,"no, only English or Spanish",no,2025-07-24_11h10.17.474,empathy_intonation_perc_control,2024.2.4,Win32,59.88023952,6569ecf42ba18f5b855744db,68817205a84113384fffdfe3,68824af2e5f668216add32a1,,,,,,,,,,,,,1,,,,,,,,,,,,,,,,,,,,,,,,,,,,,,,,,,,,,76,atar,,,,,329.3952,332.2255,0,0,2.2952,,0,7,7,75,1,REAL,FAKE,,,,,,,,,,,,,,,,,
,,,,,,,,,6569ecf42ba18f5b855744db,Peruvian,13 or older,"no, only English or Spanish",no,2025-07-24_11h10.17.474,empathy_intonation_perc_control,2024.2.4,Win32,59.88023952,6569ecf42ba18f5b855744db,68817205a84113384fffdfe3,68824af2e5f668216add32a1,,,,,,,,,,,,,1,,,,,,,,,,,,,,,,,,,,,,,,,,,,,,,,,,,,,68,alegre,,,,,332.2278,333.4579,0,0,0.6925,,0,8,8,67,1,REAL,FAKE,,,,,,,,,,,,,,,,,
,,,,,,,,,6569ecf42ba18f5b855744db,Peruvian,13 or older,"no, only English or Spanish",no,2025-07-24_11h10.17.474,empathy_intonation_perc_control,2024.2.4,Win32,59.88023952,6569ecf42ba18f5b855744db,68817205a84113384fffdfe3,68824af2e5f668216add32a1,,,,,,,,,,,,,1,,,,,,,,,,,,,,,,,,,,,,,,,,,,,,,,,,,,,5,zapato,,,,,333.461,336.3231,1,1,2.3365,,0,9,9,4,1,REAL,FAKE,,,,,,,,,,,,,,,,,
,,,,,,,,,6569ecf42ba18f5b855744db,Peruvian,13 or older,"no, only English or Spanish",no,2025-07-24_11h10.17.474,empathy_intonation_perc_control,2024.2.4,Win32,59.88023952,6569ecf42ba18f5b855744db,68817205a84113384fffdfe3,68824af2e5f668216add32a1,,,,,,,,,,,,,1,,,,,,,,,,,,,,,,,,,,,,,,,,,,,,,,,,,,,62,flaco,,,,,336.3256,338.0898,1,1,1.2343,,0,10,10,61,1,REAL,FAKE,,,,,,,,,,,,,,,,,
,,,,,,,,,6569ecf42ba18f5b855744db,Peruvian,13 or older,"no, only English or Spanish",no,2025-07-24_11h10.17.474,empathy_intonation_perc_control,2024.2.4,Win32,59.88023952,6569ecf42ba18f5b855744db,68817205a84113384fffdfe3,68824af2e5f668216add32a1,,,,,,,,,,,,,0,,,,,,,,,,,,,,,,,,,,,,,,,,,,,,,,,,,,,79,tropaje,,,,,338.094,340.4415,1,0,1.8236,,0,11,11,78,1,REAL,FAKE,,,,,,,,,,,,,,,,,
,,,,,,,,,6569ecf42ba18f5b855744db,Peruvian,13 or older,"no, only English or Spanish",no,2025-07-24_11h10.17.474,empathy_intonation_perc_control,2024.2.4,Win32,59.88023952,6569ecf42ba18f5b855744db,68817205a84113384fffdfe3,68824af2e5f668216add32a1,,,,,,,,,,,,,1,,,,,,,,,,,,,,,,,,,,,,,,,,,,,,,,,,,,,36,loro,,,,,340.4448,341.9876,1,1,1.013,,0,12,12,35,1,REAL,FAKE,,,,,,,,,,,,,,,,,
,,,,,,,,,6569ecf42ba18f5b855744db,Peruvian,13 or older,"no, only English or Spanish",no,2025-07-24_11h10.17.474,empathy_intonation_perc_control,2024.2.4,Win32,59.88023952,6569ecf42ba18f5b855744db,68817205a84113384fffdfe3,68824af2e5f668216add32a1,,,,,,,,,,,,,1,,,,,,,,,,,,,,,,,,,,,,,,,,,,,,,,,,,,,75,yacer,,,,,341.9919,343.2047,0,0,0.6933,,0,13,13,74,1,REAL,FAKE,,,,,,,,,,,,,,,,,
,,,,,,,,,6569ecf42ba18f5b855744db,Peruvian,13 or older,"no, only English or Spanish",no,2025-07-24_11h10.17.474,empathy_intonation_perc_control,2024.2.4,Win32,59.88023952,6569ecf42ba18f5b855744db,68817205a84113384fffdfe3,68824af2e5f668216add32a1,,,,,,,,,,,,,0,,,,,,,,,,,,,,,,,,,,,,,,,,,,,,,,,,,,,53,vegada,,,,,343.2064,344.7028,1,0,0.9647,,0,14,14,52,1,REAL,FAKE,,,,,,,,,,,,,,,,,
,,,,,,,,,6569ecf42ba18f5b855744db,Peruvian,13 or older,"no, only English or Spanish",no,2025-07-24_11h10.17.474,empathy_intonation_perc_control,2024.2.4,Win32,59.88023952,6569ecf42ba18f5b855744db,68817205a84113384fffdfe3,68824af2e5f668216add32a1,,,,,,,,,,,,,0,,,,,,,,,,,,,,,,,,,,,,,,,,,,,,,,,,,,,66,hacido,,,,,344.7045,346.1854,1,0,0.9494,,0,15,15,65,1,REAL,FAKE,,,,,,,,,,,,,,,,,
,,,,,,,,,6569ecf42ba18f5b855744db,Peruvian,13 or older,"no, only English or Spanish",no,2025-07-24_11h10.17.474,empathy_intonation_perc_control,2024.2.4,Win32,59.88023952,6569ecf42ba18f5b855744db,68817205a84113384fffdfe3,68824af2e5f668216add32a1,,,,,,,,,,,,,0,,,,,,,,,,,,,,,,,,,,,,,,,,,,,,,,,,,,,74,cintro,,,,,346.1867,347.4848,1,0,0.7633,,0,16,16,73,1,REAL,FAKE,,,,,,,,,,,,,,,,,
,,,,,,,,,6569ecf42ba18f5b855744db,Peruvian,13 or older,"no, only English or Spanish",no,2025-07-24_11h10.17.474,empathy_intonation_perc_control,2024.2.4,Win32,59.88023952,6569ecf42ba18f5b855744db,68817205a84113384fffdfe3,68824af2e5f668216add32a1,,,,,,,,,,,,,1,,,,,,,,,,,,,,,,,,,,,,,,,,,,,,,,,,,,,88,acantilado,,,,,347.4863,349.3677,1,1,1.3447,,0,17,17,87,1,REAL,FAKE,,,,,,,,,,,,,,,,,
,,,,,,,,,6569ecf42ba18f5b855744db,Peruvian,13 or older,"no, only English or Spanish",no,2025-07-24_11h10.17.474,empathy_intonation_perc_control,2024.2.4,Win32,59.88023952,6569ecf42ba18f5b855744db,68817205a84113384fffdfe3,68824af2e5f668216add32a1,,,,,,,,,,,,,0,,,,,,,,,,,,,,,,,,,,,,,,,,,,,,,,,,,,,82,empirador,,,,,349.3726,350.9003,1,0,0.9971,,0,18,18,81,1,REAL,FAKE,,,,,,,,,,,,,,,,,
,,,,,,,,,6569ecf42ba18f5b855744db,Peruvian,13 or older,"no, only English or Spanish",no,2025-07-24_11h10.17.474,empathy_intonation_perc_control,2024.2.4,Win32,59.88023952,6569ecf42ba18f5b855744db,68817205a84113384fffdfe3,68824af2e5f668216add32a1,,,,,,,,,,,,,1,,,,,,,,,,,,,,,,,,,,,,,,,,,,,,,,,,,,,7,pésimo,,,,,350.9034,352.3159,1,1,0.8868,,0,19,19,6,1,REAL,FAKE,,,,,,,,,,,,,,,,,
,,,,,,,,,6569ecf42ba18f5b855744db,Peruvian,13 or older,"no, only English or Spanish",no,2025-07-24_11h10.17.474,empathy_intonation_perc_control,2024.2.4,Win32,59.88023952,6569ecf42ba18f5b855744db,68817205a84113384fffdfe3,68824af2e5f668216add32a1,,,,,,,,,,,,,1,,,,,,,,,,,,,,,,,,,,,,,,,,,,,,,,,,,,,25,bisagra,,,,,352.3174,354.4483,0,0,1.5976,,0,20,20,24,1,REAL,FAKE,,,,,,,,,,,,,,,,,
,,,,,,,,,6569ecf42ba18f5b855744db,Peruvian,13 or older,"no, only English or Spanish",no,2025-07-24_11h10.17.474,empathy_intonation_perc_control,2024.2.4,Win32,59.88023952,6569ecf42ba18f5b855744db,68817205a84113384fffdfe3,68824af2e5f668216add32a1,,,,,,,,,,,,,1,,,,,,,,,,,,,,,,,,,,,,,,,,,,,,,,,,,,,56,musgo,,,,,354.4495,355.8642,0,0,0.8848,,0,21,21,55,1,REAL,FAKE,,,,,,,,,,,,,,,,,
,,,,,,,,,6569ecf42ba18f5b855744db,Peruvian,13 or older,"no, only English or Spanish",no,2025-07-24_11h10.17.474,empathy_intonation_perc_control,2024.2.4,Win32,59.88023952,6569ecf42ba18f5b855744db,68817205a84113384fffdfe3,68824af2e5f668216add32a1,,,,,,,,,,,,,0,,,,,,,,,,,,,,,,,,,,,,,,,,,,,,,,,,,,,70,temblo,,,,,355.8659,357.0639,1,0,0.6586,,0,22,22,69,1,REAL,FAKE,,,,,,,,,,,,,,,,,
,,,,,,,,,6569ecf42ba18f5b855744db,Peruvian,13 or older,"no, only English or Spanish",no,2025-07-24_11h10.17.474,empathy_intonation_perc_control,2024.2.4,Win32,59.88023952,6569ecf42ba18f5b855744db,68817205a84113384fffdfe3,68824af2e5f668216add32a1,,,,,,,,,,,,,1,,,,,,,,,,,,,,,,,,,,,,,,,,,,,,,,,,,,,9,hacha,,,,,357.0657,358.3468,1,1,0.7475,,0,23,23,8,1,REAL,FAKE,,,,,,,,,,,,,,,,,
,,,,,,,,,6569ecf42ba18f5b855744db,Peruvian,13 or older,"no, only English or Spanish",no,2025-07-24_11h10.17.474,empathy_intonation_perc_control,2024.2.4,Win32,59.88023952,6569ecf42ba18f5b855744db,68817205a84113384fffdfe3,68824af2e5f668216add32a1,,,,,,,,,,,,,0,,,,,,,,,,,,,,,,,,,,,,,,,,,,,,,,,,,,,4,batillón,,,,,358.3501,361.1118,0,1,2.2294,,0,24,24,3,1,REAL,FAKE,,,,,,,,,,,,,,,,,
,,,,,,,,,6569ecf42ba18f5b855744db,Peruvian,13 or older,"no, only English or Spanish",no,2025-07-24_11h10.17.474,empathy_intonation_perc_control,2024.2.4,Win32,59.88023952,6569ecf42ba18f5b855744db,68817205a84113384fffdfe3,68824af2e5f668216add32a1,,,,,,,,,,,,,1,,,,,,,,,,,,,,,,,,,,,,,,,,,,,,,,,,,,,80,hormiga,,,,,361.1131,363.3944,1,1,1.7482,,0,25,25,79,1,REAL,FAKE,,,,,,,,,,,,,,,,,
,,,,,,,,,6569ecf42ba18f5b855744db,Peruvian,13 or older,"no, only English or Spanish",no,2025-07-24_11h10.17.474,empathy_intonation_perc_control,2024.2.4,Win32,59.88023952,6569ecf42ba18f5b855744db,68817205a84113384fffdfe3,68824af2e5f668216add32a1,,,,,,,,,,,,,1,,,,,,,,,,,,,,,,,,,,,,,,,,,,,,,,,,,,,26,secuestro,,,,,363.3961,364.827,0,0,0.9012,,0,26,26,25,1,REAL,FAKE,,,,,,,,,,,,,,,,,
,,,,,,,,,6569ecf42ba18f5b855744db,Peruvian,13 or older,"no, only English or Spanish",no,2025-07-24_11h10.17.474,empathy_intonation_perc_control,2024.2.4,Win32,59.88023952,6569ecf42ba18f5b855744db,68817205a84113384fffdfe3,68824af2e5f668216add32a1,,,,,,,,,,,,,0,,,,,,,,,,,,,,,,,,,,,,,,,,,,,,,,,,,,,72,pemición,,,,,364.8288,367.4763,1,0,2.1188,,0,27,27,71,1,REAL,FAKE,,,,,,,,,,,,,,,,,
,,,,,,,,,6569ecf42ba18f5b855744db,Peruvian,13 or older,"no, only English or Spanish",no,2025-07-24_11h10.17.474,empathy_intonation_perc_control,2024.2.4,Win32,59.88023952,6569ecf42ba18f5b855744db,68817205a84113384fffdfe3,68824af2e5f668216add32a1,,,,,,,,,,,,,0,,,,,,,,,,,,,,,,,,,,,,,,,,,,,,,,,,,,,29,decar,,,,,367.4792,368.6088,0,1,0.5967,,0,28,28,28,1,REAL,FAKE,,,,,,,,,,,,,,,,,
,,,,,,,,,6569ecf42ba18f5b855744db,Peruvian,13 or older,"no, only English or Spanish",no,2025-07-24_11h10.17.474,empathy_intonation_perc_control,2024.2.4,Win32,59.88023952,6569ecf42ba18f5b855744db,68817205a84113384fffdfe3,68824af2e5f668216add32a1,,,,,,,,,,,,,1,,,,,,,,,,,,,,,,,,,,,,,,,,,,,,,,,,,,,41,rebuscar,,,,,368.6111,369.775,0,0,0.6266,,0,29,29,40,1,REAL,FAKE,,,,,,,,,,,,,,,,,
,,,,,,,,,6569ecf42ba18f5b855744db,Peruvian,13 or older,"no, only English or Spanish",no,2025-07-24_11h10.17.474,empathy_intonation_perc_control,2024.2.4,Win32,59.88023952,6569ecf42ba18f5b855744db,68817205a84113384fffdfe3,68824af2e5f668216add32a1,,,,,,,,,,,,,1,,,,,,,,,,,,,,,,,,,,,,,,,,,,,,,,,,,,,12,asesinato,,,,,369.7774,370.9907,1,1,0.6812,,0,30,30,11,1,REAL,FAKE,,,,,,,,,,,,,,,,,
,,,,,,,,,6569ecf42ba18f5b855744db,Peruvian,13 or older,"no, only English or Spanish",no,2025-07-24_11h10.17.474,empathy_intonation_perc_control,2024.2.4,Win32,59.88023952,6569ecf42ba18f5b855744db,68817205a84113384fffdfe3,68824af2e5f668216add32a1,,,,,,,,,,,,,1,,,,,,,,,,,,,,,,,,,,,,,,,,,,,,,,,,,,,73,hervidor,,,,,370.9931,372.7068,1,1,1.1855,,0,31,31,72,1,REAL,FAKE,,,,,,,,,,,,,,,,,
,,,,,,,,,6569ecf42ba18f5b855744db,Peruvian,13 or older,"no, only English or Spanish",no,2025-07-24_11h10.17.474,empathy_intonation_perc_control,2024.2.4,Win32,59.88023952,6569ecf42ba18f5b855744db,68817205a84113384fffdfe3,68824af2e5f668216add32a1,,,,,,,,,,,,,1,,,,,,,,,,,,,,,,,,,,,,,,,,,,,,,,,,,,,54,fomentar,,,,,372.7088,374.3061,1,1,1.0615,,0,32,32,53,1,REAL,FAKE,,,,,,,,,,,,,,,,,
,,,,,,,,,6569ecf42ba18f5b855744db,Peruvian,13 or older,"no, only English or Spanish",no,2025-07-24_11h10.17.474,empathy_intonation_perc_control,2024.2.4,Win32,59.88023952,6569ecf42ba18f5b855744db,68817205a84113384fffdfe3,68824af2e5f668216add32a1,,,,,,,,,,,,,1,,,,,,,,,,,,,,,,,,,,,,,,,,,,,,,,,,,,,46,martillo,,,,,374.3078,376.1221,1,1,1.2853,,0,33,33,45,1,REAL,FAKE,,,,,,,,,,,,,,,,,
,,,,,,,,,6569ecf42ba18f5b855744db,Peruvian,13 or older,"no, only English or Spanish",no,2025-07-24_11h10.17.474,empathy_intonation_perc_control,2024.2.4,Win32,59.88023952,6569ecf42ba18f5b855744db,68817205a84113384fffdfe3,68824af2e5f668216add32a1,,,,,,,,,,,,,1,,,,,,,,,,,,,,,,,,,,,,,,,,,,,,,,,,,,,2,pellizcar,,,,,376.1243,377.6886,0,0,1.0345,,0,34,34,1,1,REAL,FAKE,,,,,,,,,,,,,,,,,
,,,,,,,,,6569ecf42ba18f5b855744db,Peruvian,13 or older,"no, only English or Spanish",no,2025-07-24_11h10.17.474,empathy_intonation_perc_control,2024.2.4,Win32,59.88023952,6569ecf42ba18f5b855744db,68817205a84113384fffdfe3,68824af2e5f668216add32a1,,,,,,,,,,,,,1,,,,,,,,,,,,,,,,,,,,,,,,,,,,,,,,,,,,,40,alfombra,,,,,377.6906,379.0706,0,0,0.8543,,0,35,35,39,1,REAL,FAKE,,,,,,,,,,,,,,,,,
,,,,,,,,,6569ecf42ba18f5b855744db,Peruvian,13 or older,"no, only English or Spanish",no,2025-07-24_11h10.17.474,empathy_intonation_perc_control,2024.2.4,Win32,59.88023952,6569ecf42ba18f5b855744db,68817205a84113384fffdfe3,68824af2e5f668216add32a1,,,,,,,,,,,,,1,,,,,,,,,,,,,,,,,,,,,,,,,,,,,,,,,,,,,78,frondoso,,,,,379.0724,381.2362,1,1,1.631,,0,36,36,77,1,REAL,FAKE,,,,,,,,,,,,,,,,,
,,,,,,,,,6569ecf42ba18f5b855744db,Peruvian,13 or older,"no, only English or Spanish",no,2025-07-24_11h10.17.474,empathy_intonation_perc_control,2024.2.4,Win32,59.88023952,6569ecf42ba18f5b855744db,68817205a84113384fffdfe3,68824af2e5f668216add32a1,,,,,,,,,,,,,1,,,,,,,,,,,,,,,,,,,,,,,,,,,,,,,,,,,,,89,prisa,,,,,381.2374,382.4519,1,1,0.6863,,0,37,37,88,1,REAL,FAKE,,,,,,,,,,,,,,,,,
,,,,,,,,,6569ecf42ba18f5b855744db,Peruvian,13 or older,"no, only English or Spanish",no,2025-07-24_11h10.17.474,empathy_intonation_perc_control,2024.2.4,Win32,59.88023952,6569ecf42ba18f5b855744db,68817205a84113384fffdfe3,68824af2e5f668216add32a1,,,,,,,,,,,,,1,,,,,,,,,,,,,,,,,,,,,,,,,,,,,,,,,,,,,39,torpe,,,,,382.4529,383.6516,0,0,0.6642,,0,38,38,38,1,REAL,FAKE,,,,,,,,,,,,,,,,,
,,,,,,,,,6569ecf42ba18f5b855744db,Peruvian,13 or older,"no, only English or Spanish",no,2025-07-24_11h10.17.474,empathy_intonation_perc_control,2024.2.4,Win32,59.88023952,6569ecf42ba18f5b855744db,68817205a84113384fffdfe3,68824af2e5f668216add32a1,,,,,,,,,,,,,0,,,,,,,,,,,,,,,,,,,,,,,,,,,,,,,,,,,,,1,terzo,,,,,383.6532,384.9013,0,1,0.7118,,0,39,39,0,1,REAL,FAKE,,,,,,,,,,,,,,,,,
,,,,,,,,,6569ecf42ba18f5b855744db,Peruvian,13 or older,"no, only English or Spanish",no,2025-07-24_11h10.17.474,empathy_intonation_perc_control,2024.2.4,Win32,59.88023952,6569ecf42ba18f5b855744db,68817205a84113384fffdfe3,68824af2e5f668216add32a1,,,,,,,,,,,,,0,,,,,,,,,,,,,,,,,,,,,,,,,,,,,,,,,,,,,19,brecedad,,,,,384.9037,386.3509,0,1,0.9175,,0,40,40,18,1,REAL,FAKE,,,,,,,,,,,,,,,,,
,,,,,,,,,6569ecf42ba18f5b855744db,Peruvian,13 or older,"no, only English or Spanish",no,2025-07-24_11h10.17.474,empathy_intonation_perc_control,2024.2.4,Win32,59.88023952,6569ecf42ba18f5b855744db,68817205a84113384fffdfe3,68824af2e5f668216add32a1,,,,,,,,,,,,,1,,,,,,,,,,,,,,,,,,,,,,,,,,,,,,,,,,,,,48,ladrón,,,,,386.3534,387.7333,0,0,0.8443,,0,41,41,47,1,REAL,FAKE,,,,,,,,,,,,,,,,,
,,,,,,,,,6569ecf42ba18f5b855744db,Peruvian,13 or older,"no, only English or Spanish",no,2025-07-24_11h10.17.474,empathy_intonation_perc_control,2024.2.4,Win32,59.88023952,6569ecf42ba18f5b855744db,68817205a84113384fffdfe3,68824af2e5f668216add32a1,,,,,,,,,,,,,0,,,,,,,,,,,,,,,,,,,,,,,,,,,,,,,,,,,,,32,fatacidad,,,,,387.7351,389.0989,1,0,0.8276,,0,42,42,31,1,REAL,FAKE,,,,,,,,,,,,,,,,,
,,,,,,,,,6569ecf42ba18f5b855744db,Peruvian,13 or older,"no, only English or Spanish",no,2025-07-24_11h10.17.474,empathy_intonation_perc_control,2024.2.4,Win32,59.88023952,6569ecf42ba18f5b855744db,68817205a84113384fffdfe3,68824af2e5f668216add32a1,,,,,,,,,,,,,1,,,,,,,,,,,,,,,,,,,,,,,,,,,,,,,,,,,,,51,candado,,,,,389.0999,390.2655,0,0,0.639,,0,43,43,50,1,REAL,FAKE,,,,,,,,,,,,,,,,,
,,,,,,,,,6569ecf42ba18f5b855744db,Peruvian,13 or older,"no, only English or Spanish",no,2025-07-24_11h10.17.474,empathy_intonation_perc_control,2024.2.4,Win32,59.88023952,6569ecf42ba18f5b855744db,68817205a84113384fffdfe3,68824af2e5f668216add32a1,,,,,,,,,,,,,1,,,,,,,,,,,,,,,,,,,,,,,,,,,,,,,,,,,,,67,cabello,,,,,390.2684,391.6316,1,1,0.8394,,0,44,44,66,1,REAL,FAKE,,,,,,,,,,,,,,,,,
,,,,,,,,,6569ecf42ba18f5b855744db,Peruvian,13 or older,"no, only English or Spanish",no,2025-07-24_11h10.17.474,empathy_intonation_perc_control,2024.2.4,Win32,59.88023952,6569ecf42ba18f5b855744db,68817205a84113384fffdfe3,68824af2e5f668216add32a1,,,,,,,,,,,,,1,,,,,,,,,,,,,,,,,,,,,,,,,,,,,,,,,,,,,24,látigo,,,,,391.6337,392.881,1,1,0.7097,,0,45,45,23,1,REAL,FAKE,,,,,,,,,,,,,,,,,
,,,,,,,,,6569ecf42ba18f5b855744db,Peruvian,13 or older,"no, only English or Spanish",no,2025-07-24_11h10.17.474,empathy_intonation_perc_control,2024.2.4,Win32,59.88023952,6569ecf42ba18f5b855744db,68817205a84113384fffdfe3,68824af2e5f668216add32a1,,,,,,,,,,,,,1,,,,,,,,,,,,,,,,,,,,,,,,,,,,,,,,,,,,,43,canela,,,,,392.8824,394.3307,1,1,0.9138,,0,46,46,42,1,REAL,FAKE,,,,,,,,,,,,,,,,,
,,,,,,,,,6569ecf42ba18f5b855744db,Peruvian,13 or older,"no, only English or Spanish",no,2025-07-24_11h10.17.474,empathy_intonation_perc_control,2024.2.4,Win32,59.88023952,6569ecf42ba18f5b855744db,68817205a84113384fffdfe3,68824af2e5f668216add32a1,,,,,,,,,,,,,1,,,,,,,,,,,,,,,,,,,,,,,,,,,,,,,,,,,,,71,polvoriento,,,,,394.3347,395.6461,1,1,0.7744,,0,47,47,70,1,REAL,FAKE,,,,,,,,,,,,,,,,,
,,,,,,,,,6569ecf42ba18f5b855744db,Peruvian,13 or older,"no, only English or Spanish",no,2025-07-24_11h10.17.474,empathy_intonation_perc_control,2024.2.4,Win32,59.88023952,6569ecf42ba18f5b855744db,68817205a84113384fffdfe3,68824af2e5f668216add32a1,,,,,,,,,,,,,1,,,,,,,,,,,,,,,,,,,,,,,,,,,,,,,,,,,,,34,aviso,,,,,395.647,396.5959,0,0,0.4197,,0,48,48,33,1,REAL,FAKE,,,,,,,,,,,,,,,,,
,,,,,,,,,6569ecf42ba18f5b855744db,Peruvian,13 or older,"no, only English or Spanish",no,2025-07-24_11h10.17.474,empathy_intonation_perc_control,2024.2.4,Win32,59.88023952,6569ecf42ba18f5b855744db,68817205a84113384fffdfe3,68824af2e5f668216add32a1,,,,,,,,,,,,,0,,,,,,,,,,,,,,,,,,,,,,,,,,,,,,,,,,,,,92,click the 0 key.,,,,,396.599,399.078,0,1,1.9422,,0,49,49,91,1,REAL,FAKE,,,,,,,,,,,,,,,,,
,,,,,,,,,6569ecf42ba18f5b855744db,Peruvian,13 or older,"no, only English or Spanish",no,2025-07-24_11h10.17.474,empathy_intonation_perc_control,2024.2.4,Win32,59.88023952,6569ecf42ba18f5b855744db,68817205a84113384fffdfe3,68824af2e5f668216add32a1,,,,,,,,,,,,,0,,,,,,,,,,,,,,,,,,,,,,,,,,,,,,,,,,,,,16,abracer,,,,,399.0796,400.4778,1,0,0.8709,,0,50,50,15,1,REAL,FAKE,,,,,,,,,,,,,,,,,
,,,,,,,,,6569ecf42ba18f5b855744db,Peruvian,13 or older,"no, only English or Spanish",no,2025-07-24_11h10.17.474,empathy_intonation_perc_control,2024.2.4,Win32,59.88023952,6569ecf42ba18f5b855744db,68817205a84113384fffdfe3,68824af2e5f668216add32a1,,,,,,,,,,,,,0,,,,,,,,,,,,,,,,,,,,,,,,,,,,,,,,,,,,,17,floroso,,,,,400.4797,402.3765,1,0,1.3683,,0,51,51,16,1,REAL,FAKE,,,,,,,,,,,,,,,,,
,,,,,,,,,6569ecf42ba18f5b855744db,Peruvian,13 or older,"no, only English or Spanish",no,2025-07-24_11h10.17.474,empathy_intonation_perc_control,2024.2.4,Win32,59.88023952,6569ecf42ba18f5b855744db,68817205a84113384fffdfe3,68824af2e5f668216add32a1,,,,,,,,,,,,,0,,,,,,,,,,,,,,,,,,,,,,,,,,,,,,,,,,,,,50,flamida,,,,,402.3779,403.4761,1,0,0.5633,,0,52,52,49,1,REAL,FAKE,,,,,,,,,,,,,,,,,
,,,,,,,,,6569ecf42ba18f5b855744db,Peruvian,13 or older,"no, only English or Spanish",no,2025-07-24_11h10.17.474,empathy_intonation_perc_control,2024.2.4,Win32,59.88023952,6569ecf42ba18f5b855744db,68817205a84113384fffdfe3,68824af2e5f668216add32a1,,,,,,,,,,,,,0,,,,,,,,,,,,,,,,,,,,,,,,,,,,,,,,,,,,,35,rompido,,,,,403.4778,405.259,0,1,1.2471,,0,53,53,34,1,REAL,FAKE,,,,,,,,,,,,,,,,,
,,,,,,,,,6569ecf42ba18f5b855744db,Peruvian,13 or older,"no, only English or Spanish",no,2025-07-24_11h10.17.474,empathy_intonation_perc_control,2024.2.4,Win32,59.88023952,6569ecf42ba18f5b855744db,68817205a84113384fffdfe3,68824af2e5f668216add32a1,,,,,,,,,,,,,1,,,,,,,,,,,,,,,,,,,,,,,,,,,,,,,,,,,,,11,cenefa,,,,,405.261,406.6411,1,1,0.8513,,0,54,54,10,1,REAL,FAKE,,,,,,,,,,,,,,,,,
,,,,,,,,,6569ecf42ba18f5b855744db,Peruvian,13 or older,"no, only English or Spanish",no,2025-07-24_11h10.17.474,empathy_intonation_perc_control,2024.2.4,Win32,59.88023952,6569ecf42ba18f5b855744db,68817205a84113384fffdfe3,68824af2e5f668216add32a1,,,,,,,,,,,,,1,,,,,,,,,,,,,,,,,,,,,,,,,,,,,,,,,,,,,20,ávido,,,,,406.642,408.9739,1,1,1.7948,,0,55,55,19,1,REAL,FAKE,,,,,,,,,,,,,,,,,
,,,,,,,,,6569ecf42ba18f5b855744db,Peruvian,13 or older,"no, only English or Spanish",no,2025-07-24_11h10.17.474,empathy_intonation_perc_control,2024.2.4,Win32,59.88023952,6569ecf42ba18f5b855744db,68817205a84113384fffdfe3,68824af2e5f668216add32a1,,,,,,,,,,,,,1,,,,,,,,,,,,,,,,,,,,,,,,,,,,,,,,,,,,,64,orgulloso,,,,,408.976,410.1897,0,0,0.6831,,0,56,56,63,1,REAL,FAKE,,,,,,,,,,,,,,,,,
,,,,,,,,,6569ecf42ba18f5b855744db,Peruvian,13 or older,"no, only English or Spanish",no,2025-07-24_11h10.17.474,empathy_intonation_perc_control,2024.2.4,Win32,59.88023952,6569ecf42ba18f5b855744db,68817205a84113384fffdfe3,68824af2e5f668216add32a1,,,,,,,,,,,,,0,,,,,,,,,,,,,,,,,,,,,,,,,,,,,,,,,,,,,8,cadeña,,,,,410.1924,411.3561,0,1,0.6326,,0,57,57,7,1,REAL,FAKE,,,,,,,,,,,,,,,,,
,,,,,,,,,6569ecf42ba18f5b855744db,Peruvian,13 or older,"no, only English or Spanish",no,2025-07-24_11h10.17.474,empathy_intonation_perc_control,2024.2.4,Win32,59.88023952,6569ecf42ba18f5b855744db,68817205a84113384fffdfe3,68824af2e5f668216add32a1,,,,,,,,,,,,,1,,,,,,,,,,,,,,,,,,,,,,,,,,,,,,,,,,,,,69,engatusar,,,,,411.3576,412.7891,0,0,0.9001,,0,58,58,68,1,REAL,FAKE,,,,,,,,,,,,,,,,,
,,,,,,,,,6569ecf42ba18f5b855744db,Peruvian,13 or older,"no, only English or Spanish",no,2025-07-24_11h10.17.474,empathy_intonation_perc_control,2024.2.4,Win32,59.88023952,6569ecf42ba18f5b855744db,68817205a84113384fffdfe3,68824af2e5f668216add32a1,,,,,,,,,,,,,0,,,,,,,,,,,,,,,,,,,,,,,,,,,,,,,,,,,,,47,cartinar,,,,,412.7917,414.2214,0,1,0.9009,,0,59,59,46,1,REAL,FAKE,,,,,,,,,,,,,,,,,
,,,,,,,,,6569ecf42ba18f5b855744db,Peruvian,13 or older,"no, only English or Spanish",no,2025-07-24_11h10.17.474,empathy_intonation_perc_control,2024.2.4,Win32,59.88023952,6569ecf42ba18f5b855744db,68817205a84113384fffdfe3,68824af2e5f668216add32a1,,,,,,,,,,,,,0,,,,,,,,,,,,,,,,,,,,,,,,,,,,,,,,,,,,,21,capillo,,,,,414.223,415.271,1,0,0.5133,,0,60,60,20,1,REAL,FAKE,,,,,,,,,,,,,,,,,
,,,,,,,,,6569ecf42ba18f5b855744db,Peruvian,13 or older,"no, only English or Spanish",no,2025-07-24_11h10.17.474,empathy_intonation_perc_control,2024.2.4,Win32,59.88023952,6569ecf42ba18f5b855744db,68817205a84113384fffdfe3,68824af2e5f668216add32a1,,,,,,,,,,,,,1,,,,,,,,,,,,,,,,,,,,,,,,,,,,,,,,,,,,,86,barato,,,,,415.2727,416.4538,1,1,0.6467,,0,61,61,85,1,REAL,FAKE,,,,,,,,,,,,,,,,,
,,,,,,,,,6569ecf42ba18f5b855744db,Peruvian,13 or older,"no, only English or Spanish",no,2025-07-24_11h10.17.474,empathy_intonation_perc_control,2024.2.4,Win32,59.88023952,6569ecf42ba18f5b855744db,68817205a84113384fffdfe3,68824af2e5f668216add32a1,,,,,,,,,,,,,0,,,,,,,,,,,,,,,,,,,,,,,,,,,,,,,,,,,,,58,plaudir,,,,,416.4561,417.8554,1,0,0.8755,,0,62,62,57,1,REAL,FAKE,,,,,,,,,,,,,,,,,
,,,,,,,,,6569ecf42ba18f5b855744db,Peruvian,13 or older,"no, only English or Spanish",no,2025-07-24_11h10.17.474,empathy_intonation_perc_control,2024.2.4,Win32,59.88023952,6569ecf42ba18f5b855744db,68817205a84113384fffdfe3,68824af2e5f668216add32a1,,,,,,,,,,,,,1,,,,,,,,,,,,,,,,,,,,,,,,,,,,,,,,,,,,,22,lacayo,,,,,417.8582,419.1522,1,1,0.7692,,0,63,63,21,1,REAL,FAKE,,,,,,,,,,,,,,,,,
,,,,,,,,,6569ecf42ba18f5b855744db,Peruvian,13 or older,"no, only English or Spanish",no,2025-07-24_11h10.17.474,empathy_intonation_perc_control,2024.2.4,Win32,59.88023952,6569ecf42ba18f5b855744db,68817205a84113384fffdfe3,68824af2e5f668216add32a1,,,,,,,,,,,,,1,,,,,,,,,,,,,,,,,,,,,,,,,,,,,,,,,,,,,15,regar,,,,,419.1537,420.0351,0,0,0.3498,,0,64,64,14,1,REAL,FAKE,,,,,,,,,,,,,,,,,
,,,,,,,,,6569ecf42ba18f5b855744db,Peruvian,13 or older,"no, only English or Spanish",no,2025-07-24_11h10.17.474,empathy_intonation_perc_control,2024.2.4,Win32,59.88023952,6569ecf42ba18f5b855744db,68817205a84113384fffdfe3,68824af2e5f668216add32a1,,,,,,,,,,,,,1,,,,,,,,,,,,,,,,,,,,,,,,,,,,,,,,,,,,,83,guante,,,,,420.0364,421.3541,1,1,0.788,,0,65,65,82,1,REAL,FAKE,,,,,,,,,,,,,,,,,
,,,,,,,,,6569ecf42ba18f5b855744db,Peruvian,13 or older,"no, only English or Spanish",no,2025-07-24_11h10.17.474,empathy_intonation_perc_control,2024.2.4,Win32,59.88023952,6569ecf42ba18f5b855744db,68817205a84113384fffdfe3,68824af2e5f668216add32a1,,,,,,,,,,,,,1,,,,,,,,,,,,,,,,,,,,,,,,,,,,,,,,,,,,,55,nevar,,,,,421.357,423.6003,0,0,1.7208,,0,66,66,54,1,REAL,FAKE,,,,,,,,,,,,,,,,,
,,,,,,,,,6569ecf42ba18f5b855744db,Peruvian,13 or older,"no, only English or Spanish",no,2025-07-24_11h10.17.474,empathy_intonation_perc_control,2024.2.4,Win32,59.88023952,6569ecf42ba18f5b855744db,68817205a84113384fffdfe3,68824af2e5f668216add32a1,,,,,,,,,,,,,0,,,,,,,,,,,,,,,,,,,,,,,,,,,,,,,,,,,,,87,grodo,,,,,423.6021,424.9172,0,1,0.7782,,0,67,67,86,1,REAL,FAKE,,,,,,,,,,,,,,,,,
,,,,,,,,,6569ecf42ba18f5b855744db,Peruvian,13 or older,"no, only English or Spanish",no,2025-07-24_11h10.17.474,empathy_intonation_perc_control,2024.2.4,Win32,59.88023952,6569ecf42ba18f5b855744db,68817205a84113384fffdfe3,68824af2e5f668216add32a1,,,,,,,,,,,,,1,,,,,,,,,,,,,,,,,,,,,,,,,,,,,,,,,,,,,77,tiburón,,,,,424.9206,426.0823,0,0,0.6362,,0,68,68,76,1,REAL,FAKE,,,,,,,,,,,,,,,,,
,,,,,,,,,6569ecf42ba18f5b855744db,Peruvian,13 or older,"no, only English or Spanish",no,2025-07-24_11h10.17.474,empathy_intonation_perc_control,2024.2.4,Win32,59.88023952,6569ecf42ba18f5b855744db,68817205a84113384fffdfe3,68824af2e5f668216add32a1,,,,,,,,,,,,,0,,,,,,,,,,,,,,,,,,,,,,,,,,,,,,,,,,,,,27,acutación,,,,,426.0836,427.9983,0,1,1.3818,,0,69,69,26,1,REAL,FAKE,,,,,,,,,,,,,,,,,
,,,,,,,,,6569ecf42ba18f5b855744db,Peruvian,13 or older,"no, only English or Spanish",no,2025-07-24_11h10.17.474,empathy_intonation_perc_control,2024.2.4,Win32,59.88023952,6569ecf42ba18f5b855744db,68817205a84113384fffdfe3,68824af2e5f668216add32a1,,,,,,,,,,,,,1,,,,,,,,,,,,,,,,,,,,,,,,,,,,,,,,,,,,,28,merodear,,,,,427.9996,429.631,0,0,1.098,,0,70,70,27,1,REAL,FAKE,,,,,,,,,,,,,,,,,
,,,,,,,,,6569ecf42ba18f5b855744db,Peruvian,13 or older,"no, only English or Spanish",no,2025-07-24_11h10.17.474,empathy_intonation_perc_control,2024.2.4,Win32,59.88023952,6569ecf42ba18f5b855744db,68817205a84113384fffdfe3,68824af2e5f668216add32a1,,,,,,,,,,,,,0,,,,,,,,,,,,,,,,,,,,,,,,,,,,,,,,,,,,,23,lampera,,,,,429.6322,431.2476,1,0,1.0868,,0,71,71,22,1,REAL,FAKE,,,,,,,,,,,,,,,,,
,,,,,,,,,6569ecf42ba18f5b855744db,Peruvian,13 or older,"no, only English or Spanish",no,2025-07-24_11h10.17.474,empathy_intonation_perc_control,2024.2.4,Win32,59.88023952,6569ecf42ba18f5b855744db,68817205a84113384fffdfe3,68824af2e5f668216add32a1,,,,,,,,,,,,,1,,,,,,,,,,,,,,,,,,,,,,,,,,,,,,,,,,,,,60,matar,,,,,431.2505,432.7469,1,1,0.9649,,0,72,72,59,1,REAL,FAKE,,,,,,,,,,,,,,,,,
,,,,,,,,,6569ecf42ba18f5b855744db,Peruvian,13 or older,"no, only English or Spanish",no,2025-07-24_11h10.17.474,empathy_intonation_perc_control,2024.2.4,Win32,59.88023952,6569ecf42ba18f5b855744db,68817205a84113384fffdfe3,68824af2e5f668216add32a1,,,,,,,,,,,,,0,,,,,,,,,,,,,,,,,,,,,,,,,,,,,,,,,,,,,33,pauca,,,,,432.7496,434.6627,1,0,1.3822,,0,73,73,32,1,REAL,FAKE,,,,,,,,,,,,,,,,,
,,,,,,,,,6569ecf42ba18f5b855744db,Peruvian,13 or older,"no, only English or Spanish",no,2025-07-24_11h10.17.474,empathy_intonation_perc_control,2024.2.4,Win32,59.88023952,6569ecf42ba18f5b855744db,68817205a84113384fffdfe3,68824af2e5f668216add32a1,,,,,,,,,,,,,1,,,,,,,,,,,,,,,,,,,,,,,,,,,,,,,,,,,,,91,click the 1 key.,,,,,434.6682,436.1112,1,1,0.9146,,0,74,74,90,1,REAL,FAKE,,,,,,,,,,,,,,,,,
,,,,,,,,,6569ecf42ba18f5b855744db,Peruvian,13 or older,"no, only English or Spanish",no,2025-07-24_11h10.17.474,empathy_intonation_perc_control,2024.2.4,Win32,59.88023952,6569ecf42ba18f5b855744db,68817205a84113384fffdfe3,68824af2e5f668216add32a1,,,,,,,,,,,,,0,,,,,,,,,,,,,,,,,,,,,,,,,,,,,,,,,,,,,10,antar,,,,,436.1126,437.3442,0,1,0.6984,,0,75,75,9,1,REAL,FAKE,,,,,,,,,,,,,,,,,
,,,,,,,,,6569ecf42ba18f5b855744db,Peruvian,13 or older,"no, only English or Spanish",no,2025-07-24_11h10.17.474,empathy_intonation_perc_control,2024.2.4,Win32,59.88023952,6569ecf42ba18f5b855744db,68817205a84113384fffdfe3,68824af2e5f668216add32a1,,,,,,,,,,,,,1,,,,,,,,,,,,,,,,,,,,,,,,,,,,,,,,,,,,,49,ganar,,,,,437.3456,438.6436,0,0,0.7641,,0,76,76,48,1,REAL,FAKE,,,,,,,,,,,,,,,,,
,,,,,,,,,6569ecf42ba18f5b855744db,Peruvian,13 or older,"no, only English or Spanish",no,2025-07-24_11h10.17.474,empathy_intonation_perc_control,2024.2.4,Win32,59.88023952,6569ecf42ba18f5b855744db,68817205a84113384fffdfe3,68824af2e5f668216add32a1,,,,,,,,,,,,,1,,,,,,,,,,,,,,,,,,,,,,,,,,,,,,,,,,,,,65,bizcocho,,,,,438.6454,439.877,0,0,0.6994,,0,77,77,64,1,REAL,FAKE,,,,,,,,,,,,,,,,,
,,,,,,,,,6569ecf42ba18f5b855744db,Peruvian,13 or older,"no, only English or Spanish",no,2025-07-24_11h10.17.474,empathy_intonation_perc_control,2024.2.4,Win32,59.88023952,6569ecf42ba18f5b855744db,68817205a84113384fffdfe3,68824af2e5f668216add32a1,,,,,,,,,,,,,1,,,,,,,,,,,,,,,,,,,,,,,,,,,,,,,,,,,,,31,pandilla,,,,,439.8802,441.4258,1,1,1.009,,0,78,78,30,1,REAL,FAKE,,,,,,,,,,,,,,,,,
,,,,,,,,,6569ecf42ba18f5b855744db,Peruvian,13 or older,"no, only English or Spanish",no,2025-07-24_11h10.17.474,empathy_intonation_perc_control,2024.2.4,Win32,59.88023952,6569ecf42ba18f5b855744db,68817205a84113384fffdfe3,68824af2e5f668216add32a1,,,,,,,,,,,,,1,,,,,,,,,,,,,,,,,,,,,,,,,,,,,,,,,,,,,52,camisa,,,,,441.4266,442.8755,0,0,0.9142,,0,79,79,51,1,REAL,FAKE,,,,,,,,,,,,,,,,,
,,,,,,,,,6569ecf42ba18f5b855744db,Peruvian,13 or older,"no, only English or Spanish",no,2025-07-24_11h10.17.474,empathy_intonation_perc_control,2024.2.4,Win32,59.88023952,6569ecf42ba18f5b855744db,68817205a84113384fffdfe3,68824af2e5f668216add32a1,,,,,,,,,,,,,0,,,,,,,,,,,,,,,,,,,,,,,,,,,,,,,,,,,,,63,esposante,,,,,442.8777,443.9578,1,0,0.5447,,0,80,80,62,1,REAL,FAKE,,,,,,,,,,,,,,,,,
,,,,,,,,,6569ecf42ba18f5b855744db,Peruvian,13 or older,"no, only English or Spanish",no,2025-07-24_11h10.17.474,empathy_intonation_perc_control,2024.2.4,Win32,59.88023952,6569ecf42ba18f5b855744db,68817205a84113384fffdfe3,68824af2e5f668216add32a1,,,,,,,,,,,,,1,,,,,,,,,,,,,,,,,,,,,,,,,,,,,,,,,,,,,3,pulmones,,,,,443.9594,445.3907,0,0,0.8965,,0,81,81,2,1,REAL,FAKE,,,,,,,,,,,,,,,,,
,,,,,,,,,6569ecf42ba18f5b855744db,Peruvian,13 or older,"no, only English or Spanish",no,2025-07-24_11h10.17.474,empathy_intonation_perc_control,2024.2.4,Win32,59.88023952,6569ecf42ba18f5b855744db,68817205a84113384fffdfe3,68824af2e5f668216add32a1,,,,,,,,,,,,,1,,,,,,,,,,,,,,,,,,,,,,,,,,,,,,,,,,,,,57,tacaño,,,,,445.3928,446.7232,1,1,0.7981,,0,82,82,56,1,REAL,FAKE,,,,,,,,,,,,,,,,,
,,,,,,,,,6569ecf42ba18f5b855744db,Peruvian,13 or older,"no, only English or Spanish",no,2025-07-24_11h10.17.474,empathy_intonation_perc_control,2024.2.4,Win32,59.88023952,6569ecf42ba18f5b855744db,68817205a84113384fffdfe3,68824af2e5f668216add32a1,,,,,,,,,,,,,1,,,,,,,,,,,,,,,,,,,,,,,,,,,,,,,,,,,,,59,besar,,,,,446.7253,448.0061,0,0,0.7505,,0,83,83,58,1,REAL,FAKE,,,,,,,,,,,,,,,,,
,,,,,,,,,6569ecf42ba18f5b855744db,Peruvian,13 or older,"no, only English or Spanish",no,2025-07-24_11h10.17.474,empathy_intonation_perc_control,2024.2.4,Win32,59.88023952,6569ecf42ba18f5b855744db,68817205a84113384fffdfe3,68824af2e5f668216add32a1,,,,,,,,,,,,,1,,,,,,,,,,,,,,,,,,,,,,,,,,,,,,,,,,,,,14,yunque,,,,,448.0079,449.1894,0,0,0.6484,,0,84,84,13,1,REAL,FAKE,,,,,,,,,,,,,,,,,
,,,,,,,,,6569ecf42ba18f5b855744db,Peruvian,13 or older,"no, only English or Spanish",no,2025-07-24_11h10.17.474,empathy_intonation_perc_control,2024.2.4,Win32,59.88023952,6569ecf42ba18f5b855744db,68817205a84113384fffdfe3,68824af2e5f668216add32a1,,,,,,,,,,,,,1,,,,,,,,,,,,,,,,,,,,,,,,,,,,,,,,,,,,,45,jilguero,,,,,449.1923,450.9216,1,1,1.1979,,0,85,85,44,1,REAL,FAKE,,,,,,,,,,,,,,,,,
,,,,,,,,,6569ecf42ba18f5b855744db,Peruvian,13 or older,"no, only English or Spanish",no,2025-07-24_11h10.17.474,empathy_intonation_perc_control,2024.2.4,Win32,59.88023952,6569ecf42ba18f5b855744db,68817205a84113384fffdfe3,68824af2e5f668216add32a1,,,,,,,,,,,,,1,,,,,,,,,,,,,,,,,,,,,,,,,,,,,,,,,,,,,81,pozo,,,,,450.9236,453.2207,1,1,1.7641,,0,86,86,80,1,REAL,FAKE,,,,,,,,,,,,,,,,,
,,,,,,,,,6569ecf42ba18f5b855744db,Peruvian,13 or older,"no, only English or Spanish",no,2025-07-24_11h10.17.474,empathy_intonation_perc_control,2024.2.4,Win32,59.88023952,6569ecf42ba18f5b855744db,68817205a84113384fffdfe3,68824af2e5f668216add32a1,,,,,,,,,,,,,0,,,,,,,,,,,,,,,,,,,,,,,,,,,,,,,,,,,,,30,alardio,,,,,453.2227,454.6527,1,0,0.8956,,0,87,87,29,1,REAL,FAKE,,,,,,,,,,,,,,,,,
,,,,,,,,,6569ecf42ba18f5b855744db,Peruvian,13 or older,"no, only English or Spanish",no,2025-07-24_11h10.17.474,empathy_intonation_perc_control,2024.2.4,Win32,59.88023952,6569ecf42ba18f5b855744db,68817205a84113384fffdfe3,68824af2e5f668216add32a1,,,,,,,,,,,,,1,,,,,,,,,,,,,,,,,,,,,,,,,,,,,,,,,,,,,37,granuja,,,,,454.6542,455.8188,1,1,0.6297,,0,88,88,36,1,REAL,FAKE,,,,,,,,,,,,,,,,,
,,,,,,,,,6569ecf42ba18f5b855744db,Peruvian,13 or older,"no, only English or Spanish",no,2025-07-24_11h10.17.474,empathy_intonation_perc_control,2024.2.4,Win32,59.88023952,6569ecf42ba18f5b855744db,68817205a84113384fffdfe3,68824af2e5f668216add32a1,,,,,,,,,,,,,0,,,,,,,,,,,,,,,,,,,,,,,,,,,,,,,,,,,,,84,escuto,,,,,455.8198,459.3184,1,0,2.9683,,0,89,89,83,1,REAL,FAKE,,,,,,,,,,,,,,,,,
,,,,,,,,,6569ecf42ba18f5b855744db,Peruvian,13 or older,"no, only English or Spanish",no,2025-07-24_11h10.17.474,empathy_intonation_perc_control,2024.2.4,Win32,59.88023952,6569ecf42ba18f5b855744db,68817205a84113384fffdfe3,68824af2e5f668216add32a1,,,,,,,,,,,,,0,,,,,,,,,,,,,,,,,,,,,,,,,,,,,,,,,,,,,42,cadallo,,,,,459.3215,460.734,0,1,0.876,,0,90,90,41,1,REAL,FAKE,,,,,,,,,,,,,,,,,
,,,,,,,,,6569ecf42ba18f5b855744db,Peruvian,13 or older,"no, only English or Spanish",no,2025-07-24_11h10.17.474,empathy_intonation_perc_control,2024.2.4,Win32,59.88023952,6569ecf42ba18f5b855744db,68817205a84113384fffdfe3,68824af2e5f668216add32a1,,,,,,,,,,,,,1,,,,,,,,,,,,,,,,,,,,,,,,,,,,,,,,,,,,,38,estornudar,,,,,460.7372,462.1001,1,1,0.8269,,0,91,91,37,1,REAL,FAKE,,,,,,,,,,,,,,,,,
,,,,,,,,,6569ecf42ba18f5b855744db,Peruvian,13 or older,"no, only English or Spanish",no,2025-07-24_11h10.17.474,empathy_intonation_perc_control,2024.2.4,Win32,59.88023952,6569ecf42ba18f5b855744db,68817205a84113384fffdfe3,68824af2e5f668216add32a1,,,,,,,,,,,,,,,,,,,,,,,,,,,,,,,,,,,,,,,,,,,,,,,,,,,,,,,,,,,,,,,,,,,,,462.1013,473.2456,,,,,,,,,,,,,,,
,,,,,,,,,6569ecf42ba18f5b855744db,Peruvian,13 or older,"no, only English or Spanish",no,2025-07-24_11h10.17.474,empathy_intonation_perc_control,2024.2.4,Win32,59.88023952,6569ecf42ba18f5b855744db,68817205a84113384fffdfe3,68824af2e5f668216add32a1,,,,,,,,,,,,,,,,,,,,,,,,,,,1,,,,,,,,,,,,,,,,,,,,,,,,,,,,,,,,,,,,,,,,,,,,473.2621,480.3309,slightly agree,0,0,0,0,1,I can easily tell if someone else wants to enter a conversation.,1,0,1,0,,
,,,,,,,,,6569ecf42ba18f5b855744db,Peruvian,13 or older,"no, only English or Spanish",no,2025-07-24_11h10.17.474,empathy_intonation_perc_control,2024.2.4,Win32,59.88023952,6569ecf42ba18f5b855744db,68817205a84113384fffdfe3,68824af2e5f668216add32a1,,,,,,,,,,,,,,,,,,,,,,,,,,,2,,,,,,,,,,,,,,,,,,,,,,,,,,,,,,,,,,,,,,,,,,,,480.3333,484.0585,slightly agree,0,1,1,1,1,I prefer animals to humans.,0,1,0,0,,
,,,,,,,,,6569ecf42ba18f5b855744db,Peruvian,13 or older,"no, only English or Spanish",no,2025-07-24_11h10.17.474,empathy_intonation_perc_control,2024.2.4,Win32,59.88023952,6569ecf42ba18f5b855744db,68817205a84113384fffdfe3,68824af2e5f668216add32a1,,,,,,,,,,,,,,,,,,,,,,,,,,,3,,,,,,,,,,,,,,,,,,,,,,,,,,,,,,,,,,,,,,,,,,,,484.0607,486.6392,slightly agree,0,2,2,2,1,I try to keep up with the current trends and fashions.,0,1,0,0,,
,,,,,,,,,6569ecf42ba18f5b855744db,Peruvian,13 or older,"no, only English or Spanish",no,2025-07-24_11h10.17.474,empathy_intonation_perc_control,2024.2.4,Win32,59.88023952,6569ecf42ba18f5b855744db,68817205a84113384fffdfe3,68824af2e5f668216add32a1,,,,,,,,,,,,,,,,,,,,,,,,,,,4,,,,,,,,,,,,,,,,,,,,,,,,,,,,,,,,,,,,,,,,,,,,486.6431,489.2221,slightly agree,0,3,3,3,1,"I find it difficult to explain to others things that I understand easily,   when they don't understand it first time.",1,0,0,1,,
,,,,,,,,,6569ecf42ba18f5b855744db,Peruvian,13 or older,"no, only English or Spanish",no,2025-07-24_11h10.17.474,empathy_intonation_perc_control,2024.2.4,Win32,59.88023952,6569ecf42ba18f5b855744db,68817205a84113384fffdfe3,68824af2e5f668216add32a1,,,,,,,,,,,,,,,,,,,,,,,,,,,5,,,,,,,,,,,,,,,,,,,,,,,,,,,,,,,,,,,,,,,,,,,,489.224,492.2586,slightly disagree,0,4,4,4,1,I dream most nights.,0,1,0,0,,
,,,,,,,,,6569ecf42ba18f5b855744db,Peruvian,13 or older,"no, only English or Spanish",no,2025-07-24_11h10.17.474,empathy_intonation_perc_control,2024.2.4,Win32,59.88023952,6569ecf42ba18f5b855744db,68817205a84113384fffdfe3,68824af2e5f668216add32a1,,,,,,,,,,,,,,,,,,,,,,,,,,,6,,,,,,,,,,,,,,,,,,,,,,,,,,,,,,,,,,,,,,,,,,,,492.2596,495.9073,slightly agree,0,5,5,5,1,I really enjoy caring for other people.,1,0,1,0,,
,,,,,,,,,6569ecf42ba18f5b855744db,Peruvian,13 or older,"no, only English or Spanish",no,2025-07-24_11h10.17.474,empathy_intonation_perc_control,2024.2.4,Win32,59.88023952,6569ecf42ba18f5b855744db,68817205a84113384fffdfe3,68824af2e5f668216add32a1,,,,,,,,,,,,,,,,,,,,,,,,,,,7,,,,,,,,,,,,,,,,,,,,,,,,,,,,,,,,,,,,,,,,,,,,495.9089,509.4169,slightly disagree,0,6,6,6,1,I try to solve my own problems rather than discussing them with others.,0,1,0,0,,
,,,,,,,,,6569ecf42ba18f5b855744db,Peruvian,13 or older,"no, only English or Spanish",no,2025-07-24_11h10.17.474,empathy_intonation_perc_control,2024.2.4,Win32,59.88023952,6569ecf42ba18f5b855744db,68817205a84113384fffdfe3,68824af2e5f668216add32a1,,,,,,,,,,,,,,,,,,,,,,,,,,,8,,,,,,,,,,,,,,,,,,,,,,,,,,,,,,,,,,,,,,,,,,,,509.4179,512.7158,slightly agree,0,7,7,7,1,I find it hard to know what to do in a social situation.,1,0,0,1,,
,,,,,,,,,6569ecf42ba18f5b855744db,Peruvian,13 or older,"no, only English or Spanish",no,2025-07-24_11h10.17.474,empathy_intonation_perc_control,2024.2.4,Win32,59.88023952,6569ecf42ba18f5b855744db,68817205a84113384fffdfe3,68824af2e5f668216add32a1,,,,,,,,,,,,,,,,,,,,,,,,,,,9,,,,,,,,,,,,,,,,,,,,,,,,,,,,,,,,,,,,,,,,,,,,512.7166,513.8322,slightly disagree,0,8,8,8,1,I am at my best first thing in the morning.,0,1,0,0,,
,,,,,,,,,6569ecf42ba18f5b855744db,Peruvian,13 or older,"no, only English or Spanish",no,2025-07-24_11h10.17.474,empathy_intonation_perc_control,2024.2.4,Win32,59.88023952,6569ecf42ba18f5b855744db,68817205a84113384fffdfe3,68824af2e5f668216add32a1,,,,,,,,,,,,,,,,,,,,,,,,,,,10,,,,,,,,,,,,,,,,,,,,,,,,,,,,,,,,,,,,,,,,,,,,513.8336,514.9983,slightly disagree,0,9,9,9,1,People often tell me that I went too far in driving my point home in a discussion.,1,0,0,1,,
,,,,,,,,,6569ecf42ba18f5b855744db,Peruvian,13 or older,"no, only English or Spanish",no,2025-07-24_11h10.17.474,empathy_intonation_perc_control,2024.2.4,Win32,59.88023952,6569ecf42ba18f5b855744db,68817205a84113384fffdfe3,68824af2e5f668216add32a1,,,,,,,,,,,,,,,,,,,,,,,,,,,11,,,,,,,,,,,,,,,,,,,,,,,,,,,,,,,,,,,,,,,,,,,,514.9992,516.2479,slightly agree,0,10,10,10,1,It doesn't bother me too much if I am late meeting a friend.,1,0,0,1,,
,,,,,,,,,6569ecf42ba18f5b855744db,Peruvian,13 or older,"no, only English or Spanish",no,2025-07-24_11h10.17.474,empathy_intonation_perc_control,2024.2.4,Win32,59.88023952,6569ecf42ba18f5b855744db,68817205a84113384fffdfe3,68824af2e5f668216add32a1,,,,,,,,,,,,,,,,,,,,,,,,,,,12,,,,,,,,,,,,,,,,,,,,,,,,,,,,,,,,,,,,,,,,,,,,516.2495,518.164,slightly disagree,0,11,11,11,1,"Friendships and relationships are just too difficult, so I tend not to 
  bother with them.",1,0,0,1,,
,,,,,,,,,6569ecf42ba18f5b855744db,Peruvian,13 or older,"no, only English or Spanish",no,2025-07-24_11h10.17.474,empathy_intonation_perc_control,2024.2.4,Win32,59.88023952,6569ecf42ba18f5b855744db,68817205a84113384fffdfe3,68824af2e5f668216add32a1,,,,,,,,,,,,,,,,,,,,,,,,,,,13,,,,,,,,,,,,,,,,,,,,,,,,,,,,,,,,,,,,,,,,,,,,518.165,518.8792,slightly disagree,0,12,12,12,1,"I would never break a law, no matter how minor.",0,1,0,0,,
,,,,,,,,,6569ecf42ba18f5b855744db,Peruvian,13 or older,"no, only English or Spanish",no,2025-07-24_11h10.17.474,empathy_intonation_perc_control,2024.2.4,Win32,59.88023952,6569ecf42ba18f5b855744db,68817205a84113384fffdfe3,68824af2e5f668216add32a1,,,,,,,,,,,,,,,,,,,,,,,,,,,14,,,,,,,,,,,,,,,,,,,,,,,,,,,,,,,,,,,,,,,,,,,,518.8806,519.9121,slightly disagree,0,13,13,13,1,I often find it difficult to judge if something is rude or polite.,1,0,0,1,,
,,,,,,,,,6569ecf42ba18f5b855744db,Peruvian,13 or older,"no, only English or Spanish",no,2025-07-24_11h10.17.474,empathy_intonation_perc_control,2024.2.4,Win32,59.88023952,6569ecf42ba18f5b855744db,68817205a84113384fffdfe3,68824af2e5f668216add32a1,,,,,,,,,,,,,,,,,,,,,,,,,,,15,,,,,,,,,,,,,,,,,,,,,,,,,,,,,,,,,,,,,,,,,,,,519.9135,521.9277,slightly agree,0,14,14,14,1,"In a conversation, I tend to focus on my own thoughts rather than on what 
  my listener might be thinking.",1,0,0,1,,
,,,,,,,,,6569ecf42ba18f5b855744db,Peruvian,13 or older,"no, only English or Spanish",no,2025-07-24_11h10.17.474,empathy_intonation_perc_control,2024.2.4,Win32,59.88023952,6569ecf42ba18f5b855744db,68817205a84113384fffdfe3,68824af2e5f668216add32a1,,,,,,,,,,,,,,,,,,,,,,,,,,,16,,,,,,,,,,,,,,,,,,,,,,,,,,,,,,,,,,,,,,,,,,,,521.9287,523.0441,slightly disagree,0,15,15,15,1,I prefer practical jokes to verbal humor.,0,1,0,0,,
,,,,,,,,,6569ecf42ba18f5b855744db,Peruvian,13 or older,"no, only English or Spanish",no,2025-07-24_11h10.17.474,empathy_intonation_perc_control,2024.2.4,Win32,59.88023952,6569ecf42ba18f5b855744db,68817205a84113384fffdfe3,68824af2e5f668216add32a1,,,,,,,,,,,,,,,,,,,,,,,,,,,17,,,,,,,,,,,,,,,,,,,,,,,,,,,,,,,,,,,,,,,,,,,,523.0454,524.3433,slightly disagree,0,16,16,16,1,I live life for today rather than the future.,0,1,0,0,,
,,,,,,,,,6569ecf42ba18f5b855744db,Peruvian,13 or older,"no, only English or Spanish",no,2025-07-24_11h10.17.474,empathy_intonation_perc_control,2024.2.4,Win32,59.88023952,6569ecf42ba18f5b855744db,68817205a84113384fffdfe3,68824af2e5f668216add32a1,,,,,,,,,,,,,,,,,,,,,,,,,,,18,,,,,,,,,,,,,,,,,,,,,,,,,,,,,,,,,,,,,,,,,,,,524.345,525.0762,slightly disagree,0,17,17,17,1,"When I was a child, I enjoyed cutting up worms to see what would happen.",1,0,0,1,,
,,,,,,,,,6569ecf42ba18f5b855744db,Peruvian,13 or older,"no, only English or Spanish",no,2025-07-24_11h10.17.474,empathy_intonation_perc_control,2024.2.4,Win32,59.88023952,6569ecf42ba18f5b855744db,68817205a84113384fffdfe3,68824af2e5f668216add32a1,,,,,,,,,,,,,,,,,,,,,,,,,,,19,,,,,,,,,,,,,,,,,,,,,,,,,,,,,,,,,,,,,,,,,,,,525.0772,526.526,slightly agree,0,18,18,18,1,I can pick up quickly if someone says one thing but means another.,1,0,1,0,,
,,,,,,,,,6569ecf42ba18f5b855744db,Peruvian,13 or older,"no, only English or Spanish",no,2025-07-24_11h10.17.474,empathy_intonation_perc_control,2024.2.4,Win32,59.88023952,6569ecf42ba18f5b855744db,68817205a84113384fffdfe3,68824af2e5f668216add32a1,,,,,,,,,,,,,,,,,,,,,,,,,,,20,,,,,,,,,,,,,,,,,,,,,,,,,,,,,,,,,,,,,,,,,,,,526.5274,527.7751,slightly disagree,0,19,19,19,1,I tend to have very strong opinions about morality.,0,1,0,0,,
,,,,,,,,,6569ecf42ba18f5b855744db,Peruvian,13 or older,"no, only English or Spanish",no,2025-07-24_11h10.17.474,empathy_intonation_perc_control,2024.2.4,Win32,59.88023952,6569ecf42ba18f5b855744db,68817205a84113384fffdfe3,68824af2e5f668216add32a1,,,,,,,,,,,,,,,,,,,,,,,,,,,21,,,,,,,,,,,,,,,,,,,,,,,,,,,,,,,,,,,,,,,,,,,,527.7764,528.7411,slightly disagree,0,20,20,20,1,It is hard for me to see why some things upset people so much.,1,0,0,1,,
,,,,,,,,,6569ecf42ba18f5b855744db,Peruvian,13 or older,"no, only English or Spanish",no,2025-07-24_11h10.17.474,empathy_intonation_perc_control,2024.2.4,Win32,59.88023952,6569ecf42ba18f5b855744db,68817205a84113384fffdfe3,68824af2e5f668216add32a1,,,,,,,,,,,,,,,,,,,,,,,,,,,22,,,,,,,,,,,,,,,,,,,,,,,,,,,,,,,,,,,,,,,,,,,,528.7419,530.2078,slightly agree,0,21,21,21,1,I find it easy to put myself in somebody else's shoes.,1,0,1,0,,
,,,,,,,,,6569ecf42ba18f5b855744db,Peruvian,13 or older,"no, only English or Spanish",no,2025-07-24_11h10.17.474,empathy_intonation_perc_control,2024.2.4,Win32,59.88023952,6569ecf42ba18f5b855744db,68817205a84113384fffdfe3,68824af2e5f668216add32a1,,,,,,,,,,,,,,,,,,,,,,,,,,,23,,,,,,,,,,,,,,,,,,,,,,,,,,,,,,,,,,,,,,,,,,,,530.2093,532.5232,slightly disagree,0,22,22,22,1,I think that good manners are the most important thing a parent can teach their child.,0,1,0,0,,
,,,,,,,,,6569ecf42ba18f5b855744db,Peruvian,13 or older,"no, only English or Spanish",no,2025-07-24_11h10.17.474,empathy_intonation_perc_control,2024.2.4,Win32,59.88023952,6569ecf42ba18f5b855744db,68817205a84113384fffdfe3,68824af2e5f668216add32a1,,,,,,,,,,,,,,,,,,,,,,,,,,,24,,,,,,,,,,,,,,,,,,,,,,,,,,,,,,,,,,,,,,,,,,,,532.5242,533.9053,slightly disagree,0,23,23,23,1,I like to do things on the spur of the moment.,0,1,0,0,,
