instructions_2afc.started,instructions_2afc.stopped,instructions_2afc_loop.thisRepN,instructions_2afc_loop.thisTrialN,instructions_2afc_loop.thisN,instructions_2afc_loop.thisIndex,instructions_2afc_loop.ran,instructions_text,continue_text,participant_id,"What variety of Spanish are you most familiar with? (e.g., Peruvian, Spanish, Mexican)",At what age did you begin learning Spanish?,Are you proficient in any languages other than English/Spanish?,"Are you familiar with Caribbean (e.g., Caribbean, Puerto Rican) or Galician Spanish?",date,expName,psychopyVersion,OS,frameRate,id,study_id,session,practice_2afc.started,practice_2afc.stopped,key_resp_2afc_practice.keys,key_resp_2afc_practice.corr,key_resp_2afc_practice.rt,key_resp_2afc_practice.duration,trials_2afc_practice_loop.thisRepN,trials_2afc_practice_loop.thisTrialN,trials_2afc_practice_loop.thisN,trials_2afc_practice_loop.thisIndex,trials_2afc_practice_loop.ran,path,correct_response,check_2afc.started,check_2afc.stopped,trial_2afc.started,trial_2afc.stopped,key_resp_2afc_trial.keys,key_resp_2afc_trial.corr,key_resp_2afc_trial.rt,key_resp_2afc_trial.duration,trials_2afc_loop.thisRepN,trials_2afc_loop.thisTrialN,trials_2afc_loop.thisN,trials_2afc_loop.thisIndex,trials_2afc_loop.ran,item_num,target,variety,instructions_lextale.started,instructions_lextale.stopped,instructions_lextale_loop.thisRepN,instructions_lextale_loop.thisTrialN,instructions_lextale_loop.thisN,instructions_lextale_loop.thisIndex,instructions_lextale_loop.ran,practice_lextale.started,practice_lextale.stopped,key_resp_lextale_practice.keys,key_resp_lextale_practice.corr,key_resp_lextale_practice.rt,key_resp_lextale_practice.duration,practice_feedback_lextale.started,practice_feedback_lextale.stopped,trials_lextale_practice_loop.thisRepN,trials_lextale_practice_loop.thisTrialN,trials_lextale_practice_loop.thisN,trials_lextale_practice_loop.thisIndex,trials_lextale_practice_loop.ran,stim,word,prac_button_real,prac_button_false,check_lextale.started,check_lextale.stopped,trial_lextale.started,trial_lextale.stopped,key_resp_lextale_trial.keys,key_resp_lextale_trial.corr,key_resp_lextale_trial.rt,key_resp_lextale_trial.duration,trials_lextale_loop.thisRepN,trials_lextale_loop.thisTrialN,trials_lextale_loop.thisN,trials_lextale_loop.thisIndex,trials_lextale_loop.ran,button_real,button_false,instructions_eq.started,instructions_eq.stopped,trial_eq.started,trial_eq.stopped,slider_eq_trial.response,trials_eq_loop.thisRepN,trials_eq_loop.thisTrialN,trials_eq_loop.thisN,trials_eq_loop.thisIndex,trials_eq_loop.ran,item,is_test_item,is_distractor,is_agree_score,is_disagree_score,end_exp.started,end_exp.stopped
0.0105,2.5482,0,0,0,0,1,"In the following task you are going to hear a series of utterances. 

  You will decide if the utterances sound like questions or not using your keyboard.", (press the spacebar to continue),65b930253f67ecba5f26fc07,Spanish,13 or older,"no, only English or Spanish",yes,2026-01-21_21h07.41.392,empathy_intonation_perc_control,2024.2.4,Win32,59.88023952,65b930253f67ecba5f26fc07,69712dc693a3960bdb483245,6971862a8f664165a7963912,,,,,,,,,,,,,,,,,,,,,,,,,,,,,,,,,,,,,,,,,,,,,,,,,,,,,,,,,,,,,,,,,,,,,,,,,,,,,,,,,,,,,
2.5498,4.5778,0,1,1,1,1,"If you believe the utterance is a question, type '1' (for 'yes') and if you do not 
  believe it is a question type '0' (for 'no').

  Let's practice a bit...", (press the spacebar to continue),65b930253f67ecba5f26fc07,Spanish,13 or older,"no, only English or Spanish",yes,2026-01-21_21h07.41.392,empathy_intonation_perc_control,2024.2.4,Win32,59.88023952,65b930253f67ecba5f26fc07,69712dc693a3960bdb483245,6971862a8f664165a7963912,,,,,,,,,,,,,,,,,,,,,,,,,,,,,,,,,,,,,,,,,,,,,,,,,,,,,,,,,,,,,,,,,,,,,,,,,,,,,,,,,,,,,
,,,,,,,,,65b930253f67ecba5f26fc07,Spanish,13 or older,"no, only English or Spanish",yes,2026-01-21_21h07.41.392,empathy_intonation_perc_control,2024.2.4,Win32,59.88023952,65b930253f67ecba5f26fc07,69712dc693a3960bdb483245,6971862a8f664165a7963912,4.5845,11.4622,1,1,6.3489,,0,0,0,0,1,./stim/wavs/castilian_question_filler_Mi-esposo-conoce-al-chico.wav,1,,,,,,,,,,,,,,,,,,,,,,,,,,,,,,,,,,,,,,,,,,,,,,,,,,,,,,,,,,,,,,,,,,,,,,,,
,,,,,,,,,65b930253f67ecba5f26fc07,Spanish,13 or older,"no, only English or Spanish",yes,2026-01-21_21h07.41.392,empathy_intonation_perc_control,2024.2.4,Win32,59.88023952,65b930253f67ecba5f26fc07,69712dc693a3960bdb483245,6971862a8f664165a7963912,11.4629,20.6284,0,1,8.6348,,0,1,1,7,1,./stim/wavs/puertorican_statement_filler_La-nina-pinta-con-su-amiga.wav,0,,,,,,,,,,,,,,,,,,,,,,,,,,,,,,,,,,,,,,,,,,,,,,,,,,,,,,,,,,,,,,,,,,,,,,,,
,,,,,,,,,65b930253f67ecba5f26fc07,Spanish,13 or older,"no, only English or Spanish",yes,2026-01-21_21h07.41.392,empathy_intonation_perc_control,2024.2.4,Win32,59.88023952,65b930253f67ecba5f26fc07,69712dc693a3960bdb483245,6971862a8f664165a7963912,20.6291,24.795,0,1,3.6452,,0,2,2,6,1,./stim/wavs/peruvian_statement_filler_El-nino-habla-con-su-madre.wav,0,,,,,,,,,,,,,,,,,,,,,,,,,,,,,,,,,,,,,,,,,,,,,,,,,,,,,,,,,,,,,,,,,,,,,,,,
,,,,,,,,,65b930253f67ecba5f26fc07,Spanish,13 or older,"no, only English or Spanish",yes,2026-01-21_21h07.41.392,empathy_intonation_perc_control,2024.2.4,Win32,59.88023952,65b930253f67ecba5f26fc07,69712dc693a3960bdb483245,6971862a8f664165a7963912,24.7957,27.7453,0,1,2.427,,0,3,3,4,1,./stim/wavs/cuban_statement_filler_Cocinabas-por-la-noche.wav,0,,,,,,,,,,,,,,,,,,,,,,,,,,,,,,,,,,,,,,,,,,,,,,,,,,,,,,,,,,,,,,,,,,,,,,,,
,,,,,,,,,65b930253f67ecba5f26fc07,Spanish,13 or older,"no, only English or Spanish",yes,2026-01-21_21h07.41.392,empathy_intonation_perc_control,2024.2.4,Win32,59.88023952,65b930253f67ecba5f26fc07,69712dc693a3960bdb483245,6971862a8f664165a7963912,27.7459,31.3798,1,1,3.1,,0,4,4,3,1,./stim/wavs/mexican_question_filler_Felipe-no-tiene-contrasena.wav,1,,,,,,,,,,,,,,,,,,,,,,,,,,,,,,,,,,,,,,,,,,,,,,,,,,,,,,,,,,,,,,,,,,,,,,,,
,,,,,,,,,65b930253f67ecba5f26fc07,Spanish,13 or older,"no, only English or Spanish",yes,2026-01-21_21h07.41.392,empathy_intonation_perc_control,2024.2.4,Win32,59.88023952,65b930253f67ecba5f26fc07,69712dc693a3960bdb483245,6971862a8f664165a7963912,31.3807,33.6621,1,1,1.7517,,0,5,5,1,1,./stim/wavs/argentine_question_filler_Mi-vecino-habla-mucho.wav,1,,,,,,,,,,,,,,,,,,,,,,,,,,,,,,,,,,,,,,,,,,,,,,,,,,,,,,,,,,,,,,,,,,,,,,,,
,,,,,,,,,65b930253f67ecba5f26fc07,Spanish,13 or older,"no, only English or Spanish",yes,2026-01-21_21h07.41.392,empathy_intonation_perc_control,2024.2.4,Win32,59.88023952,65b930253f67ecba5f26fc07,69712dc693a3960bdb483245,6971862a8f664165a7963912,33.6628,36.4624,0,1,2.281,,0,6,6,5,1,./stim/wavs/andalusian_statement_filler_Alberto-nunca-se-afeita.wav,0,,,,,,,,,,,,,,,,,,,,,,,,,,,,,,,,,,,,,,,,,,,,,,,,,,,,,,,,,,,,,,,,,,,,,,,,
,,,,,,,,,65b930253f67ecba5f26fc07,Spanish,13 or older,"no, only English or Spanish",yes,2026-01-21_21h07.41.392,empathy_intonation_perc_control,2024.2.4,Win32,59.88023952,65b930253f67ecba5f26fc07,69712dc693a3960bdb483245,6971862a8f664165a7963912,36.4628,41.1127,1,1,4.1168,,0,7,7,2,1,./stim/wavs/chilean_question_filler_Mi-padre-cantaba-bien.wav,1,,,,,,,,,,,,,,,,,,,,,,,,,,,,,,,,,,,,,,,,,,,,,,,,,,,,,,,,,,,,,,,,,,,,,,,,
,,,,,,,,,65b930253f67ecba5f26fc07,Spanish,13 or older,"no, only English or Spanish",yes,2026-01-21_21h07.41.392,empathy_intonation_perc_control,2024.2.4,Win32,59.88023952,65b930253f67ecba5f26fc07,69712dc693a3960bdb483245,6971862a8f664165a7963912,,,,,,,,,,,,,,41.1132,42.7623,,,,,,,,,,,,,,,,,,,,,,,,,,,,,,,,,,,,,,,,,,,,,,,,,,,,,,,,,,,,,,,,,,,,,,
,,,,,,,,,65b930253f67ecba5f26fc07,Spanish,13 or older,"no, only English or Spanish",yes,2026-01-21_21h07.41.392,empathy_intonation_perc_control,2024.2.4,Win32,59.88023952,65b930253f67ecba5f26fc07,69712dc693a3960bdb483245,6971862a8f664165a7963912,,,,,,,,,,,,./stim/wavs/castilian_match_interrogative-total-yn_Manuela-vende-el-carro.wav,1,,,42.7681,45.4625,1,1,2.1735,,0,0,0,2,1,3,0,castilian,,,,,,,,,,,,,,,,,,,,,,,,,,,,,,,,,,,,,,,,,,,,,,,,,,,,,,,,
,,,,,,,,,65b930253f67ecba5f26fc07,Spanish,13 or older,"no, only English or Spanish",yes,2026-01-21_21h07.41.392,empathy_intonation_perc_control,2024.2.4,Win32,59.88023952,65b930253f67ecba5f26fc07,69712dc693a3960bdb483245,6971862a8f664165a7963912,,,,,,,,,,,,./stim/wavs/puertorican_match_interrogative-total-yn_Daniel-iba-a-Bolivia.wav,1,,,45.4631,49.3291,1,1,3.3392,,0,1,1,19,1,20,1,puertorican,,,,,,,,,,,,,,,,,,,,,,,,,,,,,,,,,,,,,,,,,,,,,,,,,,,,,,,,
,,,,,,,,,65b930253f67ecba5f26fc07,Spanish,13 or older,"no, only English or Spanish",yes,2026-01-21_21h07.41.392,empathy_intonation_perc_control,2024.2.4,Win32,59.88023952,65b930253f67ecba5f26fc07,69712dc693a3960bdb483245,6971862a8f664165a7963912,,,,,,,,,,,,./stim/wavs/castilian_match_interrogative-total-yn_Mariano-habla-del-tiempo.wav,1,,,49.3297,51.7959,1,1,1.94,,0,2,2,4,1,5,0,castilian,,,,,,,,,,,,,,,,,,,,,,,,,,,,,,,,,,,,,,,,,,,,,,,,,,,,,,,,
,,,,,,,,,65b930253f67ecba5f26fc07,Spanish,13 or older,"no, only English or Spanish",yes,2026-01-21_21h07.41.392,empathy_intonation_perc_control,2024.2.4,Win32,59.88023952,65b930253f67ecba5f26fc07,69712dc693a3960bdb483245,6971862a8f664165a7963912,,,,,,,,,,,,./stim/wavs/puertorican_mismatch_interrogative-total-yn_Mi-madre-come-la-fruta.wav,1,,,51.7965,54.3456,0,0,2.016,,0,3,3,43,1,44,1,puertorican,,,,,,,,,,,,,,,,,,,,,,,,,,,,,,,,,,,,,,,,,,,,,,,,,,,,,,,,
,,,,,,,,,65b930253f67ecba5f26fc07,Spanish,13 or older,"no, only English or Spanish",yes,2026-01-21_21h07.41.392,empathy_intonation_perc_control,2024.2.4,Win32,59.88023952,65b930253f67ecba5f26fc07,69712dc693a3960bdb483245,6971862a8f664165a7963912,,,,,,,,,,,,./stim/wavs/cuban_match_declarative-broad-focus_Mariano-habla-del-tiempo.wav,0,,,54.346,57.0627,1,0,2.1894,,0,4,4,54,1,55,0,cuban,,,,,,,,,,,,,,,,,,,,,,,,,,,,,,,,,,,,,,,,,,,,,,,,,,,,,,,,
,,,,,,,,,65b930253f67ecba5f26fc07,Spanish,13 or older,"no, only English or Spanish",yes,2026-01-21_21h07.41.392,empathy_intonation_perc_control,2024.2.4,Win32,59.88023952,65b930253f67ecba5f26fc07,69712dc693a3960bdb483245,6971862a8f664165a7963912,,,,,,,,,,,,./stim/wavs/castilian_mismatch_interrogative-total-yn_Mi-tia-odia-la-lluvia.wav,1,,,57.0633,59.4295,1,1,1.8364,,0,5,5,28,1,29,0,castilian,,,,,,,,,,,,,,,,,,,,,,,,,,,,,,,,,,,,,,,,,,,,,,,,,,,,,,,,
,,,,,,,,,65b930253f67ecba5f26fc07,Spanish,13 or older,"no, only English or Spanish",yes,2026-01-21_21h07.41.392,empathy_intonation_perc_control,2024.2.4,Win32,59.88023952,65b930253f67ecba5f26fc07,69712dc693a3960bdb483245,6971862a8f664165a7963912,,,,,,,,,,,,./stim/wavs/cuban_mismatch_interrogative-total-yn_El-hombre-mira-la-luna.wav,1,,,59.4301,62.0132,0,0,2.0515,,0,6,6,29,1,30,1,cuban,,,,,,,,,,,,,,,,,,,,,,,,,,,,,,,,,,,,,,,,,,,,,,,,,,,,,,,,
,,,,,,,,,65b930253f67ecba5f26fc07,Spanish,13 or older,"no, only English or Spanish",yes,2026-01-21_21h07.41.392,empathy_intonation_perc_control,2024.2.4,Win32,59.88023952,65b930253f67ecba5f26fc07,69712dc693a3960bdb483245,6971862a8f664165a7963912,,,,,,,,,,,,./stim/wavs/mexican_match_declarative-broad-focus_Emilio-ama-la-marcha.wav,0,,,62.0138,64.7629,0,1,2.2307,,0,7,7,59,1,60,0,mexican,,,,,,,,,,,,,,,,,,,,,,,,,,,,,,,,,,,,,,,,,,,,,,,,,,,,,,,,
,,,,,,,,,65b930253f67ecba5f26fc07,Spanish,13 or older,"no, only English or Spanish",yes,2026-01-21_21h07.41.392,empathy_intonation_perc_control,2024.2.4,Win32,59.88023952,65b930253f67ecba5f26fc07,69712dc693a3960bdb483245,6971862a8f664165a7963912,,,,,,,,,,,,./stim/wavs/castilian_mismatch_declarative-broad-focus_El-nino-oye-el-rio.wav,0,,,64.7633,68.2959,0,1,3.0133,,0,8,8,68,1,69,0,castilian,,,,,,,,,,,,,,,,,,,,,,,,,,,,,,,,,,,,,,,,,,,,,,,,,,,,,,,,
,,,,,,,,,65b930253f67ecba5f26fc07,Spanish,13 or older,"no, only English or Spanish",yes,2026-01-21_21h07.41.392,empathy_intonation_perc_control,2024.2.4,Win32,59.88023952,65b930253f67ecba5f26fc07,69712dc693a3960bdb483245,6971862a8f664165a7963912,,,,,,,,,,,,./stim/wavs/cuban_match_declarative-broad-focus_Maria-bebe-el-vino.wav,0,,,68.2963,70.7798,0,1,1.9564,,0,9,9,53,1,54,0,cuban,,,,,,,,,,,,,,,,,,,,,,,,,,,,,,,,,,,,,,,,,,,,,,,,,,,,,,,,
,,,,,,,,,65b930253f67ecba5f26fc07,Spanish,13 or older,"no, only English or Spanish",yes,2026-01-21_21h07.41.392,empathy_intonation_perc_control,2024.2.4,Win32,59.88023952,65b930253f67ecba5f26fc07,69712dc693a3960bdb483245,6971862a8f664165a7963912,,,,,,,,,,,,./stim/wavs/castilian_match_declarative-broad-focus_David-leia-el-libro.wav,0,,,70.7804,73.6304,0,1,2.3175,,0,10,10,44,1,45,0,castilian,,,,,,,,,,,,,,,,,,,,,,,,,,,,,,,,,,,,,,,,,,,,,,,,,,,,,,,,
,,,,,,,,,65b930253f67ecba5f26fc07,Spanish,13 or older,"no, only English or Spanish",yes,2026-01-21_21h07.41.392,empathy_intonation_perc_control,2024.2.4,Win32,59.88023952,65b930253f67ecba5f26fc07,69712dc693a3960bdb483245,6971862a8f664165a7963912,,,,,,,,,,,,./stim/wavs/castilian_match_declarative-broad-focus_Manuela-vende-el-carro.wav,0,,,73.631,76.3467,0,1,2.1838,,0,11,11,46,1,47,0,castilian,,,,,,,,,,,,,,,,,,,,,,,,,,,,,,,,,,,,,,,,,,,,,,,,,,,,,,,,
,,,,,,,,,65b930253f67ecba5f26fc07,Spanish,13 or older,"no, only English or Spanish",yes,2026-01-21_21h07.41.392,empathy_intonation_perc_control,2024.2.4,Win32,59.88023952,65b930253f67ecba5f26fc07,69712dc693a3960bdb483245,6971862a8f664165a7963912,,,,,,,,,,,,./stim/wavs/mexican_mismatch_interrogative-total-yn_El-nino-oye-el-rio.wav,1,,,76.3471,78.7629,1,1,1.8942,,0,12,12,35,1,36,0,mexican,,,,,,,,,,,,,,,,,,,,,,,,,,,,,,,,,,,,,,,,,,,,,,,,,,,,,,,,
,,,,,,,,,65b930253f67ecba5f26fc07,Spanish,13 or older,"no, only English or Spanish",yes,2026-01-21_21h07.41.392,empathy_intonation_perc_control,2024.2.4,Win32,59.88023952,65b930253f67ecba5f26fc07,69712dc693a3960bdb483245,6971862a8f664165a7963912,,,,,,,,,,,,./stim/wavs/puertorican_match_interrogative-total-yn_Ana-lleva-el-abrigo.wav,1,,,78.7632,80.9963,0,0,1.7295,,0,13,13,18,1,19,1,puertorican,,,,,,,,,,,,,,,,,,,,,,,,,,,,,,,,,,,,,,,,,,,,,,,,,,,,,,,,
,,,,,,,,,65b930253f67ecba5f26fc07,Spanish,13 or older,"no, only English or Spanish",yes,2026-01-21_21h07.41.392,empathy_intonation_perc_control,2024.2.4,Win32,59.88023952,65b930253f67ecba5f26fc07,69712dc693a3960bdb483245,6971862a8f664165a7963912,,,,,,,,,,,,./stim/wavs/puertorican_match_interrogative-total-yn_Manuela-vende-el-carro.wav,1,,,80.9967,83.4632,0,0,1.9413,,0,14,14,22,1,23,1,puertorican,,,,,,,,,,,,,,,,,,,,,,,,,,,,,,,,,,,,,,,,,,,,,,,,,,,,,,,,
,,,,,,,,,65b930253f67ecba5f26fc07,Spanish,13 or older,"no, only English or Spanish",yes,2026-01-21_21h07.41.392,empathy_intonation_perc_control,2024.2.4,Win32,59.88023952,65b930253f67ecba5f26fc07,69712dc693a3960bdb483245,6971862a8f664165a7963912,,,,,,,,,,,,./stim/wavs/castilian_match_interrogative-total-yn_Maria-bebe-el-vino.wav,1,,,83.4637,85.447,1,1,1.4501,,0,15,15,3,1,4,0,castilian,,,,,,,,,,,,,,,,,,,,,,,,,,,,,,,,,,,,,,,,,,,,,,,,,,,,,,,,
,,,,,,,,,65b930253f67ecba5f26fc07,Spanish,13 or older,"no, only English or Spanish",yes,2026-01-21_21h07.41.392,empathy_intonation_perc_control,2024.2.4,Win32,59.88023952,65b930253f67ecba5f26fc07,69712dc693a3960bdb483245,6971862a8f664165a7963912,,,,,,,,,,,,./stim/wavs/mexican_mismatch_declarative-broad-focus_Mi-novio-viene-del-lago.wav,0,,,85.4475,87.9134,0,1,1.9343,,0,16,16,81,1,82,0,mexican,,,,,,,,,,,,,,,,,,,,,,,,,,,,,,,,,,,,,,,,,,,,,,,,,,,,,,,,
,,,,,,,,,65b930253f67ecba5f26fc07,Spanish,13 or older,"no, only English or Spanish",yes,2026-01-21_21h07.41.392,empathy_intonation_perc_control,2024.2.4,Win32,59.88023952,65b930253f67ecba5f26fc07,69712dc693a3960bdb483245,6971862a8f664165a7963912,,,,,,,,,,,,./stim/wavs/cuban_mismatch_declarative-broad-focus_Mi-tia-odia-la-lluvia.wav,0,,,87.9137,90.6968,0,1,2.2664,,0,17,17,77,1,78,0,cuban,,,,,,,,,,,,,,,,,,,,,,,,,,,,,,,,,,,,,,,,,,,,,,,,,,,,,,,,
,,,,,,,,,65b930253f67ecba5f26fc07,Spanish,13 or older,"no, only English or Spanish",yes,2026-01-21_21h07.41.392,empathy_intonation_perc_control,2024.2.4,Win32,59.88023952,65b930253f67ecba5f26fc07,69712dc693a3960bdb483245,6971862a8f664165a7963912,,,,,,,,,,,,./stim/wavs/mexican_match_interrogative-total-yn_Ana-lleva-el-abrigo.wav,1,,,90.6975,93.0974,1,1,1.867,,0,18,18,12,1,13,0,mexican,,,,,,,,,,,,,,,,,,,,,,,,,,,,,,,,,,,,,,,,,,,,,,,,,,,,,,,,
,,,,,,,,,65b930253f67ecba5f26fc07,Spanish,13 or older,"no, only English or Spanish",yes,2026-01-21_21h07.41.392,empathy_intonation_perc_control,2024.2.4,Win32,59.88023952,65b930253f67ecba5f26fc07,69712dc693a3960bdb483245,6971862a8f664165a7963912,,,,,,,,,,,,./stim/wavs/castilian_match_interrogative-total-yn_Marta-abre-el-regalo.wav,1,,,93.0981,95.5633,1,1,1.9457,,0,19,19,5,1,6,0,castilian,,,,,,,,,,,,,,,,,,,,,,,,,,,,,,,,,,,,,,,,,,,,,,,,,,,,,,,,
,,,,,,,,,65b930253f67ecba5f26fc07,Spanish,13 or older,"no, only English or Spanish",yes,2026-01-21_21h07.41.392,empathy_intonation_perc_control,2024.2.4,Win32,59.88023952,65b930253f67ecba5f26fc07,69712dc693a3960bdb483245,6971862a8f664165a7963912,,,,,,,,,,,,./stim/wavs/puertorican_mismatch_declarative-broad-focus_La-maestra-vive-en-Paris.wav,0,,,95.5637,98.3635,0,1,2.2793,,0,20,20,86,1,87,0,puertorican,,,,,,,,,,,,,,,,,,,,,,,,,,,,,,,,,,,,,,,,,,,,,,,,,,,,,,,,
,,,,,,,,,65b930253f67ecba5f26fc07,Spanish,13 or older,"no, only English or Spanish",yes,2026-01-21_21h07.41.392,empathy_intonation_perc_control,2024.2.4,Win32,59.88023952,65b930253f67ecba5f26fc07,69712dc693a3960bdb483245,6971862a8f664165a7963912,,,,,,,,,,,,./stim/wavs/mexican_match_interrogative-total-yn_Daniel-iba-a-Bolivia.wav,1,,,98.3638,100.8302,1,1,1.9637,,0,21,21,13,1,14,0,mexican,,,,,,,,,,,,,,,,,,,,,,,,,,,,,,,,,,,,,,,,,,,,,,,,,,,,,,,,
,,,,,,,,,65b930253f67ecba5f26fc07,Spanish,13 or older,"no, only English or Spanish",yes,2026-01-21_21h07.41.392,empathy_intonation_perc_control,2024.2.4,Win32,59.88023952,65b930253f67ecba5f26fc07,69712dc693a3960bdb483245,6971862a8f664165a7963912,,,,,,,,,,,,./stim/wavs/mexican_match_interrogative-total-yn_Emilio-ama-la-marcha.wav,1,,,100.8305,103.7974,1,1,2.4329,,0,22,22,15,1,16,0,mexican,,,,,,,,,,,,,,,,,,,,,,,,,,,,,,,,,,,,,,,,,,,,,,,,,,,,,,,,
,,,,,,,,,65b930253f67ecba5f26fc07,Spanish,13 or older,"no, only English or Spanish",yes,2026-01-21_21h07.41.392,empathy_intonation_perc_control,2024.2.4,Win32,59.88023952,65b930253f67ecba5f26fc07,69712dc693a3960bdb483245,6971862a8f664165a7963912,,,,,,,,,,,,./stim/wavs/castilian_match_declarative-broad-focus_Emilio-ama-la-marcha.wav,0,,,103.798,106.0313,1,0,1.7003,,0,23,23,45,1,46,0,castilian,,,,,,,,,,,,,,,,,,,,,,,,,,,,,,,,,,,,,,,,,,,,,,,,,,,,,,,,
,,,,,,,,,65b930253f67ecba5f26fc07,Spanish,13 or older,"no, only English or Spanish",yes,2026-01-21_21h07.41.392,empathy_intonation_perc_control,2024.2.4,Win32,59.88023952,65b930253f67ecba5f26fc07,69712dc693a3960bdb483245,6971862a8f664165a7963912,,,,,,,,,,,,./stim/wavs/cuban_mismatch_declarative-broad-focus_El-bebe-comia-muy-bien.wav,0,,,106.0319,108.314,0,1,1.7518,,0,24,24,73,1,74,0,cuban,,,,,,,,,,,,,,,,,,,,,,,,,,,,,,,,,,,,,,,,,,,,,,,,,,,,,,,,
,,,,,,,,,65b930253f67ecba5f26fc07,Spanish,13 or older,"no, only English or Spanish",yes,2026-01-21_21h07.41.392,empathy_intonation_perc_control,2024.2.4,Win32,59.88023952,65b930253f67ecba5f26fc07,69712dc693a3960bdb483245,6971862a8f664165a7963912,,,,,,,,,,,,./stim/wavs/castilian_mismatch_interrogative-total-yn_Mi-madre-come-la-fruta.wav,1,,,108.3145,110.8806,1,1,2.0522,,0,25,25,26,1,27,0,castilian,,,,,,,,,,,,,,,,,,,,,,,,,,,,,,,,,,,,,,,,,,,,,,,,,,,,,,,,
,,,,,,,,,65b930253f67ecba5f26fc07,Spanish,13 or older,"no, only English or Spanish",yes,2026-01-21_21h07.41.392,empathy_intonation_perc_control,2024.2.4,Win32,59.88023952,65b930253f67ecba5f26fc07,69712dc693a3960bdb483245,6971862a8f664165a7963912,,,,,,,,,,,,./stim/wavs/cuban_match_declarative-broad-focus_Daniel-iba-a-Bolivia.wav,0,,,110.8811,113.364,0,1,1.961,,0,26,26,51,1,52,0,cuban,,,,,,,,,,,,,,,,,,,,,,,,,,,,,,,,,,,,,,,,,,,,,,,,,,,,,,,,
,,,,,,,,,65b930253f67ecba5f26fc07,Spanish,13 or older,"no, only English or Spanish",yes,2026-01-21_21h07.41.392,empathy_intonation_perc_control,2024.2.4,Win32,59.88023952,65b930253f67ecba5f26fc07,69712dc693a3960bdb483245,6971862a8f664165a7963912,,,,,,,,,,,,./stim/wavs/puertorican_mismatch_declarative-broad-focus_La-nina-lava-el-plato.wav,0,,,113.3647,115.7139,0,1,1.8161,,0,27,27,87,1,88,0,puertorican,,,,,,,,,,,,,,,,,,,,,,,,,,,,,,,,,,,,,,,,,,,,,,,,,,,,,,,,
,,,,,,,,,65b930253f67ecba5f26fc07,Spanish,13 or older,"no, only English or Spanish",yes,2026-01-21_21h07.41.392,empathy_intonation_perc_control,2024.2.4,Win32,59.88023952,65b930253f67ecba5f26fc07,69712dc693a3960bdb483245,6971862a8f664165a7963912,,,,,,,,,,,,./stim/wavs/mexican_mismatch_declarative-broad-focus_Mi-tia-odia-la-lluvia.wav,0,,,115.7145,118.3646,0,1,2.121,,0,28,28,82,1,83,0,mexican,,,,,,,,,,,,,,,,,,,,,,,,,,,,,,,,,,,,,,,,,,,,,,,,,,,,,,,,
,,,,,,,,,65b930253f67ecba5f26fc07,Spanish,13 or older,"no, only English or Spanish",yes,2026-01-21_21h07.41.392,empathy_intonation_perc_control,2024.2.4,Win32,59.88023952,65b930253f67ecba5f26fc07,69712dc693a3960bdb483245,6971862a8f664165a7963912,,,,,,,,,,,,./stim/wavs/puertorican_match_declarative-broad-focus_Manuela-vende-el-carro.wav,0,,,118.3652,121.0139,0,1,2.13,,0,29,29,66,1,67,0,puertorican,,,,,,,,,,,,,,,,,,,,,,,,,,,,,,,,,,,,,,,,,,,,,,,,,,,,,,,,
,,,,,,,,,65b930253f67ecba5f26fc07,Spanish,13 or older,"no, only English or Spanish",yes,2026-01-21_21h07.41.392,empathy_intonation_perc_control,2024.2.4,Win32,59.88023952,65b930253f67ecba5f26fc07,69712dc693a3960bdb483245,6971862a8f664165a7963912,,,,,,,,,,,,./stim/wavs/mexican_match_declarative-broad-focus_Daniel-iba-a-Bolivia.wav,0,,,121.0142,123.1976,0,1,1.6674,,0,30,30,57,1,58,0,mexican,,,,,,,,,,,,,,,,,,,,,,,,,,,,,,,,,,,,,,,,,,,,,,,,,,,,,,,,
,,,,,,,,,65b930253f67ecba5f26fc07,Spanish,13 or older,"no, only English or Spanish",yes,2026-01-21_21h07.41.392,empathy_intonation_perc_control,2024.2.4,Win32,59.88023952,65b930253f67ecba5f26fc07,69712dc693a3960bdb483245,6971862a8f664165a7963912,,,,,,,,,,,,./stim/wavs/mexican_match_declarative-broad-focus_David-leia-el-libro.wav,0,,,123.1981,125.3145,0,1,1.5845,,0,31,31,58,1,59,0,mexican,,,,,,,,,,,,,,,,,,,,,,,,,,,,,,,,,,,,,,,,,,,,,,,,,,,,,,,,
,,,,,,,,,65b930253f67ecba5f26fc07,Spanish,13 or older,"no, only English or Spanish",yes,2026-01-21_21h07.41.392,empathy_intonation_perc_control,2024.2.4,Win32,59.88023952,65b930253f67ecba5f26fc07,69712dc693a3960bdb483245,6971862a8f664165a7963912,,,,,,,,,,,,./stim/wavs/mexican_mismatch_interrogative-total-yn_La-maestra-vive-en-Paris.wav,1,,,125.315,127.7309,1,1,1.8971,,0,32,32,36,1,37,0,mexican,,,,,,,,,,,,,,,,,,,,,,,,,,,,,,,,,,,,,,,,,,,,,,,,,,,,,,,,
,,,,,,,,,65b930253f67ecba5f26fc07,Spanish,13 or older,"no, only English or Spanish",yes,2026-01-21_21h07.41.392,empathy_intonation_perc_control,2024.2.4,Win32,59.88023952,65b930253f67ecba5f26fc07,69712dc693a3960bdb483245,6971862a8f664165a7963912,,,,,,,,,,,,./stim/wavs/castilian_mismatch_interrogative-total-yn_La-maestra-vive-en-Paris.wav,1,,,127.7312,130.0317,1,1,1.7835,,0,33,33,24,1,25,0,castilian,,,,,,,,,,,,,,,,,,,,,,,,,,,,,,,,,,,,,,,,,,,,,,,,,,,,,,,,
,,,,,,,,,65b930253f67ecba5f26fc07,Spanish,13 or older,"no, only English or Spanish",yes,2026-01-21_21h07.41.392,empathy_intonation_perc_control,2024.2.4,Win32,59.88023952,65b930253f67ecba5f26fc07,69712dc693a3960bdb483245,6971862a8f664165a7963912,,,,,,,,,,,,./stim/wavs/cuban_match_interrogative-total-yn_Mariano-habla-del-tiempo.wav,1,,,130.0323,132.1644,0,0,1.6067,,0,34,34,10,1,11,1,cuban,,,,,,,,,,,,,,,,,,,,,,,,,,,,,,,,,,,,,,,,,,,,,,,,,,,,,,,,
,,,,,,,,,65b930253f67ecba5f26fc07,Spanish,13 or older,"no, only English or Spanish",yes,2026-01-21_21h07.41.392,empathy_intonation_perc_control,2024.2.4,Win32,59.88023952,65b930253f67ecba5f26fc07,69712dc693a3960bdb483245,6971862a8f664165a7963912,,,,,,,,,,,,./stim/wavs/puertorican_match_declarative-broad-focus_Daniel-iba-a-Bolivia.wav,0,,,132.1648,134.4146,0,1,1.7336,,0,35,35,63,1,64,0,puertorican,,,,,,,,,,,,,,,,,,,,,,,,,,,,,,,,,,,,,,,,,,,,,,,,,,,,,,,,
,,,,,,,,,65b930253f67ecba5f26fc07,Spanish,13 or older,"no, only English or Spanish",yes,2026-01-21_21h07.41.392,empathy_intonation_perc_control,2024.2.4,Win32,59.88023952,65b930253f67ecba5f26fc07,69712dc693a3960bdb483245,6971862a8f664165a7963912,,,,,,,,,,,,./stim/wavs/cuban_mismatch_interrogative-total-yn_Mi-novio-viene-del-lago.wav,1,,,134.4151,136.7649,0,0,1.8202,,0,36,36,32,1,33,1,cuban,,,,,,,,,,,,,,,,,,,,,,,,,,,,,,,,,,,,,,,,,,,,,,,,,,,,,,,,
,,,,,,,,,65b930253f67ecba5f26fc07,Spanish,13 or older,"no, only English or Spanish",yes,2026-01-21_21h07.41.392,empathy_intonation_perc_control,2024.2.4,Win32,59.88023952,65b930253f67ecba5f26fc07,69712dc693a3960bdb483245,6971862a8f664165a7963912,,,,,,,,,,,,./stim/wavs/cuban_mismatch_declarative-broad-focus_Mi-novio-viene-del-lago.wav,0,,,136.7653,138.9818,0,1,1.6836,,0,37,37,76,1,77,0,cuban,,,,,,,,,,,,,,,,,,,,,,,,,,,,,,,,,,,,,,,,,,,,,,,,,,,,,,,,
,,,,,,,,,65b930253f67ecba5f26fc07,Spanish,13 or older,"no, only English or Spanish",yes,2026-01-21_21h07.41.392,empathy_intonation_perc_control,2024.2.4,Win32,59.88023952,65b930253f67ecba5f26fc07,69712dc693a3960bdb483245,6971862a8f664165a7963912,,,,,,,,,,,,./stim/wavs/cuban_mismatch_interrogative-total-yn_Mi-tia-odia-la-lluvia.wav,1,,,138.9824,141.4647,0,0,1.9611,,0,38,38,33,1,34,1,cuban,,,,,,,,,,,,,,,,,,,,,,,,,,,,,,,,,,,,,,,,,,,,,,,,,,,,,,,,
,,,,,,,,,65b930253f67ecba5f26fc07,Spanish,13 or older,"no, only English or Spanish",yes,2026-01-21_21h07.41.392,empathy_intonation_perc_control,2024.2.4,Win32,59.88023952,65b930253f67ecba5f26fc07,69712dc693a3960bdb483245,6971862a8f664165a7963912,,,,,,,,,,,,./stim/wavs/cuban_mismatch_declarative-broad-focus_La-nina-lava-el-plato.wav,0,,,141.4652,143.7478,0,1,1.7604,,0,39,39,75,1,76,0,cuban,,,,,,,,,,,,,,,,,,,,,,,,,,,,,,,,,,,,,,,,,,,,,,,,,,,,,,,,
,,,,,,,,,65b930253f67ecba5f26fc07,Spanish,13 or older,"no, only English or Spanish",yes,2026-01-21_21h07.41.392,empathy_intonation_perc_control,2024.2.4,Win32,59.88023952,65b930253f67ecba5f26fc07,69712dc693a3960bdb483245,6971862a8f664165a7963912,,,,,,,,,,,,./stim/wavs/castilian_mismatch_interrogative-total-yn_Mi-novio-viene-del-lago.wav,1,,,143.7482,146.2981,1,1,2.0235,,0,40,40,27,1,28,0,castilian,,,,,,,,,,,,,,,,,,,,,,,,,,,,,,,,,,,,,,,,,,,,,,,,,,,,,,,,
,,,,,,,,,65b930253f67ecba5f26fc07,Spanish,13 or older,"no, only English or Spanish",yes,2026-01-21_21h07.41.392,empathy_intonation_perc_control,2024.2.4,Win32,59.88023952,65b930253f67ecba5f26fc07,69712dc693a3960bdb483245,6971862a8f664165a7963912,,,,,,,,,,,,./stim/wavs/castilian_mismatch_declarative-broad-focus_La-nina-lava-el-plato.wav,0,,,146.2985,148.3313,1,0,1.514,,0,41,41,70,1,71,0,castilian,,,,,,,,,,,,,,,,,,,,,,,,,,,,,,,,,,,,,,,,,,,,,,,,,,,,,,,,
,,,,,,,,,65b930253f67ecba5f26fc07,Spanish,13 or older,"no, only English or Spanish",yes,2026-01-21_21h07.41.392,empathy_intonation_perc_control,2024.2.4,Win32,59.88023952,65b930253f67ecba5f26fc07,69712dc693a3960bdb483245,6971862a8f664165a7963912,,,,,,,,,,,,./stim/wavs/puertorican_match_declarative-broad-focus_Ana-lleva-el-abrigo.wav,0,,,148.3317,150.1983,0,1,1.3611,,0,42,42,62,1,63,0,puertorican,,,,,,,,,,,,,,,,,,,,,,,,,,,,,,,,,,,,,,,,,,,,,,,,,,,,,,,,
,,,,,,,,,65b930253f67ecba5f26fc07,Spanish,13 or older,"no, only English or Spanish",yes,2026-01-21_21h07.41.392,empathy_intonation_perc_control,2024.2.4,Win32,59.88023952,65b930253f67ecba5f26fc07,69712dc693a3960bdb483245,6971862a8f664165a7963912,,,,,,,,,,,,./stim/wavs/cuban_mismatch_interrogative-total-yn_El-nino-oye-el-rio.wav,1,,,150.1988,152.3818,0,0,1.6524,,0,43,43,30,1,31,1,cuban,,,,,,,,,,,,,,,,,,,,,,,,,,,,,,,,,,,,,,,,,,,,,,,,,,,,,,,,
,,,,,,,,,65b930253f67ecba5f26fc07,Spanish,13 or older,"no, only English or Spanish",yes,2026-01-21_21h07.41.392,empathy_intonation_perc_control,2024.2.4,Win32,59.88023952,65b930253f67ecba5f26fc07,69712dc693a3960bdb483245,6971862a8f664165a7963912,,,,,,,,,,,,./stim/wavs/castilian_mismatch_declarative-broad-focus_La-maestra-vive-en-Paris.wav,0,,,152.3824,154.815,0,1,1.902,,0,44,44,69,1,70,0,castilian,,,,,,,,,,,,,,,,,,,,,,,,,,,,,,,,,,,,,,,,,,,,,,,,,,,,,,,,
,,,,,,,,,65b930253f67ecba5f26fc07,Spanish,13 or older,"no, only English or Spanish",yes,2026-01-21_21h07.41.392,empathy_intonation_perc_control,2024.2.4,Win32,59.88023952,65b930253f67ecba5f26fc07,69712dc693a3960bdb483245,6971862a8f664165a7963912,,,,,,,,,,,,./stim/wavs/mexican_mismatch_interrogative-total-yn_Mi-novio-viene-del-lago.wav,1,,,154.8155,156.9816,1,1,1.6442,,0,45,45,37,1,38,0,mexican,,,,,,,,,,,,,,,,,,,,,,,,,,,,,,,,,,,,,,,,,,,,,,,,,,,,,,,,
,,,,,,,,,65b930253f67ecba5f26fc07,Spanish,13 or older,"no, only English or Spanish",yes,2026-01-21_21h07.41.392,empathy_intonation_perc_control,2024.2.4,Win32,59.88023952,65b930253f67ecba5f26fc07,69712dc693a3960bdb483245,6971862a8f664165a7963912,,,,,,,,,,,,./stim/wavs/castilian_match_interrogative-total-yn_Emilio-ama-la-marcha.wav,1,,,156.982,159.1151,1,1,1.6072,,0,46,46,1,1,2,0,castilian,,,,,,,,,,,,,,,,,,,,,,,,,,,,,,,,,,,,,,,,,,,,,,,,,,,,,,,,
,,,,,,,,,65b930253f67ecba5f26fc07,Spanish,13 or older,"no, only English or Spanish",yes,2026-01-21_21h07.41.392,empathy_intonation_perc_control,2024.2.4,Win32,59.88023952,65b930253f67ecba5f26fc07,69712dc693a3960bdb483245,6971862a8f664165a7963912,,,,,,,,,,,,./stim/wavs/puertorican_mismatch_interrogative-total-yn_El-hombre-mira-la-luna.wav,1,,,159.116,161.6982,0,0,2.0645,,0,47,47,39,1,40,1,puertorican,,,,,,,,,,,,,,,,,,,,,,,,,,,,,,,,,,,,,,,,,,,,,,,,,,,,,,,,
,,,,,,,,,65b930253f67ecba5f26fc07,Spanish,13 or older,"no, only English or Spanish",yes,2026-01-21_21h07.41.392,empathy_intonation_perc_control,2024.2.4,Win32,59.88023952,65b930253f67ecba5f26fc07,69712dc693a3960bdb483245,6971862a8f664165a7963912,,,,,,,,,,,,./stim/wavs/cuban_mismatch_declarative-broad-focus_El-hombre-mira-la-luna.wav,0,,,161.6986,163.9321,0,1,1.7045,,0,48,48,74,1,75,0,cuban,,,,,,,,,,,,,,,,,,,,,,,,,,,,,,,,,,,,,,,,,,,,,,,,,,,,,,,,
,,,,,,,,,65b930253f67ecba5f26fc07,Spanish,13 or older,"no, only English or Spanish",yes,2026-01-21_21h07.41.392,empathy_intonation_perc_control,2024.2.4,Win32,59.88023952,65b930253f67ecba5f26fc07,69712dc693a3960bdb483245,6971862a8f664165a7963912,,,,,,,,,,,,./stim/wavs/puertorican_mismatch_interrogative-total-yn_La-nina-lava-el-plato.wav,1,,,163.9327,166.7653,0,0,2.2996,,0,49,49,42,1,43,1,puertorican,,,,,,,,,,,,,,,,,,,,,,,,,,,,,,,,,,,,,,,,,,,,,,,,,,,,,,,,
,,,,,,,,,65b930253f67ecba5f26fc07,Spanish,13 or older,"no, only English or Spanish",yes,2026-01-21_21h07.41.392,empathy_intonation_perc_control,2024.2.4,Win32,59.88023952,65b930253f67ecba5f26fc07,69712dc693a3960bdb483245,6971862a8f664165a7963912,,,,,,,,,,,,./stim/wavs/cuban_match_declarative-broad-focus_Marta-abre-el-regalo.wav,0,,,166.7656,168.9319,0,1,1.6379,,0,50,50,55,1,56,0,cuban,,,,,,,,,,,,,,,,,,,,,,,,,,,,,,,,,,,,,,,,,,,,,,,,,,,,,,,,
,,,,,,,,,65b930253f67ecba5f26fc07,Spanish,13 or older,"no, only English or Spanish",yes,2026-01-21_21h07.41.392,empathy_intonation_perc_control,2024.2.4,Win32,59.88023952,65b930253f67ecba5f26fc07,69712dc693a3960bdb483245,6971862a8f664165a7963912,,,,,,,,,,,,./stim/wavs/cuban_match_interrogative-total-yn_Ana-lleva-el-abrigo.wav,1,,,168.9322,170.8322,0,0,1.3754,,0,51,51,6,1,7,1,cuban,,,,,,,,,,,,,,,,,,,,,,,,,,,,,,,,,,,,,,,,,,,,,,,,,,,,,,,,
,,,,,,,,,65b930253f67ecba5f26fc07,Spanish,13 or older,"no, only English or Spanish",yes,2026-01-21_21h07.41.392,empathy_intonation_perc_control,2024.2.4,Win32,59.88023952,65b930253f67ecba5f26fc07,69712dc693a3960bdb483245,6971862a8f664165a7963912,,,,,,,,,,,,./stim/wavs/puertorican_mismatch_declarative-broad-focus_El-nino-oye-el-rio.wav,0,,,170.8327,173.432,0,1,2.0804,,0,52,52,85,1,86,0,puertorican,,,,,,,,,,,,,,,,,,,,,,,,,,,,,,,,,,,,,,,,,,,,,,,,,,,,,,,,
,,,,,,,,,65b930253f67ecba5f26fc07,Spanish,13 or older,"no, only English or Spanish",yes,2026-01-21_21h07.41.392,empathy_intonation_perc_control,2024.2.4,Win32,59.88023952,65b930253f67ecba5f26fc07,69712dc693a3960bdb483245,6971862a8f664165a7963912,,,,,,,,,,,,./stim/wavs/cuban_match_interrogative-total-yn_Marta-abre-el-regalo.wav,1,,,173.4323,175.8656,0,0,1.9211,,0,53,53,11,1,12,1,cuban,,,,,,,,,,,,,,,,,,,,,,,,,,,,,,,,,,,,,,,,,,,,,,,,,,,,,,,,
,,,,,,,,,65b930253f67ecba5f26fc07,Spanish,13 or older,"no, only English or Spanish",yes,2026-01-21_21h07.41.392,empathy_intonation_perc_control,2024.2.4,Win32,59.88023952,65b930253f67ecba5f26fc07,69712dc693a3960bdb483245,6971862a8f664165a7963912,,,,,,,,,,,,./stim/wavs/mexican_mismatch_declarative-broad-focus_La-maestra-vive-en-Paris.wav,0,,,175.8659,178.4154,0,1,2.031,,0,54,54,80,1,81,0,mexican,,,,,,,,,,,,,,,,,,,,,,,,,,,,,,,,,,,,,,,,,,,,,,,,,,,,,,,,
,,,,,,,,,65b930253f67ecba5f26fc07,Spanish,13 or older,"no, only English or Spanish",yes,2026-01-21_21h07.41.392,empathy_intonation_perc_control,2024.2.4,Win32,59.88023952,65b930253f67ecba5f26fc07,69712dc693a3960bdb483245,6971862a8f664165a7963912,,,,,,,,,,,,./stim/wavs/cuban_match_interrogative-total-yn_Manuela-vende-el-carro.wav,1,,,178.4158,180.5989,0,0,1.6561,,0,55,55,8,1,9,1,cuban,,,,,,,,,,,,,,,,,,,,,,,,,,,,,,,,,,,,,,,,,,,,,,,,,,,,,,,,
,,,,,,,,,65b930253f67ecba5f26fc07,Spanish,13 or older,"no, only English or Spanish",yes,2026-01-21_21h07.41.392,empathy_intonation_perc_control,2024.2.4,Win32,59.88023952,65b930253f67ecba5f26fc07,69712dc693a3960bdb483245,6971862a8f664165a7963912,,,,,,,,,,,,./stim/wavs/castilian_match_declarative-broad-focus_Marta-abre-el-regalo.wav,0,,,180.5995,182.8324,0,1,1.6999,,0,56,56,49,1,50,0,castilian,,,,,,,,,,,,,,,,,,,,,,,,,,,,,,,,,,,,,,,,,,,,,,,,,,,,,,,,
,,,,,,,,,65b930253f67ecba5f26fc07,Spanish,13 or older,"no, only English or Spanish",yes,2026-01-21_21h07.41.392,empathy_intonation_perc_control,2024.2.4,Win32,59.88023952,65b930253f67ecba5f26fc07,69712dc693a3960bdb483245,6971862a8f664165a7963912,,,,,,,,,,,,./stim/wavs/castilian_mismatch_declarative-broad-focus_Mi-novio-viene-del-lago.wav,0,,,182.833,185.3661,0,1,2.0066,,0,57,57,71,1,72,0,castilian,,,,,,,,,,,,,,,,,,,,,,,,,,,,,,,,,,,,,,,,,,,,,,,,,,,,,,,,
,,,,,,,,,65b930253f67ecba5f26fc07,Spanish,13 or older,"no, only English or Spanish",yes,2026-01-21_21h07.41.392,empathy_intonation_perc_control,2024.2.4,Win32,59.88023952,65b930253f67ecba5f26fc07,69712dc693a3960bdb483245,6971862a8f664165a7963912,,,,,,,,,,,,./stim/wavs/cuban_match_interrogative-total-yn_Maria-bebe-el-vino.wav,1,,,185.3665,187.8992,0,0,2.0008,,0,58,58,9,1,10,1,cuban,,,,,,,,,,,,,,,,,,,,,,,,,,,,,,,,,,,,,,,,,,,,,,,,,,,,,,,,
,,,,,,,,,65b930253f67ecba5f26fc07,Spanish,13 or older,"no, only English or Spanish",yes,2026-01-21_21h07.41.392,empathy_intonation_perc_control,2024.2.4,Win32,59.88023952,65b930253f67ecba5f26fc07,69712dc693a3960bdb483245,6971862a8f664165a7963912,,,,,,,,,,,,./stim/wavs/mexican_match_declarative-broad-focus_Mariano-habla-del-tiempo.wav,0,,,187.8997,190.7658,0,1,2.3413,,0,59,59,60,1,61,0,mexican,,,,,,,,,,,,,,,,,,,,,,,,,,,,,,,,,,,,,,,,,,,,,,,,,,,,,,,,
,,,,,,,,,65b930253f67ecba5f26fc07,Spanish,13 or older,"no, only English or Spanish",yes,2026-01-21_21h07.41.392,empathy_intonation_perc_control,2024.2.4,Win32,59.88023952,65b930253f67ecba5f26fc07,69712dc693a3960bdb483245,6971862a8f664165a7963912,,,,,,,,,,,,./stim/wavs/mexican_mismatch_declarative-broad-focus_El-bebe-comia-muy-bien.wav,0,,,190.7663,193.699,0,1,2.4166,,0,60,60,78,1,79,0,mexican,,,,,,,,,,,,,,,,,,,,,,,,,,,,,,,,,,,,,,,,,,,,,,,,,,,,,,,,
,,,,,,,,,65b930253f67ecba5f26fc07,Spanish,13 or older,"no, only English or Spanish",yes,2026-01-21_21h07.41.392,empathy_intonation_perc_control,2024.2.4,Win32,59.88023952,65b930253f67ecba5f26fc07,69712dc693a3960bdb483245,6971862a8f664165a7963912,,,,,,,,,,,,./stim/wavs/puertorican_mismatch_interrogative-total-yn_El-nino-oye-el-rio.wav,1,,,193.6996,196.3162,0,0,2.0934,,0,61,61,40,1,41,1,puertorican,,,,,,,,,,,,,,,,,,,,,,,,,,,,,,,,,,,,,,,,,,,,,,,,,,,,,,,,
,,,,,,,,,65b930253f67ecba5f26fc07,Spanish,13 or older,"no, only English or Spanish",yes,2026-01-21_21h07.41.392,empathy_intonation_perc_control,2024.2.4,Win32,59.88023952,65b930253f67ecba5f26fc07,69712dc693a3960bdb483245,6971862a8f664165a7963912,,,,,,,,,,,,./stim/wavs/mexican_mismatch_interrogative-total-yn_El-hombre-mira-la-luna.wav,1,,,196.3166,198.9161,1,1,2.074,,0,62,62,34,1,35,0,mexican,,,,,,,,,,,,,,,,,,,,,,,,,,,,,,,,,,,,,,,,,,,,,,,,,,,,,,,,
,,,,,,,,,65b930253f67ecba5f26fc07,Spanish,13 or older,"no, only English or Spanish",yes,2026-01-21_21h07.41.392,empathy_intonation_perc_control,2024.2.4,Win32,59.88023952,65b930253f67ecba5f26fc07,69712dc693a3960bdb483245,6971862a8f664165a7963912,,,,,,,,,,,,./stim/wavs/mexican_match_interrogative-total-yn_David-leia-el-libro.wav,1,,,198.9166,201.0329,1,1,1.5841,,0,63,63,14,1,15,0,mexican,,,,,,,,,,,,,,,,,,,,,,,,,,,,,,,,,,,,,,,,,,,,,,,,,,,,,,,,
,,,,,,,,,65b930253f67ecba5f26fc07,Spanish,13 or older,"no, only English or Spanish",yes,2026-01-21_21h07.41.392,empathy_intonation_perc_control,2024.2.4,Win32,59.88023952,65b930253f67ecba5f26fc07,69712dc693a3960bdb483245,6971862a8f664165a7963912,,,,,,,,,,,,./stim/wavs/puertorican_match_declarative-broad-focus_Maria-bebe-el-vino.wav,0,,,201.0334,203.116,0,1,1.5634,,0,64,64,67,1,68,0,puertorican,,,,,,,,,,,,,,,,,,,,,,,,,,,,,,,,,,,,,,,,,,,,,,,,,,,,,,,,
,,,,,,,,,65b930253f67ecba5f26fc07,Spanish,13 or older,"no, only English or Spanish",yes,2026-01-21_21h07.41.392,empathy_intonation_perc_control,2024.2.4,Win32,59.88023952,65b930253f67ecba5f26fc07,69712dc693a3960bdb483245,6971862a8f664165a7963912,,,,,,,,,,,,./stim/wavs/castilian_match_declarative-broad-focus_Mariano-habla-del-tiempo.wav,0,,,203.1163,205.666,0,1,2.0266,,0,65,65,48,1,49,0,castilian,,,,,,,,,,,,,,,,,,,,,,,,,,,,,,,,,,,,,,,,,,,,,,,,,,,,,,,,
,,,,,,,,,65b930253f67ecba5f26fc07,Spanish,13 or older,"no, only English or Spanish",yes,2026-01-21_21h07.41.392,empathy_intonation_perc_control,2024.2.4,Win32,59.88023952,65b930253f67ecba5f26fc07,69712dc693a3960bdb483245,6971862a8f664165a7963912,,,,,,,,,,,,./stim/wavs/cuban_match_declarative-broad-focus_Ana-lleva-el-abrigo.wav,0,,,205.6664,207.8501,0,1,1.6755,,0,66,66,50,1,51,0,cuban,,,,,,,,,,,,,,,,,,,,,,,,,,,,,,,,,,,,,,,,,,,,,,,,,,,,,,,,
,,,,,,,,,65b930253f67ecba5f26fc07,Spanish,13 or older,"no, only English or Spanish",yes,2026-01-21_21h07.41.392,empathy_intonation_perc_control,2024.2.4,Win32,59.88023952,65b930253f67ecba5f26fc07,69712dc693a3960bdb483245,6971862a8f664165a7963912,,,,,,,,,,,,./stim/wavs/puertorican_match_declarative-broad-focus_Emilio-ama-la-marcha.wav,0,,,207.8506,209.8333,0,1,1.4556,,0,67,67,65,1,66,0,puertorican,,,,,,,,,,,,,,,,,,,,,,,,,,,,,,,,,,,,,,,,,,,,,,,,,,,,,,,,
,,,,,,,,,65b930253f67ecba5f26fc07,Spanish,13 or older,"no, only English or Spanish",yes,2026-01-21_21h07.41.392,empathy_intonation_perc_control,2024.2.4,Win32,59.88023952,65b930253f67ecba5f26fc07,69712dc693a3960bdb483245,6971862a8f664165a7963912,,,,,,,,,,,,./stim/wavs/cuban_match_declarative-broad-focus_Manuela-vende-el-carro.wav,0,,,209.8337,212.6665,0,1,2.3116,,0,68,68,52,1,53,0,cuban,,,,,,,,,,,,,,,,,,,,,,,,,,,,,,,,,,,,,,,,,,,,,,,,,,,,,,,,
,,,,,,,,,65b930253f67ecba5f26fc07,Spanish,13 or older,"no, only English or Spanish",yes,2026-01-21_21h07.41.392,empathy_intonation_perc_control,2024.2.4,Win32,59.88023952,65b930253f67ecba5f26fc07,69712dc693a3960bdb483245,6971862a8f664165a7963912,,,,,,,,,,,,./stim/wavs/mexican_match_interrogative-total-yn_Marta-abre-el-regalo.wav,1,,,212.667,215.2997,1,1,2.1052,,0,69,69,17,1,18,0,mexican,,,,,,,,,,,,,,,,,,,,,,,,,,,,,,,,,,,,,,,,,,,,,,,,,,,,,,,,
,,,,,,,,,65b930253f67ecba5f26fc07,Spanish,13 or older,"no, only English or Spanish",yes,2026-01-21_21h07.41.392,empathy_intonation_perc_control,2024.2.4,Win32,59.88023952,65b930253f67ecba5f26fc07,69712dc693a3960bdb483245,6971862a8f664165a7963912,,,,,,,,,,,,./stim/wavs/mexican_match_declarative-broad-focus_Ana-lleva-el-abrigo.wav,0,,,215.2999,217.8832,0,1,2.0779,,0,70,70,56,1,57,0,mexican,,,,,,,,,,,,,,,,,,,,,,,,,,,,,,,,,,,,,,,,,,,,,,,,,,,,,,,,
,,,,,,,,,65b930253f67ecba5f26fc07,Spanish,13 or older,"no, only English or Spanish",yes,2026-01-21_21h07.41.392,empathy_intonation_perc_control,2024.2.4,Win32,59.88023952,65b930253f67ecba5f26fc07,69712dc693a3960bdb483245,6971862a8f664165a7963912,,,,,,,,,,,,./stim/wavs/mexican_match_interrogative-total-yn_Mariano-habla-del-tiempo.wav,1,,,217.8837,219.1664,1,1,0.7634,,0,71,71,16,1,17,0,mexican,,,,,,,,,,,,,,,,,,,,,,,,,,,,,,,,,,,,,,,,,,,,,,,,,,,,,,,,
,,,,,,,,,65b930253f67ecba5f26fc07,Spanish,13 or older,"no, only English or Spanish",yes,2026-01-21_21h07.41.392,empathy_intonation_perc_control,2024.2.4,Win32,59.88023952,65b930253f67ecba5f26fc07,69712dc693a3960bdb483245,6971862a8f664165a7963912,,,,,,,,,,,,./stim/wavs/puertorican_mismatch_declarative-broad-focus_El-hombre-mira-la-luna.wav,0,,,219.1669,221.4832,0,1,1.7937,,0,72,72,84,1,85,0,puertorican,,,,,,,,,,,,,,,,,,,,,,,,,,,,,,,,,,,,,,,,,,,,,,,,,,,,,,,,
,,,,,,,,,65b930253f67ecba5f26fc07,Spanish,13 or older,"no, only English or Spanish",yes,2026-01-21_21h07.41.392,empathy_intonation_perc_control,2024.2.4,Win32,59.88023952,65b930253f67ecba5f26fc07,69712dc693a3960bdb483245,6971862a8f664165a7963912,,,,,,,,,,,,./stim/wavs/puertorican_match_interrogative-total-yn_Emilio-ama-la-marcha.wav,1,,,221.4837,223.7003,0,0,1.7079,,0,73,73,21,1,22,1,puertorican,,,,,,,,,,,,,,,,,,,,,,,,,,,,,,,,,,,,,,,,,,,,,,,,,,,,,,,,
,,,,,,,,,65b930253f67ecba5f26fc07,Spanish,13 or older,"no, only English or Spanish",yes,2026-01-21_21h07.41.392,empathy_intonation_perc_control,2024.2.4,Win32,59.88023952,65b930253f67ecba5f26fc07,69712dc693a3960bdb483245,6971862a8f664165a7963912,,,,,,,,,,,,./stim/wavs/castilian_match_declarative-broad-focus_Maria-bebe-el-vino.wav,0,,,223.7008,226.4835,0,1,2.2525,,0,74,74,47,1,48,0,castilian,,,,,,,,,,,,,,,,,,,,,,,,,,,,,,,,,,,,,,,,,,,,,,,,,,,,,,,,
,,,,,,,,,65b930253f67ecba5f26fc07,Spanish,13 or older,"no, only English or Spanish",yes,2026-01-21_21h07.41.392,empathy_intonation_perc_control,2024.2.4,Win32,59.88023952,65b930253f67ecba5f26fc07,69712dc693a3960bdb483245,6971862a8f664165a7963912,,,,,,,,,,,,./stim/wavs/mexican_mismatch_interrogative-total-yn_Mi-tia-odia-la-lluvia.wav,1,,,226.484,229.0835,1,1,2.0668,,0,75,75,38,1,39,0,mexican,,,,,,,,,,,,,,,,,,,,,,,,,,,,,,,,,,,,,,,,,,,,,,,,,,,,,,,,
,,,,,,,,,65b930253f67ecba5f26fc07,Spanish,13 or older,"no, only English or Spanish",yes,2026-01-21_21h07.41.392,empathy_intonation_perc_control,2024.2.4,Win32,59.88023952,65b930253f67ecba5f26fc07,69712dc693a3960bdb483245,6971862a8f664165a7963912,,,,,,,,,,,,./stim/wavs/cuban_mismatch_interrogative-total-yn_Mi-madre-come-la-fruta.wav,1,,,229.0839,231.7167,0,0,2.1017,,0,76,76,31,1,32,1,cuban,,,,,,,,,,,,,,,,,,,,,,,,,,,,,,,,,,,,,,,,,,,,,,,,,,,,,,,,
,,,,,,,,,65b930253f67ecba5f26fc07,Spanish,13 or older,"no, only English or Spanish",yes,2026-01-21_21h07.41.392,empathy_intonation_perc_control,2024.2.4,Win32,59.88023952,65b930253f67ecba5f26fc07,69712dc693a3960bdb483245,6971862a8f664165a7963912,,,,,,,,,,,,./stim/wavs/puertorican_match_interrogative-total-yn_David-leia-el-libro.wav,1,,,231.7174,234.4171,0,0,2.1757,,0,77,77,20,1,21,1,puertorican,,,,,,,,,,,,,,,,,,,,,,,,,,,,,,,,,,,,,,,,,,,,,,,,,,,,,,,,
,,,,,,,,,65b930253f67ecba5f26fc07,Spanish,13 or older,"no, only English or Spanish",yes,2026-01-21_21h07.41.392,empathy_intonation_perc_control,2024.2.4,Win32,59.88023952,65b930253f67ecba5f26fc07,69712dc693a3960bdb483245,6971862a8f664165a7963912,,,,,,,,,,,,./stim/wavs/puertorican_mismatch_declarative-broad-focus_El-bebe-comia-muy-bien.wav,0,,,234.4175,236.8837,0,1,1.9337,,0,78,78,83,1,84,0,puertorican,,,,,,,,,,,,,,,,,,,,,,,,,,,,,,,,,,,,,,,,,,,,,,,,,,,,,,,,
,,,,,,,,,65b930253f67ecba5f26fc07,Spanish,13 or older,"no, only English or Spanish",yes,2026-01-21_21h07.41.392,empathy_intonation_perc_control,2024.2.4,Win32,59.88023952,65b930253f67ecba5f26fc07,69712dc693a3960bdb483245,6971862a8f664165a7963912,,,,,,,,,,,,./stim/wavs/mexican_match_declarative-broad-focus_Marta-abre-el-regalo.wav,0,,,236.8841,240.0004,0,1,2.5876,,0,79,79,61,1,62,0,mexican,,,,,,,,,,,,,,,,,,,,,,,,,,,,,,,,,,,,,,,,,,,,,,,,,,,,,,,,
,,,,,,,,,65b930253f67ecba5f26fc07,Spanish,13 or older,"no, only English or Spanish",yes,2026-01-21_21h07.41.392,empathy_intonation_perc_control,2024.2.4,Win32,59.88023952,65b930253f67ecba5f26fc07,69712dc693a3960bdb483245,6971862a8f664165a7963912,,,,,,,,,,,,./stim/wavs/puertorican_match_interrogative-total-yn_Maria-bebe-el-vino.wav,1,,,240.0008,242.6339,0,0,2.1253,,0,80,80,23,1,24,1,puertorican,,,,,,,,,,,,,,,,,,,,,,,,,,,,,,,,,,,,,,,,,,,,,,,,,,,,,,,,
,,,,,,,,,65b930253f67ecba5f26fc07,Spanish,13 or older,"no, only English or Spanish",yes,2026-01-21_21h07.41.392,empathy_intonation_perc_control,2024.2.4,Win32,59.88023952,65b930253f67ecba5f26fc07,69712dc693a3960bdb483245,6971862a8f664165a7963912,,,,,,,,,,,,./stim/wavs/castilian_match_interrogative-total-yn_David-leia-el-libro.wav,1,,,242.6344,244.8839,1,1,1.7209,,0,81,81,0,1,1,0,castilian,,,,,,,,,,,,,,,,,,,,,,,,,,,,,,,,,,,,,,,,,,,,,,,,,,,,,,,,
,,,,,,,,,65b930253f67ecba5f26fc07,Spanish,13 or older,"no, only English or Spanish",yes,2026-01-21_21h07.41.392,empathy_intonation_perc_control,2024.2.4,Win32,59.88023952,65b930253f67ecba5f26fc07,69712dc693a3960bdb483245,6971862a8f664165a7963912,,,,,,,,,,,,./stim/wavs/puertorican_mismatch_interrogative-total-yn_La-maestra-vive-en-Paris.wav,1,,,244.8845,247.3504,0,0,1.9467,,0,82,82,41,1,42,1,puertorican,,,,,,,,,,,,,,,,,,,,,,,,,,,,,,,,,,,,,,,,,,,,,,,,,,,,,,,,
,,,,,,,,,65b930253f67ecba5f26fc07,Spanish,13 or older,"no, only English or Spanish",yes,2026-01-21_21h07.41.392,empathy_intonation_perc_control,2024.2.4,Win32,59.88023952,65b930253f67ecba5f26fc07,69712dc693a3960bdb483245,6971862a8f664165a7963912,,,,,,,,,,,,./stim/wavs/puertorican_match_declarative-broad-focus_David-leia-el-libro.wav,0,,,247.3508,249.2841,0,1,1.4029,,0,83,83,64,1,65,0,puertorican,,,,,,,,,,,,,,,,,,,,,,,,,,,,,,,,,,,,,,,,,,,,,,,,,,,,,,,,
,,,,,,,,,65b930253f67ecba5f26fc07,Spanish,13 or older,"no, only English or Spanish",yes,2026-01-21_21h07.41.392,empathy_intonation_perc_control,2024.2.4,Win32,59.88023952,65b930253f67ecba5f26fc07,69712dc693a3960bdb483245,6971862a8f664165a7963912,,,,,,,,,,,,./stim/wavs/cuban_match_interrogative-total-yn_Daniel-iba-a-Bolivia.wav,1,,,249.2845,251.9841,0,0,2.1786,,0,84,84,7,1,8,1,cuban,,,,,,,,,,,,,,,,,,,,,,,,,,,,,,,,,,,,,,,,,,,,,,,,,,,,,,,,
,,,,,,,,,65b930253f67ecba5f26fc07,Spanish,13 or older,"no, only English or Spanish",yes,2026-01-21_21h07.41.392,empathy_intonation_perc_control,2024.2.4,Win32,59.88023952,65b930253f67ecba5f26fc07,69712dc693a3960bdb483245,6971862a8f664165a7963912,,,,,,,,,,,,./stim/wavs/mexican_mismatch_declarative-broad-focus_El-hombre-mira-la-luna.wav,0,,,251.9845,254.3013,0,1,1.7937,,0,85,85,79,1,80,0,mexican,,,,,,,,,,,,,,,,,,,,,,,,,,,,,,,,,,,,,,,,,,,,,,,,,,,,,,,,
,,,,,,,,,65b930253f67ecba5f26fc07,Spanish,13 or older,"no, only English or Spanish",yes,2026-01-21_21h07.41.392,empathy_intonation_perc_control,2024.2.4,Win32,59.88023952,65b930253f67ecba5f26fc07,69712dc693a3960bdb483245,6971862a8f664165a7963912,,,,,,,,,,,,./stim/wavs/castilian_mismatch_interrogative-total-yn_La-nina-lava-el-plato.wav,1,,,254.3018,256.6841,1,1,1.8629,,0,86,86,25,1,26,0,castilian,,,,,,,,,,,,,,,,,,,,,,,,,,,,,,,,,,,,,,,,,,,,,,,,,,,,,,,,
,,,,,,,,,65b930253f67ecba5f26fc07,Spanish,13 or older,"no, only English or Spanish",yes,2026-01-21_21h07.41.392,empathy_intonation_perc_control,2024.2.4,Win32,59.88023952,65b930253f67ecba5f26fc07,69712dc693a3960bdb483245,6971862a8f664165a7963912,,,,,,,,,,,,./stim/wavs/castilian_mismatch_declarative-broad-focus_Mi-tia-odia-la-lluvia.wav,0,,,256.6844,258.6843,1,0,1.4702,,0,87,87,72,1,73,0,castilian,,,,,,,,,,,,,,,,,,,,,,,,,,,,,,,,,,,,,,,,,,,,,,,,,,,,,,,,
,,,,,,,"Great! Now we will move on. The next task consists of about 60 trials, in each of which you will see a string of letters. 
  
  Your task is to decide whether this is a real Spanish word or not.", (press the spacebar to continue),65b930253f67ecba5f26fc07,Spanish,13 or older,"no, only English or Spanish",yes,2026-01-21_21h07.41.392,empathy_intonation_perc_control,2024.2.4,Win32,59.88023952,65b930253f67ecba5f26fc07,69712dc693a3960bdb483245,6971862a8f664165a7963912,,,,,,,,,,,,,,,,,,,,,,,,,,,,,,258.6881,267.1846,0,0,0,0,1,,,,,,,,,,,,,,,,,,,,,,,,,,,,,,,,,,,,,,,,,,,,,,,,,
,,,,,,,"If you think it is an existing Spanish word, you type '1' (for 'REAL'), and if you think it is not an existing Spanish word, you type '0' (for 'FAKE').", (press the spacebar to continue),65b930253f67ecba5f26fc07,Spanish,13 or older,"no, only English or Spanish",yes,2026-01-21_21h07.41.392,empathy_intonation_perc_control,2024.2.4,Win32,59.88023952,65b930253f67ecba5f26fc07,69712dc693a3960bdb483245,6971862a8f664165a7963912,,,,,,,,,,,,,,,,,,,,,,,,,,,,,,267.1861,269.6347,0,1,1,1,1,,,,,,,,,,,,,,,,,,,,,,,,,,,,,,,,,,,,,,,,,,,,,,,,,
,,,,,,,"If you are sure that the word exists, even though you don’t know its exact meaning, you may still respond '1' (REAL). 
  
  But if you are not sure if it is an existing word, you should respond '0' (FAKE).
  
  Let's do a practice round...", (press the spacebar to continue),65b930253f67ecba5f26fc07,Spanish,13 or older,"no, only English or Spanish",yes,2026-01-21_21h07.41.392,empathy_intonation_perc_control,2024.2.4,Win32,59.88023952,65b930253f67ecba5f26fc07,69712dc693a3960bdb483245,6971862a8f664165a7963912,,,,,,,,,,,,,,,,,,,,,,,,,,,,,,269.6361,270.551,0,2,2,2,1,,,,,,,,,,,,,,,,,,,,,,,,,,,,,,,,,,,,,,,,,,,,,,,,,
,,,,,,,,,65b930253f67ecba5f26fc07,Spanish,13 or older,"no, only English or Spanish",yes,2026-01-21_21h07.41.392,empathy_intonation_perc_control,2024.2.4,Win32,59.88023952,65b930253f67ecba5f26fc07,69712dc693a3960bdb483245,6971862a8f664165a7963912,,,,,,,,,,,,,0,,,,,,,,,,,,,,,,,,,,,,,,270.5543,274.3349,0,1,3.2452,,274.3351,275.3346,0,0,0,0,1,0,depiste,REAL,FAKE,,,,,,,,,,,,,,,,,,,,,,,,,,,,,,,,
,,,,,,,,,65b930253f67ecba5f26fc07,Spanish,13 or older,"no, only English or Spanish",yes,2026-01-21_21h07.41.392,empathy_intonation_perc_control,2024.2.4,Win32,59.88023952,65b930253f67ecba5f26fc07,69712dc693a3960bdb483245,6971862a8f664165a7963912,,,,,,,,,,,,,1,,,,,,,,,,,,,,,,,,,,,,,,275.3355,277.3181,1,1,1.4426,,277.3182,278.3185,0,1,1,1,1,0,sí,REAL,FAKE,,,,,,,,,,,,,,,,,,,,,,,,,,,,,,,,
,,,,,,,,,65b930253f67ecba5f26fc07,Spanish,13 or older,"no, only English or Spanish",yes,2026-01-21_21h07.41.392,empathy_intonation_perc_control,2024.2.4,Win32,59.88023952,65b930253f67ecba5f26fc07,69712dc693a3960bdb483245,6971862a8f664165a7963912,,,,,,,,,,,,,0,,,,,,,,,,,,,,,,,,,,,,,,278.3199,280.5682,0,1,1.706,,280.5682,281.5686,0,2,2,2,1,0,coné,REAL,FAKE,,,,,,,,,,,,,,,,,,,,,,,,,,,,,,,,
,,,,,,,,,65b930253f67ecba5f26fc07,Spanish,13 or older,"no, only English or Spanish",yes,2026-01-21_21h07.41.392,empathy_intonation_perc_control,2024.2.4,Win32,59.88023952,65b930253f67ecba5f26fc07,69712dc693a3960bdb483245,6971862a8f664165a7963912,,,,,,,,,,,,,0,,,,,,,,,,,,,,,,,,,,,,,,281.57,283.1516,0,1,1.033,,283.1516,284.1514,0,3,3,3,1,0,calpar,REAL,FAKE,,,,,,,,,,,,,,,,,,,,,,,,,,,,,,,,
,,,,,,,,,65b930253f67ecba5f26fc07,Spanish,13 or older,"no, only English or Spanish",yes,2026-01-21_21h07.41.392,empathy_intonation_perc_control,2024.2.4,Win32,59.88023952,65b930253f67ecba5f26fc07,69712dc693a3960bdb483245,6971862a8f664165a7963912,,,,,,,,,,,,,0,,,,,,,,,,,,,,,,,,,,,,,,284.1524,285.7851,0,1,1.1082,,285.7851,286.7849,0,4,4,4,1,0,joten,REAL,FAKE,,,,,,,,,,,,,,,,,,,,,,,,,,,,,,,,
,,,,,,,,,65b930253f67ecba5f26fc07,Spanish,13 or older,"no, only English or Spanish",yes,2026-01-21_21h07.41.392,empathy_intonation_perc_control,2024.2.4,Win32,59.88023952,65b930253f67ecba5f26fc07,69712dc693a3960bdb483245,6971862a8f664165a7963912,,,,,,,,,,,,,1,,,,,,,,,,,,,,,,,,,,,,,,286.7859,288.535,0,0,1.2062,,288.5364,289.5351,0,5,5,5,1,0,sacapuntas,REAL,FAKE,,,,,,,,,,,,,,,,,,,,,,,,,,,,,,,,
,,,,,,,,,65b930253f67ecba5f26fc07,Spanish,13 or older,"no, only English or Spanish",yes,2026-01-21_21h07.41.392,empathy_intonation_perc_control,2024.2.4,Win32,59.88023952,65b930253f67ecba5f26fc07,69712dc693a3960bdb483245,6971862a8f664165a7963912,,,,,,,,,,,,,0,,,,,,,,,,,,,,,,,,,,,,,,289.5359,292.1352,0,1,2.0493,,292.1357,293.1352,0,6,6,6,1,0,priba,REAL,FAKE,,,,,,,,,,,,,,,,,,,,,,,,,,,,,,,,
,,,,,,,,,65b930253f67ecba5f26fc07,Spanish,13 or older,"no, only English or Spanish",yes,2026-01-21_21h07.41.392,empathy_intonation_perc_control,2024.2.4,Win32,59.88023952,65b930253f67ecba5f26fc07,69712dc693a3960bdb483245,6971862a8f664165a7963912,,,,,,,,,,,,,0,,,,,,,,,,,,,,,,,,,,,,,,293.1357,294.6853,0,1,1.0078,,294.6854,295.685,0,7,7,7,1,0,pelasula,REAL,FAKE,,,,,,,,,,,,,,,,,,,,,,,,,,,,,,,,
,,,,,,,,,65b930253f67ecba5f26fc07,Spanish,13 or older,"no, only English or Spanish",yes,2026-01-21_21h07.41.392,empathy_intonation_perc_control,2024.2.4,Win32,59.88023952,65b930253f67ecba5f26fc07,69712dc693a3960bdb483245,6971862a8f664165a7963912,,,,,,,,,,,,,1,,,,,,,,,,,,,,,,,,,,,,,,295.6856,297.0017,1,1,0.7958,,297.0017,298.0024,0,8,8,8,1,0,bien,REAL,FAKE,,,,,,,,,,,,,,,,,,,,,,,,,,,,,,,,
,,,,,,,,,65b930253f67ecba5f26fc07,Spanish,13 or older,"no, only English or Spanish",yes,2026-01-21_21h07.41.392,empathy_intonation_perc_control,2024.2.4,Win32,59.88023952,65b930253f67ecba5f26fc07,69712dc693a3960bdb483245,6971862a8f664165a7963912,,,,,,,,,,,,,1,,,,,,,,,,,,,,,,,,,,,,,,298.0031,299.219,1,1,0.6676,,299.2191,300.219,0,9,9,9,1,0,casa,REAL,FAKE,,,,,,,,,,,,,,,,,,,,,,,,,,,,,,,,
,,,,,,,,,65b930253f67ecba5f26fc07,Spanish,13 or older,"no, only English or Spanish",yes,2026-01-21_21h07.41.392,empathy_intonation_perc_control,2024.2.4,Win32,59.88023952,65b930253f67ecba5f26fc07,69712dc693a3960bdb483245,6971862a8f664165a7963912,,,,,,,,,,,,,0,,,,,,,,,,,,,,,,,,,,,,,,300.2198,301.6354,0,1,0.8695,,301.6354,302.6357,0,10,10,10,1,0,lejo,REAL,FAKE,,,,,,,,,,,,,,,,,,,,,,,,,,,,,,,,
,,,,,,,,,65b930253f67ecba5f26fc07,Spanish,13 or older,"no, only English or Spanish",yes,2026-01-21_21h07.41.392,empathy_intonation_perc_control,2024.2.4,Win32,59.88023952,65b930253f67ecba5f26fc07,69712dc693a3960bdb483245,6971862a8f664165a7963912,,,,,,,,,,,,,0,,,,,,,,,,,,,,,,,,,,,,,,302.6368,304.9518,0,1,1.7797,,304.9519,305.9524,0,11,11,11,1,0,pretantas,REAL,FAKE,,,,,,,,,,,,,,,,,,,,,,,,,,,,,,,,
,,,,,,,,,65b930253f67ecba5f26fc07,Spanish,13 or older,"no, only English or Spanish",yes,2026-01-21_21h07.41.392,empathy_intonation_perc_control,2024.2.4,Win32,59.88023952,65b930253f67ecba5f26fc07,69712dc693a3960bdb483245,6971862a8f664165a7963912,,,,,,,,,,,,,,,,,,,,,,,,,,,,,,,,,,,,,,,,,,,,,,,,,,,,,,305.9526,306.936,,,,,,,,,,,,,,,,,,,,,,,,,,,,,,
,,,,,,,,,65b930253f67ecba5f26fc07,Spanish,13 or older,"no, only English or Spanish",yes,2026-01-21_21h07.41.392,empathy_intonation_perc_control,2024.2.4,Win32,59.88023952,65b930253f67ecba5f26fc07,69712dc693a3960bdb483245,6971862a8f664165a7963912,,,,,,,,,,,,,0,,,,,,,,,,,,,,,,,,,,,,,,,,,,,,,,,,,,,21,capillo,,,,,306.9412,308.6358,1,0,1.1603,,0,0,0,20,1,REAL,FAKE,,,,,,,,,,,,,,,,,
,,,,,,,,,65b930253f67ecba5f26fc07,Spanish,13 or older,"no, only English or Spanish",yes,2026-01-21_21h07.41.392,empathy_intonation_perc_control,2024.2.4,Win32,59.88023952,65b930253f67ecba5f26fc07,69712dc693a3960bdb483245,6971862a8f664165a7963912,,,,,,,,,,,,,1,,,,,,,,,,,,,,,,,,,,,,,,,,,,,,,,,,,,,2,pellizcar,,,,,308.6368,311.1522,0,0,1.9792,,0,1,1,1,1,REAL,FAKE,,,,,,,,,,,,,,,,,
,,,,,,,,,65b930253f67ecba5f26fc07,Spanish,13 or older,"no, only English or Spanish",yes,2026-01-21_21h07.41.392,empathy_intonation_perc_control,2024.2.4,Win32,59.88023952,65b930253f67ecba5f26fc07,69712dc693a3960bdb483245,6971862a8f664165a7963912,,,,,,,,,,,,,1,,,,,,,,,,,,,,,,,,,,,,,,,,,,,,,,,,,,,54,fomentar,,,,,311.1535,312.6523,1,1,0.9588,,0,2,2,53,1,REAL,FAKE,,,,,,,,,,,,,,,,,
,,,,,,,,,65b930253f67ecba5f26fc07,Spanish,13 or older,"no, only English or Spanish",yes,2026-01-21_21h07.41.392,empathy_intonation_perc_control,2024.2.4,Win32,59.88023952,65b930253f67ecba5f26fc07,69712dc693a3960bdb483245,6971862a8f664165a7963912,,,,,,,,,,,,,1,,,,,,,,,,,,,,,,,,,,,,,,,,,,,,,,,,,,,80,hormiga,,,,,312.6534,314.6025,1,1,1.3996,,0,3,3,79,1,REAL,FAKE,,,,,,,,,,,,,,,,,
,,,,,,,,,65b930253f67ecba5f26fc07,Spanish,13 or older,"no, only English or Spanish",yes,2026-01-21_21h07.41.392,empathy_intonation_perc_control,2024.2.4,Win32,59.88023952,65b930253f67ecba5f26fc07,69712dc693a3960bdb483245,6971862a8f664165a7963912,,,,,,,,,,,,,1,,,,,,,,,,,,,,,,,,,,,,,,,,,,,,,,,,,,,37,granuja,,,,,314.6033,317.4025,0,0,2.2603,,0,4,4,36,1,REAL,FAKE,,,,,,,,,,,,,,,,,
,,,,,,,,,65b930253f67ecba5f26fc07,Spanish,13 or older,"no, only English or Spanish",yes,2026-01-21_21h07.41.392,empathy_intonation_perc_control,2024.2.4,Win32,59.88023952,65b930253f67ecba5f26fc07,69712dc693a3960bdb483245,6971862a8f664165a7963912,,,,,,,,,,,,,0,,,,,,,,,,,,,,,,,,,,,,,,,,,,,,,,,,,,,82,empirador,,,,,317.4036,319.3031,1,0,1.3682,,0,5,5,81,1,REAL,FAKE,,,,,,,,,,,,,,,,,
,,,,,,,,,65b930253f67ecba5f26fc07,Spanish,13 or older,"no, only English or Spanish",yes,2026-01-21_21h07.41.392,empathy_intonation_perc_control,2024.2.4,Win32,59.88023952,65b930253f67ecba5f26fc07,69712dc693a3960bdb483245,6971862a8f664165a7963912,,,,,,,,,,,,,0,,,,,,,,,,,,,,,,,,,,,,,,,,,,,,,,,,,,,27,acutación,,,,,319.3042,322.0695,1,0,2.2206,,0,6,6,26,1,REAL,FAKE,,,,,,,,,,,,,,,,,
,,,,,,,,,65b930253f67ecba5f26fc07,Spanish,13 or older,"no, only English or Spanish",yes,2026-01-21_21h07.41.392,empathy_intonation_perc_control,2024.2.4,Win32,59.88023952,65b930253f67ecba5f26fc07,69712dc693a3960bdb483245,6971862a8f664165a7963912,,,,,,,,,,,,,1,,,,,,,,,,,,,,,,,,,,,,,,,,,,,,,,,,,,,78,frondoso,,,,,322.0703,323.6196,0,0,1.0092,,0,7,7,77,1,REAL,FAKE,,,,,,,,,,,,,,,,,
,,,,,,,,,65b930253f67ecba5f26fc07,Spanish,13 or older,"no, only English or Spanish",yes,2026-01-21_21h07.41.392,empathy_intonation_perc_control,2024.2.4,Win32,59.88023952,65b930253f67ecba5f26fc07,69712dc693a3960bdb483245,6971862a8f664165a7963912,,,,,,,,,,,,,1,,,,,,,,,,,,,,,,,,,,,,,,,,,,,,,,,,,,,6,tergiversar,,,,,323.6208,325.5028,0,0,1.3364,,0,8,8,5,1,REAL,FAKE,,,,,,,,,,,,,,,,,
,,,,,,,,,65b930253f67ecba5f26fc07,Spanish,13 or older,"no, only English or Spanish",yes,2026-01-21_21h07.41.392,empathy_intonation_perc_control,2024.2.4,Win32,59.88023952,65b930253f67ecba5f26fc07,69712dc693a3960bdb483245,6971862a8f664165a7963912,,,,,,,,,,,,,1,,,,,,,,,,,,,,,,,,,,,,,,,,,,,,,,,,,,,5,zapato,,,,,325.5034,326.9695,1,1,0.9289,,0,9,9,4,1,REAL,FAKE,,,,,,,,,,,,,,,,,
,,,,,,,,,65b930253f67ecba5f26fc07,Spanish,13 or older,"no, only English or Spanish",yes,2026-01-21_21h07.41.392,empathy_intonation_perc_control,2024.2.4,Win32,59.88023952,65b930253f67ecba5f26fc07,69712dc693a3960bdb483245,6971862a8f664165a7963912,,,,,,,,,,,,,0,,,,,,,,,,,,,,,,,,,,,,,,,,,,,,,,,,,,,63,esposante,,,,,326.9703,328.7524,0,1,1.2461,,0,10,10,62,1,REAL,FAKE,,,,,,,,,,,,,,,,,
,,,,,,,,,65b930253f67ecba5f26fc07,Spanish,13 or older,"no, only English or Spanish",yes,2026-01-21_21h07.41.392,empathy_intonation_perc_control,2024.2.4,Win32,59.88023952,65b930253f67ecba5f26fc07,69712dc693a3960bdb483245,6971862a8f664165a7963912,,,,,,,,,,,,,0,,,,,,,,,,,,,,,,,,,,,,,,,,,,,,,,,,,,,10,antar,,,,,328.7531,330.1699,1,0,0.8874,,0,11,11,9,1,REAL,FAKE,,,,,,,,,,,,,,,,,
,,,,,,,,,65b930253f67ecba5f26fc07,Spanish,13 or older,"no, only English or Spanish",yes,2026-01-21_21h07.41.392,empathy_intonation_perc_control,2024.2.4,Win32,59.88023952,65b930253f67ecba5f26fc07,69712dc693a3960bdb483245,6971862a8f664165a7963912,,,,,,,,,,,,,1,,,,,,,,,,,,,,,,,,,,,,,,,,,,,,,,,,,,,56,musgo,,,,,330.1708,331.6195,0,0,0.9105,,0,12,12,55,1,REAL,FAKE,,,,,,,,,,,,,,,,,
,,,,,,,,,65b930253f67ecba5f26fc07,Spanish,13 or older,"no, only English or Spanish",yes,2026-01-21_21h07.41.392,empathy_intonation_perc_control,2024.2.4,Win32,59.88023952,65b930253f67ecba5f26fc07,69712dc693a3960bdb483245,6971862a8f664165a7963912,,,,,,,,,,,,,0,,,,,,,,,,,,,,,,,,,,,,,,,,,,,,,,,,,,,92,click the 0 key.,,,,,331.6208,333.6027,0,1,1.4449,,0,13,13,91,1,REAL,FAKE,,,,,,,,,,,,,,,,,
,,,,,,,,,65b930253f67ecba5f26fc07,Spanish,13 or older,"no, only English or Spanish",yes,2026-01-21_21h07.41.392,empathy_intonation_perc_control,2024.2.4,Win32,59.88023952,65b930253f67ecba5f26fc07,69712dc693a3960bdb483245,6971862a8f664165a7963912,,,,,,,,,,,,,1,,,,,,,,,,,,,,,,,,,,,,,,,,,,,,,,,,,,,51,candado,,,,,333.6034,336.0033,0,0,1.8589,,0,14,14,50,1,REAL,FAKE,,,,,,,,,,,,,,,,,
,,,,,,,,,65b930253f67ecba5f26fc07,Spanish,13 or older,"no, only English or Spanish",yes,2026-01-21_21h07.41.392,empathy_intonation_perc_control,2024.2.4,Win32,59.88023952,65b930253f67ecba5f26fc07,69712dc693a3960bdb483245,6971862a8f664165a7963912,,,,,,,,,,,,,1,,,,,,,,,,,,,,,,,,,,,,,,,,,,,,,,,,,,,34,aviso,,,,,336.0045,337.3695,1,1,0.8308,,0,15,15,33,1,REAL,FAKE,,,,,,,,,,,,,,,,,
,,,,,,,,,65b930253f67ecba5f26fc07,Spanish,13 or older,"no, only English or Spanish",yes,2026-01-21_21h07.41.392,empathy_intonation_perc_control,2024.2.4,Win32,59.88023952,65b930253f67ecba5f26fc07,69712dc693a3960bdb483245,6971862a8f664165a7963912,,,,,,,,,,,,,0,,,,,,,,,,,,,,,,,,,,,,,,,,,,,,,,,,,,,32,fatacidad,,,,,337.3702,339.1697,0,1,1.2731,,0,16,16,31,1,REAL,FAKE,,,,,,,,,,,,,,,,,
,,,,,,,,,65b930253f67ecba5f26fc07,Spanish,13 or older,"no, only English or Spanish",yes,2026-01-21_21h07.41.392,empathy_intonation_perc_control,2024.2.4,Win32,59.88023952,65b930253f67ecba5f26fc07,69712dc693a3960bdb483245,6971862a8f664165a7963912,,,,,,,,,,,,,0,,,,,,,,,,,,,,,,,,,,,,,,,,,,,,,,,,,,,1,terzo,,,,,339.1707,341.5034,1,0,1.7839,,0,17,17,0,1,REAL,FAKE,,,,,,,,,,,,,,,,,
,,,,,,,,,65b930253f67ecba5f26fc07,Spanish,13 or older,"no, only English or Spanish",yes,2026-01-21_21h07.41.392,empathy_intonation_perc_control,2024.2.4,Win32,59.88023952,65b930253f67ecba5f26fc07,69712dc693a3960bdb483245,6971862a8f664165a7963912,,,,,,,,,,,,,1,,,,,,,,,,,,,,,,,,,,,,,,,,,,,,,,,,,,,81,pozo,,,,,341.5044,342.8863,0,0,0.8373,,0,18,18,80,1,REAL,FAKE,,,,,,,,,,,,,,,,,
,,,,,,,,,65b930253f67ecba5f26fc07,Spanish,13 or older,"no, only English or Spanish",yes,2026-01-21_21h07.41.392,empathy_intonation_perc_control,2024.2.4,Win32,59.88023952,65b930253f67ecba5f26fc07,69712dc693a3960bdb483245,6971862a8f664165a7963912,,,,,,,,,,,,,0,,,,,,,,,,,,,,,,,,,,,,,,,,,,,,,,,,,,,87,grodo,,,,,342.8871,344.0698,0,1,0.6572,,0,19,19,86,1,REAL,FAKE,,,,,,,,,,,,,,,,,
,,,,,,,,,65b930253f67ecba5f26fc07,Spanish,13 or older,"no, only English or Spanish",yes,2026-01-21_21h07.41.392,empathy_intonation_perc_control,2024.2.4,Win32,59.88023952,65b930253f67ecba5f26fc07,69712dc693a3960bdb483245,6971862a8f664165a7963912,,,,,,,,,,,,,1,,,,,,,,,,,,,,,,,,,,,,,,,,,,,,,,,,,,,22,lacayo,,,,,344.0707,345.3363,0,0,0.7395,,0,20,20,21,1,REAL,FAKE,,,,,,,,,,,,,,,,,
,,,,,,,,,65b930253f67ecba5f26fc07,Spanish,13 or older,"no, only English or Spanish",yes,2026-01-21_21h07.41.392,empathy_intonation_perc_control,2024.2.4,Win32,59.88023952,65b930253f67ecba5f26fc07,69712dc693a3960bdb483245,6971862a8f664165a7963912,,,,,,,,,,,,,1,,,,,,,,,,,,,,,,,,,,,,,,,,,,,,,,,,,,,39,torpe,,,,,345.3371,346.5033,0,0,0.6335,,0,21,21,38,1,REAL,FAKE,,,,,,,,,,,,,,,,,
,,,,,,,,,65b930253f67ecba5f26fc07,Spanish,13 or older,"no, only English or Spanish",yes,2026-01-21_21h07.41.392,empathy_intonation_perc_control,2024.2.4,Win32,59.88023952,65b930253f67ecba5f26fc07,69712dc693a3960bdb483245,6971862a8f664165a7963912,,,,,,,,,,,,,1,,,,,,,,,,,,,,,,,,,,,,,,,,,,,,,,,,,,,46,martillo,,,,,346.5041,347.9364,0,0,0.8921,,0,22,22,45,1,REAL,FAKE,,,,,,,,,,,,,,,,,
,,,,,,,,,65b930253f67ecba5f26fc07,Spanish,13 or older,"no, only English or Spanish",yes,2026-01-21_21h07.41.392,empathy_intonation_perc_control,2024.2.4,Win32,59.88023952,65b930253f67ecba5f26fc07,69712dc693a3960bdb483245,6971862a8f664165a7963912,,,,,,,,,,,,,0,,,,,,,,,,,,,,,,,,,,,,,,,,,,,,,,,,,,,74,cintro,,,,,347.9371,349.7532,1,0,1.2945,,0,23,23,73,1,REAL,FAKE,,,,,,,,,,,,,,,,,
,,,,,,,,,65b930253f67ecba5f26fc07,Spanish,13 or older,"no, only English or Spanish",yes,2026-01-21_21h07.41.392,empathy_intonation_perc_control,2024.2.4,Win32,59.88023952,65b930253f67ecba5f26fc07,69712dc693a3960bdb483245,6971862a8f664165a7963912,,,,,,,,,,,,,1,,,,,,,,,,,,,,,,,,,,,,,,,,,,,,,,,,,,,71,polvoriento,,,,,349.7541,351.1531,0,0,0.8664,,0,24,24,70,1,REAL,FAKE,,,,,,,,,,,,,,,,,
,,,,,,,,,65b930253f67ecba5f26fc07,Spanish,13 or older,"no, only English or Spanish",yes,2026-01-21_21h07.41.392,empathy_intonation_perc_control,2024.2.4,Win32,59.88023952,65b930253f67ecba5f26fc07,69712dc693a3960bdb483245,6971862a8f664165a7963912,,,,,,,,,,,,,1,,,,,,,,,,,,,,,,,,,,,,,,,,,,,,,,,,,,,77,tiburón,,,,,351.1538,353.3537,1,1,1.6502,,0,25,25,76,1,REAL,FAKE,,,,,,,,,,,,,,,,,
,,,,,,,,,65b930253f67ecba5f26fc07,Spanish,13 or older,"no, only English or Spanish",yes,2026-01-21_21h07.41.392,empathy_intonation_perc_control,2024.2.4,Win32,59.88023952,65b930253f67ecba5f26fc07,69712dc693a3960bdb483245,6971862a8f664165a7963912,,,,,,,,,,,,,1,,,,,,,,,,,,,,,,,,,,,,,,,,,,,,,,,,,,,67,cabello,,,,,353.3547,354.6706,1,1,0.776,,0,26,26,66,1,REAL,FAKE,,,,,,,,,,,,,,,,,
,,,,,,,,,65b930253f67ecba5f26fc07,Spanish,13 or older,"no, only English or Spanish",yes,2026-01-21_21h07.41.392,empathy_intonation_perc_control,2024.2.4,Win32,59.88023952,65b930253f67ecba5f26fc07,69712dc693a3960bdb483245,6971862a8f664165a7963912,,,,,,,,,,,,,0,,,,,,,,,,,,,,,,,,,,,,,,,,,,,,,,,,,,,58,plaudir,,,,,354.6715,356.0867,0,1,0.8705,,0,27,27,57,1,REAL,FAKE,,,,,,,,,,,,,,,,,
,,,,,,,,,65b930253f67ecba5f26fc07,Spanish,13 or older,"no, only English or Spanish",yes,2026-01-21_21h07.41.392,empathy_intonation_perc_control,2024.2.4,Win32,59.88023952,65b930253f67ecba5f26fc07,69712dc693a3960bdb483245,6971862a8f664165a7963912,,,,,,,,,,,,,1,,,,,,,,,,,,,,,,,,,,,,,,,,,,,,,,,,,,,25,bisagra,,,,,356.0876,357.3701,0,0,0.7406,,0,28,28,24,1,REAL,FAKE,,,,,,,,,,,,,,,,,
,,,,,,,,,65b930253f67ecba5f26fc07,Spanish,13 or older,"no, only English or Spanish",yes,2026-01-21_21h07.41.392,empathy_intonation_perc_control,2024.2.4,Win32,59.88023952,65b930253f67ecba5f26fc07,69712dc693a3960bdb483245,6971862a8f664165a7963912,,,,,,,,,,,,,1,,,,,,,,,,,,,,,,,,,,,,,,,,,,,,,,,,,,,86,barato,,,,,357.371,358.7535,0,0,0.8548,,0,29,29,85,1,REAL,FAKE,,,,,,,,,,,,,,,,,
,,,,,,,,,65b930253f67ecba5f26fc07,Spanish,13 or older,"no, only English or Spanish",yes,2026-01-21_21h07.41.392,empathy_intonation_perc_control,2024.2.4,Win32,59.88023952,65b930253f67ecba5f26fc07,69712dc693a3960bdb483245,6971862a8f664165a7963912,,,,,,,,,,,,,1,,,,,,,,,,,,,,,,,,,,,,,,,,,,,,,,,,,,,76,atar,,,,,358.7543,360.0369,0,0,0.7402,,0,30,30,75,1,REAL,FAKE,,,,,,,,,,,,,,,,,
,,,,,,,,,65b930253f67ecba5f26fc07,Spanish,13 or older,"no, only English or Spanish",yes,2026-01-21_21h07.41.392,empathy_intonation_perc_control,2024.2.4,Win32,59.88023952,65b930253f67ecba5f26fc07,69712dc693a3960bdb483245,6971862a8f664165a7963912,,,,,,,,,,,,,1,,,,,,,,,,,,,,,,,,,,,,,,,,,,,,,,,,,,,40,alfombra,,,,,360.0377,361.1869,0,0,0.6084,,0,31,31,39,1,REAL,FAKE,,,,,,,,,,,,,,,,,
,,,,,,,,,65b930253f67ecba5f26fc07,Spanish,13 or older,"no, only English or Spanish",yes,2026-01-21_21h07.41.392,empathy_intonation_perc_control,2024.2.4,Win32,59.88023952,65b930253f67ecba5f26fc07,69712dc693a3960bdb483245,6971862a8f664165a7963912,,,,,,,,,,,,,1,,,,,,,,,,,,,,,,,,,,,,,,,,,,,,,,,,,,,3,pulmones,,,,,361.1879,363.3206,1,1,1.6007,,0,32,32,2,1,REAL,FAKE,,,,,,,,,,,,,,,,,
,,,,,,,,,65b930253f67ecba5f26fc07,Spanish,13 or older,"no, only English or Spanish",yes,2026-01-21_21h07.41.392,empathy_intonation_perc_control,2024.2.4,Win32,59.88023952,65b930253f67ecba5f26fc07,69712dc693a3960bdb483245,6971862a8f664165a7963912,,,,,,,,,,,,,1,,,,,,,,,,,,,,,,,,,,,,,,,,,,,,,,,,,,,59,besar,,,,,363.3215,364.6537,1,1,0.7843,,0,33,33,58,1,REAL,FAKE,,,,,,,,,,,,,,,,,
,,,,,,,,,65b930253f67ecba5f26fc07,Spanish,13 or older,"no, only English or Spanish",yes,2026-01-21_21h07.41.392,empathy_intonation_perc_control,2024.2.4,Win32,59.88023952,65b930253f67ecba5f26fc07,69712dc693a3960bdb483245,6971862a8f664165a7963912,,,,,,,,,,,,,1,,,,,,,,,,,,,,,,,,,,,,,,,,,,,,,,,,,,,13,helar,,,,,364.6546,366.0036,0,0,0.8099,,0,34,34,12,1,REAL,FAKE,,,,,,,,,,,,,,,,,
,,,,,,,,,65b930253f67ecba5f26fc07,Spanish,13 or older,"no, only English or Spanish",yes,2026-01-21_21h07.41.392,empathy_intonation_perc_control,2024.2.4,Win32,59.88023952,65b930253f67ecba5f26fc07,69712dc693a3960bdb483245,6971862a8f664165a7963912,,,,,,,,,,,,,1,,,,,,,,,,,,,,,,,,,,,,,,,,,,,,,,,,,,,24,látigo,,,,,366.005,367.4707,0,0,0.933,,0,35,35,23,1,REAL,FAKE,,,,,,,,,,,,,,,,,
,,,,,,,,,65b930253f67ecba5f26fc07,Spanish,13 or older,"no, only English or Spanish",yes,2026-01-21_21h07.41.392,empathy_intonation_perc_control,2024.2.4,Win32,59.88023952,65b930253f67ecba5f26fc07,69712dc693a3960bdb483245,6971862a8f664165a7963912,,,,,,,,,,,,,0,,,,,,,,,,,,,,,,,,,,,,,,,,,,,,,,,,,,,42,cadallo,,,,,367.4717,368.7204,0,1,0.7101,,0,36,36,41,1,REAL,FAKE,,,,,,,,,,,,,,,,,
,,,,,,,,,65b930253f67ecba5f26fc07,Spanish,13 or older,"no, only English or Spanish",yes,2026-01-21_21h07.41.392,empathy_intonation_perc_control,2024.2.4,Win32,59.88023952,65b930253f67ecba5f26fc07,69712dc693a3960bdb483245,6971862a8f664165a7963912,,,,,,,,,,,,,1,,,,,,,,,,,,,,,,,,,,,,,,,,,,,,,,,,,,,11,cenefa,,,,,368.7213,369.9037,0,0,0.658,,0,37,37,10,1,REAL,FAKE,,,,,,,,,,,,,,,,,
,,,,,,,,,65b930253f67ecba5f26fc07,Spanish,13 or older,"no, only English or Spanish",yes,2026-01-21_21h07.41.392,empathy_intonation_perc_control,2024.2.4,Win32,59.88023952,65b930253f67ecba5f26fc07,69712dc693a3960bdb483245,6971862a8f664165a7963912,,,,,,,,,,,,,0,,,,,,,,,,,,,,,,,,,,,,,,,,,,,,,,,,,,,79,tropaje,,,,,369.9046,371.3703,0,1,0.9476,,0,38,38,78,1,REAL,FAKE,,,,,,,,,,,,,,,,,
,,,,,,,,,65b930253f67ecba5f26fc07,Spanish,13 or older,"no, only English or Spanish",yes,2026-01-21_21h07.41.392,empathy_intonation_perc_control,2024.2.4,Win32,59.88023952,65b930253f67ecba5f26fc07,69712dc693a3960bdb483245,6971862a8f664165a7963912,,,,,,,,,,,,,0,,,,,,,,,,,,,,,,,,,,,,,,,,,,,,,,,,,,,33,pauca,,,,,371.3708,372.6543,0,1,0.7502,,0,39,39,32,1,REAL,FAKE,,,,,,,,,,,,,,,,,
,,,,,,,,,65b930253f67ecba5f26fc07,Spanish,13 or older,"no, only English or Spanish",yes,2026-01-21_21h07.41.392,empathy_intonation_perc_control,2024.2.4,Win32,59.88023952,65b930253f67ecba5f26fc07,69712dc693a3960bdb483245,6971862a8f664165a7963912,,,,,,,,,,,,,1,,,,,,,,,,,,,,,,,,,,,,,,,,,,,,,,,,,,,55,nevar,,,,,372.6551,374.5542,1,1,1.3573,,0,40,40,54,1,REAL,FAKE,,,,,,,,,,,,,,,,,
,,,,,,,,,65b930253f67ecba5f26fc07,Spanish,13 or older,"no, only English or Spanish",yes,2026-01-21_21h07.41.392,empathy_intonation_perc_control,2024.2.4,Win32,59.88023952,65b930253f67ecba5f26fc07,69712dc693a3960bdb483245,6971862a8f664165a7963912,,,,,,,,,,,,,1,,,,,,,,,,,,,,,,,,,,,,,,,,,,,,,,,,,,,65,bizcocho,,,,,374.5554,376.3044,1,1,1.2047,,0,41,41,64,1,REAL,FAKE,,,,,,,,,,,,,,,,,
,,,,,,,,,65b930253f67ecba5f26fc07,Spanish,13 or older,"no, only English or Spanish",yes,2026-01-21_21h07.41.392,empathy_intonation_perc_control,2024.2.4,Win32,59.88023952,65b930253f67ecba5f26fc07,69712dc693a3960bdb483245,6971862a8f664165a7963912,,,,,,,,,,,,,1,,,,,,,,,,,,,,,,,,,,,,,,,,,,,,,,,,,,,44,cuchara,,,,,376.3053,377.671,1,1,0.8171,,0,42,42,43,1,REAL,FAKE,,,,,,,,,,,,,,,,,
,,,,,,,,,65b930253f67ecba5f26fc07,Spanish,13 or older,"no, only English or Spanish",yes,2026-01-21_21h07.41.392,empathy_intonation_perc_control,2024.2.4,Win32,59.88023952,65b930253f67ecba5f26fc07,69712dc693a3960bdb483245,6971862a8f664165a7963912,,,,,,,,,,,,,0,,,,,,,,,,,,,,,,,,,,,,,,,,,,,,,,,,,,,53,vegada,,,,,377.6718,379.0537,0,1,0.8466,,0,43,43,52,1,REAL,FAKE,,,,,,,,,,,,,,,,,
,,,,,,,,,65b930253f67ecba5f26fc07,Spanish,13 or older,"no, only English or Spanish",yes,2026-01-21_21h07.41.392,empathy_intonation_perc_control,2024.2.4,Win32,59.88023952,65b930253f67ecba5f26fc07,69712dc693a3960bdb483245,6971862a8f664165a7963912,,,,,,,,,,,,,1,,,,,,,,,,,,,,,,,,,,,,,,,,,,,,,,,,,,,61,seda,,,,,379.0546,381.354,0,0,1.7706,,0,44,44,60,1,REAL,FAKE,,,,,,,,,,,,,,,,,
,,,,,,,,,65b930253f67ecba5f26fc07,Spanish,13 or older,"no, only English or Spanish",yes,2026-01-21_21h07.41.392,empathy_intonation_perc_control,2024.2.4,Win32,59.88023952,65b930253f67ecba5f26fc07,69712dc693a3960bdb483245,6971862a8f664165a7963912,,,,,,,,,,,,,0,,,,,,,,,,,,,,,,,,,,,,,,,,,,,,,,,,,,,4,batillón,,,,,381.3548,382.8711,0,1,0.9735,,0,45,45,3,1,REAL,FAKE,,,,,,,,,,,,,,,,,
,,,,,,,,,65b930253f67ecba5f26fc07,Spanish,13 or older,"no, only English or Spanish",yes,2026-01-21_21h07.41.392,empathy_intonation_perc_control,2024.2.4,Win32,59.88023952,65b930253f67ecba5f26fc07,69712dc693a3960bdb483245,6971862a8f664165a7963912,,,,,,,,,,,,,0,,,,,,,,,,,,,,,,,,,,,,,,,,,,,,,,,,,,,84,escuto,,,,,382.8722,384.1207,0,1,0.7075,,0,46,46,83,1,REAL,FAKE,,,,,,,,,,,,,,,,,
,,,,,,,,,65b930253f67ecba5f26fc07,Spanish,13 or older,"no, only English or Spanish",yes,2026-01-21_21h07.41.392,empathy_intonation_perc_control,2024.2.4,Win32,59.88023952,65b930253f67ecba5f26fc07,69712dc693a3960bdb483245,6971862a8f664165a7963912,,,,,,,,,,,,,1,,,,,,,,,,,,,,,,,,,,,,,,,,,,,,,,,,,,,41,rebuscar,,,,,384.1217,385.3708,0,0,0.7001,,0,47,47,40,1,REAL,FAKE,,,,,,,,,,,,,,,,,
,,,,,,,,,65b930253f67ecba5f26fc07,Spanish,13 or older,"no, only English or Spanish",yes,2026-01-21_21h07.41.392,empathy_intonation_perc_control,2024.2.4,Win32,59.88023952,65b930253f67ecba5f26fc07,69712dc693a3960bdb483245,6971862a8f664165a7963912,,,,,,,,,,,,,1,,,,,,,,,,,,,,,,,,,,,,,,,,,,,,,,,,,,,62,flaco,,,,,385.3715,386.5376,0,0,0.6345,,0,48,48,61,1,REAL,FAKE,,,,,,,,,,,,,,,,,
,,,,,,,,,65b930253f67ecba5f26fc07,Spanish,13 or older,"no, only English or Spanish",yes,2026-01-21_21h07.41.392,empathy_intonation_perc_control,2024.2.4,Win32,59.88023952,65b930253f67ecba5f26fc07,69712dc693a3960bdb483245,6971862a8f664165a7963912,,,,,,,,,,,,,1,,,,,,,,,,,,,,,,,,,,,,,,,,,,,,,,,,,,,20,ávido,,,,,386.5383,388.0874,1,1,1.029,,0,49,49,19,1,REAL,FAKE,,,,,,,,,,,,,,,,,
,,,,,,,,,65b930253f67ecba5f26fc07,Spanish,13 or older,"no, only English or Spanish",yes,2026-01-21_21h07.41.392,empathy_intonation_perc_control,2024.2.4,Win32,59.88023952,65b930253f67ecba5f26fc07,69712dc693a3960bdb483245,6971862a8f664165a7963912,,,,,,,,,,,,,0,,,,,,,,,,,,,,,,,,,,,,,,,,,,,,,,,,,,,16,abracer,,,,,388.0882,389.4543,0,1,0.8378,,0,50,50,15,1,REAL,FAKE,,,,,,,,,,,,,,,,,
,,,,,,,,,65b930253f67ecba5f26fc07,Spanish,13 or older,"no, only English or Spanish",yes,2026-01-21_21h07.41.392,empathy_intonation_perc_control,2024.2.4,Win32,59.88023952,65b930253f67ecba5f26fc07,69712dc693a3960bdb483245,6971862a8f664165a7963912,,,,,,,,,,,,,1,,,,,,,,,,,,,,,,,,,,,,,,,,,,,,,,,,,,,85,laúd,,,,,389.4554,390.9374,0,0,0.9574,,0,51,51,84,1,REAL,FAKE,,,,,,,,,,,,,,,,,
,,,,,,,,,65b930253f67ecba5f26fc07,Spanish,13 or older,"no, only English or Spanish",yes,2026-01-21_21h07.41.392,empathy_intonation_perc_control,2024.2.4,Win32,59.88023952,65b930253f67ecba5f26fc07,69712dc693a3960bdb483245,6971862a8f664165a7963912,,,,,,,,,,,,,1,,,,,,,,,,,,,,,,,,,,,,,,,,,,,,,,,,,,,45,jilguero,,,,,390.9384,392.1882,0,0,0.7162,,0,52,52,44,1,REAL,FAKE,,,,,,,,,,,,,,,,,
,,,,,,,,,65b930253f67ecba5f26fc07,Spanish,13 or older,"no, only English or Spanish",yes,2026-01-21_21h07.41.392,empathy_intonation_perc_control,2024.2.4,Win32,59.88023952,65b930253f67ecba5f26fc07,69712dc693a3960bdb483245,6971862a8f664165a7963912,,,,,,,,,,,,,1,,,,,,,,,,,,,,,,,,,,,,,,,,,,,,,,,,,,,90,clavel,,,,,392.1895,393.3878,0,0,0.6512,,0,53,53,89,1,REAL,FAKE,,,,,,,,,,,,,,,,,
,,,,,,,,,65b930253f67ecba5f26fc07,Spanish,13 or older,"no, only English or Spanish",yes,2026-01-21_21h07.41.392,empathy_intonation_perc_control,2024.2.4,Win32,59.88023952,65b930253f67ecba5f26fc07,69712dc693a3960bdb483245,6971862a8f664165a7963912,,,,,,,,,,,,,0,,,,,,,,,,,,,,,,,,,,,,,,,,,,,,,,,,,,,35,rompido,,,,,393.3889,394.5044,0,1,0.5697,,0,54,54,34,1,REAL,FAKE,,,,,,,,,,,,,,,,,
,,,,,,,,,65b930253f67ecba5f26fc07,Spanish,13 or older,"no, only English or Spanish",yes,2026-01-21_21h07.41.392,empathy_intonation_perc_control,2024.2.4,Win32,59.88023952,65b930253f67ecba5f26fc07,69712dc693a3960bdb483245,6971862a8f664165a7963912,,,,,,,,,,,,,1,,,,,,,,,,,,,,,,,,,,,,,,,,,,,,,,,,,,,28,merodear,,,,,394.5054,395.7543,0,0,0.7268,,0,55,55,27,1,REAL,FAKE,,,,,,,,,,,,,,,,,
,,,,,,,,,65b930253f67ecba5f26fc07,Spanish,13 or older,"no, only English or Spanish",yes,2026-01-21_21h07.41.392,empathy_intonation_perc_control,2024.2.4,Win32,59.88023952,65b930253f67ecba5f26fc07,69712dc693a3960bdb483245,6971862a8f664165a7963912,,,,,,,,,,,,,1,,,,,,,,,,,,,,,,,,,,,,,,,,,,,,,,,,,,,48,ladrón,,,,,395.7551,397.6381,0,0,1.3435,,0,56,56,47,1,REAL,FAKE,,,,,,,,,,,,,,,,,
,,,,,,,,,65b930253f67ecba5f26fc07,Spanish,13 or older,"no, only English or Spanish",yes,2026-01-21_21h07.41.392,empathy_intonation_perc_control,2024.2.4,Win32,59.88023952,65b930253f67ecba5f26fc07,69712dc693a3960bdb483245,6971862a8f664165a7963912,,,,,,,,,,,,,1,,,,,,,,,,,,,,,,,,,,,,,,,,,,,,,,,,,,,83,guante,,,,,397.6392,399.2049,0,0,1.0163,,0,57,57,82,1,REAL,FAKE,,,,,,,,,,,,,,,,,
,,,,,,,,,65b930253f67ecba5f26fc07,Spanish,13 or older,"no, only English or Spanish",yes,2026-01-21_21h07.41.392,empathy_intonation_perc_control,2024.2.4,Win32,59.88023952,65b930253f67ecba5f26fc07,69712dc693a3960bdb483245,6971862a8f664165a7963912,,,,,,,,,,,,,1,,,,,,,,,,,,,,,,,,,,,,,,,,,,,,,,,,,,,52,camisa,,,,,399.2061,400.5876,1,1,0.8462,,0,58,58,51,1,REAL,FAKE,,,,,,,,,,,,,,,,,
,,,,,,,,,65b930253f67ecba5f26fc07,Spanish,13 or older,"no, only English or Spanish",yes,2026-01-21_21h07.41.392,empathy_intonation_perc_control,2024.2.4,Win32,59.88023952,65b930253f67ecba5f26fc07,69712dc693a3960bdb483245,6971862a8f664165a7963912,,,,,,,,,,,,,1,,,,,,,,,,,,,,,,,,,,,,,,,,,,,,,,,,,,,60,matar,,,,,400.5884,401.805,0,0,0.6662,,0,59,59,59,1,REAL,FAKE,,,,,,,,,,,,,,,,,
,,,,,,,,,65b930253f67ecba5f26fc07,Spanish,13 or older,"no, only English or Spanish",yes,2026-01-21_21h07.41.392,empathy_intonation_perc_control,2024.2.4,Win32,59.88023952,65b930253f67ecba5f26fc07,69712dc693a3960bdb483245,6971862a8f664165a7963912,,,,,,,,,,,,,0,,,,,,,,,,,,,,,,,,,,,,,,,,,,,,,,,,,,,50,flamida,,,,,401.8059,403.2379,0,1,0.9123,,0,60,60,49,1,REAL,FAKE,,,,,,,,,,,,,,,,,
,,,,,,,,,65b930253f67ecba5f26fc07,Spanish,13 or older,"no, only English or Spanish",yes,2026-01-21_21h07.41.392,empathy_intonation_perc_control,2024.2.4,Win32,59.88023952,65b930253f67ecba5f26fc07,69712dc693a3960bdb483245,6971862a8f664165a7963912,,,,,,,,,,,,,0,,,,,,,,,,,,,,,,,,,,,,,,,,,,,,,,,,,,,8,cadeña,,,,,403.2388,404.5544,0,1,0.79,,0,61,61,7,1,REAL,FAKE,,,,,,,,,,,,,,,,,
,,,,,,,,,65b930253f67ecba5f26fc07,Spanish,13 or older,"no, only English or Spanish",yes,2026-01-21_21h07.41.392,empathy_intonation_perc_control,2024.2.4,Win32,59.88023952,65b930253f67ecba5f26fc07,69712dc693a3960bdb483245,6971862a8f664165a7963912,,,,,,,,,,,,,1,,,,,,,,,,,,,,,,,,,,,,,,,,,,,,,,,,,,,9,hacha,,,,,404.555,405.9551,0,0,0.8789,,0,62,62,8,1,REAL,FAKE,,,,,,,,,,,,,,,,,
,,,,,,,,,65b930253f67ecba5f26fc07,Spanish,13 or older,"no, only English or Spanish",yes,2026-01-21_21h07.41.392,empathy_intonation_perc_control,2024.2.4,Win32,59.88023952,65b930253f67ecba5f26fc07,69712dc693a3960bdb483245,6971862a8f664165a7963912,,,,,,,,,,,,,1,,,,,,,,,,,,,,,,,,,,,,,,,,,,,,,,,,,,,14,yunque,,,,,405.956,407.5714,1,1,1.0757,,0,63,63,13,1,REAL,FAKE,,,,,,,,,,,,,,,,,
,,,,,,,,,65b930253f67ecba5f26fc07,Spanish,13 or older,"no, only English or Spanish",yes,2026-01-21_21h07.41.392,empathy_intonation_perc_control,2024.2.4,Win32,59.88023952,65b930253f67ecba5f26fc07,69712dc693a3960bdb483245,6971862a8f664165a7963912,,,,,,,,,,,,,1,,,,,,,,,,,,,,,,,,,,,,,,,,,,,,,,,,,,,88,acantilado,,,,,407.5726,409.4548,0,0,1.3342,,0,64,64,87,1,REAL,FAKE,,,,,,,,,,,,,,,,,
,,,,,,,,,65b930253f67ecba5f26fc07,Spanish,13 or older,"no, only English or Spanish",yes,2026-01-21_21h07.41.392,empathy_intonation_perc_control,2024.2.4,Win32,59.88023952,65b930253f67ecba5f26fc07,69712dc693a3960bdb483245,6971862a8f664165a7963912,,,,,,,,,,,,,1,,,,,,,,,,,,,,,,,,,,,,,,,,,,,,,,,,,,,36,loro,,,,,409.4556,410.7716,0,0,0.7709,,0,65,65,35,1,REAL,FAKE,,,,,,,,,,,,,,,,,
,,,,,,,,,65b930253f67ecba5f26fc07,Spanish,13 or older,"no, only English or Spanish",yes,2026-01-21_21h07.41.392,empathy_intonation_perc_control,2024.2.4,Win32,59.88023952,65b930253f67ecba5f26fc07,69712dc693a3960bdb483245,6971862a8f664165a7963912,,,,,,,,,,,,,0,,,,,,,,,,,,,,,,,,,,,,,,,,,,,,,,,,,,,18,arsa,,,,,410.7724,412.0551,0,1,0.7358,,0,66,66,17,1,REAL,FAKE,,,,,,,,,,,,,,,,,
,,,,,,,,,65b930253f67ecba5f26fc07,Spanish,13 or older,"no, only English or Spanish",yes,2026-01-21_21h07.41.392,empathy_intonation_perc_control,2024.2.4,Win32,59.88023952,65b930253f67ecba5f26fc07,69712dc693a3960bdb483245,6971862a8f664165a7963912,,,,,,,,,,,,,1,,,,,,,,,,,,,,,,,,,,,,,,,,,,,,,,,,,,,31,pandilla,,,,,412.0559,413.3052,0,0,0.7109,,0,67,67,30,1,REAL,FAKE,,,,,,,,,,,,,,,,,
,,,,,,,,,65b930253f67ecba5f26fc07,Spanish,13 or older,"no, only English or Spanish",yes,2026-01-21_21h07.41.392,empathy_intonation_perc_control,2024.2.4,Win32,59.88023952,65b930253f67ecba5f26fc07,69712dc693a3960bdb483245,6971862a8f664165a7963912,,,,,,,,,,,,,1,,,,,,,,,,,,,,,,,,,,,,,,,,,,,,,,,,,,,57,tacaño,,,,,413.3062,414.5382,0,0,0.6946,,0,68,68,56,1,REAL,FAKE,,,,,,,,,,,,,,,,,
,,,,,,,,,65b930253f67ecba5f26fc07,Spanish,13 or older,"no, only English or Spanish",yes,2026-01-21_21h07.41.392,empathy_intonation_perc_control,2024.2.4,Win32,59.88023952,65b930253f67ecba5f26fc07,69712dc693a3960bdb483245,6971862a8f664165a7963912,,,,,,,,,,,,,1,,,,,,,,,,,,,,,,,,,,,,,,,,,,,,,,,,,,,12,asesinato,,,,,414.5391,415.8219,0,0,0.7334,,0,69,69,11,1,REAL,FAKE,,,,,,,,,,,,,,,,,
,,,,,,,,,65b930253f67ecba5f26fc07,Spanish,13 or older,"no, only English or Spanish",yes,2026-01-21_21h07.41.392,empathy_intonation_perc_control,2024.2.4,Win32,59.88023952,65b930253f67ecba5f26fc07,69712dc693a3960bdb483245,6971862a8f664165a7963912,,,,,,,,,,,,,1,,,,,,,,,,,,,,,,,,,,,,,,,,,,,,,,,,,,,49,ganar,,,,,415.8229,417.2048,1,1,0.8473,,0,70,70,48,1,REAL,FAKE,,,,,,,,,,,,,,,,,
,,,,,,,,,65b930253f67ecba5f26fc07,Spanish,13 or older,"no, only English or Spanish",yes,2026-01-21_21h07.41.392,empathy_intonation_perc_control,2024.2.4,Win32,59.88023952,65b930253f67ecba5f26fc07,69712dc693a3960bdb483245,6971862a8f664165a7963912,,,,,,,,,,,,,0,,,,,,,,,,,,,,,,,,,,,,,,,,,,,,,,,,,,,66,hacido,,,,,417.2054,419.0549,1,0,1.3105,,0,71,71,65,1,REAL,FAKE,,,,,,,,,,,,,,,,,
,,,,,,,,,65b930253f67ecba5f26fc07,Spanish,13 or older,"no, only English or Spanish",yes,2026-01-21_21h07.41.392,empathy_intonation_perc_control,2024.2.4,Win32,59.88023952,65b930253f67ecba5f26fc07,69712dc693a3960bdb483245,6971862a8f664165a7963912,,,,,,,,,,,,,0,,,,,,,,,,,,,,,,,,,,,,,,,,,,,,,,,,,,,30,alardio,,,,,419.0558,420.2715,0,1,0.6775,,0,72,72,29,1,REAL,FAKE,,,,,,,,,,,,,,,,,
,,,,,,,,,65b930253f67ecba5f26fc07,Spanish,13 or older,"no, only English or Spanish",yes,2026-01-21_21h07.41.392,empathy_intonation_perc_control,2024.2.4,Win32,59.88023952,65b930253f67ecba5f26fc07,69712dc693a3960bdb483245,6971862a8f664165a7963912,,,,,,,,,,,,,1,,,,,,,,,,,,,,,,,,,,,,,,,,,,,,,,,,,,,68,alegre,,,,,420.2723,421.8387,1,1,1.0392,,0,73,73,67,1,REAL,FAKE,,,,,,,,,,,,,,,,,
,,,,,,,,,65b930253f67ecba5f26fc07,Spanish,13 or older,"no, only English or Spanish",yes,2026-01-21_21h07.41.392,empathy_intonation_perc_control,2024.2.4,Win32,59.88023952,65b930253f67ecba5f26fc07,69712dc693a3960bdb483245,6971862a8f664165a7963912,,,,,,,,,,,,,1,,,,,,,,,,,,,,,,,,,,,,,,,,,,,,,,,,,,,26,secuestro,,,,,421.8399,423.4222,0,0,1.0377,,0,74,74,25,1,REAL,FAKE,,,,,,,,,,,,,,,,,
,,,,,,,,,65b930253f67ecba5f26fc07,Spanish,13 or older,"no, only English or Spanish",yes,2026-01-21_21h07.41.392,empathy_intonation_perc_control,2024.2.4,Win32,59.88023952,65b930253f67ecba5f26fc07,69712dc693a3960bdb483245,6971862a8f664165a7963912,,,,,,,,,,,,,1,,,,,,,,,,,,,,,,,,,,,,,,,,,,,,,,,,,,,7,pésimo,,,,,423.423,426.3719,0,0,2.4099,,0,75,75,6,1,REAL,FAKE,,,,,,,,,,,,,,,,,
,,,,,,,,,65b930253f67ecba5f26fc07,Spanish,13 or older,"no, only English or Spanish",yes,2026-01-21_21h07.41.392,empathy_intonation_perc_control,2024.2.4,Win32,59.88023952,65b930253f67ecba5f26fc07,69712dc693a3960bdb483245,6971862a8f664165a7963912,,,,,,,,,,,,,1,,,,,,,,,,,,,,,,,,,,,,,,,,,,,,,,,,,,,38,estornudar,,,,,426.373,427.7556,0,0,0.8507,,0,76,76,37,1,REAL,FAKE,,,,,,,,,,,,,,,,,
,,,,,,,,,65b930253f67ecba5f26fc07,Spanish,13 or older,"no, only English or Spanish",yes,2026-01-21_21h07.41.392,empathy_intonation_perc_control,2024.2.4,Win32,59.88023952,65b930253f67ecba5f26fc07,69712dc693a3960bdb483245,6971862a8f664165a7963912,,,,,,,,,,,,,0,,,,,,,,,,,,,,,,,,,,,,,,,,,,,,,,,,,,,23,lampera,,,,,427.7563,429.4391,1,0,1.1421,,0,77,77,22,1,REAL,FAKE,,,,,,,,,,,,,,,,,
,,,,,,,,,65b930253f67ecba5f26fc07,Spanish,13 or older,"no, only English or Spanish",yes,2026-01-21_21h07.41.392,empathy_intonation_perc_control,2024.2.4,Win32,59.88023952,65b930253f67ecba5f26fc07,69712dc693a3960bdb483245,6971862a8f664165a7963912,,,,,,,,,,,,,1,,,,,,,,,,,,,,,,,,,,,,,,,,,,,,,,,,,,,15,regar,,,,,429.44,433.122,0,0,3.1453,,0,78,78,14,1,REAL,FAKE,,,,,,,,,,,,,,,,,
,,,,,,,,,65b930253f67ecba5f26fc07,Spanish,13 or older,"no, only English or Spanish",yes,2026-01-21_21h07.41.392,empathy_intonation_perc_control,2024.2.4,Win32,59.88023952,65b930253f67ecba5f26fc07,69712dc693a3960bdb483245,6971862a8f664165a7963912,,,,,,,,,,,,,0,,,,,,,,,,,,,,,,,,,,,,,,,,,,,,,,,,,,,70,temblo,,,,,433.1228,434.889,0,1,1.2172,,0,79,79,69,1,REAL,FAKE,,,,,,,,,,,,,,,,,
,,,,,,,,,65b930253f67ecba5f26fc07,Spanish,13 or older,"no, only English or Spanish",yes,2026-01-21_21h07.41.392,empathy_intonation_perc_control,2024.2.4,Win32,59.88023952,65b930253f67ecba5f26fc07,69712dc693a3960bdb483245,6971862a8f664165a7963912,,,,,,,,,,,,,1,,,,,,,,,,,,,,,,,,,,,,,,,,,,,,,,,,,,,64,orgulloso,,,,,434.89,436.872,1,1,1.4435,,0,80,80,63,1,REAL,FAKE,,,,,,,,,,,,,,,,,
,,,,,,,,,65b930253f67ecba5f26fc07,Spanish,13 or older,"no, only English or Spanish",yes,2026-01-21_21h07.41.392,empathy_intonation_perc_control,2024.2.4,Win32,59.88023952,65b930253f67ecba5f26fc07,69712dc693a3960bdb483245,6971862a8f664165a7963912,,,,,,,,,,,,,1,,,,,,,,,,,,,,,,,,,,,,,,,,,,,,,,,,,,,73,hervidor,,,,,436.8731,438.8055,0,0,1.3885,,0,81,81,72,1,REAL,FAKE,,,,,,,,,,,,,,,,,
,,,,,,,,,65b930253f67ecba5f26fc07,Spanish,13 or older,"no, only English or Spanish",yes,2026-01-21_21h07.41.392,empathy_intonation_perc_control,2024.2.4,Win32,59.88023952,65b930253f67ecba5f26fc07,69712dc693a3960bdb483245,6971862a8f664165a7963912,,,,,,,,,,,,,0,,,,,,,,,,,,,,,,,,,,,,,,,,,,,,,,,,,,,47,cartinar,,,,,438.8061,440.289,0,1,0.9383,,0,82,82,46,1,REAL,FAKE,,,,,,,,,,,,,,,,,
,,,,,,,,,65b930253f67ecba5f26fc07,Spanish,13 or older,"no, only English or Spanish",yes,2026-01-21_21h07.41.392,empathy_intonation_perc_control,2024.2.4,Win32,59.88023952,65b930253f67ecba5f26fc07,69712dc693a3960bdb483245,6971862a8f664165a7963912,,,,,,,,,,,,,0,,,,,,,,,,,,,,,,,,,,,,,,,,,,,,,,,,,,,19,brecedad,,,,,440.2899,441.6225,0,1,0.7852,,0,83,83,18,1,REAL,FAKE,,,,,,,,,,,,,,,,,
,,,,,,,,,65b930253f67ecba5f26fc07,Spanish,13 or older,"no, only English or Spanish",yes,2026-01-21_21h07.41.392,empathy_intonation_perc_control,2024.2.4,Win32,59.88023952,65b930253f67ecba5f26fc07,69712dc693a3960bdb483245,6971862a8f664165a7963912,,,,,,,,,,,,,0,,,,,,,,,,,,,,,,,,,,,,,,,,,,,,,,,,,,,72,pemición,,,,,441.6233,443.7063,0,1,1.5369,,0,84,84,71,1,REAL,FAKE,,,,,,,,,,,,,,,,,
,,,,,,,,,65b930253f67ecba5f26fc07,Spanish,13 or older,"no, only English or Spanish",yes,2026-01-21_21h07.41.392,empathy_intonation_perc_control,2024.2.4,Win32,59.88023952,65b930253f67ecba5f26fc07,69712dc693a3960bdb483245,6971862a8f664165a7963912,,,,,,,,,,,,,1,,,,,,,,,,,,,,,,,,,,,,,,,,,,,,,,,,,,,91,click the 1 key.,,,,,443.7075,445.039,1,1,0.7877,,0,85,85,90,1,REAL,FAKE,,,,,,,,,,,,,,,,,
,,,,,,,,,65b930253f67ecba5f26fc07,Spanish,13 or older,"no, only English or Spanish",yes,2026-01-21_21h07.41.392,empathy_intonation_perc_control,2024.2.4,Win32,59.88023952,65b930253f67ecba5f26fc07,69712dc693a3960bdb483245,6971862a8f664165a7963912,,,,,,,,,,,,,0,,,,,,,,,,,,,,,,,,,,,,,,,,,,,,,,,,,,,17,floroso,,,,,445.04,446.6894,0,1,1.1065,,0,86,86,16,1,REAL,FAKE,,,,,,,,,,,,,,,,,
,,,,,,,,,65b930253f67ecba5f26fc07,Spanish,13 or older,"no, only English or Spanish",yes,2026-01-21_21h07.41.392,empathy_intonation_perc_control,2024.2.4,Win32,59.88023952,65b930253f67ecba5f26fc07,69712dc693a3960bdb483245,6971862a8f664165a7963912,,,,,,,,,,,,,1,,,,,,,,,,,,,,,,,,,,,,,,,,,,,,,,,,,,,75,yacer,,,,,446.6903,447.9724,0,0,0.7376,,0,87,87,74,1,REAL,FAKE,,,,,,,,,,,,,,,,,
,,,,,,,,,65b930253f67ecba5f26fc07,Spanish,13 or older,"no, only English or Spanish",yes,2026-01-21_21h07.41.392,empathy_intonation_perc_control,2024.2.4,Win32,59.88023952,65b930253f67ecba5f26fc07,69712dc693a3960bdb483245,6971862a8f664165a7963912,,,,,,,,,,,,,1,,,,,,,,,,,,,,,,,,,,,,,,,,,,,,,,,,,,,89,prisa,,,,,447.9732,449.4723,1,1,0.9549,,0,88,88,88,1,REAL,FAKE,,,,,,,,,,,,,,,,,
,,,,,,,,,65b930253f67ecba5f26fc07,Spanish,13 or older,"no, only English or Spanish",yes,2026-01-21_21h07.41.392,empathy_intonation_perc_control,2024.2.4,Win32,59.88023952,65b930253f67ecba5f26fc07,69712dc693a3960bdb483245,6971862a8f664165a7963912,,,,,,,,,,,,,0,,,,,,,,,,,,,,,,,,,,,,,,,,,,,,,,,,,,,29,decar,,,,,449.4731,451.4392,1,0,1.4368,,0,89,89,28,1,REAL,FAKE,,,,,,,,,,,,,,,,,
,,,,,,,,,65b930253f67ecba5f26fc07,Spanish,13 or older,"no, only English or Spanish",yes,2026-01-21_21h07.41.392,empathy_intonation_perc_control,2024.2.4,Win32,59.88023952,65b930253f67ecba5f26fc07,69712dc693a3960bdb483245,6971862a8f664165a7963912,,,,,,,,,,,,,1,,,,,,,,,,,,,,,,,,,,,,,,,,,,,,,,,,,,,43,canela,,,,,451.4406,452.8395,0,0,0.8606,,0,90,90,42,1,REAL,FAKE,,,,,,,,,,,,,,,,,
,,,,,,,,,65b930253f67ecba5f26fc07,Spanish,13 or older,"no, only English or Spanish",yes,2026-01-21_21h07.41.392,empathy_intonation_perc_control,2024.2.4,Win32,59.88023952,65b930253f67ecba5f26fc07,69712dc693a3960bdb483245,6971862a8f664165a7963912,,,,,,,,,,,,,1,,,,,,,,,,,,,,,,,,,,,,,,,,,,,,,,,,,,,69,engatusar,,,,,452.8405,454.5894,0,0,1.203,,0,91,91,68,1,REAL,FAKE,,,,,,,,,,,,,,,,,
,,,,,,,,,65b930253f67ecba5f26fc07,Spanish,13 or older,"no, only English or Spanish",yes,2026-01-21_21h07.41.392,empathy_intonation_perc_control,2024.2.4,Win32,59.88023952,65b930253f67ecba5f26fc07,69712dc693a3960bdb483245,6971862a8f664165a7963912,,,,,,,,,,,,,,,,,,,,,,,,,,,,,,,,,,,,,,,,,,,,,,,,,,,,,,,,,,,,,,,,,,,,,454.5899,457.6727,,,,,,,,,,,,,,,
,,,,,,,,,65b930253f67ecba5f26fc07,Spanish,13 or older,"no, only English or Spanish",yes,2026-01-21_21h07.41.392,empathy_intonation_perc_control,2024.2.4,Win32,59.88023952,65b930253f67ecba5f26fc07,69712dc693a3960bdb483245,6971862a8f664165a7963912,,,,,,,,,,,,,,,,,,,,,,,,,,,1,,,,,,,,,,,,,,,,,,,,,,,,,,,,,,,,,,,,,,,,,,,,457.6783,465.0396,strongly disagree,0,0,0,0,1,I can easily tell if someone else wants to enter a conversation.,1,0,1,0,,
,,,,,,,,,65b930253f67ecba5f26fc07,Spanish,13 or older,"no, only English or Spanish",yes,2026-01-21_21h07.41.392,empathy_intonation_perc_control,2024.2.4,Win32,59.88023952,65b930253f67ecba5f26fc07,69712dc693a3960bdb483245,6971862a8f664165a7963912,,,,,,,,,,,,,,,,,,,,,,,,,,,2,,,,,,,,,,,,,,,,,,,,,,,,,,,,,,,,,,,,,,,,,,,,465.0412,466.7561,strongly agree,0,1,1,1,1,I prefer animals to humans.,0,1,0,0,,
,,,,,,,,,65b930253f67ecba5f26fc07,Spanish,13 or older,"no, only English or Spanish",yes,2026-01-21_21h07.41.392,empathy_intonation_perc_control,2024.2.4,Win32,59.88023952,65b930253f67ecba5f26fc07,69712dc693a3960bdb483245,6971862a8f664165a7963912,,,,,,,,,,,,,,,,,,,,,,,,,,,3,,,,,,,,,,,,,,,,,,,,,,,,,,,,,,,,,,,,,,,,,,,,466.7576,469.7733,strongly disagree,0,2,2,2,1,I try to keep up with the current trends and fashions.,0,1,0,0,,
,,,,,,,,,65b930253f67ecba5f26fc07,Spanish,13 or older,"no, only English or Spanish",yes,2026-01-21_21h07.41.392,empathy_intonation_perc_control,2024.2.4,Win32,59.88023952,65b930253f67ecba5f26fc07,69712dc693a3960bdb483245,6971862a8f664165a7963912,,,,,,,,,,,,,,,,,,,,,,,,,,,4,,,,,,,,,,,,,,,,,,,,,,,,,,,,,,,,,,,,,,,,,,,,469.7752,474.8734,slightly disagree,0,3,3,3,1,"I find it difficult to explain to others things that I understand easily,   when they don't understand it first time.",1,0,0,1,,
,,,,,,,,,65b930253f67ecba5f26fc07,Spanish,13 or older,"no, only English or Spanish",yes,2026-01-21_21h07.41.392,empathy_intonation_perc_control,2024.2.4,Win32,59.88023952,65b930253f67ecba5f26fc07,69712dc693a3960bdb483245,6971862a8f664165a7963912,,,,,,,,,,,,,,,,,,,,,,,,,,,5,,,,,,,,,,,,,,,,,,,,,,,,,,,,,,,,,,,,,,,,,,,,474.8744,477.1395,strongly disagree,0,4,4,4,1,I dream most nights.,0,1,0,0,,
,,,,,,,,,65b930253f67ecba5f26fc07,Spanish,13 or older,"no, only English or Spanish",yes,2026-01-21_21h07.41.392,empathy_intonation_perc_control,2024.2.4,Win32,59.88023952,65b930253f67ecba5f26fc07,69712dc693a3960bdb483245,6971862a8f664165a7963912,,,,,,,,,,,,,,,,,,,,,,,,,,,6,,,,,,,,,,,,,,,,,,,,,,,,,,,,,,,,,,,,,,,,,,,,477.1405,479.1896,slightly disagree,0,5,5,5,1,I really enjoy caring for other people.,1,0,1,0,,
,,,,,,,,,65b930253f67ecba5f26fc07,Spanish,13 or older,"no, only English or Spanish",yes,2026-01-21_21h07.41.392,empathy_intonation_perc_control,2024.2.4,Win32,59.88023952,65b930253f67ecba5f26fc07,69712dc693a3960bdb483245,6971862a8f664165a7963912,,,,,,,,,,,,,,,,,,,,,,,,,,,7,,,,,,,,,,,,,,,,,,,,,,,,,,,,,,,,,,,,,,,,,,,,479.1909,481.5898,slightly agree,0,6,6,6,1,I try to solve my own problems rather than discussing them with others.,0,1,0,0,,
,,,,,,,,,65b930253f67ecba5f26fc07,Spanish,13 or older,"no, only English or Spanish",yes,2026-01-21_21h07.41.392,empathy_intonation_perc_control,2024.2.4,Win32,59.88023952,65b930253f67ecba5f26fc07,69712dc693a3960bdb483245,6971862a8f664165a7963912,,,,,,,,,,,,,,,,,,,,,,,,,,,8,,,,,,,,,,,,,,,,,,,,,,,,,,,,,,,,,,,,,,,,,,,,481.5906,483.1063,strongly agree,0,7,7,7,1,I find it hard to know what to do in a social situation.,1,0,0,1,,
,,,,,,,,,65b930253f67ecba5f26fc07,Spanish,13 or older,"no, only English or Spanish",yes,2026-01-21_21h07.41.392,empathy_intonation_perc_control,2024.2.4,Win32,59.88023952,65b930253f67ecba5f26fc07,69712dc693a3960bdb483245,6971862a8f664165a7963912,,,,,,,,,,,,,,,,,,,,,,,,,,,9,,,,,,,,,,,,,,,,,,,,,,,,,,,,,,,,,,,,,,,,,,,,483.1071,485.7397,strongly disagree,0,8,8,8,1,I am at my best first thing in the morning.,0,1,0,0,,
,,,,,,,,,65b930253f67ecba5f26fc07,Spanish,13 or older,"no, only English or Spanish",yes,2026-01-21_21h07.41.392,empathy_intonation_perc_control,2024.2.4,Win32,59.88023952,65b930253f67ecba5f26fc07,69712dc693a3960bdb483245,6971862a8f664165a7963912,,,,,,,,,,,,,,,,,,,,,,,,,,,10,,,,,,,,,,,,,,,,,,,,,,,,,,,,,,,,,,,,,,,,,,,,485.7412,489.9565,strongly disagree,0,9,9,9,1,People often tell me that I went too far in driving my point home in a discussion.,1,0,0,1,,
,,,,,,,,,65b930253f67ecba5f26fc07,Spanish,13 or older,"no, only English or Spanish",yes,2026-01-21_21h07.41.392,empathy_intonation_perc_control,2024.2.4,Win32,59.88023952,65b930253f67ecba5f26fc07,69712dc693a3960bdb483245,6971862a8f664165a7963912,,,,,,,,,,,,,,,,,,,,,,,,,,,11,,,,,,,,,,,,,,,,,,,,,,,,,,,,,,,,,,,,,,,,,,,,489.9574,493.2899,strongly disagree,0,10,10,10,1,It doesn't bother me too much if I am late meeting a friend.,1,0,0,1,,
,,,,,,,,,65b930253f67ecba5f26fc07,Spanish,13 or older,"no, only English or Spanish",yes,2026-01-21_21h07.41.392,empathy_intonation_perc_control,2024.2.4,Win32,59.88023952,65b930253f67ecba5f26fc07,69712dc693a3960bdb483245,6971862a8f664165a7963912,,,,,,,,,,,,,,,,,,,,,,,,,,,12,,,,,,,,,,,,,,,,,,,,,,,,,,,,,,,,,,,,,,,,,,,,493.2911,497.1236,slightly agree,0,11,11,11,1,"Friendships and relationships are just too difficult, so I tend not to 
  bother with them.",1,0,0,1,,
,,,,,,,,,65b930253f67ecba5f26fc07,Spanish,13 or older,"no, only English or Spanish",yes,2026-01-21_21h07.41.392,empathy_intonation_perc_control,2024.2.4,Win32,59.88023952,65b930253f67ecba5f26fc07,69712dc693a3960bdb483245,6971862a8f664165a7963912,,,,,,,,,,,,,,,,,,,,,,,,,,,13,,,,,,,,,,,,,,,,,,,,,,,,,,,,,,,,,,,,,,,,,,,,497.1246,499.6568,slightly disagree,0,12,12,12,1,"I would never break a law, no matter how minor.",0,1,0,0,,
,,,,,,,,,65b930253f67ecba5f26fc07,Spanish,13 or older,"no, only English or Spanish",yes,2026-01-21_21h07.41.392,empathy_intonation_perc_control,2024.2.4,Win32,59.88023952,65b930253f67ecba5f26fc07,69712dc693a3960bdb483245,6971862a8f664165a7963912,,,,,,,,,,,,,,,,,,,,,,,,,,,14,,,,,,,,,,,,,,,,,,,,,,,,,,,,,,,,,,,,,,,,,,,,499.6578,503.2738,strongly disagree,0,13,13,13,1,I often find it difficult to judge if something is rude or polite.,1,0,0,1,,
,,,,,,,,,65b930253f67ecba5f26fc07,Spanish,13 or older,"no, only English or Spanish",yes,2026-01-21_21h07.41.392,empathy_intonation_perc_control,2024.2.4,Win32,59.88023952,65b930253f67ecba5f26fc07,69712dc693a3960bdb483245,6971862a8f664165a7963912,,,,,,,,,,,,,,,,,,,,,,,,,,,15,,,,,,,,,,,,,,,,,,,,,,,,,,,,,,,,,,,,,,,,,,,,503.2748,506.6078,strongly disagree,0,14,14,14,1,"In a conversation, I tend to focus on my own thoughts rather than on what 
  my listener might be thinking.",1,0,0,1,,
,,,,,,,,,65b930253f67ecba5f26fc07,Spanish,13 or older,"no, only English or Spanish",yes,2026-01-21_21h07.41.392,empathy_intonation_perc_control,2024.2.4,Win32,59.88023952,65b930253f67ecba5f26fc07,69712dc693a3960bdb483245,6971862a8f664165a7963912,,,,,,,,,,,,,,,,,,,,,,,,,,,16,,,,,,,,,,,,,,,,,,,,,,,,,,,,,,,,,,,,,,,,,,,,506.609,509.3903,strongly disagree,0,15,15,15,1,I prefer practical jokes to verbal humor.,0,1,0,0,,
,,,,,,,,,65b930253f67ecba5f26fc07,Spanish,13 or older,"no, only English or Spanish",yes,2026-01-21_21h07.41.392,empathy_intonation_perc_control,2024.2.4,Win32,59.88023952,65b930253f67ecba5f26fc07,69712dc693a3960bdb483245,6971862a8f664165a7963912,,,,,,,,,,,,,,,,,,,,,,,,,,,17,,,,,,,,,,,,,,,,,,,,,,,,,,,,,,,,,,,,,,,,,,,,509.3911,511.2242,strongly disagree,0,16,16,16,1,I live life for today rather than the future.,0,1,0,0,,
,,,,,,,,,65b930253f67ecba5f26fc07,Spanish,13 or older,"no, only English or Spanish",yes,2026-01-21_21h07.41.392,empathy_intonation_perc_control,2024.2.4,Win32,59.88023952,65b930253f67ecba5f26fc07,69712dc693a3960bdb483245,6971862a8f664165a7963912,,,,,,,,,,,,,,,,,,,,,,,,,,,18,,,,,,,,,,,,,,,,,,,,,,,,,,,,,,,,,,,,,,,,,,,,511.2254,514.0073,strongly disagree,0,17,17,17,1,"When I was a child, I enjoyed cutting up worms to see what would happen.",1,0,0,1,,
,,,,,,,,,65b930253f67ecba5f26fc07,Spanish,13 or older,"no, only English or Spanish",yes,2026-01-21_21h07.41.392,empathy_intonation_perc_control,2024.2.4,Win32,59.88023952,65b930253f67ecba5f26fc07,69712dc693a3960bdb483245,6971862a8f664165a7963912,,,,,,,,,,,,,,,,,,,,,,,,,,,19,,,,,,,,,,,,,,,,,,,,,,,,,,,,,,,,,,,,,,,,,,,,514.0086,517.8905,slightly disagree,0,18,18,18,1,I can pick up quickly if someone says one thing but means another.,1,0,1,0,,
,,,,,,,,,65b930253f67ecba5f26fc07,Spanish,13 or older,"no, only English or Spanish",yes,2026-01-21_21h07.41.392,empathy_intonation_perc_control,2024.2.4,Win32,59.88023952,65b930253f67ecba5f26fc07,69712dc693a3960bdb483245,6971862a8f664165a7963912,,,,,,,,,,,,,,,,,,,,,,,,,,,20,,,,,,,,,,,,,,,,,,,,,,,,,,,,,,,,,,,,,,,,,,,,517.8911,520.8741,slightly agree,0,19,19,19,1,I tend to have very strong opinions about morality.,0,1,0,0,,
,,,,,,,,,65b930253f67ecba5f26fc07,Spanish,13 or older,"no, only English or Spanish",yes,2026-01-21_21h07.41.392,empathy_intonation_perc_control,2024.2.4,Win32,59.88023952,65b930253f67ecba5f26fc07,69712dc693a3960bdb483245,6971862a8f664165a7963912,,,,,,,,,,,,,,,,,,,,,,,,,,,21,,,,,,,,,,,,,,,,,,,,,,,,,,,,,,,,,,,,,,,,,,,,520.8748,523.793,strongly disagree,0,20,20,20,1,It is hard for me to see why some things upset people so much.,1,0,0,1,,
,,,,,,,,,65b930253f67ecba5f26fc07,Spanish,13 or older,"no, only English or Spanish",yes,2026-01-21_21h07.41.392,empathy_intonation_perc_control,2024.2.4,Win32,59.88023952,65b930253f67ecba5f26fc07,69712dc693a3960bdb483245,6971862a8f664165a7963912,,,,,,,,,,,,,,,,,,,,,,,,,,,22,,,,,,,,,,,,,,,,,,,,,,,,,,,,,,,,,,,,,,,,,,,,523.7935,527.2085,slightly agree,0,21,21,21,1,I find it easy to put myself in somebody else's shoes.,1,0,1,0,,
,,,,,,,,,65b930253f67ecba5f26fc07,Spanish,13 or older,"no, only English or Spanish",yes,2026-01-21_21h07.41.392,empathy_intonation_perc_control,2024.2.4,Win32,59.88023952,65b930253f67ecba5f26fc07,69712dc693a3960bdb483245,6971862a8f664165a7963912,,,,,,,,,,,,,,,,,,,,,,,,,,,23,,,,,,,,,,,,,,,,,,,,,,,,,,,,,,,,,,,,,,,,,,,,527.2095,531.3253,strongly disagree,0,22,22,22,1,I think that good manners are the most important thing a parent can teach their child.,0,1,0,0,,
,,,,,,,,,65b930253f67ecba5f26fc07,Spanish,13 or older,"no, only English or Spanish",yes,2026-01-21_21h07.41.392,empathy_intonation_perc_control,2024.2.4,Win32,59.88023952,65b930253f67ecba5f26fc07,69712dc693a3960bdb483245,6971862a8f664165a7963912,,,,,,,,,,,,,,,,,,,,,,,,,,,24,,,,,,,,,,,,,,,,,,,,,,,,,,,,,,,,,,,,,,,,,,,,531.3264,533.5911,slightly disagree,0,23,23,23,1,I like to do things on the spur of the moment.,0,1,0,0,,
