instructions_2afc.started,instructions_2afc.stopped,instructions_2afc_loop.thisRepN,instructions_2afc_loop.thisTrialN,instructions_2afc_loop.thisN,instructions_2afc_loop.thisIndex,instructions_2afc_loop.ran,instructions_text,continue_text,participant_id,"What variety of Spanish are you most familiar with? (e.g., Peruvian, Spanish, Mexican)",At what age did you begin learning Spanish?,Are you proficient in any languages other than English/Spanish?,"Are you familiar with Caribbean (e.g., Caribbean, Puerto Rican) or Galician Spanish?",date,expName,psychopyVersion,OS,frameRate,id,study_id,session,practice_2afc.started,practice_2afc.stopped,key_resp_2afc_practice.keys,key_resp_2afc_practice.corr,key_resp_2afc_practice.rt,key_resp_2afc_practice.duration,trials_2afc_practice_loop.thisRepN,trials_2afc_practice_loop.thisTrialN,trials_2afc_practice_loop.thisN,trials_2afc_practice_loop.thisIndex,trials_2afc_practice_loop.ran,path,correct_response,check_2afc.started,check_2afc.stopped,trial_2afc.started,trial_2afc.stopped,key_resp_2afc_trial.keys,key_resp_2afc_trial.corr,key_resp_2afc_trial.rt,key_resp_2afc_trial.duration,trials_2afc_loop.thisRepN,trials_2afc_loop.thisTrialN,trials_2afc_loop.thisN,trials_2afc_loop.thisIndex,trials_2afc_loop.ran,item_num,target,variety,instructions_lextale.started,instructions_lextale.stopped,instructions_lextale_loop.thisRepN,instructions_lextale_loop.thisTrialN,instructions_lextale_loop.thisN,instructions_lextale_loop.thisIndex,instructions_lextale_loop.ran,practice_lextale.started,practice_lextale.stopped,key_resp_lextale_practice.keys,key_resp_lextale_practice.corr,key_resp_lextale_practice.rt,key_resp_lextale_practice.duration,practice_feedback_lextale.started,practice_feedback_lextale.stopped,trials_lextale_practice_loop.thisRepN,trials_lextale_practice_loop.thisTrialN,trials_lextale_practice_loop.thisN,trials_lextale_practice_loop.thisIndex,trials_lextale_practice_loop.ran,stim,word,prac_button_real,prac_button_false,check_lextale.started,check_lextale.stopped,trial_lextale.started,trial_lextale.stopped,key_resp_lextale_trial.keys,key_resp_lextale_trial.corr,key_resp_lextale_trial.rt,key_resp_lextale_trial.duration,trials_lextale_loop.thisRepN,trials_lextale_loop.thisTrialN,trials_lextale_loop.thisN,trials_lextale_loop.thisIndex,trials_lextale_loop.ran,button_real,button_false,instructions_eq.started,instructions_eq.stopped,trial_eq.started,trial_eq.stopped,slider_eq_trial.response,trials_eq_loop.thisRepN,trials_eq_loop.thisTrialN,trials_eq_loop.thisN,trials_eq_loop.thisIndex,trials_eq_loop.ran,item,is_test_item,is_distractor,is_agree_score,is_disagree_score,end_exp.started,end_exp.stopped
0.0521,5.1225,0,0,0,0,1,"In the following task you are going to hear a series of utterances. 

  You will decide if the utterances sound like questions or not using your keyboard.", (press the spacebar to continue),65bbdbd7bc3559a97b37263d,spanish,click here to respond,"no, only English or Spanish",no,2025-08-14_23h11.06.120,empathy_intonation_perc_control,2024.2.4,Linux x86_64,60.24096386,65bbdbd7bc3559a97b37263d,68817205a84113384fffdfe3,689ea4b46852676efe939740,,,,,,,,,,,,,,,,,,,,,,,,,,,,,,,,,,,,,,,,,,,,,,,,,,,,,,,,,,,,,,,,,,,,,,,,,,,,,,,,,,,,,
5.1235,15.8071,0,1,1,1,1,"If you believe the utterance is a question, type '1' (for 'yes') and if you do not 
  believe it is a question type '0' (for 'no').

  Let's practice a bit...", (press the spacebar to continue),65bbdbd7bc3559a97b37263d,spanish,click here to respond,"no, only English or Spanish",no,2025-08-14_23h11.06.120,empathy_intonation_perc_control,2024.2.4,Linux x86_64,60.24096386,65bbdbd7bc3559a97b37263d,68817205a84113384fffdfe3,689ea4b46852676efe939740,,,,,,,,,,,,,,,,,,,,,,,,,,,,,,,,,,,,,,,,,,,,,,,,,,,,,,,,,,,,,,,,,,,,,,,,,,,,,,,,,,,,,
,,,,,,,,,65bbdbd7bc3559a97b37263d,spanish,click here to respond,"no, only English or Spanish",no,2025-08-14_23h11.06.120,empathy_intonation_perc_control,2024.2.4,Linux x86_64,60.24096386,65bbdbd7bc3559a97b37263d,68817205a84113384fffdfe3,689ea4b46852676efe939740,15.8254,19.4742,0,1,3.1147,,0,0,0,7,1,./stim/wavs/puertorican_statement_filler_La-nina-pinta-con-su-amiga.wav,0,,,,,,,,,,,,,,,,,,,,,,,,,,,,,,,,,,,,,,,,,,,,,,,,,,,,,,,,,,,,,,,,,,,,,,,,
,,,,,,,,,65bbdbd7bc3559a97b37263d,spanish,click here to respond,"no, only English or Spanish",no,2025-08-14_23h11.06.120,empathy_intonation_perc_control,2024.2.4,Linux x86_64,60.24096386,65bbdbd7bc3559a97b37263d,68817205a84113384fffdfe3,689ea4b46852676efe939740,19.4754,22.0239,1,1,2.019,,0,1,1,3,1,./stim/wavs/mexican_question_filler_Felipe-no-tiene-contrasena.wav,1,,,,,,,,,,,,,,,,,,,,,,,,,,,,,,,,,,,,,,,,,,,,,,,,,,,,,,,,,,,,,,,,,,,,,,,,
,,,,,,,,,65bbdbd7bc3559a97b37263d,spanish,click here to respond,"no, only English or Spanish",no,2025-08-14_23h11.06.120,empathy_intonation_perc_control,2024.2.4,Linux x86_64,60.24096386,65bbdbd7bc3559a97b37263d,68817205a84113384fffdfe3,689ea4b46852676efe939740,22.0248,25.109,0,1,2.559,,0,2,2,6,1,./stim/wavs/peruvian_statement_filler_El-nino-habla-con-su-madre.wav,0,,,,,,,,,,,,,,,,,,,,,,,,,,,,,,,,,,,,,,,,,,,,,,,,,,,,,,,,,,,,,,,,,,,,,,,,
,,,,,,,,,65bbdbd7bc3559a97b37263d,spanish,click here to respond,"no, only English or Spanish",no,2025-08-14_23h11.06.120,empathy_intonation_perc_control,2024.2.4,Linux x86_64,60.24096386,65bbdbd7bc3559a97b37263d,68817205a84113384fffdfe3,689ea4b46852676efe939740,25.1098,27.6247,0,1,1.9829,,0,3,3,4,1,./stim/wavs/cuban_statement_filler_Cocinabas-por-la-noche.wav,0,,,,,,,,,,,,,,,,,,,,,,,,,,,,,,,,,,,,,,,,,,,,,,,,,,,,,,,,,,,,,,,,,,,,,,,,
,,,,,,,,,65bbdbd7bc3559a97b37263d,spanish,click here to respond,"no, only English or Spanish",no,2025-08-14_23h11.06.120,empathy_intonation_perc_control,2024.2.4,Linux x86_64,60.24096386,65bbdbd7bc3559a97b37263d,68817205a84113384fffdfe3,689ea4b46852676efe939740,27.6256,30.658,1,1,2.5055,,0,4,4,2,1,./stim/wavs/chilean_question_filler_Mi-padre-cantaba-bien.wav,1,,,,,,,,,,,,,,,,,,,,,,,,,,,,,,,,,,,,,,,,,,,,,,,,,,,,,,,,,,,,,,,,,,,,,,,,
,,,,,,,,,65bbdbd7bc3559a97b37263d,spanish,click here to respond,"no, only English or Spanish",no,2025-08-14_23h11.06.120,empathy_intonation_perc_control,2024.2.4,Linux x86_64,60.24096386,65bbdbd7bc3559a97b37263d,68817205a84113384fffdfe3,689ea4b46852676efe939740,30.6589,33.2591,0,1,2.0704,,0,5,5,5,1,./stim/wavs/andalusian_statement_filler_Alberto-nunca-se-afeita.wav,0,,,,,,,,,,,,,,,,,,,,,,,,,,,,,,,,,,,,,,,,,,,,,,,,,,,,,,,,,,,,,,,,,,,,,,,,
,,,,,,,,,65bbdbd7bc3559a97b37263d,spanish,click here to respond,"no, only English or Spanish",no,2025-08-14_23h11.06.120,empathy_intonation_perc_control,2024.2.4,Linux x86_64,60.24096386,65bbdbd7bc3559a97b37263d,68817205a84113384fffdfe3,689ea4b46852676efe939740,33.2604,35.76,1,1,1.9737,,0,6,6,0,1,./stim/wavs/castilian_question_filler_Mi-esposo-conoce-al-chico.wav,1,,,,,,,,,,,,,,,,,,,,,,,,,,,,,,,,,,,,,,,,,,,,,,,,,,,,,,,,,,,,,,,,,,,,,,,,
,,,,,,,,,65bbdbd7bc3559a97b37263d,spanish,click here to respond,"no, only English or Spanish",no,2025-08-14_23h11.06.120,empathy_intonation_perc_control,2024.2.4,Linux x86_64,60.24096386,65bbdbd7bc3559a97b37263d,68817205a84113384fffdfe3,689ea4b46852676efe939740,35.7611,37.7257,1,1,1.4334,,0,7,7,1,1,./stim/wavs/argentine_question_filler_Mi-vecino-habla-mucho.wav,1,,,,,,,,,,,,,,,,,,,,,,,,,,,,,,,,,,,,,,,,,,,,,,,,,,,,,,,,,,,,,,,,,,,,,,,,
,,,,,,,,,65bbdbd7bc3559a97b37263d,spanish,click here to respond,"no, only English or Spanish",no,2025-08-14_23h11.06.120,empathy_intonation_perc_control,2024.2.4,Linux x86_64,60.24096386,65bbdbd7bc3559a97b37263d,68817205a84113384fffdfe3,689ea4b46852676efe939740,,,,,,,,,,,,,,37.7261,41.1094,,,,,,,,,,,,,,,,,,,,,,,,,,,,,,,,,,,,,,,,,,,,,,,,,,,,,,,,,,,,,,,,,,,,,,
,,,,,,,,,65bbdbd7bc3559a97b37263d,spanish,click here to respond,"no, only English or Spanish",no,2025-08-14_23h11.06.120,empathy_intonation_perc_control,2024.2.4,Linux x86_64,60.24096386,65bbdbd7bc3559a97b37263d,68817205a84113384fffdfe3,689ea4b46852676efe939740,,,,,,,,,,,,./stim/wavs/puertorican_match_interrogative-total-yn_Ana-lleva-el-abrigo.wav,1,,,41.1267,43.3449,0,0,1.706,,0,0,0,18,1,19,1,puertorican,,,,,,,,,,,,,,,,,,,,,,,,,,,,,,,,,,,,,,,,,,,,,,,,,,,,,,,,
,,,,,,,,,65bbdbd7bc3559a97b37263d,spanish,click here to respond,"no, only English or Spanish",no,2025-08-14_23h11.06.120,empathy_intonation_perc_control,2024.2.4,Linux x86_64,60.24096386,65bbdbd7bc3559a97b37263d,68817205a84113384fffdfe3,689ea4b46852676efe939740,,,,,,,,,,,,./stim/wavs/castilian_mismatch_declarative-broad-focus_Mi-tia-odia-la-lluvia.wav,0,,,43.3463,45.7601,0,1,1.8871,,0,1,1,72,1,73,0,castilian,,,,,,,,,,,,,,,,,,,,,,,,,,,,,,,,,,,,,,,,,,,,,,,,,,,,,,,,
,,,,,,,,,65bbdbd7bc3559a97b37263d,spanish,click here to respond,"no, only English or Spanish",no,2025-08-14_23h11.06.120,empathy_intonation_perc_control,2024.2.4,Linux x86_64,60.24096386,65bbdbd7bc3559a97b37263d,68817205a84113384fffdfe3,689ea4b46852676efe939740,,,,,,,,,,,,./stim/wavs/cuban_match_declarative-broad-focus_Manuela-vende-el-carro.wav,0,,,45.7621,48.1766,0,1,1.8826,,0,2,2,52,1,53,0,cuban,,,,,,,,,,,,,,,,,,,,,,,,,,,,,,,,,,,,,,,,,,,,,,,,,,,,,,,,
,,,,,,,,,65bbdbd7bc3559a97b37263d,spanish,click here to respond,"no, only English or Spanish",no,2025-08-14_23h11.06.120,empathy_intonation_perc_control,2024.2.4,Linux x86_64,60.24096386,65bbdbd7bc3559a97b37263d,68817205a84113384fffdfe3,689ea4b46852676efe939740,,,,,,,,,,,,./stim/wavs/cuban_match_declarative-broad-focus_Ana-lleva-el-abrigo.wav,0,,,48.1773,50.4937,0,1,1.7841,,0,3,3,50,1,51,0,cuban,,,,,,,,,,,,,,,,,,,,,,,,,,,,,,,,,,,,,,,,,,,,,,,,,,,,,,,,
,,,,,,,,,65bbdbd7bc3559a97b37263d,spanish,click here to respond,"no, only English or Spanish",no,2025-08-14_23h11.06.120,empathy_intonation_perc_control,2024.2.4,Linux x86_64,60.24096386,65bbdbd7bc3559a97b37263d,68817205a84113384fffdfe3,689ea4b46852676efe939740,,,,,,,,,,,,./stim/wavs/castilian_match_interrogative-total-yn_Emilio-ama-la-marcha.wav,1,,,50.4952,52.8274,1,1,1.8008,,0,4,4,1,1,2,0,castilian,,,,,,,,,,,,,,,,,,,,,,,,,,,,,,,,,,,,,,,,,,,,,,,,,,,,,,,,
,,,,,,,,,65bbdbd7bc3559a97b37263d,spanish,click here to respond,"no, only English or Spanish",no,2025-08-14_23h11.06.120,empathy_intonation_perc_control,2024.2.4,Linux x86_64,60.24096386,65bbdbd7bc3559a97b37263d,68817205a84113384fffdfe3,689ea4b46852676efe939740,,,,,,,,,,,,./stim/wavs/puertorican_mismatch_declarative-broad-focus_El-bebe-comia-muy-bien.wav,0,,,52.8281,55.3273,0,1,1.9689,,0,5,5,83,1,84,0,puertorican,,,,,,,,,,,,,,,,,,,,,,,,,,,,,,,,,,,,,,,,,,,,,,,,,,,,,,,,
,,,,,,,,,65bbdbd7bc3559a97b37263d,spanish,click here to respond,"no, only English or Spanish",no,2025-08-14_23h11.06.120,empathy_intonation_perc_control,2024.2.4,Linux x86_64,60.24096386,65bbdbd7bc3559a97b37263d,68817205a84113384fffdfe3,689ea4b46852676efe939740,,,,,,,,,,,,./stim/wavs/mexican_match_interrogative-total-yn_David-leia-el-libro.wav,1,,,55.3282,57.461,1,1,1.6022,,0,6,6,14,1,15,0,mexican,,,,,,,,,,,,,,,,,,,,,,,,,,,,,,,,,,,,,,,,,,,,,,,,,,,,,,,,
,,,,,,,,,65bbdbd7bc3559a97b37263d,spanish,click here to respond,"no, only English or Spanish",no,2025-08-14_23h11.06.120,empathy_intonation_perc_control,2024.2.4,Linux x86_64,60.24096386,65bbdbd7bc3559a97b37263d,68817205a84113384fffdfe3,689ea4b46852676efe939740,,,,,,,,,,,,./stim/wavs/cuban_mismatch_declarative-broad-focus_La-nina-lava-el-plato.wav,0,,,57.4617,59.6944,0,1,1.7006,,0,7,7,75,1,76,0,cuban,,,,,,,,,,,,,,,,,,,,,,,,,,,,,,,,,,,,,,,,,,,,,,,,,,,,,,,,
,,,,,,,,,65bbdbd7bc3559a97b37263d,spanish,click here to respond,"no, only English or Spanish",no,2025-08-14_23h11.06.120,empathy_intonation_perc_control,2024.2.4,Linux x86_64,60.24096386,65bbdbd7bc3559a97b37263d,68817205a84113384fffdfe3,689ea4b46852676efe939740,,,,,,,,,,,,./stim/wavs/puertorican_match_declarative-broad-focus_Ana-lleva-el-abrigo.wav,0,,,59.6951,61.8449,0,1,1.6185,,0,8,8,62,1,63,0,puertorican,,,,,,,,,,,,,,,,,,,,,,,,,,,,,,,,,,,,,,,,,,,,,,,,,,,,,,,,
,,,,,,,,,65bbdbd7bc3559a97b37263d,spanish,click here to respond,"no, only English or Spanish",no,2025-08-14_23h11.06.120,empathy_intonation_perc_control,2024.2.4,Linux x86_64,60.24096386,65bbdbd7bc3559a97b37263d,68817205a84113384fffdfe3,689ea4b46852676efe939740,,,,,,,,,,,,./stim/wavs/castilian_mismatch_declarative-broad-focus_El-nino-oye-el-rio.wav,0,,,61.8456,64.2787,0,1,1.9073,,0,9,9,68,1,69,0,castilian,,,,,,,,,,,,,,,,,,,,,,,,,,,,,,,,,,,,,,,,,,,,,,,,,,,,,,,,
,,,,,,,,,65bbdbd7bc3559a97b37263d,spanish,click here to respond,"no, only English or Spanish",no,2025-08-14_23h11.06.120,empathy_intonation_perc_control,2024.2.4,Linux x86_64,60.24096386,65bbdbd7bc3559a97b37263d,68817205a84113384fffdfe3,689ea4b46852676efe939740,,,,,,,,,,,,./stim/wavs/castilian_match_interrogative-total-yn_Maria-bebe-el-vino.wav,1,,,64.2794,66.2953,1,1,1.4834,,0,10,10,3,1,4,0,castilian,,,,,,,,,,,,,,,,,,,,,,,,,,,,,,,,,,,,,,,,,,,,,,,,,,,,,,,,
,,,,,,,,,65bbdbd7bc3559a97b37263d,spanish,click here to respond,"no, only English or Spanish",no,2025-08-14_23h11.06.120,empathy_intonation_perc_control,2024.2.4,Linux x86_64,60.24096386,65bbdbd7bc3559a97b37263d,68817205a84113384fffdfe3,689ea4b46852676efe939740,,,,,,,,,,,,./stim/wavs/castilian_match_interrogative-total-yn_Marta-abre-el-regalo.wav,1,,,66.2973,68.6798,1,1,1.8565,,0,11,11,5,1,6,0,castilian,,,,,,,,,,,,,,,,,,,,,,,,,,,,,,,,,,,,,,,,,,,,,,,,,,,,,,,,
,,,,,,,,,65bbdbd7bc3559a97b37263d,spanish,click here to respond,"no, only English or Spanish",no,2025-08-14_23h11.06.120,empathy_intonation_perc_control,2024.2.4,Linux x86_64,60.24096386,65bbdbd7bc3559a97b37263d,68817205a84113384fffdfe3,689ea4b46852676efe939740,,,,,,,,,,,,./stim/wavs/puertorican_mismatch_interrogative-total-yn_El-hombre-mira-la-luna.wav,1,,,68.6804,71.0793,1,1,1.8732,,0,12,12,39,1,40,1,puertorican,,,,,,,,,,,,,,,,,,,,,,,,,,,,,,,,,,,,,,,,,,,,,,,,,,,,,,,,
,,,,,,,,,65bbdbd7bc3559a97b37263d,spanish,click here to respond,"no, only English or Spanish",no,2025-08-14_23h11.06.120,empathy_intonation_perc_control,2024.2.4,Linux x86_64,60.24096386,65bbdbd7bc3559a97b37263d,68817205a84113384fffdfe3,689ea4b46852676efe939740,,,,,,,,,,,,./stim/wavs/cuban_mismatch_declarative-broad-focus_El-hombre-mira-la-luna.wav,0,,,71.08,73.4964,0,1,1.8844,,0,13,13,74,1,75,0,cuban,,,,,,,,,,,,,,,,,,,,,,,,,,,,,,,,,,,,,,,,,,,,,,,,,,,,,,,,
,,,,,,,,,65bbdbd7bc3559a97b37263d,spanish,click here to respond,"no, only English or Spanish",no,2025-08-14_23h11.06.120,empathy_intonation_perc_control,2024.2.4,Linux x86_64,60.24096386,65bbdbd7bc3559a97b37263d,68817205a84113384fffdfe3,689ea4b46852676efe939740,,,,,,,,,,,,./stim/wavs/puertorican_match_declarative-broad-focus_Maria-bebe-el-vino.wav,0,,,73.4971,75.9461,1,0,1.9218,,0,14,14,67,1,68,0,puertorican,,,,,,,,,,,,,,,,,,,,,,,,,,,,,,,,,,,,,,,,,,,,,,,,,,,,,,,,
,,,,,,,,,65bbdbd7bc3559a97b37263d,spanish,click here to respond,"no, only English or Spanish",no,2025-08-14_23h11.06.120,empathy_intonation_perc_control,2024.2.4,Linux x86_64,60.24096386,65bbdbd7bc3559a97b37263d,68817205a84113384fffdfe3,689ea4b46852676efe939740,,,,,,,,,,,,./stim/wavs/mexican_mismatch_interrogative-total-yn_Mi-novio-viene-del-lago.wav,1,,,75.9468,78.2298,1,1,1.7515,,0,15,15,37,1,38,0,mexican,,,,,,,,,,,,,,,,,,,,,,,,,,,,,,,,,,,,,,,,,,,,,,,,,,,,,,,,
,,,,,,,,,65bbdbd7bc3559a97b37263d,spanish,click here to respond,"no, only English or Spanish",no,2025-08-14_23h11.06.120,empathy_intonation_perc_control,2024.2.4,Linux x86_64,60.24096386,65bbdbd7bc3559a97b37263d,68817205a84113384fffdfe3,689ea4b46852676efe939740,,,,,,,,,,,,./stim/wavs/mexican_mismatch_declarative-broad-focus_Mi-novio-viene-del-lago.wav,0,,,78.2304,80.6136,0,1,1.8494,,0,16,16,81,1,82,0,mexican,,,,,,,,,,,,,,,,,,,,,,,,,,,,,,,,,,,,,,,,,,,,,,,,,,,,,,,,
,,,,,,,,,65bbdbd7bc3559a97b37263d,spanish,click here to respond,"no, only English or Spanish",no,2025-08-14_23h11.06.120,empathy_intonation_perc_control,2024.2.4,Linux x86_64,60.24096386,65bbdbd7bc3559a97b37263d,68817205a84113384fffdfe3,689ea4b46852676efe939740,,,,,,,,,,,,./stim/wavs/puertorican_match_declarative-broad-focus_David-leia-el-libro.wav,0,,,80.6143,82.9303,0,1,1.7838,,0,17,17,64,1,65,0,puertorican,,,,,,,,,,,,,,,,,,,,,,,,,,,,,,,,,,,,,,,,,,,,,,,,,,,,,,,,
,,,,,,,,,65bbdbd7bc3559a97b37263d,spanish,click here to respond,"no, only English or Spanish",no,2025-08-14_23h11.06.120,empathy_intonation_perc_control,2024.2.4,Linux x86_64,60.24096386,65bbdbd7bc3559a97b37263d,68817205a84113384fffdfe3,689ea4b46852676efe939740,,,,,,,,,,,,./stim/wavs/castilian_mismatch_interrogative-total-yn_Mi-novio-viene-del-lago.wav,1,,,82.931,85.1806,1,1,1.7186,,0,18,18,27,1,28,0,castilian,,,,,,,,,,,,,,,,,,,,,,,,,,,,,,,,,,,,,,,,,,,,,,,,,,,,,,,,
,,,,,,,,,65bbdbd7bc3559a97b37263d,spanish,click here to respond,"no, only English or Spanish",no,2025-08-14_23h11.06.120,empathy_intonation_perc_control,2024.2.4,Linux x86_64,60.24096386,65bbdbd7bc3559a97b37263d,68817205a84113384fffdfe3,689ea4b46852676efe939740,,,,,,,,,,,,./stim/wavs/cuban_match_interrogative-total-yn_Mariano-habla-del-tiempo.wav,1,,,85.1813,87.8809,0,0,2.1664,,0,19,19,10,1,11,1,cuban,,,,,,,,,,,,,,,,,,,,,,,,,,,,,,,,,,,,,,,,,,,,,,,,,,,,,,,,
,,,,,,,,,65bbdbd7bc3559a97b37263d,spanish,click here to respond,"no, only English or Spanish",no,2025-08-14_23h11.06.120,empathy_intonation_perc_control,2024.2.4,Linux x86_64,60.24096386,65bbdbd7bc3559a97b37263d,68817205a84113384fffdfe3,689ea4b46852676efe939740,,,,,,,,,,,,./stim/wavs/puertorican_mismatch_declarative-broad-focus_La-maestra-vive-en-Paris.wav,0,,,87.8816,90.0478,0,1,1.6366,,0,20,20,86,1,87,0,puertorican,,,,,,,,,,,,,,,,,,,,,,,,,,,,,,,,,,,,,,,,,,,,,,,,,,,,,,,,
,,,,,,,,,65bbdbd7bc3559a97b37263d,spanish,click here to respond,"no, only English or Spanish",no,2025-08-14_23h11.06.120,empathy_intonation_perc_control,2024.2.4,Linux x86_64,60.24096386,65bbdbd7bc3559a97b37263d,68817205a84113384fffdfe3,689ea4b46852676efe939740,,,,,,,,,,,,./stim/wavs/puertorican_match_declarative-broad-focus_Manuela-vende-el-carro.wav,0,,,90.0485,92.2648,0,1,1.6835,,0,21,21,66,1,67,0,puertorican,,,,,,,,,,,,,,,,,,,,,,,,,,,,,,,,,,,,,,,,,,,,,,,,,,,,,,,,
,,,,,,,,,65bbdbd7bc3559a97b37263d,spanish,click here to respond,"no, only English or Spanish",no,2025-08-14_23h11.06.120,empathy_intonation_perc_control,2024.2.4,Linux x86_64,60.24096386,65bbdbd7bc3559a97b37263d,68817205a84113384fffdfe3,689ea4b46852676efe939740,,,,,,,,,,,,./stim/wavs/castilian_mismatch_declarative-broad-focus_La-maestra-vive-en-Paris.wav,0,,,92.2659,94.6482,0,1,1.8499,,0,22,22,69,1,70,0,castilian,,,,,,,,,,,,,,,,,,,,,,,,,,,,,,,,,,,,,,,,,,,,,,,,,,,,,,,,
,,,,,,,,,65bbdbd7bc3559a97b37263d,spanish,click here to respond,"no, only English or Spanish",no,2025-08-14_23h11.06.120,empathy_intonation_perc_control,2024.2.4,Linux x86_64,60.24096386,65bbdbd7bc3559a97b37263d,68817205a84113384fffdfe3,689ea4b46852676efe939740,,,,,,,,,,,,./stim/wavs/cuban_match_interrogative-total-yn_Maria-bebe-el-vino.wav,1,,,94.6489,97.1819,0,0,2.0011,,0,23,23,9,1,10,1,cuban,,,,,,,,,,,,,,,,,,,,,,,,,,,,,,,,,,,,,,,,,,,,,,,,,,,,,,,,
,,,,,,,,,65bbdbd7bc3559a97b37263d,spanish,click here to respond,"no, only English or Spanish",no,2025-08-14_23h11.06.120,empathy_intonation_perc_control,2024.2.4,Linux x86_64,60.24096386,65bbdbd7bc3559a97b37263d,68817205a84113384fffdfe3,689ea4b46852676efe939740,,,,,,,,,,,,./stim/wavs/mexican_match_declarative-broad-focus_Emilio-ama-la-marcha.wav,0,,,97.1828,99.6154,0,1,1.8994,,0,24,24,59,1,60,0,mexican,,,,,,,,,,,,,,,,,,,,,,,,,,,,,,,,,,,,,,,,,,,,,,,,,,,,,,,,
,,,,,,,,,65bbdbd7bc3559a97b37263d,spanish,click here to respond,"no, only English or Spanish",no,2025-08-14_23h11.06.120,empathy_intonation_perc_control,2024.2.4,Linux x86_64,60.24096386,65bbdbd7bc3559a97b37263d,68817205a84113384fffdfe3,689ea4b46852676efe939740,,,,,,,,,,,,./stim/wavs/puertorican_mismatch_interrogative-total-yn_Mi-madre-come-la-fruta.wav,1,,,99.6163,101.7322,0,0,1.5844,,0,25,25,43,1,44,1,puertorican,,,,,,,,,,,,,,,,,,,,,,,,,,,,,,,,,,,,,,,,,,,,,,,,,,,,,,,,
,,,,,,,,,65bbdbd7bc3559a97b37263d,spanish,click here to respond,"no, only English or Spanish",no,2025-08-14_23h11.06.120,empathy_intonation_perc_control,2024.2.4,Linux x86_64,60.24096386,65bbdbd7bc3559a97b37263d,68817205a84113384fffdfe3,689ea4b46852676efe939740,,,,,,,,,,,,./stim/wavs/puertorican_mismatch_declarative-broad-focus_El-hombre-mira-la-luna.wav,0,,,101.7332,103.6989,0,1,1.4379,,0,26,26,84,1,85,0,puertorican,,,,,,,,,,,,,,,,,,,,,,,,,,,,,,,,,,,,,,,,,,,,,,,,,,,,,,,,
,,,,,,,,,65bbdbd7bc3559a97b37263d,spanish,click here to respond,"no, only English or Spanish",no,2025-08-14_23h11.06.120,empathy_intonation_perc_control,2024.2.4,Linux x86_64,60.24096386,65bbdbd7bc3559a97b37263d,68817205a84113384fffdfe3,689ea4b46852676efe939740,,,,,,,,,,,,./stim/wavs/mexican_mismatch_interrogative-total-yn_La-maestra-vive-en-Paris.wav,1,,,103.6995,106.0832,1,1,1.8578,,0,27,27,36,1,37,0,mexican,,,,,,,,,,,,,,,,,,,,,,,,,,,,,,,,,,,,,,,,,,,,,,,,,,,,,,,,
,,,,,,,,,65bbdbd7bc3559a97b37263d,spanish,click here to respond,"no, only English or Spanish",no,2025-08-14_23h11.06.120,empathy_intonation_perc_control,2024.2.4,Linux x86_64,60.24096386,65bbdbd7bc3559a97b37263d,68817205a84113384fffdfe3,689ea4b46852676efe939740,,,,,,,,,,,,./stim/wavs/cuban_mismatch_interrogative-total-yn_Mi-novio-viene-del-lago.wav,1,,,106.0838,108.2833,0,0,1.6688,,0,28,28,32,1,33,1,cuban,,,,,,,,,,,,,,,,,,,,,,,,,,,,,,,,,,,,,,,,,,,,,,,,,,,,,,,,
,,,,,,,,,65bbdbd7bc3559a97b37263d,spanish,click here to respond,"no, only English or Spanish",no,2025-08-14_23h11.06.120,empathy_intonation_perc_control,2024.2.4,Linux x86_64,60.24096386,65bbdbd7bc3559a97b37263d,68817205a84113384fffdfe3,689ea4b46852676efe939740,,,,,,,,,,,,./stim/wavs/mexican_mismatch_interrogative-total-yn_El-hombre-mira-la-luna.wav,1,,,108.2839,110.2996,1,1,1.4885,,0,29,29,34,1,35,0,mexican,,,,,,,,,,,,,,,,,,,,,,,,,,,,,,,,,,,,,,,,,,,,,,,,,,,,,,,,
,,,,,,,,,65bbdbd7bc3559a97b37263d,spanish,click here to respond,"no, only English or Spanish",no,2025-08-14_23h11.06.120,empathy_intonation_perc_control,2024.2.4,Linux x86_64,60.24096386,65bbdbd7bc3559a97b37263d,68817205a84113384fffdfe3,689ea4b46852676efe939740,,,,,,,,,,,,./stim/wavs/cuban_match_interrogative-total-yn_Ana-lleva-el-abrigo.wav,1,,,110.3004,112.8667,0,0,2.0357,,0,30,30,6,1,7,1,cuban,,,,,,,,,,,,,,,,,,,,,,,,,,,,,,,,,,,,,,,,,,,,,,,,,,,,,,,,
,,,,,,,,,65bbdbd7bc3559a97b37263d,spanish,click here to respond,"no, only English or Spanish",no,2025-08-14_23h11.06.120,empathy_intonation_perc_control,2024.2.4,Linux x86_64,60.24096386,65bbdbd7bc3559a97b37263d,68817205a84113384fffdfe3,689ea4b46852676efe939740,,,,,,,,,,,,./stim/wavs/puertorican_mismatch_declarative-broad-focus_La-nina-lava-el-plato.wav,0,,,112.8674,114.867,0,1,1.4668,,0,31,31,87,1,88,0,puertorican,,,,,,,,,,,,,,,,,,,,,,,,,,,,,,,,,,,,,,,,,,,,,,,,,,,,,,,,
,,,,,,,,,65bbdbd7bc3559a97b37263d,spanish,click here to respond,"no, only English or Spanish",no,2025-08-14_23h11.06.120,empathy_intonation_perc_control,2024.2.4,Linux x86_64,60.24096386,65bbdbd7bc3559a97b37263d,68817205a84113384fffdfe3,689ea4b46852676efe939740,,,,,,,,,,,,./stim/wavs/castilian_mismatch_interrogative-total-yn_La-maestra-vive-en-Paris.wav,1,,,114.8676,117.4349,1,1,2.035,,0,32,32,24,1,25,0,castilian,,,,,,,,,,,,,,,,,,,,,,,,,,,,,,,,,,,,,,,,,,,,,,,,,,,,,,,,
,,,,,,,,,65bbdbd7bc3559a97b37263d,spanish,click here to respond,"no, only English or Spanish",no,2025-08-14_23h11.06.120,empathy_intonation_perc_control,2024.2.4,Linux x86_64,60.24096386,65bbdbd7bc3559a97b37263d,68817205a84113384fffdfe3,689ea4b46852676efe939740,,,,,,,,,,,,./stim/wavs/mexican_match_declarative-broad-focus_David-leia-el-libro.wav,0,,,117.4355,120.1674,0,1,2.2043,,0,33,33,58,1,59,0,mexican,,,,,,,,,,,,,,,,,,,,,,,,,,,,,,,,,,,,,,,,,,,,,,,,,,,,,,,,
,,,,,,,,,65bbdbd7bc3559a97b37263d,spanish,click here to respond,"no, only English or Spanish",no,2025-08-14_23h11.06.120,empathy_intonation_perc_control,2024.2.4,Linux x86_64,60.24096386,65bbdbd7bc3559a97b37263d,68817205a84113384fffdfe3,689ea4b46852676efe939740,,,,,,,,,,,,./stim/wavs/mexican_match_interrogative-total-yn_Mariano-habla-del-tiempo.wav,1,,,120.168,122.4346,1,1,1.7366,,0,34,34,16,1,17,0,mexican,,,,,,,,,,,,,,,,,,,,,,,,,,,,,,,,,,,,,,,,,,,,,,,,,,,,,,,,
,,,,,,,,,65bbdbd7bc3559a97b37263d,spanish,click here to respond,"no, only English or Spanish",no,2025-08-14_23h11.06.120,empathy_intonation_perc_control,2024.2.4,Linux x86_64,60.24096386,65bbdbd7bc3559a97b37263d,68817205a84113384fffdfe3,689ea4b46852676efe939740,,,,,,,,,,,,./stim/wavs/castilian_match_declarative-broad-focus_Manuela-vende-el-carro.wav,0,,,122.4352,124.8187,0,1,1.849,,0,35,35,46,1,47,0,castilian,,,,,,,,,,,,,,,,,,,,,,,,,,,,,,,,,,,,,,,,,,,,,,,,,,,,,,,,
,,,,,,,,,65bbdbd7bc3559a97b37263d,spanish,click here to respond,"no, only English or Spanish",no,2025-08-14_23h11.06.120,empathy_intonation_perc_control,2024.2.4,Linux x86_64,60.24096386,65bbdbd7bc3559a97b37263d,68817205a84113384fffdfe3,689ea4b46852676efe939740,,,,,,,,,,,,./stim/wavs/mexican_mismatch_interrogative-total-yn_Mi-tia-odia-la-lluvia.wav,1,,,124.8197,126.9853,1,1,1.6413,,0,36,36,38,1,39,0,mexican,,,,,,,,,,,,,,,,,,,,,,,,,,,,,,,,,,,,,,,,,,,,,,,,,,,,,,,,
,,,,,,,,,65bbdbd7bc3559a97b37263d,spanish,click here to respond,"no, only English or Spanish",no,2025-08-14_23h11.06.120,empathy_intonation_perc_control,2024.2.4,Linux x86_64,60.24096386,65bbdbd7bc3559a97b37263d,68817205a84113384fffdfe3,689ea4b46852676efe939740,,,,,,,,,,,,./stim/wavs/cuban_match_interrogative-total-yn_Marta-abre-el-regalo.wav,1,,,126.986,129.3685,0,0,1.851,,0,37,37,11,1,12,1,cuban,,,,,,,,,,,,,,,,,,,,,,,,,,,,,,,,,,,,,,,,,,,,,,,,,,,,,,,,
,,,,,,,,,65bbdbd7bc3559a97b37263d,spanish,click here to respond,"no, only English or Spanish",no,2025-08-14_23h11.06.120,empathy_intonation_perc_control,2024.2.4,Linux x86_64,60.24096386,65bbdbd7bc3559a97b37263d,68817205a84113384fffdfe3,689ea4b46852676efe939740,,,,,,,,,,,,./stim/wavs/puertorican_match_interrogative-total-yn_David-leia-el-libro.wav,1,,,129.3692,131.502,0,0,1.6019,,0,38,38,20,1,21,1,puertorican,,,,,,,,,,,,,,,,,,,,,,,,,,,,,,,,,,,,,,,,,,,,,,,,,,,,,,,,
,,,,,,,,,65bbdbd7bc3559a97b37263d,spanish,click here to respond,"no, only English or Spanish",no,2025-08-14_23h11.06.120,empathy_intonation_perc_control,2024.2.4,Linux x86_64,60.24096386,65bbdbd7bc3559a97b37263d,68817205a84113384fffdfe3,689ea4b46852676efe939740,,,,,,,,,,,,./stim/wavs/cuban_mismatch_interrogative-total-yn_Mi-madre-come-la-fruta.wav,1,,,131.5026,133.8192,0,0,1.7821,,0,39,39,31,1,32,1,cuban,,,,,,,,,,,,,,,,,,,,,,,,,,,,,,,,,,,,,,,,,,,,,,,,,,,,,,,,
,,,,,,,,,65bbdbd7bc3559a97b37263d,spanish,click here to respond,"no, only English or Spanish",no,2025-08-14_23h11.06.120,empathy_intonation_perc_control,2024.2.4,Linux x86_64,60.24096386,65bbdbd7bc3559a97b37263d,68817205a84113384fffdfe3,689ea4b46852676efe939740,,,,,,,,,,,,./stim/wavs/mexican_mismatch_interrogative-total-yn_El-nino-oye-el-rio.wav,1,,,133.8198,135.9026,1,1,1.5491,,0,40,40,35,1,36,0,mexican,,,,,,,,,,,,,,,,,,,,,,,,,,,,,,,,,,,,,,,,,,,,,,,,,,,,,,,,
,,,,,,,,,65bbdbd7bc3559a97b37263d,spanish,click here to respond,"no, only English or Spanish",no,2025-08-14_23h11.06.120,empathy_intonation_perc_control,2024.2.4,Linux x86_64,60.24096386,65bbdbd7bc3559a97b37263d,68817205a84113384fffdfe3,689ea4b46852676efe939740,,,,,,,,,,,,./stim/wavs/castilian_mismatch_interrogative-total-yn_Mi-tia-odia-la-lluvia.wav,1,,,135.9032,138.1026,1,1,1.6706,,0,41,41,28,1,29,0,castilian,,,,,,,,,,,,,,,,,,,,,,,,,,,,,,,,,,,,,,,,,,,,,,,,,,,,,,,,
,,,,,,,,,65bbdbd7bc3559a97b37263d,spanish,click here to respond,"no, only English or Spanish",no,2025-08-14_23h11.06.120,empathy_intonation_perc_control,2024.2.4,Linux x86_64,60.24096386,65bbdbd7bc3559a97b37263d,68817205a84113384fffdfe3,689ea4b46852676efe939740,,,,,,,,,,,,./stim/wavs/puertorican_match_interrogative-total-yn_Daniel-iba-a-Bolivia.wav,1,,,138.1032,140.2028,0,0,1.5672,,0,42,42,19,1,20,1,puertorican,,,,,,,,,,,,,,,,,,,,,,,,,,,,,,,,,,,,,,,,,,,,,,,,,,,,,,,,
,,,,,,,,,65bbdbd7bc3559a97b37263d,spanish,click here to respond,"no, only English or Spanish",no,2025-08-14_23h11.06.120,empathy_intonation_perc_control,2024.2.4,Linux x86_64,60.24096386,65bbdbd7bc3559a97b37263d,68817205a84113384fffdfe3,689ea4b46852676efe939740,,,,,,,,,,,,./stim/wavs/mexican_match_interrogative-total-yn_Ana-lleva-el-abrigo.wav,1,,,140.2035,142.353,1,1,1.6183,,0,43,43,12,1,13,0,mexican,,,,,,,,,,,,,,,,,,,,,,,,,,,,,,,,,,,,,,,,,,,,,,,,,,,,,,,,
,,,,,,,,,65bbdbd7bc3559a97b37263d,spanish,click here to respond,"no, only English or Spanish",no,2025-08-14_23h11.06.120,empathy_intonation_perc_control,2024.2.4,Linux x86_64,60.24096386,65bbdbd7bc3559a97b37263d,68817205a84113384fffdfe3,689ea4b46852676efe939740,,,,,,,,,,,,./stim/wavs/mexican_match_interrogative-total-yn_Daniel-iba-a-Bolivia.wav,1,,,142.3536,144.6033,1,1,1.7172,,0,44,44,13,1,14,0,mexican,,,,,,,,,,,,,,,,,,,,,,,,,,,,,,,,,,,,,,,,,,,,,,,,,,,,,,,,
,,,,,,,,,65bbdbd7bc3559a97b37263d,spanish,click here to respond,"no, only English or Spanish",no,2025-08-14_23h11.06.120,empathy_intonation_perc_control,2024.2.4,Linux x86_64,60.24096386,65bbdbd7bc3559a97b37263d,68817205a84113384fffdfe3,689ea4b46852676efe939740,,,,,,,,,,,,./stim/wavs/puertorican_match_interrogative-total-yn_Emilio-ama-la-marcha.wav,1,,,144.6039,146.7041,0,0,1.5669,,0,45,45,21,1,22,1,puertorican,,,,,,,,,,,,,,,,,,,,,,,,,,,,,,,,,,,,,,,,,,,,,,,,,,,,,,,,
,,,,,,,,,65bbdbd7bc3559a97b37263d,spanish,click here to respond,"no, only English or Spanish",no,2025-08-14_23h11.06.120,empathy_intonation_perc_control,2024.2.4,Linux x86_64,60.24096386,65bbdbd7bc3559a97b37263d,68817205a84113384fffdfe3,689ea4b46852676efe939740,,,,,,,,,,,,./stim/wavs/cuban_mismatch_interrogative-total-yn_Mi-tia-odia-la-lluvia.wav,1,,,146.7049,148.8041,0,0,1.5678,,0,46,46,33,1,34,1,cuban,,,,,,,,,,,,,,,,,,,,,,,,,,,,,,,,,,,,,,,,,,,,,,,,,,,,,,,,
,,,,,,,,,65bbdbd7bc3559a97b37263d,spanish,click here to respond,"no, only English or Spanish",no,2025-08-14_23h11.06.120,empathy_intonation_perc_control,2024.2.4,Linux x86_64,60.24096386,65bbdbd7bc3559a97b37263d,68817205a84113384fffdfe3,689ea4b46852676efe939740,,,,,,,,,,,,./stim/wavs/cuban_match_declarative-broad-focus_Mariano-habla-del-tiempo.wav,0,,,148.8062,151.0541,0,1,1.7171,,0,47,47,54,1,55,0,cuban,,,,,,,,,,,,,,,,,,,,,,,,,,,,,,,,,,,,,,,,,,,,,,,,,,,,,,,,
,,,,,,,,,65bbdbd7bc3559a97b37263d,spanish,click here to respond,"no, only English or Spanish",no,2025-08-14_23h11.06.120,empathy_intonation_perc_control,2024.2.4,Linux x86_64,60.24096386,65bbdbd7bc3559a97b37263d,68817205a84113384fffdfe3,689ea4b46852676efe939740,,,,,,,,,,,,./stim/wavs/mexican_mismatch_declarative-broad-focus_El-hombre-mira-la-luna.wav,0,,,151.0549,153.121,0,1,1.5343,,0,48,48,79,1,80,0,mexican,,,,,,,,,,,,,,,,,,,,,,,,,,,,,,,,,,,,,,,,,,,,,,,,,,,,,,,,
,,,,,,,,,65bbdbd7bc3559a97b37263d,spanish,click here to respond,"no, only English or Spanish",no,2025-08-14_23h11.06.120,empathy_intonation_perc_control,2024.2.4,Linux x86_64,60.24096386,65bbdbd7bc3559a97b37263d,68817205a84113384fffdfe3,689ea4b46852676efe939740,,,,,,,,,,,,./stim/wavs/castilian_mismatch_interrogative-total-yn_Mi-madre-come-la-fruta.wav,1,,,153.1216,155.3711,1,1,1.7175,,0,49,49,26,1,27,0,castilian,,,,,,,,,,,,,,,,,,,,,,,,,,,,,,,,,,,,,,,,,,,,,,,,,,,,,,,,
,,,,,,,,,65bbdbd7bc3559a97b37263d,spanish,click here to respond,"no, only English or Spanish",no,2025-08-14_23h11.06.120,empathy_intonation_perc_control,2024.2.4,Linux x86_64,60.24096386,65bbdbd7bc3559a97b37263d,68817205a84113384fffdfe3,689ea4b46852676efe939740,,,,,,,,,,,,./stim/wavs/puertorican_match_interrogative-total-yn_Manuela-vende-el-carro.wav,1,,,155.3718,157.3881,0,0,1.4839,,0,50,50,22,1,23,1,puertorican,,,,,,,,,,,,,,,,,,,,,,,,,,,,,,,,,,,,,,,,,,,,,,,,,,,,,,,,
,,,,,,,,,65bbdbd7bc3559a97b37263d,spanish,click here to respond,"no, only English or Spanish",no,2025-08-14_23h11.06.120,empathy_intonation_perc_control,2024.2.4,Linux x86_64,60.24096386,65bbdbd7bc3559a97b37263d,68817205a84113384fffdfe3,689ea4b46852676efe939740,,,,,,,,,,,,./stim/wavs/castilian_match_declarative-broad-focus_Mariano-habla-del-tiempo.wav,0,,,157.3887,159.9214,0,1,2.0031,,0,51,51,48,1,49,0,castilian,,,,,,,,,,,,,,,,,,,,,,,,,,,,,,,,,,,,,,,,,,,,,,,,,,,,,,,,
,,,,,,,,,65bbdbd7bc3559a97b37263d,spanish,click here to respond,"no, only English or Spanish",no,2025-08-14_23h11.06.120,empathy_intonation_perc_control,2024.2.4,Linux x86_64,60.24096386,65bbdbd7bc3559a97b37263d,68817205a84113384fffdfe3,689ea4b46852676efe939740,,,,,,,,,,,,./stim/wavs/castilian_match_interrogative-total-yn_David-leia-el-libro.wav,1,,,159.922,162.172,1,1,1.719,,0,52,52,0,1,1,0,castilian,,,,,,,,,,,,,,,,,,,,,,,,,,,,,,,,,,,,,,,,,,,,,,,,,,,,,,,,
,,,,,,,,,65bbdbd7bc3559a97b37263d,spanish,click here to respond,"no, only English or Spanish",no,2025-08-14_23h11.06.120,empathy_intonation_perc_control,2024.2.4,Linux x86_64,60.24096386,65bbdbd7bc3559a97b37263d,68817205a84113384fffdfe3,689ea4b46852676efe939740,,,,,,,,,,,,./stim/wavs/puertorican_mismatch_declarative-broad-focus_El-nino-oye-el-rio.wav,0,,,162.1728,164.3386,0,1,1.6367,,0,53,53,85,1,86,0,puertorican,,,,,,,,,,,,,,,,,,,,,,,,,,,,,,,,,,,,,,,,,,,,,,,,,,,,,,,,
,,,,,,,,,65bbdbd7bc3559a97b37263d,spanish,click here to respond,"no, only English or Spanish",no,2025-08-14_23h11.06.120,empathy_intonation_perc_control,2024.2.4,Linux x86_64,60.24096386,65bbdbd7bc3559a97b37263d,68817205a84113384fffdfe3,689ea4b46852676efe939740,,,,,,,,,,,,./stim/wavs/puertorican_mismatch_interrogative-total-yn_El-nino-oye-el-rio.wav,1,,,164.3392,166.4891,1,1,1.6187,,0,54,54,40,1,41,1,puertorican,,,,,,,,,,,,,,,,,,,,,,,,,,,,,,,,,,,,,,,,,,,,,,,,,,,,,,,,
,,,,,,,,,65bbdbd7bc3559a97b37263d,spanish,click here to respond,"no, only English or Spanish",no,2025-08-14_23h11.06.120,empathy_intonation_perc_control,2024.2.4,Linux x86_64,60.24096386,65bbdbd7bc3559a97b37263d,68817205a84113384fffdfe3,689ea4b46852676efe939740,,,,,,,,,,,,./stim/wavs/castilian_mismatch_declarative-broad-focus_Mi-novio-viene-del-lago.wav,0,,,166.4903,168.7893,0,1,1.7687,,0,55,55,71,1,72,0,castilian,,,,,,,,,,,,,,,,,,,,,,,,,,,,,,,,,,,,,,,,,,,,,,,,,,,,,,,,
,,,,,,,,,65bbdbd7bc3559a97b37263d,spanish,click here to respond,"no, only English or Spanish",no,2025-08-14_23h11.06.120,empathy_intonation_perc_control,2024.2.4,Linux x86_64,60.24096386,65bbdbd7bc3559a97b37263d,68817205a84113384fffdfe3,689ea4b46852676efe939740,,,,,,,,,,,,./stim/wavs/mexican_mismatch_declarative-broad-focus_El-bebe-comia-muy-bien.wav,0,,,168.7901,170.9729,0,1,1.6553,,0,56,56,78,1,79,0,mexican,,,,,,,,,,,,,,,,,,,,,,,,,,,,,,,,,,,,,,,,,,,,,,,,,,,,,,,,
,,,,,,,,,65bbdbd7bc3559a97b37263d,spanish,click here to respond,"no, only English or Spanish",no,2025-08-14_23h11.06.120,empathy_intonation_perc_control,2024.2.4,Linux x86_64,60.24096386,65bbdbd7bc3559a97b37263d,68817205a84113384fffdfe3,689ea4b46852676efe939740,,,,,,,,,,,,./stim/wavs/cuban_mismatch_interrogative-total-yn_El-nino-oye-el-rio.wav,1,,,170.9737,173.2231,0,0,1.7198,,0,57,57,30,1,31,1,cuban,,,,,,,,,,,,,,,,,,,,,,,,,,,,,,,,,,,,,,,,,,,,,,,,,,,,,,,,
,,,,,,,,,65bbdbd7bc3559a97b37263d,spanish,click here to respond,"no, only English or Spanish",no,2025-08-14_23h11.06.120,empathy_intonation_perc_control,2024.2.4,Linux x86_64,60.24096386,65bbdbd7bc3559a97b37263d,68817205a84113384fffdfe3,689ea4b46852676efe939740,,,,,,,,,,,,./stim/wavs/cuban_mismatch_interrogative-total-yn_El-hombre-mira-la-luna.wav,1,,,173.2237,175.0398,0,0,1.2867,,0,58,58,29,1,30,1,cuban,,,,,,,,,,,,,,,,,,,,,,,,,,,,,,,,,,,,,,,,,,,,,,,,,,,,,,,,
,,,,,,,,,65bbdbd7bc3559a97b37263d,spanish,click here to respond,"no, only English or Spanish",no,2025-08-14_23h11.06.120,empathy_intonation_perc_control,2024.2.4,Linux x86_64,60.24096386,65bbdbd7bc3559a97b37263d,68817205a84113384fffdfe3,689ea4b46852676efe939740,,,,,,,,,,,,./stim/wavs/cuban_mismatch_declarative-broad-focus_Mi-tia-odia-la-lluvia.wav,0,,,175.0405,177.157,0,1,1.5817,,0,59,59,77,1,78,0,cuban,,,,,,,,,,,,,,,,,,,,,,,,,,,,,,,,,,,,,,,,,,,,,,,,,,,,,,,,
,,,,,,,,,65bbdbd7bc3559a97b37263d,spanish,click here to respond,"no, only English or Spanish",no,2025-08-14_23h11.06.120,empathy_intonation_perc_control,2024.2.4,Linux x86_64,60.24096386,65bbdbd7bc3559a97b37263d,68817205a84113384fffdfe3,689ea4b46852676efe939740,,,,,,,,,,,,./stim/wavs/cuban_match_declarative-broad-focus_Maria-bebe-el-vino.wav,0,,,177.1577,179.1406,0,1,1.4522,,0,60,60,53,1,54,0,cuban,,,,,,,,,,,,,,,,,,,,,,,,,,,,,,,,,,,,,,,,,,,,,,,,,,,,,,,,
,,,,,,,,,65bbdbd7bc3559a97b37263d,spanish,click here to respond,"no, only English or Spanish",no,2025-08-14_23h11.06.120,empathy_intonation_perc_control,2024.2.4,Linux x86_64,60.24096386,65bbdbd7bc3559a97b37263d,68817205a84113384fffdfe3,689ea4b46852676efe939740,,,,,,,,,,,,./stim/wavs/puertorican_mismatch_interrogative-total-yn_La-nina-lava-el-plato.wav,1,,,179.1416,181.0077,0,0,1.3338,,0,61,61,42,1,43,1,puertorican,,,,,,,,,,,,,,,,,,,,,,,,,,,,,,,,,,,,,,,,,,,,,,,,,,,,,,,,
,,,,,,,,,65bbdbd7bc3559a97b37263d,spanish,click here to respond,"no, only English or Spanish",no,2025-08-14_23h11.06.120,empathy_intonation_perc_control,2024.2.4,Linux x86_64,60.24096386,65bbdbd7bc3559a97b37263d,68817205a84113384fffdfe3,689ea4b46852676efe939740,,,,,,,,,,,,./stim/wavs/castilian_mismatch_interrogative-total-yn_La-nina-lava-el-plato.wav,1,,,181.0083,183.124,1,1,1.5827,,0,62,62,25,1,26,0,castilian,,,,,,,,,,,,,,,,,,,,,,,,,,,,,,,,,,,,,,,,,,,,,,,,,,,,,,,,
,,,,,,,,,65bbdbd7bc3559a97b37263d,spanish,click here to respond,"no, only English or Spanish",no,2025-08-14_23h11.06.120,empathy_intonation_perc_control,2024.2.4,Linux x86_64,60.24096386,65bbdbd7bc3559a97b37263d,68817205a84113384fffdfe3,689ea4b46852676efe939740,,,,,,,,,,,,./stim/wavs/mexican_mismatch_declarative-broad-focus_La-maestra-vive-en-Paris.wav,0,,,183.1248,185.5246,0,1,1.8684,,0,63,63,80,1,81,0,mexican,,,,,,,,,,,,,,,,,,,,,,,,,,,,,,,,,,,,,,,,,,,,,,,,,,,,,,,,
,,,,,,,,,65bbdbd7bc3559a97b37263d,spanish,click here to respond,"no, only English or Spanish",no,2025-08-14_23h11.06.120,empathy_intonation_perc_control,2024.2.4,Linux x86_64,60.24096386,65bbdbd7bc3559a97b37263d,68817205a84113384fffdfe3,689ea4b46852676efe939740,,,,,,,,,,,,./stim/wavs/castilian_match_declarative-broad-focus_Maria-bebe-el-vino.wav,0,,,185.5255,187.7745,0,1,1.7208,,0,64,64,47,1,48,0,castilian,,,,,,,,,,,,,,,,,,,,,,,,,,,,,,,,,,,,,,,,,,,,,,,,,,,,,,,,
,,,,,,,,,65bbdbd7bc3559a97b37263d,spanish,click here to respond,"no, only English or Spanish",no,2025-08-14_23h11.06.120,empathy_intonation_perc_control,2024.2.4,Linux x86_64,60.24096386,65bbdbd7bc3559a97b37263d,68817205a84113384fffdfe3,689ea4b46852676efe939740,,,,,,,,,,,,./stim/wavs/mexican_match_declarative-broad-focus_Daniel-iba-a-Bolivia.wav,0,,,187.7751,189.8249,0,1,1.5209,,0,65,65,57,1,58,0,mexican,,,,,,,,,,,,,,,,,,,,,,,,,,,,,,,,,,,,,,,,,,,,,,,,,,,,,,,,
,,,,,,,,,65bbdbd7bc3559a97b37263d,spanish,click here to respond,"no, only English or Spanish",no,2025-08-14_23h11.06.120,empathy_intonation_perc_control,2024.2.4,Linux x86_64,60.24096386,65bbdbd7bc3559a97b37263d,68817205a84113384fffdfe3,689ea4b46852676efe939740,,,,,,,,,,,,./stim/wavs/cuban_match_interrogative-total-yn_Daniel-iba-a-Bolivia.wav,1,,,189.8256,191.8747,0,0,1.5201,,0,66,66,7,1,8,1,cuban,,,,,,,,,,,,,,,,,,,,,,,,,,,,,,,,,,,,,,,,,,,,,,,,,,,,,,,,
,,,,,,,,,65bbdbd7bc3559a97b37263d,spanish,click here to respond,"no, only English or Spanish",no,2025-08-14_23h11.06.120,empathy_intonation_perc_control,2024.2.4,Linux x86_64,60.24096386,65bbdbd7bc3559a97b37263d,68817205a84113384fffdfe3,689ea4b46852676efe939740,,,,,,,,,,,,./stim/wavs/cuban_match_declarative-broad-focus_Marta-abre-el-regalo.wav,0,,,191.8753,194.0086,0,1,1.6019,,0,67,67,55,1,56,0,cuban,,,,,,,,,,,,,,,,,,,,,,,,,,,,,,,,,,,,,,,,,,,,,,,,,,,,,,,,
,,,,,,,,,65bbdbd7bc3559a97b37263d,spanish,click here to respond,"no, only English or Spanish",no,2025-08-14_23h11.06.120,empathy_intonation_perc_control,2024.2.4,Linux x86_64,60.24096386,65bbdbd7bc3559a97b37263d,68817205a84113384fffdfe3,689ea4b46852676efe939740,,,,,,,,,,,,./stim/wavs/mexican_match_interrogative-total-yn_Emilio-ama-la-marcha.wav,1,,,194.0093,196.2754,0,0,1.7343,,0,68,68,15,1,16,0,mexican,,,,,,,,,,,,,,,,,,,,,,,,,,,,,,,,,,,,,,,,,,,,,,,,,,,,,,,,
,,,,,,,,,65bbdbd7bc3559a97b37263d,spanish,click here to respond,"no, only English or Spanish",no,2025-08-14_23h11.06.120,empathy_intonation_perc_control,2024.2.4,Linux x86_64,60.24096386,65bbdbd7bc3559a97b37263d,68817205a84113384fffdfe3,689ea4b46852676efe939740,,,,,,,,,,,,./stim/wavs/cuban_mismatch_declarative-broad-focus_El-bebe-comia-muy-bien.wav,0,,,196.2761,198.1424,0,1,1.3341,,0,69,69,73,1,74,0,cuban,,,,,,,,,,,,,,,,,,,,,,,,,,,,,,,,,,,,,,,,,,,,,,,,,,,,,,,,
,,,,,,,,,65bbdbd7bc3559a97b37263d,spanish,click here to respond,"no, only English or Spanish",no,2025-08-14_23h11.06.120,empathy_intonation_perc_control,2024.2.4,Linux x86_64,60.24096386,65bbdbd7bc3559a97b37263d,68817205a84113384fffdfe3,689ea4b46852676efe939740,,,,,,,,,,,,./stim/wavs/mexican_match_declarative-broad-focus_Marta-abre-el-regalo.wav,0,,,198.1431,200.0262,0,1,1.3527,,0,70,70,61,1,62,0,mexican,,,,,,,,,,,,,,,,,,,,,,,,,,,,,,,,,,,,,,,,,,,,,,,,,,,,,,,,
,,,,,,,,,65bbdbd7bc3559a97b37263d,spanish,click here to respond,"no, only English or Spanish",no,2025-08-14_23h11.06.120,empathy_intonation_perc_control,2024.2.4,Linux x86_64,60.24096386,65bbdbd7bc3559a97b37263d,68817205a84113384fffdfe3,689ea4b46852676efe939740,,,,,,,,,,,,./stim/wavs/cuban_mismatch_declarative-broad-focus_Mi-novio-viene-del-lago.wav,0,,,200.027,202.0929,0,1,1.5313,,0,71,71,76,1,77,0,cuban,,,,,,,,,,,,,,,,,,,,,,,,,,,,,,,,,,,,,,,,,,,,,,,,,,,,,,,,
,,,,,,,,,65bbdbd7bc3559a97b37263d,spanish,click here to respond,"no, only English or Spanish",no,2025-08-14_23h11.06.120,empathy_intonation_perc_control,2024.2.4,Linux x86_64,60.24096386,65bbdbd7bc3559a97b37263d,68817205a84113384fffdfe3,689ea4b46852676efe939740,,,,,,,,,,,,./stim/wavs/castilian_mismatch_declarative-broad-focus_La-nina-lava-el-plato.wav,0,,,202.0935,204.4429,0,1,1.8168,,0,72,72,70,1,71,0,castilian,,,,,,,,,,,,,,,,,,,,,,,,,,,,,,,,,,,,,,,,,,,,,,,,,,,,,,,,
,,,,,,,,,65bbdbd7bc3559a97b37263d,spanish,click here to respond,"no, only English or Spanish",no,2025-08-14_23h11.06.120,empathy_intonation_perc_control,2024.2.4,Linux x86_64,60.24096386,65bbdbd7bc3559a97b37263d,68817205a84113384fffdfe3,689ea4b46852676efe939740,,,,,,,,,,,,./stim/wavs/castilian_match_interrogative-total-yn_Manuela-vende-el-carro.wav,1,,,204.4436,206.7936,1,1,1.8188,,0,73,73,2,1,3,0,castilian,,,,,,,,,,,,,,,,,,,,,,,,,,,,,,,,,,,,,,,,,,,,,,,,,,,,,,,,
,,,,,,,,,65bbdbd7bc3559a97b37263d,spanish,click here to respond,"no, only English or Spanish",no,2025-08-14_23h11.06.120,empathy_intonation_perc_control,2024.2.4,Linux x86_64,60.24096386,65bbdbd7bc3559a97b37263d,68817205a84113384fffdfe3,689ea4b46852676efe939740,,,,,,,,,,,,./stim/wavs/puertorican_match_interrogative-total-yn_Maria-bebe-el-vino.wav,1,,,206.7954,209.0271,0,0,1.6999,,0,74,74,23,1,24,1,puertorican,,,,,,,,,,,,,,,,,,,,,,,,,,,,,,,,,,,,,,,,,,,,,,,,,,,,,,,,
,,,,,,,,,65bbdbd7bc3559a97b37263d,spanish,click here to respond,"no, only English or Spanish",no,2025-08-14_23h11.06.120,empathy_intonation_perc_control,2024.2.4,Linux x86_64,60.24096386,65bbdbd7bc3559a97b37263d,68817205a84113384fffdfe3,689ea4b46852676efe939740,,,,,,,,,,,,./stim/wavs/mexican_mismatch_declarative-broad-focus_Mi-tia-odia-la-lluvia.wav,0,,,209.0278,211.0781,0,1,1.5238,,0,75,75,82,1,83,0,mexican,,,,,,,,,,,,,,,,,,,,,,,,,,,,,,,,,,,,,,,,,,,,,,,,,,,,,,,,
,,,,,,,,,65bbdbd7bc3559a97b37263d,spanish,click here to respond,"no, only English or Spanish",no,2025-08-14_23h11.06.120,empathy_intonation_perc_control,2024.2.4,Linux x86_64,60.24096386,65bbdbd7bc3559a97b37263d,68817205a84113384fffdfe3,689ea4b46852676efe939740,,,,,,,,,,,,./stim/wavs/castilian_match_interrogative-total-yn_Mariano-habla-del-tiempo.wav,1,,,211.079,213.5272,1,1,1.9179,,0,76,76,4,1,5,0,castilian,,,,,,,,,,,,,,,,,,,,,,,,,,,,,,,,,,,,,,,,,,,,,,,,,,,,,,,,
,,,,,,,,,65bbdbd7bc3559a97b37263d,spanish,click here to respond,"no, only English or Spanish",no,2025-08-14_23h11.06.120,empathy_intonation_perc_control,2024.2.4,Linux x86_64,60.24096386,65bbdbd7bc3559a97b37263d,68817205a84113384fffdfe3,689ea4b46852676efe939740,,,,,,,,,,,,./stim/wavs/puertorican_mismatch_interrogative-total-yn_La-maestra-vive-en-Paris.wav,1,,,213.5286,215.8441,0,0,1.7855,,0,77,77,41,1,42,1,puertorican,,,,,,,,,,,,,,,,,,,,,,,,,,,,,,,,,,,,,,,,,,,,,,,,,,,,,,,,
,,,,,,,,,65bbdbd7bc3559a97b37263d,spanish,click here to respond,"no, only English or Spanish",no,2025-08-14_23h11.06.120,empathy_intonation_perc_control,2024.2.4,Linux x86_64,60.24096386,65bbdbd7bc3559a97b37263d,68817205a84113384fffdfe3,689ea4b46852676efe939740,,,,,,,,,,,,./stim/wavs/castilian_match_declarative-broad-focus_Marta-abre-el-regalo.wav,0,,,215.845,218.1113,0,1,1.733,,0,78,78,49,1,50,0,castilian,,,,,,,,,,,,,,,,,,,,,,,,,,,,,,,,,,,,,,,,,,,,,,,,,,,,,,,,
,,,,,,,,,65bbdbd7bc3559a97b37263d,spanish,click here to respond,"no, only English or Spanish",no,2025-08-14_23h11.06.120,empathy_intonation_perc_control,2024.2.4,Linux x86_64,60.24096386,65bbdbd7bc3559a97b37263d,68817205a84113384fffdfe3,689ea4b46852676efe939740,,,,,,,,,,,,./stim/wavs/mexican_match_declarative-broad-focus_Mariano-habla-del-tiempo.wav,0,,,218.112,220.728,0,1,2.0828,,0,79,79,60,1,61,0,mexican,,,,,,,,,,,,,,,,,,,,,,,,,,,,,,,,,,,,,,,,,,,,,,,,,,,,,,,,
,,,,,,,,,65bbdbd7bc3559a97b37263d,spanish,click here to respond,"no, only English or Spanish",no,2025-08-14_23h11.06.120,empathy_intonation_perc_control,2024.2.4,Linux x86_64,60.24096386,65bbdbd7bc3559a97b37263d,68817205a84113384fffdfe3,689ea4b46852676efe939740,,,,,,,,,,,,./stim/wavs/puertorican_match_declarative-broad-focus_Daniel-iba-a-Bolivia.wav,0,,,220.7286,222.9282,0,1,1.6675,,0,80,80,63,1,64,0,puertorican,,,,,,,,,,,,,,,,,,,,,,,,,,,,,,,,,,,,,,,,,,,,,,,,,,,,,,,,
,,,,,,,,,65bbdbd7bc3559a97b37263d,spanish,click here to respond,"no, only English or Spanish",no,2025-08-14_23h11.06.120,empathy_intonation_perc_control,2024.2.4,Linux x86_64,60.24096386,65bbdbd7bc3559a97b37263d,68817205a84113384fffdfe3,689ea4b46852676efe939740,,,,,,,,,,,,./stim/wavs/mexican_match_interrogative-total-yn_Marta-abre-el-regalo.wav,1,,,222.9289,224.9449,1,1,1.4885,,0,81,81,17,1,18,0,mexican,,,,,,,,,,,,,,,,,,,,,,,,,,,,,,,,,,,,,,,,,,,,,,,,,,,,,,,,
,,,,,,,,,65bbdbd7bc3559a97b37263d,spanish,click here to respond,"no, only English or Spanish",no,2025-08-14_23h11.06.120,empathy_intonation_perc_control,2024.2.4,Linux x86_64,60.24096386,65bbdbd7bc3559a97b37263d,68817205a84113384fffdfe3,689ea4b46852676efe939740,,,,,,,,,,,,./stim/wavs/puertorican_match_declarative-broad-focus_Emilio-ama-la-marcha.wav,0,,,224.9456,227.0119,0,1,1.5371,,0,82,82,65,1,66,0,puertorican,,,,,,,,,,,,,,,,,,,,,,,,,,,,,,,,,,,,,,,,,,,,,,,,,,,,,,,,
,,,,,,,,,65bbdbd7bc3559a97b37263d,spanish,click here to respond,"no, only English or Spanish",no,2025-08-14_23h11.06.120,empathy_intonation_perc_control,2024.2.4,Linux x86_64,60.24096386,65bbdbd7bc3559a97b37263d,68817205a84113384fffdfe3,689ea4b46852676efe939740,,,,,,,,,,,,./stim/wavs/cuban_match_interrogative-total-yn_Manuela-vende-el-carro.wav,1,,,227.0149,228.9122,0,0,1.3668,,0,83,83,8,1,9,1,cuban,,,,,,,,,,,,,,,,,,,,,,,,,,,,,,,,,,,,,,,,,,,,,,,,,,,,,,,,
,,,,,,,,,65bbdbd7bc3559a97b37263d,spanish,click here to respond,"no, only English or Spanish",no,2025-08-14_23h11.06.120,empathy_intonation_perc_control,2024.2.4,Linux x86_64,60.24096386,65bbdbd7bc3559a97b37263d,68817205a84113384fffdfe3,689ea4b46852676efe939740,,,,,,,,,,,,./stim/wavs/castilian_match_declarative-broad-focus_Emilio-ama-la-marcha.wav,0,,,228.9134,231.6291,0,1,2.1865,,0,84,84,45,1,46,0,castilian,,,,,,,,,,,,,,,,,,,,,,,,,,,,,,,,,,,,,,,,,,,,,,,,,,,,,,,,
,,,,,,,,,65bbdbd7bc3559a97b37263d,spanish,click here to respond,"no, only English or Spanish",no,2025-08-14_23h11.06.120,empathy_intonation_perc_control,2024.2.4,Linux x86_64,60.24096386,65bbdbd7bc3559a97b37263d,68817205a84113384fffdfe3,689ea4b46852676efe939740,,,,,,,,,,,,./stim/wavs/mexican_match_declarative-broad-focus_Ana-lleva-el-abrigo.wav,0,,,231.6297,233.5459,0,1,1.3834,,0,85,85,56,1,57,0,mexican,,,,,,,,,,,,,,,,,,,,,,,,,,,,,,,,,,,,,,,,,,,,,,,,,,,,,,,,
,,,,,,,,,65bbdbd7bc3559a97b37263d,spanish,click here to respond,"no, only English or Spanish",no,2025-08-14_23h11.06.120,empathy_intonation_perc_control,2024.2.4,Linux x86_64,60.24096386,65bbdbd7bc3559a97b37263d,68817205a84113384fffdfe3,689ea4b46852676efe939740,,,,,,,,,,,,./stim/wavs/castilian_match_declarative-broad-focus_David-leia-el-libro.wav,0,,,233.5466,235.8131,0,1,1.7326,,0,86,86,44,1,45,0,castilian,,,,,,,,,,,,,,,,,,,,,,,,,,,,,,,,,,,,,,,,,,,,,,,,,,,,,,,,
,,,,,,,,,65bbdbd7bc3559a97b37263d,spanish,click here to respond,"no, only English or Spanish",no,2025-08-14_23h11.06.120,empathy_intonation_perc_control,2024.2.4,Linux x86_64,60.24096386,65bbdbd7bc3559a97b37263d,68817205a84113384fffdfe3,689ea4b46852676efe939740,,,,,,,,,,,,./stim/wavs/cuban_match_declarative-broad-focus_Daniel-iba-a-Bolivia.wav,0,,,235.8138,238.0297,0,1,1.6855,,0,87,87,51,1,52,0,cuban,,,,,,,,,,,,,,,,,,,,,,,,,,,,,,,,,,,,,,,,,,,,,,,,,,,,,,,,
,,,,,,,"Great! Now we will move on. The next task consists of about 60 trials, in each of which you will see a string of letters. 
  
  Your task is to decide whether this is a real Spanish word or not.", (press the spacebar to continue),65bbdbd7bc3559a97b37263d,spanish,click here to respond,"no, only English or Spanish",no,2025-08-14_23h11.06.120,empathy_intonation_perc_control,2024.2.4,Linux x86_64,60.24096386,65bbdbd7bc3559a97b37263d,68817205a84113384fffdfe3,689ea4b46852676efe939740,,,,,,,,,,,,,,,,,,,,,,,,,,,,,,238.0394,243.6473,0,0,0,0,1,,,,,,,,,,,,,,,,,,,,,,,,,,,,,,,,,,,,,,,,,,,,,,,,,
,,,,,,,"If you think it is an existing Spanish word, you type '1' (for 'REAL'), and if you think it is not an existing Spanish word, you type '0' (for 'FAKE').", (press the spacebar to continue),65bbdbd7bc3559a97b37263d,spanish,click here to respond,"no, only English or Spanish",no,2025-08-14_23h11.06.120,empathy_intonation_perc_control,2024.2.4,Linux x86_64,60.24096386,65bbdbd7bc3559a97b37263d,68817205a84113384fffdfe3,689ea4b46852676efe939740,,,,,,,,,,,,,,,,,,,,,,,,,,,,,,243.6497,250.1644,0,1,1,1,1,,,,,,,,,,,,,,,,,,,,,,,,,,,,,,,,,,,,,,,,,,,,,,,,,
,,,,,,,"If you are sure that the word exists, even though you don’t know its exact meaning, you may still respond '1' (REAL). 
  
  But if you are not sure if it is an existing word, you should respond '0' (FAKE).
  
  Let's do a practice round...", (press the spacebar to continue),65bbdbd7bc3559a97b37263d,spanish,click here to respond,"no, only English or Spanish",no,2025-08-14_23h11.06.120,empathy_intonation_perc_control,2024.2.4,Linux x86_64,60.24096386,65bbdbd7bc3559a97b37263d,68817205a84113384fffdfe3,689ea4b46852676efe939740,,,,,,,,,,,,,,,,,,,,,,,,,,,,,,250.1674,257.9156,0,2,2,2,1,,,,,,,,,,,,,,,,,,,,,,,,,,,,,,,,,,,,,,,,,,,,,,,,,
,,,,,,,,,65bbdbd7bc3559a97b37263d,spanish,click here to respond,"no, only English or Spanish",no,2025-08-14_23h11.06.120,empathy_intonation_perc_control,2024.2.4,Linux x86_64,60.24096386,65bbdbd7bc3559a97b37263d,68817205a84113384fffdfe3,689ea4b46852676efe939740,,,,,,,,,,,,,0,,,,,,,,,,,,,,,,,,,,,,,,257.9255,261.0159,1,0,2.5632,,261.0162,262.0164,0,0,0,0,1,0,depiste,REAL,FAKE,,,,,,,,,,,,,,,,,,,,,,,,,,,,,,,,
,,,,,,,,,65bbdbd7bc3559a97b37263d,spanish,click here to respond,"no, only English or Spanish",no,2025-08-14_23h11.06.120,empathy_intonation_perc_control,2024.2.4,Linux x86_64,60.24096386,65bbdbd7bc3559a97b37263d,68817205a84113384fffdfe3,689ea4b46852676efe939740,,,,,,,,,,,,,1,,,,,,,,,,,,,,,,,,,,,,,,262.0182,263.7659,1,1,1.2214,,263.7668,264.7659,0,1,1,1,1,0,sí,REAL,FAKE,,,,,,,,,,,,,,,,,,,,,,,,,,,,,,,,
,,,,,,,,,65bbdbd7bc3559a97b37263d,spanish,click here to respond,"no, only English or Spanish",no,2025-08-14_23h11.06.120,empathy_intonation_perc_control,2024.2.4,Linux x86_64,60.24096386,65bbdbd7bc3559a97b37263d,68817205a84113384fffdfe3,689ea4b46852676efe939740,,,,,,,,,,,,,0,,,,,,,,,,,,,,,,,,,,,,,,264.7672,266.933,0,1,1.631,,266.933,267.9328,0,2,2,2,1,0,coné,REAL,FAKE,,,,,,,,,,,,,,,,,,,,,,,,,,,,,,,,
,,,,,,,,,65bbdbd7bc3559a97b37263d,spanish,click here to respond,"no, only English or Spanish",no,2025-08-14_23h11.06.120,empathy_intonation_perc_control,2024.2.4,Linux x86_64,60.24096386,65bbdbd7bc3559a97b37263d,68817205a84113384fffdfe3,689ea4b46852676efe939740,,,,,,,,,,,,,0,,,,,,,,,,,,,,,,,,,,,,,,267.9346,270.45,0,1,1.9967,,270.4501,271.4511,0,3,3,3,1,0,calpar,REAL,FAKE,,,,,,,,,,,,,,,,,,,,,,,,,,,,,,,,
,,,,,,,,,65bbdbd7bc3559a97b37263d,spanish,click here to respond,"no, only English or Spanish",no,2025-08-14_23h11.06.120,empathy_intonation_perc_control,2024.2.4,Linux x86_64,60.24096386,65bbdbd7bc3559a97b37263d,68817205a84113384fffdfe3,689ea4b46852676efe939740,,,,,,,,,,,,,0,,,,,,,,,,,,,,,,,,,,,,,,271.4542,273.0521,0,1,1.0567,,273.0522,274.0506,0,4,4,4,1,0,joten,REAL,FAKE,,,,,,,,,,,,,,,,,,,,,,,,,,,,,,,,
,,,,,,,,,65bbdbd7bc3559a97b37263d,spanish,click here to respond,"no, only English or Spanish",no,2025-08-14_23h11.06.120,empathy_intonation_perc_control,2024.2.4,Linux x86_64,60.24096386,65bbdbd7bc3559a97b37263d,68817205a84113384fffdfe3,689ea4b46852676efe939740,,,,,,,,,,,,,1,,,,,,,,,,,,,,,,,,,,,,,,274.0533,276.6005,1,1,2.0102,,276.6006,277.6006,0,5,5,5,1,0,sacapuntas,REAL,FAKE,,,,,,,,,,,,,,,,,,,,,,,,,,,,,,,,
,,,,,,,,,65bbdbd7bc3559a97b37263d,spanish,click here to respond,"no, only English or Spanish",no,2025-08-14_23h11.06.120,empathy_intonation_perc_control,2024.2.4,Linux x86_64,60.24096386,65bbdbd7bc3559a97b37263d,68817205a84113384fffdfe3,689ea4b46852676efe939740,,,,,,,,,,,,,0,,,,,,,,,,,,,,,,,,,,,,,,277.6022,279.6013,0,1,1.464,,279.6014,280.602,0,6,6,6,1,0,priba,REAL,FAKE,,,,,,,,,,,,,,,,,,,,,,,,,,,,,,,,
,,,,,,,,,65bbdbd7bc3559a97b37263d,spanish,click here to respond,"no, only English or Spanish",no,2025-08-14_23h11.06.120,empathy_intonation_perc_control,2024.2.4,Linux x86_64,60.24096386,65bbdbd7bc3559a97b37263d,68817205a84113384fffdfe3,689ea4b46852676efe939740,,,,,,,,,,,,,0,,,,,,,,,,,,,,,,,,,,,,,,280.6051,282.5596,1,0,1.4236,,282.5619,283.5515,0,7,7,7,1,0,pelasula,REAL,FAKE,,,,,,,,,,,,,,,,,,,,,,,,,,,,,,,,
,,,,,,,,,65bbdbd7bc3559a97b37263d,spanish,click here to respond,"no, only English or Spanish",no,2025-08-14_23h11.06.120,empathy_intonation_perc_control,2024.2.4,Linux x86_64,60.24096386,65bbdbd7bc3559a97b37263d,68817205a84113384fffdfe3,689ea4b46852676efe939740,,,,,,,,,,,,,1,,,,,,,,,,,,,,,,,,,,,,,,283.553,285.1348,1,1,1.0518,,285.1356,286.1358,0,8,8,8,1,0,bien,REAL,FAKE,,,,,,,,,,,,,,,,,,,,,,,,,,,,,,,,
,,,,,,,,,65bbdbd7bc3559a97b37263d,spanish,click here to respond,"no, only English or Spanish",no,2025-08-14_23h11.06.120,empathy_intonation_perc_control,2024.2.4,Linux x86_64,60.24096386,65bbdbd7bc3559a97b37263d,68817205a84113384fffdfe3,689ea4b46852676efe939740,,,,,,,,,,,,,1,,,,,,,,,,,,,,,,,,,,,,,,286.1382,287.6202,1,1,0.9553,,287.6203,288.6205,0,9,9,9,1,0,casa,REAL,FAKE,,,,,,,,,,,,,,,,,,,,,,,,,,,,,,,,
,,,,,,,,,65bbdbd7bc3559a97b37263d,spanish,click here to respond,"no, only English or Spanish",no,2025-08-14_23h11.06.120,empathy_intonation_perc_control,2024.2.4,Linux x86_64,60.24096386,65bbdbd7bc3559a97b37263d,68817205a84113384fffdfe3,689ea4b46852676efe939740,,,,,,,,,,,,,0,,,,,,,,,,,,,,,,,,,,,,,,288.6237,290.2691,1,0,1.1181,,290.27,291.2703,0,10,10,10,1,0,lejo,REAL,FAKE,,,,,,,,,,,,,,,,,,,,,,,,,,,,,,,,
,,,,,,,,,65bbdbd7bc3559a97b37263d,spanish,click here to respond,"no, only English or Spanish",no,2025-08-14_23h11.06.120,empathy_intonation_perc_control,2024.2.4,Linux x86_64,60.24096386,65bbdbd7bc3559a97b37263d,68817205a84113384fffdfe3,689ea4b46852676efe939740,,,,,,,,,,,,,0,,,,,,,,,,,,,,,,,,,,,,,,291.2734,293.6207,0,1,1.8158,,293.6224,294.6201,0,11,11,11,1,0,pretantas,REAL,FAKE,,,,,,,,,,,,,,,,,,,,,,,,,,,,,,,,
,,,,,,,,,65bbdbd7bc3559a97b37263d,spanish,click here to respond,"no, only English or Spanish",no,2025-08-14_23h11.06.120,empathy_intonation_perc_control,2024.2.4,Linux x86_64,60.24096386,65bbdbd7bc3559a97b37263d,68817205a84113384fffdfe3,689ea4b46852676efe939740,,,,,,,,,,,,,,,,,,,,,,,,,,,,,,,,,,,,,,,,,,,,,,,,,,,,,,294.621,296.3239,,,,,,,,,,,,,,,,,,,,,,,,,,,,,,
,,,,,,,,,65bbdbd7bc3559a97b37263d,spanish,click here to respond,"no, only English or Spanish",no,2025-08-14_23h11.06.120,empathy_intonation_perc_control,2024.2.4,Linux x86_64,60.24096386,65bbdbd7bc3559a97b37263d,68817205a84113384fffdfe3,689ea4b46852676efe939740,,,,,,,,,,,,,0,,,,,,,,,,,,,,,,,,,,,,,,,,,,,,,,,,,,,17,floroso,,,,,296.3686,299.2726,0,1,2.3875,,0,0,0,16,1,REAL,FAKE,,,,,,,,,,,,,,,,,
,,,,,,,,,65bbdbd7bc3559a97b37263d,spanish,click here to respond,"no, only English or Spanish",no,2025-08-14_23h11.06.120,empathy_intonation_perc_control,2024.2.4,Linux x86_64,60.24096386,65bbdbd7bc3559a97b37263d,68817205a84113384fffdfe3,689ea4b46852676efe939740,,,,,,,,,,,,,0,,,,,,,,,,,,,,,,,,,,,,,,,,,,,,,,,,,,,23,lampera,,,,,299.2758,302.7373,0,1,2.9279,,0,1,1,22,1,REAL,FAKE,,,,,,,,,,,,,,,,,
,,,,,,,,,65bbdbd7bc3559a97b37263d,spanish,click here to respond,"no, only English or Spanish",no,2025-08-14_23h11.06.120,empathy_intonation_perc_control,2024.2.4,Linux x86_64,60.24096386,65bbdbd7bc3559a97b37263d,68817205a84113384fffdfe3,689ea4b46852676efe939740,,,,,,,,,,,,,1,,,,,,,,,,,,,,,,,,,,,,,,,,,,,,,,,,,,,46,martillo,,,,,302.74,304.7614,1,1,1.4866,,0,2,2,45,1,REAL,FAKE,,,,,,,,,,,,,,,,,
,,,,,,,,,65bbdbd7bc3559a97b37263d,spanish,click here to respond,"no, only English or Spanish",no,2025-08-14_23h11.06.120,empathy_intonation_perc_control,2024.2.4,Linux x86_64,60.24096386,65bbdbd7bc3559a97b37263d,68817205a84113384fffdfe3,689ea4b46852676efe939740,,,,,,,,,,,,,1,,,,,,,,,,,,,,,,,,,,,,,,,,,,,,,,,,,,,51,candado,,,,,304.7637,306.6044,0,0,1.3143,,0,3,3,50,1,REAL,FAKE,,,,,,,,,,,,,,,,,
,,,,,,,,,65bbdbd7bc3559a97b37263d,spanish,click here to respond,"no, only English or Spanish",no,2025-08-14_23h11.06.120,empathy_intonation_perc_control,2024.2.4,Linux x86_64,60.24096386,65bbdbd7bc3559a97b37263d,68817205a84113384fffdfe3,689ea4b46852676efe939740,,,,,,,,,,,,,1,,,,,,,,,,,,,,,,,,,,,,,,,,,,,,,,,,,,,48,ladrón,,,,,306.6078,308.1052,0,0,0.972,,0,4,4,47,1,REAL,FAKE,,,,,,,,,,,,,,,,,
,,,,,,,,,65bbdbd7bc3559a97b37263d,spanish,click here to respond,"no, only English or Spanish",no,2025-08-14_23h11.06.120,empathy_intonation_perc_control,2024.2.4,Linux x86_64,60.24096386,65bbdbd7bc3559a97b37263d,68817205a84113384fffdfe3,689ea4b46852676efe939740,,,,,,,,,,,,,1,,,,,,,,,,,,,,,,,,,,,,,,,,,,,,,,,,,,,56,musgo,,,,,308.1074,309.5538,0,0,0.9222,,0,5,5,55,1,REAL,FAKE,,,,,,,,,,,,,,,,,
,,,,,,,,,65bbdbd7bc3559a97b37263d,spanish,click here to respond,"no, only English or Spanish",no,2025-08-14_23h11.06.120,empathy_intonation_perc_control,2024.2.4,Linux x86_64,60.24096386,65bbdbd7bc3559a97b37263d,68817205a84113384fffdfe3,689ea4b46852676efe939740,,,,,,,,,,,,,0,,,,,,,,,,,,,,,,,,,,,,,,,,,,,,,,,,,,,79,tropaje,,,,,309.5558,310.9215,0,1,0.8305,,0,6,6,78,1,REAL,FAKE,,,,,,,,,,,,,,,,,
,,,,,,,,,65bbdbd7bc3559a97b37263d,spanish,click here to respond,"no, only English or Spanish",no,2025-08-14_23h11.06.120,empathy_intonation_perc_control,2024.2.4,Linux x86_64,60.24096386,65bbdbd7bc3559a97b37263d,68817205a84113384fffdfe3,689ea4b46852676efe939740,,,,,,,,,,,,,1,,,,,,,,,,,,,,,,,,,,,,,,,,,,,,,,,,,,,55,nevar,,,,,310.9239,312.222,0,0,0.7687,,0,7,7,54,1,REAL,FAKE,,,,,,,,,,,,,,,,,
,,,,,,,,,65bbdbd7bc3559a97b37263d,spanish,click here to respond,"no, only English or Spanish",no,2025-08-14_23h11.06.120,empathy_intonation_perc_control,2024.2.4,Linux x86_64,60.24096386,65bbdbd7bc3559a97b37263d,68817205a84113384fffdfe3,689ea4b46852676efe939740,,,,,,,,,,,,,1,,,,,,,,,,,,,,,,,,,,,,,,,,,,,,,,,,,,,64,orgulloso,,,,,312.2245,313.5221,0,0,0.7595,,0,8,8,63,1,REAL,FAKE,,,,,,,,,,,,,,,,,
,,,,,,,,,65bbdbd7bc3559a97b37263d,spanish,click here to respond,"no, only English or Spanish",no,2025-08-14_23h11.06.120,empathy_intonation_perc_control,2024.2.4,Linux x86_64,60.24096386,65bbdbd7bc3559a97b37263d,68817205a84113384fffdfe3,689ea4b46852676efe939740,,,,,,,,,,,,,1,,,,,,,,,,,,,,,,,,,,,,,,,,,,,,,,,,,,,38,estornudar,,,,,313.5251,314.8729,0,0,0.8184,,0,9,9,37,1,REAL,FAKE,,,,,,,,,,,,,,,,,
,,,,,,,,,65bbdbd7bc3559a97b37263d,spanish,click here to respond,"no, only English or Spanish",no,2025-08-14_23h11.06.120,empathy_intonation_perc_control,2024.2.4,Linux x86_64,60.24096386,65bbdbd7bc3559a97b37263d,68817205a84113384fffdfe3,689ea4b46852676efe939740,,,,,,,,,,,,,0,,,,,,,,,,,,,,,,,,,,,,,,,,,,,,,,,,,,,32,fatacidad,,,,,314.8756,316.3886,0,1,0.9766,,0,10,10,31,1,REAL,FAKE,,,,,,,,,,,,,,,,,
,,,,,,,,,65bbdbd7bc3559a97b37263d,spanish,click here to respond,"no, only English or Spanish",no,2025-08-14_23h11.06.120,empathy_intonation_perc_control,2024.2.4,Linux x86_64,60.24096386,65bbdbd7bc3559a97b37263d,68817205a84113384fffdfe3,689ea4b46852676efe939740,,,,,,,,,,,,,1,,,,,,,,,,,,,,,,,,,,,,,,,,,,,,,,,,,,,91,click the 1 key.,,,,,316.3917,318.7422,1,1,1.8192,,0,11,11,90,1,REAL,FAKE,,,,,,,,,,,,,,,,,
,,,,,,,,,65bbdbd7bc3559a97b37263d,spanish,click here to respond,"no, only English or Spanish",no,2025-08-14_23h11.06.120,empathy_intonation_perc_control,2024.2.4,Linux x86_64,60.24096386,65bbdbd7bc3559a97b37263d,68817205a84113384fffdfe3,689ea4b46852676efe939740,,,,,,,,,,,,,1,,,,,,,,,,,,,,,,,,,,,,,,,,,,,,,,,,,,,69,engatusar,,,,,318.7453,321.0721,0,0,1.7968,,0,12,12,68,1,REAL,FAKE,,,,,,,,,,,,,,,,,
,,,,,,,,,65bbdbd7bc3559a97b37263d,spanish,click here to respond,"no, only English or Spanish",no,2025-08-14_23h11.06.120,empathy_intonation_perc_control,2024.2.4,Linux x86_64,60.24096386,65bbdbd7bc3559a97b37263d,68817205a84113384fffdfe3,689ea4b46852676efe939740,,,,,,,,,,,,,1,,,,,,,,,,,,,,,,,,,,,,,,,,,,,,,,,,,,,78,frondoso,,,,,321.0745,322.3405,0,0,0.7327,,0,13,13,77,1,REAL,FAKE,,,,,,,,,,,,,,,,,
,,,,,,,,,65bbdbd7bc3559a97b37263d,spanish,click here to respond,"no, only English or Spanish",no,2025-08-14_23h11.06.120,empathy_intonation_perc_control,2024.2.4,Linux x86_64,60.24096386,65bbdbd7bc3559a97b37263d,68817205a84113384fffdfe3,689ea4b46852676efe939740,,,,,,,,,,,,,1,,,,,,,,,,,,,,,,,,,,,,,,,,,,,,,,,,,,,57,tacaño,,,,,322.3427,325.039,0,0,2.1572,,0,14,14,56,1,REAL,FAKE,,,,,,,,,,,,,,,,,
,,,,,,,,,65bbdbd7bc3559a97b37263d,spanish,click here to respond,"no, only English or Spanish",no,2025-08-14_23h11.06.120,empathy_intonation_perc_control,2024.2.4,Linux x86_64,60.24096386,65bbdbd7bc3559a97b37263d,68817205a84113384fffdfe3,689ea4b46852676efe939740,,,,,,,,,,,,,0,,,,,,,,,,,,,,,,,,,,,,,,,,,,,,,,,,,,,58,plaudir,,,,,325.0402,326.6228,0,1,1.0484,,0,15,15,57,1,REAL,FAKE,,,,,,,,,,,,,,,,,
,,,,,,,,,65bbdbd7bc3559a97b37263d,spanish,click here to respond,"no, only English or Spanish",no,2025-08-14_23h11.06.120,empathy_intonation_perc_control,2024.2.4,Linux x86_64,60.24096386,65bbdbd7bc3559a97b37263d,68817205a84113384fffdfe3,689ea4b46852676efe939740,,,,,,,,,,,,,1,,,,,,,,,,,,,,,,,,,,,,,,,,,,,,,,,,,,,37,granuja,,,,,326.6249,328.5724,1,1,1.4189,,0,16,16,36,1,REAL,FAKE,,,,,,,,,,,,,,,,,
,,,,,,,,,65bbdbd7bc3559a97b37263d,spanish,click here to respond,"no, only English or Spanish",no,2025-08-14_23h11.06.120,empathy_intonation_perc_control,2024.2.4,Linux x86_64,60.24096386,65bbdbd7bc3559a97b37263d,68817205a84113384fffdfe3,689ea4b46852676efe939740,,,,,,,,,,,,,1,,,,,,,,,,,,,,,,,,,,,,,,,,,,,,,,,,,,,86,barato,,,,,328.5736,329.9403,1,1,0.8497,,0,17,17,85,1,REAL,FAKE,,,,,,,,,,,,,,,,,
,,,,,,,,,65bbdbd7bc3559a97b37263d,spanish,click here to respond,"no, only English or Spanish",no,2025-08-14_23h11.06.120,empathy_intonation_perc_control,2024.2.4,Linux x86_64,60.24096386,65bbdbd7bc3559a97b37263d,68817205a84113384fffdfe3,689ea4b46852676efe939740,,,,,,,,,,,,,1,,,,,,,,,,,,,,,,,,,,,,,,,,,,,,,,,,,,,31,pandilla,,,,,329.943,333.0236,1,1,2.5481,,0,18,18,30,1,REAL,FAKE,,,,,,,,,,,,,,,,,
,,,,,,,,,65bbdbd7bc3559a97b37263d,spanish,click here to respond,"no, only English or Spanish",no,2025-08-14_23h11.06.120,empathy_intonation_perc_control,2024.2.4,Linux x86_64,60.24096386,65bbdbd7bc3559a97b37263d,68817205a84113384fffdfe3,689ea4b46852676efe939740,,,,,,,,,,,,,1,,,,,,,,,,,,,,,,,,,,,,,,,,,,,,,,,,,,,3,pulmones,,,,,333.0261,334.8231,0,0,1.2663,,0,19,19,2,1,REAL,FAKE,,,,,,,,,,,,,,,,,
,,,,,,,,,65bbdbd7bc3559a97b37263d,spanish,click here to respond,"no, only English or Spanish",no,2025-08-14_23h11.06.120,empathy_intonation_perc_control,2024.2.4,Linux x86_64,60.24096386,65bbdbd7bc3559a97b37263d,68817205a84113384fffdfe3,689ea4b46852676efe939740,,,,,,,,,,,,,1,,,,,,,,,,,,,,,,,,,,,,,,,,,,,,,,,,,,,59,besar,,,,,334.8243,336.5403,1,1,1.1926,,0,20,20,58,1,REAL,FAKE,,,,,,,,,,,,,,,,,
,,,,,,,,,65bbdbd7bc3559a97b37263d,spanish,click here to respond,"no, only English or Spanish",no,2025-08-14_23h11.06.120,empathy_intonation_perc_control,2024.2.4,Linux x86_64,60.24096386,65bbdbd7bc3559a97b37263d,68817205a84113384fffdfe3,689ea4b46852676efe939740,,,,,,,,,,,,,1,,,,,,,,,,,,,,,,,,,,,,,,,,,,,,,,,,,,,90,clavel,,,,,336.5419,338.0419,0,0,0.9644,,0,21,21,89,1,REAL,FAKE,,,,,,,,,,,,,,,,,
,,,,,,,,,65bbdbd7bc3559a97b37263d,spanish,click here to respond,"no, only English or Spanish",no,2025-08-14_23h11.06.120,empathy_intonation_perc_control,2024.2.4,Linux x86_64,60.24096386,65bbdbd7bc3559a97b37263d,68817205a84113384fffdfe3,689ea4b46852676efe939740,,,,,,,,,,,,,1,,,,,,,,,,,,,,,,,,,,,,,,,,,,,,,,,,,,,61,seda,,,,,338.0441,339.4754,0,0,0.8999,,0,22,22,60,1,REAL,FAKE,,,,,,,,,,,,,,,,,
,,,,,,,,,65bbdbd7bc3559a97b37263d,spanish,click here to respond,"no, only English or Spanish",no,2025-08-14_23h11.06.120,empathy_intonation_perc_control,2024.2.4,Linux x86_64,60.24096386,65bbdbd7bc3559a97b37263d,68817205a84113384fffdfe3,689ea4b46852676efe939740,,,,,,,,,,,,,1,,,,,,,,,,,,,,,,,,,,,,,,,,,,,,,,,,,,,39,torpe,,,,,339.4784,340.7089,0,0,0.696,,0,23,23,38,1,REAL,FAKE,,,,,,,,,,,,,,,,,
,,,,,,,,,65bbdbd7bc3559a97b37263d,spanish,click here to respond,"no, only English or Spanish",no,2025-08-14_23h11.06.120,empathy_intonation_perc_control,2024.2.4,Linux x86_64,60.24096386,65bbdbd7bc3559a97b37263d,68817205a84113384fffdfe3,689ea4b46852676efe939740,,,,,,,,,,,,,1,,,,,,,,,,,,,,,,,,,,,,,,,,,,,,,,,,,,,89,prisa,,,,,340.7116,342.3409,0,0,1.0943,,0,24,24,88,1,REAL,FAKE,,,,,,,,,,,,,,,,,
,,,,,,,,,65bbdbd7bc3559a97b37263d,spanish,click here to respond,"no, only English or Spanish",no,2025-08-14_23h11.06.120,empathy_intonation_perc_control,2024.2.4,Linux x86_64,60.24096386,65bbdbd7bc3559a97b37263d,68817205a84113384fffdfe3,689ea4b46852676efe939740,,,,,,,,,,,,,1,,,,,,,,,,,,,,,,,,,,,,,,,,,,,,,,,,,,,73,hervidor,,,,,342.3421,343.6075,0,0,0.727,,0,25,25,72,1,REAL,FAKE,,,,,,,,,,,,,,,,,
,,,,,,,,,65bbdbd7bc3559a97b37263d,spanish,click here to respond,"no, only English or Spanish",no,2025-08-14_23h11.06.120,empathy_intonation_perc_control,2024.2.4,Linux x86_64,60.24096386,65bbdbd7bc3559a97b37263d,68817205a84113384fffdfe3,689ea4b46852676efe939740,,,,,,,,,,,,,1,,,,,,,,,,,,,,,,,,,,,,,,,,,,,,,,,,,,,7,pésimo,,,,,343.6088,346.7244,1,1,2.5864,,0,26,26,6,1,REAL,FAKE,,,,,,,,,,,,,,,,,
,,,,,,,,,65bbdbd7bc3559a97b37263d,spanish,click here to respond,"no, only English or Spanish",no,2025-08-14_23h11.06.120,empathy_intonation_perc_control,2024.2.4,Linux x86_64,60.24096386,65bbdbd7bc3559a97b37263d,68817205a84113384fffdfe3,689ea4b46852676efe939740,,,,,,,,,,,,,1,,,,,,,,,,,,,,,,,,,,,,,,,,,,,,,,,,,,,34,aviso,,,,,346.7259,348.0915,1,1,0.841,,0,27,27,33,1,REAL,FAKE,,,,,,,,,,,,,,,,,
,,,,,,,,,65bbdbd7bc3559a97b37263d,spanish,click here to respond,"no, only English or Spanish",no,2025-08-14_23h11.06.120,empathy_intonation_perc_control,2024.2.4,Linux x86_64,60.24096386,65bbdbd7bc3559a97b37263d,68817205a84113384fffdfe3,689ea4b46852676efe939740,,,,,,,,,,,,,1,,,,,,,,,,,,,,,,,,,,,,,,,,,,,,,,,,,,,77,tiburón,,,,,348.0941,350.1596,1,1,1.5331,,0,28,28,76,1,REAL,FAKE,,,,,,,,,,,,,,,,,
,,,,,,,,,65bbdbd7bc3559a97b37263d,spanish,click here to respond,"no, only English or Spanish",no,2025-08-14_23h11.06.120,empathy_intonation_perc_control,2024.2.4,Linux x86_64,60.24096386,65bbdbd7bc3559a97b37263d,68817205a84113384fffdfe3,689ea4b46852676efe939740,,,,,,,,,,,,,1,,,,,,,,,,,,,,,,,,,,,,,,,,,,,,,,,,,,,60,matar,,,,,350.1622,352.1931,0,0,1.5022,,0,29,29,59,1,REAL,FAKE,,,,,,,,,,,,,,,,,
,,,,,,,,,65bbdbd7bc3559a97b37263d,spanish,click here to respond,"no, only English or Spanish",no,2025-08-14_23h11.06.120,empathy_intonation_perc_control,2024.2.4,Linux x86_64,60.24096386,65bbdbd7bc3559a97b37263d,68817205a84113384fffdfe3,689ea4b46852676efe939740,,,,,,,,,,,,,1,,,,,,,,,,,,,,,,,,,,,,,,,,,,,,,,,,,,,2,pellizcar,,,,,352.1953,354.9932,0,0,2.2698,,0,30,30,1,1,REAL,FAKE,,,,,,,,,,,,,,,,,
,,,,,,,,,65bbdbd7bc3559a97b37263d,spanish,click here to respond,"no, only English or Spanish",no,2025-08-14_23h11.06.120,empathy_intonation_perc_control,2024.2.4,Linux x86_64,60.24096386,65bbdbd7bc3559a97b37263d,68817205a84113384fffdfe3,689ea4b46852676efe939740,,,,,,,,,,,,,1,,,,,,,,,,,,,,,,,,,,,,,,,,,,,,,,,,,,,5,zapato,,,,,354.9944,356.8755,1,1,1.3458,,0,31,31,4,1,REAL,FAKE,,,,,,,,,,,,,,,,,
,,,,,,,,,65bbdbd7bc3559a97b37263d,spanish,click here to respond,"no, only English or Spanish",no,2025-08-14_23h11.06.120,empathy_intonation_perc_control,2024.2.4,Linux x86_64,60.24096386,65bbdbd7bc3559a97b37263d,68817205a84113384fffdfe3,689ea4b46852676efe939740,,,,,,,,,,,,,1,,,,,,,,,,,,,,,,,,,,,,,,,,,,,,,,,,,,,45,jilguero,,,,,356.8767,358.9758,0,0,1.5709,,0,32,32,44,1,REAL,FAKE,,,,,,,,,,,,,,,,,
,,,,,,,,,65bbdbd7bc3559a97b37263d,spanish,click here to respond,"no, only English or Spanish",no,2025-08-14_23h11.06.120,empathy_intonation_perc_control,2024.2.4,Linux x86_64,60.24096386,65bbdbd7bc3559a97b37263d,68817205a84113384fffdfe3,689ea4b46852676efe939740,,,,,,,,,,,,,0,,,,,,,,,,,,,,,,,,,,,,,,,,,,,,,,,,,,,82,empirador,,,,,358.9771,361.1766,1,0,1.6793,,0,33,33,81,1,REAL,FAKE,,,,,,,,,,,,,,,,,
,,,,,,,,,65bbdbd7bc3559a97b37263d,spanish,click here to respond,"no, only English or Spanish",no,2025-08-14_23h11.06.120,empathy_intonation_perc_control,2024.2.4,Linux x86_64,60.24096386,65bbdbd7bc3559a97b37263d,68817205a84113384fffdfe3,689ea4b46852676efe939740,,,,,,,,,,,,,1,,,,,,,,,,,,,,,,,,,,,,,,,,,,,,,,,,,,,28,merodear,,,,,361.1794,362.693,0,0,0.9807,,0,34,34,27,1,REAL,FAKE,,,,,,,,,,,,,,,,,
,,,,,,,,,65bbdbd7bc3559a97b37263d,spanish,click here to respond,"no, only English or Spanish",no,2025-08-14_23h11.06.120,empathy_intonation_perc_control,2024.2.4,Linux x86_64,60.24096386,65bbdbd7bc3559a97b37263d,68817205a84113384fffdfe3,689ea4b46852676efe939740,,,,,,,,,,,,,0,,,,,,,,,,,,,,,,,,,,,,,,,,,,,,,,,,,,,72,pemición,,,,,362.6943,365.0443,0,1,1.8154,,0,35,35,71,1,REAL,FAKE,,,,,,,,,,,,,,,,,
,,,,,,,,,65bbdbd7bc3559a97b37263d,spanish,click here to respond,"no, only English or Spanish",no,2025-08-14_23h11.06.120,empathy_intonation_perc_control,2024.2.4,Linux x86_64,60.24096386,65bbdbd7bc3559a97b37263d,68817205a84113384fffdfe3,689ea4b46852676efe939740,,,,,,,,,,,,,1,,,,,,,,,,,,,,,,,,,,,,,,,,,,,,,,,,,,,71,polvoriento,,,,,365.0478,366.3273,0,0,0.744,,0,36,36,70,1,REAL,FAKE,,,,,,,,,,,,,,,,,
,,,,,,,,,65bbdbd7bc3559a97b37263d,spanish,click here to respond,"no, only English or Spanish",no,2025-08-14_23h11.06.120,empathy_intonation_perc_control,2024.2.4,Linux x86_64,60.24096386,65bbdbd7bc3559a97b37263d,68817205a84113384fffdfe3,689ea4b46852676efe939740,,,,,,,,,,,,,0,,,,,,,,,,,,,,,,,,,,,,,,,,,,,,,,,,,,,35,rompido,,,,,366.3297,367.5764,0,1,0.7161,,0,37,37,34,1,REAL,FAKE,,,,,,,,,,,,,,,,,
,,,,,,,,,65bbdbd7bc3559a97b37263d,spanish,click here to respond,"no, only English or Spanish",no,2025-08-14_23h11.06.120,empathy_intonation_perc_control,2024.2.4,Linux x86_64,60.24096386,65bbdbd7bc3559a97b37263d,68817205a84113384fffdfe3,689ea4b46852676efe939740,,,,,,,,,,,,,0,,,,,,,,,,,,,,,,,,,,,,,,,,,,,,,,,,,,,84,escuto,,,,,367.5776,368.7764,0,1,0.6786,,0,38,38,83,1,REAL,FAKE,,,,,,,,,,,,,,,,,
,,,,,,,,,65bbdbd7bc3559a97b37263d,spanish,click here to respond,"no, only English or Spanish",no,2025-08-14_23h11.06.120,empathy_intonation_perc_control,2024.2.4,Linux x86_64,60.24096386,65bbdbd7bc3559a97b37263d,68817205a84113384fffdfe3,689ea4b46852676efe939740,,,,,,,,,,,,,0,,,,,,,,,,,,,,,,,,,,,,,,,,,,,,,,,,,,,29,decar,,,,,368.7778,370.3776,0,1,1.0847,,0,39,39,28,1,REAL,FAKE,,,,,,,,,,,,,,,,,
,,,,,,,,,65bbdbd7bc3559a97b37263d,spanish,click here to respond,"no, only English or Spanish",no,2025-08-14_23h11.06.120,empathy_intonation_perc_control,2024.2.4,Linux x86_64,60.24096386,65bbdbd7bc3559a97b37263d,68817205a84113384fffdfe3,689ea4b46852676efe939740,,,,,,,,,,,,,1,,,,,,,,,,,,,,,,,,,,,,,,,,,,,,,,,,,,,43,canela,,,,,370.3801,371.6438,0,0,0.7302,,0,40,40,42,1,REAL,FAKE,,,,,,,,,,,,,,,,,
,,,,,,,,,65bbdbd7bc3559a97b37263d,spanish,click here to respond,"no, only English or Spanish",no,2025-08-14_23h11.06.120,empathy_intonation_perc_control,2024.2.4,Linux x86_64,60.24096386,65bbdbd7bc3559a97b37263d,68817205a84113384fffdfe3,689ea4b46852676efe939740,,,,,,,,,,,,,0,,,,,,,,,,,,,,,,,,,,,,,,,,,,,,,,,,,,,19,brecedad,,,,,371.645,372.8615,0,1,0.6842,,0,41,41,18,1,REAL,FAKE,,,,,,,,,,,,,,,,,
,,,,,,,,,65bbdbd7bc3559a97b37263d,spanish,click here to respond,"no, only English or Spanish",no,2025-08-14_23h11.06.120,empathy_intonation_perc_control,2024.2.4,Linux x86_64,60.24096386,65bbdbd7bc3559a97b37263d,68817205a84113384fffdfe3,689ea4b46852676efe939740,,,,,,,,,,,,,1,,,,,,,,,,,,,,,,,,,,,,,,,,,,,,,,,,,,,54,fomentar,,,,,372.864,375.0115,1,1,1.6144,,0,42,42,53,1,REAL,FAKE,,,,,,,,,,,,,,,,,
,,,,,,,,,65bbdbd7bc3559a97b37263d,spanish,click here to respond,"no, only English or Spanish",no,2025-08-14_23h11.06.120,empathy_intonation_perc_control,2024.2.4,Linux x86_64,60.24096386,65bbdbd7bc3559a97b37263d,68817205a84113384fffdfe3,689ea4b46852676efe939740,,,,,,,,,,,,,1,,,,,,,,,,,,,,,,,,,,,,,,,,,,,,,,,,,,,52,camisa,,,,,375.0148,376.3315,1,1,0.7818,,0,43,43,51,1,REAL,FAKE,,,,,,,,,,,,,,,,,
,,,,,,,,,65bbdbd7bc3559a97b37263d,spanish,click here to respond,"no, only English or Spanish",no,2025-08-14_23h11.06.120,empathy_intonation_perc_control,2024.2.4,Linux x86_64,60.24096386,65bbdbd7bc3559a97b37263d,68817205a84113384fffdfe3,689ea4b46852676efe939740,,,,,,,,,,,,,0,,,,,,,,,,,,,,,,,,,,,,,,,,,,,,,,,,,,,92,click the 0 key.,,,,,376.3358,378.3283,0,1,1.4612,,0,44,44,91,1,REAL,FAKE,,,,,,,,,,,,,,,,,
,,,,,,,,,65bbdbd7bc3559a97b37263d,spanish,click here to respond,"no, only English or Spanish",no,2025-08-14_23h11.06.120,empathy_intonation_perc_control,2024.2.4,Linux x86_64,60.24096386,65bbdbd7bc3559a97b37263d,68817205a84113384fffdfe3,689ea4b46852676efe939740,,,,,,,,,,,,,1,,,,,,,,,,,,,,,,,,,,,,,,,,,,,,,,,,,,,9,hacha,,,,,378.331,381.4617,0,0,2.5952,,0,45,45,8,1,REAL,FAKE,,,,,,,,,,,,,,,,,
,,,,,,,,,65bbdbd7bc3559a97b37263d,spanish,click here to respond,"no, only English or Spanish",no,2025-08-14_23h11.06.120,empathy_intonation_perc_control,2024.2.4,Linux x86_64,60.24096386,65bbdbd7bc3559a97b37263d,68817205a84113384fffdfe3,689ea4b46852676efe939740,,,,,,,,,,,,,1,,,,,,,,,,,,,,,,,,,,,,,,,,,,,,,,,,,,,12,asesinato,,,,,381.4629,382.9288,0,0,0.9336,,0,46,46,11,1,REAL,FAKE,,,,,,,,,,,,,,,,,
,,,,,,,,,65bbdbd7bc3559a97b37263d,spanish,click here to respond,"no, only English or Spanish",no,2025-08-14_23h11.06.120,empathy_intonation_perc_control,2024.2.4,Linux x86_64,60.24096386,65bbdbd7bc3559a97b37263d,68817205a84113384fffdfe3,689ea4b46852676efe939740,,,,,,,,,,,,,1,,,,,,,,,,,,,,,,,,,,,,,,,,,,,,,,,,,,,85,laúd,,,,,382.932,384.2145,0,0,0.756,,0,47,47,84,1,REAL,FAKE,,,,,,,,,,,,,,,,,
,,,,,,,,,65bbdbd7bc3559a97b37263d,spanish,click here to respond,"no, only English or Spanish",no,2025-08-14_23h11.06.120,empathy_intonation_perc_control,2024.2.4,Linux x86_64,60.24096386,65bbdbd7bc3559a97b37263d,68817205a84113384fffdfe3,689ea4b46852676efe939740,,,,,,,,,,,,,1,,,,,,,,,,,,,,,,,,,,,,,,,,,,,,,,,,,,,80,hormiga,,,,,384.218,386.4461,0,0,1.7007,,0,48,48,79,1,REAL,FAKE,,,,,,,,,,,,,,,,,
,,,,,,,,,65bbdbd7bc3559a97b37263d,spanish,click here to respond,"no, only English or Spanish",no,2025-08-14_23h11.06.120,empathy_intonation_perc_control,2024.2.4,Linux x86_64,60.24096386,65bbdbd7bc3559a97b37263d,68817205a84113384fffdfe3,689ea4b46852676efe939740,,,,,,,,,,,,,1,,,,,,,,,,,,,,,,,,,,,,,,,,,,,,,,,,,,,44,cuchara,,,,,386.4494,387.9323,1,1,0.9558,,0,49,49,43,1,REAL,FAKE,,,,,,,,,,,,,,,,,
,,,,,,,,,65bbdbd7bc3559a97b37263d,spanish,click here to respond,"no, only English or Spanish",no,2025-08-14_23h11.06.120,empathy_intonation_perc_control,2024.2.4,Linux x86_64,60.24096386,65bbdbd7bc3559a97b37263d,68817205a84113384fffdfe3,689ea4b46852676efe939740,,,,,,,,,,,,,0,,,,,,,,,,,,,,,,,,,,,,,,,,,,,,,,,,,,,21,capillo,,,,,387.937,389.399,1,0,0.9343,,0,50,50,20,1,REAL,FAKE,,,,,,,,,,,,,,,,,
,,,,,,,,,65bbdbd7bc3559a97b37263d,spanish,click here to respond,"no, only English or Spanish",no,2025-08-14_23h11.06.120,empathy_intonation_perc_control,2024.2.4,Linux x86_64,60.24096386,65bbdbd7bc3559a97b37263d,68817205a84113384fffdfe3,689ea4b46852676efe939740,,,,,,,,,,,,,1,,,,,,,,,,,,,,,,,,,,,,,,,,,,,,,,,,,,,20,ávido,,,,,389.4014,392.1462,1,1,2.218,,0,51,51,19,1,REAL,FAKE,,,,,,,,,,,,,,,,,
,,,,,,,,,65bbdbd7bc3559a97b37263d,spanish,click here to respond,"no, only English or Spanish",no,2025-08-14_23h11.06.120,empathy_intonation_perc_control,2024.2.4,Linux x86_64,60.24096386,65bbdbd7bc3559a97b37263d,68817205a84113384fffdfe3,689ea4b46852676efe939740,,,,,,,,,,,,,1,,,,,,,,,,,,,,,,,,,,,,,,,,,,,,,,,,,,,65,bizcocho,,,,,392.1475,393.6128,0,0,0.9263,,0,52,52,64,1,REAL,FAKE,,,,,,,,,,,,,,,,,
,,,,,,,,,65bbdbd7bc3559a97b37263d,spanish,click here to respond,"no, only English or Spanish",no,2025-08-14_23h11.06.120,empathy_intonation_perc_control,2024.2.4,Linux x86_64,60.24096386,65bbdbd7bc3559a97b37263d,68817205a84113384fffdfe3,689ea4b46852676efe939740,,,,,,,,,,,,,0,,,,,,,,,,,,,,,,,,,,,,,,,,,,,,,,,,,,,18,arsa,,,,,393.6143,395.0645,0,1,0.9135,,0,53,53,17,1,REAL,FAKE,,,,,,,,,,,,,,,,,
,,,,,,,,,65bbdbd7bc3559a97b37263d,spanish,click here to respond,"no, only English or Spanish",no,2025-08-14_23h11.06.120,empathy_intonation_perc_control,2024.2.4,Linux x86_64,60.24096386,65bbdbd7bc3559a97b37263d,68817205a84113384fffdfe3,689ea4b46852676efe939740,,,,,,,,,,,,,1,,,,,,,,,,,,,,,,,,,,,,,,,,,,,,,,,,,,,36,loro,,,,,395.067,396.3301,0,0,0.7329,,0,54,54,35,1,REAL,FAKE,,,,,,,,,,,,,,,,,
,,,,,,,,,65bbdbd7bc3559a97b37263d,spanish,click here to respond,"no, only English or Spanish",no,2025-08-14_23h11.06.120,empathy_intonation_perc_control,2024.2.4,Linux x86_64,60.24096386,65bbdbd7bc3559a97b37263d,68817205a84113384fffdfe3,689ea4b46852676efe939740,,,,,,,,,,,,,1,,,,,,,,,,,,,,,,,,,,,,,,,,,,,,,,,,,,,75,yacer,,,,,396.3322,397.4979,0,0,0.6317,,0,55,55,74,1,REAL,FAKE,,,,,,,,,,,,,,,,,
,,,,,,,,,65bbdbd7bc3559a97b37263d,spanish,click here to respond,"no, only English or Spanish",no,2025-08-14_23h11.06.120,empathy_intonation_perc_control,2024.2.4,Linux x86_64,60.24096386,65bbdbd7bc3559a97b37263d,68817205a84113384fffdfe3,689ea4b46852676efe939740,,,,,,,,,,,,,0,,,,,,,,,,,,,,,,,,,,,,,,,,,,,,,,,,,,,8,cadeña,,,,,397.5009,398.9807,0,1,0.9487,,0,56,56,7,1,REAL,FAKE,,,,,,,,,,,,,,,,,
,,,,,,,,,65bbdbd7bc3559a97b37263d,spanish,click here to respond,"no, only English or Spanish",no,2025-08-14_23h11.06.120,empathy_intonation_perc_control,2024.2.4,Linux x86_64,60.24096386,65bbdbd7bc3559a97b37263d,68817205a84113384fffdfe3,689ea4b46852676efe939740,,,,,,,,,,,,,0,,,,,,,,,,,,,,,,,,,,,,,,,,,,,,,,,,,,,74,cintro,,,,,398.9847,400.9303,1,0,1.4137,,0,57,57,73,1,REAL,FAKE,,,,,,,,,,,,,,,,,
,,,,,,,,,65bbdbd7bc3559a97b37263d,spanish,click here to respond,"no, only English or Spanish",no,2025-08-14_23h11.06.120,empathy_intonation_perc_control,2024.2.4,Linux x86_64,60.24096386,65bbdbd7bc3559a97b37263d,68817205a84113384fffdfe3,689ea4b46852676efe939740,,,,,,,,,,,,,1,,,,,,,,,,,,,,,,,,,,,,,,,,,,,,,,,,,,,22,lacayo,,,,,400.9317,402.5971,0,0,1.1312,,0,58,58,21,1,REAL,FAKE,,,,,,,,,,,,,,,,,
,,,,,,,,,65bbdbd7bc3559a97b37263d,spanish,click here to respond,"no, only English or Spanish",no,2025-08-14_23h11.06.120,empathy_intonation_perc_control,2024.2.4,Linux x86_64,60.24096386,65bbdbd7bc3559a97b37263d,68817205a84113384fffdfe3,689ea4b46852676efe939740,,,,,,,,,,,,,0,,,,,,,,,,,,,,,,,,,,,,,,,,,,,,,,,,,,,70,temblo,,,,,402.5994,403.8638,0,1,0.7247,,0,59,59,69,1,REAL,FAKE,,,,,,,,,,,,,,,,,
,,,,,,,,,65bbdbd7bc3559a97b37263d,spanish,click here to respond,"no, only English or Spanish",no,2025-08-14_23h11.06.120,empathy_intonation_perc_control,2024.2.4,Linux x86_64,60.24096386,65bbdbd7bc3559a97b37263d,68817205a84113384fffdfe3,689ea4b46852676efe939740,,,,,,,,,,,,,0,,,,,,,,,,,,,,,,,,,,,,,,,,,,,,,,,,,,,30,alardio,,,,,403.8651,406.4307,0,1,2.0297,,0,60,60,29,1,REAL,FAKE,,,,,,,,,,,,,,,,,
,,,,,,,,,65bbdbd7bc3559a97b37263d,spanish,click here to respond,"no, only English or Spanish",no,2025-08-14_23h11.06.120,empathy_intonation_perc_control,2024.2.4,Linux x86_64,60.24096386,65bbdbd7bc3559a97b37263d,68817205a84113384fffdfe3,689ea4b46852676efe939740,,,,,,,,,,,,,1,,,,,,,,,,,,,,,,,,,,,,,,,,,,,,,,,,,,,49,ganar,,,,,406.4318,407.8163,0,0,0.8538,,0,61,61,48,1,REAL,FAKE,,,,,,,,,,,,,,,,,
,,,,,,,,,65bbdbd7bc3559a97b37263d,spanish,click here to respond,"no, only English or Spanish",no,2025-08-14_23h11.06.120,empathy_intonation_perc_control,2024.2.4,Linux x86_64,60.24096386,65bbdbd7bc3559a97b37263d,68817205a84113384fffdfe3,689ea4b46852676efe939740,,,,,,,,,,,,,1,,,,,,,,,,,,,,,,,,,,,,,,,,,,,,,,,,,,,88,acantilado,,,,,407.8181,409.1312,0,0,0.7802,,0,62,62,87,1,REAL,FAKE,,,,,,,,,,,,,,,,,
,,,,,,,,,65bbdbd7bc3559a97b37263d,spanish,click here to respond,"no, only English or Spanish",no,2025-08-14_23h11.06.120,empathy_intonation_perc_control,2024.2.4,Linux x86_64,60.24096386,65bbdbd7bc3559a97b37263d,68817205a84113384fffdfe3,689ea4b46852676efe939740,,,,,,,,,,,,,1,,,,,,,,,,,,,,,,,,,,,,,,,,,,,,,,,,,,,15,regar,,,,,409.1323,410.4477,0,0,0.7819,,0,63,63,14,1,REAL,FAKE,,,,,,,,,,,,,,,,,
,,,,,,,,,65bbdbd7bc3559a97b37263d,spanish,click here to respond,"no, only English or Spanish",no,2025-08-14_23h11.06.120,empathy_intonation_perc_control,2024.2.4,Linux x86_64,60.24096386,65bbdbd7bc3559a97b37263d,68817205a84113384fffdfe3,689ea4b46852676efe939740,,,,,,,,,,,,,1,,,,,,,,,,,,,,,,,,,,,,,,,,,,,,,,,,,,,6,tergiversar,,,,,410.4489,412.0683,0,0,1.0903,,0,64,64,5,1,REAL,FAKE,,,,,,,,,,,,,,,,,
,,,,,,,,,65bbdbd7bc3559a97b37263d,spanish,click here to respond,"no, only English or Spanish",no,2025-08-14_23h11.06.120,empathy_intonation_perc_control,2024.2.4,Linux x86_64,60.24096386,65bbdbd7bc3559a97b37263d,68817205a84113384fffdfe3,689ea4b46852676efe939740,,,,,,,,,,,,,1,,,,,,,,,,,,,,,,,,,,,,,,,,,,,,,,,,,,,83,guante,,,,,412.0711,415.1522,0,0,2.546,,0,65,65,82,1,REAL,FAKE,,,,,,,,,,,,,,,,,
,,,,,,,,,65bbdbd7bc3559a97b37263d,spanish,click here to respond,"no, only English or Spanish",no,2025-08-14_23h11.06.120,empathy_intonation_perc_control,2024.2.4,Linux x86_64,60.24096386,65bbdbd7bc3559a97b37263d,68817205a84113384fffdfe3,689ea4b46852676efe939740,,,,,,,,,,,,,1,,,,,,,,,,,,,,,,,,,,,,,,,,,,,,,,,,,,,11,cenefa,,,,,415.1556,416.3152,0,0,0.6298,,0,66,66,10,1,REAL,FAKE,,,,,,,,,,,,,,,,,
,,,,,,,,,65bbdbd7bc3559a97b37263d,spanish,click here to respond,"no, only English or Spanish",no,2025-08-14_23h11.06.120,empathy_intonation_perc_control,2024.2.4,Linux x86_64,60.24096386,65bbdbd7bc3559a97b37263d,68817205a84113384fffdfe3,689ea4b46852676efe939740,,,,,,,,,,,,,0,,,,,,,,,,,,,,,,,,,,,,,,,,,,,,,,,,,,,10,antar,,,,,416.3164,417.9993,1,0,1.166,,0,67,67,9,1,REAL,FAKE,,,,,,,,,,,,,,,,,
,,,,,,,,,65bbdbd7bc3559a97b37263d,spanish,click here to respond,"no, only English or Spanish",no,2025-08-14_23h11.06.120,empathy_intonation_perc_control,2024.2.4,Linux x86_64,60.24096386,65bbdbd7bc3559a97b37263d,68817205a84113384fffdfe3,689ea4b46852676efe939740,,,,,,,,,,,,,0,,,,,,,,,,,,,,,,,,,,,,,,,,,,,,,,,,,,,87,grodo,,,,,418.0017,419.3837,0,1,0.8555,,0,68,68,86,1,REAL,FAKE,,,,,,,,,,,,,,,,,
,,,,,,,,,65bbdbd7bc3559a97b37263d,spanish,click here to respond,"no, only English or Spanish",no,2025-08-14_23h11.06.120,empathy_intonation_perc_control,2024.2.4,Linux x86_64,60.24096386,65bbdbd7bc3559a97b37263d,68817205a84113384fffdfe3,689ea4b46852676efe939740,,,,,,,,,,,,,1,,,,,,,,,,,,,,,,,,,,,,,,,,,,,,,,,,,,,62,flaco,,,,,419.3889,422.9858,1,1,3.0721,,0,69,69,61,1,REAL,FAKE,,,,,,,,,,,,,,,,,
,,,,,,,,,65bbdbd7bc3559a97b37263d,spanish,click here to respond,"no, only English or Spanish",no,2025-08-14_23h11.06.120,empathy_intonation_perc_control,2024.2.4,Linux x86_64,60.24096386,65bbdbd7bc3559a97b37263d,68817205a84113384fffdfe3,689ea4b46852676efe939740,,,,,,,,,,,,,0,,,,,,,,,,,,,,,,,,,,,,,,,,,,,,,,,,,,,33,pauca,,,,,422.9884,424.3659,0,1,0.8458,,0,70,70,32,1,REAL,FAKE,,,,,,,,,,,,,,,,,
,,,,,,,,,65bbdbd7bc3559a97b37263d,spanish,click here to respond,"no, only English or Spanish",no,2025-08-14_23h11.06.120,empathy_intonation_perc_control,2024.2.4,Linux x86_64,60.24096386,65bbdbd7bc3559a97b37263d,68817205a84113384fffdfe3,689ea4b46852676efe939740,,,,,,,,,,,,,0,,,,,,,,,,,,,,,,,,,,,,,,,,,,,,,,,,,,,53,vegada,,,,,424.3671,425.6833,0,1,0.8021,,0,71,71,52,1,REAL,FAKE,,,,,,,,,,,,,,,,,
,,,,,,,,,65bbdbd7bc3559a97b37263d,spanish,click here to respond,"no, only English or Spanish",no,2025-08-14_23h11.06.120,empathy_intonation_perc_control,2024.2.4,Linux x86_64,60.24096386,65bbdbd7bc3559a97b37263d,68817205a84113384fffdfe3,689ea4b46852676efe939740,,,,,,,,,,,,,0,,,,,,,,,,,,,,,,,,,,,,,,,,,,,,,,,,,,,1,terzo,,,,,425.6855,426.8664,0,1,0.6633,,0,72,72,0,1,REAL,FAKE,,,,,,,,,,,,,,,,,
,,,,,,,,,65bbdbd7bc3559a97b37263d,spanish,click here to respond,"no, only English or Spanish",no,2025-08-14_23h11.06.120,empathy_intonation_perc_control,2024.2.4,Linux x86_64,60.24096386,65bbdbd7bc3559a97b37263d,68817205a84113384fffdfe3,689ea4b46852676efe939740,,,,,,,,,,,,,1,,,,,,,,,,,,,,,,,,,,,,,,,,,,,,,,,,,,,25,bisagra,,,,,426.8689,428.2503,0,0,0.8512,,0,73,73,24,1,REAL,FAKE,,,,,,,,,,,,,,,,,
,,,,,,,,,65bbdbd7bc3559a97b37263d,spanish,click here to respond,"no, only English or Spanish",no,2025-08-14_23h11.06.120,empathy_intonation_perc_control,2024.2.4,Linux x86_64,60.24096386,65bbdbd7bc3559a97b37263d,68817205a84113384fffdfe3,689ea4b46852676efe939740,,,,,,,,,,,,,1,,,,,,,,,,,,,,,,,,,,,,,,,,,,,,,,,,,,,81,pozo,,,,,428.2528,429.5503,0,0,0.7644,,0,74,74,80,1,REAL,FAKE,,,,,,,,,,,,,,,,,
,,,,,,,,,65bbdbd7bc3559a97b37263d,spanish,click here to respond,"no, only English or Spanish",no,2025-08-14_23h11.06.120,empathy_intonation_perc_control,2024.2.4,Linux x86_64,60.24096386,65bbdbd7bc3559a97b37263d,68817205a84113384fffdfe3,689ea4b46852676efe939740,,,,,,,,,,,,,0,,,,,,,,,,,,,,,,,,,,,,,,,,,,,,,,,,,,,4,batillón,,,,,429.5531,431.8526,1,0,1.7691,,0,75,75,3,1,REAL,FAKE,,,,,,,,,,,,,,,,,
,,,,,,,,,65bbdbd7bc3559a97b37263d,spanish,click here to respond,"no, only English or Spanish",no,2025-08-14_23h11.06.120,empathy_intonation_perc_control,2024.2.4,Linux x86_64,60.24096386,65bbdbd7bc3559a97b37263d,68817205a84113384fffdfe3,689ea4b46852676efe939740,,,,,,,,,,,,,1,,,,,,,,,,,,,,,,,,,,,,,,,,,,,,,,,,,,,40,alfombra,,,,,431.8551,433.2529,0,0,0.8721,,0,76,76,39,1,REAL,FAKE,,,,,,,,,,,,,,,,,
,,,,,,,,,65bbdbd7bc3559a97b37263d,spanish,click here to respond,"no, only English or Spanish",no,2025-08-14_23h11.06.120,empathy_intonation_perc_control,2024.2.4,Linux x86_64,60.24096386,65bbdbd7bc3559a97b37263d,68817205a84113384fffdfe3,689ea4b46852676efe939740,,,,,,,,,,,,,0,,,,,,,,,,,,,,,,,,,,,,,,,,,,,,,,,,,,,66,hacido,,,,,433.2552,434.6001,1,0,0.8205,,0,77,77,65,1,REAL,FAKE,,,,,,,,,,,,,,,,,
,,,,,,,,,65bbdbd7bc3559a97b37263d,spanish,click here to respond,"no, only English or Spanish",no,2025-08-14_23h11.06.120,empathy_intonation_perc_control,2024.2.4,Linux x86_64,60.24096386,65bbdbd7bc3559a97b37263d,68817205a84113384fffdfe3,689ea4b46852676efe939740,,,,,,,,,,,,,1,,,,,,,,,,,,,,,,,,,,,,,,,,,,,,,,,,,,,13,helar,,,,,434.6014,436.018,0,0,0.881,,0,78,78,12,1,REAL,FAKE,,,,,,,,,,,,,,,,,
,,,,,,,,,65bbdbd7bc3559a97b37263d,spanish,click here to respond,"no, only English or Spanish",no,2025-08-14_23h11.06.120,empathy_intonation_perc_control,2024.2.4,Linux x86_64,60.24096386,65bbdbd7bc3559a97b37263d,68817205a84113384fffdfe3,689ea4b46852676efe939740,,,,,,,,,,,,,1,,,,,,,,,,,,,,,,,,,,,,,,,,,,,,,,,,,,,41,rebuscar,,,,,436.0212,437.3519,0,0,0.796,,0,79,79,40,1,REAL,FAKE,,,,,,,,,,,,,,,,,
,,,,,,,,,65bbdbd7bc3559a97b37263d,spanish,click here to respond,"no, only English or Spanish",no,2025-08-14_23h11.06.120,empathy_intonation_perc_control,2024.2.4,Linux x86_64,60.24096386,65bbdbd7bc3559a97b37263d,68817205a84113384fffdfe3,689ea4b46852676efe939740,,,,,,,,,,,,,1,,,,,,,,,,,,,,,,,,,,,,,,,,,,,,,,,,,,,26,secuestro,,,,,437.3549,440.1017,1,1,2.2081,,0,80,80,25,1,REAL,FAKE,,,,,,,,,,,,,,,,,
,,,,,,,,,65bbdbd7bc3559a97b37263d,spanish,click here to respond,"no, only English or Spanish",no,2025-08-14_23h11.06.120,empathy_intonation_perc_control,2024.2.4,Linux x86_64,60.24096386,65bbdbd7bc3559a97b37263d,68817205a84113384fffdfe3,689ea4b46852676efe939740,,,,,,,,,,,,,0,,,,,,,,,,,,,,,,,,,,,,,,,,,,,,,,,,,,,42,cadallo,,,,,440.1043,442.5352,1,0,1.8996,,0,81,81,41,1,REAL,FAKE,,,,,,,,,,,,,,,,,
,,,,,,,,,65bbdbd7bc3559a97b37263d,spanish,click here to respond,"no, only English or Spanish",no,2025-08-14_23h11.06.120,empathy_intonation_perc_control,2024.2.4,Linux x86_64,60.24096386,65bbdbd7bc3559a97b37263d,68817205a84113384fffdfe3,689ea4b46852676efe939740,,,,,,,,,,,,,0,,,,,,,,,,,,,,,,,,,,,,,,,,,,,,,,,,,,,47,cartinar,,,,,442.5379,444.3348,0,1,1.2594,,0,82,82,46,1,REAL,FAKE,,,,,,,,,,,,,,,,,
,,,,,,,,,65bbdbd7bc3559a97b37263d,spanish,click here to respond,"no, only English or Spanish",no,2025-08-14_23h11.06.120,empathy_intonation_perc_control,2024.2.4,Linux x86_64,60.24096386,65bbdbd7bc3559a97b37263d,68817205a84113384fffdfe3,689ea4b46852676efe939740,,,,,,,,,,,,,1,,,,,,,,,,,,,,,,,,,,,,,,,,,,,,,,,,,,,76,atar,,,,,444.3365,446.0848,0,0,1.2183,,0,83,83,75,1,REAL,FAKE,,,,,,,,,,,,,,,,,
,,,,,,,,,65bbdbd7bc3559a97b37263d,spanish,click here to respond,"no, only English or Spanish",no,2025-08-14_23h11.06.120,empathy_intonation_perc_control,2024.2.4,Linux x86_64,60.24096386,65bbdbd7bc3559a97b37263d,68817205a84113384fffdfe3,689ea4b46852676efe939740,,,,,,,,,,,,,1,,,,,,,,,,,,,,,,,,,,,,,,,,,,,,,,,,,,,14,yunque,,,,,446.086,447.852,1,1,1.2491,,0,84,84,13,1,REAL,FAKE,,,,,,,,,,,,,,,,,
,,,,,,,,,65bbdbd7bc3559a97b37263d,spanish,click here to respond,"no, only English or Spanish",no,2025-08-14_23h11.06.120,empathy_intonation_perc_control,2024.2.4,Linux x86_64,60.24096386,65bbdbd7bc3559a97b37263d,68817205a84113384fffdfe3,689ea4b46852676efe939740,,,,,,,,,,,,,0,,,,,,,,,,,,,,,,,,,,,,,,,,,,,,,,,,,,,27,acutación,,,,,447.855,449.8356,0,1,1.4512,,0,85,85,26,1,REAL,FAKE,,,,,,,,,,,,,,,,,
,,,,,,,,,65bbdbd7bc3559a97b37263d,spanish,click here to respond,"no, only English or Spanish",no,2025-08-14_23h11.06.120,empathy_intonation_perc_control,2024.2.4,Linux x86_64,60.24096386,65bbdbd7bc3559a97b37263d,68817205a84113384fffdfe3,689ea4b46852676efe939740,,,,,,,,,,,,,0,,,,,,,,,,,,,,,,,,,,,,,,,,,,,,,,,,,,,16,abracer,,,,,449.8382,451.5696,1,0,1.2002,,0,86,86,15,1,REAL,FAKE,,,,,,,,,,,,,,,,,
,,,,,,,,,65bbdbd7bc3559a97b37263d,spanish,click here to respond,"no, only English or Spanish",no,2025-08-14_23h11.06.120,empathy_intonation_perc_control,2024.2.4,Linux x86_64,60.24096386,65bbdbd7bc3559a97b37263d,68817205a84113384fffdfe3,689ea4b46852676efe939740,,,,,,,,,,,,,0,,,,,,,,,,,,,,,,,,,,,,,,,,,,,,,,,,,,,63,esposante,,,,,451.5728,454.0026,1,0,1.9003,,0,87,87,62,1,REAL,FAKE,,,,,,,,,,,,,,,,,
,,,,,,,,,65bbdbd7bc3559a97b37263d,spanish,click here to respond,"no, only English or Spanish",no,2025-08-14_23h11.06.120,empathy_intonation_perc_control,2024.2.4,Linux x86_64,60.24096386,65bbdbd7bc3559a97b37263d,68817205a84113384fffdfe3,689ea4b46852676efe939740,,,,,,,,,,,,,1,,,,,,,,,,,,,,,,,,,,,,,,,,,,,,,,,,,,,67,cabello,,,,,454.0051,455.6024,1,1,1.0756,,0,88,88,66,1,REAL,FAKE,,,,,,,,,,,,,,,,,
,,,,,,,,,65bbdbd7bc3559a97b37263d,spanish,click here to respond,"no, only English or Spanish",no,2025-08-14_23h11.06.120,empathy_intonation_perc_control,2024.2.4,Linux x86_64,60.24096386,65bbdbd7bc3559a97b37263d,68817205a84113384fffdfe3,689ea4b46852676efe939740,,,,,,,,,,,,,0,,,,,,,,,,,,,,,,,,,,,,,,,,,,,,,,,,,,,50,flamida,,,,,455.604,457.9193,1,0,1.7819,,0,89,89,49,1,REAL,FAKE,,,,,,,,,,,,,,,,,
,,,,,,,,,65bbdbd7bc3559a97b37263d,spanish,click here to respond,"no, only English or Spanish",no,2025-08-14_23h11.06.120,empathy_intonation_perc_control,2024.2.4,Linux x86_64,60.24096386,65bbdbd7bc3559a97b37263d,68817205a84113384fffdfe3,689ea4b46852676efe939740,,,,,,,,,,,,,1,,,,,,,,,,,,,,,,,,,,,,,,,,,,,,,,,,,,,68,alegre,,,,,457.9204,459.1698,1,1,0.718,,0,90,90,67,1,REAL,FAKE,,,,,,,,,,,,,,,,,
,,,,,,,,,65bbdbd7bc3559a97b37263d,spanish,click here to respond,"no, only English or Spanish",no,2025-08-14_23h11.06.120,empathy_intonation_perc_control,2024.2.4,Linux x86_64,60.24096386,65bbdbd7bc3559a97b37263d,68817205a84113384fffdfe3,689ea4b46852676efe939740,,,,,,,,,,,,,1,,,,,,,,,,,,,,,,,,,,,,,,,,,,,,,,,,,,,24,látigo,,,,,459.1721,460.5531,0,0,0.8538,,0,91,91,23,1,REAL,FAKE,,,,,,,,,,,,,,,,,
,,,,,,,,,65bbdbd7bc3559a97b37263d,spanish,click here to respond,"no, only English or Spanish",no,2025-08-14_23h11.06.120,empathy_intonation_perc_control,2024.2.4,Linux x86_64,60.24096386,65bbdbd7bc3559a97b37263d,68817205a84113384fffdfe3,689ea4b46852676efe939740,,,,,,,,,,,,,,,,,,,,,,,,,,,,,,,,,,,,,,,,,,,,,,,,,,,,,,,,,,,,,,,,,,,,,460.5537,467.254,,,,,,,,,,,,,,,
,,,,,,,,,65bbdbd7bc3559a97b37263d,spanish,click here to respond,"no, only English or Spanish",no,2025-08-14_23h11.06.120,empathy_intonation_perc_control,2024.2.4,Linux x86_64,60.24096386,65bbdbd7bc3559a97b37263d,68817205a84113384fffdfe3,689ea4b46852676efe939740,,,,,,,,,,,,,,,,,,,,,,,,,,,1,,,,,,,,,,,,,,,,,,,,,,,,,,,,,,,,,,,,,,,,,,,,467.2737,471.2209,slightly agree,0,0,0,0,1,I can easily tell if someone else wants to enter a conversation.,1,0,1,0,,
,,,,,,,,,65bbdbd7bc3559a97b37263d,spanish,click here to respond,"no, only English or Spanish",no,2025-08-14_23h11.06.120,empathy_intonation_perc_control,2024.2.4,Linux x86_64,60.24096386,65bbdbd7bc3559a97b37263d,68817205a84113384fffdfe3,689ea4b46852676efe939740,,,,,,,,,,,,,,,,,,,,,,,,,,,2,,,,,,,,,,,,,,,,,,,,,,,,,,,,,,,,,,,,,,,,,,,,471.223,473.5377,slightly agree,0,1,1,1,1,I prefer animals to humans.,0,1,0,0,,
,,,,,,,,,65bbdbd7bc3559a97b37263d,spanish,click here to respond,"no, only English or Spanish",no,2025-08-14_23h11.06.120,empathy_intonation_perc_control,2024.2.4,Linux x86_64,60.24096386,65bbdbd7bc3559a97b37263d,68817205a84113384fffdfe3,689ea4b46852676efe939740,,,,,,,,,,,,,,,,,,,,,,,,,,,3,,,,,,,,,,,,,,,,,,,,,,,,,,,,,,,,,,,,,,,,,,,,473.5409,477.1048,slightly disagree,0,2,2,2,1,I try to keep up with the current trends and fashions.,0,1,0,0,,
,,,,,,,,,65bbdbd7bc3559a97b37263d,spanish,click here to respond,"no, only English or Spanish",no,2025-08-14_23h11.06.120,empathy_intonation_perc_control,2024.2.4,Linux x86_64,60.24096386,65bbdbd7bc3559a97b37263d,68817205a84113384fffdfe3,689ea4b46852676efe939740,,,,,,,,,,,,,,,,,,,,,,,,,,,4,,,,,,,,,,,,,,,,,,,,,,,,,,,,,,,,,,,,,,,,,,,,477.1074,483.0888,slightly disagree,0,3,3,3,1,"I find it difficult to explain to others things that I understand easily,   when they don't understand it first time.",1,0,0,1,,
,,,,,,,,,65bbdbd7bc3559a97b37263d,spanish,click here to respond,"no, only English or Spanish",no,2025-08-14_23h11.06.120,empathy_intonation_perc_control,2024.2.4,Linux x86_64,60.24096386,65bbdbd7bc3559a97b37263d,68817205a84113384fffdfe3,689ea4b46852676efe939740,,,,,,,,,,,,,,,,,,,,,,,,,,,5,,,,,,,,,,,,,,,,,,,,,,,,,,,,,,,,,,,,,,,,,,,,483.0906,485.8557,strongly agree,0,4,4,4,1,I dream most nights.,0,1,0,0,,
,,,,,,,,,65bbdbd7bc3559a97b37263d,spanish,click here to respond,"no, only English or Spanish",no,2025-08-14_23h11.06.120,empathy_intonation_perc_control,2024.2.4,Linux x86_64,60.24096386,65bbdbd7bc3559a97b37263d,68817205a84113384fffdfe3,689ea4b46852676efe939740,,,,,,,,,,,,,,,,,,,,,,,,,,,6,,,,,,,,,,,,,,,,,,,,,,,,,,,,,,,,,,,,,,,,,,,,485.8575,488.5897,slightly agree,0,5,5,5,1,I really enjoy caring for other people.,1,0,1,0,,
,,,,,,,,,65bbdbd7bc3559a97b37263d,spanish,click here to respond,"no, only English or Spanish",no,2025-08-14_23h11.06.120,empathy_intonation_perc_control,2024.2.4,Linux x86_64,60.24096386,65bbdbd7bc3559a97b37263d,68817205a84113384fffdfe3,689ea4b46852676efe939740,,,,,,,,,,,,,,,,,,,,,,,,,,,7,,,,,,,,,,,,,,,,,,,,,,,,,,,,,,,,,,,,,,,,,,,,488.5927,492.1902,slightly agree,0,6,6,6,1,I try to solve my own problems rather than discussing them with others.,0,1,0,0,,
,,,,,,,,,65bbdbd7bc3559a97b37263d,spanish,click here to respond,"no, only English or Spanish",no,2025-08-14_23h11.06.120,empathy_intonation_perc_control,2024.2.4,Linux x86_64,60.24096386,65bbdbd7bc3559a97b37263d,68817205a84113384fffdfe3,689ea4b46852676efe939740,,,,,,,,,,,,,,,,,,,,,,,,,,,8,,,,,,,,,,,,,,,,,,,,,,,,,,,,,,,,,,,,,,,,,,,,492.1944,494.4231,slightly disagree,0,7,7,7,1,I find it hard to know what to do in a social situation.,1,0,0,1,,
,,,,,,,,,65bbdbd7bc3559a97b37263d,spanish,click here to respond,"no, only English or Spanish",no,2025-08-14_23h11.06.120,empathy_intonation_perc_control,2024.2.4,Linux x86_64,60.24096386,65bbdbd7bc3559a97b37263d,68817205a84113384fffdfe3,689ea4b46852676efe939740,,,,,,,,,,,,,,,,,,,,,,,,,,,9,,,,,,,,,,,,,,,,,,,,,,,,,,,,,,,,,,,,,,,,,,,,494.4249,497.3235,strongly disagree,0,8,8,8,1,I am at my best first thing in the morning.,0,1,0,0,,
,,,,,,,,,65bbdbd7bc3559a97b37263d,spanish,click here to respond,"no, only English or Spanish",no,2025-08-14_23h11.06.120,empathy_intonation_perc_control,2024.2.4,Linux x86_64,60.24096386,65bbdbd7bc3559a97b37263d,68817205a84113384fffdfe3,689ea4b46852676efe939740,,,,,,,,,,,,,,,,,,,,,,,,,,,10,,,,,,,,,,,,,,,,,,,,,,,,,,,,,,,,,,,,,,,,,,,,497.3259,500.457,strongly disagree,0,9,9,9,1,People often tell me that I went too far in driving my point home in a discussion.,1,0,0,1,,
,,,,,,,,,65bbdbd7bc3559a97b37263d,spanish,click here to respond,"no, only English or Spanish",no,2025-08-14_23h11.06.120,empathy_intonation_perc_control,2024.2.4,Linux x86_64,60.24096386,65bbdbd7bc3559a97b37263d,68817205a84113384fffdfe3,689ea4b46852676efe939740,,,,,,,,,,,,,,,,,,,,,,,,,,,11,,,,,,,,,,,,,,,,,,,,,,,,,,,,,,,,,,,,,,,,,,,,500.4591,503.4244,strongly disagree,0,10,10,10,1,It doesn't bother me too much if I am late meeting a friend.,1,0,0,1,,
,,,,,,,,,65bbdbd7bc3559a97b37263d,spanish,click here to respond,"no, only English or Spanish",no,2025-08-14_23h11.06.120,empathy_intonation_perc_control,2024.2.4,Linux x86_64,60.24096386,65bbdbd7bc3559a97b37263d,68817205a84113384fffdfe3,689ea4b46852676efe939740,,,,,,,,,,,,,,,,,,,,,,,,,,,12,,,,,,,,,,,,,,,,,,,,,,,,,,,,,,,,,,,,,,,,,,,,503.4266,506.4076,strongly disagree,0,11,11,11,1,"Friendships and relationships are just too difficult, so I tend not to 
  bother with them.",1,0,0,1,,
,,,,,,,,,65bbdbd7bc3559a97b37263d,spanish,click here to respond,"no, only English or Spanish",no,2025-08-14_23h11.06.120,empathy_intonation_perc_control,2024.2.4,Linux x86_64,60.24096386,65bbdbd7bc3559a97b37263d,68817205a84113384fffdfe3,689ea4b46852676efe939740,,,,,,,,,,,,,,,,,,,,,,,,,,,13,,,,,,,,,,,,,,,,,,,,,,,,,,,,,,,,,,,,,,,,,,,,506.4098,508.9413,strongly disagree,0,12,12,12,1,"I would never break a law, no matter how minor.",0,1,0,0,,
,,,,,,,,,65bbdbd7bc3559a97b37263d,spanish,click here to respond,"no, only English or Spanish",no,2025-08-14_23h11.06.120,empathy_intonation_perc_control,2024.2.4,Linux x86_64,60.24096386,65bbdbd7bc3559a97b37263d,68817205a84113384fffdfe3,689ea4b46852676efe939740,,,,,,,,,,,,,,,,,,,,,,,,,,,14,,,,,,,,,,,,,,,,,,,,,,,,,,,,,,,,,,,,,,,,,,,,508.9437,513.742,slightly disagree,0,13,13,13,1,I often find it difficult to judge if something is rude or polite.,1,0,0,1,,
,,,,,,,,,65bbdbd7bc3559a97b37263d,spanish,click here to respond,"no, only English or Spanish",no,2025-08-14_23h11.06.120,empathy_intonation_perc_control,2024.2.4,Linux x86_64,60.24096386,65bbdbd7bc3559a97b37263d,68817205a84113384fffdfe3,689ea4b46852676efe939740,,,,,,,,,,,,,,,,,,,,,,,,,,,15,,,,,,,,,,,,,,,,,,,,,,,,,,,,,,,,,,,,,,,,,,,,513.7448,524.6435,slightly agree,0,14,14,14,1,"In a conversation, I tend to focus on my own thoughts rather than on what 
  my listener might be thinking.",1,0,0,1,,
,,,,,,,,,65bbdbd7bc3559a97b37263d,spanish,click here to respond,"no, only English or Spanish",no,2025-08-14_23h11.06.120,empathy_intonation_perc_control,2024.2.4,Linux x86_64,60.24096386,65bbdbd7bc3559a97b37263d,68817205a84113384fffdfe3,689ea4b46852676efe939740,,,,,,,,,,,,,,,,,,,,,,,,,,,16,,,,,,,,,,,,,,,,,,,,,,,,,,,,,,,,,,,,,,,,,,,,524.6452,528.1955,slightly disagree,0,15,15,15,1,I prefer practical jokes to verbal humor.,0,1,0,0,,
