instructions_2afc.started,instructions_2afc.stopped,instructions_2afc_loop.thisRepN,instructions_2afc_loop.thisTrialN,instructions_2afc_loop.thisN,instructions_2afc_loop.thisIndex,instructions_2afc_loop.ran,instructions_text,continue_text,participant_id,"What variety of Spanish are you most familiar with? (e.g., Peruvian, Spanish, Mexican)",At what age did you begin learning Spanish?,Are you proficient in any languages other than English/Spanish?,"Are you familiar with Caribbean (e.g., Caribbean, Puerto Rican) or Galician Spanish?",date,expName,psychopyVersion,OS,frameRate,id,study_id,session,practice_2afc.started,practice_2afc.stopped,key_resp_2afc_practice.keys,key_resp_2afc_practice.corr,key_resp_2afc_practice.rt,key_resp_2afc_practice.duration,trials_2afc_practice_loop.thisRepN,trials_2afc_practice_loop.thisTrialN,trials_2afc_practice_loop.thisN,trials_2afc_practice_loop.thisIndex,trials_2afc_practice_loop.ran,path,correct_response,check_2afc.started,check_2afc.stopped,trial_2afc.started,trial_2afc.stopped,key_resp_2afc_trial.keys,key_resp_2afc_trial.corr,key_resp_2afc_trial.rt,key_resp_2afc_trial.duration,trials_2afc_loop.thisRepN,trials_2afc_loop.thisTrialN,trials_2afc_loop.thisN,trials_2afc_loop.thisIndex,trials_2afc_loop.ran,item_num,target,variety,instructions_lextale.started,instructions_lextale.stopped,instructions_lextale_loop.thisRepN,instructions_lextale_loop.thisTrialN,instructions_lextale_loop.thisN,instructions_lextale_loop.thisIndex,instructions_lextale_loop.ran,practice_lextale.started,practice_lextale.stopped,key_resp_lextale_practice.keys,key_resp_lextale_practice.corr,key_resp_lextale_practice.rt,key_resp_lextale_practice.duration,practice_feedback_lextale.started,practice_feedback_lextale.stopped,trials_lextale_practice_loop.thisRepN,trials_lextale_practice_loop.thisTrialN,trials_lextale_practice_loop.thisN,trials_lextale_practice_loop.thisIndex,trials_lextale_practice_loop.ran,stim,word,prac_button_real,prac_button_false,check_lextale.started,check_lextale.stopped,trial_lextale.started,trial_lextale.stopped,key_resp_lextale_trial.keys,key_resp_lextale_trial.corr,key_resp_lextale_trial.rt,key_resp_lextale_trial.duration,trials_lextale_loop.thisRepN,trials_lextale_loop.thisTrialN,trials_lextale_loop.thisN,trials_lextale_loop.thisIndex,trials_lextale_loop.ran,button_real,button_false,instructions_eq.started,instructions_eq.stopped,trial_eq.started,trial_eq.stopped,slider_eq_trial.response,trials_eq_loop.thisRepN,trials_eq_loop.thisTrialN,trials_eq_loop.thisN,trials_eq_loop.thisIndex,trials_eq_loop.ran,item,is_test_item,is_distractor,is_agree_score,is_disagree_score,end_exp.started,end_exp.stopped
0.02,30.6622,0,0,0,0,1,"In the following task you are going to hear a series of utterances. 

  You will decide if the utterances sound like questions or not using your keyboard.", (press the spacebar to continue),65ca88708a87327cd873ac26,spanish,13 or older,"no, only English or Spanish",yes,2025-07-23_21h59.55.327,empathy_intonation_perc_control,2024.2.4,Win32,60.24096386,65ca88708a87327cd873ac26,68817205a84113384fffdfe3,6881936438a52c1f89bb1731,,,,,,,,,,,,,,,,,,,,,,,,,,,,,,,,,,,,,,,,,,,,,,,,,,,,,,,,,,,,,,,,,,,,,,,,,,,,,,,,,,,,,
30.6648,41.4456,0,1,1,1,1,"If you believe the utterance is a question, type '1' (for 'yes') and if you do not 
  believe it is a question type '0' (for 'no').

  Let's practice a bit...", (press the spacebar to continue),65ca88708a87327cd873ac26,spanish,13 or older,"no, only English or Spanish",yes,2025-07-23_21h59.55.327,empathy_intonation_perc_control,2024.2.4,Win32,60.24096386,65ca88708a87327cd873ac26,68817205a84113384fffdfe3,6881936438a52c1f89bb1731,,,,,,,,,,,,,,,,,,,,,,,,,,,,,,,,,,,,,,,,,,,,,,,,,,,,,,,,,,,,,,,,,,,,,,,,,,,,,,,,,,,,,
,,,,,,,,,65ca88708a87327cd873ac26,spanish,13 or older,"no, only English or Spanish",yes,2025-07-23_21h59.55.327,empathy_intonation_perc_control,2024.2.4,Win32,60.24096386,65ca88708a87327cd873ac26,68817205a84113384fffdfe3,6881936438a52c1f89bb1731,41.4646,46.8624,1,0,4.8759,,0,0,0,7,1,./stim/wavs/puertorican_statement_filler_La-nina-pinta-con-su-amiga.wav,0,,,,,,,,,,,,,,,,,,,,,,,,,,,,,,,,,,,,,,,,,,,,,,,,,,,,,,,,,,,,,,,,,,,,,,,,
,,,,,,,,,65ca88708a87327cd873ac26,spanish,13 or older,"no, only English or Spanish",yes,2025-07-23_21h59.55.327,empathy_intonation_perc_control,2024.2.4,Win32,60.24096386,65ca88708a87327cd873ac26,68817205a84113384fffdfe3,6881936438a52c1f89bb1731,46.865,49.4272,0,1,2.0394,,0,1,1,4,1,./stim/wavs/cuban_statement_filler_Cocinabas-por-la-noche.wav,0,,,,,,,,,,,,,,,,,,,,,,,,,,,,,,,,,,,,,,,,,,,,,,,,,,,,,,,,,,,,,,,,,,,,,,,,
,,,,,,,,,65ca88708a87327cd873ac26,spanish,13 or older,"no, only English or Spanish",yes,2025-07-23_21h59.55.327,empathy_intonation_perc_control,2024.2.4,Win32,60.24096386,65ca88708a87327cd873ac26,68817205a84113384fffdfe3,6881936438a52c1f89bb1731,49.4283,54.2779,1,1,4.3252,,0,2,2,2,1,./stim/wavs/chilean_question_filler_Mi-padre-cantaba-bien.wav,1,,,,,,,,,,,,,,,,,,,,,,,,,,,,,,,,,,,,,,,,,,,,,,,,,,,,,,,,,,,,,,,,,,,,,,,,
,,,,,,,,,65ca88708a87327cd873ac26,spanish,13 or older,"no, only English or Spanish",yes,2025-07-23_21h59.55.327,empathy_intonation_perc_control,2024.2.4,Win32,60.24096386,65ca88708a87327cd873ac26,68817205a84113384fffdfe3,6881936438a52c1f89bb1731,54.2793,57.0446,0,1,2.2334,,0,3,3,5,1,./stim/wavs/andalusian_statement_filler_Alberto-nunca-se-afeita.wav,0,,,,,,,,,,,,,,,,,,,,,,,,,,,,,,,,,,,,,,,,,,,,,,,,,,,,,,,,,,,,,,,,,,,,,,,,
,,,,,,,,,65ca88708a87327cd873ac26,spanish,13 or older,"no, only English or Spanish",yes,2025-07-23_21h59.55.327,empathy_intonation_perc_control,2024.2.4,Win32,60.24096386,65ca88708a87327cd873ac26,68817205a84113384fffdfe3,6881936438a52c1f89bb1731,57.0457,61.5794,1,1,4.0131,,0,4,4,1,1,./stim/wavs/argentine_question_filler_Mi-vecino-habla-mucho.wav,1,,,,,,,,,,,,,,,,,,,,,,,,,,,,,,,,,,,,,,,,,,,,,,,,,,,,,,,,,,,,,,,,,,,,,,,,
,,,,,,,,,65ca88708a87327cd873ac26,spanish,13 or older,"no, only English or Spanish",yes,2025-07-23_21h59.55.327,empathy_intonation_perc_control,2024.2.4,Win32,60.24096386,65ca88708a87327cd873ac26,68817205a84113384fffdfe3,6881936438a52c1f89bb1731,61.5821,64.1277,0,0,2.02,,0,5,5,0,1,./stim/wavs/castilian_question_filler_Mi-esposo-conoce-al-chico.wav,1,,,,,,,,,,,,,,,,,,,,,,,,,,,,,,,,,,,,,,,,,,,,,,,,,,,,,,,,,,,,,,,,,,,,,,,,
,,,,,,,,,65ca88708a87327cd873ac26,spanish,13 or older,"no, only English or Spanish",yes,2025-07-23_21h59.55.327,empathy_intonation_perc_control,2024.2.4,Win32,60.24096386,65ca88708a87327cd873ac26,68817205a84113384fffdfe3,6881936438a52c1f89bb1731,64.1297,67.8115,0,1,3.1511,,0,6,6,6,1,./stim/wavs/peruvian_statement_filler_El-nino-habla-con-su-madre.wav,0,,,,,,,,,,,,,,,,,,,,,,,,,,,,,,,,,,,,,,,,,,,,,,,,,,,,,,,,,,,,,,,,,,,,,,,,
,,,,,,,,,65ca88708a87327cd873ac26,spanish,13 or older,"no, only English or Spanish",yes,2025-07-23_21h59.55.327,empathy_intonation_perc_control,2024.2.4,Win32,60.24096386,65ca88708a87327cd873ac26,68817205a84113384fffdfe3,6881936438a52c1f89bb1731,67.8132,70.0116,1,1,1.6668,,0,7,7,3,1,./stim/wavs/mexican_question_filler_Felipe-no-tiene-contrasena.wav,1,,,,,,,,,,,,,,,,,,,,,,,,,,,,,,,,,,,,,,,,,,,,,,,,,,,,,,,,,,,,,,,,,,,,,,,,
,,,,,,,,,65ca88708a87327cd873ac26,spanish,13 or older,"no, only English or Spanish",yes,2025-07-23_21h59.55.327,empathy_intonation_perc_control,2024.2.4,Win32,60.24096386,65ca88708a87327cd873ac26,68817205a84113384fffdfe3,6881936438a52c1f89bb1731,,,,,,,,,,,,,,70.0125,77.1287,,,,,,,,,,,,,,,,,,,,,,,,,,,,,,,,,,,,,,,,,,,,,,,,,,,,,,,,,,,,,,,,,,,,,,
,,,,,,,,,65ca88708a87327cd873ac26,spanish,13 or older,"no, only English or Spanish",yes,2025-07-23_21h59.55.327,empathy_intonation_perc_control,2024.2.4,Win32,60.24096386,65ca88708a87327cd873ac26,68817205a84113384fffdfe3,6881936438a52c1f89bb1731,,,,,,,,,,,,./stim/wavs/puertorican_mismatch_interrogative-total-yn_El-nino-oye-el-rio.wav,1,,,77.1435,79.1793,1,1,1.5272,,0,0,0,40,1,41,1,puertorican,,,,,,,,,,,,,,,,,,,,,,,,,,,,,,,,,,,,,,,,,,,,,,,,,,,,,,,,
,,,,,,,,,65ca88708a87327cd873ac26,spanish,13 or older,"no, only English or Spanish",yes,2025-07-23_21h59.55.327,empathy_intonation_perc_control,2024.2.4,Win32,60.24096386,65ca88708a87327cd873ac26,68817205a84113384fffdfe3,6881936438a52c1f89bb1731,,,,,,,,,,,,./stim/wavs/puertorican_match_declarative-broad-focus_Ana-lleva-el-abrigo.wav,0,,,79.1823,81.1132,0,1,1.411,,0,1,1,62,1,63,0,puertorican,,,,,,,,,,,,,,,,,,,,,,,,,,,,,,,,,,,,,,,,,,,,,,,,,,,,,,,,
,,,,,,,,,65ca88708a87327cd873ac26,spanish,13 or older,"no, only English or Spanish",yes,2025-07-23_21h59.55.327,empathy_intonation_perc_control,2024.2.4,Win32,60.24096386,65ca88708a87327cd873ac26,68817205a84113384fffdfe3,6881936438a52c1f89bb1731,,,,,,,,,,,,./stim/wavs/castilian_match_interrogative-total-yn_David-leia-el-libro.wav,1,,,81.1151,83.4281,1,1,1.7876,,0,2,2,0,1,1,0,castilian,,,,,,,,,,,,,,,,,,,,,,,,,,,,,,,,,,,,,,,,,,,,,,,,,,,,,,,,
,,,,,,,,,65ca88708a87327cd873ac26,spanish,13 or older,"no, only English or Spanish",yes,2025-07-23_21h59.55.327,empathy_intonation_perc_control,2024.2.4,Win32,60.24096386,65ca88708a87327cd873ac26,68817205a84113384fffdfe3,6881936438a52c1f89bb1731,,,,,,,,,,,,./stim/wavs/cuban_mismatch_declarative-broad-focus_Mi-tia-odia-la-lluvia.wav,0,,,83.43,85.6782,0,1,1.7249,,0,3,3,77,1,78,0,cuban,,,,,,,,,,,,,,,,,,,,,,,,,,,,,,,,,,,,,,,,,,,,,,,,,,,,,,,,
,,,,,,,,,65ca88708a87327cd873ac26,spanish,13 or older,"no, only English or Spanish",yes,2025-07-23_21h59.55.327,empathy_intonation_perc_control,2024.2.4,Win32,60.24096386,65ca88708a87327cd873ac26,68817205a84113384fffdfe3,6881936438a52c1f89bb1731,,,,,,,,,,,,./stim/wavs/castilian_match_declarative-broad-focus_Marta-abre-el-regalo.wav,0,,,85.6797,87.9116,0,1,1.7066,,0,4,4,49,1,50,0,castilian,,,,,,,,,,,,,,,,,,,,,,,,,,,,,,,,,,,,,,,,,,,,,,,,,,,,,,,,
,,,,,,,,,65ca88708a87327cd873ac26,spanish,13 or older,"no, only English or Spanish",yes,2025-07-23_21h59.55.327,empathy_intonation_perc_control,2024.2.4,Win32,60.24096386,65ca88708a87327cd873ac26,68817205a84113384fffdfe3,6881936438a52c1f89bb1731,,,,,,,,,,,,./stim/wavs/castilian_mismatch_declarative-broad-focus_La-nina-lava-el-plato.wav,0,,,87.9128,90.2462,0,1,1.8102,,0,5,5,70,1,71,0,castilian,,,,,,,,,,,,,,,,,,,,,,,,,,,,,,,,,,,,,,,,,,,,,,,,,,,,,,,,
,,,,,,,,,65ca88708a87327cd873ac26,spanish,13 or older,"no, only English or Spanish",yes,2025-07-23_21h59.55.327,empathy_intonation_perc_control,2024.2.4,Win32,60.24096386,65ca88708a87327cd873ac26,68817205a84113384fffdfe3,6881936438a52c1f89bb1731,,,,,,,,,,,,./stim/wavs/castilian_match_declarative-broad-focus_Manuela-vende-el-carro.wav,0,,,90.2483,92.5453,1,0,1.7732,,0,6,6,46,1,47,0,castilian,,,,,,,,,,,,,,,,,,,,,,,,,,,,,,,,,,,,,,,,,,,,,,,,,,,,,,,,
,,,,,,,,,65ca88708a87327cd873ac26,spanish,13 or older,"no, only English or Spanish",yes,2025-07-23_21h59.55.327,empathy_intonation_perc_control,2024.2.4,Win32,60.24096386,65ca88708a87327cd873ac26,68817205a84113384fffdfe3,6881936438a52c1f89bb1731,,,,,,,,,,,,./stim/wavs/mexican_match_interrogative-total-yn_David-leia-el-libro.wav,1,,,92.5465,94.7952,1,1,1.7202,,0,7,7,14,1,15,0,mexican,,,,,,,,,,,,,,,,,,,,,,,,,,,,,,,,,,,,,,,,,,,,,,,,,,,,,,,,
,,,,,,,,,65ca88708a87327cd873ac26,spanish,13 or older,"no, only English or Spanish",yes,2025-07-23_21h59.55.327,empathy_intonation_perc_control,2024.2.4,Win32,60.24096386,65ca88708a87327cd873ac26,68817205a84113384fffdfe3,6881936438a52c1f89bb1731,,,,,,,,,,,,./stim/wavs/castilian_match_interrogative-total-yn_Manuela-vende-el-carro.wav,1,,,94.7964,97.045,1,1,1.7162,,0,8,8,2,1,3,0,castilian,,,,,,,,,,,,,,,,,,,,,,,,,,,,,,,,,,,,,,,,,,,,,,,,,,,,,,,,
,,,,,,,,,65ca88708a87327cd873ac26,spanish,13 or older,"no, only English or Spanish",yes,2025-07-23_21h59.55.327,empathy_intonation_perc_control,2024.2.4,Win32,60.24096386,65ca88708a87327cd873ac26,68817205a84113384fffdfe3,6881936438a52c1f89bb1731,,,,,,,,,,,,./stim/wavs/puertorican_match_declarative-broad-focus_Daniel-iba-a-Bolivia.wav,0,,,97.0456,99.1118,0,1,1.5371,,0,9,9,63,1,64,0,puertorican,,,,,,,,,,,,,,,,,,,,,,,,,,,,,,,,,,,,,,,,,,,,,,,,,,,,,,,,
,,,,,,,,,65ca88708a87327cd873ac26,spanish,13 or older,"no, only English or Spanish",yes,2025-07-23_21h59.55.327,empathy_intonation_perc_control,2024.2.4,Win32,60.24096386,65ca88708a87327cd873ac26,68817205a84113384fffdfe3,6881936438a52c1f89bb1731,,,,,,,,,,,,./stim/wavs/castilian_mismatch_interrogative-total-yn_Mi-madre-come-la-fruta.wav,1,,,99.1125,101.2617,1,1,1.6277,,0,10,10,26,1,27,0,castilian,,,,,,,,,,,,,,,,,,,,,,,,,,,,,,,,,,,,,,,,,,,,,,,,,,,,,,,,
,,,,,,,,,65ca88708a87327cd873ac26,spanish,13 or older,"no, only English or Spanish",yes,2025-07-23_21h59.55.327,empathy_intonation_perc_control,2024.2.4,Win32,60.24096386,65ca88708a87327cd873ac26,68817205a84113384fffdfe3,6881936438a52c1f89bb1731,,,,,,,,,,,,./stim/wavs/mexican_mismatch_declarative-broad-focus_El-hombre-mira-la-luna.wav,0,,,101.2626,103.4118,0,1,1.6218,,0,11,11,79,1,80,0,mexican,,,,,,,,,,,,,,,,,,,,,,,,,,,,,,,,,,,,,,,,,,,,,,,,,,,,,,,,
,,,,,,,,,65ca88708a87327cd873ac26,spanish,13 or older,"no, only English or Spanish",yes,2025-07-23_21h59.55.327,empathy_intonation_perc_control,2024.2.4,Win32,60.24096386,65ca88708a87327cd873ac26,68817205a84113384fffdfe3,6881936438a52c1f89bb1731,,,,,,,,,,,,./stim/wavs/cuban_match_interrogative-total-yn_Manuela-vende-el-carro.wav,1,,,103.4124,105.5618,0,0,1.626,,0,12,12,8,1,9,1,cuban,,,,,,,,,,,,,,,,,,,,,,,,,,,,,,,,,,,,,,,,,,,,,,,,,,,,,,,,
,,,,,,,,,65ca88708a87327cd873ac26,spanish,13 or older,"no, only English or Spanish",yes,2025-07-23_21h59.55.327,empathy_intonation_perc_control,2024.2.4,Win32,60.24096386,65ca88708a87327cd873ac26,68817205a84113384fffdfe3,6881936438a52c1f89bb1731,,,,,,,,,,,,./stim/wavs/mexican_match_interrogative-total-yn_Daniel-iba-a-Bolivia.wav,1,,,105.5627,107.6285,1,1,1.534,,0,13,13,13,1,14,0,mexican,,,,,,,,,,,,,,,,,,,,,,,,,,,,,,,,,,,,,,,,,,,,,,,,,,,,,,,,
,,,,,,,,,65ca88708a87327cd873ac26,spanish,13 or older,"no, only English or Spanish",yes,2025-07-23_21h59.55.327,empathy_intonation_perc_control,2024.2.4,Win32,60.24096386,65ca88708a87327cd873ac26,68817205a84113384fffdfe3,6881936438a52c1f89bb1731,,,,,,,,,,,,./stim/wavs/mexican_mismatch_declarative-broad-focus_La-maestra-vive-en-Paris.wav,0,,,107.6294,109.7121,0,1,1.5513,,0,14,14,80,1,81,0,mexican,,,,,,,,,,,,,,,,,,,,,,,,,,,,,,,,,,,,,,,,,,,,,,,,,,,,,,,,
,,,,,,,,,65ca88708a87327cd873ac26,spanish,13 or older,"no, only English or Spanish",yes,2025-07-23_21h59.55.327,empathy_intonation_perc_control,2024.2.4,Win32,60.24096386,65ca88708a87327cd873ac26,68817205a84113384fffdfe3,6881936438a52c1f89bb1731,,,,,,,,,,,,./stim/wavs/castilian_mismatch_interrogative-total-yn_La-maestra-vive-en-Paris.wav,1,,,109.7131,112.2126,1,1,1.979,,0,15,15,24,1,25,0,castilian,,,,,,,,,,,,,,,,,,,,,,,,,,,,,,,,,,,,,,,,,,,,,,,,,,,,,,,,
,,,,,,,,,65ca88708a87327cd873ac26,spanish,13 or older,"no, only English or Spanish",yes,2025-07-23_21h59.55.327,empathy_intonation_perc_control,2024.2.4,Win32,60.24096386,65ca88708a87327cd873ac26,68817205a84113384fffdfe3,6881936438a52c1f89bb1731,,,,,,,,,,,,./stim/wavs/puertorican_match_declarative-broad-focus_David-leia-el-libro.wav,0,,,112.2148,114.3789,0,1,1.6338,,0,16,16,64,1,65,0,puertorican,,,,,,,,,,,,,,,,,,,,,,,,,,,,,,,,,,,,,,,,,,,,,,,,,,,,,,,,
,,,,,,,,,65ca88708a87327cd873ac26,spanish,13 or older,"no, only English or Spanish",yes,2025-07-23_21h59.55.327,empathy_intonation_perc_control,2024.2.4,Win32,60.24096386,65ca88708a87327cd873ac26,68817205a84113384fffdfe3,6881936438a52c1f89bb1731,,,,,,,,,,,,./stim/wavs/mexican_mismatch_declarative-broad-focus_Mi-tia-odia-la-lluvia.wav,0,,,114.3795,116.4289,0,1,1.5186,,0,17,17,82,1,83,0,mexican,,,,,,,,,,,,,,,,,,,,,,,,,,,,,,,,,,,,,,,,,,,,,,,,,,,,,,,,
,,,,,,,,,65ca88708a87327cd873ac26,spanish,13 or older,"no, only English or Spanish",yes,2025-07-23_21h59.55.327,empathy_intonation_perc_control,2024.2.4,Win32,60.24096386,65ca88708a87327cd873ac26,68817205a84113384fffdfe3,6881936438a52c1f89bb1731,,,,,,,,,,,,./stim/wavs/mexican_mismatch_declarative-broad-focus_Mi-novio-viene-del-lago.wav,0,,,116.4296,118.4124,0,1,1.4519,,0,18,18,81,1,82,0,mexican,,,,,,,,,,,,,,,,,,,,,,,,,,,,,,,,,,,,,,,,,,,,,,,,,,,,,,,,
,,,,,,,,,65ca88708a87327cd873ac26,spanish,13 or older,"no, only English or Spanish",yes,2025-07-23_21h59.55.327,empathy_intonation_perc_control,2024.2.4,Win32,60.24096386,65ca88708a87327cd873ac26,68817205a84113384fffdfe3,6881936438a52c1f89bb1731,,,,,,,,,,,,./stim/wavs/puertorican_match_interrogative-total-yn_Emilio-ama-la-marcha.wav,1,,,118.413,120.4123,1,1,1.477,,0,19,19,21,1,22,1,puertorican,,,,,,,,,,,,,,,,,,,,,,,,,,,,,,,,,,,,,,,,,,,,,,,,,,,,,,,,
,,,,,,,,,65ca88708a87327cd873ac26,spanish,13 or older,"no, only English or Spanish",yes,2025-07-23_21h59.55.327,empathy_intonation_perc_control,2024.2.4,Win32,60.24096386,65ca88708a87327cd873ac26,68817205a84113384fffdfe3,6881936438a52c1f89bb1731,,,,,,,,,,,,./stim/wavs/cuban_mismatch_interrogative-total-yn_Mi-tia-odia-la-lluvia.wav,1,,,120.4131,122.529,0,0,1.585,,0,20,20,33,1,34,1,cuban,,,,,,,,,,,,,,,,,,,,,,,,,,,,,,,,,,,,,,,,,,,,,,,,,,,,,,,,
,,,,,,,,,65ca88708a87327cd873ac26,spanish,13 or older,"no, only English or Spanish",yes,2025-07-23_21h59.55.327,empathy_intonation_perc_control,2024.2.4,Win32,60.24096386,65ca88708a87327cd873ac26,68817205a84113384fffdfe3,6881936438a52c1f89bb1731,,,,,,,,,,,,./stim/wavs/cuban_match_declarative-broad-focus_Manuela-vende-el-carro.wav,0,,,122.5297,124.5123,0,1,1.4588,,0,21,21,52,1,53,0,cuban,,,,,,,,,,,,,,,,,,,,,,,,,,,,,,,,,,,,,,,,,,,,,,,,,,,,,,,,
,,,,,,,,,65ca88708a87327cd873ac26,spanish,13 or older,"no, only English or Spanish",yes,2025-07-23_21h59.55.327,empathy_intonation_perc_control,2024.2.4,Win32,60.24096386,65ca88708a87327cd873ac26,68817205a84113384fffdfe3,6881936438a52c1f89bb1731,,,,,,,,,,,,./stim/wavs/castilian_mismatch_declarative-broad-focus_La-maestra-vive-en-Paris.wav,0,,,124.5129,126.8124,1,0,1.7707,,0,22,22,69,1,70,0,castilian,,,,,,,,,,,,,,,,,,,,,,,,,,,,,,,,,,,,,,,,,,,,,,,,,,,,,,,,
,,,,,,,,,65ca88708a87327cd873ac26,spanish,13 or older,"no, only English or Spanish",yes,2025-07-23_21h59.55.327,empathy_intonation_perc_control,2024.2.4,Win32,60.24096386,65ca88708a87327cd873ac26,68817205a84113384fffdfe3,6881936438a52c1f89bb1731,,,,,,,,,,,,./stim/wavs/cuban_mismatch_declarative-broad-focus_Mi-novio-viene-del-lago.wav,0,,,126.8131,128.9791,0,1,1.6358,,0,23,23,76,1,77,0,cuban,,,,,,,,,,,,,,,,,,,,,,,,,,,,,,,,,,,,,,,,,,,,,,,,,,,,,,,,
,,,,,,,,,65ca88708a87327cd873ac26,spanish,13 or older,"no, only English or Spanish",yes,2025-07-23_21h59.55.327,empathy_intonation_perc_control,2024.2.4,Win32,60.24096386,65ca88708a87327cd873ac26,68817205a84113384fffdfe3,6881936438a52c1f89bb1731,,,,,,,,,,,,./stim/wavs/castilian_match_declarative-broad-focus_Emilio-ama-la-marcha.wav,0,,,128.9811,131.0957,1,0,1.5958,,0,24,24,45,1,46,0,castilian,,,,,,,,,,,,,,,,,,,,,,,,,,,,,,,,,,,,,,,,,,,,,,,,,,,,,,,,
,,,,,,,,,65ca88708a87327cd873ac26,spanish,13 or older,"no, only English or Spanish",yes,2025-07-23_21h59.55.327,empathy_intonation_perc_control,2024.2.4,Win32,60.24096386,65ca88708a87327cd873ac26,68817205a84113384fffdfe3,6881936438a52c1f89bb1731,,,,,,,,,,,,./stim/wavs/puertorican_match_interrogative-total-yn_Maria-bebe-el-vino.wav,1,,,131.0965,132.9126,0,0,1.2826,,0,25,25,23,1,24,1,puertorican,,,,,,,,,,,,,,,,,,,,,,,,,,,,,,,,,,,,,,,,,,,,,,,,,,,,,,,,
,,,,,,,,,65ca88708a87327cd873ac26,spanish,13 or older,"no, only English or Spanish",yes,2025-07-23_21h59.55.327,empathy_intonation_perc_control,2024.2.4,Win32,60.24096386,65ca88708a87327cd873ac26,68817205a84113384fffdfe3,6881936438a52c1f89bb1731,,,,,,,,,,,,./stim/wavs/mexican_match_declarative-broad-focus_Ana-lleva-el-abrigo.wav,0,,,132.9133,134.7626,1,0,1.3205,,0,26,26,56,1,57,0,mexican,,,,,,,,,,,,,,,,,,,,,,,,,,,,,,,,,,,,,,,,,,,,,,,,,,,,,,,,
,,,,,,,,,65ca88708a87327cd873ac26,spanish,13 or older,"no, only English or Spanish",yes,2025-07-23_21h59.55.327,empathy_intonation_perc_control,2024.2.4,Win32,60.24096386,65ca88708a87327cd873ac26,68817205a84113384fffdfe3,6881936438a52c1f89bb1731,,,,,,,,,,,,./stim/wavs/cuban_mismatch_interrogative-total-yn_Mi-madre-come-la-fruta.wav,1,,,134.7635,136.9459,0,0,1.6531,,0,27,27,31,1,32,1,cuban,,,,,,,,,,,,,,,,,,,,,,,,,,,,,,,,,,,,,,,,,,,,,,,,,,,,,,,,
,,,,,,,,,65ca88708a87327cd873ac26,spanish,13 or older,"no, only English or Spanish",yes,2025-07-23_21h59.55.327,empathy_intonation_perc_control,2024.2.4,Win32,60.24096386,65ca88708a87327cd873ac26,68817205a84113384fffdfe3,6881936438a52c1f89bb1731,,,,,,,,,,,,./stim/wavs/cuban_match_interrogative-total-yn_Daniel-iba-a-Bolivia.wav,1,,,136.9468,139.0793,1,1,1.6018,,0,28,28,7,1,8,1,cuban,,,,,,,,,,,,,,,,,,,,,,,,,,,,,,,,,,,,,,,,,,,,,,,,,,,,,,,,
,,,,,,,,,65ca88708a87327cd873ac26,spanish,13 or older,"no, only English or Spanish",yes,2025-07-23_21h59.55.327,empathy_intonation_perc_control,2024.2.4,Win32,60.24096386,65ca88708a87327cd873ac26,68817205a84113384fffdfe3,6881936438a52c1f89bb1731,,,,,,,,,,,,./stim/wavs/puertorican_mismatch_interrogative-total-yn_La-nina-lava-el-plato.wav,1,,,139.0818,141.563,1,1,1.9555,,0,29,29,42,1,43,1,puertorican,,,,,,,,,,,,,,,,,,,,,,,,,,,,,,,,,,,,,,,,,,,,,,,,,,,,,,,,
,,,,,,,,,65ca88708a87327cd873ac26,spanish,13 or older,"no, only English or Spanish",yes,2025-07-23_21h59.55.327,empathy_intonation_perc_control,2024.2.4,Win32,60.24096386,65ca88708a87327cd873ac26,68817205a84113384fffdfe3,6881936438a52c1f89bb1731,,,,,,,,,,,,./stim/wavs/mexican_match_declarative-broad-focus_Emilio-ama-la-marcha.wav,0,,,141.5635,143.6296,1,0,1.5447,,0,30,30,59,1,60,0,mexican,,,,,,,,,,,,,,,,,,,,,,,,,,,,,,,,,,,,,,,,,,,,,,,,,,,,,,,,
,,,,,,,,,65ca88708a87327cd873ac26,spanish,13 or older,"no, only English or Spanish",yes,2025-07-23_21h59.55.327,empathy_intonation_perc_control,2024.2.4,Win32,60.24096386,65ca88708a87327cd873ac26,68817205a84113384fffdfe3,6881936438a52c1f89bb1731,,,,,,,,,,,,./stim/wavs/puertorican_mismatch_interrogative-total-yn_Mi-madre-come-la-fruta.wav,1,,,143.632,145.6462,0,0,1.4909,,0,31,31,43,1,44,1,puertorican,,,,,,,,,,,,,,,,,,,,,,,,,,,,,,,,,,,,,,,,,,,,,,,,,,,,,,,,
,,,,,,,,,65ca88708a87327cd873ac26,spanish,13 or older,"no, only English or Spanish",yes,2025-07-23_21h59.55.327,empathy_intonation_perc_control,2024.2.4,Win32,60.24096386,65ca88708a87327cd873ac26,68817205a84113384fffdfe3,6881936438a52c1f89bb1731,,,,,,,,,,,,./stim/wavs/puertorican_mismatch_declarative-broad-focus_La-nina-lava-el-plato.wav,0,,,145.647,147.5464,1,0,1.3673,,0,32,32,87,1,88,0,puertorican,,,,,,,,,,,,,,,,,,,,,,,,,,,,,,,,,,,,,,,,,,,,,,,,,,,,,,,,
,,,,,,,,,65ca88708a87327cd873ac26,spanish,13 or older,"no, only English or Spanish",yes,2025-07-23_21h59.55.327,empathy_intonation_perc_control,2024.2.4,Win32,60.24096386,65ca88708a87327cd873ac26,68817205a84113384fffdfe3,6881936438a52c1f89bb1731,,,,,,,,,,,,./stim/wavs/puertorican_match_declarative-broad-focus_Emilio-ama-la-marcha.wav,0,,,147.5473,149.2963,0,1,1.2194,,0,33,33,65,1,66,0,puertorican,,,,,,,,,,,,,,,,,,,,,,,,,,,,,,,,,,,,,,,,,,,,,,,,,,,,,,,,
,,,,,,,,,65ca88708a87327cd873ac26,spanish,13 or older,"no, only English or Spanish",yes,2025-07-23_21h59.55.327,empathy_intonation_perc_control,2024.2.4,Win32,60.24096386,65ca88708a87327cd873ac26,68817205a84113384fffdfe3,6881936438a52c1f89bb1731,,,,,,,,,,,,./stim/wavs/mexican_match_interrogative-total-yn_Marta-abre-el-regalo.wav,1,,,149.2968,151.0296,1,1,1.2016,,0,34,34,17,1,18,0,mexican,,,,,,,,,,,,,,,,,,,,,,,,,,,,,,,,,,,,,,,,,,,,,,,,,,,,,,,,
,,,,,,,,,65ca88708a87327cd873ac26,spanish,13 or older,"no, only English or Spanish",yes,2025-07-23_21h59.55.327,empathy_intonation_perc_control,2024.2.4,Win32,60.24096386,65ca88708a87327cd873ac26,68817205a84113384fffdfe3,6881936438a52c1f89bb1731,,,,,,,,,,,,./stim/wavs/puertorican_mismatch_interrogative-total-yn_El-hombre-mira-la-luna.wav,1,,,151.0307,152.963,0,0,1.4004,,0,35,35,39,1,40,1,puertorican,,,,,,,,,,,,,,,,,,,,,,,,,,,,,,,,,,,,,,,,,,,,,,,,,,,,,,,,
,,,,,,,,,65ca88708a87327cd873ac26,spanish,13 or older,"no, only English or Spanish",yes,2025-07-23_21h59.55.327,empathy_intonation_perc_control,2024.2.4,Win32,60.24096386,65ca88708a87327cd873ac26,68817205a84113384fffdfe3,6881936438a52c1f89bb1731,,,,,,,,,,,,./stim/wavs/mexican_match_interrogative-total-yn_Ana-lleva-el-abrigo.wav,1,,,152.9637,154.9299,1,1,1.4433,,0,36,36,12,1,13,0,mexican,,,,,,,,,,,,,,,,,,,,,,,,,,,,,,,,,,,,,,,,,,,,,,,,,,,,,,,,
,,,,,,,,,65ca88708a87327cd873ac26,spanish,13 or older,"no, only English or Spanish",yes,2025-07-23_21h59.55.327,empathy_intonation_perc_control,2024.2.4,Win32,60.24096386,65ca88708a87327cd873ac26,68817205a84113384fffdfe3,6881936438a52c1f89bb1731,,,,,,,,,,,,./stim/wavs/puertorican_mismatch_declarative-broad-focus_La-maestra-vive-en-Paris.wav,0,,,154.9307,157.0132,0,1,1.5576,,0,37,37,86,1,87,0,puertorican,,,,,,,,,,,,,,,,,,,,,,,,,,,,,,,,,,,,,,,,,,,,,,,,,,,,,,,,
,,,,,,,,,65ca88708a87327cd873ac26,spanish,13 or older,"no, only English or Spanish",yes,2025-07-23_21h59.55.327,empathy_intonation_perc_control,2024.2.4,Win32,60.24096386,65ca88708a87327cd873ac26,68817205a84113384fffdfe3,6881936438a52c1f89bb1731,,,,,,,,,,,,./stim/wavs/castilian_match_interrogative-total-yn_Emilio-ama-la-marcha.wav,1,,,157.0141,158.83,1,1,1.2916,,0,38,38,1,1,2,0,castilian,,,,,,,,,,,,,,,,,,,,,,,,,,,,,,,,,,,,,,,,,,,,,,,,,,,,,,,,
,,,,,,,,,65ca88708a87327cd873ac26,spanish,13 or older,"no, only English or Spanish",yes,2025-07-23_21h59.55.327,empathy_intonation_perc_control,2024.2.4,Win32,60.24096386,65ca88708a87327cd873ac26,68817205a84113384fffdfe3,6881936438a52c1f89bb1731,,,,,,,,,,,,./stim/wavs/puertorican_match_interrogative-total-yn_David-leia-el-libro.wav,1,,,158.8306,160.7634,0,0,1.4026,,0,39,39,20,1,21,1,puertorican,,,,,,,,,,,,,,,,,,,,,,,,,,,,,,,,,,,,,,,,,,,,,,,,,,,,,,,,
,,,,,,,,,65ca88708a87327cd873ac26,spanish,13 or older,"no, only English or Spanish",yes,2025-07-23_21h59.55.327,empathy_intonation_perc_control,2024.2.4,Win32,60.24096386,65ca88708a87327cd873ac26,68817205a84113384fffdfe3,6881936438a52c1f89bb1731,,,,,,,,,,,,./stim/wavs/mexican_mismatch_interrogative-total-yn_El-hombre-mira-la-luna.wav,1,,,160.7642,162.6971,1,1,1.4123,,0,40,40,34,1,35,0,mexican,,,,,,,,,,,,,,,,,,,,,,,,,,,,,,,,,,,,,,,,,,,,,,,,,,,,,,,,
,,,,,,,,,65ca88708a87327cd873ac26,spanish,13 or older,"no, only English or Spanish",yes,2025-07-23_21h59.55.327,empathy_intonation_perc_control,2024.2.4,Win32,60.24096386,65ca88708a87327cd873ac26,68817205a84113384fffdfe3,6881936438a52c1f89bb1731,,,,,,,,,,,,./stim/wavs/cuban_mismatch_interrogative-total-yn_Mi-novio-viene-del-lago.wav,1,,,162.6977,164.5636,0,0,1.3379,,0,41,41,32,1,33,1,cuban,,,,,,,,,,,,,,,,,,,,,,,,,,,,,,,,,,,,,,,,,,,,,,,,,,,,,,,,
,,,,,,,,,65ca88708a87327cd873ac26,spanish,13 or older,"no, only English or Spanish",yes,2025-07-23_21h59.55.327,empathy_intonation_perc_control,2024.2.4,Win32,60.24096386,65ca88708a87327cd873ac26,68817205a84113384fffdfe3,6881936438a52c1f89bb1731,,,,,,,,,,,,./stim/wavs/castilian_mismatch_declarative-broad-focus_Mi-tia-odia-la-lluvia.wav,0,,,164.5641,166.2805,1,0,1.1886,,0,42,42,72,1,73,0,castilian,,,,,,,,,,,,,,,,,,,,,,,,,,,,,,,,,,,,,,,,,,,,,,,,,,,,,,,,
,,,,,,,,,65ca88708a87327cd873ac26,spanish,13 or older,"no, only English or Spanish",yes,2025-07-23_21h59.55.327,empathy_intonation_perc_control,2024.2.4,Win32,60.24096386,65ca88708a87327cd873ac26,68817205a84113384fffdfe3,6881936438a52c1f89bb1731,,,,,,,,,,,,./stim/wavs/castilian_match_interrogative-total-yn_Mariano-habla-del-tiempo.wav,1,,,166.2822,168.7135,1,1,1.9045,,0,43,43,4,1,5,0,castilian,,,,,,,,,,,,,,,,,,,,,,,,,,,,,,,,,,,,,,,,,,,,,,,,,,,,,,,,
,,,,,,,,,65ca88708a87327cd873ac26,spanish,13 or older,"no, only English or Spanish",yes,2025-07-23_21h59.55.327,empathy_intonation_perc_control,2024.2.4,Win32,60.24096386,65ca88708a87327cd873ac26,68817205a84113384fffdfe3,6881936438a52c1f89bb1731,,,,,,,,,,,,./stim/wavs/mexican_mismatch_interrogative-total-yn_La-maestra-vive-en-Paris.wav,1,,,168.7142,170.7469,1,1,1.5085,,0,44,44,36,1,37,0,mexican,,,,,,,,,,,,,,,,,,,,,,,,,,,,,,,,,,,,,,,,,,,,,,,,,,,,,,,,
,,,,,,,,,65ca88708a87327cd873ac26,spanish,13 or older,"no, only English or Spanish",yes,2025-07-23_21h59.55.327,empathy_intonation_perc_control,2024.2.4,Win32,60.24096386,65ca88708a87327cd873ac26,68817205a84113384fffdfe3,6881936438a52c1f89bb1731,,,,,,,,,,,,./stim/wavs/puertorican_mismatch_declarative-broad-focus_El-nino-oye-el-rio.wav,0,,,170.7478,172.6469,0,1,1.3746,,0,45,45,85,1,86,0,puertorican,,,,,,,,,,,,,,,,,,,,,,,,,,,,,,,,,,,,,,,,,,,,,,,,,,,,,,,,
,,,,,,,,,65ca88708a87327cd873ac26,spanish,13 or older,"no, only English or Spanish",yes,2025-07-23_21h59.55.327,empathy_intonation_perc_control,2024.2.4,Win32,60.24096386,65ca88708a87327cd873ac26,68817205a84113384fffdfe3,6881936438a52c1f89bb1731,,,,,,,,,,,,./stim/wavs/puertorican_match_interrogative-total-yn_Daniel-iba-a-Bolivia.wav,1,,,172.6475,174.6969,0,0,1.5192,,0,46,46,19,1,20,1,puertorican,,,,,,,,,,,,,,,,,,,,,,,,,,,,,,,,,,,,,,,,,,,,,,,,,,,,,,,,
,,,,,,,,,65ca88708a87327cd873ac26,spanish,13 or older,"no, only English or Spanish",yes,2025-07-23_21h59.55.327,empathy_intonation_perc_control,2024.2.4,Win32,60.24096386,65ca88708a87327cd873ac26,68817205a84113384fffdfe3,6881936438a52c1f89bb1731,,,,,,,,,,,,./stim/wavs/mexican_mismatch_interrogative-total-yn_Mi-novio-viene-del-lago.wav,1,,,174.6976,176.6484,1,1,1.4264,,0,47,47,37,1,38,0,mexican,,,,,,,,,,,,,,,,,,,,,,,,,,,,,,,,,,,,,,,,,,,,,,,,,,,,,,,,
,,,,,,,,,65ca88708a87327cd873ac26,spanish,13 or older,"no, only English or Spanish",yes,2025-07-23_21h59.55.327,empathy_intonation_perc_control,2024.2.4,Win32,60.24096386,65ca88708a87327cd873ac26,68817205a84113384fffdfe3,6881936438a52c1f89bb1731,,,,,,,,,,,,./stim/wavs/mexican_mismatch_interrogative-total-yn_El-nino-oye-el-rio.wav,1,,,176.6494,178.5472,1,1,1.3717,,0,48,48,35,1,36,0,mexican,,,,,,,,,,,,,,,,,,,,,,,,,,,,,,,,,,,,,,,,,,,,,,,,,,,,,,,,
,,,,,,,,,65ca88708a87327cd873ac26,spanish,13 or older,"no, only English or Spanish",yes,2025-07-23_21h59.55.327,empathy_intonation_perc_control,2024.2.4,Win32,60.24096386,65ca88708a87327cd873ac26,68817205a84113384fffdfe3,6881936438a52c1f89bb1731,,,,,,,,,,,,./stim/wavs/mexican_mismatch_interrogative-total-yn_Mi-tia-odia-la-lluvia.wav,1,,,178.5482,180.5306,0,0,1.4581,,0,49,49,38,1,39,0,mexican,,,,,,,,,,,,,,,,,,,,,,,,,,,,,,,,,,,,,,,,,,,,,,,,,,,,,,,,
,,,,,,,,,65ca88708a87327cd873ac26,spanish,13 or older,"no, only English or Spanish",yes,2025-07-23_21h59.55.327,empathy_intonation_perc_control,2024.2.4,Win32,60.24096386,65ca88708a87327cd873ac26,68817205a84113384fffdfe3,6881936438a52c1f89bb1731,,,,,,,,,,,,./stim/wavs/cuban_mismatch_declarative-broad-focus_El-hombre-mira-la-luna.wav,0,,,180.5313,182.5321,0,1,1.4708,,0,50,50,74,1,75,0,cuban,,,,,,,,,,,,,,,,,,,,,,,,,,,,,,,,,,,,,,,,,,,,,,,,,,,,,,,,
,,,,,,,,,65ca88708a87327cd873ac26,spanish,13 or older,"no, only English or Spanish",yes,2025-07-23_21h59.55.327,empathy_intonation_perc_control,2024.2.4,Win32,60.24096386,65ca88708a87327cd873ac26,68817205a84113384fffdfe3,6881936438a52c1f89bb1731,,,,,,,,,,,,./stim/wavs/mexican_match_interrogative-total-yn_Emilio-ama-la-marcha.wav,1,,,182.5341,184.5811,1,1,1.5193,,0,51,51,15,1,16,0,mexican,,,,,,,,,,,,,,,,,,,,,,,,,,,,,,,,,,,,,,,,,,,,,,,,,,,,,,,,
,,,,,,,,,65ca88708a87327cd873ac26,spanish,13 or older,"no, only English or Spanish",yes,2025-07-23_21h59.55.327,empathy_intonation_perc_control,2024.2.4,Win32,60.24096386,65ca88708a87327cd873ac26,68817205a84113384fffdfe3,6881936438a52c1f89bb1731,,,,,,,,,,,,./stim/wavs/castilian_mismatch_interrogative-total-yn_La-nina-lava-el-plato.wav,1,,,184.5821,185.6142,1,1,0.5226,,0,52,52,25,1,26,0,castilian,,,,,,,,,,,,,,,,,,,,,,,,,,,,,,,,,,,,,,,,,,,,,,,,,,,,,,,,
,,,,,,,,,65ca88708a87327cd873ac26,spanish,13 or older,"no, only English or Spanish",yes,2025-07-23_21h59.55.327,empathy_intonation_perc_control,2024.2.4,Win32,60.24096386,65ca88708a87327cd873ac26,68817205a84113384fffdfe3,6881936438a52c1f89bb1731,,,,,,,,,,,,./stim/wavs/mexican_mismatch_declarative-broad-focus_El-bebe-comia-muy-bien.wav,0,,,185.615,187.682,0,1,1.5503,,0,53,53,78,1,79,0,mexican,,,,,,,,,,,,,,,,,,,,,,,,,,,,,,,,,,,,,,,,,,,,,,,,,,,,,,,,
,,,,,,,,,65ca88708a87327cd873ac26,spanish,13 or older,"no, only English or Spanish",yes,2025-07-23_21h59.55.327,empathy_intonation_perc_control,2024.2.4,Win32,60.24096386,65ca88708a87327cd873ac26,68817205a84113384fffdfe3,6881936438a52c1f89bb1731,,,,,,,,,,,,./stim/wavs/puertorican_mismatch_declarative-broad-focus_El-hombre-mira-la-luna.wav,0,,,187.6831,190.4482,0,1,2.2407,,0,54,54,84,1,85,0,puertorican,,,,,,,,,,,,,,,,,,,,,,,,,,,,,,,,,,,,,,,,,,,,,,,,,,,,,,,,
,,,,,,,,,65ca88708a87327cd873ac26,spanish,13 or older,"no, only English or Spanish",yes,2025-07-23_21h59.55.327,empathy_intonation_perc_control,2024.2.4,Win32,60.24096386,65ca88708a87327cd873ac26,68817205a84113384fffdfe3,6881936438a52c1f89bb1731,,,,,,,,,,,,./stim/wavs/puertorican_match_declarative-broad-focus_Manuela-vende-el-carro.wav,0,,,190.4511,192.9352,0,1,1.9643,,0,55,55,66,1,67,0,puertorican,,,,,,,,,,,,,,,,,,,,,,,,,,,,,,,,,,,,,,,,,,,,,,,,,,,,,,,,
,,,,,,,,,65ca88708a87327cd873ac26,spanish,13 or older,"no, only English or Spanish",yes,2025-07-23_21h59.55.327,empathy_intonation_perc_control,2024.2.4,Win32,60.24096386,65ca88708a87327cd873ac26,68817205a84113384fffdfe3,6881936438a52c1f89bb1731,,,,,,,,,,,,./stim/wavs/mexican_match_declarative-broad-focus_Mariano-habla-del-tiempo.wav,0,,,192.9358,195.0648,0,1,1.61,,0,56,56,60,1,61,0,mexican,,,,,,,,,,,,,,,,,,,,,,,,,,,,,,,,,,,,,,,,,,,,,,,,,,,,,,,,
,,,,,,,,,65ca88708a87327cd873ac26,spanish,13 or older,"no, only English or Spanish",yes,2025-07-23_21h59.55.327,empathy_intonation_perc_control,2024.2.4,Win32,60.24096386,65ca88708a87327cd873ac26,68817205a84113384fffdfe3,6881936438a52c1f89bb1731,,,,,,,,,,,,./stim/wavs/cuban_match_declarative-broad-focus_Daniel-iba-a-Bolivia.wav,0,,,195.0666,197.7651,0,1,2.1694,,0,57,57,51,1,52,0,cuban,,,,,,,,,,,,,,,,,,,,,,,,,,,,,,,,,,,,,,,,,,,,,,,,,,,,,,,,
,,,,,,,,,65ca88708a87327cd873ac26,spanish,13 or older,"no, only English or Spanish",yes,2025-07-23_21h59.55.327,empathy_intonation_perc_control,2024.2.4,Win32,60.24096386,65ca88708a87327cd873ac26,68817205a84113384fffdfe3,6881936438a52c1f89bb1731,,,,,,,,,,,,./stim/wavs/castilian_match_declarative-broad-focus_Mariano-habla-del-tiempo.wav,0,,,197.7666,200.235,0,1,1.9468,,0,58,58,48,1,49,0,castilian,,,,,,,,,,,,,,,,,,,,,,,,,,,,,,,,,,,,,,,,,,,,,,,,,,,,,,,,
,,,,,,,,,65ca88708a87327cd873ac26,spanish,13 or older,"no, only English or Spanish",yes,2025-07-23_21h59.55.327,empathy_intonation_perc_control,2024.2.4,Win32,60.24096386,65ca88708a87327cd873ac26,68817205a84113384fffdfe3,6881936438a52c1f89bb1731,,,,,,,,,,,,./stim/wavs/cuban_match_interrogative-total-yn_Maria-bebe-el-vino.wav,1,,,200.2357,203.282,1,1,2.5257,,0,59,59,9,1,10,1,cuban,,,,,,,,,,,,,,,,,,,,,,,,,,,,,,,,,,,,,,,,,,,,,,,,,,,,,,,,
,,,,,,,,,65ca88708a87327cd873ac26,spanish,13 or older,"no, only English or Spanish",yes,2025-07-23_21h59.55.327,empathy_intonation_perc_control,2024.2.4,Win32,60.24096386,65ca88708a87327cd873ac26,68817205a84113384fffdfe3,6881936438a52c1f89bb1731,,,,,,,,,,,,./stim/wavs/cuban_mismatch_declarative-broad-focus_La-nina-lava-el-plato.wav,0,,,203.2844,205.4347,0,1,1.629,,0,60,60,75,1,76,0,cuban,,,,,,,,,,,,,,,,,,,,,,,,,,,,,,,,,,,,,,,,,,,,,,,,,,,,,,,,
,,,,,,,,,65ca88708a87327cd873ac26,spanish,13 or older,"no, only English or Spanish",yes,2025-07-23_21h59.55.327,empathy_intonation_perc_control,2024.2.4,Win32,60.24096386,65ca88708a87327cd873ac26,68817205a84113384fffdfe3,6881936438a52c1f89bb1731,,,,,,,,,,,,./stim/wavs/puertorican_mismatch_interrogative-total-yn_La-maestra-vive-en-Paris.wav,1,,,205.4355,207.5816,1,1,1.6178,,0,61,61,41,1,42,1,puertorican,,,,,,,,,,,,,,,,,,,,,,,,,,,,,,,,,,,,,,,,,,,,,,,,,,,,,,,,
,,,,,,,,,65ca88708a87327cd873ac26,spanish,13 or older,"no, only English or Spanish",yes,2025-07-23_21h59.55.327,empathy_intonation_perc_control,2024.2.4,Win32,60.24096386,65ca88708a87327cd873ac26,68817205a84113384fffdfe3,6881936438a52c1f89bb1731,,,,,,,,,,,,./stim/wavs/mexican_match_declarative-broad-focus_Daniel-iba-a-Bolivia.wav,0,,,207.5835,209.7986,0,1,1.6856,,0,62,62,57,1,58,0,mexican,,,,,,,,,,,,,,,,,,,,,,,,,,,,,,,,,,,,,,,,,,,,,,,,,,,,,,,,
,,,,,,,,,65ca88708a87327cd873ac26,spanish,13 or older,"no, only English or Spanish",yes,2025-07-23_21h59.55.327,empathy_intonation_perc_control,2024.2.4,Win32,60.24096386,65ca88708a87327cd873ac26,68817205a84113384fffdfe3,6881936438a52c1f89bb1731,,,,,,,,,,,,./stim/wavs/mexican_match_interrogative-total-yn_Mariano-habla-del-tiempo.wav,1,,,209.8007,212.0504,1,1,1.7276,,0,63,63,16,1,17,0,mexican,,,,,,,,,,,,,,,,,,,,,,,,,,,,,,,,,,,,,,,,,,,,,,,,,,,,,,,,
,,,,,,,,,65ca88708a87327cd873ac26,spanish,13 or older,"no, only English or Spanish",yes,2025-07-23_21h59.55.327,empathy_intonation_perc_control,2024.2.4,Win32,60.24096386,65ca88708a87327cd873ac26,68817205a84113384fffdfe3,6881936438a52c1f89bb1731,,,,,,,,,,,,./stim/wavs/castilian_mismatch_declarative-broad-focus_El-nino-oye-el-rio.wav,0,,,212.0516,214.4316,1,0,1.8506,,0,64,64,68,1,69,0,castilian,,,,,,,,,,,,,,,,,,,,,,,,,,,,,,,,,,,,,,,,,,,,,,,,,,,,,,,,
,,,,,,,,,65ca88708a87327cd873ac26,spanish,13 or older,"no, only English or Spanish",yes,2025-07-23_21h59.55.327,empathy_intonation_perc_control,2024.2.4,Win32,60.24096386,65ca88708a87327cd873ac26,68817205a84113384fffdfe3,6881936438a52c1f89bb1731,,,,,,,,,,,,./stim/wavs/cuban_mismatch_interrogative-total-yn_El-nino-oye-el-rio.wav,1,,,214.4326,216.2156,1,1,1.2683,,0,65,65,30,1,31,1,cuban,,,,,,,,,,,,,,,,,,,,,,,,,,,,,,,,,,,,,,,,,,,,,,,,,,,,,,,,
,,,,,,,,,65ca88708a87327cd873ac26,spanish,13 or older,"no, only English or Spanish",yes,2025-07-23_21h59.55.327,empathy_intonation_perc_control,2024.2.4,Win32,60.24096386,65ca88708a87327cd873ac26,68817205a84113384fffdfe3,6881936438a52c1f89bb1731,,,,,,,,,,,,./stim/wavs/puertorican_match_declarative-broad-focus_Maria-bebe-el-vino.wav,0,,,216.2168,217.749,0,1,1.0052,,0,66,66,67,1,68,0,puertorican,,,,,,,,,,,,,,,,,,,,,,,,,,,,,,,,,,,,,,,,,,,,,,,,,,,,,,,,
,,,,,,,,,65ca88708a87327cd873ac26,spanish,13 or older,"no, only English or Spanish",yes,2025-07-23_21h59.55.327,empathy_intonation_perc_control,2024.2.4,Win32,60.24096386,65ca88708a87327cd873ac26,68817205a84113384fffdfe3,6881936438a52c1f89bb1731,,,,,,,,,,,,./stim/wavs/cuban_match_declarative-broad-focus_Maria-bebe-el-vino.wav,0,,,217.7518,219.5156,1,0,1.2375,,0,67,67,53,1,54,0,cuban,,,,,,,,,,,,,,,,,,,,,,,,,,,,,,,,,,,,,,,,,,,,,,,,,,,,,,,,
,,,,,,,,,65ca88708a87327cd873ac26,spanish,13 or older,"no, only English or Spanish",yes,2025-07-23_21h59.55.327,empathy_intonation_perc_control,2024.2.4,Win32,60.24096386,65ca88708a87327cd873ac26,68817205a84113384fffdfe3,6881936438a52c1f89bb1731,,,,,,,,,,,,./stim/wavs/cuban_match_declarative-broad-focus_Ana-lleva-el-abrigo.wav,0,,,219.5176,222.299,0,1,2.2591,,0,68,68,50,1,51,0,cuban,,,,,,,,,,,,,,,,,,,,,,,,,,,,,,,,,,,,,,,,,,,,,,,,,,,,,,,,
,,,,,,,,,65ca88708a87327cd873ac26,spanish,13 or older,"no, only English or Spanish",yes,2025-07-23_21h59.55.327,empathy_intonation_perc_control,2024.2.4,Win32,60.24096386,65ca88708a87327cd873ac26,68817205a84113384fffdfe3,6881936438a52c1f89bb1731,,,,,,,,,,,,./stim/wavs/castilian_match_interrogative-total-yn_Maria-bebe-el-vino.wav,1,,,222.3014,224.5326,1,1,1.7009,,0,69,69,3,1,4,0,castilian,,,,,,,,,,,,,,,,,,,,,,,,,,,,,,,,,,,,,,,,,,,,,,,,,,,,,,,,
,,,,,,,,,65ca88708a87327cd873ac26,spanish,13 or older,"no, only English or Spanish",yes,2025-07-23_21h59.55.327,empathy_intonation_perc_control,2024.2.4,Win32,60.24096386,65ca88708a87327cd873ac26,68817205a84113384fffdfe3,6881936438a52c1f89bb1731,,,,,,,,,,,,./stim/wavs/castilian_match_declarative-broad-focus_David-leia-el-libro.wav,0,,,224.5344,226.9195,0,1,1.8641,,0,70,70,44,1,45,0,castilian,,,,,,,,,,,,,,,,,,,,,,,,,,,,,,,,,,,,,,,,,,,,,,,,,,,,,,,,
,,,,,,,,,65ca88708a87327cd873ac26,spanish,13 or older,"no, only English or Spanish",yes,2025-07-23_21h59.55.327,empathy_intonation_perc_control,2024.2.4,Win32,60.24096386,65ca88708a87327cd873ac26,68817205a84113384fffdfe3,6881936438a52c1f89bb1731,,,,,,,,,,,,./stim/wavs/cuban_match_interrogative-total-yn_Mariano-habla-del-tiempo.wav,1,,,226.9202,228.9993,1,1,1.5528,,0,71,71,10,1,11,1,cuban,,,,,,,,,,,,,,,,,,,,,,,,,,,,,,,,,,,,,,,,,,,,,,,,,,,,,,,,
,,,,,,,,,65ca88708a87327cd873ac26,spanish,13 or older,"no, only English or Spanish",yes,2025-07-23_21h59.55.327,empathy_intonation_perc_control,2024.2.4,Win32,60.24096386,65ca88708a87327cd873ac26,68817205a84113384fffdfe3,6881936438a52c1f89bb1731,,,,,,,,,,,,./stim/wavs/mexican_match_declarative-broad-focus_Marta-abre-el-regalo.wav,0,,,229.0021,230.919,1,0,1.3972,,0,72,72,61,1,62,0,mexican,,,,,,,,,,,,,,,,,,,,,,,,,,,,,,,,,,,,,,,,,,,,,,,,,,,,,,,,
,,,,,,,,,65ca88708a87327cd873ac26,spanish,13 or older,"no, only English or Spanish",yes,2025-07-23_21h59.55.327,empathy_intonation_perc_control,2024.2.4,Win32,60.24096386,65ca88708a87327cd873ac26,68817205a84113384fffdfe3,6881936438a52c1f89bb1731,,,,,,,,,,,,./stim/wavs/castilian_match_declarative-broad-focus_Maria-bebe-el-vino.wav,0,,,230.92,232.9994,0,1,1.5529,,0,73,73,47,1,48,0,castilian,,,,,,,,,,,,,,,,,,,,,,,,,,,,,,,,,,,,,,,,,,,,,,,,,,,,,,,,
,,,,,,,,,65ca88708a87327cd873ac26,spanish,13 or older,"no, only English or Spanish",yes,2025-07-23_21h59.55.327,empathy_intonation_perc_control,2024.2.4,Win32,60.24096386,65ca88708a87327cd873ac26,68817205a84113384fffdfe3,6881936438a52c1f89bb1731,,,,,,,,,,,,./stim/wavs/cuban_match_interrogative-total-yn_Ana-lleva-el-abrigo.wav,1,,,233.0016,234.884,1,1,1.3614,,0,74,74,6,1,7,1,cuban,,,,,,,,,,,,,,,,,,,,,,,,,,,,,,,,,,,,,,,,,,,,,,,,,,,,,,,,
,,,,,,,,,65ca88708a87327cd873ac26,spanish,13 or older,"no, only English or Spanish",yes,2025-07-23_21h59.55.327,empathy_intonation_perc_control,2024.2.4,Win32,60.24096386,65ca88708a87327cd873ac26,68817205a84113384fffdfe3,6881936438a52c1f89bb1731,,,,,,,,,,,,./stim/wavs/puertorican_match_interrogative-total-yn_Ana-lleva-el-abrigo.wav,1,,,234.8854,236.7188,1,1,1.3131,,0,75,75,18,1,19,1,puertorican,,,,,,,,,,,,,,,,,,,,,,,,,,,,,,,,,,,,,,,,,,,,,,,,,,,,,,,,
,,,,,,,,,65ca88708a87327cd873ac26,spanish,13 or older,"no, only English or Spanish",yes,2025-07-23_21h59.55.327,empathy_intonation_perc_control,2024.2.4,Win32,60.24096386,65ca88708a87327cd873ac26,68817205a84113384fffdfe3,6881936438a52c1f89bb1731,,,,,,,,,,,,./stim/wavs/cuban_mismatch_declarative-broad-focus_El-bebe-comia-muy-bien.wav,0,,,236.7194,239.1834,0,1,1.9439,,0,76,76,73,1,74,0,cuban,,,,,,,,,,,,,,,,,,,,,,,,,,,,,,,,,,,,,,,,,,,,,,,,,,,,,,,,
,,,,,,,,,65ca88708a87327cd873ac26,spanish,13 or older,"no, only English or Spanish",yes,2025-07-23_21h59.55.327,empathy_intonation_perc_control,2024.2.4,Win32,60.24096386,65ca88708a87327cd873ac26,68817205a84113384fffdfe3,6881936438a52c1f89bb1731,,,,,,,,,,,,./stim/wavs/puertorican_match_interrogative-total-yn_Manuela-vende-el-carro.wav,1,,,239.1858,241.1657,1,1,1.4593,,0,77,77,22,1,23,1,puertorican,,,,,,,,,,,,,,,,,,,,,,,,,,,,,,,,,,,,,,,,,,,,,,,,,,,,,,,,
,,,,,,,,,65ca88708a87327cd873ac26,spanish,13 or older,"no, only English or Spanish",yes,2025-07-23_21h59.55.327,empathy_intonation_perc_control,2024.2.4,Win32,60.24096386,65ca88708a87327cd873ac26,68817205a84113384fffdfe3,6881936438a52c1f89bb1731,,,,,,,,,,,,./stim/wavs/castilian_mismatch_interrogative-total-yn_Mi-tia-odia-la-lluvia.wav,1,,,241.1668,243.3009,0,0,1.6024,,0,78,78,28,1,29,0,castilian,,,,,,,,,,,,,,,,,,,,,,,,,,,,,,,,,,,,,,,,,,,,,,,,,,,,,,,,
,,,,,,,,,65ca88708a87327cd873ac26,spanish,13 or older,"no, only English or Spanish",yes,2025-07-23_21h59.55.327,empathy_intonation_perc_control,2024.2.4,Win32,60.24096386,65ca88708a87327cd873ac26,68817205a84113384fffdfe3,6881936438a52c1f89bb1731,,,,,,,,,,,,./stim/wavs/puertorican_mismatch_declarative-broad-focus_El-bebe-comia-muy-bien.wav,0,,,243.3027,244.7998,1,0,0.9674,,0,79,79,83,1,84,0,puertorican,,,,,,,,,,,,,,,,,,,,,,,,,,,,,,,,,,,,,,,,,,,,,,,,,,,,,,,,
,,,,,,,,,65ca88708a87327cd873ac26,spanish,13 or older,"no, only English or Spanish",yes,2025-07-23_21h59.55.327,empathy_intonation_perc_control,2024.2.4,Win32,60.24096386,65ca88708a87327cd873ac26,68817205a84113384fffdfe3,6881936438a52c1f89bb1731,,,,,,,,,,,,./stim/wavs/cuban_match_declarative-broad-focus_Marta-abre-el-regalo.wav,0,,,244.8014,247.9511,0,1,2.6381,,0,80,80,55,1,56,0,cuban,,,,,,,,,,,,,,,,,,,,,,,,,,,,,,,,,,,,,,,,,,,,,,,,,,,,,,,,
,,,,,,,,,65ca88708a87327cd873ac26,spanish,13 or older,"no, only English or Spanish",yes,2025-07-23_21h59.55.327,empathy_intonation_perc_control,2024.2.4,Win32,60.24096386,65ca88708a87327cd873ac26,68817205a84113384fffdfe3,6881936438a52c1f89bb1731,,,,,,,,,,,,./stim/wavs/castilian_mismatch_declarative-broad-focus_Mi-novio-viene-del-lago.wav,0,,,247.9526,250.4833,0,1,2.0107,,0,81,81,71,1,72,0,castilian,,,,,,,,,,,,,,,,,,,,,,,,,,,,,,,,,,,,,,,,,,,,,,,,,,,,,,,,
,,,,,,,,,65ca88708a87327cd873ac26,spanish,13 or older,"no, only English or Spanish",yes,2025-07-23_21h59.55.327,empathy_intonation_perc_control,2024.2.4,Win32,60.24096386,65ca88708a87327cd873ac26,68817205a84113384fffdfe3,6881936438a52c1f89bb1731,,,,,,,,,,,,./stim/wavs/cuban_mismatch_interrogative-total-yn_El-hombre-mira-la-luna.wav,1,,,250.4847,252.2663,1,1,1.2558,,0,82,82,29,1,30,1,cuban,,,,,,,,,,,,,,,,,,,,,,,,,,,,,,,,,,,,,,,,,,,,,,,,,,,,,,,,
,,,,,,,,,65ca88708a87327cd873ac26,spanish,13 or older,"no, only English or Spanish",yes,2025-07-23_21h59.55.327,empathy_intonation_perc_control,2024.2.4,Win32,60.24096386,65ca88708a87327cd873ac26,68817205a84113384fffdfe3,6881936438a52c1f89bb1731,,,,,,,,,,,,./stim/wavs/mexican_match_declarative-broad-focus_David-leia-el-libro.wav,0,,,252.2685,254.5373,0,1,1.7478,,0,83,83,58,1,59,0,mexican,,,,,,,,,,,,,,,,,,,,,,,,,,,,,,,,,,,,,,,,,,,,,,,,,,,,,,,,
,,,,,,,,,65ca88708a87327cd873ac26,spanish,13 or older,"no, only English or Spanish",yes,2025-07-23_21h59.55.327,empathy_intonation_perc_control,2024.2.4,Win32,60.24096386,65ca88708a87327cd873ac26,68817205a84113384fffdfe3,6881936438a52c1f89bb1731,,,,,,,,,,,,./stim/wavs/cuban_match_interrogative-total-yn_Marta-abre-el-regalo.wav,1,,,254.5381,256.5331,1,1,1.467,,0,84,84,11,1,12,1,cuban,,,,,,,,,,,,,,,,,,,,,,,,,,,,,,,,,,,,,,,,,,,,,,,,,,,,,,,,
,,,,,,,,,65ca88708a87327cd873ac26,spanish,13 or older,"no, only English or Spanish",yes,2025-07-23_21h59.55.327,empathy_intonation_perc_control,2024.2.4,Win32,60.24096386,65ca88708a87327cd873ac26,68817205a84113384fffdfe3,6881936438a52c1f89bb1731,,,,,,,,,,,,./stim/wavs/castilian_match_interrogative-total-yn_Marta-abre-el-regalo.wav,1,,,256.5353,258.6511,1,1,1.5921,,0,85,85,5,1,6,0,castilian,,,,,,,,,,,,,,,,,,,,,,,,,,,,,,,,,,,,,,,,,,,,,,,,,,,,,,,,
,,,,,,,,,65ca88708a87327cd873ac26,spanish,13 or older,"no, only English or Spanish",yes,2025-07-23_21h59.55.327,empathy_intonation_perc_control,2024.2.4,Win32,60.24096386,65ca88708a87327cd873ac26,68817205a84113384fffdfe3,6881936438a52c1f89bb1731,,,,,,,,,,,,./stim/wavs/cuban_match_declarative-broad-focus_Mariano-habla-del-tiempo.wav,0,,,258.6526,260.7333,0,1,1.5514,,0,86,86,54,1,55,0,cuban,,,,,,,,,,,,,,,,,,,,,,,,,,,,,,,,,,,,,,,,,,,,,,,,,,,,,,,,
,,,,,,,,,65ca88708a87327cd873ac26,spanish,13 or older,"no, only English or Spanish",yes,2025-07-23_21h59.55.327,empathy_intonation_perc_control,2024.2.4,Win32,60.24096386,65ca88708a87327cd873ac26,68817205a84113384fffdfe3,6881936438a52c1f89bb1731,,,,,,,,,,,,./stim/wavs/castilian_mismatch_interrogative-total-yn_Mi-novio-viene-del-lago.wav,1,,,260.7344,263.0015,1,1,1.7444,,0,87,87,27,1,28,0,castilian,,,,,,,,,,,,,,,,,,,,,,,,,,,,,,,,,,,,,,,,,,,,,,,,,,,,,,,,
,,,,,,,"Great! Now we will move on. The next task consists of about 60 trials, in each of which you will see a string of letters. 
  
  Your task is to decide whether this is a real Spanish word or not.", (press the spacebar to continue),65ca88708a87327cd873ac26,spanish,13 or older,"no, only English or Spanish",yes,2025-07-23_21h59.55.327,empathy_intonation_perc_control,2024.2.4,Win32,60.24096386,65ca88708a87327cd873ac26,68817205a84113384fffdfe3,6881936438a52c1f89bb1731,,,,,,,,,,,,,,,,,,,,,,,,,,,,,,263.0093,278.5177,0,0,0,0,1,,,,,,,,,,,,,,,,,,,,,,,,,,,,,,,,,,,,,,,,,,,,,,,,,
,,,,,,,"If you think it is an existing Spanish word, you type '1' (for 'REAL'), and if you think it is not an existing Spanish word, you type '0' (for 'FAKE').", (press the spacebar to continue),65ca88708a87327cd873ac26,spanish,13 or older,"no, only English or Spanish",yes,2025-07-23_21h59.55.327,empathy_intonation_perc_control,2024.2.4,Win32,60.24096386,65ca88708a87327cd873ac26,68817205a84113384fffdfe3,6881936438a52c1f89bb1731,,,,,,,,,,,,,,,,,,,,,,,,,,,,,,278.5216,283.4839,0,1,1,1,1,,,,,,,,,,,,,,,,,,,,,,,,,,,,,,,,,,,,,,,,,,,,,,,,,
,,,,,,,"If you are sure that the word exists, even though you don’t know its exact meaning, you may still respond '1' (REAL). 
  
  But if you are not sure if it is an existing word, you should respond '0' (FAKE).
  
  Let's do a practice round...", (press the spacebar to continue),65ca88708a87327cd873ac26,spanish,13 or older,"no, only English or Spanish",yes,2025-07-23_21h59.55.327,empathy_intonation_perc_control,2024.2.4,Win32,60.24096386,65ca88708a87327cd873ac26,68817205a84113384fffdfe3,6881936438a52c1f89bb1731,,,,,,,,,,,,,,,,,,,,,,,,,,,,,,283.4886,290.5016,0,2,2,2,1,,,,,,,,,,,,,,,,,,,,,,,,,,,,,,,,,,,,,,,,,,,,,,,,,
,,,,,,,,,65ca88708a87327cd873ac26,spanish,13 or older,"no, only English or Spanish",yes,2025-07-23_21h59.55.327,empathy_intonation_perc_control,2024.2.4,Win32,60.24096386,65ca88708a87327cd873ac26,68817205a84113384fffdfe3,6881936438a52c1f89bb1731,,,,,,,,,,,,,0,,,,,,,,,,,,,,,,,,,,,,,,290.5091,299.6858,0,1,8.6475,,299.6868,300.6853,0,0,0,0,1,0,depiste,REAL,FAKE,,,,,,,,,,,,,,,,,,,,,,,,,,,,,,,,
,,,,,,,,,65ca88708a87327cd873ac26,spanish,13 or older,"no, only English or Spanish",yes,2025-07-23_21h59.55.327,empathy_intonation_perc_control,2024.2.4,Win32,60.24096386,65ca88708a87327cd873ac26,68817205a84113384fffdfe3,6881936438a52c1f89bb1731,,,,,,,,,,,,,1,,,,,,,,,,,,,,,,,,,,,,,,300.6899,302.1345,1,1,0.9147,,302.1346,303.1344,0,1,1,1,1,0,sí,REAL,FAKE,,,,,,,,,,,,,,,,,,,,,,,,,,,,,,,,
,,,,,,,,,65ca88708a87327cd873ac26,spanish,13 or older,"no, only English or Spanish",yes,2025-07-23_21h59.55.327,empathy_intonation_perc_control,2024.2.4,Win32,60.24096386,65ca88708a87327cd873ac26,68817205a84113384fffdfe3,6881936438a52c1f89bb1731,,,,,,,,,,,,,0,,,,,,,,,,,,,,,,,,,,,,,,303.138,305.8851,0,1,2.2181,,305.8853,306.8845,0,2,2,2,1,0,coné,REAL,FAKE,,,,,,,,,,,,,,,,,,,,,,,,,,,,,,,,
,,,,,,,,,65ca88708a87327cd873ac26,spanish,13 or older,"no, only English or Spanish",yes,2025-07-23_21h59.55.327,empathy_intonation_perc_control,2024.2.4,Win32,60.24096386,65ca88708a87327cd873ac26,68817205a84113384fffdfe3,6881936438a52c1f89bb1731,,,,,,,,,,,,,0,,,,,,,,,,,,,,,,,,,,,,,,306.8879,309.2182,1,0,1.805,,309.2213,310.218,0,3,3,3,1,0,calpar,REAL,FAKE,,,,,,,,,,,,,,,,,,,,,,,,,,,,,,,,
,,,,,,,,,65ca88708a87327cd873ac26,spanish,13 or older,"no, only English or Spanish",yes,2025-07-23_21h59.55.327,empathy_intonation_perc_control,2024.2.4,Win32,60.24096386,65ca88708a87327cd873ac26,68817205a84113384fffdfe3,6881936438a52c1f89bb1731,,,,,,,,,,,,,0,,,,,,,,,,,,,,,,,,,,,,,,310.2214,311.9686,0,1,1.219,,311.9708,312.9687,0,4,4,4,1,0,joten,REAL,FAKE,,,,,,,,,,,,,,,,,,,,,,,,,,,,,,,,
,,,,,,,,,65ca88708a87327cd873ac26,spanish,13 or older,"no, only English or Spanish",yes,2025-07-23_21h59.55.327,empathy_intonation_perc_control,2024.2.4,Win32,60.24096386,65ca88708a87327cd873ac26,68817205a84113384fffdfe3,6881936438a52c1f89bb1731,,,,,,,,,,,,,1,,,,,,,,,,,,,,,,,,,,,,,,312.9711,315.451,0,0,1.943,,315.4532,316.4519,0,5,5,5,1,0,sacapuntas,REAL,FAKE,,,,,,,,,,,,,,,,,,,,,,,,,,,,,,,,
,,,,,,,,,65ca88708a87327cd873ac26,spanish,13 or older,"no, only English or Spanish",yes,2025-07-23_21h59.55.327,empathy_intonation_perc_control,2024.2.4,Win32,60.24096386,65ca88708a87327cd873ac26,68817205a84113384fffdfe3,6881936438a52c1f89bb1731,,,,,,,,,,,,,0,,,,,,,,,,,,,,,,,,,,,,,,316.4553,320.3192,1,0,3.3319,,320.3193,321.3189,0,6,6,6,1,0,priba,REAL,FAKE,,,,,,,,,,,,,,,,,,,,,,,,,,,,,,,,
,,,,,,,,,65ca88708a87327cd873ac26,spanish,13 or older,"no, only English or Spanish",yes,2025-07-23_21h59.55.327,empathy_intonation_perc_control,2024.2.4,Win32,60.24096386,65ca88708a87327cd873ac26,68817205a84113384fffdfe3,6881936438a52c1f89bb1731,,,,,,,,,,,,,0,,,,,,,,,,,,,,,,,,,,,,,,321.3218,324.7851,0,1,2.9323,,324.7876,325.7853,0,7,7,7,1,0,pelasula,REAL,FAKE,,,,,,,,,,,,,,,,,,,,,,,,,,,,,,,,
,,,,,,,,,65ca88708a87327cd873ac26,spanish,13 or older,"no, only English or Spanish",yes,2025-07-23_21h59.55.327,empathy_intonation_perc_control,2024.2.4,Win32,60.24096386,65ca88708a87327cd873ac26,68817205a84113384fffdfe3,6881936438a52c1f89bb1731,,,,,,,,,,,,,1,,,,,,,,,,,,,,,,,,,,,,,,325.7882,327.1029,1,1,0.791,,327.103,328.1019,0,8,8,8,1,0,bien,REAL,FAKE,,,,,,,,,,,,,,,,,,,,,,,,,,,,,,,,
,,,,,,,,,65ca88708a87327cd873ac26,spanish,13 or older,"no, only English or Spanish",yes,2025-07-23_21h59.55.327,empathy_intonation_perc_control,2024.2.4,Win32,60.24096386,65ca88708a87327cd873ac26,68817205a84113384fffdfe3,6881936438a52c1f89bb1731,,,,,,,,,,,,,1,,,,,,,,,,,,,,,,,,,,,,,,328.1048,329.2019,1,1,0.5631,,329.202,330.2019,0,9,9,9,1,0,casa,REAL,FAKE,,,,,,,,,,,,,,,,,,,,,,,,,,,,,,,,
,,,,,,,,,65ca88708a87327cd873ac26,spanish,13 or older,"no, only English or Spanish",yes,2025-07-23_21h59.55.327,empathy_intonation_perc_control,2024.2.4,Win32,60.24096386,65ca88708a87327cd873ac26,68817205a84113384fffdfe3,6881936438a52c1f89bb1731,,,,,,,,,,,,,0,,,,,,,,,,,,,,,,,,,,,,,,330.2041,331.9685,1,0,1.2382,,331.9708,332.9684,0,10,10,10,1,0,lejo,REAL,FAKE,,,,,,,,,,,,,,,,,,,,,,,,,,,,,,,,
,,,,,,,,,65ca88708a87327cd873ac26,spanish,13 or older,"no, only English or Spanish",yes,2025-07-23_21h59.55.327,empathy_intonation_perc_control,2024.2.4,Win32,60.24096386,65ca88708a87327cd873ac26,68817205a84113384fffdfe3,6881936438a52c1f89bb1731,,,,,,,,,,,,,0,,,,,,,,,,,,,,,,,,,,,,,,332.971,334.6026,0,1,1.1087,,334.6048,335.602,0,11,11,11,1,0,pretantas,REAL,FAKE,,,,,,,,,,,,,,,,,,,,,,,,,,,,,,,,
,,,,,,,,,65ca88708a87327cd873ac26,spanish,13 or older,"no, only English or Spanish",yes,2025-07-23_21h59.55.327,empathy_intonation_perc_control,2024.2.4,Win32,60.24096386,65ca88708a87327cd873ac26,68817205a84113384fffdfe3,6881936438a52c1f89bb1731,,,,,,,,,,,,,,,,,,,,,,,,,,,,,,,,,,,,,,,,,,,,,,,,,,,,,,335.603,337.9029,,,,,,,,,,,,,,,,,,,,,,,,,,,,,,
,,,,,,,,,65ca88708a87327cd873ac26,spanish,13 or older,"no, only English or Spanish",yes,2025-07-23_21h59.55.327,empathy_intonation_perc_control,2024.2.4,Win32,60.24096386,65ca88708a87327cd873ac26,68817205a84113384fffdfe3,6881936438a52c1f89bb1731,,,,,,,,,,,,,1,,,,,,,,,,,,,,,,,,,,,,,,,,,,,,,,,,,,,91,click the 1 key.,,,,,337.9148,340.4361,1,1,1.9987,,0,0,0,90,1,REAL,FAKE,,,,,,,,,,,,,,,,,
,,,,,,,,,65ca88708a87327cd873ac26,spanish,13 or older,"no, only English or Spanish",yes,2025-07-23_21h59.55.327,empathy_intonation_perc_control,2024.2.4,Win32,60.24096386,65ca88708a87327cd873ac26,68817205a84113384fffdfe3,6881936438a52c1f89bb1731,,,,,,,,,,,,,1,,,,,,,,,,,,,,,,,,,,,,,,,,,,,,,,,,,,,78,frondoso,,,,,340.4392,341.9365,0,0,0.9653,,0,1,1,77,1,REAL,FAKE,,,,,,,,,,,,,,,,,
,,,,,,,,,65ca88708a87327cd873ac26,spanish,13 or older,"no, only English or Spanish",yes,2025-07-23_21h59.55.327,empathy_intonation_perc_control,2024.2.4,Win32,60.24096386,65ca88708a87327cd873ac26,68817205a84113384fffdfe3,6881936438a52c1f89bb1731,,,,,,,,,,,,,1,,,,,,,,,,,,,,,,,,,,,,,,,,,,,,,,,,,,,9,hacha,,,,,341.9381,343.5355,1,1,1.065,,0,2,2,8,1,REAL,FAKE,,,,,,,,,,,,,,,,,
,,,,,,,,,65ca88708a87327cd873ac26,spanish,13 or older,"no, only English or Spanish",yes,2025-07-23_21h59.55.327,empathy_intonation_perc_control,2024.2.4,Win32,60.24096386,65ca88708a87327cd873ac26,68817205a84113384fffdfe3,6881936438a52c1f89bb1731,,,,,,,,,,,,,1,,,,,,,,,,,,,,,,,,,,,,,,,,,,,,,,,,,,,61,seda,,,,,343.5383,345.1193,0,0,1.0466,,0,3,3,60,1,REAL,FAKE,,,,,,,,,,,,,,,,,
,,,,,,,,,65ca88708a87327cd873ac26,spanish,13 or older,"no, only English or Spanish",yes,2025-07-23_21h59.55.327,empathy_intonation_perc_control,2024.2.4,Win32,60.24096386,65ca88708a87327cd873ac26,68817205a84113384fffdfe3,6881936438a52c1f89bb1731,,,,,,,,,,,,,0,,,,,,,,,,,,,,,,,,,,,,,,,,,,,,,,,,,,,10,antar,,,,,345.1217,346.5522,1,0,0.8972,,0,4,4,9,1,REAL,FAKE,,,,,,,,,,,,,,,,,
,,,,,,,,,65ca88708a87327cd873ac26,spanish,13 or older,"no, only English or Spanish",yes,2025-07-23_21h59.55.327,empathy_intonation_perc_control,2024.2.4,Win32,60.24096386,65ca88708a87327cd873ac26,68817205a84113384fffdfe3,6881936438a52c1f89bb1731,,,,,,,,,,,,,1,,,,,,,,,,,,,,,,,,,,,,,,,,,,,,,,,,,,,2,pellizcar,,,,,346.5556,348.2523,0,0,1.1641,,0,5,5,1,1,REAL,FAKE,,,,,,,,,,,,,,,,,
,,,,,,,,,65ca88708a87327cd873ac26,spanish,13 or older,"no, only English or Spanish",yes,2025-07-23_21h59.55.327,empathy_intonation_perc_control,2024.2.4,Win32,60.24096386,65ca88708a87327cd873ac26,68817205a84113384fffdfe3,6881936438a52c1f89bb1731,,,,,,,,,,,,,0,,,,,,,,,,,,,,,,,,,,,,,,,,,,,,,,,,,,,72,pemición,,,,,348.2558,350.739,1,0,1.9608,,0,6,6,71,1,REAL,FAKE,,,,,,,,,,,,,,,,,
,,,,,,,,,65ca88708a87327cd873ac26,spanish,13 or older,"no, only English or Spanish",yes,2025-07-23_21h59.55.327,empathy_intonation_perc_control,2024.2.4,Win32,60.24096386,65ca88708a87327cd873ac26,68817205a84113384fffdfe3,6881936438a52c1f89bb1731,,,,,,,,,,,,,1,,,,,,,,,,,,,,,,,,,,,,,,,,,,,,,,,,,,,6,tergiversar,,,,,350.7413,352.0027,0,0,0.7299,,0,7,7,5,1,REAL,FAKE,,,,,,,,,,,,,,,,,
,,,,,,,,,65ca88708a87327cd873ac26,spanish,13 or older,"no, only English or Spanish",yes,2025-07-23_21h59.55.327,empathy_intonation_perc_control,2024.2.4,Win32,60.24096386,65ca88708a87327cd873ac26,68817205a84113384fffdfe3,6881936438a52c1f89bb1731,,,,,,,,,,,,,0,,,,,,,,,,,,,,,,,,,,,,,,,,,,,,,,,,,,,84,escuto,,,,,352.0055,354.6896,1,0,2.1615,,0,8,8,83,1,REAL,FAKE,,,,,,,,,,,,,,,,,
,,,,,,,,,65ca88708a87327cd873ac26,spanish,13 or older,"no, only English or Spanish",yes,2025-07-23_21h59.55.327,empathy_intonation_perc_control,2024.2.4,Win32,60.24096386,65ca88708a87327cd873ac26,68817205a84113384fffdfe3,6881936438a52c1f89bb1731,,,,,,,,,,,,,1,,,,,,,,,,,,,,,,,,,,,,,,,,,,,,,,,,,,,13,helar,,,,,354.691,355.9359,1,1,0.7142,,0,9,9,12,1,REAL,FAKE,,,,,,,,,,,,,,,,,
,,,,,,,,,65ca88708a87327cd873ac26,spanish,13 or older,"no, only English or Spanish",yes,2025-07-23_21h59.55.327,empathy_intonation_perc_control,2024.2.4,Win32,60.24096386,65ca88708a87327cd873ac26,68817205a84113384fffdfe3,6881936438a52c1f89bb1731,,,,,,,,,,,,,1,,,,,,,,,,,,,,,,,,,,,,,,,,,,,,,,,,,,,49,ganar,,,,,355.9388,358.7695,1,1,2.2984,,0,10,10,48,1,REAL,FAKE,,,,,,,,,,,,,,,,,
,,,,,,,,,65ca88708a87327cd873ac26,spanish,13 or older,"no, only English or Spanish",yes,2025-07-23_21h59.55.327,empathy_intonation_perc_control,2024.2.4,Win32,60.24096386,65ca88708a87327cd873ac26,68817205a84113384fffdfe3,6881936438a52c1f89bb1731,,,,,,,,,,,,,1,,,,,,,,,,,,,,,,,,,,,,,,,,,,,,,,,,,,,83,guante,,,,,358.7723,361.0692,0,0,1.7641,,0,11,11,82,1,REAL,FAKE,,,,,,,,,,,,,,,,,
,,,,,,,,,65ca88708a87327cd873ac26,spanish,13 or older,"no, only English or Spanish",yes,2025-07-23_21h59.55.327,empathy_intonation_perc_control,2024.2.4,Win32,60.24096386,65ca88708a87327cd873ac26,68817205a84113384fffdfe3,6881936438a52c1f89bb1731,,,,,,,,,,,,,1,,,,,,,,,,,,,,,,,,,,,,,,,,,,,,,,,,,,,77,tiburón,,,,,361.0723,363.0398,0,0,1.4437,,0,12,12,76,1,REAL,FAKE,,,,,,,,,,,,,,,,,
,,,,,,,,,65ca88708a87327cd873ac26,spanish,13 or older,"no, only English or Spanish",yes,2025-07-23_21h59.55.327,empathy_intonation_perc_control,2024.2.4,Win32,60.24096386,65ca88708a87327cd873ac26,68817205a84113384fffdfe3,6881936438a52c1f89bb1731,,,,,,,,,,,,,1,,,,,,,,,,,,,,,,,,,,,,,,,,,,,,,,,,,,,54,fomentar,,,,,363.0411,364.4861,0,0,0.9147,,0,13,13,53,1,REAL,FAKE,,,,,,,,,,,,,,,,,
,,,,,,,,,65ca88708a87327cd873ac26,spanish,13 or older,"no, only English or Spanish",yes,2025-07-23_21h59.55.327,empathy_intonation_perc_control,2024.2.4,Win32,60.24096386,65ca88708a87327cd873ac26,68817205a84113384fffdfe3,6881936438a52c1f89bb1731,,,,,,,,,,,,,0,,,,,,,,,,,,,,,,,,,,,,,,,,,,,,,,,,,,,66,hacido,,,,,364.4886,365.7527,1,0,0.7304,,0,14,14,65,1,REAL,FAKE,,,,,,,,,,,,,,,,,
,,,,,,,,,65ca88708a87327cd873ac26,spanish,13 or older,"no, only English or Spanish",yes,2025-07-23_21h59.55.327,empathy_intonation_perc_control,2024.2.4,Win32,60.24096386,65ca88708a87327cd873ac26,68817205a84113384fffdfe3,6881936438a52c1f89bb1731,,,,,,,,,,,,,1,,,,,,,,,,,,,,,,,,,,,,,,,,,,,,,,,,,,,38,estornudar,,,,,365.7555,368.7025,1,1,2.4145,,0,15,15,37,1,REAL,FAKE,,,,,,,,,,,,,,,,,
,,,,,,,,,65ca88708a87327cd873ac26,spanish,13 or older,"no, only English or Spanish",yes,2025-07-23_21h59.55.327,empathy_intonation_perc_control,2024.2.4,Win32,60.24096386,65ca88708a87327cd873ac26,68817205a84113384fffdfe3,6881936438a52c1f89bb1731,,,,,,,,,,,,,0,,,,,,,,,,,,,,,,,,,,,,,,,,,,,,,,,,,,,27,acutación,,,,,368.7055,370.403,0,1,1.1671,,0,16,16,26,1,REAL,FAKE,,,,,,,,,,,,,,,,,
,,,,,,,,,65ca88708a87327cd873ac26,spanish,13 or older,"no, only English or Spanish",yes,2025-07-23_21h59.55.327,empathy_intonation_perc_control,2024.2.4,Win32,60.24096386,65ca88708a87327cd873ac26,68817205a84113384fffdfe3,6881936438a52c1f89bb1731,,,,,,,,,,,,,1,,,,,,,,,,,,,,,,,,,,,,,,,,,,,,,,,,,,,51,candado,,,,,370.4056,373.0702,0,0,2.131,,0,17,17,50,1,REAL,FAKE,,,,,,,,,,,,,,,,,
,,,,,,,,,65ca88708a87327cd873ac26,spanish,13 or older,"no, only English or Spanish",yes,2025-07-23_21h59.55.327,empathy_intonation_perc_control,2024.2.4,Win32,60.24096386,65ca88708a87327cd873ac26,68817205a84113384fffdfe3,6881936438a52c1f89bb1731,,,,,,,,,,,,,1,,,,,,,,,,,,,,,,,,,,,,,,,,,,,,,,,,,,,15,regar,,,,,373.0729,374.6535,0,0,1.0497,,0,18,18,14,1,REAL,FAKE,,,,,,,,,,,,,,,,,
,,,,,,,,,65ca88708a87327cd873ac26,spanish,13 or older,"no, only English or Spanish",yes,2025-07-23_21h59.55.327,empathy_intonation_perc_control,2024.2.4,Win32,60.24096386,65ca88708a87327cd873ac26,68817205a84113384fffdfe3,6881936438a52c1f89bb1731,,,,,,,,,,,,,1,,,,,,,,,,,,,,,,,,,,,,,,,,,,,,,,,,,,,85,laúd,,,,,374.6567,375.6566,1,1,0.4782,,0,19,19,84,1,REAL,FAKE,,,,,,,,,,,,,,,,,
,,,,,,,,,65ca88708a87327cd873ac26,spanish,13 or older,"no, only English or Spanish",yes,2025-07-23_21h59.55.327,empathy_intonation_perc_control,2024.2.4,Win32,60.24096386,65ca88708a87327cd873ac26,68817205a84113384fffdfe3,6881936438a52c1f89bb1731,,,,,,,,,,,,,0,,,,,,,,,,,,,,,,,,,,,,,,,,,,,,,,,,,,,50,flamida,,,,,375.6578,378.4869,1,0,2.3018,,0,20,20,49,1,REAL,FAKE,,,,,,,,,,,,,,,,,
,,,,,,,,,65ca88708a87327cd873ac26,spanish,13 or older,"no, only English or Spanish",yes,2025-07-23_21h59.55.327,empathy_intonation_perc_control,2024.2.4,Win32,60.24096386,65ca88708a87327cd873ac26,68817205a84113384fffdfe3,6881936438a52c1f89bb1731,,,,,,,,,,,,,0,,,,,,,,,,,,,,,,,,,,,,,,,,,,,,,,,,,,,74,cintro,,,,,378.4894,380.6534,1,0,1.6326,,0,21,21,73,1,REAL,FAKE,,,,,,,,,,,,,,,,,
,,,,,,,,,65ca88708a87327cd873ac26,spanish,13 or older,"no, only English or Spanish",yes,2025-07-23_21h59.55.327,empathy_intonation_perc_control,2024.2.4,Win32,60.24096386,65ca88708a87327cd873ac26,68817205a84113384fffdfe3,6881936438a52c1f89bb1731,,,,,,,,,,,,,1,,,,,,,,,,,,,,,,,,,,,,,,,,,,,,,,,,,,,22,lacayo,,,,,380.6564,382.0049,0,0,0.8212,,0,22,22,21,1,REAL,FAKE,,,,,,,,,,,,,,,,,
,,,,,,,,,65ca88708a87327cd873ac26,spanish,13 or older,"no, only English or Spanish",yes,2025-07-23_21h59.55.327,empathy_intonation_perc_control,2024.2.4,Win32,60.24096386,65ca88708a87327cd873ac26,68817205a84113384fffdfe3,6881936438a52c1f89bb1731,,,,,,,,,,,,,0,,,,,,,,,,,,,,,,,,,,,,,,,,,,,,,,,,,,,58,plaudir,,,,,382.0059,383.9868,0,1,1.4542,,0,23,23,57,1,REAL,FAKE,,,,,,,,,,,,,,,,,
,,,,,,,,,65ca88708a87327cd873ac26,spanish,13 or older,"no, only English or Spanish",yes,2025-07-23_21h59.55.327,empathy_intonation_perc_control,2024.2.4,Win32,60.24096386,65ca88708a87327cd873ac26,68817205a84113384fffdfe3,6881936438a52c1f89bb1731,,,,,,,,,,,,,1,,,,,,,,,,,,,,,,,,,,,,,,,,,,,,,,,,,,,56,musgo,,,,,383.9899,384.9907,1,1,0.4786,,0,24,24,55,1,REAL,FAKE,,,,,,,,,,,,,,,,,
,,,,,,,,,65ca88708a87327cd873ac26,spanish,13 or older,"no, only English or Spanish",yes,2025-07-23_21h59.55.327,empathy_intonation_perc_control,2024.2.4,Win32,60.24096386,65ca88708a87327cd873ac26,68817205a84113384fffdfe3,6881936438a52c1f89bb1731,,,,,,,,,,,,,1,,,,,,,,,,,,,,,,,,,,,,,,,,,,,,,,,,,,,24,látigo,,,,,384.9929,386.9868,0,0,1.4645,,0,25,25,23,1,REAL,FAKE,,,,,,,,,,,,,,,,,
,,,,,,,,,65ca88708a87327cd873ac26,spanish,13 or older,"no, only English or Spanish",yes,2025-07-23_21h59.55.327,empathy_intonation_perc_control,2024.2.4,Win32,60.24096386,65ca88708a87327cd873ac26,68817205a84113384fffdfe3,6881936438a52c1f89bb1731,,,,,,,,,,,,,1,,,,,,,,,,,,,,,,,,,,,,,,,,,,,,,,,,,,,71,polvoriento,,,,,386.9899,388.3236,0,0,0.812,,0,26,26,70,1,REAL,FAKE,,,,,,,,,,,,,,,,,
,,,,,,,,,65ca88708a87327cd873ac26,spanish,13 or older,"no, only English or Spanish",yes,2025-07-23_21h59.55.327,empathy_intonation_perc_control,2024.2.4,Win32,60.24096386,65ca88708a87327cd873ac26,68817205a84113384fffdfe3,6881936438a52c1f89bb1731,,,,,,,,,,,,,1,,,,,,,,,,,,,,,,,,,,,,,,,,,,,,,,,,,,,60,matar,,,,,388.3248,389.3035,1,1,0.4566,,0,27,27,59,1,REAL,FAKE,,,,,,,,,,,,,,,,,
,,,,,,,,,65ca88708a87327cd873ac26,spanish,13 or older,"no, only English or Spanish",yes,2025-07-23_21h59.55.327,empathy_intonation_perc_control,2024.2.4,Win32,60.24096386,65ca88708a87327cd873ac26,68817205a84113384fffdfe3,6881936438a52c1f89bb1731,,,,,,,,,,,,,1,,,,,,,,,,,,,,,,,,,,,,,,,,,,,,,,,,,,,55,nevar,,,,,389.306,390.6874,0,0,0.8498,,0,28,28,54,1,REAL,FAKE,,,,,,,,,,,,,,,,,
,,,,,,,,,65ca88708a87327cd873ac26,spanish,13 or older,"no, only English or Spanish",yes,2025-07-23_21h59.55.327,empathy_intonation_perc_control,2024.2.4,Win32,60.24096386,65ca88708a87327cd873ac26,68817205a84113384fffdfe3,6881936438a52c1f89bb1731,,,,,,,,,,,,,0,,,,,,,,,,,,,,,,,,,,,,,,,,,,,,,,,,,,,23,lampera,,,,,390.6899,392.8037,0,1,1.5822,,0,29,29,22,1,REAL,FAKE,,,,,,,,,,,,,,,,,
,,,,,,,,,65ca88708a87327cd873ac26,spanish,13 or older,"no, only English or Spanish",yes,2025-07-23_21h59.55.327,empathy_intonation_perc_control,2024.2.4,Win32,60.24096386,65ca88708a87327cd873ac26,68817205a84113384fffdfe3,6881936438a52c1f89bb1731,,,,,,,,,,,,,1,,,,,,,,,,,,,,,,,,,,,,,,,,,,,,,,,,,,,41,rebuscar,,,,,392.8063,394.0701,1,1,0.7295,,0,30,30,40,1,REAL,FAKE,,,,,,,,,,,,,,,,,
,,,,,,,,,65ca88708a87327cd873ac26,spanish,13 or older,"no, only English or Spanish",yes,2025-07-23_21h59.55.327,empathy_intonation_perc_control,2024.2.4,Win32,60.24096386,65ca88708a87327cd873ac26,68817205a84113384fffdfe3,6881936438a52c1f89bb1731,,,,,,,,,,,,,0,,,,,,,,,,,,,,,,,,,,,,,,,,,,,,,,,,,,,30,alardio,,,,,394.073,395.2368,0,1,0.6315,,0,31,31,29,1,REAL,FAKE,,,,,,,,,,,,,,,,,
,,,,,,,,,65ca88708a87327cd873ac26,spanish,13 or older,"no, only English or Spanish",yes,2025-07-23_21h59.55.327,empathy_intonation_perc_control,2024.2.4,Win32,60.24096386,65ca88708a87327cd873ac26,68817205a84113384fffdfe3,6881936438a52c1f89bb1731,,,,,,,,,,,,,1,,,,,,,,,,,,,,,,,,,,,,,,,,,,,,,,,,,,,45,jilguero,,,,,395.2398,396.3037,0,0,0.5376,,0,32,32,44,1,REAL,FAKE,,,,,,,,,,,,,,,,,
,,,,,,,,,65ca88708a87327cd873ac26,spanish,13 or older,"no, only English or Spanish",yes,2025-07-23_21h59.55.327,empathy_intonation_perc_control,2024.2.4,Win32,60.24096386,65ca88708a87327cd873ac26,68817205a84113384fffdfe3,6881936438a52c1f89bb1731,,,,,,,,,,,,,1,,,,,,,,,,,,,,,,,,,,,,,,,,,,,,,,,,,,,26,secuestro,,,,,396.3065,397.8367,1,1,0.9979,,0,33,33,25,1,REAL,FAKE,,,,,,,,,,,,,,,,,
,,,,,,,,,65ca88708a87327cd873ac26,spanish,13 or older,"no, only English or Spanish",yes,2025-07-23_21h59.55.327,empathy_intonation_perc_control,2024.2.4,Win32,60.24096386,65ca88708a87327cd873ac26,68817205a84113384fffdfe3,6881936438a52c1f89bb1731,,,,,,,,,,,,,0,,,,,,,,,,,,,,,,,,,,,,,,,,,,,,,,,,,,,29,decar,,,,,397.8396,398.9871,1,0,0.6206,,0,34,34,28,1,REAL,FAKE,,,,,,,,,,,,,,,,,
,,,,,,,,,65ca88708a87327cd873ac26,spanish,13 or older,"no, only English or Spanish",yes,2025-07-23_21h59.55.327,empathy_intonation_perc_control,2024.2.4,Win32,60.24096386,65ca88708a87327cd873ac26,68817205a84113384fffdfe3,6881936438a52c1f89bb1731,,,,,,,,,,,,,1,,,,,,,,,,,,,,,,,,,,,,,,,,,,,,,,,,,,,75,yacer,,,,,398.99,400.2701,1,1,0.7473,,0,35,35,74,1,REAL,FAKE,,,,,,,,,,,,,,,,,
,,,,,,,,,65ca88708a87327cd873ac26,spanish,13 or older,"no, only English or Spanish",yes,2025-07-23_21h59.55.327,empathy_intonation_perc_control,2024.2.4,Win32,60.24096386,65ca88708a87327cd873ac26,68817205a84113384fffdfe3,6881936438a52c1f89bb1731,,,,,,,,,,,,,1,,,,,,,,,,,,,,,,,,,,,,,,,,,,,,,,,,,,,43,canela,,,,,400.273,401.4037,0,0,0.5984,,0,36,36,42,1,REAL,FAKE,,,,,,,,,,,,,,,,,
,,,,,,,,,65ca88708a87327cd873ac26,spanish,13 or older,"no, only English or Spanish",yes,2025-07-23_21h59.55.327,empathy_intonation_perc_control,2024.2.4,Win32,60.24096386,65ca88708a87327cd873ac26,68817205a84113384fffdfe3,6881936438a52c1f89bb1731,,,,,,,,,,,,,0,,,,,,,,,,,,,,,,,,,,,,,,,,,,,,,,,,,,,4,batillón,,,,,401.4067,402.8399,0,1,0.9095,,0,37,37,3,1,REAL,FAKE,,,,,,,,,,,,,,,,,
,,,,,,,,,65ca88708a87327cd873ac26,spanish,13 or older,"no, only English or Spanish",yes,2025-07-23_21h59.55.327,empathy_intonation_perc_control,2024.2.4,Win32,60.24096386,65ca88708a87327cd873ac26,68817205a84113384fffdfe3,6881936438a52c1f89bb1731,,,,,,,,,,,,,1,,,,,,,,,,,,,,,,,,,,,,,,,,,,,,,,,,,,,28,merodear,,,,,402.8414,404.921,0,0,1.5509,,0,38,38,27,1,REAL,FAKE,,,,,,,,,,,,,,,,,
,,,,,,,,,65ca88708a87327cd873ac26,spanish,13 or older,"no, only English or Spanish",yes,2025-07-23_21h59.55.327,empathy_intonation_perc_control,2024.2.4,Win32,60.24096386,65ca88708a87327cd873ac26,68817205a84113384fffdfe3,6881936438a52c1f89bb1731,,,,,,,,,,,,,0,,,,,,,,,,,,,,,,,,,,,,,,,,,,,,,,,,,,,82,empirador,,,,,404.9235,406.0375,1,0,0.5853,,0,39,39,81,1,REAL,FAKE,,,,,,,,,,,,,,,,,
,,,,,,,,,65ca88708a87327cd873ac26,spanish,13 or older,"no, only English or Spanish",yes,2025-07-23_21h59.55.327,empathy_intonation_perc_control,2024.2.4,Win32,60.24096386,65ca88708a87327cd873ac26,68817205a84113384fffdfe3,6881936438a52c1f89bb1731,,,,,,,,,,,,,1,,,,,,,,,,,,,,,,,,,,,,,,,,,,,,,,,,,,,44,cuchara,,,,,406.0401,407.2209,0,0,0.6541,,0,40,40,43,1,REAL,FAKE,,,,,,,,,,,,,,,,,
,,,,,,,,,65ca88708a87327cd873ac26,spanish,13 or older,"no, only English or Spanish",yes,2025-07-23_21h59.55.327,empathy_intonation_perc_control,2024.2.4,Win32,60.24096386,65ca88708a87327cd873ac26,68817205a84113384fffdfe3,6881936438a52c1f89bb1731,,,,,,,,,,,,,0,,,,,,,,,,,,,,,,,,,,,,,,,,,,,,,,,,,,,53,vegada,,,,,407.2239,408.5866,0,1,0.8349,,0,41,41,52,1,REAL,FAKE,,,,,,,,,,,,,,,,,
,,,,,,,,,65ca88708a87327cd873ac26,spanish,13 or older,"no, only English or Spanish",yes,2025-07-23_21h59.55.327,empathy_intonation_perc_control,2024.2.4,Win32,60.24096386,65ca88708a87327cd873ac26,68817205a84113384fffdfe3,6881936438a52c1f89bb1731,,,,,,,,,,,,,1,,,,,,,,,,,,,,,,,,,,,,,,,,,,,,,,,,,,,36,loro,,,,,408.5894,410.2873,1,1,1.1834,,0,42,42,35,1,REAL,FAKE,,,,,,,,,,,,,,,,,
,,,,,,,,,65ca88708a87327cd873ac26,spanish,13 or older,"no, only English or Spanish",yes,2025-07-23_21h59.55.327,empathy_intonation_perc_control,2024.2.4,Win32,60.24096386,65ca88708a87327cd873ac26,68817205a84113384fffdfe3,6881936438a52c1f89bb1731,,,,,,,,,,,,,1,,,,,,,,,,,,,,,,,,,,,,,,,,,,,,,,,,,,,20,ávido,,,,,410.2903,411.5044,1,1,0.6873,,0,43,43,19,1,REAL,FAKE,,,,,,,,,,,,,,,,,
,,,,,,,,,65ca88708a87327cd873ac26,spanish,13 or older,"no, only English or Spanish",yes,2025-07-23_21h59.55.327,empathy_intonation_perc_control,2024.2.4,Win32,60.24096386,65ca88708a87327cd873ac26,68817205a84113384fffdfe3,6881936438a52c1f89bb1731,,,,,,,,,,,,,1,,,,,,,,,,,,,,,,,,,,,,,,,,,,,,,,,,,,,48,ladrón,,,,,411.5068,412.9208,1,1,0.8908,,0,44,44,47,1,REAL,FAKE,,,,,,,,,,,,,,,,,
,,,,,,,,,65ca88708a87327cd873ac26,spanish,13 or older,"no, only English or Spanish",yes,2025-07-23_21h59.55.327,empathy_intonation_perc_control,2024.2.4,Win32,60.24096386,65ca88708a87327cd873ac26,68817205a84113384fffdfe3,6881936438a52c1f89bb1731,,,,,,,,,,,,,0,,,,,,,,,,,,,,,,,,,,,,,,,,,,,,,,,,,,,8,cadeña,,,,,412.9237,414.8207,1,0,1.3727,,0,45,45,7,1,REAL,FAKE,,,,,,,,,,,,,,,,,
,,,,,,,,,65ca88708a87327cd873ac26,spanish,13 or older,"no, only English or Spanish",yes,2025-07-23_21h59.55.327,empathy_intonation_perc_control,2024.2.4,Win32,60.24096386,65ca88708a87327cd873ac26,68817205a84113384fffdfe3,6881936438a52c1f89bb1731,,,,,,,,,,,,,1,,,,,,,,,,,,,,,,,,,,,,,,,,,,,,,,,,,,,12,asesinato,,,,,414.8235,415.7707,0,0,0.4154,,0,46,46,11,1,REAL,FAKE,,,,,,,,,,,,,,,,,
,,,,,,,,,65ca88708a87327cd873ac26,spanish,13 or older,"no, only English or Spanish",yes,2025-07-23_21h59.55.327,empathy_intonation_perc_control,2024.2.4,Win32,60.24096386,65ca88708a87327cd873ac26,68817205a84113384fffdfe3,6881936438a52c1f89bb1731,,,,,,,,,,,,,1,,,,,,,,,,,,,,,,,,,,,,,,,,,,,,,,,,,,,3,pulmones,,,,,415.7734,417.0209,0,0,0.719,,0,47,47,2,1,REAL,FAKE,,,,,,,,,,,,,,,,,
,,,,,,,,,65ca88708a87327cd873ac26,spanish,13 or older,"no, only English or Spanish",yes,2025-07-23_21h59.55.327,empathy_intonation_perc_control,2024.2.4,Win32,60.24096386,65ca88708a87327cd873ac26,68817205a84113384fffdfe3,6881936438a52c1f89bb1731,,,,,,,,,,,,,0,,,,,,,,,,,,,,,,,,,,,,,,,,,,,,,,,,,,,87,grodo,,,,,417.0242,418.3878,0,1,0.83,,0,48,48,86,1,REAL,FAKE,,,,,,,,,,,,,,,,,
,,,,,,,,,65ca88708a87327cd873ac26,spanish,13 or older,"no, only English or Spanish",yes,2025-07-23_21h59.55.327,empathy_intonation_perc_control,2024.2.4,Win32,60.24096386,65ca88708a87327cd873ac26,68817205a84113384fffdfe3,6881936438a52c1f89bb1731,,,,,,,,,,,,,1,,,,,,,,,,,,,,,,,,,,,,,,,,,,,,,,,,,,,39,torpe,,,,,418.3906,419.7708,0,0,0.8559,,0,49,49,38,1,REAL,FAKE,,,,,,,,,,,,,,,,,
,,,,,,,,,65ca88708a87327cd873ac26,spanish,13 or older,"no, only English or Spanish",yes,2025-07-23_21h59.55.327,empathy_intonation_perc_control,2024.2.4,Win32,60.24096386,65ca88708a87327cd873ac26,68817205a84113384fffdfe3,6881936438a52c1f89bb1731,,,,,,,,,,,,,0,,,,,,,,,,,,,,,,,,,,,,,,,,,,,,,,,,,,,92,click the 0 key.,,,,,419.7735,421.1046,0,1,0.8059,,0,50,50,91,1,REAL,FAKE,,,,,,,,,,,,,,,,,
,,,,,,,,,65ca88708a87327cd873ac26,spanish,13 or older,"no, only English or Spanish",yes,2025-07-23_21h59.55.327,empathy_intonation_perc_control,2024.2.4,Win32,60.24096386,65ca88708a87327cd873ac26,68817205a84113384fffdfe3,6881936438a52c1f89bb1731,,,,,,,,,,,,,1,,,,,,,,,,,,,,,,,,,,,,,,,,,,,,,,,,,,,81,pozo,,,,,421.1074,425.3712,0,0,3.731,,0,51,51,80,1,REAL,FAKE,,,,,,,,,,,,,,,,,
,,,,,,,,,65ca88708a87327cd873ac26,spanish,13 or older,"no, only English or Spanish",yes,2025-07-23_21h59.55.327,empathy_intonation_perc_control,2024.2.4,Win32,60.24096386,65ca88708a87327cd873ac26,68817205a84113384fffdfe3,6881936438a52c1f89bb1731,,,,,,,,,,,,,0,,,,,,,,,,,,,,,,,,,,,,,,,,,,,,,,,,,,,18,arsa,,,,,425.3739,430.4539,0,1,4.547,,0,52,52,17,1,REAL,FAKE,,,,,,,,,,,,,,,,,
,,,,,,,,,65ca88708a87327cd873ac26,spanish,13 or older,"no, only English or Spanish",yes,2025-07-23_21h59.55.327,empathy_intonation_perc_control,2024.2.4,Win32,60.24096386,65ca88708a87327cd873ac26,68817205a84113384fffdfe3,6881936438a52c1f89bb1731,,,,,,,,,,,,,1,,,,,,,,,,,,,,,,,,,,,,,,,,,,,,,,,,,,,31,pandilla,,,,,430.4567,431.9046,1,1,0.9185,,0,53,53,30,1,REAL,FAKE,,,,,,,,,,,,,,,,,
,,,,,,,,,65ca88708a87327cd873ac26,spanish,13 or older,"no, only English or Spanish",yes,2025-07-23_21h59.55.327,empathy_intonation_perc_control,2024.2.4,Win32,60.24096386,65ca88708a87327cd873ac26,68817205a84113384fffdfe3,6881936438a52c1f89bb1731,,,,,,,,,,,,,1,,,,,,,,,,,,,,,,,,,,,,,,,,,,,,,,,,,,,76,atar,,,,,431.9073,433.2378,0,0,0.803,,0,54,54,75,1,REAL,FAKE,,,,,,,,,,,,,,,,,
,,,,,,,,,65ca88708a87327cd873ac26,spanish,13 or older,"no, only English or Spanish",yes,2025-07-23_21h59.55.327,empathy_intonation_perc_control,2024.2.4,Win32,60.24096386,65ca88708a87327cd873ac26,68817205a84113384fffdfe3,6881936438a52c1f89bb1731,,,,,,,,,,,,,0,,,,,,,,,,,,,,,,,,,,,,,,,,,,,,,,,,,,,19,brecedad,,,,,433.2404,434.5714,0,1,0.8001,,0,55,55,18,1,REAL,FAKE,,,,,,,,,,,,,,,,,
,,,,,,,,,65ca88708a87327cd873ac26,spanish,13 or older,"no, only English or Spanish",yes,2025-07-23_21h59.55.327,empathy_intonation_perc_control,2024.2.4,Win32,60.24096386,65ca88708a87327cd873ac26,68817205a84113384fffdfe3,6881936438a52c1f89bb1731,,,,,,,,,,,,,0,,,,,,,,,,,,,,,,,,,,,,,,,,,,,,,,,,,,,32,fatacidad,,,,,434.5742,435.8561,0,1,0.7565,,0,56,56,31,1,REAL,FAKE,,,,,,,,,,,,,,,,,
,,,,,,,,,65ca88708a87327cd873ac26,spanish,13 or older,"no, only English or Spanish",yes,2025-07-23_21h59.55.327,empathy_intonation_perc_control,2024.2.4,Win32,60.24096386,65ca88708a87327cd873ac26,68817205a84113384fffdfe3,6881936438a52c1f89bb1731,,,,,,,,,,,,,1,,,,,,,,,,,,,,,,,,,,,,,,,,,,,,,,,,,,,57,tacaño,,,,,435.8578,437.2882,1,1,0.9058,,0,57,57,56,1,REAL,FAKE,,,,,,,,,,,,,,,,,
,,,,,,,,,65ca88708a87327cd873ac26,spanish,13 or older,"no, only English or Spanish",yes,2025-07-23_21h59.55.327,empathy_intonation_perc_control,2024.2.4,Win32,60.24096386,65ca88708a87327cd873ac26,68817205a84113384fffdfe3,6881936438a52c1f89bb1731,,,,,,,,,,,,,1,,,,,,,,,,,,,,,,,,,,,,,,,,,,,,,,,,,,,67,cabello,,,,,437.2912,438.4882,0,0,0.6636,,0,58,58,66,1,REAL,FAKE,,,,,,,,,,,,,,,,,
,,,,,,,,,65ca88708a87327cd873ac26,spanish,13 or older,"no, only English or Spanish",yes,2025-07-23_21h59.55.327,empathy_intonation_perc_control,2024.2.4,Win32,60.24096386,65ca88708a87327cd873ac26,68817205a84113384fffdfe3,6881936438a52c1f89bb1731,,,,,,,,,,,,,1,,,,,,,,,,,,,,,,,,,,,,,,,,,,,,,,,,,,,52,camisa,,,,,438.4913,439.7382,1,1,0.7151,,0,59,59,51,1,REAL,FAKE,,,,,,,,,,,,,,,,,
,,,,,,,,,65ca88708a87327cd873ac26,spanish,13 or older,"no, only English or Spanish",yes,2025-07-23_21h59.55.327,empathy_intonation_perc_control,2024.2.4,Win32,60.24096386,65ca88708a87327cd873ac26,68817205a84113384fffdfe3,6881936438a52c1f89bb1731,,,,,,,,,,,,,1,,,,,,,,,,,,,,,,,,,,,,,,,,,,,,,,,,,,,64,orgulloso,,,,,439.7409,440.838,0,0,0.5664,,0,60,60,63,1,REAL,FAKE,,,,,,,,,,,,,,,,,
,,,,,,,,,65ca88708a87327cd873ac26,spanish,13 or older,"no, only English or Spanish",yes,2025-07-23_21h59.55.327,empathy_intonation_perc_control,2024.2.4,Win32,60.24096386,65ca88708a87327cd873ac26,68817205a84113384fffdfe3,6881936438a52c1f89bb1731,,,,,,,,,,,,,0,,,,,,,,,,,,,,,,,,,,,,,,,,,,,,,,,,,,,16,abracer,,,,,440.8407,441.9713,1,0,0.5983,,0,61,61,15,1,REAL,FAKE,,,,,,,,,,,,,,,,,
,,,,,,,,,65ca88708a87327cd873ac26,spanish,13 or older,"no, only English or Spanish",yes,2025-07-23_21h59.55.327,empathy_intonation_perc_control,2024.2.4,Win32,60.24096386,65ca88708a87327cd873ac26,68817205a84113384fffdfe3,6881936438a52c1f89bb1731,,,,,,,,,,,,,1,,,,,,,,,,,,,,,,,,,,,,,,,,,,,,,,,,,,,88,acantilado,,,,,441.9739,443.6383,0,0,1.1313,,0,62,62,87,1,REAL,FAKE,,,,,,,,,,,,,,,,,
,,,,,,,,,65ca88708a87327cd873ac26,spanish,13 or older,"no, only English or Spanish",yes,2025-07-23_21h59.55.327,empathy_intonation_perc_control,2024.2.4,Win32,60.24096386,65ca88708a87327cd873ac26,68817205a84113384fffdfe3,6881936438a52c1f89bb1731,,,,,,,,,,,,,0,,,,,,,,,,,,,,,,,,,,,,,,,,,,,,,,,,,,,17,floroso,,,,,443.641,444.955,1,0,0.7813,,0,63,63,16,1,REAL,FAKE,,,,,,,,,,,,,,,,,
,,,,,,,,,65ca88708a87327cd873ac26,spanish,13 or older,"no, only English or Spanish",yes,2025-07-23_21h59.55.327,empathy_intonation_perc_control,2024.2.4,Win32,60.24096386,65ca88708a87327cd873ac26,68817205a84113384fffdfe3,6881936438a52c1f89bb1731,,,,,,,,,,,,,1,,,,,,,,,,,,,,,,,,,,,,,,,,,,,,,,,,,,,40,alfombra,,,,,444.9578,446.221,0,0,0.737,,0,64,64,39,1,REAL,FAKE,,,,,,,,,,,,,,,,,
,,,,,,,,,65ca88708a87327cd873ac26,spanish,13 or older,"no, only English or Spanish",yes,2025-07-23_21h59.55.327,empathy_intonation_perc_control,2024.2.4,Win32,60.24096386,65ca88708a87327cd873ac26,68817205a84113384fffdfe3,6881936438a52c1f89bb1731,,,,,,,,,,,,,1,,,,,,,,,,,,,,,,,,,,,,,,,,,,,,,,,,,,,46,martillo,,,,,446.2235,447.4385,1,1,0.6889,,0,65,65,45,1,REAL,FAKE,,,,,,,,,,,,,,,,,
,,,,,,,,,65ca88708a87327cd873ac26,spanish,13 or older,"no, only English or Spanish",yes,2025-07-23_21h59.55.327,empathy_intonation_perc_control,2024.2.4,Win32,60.24096386,65ca88708a87327cd873ac26,68817205a84113384fffdfe3,6881936438a52c1f89bb1731,,,,,,,,,,,,,1,,,,,,,,,,,,,,,,,,,,,,,,,,,,,,,,,,,,,65,bizcocho,,,,,447.4413,449.0709,0,0,1.1012,,0,66,66,64,1,REAL,FAKE,,,,,,,,,,,,,,,,,
,,,,,,,,,65ca88708a87327cd873ac26,spanish,13 or older,"no, only English or Spanish",yes,2025-07-23_21h59.55.327,empathy_intonation_perc_control,2024.2.4,Win32,60.24096386,65ca88708a87327cd873ac26,68817205a84113384fffdfe3,6881936438a52c1f89bb1731,,,,,,,,,,,,,1,,,,,,,,,,,,,,,,,,,,,,,,,,,,,,,,,,,,,73,hervidor,,,,,449.073,450.505,1,1,0.9196,,0,67,67,72,1,REAL,FAKE,,,,,,,,,,,,,,,,,
,,,,,,,,,65ca88708a87327cd873ac26,spanish,13 or older,"no, only English or Spanish",yes,2025-07-23_21h59.55.327,empathy_intonation_perc_control,2024.2.4,Win32,60.24096386,65ca88708a87327cd873ac26,68817205a84113384fffdfe3,6881936438a52c1f89bb1731,,,,,,,,,,,,,1,,,,,,,,,,,,,,,,,,,,,,,,,,,,,,,,,,,,,7,pésimo,,,,,450.5077,452.0049,0,0,0.9648,,0,68,68,6,1,REAL,FAKE,,,,,,,,,,,,,,,,,
,,,,,,,,,65ca88708a87327cd873ac26,spanish,13 or older,"no, only English or Spanish",yes,2025-07-23_21h59.55.327,empathy_intonation_perc_control,2024.2.4,Win32,60.24096386,65ca88708a87327cd873ac26,68817205a84113384fffdfe3,6881936438a52c1f89bb1731,,,,,,,,,,,,,0,,,,,,,,,,,,,,,,,,,,,,,,,,,,,,,,,,,,,63,esposante,,,,,452.0071,453.4548,0,1,0.9146,,0,69,69,62,1,REAL,FAKE,,,,,,,,,,,,,,,,,
,,,,,,,,,65ca88708a87327cd873ac26,spanish,13 or older,"no, only English or Spanish",yes,2025-07-23_21h59.55.327,empathy_intonation_perc_control,2024.2.4,Win32,60.24096386,65ca88708a87327cd873ac26,68817205a84113384fffdfe3,6881936438a52c1f89bb1731,,,,,,,,,,,,,1,,,,,,,,,,,,,,,,,,,,,,,,,,,,,,,,,,,,,34,aviso,,,,,453.4579,455.3382,0,0,1.347,,0,70,70,33,1,REAL,FAKE,,,,,,,,,,,,,,,,,
,,,,,,,,,65ca88708a87327cd873ac26,spanish,13 or older,"no, only English or Spanish",yes,2025-07-23_21h59.55.327,empathy_intonation_perc_control,2024.2.4,Win32,60.24096386,65ca88708a87327cd873ac26,68817205a84113384fffdfe3,6881936438a52c1f89bb1731,,,,,,,,,,,,,1,,,,,,,,,,,,,,,,,,,,,,,,,,,,,,,,,,,,,80,hormiga,,,,,455.3409,456.8884,0,0,1.0142,,0,71,71,79,1,REAL,FAKE,,,,,,,,,,,,,,,,,
,,,,,,,,,65ca88708a87327cd873ac26,spanish,13 or older,"no, only English or Spanish",yes,2025-07-23_21h59.55.327,empathy_intonation_perc_control,2024.2.4,Win32,60.24096386,65ca88708a87327cd873ac26,68817205a84113384fffdfe3,6881936438a52c1f89bb1731,,,,,,,,,,,,,1,,,,,,,,,,,,,,,,,,,,,,,,,,,,,,,,,,,,,5,zapato,,,,,456.891,457.7384,1,1,0.3181,,0,72,72,4,1,REAL,FAKE,,,,,,,,,,,,,,,,,
,,,,,,,,,65ca88708a87327cd873ac26,spanish,13 or older,"no, only English or Spanish",yes,2025-07-23_21h59.55.327,empathy_intonation_perc_control,2024.2.4,Win32,60.24096386,65ca88708a87327cd873ac26,68817205a84113384fffdfe3,6881936438a52c1f89bb1731,,,,,,,,,,,,,0,,,,,,,,,,,,,,,,,,,,,,,,,,,,,,,,,,,,,70,temblo,,,,,457.7411,459.8553,1,0,1.5867,,0,73,73,69,1,REAL,FAKE,,,,,,,,,,,,,,,,,
,,,,,,,,,65ca88708a87327cd873ac26,spanish,13 or older,"no, only English or Spanish",yes,2025-07-23_21h59.55.327,empathy_intonation_perc_control,2024.2.4,Win32,60.24096386,65ca88708a87327cd873ac26,68817205a84113384fffdfe3,6881936438a52c1f89bb1731,,,,,,,,,,,,,1,,,,,,,,,,,,,,,,,,,,,,,,,,,,,,,,,,,,,25,bisagra,,,,,459.8587,461.4715,0,0,1.0896,,0,74,74,24,1,REAL,FAKE,,,,,,,,,,,,,,,,,
,,,,,,,,,65ca88708a87327cd873ac26,spanish,13 or older,"no, only English or Spanish",yes,2025-07-23_21h59.55.327,empathy_intonation_perc_control,2024.2.4,Win32,60.24096386,65ca88708a87327cd873ac26,68817205a84113384fffdfe3,6881936438a52c1f89bb1731,,,,,,,,,,,,,1,,,,,,,,,,,,,,,,,,,,,,,,,,,,,,,,,,,,,11,cenefa,,,,,461.4742,463.2053,0,0,1.1989,,0,75,75,10,1,REAL,FAKE,,,,,,,,,,,,,,,,,
,,,,,,,,,65ca88708a87327cd873ac26,spanish,13 or older,"no, only English or Spanish",yes,2025-07-23_21h59.55.327,empathy_intonation_perc_control,2024.2.4,Win32,60.24096386,65ca88708a87327cd873ac26,68817205a84113384fffdfe3,6881936438a52c1f89bb1731,,,,,,,,,,,,,0,,,,,,,,,,,,,,,,,,,,,,,,,,,,,,,,,,,,,21,capillo,,,,,463.2082,464.3221,1,0,0.5826,,0,76,76,20,1,REAL,FAKE,,,,,,,,,,,,,,,,,
,,,,,,,,,65ca88708a87327cd873ac26,spanish,13 or older,"no, only English or Spanish",yes,2025-07-23_21h59.55.327,empathy_intonation_perc_control,2024.2.4,Win32,60.24096386,65ca88708a87327cd873ac26,68817205a84113384fffdfe3,6881936438a52c1f89bb1731,,,,,,,,,,,,,0,,,,,,,,,,,,,,,,,,,,,,,,,,,,,,,,,,,,,79,tropaje,,,,,464.325,465.6217,1,0,0.7649,,0,77,77,78,1,REAL,FAKE,,,,,,,,,,,,,,,,,
,,,,,,,,,65ca88708a87327cd873ac26,spanish,13 or older,"no, only English or Spanish",yes,2025-07-23_21h59.55.327,empathy_intonation_perc_control,2024.2.4,Win32,60.24096386,65ca88708a87327cd873ac26,68817205a84113384fffdfe3,6881936438a52c1f89bb1731,,,,,,,,,,,,,0,,,,,,,,,,,,,,,,,,,,,,,,,,,,,,,,,,,,,47,cartinar,,,,,465.6248,467.3054,1,0,1.1553,,0,78,78,46,1,REAL,FAKE,,,,,,,,,,,,,,,,,
,,,,,,,,,65ca88708a87327cd873ac26,spanish,13 or older,"no, only English or Spanish",yes,2025-07-23_21h59.55.327,empathy_intonation_perc_control,2024.2.4,Win32,60.24096386,65ca88708a87327cd873ac26,68817205a84113384fffdfe3,6881936438a52c1f89bb1731,,,,,,,,,,,,,1,,,,,,,,,,,,,,,,,,,,,,,,,,,,,,,,,,,,,69,engatusar,,,,,467.3083,468.6893,1,1,0.8541,,0,79,79,68,1,REAL,FAKE,,,,,,,,,,,,,,,,,
,,,,,,,,,65ca88708a87327cd873ac26,spanish,13 or older,"no, only English or Spanish",yes,2025-07-23_21h59.55.327,empathy_intonation_perc_control,2024.2.4,Win32,60.24096386,65ca88708a87327cd873ac26,68817205a84113384fffdfe3,6881936438a52c1f89bb1731,,,,,,,,,,,,,0,,,,,,,,,,,,,,,,,,,,,,,,,,,,,,,,,,,,,35,rompido,,,,,468.6918,470.3382,1,0,1.1182,,0,80,80,34,1,REAL,FAKE,,,,,,,,,,,,,,,,,
,,,,,,,,,65ca88708a87327cd873ac26,spanish,13 or older,"no, only English or Spanish",yes,2025-07-23_21h59.55.327,empathy_intonation_perc_control,2024.2.4,Win32,60.24096386,65ca88708a87327cd873ac26,68817205a84113384fffdfe3,6881936438a52c1f89bb1731,,,,,,,,,,,,,1,,,,,,,,,,,,,,,,,,,,,,,,,,,,,,,,,,,,,89,prisa,,,,,470.3405,471.5087,0,0,0.6421,,0,81,81,88,1,REAL,FAKE,,,,,,,,,,,,,,,,,
,,,,,,,,,65ca88708a87327cd873ac26,spanish,13 or older,"no, only English or Spanish",yes,2025-07-23_21h59.55.327,empathy_intonation_perc_control,2024.2.4,Win32,60.24096386,65ca88708a87327cd873ac26,68817205a84113384fffdfe3,6881936438a52c1f89bb1731,,,,,,,,,,,,,1,,,,,,,,,,,,,,,,,,,,,,,,,,,,,,,,,,,,,68,alegre,,,,,471.51,474.1392,1,1,2.1066,,0,82,82,67,1,REAL,FAKE,,,,,,,,,,,,,,,,,
,,,,,,,,,65ca88708a87327cd873ac26,spanish,13 or older,"no, only English or Spanish",yes,2025-07-23_21h59.55.327,empathy_intonation_perc_control,2024.2.4,Win32,60.24096386,65ca88708a87327cd873ac26,68817205a84113384fffdfe3,6881936438a52c1f89bb1731,,,,,,,,,,,,,0,,,,,,,,,,,,,,,,,,,,,,,,,,,,,,,,,,,,,1,terzo,,,,,474.1421,475.3053,0,1,0.6325,,0,83,83,0,1,REAL,FAKE,,,,,,,,,,,,,,,,,
,,,,,,,,,65ca88708a87327cd873ac26,spanish,13 or older,"no, only English or Spanish",yes,2025-07-23_21h59.55.327,empathy_intonation_perc_control,2024.2.4,Win32,60.24096386,65ca88708a87327cd873ac26,68817205a84113384fffdfe3,6881936438a52c1f89bb1731,,,,,,,,,,,,,1,,,,,,,,,,,,,,,,,,,,,,,,,,,,,,,,,,,,,62,flaco,,,,,475.3084,477.7097,0,0,1.8754,,0,84,84,61,1,REAL,FAKE,,,,,,,,,,,,,,,,,
,,,,,,,,,65ca88708a87327cd873ac26,spanish,13 or older,"no, only English or Spanish",yes,2025-07-23_21h59.55.327,empathy_intonation_perc_control,2024.2.4,Win32,60.24096386,65ca88708a87327cd873ac26,68817205a84113384fffdfe3,6881936438a52c1f89bb1731,,,,,,,,,,,,,0,,,,,,,,,,,,,,,,,,,,,,,,,,,,,,,,,,,,,42,cadallo,,,,,477.7109,479.0889,1,0,0.8504,,0,85,85,41,1,REAL,FAKE,,,,,,,,,,,,,,,,,
,,,,,,,,,65ca88708a87327cd873ac26,spanish,13 or older,"no, only English or Spanish",yes,2025-07-23_21h59.55.327,empathy_intonation_perc_control,2024.2.4,Win32,60.24096386,65ca88708a87327cd873ac26,68817205a84113384fffdfe3,6881936438a52c1f89bb1731,,,,,,,,,,,,,0,,,,,,,,,,,,,,,,,,,,,,,,,,,,,,,,,,,,,33,pauca,,,,,479.0918,480.3561,0,1,0.7322,,0,86,86,32,1,REAL,FAKE,,,,,,,,,,,,,,,,,
,,,,,,,,,65ca88708a87327cd873ac26,spanish,13 or older,"no, only English or Spanish",yes,2025-07-23_21h59.55.327,empathy_intonation_perc_control,2024.2.4,Win32,60.24096386,65ca88708a87327cd873ac26,68817205a84113384fffdfe3,6881936438a52c1f89bb1731,,,,,,,,,,,,,1,,,,,,,,,,,,,,,,,,,,,,,,,,,,,,,,,,,,,37,granuja,,,,,480.3589,485.6725,1,1,4.7894,,0,87,87,36,1,REAL,FAKE,,,,,,,,,,,,,,,,,
,,,,,,,,,65ca88708a87327cd873ac26,spanish,13 or older,"no, only English or Spanish",yes,2025-07-23_21h59.55.327,empathy_intonation_perc_control,2024.2.4,Win32,60.24096386,65ca88708a87327cd873ac26,68817205a84113384fffdfe3,6881936438a52c1f89bb1731,,,,,,,,,,,,,1,,,,,,,,,,,,,,,,,,,,,,,,,,,,,,,,,,,,,86,barato,,,,,485.6753,486.7053,0,0,0.4994,,0,88,88,85,1,REAL,FAKE,,,,,,,,,,,,,,,,,
,,,,,,,,,65ca88708a87327cd873ac26,spanish,13 or older,"no, only English or Spanish",yes,2025-07-23_21h59.55.327,empathy_intonation_perc_control,2024.2.4,Win32,60.24096386,65ca88708a87327cd873ac26,68817205a84113384fffdfe3,6881936438a52c1f89bb1731,,,,,,,,,,,,,1,,,,,,,,,,,,,,,,,,,,,,,,,,,,,,,,,,,,,14,yunque,,,,,486.7075,488.8058,0,0,1.5819,,0,89,89,13,1,REAL,FAKE,,,,,,,,,,,,,,,,,
,,,,,,,,,65ca88708a87327cd873ac26,spanish,13 or older,"no, only English or Spanish",yes,2025-07-23_21h59.55.327,empathy_intonation_perc_control,2024.2.4,Win32,60.24096386,65ca88708a87327cd873ac26,68817205a84113384fffdfe3,6881936438a52c1f89bb1731,,,,,,,,,,,,,1,,,,,,,,,,,,,,,,,,,,,,,,,,,,,,,,,,,,,90,clavel,,,,,488.8085,489.9897,1,1,0.6532,,0,90,90,89,1,REAL,FAKE,,,,,,,,,,,,,,,,,
,,,,,,,,,65ca88708a87327cd873ac26,spanish,13 or older,"no, only English or Spanish",yes,2025-07-23_21h59.55.327,empathy_intonation_perc_control,2024.2.4,Win32,60.24096386,65ca88708a87327cd873ac26,68817205a84113384fffdfe3,6881936438a52c1f89bb1731,,,,,,,,,,,,,1,,,,,,,,,,,,,,,,,,,,,,,,,,,,,,,,,,,,,59,besar,,,,,489.9924,490.9231,0,0,0.4051,,0,91,91,58,1,REAL,FAKE,,,,,,,,,,,,,,,,,
,,,,,,,,,65ca88708a87327cd873ac26,spanish,13 or older,"no, only English or Spanish",yes,2025-07-23_21h59.55.327,empathy_intonation_perc_control,2024.2.4,Win32,60.24096386,65ca88708a87327cd873ac26,68817205a84113384fffdfe3,6881936438a52c1f89bb1731,,,,,,,,,,,,,,,,,,,,,,,,,,,,,,,,,,,,,,,,,,,,,,,,,,,,,,,,,,,,,,,,,,,,,490.9244,505.2741,,,,,,,,,,,,,,,
,,,,,,,,,65ca88708a87327cd873ac26,spanish,13 or older,"no, only English or Spanish",yes,2025-07-23_21h59.55.327,empathy_intonation_perc_control,2024.2.4,Win32,60.24096386,65ca88708a87327cd873ac26,68817205a84113384fffdfe3,6881936438a52c1f89bb1731,,,,,,,,,,,,,,,,,,,,,,,,,,,1,,,,,,,,,,,,,,,,,,,,,,,,,,,,,,,,,,,,,,,,,,,,505.2878,514.9459,slightly agree,0,0,0,0,1,I can easily tell if someone else wants to enter a conversation.,1,0,1,0,,
,,,,,,,,,65ca88708a87327cd873ac26,spanish,13 or older,"no, only English or Spanish",yes,2025-07-23_21h59.55.327,empathy_intonation_perc_control,2024.2.4,Win32,60.24096386,65ca88708a87327cd873ac26,68817205a84113384fffdfe3,6881936438a52c1f89bb1731,,,,,,,,,,,,,,,,,,,,,,,,,,,2,,,,,,,,,,,,,,,,,,,,,,,,,,,,,,,,,,,,,,,,,,,,514.9482,516.0453,strongly agree,0,1,1,1,1,I prefer animals to humans.,0,1,0,0,,
,,,,,,,,,65ca88708a87327cd873ac26,spanish,13 or older,"no, only English or Spanish",yes,2025-07-23_21h59.55.327,empathy_intonation_perc_control,2024.2.4,Win32,60.24096386,65ca88708a87327cd873ac26,68817205a84113384fffdfe3,6881936438a52c1f89bb1731,,,,,,,,,,,,,,,,,,,,,,,,,,,3,,,,,,,,,,,,,,,,,,,,,,,,,,,,,,,,,,,,,,,,,,,,516.0468,523.6121,slightly agree,0,2,2,2,1,I try to keep up with the current trends and fashions.,0,1,0,0,,
,,,,,,,,,65ca88708a87327cd873ac26,spanish,13 or older,"no, only English or Spanish",yes,2025-07-23_21h59.55.327,empathy_intonation_perc_control,2024.2.4,Win32,60.24096386,65ca88708a87327cd873ac26,68817205a84113384fffdfe3,6881936438a52c1f89bb1731,,,,,,,,,,,,,,,,,,,,,,,,,,,4,,,,,,,,,,,,,,,,,,,,,,,,,,,,,,,,,,,,,,,,,,,,523.6148,537.112,slightly disagree,0,3,3,3,1,"I find it difficult to explain to others things that I understand easily,   when they don't understand it first time.",1,0,0,1,,
,,,,,,,,,65ca88708a87327cd873ac26,spanish,13 or older,"no, only English or Spanish",yes,2025-07-23_21h59.55.327,empathy_intonation_perc_control,2024.2.4,Win32,60.24096386,65ca88708a87327cd873ac26,68817205a84113384fffdfe3,6881936438a52c1f89bb1731,,,,,,,,,,,,,,,,,,,,,,,,,,,5,,,,,,,,,,,,,,,,,,,,,,,,,,,,,,,,,,,,,,,,,,,,537.1136,541.6961,strongly disagree,0,4,4,4,1,I dream most nights.,0,1,0,0,,
,,,,,,,,,65ca88708a87327cd873ac26,spanish,13 or older,"no, only English or Spanish",yes,2025-07-23_21h59.55.327,empathy_intonation_perc_control,2024.2.4,Win32,60.24096386,65ca88708a87327cd873ac26,68817205a84113384fffdfe3,6881936438a52c1f89bb1731,,,,,,,,,,,,,,,,,,,,,,,,,,,6,,,,,,,,,,,,,,,,,,,,,,,,,,,,,,,,,,,,,,,,,,,,541.6983,545.5629,strongly agree,0,5,5,5,1,I really enjoy caring for other people.,1,0,1,0,,
,,,,,,,,,65ca88708a87327cd873ac26,spanish,13 or older,"no, only English or Spanish",yes,2025-07-23_21h59.55.327,empathy_intonation_perc_control,2024.2.4,Win32,60.24096386,65ca88708a87327cd873ac26,68817205a84113384fffdfe3,6881936438a52c1f89bb1731,,,,,,,,,,,,,,,,,,,,,,,,,,,7,,,,,,,,,,,,,,,,,,,,,,,,,,,,,,,,,,,,,,,,,,,,545.5651,549.6116,slightly agree,0,6,6,6,1,I try to solve my own problems rather than discussing them with others.,0,1,0,0,,
,,,,,,,,,65ca88708a87327cd873ac26,spanish,13 or older,"no, only English or Spanish",yes,2025-07-23_21h59.55.327,empathy_intonation_perc_control,2024.2.4,Win32,60.24096386,65ca88708a87327cd873ac26,68817205a84113384fffdfe3,6881936438a52c1f89bb1731,,,,,,,,,,,,,,,,,,,,,,,,,,,8,,,,,,,,,,,,,,,,,,,,,,,,,,,,,,,,,,,,,,,,,,,,549.6133,553.7469,slightly disagree,0,7,7,7,1,I find it hard to know what to do in a social situation.,1,0,0,1,,
,,,,,,,,,65ca88708a87327cd873ac26,spanish,13 or older,"no, only English or Spanish",yes,2025-07-23_21h59.55.327,empathy_intonation_perc_control,2024.2.4,Win32,60.24096386,65ca88708a87327cd873ac26,68817205a84113384fffdfe3,6881936438a52c1f89bb1731,,,,,,,,,,,,,,,,,,,,,,,,,,,9,,,,,,,,,,,,,,,,,,,,,,,,,,,,,,,,,,,,,,,,,,,,553.7487,558.8254,slightly disagree,0,8,8,8,1,I am at my best first thing in the morning.,0,1,0,0,,
,,,,,,,,,65ca88708a87327cd873ac26,spanish,13 or older,"no, only English or Spanish",yes,2025-07-23_21h59.55.327,empathy_intonation_perc_control,2024.2.4,Win32,60.24096386,65ca88708a87327cd873ac26,68817205a84113384fffdfe3,6881936438a52c1f89bb1731,,,,,,,,,,,,,,,,,,,,,,,,,,,10,,,,,,,,,,,,,,,,,,,,,,,,,,,,,,,,,,,,,,,,,,,,558.8291,567.4466,slightly disagree,0,9,9,9,1,People often tell me that I went too far in driving my point home in a discussion.,1,0,0,1,,
,,,,,,,,,65ca88708a87327cd873ac26,spanish,13 or older,"no, only English or Spanish",yes,2025-07-23_21h59.55.327,empathy_intonation_perc_control,2024.2.4,Win32,60.24096386,65ca88708a87327cd873ac26,68817205a84113384fffdfe3,6881936438a52c1f89bb1731,,,,,,,,,,,,,,,,,,,,,,,,,,,11,,,,,,,,,,,,,,,,,,,,,,,,,,,,,,,,,,,,,,,,,,,,567.4483,575.8968,slightly disagree,0,10,10,10,1,It doesn't bother me too much if I am late meeting a friend.,1,0,0,1,,
,,,,,,,,,65ca88708a87327cd873ac26,spanish,13 or older,"no, only English or Spanish",yes,2025-07-23_21h59.55.327,empathy_intonation_perc_control,2024.2.4,Win32,60.24096386,65ca88708a87327cd873ac26,68817205a84113384fffdfe3,6881936438a52c1f89bb1731,,,,,,,,,,,,,,,,,,,,,,,,,,,12,,,,,,,,,,,,,,,,,,,,,,,,,,,,,,,,,,,,,,,,,,,,575.8993,580.0469,slightly disagree,0,11,11,11,1,"Friendships and relationships are just too difficult, so I tend not to 
  bother with them.",1,0,0,1,,
,,,,,,,,,65ca88708a87327cd873ac26,spanish,13 or older,"no, only English or Spanish",yes,2025-07-23_21h59.55.327,empathy_intonation_perc_control,2024.2.4,Win32,60.24096386,65ca88708a87327cd873ac26,68817205a84113384fffdfe3,6881936438a52c1f89bb1731,,,,,,,,,,,,,,,,,,,,,,,,,,,13,,,,,,,,,,,,,,,,,,,,,,,,,,,,,,,,,,,,,,,,,,,,580.0486,583.3801,strongly disagree,0,12,12,12,1,"I would never break a law, no matter how minor.",0,1,0,0,,
,,,,,,,,,65ca88708a87327cd873ac26,spanish,13 or older,"no, only English or Spanish",yes,2025-07-23_21h59.55.327,empathy_intonation_perc_control,2024.2.4,Win32,60.24096386,65ca88708a87327cd873ac26,68817205a84113384fffdfe3,6881936438a52c1f89bb1731,,,,,,,,,,,,,,,,,,,,,,,,,,,14,,,,,,,,,,,,,,,,,,,,,,,,,,,,,,,,,,,,,,,,,,,,583.3815,593.8971,slightly disagree,0,13,13,13,1,I often find it difficult to judge if something is rude or polite.,1,0,0,1,,
,,,,,,,,,65ca88708a87327cd873ac26,spanish,13 or older,"no, only English or Spanish",yes,2025-07-23_21h59.55.327,empathy_intonation_perc_control,2024.2.4,Win32,60.24096386,65ca88708a87327cd873ac26,68817205a84113384fffdfe3,6881936438a52c1f89bb1731,,,,,,,,,,,,,,,,,,,,,,,,,,,15,,,,,,,,,,,,,,,,,,,,,,,,,,,,,,,,,,,,,,,,,,,,593.899,598.7626,slightly disagree,0,14,14,14,1,"In a conversation, I tend to focus on my own thoughts rather than on what 
  my listener might be thinking.",1,0,0,1,,
,,,,,,,,,65ca88708a87327cd873ac26,spanish,13 or older,"no, only English or Spanish",yes,2025-07-23_21h59.55.327,empathy_intonation_perc_control,2024.2.4,Win32,60.24096386,65ca88708a87327cd873ac26,68817205a84113384fffdfe3,6881936438a52c1f89bb1731,,,,,,,,,,,,,,,,,,,,,,,,,,,16,,,,,,,,,,,,,,,,,,,,,,,,,,,,,,,,,,,,,,,,,,,,598.7643,602.3645,slightly agree,0,15,15,15,1,I prefer practical jokes to verbal humor.,0,1,0,0,,
,,,,,,,,,65ca88708a87327cd873ac26,spanish,13 or older,"no, only English or Spanish",yes,2025-07-23_21h59.55.327,empathy_intonation_perc_control,2024.2.4,Win32,60.24096386,65ca88708a87327cd873ac26,68817205a84113384fffdfe3,6881936438a52c1f89bb1731,,,,,,,,,,,,,,,,,,,,,,,,,,,17,,,,,,,,,,,,,,,,,,,,,,,,,,,,,,,,,,,,,,,,,,,,602.3657,608.9471,slightly disagree,0,16,16,16,1,I live life for today rather than the future.,0,1,0,0,,
,,,,,,,,,65ca88708a87327cd873ac26,spanish,13 or older,"no, only English or Spanish",yes,2025-07-23_21h59.55.327,empathy_intonation_perc_control,2024.2.4,Win32,60.24096386,65ca88708a87327cd873ac26,68817205a84113384fffdfe3,6881936438a52c1f89bb1731,,,,,,,,,,,,,,,,,,,,,,,,,,,18,,,,,,,,,,,,,,,,,,,,,,,,,,,,,,,,,,,,,,,,,,,,608.9492,613.8319,strongly disagree,0,17,17,17,1,"When I was a child, I enjoyed cutting up worms to see what would happen.",1,0,0,1,,
,,,,,,,,,65ca88708a87327cd873ac26,spanish,13 or older,"no, only English or Spanish",yes,2025-07-23_21h59.55.327,empathy_intonation_perc_control,2024.2.4,Win32,60.24096386,65ca88708a87327cd873ac26,68817205a84113384fffdfe3,6881936438a52c1f89bb1731,,,,,,,,,,,,,,,,,,,,,,,,,,,19,,,,,,,,,,,,,,,,,,,,,,,,,,,,,,,,,,,,,,,,,,,,613.8349,619.6646,slightly disagree,0,18,18,18,1,I can pick up quickly if someone says one thing but means another.,1,0,1,0,,
,,,,,,,,,65ca88708a87327cd873ac26,spanish,13 or older,"no, only English or Spanish",yes,2025-07-23_21h59.55.327,empathy_intonation_perc_control,2024.2.4,Win32,60.24096386,65ca88708a87327cd873ac26,68817205a84113384fffdfe3,6881936438a52c1f89bb1731,,,,,,,,,,,,,,,,,,,,,,,,,,,20,,,,,,,,,,,,,,,,,,,,,,,,,,,,,,,,,,,,,,,,,,,,619.6663,624.2273,slightly disagree,0,19,19,19,1,I tend to have very strong opinions about morality.,0,1,0,0,,
,,,,,,,,,65ca88708a87327cd873ac26,spanish,13 or older,"no, only English or Spanish",yes,2025-07-23_21h59.55.327,empathy_intonation_perc_control,2024.2.4,Win32,60.24096386,65ca88708a87327cd873ac26,68817205a84113384fffdfe3,6881936438a52c1f89bb1731,,,,,,,,,,,,,,,,,,,,,,,,,,,21,,,,,,,,,,,,,,,,,,,,,,,,,,,,,,,,,,,,,,,,,,,,624.2299,632.232,slightly disagree,0,20,20,20,1,It is hard for me to see why some things upset people so much.,1,0,0,1,,
,,,,,,,,,65ca88708a87327cd873ac26,spanish,13 or older,"no, only English or Spanish",yes,2025-07-23_21h59.55.327,empathy_intonation_perc_control,2024.2.4,Win32,60.24096386,65ca88708a87327cd873ac26,68817205a84113384fffdfe3,6881936438a52c1f89bb1731,,,,,,,,,,,,,,,,,,,,,,,,,,,22,,,,,,,,,,,,,,,,,,,,,,,,,,,,,,,,,,,,,,,,,,,,632.2338,636.215,slightly agree,0,21,21,21,1,I find it easy to put myself in somebody else's shoes.,1,0,1,0,,
,,,,,,,,,65ca88708a87327cd873ac26,spanish,13 or older,"no, only English or Spanish",yes,2025-07-23_21h59.55.327,empathy_intonation_perc_control,2024.2.4,Win32,60.24096386,65ca88708a87327cd873ac26,68817205a84113384fffdfe3,6881936438a52c1f89bb1731,,,,,,,,,,,,,,,,,,,,,,,,,,,23,,,,,,,,,,,,,,,,,,,,,,,,,,,,,,,,,,,,,,,,,,,,636.2172,642.2487,slightly agree,0,22,22,22,1,I think that good manners are the most important thing a parent can teach their child.,0,1,0,0,,
,,,,,,,,,65ca88708a87327cd873ac26,spanish,13 or older,"no, only English or Spanish",yes,2025-07-23_21h59.55.327,empathy_intonation_perc_control,2024.2.4,Win32,60.24096386,65ca88708a87327cd873ac26,68817205a84113384fffdfe3,6881936438a52c1f89bb1731,,,,,,,,,,,,,,,,,,,,,,,,,,,24,,,,,,,,,,,,,,,,,,,,,,,,,,,,,,,,,,,,,,,,,,,,642.2502,647.8115,slightly agree,0,23,23,23,1,I like to do things on the spur of the moment.,0,1,0,0,,
