instructions_2afc.started,instructions_2afc.stopped,instructions_2afc_loop.thisRepN,instructions_2afc_loop.thisTrialN,instructions_2afc_loop.thisN,instructions_2afc_loop.thisIndex,instructions_2afc_loop.ran,instructions_text,continue_text,participant_id,"What variety of Spanish are you most familiar with? (e.g., Peruvian, Spanish, Mexican)",At what age did you begin learning Spanish?,Are you proficient in any languages other than English/Spanish?,"Are you familiar with Caribbean (e.g., Caribbean, Puerto Rican) or Galician Spanish?",date,expName,psychopyVersion,OS,frameRate,id,study_id,session,practice_2afc.started,practice_2afc.stopped,key_resp_2afc_practice.keys,key_resp_2afc_practice.corr,key_resp_2afc_practice.rt,key_resp_2afc_practice.duration,trials_2afc_practice_loop.thisRepN,trials_2afc_practice_loop.thisTrialN,trials_2afc_practice_loop.thisN,trials_2afc_practice_loop.thisIndex,trials_2afc_practice_loop.ran,path,correct_response,check_2afc.started,check_2afc.stopped,trial_2afc.started,trial_2afc.stopped,key_resp_2afc_trial.keys,key_resp_2afc_trial.corr,key_resp_2afc_trial.rt,key_resp_2afc_trial.duration,trials_2afc_loop.thisRepN,trials_2afc_loop.thisTrialN,trials_2afc_loop.thisN,trials_2afc_loop.thisIndex,trials_2afc_loop.ran,item_num,target,variety,instructions_lextale.started,instructions_lextale.stopped,instructions_lextale_loop.thisRepN,instructions_lextale_loop.thisTrialN,instructions_lextale_loop.thisN,instructions_lextale_loop.thisIndex,instructions_lextale_loop.ran,practice_lextale.started,practice_lextale.stopped,key_resp_lextale_practice.keys,key_resp_lextale_practice.corr,key_resp_lextale_practice.rt,key_resp_lextale_practice.duration,practice_feedback_lextale.started,practice_feedback_lextale.stopped,trials_lextale_practice_loop.thisRepN,trials_lextale_practice_loop.thisTrialN,trials_lextale_practice_loop.thisN,trials_lextale_practice_loop.thisIndex,trials_lextale_practice_loop.ran,stim,word,prac_button_real,prac_button_false,check_lextale.started,check_lextale.stopped,trial_lextale.started,trial_lextale.stopped,key_resp_lextale_trial.keys,key_resp_lextale_trial.corr,key_resp_lextale_trial.rt,key_resp_lextale_trial.duration,trials_lextale_loop.thisRepN,trials_lextale_loop.thisTrialN,trials_lextale_loop.thisN,trials_lextale_loop.thisIndex,trials_lextale_loop.ran,button_real,button_false,instructions_eq.started,instructions_eq.stopped,trial_eq.started,trial_eq.stopped,slider_eq_trial.response,trials_eq_loop.thisRepN,trials_eq_loop.thisTrialN,trials_eq_loop.thisN,trials_eq_loop.thisIndex,trials_eq_loop.ran,item,is_test_item,is_distractor,is_agree_score,is_disagree_score,end_exp.started,end_exp.stopped
0.0264,4.1218,0,0,0,0,1,"In the following task you are going to hear a series of utterances. 

  You will decide if the utterances sound like questions or not using your keyboard.", (press the spacebar to continue),65cb7b14e78fc98ecd71d8de,Mexican,13 or older,"yes, I am fluent in another language",no,2025-07-24_07h53.06.294,empathy_intonation_perc_control,2024.2.4,Win32,60.24096386,65cb7b14e78fc98ecd71d8de,68817205a84113384fffdfe3,68821e745d16b31dd9c1d2dc,,,,,,,,,,,,,,,,,,,,,,,,,,,,,,,,,,,,,,,,,,,,,,,,,,,,,,,,,,,,,,,,,,,,,,,,,,,,,,,,,,,,,
4.1318,18.2804,0,1,1,1,1,"If you believe the utterance is a question, type '1' (for 'yes') and if you do not 
  believe it is a question type '0' (for 'no').

  Let's practice a bit...", (press the spacebar to continue),65cb7b14e78fc98ecd71d8de,Mexican,13 or older,"yes, I am fluent in another language",no,2025-07-24_07h53.06.294,empathy_intonation_perc_control,2024.2.4,Win32,60.24096386,65cb7b14e78fc98ecd71d8de,68817205a84113384fffdfe3,68821e745d16b31dd9c1d2dc,,,,,,,,,,,,,,,,,,,,,,,,,,,,,,,,,,,,,,,,,,,,,,,,,,,,,,,,,,,,,,,,,,,,,,,,,,,,,,,,,,,,,
,,,,,,,,,65cb7b14e78fc98ecd71d8de,Mexican,13 or older,"yes, I am fluent in another language",no,2025-07-24_07h53.06.294,empathy_intonation_perc_control,2024.2.4,Win32,60.24096386,65cb7b14e78fc98ecd71d8de,68817205a84113384fffdfe3,68821e745d16b31dd9c1d2dc,18.317,21.1927,0,1,2.3347,,0,0,0,4,1,./stim/wavs/cuban_statement_filler_Cocinabas-por-la-noche.wav,0,,,,,,,,,,,,,,,,,,,,,,,,,,,,,,,,,,,,,,,,,,,,,,,,,,,,,,,,,,,,,,,,,,,,,,,,
,,,,,,,,,65cb7b14e78fc98ecd71d8de,Mexican,13 or older,"yes, I am fluent in another language",no,2025-07-24_07h53.06.294,empathy_intonation_perc_control,2024.2.4,Win32,60.24096386,65cb7b14e78fc98ecd71d8de,68817205a84113384fffdfe3,68821e745d16b31dd9c1d2dc,21.1947,23.3587,1,1,1.6344,,0,1,1,1,1,./stim/wavs/argentine_question_filler_Mi-vecino-habla-mucho.wav,1,,,,,,,,,,,,,,,,,,,,,,,,,,,,,,,,,,,,,,,,,,,,,,,,,,,,,,,,,,,,,,,,,,,,,,,,
,,,,,,,,,65cb7b14e78fc98ecd71d8de,Mexican,13 or older,"yes, I am fluent in another language",no,2025-07-24_07h53.06.294,empathy_intonation_perc_control,2024.2.4,Win32,60.24096386,65cb7b14e78fc98ecd71d8de,68817205a84113384fffdfe3,68821e745d16b31dd9c1d2dc,23.3605,25.8077,1,1,1.9203,,0,2,2,2,1,./stim/wavs/chilean_question_filler_Mi-padre-cantaba-bien.wav,1,,,,,,,,,,,,,,,,,,,,,,,,,,,,,,,,,,,,,,,,,,,,,,,,,,,,,,,,,,,,,,,,,,,,,,,,
,,,,,,,,,65cb7b14e78fc98ecd71d8de,Mexican,13 or older,"yes, I am fluent in another language",no,2025-07-24_07h53.06.294,empathy_intonation_perc_control,2024.2.4,Win32,60.24096386,65cb7b14e78fc98ecd71d8de,68817205a84113384fffdfe3,68821e745d16b31dd9c1d2dc,25.809,28.3431,0,1,2.0007,,0,3,3,5,1,./stim/wavs/andalusian_statement_filler_Alberto-nunca-se-afeita.wav,0,,,,,,,,,,,,,,,,,,,,,,,,,,,,,,,,,,,,,,,,,,,,,,,,,,,,,,,,,,,,,,,,,,,,,,,,
,,,,,,,,,65cb7b14e78fc98ecd71d8de,Mexican,13 or older,"yes, I am fluent in another language",no,2025-07-24_07h53.06.294,empathy_intonation_perc_control,2024.2.4,Win32,60.24096386,65cb7b14e78fc98ecd71d8de,68817205a84113384fffdfe3,68821e745d16b31dd9c1d2dc,28.3451,31.175,0,0,2.3006,,0,4,4,0,1,./stim/wavs/castilian_question_filler_Mi-esposo-conoce-al-chico.wav,1,,,,,,,,,,,,,,,,,,,,,,,,,,,,,,,,,,,,,,,,,,,,,,,,,,,,,,,,,,,,,,,,,,,,,,,,
,,,,,,,,,65cb7b14e78fc98ecd71d8de,Mexican,13 or older,"yes, I am fluent in another language",no,2025-07-24_07h53.06.294,empathy_intonation_perc_control,2024.2.4,Win32,60.24096386,65cb7b14e78fc98ecd71d8de,68817205a84113384fffdfe3,68821e745d16b31dd9c1d2dc,31.1771,34.1926,0,0,2.4979,,0,5,5,3,1,./stim/wavs/mexican_question_filler_Felipe-no-tiene-contrasena.wav,1,,,,,,,,,,,,,,,,,,,,,,,,,,,,,,,,,,,,,,,,,,,,,,,,,,,,,,,,,,,,,,,,,,,,,,,,
,,,,,,,,,65cb7b14e78fc98ecd71d8de,Mexican,13 or older,"yes, I am fluent in another language",no,2025-07-24_07h53.06.294,empathy_intonation_perc_control,2024.2.4,Win32,60.24096386,65cb7b14e78fc98ecd71d8de,68817205a84113384fffdfe3,68821e745d16b31dd9c1d2dc,34.1944,36.9567,0,1,2.2316,,0,6,6,6,1,./stim/wavs/peruvian_statement_filler_El-nino-habla-con-su-madre.wav,0,,,,,,,,,,,,,,,,,,,,,,,,,,,,,,,,,,,,,,,,,,,,,,,,,,,,,,,,,,,,,,,,,,,,,,,,
,,,,,,,,,65cb7b14e78fc98ecd71d8de,Mexican,13 or older,"yes, I am fluent in another language",no,2025-07-24_07h53.06.294,empathy_intonation_perc_control,2024.2.4,Win32,60.24096386,65cb7b14e78fc98ecd71d8de,68817205a84113384fffdfe3,68821e745d16b31dd9c1d2dc,36.9573,39.3585,0,1,1.8869,,0,7,7,7,1,./stim/wavs/puertorican_statement_filler_La-nina-pinta-con-su-amiga.wav,0,,,,,,,,,,,,,,,,,,,,,,,,,,,,,,,,,,,,,,,,,,,,,,,,,,,,,,,,,,,,,,,,,,,,,,,,
,,,,,,,,,65cb7b14e78fc98ecd71d8de,Mexican,13 or older,"yes, I am fluent in another language",no,2025-07-24_07h53.06.294,empathy_intonation_perc_control,2024.2.4,Win32,60.24096386,65cb7b14e78fc98ecd71d8de,68817205a84113384fffdfe3,68821e745d16b31dd9c1d2dc,,,,,,,,,,,,,,39.3593,41.4773,,,,,,,,,,,,,,,,,,,,,,,,,,,,,,,,,,,,,,,,,,,,,,,,,,,,,,,,,,,,,,,,,,,,,,
,,,,,,,,,65cb7b14e78fc98ecd71d8de,Mexican,13 or older,"yes, I am fluent in another language",no,2025-07-24_07h53.06.294,empathy_intonation_perc_control,2024.2.4,Win32,60.24096386,65cb7b14e78fc98ecd71d8de,68817205a84113384fffdfe3,68821e745d16b31dd9c1d2dc,,,,,,,,,,,,./stim/wavs/mexican_mismatch_interrogative-total-yn_Mi-novio-viene-del-lago.wav,1,,,41.5175,44.0077,0,0,1.9682,,0,0,0,37,1,38,0,mexican,,,,,,,,,,,,,,,,,,,,,,,,,,,,,,,,,,,,,,,,,,,,,,,,,,,,,,,,
,,,,,,,,,65cb7b14e78fc98ecd71d8de,Mexican,13 or older,"yes, I am fluent in another language",no,2025-07-24_07h53.06.294,empathy_intonation_perc_control,2024.2.4,Win32,60.24096386,65cb7b14e78fc98ecd71d8de,68817205a84113384fffdfe3,68821e745d16b31dd9c1d2dc,,,,,,,,,,,,./stim/wavs/puertorican_match_declarative-broad-focus_Daniel-iba-a-Bolivia.wav,0,,,44.0096,46.0471,0,1,1.5129,,0,1,1,63,1,64,0,puertorican,,,,,,,,,,,,,,,,,,,,,,,,,,,,,,,,,,,,,,,,,,,,,,,,,,,,,,,,
,,,,,,,,,65cb7b14e78fc98ecd71d8de,Mexican,13 or older,"yes, I am fluent in another language",no,2025-07-24_07h53.06.294,empathy_intonation_perc_control,2024.2.4,Win32,60.24096386,65cb7b14e78fc98ecd71d8de,68817205a84113384fffdfe3,68821e745d16b31dd9c1d2dc,,,,,,,,,,,,./stim/wavs/puertorican_match_declarative-broad-focus_Ana-lleva-el-abrigo.wav,0,,,46.0481,47.9736,0,1,1.4021,,0,2,2,62,1,63,0,puertorican,,,,,,,,,,,,,,,,,,,,,,,,,,,,,,,,,,,,,,,,,,,,,,,,,,,,,,,,
,,,,,,,,,65cb7b14e78fc98ecd71d8de,Mexican,13 or older,"yes, I am fluent in another language",no,2025-07-24_07h53.06.294,empathy_intonation_perc_control,2024.2.4,Win32,60.24096386,65cb7b14e78fc98ecd71d8de,68817205a84113384fffdfe3,68821e745d16b31dd9c1d2dc,,,,,,,,,,,,./stim/wavs/castilian_match_declarative-broad-focus_Manuela-vende-el-carro.wav,0,,,47.9755,50.2782,0,1,1.7769,,0,3,3,46,1,47,0,castilian,,,,,,,,,,,,,,,,,,,,,,,,,,,,,,,,,,,,,,,,,,,,,,,,,,,,,,,,
,,,,,,,,,65cb7b14e78fc98ecd71d8de,Mexican,13 or older,"yes, I am fluent in another language",no,2025-07-24_07h53.06.294,empathy_intonation_perc_control,2024.2.4,Win32,60.24096386,65cb7b14e78fc98ecd71d8de,68817205a84113384fffdfe3,68821e745d16b31dd9c1d2dc,,,,,,,,,,,,./stim/wavs/puertorican_match_interrogative-total-yn_Emilio-ama-la-marcha.wav,1,,,50.2791,52.3771,0,0,1.5735,,0,4,4,21,1,22,1,puertorican,,,,,,,,,,,,,,,,,,,,,,,,,,,,,,,,,,,,,,,,,,,,,,,,,,,,,,,,
,,,,,,,,,65cb7b14e78fc98ecd71d8de,Mexican,13 or older,"yes, I am fluent in another language",no,2025-07-24_07h53.06.294,empathy_intonation_perc_control,2024.2.4,Win32,60.24096386,65cb7b14e78fc98ecd71d8de,68817205a84113384fffdfe3,68821e745d16b31dd9c1d2dc,,,,,,,,,,,,./stim/wavs/puertorican_match_declarative-broad-focus_Emilio-ama-la-marcha.wav,0,,,52.3785,54.5404,0,1,1.6342,,0,5,5,65,1,66,0,puertorican,,,,,,,,,,,,,,,,,,,,,,,,,,,,,,,,,,,,,,,,,,,,,,,,,,,,,,,,
,,,,,,,,,65cb7b14e78fc98ecd71d8de,Mexican,13 or older,"yes, I am fluent in another language",no,2025-07-24_07h53.06.294,empathy_intonation_perc_control,2024.2.4,Win32,60.24096386,65cb7b14e78fc98ecd71d8de,68817205a84113384fffdfe3,68821e745d16b31dd9c1d2dc,,,,,,,,,,,,./stim/wavs/castilian_mismatch_interrogative-total-yn_La-nina-lava-el-plato.wav,1,,,54.5427,56.8066,1,1,1.7361,,0,6,6,25,1,26,0,castilian,,,,,,,,,,,,,,,,,,,,,,,,,,,,,,,,,,,,,,,,,,,,,,,,,,,,,,,,
,,,,,,,,,65cb7b14e78fc98ecd71d8de,Mexican,13 or older,"yes, I am fluent in another language",no,2025-07-24_07h53.06.294,empathy_intonation_perc_control,2024.2.4,Win32,60.24096386,65cb7b14e78fc98ecd71d8de,68817205a84113384fffdfe3,68821e745d16b31dd9c1d2dc,,,,,,,,,,,,./stim/wavs/cuban_match_interrogative-total-yn_Manuela-vende-el-carro.wav,1,,,56.8082,58.9402,0,0,1.6033,,0,7,7,8,1,9,1,cuban,,,,,,,,,,,,,,,,,,,,,,,,,,,,,,,,,,,,,,,,,,,,,,,,,,,,,,,,
,,,,,,,,,65cb7b14e78fc98ecd71d8de,Mexican,13 or older,"yes, I am fluent in another language",no,2025-07-24_07h53.06.294,empathy_intonation_perc_control,2024.2.4,Win32,60.24096386,65cb7b14e78fc98ecd71d8de,68817205a84113384fffdfe3,68821e745d16b31dd9c1d2dc,,,,,,,,,,,,./stim/wavs/castilian_mismatch_declarative-broad-focus_La-nina-lava-el-plato.wav,0,,,58.9432,60.9404,1,0,1.4708,,0,8,8,70,1,71,0,castilian,,,,,,,,,,,,,,,,,,,,,,,,,,,,,,,,,,,,,,,,,,,,,,,,,,,,,,,,
,,,,,,,,,65cb7b14e78fc98ecd71d8de,Mexican,13 or older,"yes, I am fluent in another language",no,2025-07-24_07h53.06.294,empathy_intonation_perc_control,2024.2.4,Win32,60.24096386,65cb7b14e78fc98ecd71d8de,68817205a84113384fffdfe3,68821e745d16b31dd9c1d2dc,,,,,,,,,,,,./stim/wavs/castilian_match_interrogative-total-yn_Manuela-vende-el-carro.wav,1,,,60.9433,63.4969,1,1,2.0292,,0,9,9,2,1,3,0,castilian,,,,,,,,,,,,,,,,,,,,,,,,,,,,,,,,,,,,,,,,,,,,,,,,,,,,,,,,
,,,,,,,,,65cb7b14e78fc98ecd71d8de,Mexican,13 or older,"yes, I am fluent in another language",no,2025-07-24_07h53.06.294,empathy_intonation_perc_control,2024.2.4,Win32,60.24096386,65cb7b14e78fc98ecd71d8de,68817205a84113384fffdfe3,68821e745d16b31dd9c1d2dc,,,,,,,,,,,,./stim/wavs/cuban_match_declarative-broad-focus_Marta-abre-el-regalo.wav,0,,,63.4983,65.8402,0,1,1.8193,,0,10,10,55,1,56,0,cuban,,,,,,,,,,,,,,,,,,,,,,,,,,,,,,,,,,,,,,,,,,,,,,,,,,,,,,,,
,,,,,,,,,65cb7b14e78fc98ecd71d8de,Mexican,13 or older,"yes, I am fluent in another language",no,2025-07-24_07h53.06.294,empathy_intonation_perc_control,2024.2.4,Win32,60.24096386,65cb7b14e78fc98ecd71d8de,68817205a84113384fffdfe3,68821e745d16b31dd9c1d2dc,,,,,,,,,,,,./stim/wavs/castilian_match_declarative-broad-focus_David-leia-el-libro.wav,0,,,65.8426,68.2738,0,1,1.9031,,0,11,11,44,1,45,0,castilian,,,,,,,,,,,,,,,,,,,,,,,,,,,,,,,,,,,,,,,,,,,,,,,,,,,,,,,,
,,,,,,,,,65cb7b14e78fc98ecd71d8de,Mexican,13 or older,"yes, I am fluent in another language",no,2025-07-24_07h53.06.294,empathy_intonation_perc_control,2024.2.4,Win32,60.24096386,65cb7b14e78fc98ecd71d8de,68817205a84113384fffdfe3,68821e745d16b31dd9c1d2dc,,,,,,,,,,,,./stim/wavs/puertorican_mismatch_interrogative-total-yn_La-nina-lava-el-plato.wav,1,,,68.2756,70.7564,0,0,1.9498,,0,12,12,42,1,43,1,puertorican,,,,,,,,,,,,,,,,,,,,,,,,,,,,,,,,,,,,,,,,,,,,,,,,,,,,,,,,
,,,,,,,,,65cb7b14e78fc98ecd71d8de,Mexican,13 or older,"yes, I am fluent in another language",no,2025-07-24_07h53.06.294,empathy_intonation_perc_control,2024.2.4,Win32,60.24096386,65cb7b14e78fc98ecd71d8de,68817205a84113384fffdfe3,68821e745d16b31dd9c1d2dc,,,,,,,,,,,,./stim/wavs/castilian_match_interrogative-total-yn_Marta-abre-el-regalo.wav,1,,,70.7579,73.2233,1,1,1.9365,,0,13,13,5,1,6,0,castilian,,,,,,,,,,,,,,,,,,,,,,,,,,,,,,,,,,,,,,,,,,,,,,,,,,,,,,,,
,,,,,,,,,65cb7b14e78fc98ecd71d8de,Mexican,13 or older,"yes, I am fluent in another language",no,2025-07-24_07h53.06.294,empathy_intonation_perc_control,2024.2.4,Win32,60.24096386,65cb7b14e78fc98ecd71d8de,68817205a84113384fffdfe3,68821e745d16b31dd9c1d2dc,,,,,,,,,,,,./stim/wavs/puertorican_mismatch_interrogative-total-yn_El-hombre-mira-la-luna.wav,1,,,73.2255,75.7737,1,1,2.0185,,0,14,14,39,1,40,1,puertorican,,,,,,,,,,,,,,,,,,,,,,,,,,,,,,,,,,,,,,,,,,,,,,,,,,,,,,,,
,,,,,,,,,65cb7b14e78fc98ecd71d8de,Mexican,13 or older,"yes, I am fluent in another language",no,2025-07-24_07h53.06.294,empathy_intonation_perc_control,2024.2.4,Win32,60.24096386,65cb7b14e78fc98ecd71d8de,68817205a84113384fffdfe3,68821e745d16b31dd9c1d2dc,,,,,,,,,,,,./stim/wavs/puertorican_mismatch_interrogative-total-yn_El-nino-oye-el-rio.wav,1,,,75.7755,78.0401,1,1,1.7362,,0,15,15,40,1,41,1,puertorican,,,,,,,,,,,,,,,,,,,,,,,,,,,,,,,,,,,,,,,,,,,,,,,,,,,,,,,,
,,,,,,,,,65cb7b14e78fc98ecd71d8de,Mexican,13 or older,"yes, I am fluent in another language",no,2025-07-24_07h53.06.294,empathy_intonation_perc_control,2024.2.4,Win32,60.24096386,65cb7b14e78fc98ecd71d8de,68817205a84113384fffdfe3,68821e745d16b31dd9c1d2dc,,,,,,,,,,,,./stim/wavs/castilian_mismatch_declarative-broad-focus_Mi-tia-odia-la-lluvia.wav,0,,,78.043,80.49,0,1,1.9186,,0,16,16,72,1,73,0,castilian,,,,,,,,,,,,,,,,,,,,,,,,,,,,,,,,,,,,,,,,,,,,,,,,,,,,,,,,
,,,,,,,,,65cb7b14e78fc98ecd71d8de,Mexican,13 or older,"yes, I am fluent in another language",no,2025-07-24_07h53.06.294,empathy_intonation_perc_control,2024.2.4,Win32,60.24096386,65cb7b14e78fc98ecd71d8de,68817205a84113384fffdfe3,68821e745d16b31dd9c1d2dc,,,,,,,,,,,,./stim/wavs/castilian_match_interrogative-total-yn_David-leia-el-libro.wav,1,,,80.4929,82.7472,1,1,1.7291,,0,17,17,0,1,1,0,castilian,,,,,,,,,,,,,,,,,,,,,,,,,,,,,,,,,,,,,,,,,,,,,,,,,,,,,,,,
,,,,,,,,,65cb7b14e78fc98ecd71d8de,Mexican,13 or older,"yes, I am fluent in another language",no,2025-07-24_07h53.06.294,empathy_intonation_perc_control,2024.2.4,Win32,60.24096386,65cb7b14e78fc98ecd71d8de,68817205a84113384fffdfe3,68821e745d16b31dd9c1d2dc,,,,,,,,,,,,./stim/wavs/puertorican_match_interrogative-total-yn_Manuela-vende-el-carro.wav,1,,,82.7482,85.0233,0,0,1.7507,,0,18,18,22,1,23,1,puertorican,,,,,,,,,,,,,,,,,,,,,,,,,,,,,,,,,,,,,,,,,,,,,,,,,,,,,,,,
,,,,,,,,,65cb7b14e78fc98ecd71d8de,Mexican,13 or older,"yes, I am fluent in another language",no,2025-07-24_07h53.06.294,empathy_intonation_perc_control,2024.2.4,Win32,60.24096386,65cb7b14e78fc98ecd71d8de,68817205a84113384fffdfe3,68821e745d16b31dd9c1d2dc,,,,,,,,,,,,./stim/wavs/puertorican_match_interrogative-total-yn_David-leia-el-libro.wav,1,,,85.0252,87.0058,0,0,1.453,,0,19,19,20,1,21,1,puertorican,,,,,,,,,,,,,,,,,,,,,,,,,,,,,,,,,,,,,,,,,,,,,,,,,,,,,,,,
,,,,,,,,,65cb7b14e78fc98ecd71d8de,Mexican,13 or older,"yes, I am fluent in another language",no,2025-07-24_07h53.06.294,empathy_intonation_perc_control,2024.2.4,Win32,60.24096386,65cb7b14e78fc98ecd71d8de,68817205a84113384fffdfe3,68821e745d16b31dd9c1d2dc,,,,,,,,,,,,./stim/wavs/cuban_mismatch_interrogative-total-yn_El-hombre-mira-la-luna.wav,1,,,87.0066,88.9399,0,0,1.4039,,0,20,20,29,1,30,1,cuban,,,,,,,,,,,,,,,,,,,,,,,,,,,,,,,,,,,,,,,,,,,,,,,,,,,,,,,,
,,,,,,,,,65cb7b14e78fc98ecd71d8de,Mexican,13 or older,"yes, I am fluent in another language",no,2025-07-24_07h53.06.294,empathy_intonation_perc_control,2024.2.4,Win32,60.24096386,65cb7b14e78fc98ecd71d8de,68817205a84113384fffdfe3,68821e745d16b31dd9c1d2dc,,,,,,,,,,,,./stim/wavs/cuban_mismatch_interrogative-total-yn_Mi-madre-come-la-fruta.wav,1,,,88.9426,91.1731,0,0,1.7018,,0,21,21,31,1,32,1,cuban,,,,,,,,,,,,,,,,,,,,,,,,,,,,,,,,,,,,,,,,,,,,,,,,,,,,,,,,
,,,,,,,,,65cb7b14e78fc98ecd71d8de,Mexican,13 or older,"yes, I am fluent in another language",no,2025-07-24_07h53.06.294,empathy_intonation_perc_control,2024.2.4,Win32,60.24096386,65cb7b14e78fc98ecd71d8de,68817205a84113384fffdfe3,68821e745d16b31dd9c1d2dc,,,,,,,,,,,,./stim/wavs/cuban_match_interrogative-total-yn_Maria-bebe-el-vino.wav,1,,,91.175,93.7566,0,0,2.0536,,0,22,22,9,1,10,1,cuban,,,,,,,,,,,,,,,,,,,,,,,,,,,,,,,,,,,,,,,,,,,,,,,,,,,,,,,,
,,,,,,,,,65cb7b14e78fc98ecd71d8de,Mexican,13 or older,"yes, I am fluent in another language",no,2025-07-24_07h53.06.294,empathy_intonation_perc_control,2024.2.4,Win32,60.24096386,65cb7b14e78fc98ecd71d8de,68817205a84113384fffdfe3,68821e745d16b31dd9c1d2dc,,,,,,,,,,,,./stim/wavs/mexican_mismatch_interrogative-total-yn_El-hombre-mira-la-luna.wav,1,,,93.7585,96.223,1,1,1.9359,,0,23,23,34,1,35,0,mexican,,,,,,,,,,,,,,,,,,,,,,,,,,,,,,,,,,,,,,,,,,,,,,,,,,,,,,,,
,,,,,,,,,65cb7b14e78fc98ecd71d8de,Mexican,13 or older,"yes, I am fluent in another language",no,2025-07-24_07h53.06.294,empathy_intonation_perc_control,2024.2.4,Win32,60.24096386,65cb7b14e78fc98ecd71d8de,68817205a84113384fffdfe3,68821e745d16b31dd9c1d2dc,,,,,,,,,,,,./stim/wavs/mexican_match_interrogative-total-yn_Ana-lleva-el-abrigo.wav,1,,,96.2249,98.5733,1,1,1.8187,,0,24,24,12,1,13,0,mexican,,,,,,,,,,,,,,,,,,,,,,,,,,,,,,,,,,,,,,,,,,,,,,,,,,,,,,,,
,,,,,,,,,65cb7b14e78fc98ecd71d8de,Mexican,13 or older,"yes, I am fluent in another language",no,2025-07-24_07h53.06.294,empathy_intonation_perc_control,2024.2.4,Win32,60.24096386,65cb7b14e78fc98ecd71d8de,68817205a84113384fffdfe3,68821e745d16b31dd9c1d2dc,,,,,,,,,,,,./stim/wavs/cuban_mismatch_interrogative-total-yn_El-nino-oye-el-rio.wav,1,,,98.5751,100.8064,0,0,1.7029,,0,25,25,30,1,31,1,cuban,,,,,,,,,,,,,,,,,,,,,,,,,,,,,,,,,,,,,,,,,,,,,,,,,,,,,,,,
,,,,,,,,,65cb7b14e78fc98ecd71d8de,Mexican,13 or older,"yes, I am fluent in another language",no,2025-07-24_07h53.06.294,empathy_intonation_perc_control,2024.2.4,Win32,60.24096386,65cb7b14e78fc98ecd71d8de,68817205a84113384fffdfe3,68821e745d16b31dd9c1d2dc,,,,,,,,,,,,./stim/wavs/castilian_mismatch_declarative-broad-focus_La-maestra-vive-en-Paris.wav,0,,,100.8085,103.3964,0,1,2.0624,,0,26,26,69,1,70,0,castilian,,,,,,,,,,,,,,,,,,,,,,,,,,,,,,,,,,,,,,,,,,,,,,,,,,,,,,,,
,,,,,,,,,65cb7b14e78fc98ecd71d8de,Mexican,13 or older,"yes, I am fluent in another language",no,2025-07-24_07h53.06.294,empathy_intonation_perc_control,2024.2.4,Win32,60.24096386,65cb7b14e78fc98ecd71d8de,68817205a84113384fffdfe3,68821e745d16b31dd9c1d2dc,,,,,,,,,,,,./stim/wavs/cuban_mismatch_declarative-broad-focus_Mi-novio-viene-del-lago.wav,0,,,103.3974,105.6757,0,1,1.7592,,0,27,27,76,1,77,0,cuban,,,,,,,,,,,,,,,,,,,,,,,,,,,,,,,,,,,,,,,,,,,,,,,,,,,,,,,,
,,,,,,,,,65cb7b14e78fc98ecd71d8de,Mexican,13 or older,"yes, I am fluent in another language",no,2025-07-24_07h53.06.294,empathy_intonation_perc_control,2024.2.4,Win32,60.24096386,65cb7b14e78fc98ecd71d8de,68817205a84113384fffdfe3,68821e745d16b31dd9c1d2dc,,,,,,,,,,,,./stim/wavs/castilian_mismatch_interrogative-total-yn_La-maestra-vive-en-Paris.wav,1,,,105.6769,108.2391,1,1,2.0325,,0,28,28,24,1,25,0,castilian,,,,,,,,,,,,,,,,,,,,,,,,,,,,,,,,,,,,,,,,,,,,,,,,,,,,,,,,
,,,,,,,,,65cb7b14e78fc98ecd71d8de,Mexican,13 or older,"yes, I am fluent in another language",no,2025-07-24_07h53.06.294,empathy_intonation_perc_control,2024.2.4,Win32,60.24096386,65cb7b14e78fc98ecd71d8de,68817205a84113384fffdfe3,68821e745d16b31dd9c1d2dc,,,,,,,,,,,,./stim/wavs/puertorican_mismatch_declarative-broad-focus_La-maestra-vive-en-Paris.wav,0,,,108.24,110.4563,0,1,1.6847,,0,29,29,86,1,87,0,puertorican,,,,,,,,,,,,,,,,,,,,,,,,,,,,,,,,,,,,,,,,,,,,,,,,,,,,,,,,
,,,,,,,,,65cb7b14e78fc98ecd71d8de,Mexican,13 or older,"yes, I am fluent in another language",no,2025-07-24_07h53.06.294,empathy_intonation_perc_control,2024.2.4,Win32,60.24096386,65cb7b14e78fc98ecd71d8de,68817205a84113384fffdfe3,68821e745d16b31dd9c1d2dc,,,,,,,,,,,,./stim/wavs/castilian_mismatch_interrogative-total-yn_Mi-tia-odia-la-lluvia.wav,1,,,110.4582,113.0225,1,1,2.0322,,0,30,30,28,1,29,0,castilian,,,,,,,,,,,,,,,,,,,,,,,,,,,,,,,,,,,,,,,,,,,,,,,,,,,,,,,,
,,,,,,,,,65cb7b14e78fc98ecd71d8de,Mexican,13 or older,"yes, I am fluent in another language",no,2025-07-24_07h53.06.294,empathy_intonation_perc_control,2024.2.4,Win32,60.24096386,65cb7b14e78fc98ecd71d8de,68817205a84113384fffdfe3,68821e745d16b31dd9c1d2dc,,,,,,,,,,,,./stim/wavs/mexican_match_declarative-broad-focus_David-leia-el-libro.wav,0,,,113.0239,115.2461,0,1,1.6953,,0,31,31,58,1,59,0,mexican,,,,,,,,,,,,,,,,,,,,,,,,,,,,,,,,,,,,,,,,,,,,,,,,,,,,,,,,
,,,,,,,,,65cb7b14e78fc98ecd71d8de,Mexican,13 or older,"yes, I am fluent in another language",no,2025-07-24_07h53.06.294,empathy_intonation_perc_control,2024.2.4,Win32,60.24096386,65cb7b14e78fc98ecd71d8de,68817205a84113384fffdfe3,68821e745d16b31dd9c1d2dc,,,,,,,,,,,,./stim/wavs/castilian_match_interrogative-total-yn_Mariano-habla-del-tiempo.wav,1,,,115.2471,117.6229,0,0,1.8516,,0,32,32,4,1,5,0,castilian,,,,,,,,,,,,,,,,,,,,,,,,,,,,,,,,,,,,,,,,,,,,,,,,,,,,,,,,
,,,,,,,,,65cb7b14e78fc98ecd71d8de,Mexican,13 or older,"yes, I am fluent in another language",no,2025-07-24_07h53.06.294,empathy_intonation_perc_control,2024.2.4,Win32,60.24096386,65cb7b14e78fc98ecd71d8de,68817205a84113384fffdfe3,68821e745d16b31dd9c1d2dc,,,,,,,,,,,,./stim/wavs/puertorican_match_declarative-broad-focus_Maria-bebe-el-vino.wav,0,,,117.6247,119.9894,0,1,1.8348,,0,33,33,67,1,68,0,puertorican,,,,,,,,,,,,,,,,,,,,,,,,,,,,,,,,,,,,,,,,,,,,,,,,,,,,,,,,
,,,,,,,,,65cb7b14e78fc98ecd71d8de,Mexican,13 or older,"yes, I am fluent in another language",no,2025-07-24_07h53.06.294,empathy_intonation_perc_control,2024.2.4,Win32,60.24096386,65cb7b14e78fc98ecd71d8de,68817205a84113384fffdfe3,68821e745d16b31dd9c1d2dc,,,,,,,,,,,,./stim/wavs/cuban_mismatch_declarative-broad-focus_El-bebe-comia-muy-bien.wav,0,,,119.9917,122.1948,0,1,1.6788,,0,34,34,73,1,74,0,cuban,,,,,,,,,,,,,,,,,,,,,,,,,,,,,,,,,,,,,,,,,,,,,,,,,,,,,,,,
,,,,,,,,,65cb7b14e78fc98ecd71d8de,Mexican,13 or older,"yes, I am fluent in another language",no,2025-07-24_07h53.06.294,empathy_intonation_perc_control,2024.2.4,Win32,60.24096386,65cb7b14e78fc98ecd71d8de,68817205a84113384fffdfe3,68821e745d16b31dd9c1d2dc,,,,,,,,,,,,./stim/wavs/puertorican_mismatch_declarative-broad-focus_El-hombre-mira-la-luna.wav,0,,,122.1963,124.2898,0,1,1.5691,,0,35,35,84,1,85,0,puertorican,,,,,,,,,,,,,,,,,,,,,,,,,,,,,,,,,,,,,,,,,,,,,,,,,,,,,,,,
,,,,,,,,,65cb7b14e78fc98ecd71d8de,Mexican,13 or older,"yes, I am fluent in another language",no,2025-07-24_07h53.06.294,empathy_intonation_perc_control,2024.2.4,Win32,60.24096386,65cb7b14e78fc98ecd71d8de,68817205a84113384fffdfe3,68821e745d16b31dd9c1d2dc,,,,,,,,,,,,./stim/wavs/castilian_match_declarative-broad-focus_Marta-abre-el-regalo.wav,0,,,124.2922,126.6462,0,1,1.8293,,0,36,36,49,1,50,0,castilian,,,,,,,,,,,,,,,,,,,,,,,,,,,,,,,,,,,,,,,,,,,,,,,,,,,,,,,,
,,,,,,,,,65cb7b14e78fc98ecd71d8de,Mexican,13 or older,"yes, I am fluent in another language",no,2025-07-24_07h53.06.294,empathy_intonation_perc_control,2024.2.4,Win32,60.24096386,65cb7b14e78fc98ecd71d8de,68817205a84113384fffdfe3,68821e745d16b31dd9c1d2dc,,,,,,,,,,,,./stim/wavs/mexican_mismatch_interrogative-total-yn_El-nino-oye-el-rio.wav,1,,,126.6474,128.7227,1,1,1.5516,,0,37,37,35,1,36,0,mexican,,,,,,,,,,,,,,,,,,,,,,,,,,,,,,,,,,,,,,,,,,,,,,,,,,,,,,,,
,,,,,,,,,65cb7b14e78fc98ecd71d8de,Mexican,13 or older,"yes, I am fluent in another language",no,2025-07-24_07h53.06.294,empathy_intonation_perc_control,2024.2.4,Win32,60.24096386,65cb7b14e78fc98ecd71d8de,68817205a84113384fffdfe3,68821e745d16b31dd9c1d2dc,,,,,,,,,,,,./stim/wavs/mexican_mismatch_declarative-broad-focus_El-bebe-comia-muy-bien.wav,0,,,128.7247,131.0228,0,1,1.7688,,0,38,38,78,1,79,0,mexican,,,,,,,,,,,,,,,,,,,,,,,,,,,,,,,,,,,,,,,,,,,,,,,,,,,,,,,,
,,,,,,,,,65cb7b14e78fc98ecd71d8de,Mexican,13 or older,"yes, I am fluent in another language",no,2025-07-24_07h53.06.294,empathy_intonation_perc_control,2024.2.4,Win32,60.24096386,65cb7b14e78fc98ecd71d8de,68817205a84113384fffdfe3,68821e745d16b31dd9c1d2dc,,,,,,,,,,,,./stim/wavs/puertorican_mismatch_declarative-broad-focus_La-nina-lava-el-plato.wav,0,,,131.0246,133.0398,0,1,1.484,,0,39,39,87,1,88,0,puertorican,,,,,,,,,,,,,,,,,,,,,,,,,,,,,,,,,,,,,,,,,,,,,,,,,,,,,,,,
,,,,,,,,,65cb7b14e78fc98ecd71d8de,Mexican,13 or older,"yes, I am fluent in another language",no,2025-07-24_07h53.06.294,empathy_intonation_perc_control,2024.2.4,Win32,60.24096386,65cb7b14e78fc98ecd71d8de,68817205a84113384fffdfe3,68821e745d16b31dd9c1d2dc,,,,,,,,,,,,./stim/wavs/cuban_match_interrogative-total-yn_Ana-lleva-el-abrigo.wav,1,,,133.0425,135.2221,0,0,1.6476,,0,40,40,6,1,7,1,cuban,,,,,,,,,,,,,,,,,,,,,,,,,,,,,,,,,,,,,,,,,,,,,,,,,,,,,,,,
,,,,,,,,,65cb7b14e78fc98ecd71d8de,Mexican,13 or older,"yes, I am fluent in another language",no,2025-07-24_07h53.06.294,empathy_intonation_perc_control,2024.2.4,Win32,60.24096386,65cb7b14e78fc98ecd71d8de,68817205a84113384fffdfe3,68821e745d16b31dd9c1d2dc,,,,,,,,,,,,./stim/wavs/puertorican_mismatch_declarative-broad-focus_El-bebe-comia-muy-bien.wav,0,,,135.2228,137.4727,0,1,1.7195,,0,41,41,83,1,84,0,puertorican,,,,,,,,,,,,,,,,,,,,,,,,,,,,,,,,,,,,,,,,,,,,,,,,,,,,,,,,
,,,,,,,,,65cb7b14e78fc98ecd71d8de,Mexican,13 or older,"yes, I am fluent in another language",no,2025-07-24_07h53.06.294,empathy_intonation_perc_control,2024.2.4,Win32,60.24096386,65cb7b14e78fc98ecd71d8de,68817205a84113384fffdfe3,68821e745d16b31dd9c1d2dc,,,,,,,,,,,,./stim/wavs/puertorican_match_declarative-broad-focus_David-leia-el-libro.wav,0,,,137.4745,139.5469,0,1,1.5486,,0,42,42,64,1,65,0,puertorican,,,,,,,,,,,,,,,,,,,,,,,,,,,,,,,,,,,,,,,,,,,,,,,,,,,,,,,,
,,,,,,,,,65cb7b14e78fc98ecd71d8de,Mexican,13 or older,"yes, I am fluent in another language",no,2025-07-24_07h53.06.294,empathy_intonation_perc_control,2024.2.4,Win32,60.24096386,65cb7b14e78fc98ecd71d8de,68817205a84113384fffdfe3,68821e745d16b31dd9c1d2dc,,,,,,,,,,,,./stim/wavs/cuban_match_interrogative-total-yn_Daniel-iba-a-Bolivia.wav,1,,,139.5484,141.7637,0,0,1.6845,,0,43,43,7,1,8,1,cuban,,,,,,,,,,,,,,,,,,,,,,,,,,,,,,,,,,,,,,,,,,,,,,,,,,,,,,,,
,,,,,,,,,65cb7b14e78fc98ecd71d8de,Mexican,13 or older,"yes, I am fluent in another language",no,2025-07-24_07h53.06.294,empathy_intonation_perc_control,2024.2.4,Win32,60.24096386,65cb7b14e78fc98ecd71d8de,68817205a84113384fffdfe3,68821e745d16b31dd9c1d2dc,,,,,,,,,,,,./stim/wavs/puertorican_mismatch_declarative-broad-focus_El-nino-oye-el-rio.wav,0,,,141.7652,143.9624,0,1,1.6676,,0,44,44,85,1,86,0,puertorican,,,,,,,,,,,,,,,,,,,,,,,,,,,,,,,,,,,,,,,,,,,,,,,,,,,,,,,,
,,,,,,,,,65cb7b14e78fc98ecd71d8de,Mexican,13 or older,"yes, I am fluent in another language",no,2025-07-24_07h53.06.294,empathy_intonation_perc_control,2024.2.4,Win32,60.24096386,65cb7b14e78fc98ecd71d8de,68817205a84113384fffdfe3,68821e745d16b31dd9c1d2dc,,,,,,,,,,,,./stim/wavs/cuban_mismatch_declarative-broad-focus_La-nina-lava-el-plato.wav,0,,,143.9639,146.2978,0,1,1.8017,,0,45,45,75,1,76,0,cuban,,,,,,,,,,,,,,,,,,,,,,,,,,,,,,,,,,,,,,,,,,,,,,,,,,,,,,,,
,,,,,,,,,65cb7b14e78fc98ecd71d8de,Mexican,13 or older,"yes, I am fluent in another language",no,2025-07-24_07h53.06.294,empathy_intonation_perc_control,2024.2.4,Win32,60.24096386,65cb7b14e78fc98ecd71d8de,68817205a84113384fffdfe3,68821e745d16b31dd9c1d2dc,,,,,,,,,,,,./stim/wavs/castilian_mismatch_declarative-broad-focus_El-nino-oye-el-rio.wav,0,,,146.2989,148.8322,0,1,2.0026,,0,46,46,68,1,69,0,castilian,,,,,,,,,,,,,,,,,,,,,,,,,,,,,,,,,,,,,,,,,,,,,,,,,,,,,,,,
,,,,,,,,,65cb7b14e78fc98ecd71d8de,Mexican,13 or older,"yes, I am fluent in another language",no,2025-07-24_07h53.06.294,empathy_intonation_perc_control,2024.2.4,Win32,60.24096386,65cb7b14e78fc98ecd71d8de,68817205a84113384fffdfe3,68821e745d16b31dd9c1d2dc,,,,,,,,,,,,./stim/wavs/castilian_match_declarative-broad-focus_Emilio-ama-la-marcha.wav,0,,,148.8333,151.1552,0,1,1.7891,,0,47,47,45,1,46,0,castilian,,,,,,,,,,,,,,,,,,,,,,,,,,,,,,,,,,,,,,,,,,,,,,,,,,,,,,,,
,,,,,,,,,65cb7b14e78fc98ecd71d8de,Mexican,13 or older,"yes, I am fluent in another language",no,2025-07-24_07h53.06.294,empathy_intonation_perc_control,2024.2.4,Win32,60.24096386,65cb7b14e78fc98ecd71d8de,68817205a84113384fffdfe3,68821e745d16b31dd9c1d2dc,,,,,,,,,,,,./stim/wavs/mexican_mismatch_interrogative-total-yn_Mi-tia-odia-la-lluvia.wav,1,,,151.1561,153.5312,0,0,1.8517,,0,48,48,38,1,39,0,mexican,,,,,,,,,,,,,,,,,,,,,,,,,,,,,,,,,,,,,,,,,,,,,,,,,,,,,,,,
,,,,,,,,,65cb7b14e78fc98ecd71d8de,Mexican,13 or older,"yes, I am fluent in another language",no,2025-07-24_07h53.06.294,empathy_intonation_perc_control,2024.2.4,Win32,60.24096386,65cb7b14e78fc98ecd71d8de,68817205a84113384fffdfe3,68821e745d16b31dd9c1d2dc,,,,,,,,,,,,./stim/wavs/cuban_match_declarative-broad-focus_Daniel-iba-a-Bolivia.wav,0,,,153.5322,155.5811,0,1,1.517,,0,49,49,51,1,52,0,cuban,,,,,,,,,,,,,,,,,,,,,,,,,,,,,,,,,,,,,,,,,,,,,,,,,,,,,,,,
,,,,,,,,,65cb7b14e78fc98ecd71d8de,Mexican,13 or older,"yes, I am fluent in another language",no,2025-07-24_07h53.06.294,empathy_intonation_perc_control,2024.2.4,Win32,60.24096386,65cb7b14e78fc98ecd71d8de,68817205a84113384fffdfe3,68821e745d16b31dd9c1d2dc,,,,,,,,,,,,./stim/wavs/mexican_match_declarative-broad-focus_Daniel-iba-a-Bolivia.wav,0,,,155.5825,157.748,0,1,1.6334,,0,50,50,57,1,58,0,mexican,,,,,,,,,,,,,,,,,,,,,,,,,,,,,,,,,,,,,,,,,,,,,,,,,,,,,,,,
,,,,,,,,,65cb7b14e78fc98ecd71d8de,Mexican,13 or older,"yes, I am fluent in another language",no,2025-07-24_07h53.06.294,empathy_intonation_perc_control,2024.2.4,Win32,60.24096386,65cb7b14e78fc98ecd71d8de,68817205a84113384fffdfe3,68821e745d16b31dd9c1d2dc,,,,,,,,,,,,./stim/wavs/puertorican_match_interrogative-total-yn_Ana-lleva-el-abrigo.wav,1,,,157.7495,160.198,0,0,1.9181,,0,51,51,18,1,19,1,puertorican,,,,,,,,,,,,,,,,,,,,,,,,,,,,,,,,,,,,,,,,,,,,,,,,,,,,,,,,
,,,,,,,,,65cb7b14e78fc98ecd71d8de,Mexican,13 or older,"yes, I am fluent in another language",no,2025-07-24_07h53.06.294,empathy_intonation_perc_control,2024.2.4,Win32,60.24096386,65cb7b14e78fc98ecd71d8de,68817205a84113384fffdfe3,68821e745d16b31dd9c1d2dc,,,,,,,,,,,,./stim/wavs/puertorican_mismatch_interrogative-total-yn_La-maestra-vive-en-Paris.wav,1,,,160.1997,162.5818,0,0,1.8508,,0,52,52,41,1,42,1,puertorican,,,,,,,,,,,,,,,,,,,,,,,,,,,,,,,,,,,,,,,,,,,,,,,,,,,,,,,,
,,,,,,,,,65cb7b14e78fc98ecd71d8de,Mexican,13 or older,"yes, I am fluent in another language",no,2025-07-24_07h53.06.294,empathy_intonation_perc_control,2024.2.4,Win32,60.24096386,65cb7b14e78fc98ecd71d8de,68817205a84113384fffdfe3,68821e745d16b31dd9c1d2dc,,,,,,,,,,,,./stim/wavs/castilian_mismatch_interrogative-total-yn_Mi-novio-viene-del-lago.wav,1,,,162.5834,164.899,1,1,1.7838,,0,53,53,27,1,28,0,castilian,,,,,,,,,,,,,,,,,,,,,,,,,,,,,,,,,,,,,,,,,,,,,,,,,,,,,,,,
,,,,,,,,,65cb7b14e78fc98ecd71d8de,Mexican,13 or older,"yes, I am fluent in another language",no,2025-07-24_07h53.06.294,empathy_intonation_perc_control,2024.2.4,Win32,60.24096386,65cb7b14e78fc98ecd71d8de,68817205a84113384fffdfe3,68821e745d16b31dd9c1d2dc,,,,,,,,,,,,./stim/wavs/cuban_mismatch_declarative-broad-focus_Mi-tia-odia-la-lluvia.wav,0,,,164.9004,167.4323,0,1,2.0014,,0,54,54,77,1,78,0,cuban,,,,,,,,,,,,,,,,,,,,,,,,,,,,,,,,,,,,,,,,,,,,,,,,,,,,,,,,
,,,,,,,,,65cb7b14e78fc98ecd71d8de,Mexican,13 or older,"yes, I am fluent in another language",no,2025-07-24_07h53.06.294,empathy_intonation_perc_control,2024.2.4,Win32,60.24096386,65cb7b14e78fc98ecd71d8de,68817205a84113384fffdfe3,68821e745d16b31dd9c1d2dc,,,,,,,,,,,,./stim/wavs/mexican_match_declarative-broad-focus_Mariano-habla-del-tiempo.wav,0,,,167.4331,169.7181,0,1,1.7518,,0,55,55,60,1,61,0,mexican,,,,,,,,,,,,,,,,,,,,,,,,,,,,,,,,,,,,,,,,,,,,,,,,,,,,,,,,
,,,,,,,,,65cb7b14e78fc98ecd71d8de,Mexican,13 or older,"yes, I am fluent in another language",no,2025-07-24_07h53.06.294,empathy_intonation_perc_control,2024.2.4,Win32,60.24096386,65cb7b14e78fc98ecd71d8de,68817205a84113384fffdfe3,68821e745d16b31dd9c1d2dc,,,,,,,,,,,,./stim/wavs/puertorican_match_interrogative-total-yn_Maria-bebe-el-vino.wav,1,,,169.7191,172.3281,0,0,2.0814,,0,56,56,23,1,24,1,puertorican,,,,,,,,,,,,,,,,,,,,,,,,,,,,,,,,,,,,,,,,,,,,,,,,,,,,,,,,
,,,,,,,,,65cb7b14e78fc98ecd71d8de,Mexican,13 or older,"yes, I am fluent in another language",no,2025-07-24_07h53.06.294,empathy_intonation_perc_control,2024.2.4,Win32,60.24096386,65cb7b14e78fc98ecd71d8de,68817205a84113384fffdfe3,68821e745d16b31dd9c1d2dc,,,,,,,,,,,,./stim/wavs/mexican_mismatch_declarative-broad-focus_El-hombre-mira-la-luna.wav,0,,,172.3294,174.7658,0,1,1.919,,0,57,57,79,1,80,0,mexican,,,,,,,,,,,,,,,,,,,,,,,,,,,,,,,,,,,,,,,,,,,,,,,,,,,,,,,,
,,,,,,,,,65cb7b14e78fc98ecd71d8de,Mexican,13 or older,"yes, I am fluent in another language",no,2025-07-24_07h53.06.294,empathy_intonation_perc_control,2024.2.4,Win32,60.24096386,65cb7b14e78fc98ecd71d8de,68817205a84113384fffdfe3,68821e745d16b31dd9c1d2dc,,,,,,,,,,,,./stim/wavs/mexican_match_interrogative-total-yn_Marta-abre-el-regalo.wav,1,,,174.7669,177.2681,1,1,1.9715,,0,58,58,17,1,18,0,mexican,,,,,,,,,,,,,,,,,,,,,,,,,,,,,,,,,,,,,,,,,,,,,,,,,,,,,,,,
,,,,,,,,,65cb7b14e78fc98ecd71d8de,Mexican,13 or older,"yes, I am fluent in another language",no,2025-07-24_07h53.06.294,empathy_intonation_perc_control,2024.2.4,Win32,60.24096386,65cb7b14e78fc98ecd71d8de,68817205a84113384fffdfe3,68821e745d16b31dd9c1d2dc,,,,,,,,,,,,./stim/wavs/mexican_mismatch_interrogative-total-yn_La-maestra-vive-en-Paris.wav,1,,,177.2691,179.9992,1,1,2.2026,,0,59,59,36,1,37,0,mexican,,,,,,,,,,,,,,,,,,,,,,,,,,,,,,,,,,,,,,,,,,,,,,,,,,,,,,,,
,,,,,,,,,65cb7b14e78fc98ecd71d8de,Mexican,13 or older,"yes, I am fluent in another language",no,2025-07-24_07h53.06.294,empathy_intonation_perc_control,2024.2.4,Win32,60.24096386,65cb7b14e78fc98ecd71d8de,68817205a84113384fffdfe3,68821e745d16b31dd9c1d2dc,,,,,,,,,,,,./stim/wavs/castilian_match_interrogative-total-yn_Emilio-ama-la-marcha.wav,1,,,180,182.2267,0,0,1.6998,,0,60,60,1,1,2,0,castilian,,,,,,,,,,,,,,,,,,,,,,,,,,,,,,,,,,,,,,,,,,,,,,,,,,,,,,,,
,,,,,,,,,65cb7b14e78fc98ecd71d8de,Mexican,13 or older,"yes, I am fluent in another language",no,2025-07-24_07h53.06.294,empathy_intonation_perc_control,2024.2.4,Win32,60.24096386,65cb7b14e78fc98ecd71d8de,68817205a84113384fffdfe3,68821e745d16b31dd9c1d2dc,,,,,,,,,,,,./stim/wavs/cuban_match_declarative-broad-focus_Maria-bebe-el-vino.wav,0,,,182.2277,184.4261,0,1,1.6682,,0,61,61,53,1,54,0,cuban,,,,,,,,,,,,,,,,,,,,,,,,,,,,,,,,,,,,,,,,,,,,,,,,,,,,,,,,
,,,,,,,,,65cb7b14e78fc98ecd71d8de,Mexican,13 or older,"yes, I am fluent in another language",no,2025-07-24_07h53.06.294,empathy_intonation_perc_control,2024.2.4,Win32,60.24096386,65cb7b14e78fc98ecd71d8de,68817205a84113384fffdfe3,68821e745d16b31dd9c1d2dc,,,,,,,,,,,,./stim/wavs/castilian_match_interrogative-total-yn_Maria-bebe-el-vino.wav,1,,,184.4272,186.831,1,1,1.8874,,0,62,62,3,1,4,0,castilian,,,,,,,,,,,,,,,,,,,,,,,,,,,,,,,,,,,,,,,,,,,,,,,,,,,,,,,,
,,,,,,,,,65cb7b14e78fc98ecd71d8de,Mexican,13 or older,"yes, I am fluent in another language",no,2025-07-24_07h53.06.294,empathy_intonation_perc_control,2024.2.4,Win32,60.24096386,65cb7b14e78fc98ecd71d8de,68817205a84113384fffdfe3,68821e745d16b31dd9c1d2dc,,,,,,,,,,,,./stim/wavs/castilian_match_declarative-broad-focus_Maria-bebe-el-vino.wav,0,,,186.8322,189.1158,0,1,1.7509,,0,63,63,47,1,48,0,castilian,,,,,,,,,,,,,,,,,,,,,,,,,,,,,,,,,,,,,,,,,,,,,,,,,,,,,,,,
,,,,,,,,,65cb7b14e78fc98ecd71d8de,Mexican,13 or older,"yes, I am fluent in another language",no,2025-07-24_07h53.06.294,empathy_intonation_perc_control,2024.2.4,Win32,60.24096386,65cb7b14e78fc98ecd71d8de,68817205a84113384fffdfe3,68821e745d16b31dd9c1d2dc,,,,,,,,,,,,./stim/wavs/mexican_match_interrogative-total-yn_Daniel-iba-a-Bolivia.wav,1,,,189.117,191.3182,1,1,1.6716,,0,64,64,13,1,14,0,mexican,,,,,,,,,,,,,,,,,,,,,,,,,,,,,,,,,,,,,,,,,,,,,,,,,,,,,,,,
,,,,,,,,,65cb7b14e78fc98ecd71d8de,Mexican,13 or older,"yes, I am fluent in another language",no,2025-07-24_07h53.06.294,empathy_intonation_perc_control,2024.2.4,Win32,60.24096386,65cb7b14e78fc98ecd71d8de,68817205a84113384fffdfe3,68821e745d16b31dd9c1d2dc,,,,,,,,,,,,./stim/wavs/puertorican_match_declarative-broad-focus_Manuela-vende-el-carro.wav,0,,,191.3189,193.2805,0,1,1.434,,0,65,65,66,1,67,0,puertorican,,,,,,,,,,,,,,,,,,,,,,,,,,,,,,,,,,,,,,,,,,,,,,,,,,,,,,,,
,,,,,,,,,65cb7b14e78fc98ecd71d8de,Mexican,13 or older,"yes, I am fluent in another language",no,2025-07-24_07h53.06.294,empathy_intonation_perc_control,2024.2.4,Win32,60.24096386,65cb7b14e78fc98ecd71d8de,68817205a84113384fffdfe3,68821e745d16b31dd9c1d2dc,,,,,,,,,,,,./stim/wavs/puertorican_match_interrogative-total-yn_Daniel-iba-a-Bolivia.wav,1,,,193.2824,195.616,0,0,1.8044,,0,66,66,19,1,20,1,puertorican,,,,,,,,,,,,,,,,,,,,,,,,,,,,,,,,,,,,,,,,,,,,,,,,,,,,,,,,
,,,,,,,,,65cb7b14e78fc98ecd71d8de,Mexican,13 or older,"yes, I am fluent in another language",no,2025-07-24_07h53.06.294,empathy_intonation_perc_control,2024.2.4,Win32,60.24096386,65cb7b14e78fc98ecd71d8de,68817205a84113384fffdfe3,68821e745d16b31dd9c1d2dc,,,,,,,,,,,,./stim/wavs/puertorican_mismatch_interrogative-total-yn_Mi-madre-come-la-fruta.wav,1,,,195.6168,198.0172,0,0,1.8707,,0,67,67,43,1,44,1,puertorican,,,,,,,,,,,,,,,,,,,,,,,,,,,,,,,,,,,,,,,,,,,,,,,,,,,,,,,,
,,,,,,,,,65cb7b14e78fc98ecd71d8de,Mexican,13 or older,"yes, I am fluent in another language",no,2025-07-24_07h53.06.294,empathy_intonation_perc_control,2024.2.4,Win32,60.24096386,65cb7b14e78fc98ecd71d8de,68817205a84113384fffdfe3,68821e745d16b31dd9c1d2dc,,,,,,,,,,,,./stim/wavs/cuban_match_interrogative-total-yn_Mariano-habla-del-tiempo.wav,1,,,198.0181,200.3142,0,0,1.7697,,0,68,68,10,1,11,1,cuban,,,,,,,,,,,,,,,,,,,,,,,,,,,,,,,,,,,,,,,,,,,,,,,,,,,,,,,,
,,,,,,,,,65cb7b14e78fc98ecd71d8de,Mexican,13 or older,"yes, I am fluent in another language",no,2025-07-24_07h53.06.294,empathy_intonation_perc_control,2024.2.4,Win32,60.24096386,65cb7b14e78fc98ecd71d8de,68817205a84113384fffdfe3,68821e745d16b31dd9c1d2dc,,,,,,,,,,,,./stim/wavs/castilian_mismatch_declarative-broad-focus_Mi-novio-viene-del-lago.wav,0,,,200.3146,202.9985,0,1,2.1511,,0,69,69,71,1,72,0,castilian,,,,,,,,,,,,,,,,,,,,,,,,,,,,,,,,,,,,,,,,,,,,,,,,,,,,,,,,
,,,,,,,,,65cb7b14e78fc98ecd71d8de,Mexican,13 or older,"yes, I am fluent in another language",no,2025-07-24_07h53.06.294,empathy_intonation_perc_control,2024.2.4,Win32,60.24096386,65cb7b14e78fc98ecd71d8de,68817205a84113384fffdfe3,68821e745d16b31dd9c1d2dc,,,,,,,,,,,,./stim/wavs/cuban_mismatch_interrogative-total-yn_Mi-tia-odia-la-lluvia.wav,1,,,203.0001,205.0463,0,0,1.5311,,0,70,70,33,1,34,1,cuban,,,,,,,,,,,,,,,,,,,,,,,,,,,,,,,,,,,,,,,,,,,,,,,,,,,,,,,,
,,,,,,,,,65cb7b14e78fc98ecd71d8de,Mexican,13 or older,"yes, I am fluent in another language",no,2025-07-24_07h53.06.294,empathy_intonation_perc_control,2024.2.4,Win32,60.24096386,65cb7b14e78fc98ecd71d8de,68817205a84113384fffdfe3,68821e745d16b31dd9c1d2dc,,,,,,,,,,,,./stim/wavs/mexican_match_declarative-broad-focus_Ana-lleva-el-abrigo.wav,0,,,205.0473,206.8848,0,1,1.3049,,0,71,71,56,1,57,0,mexican,,,,,,,,,,,,,,,,,,,,,,,,,,,,,,,,,,,,,,,,,,,,,,,,,,,,,,,,
,,,,,,,,,65cb7b14e78fc98ecd71d8de,Mexican,13 or older,"yes, I am fluent in another language",no,2025-07-24_07h53.06.294,empathy_intonation_perc_control,2024.2.4,Win32,60.24096386,65cb7b14e78fc98ecd71d8de,68817205a84113384fffdfe3,68821e745d16b31dd9c1d2dc,,,,,,,,,,,,./stim/wavs/cuban_match_declarative-broad-focus_Ana-lleva-el-abrigo.wav,0,,,206.8861,208.9148,0,1,1.5013,,0,72,72,50,1,51,0,cuban,,,,,,,,,,,,,,,,,,,,,,,,,,,,,,,,,,,,,,,,,,,,,,,,,,,,,,,,
,,,,,,,,,65cb7b14e78fc98ecd71d8de,Mexican,13 or older,"yes, I am fluent in another language",no,2025-07-24_07h53.06.294,empathy_intonation_perc_control,2024.2.4,Win32,60.24096386,65cb7b14e78fc98ecd71d8de,68817205a84113384fffdfe3,68821e745d16b31dd9c1d2dc,,,,,,,,,,,,./stim/wavs/mexican_match_interrogative-total-yn_Mariano-habla-del-tiempo.wav,1,,,208.9166,211.046,0,0,1.5997,,0,73,73,16,1,17,0,mexican,,,,,,,,,,,,,,,,,,,,,,,,,,,,,,,,,,,,,,,,,,,,,,,,,,,,,,,,
,,,,,,,,,65cb7b14e78fc98ecd71d8de,Mexican,13 or older,"yes, I am fluent in another language",no,2025-07-24_07h53.06.294,empathy_intonation_perc_control,2024.2.4,Win32,60.24096386,65cb7b14e78fc98ecd71d8de,68817205a84113384fffdfe3,68821e745d16b31dd9c1d2dc,,,,,,,,,,,,./stim/wavs/cuban_mismatch_declarative-broad-focus_El-hombre-mira-la-luna.wav,0,,,211.0473,213.3445,0,1,1.7669,,0,74,74,74,1,75,0,cuban,,,,,,,,,,,,,,,,,,,,,,,,,,,,,,,,,,,,,,,,,,,,,,,,,,,,,,,,
,,,,,,,,,65cb7b14e78fc98ecd71d8de,Mexican,13 or older,"yes, I am fluent in another language",no,2025-07-24_07h53.06.294,empathy_intonation_perc_control,2024.2.4,Win32,60.24096386,65cb7b14e78fc98ecd71d8de,68817205a84113384fffdfe3,68821e745d16b31dd9c1d2dc,,,,,,,,,,,,./stim/wavs/castilian_match_declarative-broad-focus_Mariano-habla-del-tiempo.wav,0,,,213.3453,215.5972,0,1,1.7194,,0,75,75,48,1,49,0,castilian,,,,,,,,,,,,,,,,,,,,,,,,,,,,,,,,,,,,,,,,,,,,,,,,,,,,,,,,
,,,,,,,,,65cb7b14e78fc98ecd71d8de,Mexican,13 or older,"yes, I am fluent in another language",no,2025-07-24_07h53.06.294,empathy_intonation_perc_control,2024.2.4,Win32,60.24096386,65cb7b14e78fc98ecd71d8de,68817205a84113384fffdfe3,68821e745d16b31dd9c1d2dc,,,,,,,,,,,,./stim/wavs/mexican_mismatch_declarative-broad-focus_Mi-novio-viene-del-lago.wav,0,,,215.5984,217.5139,0,1,1.3851,,0,76,76,81,1,82,0,mexican,,,,,,,,,,,,,,,,,,,,,,,,,,,,,,,,,,,,,,,,,,,,,,,,,,,,,,,,
,,,,,,,,,65cb7b14e78fc98ecd71d8de,Mexican,13 or older,"yes, I am fluent in another language",no,2025-07-24_07h53.06.294,empathy_intonation_perc_control,2024.2.4,Win32,60.24096386,65cb7b14e78fc98ecd71d8de,68817205a84113384fffdfe3,68821e745d16b31dd9c1d2dc,,,,,,,,,,,,./stim/wavs/cuban_match_declarative-broad-focus_Mariano-habla-del-tiempo.wav,0,,,217.5152,219.7188,0,1,1.6732,,0,77,77,54,1,55,0,cuban,,,,,,,,,,,,,,,,,,,,,,,,,,,,,,,,,,,,,,,,,,,,,,,,,,,,,,,,
,,,,,,,,,65cb7b14e78fc98ecd71d8de,Mexican,13 or older,"yes, I am fluent in another language",no,2025-07-24_07h53.06.294,empathy_intonation_perc_control,2024.2.4,Win32,60.24096386,65cb7b14e78fc98ecd71d8de,68817205a84113384fffdfe3,68821e745d16b31dd9c1d2dc,,,,,,,,,,,,./stim/wavs/cuban_match_declarative-broad-focus_Manuela-vende-el-carro.wav,0,,,219.7196,221.8164,0,1,1.5729,,0,78,78,52,1,53,0,cuban,,,,,,,,,,,,,,,,,,,,,,,,,,,,,,,,,,,,,,,,,,,,,,,,,,,,,,,,
,,,,,,,,,65cb7b14e78fc98ecd71d8de,Mexican,13 or older,"yes, I am fluent in another language",no,2025-07-24_07h53.06.294,empathy_intonation_perc_control,2024.2.4,Win32,60.24096386,65cb7b14e78fc98ecd71d8de,68817205a84113384fffdfe3,68821e745d16b31dd9c1d2dc,,,,,,,,,,,,./stim/wavs/castilian_mismatch_interrogative-total-yn_Mi-madre-come-la-fruta.wav,1,,,221.8173,224.0157,1,1,1.6721,,0,79,79,26,1,27,0,castilian,,,,,,,,,,,,,,,,,,,,,,,,,,,,,,,,,,,,,,,,,,,,,,,,,,,,,,,,
,,,,,,,,,65cb7b14e78fc98ecd71d8de,Mexican,13 or older,"yes, I am fluent in another language",no,2025-07-24_07h53.06.294,empathy_intonation_perc_control,2024.2.4,Win32,60.24096386,65cb7b14e78fc98ecd71d8de,68817205a84113384fffdfe3,68821e745d16b31dd9c1d2dc,,,,,,,,,,,,./stim/wavs/mexican_mismatch_declarative-broad-focus_La-maestra-vive-en-Paris.wav,0,,,224.0168,226.2025,0,1,1.6515,,0,80,80,80,1,81,0,mexican,,,,,,,,,,,,,,,,,,,,,,,,,,,,,,,,,,,,,,,,,,,,,,,,,,,,,,,,
,,,,,,,,,65cb7b14e78fc98ecd71d8de,Mexican,13 or older,"yes, I am fluent in another language",no,2025-07-24_07h53.06.294,empathy_intonation_perc_control,2024.2.4,Win32,60.24096386,65cb7b14e78fc98ecd71d8de,68817205a84113384fffdfe3,68821e745d16b31dd9c1d2dc,,,,,,,,,,,,./stim/wavs/mexican_match_declarative-broad-focus_Marta-abre-el-regalo.wav,0,,,226.2034,228.1061,0,1,1.375,,0,81,81,61,1,62,0,mexican,,,,,,,,,,,,,,,,,,,,,,,,,,,,,,,,,,,,,,,,,,,,,,,,,,,,,,,,
,,,,,,,,,65cb7b14e78fc98ecd71d8de,Mexican,13 or older,"yes, I am fluent in another language",no,2025-07-24_07h53.06.294,empathy_intonation_perc_control,2024.2.4,Win32,60.24096386,65cb7b14e78fc98ecd71d8de,68817205a84113384fffdfe3,68821e745d16b31dd9c1d2dc,,,,,,,,,,,,./stim/wavs/mexican_mismatch_declarative-broad-focus_Mi-tia-odia-la-lluvia.wav,0,,,228.1082,230.2643,0,1,1.6344,,0,82,82,82,1,83,0,mexican,,,,,,,,,,,,,,,,,,,,,,,,,,,,,,,,,,,,,,,,,,,,,,,,,,,,,,,,
,,,,,,,,,65cb7b14e78fc98ecd71d8de,Mexican,13 or older,"yes, I am fluent in another language",no,2025-07-24_07h53.06.294,empathy_intonation_perc_control,2024.2.4,Win32,60.24096386,65cb7b14e78fc98ecd71d8de,68817205a84113384fffdfe3,68821e745d16b31dd9c1d2dc,,,,,,,,,,,,./stim/wavs/mexican_match_interrogative-total-yn_Emilio-ama-la-marcha.wav,1,,,230.2655,232.4979,1,1,1.7011,,0,83,83,15,1,16,0,mexican,,,,,,,,,,,,,,,,,,,,,,,,,,,,,,,,,,,,,,,,,,,,,,,,,,,,,,,,
,,,,,,,,,65cb7b14e78fc98ecd71d8de,Mexican,13 or older,"yes, I am fluent in another language",no,2025-07-24_07h53.06.294,empathy_intonation_perc_control,2024.2.4,Win32,60.24096386,65cb7b14e78fc98ecd71d8de,68817205a84113384fffdfe3,68821e745d16b31dd9c1d2dc,,,,,,,,,,,,./stim/wavs/cuban_mismatch_interrogative-total-yn_Mi-novio-viene-del-lago.wav,1,,,232.4996,234.613,0,0,1.5838,,0,84,84,32,1,33,1,cuban,,,,,,,,,,,,,,,,,,,,,,,,,,,,,,,,,,,,,,,,,,,,,,,,,,,,,,,,
,,,,,,,,,65cb7b14e78fc98ecd71d8de,Mexican,13 or older,"yes, I am fluent in another language",no,2025-07-24_07h53.06.294,empathy_intonation_perc_control,2024.2.4,Win32,60.24096386,65cb7b14e78fc98ecd71d8de,68817205a84113384fffdfe3,68821e745d16b31dd9c1d2dc,,,,,,,,,,,,./stim/wavs/cuban_match_interrogative-total-yn_Marta-abre-el-regalo.wav,1,,,234.6143,236.7603,0,0,1.6308,,0,85,85,11,1,12,1,cuban,,,,,,,,,,,,,,,,,,,,,,,,,,,,,,,,,,,,,,,,,,,,,,,,,,,,,,,,
,,,,,,,,,65cb7b14e78fc98ecd71d8de,Mexican,13 or older,"yes, I am fluent in another language",no,2025-07-24_07h53.06.294,empathy_intonation_perc_control,2024.2.4,Win32,60.24096386,65cb7b14e78fc98ecd71d8de,68817205a84113384fffdfe3,68821e745d16b31dd9c1d2dc,,,,,,,,,,,,./stim/wavs/mexican_match_interrogative-total-yn_David-leia-el-libro.wav,1,,,236.7621,239.4144,1,1,2.1345,,0,86,86,14,1,15,0,mexican,,,,,,,,,,,,,,,,,,,,,,,,,,,,,,,,,,,,,,,,,,,,,,,,,,,,,,,,
,,,,,,,,,65cb7b14e78fc98ecd71d8de,Mexican,13 or older,"yes, I am fluent in another language",no,2025-07-24_07h53.06.294,empathy_intonation_perc_control,2024.2.4,Win32,60.24096386,65cb7b14e78fc98ecd71d8de,68817205a84113384fffdfe3,68821e745d16b31dd9c1d2dc,,,,,,,,,,,,./stim/wavs/mexican_match_declarative-broad-focus_Emilio-ama-la-marcha.wav,0,,,239.4157,242.1981,0,1,2.2517,,0,87,87,59,1,60,0,mexican,,,,,,,,,,,,,,,,,,,,,,,,,,,,,,,,,,,,,,,,,,,,,,,,,,,,,,,,
,,,,,,,"Great! Now we will move on. The next task consists of about 60 trials, in each of which you will see a string of letters. 
  
  Your task is to decide whether this is a real Spanish word or not.", (press the spacebar to continue),65cb7b14e78fc98ecd71d8de,Mexican,13 or older,"yes, I am fluent in another language",no,2025-07-24_07h53.06.294,empathy_intonation_perc_control,2024.2.4,Win32,60.24096386,65cb7b14e78fc98ecd71d8de,68817205a84113384fffdfe3,68821e745d16b31dd9c1d2dc,,,,,,,,,,,,,,,,,,,,,,,,,,,,,,242.2135,267.7576,0,0,0,0,1,,,,,,,,,,,,,,,,,,,,,,,,,,,,,,,,,,,,,,,,,,,,,,,,,
,,,,,,,"If you think it is an existing Spanish word, you type '1' (for 'REAL'), and if you think it is not an existing Spanish word, you type '0' (for 'FAKE').", (press the spacebar to continue),65cb7b14e78fc98ecd71d8de,Mexican,13 or older,"yes, I am fluent in another language",no,2025-07-24_07h53.06.294,empathy_intonation_perc_control,2024.2.4,Win32,60.24096386,65cb7b14e78fc98ecd71d8de,68817205a84113384fffdfe3,68821e745d16b31dd9c1d2dc,,,,,,,,,,,,,,,,,,,,,,,,,,,,,,267.7645,270.4739,0,1,1,1,1,,,,,,,,,,,,,,,,,,,,,,,,,,,,,,,,,,,,,,,,,,,,,,,,,
,,,,,,,"If you are sure that the word exists, even though you don’t know its exact meaning, you may still respond '1' (REAL). 
  
  But if you are not sure if it is an existing word, you should respond '0' (FAKE).
  
  Let's do a practice round...", (press the spacebar to continue),65cb7b14e78fc98ecd71d8de,Mexican,13 or older,"yes, I am fluent in another language",no,2025-07-24_07h53.06.294,empathy_intonation_perc_control,2024.2.4,Win32,60.24096386,65cb7b14e78fc98ecd71d8de,68817205a84113384fffdfe3,68821e745d16b31dd9c1d2dc,,,,,,,,,,,,,,,,,,,,,,,,,,,,,,270.4799,273.0071,0,2,2,2,1,,,,,,,,,,,,,,,,,,,,,,,,,,,,,,,,,,,,,,,,,,,,,,,,,
,,,,,,,,,65cb7b14e78fc98ecd71d8de,Mexican,13 or older,"yes, I am fluent in another language",no,2025-07-24_07h53.06.294,empathy_intonation_perc_control,2024.2.4,Win32,60.24096386,65cb7b14e78fc98ecd71d8de,68817205a84113384fffdfe3,68821e745d16b31dd9c1d2dc,,,,,,,,,,,,,0,,,,,,,,,,,,,,,,,,,,,,,,273.0232,275.6065,0,1,2.0453,,275.6073,276.6044,0,0,0,0,1,0,depiste,REAL,FAKE,,,,,,,,,,,,,,,,,,,,,,,,,,,,,,,,
,,,,,,,,,65cb7b14e78fc98ecd71d8de,Mexican,13 or older,"yes, I am fluent in another language",no,2025-07-24_07h53.06.294,empathy_intonation_perc_control,2024.2.4,Win32,60.24096386,65cb7b14e78fc98ecd71d8de,68817205a84113384fffdfe3,68821e745d16b31dd9c1d2dc,,,,,,,,,,,,,1,,,,,,,,,,,,,,,,,,,,,,,,276.6059,278.1881,1,1,1.0523,,278.1883,279.1884,0,1,1,1,1,0,sí,REAL,FAKE,,,,,,,,,,,,,,,,,,,,,,,,,,,,,,,,
,,,,,,,,,65cb7b14e78fc98ecd71d8de,Mexican,13 or older,"yes, I am fluent in another language",no,2025-07-24_07h53.06.294,empathy_intonation_perc_control,2024.2.4,Win32,60.24096386,65cb7b14e78fc98ecd71d8de,68817205a84113384fffdfe3,68821e745d16b31dd9c1d2dc,,,,,,,,,,,,,0,,,,,,,,,,,,,,,,,,,,,,,,279.1923,281.0884,0,1,1.3637,,281.0886,282.0884,0,2,2,2,1,0,coné,REAL,FAKE,,,,,,,,,,,,,,,,,,,,,,,,,,,,,,,,
,,,,,,,,,65cb7b14e78fc98ecd71d8de,Mexican,13 or older,"yes, I am fluent in another language",no,2025-07-24_07h53.06.294,empathy_intonation_perc_control,2024.2.4,Win32,60.24096386,65cb7b14e78fc98ecd71d8de,68817205a84113384fffdfe3,68821e745d16b31dd9c1d2dc,,,,,,,,,,,,,0,,,,,,,,,,,,,,,,,,,,,,,,282.0923,284.0387,0,1,1.4142,,284.0389,285.0385,0,3,3,3,1,0,calpar,REAL,FAKE,,,,,,,,,,,,,,,,,,,,,,,,,,,,,,,,
,,,,,,,,,65cb7b14e78fc98ecd71d8de,Mexican,13 or older,"yes, I am fluent in another language",no,2025-07-24_07h53.06.294,empathy_intonation_perc_control,2024.2.4,Win32,60.24096386,65cb7b14e78fc98ecd71d8de,68817205a84113384fffdfe3,68821e745d16b31dd9c1d2dc,,,,,,,,,,,,,0,,,,,,,,,,,,,,,,,,,,,,,,285.043,286.6885,0,1,1.1112,,286.6887,287.6876,0,4,4,4,1,0,joten,REAL,FAKE,,,,,,,,,,,,,,,,,,,,,,,,,,,,,,,,
,,,,,,,,,65cb7b14e78fc98ecd71d8de,Mexican,13 or older,"yes, I am fluent in another language",no,2025-07-24_07h53.06.294,empathy_intonation_perc_control,2024.2.4,Win32,60.24096386,65cb7b14e78fc98ecd71d8de,68817205a84113384fffdfe3,68821e745d16b31dd9c1d2dc,,,,,,,,,,,,,1,,,,,,,,,,,,,,,,,,,,,,,,287.6894,289.1881,1,1,0.9587,,289.1883,290.1887,0,5,5,5,1,0,sacapuntas,REAL,FAKE,,,,,,,,,,,,,,,,,,,,,,,,,,,,,,,,
,,,,,,,,,65cb7b14e78fc98ecd71d8de,Mexican,13 or older,"yes, I am fluent in another language",no,2025-07-24_07h53.06.294,empathy_intonation_perc_control,2024.2.4,Win32,60.24096386,65cb7b14e78fc98ecd71d8de,68817205a84113384fffdfe3,68821e745d16b31dd9c1d2dc,,,,,,,,,,,,,0,,,,,,,,,,,,,,,,,,,,,,,,290.1919,291.855,0,1,1.1318,,291.8552,292.8547,0,6,6,6,1,0,priba,REAL,FAKE,,,,,,,,,,,,,,,,,,,,,,,,,,,,,,,,
,,,,,,,,,65cb7b14e78fc98ecd71d8de,Mexican,13 or older,"yes, I am fluent in another language",no,2025-07-24_07h53.06.294,empathy_intonation_perc_control,2024.2.4,Win32,60.24096386,65cb7b14e78fc98ecd71d8de,68817205a84113384fffdfe3,68821e745d16b31dd9c1d2dc,,,,,,,,,,,,,0,,,,,,,,,,,,,,,,,,,,,,,,292.8576,294.8548,1,0,1.4637,,294.8584,295.8545,0,7,7,7,1,0,pelasula,REAL,FAKE,,,,,,,,,,,,,,,,,,,,,,,,,,,,,,,,
,,,,,,,,,65cb7b14e78fc98ecd71d8de,Mexican,13 or older,"yes, I am fluent in another language",no,2025-07-24_07h53.06.294,empathy_intonation_perc_control,2024.2.4,Win32,60.24096386,65cb7b14e78fc98ecd71d8de,68817205a84113384fffdfe3,68821e745d16b31dd9c1d2dc,,,,,,,,,,,,,1,,,,,,,,,,,,,,,,,,,,,,,,295.8572,297.6097,0,0,1.2249,,297.6098,298.6057,0,8,8,8,1,0,bien,REAL,FAKE,,,,,,,,,,,,,,,,,,,,,,,,,,,,,,,,
,,,,,,,,,65cb7b14e78fc98ecd71d8de,Mexican,13 or older,"yes, I am fluent in another language",no,2025-07-24_07h53.06.294,empathy_intonation_perc_control,2024.2.4,Win32,60.24096386,65cb7b14e78fc98ecd71d8de,68817205a84113384fffdfe3,68821e745d16b31dd9c1d2dc,,,,,,,,,,,,,1,,,,,,,,,,,,,,,,,,,,,,,,298.6083,299.7936,1,1,0.6581,,299.7946,300.788,0,9,9,9,1,0,casa,REAL,FAKE,,,,,,,,,,,,,,,,,,,,,,,,,,,,,,,,
,,,,,,,,,65cb7b14e78fc98ecd71d8de,Mexican,13 or older,"yes, I am fluent in another language",no,2025-07-24_07h53.06.294,empathy_intonation_perc_control,2024.2.4,Win32,60.24096386,65cb7b14e78fc98ecd71d8de,68817205a84113384fffdfe3,68821e745d16b31dd9c1d2dc,,,,,,,,,,,,,0,,,,,,,,,,,,,,,,,,,,,,,,300.7907,302.4379,0,1,1.1159,,302.4379,303.438,0,10,10,10,1,0,lejo,REAL,FAKE,,,,,,,,,,,,,,,,,,,,,,,,,,,,,,,,
,,,,,,,,,65cb7b14e78fc98ecd71d8de,Mexican,13 or older,"yes, I am fluent in another language",no,2025-07-24_07h53.06.294,empathy_intonation_perc_control,2024.2.4,Win32,60.24096386,65cb7b14e78fc98ecd71d8de,68817205a84113384fffdfe3,68821e745d16b31dd9c1d2dc,,,,,,,,,,,,,0,,,,,,,,,,,,,,,,,,,,,,,,303.4404,305.8046,1,0,1.8314,,305.8064,306.8045,0,11,11,11,1,0,pretantas,REAL,FAKE,,,,,,,,,,,,,,,,,,,,,,,,,,,,,,,,
,,,,,,,,,65cb7b14e78fc98ecd71d8de,Mexican,13 or older,"yes, I am fluent in another language",no,2025-07-24_07h53.06.294,empathy_intonation_perc_control,2024.2.4,Win32,60.24096386,65cb7b14e78fc98ecd71d8de,68817205a84113384fffdfe3,68821e745d16b31dd9c1d2dc,,,,,,,,,,,,,,,,,,,,,,,,,,,,,,,,,,,,,,,,,,,,,,,,,,,,,,306.805,309.0208,,,,,,,,,,,,,,,,,,,,,,,,,,,,,,
,,,,,,,,,65cb7b14e78fc98ecd71d8de,Mexican,13 or older,"yes, I am fluent in another language",no,2025-07-24_07h53.06.294,empathy_intonation_perc_control,2024.2.4,Win32,60.24096386,65cb7b14e78fc98ecd71d8de,68817205a84113384fffdfe3,68821e745d16b31dd9c1d2dc,,,,,,,,,,,,,0,,,,,,,,,,,,,,,,,,,,,,,,,,,,,,,,,,,,,63,esposante,,,,,309.0333,311.2714,1,0,1.7138,,0,0,0,62,1,REAL,FAKE,,,,,,,,,,,,,,,,,
,,,,,,,,,65cb7b14e78fc98ecd71d8de,Mexican,13 or older,"yes, I am fluent in another language",no,2025-07-24_07h53.06.294,empathy_intonation_perc_control,2024.2.4,Win32,60.24096386,65cb7b14e78fc98ecd71d8de,68817205a84113384fffdfe3,68821e745d16b31dd9c1d2dc,,,,,,,,,,,,,1,,,,,,,,,,,,,,,,,,,,,,,,,,,,,,,,,,,,,12,asesinato,,,,,311.2731,312.7878,0,0,0.9799,,0,1,1,11,1,REAL,FAKE,,,,,,,,,,,,,,,,,
,,,,,,,,,65cb7b14e78fc98ecd71d8de,Mexican,13 or older,"yes, I am fluent in another language",no,2025-07-24_07h53.06.294,empathy_intonation_perc_control,2024.2.4,Win32,60.24096386,65cb7b14e78fc98ecd71d8de,68817205a84113384fffdfe3,68821e745d16b31dd9c1d2dc,,,,,,,,,,,,,0,,,,,,,,,,,,,,,,,,,,,,,,,,,,,,,,,,,,,17,floroso,,,,,312.7902,313.9712,0,1,0.6497,,0,2,2,16,1,REAL,FAKE,,,,,,,,,,,,,,,,,
,,,,,,,,,65cb7b14e78fc98ecd71d8de,Mexican,13 or older,"yes, I am fluent in another language",no,2025-07-24_07h53.06.294,empathy_intonation_perc_control,2024.2.4,Win32,60.24096386,65cb7b14e78fc98ecd71d8de,68817205a84113384fffdfe3,68821e745d16b31dd9c1d2dc,,,,,,,,,,,,,1,,,,,,,,,,,,,,,,,,,,,,,,,,,,,,,,,,,,,54,fomentar,,,,,313.9744,315.688,1,1,1.1821,,0,3,3,53,1,REAL,FAKE,,,,,,,,,,,,,,,,,
,,,,,,,,,65cb7b14e78fc98ecd71d8de,Mexican,13 or older,"yes, I am fluent in another language",no,2025-07-24_07h53.06.294,empathy_intonation_perc_control,2024.2.4,Win32,60.24096386,65cb7b14e78fc98ecd71d8de,68817205a84113384fffdfe3,68821e745d16b31dd9c1d2dc,,,,,,,,,,,,,1,,,,,,,,,,,,,,,,,,,,,,,,,,,,,,,,,,,,,46,martillo,,,,,315.6906,317.1212,1,1,0.8969,,0,4,4,45,1,REAL,FAKE,,,,,,,,,,,,,,,,,
,,,,,,,,,65cb7b14e78fc98ecd71d8de,Mexican,13 or older,"yes, I am fluent in another language",no,2025-07-24_07h53.06.294,empathy_intonation_perc_control,2024.2.4,Win32,60.24096386,65cb7b14e78fc98ecd71d8de,68817205a84113384fffdfe3,68821e745d16b31dd9c1d2dc,,,,,,,,,,,,,1,,,,,,,,,,,,,,,,,,,,,,,,,,,,,,,,,,,,,7,pésimo,,,,,317.1237,318.2878,1,1,0.6335,,0,5,5,6,1,REAL,FAKE,,,,,,,,,,,,,,,,,
,,,,,,,,,65cb7b14e78fc98ecd71d8de,Mexican,13 or older,"yes, I am fluent in another language",no,2025-07-24_07h53.06.294,empathy_intonation_perc_control,2024.2.4,Win32,60.24096386,65cb7b14e78fc98ecd71d8de,68817205a84113384fffdfe3,68821e745d16b31dd9c1d2dc,,,,,,,,,,,,,1,,,,,,,,,,,,,,,,,,,,,,,,,,,,,,,,,,,,,25,bisagra,,,,,318.291,319.6545,0,0,0.833,,0,6,6,24,1,REAL,FAKE,,,,,,,,,,,,,,,,,
,,,,,,,,,65cb7b14e78fc98ecd71d8de,Mexican,13 or older,"yes, I am fluent in another language",no,2025-07-24_07h53.06.294,empathy_intonation_perc_control,2024.2.4,Win32,60.24096386,65cb7b14e78fc98ecd71d8de,68817205a84113384fffdfe3,68821e745d16b31dd9c1d2dc,,,,,,,,,,,,,0,,,,,,,,,,,,,,,,,,,,,,,,,,,,,,,,,,,,,74,cintro,,,,,319.657,320.9378,0,1,0.748,,0,7,7,73,1,REAL,FAKE,,,,,,,,,,,,,,,,,
,,,,,,,,,65cb7b14e78fc98ecd71d8de,Mexican,13 or older,"yes, I am fluent in another language",no,2025-07-24_07h53.06.294,empathy_intonation_perc_control,2024.2.4,Win32,60.24096386,65cb7b14e78fc98ecd71d8de,68817205a84113384fffdfe3,68821e745d16b31dd9c1d2dc,,,,,,,,,,,,,1,,,,,,,,,,,,,,,,,,,,,,,,,,,,,,,,,,,,,57,tacaño,,,,,320.9408,322.5379,0,0,1.0627,,0,8,8,56,1,REAL,FAKE,,,,,,,,,,,,,,,,,
,,,,,,,,,65cb7b14e78fc98ecd71d8de,Mexican,13 or older,"yes, I am fluent in another language",no,2025-07-24_07h53.06.294,empathy_intonation_perc_control,2024.2.4,Win32,60.24096386,65cb7b14e78fc98ecd71d8de,68817205a84113384fffdfe3,68821e745d16b31dd9c1d2dc,,,,,,,,,,,,,1,,,,,,,,,,,,,,,,,,,,,,,,,,,,,,,,,,,,,43,canela,,,,,322.5407,324.1044,0,0,1.0309,,0,9,9,42,1,REAL,FAKE,,,,,,,,,,,,,,,,,
,,,,,,,,,65cb7b14e78fc98ecd71d8de,Mexican,13 or older,"yes, I am fluent in another language",no,2025-07-24_07h53.06.294,empathy_intonation_perc_control,2024.2.4,Win32,60.24096386,65cb7b14e78fc98ecd71d8de,68817205a84113384fffdfe3,68821e745d16b31dd9c1d2dc,,,,,,,,,,,,,1,,,,,,,,,,,,,,,,,,,,,,,,,,,,,,,,,,,,,26,secuestro,,,,,324.1067,326.1545,1,1,1.5132,,0,10,10,25,1,REAL,FAKE,,,,,,,,,,,,,,,,,
,,,,,,,,,65cb7b14e78fc98ecd71d8de,Mexican,13 or older,"yes, I am fluent in another language",no,2025-07-24_07h53.06.294,empathy_intonation_perc_control,2024.2.4,Win32,60.24096386,65cb7b14e78fc98ecd71d8de,68817205a84113384fffdfe3,68821e745d16b31dd9c1d2dc,,,,,,,,,,,,,1,,,,,,,,,,,,,,,,,,,,,,,,,,,,,,,,,,,,,34,aviso,,,,,326.1579,327.5876,1,1,0.8992,,0,11,11,33,1,REAL,FAKE,,,,,,,,,,,,,,,,,
,,,,,,,,,65cb7b14e78fc98ecd71d8de,Mexican,13 or older,"yes, I am fluent in another language",no,2025-07-24_07h53.06.294,empathy_intonation_perc_control,2024.2.4,Win32,60.24096386,65cb7b14e78fc98ecd71d8de,68817205a84113384fffdfe3,68821e745d16b31dd9c1d2dc,,,,,,,,,,,,,0,,,,,,,,,,,,,,,,,,,,,,,,,,,,,,,,,,,,,29,decar,,,,,327.5901,329.1544,1,0,1.0306,,0,12,12,28,1,REAL,FAKE,,,,,,,,,,,,,,,,,
,,,,,,,,,65cb7b14e78fc98ecd71d8de,Mexican,13 or older,"yes, I am fluent in another language",no,2025-07-24_07h53.06.294,empathy_intonation_perc_control,2024.2.4,Win32,60.24096386,65cb7b14e78fc98ecd71d8de,68817205a84113384fffdfe3,68821e745d16b31dd9c1d2dc,,,,,,,,,,,,,1,,,,,,,,,,,,,,,,,,,,,,,,,,,,,,,,,,,,,90,clavel,,,,,329.1567,330.7711,1,1,1.0815,,0,13,13,89,1,REAL,FAKE,,,,,,,,,,,,,,,,,
,,,,,,,,,65cb7b14e78fc98ecd71d8de,Mexican,13 or older,"yes, I am fluent in another language",no,2025-07-24_07h53.06.294,empathy_intonation_perc_control,2024.2.4,Win32,60.24096386,65cb7b14e78fc98ecd71d8de,68817205a84113384fffdfe3,68821e745d16b31dd9c1d2dc,,,,,,,,,,,,,1,,,,,,,,,,,,,,,,,,,,,,,,,,,,,,,,,,,,,62,flaco,,,,,330.7738,332.5709,0,0,1.2655,,0,14,14,61,1,REAL,FAKE,,,,,,,,,,,,,,,,,
,,,,,,,,,65cb7b14e78fc98ecd71d8de,Mexican,13 or older,"yes, I am fluent in another language",no,2025-07-24_07h53.06.294,empathy_intonation_perc_control,2024.2.4,Win32,60.24096386,65cb7b14e78fc98ecd71d8de,68817205a84113384fffdfe3,68821e745d16b31dd9c1d2dc,,,,,,,,,,,,,0,,,,,,,,,,,,,,,,,,,,,,,,,,,,,,,,,,,,,32,fatacidad,,,,,332.5732,334.1543,0,1,1.0473,,0,15,15,31,1,REAL,FAKE,,,,,,,,,,,,,,,,,
,,,,,,,,,65cb7b14e78fc98ecd71d8de,Mexican,13 or older,"yes, I am fluent in another language",no,2025-07-24_07h53.06.294,empathy_intonation_perc_control,2024.2.4,Win32,60.24096386,65cb7b14e78fc98ecd71d8de,68817205a84113384fffdfe3,68821e745d16b31dd9c1d2dc,,,,,,,,,,,,,1,,,,,,,,,,,,,,,,,,,,,,,,,,,,,,,,,,,,,85,laúd,,,,,334.1569,336.021,1,1,1.3295,,0,16,16,84,1,REAL,FAKE,,,,,,,,,,,,,,,,,
,,,,,,,,,65cb7b14e78fc98ecd71d8de,Mexican,13 or older,"yes, I am fluent in another language",no,2025-07-24_07h53.06.294,empathy_intonation_perc_control,2024.2.4,Win32,60.24096386,65cb7b14e78fc98ecd71d8de,68817205a84113384fffdfe3,68821e745d16b31dd9c1d2dc,,,,,,,,,,,,,1,,,,,,,,,,,,,,,,,,,,,,,,,,,,,,,,,,,,,9,hacha,,,,,336.0233,337.2544,0,0,0.6982,,0,17,17,8,1,REAL,FAKE,,,,,,,,,,,,,,,,,
,,,,,,,,,65cb7b14e78fc98ecd71d8de,Mexican,13 or older,"yes, I am fluent in another language",no,2025-07-24_07h53.06.294,empathy_intonation_perc_control,2024.2.4,Win32,60.24096386,65cb7b14e78fc98ecd71d8de,68817205a84113384fffdfe3,68821e745d16b31dd9c1d2dc,,,,,,,,,,,,,1,,,,,,,,,,,,,,,,,,,,,,,,,,,,,,,,,,,,,55,nevar,,,,,337.2566,338.471,0,0,0.6813,,0,18,18,54,1,REAL,FAKE,,,,,,,,,,,,,,,,,
,,,,,,,,,65cb7b14e78fc98ecd71d8de,Mexican,13 or older,"yes, I am fluent in another language",no,2025-07-24_07h53.06.294,empathy_intonation_perc_control,2024.2.4,Win32,60.24096386,65cb7b14e78fc98ecd71d8de,68817205a84113384fffdfe3,68821e745d16b31dd9c1d2dc,,,,,,,,,,,,,0,,,,,,,,,,,,,,,,,,,,,,,,,,,,,,,,,,,,,19,brecedad,,,,,338.4756,339.6561,0,1,0.656,,0,19,19,18,1,REAL,FAKE,,,,,,,,,,,,,,,,,
,,,,,,,,,65cb7b14e78fc98ecd71d8de,Mexican,13 or older,"yes, I am fluent in another language",no,2025-07-24_07h53.06.294,empathy_intonation_perc_control,2024.2.4,Win32,60.24096386,65cb7b14e78fc98ecd71d8de,68817205a84113384fffdfe3,68821e745d16b31dd9c1d2dc,,,,,,,,,,,,,1,,,,,,,,,,,,,,,,,,,,,,,,,,,,,,,,,,,,,2,pellizcar,,,,,339.658,340.8078,0,0,0.6279,,0,20,20,1,1,REAL,FAKE,,,,,,,,,,,,,,,,,
,,,,,,,,,65cb7b14e78fc98ecd71d8de,Mexican,13 or older,"yes, I am fluent in another language",no,2025-07-24_07h53.06.294,empathy_intonation_perc_control,2024.2.4,Win32,60.24096386,65cb7b14e78fc98ecd71d8de,68817205a84113384fffdfe3,68821e745d16b31dd9c1d2dc,,,,,,,,,,,,,1,,,,,,,,,,,,,,,,,,,,,,,,,,,,,,,,,,,,,20,ávido,,,,,340.8101,342.321,0,0,0.9823,,0,21,21,19,1,REAL,FAKE,,,,,,,,,,,,,,,,,
,,,,,,,,,65cb7b14e78fc98ecd71d8de,Mexican,13 or older,"yes, I am fluent in another language",no,2025-07-24_07h53.06.294,empathy_intonation_perc_control,2024.2.4,Win32,60.24096386,65cb7b14e78fc98ecd71d8de,68817205a84113384fffdfe3,68821e745d16b31dd9c1d2dc,,,,,,,,,,,,,0,,,,,,,,,,,,,,,,,,,,,,,,,,,,,,,,,,,,,1,terzo,,,,,342.3234,344.0376,0,1,1.183,,0,22,22,0,1,REAL,FAKE,,,,,,,,,,,,,,,,,
,,,,,,,,,65cb7b14e78fc98ecd71d8de,Mexican,13 or older,"yes, I am fluent in another language",no,2025-07-24_07h53.06.294,empathy_intonation_perc_control,2024.2.4,Win32,60.24096386,65cb7b14e78fc98ecd71d8de,68817205a84113384fffdfe3,68821e745d16b31dd9c1d2dc,,,,,,,,,,,,,0,,,,,,,,,,,,,,,,,,,,,,,,,,,,,,,,,,,,,47,cartinar,,,,,344.0401,345.7713,1,0,1.2006,,0,23,23,46,1,REAL,FAKE,,,,,,,,,,,,,,,,,
,,,,,,,,,65cb7b14e78fc98ecd71d8de,Mexican,13 or older,"yes, I am fluent in another language",no,2025-07-24_07h53.06.294,empathy_intonation_perc_control,2024.2.4,Win32,60.24096386,65cb7b14e78fc98ecd71d8de,68817205a84113384fffdfe3,68821e745d16b31dd9c1d2dc,,,,,,,,,,,,,1,,,,,,,,,,,,,,,,,,,,,,,,,,,,,,,,,,,,,45,jilguero,,,,,345.7739,347.0889,0,0,0.7793,,0,24,24,44,1,REAL,FAKE,,,,,,,,,,,,,,,,,
,,,,,,,,,65cb7b14e78fc98ecd71d8de,Mexican,13 or older,"yes, I am fluent in another language",no,2025-07-24_07h53.06.294,empathy_intonation_perc_control,2024.2.4,Win32,60.24096386,65cb7b14e78fc98ecd71d8de,68817205a84113384fffdfe3,68821e745d16b31dd9c1d2dc,,,,,,,,,,,,,1,,,,,,,,,,,,,,,,,,,,,,,,,,,,,,,,,,,,,31,pandilla,,,,,347.0916,348.638,0,0,1.0159,,0,25,25,30,1,REAL,FAKE,,,,,,,,,,,,,,,,,
,,,,,,,,,65cb7b14e78fc98ecd71d8de,Mexican,13 or older,"yes, I am fluent in another language",no,2025-07-24_07h53.06.294,empathy_intonation_perc_control,2024.2.4,Win32,60.24096386,65cb7b14e78fc98ecd71d8de,68817205a84113384fffdfe3,68821e745d16b31dd9c1d2dc,,,,,,,,,,,,,0,,,,,,,,,,,,,,,,,,,,,,,,,,,,,,,,,,,,,42,cadallo,,,,,348.6402,349.9376,0,1,0.7646,,0,26,26,41,1,REAL,FAKE,,,,,,,,,,,,,,,,,
,,,,,,,,,65cb7b14e78fc98ecd71d8de,Mexican,13 or older,"yes, I am fluent in another language",no,2025-07-24_07h53.06.294,empathy_intonation_perc_control,2024.2.4,Win32,60.24096386,65cb7b14e78fc98ecd71d8de,68817205a84113384fffdfe3,68821e745d16b31dd9c1d2dc,,,,,,,,,,,,,0,,,,,,,,,,,,,,,,,,,,,,,,,,,,,,,,,,,,,16,abracer,,,,,349.94,351.2376,0,1,0.7638,,0,27,27,15,1,REAL,FAKE,,,,,,,,,,,,,,,,,
,,,,,,,,,65cb7b14e78fc98ecd71d8de,Mexican,13 or older,"yes, I am fluent in another language",no,2025-07-24_07h53.06.294,empathy_intonation_perc_control,2024.2.4,Win32,60.24096386,65cb7b14e78fc98ecd71d8de,68817205a84113384fffdfe3,68821e745d16b31dd9c1d2dc,,,,,,,,,,,,,1,,,,,,,,,,,,,,,,,,,,,,,,,,,,,,,,,,,,,6,tergiversar,,,,,351.24,352.7375,0,0,0.9639,,0,28,28,5,1,REAL,FAKE,,,,,,,,,,,,,,,,,
,,,,,,,,,65cb7b14e78fc98ecd71d8de,Mexican,13 or older,"yes, I am fluent in another language",no,2025-07-24_07h53.06.294,empathy_intonation_perc_control,2024.2.4,Win32,60.24096386,65cb7b14e78fc98ecd71d8de,68817205a84113384fffdfe3,68821e745d16b31dd9c1d2dc,,,,,,,,,,,,,0,,,,,,,,,,,,,,,,,,,,,,,,,,,,,,,,,,,,,21,capillo,,,,,352.7398,354.2204,1,0,0.949,,0,29,29,20,1,REAL,FAKE,,,,,,,,,,,,,,,,,
,,,,,,,,,65cb7b14e78fc98ecd71d8de,Mexican,13 or older,"yes, I am fluent in another language",no,2025-07-24_07h53.06.294,empathy_intonation_perc_control,2024.2.4,Win32,60.24096386,65cb7b14e78fc98ecd71d8de,68817205a84113384fffdfe3,68821e745d16b31dd9c1d2dc,,,,,,,,,,,,,1,,,,,,,,,,,,,,,,,,,,,,,,,,,,,,,,,,,,,14,yunque,,,,,354.2238,355.4373,0,0,0.6797,,0,30,30,13,1,REAL,FAKE,,,,,,,,,,,,,,,,,
,,,,,,,,,65cb7b14e78fc98ecd71d8de,Mexican,13 or older,"yes, I am fluent in another language",no,2025-07-24_07h53.06.294,empathy_intonation_perc_control,2024.2.4,Win32,60.24096386,65cb7b14e78fc98ecd71d8de,68817205a84113384fffdfe3,68821e745d16b31dd9c1d2dc,,,,,,,,,,,,,1,,,,,,,,,,,,,,,,,,,,,,,,,,,,,,,,,,,,,40,alfombra,,,,,355.4398,356.8596,0,0,0.8912,,0,31,31,39,1,REAL,FAKE,,,,,,,,,,,,,,,,,
,,,,,,,,,65cb7b14e78fc98ecd71d8de,Mexican,13 or older,"yes, I am fluent in another language",no,2025-07-24_07h53.06.294,empathy_intonation_perc_control,2024.2.4,Win32,60.24096386,65cb7b14e78fc98ecd71d8de,68817205a84113384fffdfe3,68821e745d16b31dd9c1d2dc,,,,,,,,,,,,,0,,,,,,,,,,,,,,,,,,,,,,,,,,,,,,,,,,,,,53,vegada,,,,,356.8615,358.8207,0,1,1.4291,,0,32,32,52,1,REAL,FAKE,,,,,,,,,,,,,,,,,
,,,,,,,,,65cb7b14e78fc98ecd71d8de,Mexican,13 or older,"yes, I am fluent in another language",no,2025-07-24_07h53.06.294,empathy_intonation_perc_control,2024.2.4,Win32,60.24096386,65cb7b14e78fc98ecd71d8de,68817205a84113384fffdfe3,68821e745d16b31dd9c1d2dc,,,,,,,,,,,,,1,,,,,,,,,,,,,,,,,,,,,,,,,,,,,,,,,,,,,83,guante,,,,,358.8232,360.2112,1,1,0.8568,,0,33,33,82,1,REAL,FAKE,,,,,,,,,,,,,,,,,
,,,,,,,,,65cb7b14e78fc98ecd71d8de,Mexican,13 or older,"yes, I am fluent in another language",no,2025-07-24_07h53.06.294,empathy_intonation_perc_control,2024.2.4,Win32,60.24096386,65cb7b14e78fc98ecd71d8de,68817205a84113384fffdfe3,68821e745d16b31dd9c1d2dc,,,,,,,,,,,,,1,,,,,,,,,,,,,,,,,,,,,,,,,,,,,,,,,,,,,15,regar,,,,,360.2133,361.4808,0,0,0.7369,,0,34,34,14,1,REAL,FAKE,,,,,,,,,,,,,,,,,
,,,,,,,,,65cb7b14e78fc98ecd71d8de,Mexican,13 or older,"yes, I am fluent in another language",no,2025-07-24_07h53.06.294,empathy_intonation_perc_control,2024.2.4,Win32,60.24096386,65cb7b14e78fc98ecd71d8de,68817205a84113384fffdfe3,68821e745d16b31dd9c1d2dc,,,,,,,,,,,,,0,,,,,,,,,,,,,,,,,,,,,,,,,,,,,,,,,,,,,87,grodo,,,,,361.4827,363.4125,0,1,1.4015,,0,35,35,86,1,REAL,FAKE,,,,,,,,,,,,,,,,,
,,,,,,,,,65cb7b14e78fc98ecd71d8de,Mexican,13 or older,"yes, I am fluent in another language",no,2025-07-24_07h53.06.294,empathy_intonation_perc_control,2024.2.4,Win32,60.24096386,65cb7b14e78fc98ecd71d8de,68817205a84113384fffdfe3,68821e745d16b31dd9c1d2dc,,,,,,,,,,,,,1,,,,,,,,,,,,,,,,,,,,,,,,,,,,,,,,,,,,,39,torpe,,,,,363.4147,365.265,0,0,1.3183,,0,36,36,38,1,REAL,FAKE,,,,,,,,,,,,,,,,,
,,,,,,,,,65cb7b14e78fc98ecd71d8de,Mexican,13 or older,"yes, I am fluent in another language",no,2025-07-24_07h53.06.294,empathy_intonation_perc_control,2024.2.4,Win32,60.24096386,65cb7b14e78fc98ecd71d8de,68817205a84113384fffdfe3,68821e745d16b31dd9c1d2dc,,,,,,,,,,,,,1,,,,,,,,,,,,,,,,,,,,,,,,,,,,,,,,,,,,,64,orgulloso,,,,,365.2668,366.6284,1,1,0.8338,,0,37,37,63,1,REAL,FAKE,,,,,,,,,,,,,,,,,
,,,,,,,,,65cb7b14e78fc98ecd71d8de,Mexican,13 or older,"yes, I am fluent in another language",no,2025-07-24_07h53.06.294,empathy_intonation_perc_control,2024.2.4,Win32,60.24096386,65cb7b14e78fc98ecd71d8de,68817205a84113384fffdfe3,68821e745d16b31dd9c1d2dc,,,,,,,,,,,,,0,,,,,,,,,,,,,,,,,,,,,,,,,,,,,,,,,,,,,58,plaudir,,,,,366.6306,369.2132,0,1,2.0521,,0,38,38,57,1,REAL,FAKE,,,,,,,,,,,,,,,,,
,,,,,,,,,65cb7b14e78fc98ecd71d8de,Mexican,13 or older,"yes, I am fluent in another language",no,2025-07-24_07h53.06.294,empathy_intonation_perc_control,2024.2.4,Win32,60.24096386,65cb7b14e78fc98ecd71d8de,68817205a84113384fffdfe3,68821e745d16b31dd9c1d2dc,,,,,,,,,,,,,1,,,,,,,,,,,,,,,,,,,,,,,,,,,,,,,,,,,,,56,musgo,,,,,369.2151,370.5128,0,0,0.7688,,0,39,39,55,1,REAL,FAKE,,,,,,,,,,,,,,,,,
,,,,,,,,,65cb7b14e78fc98ecd71d8de,Mexican,13 or older,"yes, I am fluent in another language",no,2025-07-24_07h53.06.294,empathy_intonation_perc_control,2024.2.4,Win32,60.24096386,65cb7b14e78fc98ecd71d8de,68817205a84113384fffdfe3,68821e745d16b31dd9c1d2dc,,,,,,,,,,,,,1,,,,,,,,,,,,,,,,,,,,,,,,,,,,,,,,,,,,,51,candado,,,,,370.5147,372.1601,0,0,1.1172,,0,40,40,50,1,REAL,FAKE,,,,,,,,,,,,,,,,,
,,,,,,,,,65cb7b14e78fc98ecd71d8de,Mexican,13 or older,"yes, I am fluent in another language",no,2025-07-24_07h53.06.294,empathy_intonation_perc_control,2024.2.4,Win32,60.24096386,65cb7b14e78fc98ecd71d8de,68817205a84113384fffdfe3,68821e745d16b31dd9c1d2dc,,,,,,,,,,,,,1,,,,,,,,,,,,,,,,,,,,,,,,,,,,,,,,,,,,,76,atar,,,,,372.161,373.4787,0,0,0.7845,,0,41,41,75,1,REAL,FAKE,,,,,,,,,,,,,,,,,
,,,,,,,,,65cb7b14e78fc98ecd71d8de,Mexican,13 or older,"yes, I am fluent in another language",no,2025-07-24_07h53.06.294,empathy_intonation_perc_control,2024.2.4,Win32,60.24096386,65cb7b14e78fc98ecd71d8de,68817205a84113384fffdfe3,68821e745d16b31dd9c1d2dc,,,,,,,,,,,,,1,,,,,,,,,,,,,,,,,,,,,,,,,,,,,,,,,,,,,78,frondoso,,,,,373.481,375.0456,0,0,1.035,,0,42,42,77,1,REAL,FAKE,,,,,,,,,,,,,,,,,
,,,,,,,,,65cb7b14e78fc98ecd71d8de,Mexican,13 or older,"yes, I am fluent in another language",no,2025-07-24_07h53.06.294,empathy_intonation_perc_control,2024.2.4,Win32,60.24096386,65cb7b14e78fc98ecd71d8de,68817205a84113384fffdfe3,68821e745d16b31dd9c1d2dc,,,,,,,,,,,,,1,,,,,,,,,,,,,,,,,,,,,,,,,,,,,,,,,,,,,75,yacer,,,,,375.0474,376.2285,0,0,0.651,,0,43,43,74,1,REAL,FAKE,,,,,,,,,,,,,,,,,
,,,,,,,,,65cb7b14e78fc98ecd71d8de,Mexican,13 or older,"yes, I am fluent in another language",no,2025-07-24_07h53.06.294,empathy_intonation_perc_control,2024.2.4,Win32,60.24096386,65cb7b14e78fc98ecd71d8de,68817205a84113384fffdfe3,68821e745d16b31dd9c1d2dc,,,,,,,,,,,,,0,,,,,,,,,,,,,,,,,,,,,,,,,,,,,,,,,,,,,27,acutación,,,,,376.2305,378.0956,1,0,1.3348,,0,44,44,26,1,REAL,FAKE,,,,,,,,,,,,,,,,,
,,,,,,,,,65cb7b14e78fc98ecd71d8de,Mexican,13 or older,"yes, I am fluent in another language",no,2025-07-24_07h53.06.294,empathy_intonation_perc_control,2024.2.4,Win32,60.24096386,65cb7b14e78fc98ecd71d8de,68817205a84113384fffdfe3,68821e745d16b31dd9c1d2dc,,,,,,,,,,,,,0,,,,,,,,,,,,,,,,,,,,,,,,,,,,,,,,,,,,,50,flamida,,,,,378.0981,379.8472,0,1,1.2173,,0,45,45,49,1,REAL,FAKE,,,,,,,,,,,,,,,,,
,,,,,,,,,65cb7b14e78fc98ecd71d8de,Mexican,13 or older,"yes, I am fluent in another language",no,2025-07-24_07h53.06.294,empathy_intonation_perc_control,2024.2.4,Win32,60.24096386,65cb7b14e78fc98ecd71d8de,68817205a84113384fffdfe3,68821e745d16b31dd9c1d2dc,,,,,,,,,,,,,1,,,,,,,,,,,,,,,,,,,,,,,,,,,,,,,,,,,,,59,besar,,,,,379.8491,381.3619,1,1,0.9846,,0,46,46,58,1,REAL,FAKE,,,,,,,,,,,,,,,,,
,,,,,,,,,65cb7b14e78fc98ecd71d8de,Mexican,13 or older,"yes, I am fluent in another language",no,2025-07-24_07h53.06.294,empathy_intonation_perc_control,2024.2.4,Win32,60.24096386,65cb7b14e78fc98ecd71d8de,68817205a84113384fffdfe3,68821e745d16b31dd9c1d2dc,,,,,,,,,,,,,1,,,,,,,,,,,,,,,,,,,,,,,,,,,,,,,,,,,,,88,acantilado,,,,,381.3636,384.3951,0,0,2.5011,,0,47,47,87,1,REAL,FAKE,,,,,,,,,,,,,,,,,
,,,,,,,,,65cb7b14e78fc98ecd71d8de,Mexican,13 or older,"yes, I am fluent in another language",no,2025-07-24_07h53.06.294,empathy_intonation_perc_control,2024.2.4,Win32,60.24096386,65cb7b14e78fc98ecd71d8de,68817205a84113384fffdfe3,68821e745d16b31dd9c1d2dc,,,,,,,,,,,,,0,,,,,,,,,,,,,,,,,,,,,,,,,,,,,,,,,,,,,79,tropaje,,,,,384.3974,385.9955,0,1,1.0681,,0,48,48,78,1,REAL,FAKE,,,,,,,,,,,,,,,,,
,,,,,,,,,65cb7b14e78fc98ecd71d8de,Mexican,13 or older,"yes, I am fluent in another language",no,2025-07-24_07h53.06.294,empathy_intonation_perc_control,2024.2.4,Win32,60.24096386,65cb7b14e78fc98ecd71d8de,68817205a84113384fffdfe3,68821e745d16b31dd9c1d2dc,,,,,,,,,,,,,1,,,,,,,,,,,,,,,,,,,,,,,,,,,,,,,,,,,,,24,látigo,,,,,385.9973,387.345,1,1,0.8174,,0,49,49,23,1,REAL,FAKE,,,,,,,,,,,,,,,,,
,,,,,,,,,65cb7b14e78fc98ecd71d8de,Mexican,13 or older,"yes, I am fluent in another language",no,2025-07-24_07h53.06.294,empathy_intonation_perc_control,2024.2.4,Win32,60.24096386,65cb7b14e78fc98ecd71d8de,68817205a84113384fffdfe3,68821e745d16b31dd9c1d2dc,,,,,,,,,,,,,0,,,,,,,,,,,,,,,,,,,,,,,,,,,,,,,,,,,,,92,click the 0 key.,,,,,387.3478,389.1096,0,1,1.2321,,0,50,50,91,1,REAL,FAKE,,,,,,,,,,,,,,,,,
,,,,,,,,,65cb7b14e78fc98ecd71d8de,Mexican,13 or older,"yes, I am fluent in another language",no,2025-07-24_07h53.06.294,empathy_intonation_perc_control,2024.2.4,Win32,60.24096386,65cb7b14e78fc98ecd71d8de,68817205a84113384fffdfe3,68821e745d16b31dd9c1d2dc,,,,,,,,,,,,,1,,,,,,,,,,,,,,,,,,,,,,,,,,,,,,,,,,,,,52,camisa,,,,,389.1126,392.1399,1,1,2.4962,,0,51,51,51,1,REAL,FAKE,,,,,,,,,,,,,,,,,
,,,,,,,,,65cb7b14e78fc98ecd71d8de,Mexican,13 or older,"yes, I am fluent in another language",no,2025-07-24_07h53.06.294,empathy_intonation_perc_control,2024.2.4,Win32,60.24096386,65cb7b14e78fc98ecd71d8de,68817205a84113384fffdfe3,68821e745d16b31dd9c1d2dc,,,,,,,,,,,,,0,,,,,,,,,,,,,,,,,,,,,,,,,,,,,,,,,,,,,66,hacido,,,,,392.1436,394.1603,1,0,1.4875,,0,52,52,65,1,REAL,FAKE,,,,,,,,,,,,,,,,,
,,,,,,,,,65cb7b14e78fc98ecd71d8de,Mexican,13 or older,"yes, I am fluent in another language",no,2025-07-24_07h53.06.294,empathy_intonation_perc_control,2024.2.4,Win32,60.24096386,65cb7b14e78fc98ecd71d8de,68817205a84113384fffdfe3,68821e745d16b31dd9c1d2dc,,,,,,,,,,,,,0,,,,,,,,,,,,,,,,,,,,,,,,,,,,,,,,,,,,,82,empirador,,,,,394.1635,396.8223,0,1,2.1332,,0,53,53,81,1,REAL,FAKE,,,,,,,,,,,,,,,,,
,,,,,,,,,65cb7b14e78fc98ecd71d8de,Mexican,13 or older,"yes, I am fluent in another language",no,2025-07-24_07h53.06.294,empathy_intonation_perc_control,2024.2.4,Win32,60.24096386,65cb7b14e78fc98ecd71d8de,68817205a84113384fffdfe3,68821e745d16b31dd9c1d2dc,,,,,,,,,,,,,1,,,,,,,,,,,,,,,,,,,,,,,,,,,,,,,,,,,,,22,lacayo,,,,,396.8237,400.538,0,0,3.1799,,0,54,54,21,1,REAL,FAKE,,,,,,,,,,,,,,,,,
,,,,,,,,,65cb7b14e78fc98ecd71d8de,Mexican,13 or older,"yes, I am fluent in another language",no,2025-07-24_07h53.06.294,empathy_intonation_perc_control,2024.2.4,Win32,60.24096386,65cb7b14e78fc98ecd71d8de,68817205a84113384fffdfe3,68821e745d16b31dd9c1d2dc,,,,,,,,,,,,,0,,,,,,,,,,,,,,,,,,,,,,,,,,,,,,,,,,,,,23,lampera,,,,,400.5418,403.3383,0,1,2.2663,,0,55,55,22,1,REAL,FAKE,,,,,,,,,,,,,,,,,
,,,,,,,,,65cb7b14e78fc98ecd71d8de,Mexican,13 or older,"yes, I am fluent in another language",no,2025-07-24_07h53.06.294,empathy_intonation_perc_control,2024.2.4,Win32,60.24096386,65cb7b14e78fc98ecd71d8de,68817205a84113384fffdfe3,68821e745d16b31dd9c1d2dc,,,,,,,,,,,,,1,,,,,,,,,,,,,,,,,,,,,,,,,,,,,,,,,,,,,61,seda,,,,,403.3399,406.641,0,0,2.7717,,0,56,56,60,1,REAL,FAKE,,,,,,,,,,,,,,,,,
,,,,,,,,,65cb7b14e78fc98ecd71d8de,Mexican,13 or older,"yes, I am fluent in another language",no,2025-07-24_07h53.06.294,empathy_intonation_perc_control,2024.2.4,Win32,60.24096386,65cb7b14e78fc98ecd71d8de,68817205a84113384fffdfe3,68821e745d16b31dd9c1d2dc,,,,,,,,,,,,,1,,,,,,,,,,,,,,,,,,,,,,,,,,,,,,,,,,,,,65,bizcocho,,,,,406.6441,408.4609,0,0,1.2884,,0,57,57,64,1,REAL,FAKE,,,,,,,,,,,,,,,,,
,,,,,,,,,65cb7b14e78fc98ecd71d8de,Mexican,13 or older,"yes, I am fluent in another language",no,2025-07-24_07h53.06.294,empathy_intonation_perc_control,2024.2.4,Win32,60.24096386,65cb7b14e78fc98ecd71d8de,68817205a84113384fffdfe3,68821e745d16b31dd9c1d2dc,,,,,,,,,,,,,1,,,,,,,,,,,,,,,,,,,,,,,,,,,,,,,,,,,,,36,loro,,,,,408.464,411.0402,0,0,2.0482,,0,58,58,35,1,REAL,FAKE,,,,,,,,,,,,,,,,,
,,,,,,,,,65cb7b14e78fc98ecd71d8de,Mexican,13 or older,"yes, I am fluent in another language",no,2025-07-24_07h53.06.294,empathy_intonation_perc_control,2024.2.4,Win32,60.24096386,65cb7b14e78fc98ecd71d8de,68817205a84113384fffdfe3,68821e745d16b31dd9c1d2dc,,,,,,,,,,,,,1,,,,,,,,,,,,,,,,,,,,,,,,,,,,,,,,,,,,,49,ganar,,,,,411.043,412.4223,1,1,0.8457,,0,59,59,48,1,REAL,FAKE,,,,,,,,,,,,,,,,,
,,,,,,,,,65cb7b14e78fc98ecd71d8de,Mexican,13 or older,"yes, I am fluent in another language",no,2025-07-24_07h53.06.294,empathy_intonation_perc_control,2024.2.4,Win32,60.24096386,65cb7b14e78fc98ecd71d8de,68817205a84113384fffdfe3,68821e745d16b31dd9c1d2dc,,,,,,,,,,,,,1,,,,,,,,,,,,,,,,,,,,,,,,,,,,,,,,,,,,,89,prisa,,,,,412.4252,413.7248,0,0,0.7711,,0,60,60,88,1,REAL,FAKE,,,,,,,,,,,,,,,,,
,,,,,,,,,65cb7b14e78fc98ecd71d8de,Mexican,13 or older,"yes, I am fluent in another language",no,2025-07-24_07h53.06.294,empathy_intonation_perc_control,2024.2.4,Win32,60.24096386,65cb7b14e78fc98ecd71d8de,68817205a84113384fffdfe3,68821e745d16b31dd9c1d2dc,,,,,,,,,,,,,1,,,,,,,,,,,,,,,,,,,,,,,,,,,,,,,,,,,,,3,pulmones,,,,,413.7268,414.9719,0,0,0.7149,,0,61,61,2,1,REAL,FAKE,,,,,,,,,,,,,,,,,
,,,,,,,,,65cb7b14e78fc98ecd71d8de,Mexican,13 or older,"yes, I am fluent in another language",no,2025-07-24_07h53.06.294,empathy_intonation_perc_control,2024.2.4,Win32,60.24096386,65cb7b14e78fc98ecd71d8de,68817205a84113384fffdfe3,68821e745d16b31dd9c1d2dc,,,,,,,,,,,,,0,,,,,,,,,,,,,,,,,,,,,,,,,,,,,,,,,,,,,33,pauca,,,,,414.9748,416.6561,0,1,1.148,,0,62,62,32,1,REAL,FAKE,,,,,,,,,,,,,,,,,
,,,,,,,,,65cb7b14e78fc98ecd71d8de,Mexican,13 or older,"yes, I am fluent in another language",no,2025-07-24_07h53.06.294,empathy_intonation_perc_control,2024.2.4,Win32,60.24096386,65cb7b14e78fc98ecd71d8de,68817205a84113384fffdfe3,68821e745d16b31dd9c1d2dc,,,,,,,,,,,,,0,,,,,,,,,,,,,,,,,,,,,,,,,,,,,,,,,,,,,72,pemición,,,,,416.6589,419.2213,0,1,2.0253,,0,63,63,71,1,REAL,FAKE,,,,,,,,,,,,,,,,,
,,,,,,,,,65cb7b14e78fc98ecd71d8de,Mexican,13 or older,"yes, I am fluent in another language",no,2025-07-24_07h53.06.294,empathy_intonation_perc_control,2024.2.4,Win32,60.24096386,65cb7b14e78fc98ecd71d8de,68817205a84113384fffdfe3,68821e745d16b31dd9c1d2dc,,,,,,,,,,,,,1,,,,,,,,,,,,,,,,,,,,,,,,,,,,,,,,,,,,,5,zapato,,,,,419.2238,420.4886,1,1,0.727,,0,64,64,4,1,REAL,FAKE,,,,,,,,,,,,,,,,,
,,,,,,,,,65cb7b14e78fc98ecd71d8de,Mexican,13 or older,"yes, I am fluent in another language",no,2025-07-24_07h53.06.294,empathy_intonation_perc_control,2024.2.4,Win32,60.24096386,65cb7b14e78fc98ecd71d8de,68817205a84113384fffdfe3,68821e745d16b31dd9c1d2dc,,,,,,,,,,,,,1,,,,,,,,,,,,,,,,,,,,,,,,,,,,,,,,,,,,,67,cabello,,,,,420.4917,421.892,1,1,0.8696,,0,65,65,66,1,REAL,FAKE,,,,,,,,,,,,,,,,,
,,,,,,,,,65cb7b14e78fc98ecd71d8de,Mexican,13 or older,"yes, I am fluent in another language",no,2025-07-24_07h53.06.294,empathy_intonation_perc_control,2024.2.4,Win32,60.24096386,65cb7b14e78fc98ecd71d8de,68817205a84113384fffdfe3,68821e745d16b31dd9c1d2dc,,,,,,,,,,,,,1,,,,,,,,,,,,,,,,,,,,,,,,,,,,,,,,,,,,,68,alegre,,,,,421.8942,424.6263,0,0,2.2042,,0,66,66,67,1,REAL,FAKE,,,,,,,,,,,,,,,,,
,,,,,,,,,65cb7b14e78fc98ecd71d8de,Mexican,13 or older,"yes, I am fluent in another language",no,2025-07-24_07h53.06.294,empathy_intonation_perc_control,2024.2.4,Win32,60.24096386,65cb7b14e78fc98ecd71d8de,68817205a84113384fffdfe3,68821e745d16b31dd9c1d2dc,,,,,,,,,,,,,0,,,,,,,,,,,,,,,,,,,,,,,,,,,,,,,,,,,,,70,temblo,,,,,424.6283,427.7721,0,1,2.6105,,0,67,67,69,1,REAL,FAKE,,,,,,,,,,,,,,,,,
,,,,,,,,,65cb7b14e78fc98ecd71d8de,Mexican,13 or older,"yes, I am fluent in another language",no,2025-07-24_07h53.06.294,empathy_intonation_perc_control,2024.2.4,Win32,60.24096386,65cb7b14e78fc98ecd71d8de,68817205a84113384fffdfe3,68821e745d16b31dd9c1d2dc,,,,,,,,,,,,,1,,,,,,,,,,,,,,,,,,,,,,,,,,,,,,,,,,,,,77,tiburón,,,,,427.7753,429.4884,0,0,1.1756,,0,68,68,76,1,REAL,FAKE,,,,,,,,,,,,,,,,,
,,,,,,,,,65cb7b14e78fc98ecd71d8de,Mexican,13 or older,"yes, I am fluent in another language",no,2025-07-24_07h53.06.294,empathy_intonation_perc_control,2024.2.4,Win32,60.24096386,65cb7b14e78fc98ecd71d8de,68817205a84113384fffdfe3,68821e745d16b31dd9c1d2dc,,,,,,,,,,,,,0,,,,,,,,,,,,,,,,,,,,,,,,,,,,,,,,,,,,,4,batillón,,,,,429.4908,432.1735,0,1,2.1465,,0,69,69,3,1,REAL,FAKE,,,,,,,,,,,,,,,,,
,,,,,,,,,65cb7b14e78fc98ecd71d8de,Mexican,13 or older,"yes, I am fluent in another language",no,2025-07-24_07h53.06.294,empathy_intonation_perc_control,2024.2.4,Win32,60.24096386,65cb7b14e78fc98ecd71d8de,68817205a84113384fffdfe3,68821e745d16b31dd9c1d2dc,,,,,,,,,,,,,1,,,,,,,,,,,,,,,,,,,,,,,,,,,,,,,,,,,,,28,merodear,,,,,432.1763,434.2204,1,1,1.5142,,0,70,70,27,1,REAL,FAKE,,,,,,,,,,,,,,,,,
,,,,,,,,,65cb7b14e78fc98ecd71d8de,Mexican,13 or older,"yes, I am fluent in another language",no,2025-07-24_07h53.06.294,empathy_intonation_perc_control,2024.2.4,Win32,60.24096386,65cb7b14e78fc98ecd71d8de,68817205a84113384fffdfe3,68821e745d16b31dd9c1d2dc,,,,,,,,,,,,,1,,,,,,,,,,,,,,,,,,,,,,,,,,,,,,,,,,,,,38,estornudar,,,,,434.2221,435.4874,1,1,0.735,,0,71,71,37,1,REAL,FAKE,,,,,,,,,,,,,,,,,
,,,,,,,,,65cb7b14e78fc98ecd71d8de,Mexican,13 or older,"yes, I am fluent in another language",no,2025-07-24_07h53.06.294,empathy_intonation_perc_control,2024.2.4,Win32,60.24096386,65cb7b14e78fc98ecd71d8de,68817205a84113384fffdfe3,68821e745d16b31dd9c1d2dc,,,,,,,,,,,,,1,,,,,,,,,,,,,,,,,,,,,,,,,,,,,,,,,,,,,11,cenefa,,,,,435.4889,436.3546,0,0,0.3474,,0,72,72,10,1,REAL,FAKE,,,,,,,,,,,,,,,,,
,,,,,,,,,65cb7b14e78fc98ecd71d8de,Mexican,13 or older,"yes, I am fluent in another language",no,2025-07-24_07h53.06.294,empathy_intonation_perc_control,2024.2.4,Win32,60.24096386,65cb7b14e78fc98ecd71d8de,68817205a84113384fffdfe3,68821e745d16b31dd9c1d2dc,,,,,,,,,,,,,1,,,,,,,,,,,,,,,,,,,,,,,,,,,,,,,,,,,,,41,rebuscar,,,,,436.3571,438.0216,1,1,1.13,,0,73,73,40,1,REAL,FAKE,,,,,,,,,,,,,,,,,
,,,,,,,,,65cb7b14e78fc98ecd71d8de,Mexican,13 or older,"yes, I am fluent in another language",no,2025-07-24_07h53.06.294,empathy_intonation_perc_control,2024.2.4,Win32,60.24096386,65cb7b14e78fc98ecd71d8de,68817205a84113384fffdfe3,68821e745d16b31dd9c1d2dc,,,,,,,,,,,,,0,,,,,,,,,,,,,,,,,,,,,,,,,,,,,,,,,,,,,30,alardio,,,,,438.0241,439.2717,0,1,0.7123,,0,74,74,29,1,REAL,FAKE,,,,,,,,,,,,,,,,,
,,,,,,,,,65cb7b14e78fc98ecd71d8de,Mexican,13 or older,"yes, I am fluent in another language",no,2025-07-24_07h53.06.294,empathy_intonation_perc_control,2024.2.4,Win32,60.24096386,65cb7b14e78fc98ecd71d8de,68817205a84113384fffdfe3,68821e745d16b31dd9c1d2dc,,,,,,,,,,,,,0,,,,,,,,,,,,,,,,,,,,,,,,,,,,,,,,,,,,,8,cadeña,,,,,439.2745,440.527,1,0,0.7294,,0,75,75,7,1,REAL,FAKE,,,,,,,,,,,,,,,,,
,,,,,,,,,65cb7b14e78fc98ecd71d8de,Mexican,13 or older,"yes, I am fluent in another language",no,2025-07-24_07h53.06.294,empathy_intonation_perc_control,2024.2.4,Win32,60.24096386,65cb7b14e78fc98ecd71d8de,68817205a84113384fffdfe3,68821e745d16b31dd9c1d2dc,,,,,,,,,,,,,1,,,,,,,,,,,,,,,,,,,,,,,,,,,,,,,,,,,,,71,polvoriento,,,,,440.5299,441.8711,0,0,0.8099,,0,76,76,70,1,REAL,FAKE,,,,,,,,,,,,,,,,,
,,,,,,,,,65cb7b14e78fc98ecd71d8de,Mexican,13 or older,"yes, I am fluent in another language",no,2025-07-24_07h53.06.294,empathy_intonation_perc_control,2024.2.4,Win32,60.24096386,65cb7b14e78fc98ecd71d8de,68817205a84113384fffdfe3,68821e745d16b31dd9c1d2dc,,,,,,,,,,,,,0,,,,,,,,,,,,,,,,,,,,,,,,,,,,,,,,,,,,,84,escuto,,,,,441.8736,443.0923,0,1,0.6877,,0,77,77,83,1,REAL,FAKE,,,,,,,,,,,,,,,,,
,,,,,,,,,65cb7b14e78fc98ecd71d8de,Mexican,13 or older,"yes, I am fluent in another language",no,2025-07-24_07h53.06.294,empathy_intonation_perc_control,2024.2.4,Win32,60.24096386,65cb7b14e78fc98ecd71d8de,68817205a84113384fffdfe3,68821e745d16b31dd9c1d2dc,,,,,,,,,,,,,1,,,,,,,,,,,,,,,,,,,,,,,,,,,,,,,,,,,,,44,cuchara,,,,,443.0944,444.7426,0,0,1.1202,,0,78,78,43,1,REAL,FAKE,,,,,,,,,,,,,,,,,
,,,,,,,,,65cb7b14e78fc98ecd71d8de,Mexican,13 or older,"yes, I am fluent in another language",no,2025-07-24_07h53.06.294,empathy_intonation_perc_control,2024.2.4,Win32,60.24096386,65cb7b14e78fc98ecd71d8de,68817205a84113384fffdfe3,68821e745d16b31dd9c1d2dc,,,,,,,,,,,,,1,,,,,,,,,,,,,,,,,,,,,,,,,,,,,,,,,,,,,37,granuja,,,,,444.7456,446.2714,1,1,0.9947,,0,79,79,36,1,REAL,FAKE,,,,,,,,,,,,,,,,,
,,,,,,,,,65cb7b14e78fc98ecd71d8de,Mexican,13 or older,"yes, I am fluent in another language",no,2025-07-24_07h53.06.294,empathy_intonation_perc_control,2024.2.4,Win32,60.24096386,65cb7b14e78fc98ecd71d8de,68817205a84113384fffdfe3,68821e745d16b31dd9c1d2dc,,,,,,,,,,,,,0,,,,,,,,,,,,,,,,,,,,,,,,,,,,,,,,,,,,,18,arsa,,,,,446.2739,447.7043,0,1,0.9071,,0,80,80,17,1,REAL,FAKE,,,,,,,,,,,,,,,,,
,,,,,,,,,65cb7b14e78fc98ecd71d8de,Mexican,13 or older,"yes, I am fluent in another language",no,2025-07-24_07h53.06.294,empathy_intonation_perc_control,2024.2.4,Win32,60.24096386,65cb7b14e78fc98ecd71d8de,68817205a84113384fffdfe3,68821e745d16b31dd9c1d2dc,,,,,,,,,,,,,1,,,,,,,,,,,,,,,,,,,,,,,,,,,,,,,,,,,,,80,hormiga,,,,,447.7065,448.9256,0,0,0.7038,,0,81,81,79,1,REAL,FAKE,,,,,,,,,,,,,,,,,
,,,,,,,,,65cb7b14e78fc98ecd71d8de,Mexican,13 or older,"yes, I am fluent in another language",no,2025-07-24_07h53.06.294,empathy_intonation_perc_control,2024.2.4,Win32,60.24096386,65cb7b14e78fc98ecd71d8de,68817205a84113384fffdfe3,68821e745d16b31dd9c1d2dc,,,,,,,,,,,,,1,,,,,,,,,,,,,,,,,,,,,,,,,,,,,,,,,,,,,73,hervidor,,,,,448.9279,450.2719,0,0,0.8161,,0,82,82,72,1,REAL,FAKE,,,,,,,,,,,,,,,,,
,,,,,,,,,65cb7b14e78fc98ecd71d8de,Mexican,13 or older,"yes, I am fluent in another language",no,2025-07-24_07h53.06.294,empathy_intonation_perc_control,2024.2.4,Win32,60.24096386,65cb7b14e78fc98ecd71d8de,68817205a84113384fffdfe3,68821e745d16b31dd9c1d2dc,,,,,,,,,,,,,1,,,,,,,,,,,,,,,,,,,,,,,,,,,,,,,,,,,,,81,pozo,,,,,450.2744,451.4932,0,0,0.688,,0,83,83,80,1,REAL,FAKE,,,,,,,,,,,,,,,,,
,,,,,,,,,65cb7b14e78fc98ecd71d8de,Mexican,13 or older,"yes, I am fluent in another language",no,2025-07-24_07h53.06.294,empathy_intonation_perc_control,2024.2.4,Win32,60.24096386,65cb7b14e78fc98ecd71d8de,68817205a84113384fffdfe3,68821e745d16b31dd9c1d2dc,,,,,,,,,,,,,1,,,,,,,,,,,,,,,,,,,,,,,,,,,,,,,,,,,,,60,matar,,,,,451.496,453.2383,0,0,1.209,,0,84,84,59,1,REAL,FAKE,,,,,,,,,,,,,,,,,
,,,,,,,,,65cb7b14e78fc98ecd71d8de,Mexican,13 or older,"yes, I am fluent in another language",no,2025-07-24_07h53.06.294,empathy_intonation_perc_control,2024.2.4,Win32,60.24096386,65cb7b14e78fc98ecd71d8de,68817205a84113384fffdfe3,68821e745d16b31dd9c1d2dc,,,,,,,,,,,,,1,,,,,,,,,,,,,,,,,,,,,,,,,,,,,,,,,,,,,86,barato,,,,,453.2407,454.5413,0,0,0.7632,,0,85,85,85,1,REAL,FAKE,,,,,,,,,,,,,,,,,
,,,,,,,,,65cb7b14e78fc98ecd71d8de,Mexican,13 or older,"yes, I am fluent in another language",no,2025-07-24_07h53.06.294,empathy_intonation_perc_control,2024.2.4,Win32,60.24096386,65cb7b14e78fc98ecd71d8de,68817205a84113384fffdfe3,68821e745d16b31dd9c1d2dc,,,,,,,,,,,,,1,,,,,,,,,,,,,,,,,,,,,,,,,,,,,,,,,,,,,69,engatusar,,,,,454.5436,455.8435,0,0,0.7741,,0,86,86,68,1,REAL,FAKE,,,,,,,,,,,,,,,,,
,,,,,,,,,65cb7b14e78fc98ecd71d8de,Mexican,13 or older,"yes, I am fluent in another language",no,2025-07-24_07h53.06.294,empathy_intonation_perc_control,2024.2.4,Win32,60.24096386,65cb7b14e78fc98ecd71d8de,68817205a84113384fffdfe3,68821e745d16b31dd9c1d2dc,,,,,,,,,,,,,1,,,,,,,,,,,,,,,,,,,,,,,,,,,,,,,,,,,,,13,helar,,,,,455.8459,457.0445,0,0,0.6748,,0,87,87,12,1,REAL,FAKE,,,,,,,,,,,,,,,,,
,,,,,,,,,65cb7b14e78fc98ecd71d8de,Mexican,13 or older,"yes, I am fluent in another language",no,2025-07-24_07h53.06.294,empathy_intonation_perc_control,2024.2.4,Win32,60.24096386,65cb7b14e78fc98ecd71d8de,68817205a84113384fffdfe3,68821e745d16b31dd9c1d2dc,,,,,,,,,,,,,0,,,,,,,,,,,,,,,,,,,,,,,,,,,,,,,,,,,,,35,rompido,,,,,457.0471,458.4287,0,1,0.8592,,0,88,88,34,1,REAL,FAKE,,,,,,,,,,,,,,,,,
,,,,,,,,,65cb7b14e78fc98ecd71d8de,Mexican,13 or older,"yes, I am fluent in another language",no,2025-07-24_07h53.06.294,empathy_intonation_perc_control,2024.2.4,Win32,60.24096386,65cb7b14e78fc98ecd71d8de,68817205a84113384fffdfe3,68821e745d16b31dd9c1d2dc,,,,,,,,,,,,,1,,,,,,,,,,,,,,,,,,,,,,,,,,,,,,,,,,,,,91,click the 1 key.,,,,,458.4314,459.66,1,1,0.7011,,0,89,89,90,1,REAL,FAKE,,,,,,,,,,,,,,,,,
,,,,,,,,,65cb7b14e78fc98ecd71d8de,Mexican,13 or older,"yes, I am fluent in another language",no,2025-07-24_07h53.06.294,empathy_intonation_perc_control,2024.2.4,Win32,60.24096386,65cb7b14e78fc98ecd71d8de,68817205a84113384fffdfe3,68821e745d16b31dd9c1d2dc,,,,,,,,,,,,,1,,,,,,,,,,,,,,,,,,,,,,,,,,,,,,,,,,,,,48,ladrón,,,,,459.6635,461.0048,0,0,0.8101,,0,90,90,47,1,REAL,FAKE,,,,,,,,,,,,,,,,,
,,,,,,,,,65cb7b14e78fc98ecd71d8de,Mexican,13 or older,"yes, I am fluent in another language",no,2025-07-24_07h53.06.294,empathy_intonation_perc_control,2024.2.4,Win32,60.24096386,65cb7b14e78fc98ecd71d8de,68817205a84113384fffdfe3,68821e745d16b31dd9c1d2dc,,,,,,,,,,,,,0,,,,,,,,,,,,,,,,,,,,,,,,,,,,,,,,,,,,,10,antar,,,,,461.0073,462.9563,0,1,1.4123,,0,91,91,9,1,REAL,FAKE,,,,,,,,,,,,,,,,,
,,,,,,,,,65cb7b14e78fc98ecd71d8de,Mexican,13 or older,"yes, I am fluent in another language",no,2025-07-24_07h53.06.294,empathy_intonation_perc_control,2024.2.4,Win32,60.24096386,65cb7b14e78fc98ecd71d8de,68817205a84113384fffdfe3,68821e745d16b31dd9c1d2dc,,,,,,,,,,,,,,,,,,,,,,,,,,,,,,,,,,,,,,,,,,,,,,,,,,,,,,,,,,,,,,,,,,,,,462.9574,466.7063,,,,,,,,,,,,,,,
,,,,,,,,,65cb7b14e78fc98ecd71d8de,Mexican,13 or older,"yes, I am fluent in another language",no,2025-07-24_07h53.06.294,empathy_intonation_perc_control,2024.2.4,Win32,60.24096386,65cb7b14e78fc98ecd71d8de,68817205a84113384fffdfe3,68821e745d16b31dd9c1d2dc,,,,,,,,,,,,,,,,,,,,,,,,,,,1,,,,,,,,,,,,,,,,,,,,,,,,,,,,,,,,,,,,,,,,,,,,466.7195,470.213,slightly disagree,0,0,0,0,1,I can easily tell if someone else wants to enter a conversation.,1,0,1,0,,
,,,,,,,,,65cb7b14e78fc98ecd71d8de,Mexican,13 or older,"yes, I am fluent in another language",no,2025-07-24_07h53.06.294,empathy_intonation_perc_control,2024.2.4,Win32,60.24096386,65cb7b14e78fc98ecd71d8de,68817205a84113384fffdfe3,68821e745d16b31dd9c1d2dc,,,,,,,,,,,,,,,,,,,,,,,,,,,2,,,,,,,,,,,,,,,,,,,,,,,,,,,,,,,,,,,,,,,,,,,,470.2153,472.9068,slightly agree,0,1,1,1,1,I prefer animals to humans.,0,1,0,0,,
,,,,,,,,,65cb7b14e78fc98ecd71d8de,Mexican,13 or older,"yes, I am fluent in another language",no,2025-07-24_07h53.06.294,empathy_intonation_perc_control,2024.2.4,Win32,60.24096386,65cb7b14e78fc98ecd71d8de,68817205a84113384fffdfe3,68821e745d16b31dd9c1d2dc,,,,,,,,,,,,,,,,,,,,,,,,,,,3,,,,,,,,,,,,,,,,,,,,,,,,,,,,,,,,,,,,,,,,,,,,472.9128,474.9914,slightly disagree,0,2,2,2,1,I try to keep up with the current trends and fashions.,0,1,0,0,,
,,,,,,,,,65cb7b14e78fc98ecd71d8de,Mexican,13 or older,"yes, I am fluent in another language",no,2025-07-24_07h53.06.294,empathy_intonation_perc_control,2024.2.4,Win32,60.24096386,65cb7b14e78fc98ecd71d8de,68817205a84113384fffdfe3,68821e745d16b31dd9c1d2dc,,,,,,,,,,,,,,,,,,,,,,,,,,,4,,,,,,,,,,,,,,,,,,,,,,,,,,,,,,,,,,,,,,,,,,,,474.9966,480.3719,strongly agree,0,3,3,3,1,"I find it difficult to explain to others things that I understand easily,   when they don't understand it first time.",1,0,0,1,,
,,,,,,,,,65cb7b14e78fc98ecd71d8de,Mexican,13 or older,"yes, I am fluent in another language",no,2025-07-24_07h53.06.294,empathy_intonation_perc_control,2024.2.4,Win32,60.24096386,65cb7b14e78fc98ecd71d8de,68817205a84113384fffdfe3,68821e745d16b31dd9c1d2dc,,,,,,,,,,,,,,,,,,,,,,,,,,,5,,,,,,,,,,,,,,,,,,,,,,,,,,,,,,,,,,,,,,,,,,,,480.3754,482.7871,slightly disagree,0,4,4,4,1,I dream most nights.,0,1,0,0,,
,,,,,,,,,65cb7b14e78fc98ecd71d8de,Mexican,13 or older,"yes, I am fluent in another language",no,2025-07-24_07h53.06.294,empathy_intonation_perc_control,2024.2.4,Win32,60.24096386,65cb7b14e78fc98ecd71d8de,68817205a84113384fffdfe3,68821e745d16b31dd9c1d2dc,,,,,,,,,,,,,,,,,,,,,,,,,,,6,,,,,,,,,,,,,,,,,,,,,,,,,,,,,,,,,,,,,,,,,,,,482.7909,485.6807,slightly agree,0,5,5,5,1,I really enjoy caring for other people.,1,0,1,0,,
,,,,,,,,,65cb7b14e78fc98ecd71d8de,Mexican,13 or older,"yes, I am fluent in another language",no,2025-07-24_07h53.06.294,empathy_intonation_perc_control,2024.2.4,Win32,60.24096386,65cb7b14e78fc98ecd71d8de,68817205a84113384fffdfe3,68821e745d16b31dd9c1d2dc,,,,,,,,,,,,,,,,,,,,,,,,,,,7,,,,,,,,,,,,,,,,,,,,,,,,,,,,,,,,,,,,,,,,,,,,485.6837,488.6455,slightly disagree,0,6,6,6,1,I try to solve my own problems rather than discussing them with others.,0,1,0,0,,
,,,,,,,,,65cb7b14e78fc98ecd71d8de,Mexican,13 or older,"yes, I am fluent in another language",no,2025-07-24_07h53.06.294,empathy_intonation_perc_control,2024.2.4,Win32,60.24096386,65cb7b14e78fc98ecd71d8de,68817205a84113384fffdfe3,68821e745d16b31dd9c1d2dc,,,,,,,,,,,,,,,,,,,,,,,,,,,8,,,,,,,,,,,,,,,,,,,,,,,,,,,,,,,,,,,,,,,,,,,,488.6482,493.2447,slightly agree,0,7,7,7,1,I find it hard to know what to do in a social situation.,1,0,0,1,,
,,,,,,,,,65cb7b14e78fc98ecd71d8de,Mexican,13 or older,"yes, I am fluent in another language",no,2025-07-24_07h53.06.294,empathy_intonation_perc_control,2024.2.4,Win32,60.24096386,65cb7b14e78fc98ecd71d8de,68817205a84113384fffdfe3,68821e745d16b31dd9c1d2dc,,,,,,,,,,,,,,,,,,,,,,,,,,,9,,,,,,,,,,,,,,,,,,,,,,,,,,,,,,,,,,,,,,,,,,,,493.2466,496.4225,slightly disagree,0,8,8,8,1,I am at my best first thing in the morning.,0,1,0,0,,
,,,,,,,,,65cb7b14e78fc98ecd71d8de,Mexican,13 or older,"yes, I am fluent in another language",no,2025-07-24_07h53.06.294,empathy_intonation_perc_control,2024.2.4,Win32,60.24096386,65cb7b14e78fc98ecd71d8de,68817205a84113384fffdfe3,68821e745d16b31dd9c1d2dc,,,,,,,,,,,,,,,,,,,,,,,,,,,10,,,,,,,,,,,,,,,,,,,,,,,,,,,,,,,,,,,,,,,,,,,,496.4274,500.729,strongly disagree,0,9,9,9,1,People often tell me that I went too far in driving my point home in a discussion.,1,0,0,1,,
,,,,,,,,,65cb7b14e78fc98ecd71d8de,Mexican,13 or older,"yes, I am fluent in another language",no,2025-07-24_07h53.06.294,empathy_intonation_perc_control,2024.2.4,Win32,60.24096386,65cb7b14e78fc98ecd71d8de,68817205a84113384fffdfe3,68821e745d16b31dd9c1d2dc,,,,,,,,,,,,,,,,,,,,,,,,,,,11,,,,,,,,,,,,,,,,,,,,,,,,,,,,,,,,,,,,,,,,,,,,500.7334,503.6591,strongly disagree,0,10,10,10,1,It doesn't bother me too much if I am late meeting a friend.,1,0,0,1,,
,,,,,,,,,65cb7b14e78fc98ecd71d8de,Mexican,13 or older,"yes, I am fluent in another language",no,2025-07-24_07h53.06.294,empathy_intonation_perc_control,2024.2.4,Win32,60.24096386,65cb7b14e78fc98ecd71d8de,68817205a84113384fffdfe3,68821e745d16b31dd9c1d2dc,,,,,,,,,,,,,,,,,,,,,,,,,,,12,,,,,,,,,,,,,,,,,,,,,,,,,,,,,,,,,,,,,,,,,,,,503.6619,506.7642,slightly agree,0,11,11,11,1,"Friendships and relationships are just too difficult, so I tend not to 
  bother with them.",1,0,0,1,,
,,,,,,,,,65cb7b14e78fc98ecd71d8de,Mexican,13 or older,"yes, I am fluent in another language",no,2025-07-24_07h53.06.294,empathy_intonation_perc_control,2024.2.4,Win32,60.24096386,65cb7b14e78fc98ecd71d8de,68817205a84113384fffdfe3,68821e745d16b31dd9c1d2dc,,,,,,,,,,,,,,,,,,,,,,,,,,,13,,,,,,,,,,,,,,,,,,,,,,,,,,,,,,,,,,,,,,,,,,,,506.7673,508.5591,slightly agree,0,12,12,12,1,"I would never break a law, no matter how minor.",0,1,0,0,,
,,,,,,,,,65cb7b14e78fc98ecd71d8de,Mexican,13 or older,"yes, I am fluent in another language",no,2025-07-24_07h53.06.294,empathy_intonation_perc_control,2024.2.4,Win32,60.24096386,65cb7b14e78fc98ecd71d8de,68817205a84113384fffdfe3,68821e745d16b31dd9c1d2dc,,,,,,,,,,,,,,,,,,,,,,,,,,,14,,,,,,,,,,,,,,,,,,,,,,,,,,,,,,,,,,,,,,,,,,,,508.5613,511.7915,slightly disagree,0,13,13,13,1,I often find it difficult to judge if something is rude or polite.,1,0,0,1,,
,,,,,,,,,65cb7b14e78fc98ecd71d8de,Mexican,13 or older,"yes, I am fluent in another language",no,2025-07-24_07h53.06.294,empathy_intonation_perc_control,2024.2.4,Win32,60.24096386,65cb7b14e78fc98ecd71d8de,68817205a84113384fffdfe3,68821e745d16b31dd9c1d2dc,,,,,,,,,,,,,,,,,,,,,,,,,,,15,,,,,,,,,,,,,,,,,,,,,,,,,,,,,,,,,,,,,,,,,,,,511.7946,518.7527,slightly disagree,0,14,14,14,1,"In a conversation, I tend to focus on my own thoughts rather than on what 
  my listener might be thinking.",1,0,0,1,,
,,,,,,,,,65cb7b14e78fc98ecd71d8de,Mexican,13 or older,"yes, I am fluent in another language",no,2025-07-24_07h53.06.294,empathy_intonation_perc_control,2024.2.4,Win32,60.24096386,65cb7b14e78fc98ecd71d8de,68817205a84113384fffdfe3,68821e745d16b31dd9c1d2dc,,,,,,,,,,,,,,,,,,,,,,,,,,,16,,,,,,,,,,,,,,,,,,,,,,,,,,,,,,,,,,,,,,,,,,,,518.7555,521.321,slightly disagree,0,15,15,15,1,I prefer practical jokes to verbal humor.,0,1,0,0,,
,,,,,,,,,65cb7b14e78fc98ecd71d8de,Mexican,13 or older,"yes, I am fluent in another language",no,2025-07-24_07h53.06.294,empathy_intonation_perc_control,2024.2.4,Win32,60.24096386,65cb7b14e78fc98ecd71d8de,68817205a84113384fffdfe3,68821e745d16b31dd9c1d2dc,,,,,,,,,,,,,,,,,,,,,,,,,,,17,,,,,,,,,,,,,,,,,,,,,,,,,,,,,,,,,,,,,,,,,,,,521.3251,524.4428,slightly disagree,0,16,16,16,1,I live life for today rather than the future.,0,1,0,0,,
,,,,,,,,,65cb7b14e78fc98ecd71d8de,Mexican,13 or older,"yes, I am fluent in another language",no,2025-07-24_07h53.06.294,empathy_intonation_perc_control,2024.2.4,Win32,60.24096386,65cb7b14e78fc98ecd71d8de,68817205a84113384fffdfe3,68821e745d16b31dd9c1d2dc,,,,,,,,,,,,,,,,,,,,,,,,,,,18,,,,,,,,,,,,,,,,,,,,,,,,,,,,,,,,,,,,,,,,,,,,524.4452,526.7692,strongly disagree,0,17,17,17,1,"When I was a child, I enjoyed cutting up worms to see what would happen.",1,0,0,1,,
,,,,,,,,,65cb7b14e78fc98ecd71d8de,Mexican,13 or older,"yes, I am fluent in another language",no,2025-07-24_07h53.06.294,empathy_intonation_perc_control,2024.2.4,Win32,60.24096386,65cb7b14e78fc98ecd71d8de,68817205a84113384fffdfe3,68821e745d16b31dd9c1d2dc,,,,,,,,,,,,,,,,,,,,,,,,,,,19,,,,,,,,,,,,,,,,,,,,,,,,,,,,,,,,,,,,,,,,,,,,526.7755,530.7375,slightly disagree,0,18,18,18,1,I can pick up quickly if someone says one thing but means another.,1,0,1,0,,
,,,,,,,,,65cb7b14e78fc98ecd71d8de,Mexican,13 or older,"yes, I am fluent in another language",no,2025-07-24_07h53.06.294,empathy_intonation_perc_control,2024.2.4,Win32,60.24096386,65cb7b14e78fc98ecd71d8de,68817205a84113384fffdfe3,68821e745d16b31dd9c1d2dc,,,,,,,,,,,,,,,,,,,,,,,,,,,20,,,,,,,,,,,,,,,,,,,,,,,,,,,,,,,,,,,,,,,,,,,,530.7426,533.4724,slightly agree,0,19,19,19,1,I tend to have very strong opinions about morality.,0,1,0,0,,
