instructions_2afc.started,instructions_2afc.stopped,instructions_2afc_loop.thisRepN,instructions_2afc_loop.thisTrialN,instructions_2afc_loop.thisN,instructions_2afc_loop.thisIndex,instructions_2afc_loop.ran,instructions_text,continue_text,participant_id,"What variety of Spanish are you most familiar with? (e.g., Peruvian, Spanish, Mexican)",At what age did you begin learning Spanish?,Are you proficient in any languages other than English/Spanish?,"Are you familiar with Caribbean (e.g., Caribbean, Puerto Rican) or Galician Spanish?",date,expName,psychopyVersion,OS,frameRate,id,study_id,session,practice_2afc.started,practice_2afc.stopped,key_resp_2afc_practice.keys,key_resp_2afc_practice.corr,key_resp_2afc_practice.rt,key_resp_2afc_practice.duration,trials_2afc_practice_loop.thisRepN,trials_2afc_practice_loop.thisTrialN,trials_2afc_practice_loop.thisN,trials_2afc_practice_loop.thisIndex,trials_2afc_practice_loop.ran,path,correct_response,check_2afc.started,check_2afc.stopped,trial_2afc.started,trial_2afc.stopped,key_resp_2afc_trial.keys,key_resp_2afc_trial.corr,key_resp_2afc_trial.rt,key_resp_2afc_trial.duration,trials_2afc_loop.thisRepN,trials_2afc_loop.thisTrialN,trials_2afc_loop.thisN,trials_2afc_loop.thisIndex,trials_2afc_loop.ran,item_num,target,variety,instructions_lextale.started,instructions_lextale.stopped,instructions_lextale_loop.thisRepN,instructions_lextale_loop.thisTrialN,instructions_lextale_loop.thisN,instructions_lextale_loop.thisIndex,instructions_lextale_loop.ran,practice_lextale.started,practice_lextale.stopped,key_resp_lextale_practice.keys,key_resp_lextale_practice.corr,key_resp_lextale_practice.rt,key_resp_lextale_practice.duration,practice_feedback_lextale.started,practice_feedback_lextale.stopped,trials_lextale_practice_loop.thisRepN,trials_lextale_practice_loop.thisTrialN,trials_lextale_practice_loop.thisN,trials_lextale_practice_loop.thisIndex,trials_lextale_practice_loop.ran,stim,word,prac_button_real,prac_button_false,check_lextale.started,check_lextale.stopped,trial_lextale.started,trial_lextale.stopped,key_resp_lextale_trial.keys,key_resp_lextale_trial.corr,key_resp_lextale_trial.rt,key_resp_lextale_trial.duration,trials_lextale_loop.thisRepN,trials_lextale_loop.thisTrialN,trials_lextale_loop.thisN,trials_lextale_loop.thisIndex,trials_lextale_loop.ran,button_real,button_false,instructions_eq.started,instructions_eq.stopped,trial_eq.started,trial_eq.stopped,slider_eq_trial.response,trials_eq_loop.thisRepN,trials_eq_loop.thisTrialN,trials_eq_loop.thisN,trials_eq_loop.thisIndex,trials_eq_loop.ran,item,is_test_item,is_distractor,is_agree_score,is_disagree_score,end_exp.started,end_exp.stopped
0.022,8.532,0,0,0,0,1,"In the following task you are going to hear a series of utterances. 

  You will decide if the utterances sound like questions or not using your keyboard.", (press the spacebar to continue),66032bd297a2ab789c837bb2,Cuban/Spanish,younger than 13,"no, only English or Spanish",click here to respond,2025-07-24_00h10.29.300,empathy_intonation_perc_control,2024.2.4,Win32,59.52380952,66032bd297a2ab789c837bb2,68817205a84113384fffdfe3,6881b20fda55eb02d6897698,,,,,,,,,,,,,,,,,,,,,,,,,,,,,,,,,,,,,,,,,,,,,,,,,,,,,,,,,,,,,,,,,,,,,,,,,,,,,,,,,,,,,
8.535,20.466,0,1,1,1,1,"If you believe the utterance is a question, type '1' (for 'yes') and if you do not 
  believe it is a question type '0' (for 'no').

  Let's practice a bit...", (press the spacebar to continue),66032bd297a2ab789c837bb2,Cuban/Spanish,younger than 13,"no, only English or Spanish",click here to respond,2025-07-24_00h10.29.300,empathy_intonation_perc_control,2024.2.4,Win32,59.52380952,66032bd297a2ab789c837bb2,68817205a84113384fffdfe3,6881b20fda55eb02d6897698,,,,,,,,,,,,,,,,,,,,,,,,,,,,,,,,,,,,,,,,,,,,,,,,,,,,,,,,,,,,,,,,,,,,,,,,,,,,,,,,,,,,,
,,,,,,,,,66032bd297a2ab789c837bb2,Cuban/Spanish,younger than 13,"no, only English or Spanish",click here to respond,2025-07-24_00h10.29.300,empathy_intonation_perc_control,2024.2.4,Win32,59.52380952,66032bd297a2ab789c837bb2,68817205a84113384fffdfe3,6881b20fda55eb02d6897698,20.4829,23.2115,0,1,2.2104,,0,0,0,5,1,./stim/wavs/andalusian_statement_filler_Alberto-nunca-se-afeita.wav,0,,,,,,,,,,,,,,,,,,,,,,,,,,,,,,,,,,,,,,,,,,,,,,,,,,,,,,,,,,,,,,,,,,,,,,,,
,,,,,,,,,66032bd297a2ab789c837bb2,Cuban/Spanish,younger than 13,"no, only English or Spanish",click here to respond,2025-07-24_00h10.29.300,empathy_intonation_perc_control,2024.2.4,Win32,59.52380952,66032bd297a2ab789c837bb2,68817205a84113384fffdfe3,6881b20fda55eb02d6897698,23.2128,25.8946,1,1,2.1546,,0,1,1,3,1,./stim/wavs/mexican_question_filler_Felipe-no-tiene-contrasena.wav,1,,,,,,,,,,,,,,,,,,,,,,,,,,,,,,,,,,,,,,,,,,,,,,,,,,,,,,,,,,,,,,,,,,,,,,,,
,,,,,,,,,66032bd297a2ab789c837bb2,Cuban/Spanish,younger than 13,"no, only English or Spanish",click here to respond,2025-07-24_00h10.29.300,empathy_intonation_perc_control,2024.2.4,Win32,59.52380952,66032bd297a2ab789c837bb2,68817205a84113384fffdfe3,6881b20fda55eb02d6897698,25.8952,28.6112,0,1,2.1927,,0,2,2,6,1,./stim/wavs/peruvian_statement_filler_El-nino-habla-con-su-madre.wav,0,,,,,,,,,,,,,,,,,,,,,,,,,,,,,,,,,,,,,,,,,,,,,,,,,,,,,,,,,,,,,,,,,,,,,,,,
,,,,,,,,,66032bd297a2ab789c837bb2,Cuban/Spanish,younger than 13,"no, only English or Spanish",click here to respond,2025-07-24_00h10.29.300,empathy_intonation_perc_control,2024.2.4,Win32,59.52380952,66032bd297a2ab789c837bb2,68817205a84113384fffdfe3,6881b20fda55eb02d6897698,28.6117,30.6778,0,1,1.5423,,0,3,3,4,1,./stim/wavs/cuban_statement_filler_Cocinabas-por-la-noche.wav,0,,,,,,,,,,,,,,,,,,,,,,,,,,,,,,,,,,,,,,,,,,,,,,,,,,,,,,,,,,,,,,,,,,,,,,,,
,,,,,,,,,66032bd297a2ab789c837bb2,Cuban/Spanish,younger than 13,"no, only English or Spanish",click here to respond,2025-07-24_00h10.29.300,empathy_intonation_perc_control,2024.2.4,Win32,59.52380952,66032bd297a2ab789c837bb2,68817205a84113384fffdfe3,6881b20fda55eb02d6897698,30.6784,32.6944,1,1,1.4911,,0,4,4,1,1,./stim/wavs/argentine_question_filler_Mi-vecino-habla-mucho.wav,1,,,,,,,,,,,,,,,,,,,,,,,,,,,,,,,,,,,,,,,,,,,,,,,,,,,,,,,,,,,,,,,,,,,,,,,,
,,,,,,,,,66032bd297a2ab789c837bb2,Cuban/Spanish,younger than 13,"no, only English or Spanish",click here to respond,2025-07-24_00h10.29.300,empathy_intonation_perc_control,2024.2.4,Win32,59.52380952,66032bd297a2ab789c837bb2,68817205a84113384fffdfe3,6881b20fda55eb02d6897698,32.695,34.6445,1,1,1.4184,,0,5,5,2,1,./stim/wavs/chilean_question_filler_Mi-padre-cantaba-bien.wav,1,,,,,,,,,,,,,,,,,,,,,,,,,,,,,,,,,,,,,,,,,,,,,,,,,,,,,,,,,,,,,,,,,,,,,,,,
,,,,,,,,,66032bd297a2ab789c837bb2,Cuban/Spanish,younger than 13,"no, only English or Spanish",click here to respond,2025-07-24_00h10.29.300,empathy_intonation_perc_control,2024.2.4,Win32,59.52380952,66032bd297a2ab789c837bb2,68817205a84113384fffdfe3,6881b20fda55eb02d6897698,34.6452,37.0278,0,0,1.8543,,0,6,6,0,1,./stim/wavs/castilian_question_filler_Mi-esposo-conoce-al-chico.wav,1,,,,,,,,,,,,,,,,,,,,,,,,,,,,,,,,,,,,,,,,,,,,,,,,,,,,,,,,,,,,,,,,,,,,,,,,
,,,,,,,,,66032bd297a2ab789c837bb2,Cuban/Spanish,younger than 13,"no, only English or Spanish",click here to respond,2025-07-24_00h10.29.300,empathy_intonation_perc_control,2024.2.4,Win32,59.52380952,66032bd297a2ab789c837bb2,68817205a84113384fffdfe3,6881b20fda55eb02d6897698,37.0284,39.3276,0,1,1.768,,0,7,7,7,1,./stim/wavs/puertorican_statement_filler_La-nina-pinta-con-su-amiga.wav,0,,,,,,,,,,,,,,,,,,,,,,,,,,,,,,,,,,,,,,,,,,,,,,,,,,,,,,,,,,,,,,,,,,,,,,,,
,,,,,,,,,66032bd297a2ab789c837bb2,Cuban/Spanish,younger than 13,"no, only English or Spanish",click here to respond,2025-07-24_00h10.29.300,empathy_intonation_perc_control,2024.2.4,Win32,59.52380952,66032bd297a2ab789c837bb2,68817205a84113384fffdfe3,6881b20fda55eb02d6897698,,,,,,,,,,,,,,39.3279,43.6778,,,,,,,,,,,,,,,,,,,,,,,,,,,,,,,,,,,,,,,,,,,,,,,,,,,,,,,,,,,,,,,,,,,,,,
,,,,,,,,,66032bd297a2ab789c837bb2,Cuban/Spanish,younger than 13,"no, only English or Spanish",click here to respond,2025-07-24_00h10.29.300,empathy_intonation_perc_control,2024.2.4,Win32,59.52380952,66032bd297a2ab789c837bb2,68817205a84113384fffdfe3,6881b20fda55eb02d6897698,,,,,,,,,,,,./stim/wavs/castilian_match_interrogative-total-yn_Mariano-habla-del-tiempo.wav,1,,,43.6996,46.1444,1,1,1.9181,,0,0,0,4,1,5,0,castilian,,,,,,,,,,,,,,,,,,,,,,,,,,,,,,,,,,,,,,,,,,,,,,,,,,,,,,,,
,,,,,,,,,66032bd297a2ab789c837bb2,Cuban/Spanish,younger than 13,"no, only English or Spanish",click here to respond,2025-07-24_00h10.29.300,empathy_intonation_perc_control,2024.2.4,Win32,59.52380952,66032bd297a2ab789c837bb2,68817205a84113384fffdfe3,6881b20fda55eb02d6897698,,,,,,,,,,,,./stim/wavs/puertorican_match_declarative-broad-focus_Manuela-vende-el-carro.wav,0,,,46.1452,48.2776,0,1,1.6125,,0,1,1,66,1,67,0,puertorican,,,,,,,,,,,,,,,,,,,,,,,,,,,,,,,,,,,,,,,,,,,,,,,,,,,,,,,,
,,,,,,,,,66032bd297a2ab789c837bb2,Cuban/Spanish,younger than 13,"no, only English or Spanish",click here to respond,2025-07-24_00h10.29.300,empathy_intonation_perc_control,2024.2.4,Win32,59.52380952,66032bd297a2ab789c837bb2,68817205a84113384fffdfe3,6881b20fda55eb02d6897698,,,,,,,,,,,,./stim/wavs/castilian_match_declarative-broad-focus_Manuela-vende-el-carro.wav,0,,,48.2783,50.7775,0,1,1.972,,0,2,2,46,1,47,0,castilian,,,,,,,,,,,,,,,,,,,,,,,,,,,,,,,,,,,,,,,,,,,,,,,,,,,,,,,,
,,,,,,,,,66032bd297a2ab789c837bb2,Cuban/Spanish,younger than 13,"no, only English or Spanish",click here to respond,2025-07-24_00h10.29.300,empathy_intonation_perc_control,2024.2.4,Win32,59.52380952,66032bd297a2ab789c837bb2,68817205a84113384fffdfe3,6881b20fda55eb02d6897698,,,,,,,,,,,,./stim/wavs/cuban_match_declarative-broad-focus_Maria-bebe-el-vino.wav,0,,,50.7781,52.8107,0,1,1.5111,,0,3,3,53,1,54,0,cuban,,,,,,,,,,,,,,,,,,,,,,,,,,,,,,,,,,,,,,,,,,,,,,,,,,,,,,,,
,,,,,,,,,66032bd297a2ab789c837bb2,Cuban/Spanish,younger than 13,"no, only English or Spanish",click here to respond,2025-07-24_00h10.29.300,empathy_intonation_perc_control,2024.2.4,Win32,59.52380952,66032bd297a2ab789c837bb2,68817205a84113384fffdfe3,6881b20fda55eb02d6897698,,,,,,,,,,,,./stim/wavs/mexican_mismatch_interrogative-total-yn_Mi-novio-viene-del-lago.wav,1,,,52.8114,55.0108,1,1,1.6699,,0,4,4,37,1,38,0,mexican,,,,,,,,,,,,,,,,,,,,,,,,,,,,,,,,,,,,,,,,,,,,,,,,,,,,,,,,
,,,,,,,,,66032bd297a2ab789c837bb2,Cuban/Spanish,younger than 13,"no, only English or Spanish",click here to respond,2025-07-24_00h10.29.300,empathy_intonation_perc_control,2024.2.4,Win32,59.52380952,66032bd297a2ab789c837bb2,68817205a84113384fffdfe3,6881b20fda55eb02d6897698,,,,,,,,,,,,./stim/wavs/mexican_match_declarative-broad-focus_Emilio-ama-la-marcha.wav,0,,,55.0112,57.1774,0,1,1.6371,,0,5,5,59,1,60,0,mexican,,,,,,,,,,,,,,,,,,,,,,,,,,,,,,,,,,,,,,,,,,,,,,,,,,,,,,,,
,,,,,,,,,66032bd297a2ab789c837bb2,Cuban/Spanish,younger than 13,"no, only English or Spanish",click here to respond,2025-07-24_00h10.29.300,empathy_intonation_perc_control,2024.2.4,Win32,59.52380952,66032bd297a2ab789c837bb2,68817205a84113384fffdfe3,6881b20fda55eb02d6897698,,,,,,,,,,,,./stim/wavs/puertorican_mismatch_declarative-broad-focus_La-nina-lava-el-plato.wav,0,,,57.178,59.4106,0,1,1.7062,,0,6,6,87,1,88,0,puertorican,,,,,,,,,,,,,,,,,,,,,,,,,,,,,,,,,,,,,,,,,,,,,,,,,,,,,,,,
,,,,,,,,,66032bd297a2ab789c837bb2,Cuban/Spanish,younger than 13,"no, only English or Spanish",click here to respond,2025-07-24_00h10.29.300,empathy_intonation_perc_control,2024.2.4,Win32,59.52380952,66032bd297a2ab789c837bb2,68817205a84113384fffdfe3,6881b20fda55eb02d6897698,,,,,,,,,,,,./stim/wavs/cuban_match_declarative-broad-focus_Daniel-iba-a-Bolivia.wav,0,,,59.4112,61.6606,0,1,1.7163,,0,7,7,51,1,52,0,cuban,,,,,,,,,,,,,,,,,,,,,,,,,,,,,,,,,,,,,,,,,,,,,,,,,,,,,,,,
,,,,,,,,,66032bd297a2ab789c837bb2,Cuban/Spanish,younger than 13,"no, only English or Spanish",click here to respond,2025-07-24_00h10.29.300,empathy_intonation_perc_control,2024.2.4,Win32,59.52380952,66032bd297a2ab789c837bb2,68817205a84113384fffdfe3,6881b20fda55eb02d6897698,,,,,,,,,,,,./stim/wavs/mexican_match_interrogative-total-yn_Daniel-iba-a-Bolivia.wav,1,,,61.6614,63.8772,1,1,1.694,,0,8,8,13,1,14,0,mexican,,,,,,,,,,,,,,,,,,,,,,,,,,,,,,,,,,,,,,,,,,,,,,,,,,,,,,,,
,,,,,,,,,66032bd297a2ab789c837bb2,Cuban/Spanish,younger than 13,"no, only English or Spanish",click here to respond,2025-07-24_00h10.29.300,empathy_intonation_perc_control,2024.2.4,Win32,59.52380952,66032bd297a2ab789c837bb2,68817205a84113384fffdfe3,6881b20fda55eb02d6897698,,,,,,,,,,,,./stim/wavs/cuban_mismatch_interrogative-total-yn_Mi-tia-odia-la-lluvia.wav,1,,,63.878,66.3772,0,0,1.9771,,0,9,9,33,1,34,1,cuban,,,,,,,,,,,,,,,,,,,,,,,,,,,,,,,,,,,,,,,,,,,,,,,,,,,,,,,,
,,,,,,,,,66032bd297a2ab789c837bb2,Cuban/Spanish,younger than 13,"no, only English or Spanish",click here to respond,2025-07-24_00h10.29.300,empathy_intonation_perc_control,2024.2.4,Win32,59.52380952,66032bd297a2ab789c837bb2,68817205a84113384fffdfe3,6881b20fda55eb02d6897698,,,,,,,,,,,,./stim/wavs/puertorican_mismatch_interrogative-total-yn_El-hombre-mira-la-luna.wav,1,,,66.3779,68.9272,0,0,2.0167,,0,10,10,39,1,40,1,puertorican,,,,,,,,,,,,,,,,,,,,,,,,,,,,,,,,,,,,,,,,,,,,,,,,,,,,,,,,
,,,,,,,,,66032bd297a2ab789c837bb2,Cuban/Spanish,younger than 13,"no, only English or Spanish",click here to respond,2025-07-24_00h10.29.300,empathy_intonation_perc_control,2024.2.4,Win32,59.52380952,66032bd297a2ab789c837bb2,68817205a84113384fffdfe3,6881b20fda55eb02d6897698,,,,,,,,,,,,./stim/wavs/puertorican_mismatch_interrogative-total-yn_La-nina-lava-el-plato.wav,1,,,68.928,70.9103,0,0,1.4624,,0,11,11,42,1,43,1,puertorican,,,,,,,,,,,,,,,,,,,,,,,,,,,,,,,,,,,,,,,,,,,,,,,,,,,,,,,,
,,,,,,,,,66032bd297a2ab789c837bb2,Cuban/Spanish,younger than 13,"no, only English or Spanish",click here to respond,2025-07-24_00h10.29.300,empathy_intonation_perc_control,2024.2.4,Win32,59.52380952,66032bd297a2ab789c837bb2,68817205a84113384fffdfe3,6881b20fda55eb02d6897698,,,,,,,,,,,,./stim/wavs/puertorican_match_interrogative-total-yn_Ana-lleva-el-abrigo.wav,1,,,70.911,72.777,0,0,1.3367,,0,12,12,18,1,19,1,puertorican,,,,,,,,,,,,,,,,,,,,,,,,,,,,,,,,,,,,,,,,,,,,,,,,,,,,,,,,
,,,,,,,,,66032bd297a2ab789c837bb2,Cuban/Spanish,younger than 13,"no, only English or Spanish",click here to respond,2025-07-24_00h10.29.300,empathy_intonation_perc_control,2024.2.4,Win32,59.52380952,66032bd297a2ab789c837bb2,68817205a84113384fffdfe3,6881b20fda55eb02d6897698,,,,,,,,,,,,./stim/wavs/puertorican_mismatch_declarative-broad-focus_El-hombre-mira-la-luna.wav,0,,,72.7776,74.7435,0,1,1.4378,,0,13,13,84,1,85,0,puertorican,,,,,,,,,,,,,,,,,,,,,,,,,,,,,,,,,,,,,,,,,,,,,,,,,,,,,,,,
,,,,,,,,,66032bd297a2ab789c837bb2,Cuban/Spanish,younger than 13,"no, only English or Spanish",click here to respond,2025-07-24_00h10.29.300,empathy_intonation_perc_control,2024.2.4,Win32,59.52380952,66032bd297a2ab789c837bb2,68817205a84113384fffdfe3,6881b20fda55eb02d6897698,,,,,,,,,,,,./stim/wavs/cuban_mismatch_interrogative-total-yn_El-nino-oye-el-rio.wav,1,,,74.7441,76.7102,0,0,1.4465,,0,14,14,30,1,31,1,cuban,,,,,,,,,,,,,,,,,,,,,,,,,,,,,,,,,,,,,,,,,,,,,,,,,,,,,,,,
,,,,,,,,,66032bd297a2ab789c837bb2,Cuban/Spanish,younger than 13,"no, only English or Spanish",click here to respond,2025-07-24_00h10.29.300,empathy_intonation_perc_control,2024.2.4,Win32,59.52380952,66032bd297a2ab789c837bb2,68817205a84113384fffdfe3,6881b20fda55eb02d6897698,,,,,,,,,,,,./stim/wavs/puertorican_match_interrogative-total-yn_Daniel-iba-a-Bolivia.wav,1,,,76.7109,78.7602,0,0,1.5221,,0,15,15,19,1,20,1,puertorican,,,,,,,,,,,,,,,,,,,,,,,,,,,,,,,,,,,,,,,,,,,,,,,,,,,,,,,,
,,,,,,,,,66032bd297a2ab789c837bb2,Cuban/Spanish,younger than 13,"no, only English or Spanish",click here to respond,2025-07-24_00h10.29.300,empathy_intonation_perc_control,2024.2.4,Win32,59.52380952,66032bd297a2ab789c837bb2,68817205a84113384fffdfe3,6881b20fda55eb02d6897698,,,,,,,,,,,,./stim/wavs/mexican_mismatch_interrogative-total-yn_La-maestra-vive-en-Paris.wav,1,,,78.7608,80.9768,1,1,1.6946,,0,16,16,36,1,37,0,mexican,,,,,,,,,,,,,,,,,,,,,,,,,,,,,,,,,,,,,,,,,,,,,,,,,,,,,,,,
,,,,,,,,,66032bd297a2ab789c837bb2,Cuban/Spanish,younger than 13,"no, only English or Spanish",click here to respond,2025-07-24_00h10.29.300,empathy_intonation_perc_control,2024.2.4,Win32,59.52380952,66032bd297a2ab789c837bb2,68817205a84113384fffdfe3,6881b20fda55eb02d6897698,,,,,,,,,,,,./stim/wavs/mexican_match_interrogative-total-yn_Mariano-habla-del-tiempo.wav,1,,,80.9778,83.2101,1,1,1.7018,,0,17,17,16,1,17,0,mexican,,,,,,,,,,,,,,,,,,,,,,,,,,,,,,,,,,,,,,,,,,,,,,,,,,,,,,,,
,,,,,,,,,66032bd297a2ab789c837bb2,Cuban/Spanish,younger than 13,"no, only English or Spanish",click here to respond,2025-07-24_00h10.29.300,empathy_intonation_perc_control,2024.2.4,Win32,59.52380952,66032bd297a2ab789c837bb2,68817205a84113384fffdfe3,6881b20fda55eb02d6897698,,,,,,,,,,,,./stim/wavs/castilian_mismatch_declarative-broad-focus_El-nino-oye-el-rio.wav,0,,,83.2106,85.4768,0,1,1.7341,,0,18,18,68,1,69,0,castilian,,,,,,,,,,,,,,,,,,,,,,,,,,,,,,,,,,,,,,,,,,,,,,,,,,,,,,,,
,,,,,,,,,66032bd297a2ab789c837bb2,Cuban/Spanish,younger than 13,"no, only English or Spanish",click here to respond,2025-07-24_00h10.29.300,empathy_intonation_perc_control,2024.2.4,Win32,59.52380952,66032bd297a2ab789c837bb2,68817205a84113384fffdfe3,6881b20fda55eb02d6897698,,,,,,,,,,,,./stim/wavs/mexican_match_declarative-broad-focus_Ana-lleva-el-abrigo.wav,0,,,85.4776,87.3267,0,1,1.3207,,0,19,19,56,1,57,0,mexican,,,,,,,,,,,,,,,,,,,,,,,,,,,,,,,,,,,,,,,,,,,,,,,,,,,,,,,,
,,,,,,,,,66032bd297a2ab789c837bb2,Cuban/Spanish,younger than 13,"no, only English or Spanish",click here to respond,2025-07-24_00h10.29.300,empathy_intonation_perc_control,2024.2.4,Win32,59.52380952,66032bd297a2ab789c837bb2,68817205a84113384fffdfe3,6881b20fda55eb02d6897698,,,,,,,,,,,,./stim/wavs/puertorican_mismatch_declarative-broad-focus_El-bebe-comia-muy-bien.wav,0,,,87.3275,89.3766,0,1,1.5237,,0,20,20,83,1,84,0,puertorican,,,,,,,,,,,,,,,,,,,,,,,,,,,,,,,,,,,,,,,,,,,,,,,,,,,,,,,,
,,,,,,,,,66032bd297a2ab789c837bb2,Cuban/Spanish,younger than 13,"no, only English or Spanish",click here to respond,2025-07-24_00h10.29.300,empathy_intonation_perc_control,2024.2.4,Win32,59.52380952,66032bd297a2ab789c837bb2,68817205a84113384fffdfe3,6881b20fda55eb02d6897698,,,,,,,,,,,,./stim/wavs/puertorican_match_declarative-broad-focus_David-leia-el-libro.wav,0,,,89.3774,91.3933,0,1,1.484,,0,21,21,64,1,65,0,puertorican,,,,,,,,,,,,,,,,,,,,,,,,,,,,,,,,,,,,,,,,,,,,,,,,,,,,,,,,
,,,,,,,,,66032bd297a2ab789c837bb2,Cuban/Spanish,younger than 13,"no, only English or Spanish",click here to respond,2025-07-24_00h10.29.300,empathy_intonation_perc_control,2024.2.4,Win32,59.52380952,66032bd297a2ab789c837bb2,68817205a84113384fffdfe3,6881b20fda55eb02d6897698,,,,,,,,,,,,./stim/wavs/puertorican_match_declarative-broad-focus_Emilio-ama-la-marcha.wav,0,,,91.3939,93.4432,0,1,1.5209,,0,22,22,65,1,66,0,puertorican,,,,,,,,,,,,,,,,,,,,,,,,,,,,,,,,,,,,,,,,,,,,,,,,,,,,,,,,
,,,,,,,,,66032bd297a2ab789c837bb2,Cuban/Spanish,younger than 13,"no, only English or Spanish",click here to respond,2025-07-24_00h10.29.300,empathy_intonation_perc_control,2024.2.4,Win32,59.52380952,66032bd297a2ab789c837bb2,68817205a84113384fffdfe3,6881b20fda55eb02d6897698,,,,,,,,,,,,./stim/wavs/cuban_match_interrogative-total-yn_Maria-bebe-el-vino.wav,1,,,93.4437,95.6099,0,0,1.6365,,0,23,23,9,1,10,1,cuban,,,,,,,,,,,,,,,,,,,,,,,,,,,,,,,,,,,,,,,,,,,,,,,,,,,,,,,,
,,,,,,,,,66032bd297a2ab789c837bb2,Cuban/Spanish,younger than 13,"no, only English or Spanish",click here to respond,2025-07-24_00h10.29.300,empathy_intonation_perc_control,2024.2.4,Win32,59.52380952,66032bd297a2ab789c837bb2,68817205a84113384fffdfe3,6881b20fda55eb02d6897698,,,,,,,,,,,,./stim/wavs/mexican_match_declarative-broad-focus_Mariano-habla-del-tiempo.wav,0,,,95.6104,97.7431,0,1,1.61,,0,24,24,60,1,61,0,mexican,,,,,,,,,,,,,,,,,,,,,,,,,,,,,,,,,,,,,,,,,,,,,,,,,,,,,,,,
,,,,,,,,,66032bd297a2ab789c837bb2,Cuban/Spanish,younger than 13,"no, only English or Spanish",click here to respond,2025-07-24_00h10.29.300,empathy_intonation_perc_control,2024.2.4,Win32,59.52380952,66032bd297a2ab789c837bb2,68817205a84113384fffdfe3,6881b20fda55eb02d6897698,,,,,,,,,,,,./stim/wavs/puertorican_match_interrogative-total-yn_Manuela-vende-el-carro.wav,1,,,97.7437,99.993,0,0,1.7227,,0,25,25,22,1,23,1,puertorican,,,,,,,,,,,,,,,,,,,,,,,,,,,,,,,,,,,,,,,,,,,,,,,,,,,,,,,,
,,,,,,,,,66032bd297a2ab789c837bb2,Cuban/Spanish,younger than 13,"no, only English or Spanish",click here to respond,2025-07-24_00h10.29.300,empathy_intonation_perc_control,2024.2.4,Win32,59.52380952,66032bd297a2ab789c837bb2,68817205a84113384fffdfe3,6881b20fda55eb02d6897698,,,,,,,,,,,,./stim/wavs/cuban_match_interrogative-total-yn_Ana-lleva-el-abrigo.wav,1,,,99.9937,101.9598,0,0,1.4424,,0,26,26,6,1,7,1,cuban,,,,,,,,,,,,,,,,,,,,,,,,,,,,,,,,,,,,,,,,,,,,,,,,,,,,,,,,
,,,,,,,,,66032bd297a2ab789c837bb2,Cuban/Spanish,younger than 13,"no, only English or Spanish",click here to respond,2025-07-24_00h10.29.300,empathy_intonation_perc_control,2024.2.4,Win32,59.52380952,66032bd297a2ab789c837bb2,68817205a84113384fffdfe3,6881b20fda55eb02d6897698,,,,,,,,,,,,./stim/wavs/puertorican_match_interrogative-total-yn_Maria-bebe-el-vino.wav,1,,,101.9605,103.993,0,0,1.4999,,0,27,27,23,1,24,1,puertorican,,,,,,,,,,,,,,,,,,,,,,,,,,,,,,,,,,,,,,,,,,,,,,,,,,,,,,,,
,,,,,,,,,66032bd297a2ab789c837bb2,Cuban/Spanish,younger than 13,"no, only English or Spanish",click here to respond,2025-07-24_00h10.29.300,empathy_intonation_perc_control,2024.2.4,Win32,59.52380952,66032bd297a2ab789c837bb2,68817205a84113384fffdfe3,6881b20fda55eb02d6897698,,,,,,,,,,,,./stim/wavs/cuban_mismatch_declarative-broad-focus_El-hombre-mira-la-luna.wav,0,,,103.9935,105.993,0,1,1.4679,,0,28,28,74,1,75,0,cuban,,,,,,,,,,,,,,,,,,,,,,,,,,,,,,,,,,,,,,,,,,,,,,,,,,,,,,,,
,,,,,,,,,66032bd297a2ab789c837bb2,Cuban/Spanish,younger than 13,"no, only English or Spanish",click here to respond,2025-07-24_00h10.29.300,empathy_intonation_perc_control,2024.2.4,Win32,59.52380952,66032bd297a2ab789c837bb2,68817205a84113384fffdfe3,6881b20fda55eb02d6897698,,,,,,,,,,,,./stim/wavs/castilian_match_interrogative-total-yn_Manuela-vende-el-carro.wav,1,,,105.9936,108.1763,1,1,1.6578,,0,29,29,2,1,3,0,castilian,,,,,,,,,,,,,,,,,,,,,,,,,,,,,,,,,,,,,,,,,,,,,,,,,,,,,,,,
,,,,,,,,,66032bd297a2ab789c837bb2,Cuban/Spanish,younger than 13,"no, only English or Spanish",click here to respond,2025-07-24_00h10.29.300,empathy_intonation_perc_control,2024.2.4,Win32,59.52380952,66032bd297a2ab789c837bb2,68817205a84113384fffdfe3,6881b20fda55eb02d6897698,,,,,,,,,,,,./stim/wavs/mexican_match_interrogative-total-yn_Ana-lleva-el-abrigo.wav,1,,,108.177,110.1096,1,1,1.4123,,0,30,30,12,1,13,0,mexican,,,,,,,,,,,,,,,,,,,,,,,,,,,,,,,,,,,,,,,,,,,,,,,,,,,,,,,,
,,,,,,,,,66032bd297a2ab789c837bb2,Cuban/Spanish,younger than 13,"no, only English or Spanish",click here to respond,2025-07-24_00h10.29.300,empathy_intonation_perc_control,2024.2.4,Win32,59.52380952,66032bd297a2ab789c837bb2,68817205a84113384fffdfe3,6881b20fda55eb02d6897698,,,,,,,,,,,,./stim/wavs/mexican_mismatch_interrogative-total-yn_El-nino-oye-el-rio.wav,1,,,110.1102,112.0928,1,1,1.4589,,0,31,31,35,1,36,0,mexican,,,,,,,,,,,,,,,,,,,,,,,,,,,,,,,,,,,,,,,,,,,,,,,,,,,,,,,,
,,,,,,,,,66032bd297a2ab789c837bb2,Cuban/Spanish,younger than 13,"no, only English or Spanish",click here to respond,2025-07-24_00h10.29.300,empathy_intonation_perc_control,2024.2.4,Win32,59.52380952,66032bd297a2ab789c837bb2,68817205a84113384fffdfe3,6881b20fda55eb02d6897698,,,,,,,,,,,,./stim/wavs/puertorican_mismatch_interrogative-total-yn_La-maestra-vive-en-Paris.wav,1,,,112.0934,114.3762,0,0,1.7502,,0,32,32,41,1,42,1,puertorican,,,,,,,,,,,,,,,,,,,,,,,,,,,,,,,,,,,,,,,,,,,,,,,,,,,,,,,,
,,,,,,,,,66032bd297a2ab789c837bb2,Cuban/Spanish,younger than 13,"no, only English or Spanish",click here to respond,2025-07-24_00h10.29.300,empathy_intonation_perc_control,2024.2.4,Win32,59.52380952,66032bd297a2ab789c837bb2,68817205a84113384fffdfe3,6881b20fda55eb02d6897698,,,,,,,,,,,,./stim/wavs/cuban_match_interrogative-total-yn_Manuela-vende-el-carro.wav,1,,,114.377,116.4262,0,0,1.5188,,0,33,33,8,1,9,1,cuban,,,,,,,,,,,,,,,,,,,,,,,,,,,,,,,,,,,,,,,,,,,,,,,,,,,,,,,,
,,,,,,,,,66032bd297a2ab789c837bb2,Cuban/Spanish,younger than 13,"no, only English or Spanish",click here to respond,2025-07-24_00h10.29.300,empathy_intonation_perc_control,2024.2.4,Win32,59.52380952,66032bd297a2ab789c837bb2,68817205a84113384fffdfe3,6881b20fda55eb02d6897698,,,,,,,,,,,,./stim/wavs/mexican_match_declarative-broad-focus_David-leia-el-libro.wav,0,,,116.4269,118.4094,0,1,1.453,,0,34,34,58,1,59,0,mexican,,,,,,,,,,,,,,,,,,,,,,,,,,,,,,,,,,,,,,,,,,,,,,,,,,,,,,,,
,,,,,,,,,66032bd297a2ab789c837bb2,Cuban/Spanish,younger than 13,"no, only English or Spanish",click here to respond,2025-07-24_00h10.29.300,empathy_intonation_perc_control,2024.2.4,Win32,59.52380952,66032bd297a2ab789c837bb2,68817205a84113384fffdfe3,6881b20fda55eb02d6897698,,,,,,,,,,,,./stim/wavs/mexican_match_interrogative-total-yn_Emilio-ama-la-marcha.wav,1,,,118.41,120.4762,1,1,1.5381,,0,35,35,15,1,16,0,mexican,,,,,,,,,,,,,,,,,,,,,,,,,,,,,,,,,,,,,,,,,,,,,,,,,,,,,,,,
,,,,,,,,,66032bd297a2ab789c837bb2,Cuban/Spanish,younger than 13,"no, only English or Spanish",click here to respond,2025-07-24_00h10.29.300,empathy_intonation_perc_control,2024.2.4,Win32,59.52380952,66032bd297a2ab789c837bb2,68817205a84113384fffdfe3,6881b20fda55eb02d6897698,,,,,,,,,,,,./stim/wavs/puertorican_match_declarative-broad-focus_Ana-lleva-el-abrigo.wav,0,,,120.4768,122.3594,0,1,1.3503,,0,36,36,62,1,63,0,puertorican,,,,,,,,,,,,,,,,,,,,,,,,,,,,,,,,,,,,,,,,,,,,,,,,,,,,,,,,
,,,,,,,,,66032bd297a2ab789c837bb2,Cuban/Spanish,younger than 13,"no, only English or Spanish",click here to respond,2025-07-24_00h10.29.300,empathy_intonation_perc_control,2024.2.4,Win32,59.52380952,66032bd297a2ab789c837bb2,68817205a84113384fffdfe3,6881b20fda55eb02d6897698,,,,,,,,,,,,./stim/wavs/puertorican_mismatch_interrogative-total-yn_Mi-madre-come-la-fruta.wav,1,,,122.36,124.5426,0,0,1.6521,,0,37,37,43,1,44,1,puertorican,,,,,,,,,,,,,,,,,,,,,,,,,,,,,,,,,,,,,,,,,,,,,,,,,,,,,,,,
,,,,,,,,,66032bd297a2ab789c837bb2,Cuban/Spanish,younger than 13,"no, only English or Spanish",click here to respond,2025-07-24_00h10.29.300,empathy_intonation_perc_control,2024.2.4,Win32,59.52380952,66032bd297a2ab789c837bb2,68817205a84113384fffdfe3,6881b20fda55eb02d6897698,,,,,,,,,,,,./stim/wavs/castilian_match_interrogative-total-yn_Maria-bebe-el-vino.wav,1,,,124.5431,126.4925,1,1,1.4289,,0,38,38,3,1,4,0,castilian,,,,,,,,,,,,,,,,,,,,,,,,,,,,,,,,,,,,,,,,,,,,,,,,,,,,,,,,
,,,,,,,,,66032bd297a2ab789c837bb2,Cuban/Spanish,younger than 13,"no, only English or Spanish",click here to respond,2025-07-24_00h10.29.300,empathy_intonation_perc_control,2024.2.4,Win32,59.52380952,66032bd297a2ab789c837bb2,68817205a84113384fffdfe3,6881b20fda55eb02d6897698,,,,,,,,,,,,./stim/wavs/cuban_match_declarative-broad-focus_Ana-lleva-el-abrigo.wav,0,,,126.4932,128.5094,0,1,1.4899,,0,39,39,50,1,51,0,cuban,,,,,,,,,,,,,,,,,,,,,,,,,,,,,,,,,,,,,,,,,,,,,,,,,,,,,,,,
,,,,,,,,,66032bd297a2ab789c837bb2,Cuban/Spanish,younger than 13,"no, only English or Spanish",click here to respond,2025-07-24_00h10.29.300,empathy_intonation_perc_control,2024.2.4,Win32,59.52380952,66032bd297a2ab789c837bb2,68817205a84113384fffdfe3,6881b20fda55eb02d6897698,,,,,,,,,,,,./stim/wavs/castilian_match_interrogative-total-yn_Marta-abre-el-regalo.wav,1,,,128.5099,130.6924,1,1,1.6592,,0,40,40,5,1,6,0,castilian,,,,,,,,,,,,,,,,,,,,,,,,,,,,,,,,,,,,,,,,,,,,,,,,,,,,,,,,
,,,,,,,,,66032bd297a2ab789c837bb2,Cuban/Spanish,younger than 13,"no, only English or Spanish",click here to respond,2025-07-24_00h10.29.300,empathy_intonation_perc_control,2024.2.4,Win32,59.52380952,66032bd297a2ab789c837bb2,68817205a84113384fffdfe3,6881b20fda55eb02d6897698,,,,,,,,,,,,./stim/wavs/puertorican_mismatch_interrogative-total-yn_El-nino-oye-el-rio.wav,1,,,130.693,132.6592,0,0,1.4449,,0,41,41,40,1,41,1,puertorican,,,,,,,,,,,,,,,,,,,,,,,,,,,,,,,,,,,,,,,,,,,,,,,,,,,,,,,,
,,,,,,,,,66032bd297a2ab789c837bb2,Cuban/Spanish,younger than 13,"no, only English or Spanish",click here to respond,2025-07-24_00h10.29.300,empathy_intonation_perc_control,2024.2.4,Win32,59.52380952,66032bd297a2ab789c837bb2,68817205a84113384fffdfe3,6881b20fda55eb02d6897698,,,,,,,,,,,,./stim/wavs/castilian_mismatch_interrogative-total-yn_La-maestra-vive-en-Paris.wav,1,,,132.6598,135.0425,1,1,1.85,,0,42,42,24,1,25,0,castilian,,,,,,,,,,,,,,,,,,,,,,,,,,,,,,,,,,,,,,,,,,,,,,,,,,,,,,,,
,,,,,,,,,66032bd297a2ab789c837bb2,Cuban/Spanish,younger than 13,"no, only English or Spanish",click here to respond,2025-07-24_00h10.29.300,empathy_intonation_perc_control,2024.2.4,Win32,59.52380952,66032bd297a2ab789c837bb2,68817205a84113384fffdfe3,6881b20fda55eb02d6897698,,,,,,,,,,,,./stim/wavs/castilian_mismatch_declarative-broad-focus_La-nina-lava-el-plato.wav,0,,,135.0431,137.409,0,1,1.8398,,0,43,43,70,1,71,0,castilian,,,,,,,,,,,,,,,,,,,,,,,,,,,,,,,,,,,,,,,,,,,,,,,,,,,,,,,,
,,,,,,,,,66032bd297a2ab789c837bb2,Cuban/Spanish,younger than 13,"no, only English or Spanish",click here to respond,2025-07-24_00h10.29.300,empathy_intonation_perc_control,2024.2.4,Win32,59.52380952,66032bd297a2ab789c837bb2,68817205a84113384fffdfe3,6881b20fda55eb02d6897698,,,,,,,,,,,,./stim/wavs/puertorican_mismatch_declarative-broad-focus_La-maestra-vive-en-Paris.wav,0,,,137.4096,139.5258,0,1,1.5911,,0,44,44,86,1,87,0,puertorican,,,,,,,,,,,,,,,,,,,,,,,,,,,,,,,,,,,,,,,,,,,,,,,,,,,,,,,,
,,,,,,,,,66032bd297a2ab789c837bb2,Cuban/Spanish,younger than 13,"no, only English or Spanish",click here to respond,2025-07-24_00h10.29.300,empathy_intonation_perc_control,2024.2.4,Win32,59.52380952,66032bd297a2ab789c837bb2,68817205a84113384fffdfe3,6881b20fda55eb02d6897698,,,,,,,,,,,,./stim/wavs/castilian_mismatch_interrogative-total-yn_Mi-tia-odia-la-lluvia.wav,1,,,139.5264,141.6423,1,1,1.5942,,0,45,45,28,1,29,0,castilian,,,,,,,,,,,,,,,,,,,,,,,,,,,,,,,,,,,,,,,,,,,,,,,,,,,,,,,,
,,,,,,,,,66032bd297a2ab789c837bb2,Cuban/Spanish,younger than 13,"no, only English or Spanish",click here to respond,2025-07-24_00h10.29.300,empathy_intonation_perc_control,2024.2.4,Win32,59.52380952,66032bd297a2ab789c837bb2,68817205a84113384fffdfe3,6881b20fda55eb02d6897698,,,,,,,,,,,,./stim/wavs/mexican_match_declarative-broad-focus_Marta-abre-el-regalo.wav,0,,,141.6428,143.5923,0,1,1.4189,,0,46,46,61,1,62,0,mexican,,,,,,,,,,,,,,,,,,,,,,,,,,,,,,,,,,,,,,,,,,,,,,,,,,,,,,,,
,,,,,,,,,66032bd297a2ab789c837bb2,Cuban/Spanish,younger than 13,"no, only English or Spanish",click here to respond,2025-07-24_00h10.29.300,empathy_intonation_perc_control,2024.2.4,Win32,59.52380952,66032bd297a2ab789c837bb2,68817205a84113384fffdfe3,6881b20fda55eb02d6897698,,,,,,,,,,,,./stim/wavs/puertorican_match_declarative-broad-focus_Maria-bebe-el-vino.wav,0,,,143.5932,145.7923,1,0,1.6691,,0,47,47,67,1,68,0,puertorican,,,,,,,,,,,,,,,,,,,,,,,,,,,,,,,,,,,,,,,,,,,,,,,,,,,,,,,,
,,,,,,,,,66032bd297a2ab789c837bb2,Cuban/Spanish,younger than 13,"no, only English or Spanish",click here to respond,2025-07-24_00h10.29.300,empathy_intonation_perc_control,2024.2.4,Win32,59.52380952,66032bd297a2ab789c837bb2,68817205a84113384fffdfe3,6881b20fda55eb02d6897698,,,,,,,,,,,,./stim/wavs/castilian_mismatch_declarative-broad-focus_Mi-tia-odia-la-lluvia.wav,0,,,145.7929,147.9756,0,1,1.659,,0,48,48,72,1,73,0,castilian,,,,,,,,,,,,,,,,,,,,,,,,,,,,,,,,,,,,,,,,,,,,,,,,,,,,,,,,
,,,,,,,,,66032bd297a2ab789c837bb2,Cuban/Spanish,younger than 13,"no, only English or Spanish",click here to respond,2025-07-24_00h10.29.300,empathy_intonation_perc_control,2024.2.4,Win32,59.52380952,66032bd297a2ab789c837bb2,68817205a84113384fffdfe3,6881b20fda55eb02d6897698,,,,,,,,,,,,./stim/wavs/cuban_match_declarative-broad-focus_Marta-abre-el-regalo.wav,0,,,147.9764,150.1422,0,1,1.6369,,0,49,49,55,1,56,0,cuban,,,,,,,,,,,,,,,,,,,,,,,,,,,,,,,,,,,,,,,,,,,,,,,,,,,,,,,,
,,,,,,,,,66032bd297a2ab789c837bb2,Cuban/Spanish,younger than 13,"no, only English or Spanish",click here to respond,2025-07-24_00h10.29.300,empathy_intonation_perc_control,2024.2.4,Win32,59.52380952,66032bd297a2ab789c837bb2,68817205a84113384fffdfe3,6881b20fda55eb02d6897698,,,,,,,,,,,,./stim/wavs/castilian_mismatch_interrogative-total-yn_Mi-novio-viene-del-lago.wav,1,,,150.1427,152.3922,1,1,1.7185,,0,50,50,27,1,28,0,castilian,,,,,,,,,,,,,,,,,,,,,,,,,,,,,,,,,,,,,,,,,,,,,,,,,,,,,,,,
,,,,,,,,,66032bd297a2ab789c837bb2,Cuban/Spanish,younger than 13,"no, only English or Spanish",click here to respond,2025-07-24_00h10.29.300,empathy_intonation_perc_control,2024.2.4,Win32,59.52380952,66032bd297a2ab789c837bb2,68817205a84113384fffdfe3,6881b20fda55eb02d6897698,,,,,,,,,,,,./stim/wavs/mexican_mismatch_declarative-broad-focus_La-maestra-vive-en-Paris.wav,0,,,152.3927,154.4922,0,1,1.5712,,0,51,51,80,1,81,0,mexican,,,,,,,,,,,,,,,,,,,,,,,,,,,,,,,,,,,,,,,,,,,,,,,,,,,,,,,,
,,,,,,,,,66032bd297a2ab789c837bb2,Cuban/Spanish,younger than 13,"no, only English or Spanish",click here to respond,2025-07-24_00h10.29.300,empathy_intonation_perc_control,2024.2.4,Win32,59.52380952,66032bd297a2ab789c837bb2,68817205a84113384fffdfe3,6881b20fda55eb02d6897698,,,,,,,,,,,,./stim/wavs/puertorican_match_interrogative-total-yn_David-leia-el-libro.wav,1,,,154.4926,156.4753,0,0,1.46,,0,52,52,20,1,21,1,puertorican,,,,,,,,,,,,,,,,,,,,,,,,,,,,,,,,,,,,,,,,,,,,,,,,,,,,,,,,
,,,,,,,,,66032bd297a2ab789c837bb2,Cuban/Spanish,younger than 13,"no, only English or Spanish",click here to respond,2025-07-24_00h10.29.300,empathy_intonation_perc_control,2024.2.4,Win32,59.52380952,66032bd297a2ab789c837bb2,68817205a84113384fffdfe3,6881b20fda55eb02d6897698,,,,,,,,,,,,./stim/wavs/cuban_mismatch_declarative-broad-focus_Mi-tia-odia-la-lluvia.wav,0,,,156.4759,158.7421,0,1,1.7414,,0,53,53,77,1,78,0,cuban,,,,,,,,,,,,,,,,,,,,,,,,,,,,,,,,,,,,,,,,,,,,,,,,,,,,,,,,
,,,,,,,,,66032bd297a2ab789c837bb2,Cuban/Spanish,younger than 13,"no, only English or Spanish",click here to respond,2025-07-24_00h10.29.300,empathy_intonation_perc_control,2024.2.4,Win32,59.52380952,66032bd297a2ab789c837bb2,68817205a84113384fffdfe3,6881b20fda55eb02d6897698,,,,,,,,,,,,./stim/wavs/cuban_mismatch_declarative-broad-focus_La-nina-lava-el-plato.wav,0,,,158.7426,160.7752,0,1,1.51,,0,54,54,75,1,76,0,cuban,,,,,,,,,,,,,,,,,,,,,,,,,,,,,,,,,,,,,,,,,,,,,,,,,,,,,,,,
,,,,,,,,,66032bd297a2ab789c837bb2,Cuban/Spanish,younger than 13,"no, only English or Spanish",click here to respond,2025-07-24_00h10.29.300,empathy_intonation_perc_control,2024.2.4,Win32,59.52380952,66032bd297a2ab789c837bb2,68817205a84113384fffdfe3,6881b20fda55eb02d6897698,,,,,,,,,,,,./stim/wavs/cuban_mismatch_declarative-broad-focus_Mi-novio-viene-del-lago.wav,0,,,160.7759,162.8584,0,1,1.5551,,0,55,55,76,1,77,0,cuban,,,,,,,,,,,,,,,,,,,,,,,,,,,,,,,,,,,,,,,,,,,,,,,,,,,,,,,,
,,,,,,,,,66032bd297a2ab789c837bb2,Cuban/Spanish,younger than 13,"no, only English or Spanish",click here to respond,2025-07-24_00h10.29.300,empathy_intonation_perc_control,2024.2.4,Win32,59.52380952,66032bd297a2ab789c837bb2,68817205a84113384fffdfe3,6881b20fda55eb02d6897698,,,,,,,,,,,,./stim/wavs/castilian_match_declarative-broad-focus_David-leia-el-libro.wav,0,,,162.859,165.1418,0,1,1.7578,,0,56,56,44,1,45,0,castilian,,,,,,,,,,,,,,,,,,,,,,,,,,,,,,,,,,,,,,,,,,,,,,,,,,,,,,,,
,,,,,,,,,66032bd297a2ab789c837bb2,Cuban/Spanish,younger than 13,"no, only English or Spanish",click here to respond,2025-07-24_00h10.29.300,empathy_intonation_perc_control,2024.2.4,Win32,59.52380952,66032bd297a2ab789c837bb2,68817205a84113384fffdfe3,6881b20fda55eb02d6897698,,,,,,,,,,,,./stim/wavs/puertorican_mismatch_declarative-broad-focus_El-nino-oye-el-rio.wav,0,,,165.1423,167.0585,0,1,1.3853,,0,57,57,85,1,86,0,puertorican,,,,,,,,,,,,,,,,,,,,,,,,,,,,,,,,,,,,,,,,,,,,,,,,,,,,,,,,
,,,,,,,,,66032bd297a2ab789c837bb2,Cuban/Spanish,younger than 13,"no, only English or Spanish",click here to respond,2025-07-24_00h10.29.300,empathy_intonation_perc_control,2024.2.4,Win32,59.52380952,66032bd297a2ab789c837bb2,68817205a84113384fffdfe3,6881b20fda55eb02d6897698,,,,,,,,,,,,./stim/wavs/castilian_match_declarative-broad-focus_Mariano-habla-del-tiempo.wav,0,,,167.0591,169.5418,0,1,1.9504,,0,58,58,48,1,49,0,castilian,,,,,,,,,,,,,,,,,,,,,,,,,,,,,,,,,,,,,,,,,,,,,,,,,,,,,,,,
,,,,,,,,,66032bd297a2ab789c837bb2,Cuban/Spanish,younger than 13,"no, only English or Spanish",click here to respond,2025-07-24_00h10.29.300,empathy_intonation_perc_control,2024.2.4,Win32,59.52380952,66032bd297a2ab789c837bb2,68817205a84113384fffdfe3,6881b20fda55eb02d6897698,,,,,,,,,,,,./stim/wavs/mexican_match_interrogative-total-yn_Marta-abre-el-regalo.wav,1,,,169.5425,171.4751,1,1,1.4086,,0,59,59,17,1,18,0,mexican,,,,,,,,,,,,,,,,,,,,,,,,,,,,,,,,,,,,,,,,,,,,,,,,,,,,,,,,
,,,,,,,,,66032bd297a2ab789c837bb2,Cuban/Spanish,younger than 13,"no, only English or Spanish",click here to respond,2025-07-24_00h10.29.300,empathy_intonation_perc_control,2024.2.4,Win32,59.52380952,66032bd297a2ab789c837bb2,68817205a84113384fffdfe3,6881b20fda55eb02d6897698,,,,,,,,,,,,./stim/wavs/puertorican_match_declarative-broad-focus_Daniel-iba-a-Bolivia.wav,0,,,171.4755,173.4417,0,1,1.4399,,0,60,60,63,1,64,0,puertorican,,,,,,,,,,,,,,,,,,,,,,,,,,,,,,,,,,,,,,,,,,,,,,,,,,,,,,,,
,,,,,,,,,66032bd297a2ab789c837bb2,Cuban/Spanish,younger than 13,"no, only English or Spanish",click here to respond,2025-07-24_00h10.29.300,empathy_intonation_perc_control,2024.2.4,Win32,59.52380952,66032bd297a2ab789c837bb2,68817205a84113384fffdfe3,6881b20fda55eb02d6897698,,,,,,,,,,,,./stim/wavs/cuban_match_interrogative-total-yn_Daniel-iba-a-Bolivia.wav,1,,,173.4422,175.6416,0,0,1.6769,,0,61,61,7,1,8,1,cuban,,,,,,,,,,,,,,,,,,,,,,,,,,,,,,,,,,,,,,,,,,,,,,,,,,,,,,,,
,,,,,,,,,66032bd297a2ab789c837bb2,Cuban/Spanish,younger than 13,"no, only English or Spanish",click here to respond,2025-07-24_00h10.29.300,empathy_intonation_perc_control,2024.2.4,Win32,59.52380952,66032bd297a2ab789c837bb2,68817205a84113384fffdfe3,6881b20fda55eb02d6897698,,,,,,,,,,,,./stim/wavs/castilian_mismatch_declarative-broad-focus_Mi-novio-viene-del-lago.wav,0,,,175.6422,178.025,0,1,1.8626,,0,62,62,71,1,72,0,castilian,,,,,,,,,,,,,,,,,,,,,,,,,,,,,,,,,,,,,,,,,,,,,,,,,,,,,,,,
,,,,,,,,,66032bd297a2ab789c837bb2,Cuban/Spanish,younger than 13,"no, only English or Spanish",click here to respond,2025-07-24_00h10.29.300,empathy_intonation_perc_control,2024.2.4,Win32,59.52380952,66032bd297a2ab789c837bb2,68817205a84113384fffdfe3,6881b20fda55eb02d6897698,,,,,,,,,,,,./stim/wavs/puertorican_match_interrogative-total-yn_Emilio-ama-la-marcha.wav,1,,,178.0256,180.2415,0,0,1.693,,0,63,63,21,1,22,1,puertorican,,,,,,,,,,,,,,,,,,,,,,,,,,,,,,,,,,,,,,,,,,,,,,,,,,,,,,,,
,,,,,,,,,66032bd297a2ab789c837bb2,Cuban/Spanish,younger than 13,"no, only English or Spanish",click here to respond,2025-07-24_00h10.29.300,empathy_intonation_perc_control,2024.2.4,Win32,59.52380952,66032bd297a2ab789c837bb2,68817205a84113384fffdfe3,6881b20fda55eb02d6897698,,,,,,,,,,,,./stim/wavs/cuban_match_interrogative-total-yn_Mariano-habla-del-tiempo.wav,1,,,180.2421,182.5418,0,0,1.7672,,0,64,64,10,1,11,1,cuban,,,,,,,,,,,,,,,,,,,,,,,,,,,,,,,,,,,,,,,,,,,,,,,,,,,,,,,,
,,,,,,,,,66032bd297a2ab789c837bb2,Cuban/Spanish,younger than 13,"no, only English or Spanish",click here to respond,2025-07-24_00h10.29.300,empathy_intonation_perc_control,2024.2.4,Win32,59.52380952,66032bd297a2ab789c837bb2,68817205a84113384fffdfe3,6881b20fda55eb02d6897698,,,,,,,,,,,,./stim/wavs/cuban_mismatch_interrogative-total-yn_El-hombre-mira-la-luna.wav,1,,,182.5423,184.458,0,0,1.3916,,0,65,65,29,1,30,1,cuban,,,,,,,,,,,,,,,,,,,,,,,,,,,,,,,,,,,,,,,,,,,,,,,,,,,,,,,,
,,,,,,,,,66032bd297a2ab789c837bb2,Cuban/Spanish,younger than 13,"no, only English or Spanish",click here to respond,2025-07-24_00h10.29.300,empathy_intonation_perc_control,2024.2.4,Win32,59.52380952,66032bd297a2ab789c837bb2,68817205a84113384fffdfe3,6881b20fda55eb02d6897698,,,,,,,,,,,,./stim/wavs/castilian_mismatch_interrogative-total-yn_Mi-madre-come-la-fruta.wav,1,,,184.4587,186.7082,1,1,1.7264,,0,66,66,26,1,27,0,castilian,,,,,,,,,,,,,,,,,,,,,,,,,,,,,,,,,,,,,,,,,,,,,,,,,,,,,,,,
,,,,,,,,,66032bd297a2ab789c837bb2,Cuban/Spanish,younger than 13,"no, only English or Spanish",click here to respond,2025-07-24_00h10.29.300,empathy_intonation_perc_control,2024.2.4,Win32,59.52380952,66032bd297a2ab789c837bb2,68817205a84113384fffdfe3,6881b20fda55eb02d6897698,,,,,,,,,,,,./stim/wavs/mexican_mismatch_declarative-broad-focus_El-hombre-mira-la-luna.wav,0,,,186.7087,188.7246,0,1,1.4934,,0,67,67,79,1,80,0,mexican,,,,,,,,,,,,,,,,,,,,,,,,,,,,,,,,,,,,,,,,,,,,,,,,,,,,,,,,
,,,,,,,,,66032bd297a2ab789c837bb2,Cuban/Spanish,younger than 13,"no, only English or Spanish",click here to respond,2025-07-24_00h10.29.300,empathy_intonation_perc_control,2024.2.4,Win32,59.52380952,66032bd297a2ab789c837bb2,68817205a84113384fffdfe3,6881b20fda55eb02d6897698,,,,,,,,,,,,./stim/wavs/mexican_mismatch_interrogative-total-yn_El-hombre-mira-la-luna.wav,1,,,188.7253,190.6247,0,0,1.3769,,0,68,68,34,1,35,0,mexican,,,,,,,,,,,,,,,,,,,,,,,,,,,,,,,,,,,,,,,,,,,,,,,,,,,,,,,,
,,,,,,,,,66032bd297a2ab789c837bb2,Cuban/Spanish,younger than 13,"no, only English or Spanish",click here to respond,2025-07-24_00h10.29.300,empathy_intonation_perc_control,2024.2.4,Win32,59.52380952,66032bd297a2ab789c837bb2,68817205a84113384fffdfe3,6881b20fda55eb02d6897698,,,,,,,,,,,,./stim/wavs/mexican_mismatch_declarative-broad-focus_Mi-novio-viene-del-lago.wav,0,,,190.6253,192.558,0,1,1.4106,,0,69,69,81,1,82,0,mexican,,,,,,,,,,,,,,,,,,,,,,,,,,,,,,,,,,,,,,,,,,,,,,,,,,,,,,,,
,,,,,,,,,66032bd297a2ab789c837bb2,Cuban/Spanish,younger than 13,"no, only English or Spanish",click here to respond,2025-07-24_00h10.29.300,empathy_intonation_perc_control,2024.2.4,Win32,59.52380952,66032bd297a2ab789c837bb2,68817205a84113384fffdfe3,6881b20fda55eb02d6897698,,,,,,,,,,,,./stim/wavs/cuban_match_interrogative-total-yn_Marta-abre-el-regalo.wav,1,,,192.5585,194.5749,0,0,1.4841,,0,70,70,11,1,12,1,cuban,,,,,,,,,,,,,,,,,,,,,,,,,,,,,,,,,,,,,,,,,,,,,,,,,,,,,,,,
,,,,,,,,,66032bd297a2ab789c837bb2,Cuban/Spanish,younger than 13,"no, only English or Spanish",click here to respond,2025-07-24_00h10.29.300,empathy_intonation_perc_control,2024.2.4,Win32,59.52380952,66032bd297a2ab789c837bb2,68817205a84113384fffdfe3,6881b20fda55eb02d6897698,,,,,,,,,,,,./stim/wavs/castilian_mismatch_declarative-broad-focus_La-maestra-vive-en-Paris.wav,0,,,194.5754,196.958,0,1,1.8498,,0,71,71,69,1,70,0,castilian,,,,,,,,,,,,,,,,,,,,,,,,,,,,,,,,,,,,,,,,,,,,,,,,,,,,,,,,
,,,,,,,,,66032bd297a2ab789c837bb2,Cuban/Spanish,younger than 13,"no, only English or Spanish",click here to respond,2025-07-24_00h10.29.300,empathy_intonation_perc_control,2024.2.4,Win32,59.52380952,66032bd297a2ab789c837bb2,68817205a84113384fffdfe3,6881b20fda55eb02d6897698,,,,,,,,,,,,./stim/wavs/castilian_mismatch_interrogative-total-yn_La-nina-lava-el-plato.wav,1,,,196.9586,199.1411,1,1,1.6625,,0,72,72,25,1,26,0,castilian,,,,,,,,,,,,,,,,,,,,,,,,,,,,,,,,,,,,,,,,,,,,,,,,,,,,,,,,
,,,,,,,,,66032bd297a2ab789c837bb2,Cuban/Spanish,younger than 13,"no, only English or Spanish",click here to respond,2025-07-24_00h10.29.300,empathy_intonation_perc_control,2024.2.4,Win32,59.52380952,66032bd297a2ab789c837bb2,68817205a84113384fffdfe3,6881b20fda55eb02d6897698,,,,,,,,,,,,./stim/wavs/mexican_match_declarative-broad-focus_Daniel-iba-a-Bolivia.wav,0,,,199.1417,201.1412,0,1,1.4691,,0,73,73,57,1,58,0,mexican,,,,,,,,,,,,,,,,,,,,,,,,,,,,,,,,,,,,,,,,,,,,,,,,,,,,,,,,
,,,,,,,,,66032bd297a2ab789c837bb2,Cuban/Spanish,younger than 13,"no, only English or Spanish",click here to respond,2025-07-24_00h10.29.300,empathy_intonation_perc_control,2024.2.4,Win32,59.52380952,66032bd297a2ab789c837bb2,68817205a84113384fffdfe3,6881b20fda55eb02d6897698,,,,,,,,,,,,./stim/wavs/mexican_mismatch_declarative-broad-focus_Mi-tia-odia-la-lluvia.wav,0,,,201.1419,203.1412,0,1,1.4672,,0,74,74,82,1,83,0,mexican,,,,,,,,,,,,,,,,,,,,,,,,,,,,,,,,,,,,,,,,,,,,,,,,,,,,,,,,
,,,,,,,,,66032bd297a2ab789c837bb2,Cuban/Spanish,younger than 13,"no, only English or Spanish",click here to respond,2025-07-24_00h10.29.300,empathy_intonation_perc_control,2024.2.4,Win32,59.52380952,66032bd297a2ab789c837bb2,68817205a84113384fffdfe3,6881b20fda55eb02d6897698,,,,,,,,,,,,./stim/wavs/cuban_match_declarative-broad-focus_Manuela-vende-el-carro.wav,0,,,203.1418,205.3244,0,1,1.6518,,0,75,75,52,1,53,0,cuban,,,,,,,,,,,,,,,,,,,,,,,,,,,,,,,,,,,,,,,,,,,,,,,,,,,,,,,,
,,,,,,,,,66032bd297a2ab789c837bb2,Cuban/Spanish,younger than 13,"no, only English or Spanish",click here to respond,2025-07-24_00h10.29.300,empathy_intonation_perc_control,2024.2.4,Win32,59.52380952,66032bd297a2ab789c837bb2,68817205a84113384fffdfe3,6881b20fda55eb02d6897698,,,,,,,,,,,,./stim/wavs/cuban_mismatch_interrogative-total-yn_Mi-madre-come-la-fruta.wav,1,,,205.325,207.5411,0,0,1.691,,0,76,76,31,1,32,1,cuban,,,,,,,,,,,,,,,,,,,,,,,,,,,,,,,,,,,,,,,,,,,,,,,,,,,,,,,,
,,,,,,,,,66032bd297a2ab789c837bb2,Cuban/Spanish,younger than 13,"no, only English or Spanish",click here to respond,2025-07-24_00h10.29.300,empathy_intonation_perc_control,2024.2.4,Win32,59.52380952,66032bd297a2ab789c837bb2,68817205a84113384fffdfe3,6881b20fda55eb02d6897698,,,,,,,,,,,,./stim/wavs/castilian_match_declarative-broad-focus_Marta-abre-el-regalo.wav,0,,,207.5417,209.691,0,1,1.6284,,0,77,77,49,1,50,0,castilian,,,,,,,,,,,,,,,,,,,,,,,,,,,,,,,,,,,,,,,,,,,,,,,,,,,,,,,,
,,,,,,,,,66032bd297a2ab789c837bb2,Cuban/Spanish,younger than 13,"no, only English or Spanish",click here to respond,2025-07-24_00h10.29.300,empathy_intonation_perc_control,2024.2.4,Win32,59.52380952,66032bd297a2ab789c837bb2,68817205a84113384fffdfe3,6881b20fda55eb02d6897698,,,,,,,,,,,,./stim/wavs/cuban_mismatch_interrogative-total-yn_Mi-novio-viene-del-lago.wav,1,,,209.6915,211.841,0,0,1.6172,,0,78,78,32,1,33,1,cuban,,,,,,,,,,,,,,,,,,,,,,,,,,,,,,,,,,,,,,,,,,,,,,,,,,,,,,,,
,,,,,,,,,66032bd297a2ab789c837bb2,Cuban/Spanish,younger than 13,"no, only English or Spanish",click here to respond,2025-07-24_00h10.29.300,empathy_intonation_perc_control,2024.2.4,Win32,59.52380952,66032bd297a2ab789c837bb2,68817205a84113384fffdfe3,6881b20fda55eb02d6897698,,,,,,,,,,,,./stim/wavs/castilian_match_interrogative-total-yn_Emilio-ama-la-marcha.wav,1,,,211.8415,213.9575,1,1,1.5932,,0,79,79,1,1,2,0,castilian,,,,,,,,,,,,,,,,,,,,,,,,,,,,,,,,,,,,,,,,,,,,,,,,,,,,,,,,
,,,,,,,,,66032bd297a2ab789c837bb2,Cuban/Spanish,younger than 13,"no, only English or Spanish",click here to respond,2025-07-24_00h10.29.300,empathy_intonation_perc_control,2024.2.4,Win32,59.52380952,66032bd297a2ab789c837bb2,68817205a84113384fffdfe3,6881b20fda55eb02d6897698,,,,,,,,,,,,./stim/wavs/mexican_match_interrogative-total-yn_David-leia-el-libro.wav,1,,,213.9581,215.9909,1,1,1.5004,,0,80,80,14,1,15,0,mexican,,,,,,,,,,,,,,,,,,,,,,,,,,,,,,,,,,,,,,,,,,,,,,,,,,,,,,,,
,,,,,,,,,66032bd297a2ab789c837bb2,Cuban/Spanish,younger than 13,"no, only English or Spanish",click here to respond,2025-07-24_00h10.29.300,empathy_intonation_perc_control,2024.2.4,Win32,59.52380952,66032bd297a2ab789c837bb2,68817205a84113384fffdfe3,6881b20fda55eb02d6897698,,,,,,,,,,,,./stim/wavs/mexican_mismatch_interrogative-total-yn_Mi-tia-odia-la-lluvia.wav,1,,,215.9914,218.0242,1,1,1.502,,0,81,81,38,1,39,0,mexican,,,,,,,,,,,,,,,,,,,,,,,,,,,,,,,,,,,,,,,,,,,,,,,,,,,,,,,,
,,,,,,,,,66032bd297a2ab789c837bb2,Cuban/Spanish,younger than 13,"no, only English or Spanish",click here to respond,2025-07-24_00h10.29.300,empathy_intonation_perc_control,2024.2.4,Win32,59.52380952,66032bd297a2ab789c837bb2,68817205a84113384fffdfe3,6881b20fda55eb02d6897698,,,,,,,,,,,,./stim/wavs/cuban_match_declarative-broad-focus_Mariano-habla-del-tiempo.wav,0,,,218.0248,220.3409,0,1,1.7853,,0,82,82,54,1,55,0,cuban,,,,,,,,,,,,,,,,,,,,,,,,,,,,,,,,,,,,,,,,,,,,,,,,,,,,,,,,
,,,,,,,,,66032bd297a2ab789c837bb2,Cuban/Spanish,younger than 13,"no, only English or Spanish",click here to respond,2025-07-24_00h10.29.300,empathy_intonation_perc_control,2024.2.4,Win32,59.52380952,66032bd297a2ab789c837bb2,68817205a84113384fffdfe3,6881b20fda55eb02d6897698,,,,,,,,,,,,./stim/wavs/castilian_match_interrogative-total-yn_David-leia-el-libro.wav,1,,,220.3414,222.424,1,1,1.5512,,0,83,83,0,1,1,0,castilian,,,,,,,,,,,,,,,,,,,,,,,,,,,,,,,,,,,,,,,,,,,,,,,,,,,,,,,,
,,,,,,,,,66032bd297a2ab789c837bb2,Cuban/Spanish,younger than 13,"no, only English or Spanish",click here to respond,2025-07-24_00h10.29.300,empathy_intonation_perc_control,2024.2.4,Win32,59.52380952,66032bd297a2ab789c837bb2,68817205a84113384fffdfe3,6881b20fda55eb02d6897698,,,,,,,,,,,,./stim/wavs/cuban_mismatch_declarative-broad-focus_El-bebe-comia-muy-bien.wav,0,,,222.4246,224.4242,0,1,1.4687,,0,84,84,73,1,74,0,cuban,,,,,,,,,,,,,,,,,,,,,,,,,,,,,,,,,,,,,,,,,,,,,,,,,,,,,,,,
,,,,,,,,,66032bd297a2ab789c837bb2,Cuban/Spanish,younger than 13,"no, only English or Spanish",click here to respond,2025-07-24_00h10.29.300,empathy_intonation_perc_control,2024.2.4,Win32,59.52380952,66032bd297a2ab789c837bb2,68817205a84113384fffdfe3,6881b20fda55eb02d6897698,,,,,,,,,,,,./stim/wavs/castilian_match_declarative-broad-focus_Maria-bebe-el-vino.wav,0,,,224.4249,226.7241,0,1,1.7671,,0,85,85,47,1,48,0,castilian,,,,,,,,,,,,,,,,,,,,,,,,,,,,,,,,,,,,,,,,,,,,,,,,,,,,,,,,
,,,,,,,,,66032bd297a2ab789c837bb2,Cuban/Spanish,younger than 13,"no, only English or Spanish",click here to respond,2025-07-24_00h10.29.300,empathy_intonation_perc_control,2024.2.4,Win32,59.52380952,66032bd297a2ab789c837bb2,68817205a84113384fffdfe3,6881b20fda55eb02d6897698,,,,,,,,,,,,./stim/wavs/mexican_mismatch_declarative-broad-focus_El-bebe-comia-muy-bien.wav,0,,,226.7246,228.7573,0,1,1.5031,,0,86,86,78,1,79,0,mexican,,,,,,,,,,,,,,,,,,,,,,,,,,,,,,,,,,,,,,,,,,,,,,,,,,,,,,,,
,,,,,,,,,66032bd297a2ab789c837bb2,Cuban/Spanish,younger than 13,"no, only English or Spanish",click here to respond,2025-07-24_00h10.29.300,empathy_intonation_perc_control,2024.2.4,Win32,59.52380952,66032bd297a2ab789c837bb2,68817205a84113384fffdfe3,6881b20fda55eb02d6897698,,,,,,,,,,,,./stim/wavs/castilian_match_declarative-broad-focus_Emilio-ama-la-marcha.wav,0,,,228.7579,230.908,0,1,1.6305,,0,87,87,45,1,46,0,castilian,,,,,,,,,,,,,,,,,,,,,,,,,,,,,,,,,,,,,,,,,,,,,,,,,,,,,,,,
,,,,,,,"Great! Now we will move on. The next task consists of about 60 trials, in each of which you will see a string of letters. 
  
  Your task is to decide whether this is a real Spanish word or not.", (press the spacebar to continue),66032bd297a2ab789c837bb2,Cuban/Spanish,younger than 13,"no, only English or Spanish",click here to respond,2025-07-24_00h10.29.300,empathy_intonation_perc_control,2024.2.4,Win32,59.52380952,66032bd297a2ab789c837bb2,68817205a84113384fffdfe3,6881b20fda55eb02d6897698,,,,,,,,,,,,,,,,,,,,,,,,,,,,,,230.9156,236.7074,0,0,0,0,1,,,,,,,,,,,,,,,,,,,,,,,,,,,,,,,,,,,,,,,,,,,,,,,,,
,,,,,,,"If you think it is an existing Spanish word, you type '1' (for 'REAL'), and if you think it is not an existing Spanish word, you type '0' (for 'FAKE').", (press the spacebar to continue),66032bd297a2ab789c837bb2,Cuban/Spanish,younger than 13,"no, only English or Spanish",click here to respond,2025-07-24_00h10.29.300,empathy_intonation_perc_control,2024.2.4,Win32,59.52380952,66032bd297a2ab789c837bb2,68817205a84113384fffdfe3,6881b20fda55eb02d6897698,,,,,,,,,,,,,,,,,,,,,,,,,,,,,,236.7105,241.1071,0,1,1,1,1,,,,,,,,,,,,,,,,,,,,,,,,,,,,,,,,,,,,,,,,,,,,,,,,,
,,,,,,,"If you are sure that the word exists, even though you don’t know its exact meaning, you may still respond '1' (REAL). 
  
  But if you are not sure if it is an existing word, you should respond '0' (FAKE).
  
  Let's do a practice round...", (press the spacebar to continue),66032bd297a2ab789c837bb2,Cuban/Spanish,younger than 13,"no, only English or Spanish",click here to respond,2025-07-24_00h10.29.300,empathy_intonation_perc_control,2024.2.4,Win32,59.52380952,66032bd297a2ab789c837bb2,68817205a84113384fffdfe3,6881b20fda55eb02d6897698,,,,,,,,,,,,,,,,,,,,,,,,,,,,,,241.1097,251.6571,0,2,2,2,1,,,,,,,,,,,,,,,,,,,,,,,,,,,,,,,,,,,,,,,,,,,,,,,,,
,,,,,,,,,66032bd297a2ab789c837bb2,Cuban/Spanish,younger than 13,"no, only English or Spanish",click here to respond,2025-07-24_00h10.29.300,empathy_intonation_perc_control,2024.2.4,Win32,59.52380952,66032bd297a2ab789c837bb2,68817205a84113384fffdfe3,6881b20fda55eb02d6897698,,,,,,,,,,,,,0,,,,,,,,,,,,,,,,,,,,,,,,251.6649,256.5903,0,1,4.4013,,256.5906,257.5903,0,0,0,0,1,0,depiste,REAL,FAKE,,,,,,,,,,,,,,,,,,,,,,,,,,,,,,,,
,,,,,,,,,66032bd297a2ab789c837bb2,Cuban/Spanish,younger than 13,"no, only English or Spanish",click here to respond,2025-07-24_00h10.29.300,empathy_intonation_perc_control,2024.2.4,Win32,59.52380952,66032bd297a2ab789c837bb2,68817205a84113384fffdfe3,6881b20fda55eb02d6897698,,,,,,,,,,,,,1,,,,,,,,,,,,,,,,,,,,,,,,257.5922,259.2235,1,1,1.0987,,259.2235,260.2234,0,1,1,1,1,0,sí,REAL,FAKE,,,,,,,,,,,,,,,,,,,,,,,,,,,,,,,,
,,,,,,,,,66032bd297a2ab789c837bb2,Cuban/Spanish,younger than 13,"no, only English or Spanish",click here to respond,2025-07-24_00h10.29.300,empathy_intonation_perc_control,2024.2.4,Win32,59.52380952,66032bd297a2ab789c837bb2,68817205a84113384fffdfe3,6881b20fda55eb02d6897698,,,,,,,,,,,,,0,,,,,,,,,,,,,,,,,,,,,,,,260.2249,261.6066,1,0,0.8566,,261.6082,262.6067,0,2,2,2,1,0,coné,REAL,FAKE,,,,,,,,,,,,,,,,,,,,,,,,,,,,,,,,
,,,,,,,,,66032bd297a2ab789c837bb2,Cuban/Spanish,younger than 13,"no, only English or Spanish",click here to respond,2025-07-24_00h10.29.300,empathy_intonation_perc_control,2024.2.4,Win32,59.52380952,66032bd297a2ab789c837bb2,68817205a84113384fffdfe3,6881b20fda55eb02d6897698,,,,,,,,,,,,,0,,,,,,,,,,,,,,,,,,,,,,,,262.6082,264.2235,0,1,1.0794,,264.2241,265.2233,0,3,3,3,1,0,calpar,REAL,FAKE,,,,,,,,,,,,,,,,,,,,,,,,,,,,,,,,
,,,,,,,,,66032bd297a2ab789c837bb2,Cuban/Spanish,younger than 13,"no, only English or Spanish",click here to respond,2025-07-24_00h10.29.300,empathy_intonation_perc_control,2024.2.4,Win32,59.52380952,66032bd297a2ab789c837bb2,68817205a84113384fffdfe3,6881b20fda55eb02d6897698,,,,,,,,,,,,,0,,,,,,,,,,,,,,,,,,,,,,,,265.2249,266.4733,0,1,0.7202,,266.4734,267.4732,0,4,4,4,1,0,joten,REAL,FAKE,,,,,,,,,,,,,,,,,,,,,,,,,,,,,,,,
,,,,,,,,,66032bd297a2ab789c837bb2,Cuban/Spanish,younger than 13,"no, only English or Spanish",click here to respond,2025-07-24_00h10.29.300,empathy_intonation_perc_control,2024.2.4,Win32,59.52380952,66032bd297a2ab789c837bb2,68817205a84113384fffdfe3,6881b20fda55eb02d6897698,,,,,,,,,,,,,1,,,,,,,,,,,,,,,,,,,,,,,,267.4743,268.8233,1,1,0.8152,,268.8233,269.8233,0,5,5,5,1,0,sacapuntas,REAL,FAKE,,,,,,,,,,,,,,,,,,,,,,,,,,,,,,,,
,,,,,,,,,66032bd297a2ab789c837bb2,Cuban/Spanish,younger than 13,"no, only English or Spanish",click here to respond,2025-07-24_00h10.29.300,empathy_intonation_perc_control,2024.2.4,Win32,59.52380952,66032bd297a2ab789c837bb2,68817205a84113384fffdfe3,6881b20fda55eb02d6897698,,,,,,,,,,,,,0,,,,,,,,,,,,,,,,,,,,,,,,269.825,271.6733,0,1,1.314,,271.6733,272.6733,0,6,6,6,1,0,priba,REAL,FAKE,,,,,,,,,,,,,,,,,,,,,,,,,,,,,,,,
,,,,,,,,,66032bd297a2ab789c837bb2,Cuban/Spanish,younger than 13,"no, only English or Spanish",click here to respond,2025-07-24_00h10.29.300,empathy_intonation_perc_control,2024.2.4,Win32,59.52380952,66032bd297a2ab789c837bb2,68817205a84113384fffdfe3,6881b20fda55eb02d6897698,,,,,,,,,,,,,0,,,,,,,,,,,,,,,,,,,,,,,,272.6744,274.6731,1,0,1.463,,274.6738,275.6731,0,7,7,7,1,0,pelasula,REAL,FAKE,,,,,,,,,,,,,,,,,,,,,,,,,,,,,,,,
,,,,,,,,,66032bd297a2ab789c837bb2,Cuban/Spanish,younger than 13,"no, only English or Spanish",click here to respond,2025-07-24_00h10.29.300,empathy_intonation_perc_control,2024.2.4,Win32,59.52380952,66032bd297a2ab789c837bb2,68817205a84113384fffdfe3,6881b20fda55eb02d6897698,,,,,,,,,,,,,1,,,,,,,,,,,,,,,,,,,,,,,,275.674,277.1065,1,1,0.8969,,277.1071,278.1065,0,8,8,8,1,0,bien,REAL,FAKE,,,,,,,,,,,,,,,,,,,,,,,,,,,,,,,,
,,,,,,,,,66032bd297a2ab789c837bb2,Cuban/Spanish,younger than 13,"no, only English or Spanish",click here to respond,2025-07-24_00h10.29.300,empathy_intonation_perc_control,2024.2.4,Win32,59.52380952,66032bd297a2ab789c837bb2,68817205a84113384fffdfe3,6881b20fda55eb02d6897698,,,,,,,,,,,,,1,,,,,,,,,,,,,,,,,,,,,,,,278.1074,279.273,1,1,0.6364,,279.273,280.2731,0,9,9,9,1,0,casa,REAL,FAKE,,,,,,,,,,,,,,,,,,,,,,,,,,,,,,,,
,,,,,,,,,66032bd297a2ab789c837bb2,Cuban/Spanish,younger than 13,"no, only English or Spanish",click here to respond,2025-07-24_00h10.29.300,empathy_intonation_perc_control,2024.2.4,Win32,59.52380952,66032bd297a2ab789c837bb2,68817205a84113384fffdfe3,6881b20fda55eb02d6897698,,,,,,,,,,,,,0,,,,,,,,,,,,,,,,,,,,,,,,280.2741,281.8229,0,1,1.0132,,281.8231,282.8232,0,10,10,10,1,0,lejo,REAL,FAKE,,,,,,,,,,,,,,,,,,,,,,,,,,,,,,,,
,,,,,,,,,66032bd297a2ab789c837bb2,Cuban/Spanish,younger than 13,"no, only English or Spanish",click here to respond,2025-07-24_00h10.29.300,empathy_intonation_perc_control,2024.2.4,Win32,59.52380952,66032bd297a2ab789c837bb2,68817205a84113384fffdfe3,6881b20fda55eb02d6897698,,,,,,,,,,,,,0,,,,,,,,,,,,,,,,,,,,,,,,282.8248,284.3729,1,0,1.0189,,284.3735,285.3729,0,11,11,11,1,0,pretantas,REAL,FAKE,,,,,,,,,,,,,,,,,,,,,,,,,,,,,,,,
,,,,,,,,,66032bd297a2ab789c837bb2,Cuban/Spanish,younger than 13,"no, only English or Spanish",click here to respond,2025-07-24_00h10.29.300,empathy_intonation_perc_control,2024.2.4,Win32,59.52380952,66032bd297a2ab789c837bb2,68817205a84113384fffdfe3,6881b20fda55eb02d6897698,,,,,,,,,,,,,,,,,,,,,,,,,,,,,,,,,,,,,,,,,,,,,,,,,,,,,,285.3733,286.3732,,,,,,,,,,,,,,,,,,,,,,,,,,,,,,
,,,,,,,,,66032bd297a2ab789c837bb2,Cuban/Spanish,younger than 13,"no, only English or Spanish",click here to respond,2025-07-24_00h10.29.300,empathy_intonation_perc_control,2024.2.4,Win32,59.52380952,66032bd297a2ab789c837bb2,68817205a84113384fffdfe3,6881b20fda55eb02d6897698,,,,,,,,,,,,,1,,,,,,,,,,,,,,,,,,,,,,,,,,,,,,,,,,,,,64,orgulloso,,,,,286.3907,287.7398,0,0,0.8193,,0,0,0,63,1,REAL,FAKE,,,,,,,,,,,,,,,,,
,,,,,,,,,66032bd297a2ab789c837bb2,Cuban/Spanish,younger than 13,"no, only English or Spanish",click here to respond,2025-07-24_00h10.29.300,empathy_intonation_perc_control,2024.2.4,Win32,59.52380952,66032bd297a2ab789c837bb2,68817205a84113384fffdfe3,6881b20fda55eb02d6897698,,,,,,,,,,,,,0,,,,,,,,,,,,,,,,,,,,,,,,,,,,,,,,,,,,,27,acutación,,,,,287.7413,289.2061,1,0,0.9319,,0,1,1,26,1,REAL,FAKE,,,,,,,,,,,,,,,,,
,,,,,,,,,66032bd297a2ab789c837bb2,Cuban/Spanish,younger than 13,"no, only English or Spanish",click here to respond,2025-07-24_00h10.29.300,empathy_intonation_perc_control,2024.2.4,Win32,59.52380952,66032bd297a2ab789c837bb2,68817205a84113384fffdfe3,6881b20fda55eb02d6897698,,,,,,,,,,,,,0,,,,,,,,,,,,,,,,,,,,,,,,,,,,,,,,,,,,,8,cadeña,,,,,289.2075,290.5231,1,0,0.7796,,0,2,2,7,1,REAL,FAKE,,,,,,,,,,,,,,,,,
,,,,,,,,,66032bd297a2ab789c837bb2,Cuban/Spanish,younger than 13,"no, only English or Spanish",click here to respond,2025-07-24_00h10.29.300,empathy_intonation_perc_control,2024.2.4,Win32,59.52380952,66032bd297a2ab789c837bb2,68817205a84113384fffdfe3,6881b20fda55eb02d6897698,,,,,,,,,,,,,0,,,,,,,,,,,,,,,,,,,,,,,,,,,,,,,,,,,,,18,arsa,,,,,290.5241,292.1561,0,1,1.1069,,0,3,3,17,1,REAL,FAKE,,,,,,,,,,,,,,,,,
,,,,,,,,,66032bd297a2ab789c837bb2,Cuban/Spanish,younger than 13,"no, only English or Spanish",click here to respond,2025-07-24_00h10.29.300,empathy_intonation_perc_control,2024.2.4,Win32,59.52380952,66032bd297a2ab789c837bb2,68817205a84113384fffdfe3,6881b20fda55eb02d6897698,,,,,,,,,,,,,1,,,,,,,,,,,,,,,,,,,,,,,,,,,,,,,,,,,,,45,jilguero,,,,,292.157,294.2894,0,0,1.6013,,0,4,4,44,1,REAL,FAKE,,,,,,,,,,,,,,,,,
,,,,,,,,,66032bd297a2ab789c837bb2,Cuban/Spanish,younger than 13,"no, only English or Spanish",click here to respond,2025-07-24_00h10.29.300,empathy_intonation_perc_control,2024.2.4,Win32,59.52380952,66032bd297a2ab789c837bb2,68817205a84113384fffdfe3,6881b20fda55eb02d6897698,,,,,,,,,,,,,1,,,,,,,,,,,,,,,,,,,,,,,,,,,,,,,,,,,,,83,guante,,,,,294.2904,295.7227,1,1,0.9039,,0,5,5,82,1,REAL,FAKE,,,,,,,,,,,,,,,,,
,,,,,,,,,66032bd297a2ab789c837bb2,Cuban/Spanish,younger than 13,"no, only English or Spanish",click here to respond,2025-07-24_00h10.29.300,empathy_intonation_perc_control,2024.2.4,Win32,59.52380952,66032bd297a2ab789c837bb2,68817205a84113384fffdfe3,6881b20fda55eb02d6897698,,,,,,,,,,,,,1,,,,,,,,,,,,,,,,,,,,,,,,,,,,,,,,,,,,,34,aviso,,,,,295.7241,296.9228,1,1,0.6637,,0,6,6,33,1,REAL,FAKE,,,,,,,,,,,,,,,,,
,,,,,,,,,66032bd297a2ab789c837bb2,Cuban/Spanish,younger than 13,"no, only English or Spanish",click here to respond,2025-07-24_00h10.29.300,empathy_intonation_perc_control,2024.2.4,Win32,59.52380952,66032bd297a2ab789c837bb2,68817205a84113384fffdfe3,6881b20fda55eb02d6897698,,,,,,,,,,,,,1,,,,,,,,,,,,,,,,,,,,,,,,,,,,,,,,,,,,,76,atar,,,,,296.9238,298.4392,0,0,0.9883,,0,7,7,75,1,REAL,FAKE,,,,,,,,,,,,,,,,,
,,,,,,,,,66032bd297a2ab789c837bb2,Cuban/Spanish,younger than 13,"no, only English or Spanish",click here to respond,2025-07-24_00h10.29.300,empathy_intonation_perc_control,2024.2.4,Win32,59.52380952,66032bd297a2ab789c837bb2,68817205a84113384fffdfe3,6881b20fda55eb02d6897698,,,,,,,,,,,,,1,,,,,,,,,,,,,,,,,,,,,,,,,,,,,,,,,,,,,49,ganar,,,,,298.4403,299.9059,0,0,0.9355,,0,8,8,48,1,REAL,FAKE,,,,,,,,,,,,,,,,,
,,,,,,,,,66032bd297a2ab789c837bb2,Cuban/Spanish,younger than 13,"no, only English or Spanish",click here to respond,2025-07-24_00h10.29.300,empathy_intonation_perc_control,2024.2.4,Win32,59.52380952,66032bd297a2ab789c837bb2,68817205a84113384fffdfe3,6881b20fda55eb02d6897698,,,,,,,,,,,,,0,,,,,,,,,,,,,,,,,,,,,,,,,,,,,,,,,,,,,47,cartinar,,,,,299.9068,301.3559,0,1,0.9222,,0,9,9,46,1,REAL,FAKE,,,,,,,,,,,,,,,,,
,,,,,,,,,66032bd297a2ab789c837bb2,Cuban/Spanish,younger than 13,"no, only English or Spanish",click here to respond,2025-07-24_00h10.29.300,empathy_intonation_perc_control,2024.2.4,Win32,59.52380952,66032bd297a2ab789c837bb2,68817205a84113384fffdfe3,6881b20fda55eb02d6897698,,,,,,,,,,,,,1,,,,,,,,,,,,,,,,,,,,,,,,,,,,,,,,,,,,,5,zapato,,,,,301.3573,302.7559,1,1,0.8647,,0,10,10,4,1,REAL,FAKE,,,,,,,,,,,,,,,,,
,,,,,,,,,66032bd297a2ab789c837bb2,Cuban/Spanish,younger than 13,"no, only English or Spanish",click here to respond,2025-07-24_00h10.29.300,empathy_intonation_perc_control,2024.2.4,Win32,59.52380952,66032bd297a2ab789c837bb2,68817205a84113384fffdfe3,6881b20fda55eb02d6897698,,,,,,,,,,,,,0,,,,,,,,,,,,,,,,,,,,,,,,,,,,,,,,,,,,,10,antar,,,,,302.757,304.0227,0,1,0.7295,,0,11,11,9,1,REAL,FAKE,,,,,,,,,,,,,,,,,
,,,,,,,,,66032bd297a2ab789c837bb2,Cuban/Spanish,younger than 13,"no, only English or Spanish",click here to respond,2025-07-24_00h10.29.300,empathy_intonation_perc_control,2024.2.4,Win32,59.52380952,66032bd297a2ab789c837bb2,68817205a84113384fffdfe3,6881b20fda55eb02d6897698,,,,,,,,,,,,,0,,,,,,,,,,,,,,,,,,,,,,,,,,,,,,,,,,,,,79,tropaje,,,,,304.0236,305.3725,1,0,0.816,,0,12,12,78,1,REAL,FAKE,,,,,,,,,,,,,,,,,
,,,,,,,,,66032bd297a2ab789c837bb2,Cuban/Spanish,younger than 13,"no, only English or Spanish",click here to respond,2025-07-24_00h10.29.300,empathy_intonation_perc_control,2024.2.4,Win32,59.52380952,66032bd297a2ab789c837bb2,68817205a84113384fffdfe3,6881b20fda55eb02d6897698,,,,,,,,,,,,,1,,,,,,,,,,,,,,,,,,,,,,,,,,,,,,,,,,,,,69,engatusar,,,,,305.3735,306.7892,0,0,0.8805,,0,13,13,68,1,REAL,FAKE,,,,,,,,,,,,,,,,,
,,,,,,,,,66032bd297a2ab789c837bb2,Cuban/Spanish,younger than 13,"no, only English or Spanish",click here to respond,2025-07-24_00h10.29.300,empathy_intonation_perc_control,2024.2.4,Win32,59.52380952,66032bd297a2ab789c837bb2,68817205a84113384fffdfe3,6881b20fda55eb02d6897698,,,,,,,,,,,,,1,,,,,,,,,,,,,,,,,,,,,,,,,,,,,,,,,,,,,88,acantilado,,,,,306.7901,308.1892,0,0,0.863,,0,14,14,87,1,REAL,FAKE,,,,,,,,,,,,,,,,,
,,,,,,,,,66032bd297a2ab789c837bb2,Cuban/Spanish,younger than 13,"no, only English or Spanish",click here to respond,2025-07-24_00h10.29.300,empathy_intonation_perc_control,2024.2.4,Win32,59.52380952,66032bd297a2ab789c837bb2,68817205a84113384fffdfe3,6881b20fda55eb02d6897698,,,,,,,,,,,,,0,,,,,,,,,,,,,,,,,,,,,,,,,,,,,,,,,,,,,53,vegada,,,,,308.1901,309.5391,0,1,0.8203,,0,15,15,52,1,REAL,FAKE,,,,,,,,,,,,,,,,,
,,,,,,,,,66032bd297a2ab789c837bb2,Cuban/Spanish,younger than 13,"no, only English or Spanish",click here to respond,2025-07-24_00h10.29.300,empathy_intonation_perc_control,2024.2.4,Win32,59.52380952,66032bd297a2ab789c837bb2,68817205a84113384fffdfe3,6881b20fda55eb02d6897698,,,,,,,,,,,,,1,,,,,,,,,,,,,,,,,,,,,,,,,,,,,,,,,,,,,3,pulmones,,,,,309.5403,311.0891,1,1,1.0147,,0,16,16,2,1,REAL,FAKE,,,,,,,,,,,,,,,,,
,,,,,,,,,66032bd297a2ab789c837bb2,Cuban/Spanish,younger than 13,"no, only English or Spanish",click here to respond,2025-07-24_00h10.29.300,empathy_intonation_perc_control,2024.2.4,Win32,59.52380952,66032bd297a2ab789c837bb2,68817205a84113384fffdfe3,6881b20fda55eb02d6897698,,,,,,,,,,,,,0,,,,,,,,,,,,,,,,,,,,,,,,,,,,,,,,,,,,,29,decar,,,,,311.0901,312.6391,0,1,1.0127,,0,17,17,28,1,REAL,FAKE,,,,,,,,,,,,,,,,,
,,,,,,,,,66032bd297a2ab789c837bb2,Cuban/Spanish,younger than 13,"no, only English or Spanish",click here to respond,2025-07-24_00h10.29.300,empathy_intonation_perc_control,2024.2.4,Win32,59.52380952,66032bd297a2ab789c837bb2,68817205a84113384fffdfe3,6881b20fda55eb02d6897698,,,,,,,,,,,,,1,,,,,,,,,,,,,,,,,,,,,,,,,,,,,,,,,,,,,78,frondoso,,,,,312.6403,313.9557,0,0,0.7873,,0,18,18,77,1,REAL,FAKE,,,,,,,,,,,,,,,,,
,,,,,,,,,66032bd297a2ab789c837bb2,Cuban/Spanish,younger than 13,"no, only English or Spanish",click here to respond,2025-07-24_00h10.29.300,empathy_intonation_perc_control,2024.2.4,Win32,59.52380952,66032bd297a2ab789c837bb2,68817205a84113384fffdfe3,6881b20fda55eb02d6897698,,,,,,,,,,,,,0,,,,,,,,,,,,,,,,,,,,,,,,,,,,,,,,,,,,,92,click the 0 key.,,,,,313.9576,315.7223,0,1,1.2356,,0,19,19,91,1,REAL,FAKE,,,,,,,,,,,,,,,,,
,,,,,,,,,66032bd297a2ab789c837bb2,Cuban/Spanish,younger than 13,"no, only English or Spanish",click here to respond,2025-07-24_00h10.29.300,empathy_intonation_perc_control,2024.2.4,Win32,59.52380952,66032bd297a2ab789c837bb2,68817205a84113384fffdfe3,6881b20fda55eb02d6897698,,,,,,,,,,,,,1,,,,,,,,,,,,,,,,,,,,,,,,,,,,,,,,,,,,,46,martillo,,,,,315.7233,317.3557,0,0,1.0966,,0,20,20,45,1,REAL,FAKE,,,,,,,,,,,,,,,,,
,,,,,,,,,66032bd297a2ab789c837bb2,Cuban/Spanish,younger than 13,"no, only English or Spanish",click here to respond,2025-07-24_00h10.29.300,empathy_intonation_perc_control,2024.2.4,Win32,59.52380952,66032bd297a2ab789c837bb2,68817205a84113384fffdfe3,6881b20fda55eb02d6897698,,,,,,,,,,,,,0,,,,,,,,,,,,,,,,,,,,,,,,,,,,,,,,,,,,,35,rompido,,,,,317.3567,319.0389,0,1,1.1508,,0,21,21,34,1,REAL,FAKE,,,,,,,,,,,,,,,,,
,,,,,,,,,66032bd297a2ab789c837bb2,Cuban/Spanish,younger than 13,"no, only English or Spanish",click here to respond,2025-07-24_00h10.29.300,empathy_intonation_perc_control,2024.2.4,Win32,59.52380952,66032bd297a2ab789c837bb2,68817205a84113384fffdfe3,6881b20fda55eb02d6897698,,,,,,,,,,,,,1,,,,,,,,,,,,,,,,,,,,,,,,,,,,,,,,,,,,,90,clavel,,,,,319.0398,320.3388,0,0,0.7712,,0,22,22,89,1,REAL,FAKE,,,,,,,,,,,,,,,,,
,,,,,,,,,66032bd297a2ab789c837bb2,Cuban/Spanish,younger than 13,"no, only English or Spanish",click here to respond,2025-07-24_00h10.29.300,empathy_intonation_perc_control,2024.2.4,Win32,59.52380952,66032bd297a2ab789c837bb2,68817205a84113384fffdfe3,6881b20fda55eb02d6897698,,,,,,,,,,,,,1,,,,,,,,,,,,,,,,,,,,,,,,,,,,,,,,,,,,,15,regar,,,,,320.3398,321.6555,0,0,0.7877,,0,23,23,14,1,REAL,FAKE,,,,,,,,,,,,,,,,,
,,,,,,,,,66032bd297a2ab789c837bb2,Cuban/Spanish,younger than 13,"no, only English or Spanish",click here to respond,2025-07-24_00h10.29.300,empathy_intonation_perc_control,2024.2.4,Win32,59.52380952,66032bd297a2ab789c837bb2,68817205a84113384fffdfe3,6881b20fda55eb02d6897698,,,,,,,,,,,,,1,,,,,,,,,,,,,,,,,,,,,,,,,,,,,,,,,,,,,56,musgo,,,,,321.6565,322.9722,0,0,0.7849,,0,24,24,55,1,REAL,FAKE,,,,,,,,,,,,,,,,,
,,,,,,,,,66032bd297a2ab789c837bb2,Cuban/Spanish,younger than 13,"no, only English or Spanish",click here to respond,2025-07-24_00h10.29.300,empathy_intonation_perc_control,2024.2.4,Win32,59.52380952,66032bd297a2ab789c837bb2,68817205a84113384fffdfe3,6881b20fda55eb02d6897698,,,,,,,,,,,,,1,,,,,,,,,,,,,,,,,,,,,,,,,,,,,,,,,,,,,11,cenefa,,,,,322.9731,324.4222,0,0,0.9153,,0,25,25,10,1,REAL,FAKE,,,,,,,,,,,,,,,,,
,,,,,,,,,66032bd297a2ab789c837bb2,Cuban/Spanish,younger than 13,"no, only English or Spanish",click here to respond,2025-07-24_00h10.29.300,empathy_intonation_perc_control,2024.2.4,Win32,59.52380952,66032bd297a2ab789c837bb2,68817205a84113384fffdfe3,6881b20fda55eb02d6897698,,,,,,,,,,,,,0,,,,,,,,,,,,,,,,,,,,,,,,,,,,,,,,,,,,,82,empirador,,,,,324.4231,325.6054,1,0,0.6467,,0,26,26,81,1,REAL,FAKE,,,,,,,,,,,,,,,,,
,,,,,,,,,66032bd297a2ab789c837bb2,Cuban/Spanish,younger than 13,"no, only English or Spanish",click here to respond,2025-07-24_00h10.29.300,empathy_intonation_perc_control,2024.2.4,Win32,59.52380952,66032bd297a2ab789c837bb2,68817205a84113384fffdfe3,6881b20fda55eb02d6897698,,,,,,,,,,,,,1,,,,,,,,,,,,,,,,,,,,,,,,,,,,,,,,,,,,,2,pellizcar,,,,,325.6064,326.8555,0,0,0.7242,,0,27,27,1,1,REAL,FAKE,,,,,,,,,,,,,,,,,
,,,,,,,,,66032bd297a2ab789c837bb2,Cuban/Spanish,younger than 13,"no, only English or Spanish",click here to respond,2025-07-24_00h10.29.300,empathy_intonation_perc_control,2024.2.4,Win32,59.52380952,66032bd297a2ab789c837bb2,68817205a84113384fffdfe3,6881b20fda55eb02d6897698,,,,,,,,,,,,,1,,,,,,,,,,,,,,,,,,,,,,,,,,,,,,,,,,,,,22,lacayo,,,,,326.8564,328.2388,0,0,0.8515,,0,28,28,21,1,REAL,FAKE,,,,,,,,,,,,,,,,,
,,,,,,,,,66032bd297a2ab789c837bb2,Cuban/Spanish,younger than 13,"no, only English or Spanish",click here to respond,2025-07-24_00h10.29.300,empathy_intonation_perc_control,2024.2.4,Win32,59.52380952,66032bd297a2ab789c837bb2,68817205a84113384fffdfe3,6881b20fda55eb02d6897698,,,,,,,,,,,,,1,,,,,,,,,,,,,,,,,,,,,,,,,,,,,,,,,,,,,25,bisagra,,,,,328.2397,329.9388,0,0,1.1631,,0,29,29,24,1,REAL,FAKE,,,,,,,,,,,,,,,,,
,,,,,,,,,66032bd297a2ab789c837bb2,Cuban/Spanish,younger than 13,"no, only English or Spanish",click here to respond,2025-07-24_00h10.29.300,empathy_intonation_perc_control,2024.2.4,Win32,59.52380952,66032bd297a2ab789c837bb2,68817205a84113384fffdfe3,6881b20fda55eb02d6897698,,,,,,,,,,,,,1,,,,,,,,,,,,,,,,,,,,,,,,,,,,,,,,,,,,,60,matar,,,,,329.9398,331.0721,1,1,0.5974,,0,30,30,59,1,REAL,FAKE,,,,,,,,,,,,,,,,,
,,,,,,,,,66032bd297a2ab789c837bb2,Cuban/Spanish,younger than 13,"no, only English or Spanish",click here to respond,2025-07-24_00h10.29.300,empathy_intonation_perc_control,2024.2.4,Win32,59.52380952,66032bd297a2ab789c837bb2,68817205a84113384fffdfe3,6881b20fda55eb02d6897698,,,,,,,,,,,,,1,,,,,,,,,,,,,,,,,,,,,,,,,,,,,,,,,,,,,67,cabello,,,,,331.0732,332.3722,1,1,0.7631,,0,31,31,66,1,REAL,FAKE,,,,,,,,,,,,,,,,,
,,,,,,,,,66032bd297a2ab789c837bb2,Cuban/Spanish,younger than 13,"no, only English or Spanish",click here to respond,2025-07-24_00h10.29.300,empathy_intonation_perc_control,2024.2.4,Win32,59.52380952,66032bd297a2ab789c837bb2,68817205a84113384fffdfe3,6881b20fda55eb02d6897698,,,,,,,,,,,,,0,,,,,,,,,,,,,,,,,,,,,,,,,,,,,,,,,,,,,23,lampera,,,,,332.3731,333.8052,1,0,0.905,,0,32,32,22,1,REAL,FAKE,,,,,,,,,,,,,,,,,
,,,,,,,,,66032bd297a2ab789c837bb2,Cuban/Spanish,younger than 13,"no, only English or Spanish",click here to respond,2025-07-24_00h10.29.300,empathy_intonation_perc_control,2024.2.4,Win32,59.52380952,66032bd297a2ab789c837bb2,68817205a84113384fffdfe3,6881b20fda55eb02d6897698,,,,,,,,,,,,,0,,,,,,,,,,,,,,,,,,,,,,,,,,,,,,,,,,,,,30,alardio,,,,,333.8061,335.072,0,1,0.7326,,0,33,33,29,1,REAL,FAKE,,,,,,,,,,,,,,,,,
,,,,,,,,,66032bd297a2ab789c837bb2,Cuban/Spanish,younger than 13,"no, only English or Spanish",click here to respond,2025-07-24_00h10.29.300,empathy_intonation_perc_control,2024.2.4,Win32,59.52380952,66032bd297a2ab789c837bb2,68817205a84113384fffdfe3,6881b20fda55eb02d6897698,,,,,,,,,,,,,1,,,,,,,,,,,,,,,,,,,,,,,,,,,,,,,,,,,,,39,torpe,,,,,335.0728,336.4886,1,1,0.8815,,0,34,34,38,1,REAL,FAKE,,,,,,,,,,,,,,,,,
,,,,,,,,,66032bd297a2ab789c837bb2,Cuban/Spanish,younger than 13,"no, only English or Spanish",click here to respond,2025-07-24_00h10.29.300,empathy_intonation_perc_control,2024.2.4,Win32,59.52380952,66032bd297a2ab789c837bb2,68817205a84113384fffdfe3,6881b20fda55eb02d6897698,,,,,,,,,,,,,1,,,,,,,,,,,,,,,,,,,,,,,,,,,,,,,,,,,,,68,alegre,,,,,336.4897,337.9719,1,1,0.9557,,0,35,35,67,1,REAL,FAKE,,,,,,,,,,,,,,,,,
,,,,,,,,,66032bd297a2ab789c837bb2,Cuban/Spanish,younger than 13,"no, only English or Spanish",click here to respond,2025-07-24_00h10.29.300,empathy_intonation_perc_control,2024.2.4,Win32,59.52380952,66032bd297a2ab789c837bb2,68817205a84113384fffdfe3,6881b20fda55eb02d6897698,,,,,,,,,,,,,1,,,,,,,,,,,,,,,,,,,,,,,,,,,,,,,,,,,,,81,pozo,,,,,337.9728,339.1718,0,0,0.6673,,0,36,36,80,1,REAL,FAKE,,,,,,,,,,,,,,,,,
,,,,,,,,,66032bd297a2ab789c837bb2,Cuban/Spanish,younger than 13,"no, only English or Spanish",click here to respond,2025-07-24_00h10.29.300,empathy_intonation_perc_control,2024.2.4,Win32,59.52380952,66032bd297a2ab789c837bb2,68817205a84113384fffdfe3,6881b20fda55eb02d6897698,,,,,,,,,,,,,1,,,,,,,,,,,,,,,,,,,,,,,,,,,,,,,,,,,,,71,polvoriento,,,,,339.1728,340.3385,0,0,0.6398,,0,37,37,70,1,REAL,FAKE,,,,,,,,,,,,,,,,,
,,,,,,,,,66032bd297a2ab789c837bb2,Cuban/Spanish,younger than 13,"no, only English or Spanish",click here to respond,2025-07-24_00h10.29.300,empathy_intonation_perc_control,2024.2.4,Win32,59.52380952,66032bd297a2ab789c837bb2,68817205a84113384fffdfe3,6881b20fda55eb02d6897698,,,,,,,,,,,,,1,,,,,,,,,,,,,,,,,,,,,,,,,,,,,,,,,,,,,41,rebuscar,,,,,340.3396,341.4718,0,0,0.609,,0,38,38,40,1,REAL,FAKE,,,,,,,,,,,,,,,,,
,,,,,,,,,66032bd297a2ab789c837bb2,Cuban/Spanish,younger than 13,"no, only English or Spanish",click here to respond,2025-07-24_00h10.29.300,empathy_intonation_perc_control,2024.2.4,Win32,59.52380952,66032bd297a2ab789c837bb2,68817205a84113384fffdfe3,6881b20fda55eb02d6897698,,,,,,,,,,,,,1,,,,,,,,,,,,,,,,,,,,,,,,,,,,,,,,,,,,,75,yacer,,,,,341.4729,342.6885,0,0,0.6879,,0,39,39,74,1,REAL,FAKE,,,,,,,,,,,,,,,,,
,,,,,,,,,66032bd297a2ab789c837bb2,Cuban/Spanish,younger than 13,"no, only English or Spanish",click here to respond,2025-07-24_00h10.29.300,empathy_intonation_perc_control,2024.2.4,Win32,59.52380952,66032bd297a2ab789c837bb2,68817205a84113384fffdfe3,6881b20fda55eb02d6897698,,,,,,,,,,,,,1,,,,,,,,,,,,,,,,,,,,,,,,,,,,,,,,,,,,,77,tiburón,,,,,342.6893,344.1718,1,1,0.9563,,0,40,40,76,1,REAL,FAKE,,,,,,,,,,,,,,,,,
,,,,,,,,,66032bd297a2ab789c837bb2,Cuban/Spanish,younger than 13,"no, only English or Spanish",click here to respond,2025-07-24_00h10.29.300,empathy_intonation_perc_control,2024.2.4,Win32,59.52380952,66032bd297a2ab789c837bb2,68817205a84113384fffdfe3,6881b20fda55eb02d6897698,,,,,,,,,,,,,0,,,,,,,,,,,,,,,,,,,,,,,,,,,,,,,,,,,,,32,fatacidad,,,,,344.1728,347.7883,0,1,3.081,,0,41,41,31,1,REAL,FAKE,,,,,,,,,,,,,,,,,
,,,,,,,,,66032bd297a2ab789c837bb2,Cuban/Spanish,younger than 13,"no, only English or Spanish",click here to respond,2025-07-24_00h10.29.300,empathy_intonation_perc_control,2024.2.4,Win32,59.52380952,66032bd297a2ab789c837bb2,68817205a84113384fffdfe3,6881b20fda55eb02d6897698,,,,,,,,,,,,,1,,,,,,,,,,,,,,,,,,,,,,,,,,,,,,,,,,,,,73,hervidor,,,,,347.7893,348.9551,0,0,0.6302,,0,42,42,72,1,REAL,FAKE,,,,,,,,,,,,,,,,,
,,,,,,,,,66032bd297a2ab789c837bb2,Cuban/Spanish,younger than 13,"no, only English or Spanish",click here to respond,2025-07-24_00h10.29.300,empathy_intonation_perc_control,2024.2.4,Win32,59.52380952,66032bd297a2ab789c837bb2,68817205a84113384fffdfe3,6881b20fda55eb02d6897698,,,,,,,,,,,,,1,,,,,,,,,,,,,,,,,,,,,,,,,,,,,,,,,,,,,85,laúd,,,,,348.9564,351.7882,1,1,2.3058,,0,43,43,84,1,REAL,FAKE,,,,,,,,,,,,,,,,,
,,,,,,,,,66032bd297a2ab789c837bb2,Cuban/Spanish,younger than 13,"no, only English or Spanish",click here to respond,2025-07-24_00h10.29.300,empathy_intonation_perc_control,2024.2.4,Win32,59.52380952,66032bd297a2ab789c837bb2,68817205a84113384fffdfe3,6881b20fda55eb02d6897698,,,,,,,,,,,,,0,,,,,,,,,,,,,,,,,,,,,,,,,,,,,,,,,,,,,21,capillo,,,,,351.7892,353.1382,1,0,0.8149,,0,44,44,20,1,REAL,FAKE,,,,,,,,,,,,,,,,,
,,,,,,,,,66032bd297a2ab789c837bb2,Cuban/Spanish,younger than 13,"no, only English or Spanish",click here to respond,2025-07-24_00h10.29.300,empathy_intonation_perc_control,2024.2.4,Win32,59.52380952,66032bd297a2ab789c837bb2,68817205a84113384fffdfe3,6881b20fda55eb02d6897698,,,,,,,,,,,,,0,,,,,,,,,,,,,,,,,,,,,,,,,,,,,,,,,,,,,63,esposante,,,,,353.1391,354.7715,1,0,1.1085,,0,45,45,62,1,REAL,FAKE,,,,,,,,,,,,,,,,,
,,,,,,,,,66032bd297a2ab789c837bb2,Cuban/Spanish,younger than 13,"no, only English or Spanish",click here to respond,2025-07-24_00h10.29.300,empathy_intonation_perc_control,2024.2.4,Win32,59.52380952,66032bd297a2ab789c837bb2,68817205a84113384fffdfe3,6881b20fda55eb02d6897698,,,,,,,,,,,,,1,,,,,,,,,,,,,,,,,,,,,,,,,,,,,,,,,,,,,43,canela,,,,,354.7729,356.2382,1,1,0.941,,0,46,46,42,1,REAL,FAKE,,,,,,,,,,,,,,,,,
,,,,,,,,,66032bd297a2ab789c837bb2,Cuban/Spanish,younger than 13,"no, only English or Spanish",click here to respond,2025-07-24_00h10.29.300,empathy_intonation_perc_control,2024.2.4,Win32,59.52380952,66032bd297a2ab789c837bb2,68817205a84113384fffdfe3,6881b20fda55eb02d6897698,,,,,,,,,,,,,0,,,,,,,,,,,,,,,,,,,,,,,,,,,,,,,,,,,,,33,pauca,,,,,356.2392,357.4882,0,1,0.714,,0,47,47,32,1,REAL,FAKE,,,,,,,,,,,,,,,,,
,,,,,,,,,66032bd297a2ab789c837bb2,Cuban/Spanish,younger than 13,"no, only English or Spanish",click here to respond,2025-07-24_00h10.29.300,empathy_intonation_perc_control,2024.2.4,Win32,59.52380952,66032bd297a2ab789c837bb2,68817205a84113384fffdfe3,6881b20fda55eb02d6897698,,,,,,,,,,,,,0,,,,,,,,,,,,,,,,,,,,,,,,,,,,,,,,,,,,,70,temblo,,,,,357.489,359.1716,0,1,1.1513,,0,48,48,69,1,REAL,FAKE,,,,,,,,,,,,,,,,,
,,,,,,,,,66032bd297a2ab789c837bb2,Cuban/Spanish,younger than 13,"no, only English or Spanish",click here to respond,2025-07-24_00h10.29.300,empathy_intonation_perc_control,2024.2.4,Win32,59.52380952,66032bd297a2ab789c837bb2,68817205a84113384fffdfe3,6881b20fda55eb02d6897698,,,,,,,,,,,,,1,,,,,,,,,,,,,,,,,,,,,,,,,,,,,,,,,,,,,48,ladrón,,,,,359.1727,360.8214,0,0,1.1181,,0,49,49,47,1,REAL,FAKE,,,,,,,,,,,,,,,,,
,,,,,,,,,66032bd297a2ab789c837bb2,Cuban/Spanish,younger than 13,"no, only English or Spanish",click here to respond,2025-07-24_00h10.29.300,empathy_intonation_perc_control,2024.2.4,Win32,59.52380952,66032bd297a2ab789c837bb2,68817205a84113384fffdfe3,6881b20fda55eb02d6897698,,,,,,,,,,,,,1,,,,,,,,,,,,,,,,,,,,,,,,,,,,,,,,,,,,,36,loro,,,,,360.8223,362.2048,0,0,0.8557,,0,50,50,35,1,REAL,FAKE,,,,,,,,,,,,,,,,,
,,,,,,,,,66032bd297a2ab789c837bb2,Cuban/Spanish,younger than 13,"no, only English or Spanish",click here to respond,2025-07-24_00h10.29.300,empathy_intonation_perc_control,2024.2.4,Win32,59.52380952,66032bd297a2ab789c837bb2,68817205a84113384fffdfe3,6881b20fda55eb02d6897698,,,,,,,,,,,,,0,,,,,,,,,,,,,,,,,,,,,,,,,,,,,,,,,,,,,58,plaudir,,,,,362.2058,363.4548,0,1,0.7132,,0,51,51,57,1,REAL,FAKE,,,,,,,,,,,,,,,,,
,,,,,,,,,66032bd297a2ab789c837bb2,Cuban/Spanish,younger than 13,"no, only English or Spanish",click here to respond,2025-07-24_00h10.29.300,empathy_intonation_perc_control,2024.2.4,Win32,59.52380952,66032bd297a2ab789c837bb2,68817205a84113384fffdfe3,6881b20fda55eb02d6897698,,,,,,,,,,,,,1,,,,,,,,,,,,,,,,,,,,,,,,,,,,,,,,,,,,,89,prisa,,,,,363.4558,364.6047,1,1,0.6171,,0,52,52,88,1,REAL,FAKE,,,,,,,,,,,,,,,,,
,,,,,,,,,66032bd297a2ab789c837bb2,Cuban/Spanish,younger than 13,"no, only English or Spanish",click here to respond,2025-07-24_00h10.29.300,empathy_intonation_perc_control,2024.2.4,Win32,59.52380952,66032bd297a2ab789c837bb2,68817205a84113384fffdfe3,6881b20fda55eb02d6897698,,,,,,,,,,,,,0,,,,,,,,,,,,,,,,,,,,,,,,,,,,,,,,,,,,,66,hacido,,,,,364.6056,366.0547,0,1,0.9219,,0,53,53,65,1,REAL,FAKE,,,,,,,,,,,,,,,,,
,,,,,,,,,66032bd297a2ab789c837bb2,Cuban/Spanish,younger than 13,"no, only English or Spanish",click here to respond,2025-07-24_00h10.29.300,empathy_intonation_perc_control,2024.2.4,Win32,59.52380952,66032bd297a2ab789c837bb2,68817205a84113384fffdfe3,6881b20fda55eb02d6897698,,,,,,,,,,,,,1,,,,,,,,,,,,,,,,,,,,,,,,,,,,,,,,,,,,,86,barato,,,,,366.0555,367.3046,1,1,0.7145,,0,54,54,85,1,REAL,FAKE,,,,,,,,,,,,,,,,,
,,,,,,,,,66032bd297a2ab789c837bb2,Cuban/Spanish,younger than 13,"no, only English or Spanish",click here to respond,2025-07-24_00h10.29.300,empathy_intonation_perc_control,2024.2.4,Win32,59.52380952,66032bd297a2ab789c837bb2,68817205a84113384fffdfe3,6881b20fda55eb02d6897698,,,,,,,,,,,,,1,,,,,,,,,,,,,,,,,,,,,,,,,,,,,,,,,,,,,14,yunque,,,,,367.3058,368.4715,0,0,0.6304,,0,55,55,13,1,REAL,FAKE,,,,,,,,,,,,,,,,,
,,,,,,,,,66032bd297a2ab789c837bb2,Cuban/Spanish,younger than 13,"no, only English or Spanish",click here to respond,2025-07-24_00h10.29.300,empathy_intonation_perc_control,2024.2.4,Win32,59.52380952,66032bd297a2ab789c837bb2,68817205a84113384fffdfe3,6881b20fda55eb02d6897698,,,,,,,,,,,,,1,,,,,,,,,,,,,,,,,,,,,,,,,,,,,,,,,,,,,65,bizcocho,,,,,368.4724,369.7547,0,0,0.7477,,0,56,56,64,1,REAL,FAKE,,,,,,,,,,,,,,,,,
,,,,,,,,,66032bd297a2ab789c837bb2,Cuban/Spanish,younger than 13,"no, only English or Spanish",click here to respond,2025-07-24_00h10.29.300,empathy_intonation_perc_control,2024.2.4,Win32,59.52380952,66032bd297a2ab789c837bb2,68817205a84113384fffdfe3,6881b20fda55eb02d6897698,,,,,,,,,,,,,1,,,,,,,,,,,,,,,,,,,,,,,,,,,,,,,,,,,,,55,nevar,,,,,369.7557,371.4212,1,1,1.1316,,0,57,57,54,1,REAL,FAKE,,,,,,,,,,,,,,,,,
,,,,,,,,,66032bd297a2ab789c837bb2,Cuban/Spanish,younger than 13,"no, only English or Spanish",click here to respond,2025-07-24_00h10.29.300,empathy_intonation_perc_control,2024.2.4,Win32,59.52380952,66032bd297a2ab789c837bb2,68817205a84113384fffdfe3,6881b20fda55eb02d6897698,,,,,,,,,,,,,0,,,,,,,,,,,,,,,,,,,,,,,,,,,,,,,,,,,,,84,escuto,,,,,371.4223,372.9045,1,0,0.9502,,0,58,58,83,1,REAL,FAKE,,,,,,,,,,,,,,,,,
,,,,,,,,,66032bd297a2ab789c837bb2,Cuban/Spanish,younger than 13,"no, only English or Spanish",click here to respond,2025-07-24_00h10.29.300,empathy_intonation_perc_control,2024.2.4,Win32,59.52380952,66032bd297a2ab789c837bb2,68817205a84113384fffdfe3,6881b20fda55eb02d6897698,,,,,,,,,,,,,1,,,,,,,,,,,,,,,,,,,,,,,,,,,,,,,,,,,,,9,hacha,,,,,372.9057,374.1045,0,0,0.668,,0,59,59,8,1,REAL,FAKE,,,,,,,,,,,,,,,,,
,,,,,,,,,66032bd297a2ab789c837bb2,Cuban/Spanish,younger than 13,"no, only English or Spanish",click here to respond,2025-07-24_00h10.29.300,empathy_intonation_perc_control,2024.2.4,Win32,59.52380952,66032bd297a2ab789c837bb2,68817205a84113384fffdfe3,6881b20fda55eb02d6897698,,,,,,,,,,,,,1,,,,,,,,,,,,,,,,,,,,,,,,,,,,,,,,,,,,,57,tacaño,,,,,374.1054,375.6211,0,0,0.9915,,0,60,60,56,1,REAL,FAKE,,,,,,,,,,,,,,,,,
,,,,,,,,,66032bd297a2ab789c837bb2,Cuban/Spanish,younger than 13,"no, only English or Spanish",click here to respond,2025-07-24_00h10.29.300,empathy_intonation_perc_control,2024.2.4,Win32,59.52380952,66032bd297a2ab789c837bb2,68817205a84113384fffdfe3,6881b20fda55eb02d6897698,,,,,,,,,,,,,0,,,,,,,,,,,,,,,,,,,,,,,,,,,,,,,,,,,,,4,batillón,,,,,375.6222,377.1378,1,0,0.985,,0,61,61,3,1,REAL,FAKE,,,,,,,,,,,,,,,,,
,,,,,,,,,66032bd297a2ab789c837bb2,Cuban/Spanish,younger than 13,"no, only English or Spanish",click here to respond,2025-07-24_00h10.29.300,empathy_intonation_perc_control,2024.2.4,Win32,59.52380952,66032bd297a2ab789c837bb2,68817205a84113384fffdfe3,6881b20fda55eb02d6897698,,,,,,,,,,,,,1,,,,,,,,,,,,,,,,,,,,,,,,,,,,,,,,,,,,,44,cuchara,,,,,377.1388,378.8045,1,1,1.1313,,0,62,62,43,1,REAL,FAKE,,,,,,,,,,,,,,,,,
,,,,,,,,,66032bd297a2ab789c837bb2,Cuban/Spanish,younger than 13,"no, only English or Spanish",click here to respond,2025-07-24_00h10.29.300,empathy_intonation_perc_control,2024.2.4,Win32,59.52380952,66032bd297a2ab789c837bb2,68817205a84113384fffdfe3,6881b20fda55eb02d6897698,,,,,,,,,,,,,1,,,,,,,,,,,,,,,,,,,,,,,,,,,,,,,,,,,,,7,pésimo,,,,,378.8054,380.6045,1,1,1.2632,,0,63,63,6,1,REAL,FAKE,,,,,,,,,,,,,,,,,
,,,,,,,,,66032bd297a2ab789c837bb2,Cuban/Spanish,younger than 13,"no, only English or Spanish",click here to respond,2025-07-24_00h10.29.300,empathy_intonation_perc_control,2024.2.4,Win32,59.52380952,66032bd297a2ab789c837bb2,68817205a84113384fffdfe3,6881b20fda55eb02d6897698,,,,,,,,,,,,,1,,,,,,,,,,,,,,,,,,,,,,,,,,,,,,,,,,,,,52,camisa,,,,,380.6054,382.221,1,1,1.0829,,0,64,64,51,1,REAL,FAKE,,,,,,,,,,,,,,,,,
,,,,,,,,,66032bd297a2ab789c837bb2,Cuban/Spanish,younger than 13,"no, only English or Spanish",click here to respond,2025-07-24_00h10.29.300,empathy_intonation_perc_control,2024.2.4,Win32,59.52380952,66032bd297a2ab789c837bb2,68817205a84113384fffdfe3,6881b20fda55eb02d6897698,,,,,,,,,,,,,1,,,,,,,,,,,,,,,,,,,,,,,,,,,,,,,,,,,,,91,click the 1 key.,,,,,382.2224,383.6543,1,1,0.8976,,0,65,65,90,1,REAL,FAKE,,,,,,,,,,,,,,,,,
,,,,,,,,,66032bd297a2ab789c837bb2,Cuban/Spanish,younger than 13,"no, only English or Spanish",click here to respond,2025-07-24_00h10.29.300,empathy_intonation_perc_control,2024.2.4,Win32,59.52380952,66032bd297a2ab789c837bb2,68817205a84113384fffdfe3,6881b20fda55eb02d6897698,,,,,,,,,,,,,1,,,,,,,,,,,,,,,,,,,,,,,,,,,,,,,,,,,,,62,flaco,,,,,383.6552,385.071,1,1,0.8803,,0,66,66,61,1,REAL,FAKE,,,,,,,,,,,,,,,,,
,,,,,,,,,66032bd297a2ab789c837bb2,Cuban/Spanish,younger than 13,"no, only English or Spanish",click here to respond,2025-07-24_00h10.29.300,empathy_intonation_perc_control,2024.2.4,Win32,59.52380952,66032bd297a2ab789c837bb2,68817205a84113384fffdfe3,6881b20fda55eb02d6897698,,,,,,,,,,,,,1,,,,,,,,,,,,,,,,,,,,,,,,,,,,,,,,,,,,,38,estornudar,,,,,385.0718,386.4383,0,0,0.8426,,0,67,67,37,1,REAL,FAKE,,,,,,,,,,,,,,,,,
,,,,,,,,,66032bd297a2ab789c837bb2,Cuban/Spanish,younger than 13,"no, only English or Spanish",click here to respond,2025-07-24_00h10.29.300,empathy_intonation_perc_control,2024.2.4,Win32,59.52380952,66032bd297a2ab789c837bb2,68817205a84113384fffdfe3,6881b20fda55eb02d6897698,,,,,,,,,,,,,0,,,,,,,,,,,,,,,,,,,,,,,,,,,,,,,,,,,,,72,pemición,,,,,386.4392,388.2878,0,1,1.3138,,0,68,68,71,1,REAL,FAKE,,,,,,,,,,,,,,,,,
,,,,,,,,,66032bd297a2ab789c837bb2,Cuban/Spanish,younger than 13,"no, only English or Spanish",click here to respond,2025-07-24_00h10.29.300,empathy_intonation_perc_control,2024.2.4,Win32,59.52380952,66032bd297a2ab789c837bb2,68817205a84113384fffdfe3,6881b20fda55eb02d6897698,,,,,,,,,,,,,1,,,,,,,,,,,,,,,,,,,,,,,,,,,,,,,,,,,,,26,secuestro,,,,,388.2887,389.5543,1,1,0.7313,,0,69,69,25,1,REAL,FAKE,,,,,,,,,,,,,,,,,
,,,,,,,,,66032bd297a2ab789c837bb2,Cuban/Spanish,younger than 13,"no, only English or Spanish",click here to respond,2025-07-24_00h10.29.300,empathy_intonation_perc_control,2024.2.4,Win32,59.52380952,66032bd297a2ab789c837bb2,68817205a84113384fffdfe3,6881b20fda55eb02d6897698,,,,,,,,,,,,,0,,,,,,,,,,,,,,,,,,,,,,,,,,,,,,,,,,,,,19,brecedad,,,,,389.5552,390.8375,0,1,0.7539,,0,70,70,18,1,REAL,FAKE,,,,,,,,,,,,,,,,,
,,,,,,,,,66032bd297a2ab789c837bb2,Cuban/Spanish,younger than 13,"no, only English or Spanish",click here to respond,2025-07-24_00h10.29.300,empathy_intonation_perc_control,2024.2.4,Win32,59.52380952,66032bd297a2ab789c837bb2,68817205a84113384fffdfe3,6881b20fda55eb02d6897698,,,,,,,,,,,,,0,,,,,,,,,,,,,,,,,,,,,,,,,,,,,,,,,,,,,87,grodo,,,,,390.8385,392.271,0,1,0.8977,,0,71,71,86,1,REAL,FAKE,,,,,,,,,,,,,,,,,
,,,,,,,,,66032bd297a2ab789c837bb2,Cuban/Spanish,younger than 13,"no, only English or Spanish",click here to respond,2025-07-24_00h10.29.300,empathy_intonation_perc_control,2024.2.4,Win32,59.52380952,66032bd297a2ab789c837bb2,68817205a84113384fffdfe3,6881b20fda55eb02d6897698,,,,,,,,,,,,,1,,,,,,,,,,,,,,,,,,,,,,,,,,,,,,,,,,,,,28,merodear,,,,,392.2719,393.5876,0,0,0.7795,,0,72,72,27,1,REAL,FAKE,,,,,,,,,,,,,,,,,
,,,,,,,,,66032bd297a2ab789c837bb2,Cuban/Spanish,younger than 13,"no, only English or Spanish",click here to respond,2025-07-24_00h10.29.300,empathy_intonation_perc_control,2024.2.4,Win32,59.52380952,66032bd297a2ab789c837bb2,68817205a84113384fffdfe3,6881b20fda55eb02d6897698,,,,,,,,,,,,,0,,,,,,,,,,,,,,,,,,,,,,,,,,,,,,,,,,,,,50,flamida,,,,,393.5886,394.7542,1,0,0.6301,,0,73,73,49,1,REAL,FAKE,,,,,,,,,,,,,,,,,
,,,,,,,,,66032bd297a2ab789c837bb2,Cuban/Spanish,younger than 13,"no, only English or Spanish",click here to respond,2025-07-24_00h10.29.300,empathy_intonation_perc_control,2024.2.4,Win32,59.52380952,66032bd297a2ab789c837bb2,68817205a84113384fffdfe3,6881b20fda55eb02d6897698,,,,,,,,,,,,,1,,,,,,,,,,,,,,,,,,,,,,,,,,,,,,,,,,,,,40,alfombra,,,,,394.7551,395.8708,0,0,0.5862,,0,74,74,39,1,REAL,FAKE,,,,,,,,,,,,,,,,,
,,,,,,,,,66032bd297a2ab789c837bb2,Cuban/Spanish,younger than 13,"no, only English or Spanish",click here to respond,2025-07-24_00h10.29.300,empathy_intonation_perc_control,2024.2.4,Win32,59.52380952,66032bd297a2ab789c837bb2,68817205a84113384fffdfe3,6881b20fda55eb02d6897698,,,,,,,,,,,,,1,,,,,,,,,,,,,,,,,,,,,,,,,,,,,,,,,,,,,12,asesinato,,,,,395.8717,397.1541,0,0,0.7464,,0,75,75,11,1,REAL,FAKE,,,,,,,,,,,,,,,,,
,,,,,,,,,66032bd297a2ab789c837bb2,Cuban/Spanish,younger than 13,"no, only English or Spanish",click here to respond,2025-07-24_00h10.29.300,empathy_intonation_perc_control,2024.2.4,Win32,59.52380952,66032bd297a2ab789c837bb2,68817205a84113384fffdfe3,6881b20fda55eb02d6897698,,,,,,,,,,,,,1,,,,,,,,,,,,,,,,,,,,,,,,,,,,,,,,,,,,,20,ávido,,,,,397.1556,398.354,1,1,0.6705,,0,76,76,19,1,REAL,FAKE,,,,,,,,,,,,,,,,,
,,,,,,,,,66032bd297a2ab789c837bb2,Cuban/Spanish,younger than 13,"no, only English or Spanish",click here to respond,2025-07-24_00h10.29.300,empathy_intonation_perc_control,2024.2.4,Win32,59.52380952,66032bd297a2ab789c837bb2,68817205a84113384fffdfe3,6881b20fda55eb02d6897698,,,,,,,,,,,,,1,,,,,,,,,,,,,,,,,,,,,,,,,,,,,,,,,,,,,31,pandilla,,,,,398.3549,399.7373,1,1,0.8575,,0,77,77,30,1,REAL,FAKE,,,,,,,,,,,,,,,,,
,,,,,,,,,66032bd297a2ab789c837bb2,Cuban/Spanish,younger than 13,"no, only English or Spanish",click here to respond,2025-07-24_00h10.29.300,empathy_intonation_perc_control,2024.2.4,Win32,59.52380952,66032bd297a2ab789c837bb2,68817205a84113384fffdfe3,6881b20fda55eb02d6897698,,,,,,,,,,,,,1,,,,,,,,,,,,,,,,,,,,,,,,,,,,,,,,,,,,,37,granuja,,,,,399.7383,401.3873,0,0,1.1232,,0,78,78,36,1,REAL,FAKE,,,,,,,,,,,,,,,,,
,,,,,,,,,66032bd297a2ab789c837bb2,Cuban/Spanish,younger than 13,"no, only English or Spanish",click here to respond,2025-07-24_00h10.29.300,empathy_intonation_perc_control,2024.2.4,Win32,59.52380952,66032bd297a2ab789c837bb2,68817205a84113384fffdfe3,6881b20fda55eb02d6897698,,,,,,,,,,,,,1,,,,,,,,,,,,,,,,,,,,,,,,,,,,,,,,,,,,,59,besar,,,,,401.3882,402.8206,0,0,0.902,,0,79,79,58,1,REAL,FAKE,,,,,,,,,,,,,,,,,
,,,,,,,,,66032bd297a2ab789c837bb2,Cuban/Spanish,younger than 13,"no, only English or Spanish",click here to respond,2025-07-24_00h10.29.300,empathy_intonation_perc_control,2024.2.4,Win32,59.52380952,66032bd297a2ab789c837bb2,68817205a84113384fffdfe3,6881b20fda55eb02d6897698,,,,,,,,,,,,,0,,,,,,,,,,,,,,,,,,,,,,,,,,,,,,,,,,,,,17,floroso,,,,,402.8215,404.2707,0,1,0.9135,,0,80,80,16,1,REAL,FAKE,,,,,,,,,,,,,,,,,
,,,,,,,,,66032bd297a2ab789c837bb2,Cuban/Spanish,younger than 13,"no, only English or Spanish",click here to respond,2025-07-24_00h10.29.300,empathy_intonation_perc_control,2024.2.4,Win32,59.52380952,66032bd297a2ab789c837bb2,68817205a84113384fffdfe3,6881b20fda55eb02d6897698,,,,,,,,,,,,,1,,,,,,,,,,,,,,,,,,,,,,,,,,,,,,,,,,,,,80,hormiga,,,,,404.2716,405.9039,1,1,1.0989,,0,81,81,79,1,REAL,FAKE,,,,,,,,,,,,,,,,,
,,,,,,,,,66032bd297a2ab789c837bb2,Cuban/Spanish,younger than 13,"no, only English or Spanish",click here to respond,2025-07-24_00h10.29.300,empathy_intonation_perc_control,2024.2.4,Win32,59.52380952,66032bd297a2ab789c837bb2,68817205a84113384fffdfe3,6881b20fda55eb02d6897698,,,,,,,,,,,,,1,,,,,,,,,,,,,,,,,,,,,,,,,,,,,,,,,,,,,61,seda,,,,,405.9048,407.1872,1,1,0.7496,,0,82,82,60,1,REAL,FAKE,,,,,,,,,,,,,,,,,
,,,,,,,,,66032bd297a2ab789c837bb2,Cuban/Spanish,younger than 13,"no, only English or Spanish",click here to respond,2025-07-24_00h10.29.300,empathy_intonation_perc_control,2024.2.4,Win32,59.52380952,66032bd297a2ab789c837bb2,68817205a84113384fffdfe3,6881b20fda55eb02d6897698,,,,,,,,,,,,,0,,,,,,,,,,,,,,,,,,,,,,,,,,,,,,,,,,,,,74,cintro,,,,,407.1882,409.1872,1,0,1.4675,,0,83,83,73,1,REAL,FAKE,,,,,,,,,,,,,,,,,
,,,,,,,,,66032bd297a2ab789c837bb2,Cuban/Spanish,younger than 13,"no, only English or Spanish",click here to respond,2025-07-24_00h10.29.300,empathy_intonation_perc_control,2024.2.4,Win32,59.52380952,66032bd297a2ab789c837bb2,68817205a84113384fffdfe3,6881b20fda55eb02d6897698,,,,,,,,,,,,,1,,,,,,,,,,,,,,,,,,,,,,,,,,,,,,,,,,,,,54,fomentar,,,,,409.1881,410.6206,0,0,0.8959,,0,84,84,53,1,REAL,FAKE,,,,,,,,,,,,,,,,,
,,,,,,,,,66032bd297a2ab789c837bb2,Cuban/Spanish,younger than 13,"no, only English or Spanish",click here to respond,2025-07-24_00h10.29.300,empathy_intonation_perc_control,2024.2.4,Win32,59.52380952,66032bd297a2ab789c837bb2,68817205a84113384fffdfe3,6881b20fda55eb02d6897698,,,,,,,,,,,,,0,,,,,,,,,,,,,,,,,,,,,,,,,,,,,,,,,,,,,16,abracer,,,,,410.6215,411.8205,0,1,0.6718,,0,85,85,15,1,REAL,FAKE,,,,,,,,,,,,,,,,,
,,,,,,,,,66032bd297a2ab789c837bb2,Cuban/Spanish,younger than 13,"no, only English or Spanish",click here to respond,2025-07-24_00h10.29.300,empathy_intonation_perc_control,2024.2.4,Win32,59.52380952,66032bd297a2ab789c837bb2,68817205a84113384fffdfe3,6881b20fda55eb02d6897698,,,,,,,,,,,,,1,,,,,,,,,,,,,,,,,,,,,,,,,,,,,,,,,,,,,13,helar,,,,,411.8213,413.104,0,0,0.7474,,0,86,86,12,1,REAL,FAKE,,,,,,,,,,,,,,,,,
,,,,,,,,,66032bd297a2ab789c837bb2,Cuban/Spanish,younger than 13,"no, only English or Spanish",click here to respond,2025-07-24_00h10.29.300,empathy_intonation_perc_control,2024.2.4,Win32,59.52380952,66032bd297a2ab789c837bb2,68817205a84113384fffdfe3,6881b20fda55eb02d6897698,,,,,,,,,,,,,1,,,,,,,,,,,,,,,,,,,,,,,,,,,,,,,,,,,,,51,candado,,,,,413.105,414.3037,1,1,0.6651,,0,87,87,50,1,REAL,FAKE,,,,,,,,,,,,,,,,,
,,,,,,,,,66032bd297a2ab789c837bb2,Cuban/Spanish,younger than 13,"no, only English or Spanish",click here to respond,2025-07-24_00h10.29.300,empathy_intonation_perc_control,2024.2.4,Win32,59.52380952,66032bd297a2ab789c837bb2,68817205a84113384fffdfe3,6881b20fda55eb02d6897698,,,,,,,,,,,,,1,,,,,,,,,,,,,,,,,,,,,,,,,,,,,,,,,,,,,24,látigo,,,,,414.3046,415.5539,1,1,0.7127,,0,88,88,23,1,REAL,FAKE,,,,,,,,,,,,,,,,,
,,,,,,,,,66032bd297a2ab789c837bb2,Cuban/Spanish,younger than 13,"no, only English or Spanish",click here to respond,2025-07-24_00h10.29.300,empathy_intonation_perc_control,2024.2.4,Win32,59.52380952,66032bd297a2ab789c837bb2,68817205a84113384fffdfe3,6881b20fda55eb02d6897698,,,,,,,,,,,,,0,,,,,,,,,,,,,,,,,,,,,,,,,,,,,,,,,,,,,1,terzo,,,,,415.555,416.9037,0,1,0.8145,,0,89,89,0,1,REAL,FAKE,,,,,,,,,,,,,,,,,
,,,,,,,,,66032bd297a2ab789c837bb2,Cuban/Spanish,younger than 13,"no, only English or Spanish",click here to respond,2025-07-24_00h10.29.300,empathy_intonation_perc_control,2024.2.4,Win32,59.52380952,66032bd297a2ab789c837bb2,68817205a84113384fffdfe3,6881b20fda55eb02d6897698,,,,,,,,,,,,,0,,,,,,,,,,,,,,,,,,,,,,,,,,,,,,,,,,,,,42,cadallo,,,,,416.9047,418.1038,1,0,0.6633,,0,90,90,41,1,REAL,FAKE,,,,,,,,,,,,,,,,,
,,,,,,,,,66032bd297a2ab789c837bb2,Cuban/Spanish,younger than 13,"no, only English or Spanish",click here to respond,2025-07-24_00h10.29.300,empathy_intonation_perc_control,2024.2.4,Win32,59.52380952,66032bd297a2ab789c837bb2,68817205a84113384fffdfe3,6881b20fda55eb02d6897698,,,,,,,,,,,,,1,,,,,,,,,,,,,,,,,,,,,,,,,,,,,,,,,,,,,6,tergiversar,,,,,418.1047,419.3536,0,0,0.7229,,0,91,91,5,1,REAL,FAKE,,,,,,,,,,,,,,,,,
,,,,,,,,,66032bd297a2ab789c837bb2,Cuban/Spanish,younger than 13,"no, only English or Spanish",click here to respond,2025-07-24_00h10.29.300,empathy_intonation_perc_control,2024.2.4,Win32,59.52380952,66032bd297a2ab789c837bb2,68817205a84113384fffdfe3,6881b20fda55eb02d6897698,,,,,,,,,,,,,,,,,,,,,,,,,,,,,,,,,,,,,,,,,,,,,,,,,,,,,,,,,,,,,,,,,,,,,419.3539,435.7036,,,,,,,,,,,,,,,
,,,,,,,,,66032bd297a2ab789c837bb2,Cuban/Spanish,younger than 13,"no, only English or Spanish",click here to respond,2025-07-24_00h10.29.300,empathy_intonation_perc_control,2024.2.4,Win32,59.52380952,66032bd297a2ab789c837bb2,68817205a84113384fffdfe3,6881b20fda55eb02d6897698,,,,,,,,,,,,,,,,,,,,,,,,,,,1,,,,,,,,,,,,,,,,,,,,,,,,,,,,,,,,,,,,,,,,,,,,435.7231,442.5037,strongly agree,0,0,0,0,1,I can easily tell if someone else wants to enter a conversation.,1,0,1,0,,
,,,,,,,,,66032bd297a2ab789c837bb2,Cuban/Spanish,younger than 13,"no, only English or Spanish",click here to respond,2025-07-24_00h10.29.300,empathy_intonation_perc_control,2024.2.4,Win32,59.52380952,66032bd297a2ab789c837bb2,68817205a84113384fffdfe3,6881b20fda55eb02d6897698,,,,,,,,,,,,,,,,,,,,,,,,,,,2,,,,,,,,,,,,,,,,,,,,,,,,,,,,,,,,,,,,,,,,,,,,442.5059,446.6698,slightly agree,0,1,1,1,1,I prefer animals to humans.,0,1,0,0,,
,,,,,,,,,66032bd297a2ab789c837bb2,Cuban/Spanish,younger than 13,"no, only English or Spanish",click here to respond,2025-07-24_00h10.29.300,empathy_intonation_perc_control,2024.2.4,Win32,59.52380952,66032bd297a2ab789c837bb2,68817205a84113384fffdfe3,6881b20fda55eb02d6897698,,,,,,,,,,,,,,,,,,,,,,,,,,,3,,,,,,,,,,,,,,,,,,,,,,,,,,,,,,,,,,,,,,,,,,,,446.6725,448.9531,slightly agree,0,2,2,2,1,I try to keep up with the current trends and fashions.,0,1,0,0,,
,,,,,,,,,66032bd297a2ab789c837bb2,Cuban/Spanish,younger than 13,"no, only English or Spanish",click here to respond,2025-07-24_00h10.29.300,empathy_intonation_perc_control,2024.2.4,Win32,59.52380952,66032bd297a2ab789c837bb2,68817205a84113384fffdfe3,6881b20fda55eb02d6897698,,,,,,,,,,,,,,,,,,,,,,,,,,,4,,,,,,,,,,,,,,,,,,,,,,,,,,,,,,,,,,,,,,,,,,,,448.9556,457.5529,slightly disagree,0,3,3,3,1,"I find it difficult to explain to others things that I understand easily,   when they don't understand it first time.",1,0,0,1,,
,,,,,,,,,66032bd297a2ab789c837bb2,Cuban/Spanish,younger than 13,"no, only English or Spanish",click here to respond,2025-07-24_00h10.29.300,empathy_intonation_perc_control,2024.2.4,Win32,59.52380952,66032bd297a2ab789c837bb2,68817205a84113384fffdfe3,6881b20fda55eb02d6897698,,,,,,,,,,,,,,,,,,,,,,,,,,,5,,,,,,,,,,,,,,,,,,,,,,,,,,,,,,,,,,,,,,,,,,,,457.5545,460.8862,strongly agree,0,4,4,4,1,I dream most nights.,0,1,0,0,,
,,,,,,,,,66032bd297a2ab789c837bb2,Cuban/Spanish,younger than 13,"no, only English or Spanish",click here to respond,2025-07-24_00h10.29.300,empathy_intonation_perc_control,2024.2.4,Win32,59.52380952,66032bd297a2ab789c837bb2,68817205a84113384fffdfe3,6881b20fda55eb02d6897698,,,,,,,,,,,,,,,,,,,,,,,,,,,6,,,,,,,,,,,,,,,,,,,,,,,,,,,,,,,,,,,,,,,,,,,,460.8881,461.9696,strongly agree,0,5,5,5,1,I really enjoy caring for other people.,1,0,1,0,,
,,,,,,,,,66032bd297a2ab789c837bb2,Cuban/Spanish,younger than 13,"no, only English or Spanish",click here to respond,2025-07-24_00h10.29.300,empathy_intonation_perc_control,2024.2.4,Win32,59.52380952,66032bd297a2ab789c837bb2,68817205a84113384fffdfe3,6881b20fda55eb02d6897698,,,,,,,,,,,,,,,,,,,,,,,,,,,7,,,,,,,,,,,,,,,,,,,,,,,,,,,,,,,,,,,,,,,,,,,,461.9716,464.9195,slightly agree,0,6,6,6,1,I try to solve my own problems rather than discussing them with others.,0,1,0,0,,
,,,,,,,,,66032bd297a2ab789c837bb2,Cuban/Spanish,younger than 13,"no, only English or Spanish",click here to respond,2025-07-24_00h10.29.300,empathy_intonation_perc_control,2024.2.4,Win32,59.52380952,66032bd297a2ab789c837bb2,68817205a84113384fffdfe3,6881b20fda55eb02d6897698,,,,,,,,,,,,,,,,,,,,,,,,,,,8,,,,,,,,,,,,,,,,,,,,,,,,,,,,,,,,,,,,,,,,,,,,464.9212,468.2695,slightly disagree,0,7,7,7,1,I find it hard to know what to do in a social situation.,1,0,0,1,,
,,,,,,,,,66032bd297a2ab789c837bb2,Cuban/Spanish,younger than 13,"no, only English or Spanish",click here to respond,2025-07-24_00h10.29.300,empathy_intonation_perc_control,2024.2.4,Win32,59.52380952,66032bd297a2ab789c837bb2,68817205a84113384fffdfe3,6881b20fda55eb02d6897698,,,,,,,,,,,,,,,,,,,,,,,,,,,9,,,,,,,,,,,,,,,,,,,,,,,,,,,,,,,,,,,,,,,,,,,,468.2716,471.1528,slightly agree,0,8,8,8,1,I am at my best first thing in the morning.,0,1,0,0,,
,,,,,,,,,66032bd297a2ab789c837bb2,Cuban/Spanish,younger than 13,"no, only English or Spanish",click here to respond,2025-07-24_00h10.29.300,empathy_intonation_perc_control,2024.2.4,Win32,59.52380952,66032bd297a2ab789c837bb2,68817205a84113384fffdfe3,6881b20fda55eb02d6897698,,,,,,,,,,,,,,,,,,,,,,,,,,,10,,,,,,,,,,,,,,,,,,,,,,,,,,,,,,,,,,,,,,,,,,,,471.1548,474.3359,slightly agree,0,9,9,9,1,People often tell me that I went too far in driving my point home in a discussion.,1,0,0,1,,
