instructions_2afc.started,instructions_2afc.stopped,instructions_2afc_loop.thisRepN,instructions_2afc_loop.thisTrialN,instructions_2afc_loop.thisN,instructions_2afc_loop.thisIndex,instructions_2afc_loop.ran,instructions_text,continue_text,participant_id,"What variety of Spanish are you most familiar with? (e.g., Peruvian, Spanish, Mexican)",At what age did you begin learning Spanish?,Are you proficient in any languages other than English/Spanish?,"Are you familiar with Caribbean (e.g., Caribbean, Puerto Rican) or Galician Spanish?",date,expName,psychopyVersion,OS,frameRate,id,study_id,session,practice_2afc.started,practice_2afc.stopped,key_resp_2afc_practice.keys,key_resp_2afc_practice.corr,key_resp_2afc_practice.rt,key_resp_2afc_practice.duration,trials_2afc_practice_loop.thisRepN,trials_2afc_practice_loop.thisTrialN,trials_2afc_practice_loop.thisN,trials_2afc_practice_loop.thisIndex,trials_2afc_practice_loop.ran,path,correct_response,check_2afc.started,check_2afc.stopped,trial_2afc.started,trial_2afc.stopped,key_resp_2afc_trial.keys,key_resp_2afc_trial.corr,key_resp_2afc_trial.rt,key_resp_2afc_trial.duration,trials_2afc_loop.thisRepN,trials_2afc_loop.thisTrialN,trials_2afc_loop.thisN,trials_2afc_loop.thisIndex,trials_2afc_loop.ran,item_num,target,variety,instructions_lextale.started,instructions_lextale.stopped,instructions_lextale_loop.thisRepN,instructions_lextale_loop.thisTrialN,instructions_lextale_loop.thisN,instructions_lextale_loop.thisIndex,instructions_lextale_loop.ran,practice_lextale.started,practice_lextale.stopped,key_resp_lextale_practice.keys,key_resp_lextale_practice.corr,key_resp_lextale_practice.rt,key_resp_lextale_practice.duration,practice_feedback_lextale.started,practice_feedback_lextale.stopped,trials_lextale_practice_loop.thisRepN,trials_lextale_practice_loop.thisTrialN,trials_lextale_practice_loop.thisN,trials_lextale_practice_loop.thisIndex,trials_lextale_practice_loop.ran,stim,word,prac_button_real,prac_button_false,check_lextale.started,check_lextale.stopped,trial_lextale.started,trial_lextale.stopped,key_resp_lextale_trial.keys,key_resp_lextale_trial.corr,key_resp_lextale_trial.rt,key_resp_lextale_trial.duration,trials_lextale_loop.thisRepN,trials_lextale_loop.thisTrialN,trials_lextale_loop.thisN,trials_lextale_loop.thisIndex,trials_lextale_loop.ran,button_real,button_false,instructions_eq.started,instructions_eq.stopped,trial_eq.started,trial_eq.stopped,slider_eq_trial.response,trials_eq_loop.thisRepN,trials_eq_loop.thisTrialN,trials_eq_loop.thisN,trials_eq_loop.thisIndex,trials_eq_loop.ran,item,is_test_item,is_distractor,is_agree_score,is_disagree_score,end_exp.started,end_exp.stopped
0.0308,5.1717,0,0,0,0,1,"In the following task you are going to hear a series of utterances. 

  You will decide if the utterances sound like questions or not using your keyboard.", (press the spacebar to continue),660d6b2e957fa582ec87816f,Spanish,13 or older,"no, only English or Spanish",no,2025-07-24_09h24.54.372,empathy_intonation_perc_control,2024.2.4,Win32,59.88023952,660d6b2e957fa582ec87816f,68817205a84113384fffdfe3,688233a44468702aa1f2dcff,,,,,,,,,,,,,,,,,,,,,,,,,,,,,,,,,,,,,,,,,,,,,,,,,,,,,,,,,,,,,,,,,,,,,,,,,,,,,,,,,,,,,
5.1764,12.837,0,1,1,1,1,"If you believe the utterance is a question, type '1' (for 'yes') and if you do not 
  believe it is a question type '0' (for 'no').

  Let's practice a bit...", (press the spacebar to continue),660d6b2e957fa582ec87816f,Spanish,13 or older,"no, only English or Spanish",no,2025-07-24_09h24.54.372,empathy_intonation_perc_control,2024.2.4,Win32,59.88023952,660d6b2e957fa582ec87816f,68817205a84113384fffdfe3,688233a44468702aa1f2dcff,,,,,,,,,,,,,,,,,,,,,,,,,,,,,,,,,,,,,,,,,,,,,,,,,,,,,,,,,,,,,,,,,,,,,,,,,,,,,,,,,,,,,
,,,,,,,,,660d6b2e957fa582ec87816f,Spanish,13 or older,"no, only English or Spanish",no,2025-07-24_09h24.54.372,empathy_intonation_perc_control,2024.2.4,Win32,59.88023952,660d6b2e957fa582ec87816f,68817205a84113384fffdfe3,688233a44468702aa1f2dcff,12.8549,16.1204,0,1,2.7321,,0,0,0,6,1,./stim/wavs/peruvian_statement_filler_El-nino-habla-con-su-madre.wav,0,,,,,,,,,,,,,,,,,,,,,,,,,,,,,,,,,,,,,,,,,,,,,,,,,,,,,,,,,,,,,,,,,,,,,,,,
,,,,,,,,,660d6b2e957fa582ec87816f,Spanish,13 or older,"no, only English or Spanish",no,2025-07-24_09h24.54.372,empathy_intonation_perc_control,2024.2.4,Win32,59.88023952,660d6b2e957fa582ec87816f,68817205a84113384fffdfe3,688233a44468702aa1f2dcff,16.1218,18.0366,1,1,1.3869,,0,1,1,1,1,./stim/wavs/argentine_question_filler_Mi-vecino-habla-mucho.wav,1,,,,,,,,,,,,,,,,,,,,,,,,,,,,,,,,,,,,,,,,,,,,,,,,,,,,,,,,,,,,,,,,,,,,,,,,
,,,,,,,,,660d6b2e957fa582ec87816f,Spanish,13 or older,"no, only English or Spanish",no,2025-07-24_09h24.54.372,empathy_intonation_perc_control,2024.2.4,Win32,59.88023952,660d6b2e957fa582ec87816f,68817205a84113384fffdfe3,688233a44468702aa1f2dcff,18.0375,20.3862,0,1,1.8174,,0,2,2,7,1,./stim/wavs/puertorican_statement_filler_La-nina-pinta-con-su-amiga.wav,0,,,,,,,,,,,,,,,,,,,,,,,,,,,,,,,,,,,,,,,,,,,,,,,,,,,,,,,,,,,,,,,,,,,,,,,,
,,,,,,,,,660d6b2e957fa582ec87816f,Spanish,13 or older,"no, only English or Spanish",no,2025-07-24_09h24.54.372,empathy_intonation_perc_control,2024.2.4,Win32,59.88023952,660d6b2e957fa582ec87816f,68817205a84113384fffdfe3,688233a44468702aa1f2dcff,20.3873,24.3871,1,1,3.4762,,0,3,3,0,1,./stim/wavs/castilian_question_filler_Mi-esposo-conoce-al-chico.wav,1,,,,,,,,,,,,,,,,,,,,,,,,,,,,,,,,,,,,,,,,,,,,,,,,,,,,,,,,,,,,,,,,,,,,,,,,
,,,,,,,,,660d6b2e957fa582ec87816f,Spanish,13 or older,"no, only English or Spanish",no,2025-07-24_09h24.54.372,empathy_intonation_perc_control,2024.2.4,Win32,59.88023952,660d6b2e957fa582ec87816f,68817205a84113384fffdfe3,688233a44468702aa1f2dcff,24.3879,28.0192,0,0,3.1,,0,4,4,2,1,./stim/wavs/chilean_question_filler_Mi-padre-cantaba-bien.wav,1,,,,,,,,,,,,,,,,,,,,,,,,,,,,,,,,,,,,,,,,,,,,,,,,,,,,,,,,,,,,,,,,,,,,,,,,
,,,,,,,,,660d6b2e957fa582ec87816f,Spanish,13 or older,"no, only English or Spanish",no,2025-07-24_09h24.54.372,empathy_intonation_perc_control,2024.2.4,Win32,59.88023952,660d6b2e957fa582ec87816f,68817205a84113384fffdfe3,688233a44468702aa1f2dcff,28.0202,30.3528,0,1,1.8002,,0,5,5,5,1,./stim/wavs/andalusian_statement_filler_Alberto-nunca-se-afeita.wav,0,,,,,,,,,,,,,,,,,,,,,,,,,,,,,,,,,,,,,,,,,,,,,,,,,,,,,,,,,,,,,,,,,,,,,,,,
,,,,,,,,,660d6b2e957fa582ec87816f,Spanish,13 or older,"no, only English or Spanish",no,2025-07-24_09h24.54.372,empathy_intonation_perc_control,2024.2.4,Win32,59.88023952,660d6b2e957fa582ec87816f,68817205a84113384fffdfe3,688233a44468702aa1f2dcff,30.3538,32.7354,0,1,1.856,,0,6,6,4,1,./stim/wavs/cuban_statement_filler_Cocinabas-por-la-noche.wav,0,,,,,,,,,,,,,,,,,,,,,,,,,,,,,,,,,,,,,,,,,,,,,,,,,,,,,,,,,,,,,,,,,,,,,,,,
,,,,,,,,,660d6b2e957fa582ec87816f,Spanish,13 or older,"no, only English or Spanish",no,2025-07-24_09h24.54.372,empathy_intonation_perc_control,2024.2.4,Win32,59.88023952,660d6b2e957fa582ec87816f,68817205a84113384fffdfe3,688233a44468702aa1f2dcff,32.7361,34.9856,1,1,1.7255,,0,7,7,3,1,./stim/wavs/mexican_question_filler_Felipe-no-tiene-contrasena.wav,1,,,,,,,,,,,,,,,,,,,,,,,,,,,,,,,,,,,,,,,,,,,,,,,,,,,,,,,,,,,,,,,,,,,,,,,,
,,,,,,,,,660d6b2e957fa582ec87816f,Spanish,13 or older,"no, only English or Spanish",no,2025-07-24_09h24.54.372,empathy_intonation_perc_control,2024.2.4,Win32,59.88023952,660d6b2e957fa582ec87816f,68817205a84113384fffdfe3,688233a44468702aa1f2dcff,,,,,,,,,,,,,,34.9861,39.2021,,,,,,,,,,,,,,,,,,,,,,,,,,,,,,,,,,,,,,,,,,,,,,,,,,,,,,,,,,,,,,,,,,,,,,
,,,,,,,,,660d6b2e957fa582ec87816f,Spanish,13 or older,"no, only English or Spanish",no,2025-07-24_09h24.54.372,empathy_intonation_perc_control,2024.2.4,Win32,59.88023952,660d6b2e957fa582ec87816f,68817205a84113384fffdfe3,688233a44468702aa1f2dcff,,,,,,,,,,,,./stim/wavs/cuban_mismatch_interrogative-total-yn_El-hombre-mira-la-luna.wav,1,,,39.2125,41.4765,0,0,1.7499,,0,0,0,29,1,30,1,cuban,,,,,,,,,,,,,,,,,,,,,,,,,,,,,,,,,,,,,,,,,,,,,,,,,,,,,,,,
,,,,,,,,,660d6b2e957fa582ec87816f,Spanish,13 or older,"no, only English or Spanish",no,2025-07-24_09h24.54.372,empathy_intonation_perc_control,2024.2.4,Win32,59.88023952,660d6b2e957fa582ec87816f,68817205a84113384fffdfe3,688233a44468702aa1f2dcff,,,,,,,,,,,,./stim/wavs/puertorican_match_declarative-broad-focus_Emilio-ama-la-marcha.wav,0,,,41.4774,43.5927,0,1,1.5835,,0,1,1,65,1,66,0,puertorican,,,,,,,,,,,,,,,,,,,,,,,,,,,,,,,,,,,,,,,,,,,,,,,,,,,,,,,,
,,,,,,,,,660d6b2e957fa582ec87816f,Spanish,13 or older,"no, only English or Spanish",no,2025-07-24_09h24.54.372,empathy_intonation_perc_control,2024.2.4,Win32,59.88023952,660d6b2e957fa582ec87816f,68817205a84113384fffdfe3,688233a44468702aa1f2dcff,,,,,,,,,,,,./stim/wavs/puertorican_mismatch_interrogative-total-yn_Mi-madre-come-la-fruta.wav,1,,,43.5937,45.7349,0,0,1.6089,,0,2,2,43,1,44,1,puertorican,,,,,,,,,,,,,,,,,,,,,,,,,,,,,,,,,,,,,,,,,,,,,,,,,,,,,,,,
,,,,,,,,,660d6b2e957fa582ec87816f,Spanish,13 or older,"no, only English or Spanish",no,2025-07-24_09h24.54.372,empathy_intonation_perc_control,2024.2.4,Win32,59.88023952,660d6b2e957fa582ec87816f,68817205a84113384fffdfe3,688233a44468702aa1f2dcff,,,,,,,,,,,,./stim/wavs/cuban_mismatch_declarative-broad-focus_Mi-novio-viene-del-lago.wav,0,,,45.7356,48.0182,0,1,1.7523,,0,3,3,76,1,77,0,cuban,,,,,,,,,,,,,,,,,,,,,,,,,,,,,,,,,,,,,,,,,,,,,,,,,,,,,,,,
,,,,,,,,,660d6b2e957fa582ec87816f,Spanish,13 or older,"no, only English or Spanish",no,2025-07-24_09h24.54.372,empathy_intonation_perc_control,2024.2.4,Win32,59.88023952,660d6b2e957fa582ec87816f,68817205a84113384fffdfe3,688233a44468702aa1f2dcff,,,,,,,,,,,,./stim/wavs/castilian_match_interrogative-total-yn_Maria-bebe-el-vino.wav,1,,,48.0191,50.1011,1,1,1.5531,,0,4,4,3,1,4,0,castilian,,,,,,,,,,,,,,,,,,,,,,,,,,,,,,,,,,,,,,,,,,,,,,,,,,,,,,,,
,,,,,,,,,660d6b2e957fa582ec87816f,Spanish,13 or older,"no, only English or Spanish",no,2025-07-24_09h24.54.372,empathy_intonation_perc_control,2024.2.4,Win32,59.88023952,660d6b2e957fa582ec87816f,68817205a84113384fffdfe3,688233a44468702aa1f2dcff,,,,,,,,,,,,./stim/wavs/cuban_match_declarative-broad-focus_Ana-lleva-el-abrigo.wav,0,,,50.102,52.2342,0,1,1.6003,,0,5,5,50,1,51,0,cuban,,,,,,,,,,,,,,,,,,,,,,,,,,,,,,,,,,,,,,,,,,,,,,,,,,,,,,,,
,,,,,,,,,660d6b2e957fa582ec87816f,Spanish,13 or older,"no, only English or Spanish",no,2025-07-24_09h24.54.372,empathy_intonation_perc_control,2024.2.4,Win32,59.88023952,660d6b2e957fa582ec87816f,68817205a84113384fffdfe3,688233a44468702aa1f2dcff,,,,,,,,,,,,./stim/wavs/cuban_match_declarative-broad-focus_Mariano-habla-del-tiempo.wav,0,,,52.2352,54.5011,0,1,1.7339,,0,6,6,54,1,55,0,cuban,,,,,,,,,,,,,,,,,,,,,,,,,,,,,,,,,,,,,,,,,,,,,,,,,,,,,,,,
,,,,,,,,,660d6b2e957fa582ec87816f,Spanish,13 or older,"no, only English or Spanish",no,2025-07-24_09h24.54.372,empathy_intonation_perc_control,2024.2.4,Win32,59.88023952,660d6b2e957fa582ec87816f,68817205a84113384fffdfe3,688233a44468702aa1f2dcff,,,,,,,,,,,,./stim/wavs/mexican_mismatch_interrogative-total-yn_Mi-tia-odia-la-lluvia.wav,1,,,54.5023,56.7674,1,1,1.7336,,0,7,7,38,1,39,0,mexican,,,,,,,,,,,,,,,,,,,,,,,,,,,,,,,,,,,,,,,,,,,,,,,,,,,,,,,,
,,,,,,,,,660d6b2e957fa582ec87816f,Spanish,13 or older,"no, only English or Spanish",no,2025-07-24_09h24.54.372,empathy_intonation_perc_control,2024.2.4,Win32,59.88023952,660d6b2e957fa582ec87816f,68817205a84113384fffdfe3,688233a44468702aa1f2dcff,,,,,,,,,,,,./stim/wavs/mexican_mismatch_interrogative-total-yn_Mi-novio-viene-del-lago.wav,1,,,56.7682,58.9338,1,1,1.6419,,0,8,8,37,1,38,0,mexican,,,,,,,,,,,,,,,,,,,,,,,,,,,,,,,,,,,,,,,,,,,,,,,,,,,,,,,,
,,,,,,,,,660d6b2e957fa582ec87816f,Spanish,13 or older,"no, only English or Spanish",no,2025-07-24_09h24.54.372,empathy_intonation_perc_control,2024.2.4,Win32,59.88023952,660d6b2e957fa582ec87816f,68817205a84113384fffdfe3,688233a44468702aa1f2dcff,,,,,,,,,,,,./stim/wavs/cuban_match_declarative-broad-focus_Manuela-vende-el-carro.wav,0,,,58.9354,61.2251,0,1,1.7671,,0,9,9,52,1,53,0,cuban,,,,,,,,,,,,,,,,,,,,,,,,,,,,,,,,,,,,,,,,,,,,,,,,,,,,,,,,
,,,,,,,,,660d6b2e957fa582ec87816f,Spanish,13 or older,"no, only English or Spanish",no,2025-07-24_09h24.54.372,empathy_intonation_perc_control,2024.2.4,Win32,59.88023952,660d6b2e957fa582ec87816f,68817205a84113384fffdfe3,688233a44468702aa1f2dcff,,,,,,,,,,,,./stim/wavs/castilian_mismatch_interrogative-total-yn_La-maestra-vive-en-Paris.wav,1,,,61.2259,64.0581,1,1,2.3003,,0,10,10,24,1,25,0,castilian,,,,,,,,,,,,,,,,,,,,,,,,,,,,,,,,,,,,,,,,,,,,,,,,,,,,,,,,
,,,,,,,,,660d6b2e957fa582ec87816f,Spanish,13 or older,"no, only English or Spanish",no,2025-07-24_09h24.54.372,empathy_intonation_perc_control,2024.2.4,Win32,59.88023952,660d6b2e957fa582ec87816f,68817205a84113384fffdfe3,688233a44468702aa1f2dcff,,,,,,,,,,,,./stim/wavs/puertorican_match_declarative-broad-focus_Daniel-iba-a-Bolivia.wav,0,,,64.0589,66.3245,0,1,1.7335,,0,11,11,63,1,64,0,puertorican,,,,,,,,,,,,,,,,,,,,,,,,,,,,,,,,,,,,,,,,,,,,,,,,,,,,,,,,
,,,,,,,,,660d6b2e957fa582ec87816f,Spanish,13 or older,"no, only English or Spanish",no,2025-07-24_09h24.54.372,empathy_intonation_perc_control,2024.2.4,Win32,59.88023952,660d6b2e957fa582ec87816f,68817205a84113384fffdfe3,688233a44468702aa1f2dcff,,,,,,,,,,,,./stim/wavs/puertorican_mismatch_declarative-broad-focus_La-maestra-vive-en-Paris.wav,0,,,66.3254,69.141,0,1,2.2943,,0,12,12,86,1,87,0,puertorican,,,,,,,,,,,,,,,,,,,,,,,,,,,,,,,,,,,,,,,,,,,,,,,,,,,,,,,,
,,,,,,,,,660d6b2e957fa582ec87816f,Spanish,13 or older,"no, only English or Spanish",no,2025-07-24_09h24.54.372,empathy_intonation_perc_control,2024.2.4,Win32,59.88023952,660d6b2e957fa582ec87816f,68817205a84113384fffdfe3,688233a44468702aa1f2dcff,,,,,,,,,,,,./stim/wavs/castilian_match_interrogative-total-yn_Emilio-ama-la-marcha.wav,1,,,69.1418,71.3345,1,1,1.6764,,0,13,13,1,1,2,0,castilian,,,,,,,,,,,,,,,,,,,,,,,,,,,,,,,,,,,,,,,,,,,,,,,,,,,,,,,,
,,,,,,,,,660d6b2e957fa582ec87816f,Spanish,13 or older,"no, only English or Spanish",no,2025-07-24_09h24.54.372,empathy_intonation_perc_control,2024.2.4,Win32,59.88023952,660d6b2e957fa582ec87816f,68817205a84113384fffdfe3,688233a44468702aa1f2dcff,,,,,,,,,,,,./stim/wavs/mexican_mismatch_declarative-broad-focus_La-maestra-vive-en-Paris.wav,0,,,71.3353,73.6498,0,1,1.7882,,0,14,14,80,1,81,0,mexican,,,,,,,,,,,,,,,,,,,,,,,,,,,,,,,,,,,,,,,,,,,,,,,,,,,,,,,,
,,,,,,,,,660d6b2e957fa582ec87816f,Spanish,13 or older,"no, only English or Spanish",no,2025-07-24_09h24.54.372,empathy_intonation_perc_control,2024.2.4,Win32,59.88023952,660d6b2e957fa582ec87816f,68817205a84113384fffdfe3,688233a44468702aa1f2dcff,,,,,,,,,,,,./stim/wavs/mexican_mismatch_interrogative-total-yn_El-nino-oye-el-rio.wav,1,,,73.6512,76.083,1,1,1.8837,,0,15,15,35,1,36,0,mexican,,,,,,,,,,,,,,,,,,,,,,,,,,,,,,,,,,,,,,,,,,,,,,,,,,,,,,,,
,,,,,,,,,660d6b2e957fa582ec87816f,Spanish,13 or older,"no, only English or Spanish",no,2025-07-24_09h24.54.372,empathy_intonation_perc_control,2024.2.4,Win32,59.88023952,660d6b2e957fa582ec87816f,68817205a84113384fffdfe3,688233a44468702aa1f2dcff,,,,,,,,,,,,./stim/wavs/mexican_match_interrogative-total-yn_Marta-abre-el-regalo.wav,1,,,76.0837,78.516,1,1,1.9005,,0,16,16,17,1,18,0,mexican,,,,,,,,,,,,,,,,,,,,,,,,,,,,,,,,,,,,,,,,,,,,,,,,,,,,,,,,
,,,,,,,,,660d6b2e957fa582ec87816f,Spanish,13 or older,"no, only English or Spanish",no,2025-07-24_09h24.54.372,empathy_intonation_perc_control,2024.2.4,Win32,59.88023952,660d6b2e957fa582ec87816f,68817205a84113384fffdfe3,688233a44468702aa1f2dcff,,,,,,,,,,,,./stim/wavs/puertorican_mismatch_declarative-broad-focus_El-bebe-comia-muy-bien.wav,0,,,78.5167,80.6826,0,1,1.6388,,0,17,17,83,1,84,0,puertorican,,,,,,,,,,,,,,,,,,,,,,,,,,,,,,,,,,,,,,,,,,,,,,,,,,,,,,,,
,,,,,,,,,660d6b2e957fa582ec87816f,Spanish,13 or older,"no, only English or Spanish",no,2025-07-24_09h24.54.372,empathy_intonation_perc_control,2024.2.4,Win32,59.88023952,660d6b2e957fa582ec87816f,68817205a84113384fffdfe3,688233a44468702aa1f2dcff,,,,,,,,,,,,./stim/wavs/castilian_mismatch_interrogative-total-yn_Mi-madre-come-la-fruta.wav,1,,,80.6835,82.899,1,1,1.7039,,0,18,18,26,1,27,0,castilian,,,,,,,,,,,,,,,,,,,,,,,,,,,,,,,,,,,,,,,,,,,,,,,,,,,,,,,,
,,,,,,,,,660d6b2e957fa582ec87816f,Spanish,13 or older,"no, only English or Spanish",no,2025-07-24_09h24.54.372,empathy_intonation_perc_control,2024.2.4,Win32,59.88023952,660d6b2e957fa582ec87816f,68817205a84113384fffdfe3,688233a44468702aa1f2dcff,,,,,,,,,,,,./stim/wavs/mexican_mismatch_interrogative-total-yn_El-hombre-mira-la-luna.wav,1,,,82.8996,84.9323,1,1,1.5076,,0,19,19,34,1,35,0,mexican,,,,,,,,,,,,,,,,,,,,,,,,,,,,,,,,,,,,,,,,,,,,,,,,,,,,,,,,
,,,,,,,,,660d6b2e957fa582ec87816f,Spanish,13 or older,"no, only English or Spanish",no,2025-07-24_09h24.54.372,empathy_intonation_perc_control,2024.2.4,Win32,59.88023952,660d6b2e957fa582ec87816f,68817205a84113384fffdfe3,688233a44468702aa1f2dcff,,,,,,,,,,,,./stim/wavs/puertorican_match_interrogative-total-yn_Daniel-iba-a-Bolivia.wav,1,,,84.9329,87.4154,0,0,1.9504,,0,20,20,19,1,20,1,puertorican,,,,,,,,,,,,,,,,,,,,,,,,,,,,,,,,,,,,,,,,,,,,,,,,,,,,,,,,
,,,,,,,,,660d6b2e957fa582ec87816f,Spanish,13 or older,"no, only English or Spanish",no,2025-07-24_09h24.54.372,empathy_intonation_perc_control,2024.2.4,Win32,59.88023952,660d6b2e957fa582ec87816f,68817205a84113384fffdfe3,688233a44468702aa1f2dcff,,,,,,,,,,,,./stim/wavs/castilian_match_interrogative-total-yn_Marta-abre-el-regalo.wav,1,,,87.4162,90.1066,1,1,2.1816,,0,21,21,5,1,6,0,castilian,,,,,,,,,,,,,,,,,,,,,,,,,,,,,,,,,,,,,,,,,,,,,,,,,,,,,,,,
,,,,,,,,,660d6b2e957fa582ec87816f,Spanish,13 or older,"no, only English or Spanish",no,2025-07-24_09h24.54.372,empathy_intonation_perc_control,2024.2.4,Win32,59.88023952,660d6b2e957fa582ec87816f,68817205a84113384fffdfe3,688233a44468702aa1f2dcff,,,,,,,,,,,,./stim/wavs/castilian_mismatch_declarative-broad-focus_Mi-tia-odia-la-lluvia.wav,0,,,90.1076,92.6153,0,1,1.9833,,0,22,22,72,1,73,0,castilian,,,,,,,,,,,,,,,,,,,,,,,,,,,,,,,,,,,,,,,,,,,,,,,,,,,,,,,,
,,,,,,,,,660d6b2e957fa582ec87816f,Spanish,13 or older,"no, only English or Spanish",no,2025-07-24_09h24.54.372,empathy_intonation_perc_control,2024.2.4,Win32,59.88023952,660d6b2e957fa582ec87816f,68817205a84113384fffdfe3,688233a44468702aa1f2dcff,,,,,,,,,,,,./stim/wavs/castilian_mismatch_declarative-broad-focus_La-nina-lava-el-plato.wav,0,,,92.6162,94.9061,0,1,1.7668,,0,23,23,70,1,71,0,castilian,,,,,,,,,,,,,,,,,,,,,,,,,,,,,,,,,,,,,,,,,,,,,,,,,,,,,,,,
,,,,,,,,,660d6b2e957fa582ec87816f,Spanish,13 or older,"no, only English or Spanish",no,2025-07-24_09h24.54.372,empathy_intonation_perc_control,2024.2.4,Win32,59.88023952,660d6b2e957fa582ec87816f,68817205a84113384fffdfe3,688233a44468702aa1f2dcff,,,,,,,,,,,,./stim/wavs/puertorican_match_interrogative-total-yn_Manuela-vende-el-carro.wav,1,,,94.907,97.5648,0,0,2.1414,,0,24,24,22,1,23,1,puertorican,,,,,,,,,,,,,,,,,,,,,,,,,,,,,,,,,,,,,,,,,,,,,,,,,,,,,,,,
,,,,,,,,,660d6b2e957fa582ec87816f,Spanish,13 or older,"no, only English or Spanish",no,2025-07-24_09h24.54.372,empathy_intonation_perc_control,2024.2.4,Win32,59.88023952,660d6b2e957fa582ec87816f,68817205a84113384fffdfe3,688233a44468702aa1f2dcff,,,,,,,,,,,,./stim/wavs/castilian_mismatch_declarative-broad-focus_Mi-novio-viene-del-lago.wav,0,,,97.5657,100.3481,0,1,2.2504,,0,25,25,71,1,72,0,castilian,,,,,,,,,,,,,,,,,,,,,,,,,,,,,,,,,,,,,,,,,,,,,,,,,,,,,,,,
,,,,,,,,,660d6b2e957fa582ec87816f,Spanish,13 or older,"no, only English or Spanish",no,2025-07-24_09h24.54.372,empathy_intonation_perc_control,2024.2.4,Win32,59.88023952,660d6b2e957fa582ec87816f,68817205a84113384fffdfe3,688233a44468702aa1f2dcff,,,,,,,,,,,,./stim/wavs/cuban_match_interrogative-total-yn_Manuela-vende-el-carro.wav,1,,,100.3491,102.2645,0,0,1.3838,,0,26,26,8,1,9,1,cuban,,,,,,,,,,,,,,,,,,,,,,,,,,,,,,,,,,,,,,,,,,,,,,,,,,,,,,,,
,,,,,,,,,660d6b2e957fa582ec87816f,Spanish,13 or older,"no, only English or Spanish",no,2025-07-24_09h24.54.372,empathy_intonation_perc_control,2024.2.4,Win32,59.88023952,660d6b2e957fa582ec87816f,68817205a84113384fffdfe3,688233a44468702aa1f2dcff,,,,,,,,,,,,./stim/wavs/castilian_mismatch_declarative-broad-focus_La-maestra-vive-en-Paris.wav,0,,,102.2655,104.6311,0,1,1.8342,,0,27,27,69,1,70,0,castilian,,,,,,,,,,,,,,,,,,,,,,,,,,,,,,,,,,,,,,,,,,,,,,,,,,,,,,,,
,,,,,,,,,660d6b2e957fa582ec87816f,Spanish,13 or older,"no, only English or Spanish",no,2025-07-24_09h24.54.372,empathy_intonation_perc_control,2024.2.4,Win32,59.88023952,660d6b2e957fa582ec87816f,68817205a84113384fffdfe3,688233a44468702aa1f2dcff,,,,,,,,,,,,./stim/wavs/puertorican_match_declarative-broad-focus_Manuela-vende-el-carro.wav,0,,,104.6322,106.6309,0,1,1.4703,,0,28,28,66,1,67,0,puertorican,,,,,,,,,,,,,,,,,,,,,,,,,,,,,,,,,,,,,,,,,,,,,,,,,,,,,,,,
,,,,,,,,,660d6b2e957fa582ec87816f,Spanish,13 or older,"no, only English or Spanish",no,2025-07-24_09h24.54.372,empathy_intonation_perc_control,2024.2.4,Win32,59.88023952,660d6b2e957fa582ec87816f,68817205a84113384fffdfe3,688233a44468702aa1f2dcff,,,,,,,,,,,,./stim/wavs/cuban_match_interrogative-total-yn_Marta-abre-el-regalo.wav,1,,,106.6319,108.7141,0,0,1.5338,,0,29,29,11,1,12,1,cuban,,,,,,,,,,,,,,,,,,,,,,,,,,,,,,,,,,,,,,,,,,,,,,,,,,,,,,,,
,,,,,,,,,660d6b2e957fa582ec87816f,Spanish,13 or older,"no, only English or Spanish",no,2025-07-24_09h24.54.372,empathy_intonation_perc_control,2024.2.4,Win32,59.88023952,660d6b2e957fa582ec87816f,68817205a84113384fffdfe3,688233a44468702aa1f2dcff,,,,,,,,,,,,./stim/wavs/puertorican_match_declarative-broad-focus_David-leia-el-libro.wav,0,,,108.7148,110.6307,0,1,1.3784,,0,30,30,64,1,65,0,puertorican,,,,,,,,,,,,,,,,,,,,,,,,,,,,,,,,,,,,,,,,,,,,,,,,,,,,,,,,
,,,,,,,,,660d6b2e957fa582ec87816f,Spanish,13 or older,"no, only English or Spanish",no,2025-07-24_09h24.54.372,empathy_intonation_perc_control,2024.2.4,Win32,59.88023952,660d6b2e957fa582ec87816f,68817205a84113384fffdfe3,688233a44468702aa1f2dcff,,,,,,,,,,,,./stim/wavs/castilian_match_declarative-broad-focus_Mariano-habla-del-tiempo.wav,0,,,110.6316,113.2548,0,1,2.1147,,0,31,31,48,1,49,0,castilian,,,,,,,,,,,,,,,,,,,,,,,,,,,,,,,,,,,,,,,,,,,,,,,,,,,,,,,,
,,,,,,,,,660d6b2e957fa582ec87816f,Spanish,13 or older,"no, only English or Spanish",no,2025-07-24_09h24.54.372,empathy_intonation_perc_control,2024.2.4,Win32,59.88023952,660d6b2e957fa582ec87816f,68817205a84113384fffdfe3,688233a44468702aa1f2dcff,,,,,,,,,,,,./stim/wavs/puertorican_match_declarative-broad-focus_Ana-lleva-el-abrigo.wav,0,,,113.2556,115.4971,0,1,1.7224,,0,32,32,62,1,63,0,puertorican,,,,,,,,,,,,,,,,,,,,,,,,,,,,,,,,,,,,,,,,,,,,,,,,,,,,,,,,
,,,,,,,,,660d6b2e957fa582ec87816f,Spanish,13 or older,"no, only English or Spanish",no,2025-07-24_09h24.54.372,empathy_intonation_perc_control,2024.2.4,Win32,59.88023952,660d6b2e957fa582ec87816f,68817205a84113384fffdfe3,688233a44468702aa1f2dcff,,,,,,,,,,,,./stim/wavs/puertorican_match_interrogative-total-yn_Emilio-ama-la-marcha.wav,1,,,115.4979,119.6302,0,0,3.6004,,0,33,33,21,1,22,1,puertorican,,,,,,,,,,,,,,,,,,,,,,,,,,,,,,,,,,,,,,,,,,,,,,,,,,,,,,,,
,,,,,,,,,660d6b2e957fa582ec87816f,Spanish,13 or older,"no, only English or Spanish",no,2025-07-24_09h24.54.372,empathy_intonation_perc_control,2024.2.4,Win32,59.88023952,660d6b2e957fa582ec87816f,68817205a84113384fffdfe3,688233a44468702aa1f2dcff,,,,,,,,,,,,./stim/wavs/cuban_mismatch_interrogative-total-yn_Mi-novio-viene-del-lago.wav,1,,,119.6311,122.4634,0,0,2.3003,,0,34,34,32,1,33,1,cuban,,,,,,,,,,,,,,,,,,,,,,,,,,,,,,,,,,,,,,,,,,,,,,,,,,,,,,,,
,,,,,,,,,660d6b2e957fa582ec87816f,Spanish,13 or older,"no, only English or Spanish",no,2025-07-24_09h24.54.372,empathy_intonation_perc_control,2024.2.4,Win32,59.88023952,660d6b2e957fa582ec87816f,68817205a84113384fffdfe3,688233a44468702aa1f2dcff,,,,,,,,,,,,./stim/wavs/cuban_match_interrogative-total-yn_Maria-bebe-el-vino.wav,1,,,122.4646,124.6467,0,0,1.6503,,0,35,35,9,1,10,1,cuban,,,,,,,,,,,,,,,,,,,,,,,,,,,,,,,,,,,,,,,,,,,,,,,,,,,,,,,,
,,,,,,,,,660d6b2e957fa582ec87816f,Spanish,13 or older,"no, only English or Spanish",no,2025-07-24_09h24.54.372,empathy_intonation_perc_control,2024.2.4,Win32,59.88023952,660d6b2e957fa582ec87816f,68817205a84113384fffdfe3,688233a44468702aa1f2dcff,,,,,,,,,,,,./stim/wavs/cuban_match_interrogative-total-yn_Daniel-iba-a-Bolivia.wav,1,,,124.6477,126.8797,0,0,1.7003,,0,36,36,7,1,8,1,cuban,,,,,,,,,,,,,,,,,,,,,,,,,,,,,,,,,,,,,,,,,,,,,,,,,,,,,,,,
,,,,,,,,,660d6b2e957fa582ec87816f,Spanish,13 or older,"no, only English or Spanish",no,2025-07-24_09h24.54.372,empathy_intonation_perc_control,2024.2.4,Win32,59.88023952,660d6b2e957fa582ec87816f,68817205a84113384fffdfe3,688233a44468702aa1f2dcff,,,,,,,,,,,,./stim/wavs/mexican_mismatch_declarative-broad-focus_Mi-tia-odia-la-lluvia.wav,0,,,126.8804,129.2461,0,1,1.8462,,0,37,37,82,1,83,0,mexican,,,,,,,,,,,,,,,,,,,,,,,,,,,,,,,,,,,,,,,,,,,,,,,,,,,,,,,,
,,,,,,,,,660d6b2e957fa582ec87816f,Spanish,13 or older,"no, only English or Spanish",no,2025-07-24_09h24.54.372,empathy_intonation_perc_control,2024.2.4,Win32,59.88023952,660d6b2e957fa582ec87816f,68817205a84113384fffdfe3,688233a44468702aa1f2dcff,,,,,,,,,,,,./stim/wavs/mexican_match_interrogative-total-yn_Mariano-habla-del-tiempo.wav,1,,,129.2469,131.4628,0,0,1.6841,,0,38,38,16,1,17,0,mexican,,,,,,,,,,,,,,,,,,,,,,,,,,,,,,,,,,,,,,,,,,,,,,,,,,,,,,,,
,,,,,,,,,660d6b2e957fa582ec87816f,Spanish,13 or older,"no, only English or Spanish",no,2025-07-24_09h24.54.372,empathy_intonation_perc_control,2024.2.4,Win32,59.88023952,660d6b2e957fa582ec87816f,68817205a84113384fffdfe3,688233a44468702aa1f2dcff,,,,,,,,,,,,./stim/wavs/puertorican_match_declarative-broad-focus_Maria-bebe-el-vino.wav,0,,,131.4636,133.9125,1,0,1.9147,,0,39,39,67,1,68,0,puertorican,,,,,,,,,,,,,,,,,,,,,,,,,,,,,,,,,,,,,,,,,,,,,,,,,,,,,,,,
,,,,,,,,,660d6b2e957fa582ec87816f,Spanish,13 or older,"no, only English or Spanish",no,2025-07-24_09h24.54.372,empathy_intonation_perc_control,2024.2.4,Win32,59.88023952,660d6b2e957fa582ec87816f,68817205a84113384fffdfe3,688233a44468702aa1f2dcff,,,,,,,,,,,,./stim/wavs/cuban_match_declarative-broad-focus_Daniel-iba-a-Bolivia.wav,0,,,133.9133,136.2533,0,1,1.8168,,0,40,40,51,1,52,0,cuban,,,,,,,,,,,,,,,,,,,,,,,,,,,,,,,,,,,,,,,,,,,,,,,,,,,,,,,,
,,,,,,,,,660d6b2e957fa582ec87816f,Spanish,13 or older,"no, only English or Spanish",no,2025-07-24_09h24.54.372,empathy_intonation_perc_control,2024.2.4,Win32,59.88023952,660d6b2e957fa582ec87816f,68817205a84113384fffdfe3,688233a44468702aa1f2dcff,,,,,,,,,,,,./stim/wavs/castilian_mismatch_declarative-broad-focus_El-nino-oye-el-rio.wav,0,,,136.254,138.5289,0,1,1.7514,,0,41,41,68,1,69,0,castilian,,,,,,,,,,,,,,,,,,,,,,,,,,,,,,,,,,,,,,,,,,,,,,,,,,,,,,,,
,,,,,,,,,660d6b2e957fa582ec87816f,Spanish,13 or older,"no, only English or Spanish",no,2025-07-24_09h24.54.372,empathy_intonation_perc_control,2024.2.4,Win32,59.88023952,660d6b2e957fa582ec87816f,68817205a84113384fffdfe3,688233a44468702aa1f2dcff,,,,,,,,,,,,./stim/wavs/mexican_mismatch_declarative-broad-focus_El-bebe-comia-muy-bien.wav,0,,,138.5297,141.0287,0,1,1.9508,,0,42,42,78,1,79,0,mexican,,,,,,,,,,,,,,,,,,,,,,,,,,,,,,,,,,,,,,,,,,,,,,,,,,,,,,,,
,,,,,,,,,660d6b2e957fa582ec87816f,Spanish,13 or older,"no, only English or Spanish",no,2025-07-24_09h24.54.372,empathy_intonation_perc_control,2024.2.4,Win32,59.88023952,660d6b2e957fa582ec87816f,68817205a84113384fffdfe3,688233a44468702aa1f2dcff,,,,,,,,,,,,./stim/wavs/mexican_match_declarative-broad-focus_Ana-lleva-el-abrigo.wav,0,,,141.0295,143.4863,0,1,1.9204,,0,43,43,56,1,57,0,mexican,,,,,,,,,,,,,,,,,,,,,,,,,,,,,,,,,,,,,,,,,,,,,,,,,,,,,,,,
,,,,,,,,,660d6b2e957fa582ec87816f,Spanish,13 or older,"no, only English or Spanish",no,2025-07-24_09h24.54.372,empathy_intonation_perc_control,2024.2.4,Win32,59.88023952,660d6b2e957fa582ec87816f,68817205a84113384fffdfe3,688233a44468702aa1f2dcff,,,,,,,,,,,,./stim/wavs/puertorican_mismatch_interrogative-total-yn_El-hombre-mira-la-luna.wav,1,,,143.487,145.6119,0,0,1.5843,,0,44,44,39,1,40,1,puertorican,,,,,,,,,,,,,,,,,,,,,,,,,,,,,,,,,,,,,,,,,,,,,,,,,,,,,,,,
,,,,,,,,,660d6b2e957fa582ec87816f,Spanish,13 or older,"no, only English or Spanish",no,2025-07-24_09h24.54.372,empathy_intonation_perc_control,2024.2.4,Win32,59.88023952,660d6b2e957fa582ec87816f,68817205a84113384fffdfe3,688233a44468702aa1f2dcff,,,,,,,,,,,,./stim/wavs/puertorican_mismatch_declarative-broad-focus_El-hombre-mira-la-luna.wav,0,,,145.6126,147.8951,0,1,1.7339,,0,45,45,84,1,85,0,puertorican,,,,,,,,,,,,,,,,,,,,,,,,,,,,,,,,,,,,,,,,,,,,,,,,,,,,,,,,
,,,,,,,,,660d6b2e957fa582ec87816f,Spanish,13 or older,"no, only English or Spanish",no,2025-07-24_09h24.54.372,empathy_intonation_perc_control,2024.2.4,Win32,59.88023952,660d6b2e957fa582ec87816f,68817205a84113384fffdfe3,688233a44468702aa1f2dcff,,,,,,,,,,,,./stim/wavs/castilian_match_declarative-broad-focus_Manuela-vende-el-carro.wav,0,,,147.8959,150.3615,0,1,1.9257,,0,46,46,46,1,47,0,castilian,,,,,,,,,,,,,,,,,,,,,,,,,,,,,,,,,,,,,,,,,,,,,,,,,,,,,,,,
,,,,,,,,,660d6b2e957fa582ec87816f,Spanish,13 or older,"no, only English or Spanish",no,2025-07-24_09h24.54.372,empathy_intonation_perc_control,2024.2.4,Win32,59.88023952,660d6b2e957fa582ec87816f,68817205a84113384fffdfe3,688233a44468702aa1f2dcff,,,,,,,,,,,,./stim/wavs/mexican_mismatch_declarative-broad-focus_Mi-novio-viene-del-lago.wav,0,,,150.3624,152.4178,0,1,1.5322,,0,47,47,81,1,82,0,mexican,,,,,,,,,,,,,,,,,,,,,,,,,,,,,,,,,,,,,,,,,,,,,,,,,,,,,,,,
,,,,,,,,,660d6b2e957fa582ec87816f,Spanish,13 or older,"no, only English or Spanish",no,2025-07-24_09h24.54.372,empathy_intonation_perc_control,2024.2.4,Win32,59.88023952,660d6b2e957fa582ec87816f,68817205a84113384fffdfe3,688233a44468702aa1f2dcff,,,,,,,,,,,,./stim/wavs/mexican_match_declarative-broad-focus_Mariano-habla-del-tiempo.wav,0,,,152.4185,155.2779,0,1,2.32,,0,48,48,60,1,61,0,mexican,,,,,,,,,,,,,,,,,,,,,,,,,,,,,,,,,,,,,,,,,,,,,,,,,,,,,,,,
,,,,,,,,,660d6b2e957fa582ec87816f,Spanish,13 or older,"no, only English or Spanish",no,2025-07-24_09h24.54.372,empathy_intonation_perc_control,2024.2.4,Win32,59.88023952,660d6b2e957fa582ec87816f,68817205a84113384fffdfe3,688233a44468702aa1f2dcff,,,,,,,,,,,,./stim/wavs/cuban_mismatch_declarative-broad-focus_El-bebe-comia-muy-bien.wav,0,,,155.2788,157.2946,0,1,1.4845,,0,49,49,73,1,74,0,cuban,,,,,,,,,,,,,,,,,,,,,,,,,,,,,,,,,,,,,,,,,,,,,,,,,,,,,,,,
,,,,,,,,,660d6b2e957fa582ec87816f,Spanish,13 or older,"no, only English or Spanish",no,2025-07-24_09h24.54.372,empathy_intonation_perc_control,2024.2.4,Win32,59.88023952,660d6b2e957fa582ec87816f,68817205a84113384fffdfe3,688233a44468702aa1f2dcff,,,,,,,,,,,,./stim/wavs/castilian_match_interrogative-total-yn_Manuela-vende-el-carro.wav,1,,,157.2965,159.7945,1,1,1.9504,,0,50,50,2,1,3,0,castilian,,,,,,,,,,,,,,,,,,,,,,,,,,,,,,,,,,,,,,,,,,,,,,,,,,,,,,,,
,,,,,,,,,660d6b2e957fa582ec87816f,Spanish,13 or older,"no, only English or Spanish",no,2025-07-24_09h24.54.372,empathy_intonation_perc_control,2024.2.4,Win32,59.88023952,660d6b2e957fa582ec87816f,68817205a84113384fffdfe3,688233a44468702aa1f2dcff,,,,,,,,,,,,./stim/wavs/castilian_match_interrogative-total-yn_Mariano-habla-del-tiempo.wav,1,,,159.7956,162.8942,1,1,2.5669,,0,51,51,4,1,5,0,castilian,,,,,,,,,,,,,,,,,,,,,,,,,,,,,,,,,,,,,,,,,,,,,,,,,,,,,,,,
,,,,,,,,,660d6b2e957fa582ec87816f,Spanish,13 or older,"no, only English or Spanish",no,2025-07-24_09h24.54.372,empathy_intonation_perc_control,2024.2.4,Win32,59.88023952,660d6b2e957fa582ec87816f,68817205a84113384fffdfe3,688233a44468702aa1f2dcff,,,,,,,,,,,,./stim/wavs/castilian_mismatch_interrogative-total-yn_La-nina-lava-el-plato.wav,1,,,162.8958,165.0439,1,1,1.6229,,0,52,52,25,1,26,0,castilian,,,,,,,,,,,,,,,,,,,,,,,,,,,,,,,,,,,,,,,,,,,,,,,,,,,,,,,,
,,,,,,,,,660d6b2e957fa582ec87816f,Spanish,13 or older,"no, only English or Spanish",no,2025-07-24_09h24.54.372,empathy_intonation_perc_control,2024.2.4,Win32,59.88023952,660d6b2e957fa582ec87816f,68817205a84113384fffdfe3,688233a44468702aa1f2dcff,,,,,,,,,,,,./stim/wavs/castilian_match_declarative-broad-focus_David-leia-el-libro.wav,0,,,165.0445,167.4439,0,1,1.8836,,0,53,53,44,1,45,0,castilian,,,,,,,,,,,,,,,,,,,,,,,,,,,,,,,,,,,,,,,,,,,,,,,,,,,,,,,,
,,,,,,,,,660d6b2e957fa582ec87816f,Spanish,13 or older,"no, only English or Spanish",no,2025-07-24_09h24.54.372,empathy_intonation_perc_control,2024.2.4,Win32,59.88023952,660d6b2e957fa582ec87816f,68817205a84113384fffdfe3,688233a44468702aa1f2dcff,,,,,,,,,,,,./stim/wavs/castilian_mismatch_interrogative-total-yn_Mi-tia-odia-la-lluvia.wav,1,,,167.4451,170.1015,1,1,2.1333,,0,54,54,28,1,29,0,castilian,,,,,,,,,,,,,,,,,,,,,,,,,,,,,,,,,,,,,,,,,,,,,,,,,,,,,,,,
,,,,,,,,,660d6b2e957fa582ec87816f,Spanish,13 or older,"no, only English or Spanish",no,2025-07-24_09h24.54.372,empathy_intonation_perc_control,2024.2.4,Win32,59.88023952,660d6b2e957fa582ec87816f,68817205a84113384fffdfe3,688233a44468702aa1f2dcff,,,,,,,,,,,,./stim/wavs/castilian_mismatch_interrogative-total-yn_Mi-novio-viene-del-lago.wav,1,,,170.1023,172.531,1,1,1.9133,,0,55,55,27,1,28,0,castilian,,,,,,,,,,,,,,,,,,,,,,,,,,,,,,,,,,,,,,,,,,,,,,,,,,,,,,,,
,,,,,,,,,660d6b2e957fa582ec87816f,Spanish,13 or older,"no, only English or Spanish",no,2025-07-24_09h24.54.372,empathy_intonation_perc_control,2024.2.4,Win32,59.88023952,660d6b2e957fa582ec87816f,68817205a84113384fffdfe3,688233a44468702aa1f2dcff,,,,,,,,,,,,./stim/wavs/cuban_match_interrogative-total-yn_Mariano-habla-del-tiempo.wav,1,,,172.5316,174.8441,0,0,1.7926,,0,56,56,10,1,11,1,cuban,,,,,,,,,,,,,,,,,,,,,,,,,,,,,,,,,,,,,,,,,,,,,,,,,,,,,,,,
,,,,,,,,,660d6b2e957fa582ec87816f,Spanish,13 or older,"no, only English or Spanish",no,2025-07-24_09h24.54.372,empathy_intonation_perc_control,2024.2.4,Win32,59.88023952,660d6b2e957fa582ec87816f,68817205a84113384fffdfe3,688233a44468702aa1f2dcff,,,,,,,,,,,,./stim/wavs/mexican_mismatch_declarative-broad-focus_El-hombre-mira-la-luna.wav,0,,,174.8448,177.2764,0,1,1.9084,,0,57,57,79,1,80,0,mexican,,,,,,,,,,,,,,,,,,,,,,,,,,,,,,,,,,,,,,,,,,,,,,,,,,,,,,,,
,,,,,,,,,660d6b2e957fa582ec87816f,Spanish,13 or older,"no, only English or Spanish",no,2025-07-24_09h24.54.372,empathy_intonation_perc_control,2024.2.4,Win32,59.88023952,660d6b2e957fa582ec87816f,68817205a84113384fffdfe3,688233a44468702aa1f2dcff,,,,,,,,,,,,./stim/wavs/cuban_mismatch_declarative-broad-focus_La-nina-lava-el-plato.wav,0,,,177.2773,179.3263,0,1,1.5169,,0,58,58,75,1,76,0,cuban,,,,,,,,,,,,,,,,,,,,,,,,,,,,,,,,,,,,,,,,,,,,,,,,,,,,,,,,
,,,,,,,,,660d6b2e957fa582ec87816f,Spanish,13 or older,"no, only English or Spanish",no,2025-07-24_09h24.54.372,empathy_intonation_perc_control,2024.2.4,Win32,59.88023952,660d6b2e957fa582ec87816f,68817205a84113384fffdfe3,688233a44468702aa1f2dcff,,,,,,,,,,,,./stim/wavs/cuban_mismatch_interrogative-total-yn_El-nino-oye-el-rio.wav,1,,,179.3271,181.3597,0,0,1.5034,,0,59,59,30,1,31,1,cuban,,,,,,,,,,,,,,,,,,,,,,,,,,,,,,,,,,,,,,,,,,,,,,,,,,,,,,,,
,,,,,,,,,660d6b2e957fa582ec87816f,Spanish,13 or older,"no, only English or Spanish",no,2025-07-24_09h24.54.372,empathy_intonation_perc_control,2024.2.4,Win32,59.88023952,660d6b2e957fa582ec87816f,68817205a84113384fffdfe3,688233a44468702aa1f2dcff,,,,,,,,,,,,./stim/wavs/puertorican_mismatch_declarative-broad-focus_El-nino-oye-el-rio.wav,0,,,181.3607,183.6927,0,1,1.8074,,0,60,60,85,1,86,0,puertorican,,,,,,,,,,,,,,,,,,,,,,,,,,,,,,,,,,,,,,,,,,,,,,,,,,,,,,,,
,,,,,,,,,660d6b2e957fa582ec87816f,Spanish,13 or older,"no, only English or Spanish",no,2025-07-24_09h24.54.372,empathy_intonation_perc_control,2024.2.4,Win32,59.88023952,660d6b2e957fa582ec87816f,68817205a84113384fffdfe3,688233a44468702aa1f2dcff,,,,,,,,,,,,./stim/wavs/cuban_match_declarative-broad-focus_Maria-bebe-el-vino.wav,0,,,183.6934,185.8261,0,1,1.6006,,0,61,61,53,1,54,0,cuban,,,,,,,,,,,,,,,,,,,,,,,,,,,,,,,,,,,,,,,,,,,,,,,,,,,,,,,,
,,,,,,,,,660d6b2e957fa582ec87816f,Spanish,13 or older,"no, only English or Spanish",no,2025-07-24_09h24.54.372,empathy_intonation_perc_control,2024.2.4,Win32,59.88023952,660d6b2e957fa582ec87816f,68817205a84113384fffdfe3,688233a44468702aa1f2dcff,,,,,,,,,,,,./stim/wavs/mexican_match_interrogative-total-yn_Emilio-ama-la-marcha.wav,1,,,185.8269,188.009,1,1,1.6367,,0,62,62,15,1,16,0,mexican,,,,,,,,,,,,,,,,,,,,,,,,,,,,,,,,,,,,,,,,,,,,,,,,,,,,,,,,
,,,,,,,,,660d6b2e957fa582ec87816f,Spanish,13 or older,"no, only English or Spanish",no,2025-07-24_09h24.54.372,empathy_intonation_perc_control,2024.2.4,Win32,59.88023952,660d6b2e957fa582ec87816f,68817205a84113384fffdfe3,688233a44468702aa1f2dcff,,,,,,,,,,,,./stim/wavs/mexican_match_declarative-broad-focus_David-leia-el-libro.wav,0,,,188.0098,190.1589,0,1,1.6243,,0,63,63,58,1,59,0,mexican,,,,,,,,,,,,,,,,,,,,,,,,,,,,,,,,,,,,,,,,,,,,,,,,,,,,,,,,
,,,,,,,,,660d6b2e957fa582ec87816f,Spanish,13 or older,"no, only English or Spanish",no,2025-07-24_09h24.54.372,empathy_intonation_perc_control,2024.2.4,Win32,59.88023952,660d6b2e957fa582ec87816f,68817205a84113384fffdfe3,688233a44468702aa1f2dcff,,,,,,,,,,,,./stim/wavs/puertorican_match_interrogative-total-yn_David-leia-el-libro.wav,1,,,190.1596,192.4587,0,0,1.7671,,0,64,64,20,1,21,1,puertorican,,,,,,,,,,,,,,,,,,,,,,,,,,,,,,,,,,,,,,,,,,,,,,,,,,,,,,,,
,,,,,,,,,660d6b2e957fa582ec87816f,Spanish,13 or older,"no, only English or Spanish",no,2025-07-24_09h24.54.372,empathy_intonation_perc_control,2024.2.4,Win32,59.88023952,660d6b2e957fa582ec87816f,68817205a84113384fffdfe3,688233a44468702aa1f2dcff,,,,,,,,,,,,./stim/wavs/mexican_match_declarative-broad-focus_Emilio-ama-la-marcha.wav,0,,,192.4598,194.7087,0,1,1.7249,,0,65,65,59,1,60,0,mexican,,,,,,,,,,,,,,,,,,,,,,,,,,,,,,,,,,,,,,,,,,,,,,,,,,,,,,,,
,,,,,,,,,660d6b2e957fa582ec87816f,Spanish,13 or older,"no, only English or Spanish",no,2025-07-24_09h24.54.372,empathy_intonation_perc_control,2024.2.4,Win32,59.88023952,660d6b2e957fa582ec87816f,68817205a84113384fffdfe3,688233a44468702aa1f2dcff,,,,,,,,,,,,./stim/wavs/puertorican_mismatch_interrogative-total-yn_La-nina-lava-el-plato.wav,1,,,194.7095,196.6256,0,0,1.3836,,0,66,66,42,1,43,1,puertorican,,,,,,,,,,,,,,,,,,,,,,,,,,,,,,,,,,,,,,,,,,,,,,,,,,,,,,,,
,,,,,,,,,660d6b2e957fa582ec87816f,Spanish,13 or older,"no, only English or Spanish",no,2025-07-24_09h24.54.372,empathy_intonation_perc_control,2024.2.4,Win32,59.88023952,660d6b2e957fa582ec87816f,68817205a84113384fffdfe3,688233a44468702aa1f2dcff,,,,,,,,,,,,./stim/wavs/castilian_match_declarative-broad-focus_Maria-bebe-el-vino.wav,0,,,196.6265,198.7996,0,1,1.6336,,0,67,67,47,1,48,0,castilian,,,,,,,,,,,,,,,,,,,,,,,,,,,,,,,,,,,,,,,,,,,,,,,,,,,,,,,,
,,,,,,,,,660d6b2e957fa582ec87816f,Spanish,13 or older,"no, only English or Spanish",no,2025-07-24_09h24.54.372,empathy_intonation_perc_control,2024.2.4,Win32,59.88023952,660d6b2e957fa582ec87816f,68817205a84113384fffdfe3,688233a44468702aa1f2dcff,,,,,,,,,,,,./stim/wavs/cuban_mismatch_interrogative-total-yn_Mi-tia-odia-la-lluvia.wav,1,,,198.8007,200.7249,0,0,1.406,,0,68,68,33,1,34,1,cuban,,,,,,,,,,,,,,,,,,,,,,,,,,,,,,,,,,,,,,,,,,,,,,,,,,,,,,,,
,,,,,,,,,660d6b2e957fa582ec87816f,Spanish,13 or older,"no, only English or Spanish",no,2025-07-24_09h24.54.372,empathy_intonation_perc_control,2024.2.4,Win32,59.88023952,660d6b2e957fa582ec87816f,68817205a84113384fffdfe3,688233a44468702aa1f2dcff,,,,,,,,,,,,./stim/wavs/puertorican_mismatch_interrogative-total-yn_El-nino-oye-el-rio.wav,1,,,200.7257,202.7257,0,0,1.4656,,0,69,69,40,1,41,1,puertorican,,,,,,,,,,,,,,,,,,,,,,,,,,,,,,,,,,,,,,,,,,,,,,,,,,,,,,,,
,,,,,,,,,660d6b2e957fa582ec87816f,Spanish,13 or older,"no, only English or Spanish",no,2025-07-24_09h24.54.372,empathy_intonation_perc_control,2024.2.4,Win32,59.88023952,660d6b2e957fa582ec87816f,68817205a84113384fffdfe3,688233a44468702aa1f2dcff,,,,,,,,,,,,./stim/wavs/puertorican_mismatch_declarative-broad-focus_La-nina-lava-el-plato.wav,0,,,202.7269,204.5658,0,1,1.3167,,0,70,70,87,1,88,0,puertorican,,,,,,,,,,,,,,,,,,,,,,,,,,,,,,,,,,,,,,,,,,,,,,,,,,,,,,,,
,,,,,,,,,660d6b2e957fa582ec87816f,Spanish,13 or older,"no, only English or Spanish",no,2025-07-24_09h24.54.372,empathy_intonation_perc_control,2024.2.4,Win32,59.88023952,660d6b2e957fa582ec87816f,68817205a84113384fffdfe3,688233a44468702aa1f2dcff,,,,,,,,,,,,./stim/wavs/mexican_match_interrogative-total-yn_Daniel-iba-a-Bolivia.wav,1,,,204.5665,206.6496,1,1,1.5507,,0,71,71,13,1,14,0,mexican,,,,,,,,,,,,,,,,,,,,,,,,,,,,,,,,,,,,,,,,,,,,,,,,,,,,,,,,
,,,,,,,,,660d6b2e957fa582ec87816f,Spanish,13 or older,"no, only English or Spanish",no,2025-07-24_09h24.54.372,empathy_intonation_perc_control,2024.2.4,Win32,59.88023952,660d6b2e957fa582ec87816f,68817205a84113384fffdfe3,688233a44468702aa1f2dcff,,,,,,,,,,,,./stim/wavs/mexican_mismatch_interrogative-total-yn_La-maestra-vive-en-Paris.wav,1,,,206.6503,209.2244,1,1,2.0508,,0,72,72,36,1,37,0,mexican,,,,,,,,,,,,,,,,,,,,,,,,,,,,,,,,,,,,,,,,,,,,,,,,,,,,,,,,
,,,,,,,,,660d6b2e957fa582ec87816f,Spanish,13 or older,"no, only English or Spanish",no,2025-07-24_09h24.54.372,empathy_intonation_perc_control,2024.2.4,Win32,59.88023952,660d6b2e957fa582ec87816f,68817205a84113384fffdfe3,688233a44468702aa1f2dcff,,,,,,,,,,,,./stim/wavs/cuban_match_interrogative-total-yn_Ana-lleva-el-abrigo.wav,1,,,209.2251,211.4245,0,0,1.6671,,0,73,73,6,1,7,1,cuban,,,,,,,,,,,,,,,,,,,,,,,,,,,,,,,,,,,,,,,,,,,,,,,,,,,,,,,,
,,,,,,,,,660d6b2e957fa582ec87816f,Spanish,13 or older,"no, only English or Spanish",no,2025-07-24_09h24.54.372,empathy_intonation_perc_control,2024.2.4,Win32,59.88023952,660d6b2e957fa582ec87816f,68817205a84113384fffdfe3,688233a44468702aa1f2dcff,,,,,,,,,,,,./stim/wavs/puertorican_match_interrogative-total-yn_Maria-bebe-el-vino.wav,1,,,211.4255,214.2076,0,0,2.2504,,0,74,74,23,1,24,1,puertorican,,,,,,,,,,,,,,,,,,,,,,,,,,,,,,,,,,,,,,,,,,,,,,,,,,,,,,,,
,,,,,,,,,660d6b2e957fa582ec87816f,Spanish,13 or older,"no, only English or Spanish",no,2025-07-24_09h24.54.372,empathy_intonation_perc_control,2024.2.4,Win32,59.88023952,660d6b2e957fa582ec87816f,68817205a84113384fffdfe3,688233a44468702aa1f2dcff,,,,,,,,,,,,./stim/wavs/cuban_mismatch_declarative-broad-focus_El-hombre-mira-la-luna.wav,0,,,214.2084,216.2575,0,1,1.5171,,0,75,75,74,1,75,0,cuban,,,,,,,,,,,,,,,,,,,,,,,,,,,,,,,,,,,,,,,,,,,,,,,,,,,,,,,,
,,,,,,,,,660d6b2e957fa582ec87816f,Spanish,13 or older,"no, only English or Spanish",no,2025-07-24_09h24.54.372,empathy_intonation_perc_control,2024.2.4,Win32,59.88023952,660d6b2e957fa582ec87816f,68817205a84113384fffdfe3,688233a44468702aa1f2dcff,,,,,,,,,,,,./stim/wavs/mexican_match_declarative-broad-focus_Daniel-iba-a-Bolivia.wav,0,,,216.2583,218.8739,0,1,2.0839,,0,76,76,57,1,58,0,mexican,,,,,,,,,,,,,,,,,,,,,,,,,,,,,,,,,,,,,,,,,,,,,,,,,,,,,,,,
,,,,,,,,,660d6b2e957fa582ec87816f,Spanish,13 or older,"no, only English or Spanish",no,2025-07-24_09h24.54.372,empathy_intonation_perc_control,2024.2.4,Win32,59.88023952,660d6b2e957fa582ec87816f,68817205a84113384fffdfe3,688233a44468702aa1f2dcff,,,,,,,,,,,,./stim/wavs/puertorican_mismatch_interrogative-total-yn_La-maestra-vive-en-Paris.wav,1,,,218.8753,222.1237,0,0,2.7168,,0,77,77,41,1,42,1,puertorican,,,,,,,,,,,,,,,,,,,,,,,,,,,,,,,,,,,,,,,,,,,,,,,,,,,,,,,,
,,,,,,,,,660d6b2e957fa582ec87816f,Spanish,13 or older,"no, only English or Spanish",no,2025-07-24_09h24.54.372,empathy_intonation_perc_control,2024.2.4,Win32,59.88023952,660d6b2e957fa582ec87816f,68817205a84113384fffdfe3,688233a44468702aa1f2dcff,,,,,,,,,,,,./stim/wavs/mexican_match_interrogative-total-yn_Ana-lleva-el-abrigo.wav,1,,,222.1246,225.3734,1,1,2.7232,,0,78,78,12,1,13,0,mexican,,,,,,,,,,,,,,,,,,,,,,,,,,,,,,,,,,,,,,,,,,,,,,,,,,,,,,,,
,,,,,,,,,660d6b2e957fa582ec87816f,Spanish,13 or older,"no, only English or Spanish",no,2025-07-24_09h24.54.372,empathy_intonation_perc_control,2024.2.4,Win32,59.88023952,660d6b2e957fa582ec87816f,68817205a84113384fffdfe3,688233a44468702aa1f2dcff,,,,,,,,,,,,./stim/wavs/cuban_match_declarative-broad-focus_Marta-abre-el-regalo.wav,0,,,225.3748,227.54,0,1,1.62,,0,79,79,55,1,56,0,cuban,,,,,,,,,,,,,,,,,,,,,,,,,,,,,,,,,,,,,,,,,,,,,,,,,,,,,,,,
,,,,,,,,,660d6b2e957fa582ec87816f,Spanish,13 or older,"no, only English or Spanish",no,2025-07-24_09h24.54.372,empathy_intonation_perc_control,2024.2.4,Win32,59.88023952,660d6b2e957fa582ec87816f,68817205a84113384fffdfe3,688233a44468702aa1f2dcff,,,,,,,,,,,,./stim/wavs/castilian_match_declarative-broad-focus_Emilio-ama-la-marcha.wav,0,,,227.5407,229.9606,0,1,1.8966,,0,80,80,45,1,46,0,castilian,,,,,,,,,,,,,,,,,,,,,,,,,,,,,,,,,,,,,,,,,,,,,,,,,,,,,,,,
,,,,,,,,,660d6b2e957fa582ec87816f,Spanish,13 or older,"no, only English or Spanish",no,2025-07-24_09h24.54.372,empathy_intonation_perc_control,2024.2.4,Win32,59.88023952,660d6b2e957fa582ec87816f,68817205a84113384fffdfe3,688233a44468702aa1f2dcff,,,,,,,,,,,,./stim/wavs/mexican_match_interrogative-total-yn_David-leia-el-libro.wav,1,,,229.9613,232.1902,0,0,1.7207,,0,81,81,14,1,15,0,mexican,,,,,,,,,,,,,,,,,,,,,,,,,,,,,,,,,,,,,,,,,,,,,,,,,,,,,,,,
,,,,,,,,,660d6b2e957fa582ec87816f,Spanish,13 or older,"no, only English or Spanish",no,2025-07-24_09h24.54.372,empathy_intonation_perc_control,2024.2.4,Win32,59.88023952,660d6b2e957fa582ec87816f,68817205a84113384fffdfe3,688233a44468702aa1f2dcff,,,,,,,,,,,,./stim/wavs/castilian_match_interrogative-total-yn_David-leia-el-libro.wav,1,,,232.1915,234.3397,1,1,1.6278,,0,82,82,0,1,1,0,castilian,,,,,,,,,,,,,,,,,,,,,,,,,,,,,,,,,,,,,,,,,,,,,,,,,,,,,,,,
,,,,,,,,,660d6b2e957fa582ec87816f,Spanish,13 or older,"no, only English or Spanish",no,2025-07-24_09h24.54.372,empathy_intonation_perc_control,2024.2.4,Win32,59.88023952,660d6b2e957fa582ec87816f,68817205a84113384fffdfe3,688233a44468702aa1f2dcff,,,,,,,,,,,,./stim/wavs/castilian_match_declarative-broad-focus_Marta-abre-el-regalo.wav,0,,,234.3405,236.5563,0,1,1.6837,,0,83,83,49,1,50,0,castilian,,,,,,,,,,,,,,,,,,,,,,,,,,,,,,,,,,,,,,,,,,,,,,,,,,,,,,,,
,,,,,,,,,660d6b2e957fa582ec87816f,Spanish,13 or older,"no, only English or Spanish",no,2025-07-24_09h24.54.372,empathy_intonation_perc_control,2024.2.4,Win32,59.88023952,660d6b2e957fa582ec87816f,68817205a84113384fffdfe3,688233a44468702aa1f2dcff,,,,,,,,,,,,./stim/wavs/mexican_match_declarative-broad-focus_Marta-abre-el-regalo.wav,0,,,236.5573,238.606,0,1,1.517,,0,84,84,61,1,62,0,mexican,,,,,,,,,,,,,,,,,,,,,,,,,,,,,,,,,,,,,,,,,,,,,,,,,,,,,,,,
,,,,,,,,,660d6b2e957fa582ec87816f,Spanish,13 or older,"no, only English or Spanish",no,2025-07-24_09h24.54.372,empathy_intonation_perc_control,2024.2.4,Win32,59.88023952,660d6b2e957fa582ec87816f,68817205a84113384fffdfe3,688233a44468702aa1f2dcff,,,,,,,,,,,,./stim/wavs/cuban_mismatch_declarative-broad-focus_Mi-tia-odia-la-lluvia.wav,0,,,238.6068,241.2892,0,1,2.1513,,0,85,85,77,1,78,0,cuban,,,,,,,,,,,,,,,,,,,,,,,,,,,,,,,,,,,,,,,,,,,,,,,,,,,,,,,,
,,,,,,,,,660d6b2e957fa582ec87816f,Spanish,13 or older,"no, only English or Spanish",no,2025-07-24_09h24.54.372,empathy_intonation_perc_control,2024.2.4,Win32,59.88023952,660d6b2e957fa582ec87816f,68817205a84113384fffdfe3,688233a44468702aa1f2dcff,,,,,,,,,,,,./stim/wavs/cuban_mismatch_interrogative-total-yn_Mi-madre-come-la-fruta.wav,1,,,241.2905,244.1556,0,0,2.3338,,0,86,86,31,1,32,1,cuban,,,,,,,,,,,,,,,,,,,,,,,,,,,,,,,,,,,,,,,,,,,,,,,,,,,,,,,,
,,,,,,,,,660d6b2e957fa582ec87816f,Spanish,13 or older,"no, only English or Spanish",no,2025-07-24_09h24.54.372,empathy_intonation_perc_control,2024.2.4,Win32,59.88023952,660d6b2e957fa582ec87816f,68817205a84113384fffdfe3,688233a44468702aa1f2dcff,,,,,,,,,,,,./stim/wavs/puertorican_match_interrogative-total-yn_Ana-lleva-el-abrigo.wav,1,,,244.1564,246.1556,0,0,1.4612,,0,87,87,18,1,19,1,puertorican,,,,,,,,,,,,,,,,,,,,,,,,,,,,,,,,,,,,,,,,,,,,,,,,,,,,,,,,
,,,,,,,"Great! Now we will move on. The next task consists of about 60 trials, in each of which you will see a string of letters. 
  
  Your task is to decide whether this is a real Spanish word or not.", (press the spacebar to continue),660d6b2e957fa582ec87816f,Spanish,13 or older,"no, only English or Spanish",no,2025-07-24_09h24.54.372,empathy_intonation_perc_control,2024.2.4,Win32,59.88023952,660d6b2e957fa582ec87816f,68817205a84113384fffdfe3,688233a44468702aa1f2dcff,,,,,,,,,,,,,,,,,,,,,,,,,,,,,,246.1662,253.272,0,0,0,0,1,,,,,,,,,,,,,,,,,,,,,,,,,,,,,,,,,,,,,,,,,,,,,,,,,
,,,,,,,"If you think it is an existing Spanish word, you type '1' (for 'REAL'), and if you think it is not an existing Spanish word, you type '0' (for 'FAKE').", (press the spacebar to continue),660d6b2e957fa582ec87816f,Spanish,13 or older,"no, only English or Spanish",no,2025-07-24_09h24.54.372,empathy_intonation_perc_control,2024.2.4,Win32,59.88023952,660d6b2e957fa582ec87816f,68817205a84113384fffdfe3,688233a44468702aa1f2dcff,,,,,,,,,,,,,,,,,,,,,,,,,,,,,,253.2758,257.5049,0,1,1,1,1,,,,,,,,,,,,,,,,,,,,,,,,,,,,,,,,,,,,,,,,,,,,,,,,,
,,,,,,,"If you are sure that the word exists, even though you don’t know its exact meaning, you may still respond '1' (REAL). 
  
  But if you are not sure if it is an existing word, you should respond '0' (FAKE).
  
  Let's do a practice round...", (press the spacebar to continue),660d6b2e957fa582ec87816f,Spanish,13 or older,"no, only English or Spanish",no,2025-07-24_09h24.54.372,empathy_intonation_perc_control,2024.2.4,Win32,59.88023952,660d6b2e957fa582ec87816f,68817205a84113384fffdfe3,688233a44468702aa1f2dcff,,,,,,,,,,,,,,,,,,,,,,,,,,,,,,257.5078,262.4379,0,2,2,2,1,,,,,,,,,,,,,,,,,,,,,,,,,,,,,,,,,,,,,,,,,,,,,,,,,
,,,,,,,,,660d6b2e957fa582ec87816f,Spanish,13 or older,"no, only English or Spanish",no,2025-07-24_09h24.54.372,empathy_intonation_perc_control,2024.2.4,Win32,59.88023952,660d6b2e957fa582ec87816f,68817205a84113384fffdfe3,688233a44468702aa1f2dcff,,,,,,,,,,,,,0,,,,,,,,,,,,,,,,,,,,,,,,262.4459,264.9881,1,0,2.0005,,264.9884,265.988,0,0,0,0,1,0,depiste,REAL,FAKE,,,,,,,,,,,,,,,,,,,,,,,,,,,,,,,,
,,,,,,,,,660d6b2e957fa582ec87816f,Spanish,13 or older,"no, only English or Spanish",no,2025-07-24_09h24.54.372,empathy_intonation_perc_control,2024.2.4,Win32,59.88023952,660d6b2e957fa582ec87816f,68817205a84113384fffdfe3,688233a44468702aa1f2dcff,,,,,,,,,,,,,1,,,,,,,,,,,,,,,,,,,,,,,,265.9899,267.7787,1,1,1.2506,,267.7803,268.7708,0,1,1,1,1,0,sí,REAL,FAKE,,,,,,,,,,,,,,,,,,,,,,,,,,,,,,,,
,,,,,,,,,660d6b2e957fa582ec87816f,Spanish,13 or older,"no, only English or Spanish",no,2025-07-24_09h24.54.372,empathy_intonation_perc_control,2024.2.4,Win32,59.88023952,660d6b2e957fa582ec87816f,68817205a84113384fffdfe3,688233a44468702aa1f2dcff,,,,,,,,,,,,,0,,,,,,,,,,,,,,,,,,,,,,,,268.7732,270.4452,1,0,1.1339,,270.446,271.4372,0,2,2,2,1,0,coné,REAL,FAKE,,,,,,,,,,,,,,,,,,,,,,,,,,,,,,,,
,,,,,,,,,660d6b2e957fa582ec87816f,Spanish,13 or older,"no, only English or Spanish",no,2025-07-24_09h24.54.372,empathy_intonation_perc_control,2024.2.4,Win32,59.88023952,660d6b2e957fa582ec87816f,68817205a84113384fffdfe3,688233a44468702aa1f2dcff,,,,,,,,,,,,,0,,,,,,,,,,,,,,,,,,,,,,,,271.4388,273.0704,1,0,1.1017,,273.0705,274.0704,0,3,3,3,1,0,calpar,REAL,FAKE,,,,,,,,,,,,,,,,,,,,,,,,,,,,,,,,
,,,,,,,,,660d6b2e957fa582ec87816f,Spanish,13 or older,"no, only English or Spanish",no,2025-07-24_09h24.54.372,empathy_intonation_perc_control,2024.2.4,Win32,59.88023952,660d6b2e957fa582ec87816f,68817205a84113384fffdfe3,688233a44468702aa1f2dcff,,,,,,,,,,,,,0,,,,,,,,,,,,,,,,,,,,,,,,274.0719,276.141,0,1,1.5302,,276.1418,277.1371,0,4,4,4,1,0,joten,REAL,FAKE,,,,,,,,,,,,,,,,,,,,,,,,,,,,,,,,
,,,,,,,,,660d6b2e957fa582ec87816f,Spanish,13 or older,"no, only English or Spanish",no,2025-07-24_09h24.54.372,empathy_intonation_perc_control,2024.2.4,Win32,59.88023952,660d6b2e957fa582ec87816f,68817205a84113384fffdfe3,688233a44468702aa1f2dcff,,,,,,,,,,,,,1,,,,,,,,,,,,,,,,,,,,,,,,277.1385,278.97,1,1,1.2898,,278.9701,279.9703,0,5,5,5,1,0,sacapuntas,REAL,FAKE,,,,,,,,,,,,,,,,,,,,,,,,,,,,,,,,
,,,,,,,,,660d6b2e957fa582ec87816f,Spanish,13 or older,"no, only English or Spanish",no,2025-07-24_09h24.54.372,empathy_intonation_perc_control,2024.2.4,Win32,59.88023952,660d6b2e957fa582ec87816f,68817205a84113384fffdfe3,688233a44468702aa1f2dcff,,,,,,,,,,,,,0,,,,,,,,,,,,,,,,,,,,,,,,279.9729,281.4367,1,0,0.9238,,281.4376,282.4437,0,6,6,6,1,0,priba,REAL,FAKE,,,,,,,,,,,,,,,,,,,,,,,,,,,,,,,,
,,,,,,,,,660d6b2e957fa582ec87816f,Spanish,13 or older,"no, only English or Spanish",no,2025-07-24_09h24.54.372,empathy_intonation_perc_control,2024.2.4,Win32,59.88023952,660d6b2e957fa582ec87816f,68817205a84113384fffdfe3,688233a44468702aa1f2dcff,,,,,,,,,,,,,0,,,,,,,,,,,,,,,,,,,,,,,,282.445,284.3366,0,1,1.3552,,284.3374,285.3363,0,7,7,7,1,0,pelasula,REAL,FAKE,,,,,,,,,,,,,,,,,,,,,,,,,,,,,,,,
,,,,,,,,,660d6b2e957fa582ec87816f,Spanish,13 or older,"no, only English or Spanish",no,2025-07-24_09h24.54.372,empathy_intonation_perc_control,2024.2.4,Win32,59.88023952,660d6b2e957fa582ec87816f,68817205a84113384fffdfe3,688233a44468702aa1f2dcff,,,,,,,,,,,,,1,,,,,,,,,,,,,,,,,,,,,,,,285.3378,286.7028,1,1,0.8233,,286.7029,287.6931,0,8,8,8,1,0,bien,REAL,FAKE,,,,,,,,,,,,,,,,,,,,,,,,,,,,,,,,
,,,,,,,,,660d6b2e957fa582ec87816f,Spanish,13 or older,"no, only English or Spanish",no,2025-07-24_09h24.54.372,empathy_intonation_perc_control,2024.2.4,Win32,59.88023952,660d6b2e957fa582ec87816f,68817205a84113384fffdfe3,688233a44468702aa1f2dcff,,,,,,,,,,,,,1,,,,,,,,,,,,,,,,,,,,,,,,287.6944,288.9361,1,1,0.7008,,288.9362,289.9365,0,9,9,9,1,0,casa,REAL,FAKE,,,,,,,,,,,,,,,,,,,,,,,,,,,,,,,,
,,,,,,,,,660d6b2e957fa582ec87816f,Spanish,13 or older,"no, only English or Spanish",no,2025-07-24_09h24.54.372,empathy_intonation_perc_control,2024.2.4,Win32,59.88023952,660d6b2e957fa582ec87816f,68817205a84113384fffdfe3,688233a44468702aa1f2dcff,,,,,,,,,,,,,0,,,,,,,,,,,,,,,,,,,,,,,,289.9384,291.3605,1,0,0.8837,,291.3614,292.3525,0,10,10,10,1,0,lejo,REAL,FAKE,,,,,,,,,,,,,,,,,,,,,,,,,,,,,,,,
,,,,,,,,,660d6b2e957fa582ec87816f,Spanish,13 or older,"no, only English or Spanish",no,2025-07-24_09h24.54.372,empathy_intonation_perc_control,2024.2.4,Win32,59.88023952,660d6b2e957fa582ec87816f,68817205a84113384fffdfe3,688233a44468702aa1f2dcff,,,,,,,,,,,,,0,,,,,,,,,,,,,,,,,,,,,,,,292.3538,295.1357,0,1,2.2537,,295.1365,296.1358,0,11,11,11,1,0,pretantas,REAL,FAKE,,,,,,,,,,,,,,,,,,,,,,,,,,,,,,,,
,,,,,,,,,660d6b2e957fa582ec87816f,Spanish,13 or older,"no, only English or Spanish",no,2025-07-24_09h24.54.372,empathy_intonation_perc_control,2024.2.4,Win32,59.88023952,660d6b2e957fa582ec87816f,68817205a84113384fffdfe3,688233a44468702aa1f2dcff,,,,,,,,,,,,,,,,,,,,,,,,,,,,,,,,,,,,,,,,,,,,,,,,,,,,,,296.1363,297.2529,,,,,,,,,,,,,,,,,,,,,,,,,,,,,,
,,,,,,,,,660d6b2e957fa582ec87816f,Spanish,13 or older,"no, only English or Spanish",no,2025-07-24_09h24.54.372,empathy_intonation_perc_control,2024.2.4,Win32,59.88023952,660d6b2e957fa582ec87816f,68817205a84113384fffdfe3,688233a44468702aa1f2dcff,,,,,,,,,,,,,1,,,,,,,,,,,,,,,,,,,,,,,,,,,,,,,,,,,,,55,nevar,,,,,297.2676,299.0364,0,0,1.2367,,0,0,0,54,1,REAL,FAKE,,,,,,,,,,,,,,,,,
,,,,,,,,,660d6b2e957fa582ec87816f,Spanish,13 or older,"no, only English or Spanish",no,2025-07-24_09h24.54.372,empathy_intonation_perc_control,2024.2.4,Win32,59.88023952,660d6b2e957fa582ec87816f,68817205a84113384fffdfe3,688233a44468702aa1f2dcff,,,,,,,,,,,,,0,,,,,,,,,,,,,,,,,,,,,,,,,,,,,,,,,,,,,47,cartinar,,,,,299.0379,301.319,1,0,1.7371,,0,1,1,46,1,REAL,FAKE,,,,,,,,,,,,,,,,,
,,,,,,,,,660d6b2e957fa582ec87816f,Spanish,13 or older,"no, only English or Spanish",no,2025-07-24_09h24.54.372,empathy_intonation_perc_control,2024.2.4,Win32,59.88023952,660d6b2e957fa582ec87816f,68817205a84113384fffdfe3,688233a44468702aa1f2dcff,,,,,,,,,,,,,0,,,,,,,,,,,,,,,,,,,,,,,,,,,,,,,,,,,,,4,batillón,,,,,301.3211,303.2354,1,0,1.3673,,0,2,2,3,1,REAL,FAKE,,,,,,,,,,,,,,,,,
,,,,,,,,,660d6b2e957fa582ec87816f,Spanish,13 or older,"no, only English or Spanish",no,2025-07-24_09h24.54.372,empathy_intonation_perc_control,2024.2.4,Win32,59.88023952,660d6b2e957fa582ec87816f,68817205a84113384fffdfe3,688233a44468702aa1f2dcff,,,,,,,,,,,,,1,,,,,,,,,,,,,,,,,,,,,,,,,,,,,,,,,,,,,5,zapato,,,,,303.2374,304.8184,1,1,1.038,,0,3,3,4,1,REAL,FAKE,,,,,,,,,,,,,,,,,
,,,,,,,,,660d6b2e957fa582ec87816f,Spanish,13 or older,"no, only English or Spanish",no,2025-07-24_09h24.54.372,empathy_intonation_perc_control,2024.2.4,Win32,59.88023952,660d6b2e957fa582ec87816f,68817205a84113384fffdfe3,688233a44468702aa1f2dcff,,,,,,,,,,,,,1,,,,,,,,,,,,,,,,,,,,,,,,,,,,,,,,,,,,,6,tergiversar,,,,,304.8208,306.8517,0,0,1.4839,,0,4,4,5,1,REAL,FAKE,,,,,,,,,,,,,,,,,
,,,,,,,,,660d6b2e957fa582ec87816f,Spanish,13 or older,"no, only English or Spanish",no,2025-07-24_09h24.54.372,empathy_intonation_perc_control,2024.2.4,Win32,59.88023952,660d6b2e957fa582ec87816f,68817205a84113384fffdfe3,688233a44468702aa1f2dcff,,,,,,,,,,,,,0,,,,,,,,,,,,,,,,,,,,,,,,,,,,,,,,,,,,,16,abracer,,,,,306.8531,309.4682,0,1,2.0672,,0,5,5,15,1,REAL,FAKE,,,,,,,,,,,,,,,,,
,,,,,,,,,660d6b2e957fa582ec87816f,Spanish,13 or older,"no, only English or Spanish",no,2025-07-24_09h24.54.372,empathy_intonation_perc_control,2024.2.4,Win32,59.88023952,660d6b2e957fa582ec87816f,68817205a84113384fffdfe3,688233a44468702aa1f2dcff,,,,,,,,,,,,,1,,,,,,,,,,,,,,,,,,,,,,,,,,,,,,,,,,,,,78,frondoso,,,,,309.4701,310.8516,0,0,0.834,,0,6,6,77,1,REAL,FAKE,,,,,,,,,,,,,,,,,
,,,,,,,,,660d6b2e957fa582ec87816f,Spanish,13 or older,"no, only English or Spanish",no,2025-07-24_09h24.54.372,empathy_intonation_perc_control,2024.2.4,Win32,59.88023952,660d6b2e957fa582ec87816f,68817205a84113384fffdfe3,688233a44468702aa1f2dcff,,,,,,,,,,,,,1,,,,,,,,,,,,,,,,,,,,,,,,,,,,,,,,,,,,,12,asesinato,,,,,310.8528,313.0015,0,0,1.6086,,0,7,7,11,1,REAL,FAKE,,,,,,,,,,,,,,,,,
,,,,,,,,,660d6b2e957fa582ec87816f,Spanish,13 or older,"no, only English or Spanish",no,2025-07-24_09h24.54.372,empathy_intonation_perc_control,2024.2.4,Win32,59.88023952,660d6b2e957fa582ec87816f,68817205a84113384fffdfe3,688233a44468702aa1f2dcff,,,,,,,,,,,,,1,,,,,,,,,,,,,,,,,,,,,,,,,,,,,,,,,,,,,67,cabello,,,,,313.0028,314.1355,1,1,0.5936,,0,8,8,66,1,REAL,FAKE,,,,,,,,,,,,,,,,,
,,,,,,,,,660d6b2e957fa582ec87816f,Spanish,13 or older,"no, only English or Spanish",no,2025-07-24_09h24.54.372,empathy_intonation_perc_control,2024.2.4,Win32,59.88023952,660d6b2e957fa582ec87816f,68817205a84113384fffdfe3,688233a44468702aa1f2dcff,,,,,,,,,,,,,1,,,,,,,,,,,,,,,,,,,,,,,,,,,,,,,,,,,,,52,camisa,,,,,314.1369,315.2756,1,1,0.6006,,0,9,9,51,1,REAL,FAKE,,,,,,,,,,,,,,,,,
,,,,,,,,,660d6b2e957fa582ec87816f,Spanish,13 or older,"no, only English or Spanish",no,2025-07-24_09h24.54.372,empathy_intonation_perc_control,2024.2.4,Win32,59.88023952,660d6b2e957fa582ec87816f,68817205a84113384fffdfe3,688233a44468702aa1f2dcff,,,,,,,,,,,,,1,,,,,,,,,,,,,,,,,,,,,,,,,,,,,,,,,,,,,46,martillo,,,,,315.2768,316.5346,1,1,0.7187,,0,10,10,45,1,REAL,FAKE,,,,,,,,,,,,,,,,,
,,,,,,,,,660d6b2e957fa582ec87816f,Spanish,13 or older,"no, only English or Spanish",no,2025-07-24_09h24.54.372,empathy_intonation_perc_control,2024.2.4,Win32,59.88023952,660d6b2e957fa582ec87816f,68817205a84113384fffdfe3,688233a44468702aa1f2dcff,,,,,,,,,,,,,0,,,,,,,,,,,,,,,,,,,,,,,,,,,,,,,,,,,,,17,floroso,,,,,316.5365,317.7905,1,0,0.7155,,0,11,11,16,1,REAL,FAKE,,,,,,,,,,,,,,,,,
,,,,,,,,,660d6b2e957fa582ec87816f,Spanish,13 or older,"no, only English or Spanish",no,2025-07-24_09h24.54.372,empathy_intonation_perc_control,2024.2.4,Win32,59.88023952,660d6b2e957fa582ec87816f,68817205a84113384fffdfe3,688233a44468702aa1f2dcff,,,,,,,,,,,,,0,,,,,,,,,,,,,,,,,,,,,,,,,,,,,,,,,,,,,42,cadallo,,,,,317.7918,319.3843,0,1,1.0519,,0,12,12,41,1,REAL,FAKE,,,,,,,,,,,,,,,,,
,,,,,,,,,660d6b2e957fa582ec87816f,Spanish,13 or older,"no, only English or Spanish",no,2025-07-24_09h24.54.372,empathy_intonation_perc_control,2024.2.4,Win32,59.88023952,660d6b2e957fa582ec87816f,68817205a84113384fffdfe3,688233a44468702aa1f2dcff,,,,,,,,,,,,,1,,,,,,,,,,,,,,,,,,,,,,,,,,,,,,,,,,,,,62,flaco,,,,,319.3857,320.8508,1,1,0.9355,,0,13,13,61,1,REAL,FAKE,,,,,,,,,,,,,,,,,
,,,,,,,,,660d6b2e957fa582ec87816f,Spanish,13 or older,"no, only English or Spanish",no,2025-07-24_09h24.54.372,empathy_intonation_perc_control,2024.2.4,Win32,59.88023952,660d6b2e957fa582ec87816f,68817205a84113384fffdfe3,688233a44468702aa1f2dcff,,,,,,,,,,,,,0,,,,,,,,,,,,,,,,,,,,,,,,,,,,,,,,,,,,,53,vegada,,,,,320.852,322.2339,0,1,0.8414,,0,14,14,52,1,REAL,FAKE,,,,,,,,,,,,,,,,,
,,,,,,,,,660d6b2e957fa582ec87816f,Spanish,13 or older,"no, only English or Spanish",no,2025-07-24_09h24.54.372,empathy_intonation_perc_control,2024.2.4,Win32,59.88023952,660d6b2e957fa582ec87816f,68817205a84113384fffdfe3,688233a44468702aa1f2dcff,,,,,,,,,,,,,1,,,,,,,,,,,,,,,,,,,,,,,,,,,,,,,,,,,,,75,yacer,,,,,322.2357,323.5673,0,0,0.7902,,0,15,15,74,1,REAL,FAKE,,,,,,,,,,,,,,,,,
,,,,,,,,,660d6b2e957fa582ec87816f,Spanish,13 or older,"no, only English or Spanish",no,2025-07-24_09h24.54.372,empathy_intonation_perc_control,2024.2.4,Win32,59.88023952,660d6b2e957fa582ec87816f,68817205a84113384fffdfe3,688233a44468702aa1f2dcff,,,,,,,,,,,,,1,,,,,,,,,,,,,,,,,,,,,,,,,,,,,,,,,,,,,85,laúd,,,,,323.5689,324.9003,0,0,0.7898,,0,16,16,84,1,REAL,FAKE,,,,,,,,,,,,,,,,,
,,,,,,,,,660d6b2e957fa582ec87816f,Spanish,13 or older,"no, only English or Spanish",no,2025-07-24_09h24.54.372,empathy_intonation_perc_control,2024.2.4,Win32,59.88023952,660d6b2e957fa582ec87816f,68817205a84113384fffdfe3,688233a44468702aa1f2dcff,,,,,,,,,,,,,0,,,,,,,,,,,,,,,,,,,,,,,,,,,,,,,,,,,,,23,lampera,,,,,324.9015,326.1671,1,0,0.7256,,0,17,17,22,1,REAL,FAKE,,,,,,,,,,,,,,,,,
,,,,,,,,,660d6b2e957fa582ec87816f,Spanish,13 or older,"no, only English or Spanish",no,2025-07-24_09h24.54.372,empathy_intonation_perc_control,2024.2.4,Win32,59.88023952,660d6b2e957fa582ec87816f,68817205a84113384fffdfe3,688233a44468702aa1f2dcff,,,,,,,,,,,,,0,,,,,,,,,,,,,,,,,,,,,,,,,,,,,,,,,,,,,1,terzo,,,,,326.1692,327.4081,1,0,0.7005,,0,18,18,0,1,REAL,FAKE,,,,,,,,,,,,,,,,,
,,,,,,,,,660d6b2e957fa582ec87816f,Spanish,13 or older,"no, only English or Spanish",no,2025-07-24_09h24.54.372,empathy_intonation_perc_control,2024.2.4,Win32,59.88023952,660d6b2e957fa582ec87816f,68817205a84113384fffdfe3,688233a44468702aa1f2dcff,,,,,,,,,,,,,0,,,,,,,,,,,,,,,,,,,,,,,,,,,,,,,,,,,,,27,acutación,,,,,327.4093,329.0836,1,0,1.1346,,0,19,19,26,1,REAL,FAKE,,,,,,,,,,,,,,,,,
,,,,,,,,,660d6b2e957fa582ec87816f,Spanish,13 or older,"no, only English or Spanish",no,2025-07-24_09h24.54.372,empathy_intonation_perc_control,2024.2.4,Win32,59.88023952,660d6b2e957fa582ec87816f,68817205a84113384fffdfe3,688233a44468702aa1f2dcff,,,,,,,,,,,,,1,,,,,,,,,,,,,,,,,,,,,,,,,,,,,,,,,,,,,25,bisagra,,,,,329.085,330.4835,0,0,0.8508,,0,20,20,24,1,REAL,FAKE,,,,,,,,,,,,,,,,,
,,,,,,,,,660d6b2e957fa582ec87816f,Spanish,13 or older,"no, only English or Spanish",no,2025-07-24_09h24.54.372,empathy_intonation_perc_control,2024.2.4,Win32,59.88023952,660d6b2e957fa582ec87816f,68817205a84113384fffdfe3,688233a44468702aa1f2dcff,,,,,,,,,,,,,1,,,,,,,,,,,,,,,,,,,,,,,,,,,,,,,,,,,,,71,polvoriento,,,,,330.4848,331.9835,0,0,0.9507,,0,21,21,70,1,REAL,FAKE,,,,,,,,,,,,,,,,,
,,,,,,,,,660d6b2e957fa582ec87816f,Spanish,13 or older,"no, only English or Spanish",no,2025-07-24_09h24.54.372,empathy_intonation_perc_control,2024.2.4,Win32,59.88023952,660d6b2e957fa582ec87816f,68817205a84113384fffdfe3,688233a44468702aa1f2dcff,,,,,,,,,,,,,1,,,,,,,,,,,,,,,,,,,,,,,,,,,,,,,,,,,,,31,pandilla,,,,,331.9849,333.2834,1,1,0.7507,,0,22,22,30,1,REAL,FAKE,,,,,,,,,,,,,,,,,
,,,,,,,,,660d6b2e957fa582ec87816f,Spanish,13 or older,"no, only English or Spanish",no,2025-07-24_09h24.54.372,empathy_intonation_perc_control,2024.2.4,Win32,59.88023952,660d6b2e957fa582ec87816f,68817205a84113384fffdfe3,688233a44468702aa1f2dcff,,,,,,,,,,,,,1,,,,,,,,,,,,,,,,,,,,,,,,,,,,,,,,,,,,,69,engatusar,,,,,333.2849,334.65,0,0,0.8175,,0,23,23,68,1,REAL,FAKE,,,,,,,,,,,,,,,,,
,,,,,,,,,660d6b2e957fa582ec87816f,Spanish,13 or older,"no, only English or Spanish",no,2025-07-24_09h24.54.372,empathy_intonation_perc_control,2024.2.4,Win32,59.88023952,660d6b2e957fa582ec87816f,68817205a84113384fffdfe3,688233a44468702aa1f2dcff,,,,,,,,,,,,,0,,,,,,,,,,,,,,,,,,,,,,,,,,,,,,,,,,,,,29,decar,,,,,334.6515,336.0166,0,1,0.8185,,0,24,24,28,1,REAL,FAKE,,,,,,,,,,,,,,,,,
,,,,,,,,,660d6b2e957fa582ec87816f,Spanish,13 or older,"no, only English or Spanish",no,2025-07-24_09h24.54.372,empathy_intonation_perc_control,2024.2.4,Win32,59.88023952,660d6b2e957fa582ec87816f,68817205a84113384fffdfe3,688233a44468702aa1f2dcff,,,,,,,,,,,,,1,,,,,,,,,,,,,,,,,,,,,,,,,,,,,,,,,,,,,61,seda,,,,,336.0181,337.2332,1,1,0.6867,,0,25,25,60,1,REAL,FAKE,,,,,,,,,,,,,,,,,
,,,,,,,,,660d6b2e957fa582ec87816f,Spanish,13 or older,"no, only English or Spanish",no,2025-07-24_09h24.54.372,empathy_intonation_perc_control,2024.2.4,Win32,59.88023952,660d6b2e957fa582ec87816f,68817205a84113384fffdfe3,688233a44468702aa1f2dcff,,,,,,,,,,,,,1,,,,,,,,,,,,,,,,,,,,,,,,,,,,,,,,,,,,,15,regar,,,,,337.2347,338.5332,0,0,0.7684,,0,26,26,14,1,REAL,FAKE,,,,,,,,,,,,,,,,,
,,,,,,,,,660d6b2e957fa582ec87816f,Spanish,13 or older,"no, only English or Spanish",no,2025-07-24_09h24.54.372,empathy_intonation_perc_control,2024.2.4,Win32,59.88023952,660d6b2e957fa582ec87816f,68817205a84113384fffdfe3,688233a44468702aa1f2dcff,,,,,,,,,,,,,0,,,,,,,,,,,,,,,,,,,,,,,,,,,,,,,,,,,,,63,esposante,,,,,338.5346,339.9832,0,1,0.9007,,0,27,27,62,1,REAL,FAKE,,,,,,,,,,,,,,,,,
,,,,,,,,,660d6b2e957fa582ec87816f,Spanish,13 or older,"no, only English or Spanish",no,2025-07-24_09h24.54.372,empathy_intonation_perc_control,2024.2.4,Win32,59.88023952,660d6b2e957fa582ec87816f,68817205a84113384fffdfe3,688233a44468702aa1f2dcff,,,,,,,,,,,,,1,,,,,,,,,,,,,,,,,,,,,,,,,,,,,,,,,,,,,73,hervidor,,,,,339.9844,341.9405,0,0,1.4169,,0,28,28,72,1,REAL,FAKE,,,,,,,,,,,,,,,,,
,,,,,,,,,660d6b2e957fa582ec87816f,Spanish,13 or older,"no, only English or Spanish",no,2025-07-24_09h24.54.372,empathy_intonation_perc_control,2024.2.4,Win32,59.88023952,660d6b2e957fa582ec87816f,68817205a84113384fffdfe3,688233a44468702aa1f2dcff,,,,,,,,,,,,,1,,,,,,,,,,,,,,,,,,,,,,,,,,,,,,,,,,,,,40,alfombra,,,,,341.9417,343.5995,0,0,1.1252,,0,29,29,39,1,REAL,FAKE,,,,,,,,,,,,,,,,,
,,,,,,,,,660d6b2e957fa582ec87816f,Spanish,13 or older,"no, only English or Spanish",no,2025-07-24_09h24.54.372,empathy_intonation_perc_control,2024.2.4,Win32,59.88023952,660d6b2e957fa582ec87816f,68817205a84113384fffdfe3,688233a44468702aa1f2dcff,,,,,,,,,,,,,1,,,,,,,,,,,,,,,,,,,,,,,,,,,,,,,,,,,,,77,tiburón,,,,,343.6009,345.0492,1,1,0.908,,0,30,30,76,1,REAL,FAKE,,,,,,,,,,,,,,,,,
,,,,,,,,,660d6b2e957fa582ec87816f,Spanish,13 or older,"no, only English or Spanish",no,2025-07-24_09h24.54.372,empathy_intonation_perc_control,2024.2.4,Win32,59.88023952,660d6b2e957fa582ec87816f,68817205a84113384fffdfe3,688233a44468702aa1f2dcff,,,,,,,,,,,,,1,,,,,,,,,,,,,,,,,,,,,,,,,,,,,,,,,,,,,37,granuja,,,,,345.0505,348.6491,1,1,3.0521,,0,31,31,36,1,REAL,FAKE,,,,,,,,,,,,,,,,,
,,,,,,,,,660d6b2e957fa582ec87816f,Spanish,13 or older,"no, only English or Spanish",no,2025-07-24_09h24.54.372,empathy_intonation_perc_control,2024.2.4,Win32,59.88023952,660d6b2e957fa582ec87816f,68817205a84113384fffdfe3,688233a44468702aa1f2dcff,,,,,,,,,,,,,1,,,,,,,,,,,,,,,,,,,,,,,,,,,,,,,,,,,,,11,cenefa,,,,,348.6502,349.9323,0,0,0.734,,0,32,32,10,1,REAL,FAKE,,,,,,,,,,,,,,,,,
,,,,,,,,,660d6b2e957fa582ec87816f,Spanish,13 or older,"no, only English or Spanish",no,2025-07-24_09h24.54.372,empathy_intonation_perc_control,2024.2.4,Win32,59.88023952,660d6b2e957fa582ec87816f,68817205a84113384fffdfe3,688233a44468702aa1f2dcff,,,,,,,,,,,,,1,,,,,,,,,,,,,,,,,,,,,,,,,,,,,,,,,,,,,41,rebuscar,,,,,349.9338,351.1989,0,0,0.7203,,0,33,33,40,1,REAL,FAKE,,,,,,,,,,,,,,,,,
,,,,,,,,,660d6b2e957fa582ec87816f,Spanish,13 or older,"no, only English or Spanish",no,2025-07-24_09h24.54.372,empathy_intonation_perc_control,2024.2.4,Win32,59.88023952,660d6b2e957fa582ec87816f,68817205a84113384fffdfe3,688233a44468702aa1f2dcff,,,,,,,,,,,,,1,,,,,,,,,,,,,,,,,,,,,,,,,,,,,,,,,,,,,34,aviso,,,,,351.2007,352.4398,0,0,0.7007,,0,34,34,33,1,REAL,FAKE,,,,,,,,,,,,,,,,,
,,,,,,,,,660d6b2e957fa582ec87816f,Spanish,13 or older,"no, only English or Spanish",no,2025-07-24_09h24.54.372,empathy_intonation_perc_control,2024.2.4,Win32,59.88023952,660d6b2e957fa582ec87816f,68817205a84113384fffdfe3,688233a44468702aa1f2dcff,,,,,,,,,,,,,0,,,,,,,,,,,,,,,,,,,,,,,,,,,,,,,,,,,,,8,cadeña,,,,,352.4415,354.0656,0,1,1.0914,,0,35,35,7,1,REAL,FAKE,,,,,,,,,,,,,,,,,
,,,,,,,,,660d6b2e957fa582ec87816f,Spanish,13 or older,"no, only English or Spanish",no,2025-07-24_09h24.54.372,empathy_intonation_perc_control,2024.2.4,Win32,59.88023952,660d6b2e957fa582ec87816f,68817205a84113384fffdfe3,688233a44468702aa1f2dcff,,,,,,,,,,,,,1,,,,,,,,,,,,,,,,,,,,,,,,,,,,,,,,,,,,,14,yunque,,,,,354.0669,355.5487,0,0,0.9339,,0,36,36,13,1,REAL,FAKE,,,,,,,,,,,,,,,,,
,,,,,,,,,660d6b2e957fa582ec87816f,Spanish,13 or older,"no, only English or Spanish",no,2025-07-24_09h24.54.372,empathy_intonation_perc_control,2024.2.4,Win32,59.88023952,660d6b2e957fa582ec87816f,68817205a84113384fffdfe3,688233a44468702aa1f2dcff,,,,,,,,,,,,,1,,,,,,,,,,,,,,,,,,,,,,,,,,,,,,,,,,,,,65,bizcocho,,,,,355.5501,356.8653,0,0,0.7692,,0,37,37,64,1,REAL,FAKE,,,,,,,,,,,,,,,,,
,,,,,,,,,660d6b2e957fa582ec87816f,Spanish,13 or older,"no, only English or Spanish",no,2025-07-24_09h24.54.372,empathy_intonation_perc_control,2024.2.4,Win32,59.88023952,660d6b2e957fa582ec87816f,68817205a84113384fffdfe3,688233a44468702aa1f2dcff,,,,,,,,,,,,,0,,,,,,,,,,,,,,,,,,,,,,,,,,,,,,,,,,,,,33,pauca,,,,,356.8669,358.0819,0,1,0.6675,,0,38,38,32,1,REAL,FAKE,,,,,,,,,,,,,,,,,
,,,,,,,,,660d6b2e957fa582ec87816f,Spanish,13 or older,"no, only English or Spanish",no,2025-07-24_09h24.54.372,empathy_intonation_perc_control,2024.2.4,Win32,59.88023952,660d6b2e957fa582ec87816f,68817205a84113384fffdfe3,688233a44468702aa1f2dcff,,,,,,,,,,,,,0,,,,,,,,,,,,,,,,,,,,,,,,,,,,,,,,,,,,,87,grodo,,,,,358.0832,359.3228,0,1,0.7172,,0,39,39,86,1,REAL,FAKE,,,,,,,,,,,,,,,,,
,,,,,,,,,660d6b2e957fa582ec87816f,Spanish,13 or older,"no, only English or Spanish",no,2025-07-24_09h24.54.372,empathy_intonation_perc_control,2024.2.4,Win32,59.88023952,660d6b2e957fa582ec87816f,68817205a84113384fffdfe3,688233a44468702aa1f2dcff,,,,,,,,,,,,,1,,,,,,,,,,,,,,,,,,,,,,,,,,,,,,,,,,,,,36,loro,,,,,359.3239,360.5149,0,0,0.6508,,0,40,40,35,1,REAL,FAKE,,,,,,,,,,,,,,,,,
,,,,,,,,,660d6b2e957fa582ec87816f,Spanish,13 or older,"no, only English or Spanish",no,2025-07-24_09h24.54.372,empathy_intonation_perc_control,2024.2.4,Win32,59.88023952,660d6b2e957fa582ec87816f,68817205a84113384fffdfe3,688233a44468702aa1f2dcff,,,,,,,,,,,,,1,,,,,,,,,,,,,,,,,,,,,,,,,,,,,,,,,,,,,38,estornudar,,,,,360.5161,362.0315,0,0,0.9878,,0,41,41,37,1,REAL,FAKE,,,,,,,,,,,,,,,,,
,,,,,,,,,660d6b2e957fa582ec87816f,Spanish,13 or older,"no, only English or Spanish",no,2025-07-24_09h24.54.372,empathy_intonation_perc_control,2024.2.4,Win32,59.88023952,660d6b2e957fa582ec87816f,68817205a84113384fffdfe3,688233a44468702aa1f2dcff,,,,,,,,,,,,,1,,,,,,,,,,,,,,,,,,,,,,,,,,,,,,,,,,,,,22,lacayo,,,,,362.0327,363.3649,0,0,0.7838,,0,42,42,21,1,REAL,FAKE,,,,,,,,,,,,,,,,,
,,,,,,,,,660d6b2e957fa582ec87816f,Spanish,13 or older,"no, only English or Spanish",no,2025-07-24_09h24.54.372,empathy_intonation_perc_control,2024.2.4,Win32,59.88023952,660d6b2e957fa582ec87816f,68817205a84113384fffdfe3,688233a44468702aa1f2dcff,,,,,,,,,,,,,0,,,,,,,,,,,,,,,,,,,,,,,,,,,,,,,,,,,,,84,escuto,,,,,363.3664,364.5481,1,0,0.6419,,0,43,43,83,1,REAL,FAKE,,,,,,,,,,,,,,,,,
,,,,,,,,,660d6b2e957fa582ec87816f,Spanish,13 or older,"no, only English or Spanish",no,2025-07-24_09h24.54.372,empathy_intonation_perc_control,2024.2.4,Win32,59.88023952,660d6b2e957fa582ec87816f,68817205a84113384fffdfe3,688233a44468702aa1f2dcff,,,,,,,,,,,,,1,,,,,,,,,,,,,,,,,,,,,,,,,,,,,,,,,,,,,60,matar,,,,,364.5495,366.2148,1,1,1.137,,0,44,44,59,1,REAL,FAKE,,,,,,,,,,,,,,,,,
,,,,,,,,,660d6b2e957fa582ec87816f,Spanish,13 or older,"no, only English or Spanish",no,2025-07-24_09h24.54.372,empathy_intonation_perc_control,2024.2.4,Win32,59.88023952,660d6b2e957fa582ec87816f,68817205a84113384fffdfe3,688233a44468702aa1f2dcff,,,,,,,,,,,,,1,,,,,,,,,,,,,,,,,,,,,,,,,,,,,,,,,,,,,43,canela,,,,,366.2162,368.131,0,0,1.3735,,0,45,45,42,1,REAL,FAKE,,,,,,,,,,,,,,,,,
,,,,,,,,,660d6b2e957fa582ec87816f,Spanish,13 or older,"no, only English or Spanish",no,2025-07-24_09h24.54.372,empathy_intonation_perc_control,2024.2.4,Win32,59.88023952,660d6b2e957fa582ec87816f,68817205a84113384fffdfe3,688233a44468702aa1f2dcff,,,,,,,,,,,,,1,,,,,,,,,,,,,,,,,,,,,,,,,,,,,,,,,,,,,45,jilguero,,,,,368.1324,369.4556,0,0,0.7839,,0,46,46,44,1,REAL,FAKE,,,,,,,,,,,,,,,,,
,,,,,,,,,660d6b2e957fa582ec87816f,Spanish,13 or older,"no, only English or Spanish",no,2025-07-24_09h24.54.372,empathy_intonation_perc_control,2024.2.4,Win32,59.88023952,660d6b2e957fa582ec87816f,68817205a84113384fffdfe3,688233a44468702aa1f2dcff,,,,,,,,,,,,,1,,,,,,,,,,,,,,,,,,,,,,,,,,,,,,,,,,,,,7,pésimo,,,,,369.457,370.9476,0,0,0.9505,,0,47,47,6,1,REAL,FAKE,,,,,,,,,,,,,,,,,
,,,,,,,,,660d6b2e957fa582ec87816f,Spanish,13 or older,"no, only English or Spanish",no,2025-07-24_09h24.54.372,empathy_intonation_perc_control,2024.2.4,Win32,59.88023952,660d6b2e957fa582ec87816f,68817205a84113384fffdfe3,688233a44468702aa1f2dcff,,,,,,,,,,,,,0,,,,,,,,,,,,,,,,,,,,,,,,,,,,,,,,,,,,,58,plaudir,,,,,370.949,372.572,0,1,1.0839,,0,48,48,57,1,REAL,FAKE,,,,,,,,,,,,,,,,,
,,,,,,,,,660d6b2e957fa582ec87816f,Spanish,13 or older,"no, only English or Spanish",no,2025-07-24_09h24.54.372,empathy_intonation_perc_control,2024.2.4,Win32,59.88023952,660d6b2e957fa582ec87816f,68817205a84113384fffdfe3,688233a44468702aa1f2dcff,,,,,,,,,,,,,0,,,,,,,,,,,,,,,,,,,,,,,,,,,,,,,,,,,,,79,tropaje,,,,,372.5733,374.1141,0,1,1.0069,,0,49,49,78,1,REAL,FAKE,,,,,,,,,,,,,,,,,
,,,,,,,,,660d6b2e957fa582ec87816f,Spanish,13 or older,"no, only English or Spanish",no,2025-07-24_09h24.54.372,empathy_intonation_perc_control,2024.2.4,Win32,59.88023952,660d6b2e957fa582ec87816f,68817205a84113384fffdfe3,688233a44468702aa1f2dcff,,,,,,,,,,,,,1,,,,,,,,,,,,,,,,,,,,,,,,,,,,,,,,,,,,,49,ganar,,,,,374.1158,375.3716,0,0,0.7169,,0,50,50,48,1,REAL,FAKE,,,,,,,,,,,,,,,,,
,,,,,,,,,660d6b2e957fa582ec87816f,Spanish,13 or older,"no, only English or Spanish",no,2025-07-24_09h24.54.372,empathy_intonation_perc_control,2024.2.4,Win32,59.88023952,660d6b2e957fa582ec87816f,68817205a84113384fffdfe3,688233a44468702aa1f2dcff,,,,,,,,,,,,,1,,,,,,,,,,,,,,,,,,,,,,,,,,,,,,,,,,,,,91,click the 1 key.,,,,,375.3738,377.7977,1,1,1.8923,,0,51,51,90,1,REAL,FAKE,,,,,,,,,,,,,,,,,
,,,,,,,,,660d6b2e957fa582ec87816f,Spanish,13 or older,"no, only English or Spanish",no,2025-07-24_09h24.54.372,empathy_intonation_perc_control,2024.2.4,Win32,59.88023952,660d6b2e957fa582ec87816f,68817205a84113384fffdfe3,688233a44468702aa1f2dcff,,,,,,,,,,,,,1,,,,,,,,,,,,,,,,,,,,,,,,,,,,,,,,,,,,,44,cuchara,,,,,377.8,379.1307,1,1,0.7925,,0,52,52,43,1,REAL,FAKE,,,,,,,,,,,,,,,,,
,,,,,,,,,660d6b2e957fa582ec87816f,Spanish,13 or older,"no, only English or Spanish",no,2025-07-24_09h24.54.372,empathy_intonation_perc_control,2024.2.4,Win32,59.88023952,660d6b2e957fa582ec87816f,68817205a84113384fffdfe3,688233a44468702aa1f2dcff,,,,,,,,,,,,,1,,,,,,,,,,,,,,,,,,,,,,,,,,,,,,,,,,,,,51,candado,,,,,379.1319,380.6805,1,1,1.0009,,0,53,53,50,1,REAL,FAKE,,,,,,,,,,,,,,,,,
,,,,,,,,,660d6b2e957fa582ec87816f,Spanish,13 or older,"no, only English or Spanish",no,2025-07-24_09h24.54.372,empathy_intonation_perc_control,2024.2.4,Win32,59.88023952,660d6b2e957fa582ec87816f,68817205a84113384fffdfe3,688233a44468702aa1f2dcff,,,,,,,,,,,,,0,,,,,,,,,,,,,,,,,,,,,,,,,,,,,,,,,,,,,82,empirador,,,,,380.6818,382.3379,0,1,1.1171,,0,54,54,81,1,REAL,FAKE,,,,,,,,,,,,,,,,,
,,,,,,,,,660d6b2e957fa582ec87816f,Spanish,13 or older,"no, only English or Spanish",no,2025-07-24_09h24.54.372,empathy_intonation_perc_control,2024.2.4,Win32,59.88023952,660d6b2e957fa582ec87816f,68817205a84113384fffdfe3,688233a44468702aa1f2dcff,,,,,,,,,,,,,1,,,,,,,,,,,,,,,,,,,,,,,,,,,,,,,,,,,,,83,guante,,,,,382.3391,383.7711,0,0,0.9002,,0,55,55,82,1,REAL,FAKE,,,,,,,,,,,,,,,,,
,,,,,,,,,660d6b2e957fa582ec87816f,Spanish,13 or older,"no, only English or Spanish",no,2025-07-24_09h24.54.372,empathy_intonation_perc_control,2024.2.4,Win32,59.88023952,660d6b2e957fa582ec87816f,68817205a84113384fffdfe3,688233a44468702aa1f2dcff,,,,,,,,,,,,,0,,,,,,,,,,,,,,,,,,,,,,,,,,,,,,,,,,,,,92,click the 0 key.,,,,,383.7725,385.3967,0,1,1.0873,,0,56,56,91,1,REAL,FAKE,,,,,,,,,,,,,,,,,
,,,,,,,,,660d6b2e957fa582ec87816f,Spanish,13 or older,"no, only English or Spanish",no,2025-07-24_09h24.54.372,empathy_intonation_perc_control,2024.2.4,Win32,59.88023952,660d6b2e957fa582ec87816f,68817205a84113384fffdfe3,688233a44468702aa1f2dcff,,,,,,,,,,,,,0,,,,,,,,,,,,,,,,,,,,,,,,,,,,,,,,,,,,,72,pemición,,,,,385.3978,387.6135,1,0,1.668,,0,57,57,71,1,REAL,FAKE,,,,,,,,,,,,,,,,,
,,,,,,,,,660d6b2e957fa582ec87816f,Spanish,13 or older,"no, only English or Spanish",no,2025-07-24_09h24.54.372,empathy_intonation_perc_control,2024.2.4,Win32,59.88023952,660d6b2e957fa582ec87816f,68817205a84113384fffdfe3,688233a44468702aa1f2dcff,,,,,,,,,,,,,1,,,,,,,,,,,,,,,,,,,,,,,,,,,,,,,,,,,,,64,orgulloso,,,,,387.6148,389.1131,0,0,0.9532,,0,58,58,63,1,REAL,FAKE,,,,,,,,,,,,,,,,,
,,,,,,,,,660d6b2e957fa582ec87816f,Spanish,13 or older,"no, only English or Spanish",no,2025-07-24_09h24.54.372,empathy_intonation_perc_control,2024.2.4,Win32,59.88023952,660d6b2e957fa582ec87816f,68817205a84113384fffdfe3,688233a44468702aa1f2dcff,,,,,,,,,,,,,0,,,,,,,,,,,,,,,,,,,,,,,,,,,,,,,,,,,,,70,temblo,,,,,389.1147,390.3798,0,1,0.7216,,0,59,59,69,1,REAL,FAKE,,,,,,,,,,,,,,,,,
,,,,,,,,,660d6b2e957fa582ec87816f,Spanish,13 or older,"no, only English or Spanish",no,2025-07-24_09h24.54.372,empathy_intonation_perc_control,2024.2.4,Win32,59.88023952,660d6b2e957fa582ec87816f,68817205a84113384fffdfe3,688233a44468702aa1f2dcff,,,,,,,,,,,,,1,,,,,,,,,,,,,,,,,,,,,,,,,,,,,,,,,,,,,54,fomentar,,,,,390.3812,392.4874,0,0,1.5671,,0,60,60,53,1,REAL,FAKE,,,,,,,,,,,,,,,,,
,,,,,,,,,660d6b2e957fa582ec87816f,Spanish,13 or older,"no, only English or Spanish",no,2025-07-24_09h24.54.372,empathy_intonation_perc_control,2024.2.4,Win32,59.88023952,660d6b2e957fa582ec87816f,68817205a84113384fffdfe3,688233a44468702aa1f2dcff,,,,,,,,,,,,,1,,,,,,,,,,,,,,,,,,,,,,,,,,,,,,,,,,,,,2,pellizcar,,,,,392.4889,393.7962,0,0,0.7691,,0,61,61,1,1,REAL,FAKE,,,,,,,,,,,,,,,,,
,,,,,,,,,660d6b2e957fa582ec87816f,Spanish,13 or older,"no, only English or Spanish",no,2025-07-24_09h24.54.372,empathy_intonation_perc_control,2024.2.4,Win32,59.88023952,660d6b2e957fa582ec87816f,68817205a84113384fffdfe3,688233a44468702aa1f2dcff,,,,,,,,,,,,,1,,,,,,,,,,,,,,,,,,,,,,,,,,,,,,,,,,,,,48,ladrón,,,,,393.798,394.9797,0,0,0.6344,,0,62,62,47,1,REAL,FAKE,,,,,,,,,,,,,,,,,
,,,,,,,,,660d6b2e957fa582ec87816f,Spanish,13 or older,"no, only English or Spanish",no,2025-07-24_09h24.54.372,empathy_intonation_perc_control,2024.2.4,Win32,59.88023952,660d6b2e957fa582ec87816f,68817205a84113384fffdfe3,688233a44468702aa1f2dcff,,,,,,,,,,,,,1,,,,,,,,,,,,,,,,,,,,,,,,,,,,,,,,,,,,,88,acantilado,,,,,394.9811,396.4462,1,1,0.9182,,0,63,63,87,1,REAL,FAKE,,,,,,,,,,,,,,,,,
,,,,,,,,,660d6b2e957fa582ec87816f,Spanish,13 or older,"no, only English or Spanish",no,2025-07-24_09h24.54.372,empathy_intonation_perc_control,2024.2.4,Win32,59.88023952,660d6b2e957fa582ec87816f,68817205a84113384fffdfe3,688233a44468702aa1f2dcff,,,,,,,,,,,,,0,,,,,,,,,,,,,,,,,,,,,,,,,,,,,,,,,,,,,32,fatacidad,,,,,396.4475,399.146,0,1,2.1525,,0,64,64,31,1,REAL,FAKE,,,,,,,,,,,,,,,,,
,,,,,,,,,660d6b2e957fa582ec87816f,Spanish,13 or older,"no, only English or Spanish",no,2025-07-24_09h24.54.372,empathy_intonation_perc_control,2024.2.4,Win32,59.88023952,660d6b2e957fa582ec87816f,68817205a84113384fffdfe3,688233a44468702aa1f2dcff,,,,,,,,,,,,,0,,,,,,,,,,,,,,,,,,,,,,,,,,,,,,,,,,,,,19,brecedad,,,,,399.1476,400.4128,0,1,0.7265,,0,65,65,18,1,REAL,FAKE,,,,,,,,,,,,,,,,,
,,,,,,,,,660d6b2e957fa582ec87816f,Spanish,13 or older,"no, only English or Spanish",no,2025-07-24_09h24.54.372,empathy_intonation_perc_control,2024.2.4,Win32,59.88023952,660d6b2e957fa582ec87816f,68817205a84113384fffdfe3,688233a44468702aa1f2dcff,,,,,,,,,,,,,1,,,,,,,,,,,,,,,,,,,,,,,,,,,,,,,,,,,,,28,merodear,,,,,400.4141,401.6956,0,0,0.7542,,0,66,66,27,1,REAL,FAKE,,,,,,,,,,,,,,,,,
,,,,,,,,,660d6b2e957fa582ec87816f,Spanish,13 or older,"no, only English or Spanish",no,2025-07-24_09h24.54.372,empathy_intonation_perc_control,2024.2.4,Win32,59.88023952,660d6b2e957fa582ec87816f,68817205a84113384fffdfe3,688233a44468702aa1f2dcff,,,,,,,,,,,,,1,,,,,,,,,,,,,,,,,,,,,,,,,,,,,,,,,,,,,56,musgo,,,,,401.697,403.0956,0,0,0.8574,,0,67,67,55,1,REAL,FAKE,,,,,,,,,,,,,,,,,
,,,,,,,,,660d6b2e957fa582ec87816f,Spanish,13 or older,"no, only English or Spanish",no,2025-07-24_09h24.54.372,empathy_intonation_perc_control,2024.2.4,Win32,59.88023952,660d6b2e957fa582ec87816f,68817205a84113384fffdfe3,688233a44468702aa1f2dcff,,,,,,,,,,,,,1,,,,,,,,,,,,,,,,,,,,,,,,,,,,,,,,,,,,,68,alegre,,,,,403.0968,404.9353,1,1,1.2992,,0,68,68,67,1,REAL,FAKE,,,,,,,,,,,,,,,,,
,,,,,,,,,660d6b2e957fa582ec87816f,Spanish,13 or older,"no, only English or Spanish",no,2025-07-24_09h24.54.372,empathy_intonation_perc_control,2024.2.4,Win32,59.88023952,660d6b2e957fa582ec87816f,68817205a84113384fffdfe3,688233a44468702aa1f2dcff,,,,,,,,,,,,,0,,,,,,,,,,,,,,,,,,,,,,,,,,,,,,,,,,,,,50,flamida,,,,,404.9364,406.262,1,0,0.787,,0,69,69,49,1,REAL,FAKE,,,,,,,,,,,,,,,,,
,,,,,,,,,660d6b2e957fa582ec87816f,Spanish,13 or older,"no, only English or Spanish",no,2025-07-24_09h24.54.372,empathy_intonation_perc_control,2024.2.4,Win32,59.88023952,660d6b2e957fa582ec87816f,68817205a84113384fffdfe3,688233a44468702aa1f2dcff,,,,,,,,,,,,,0,,,,,,,,,,,,,,,,,,,,,,,,,,,,,,,,,,,,,35,rompido,,,,,406.2634,407.7288,0,1,0.9175,,0,70,70,34,1,REAL,FAKE,,,,,,,,,,,,,,,,,
,,,,,,,,,660d6b2e957fa582ec87816f,Spanish,13 or older,"no, only English or Spanish",no,2025-07-24_09h24.54.372,empathy_intonation_perc_control,2024.2.4,Win32,59.88023952,660d6b2e957fa582ec87816f,68817205a84113384fffdfe3,688233a44468702aa1f2dcff,,,,,,,,,,,,,1,,,,,,,,,,,,,,,,,,,,,,,,,,,,,,,,,,,,,39,torpe,,,,,407.7304,409.5953,0,0,1.3174,,0,71,71,38,1,REAL,FAKE,,,,,,,,,,,,,,,,,
,,,,,,,,,660d6b2e957fa582ec87816f,Spanish,13 or older,"no, only English or Spanish",no,2025-07-24_09h24.54.372,empathy_intonation_perc_control,2024.2.4,Win32,59.88023952,660d6b2e957fa582ec87816f,68817205a84113384fffdfe3,688233a44468702aa1f2dcff,,,,,,,,,,,,,1,,,,,,,,,,,,,,,,,,,,,,,,,,,,,,,,,,,,,13,helar,,,,,409.5967,410.8861,0,0,0.7504,,0,72,72,12,1,REAL,FAKE,,,,,,,,,,,,,,,,,
,,,,,,,,,660d6b2e957fa582ec87816f,Spanish,13 or older,"no, only English or Spanish",no,2025-07-24_09h24.54.372,empathy_intonation_perc_control,2024.2.4,Win32,59.88023952,660d6b2e957fa582ec87816f,68817205a84113384fffdfe3,688233a44468702aa1f2dcff,,,,,,,,,,,,,1,,,,,,,,,,,,,,,,,,,,,,,,,,,,,,,,,,,,,76,atar,,,,,410.8873,412.1618,0,0,0.7341,,0,73,73,75,1,REAL,FAKE,,,,,,,,,,,,,,,,,
,,,,,,,,,660d6b2e957fa582ec87816f,Spanish,13 or older,"no, only English or Spanish",no,2025-07-24_09h24.54.372,empathy_intonation_perc_control,2024.2.4,Win32,59.88023952,660d6b2e957fa582ec87816f,68817205a84113384fffdfe3,688233a44468702aa1f2dcff,,,,,,,,,,,,,1,,,,,,,,,,,,,,,,,,,,,,,,,,,,,,,,,,,,,24,látigo,,,,,412.1636,413.7859,1,1,1.0838,,0,74,74,23,1,REAL,FAKE,,,,,,,,,,,,,,,,,
,,,,,,,,,660d6b2e957fa582ec87816f,Spanish,13 or older,"no, only English or Spanish",no,2025-07-24_09h24.54.372,empathy_intonation_perc_control,2024.2.4,Win32,59.88023952,660d6b2e957fa582ec87816f,68817205a84113384fffdfe3,688233a44468702aa1f2dcff,,,,,,,,,,,,,0,,,,,,,,,,,,,,,,,,,,,,,,,,,,,,,,,,,,,21,capillo,,,,,413.787,414.9614,1,0,0.6337,,0,75,75,20,1,REAL,FAKE,,,,,,,,,,,,,,,,,
,,,,,,,,,660d6b2e957fa582ec87816f,Spanish,13 or older,"no, only English or Spanish",no,2025-07-24_09h24.54.372,empathy_intonation_perc_control,2024.2.4,Win32,59.88023952,660d6b2e957fa582ec87816f,68817205a84113384fffdfe3,688233a44468702aa1f2dcff,,,,,,,,,,,,,0,,,,,,,,,,,,,,,,,,,,,,,,,,,,,,,,,,,,,66,hacido,,,,,414.9626,416.3613,0,1,0.8507,,0,76,76,65,1,REAL,FAKE,,,,,,,,,,,,,,,,,
,,,,,,,,,660d6b2e957fa582ec87816f,Spanish,13 or older,"no, only English or Spanish",no,2025-07-24_09h24.54.372,empathy_intonation_perc_control,2024.2.4,Win32,59.88023952,660d6b2e957fa582ec87816f,68817205a84113384fffdfe3,688233a44468702aa1f2dcff,,,,,,,,,,,,,1,,,,,,,,,,,,,,,,,,,,,,,,,,,,,,,,,,,,,20,ávido,,,,,416.3626,417.7194,0,0,0.8172,,0,77,77,19,1,REAL,FAKE,,,,,,,,,,,,,,,,,
,,,,,,,,,660d6b2e957fa582ec87816f,Spanish,13 or older,"no, only English or Spanish",no,2025-07-24_09h24.54.372,empathy_intonation_perc_control,2024.2.4,Win32,59.88023952,660d6b2e957fa582ec87816f,68817205a84113384fffdfe3,688233a44468702aa1f2dcff,,,,,,,,,,,,,1,,,,,,,,,,,,,,,,,,,,,,,,,,,,,,,,,,,,,81,pozo,,,,,417.7206,419.228,1,1,0.9713,,0,78,78,80,1,REAL,FAKE,,,,,,,,,,,,,,,,,
,,,,,,,,,660d6b2e957fa582ec87816f,Spanish,13 or older,"no, only English or Spanish",no,2025-07-24_09h24.54.372,empathy_intonation_perc_control,2024.2.4,Win32,59.88023952,660d6b2e957fa582ec87816f,68817205a84113384fffdfe3,688233a44468702aa1f2dcff,,,,,,,,,,,,,0,,,,,,,,,,,,,,,,,,,,,,,,,,,,,,,,,,,,,74,cintro,,,,,419.2294,420.532,1,0,0.7636,,0,79,79,73,1,REAL,FAKE,,,,,,,,,,,,,,,,,
,,,,,,,,,660d6b2e957fa582ec87816f,Spanish,13 or older,"no, only English or Spanish",no,2025-07-24_09h24.54.372,empathy_intonation_perc_control,2024.2.4,Win32,59.88023952,660d6b2e957fa582ec87816f,68817205a84113384fffdfe3,688233a44468702aa1f2dcff,,,,,,,,,,,,,1,,,,,,,,,,,,,,,,,,,,,,,,,,,,,,,,,,,,,9,hacha,,,,,420.5333,421.711,1,1,0.6591,,0,80,80,8,1,REAL,FAKE,,,,,,,,,,,,,,,,,
,,,,,,,,,660d6b2e957fa582ec87816f,Spanish,13 or older,"no, only English or Spanish",no,2025-07-24_09h24.54.372,empathy_intonation_perc_control,2024.2.4,Win32,59.88023952,660d6b2e957fa582ec87816f,68817205a84113384fffdfe3,688233a44468702aa1f2dcff,,,,,,,,,,,,,1,,,,,,,,,,,,,,,,,,,,,,,,,,,,,,,,,,,,,80,hormiga,,,,,421.7133,422.9674,1,1,0.7157,,0,81,81,79,1,REAL,FAKE,,,,,,,,,,,,,,,,,
,,,,,,,,,660d6b2e957fa582ec87816f,Spanish,13 or older,"no, only English or Spanish",no,2025-07-24_09h24.54.372,empathy_intonation_perc_control,2024.2.4,Win32,59.88023952,660d6b2e957fa582ec87816f,68817205a84113384fffdfe3,688233a44468702aa1f2dcff,,,,,,,,,,,,,1,,,,,,,,,,,,,,,,,,,,,,,,,,,,,,,,,,,,,3,pulmones,,,,,422.9685,424.3119,1,1,0.8104,,0,82,82,2,1,REAL,FAKE,,,,,,,,,,,,,,,,,
,,,,,,,,,660d6b2e957fa582ec87816f,Spanish,13 or older,"no, only English or Spanish",no,2025-07-24_09h24.54.372,empathy_intonation_perc_control,2024.2.4,Win32,59.88023952,660d6b2e957fa582ec87816f,68817205a84113384fffdfe3,688233a44468702aa1f2dcff,,,,,,,,,,,,,1,,,,,,,,,,,,,,,,,,,,,,,,,,,,,,,,,,,,,26,secuestro,,,,,424.3132,426.2441,1,1,1.3895,,0,83,83,25,1,REAL,FAKE,,,,,,,,,,,,,,,,,
,,,,,,,,,660d6b2e957fa582ec87816f,Spanish,13 or older,"no, only English or Spanish",no,2025-07-24_09h24.54.372,empathy_intonation_perc_control,2024.2.4,Win32,59.88023952,660d6b2e957fa582ec87816f,68817205a84113384fffdfe3,688233a44468702aa1f2dcff,,,,,,,,,,,,,1,,,,,,,,,,,,,,,,,,,,,,,,,,,,,,,,,,,,,59,besar,,,,,426.2455,428.3607,1,1,1.5671,,0,84,84,58,1,REAL,FAKE,,,,,,,,,,,,,,,,,
,,,,,,,,,660d6b2e957fa582ec87816f,Spanish,13 or older,"no, only English or Spanish",no,2025-07-24_09h24.54.372,empathy_intonation_perc_control,2024.2.4,Win32,59.88023952,660d6b2e957fa582ec87816f,68817205a84113384fffdfe3,688233a44468702aa1f2dcff,,,,,,,,,,,,,0,,,,,,,,,,,,,,,,,,,,,,,,,,,,,,,,,,,,,30,alardio,,,,,428.3623,429.7441,0,1,0.8412,,0,85,85,29,1,REAL,FAKE,,,,,,,,,,,,,,,,,
,,,,,,,,,660d6b2e957fa582ec87816f,Spanish,13 or older,"no, only English or Spanish",no,2025-07-24_09h24.54.372,empathy_intonation_perc_control,2024.2.4,Win32,59.88023952,660d6b2e957fa582ec87816f,68817205a84113384fffdfe3,688233a44468702aa1f2dcff,,,,,,,,,,,,,1,,,,,,,,,,,,,,,,,,,,,,,,,,,,,,,,,,,,,86,barato,,,,,429.7452,431.8104,0,0,1.5221,,0,86,86,85,1,REAL,FAKE,,,,,,,,,,,,,,,,,
,,,,,,,,,660d6b2e957fa582ec87816f,Spanish,13 or older,"no, only English or Spanish",no,2025-07-24_09h24.54.372,empathy_intonation_perc_control,2024.2.4,Win32,59.88023952,660d6b2e957fa582ec87816f,68817205a84113384fffdfe3,688233a44468702aa1f2dcff,,,,,,,,,,,,,1,,,,,,,,,,,,,,,,,,,,,,,,,,,,,,,,,,,,,89,prisa,,,,,431.8118,433.327,0,0,0.9677,,0,87,87,88,1,REAL,FAKE,,,,,,,,,,,,,,,,,
,,,,,,,,,660d6b2e957fa582ec87816f,Spanish,13 or older,"no, only English or Spanish",no,2025-07-24_09h24.54.372,empathy_intonation_perc_control,2024.2.4,Win32,59.88023952,660d6b2e957fa582ec87816f,68817205a84113384fffdfe3,688233a44468702aa1f2dcff,,,,,,,,,,,,,1,,,,,,,,,,,,,,,,,,,,,,,,,,,,,,,,,,,,,57,tacaño,,,,,433.3285,434.6937,0,0,0.8232,,0,88,88,56,1,REAL,FAKE,,,,,,,,,,,,,,,,,
,,,,,,,,,660d6b2e957fa582ec87816f,Spanish,13 or older,"no, only English or Spanish",no,2025-07-24_09h24.54.372,empathy_intonation_perc_control,2024.2.4,Win32,59.88023952,660d6b2e957fa582ec87816f,68817205a84113384fffdfe3,688233a44468702aa1f2dcff,,,,,,,,,,,,,1,,,,,,,,,,,,,,,,,,,,,,,,,,,,,,,,,,,,,90,clavel,,,,,434.6948,435.9271,0,0,0.6907,,0,89,89,89,1,REAL,FAKE,,,,,,,,,,,,,,,,,
,,,,,,,,,660d6b2e957fa582ec87816f,Spanish,13 or older,"no, only English or Spanish",no,2025-07-24_09h24.54.372,empathy_intonation_perc_control,2024.2.4,Win32,59.88023952,660d6b2e957fa582ec87816f,68817205a84113384fffdfe3,688233a44468702aa1f2dcff,,,,,,,,,,,,,0,,,,,,,,,,,,,,,,,,,,,,,,,,,,,,,,,,,,,18,arsa,,,,,435.9282,437.3279,0,1,0.8773,,0,90,90,17,1,REAL,FAKE,,,,,,,,,,,,,,,,,
,,,,,,,,,660d6b2e957fa582ec87816f,Spanish,13 or older,"no, only English or Spanish",no,2025-07-24_09h24.54.372,empathy_intonation_perc_control,2024.2.4,Win32,59.88023952,660d6b2e957fa582ec87816f,68817205a84113384fffdfe3,688233a44468702aa1f2dcff,,,,,,,,,,,,,0,,,,,,,,,,,,,,,,,,,,,,,,,,,,,,,,,,,,,10,antar,,,,,437.3291,439.2101,0,1,1.3402,,0,91,91,9,1,REAL,FAKE,,,,,,,,,,,,,,,,,
,,,,,,,,,660d6b2e957fa582ec87816f,Spanish,13 or older,"no, only English or Spanish",no,2025-07-24_09h24.54.372,empathy_intonation_perc_control,2024.2.4,Win32,59.88023952,660d6b2e957fa582ec87816f,68817205a84113384fffdfe3,688233a44468702aa1f2dcff,,,,,,,,,,,,,,,,,,,,,,,,,,,,,,,,,,,,,,,,,,,,,,,,,,,,,,,,,,,,,,,,,,,,,439.211,444.6771,,,,,,,,,,,,,,,
,,,,,,,,,660d6b2e957fa582ec87816f,Spanish,13 or older,"no, only English or Spanish",no,2025-07-24_09h24.54.372,empathy_intonation_perc_control,2024.2.4,Win32,59.88023952,660d6b2e957fa582ec87816f,68817205a84113384fffdfe3,688233a44468702aa1f2dcff,,,,,,,,,,,,,,,,,,,,,,,,,,,1,,,,,,,,,,,,,,,,,,,,,,,,,,,,,,,,,,,,,,,,,,,,444.6939,456.5933,slightly agree,0,0,0,0,1,I can easily tell if someone else wants to enter a conversation.,1,0,1,0,,
,,,,,,,,,660d6b2e957fa582ec87816f,Spanish,13 or older,"no, only English or Spanish",no,2025-07-24_09h24.54.372,empathy_intonation_perc_control,2024.2.4,Win32,59.88023952,660d6b2e957fa582ec87816f,68817205a84113384fffdfe3,688233a44468702aa1f2dcff,,,,,,,,,,,,,,,,,,,,,,,,,,,2,,,,,,,,,,,,,,,,,,,,,,,,,,,,,,,,,,,,,,,,,,,,456.5964,458.7836,slightly disagree,0,1,1,1,1,I prefer animals to humans.,0,1,0,0,,
,,,,,,,,,660d6b2e957fa582ec87816f,Spanish,13 or older,"no, only English or Spanish",no,2025-07-24_09h24.54.372,empathy_intonation_perc_control,2024.2.4,Win32,59.88023952,660d6b2e957fa582ec87816f,68817205a84113384fffdfe3,688233a44468702aa1f2dcff,,,,,,,,,,,,,,,,,,,,,,,,,,,3,,,,,,,,,,,,,,,,,,,,,,,,,,,,,,,,,,,,,,,,,,,,458.7859,460.6421,slightly agree,0,2,2,2,1,I try to keep up with the current trends and fashions.,0,1,0,0,,
,,,,,,,,,660d6b2e957fa582ec87816f,Spanish,13 or older,"no, only English or Spanish",no,2025-07-24_09h24.54.372,empathy_intonation_perc_control,2024.2.4,Win32,59.88023952,660d6b2e957fa582ec87816f,68817205a84113384fffdfe3,688233a44468702aa1f2dcff,,,,,,,,,,,,,,,,,,,,,,,,,,,4,,,,,,,,,,,,,,,,,,,,,,,,,,,,,,,,,,,,,,,,,,,,460.6459,467.7425,slightly agree,0,3,3,3,1,"I find it difficult to explain to others things that I understand easily,   when they don't understand it first time.",1,0,0,1,,
,,,,,,,,,660d6b2e957fa582ec87816f,Spanish,13 or older,"no, only English or Spanish",no,2025-07-24_09h24.54.372,empathy_intonation_perc_control,2024.2.4,Win32,59.88023952,660d6b2e957fa582ec87816f,68817205a84113384fffdfe3,688233a44468702aa1f2dcff,,,,,,,,,,,,,,,,,,,,,,,,,,,5,,,,,,,,,,,,,,,,,,,,,,,,,,,,,,,,,,,,,,,,,,,,467.7448,469.3161,slightly agree,0,4,4,4,1,I dream most nights.,0,1,0,0,,
,,,,,,,,,660d6b2e957fa582ec87816f,Spanish,13 or older,"no, only English or Spanish",no,2025-07-24_09h24.54.372,empathy_intonation_perc_control,2024.2.4,Win32,59.88023952,660d6b2e957fa582ec87816f,68817205a84113384fffdfe3,688233a44468702aa1f2dcff,,,,,,,,,,,,,,,,,,,,,,,,,,,6,,,,,,,,,,,,,,,,,,,,,,,,,,,,,,,,,,,,,,,,,,,,469.3179,470.9579,slightly agree,0,5,5,5,1,I really enjoy caring for other people.,1,0,1,0,,
,,,,,,,,,660d6b2e957fa582ec87816f,Spanish,13 or older,"no, only English or Spanish",no,2025-07-24_09h24.54.372,empathy_intonation_perc_control,2024.2.4,Win32,59.88023952,660d6b2e957fa582ec87816f,68817205a84113384fffdfe3,688233a44468702aa1f2dcff,,,,,,,,,,,,,,,,,,,,,,,,,,,7,,,,,,,,,,,,,,,,,,,,,,,,,,,,,,,,,,,,,,,,,,,,470.9607,475.1413,slightly disagree,0,6,6,6,1,I try to solve my own problems rather than discussing them with others.,0,1,0,0,,
,,,,,,,,,660d6b2e957fa582ec87816f,Spanish,13 or older,"no, only English or Spanish",no,2025-07-24_09h24.54.372,empathy_intonation_perc_control,2024.2.4,Win32,59.88023952,660d6b2e957fa582ec87816f,68817205a84113384fffdfe3,688233a44468702aa1f2dcff,,,,,,,,,,,,,,,,,,,,,,,,,,,8,,,,,,,,,,,,,,,,,,,,,,,,,,,,,,,,,,,,,,,,,,,,475.1437,478.6622,slightly disagree,0,7,7,7,1,I find it hard to know what to do in a social situation.,1,0,0,1,,
,,,,,,,,,660d6b2e957fa582ec87816f,Spanish,13 or older,"no, only English or Spanish",no,2025-07-24_09h24.54.372,empathy_intonation_perc_control,2024.2.4,Win32,59.88023952,660d6b2e957fa582ec87816f,68817205a84113384fffdfe3,688233a44468702aa1f2dcff,,,,,,,,,,,,,,,,,,,,,,,,,,,9,,,,,,,,,,,,,,,,,,,,,,,,,,,,,,,,,,,,,,,,,,,,478.6637,481.2239,slightly agree,0,8,8,8,1,I am at my best first thing in the morning.,0,1,0,0,,
,,,,,,,,,660d6b2e957fa582ec87816f,Spanish,13 or older,"no, only English or Spanish",no,2025-07-24_09h24.54.372,empathy_intonation_perc_control,2024.2.4,Win32,59.88023952,660d6b2e957fa582ec87816f,68817205a84113384fffdfe3,688233a44468702aa1f2dcff,,,,,,,,,,,,,,,,,,,,,,,,,,,10,,,,,,,,,,,,,,,,,,,,,,,,,,,,,,,,,,,,,,,,,,,,481.2269,481.491,slightly agree,0,9,9,9,1,People often tell me that I went too far in driving my point home in a discussion.,1,0,0,1,,
,,,,,,,,,660d6b2e957fa582ec87816f,Spanish,13 or older,"no, only English or Spanish",no,2025-07-24_09h24.54.372,empathy_intonation_perc_control,2024.2.4,Win32,59.88023952,660d6b2e957fa582ec87816f,68817205a84113384fffdfe3,688233a44468702aa1f2dcff,,,,,,,,,,,,,,,,,,,,,,,,,,,11,,,,,,,,,,,,,,,,,,,,,,,,,,,,,,,,,,,,,,,,,,,,481.4931,485.1985,strongly disagree,0,10,10,10,1,It doesn't bother me too much if I am late meeting a friend.,1,0,0,1,,
,,,,,,,,,660d6b2e957fa582ec87816f,Spanish,13 or older,"no, only English or Spanish",no,2025-07-24_09h24.54.372,empathy_intonation_perc_control,2024.2.4,Win32,59.88023952,660d6b2e957fa582ec87816f,68817205a84113384fffdfe3,688233a44468702aa1f2dcff,,,,,,,,,,,,,,,,,,,,,,,,,,,12,,,,,,,,,,,,,,,,,,,,,,,,,,,,,,,,,,,,,,,,,,,,485.2004,495.3478,strongly disagree,0,11,11,11,1,"Friendships and relationships are just too difficult, so I tend not to 
  bother with them.",1,0,0,1,,
,,,,,,,,,660d6b2e957fa582ec87816f,Spanish,13 or older,"no, only English or Spanish",no,2025-07-24_09h24.54.372,empathy_intonation_perc_control,2024.2.4,Win32,59.88023952,660d6b2e957fa582ec87816f,68817205a84113384fffdfe3,688233a44468702aa1f2dcff,,,,,,,,,,,,,,,,,,,,,,,,,,,13,,,,,,,,,,,,,,,,,,,,,,,,,,,,,,,,,,,,,,,,,,,,495.3494,510.1558,slightly disagree,0,12,12,12,1,"I would never break a law, no matter how minor.",0,1,0,0,,
,,,,,,,,,660d6b2e957fa582ec87816f,Spanish,13 or older,"no, only English or Spanish",no,2025-07-24_09h24.54.372,empathy_intonation_perc_control,2024.2.4,Win32,59.88023952,660d6b2e957fa582ec87816f,68817205a84113384fffdfe3,688233a44468702aa1f2dcff,,,,,,,,,,,,,,,,,,,,,,,,,,,14,,,,,,,,,,,,,,,,,,,,,,,,,,,,,,,,,,,,,,,,,,,,510.158,519.2296,slightly disagree,0,13,13,13,1,I often find it difficult to judge if something is rude or polite.,1,0,0,1,,
,,,,,,,,,660d6b2e957fa582ec87816f,Spanish,13 or older,"no, only English or Spanish",no,2025-07-24_09h24.54.372,empathy_intonation_perc_control,2024.2.4,Win32,59.88023952,660d6b2e957fa582ec87816f,68817205a84113384fffdfe3,688233a44468702aa1f2dcff,,,,,,,,,,,,,,,,,,,,,,,,,,,15,,,,,,,,,,,,,,,,,,,,,,,,,,,,,,,,,,,,,,,,,,,,519.2314,524.6446,slightly disagree,0,14,14,14,1,"In a conversation, I tend to focus on my own thoughts rather than on what 
  my listener might be thinking.",1,0,0,1,,
,,,,,,,,,660d6b2e957fa582ec87816f,Spanish,13 or older,"no, only English or Spanish",no,2025-07-24_09h24.54.372,empathy_intonation_perc_control,2024.2.4,Win32,59.88023952,660d6b2e957fa582ec87816f,68817205a84113384fffdfe3,688233a44468702aa1f2dcff,,,,,,,,,,,,,,,,,,,,,,,,,,,16,,,,,,,,,,,,,,,,,,,,,,,,,,,,,,,,,,,,,,,,,,,,524.6464,540.1706,slightly disagree,0,15,15,15,1,I prefer practical jokes to verbal humor.,0,1,0,0,,
,,,,,,,,,660d6b2e957fa582ec87816f,Spanish,13 or older,"no, only English or Spanish",no,2025-07-24_09h24.54.372,empathy_intonation_perc_control,2024.2.4,Win32,59.88023952,660d6b2e957fa582ec87816f,68817205a84113384fffdfe3,688233a44468702aa1f2dcff,,,,,,,,,,,,,,,,,,,,,,,,,,,17,,,,,,,,,,,,,,,,,,,,,,,,,,,,,,,,,,,,,,,,,,,,540.1726,543.9539,slightly disagree,0,16,16,16,1,I live life for today rather than the future.,0,1,0,0,,
,,,,,,,,,660d6b2e957fa582ec87816f,Spanish,13 or older,"no, only English or Spanish",no,2025-07-24_09h24.54.372,empathy_intonation_perc_control,2024.2.4,Win32,59.88023952,660d6b2e957fa582ec87816f,68817205a84113384fffdfe3,688233a44468702aa1f2dcff,,,,,,,,,,,,,,,,,,,,,,,,,,,18,,,,,,,,,,,,,,,,,,,,,,,,,,,,,,,,,,,,,,,,,,,,543.9572,547.7536,strongly disagree,0,17,17,17,1,"When I was a child, I enjoyed cutting up worms to see what would happen.",1,0,0,1,,
,,,,,,,,,660d6b2e957fa582ec87816f,Spanish,13 or older,"no, only English or Spanish",no,2025-07-24_09h24.54.372,empathy_intonation_perc_control,2024.2.4,Win32,59.88023952,660d6b2e957fa582ec87816f,68817205a84113384fffdfe3,688233a44468702aa1f2dcff,,,,,,,,,,,,,,,,,,,,,,,,,,,19,,,,,,,,,,,,,,,,,,,,,,,,,,,,,,,,,,,,,,,,,,,,547.7561,551.0374,slightly agree,0,18,18,18,1,I can pick up quickly if someone says one thing but means another.,1,0,1,0,,
,,,,,,,,,660d6b2e957fa582ec87816f,Spanish,13 or older,"no, only English or Spanish",no,2025-07-24_09h24.54.372,empathy_intonation_perc_control,2024.2.4,Win32,59.88023952,660d6b2e957fa582ec87816f,68817205a84113384fffdfe3,688233a44468702aa1f2dcff,,,,,,,,,,,,,,,,,,,,,,,,,,,20,,,,,,,,,,,,,,,,,,,,,,,,,,,,,,,,,,,,,,,,,,,,551.0399,553.1032,slightly agree,0,19,19,19,1,I tend to have very strong opinions about morality.,0,1,0,0,,
,,,,,,,,,660d6b2e957fa582ec87816f,Spanish,13 or older,"no, only English or Spanish",no,2025-07-24_09h24.54.372,empathy_intonation_perc_control,2024.2.4,Win32,59.88023952,660d6b2e957fa582ec87816f,68817205a84113384fffdfe3,688233a44468702aa1f2dcff,,,,,,,,,,,,,,,,,,,,,,,,,,,21,,,,,,,,,,,,,,,,,,,,,,,,,,,,,,,,,,,,,,,,,,,,553.1055,558.3942,strongly disagree,0,20,20,20,1,It is hard for me to see why some things upset people so much.,1,0,0,1,,
,,,,,,,,,660d6b2e957fa582ec87816f,Spanish,13 or older,"no, only English or Spanish",no,2025-07-24_09h24.54.372,empathy_intonation_perc_control,2024.2.4,Win32,59.88023952,660d6b2e957fa582ec87816f,68817205a84113384fffdfe3,688233a44468702aa1f2dcff,,,,,,,,,,,,,,,,,,,,,,,,,,,22,,,,,,,,,,,,,,,,,,,,,,,,,,,,,,,,,,,,,,,,,,,,558.3957,560.5692,slightly agree,0,21,21,21,1,I find it easy to put myself in somebody else's shoes.,1,0,1,0,,
,,,,,,,,,660d6b2e957fa582ec87816f,Spanish,13 or older,"no, only English or Spanish",no,2025-07-24_09h24.54.372,empathy_intonation_perc_control,2024.2.4,Win32,59.88023952,660d6b2e957fa582ec87816f,68817205a84113384fffdfe3,688233a44468702aa1f2dcff,,,,,,,,,,,,,,,,,,,,,,,,,,,23,,,,,,,,,,,,,,,,,,,,,,,,,,,,,,,,,,,,,,,,,,,,560.5722,564.1522,slightly agree,0,22,22,22,1,I think that good manners are the most important thing a parent can teach their child.,0,1,0,0,,
,,,,,,,,,660d6b2e957fa582ec87816f,Spanish,13 or older,"no, only English or Spanish",no,2025-07-24_09h24.54.372,empathy_intonation_perc_control,2024.2.4,Win32,59.88023952,660d6b2e957fa582ec87816f,68817205a84113384fffdfe3,688233a44468702aa1f2dcff,,,,,,,,,,,,,,,,,,,,,,,,,,,24,,,,,,,,,,,,,,,,,,,,,,,,,,,,,,,,,,,,,,,,,,,,564.1546,569.7186,strongly disagree,0,23,23,23,1,I like to do things on the spur of the moment.,0,1,0,0,,
,,,,,,,,,660d6b2e957fa582ec87816f,Spanish,13 or older,"no, only English or Spanish",no,2025-07-24_09h24.54.372,empathy_intonation_perc_control,2024.2.4,Win32,59.88023952,660d6b2e957fa582ec87816f,68817205a84113384fffdfe3,688233a44468702aa1f2dcff,,,,,,,,,,,,,,,,,,,,,,,,,,,25,,,,,,,,,,,,,,,,,,,,,,,,,,,,,,,,,,,,,,,,,,,,569.7209,571.5855,slightly agree,0,24,24,24,1,I am good at predicting how someone will feel.,1,0,1,0,,
