instructions_2afc.started,instructions_2afc.stopped,instructions_2afc_loop.thisRepN,instructions_2afc_loop.thisTrialN,instructions_2afc_loop.thisN,instructions_2afc_loop.thisIndex,instructions_2afc_loop.ran,instructions_text,continue_text,participant_id,"What variety of Spanish are you most familiar with? (e.g., Peruvian, Spanish, Mexican)",At what age did you begin learning Spanish?,Are you proficient in any languages other than English/Spanish?,"Are you familiar with Caribbean (e.g., Caribbean, Puerto Rican) or Galician Spanish?",date,expName,psychopyVersion,OS,frameRate,id,study_id,session,practice_2afc.started,practice_2afc.stopped,key_resp_2afc_practice.keys,key_resp_2afc_practice.corr,key_resp_2afc_practice.rt,key_resp_2afc_practice.duration,trials_2afc_practice_loop.thisRepN,trials_2afc_practice_loop.thisTrialN,trials_2afc_practice_loop.thisN,trials_2afc_practice_loop.thisIndex,trials_2afc_practice_loop.ran,path,correct_response,check_2afc.started,check_2afc.stopped,trial_2afc.started,trial_2afc.stopped,key_resp_2afc_trial.keys,key_resp_2afc_trial.corr,key_resp_2afc_trial.rt,key_resp_2afc_trial.duration,trials_2afc_loop.thisRepN,trials_2afc_loop.thisTrialN,trials_2afc_loop.thisN,trials_2afc_loop.thisIndex,trials_2afc_loop.ran,item_num,target,variety,instructions_lextale.started,instructions_lextale.stopped,instructions_lextale_loop.thisRepN,instructions_lextale_loop.thisTrialN,instructions_lextale_loop.thisN,instructions_lextale_loop.thisIndex,instructions_lextale_loop.ran,practice_lextale.started,practice_lextale.stopped,key_resp_lextale_practice.keys,key_resp_lextale_practice.corr,key_resp_lextale_practice.rt,key_resp_lextale_practice.duration,practice_feedback_lextale.started,practice_feedback_lextale.stopped,trials_lextale_practice_loop.thisRepN,trials_lextale_practice_loop.thisTrialN,trials_lextale_practice_loop.thisN,trials_lextale_practice_loop.thisIndex,trials_lextale_practice_loop.ran,stim,word,prac_button_real,prac_button_false,check_lextale.started,check_lextale.stopped,trial_lextale.started,trial_lextale.stopped,key_resp_lextale_trial.keys,key_resp_lextale_trial.corr,key_resp_lextale_trial.rt,key_resp_lextale_trial.duration,trials_lextale_loop.thisRepN,trials_lextale_loop.thisTrialN,trials_lextale_loop.thisN,trials_lextale_loop.thisIndex,trials_lextale_loop.ran,button_real,button_false,instructions_eq.started,instructions_eq.stopped,trial_eq.started,trial_eq.stopped,slider_eq_trial.response,trials_eq_loop.thisRepN,trials_eq_loop.thisTrialN,trials_eq_loop.thisN,trials_eq_loop.thisIndex,trials_eq_loop.ran,item,is_test_item,is_distractor,is_agree_score,is_disagree_score,end_exp.started,end_exp.stopped
0.017,26.0295,0,0,0,0,1,"In the following task you are going to hear a series of utterances. 

  You will decide if the utterances sound like questions or not using your keyboard.", (press the spacebar to continue),6629590de0554e4996934b9e,Mexican,13 or older,"no, only English or Spanish",no,2025-07-24_10h56.13.519,empathy_intonation_perc_control,2024.2.4,Win32,59.88023952,6629590de0554e4996934b9e,68817205a84113384fffdfe3,688248d100ff3702fc238da4,,,,,,,,,,,,,,,,,,,,,,,,,,,,,,,,,,,,,,,,,,,,,,,,,,,,,,,,,,,,,,,,,,,,,,,,,,,,,,,,,,,,,
26.0325,39.9678,0,1,1,1,1,"If you believe the utterance is a question, type '1' (for 'yes') and if you do not 
  believe it is a question type '0' (for 'no').

  Let's practice a bit...", (press the spacebar to continue),6629590de0554e4996934b9e,Mexican,13 or older,"no, only English or Spanish",no,2025-07-24_10h56.13.519,empathy_intonation_perc_control,2024.2.4,Win32,59.88023952,6629590de0554e4996934b9e,68817205a84113384fffdfe3,688248d100ff3702fc238da4,,,,,,,,,,,,,,,,,,,,,,,,,,,,,,,,,,,,,,,,,,,,,,,,,,,,,,,,,,,,,,,,,,,,,,,,,,,,,,,,,,,,,
,,,,,,,,,6629590de0554e4996934b9e,Mexican,13 or older,"no, only English or Spanish",no,2025-07-24_10h56.13.519,empathy_intonation_perc_control,2024.2.4,Win32,59.88023952,6629590de0554e4996934b9e,68817205a84113384fffdfe3,688248d100ff3702fc238da4,39.9809,48.5207,0,0,8.0254,,0,0,0,1,1,./stim/wavs/argentine_question_filler_Mi-vecino-habla-mucho.wav,1,,,,,,,,,,,,,,,,,,,,,,,,,,,,,,,,,,,,,,,,,,,,,,,,,,,,,,,,,,,,,,,,,,,,,,,,
,,,,,,,,,6629590de0554e4996934b9e,Mexican,13 or older,"no, only English or Spanish",no,2025-07-24_10h56.13.519,empathy_intonation_perc_control,2024.2.4,Win32,59.88023952,6629590de0554e4996934b9e,68817205a84113384fffdfe3,688248d100ff3702fc238da4,48.5227,53.3557,1,1,4.3072,,0,1,1,3,1,./stim/wavs/mexican_question_filler_Felipe-no-tiene-contrasena.wav,1,,,,,,,,,,,,,,,,,,,,,,,,,,,,,,,,,,,,,,,,,,,,,,,,,,,,,,,,,,,,,,,,,,,,,,,,
,,,,,,,,,6629590de0554e4996934b9e,Mexican,13 or older,"no, only English or Spanish",no,2025-07-24_10h56.13.519,empathy_intonation_perc_control,2024.2.4,Win32,59.88023952,6629590de0554e4996934b9e,68817205a84113384fffdfe3,688248d100ff3702fc238da4,53.3573,61.491,0,1,7.6028,,0,2,2,5,1,./stim/wavs/andalusian_statement_filler_Alberto-nunca-se-afeita.wav,0,,,,,,,,,,,,,,,,,,,,,,,,,,,,,,,,,,,,,,,,,,,,,,,,,,,,,,,,,,,,,,,,,,,,,,,,
,,,,,,,,,6629590de0554e4996934b9e,Mexican,13 or older,"no, only English or Spanish",no,2025-07-24_10h56.13.519,empathy_intonation_perc_control,2024.2.4,Win32,59.88023952,6629590de0554e4996934b9e,68817205a84113384fffdfe3,688248d100ff3702fc238da4,61.4917,67.5765,0,0,5.5596,,0,3,3,0,1,./stim/wavs/castilian_question_filler_Mi-esposo-conoce-al-chico.wav,1,,,,,,,,,,,,,,,,,,,,,,,,,,,,,,,,,,,,,,,,,,,,,,,,,,,,,,,,,,,,,,,,,,,,,,,,
,,,,,,,,,6629590de0554e4996934b9e,Mexican,13 or older,"no, only English or Spanish",no,2025-07-24_10h56.13.519,empathy_intonation_perc_control,2024.2.4,Win32,59.88023952,6629590de0554e4996934b9e,68817205a84113384fffdfe3,688248d100ff3702fc238da4,67.5771,70.1775,0,1,2.075,,0,4,4,4,1,./stim/wavs/cuban_statement_filler_Cocinabas-por-la-noche.wav,0,,,,,,,,,,,,,,,,,,,,,,,,,,,,,,,,,,,,,,,,,,,,,,,,,,,,,,,,,,,,,,,,,,,,,,,,
,,,,,,,,,6629590de0554e4996934b9e,Mexican,13 or older,"no, only English or Spanish",no,2025-07-24_10h56.13.519,empathy_intonation_perc_control,2024.2.4,Win32,59.88023952,6629590de0554e4996934b9e,68817205a84113384fffdfe3,688248d100ff3702fc238da4,70.1781,73.3954,0,1,2.6846,,0,5,5,6,1,./stim/wavs/peruvian_statement_filler_El-nino-habla-con-su-madre.wav,0,,,,,,,,,,,,,,,,,,,,,,,,,,,,,,,,,,,,,,,,,,,,,,,,,,,,,,,,,,,,,,,,,,,,,,,,
,,,,,,,,,6629590de0554e4996934b9e,Mexican,13 or older,"no, only English or Spanish",no,2025-07-24_10h56.13.519,empathy_intonation_perc_control,2024.2.4,Win32,59.88023952,6629590de0554e4996934b9e,68817205a84113384fffdfe3,688248d100ff3702fc238da4,73.396,76.1466,0,1,2.2183,,0,6,6,7,1,./stim/wavs/puertorican_statement_filler_La-nina-pinta-con-su-amiga.wav,0,,,,,,,,,,,,,,,,,,,,,,,,,,,,,,,,,,,,,,,,,,,,,,,,,,,,,,,,,,,,,,,,,,,,,,,,
,,,,,,,,,6629590de0554e4996934b9e,Mexican,13 or older,"no, only English or Spanish",no,2025-07-24_10h56.13.519,empathy_intonation_perc_control,2024.2.4,Win32,59.88023952,6629590de0554e4996934b9e,68817205a84113384fffdfe3,688248d100ff3702fc238da4,76.1474,80.9645,1,1,4.2894,,0,7,7,2,1,./stim/wavs/chilean_question_filler_Mi-padre-cantaba-bien.wav,1,,,,,,,,,,,,,,,,,,,,,,,,,,,,,,,,,,,,,,,,,,,,,,,,,,,,,,,,,,,,,,,,,,,,,,,,
,,,,,,,,,6629590de0554e4996934b9e,Mexican,13 or older,"no, only English or Spanish",no,2025-07-24_10h56.13.519,empathy_intonation_perc_control,2024.2.4,Win32,59.88023952,6629590de0554e4996934b9e,68817205a84113384fffdfe3,688248d100ff3702fc238da4,,,,,,,,,,,,,,80.9648,89.7345,,,,,,,,,,,,,,,,,,,,,,,,,,,,,,,,,,,,,,,,,,,,,,,,,,,,,,,,,,,,,,,,,,,,,,
,,,,,,,,,6629590de0554e4996934b9e,Mexican,13 or older,"no, only English or Spanish",no,2025-07-24_10h56.13.519,empathy_intonation_perc_control,2024.2.4,Win32,59.88023952,6629590de0554e4996934b9e,68817205a84113384fffdfe3,688248d100ff3702fc238da4,,,,,,,,,,,,./stim/wavs/cuban_mismatch_declarative-broad-focus_Mi-tia-odia-la-lluvia.wav,0,,,89.7451,92.3189,0,1,2.0607,,0,0,0,77,1,78,0,cuban,,,,,,,,,,,,,,,,,,,,,,,,,,,,,,,,,,,,,,,,,,,,,,,,,,,,,,,,
,,,,,,,,,6629590de0554e4996934b9e,Mexican,13 or older,"no, only English or Spanish",no,2025-07-24_10h56.13.519,empathy_intonation_perc_control,2024.2.4,Win32,59.88023952,6629590de0554e4996934b9e,68817205a84113384fffdfe3,688248d100ff3702fc238da4,,,,,,,,,,,,./stim/wavs/puertorican_mismatch_declarative-broad-focus_La-nina-lava-el-plato.wav,0,,,92.3198,94.6859,0,1,1.8373,,0,1,1,87,1,88,0,puertorican,,,,,,,,,,,,,,,,,,,,,,,,,,,,,,,,,,,,,,,,,,,,,,,,,,,,,,,,
,,,,,,,,,6629590de0554e4996934b9e,Mexican,13 or older,"no, only English or Spanish",no,2025-07-24_10h56.13.519,empathy_intonation_perc_control,2024.2.4,Win32,59.88023952,6629590de0554e4996934b9e,68817205a84113384fffdfe3,688248d100ff3702fc238da4,,,,,,,,,,,,./stim/wavs/puertorican_match_declarative-broad-focus_Daniel-iba-a-Bolivia.wav,0,,,94.6866,96.8866,0,1,1.6779,,0,2,2,63,1,64,0,puertorican,,,,,,,,,,,,,,,,,,,,,,,,,,,,,,,,,,,,,,,,,,,,,,,,,,,,,,,,
,,,,,,,,,6629590de0554e4996934b9e,Mexican,13 or older,"no, only English or Spanish",no,2025-07-24_10h56.13.519,empathy_intonation_perc_control,2024.2.4,Win32,59.88023952,6629590de0554e4996934b9e,68817205a84113384fffdfe3,688248d100ff3702fc238da4,,,,,,,,,,,,./stim/wavs/cuban_match_declarative-broad-focus_Manuela-vende-el-carro.wav,0,,,96.8871,99.3541,0,1,1.9558,,0,3,3,52,1,53,0,cuban,,,,,,,,,,,,,,,,,,,,,,,,,,,,,,,,,,,,,,,,,,,,,,,,,,,,,,,,
,,,,,,,,,6629590de0554e4996934b9e,Mexican,13 or older,"no, only English or Spanish",no,2025-07-24_10h56.13.519,empathy_intonation_perc_control,2024.2.4,Win32,59.88023952,6629590de0554e4996934b9e,68817205a84113384fffdfe3,688248d100ff3702fc238da4,,,,,,,,,,,,./stim/wavs/puertorican_match_interrogative-total-yn_Maria-bebe-el-vino.wav,1,,,99.3546,102.1718,1,1,2.289,,0,4,4,23,1,24,1,puertorican,,,,,,,,,,,,,,,,,,,,,,,,,,,,,,,,,,,,,,,,,,,,,,,,,,,,,,,,
,,,,,,,,,6629590de0554e4996934b9e,Mexican,13 or older,"no, only English or Spanish",no,2025-07-24_10h56.13.519,empathy_intonation_perc_control,2024.2.4,Win32,59.88023952,6629590de0554e4996934b9e,68817205a84113384fffdfe3,688248d100ff3702fc238da4,,,,,,,,,,,,./stim/wavs/castilian_match_declarative-broad-focus_Marta-abre-el-regalo.wav,0,,,102.1723,104.6898,0,1,1.9822,,0,5,5,49,1,50,0,castilian,,,,,,,,,,,,,,,,,,,,,,,,,,,,,,,,,,,,,,,,,,,,,,,,,,,,,,,,
,,,,,,,,,6629590de0554e4996934b9e,Mexican,13 or older,"no, only English or Spanish",no,2025-07-24_10h56.13.519,empathy_intonation_perc_control,2024.2.4,Win32,59.88023952,6629590de0554e4996934b9e,68817205a84113384fffdfe3,688248d100ff3702fc238da4,,,,,,,,,,,,./stim/wavs/castilian_match_interrogative-total-yn_David-leia-el-libro.wav,1,,,104.6905,107.2905,1,1,2.0744,,0,6,6,0,1,1,0,castilian,,,,,,,,,,,,,,,,,,,,,,,,,,,,,,,,,,,,,,,,,,,,,,,,,,,,,,,,
,,,,,,,,,6629590de0554e4996934b9e,Mexican,13 or older,"no, only English or Spanish",no,2025-07-24_10h56.13.519,empathy_intonation_perc_control,2024.2.4,Win32,59.88023952,6629590de0554e4996934b9e,68817205a84113384fffdfe3,688248d100ff3702fc238da4,,,,,,,,,,,,./stim/wavs/puertorican_mismatch_declarative-broad-focus_El-nino-oye-el-rio.wav,0,,,107.2915,109.441,0,1,1.6171,,0,7,7,85,1,86,0,puertorican,,,,,,,,,,,,,,,,,,,,,,,,,,,,,,,,,,,,,,,,,,,,,,,,,,,,,,,,
,,,,,,,,,6629590de0554e4996934b9e,Mexican,13 or older,"no, only English or Spanish",no,2025-07-24_10h56.13.519,empathy_intonation_perc_control,2024.2.4,Win32,59.88023952,6629590de0554e4996934b9e,68817205a84113384fffdfe3,688248d100ff3702fc238da4,,,,,,,,,,,,./stim/wavs/mexican_match_declarative-broad-focus_David-leia-el-libro.wav,0,,,109.4417,111.7419,0,1,1.7691,,0,8,8,58,1,59,0,mexican,,,,,,,,,,,,,,,,,,,,,,,,,,,,,,,,,,,,,,,,,,,,,,,,,,,,,,,,
,,,,,,,,,6629590de0554e4996934b9e,Mexican,13 or older,"no, only English or Spanish",no,2025-07-24_10h56.13.519,empathy_intonation_perc_control,2024.2.4,Win32,59.88023952,6629590de0554e4996934b9e,68817205a84113384fffdfe3,688248d100ff3702fc238da4,,,,,,,,,,,,./stim/wavs/mexican_mismatch_interrogative-total-yn_La-maestra-vive-en-Paris.wav,1,,,111.7423,114.3927,1,1,2.1257,,0,9,9,36,1,37,0,mexican,,,,,,,,,,,,,,,,,,,,,,,,,,,,,,,,,,,,,,,,,,,,,,,,,,,,,,,,
,,,,,,,,,6629590de0554e4996934b9e,Mexican,13 or older,"no, only English or Spanish",no,2025-07-24_10h56.13.519,empathy_intonation_perc_control,2024.2.4,Win32,59.88023952,6629590de0554e4996934b9e,68817205a84113384fffdfe3,688248d100ff3702fc238da4,,,,,,,,,,,,./stim/wavs/mexican_mismatch_interrogative-total-yn_Mi-novio-viene-del-lago.wav,1,,,114.3932,116.8769,1,1,1.95,,0,10,10,37,1,38,0,mexican,,,,,,,,,,,,,,,,,,,,,,,,,,,,,,,,,,,,,,,,,,,,,,,,,,,,,,,,
,,,,,,,,,6629590de0554e4996934b9e,Mexican,13 or older,"no, only English or Spanish",no,2025-07-24_10h56.13.519,empathy_intonation_perc_control,2024.2.4,Win32,59.88023952,6629590de0554e4996934b9e,68817205a84113384fffdfe3,688248d100ff3702fc238da4,,,,,,,,,,,,./stim/wavs/puertorican_match_declarative-broad-focus_Manuela-vende-el-carro.wav,0,,,116.8775,119.261,0,1,1.8552,,0,11,11,66,1,67,0,puertorican,,,,,,,,,,,,,,,,,,,,,,,,,,,,,,,,,,,,,,,,,,,,,,,,,,,,,,,,
,,,,,,,,,6629590de0554e4996934b9e,Mexican,13 or older,"no, only English or Spanish",no,2025-07-24_10h56.13.519,empathy_intonation_perc_control,2024.2.4,Win32,59.88023952,6629590de0554e4996934b9e,68817205a84113384fffdfe3,688248d100ff3702fc238da4,,,,,,,,,,,,./stim/wavs/mexican_mismatch_declarative-broad-focus_El-bebe-comia-muy-bien.wav,0,,,119.2616,122.1787,0,1,2.3839,,0,12,12,78,1,79,0,mexican,,,,,,,,,,,,,,,,,,,,,,,,,,,,,,,,,,,,,,,,,,,,,,,,,,,,,,,,
,,,,,,,,,6629590de0554e4996934b9e,Mexican,13 or older,"no, only English or Spanish",no,2025-07-24_10h56.13.519,empathy_intonation_perc_control,2024.2.4,Win32,59.88023952,6629590de0554e4996934b9e,68817205a84113384fffdfe3,688248d100ff3702fc238da4,,,,,,,,,,,,./stim/wavs/castilian_match_declarative-broad-focus_Mariano-habla-del-tiempo.wav,0,,,122.1791,124.8132,0,1,2.1017,,0,13,13,48,1,49,0,castilian,,,,,,,,,,,,,,,,,,,,,,,,,,,,,,,,,,,,,,,,,,,,,,,,,,,,,,,,
,,,,,,,,,6629590de0554e4996934b9e,Mexican,13 or older,"no, only English or Spanish",no,2025-07-24_10h56.13.519,empathy_intonation_perc_control,2024.2.4,Win32,59.88023952,6629590de0554e4996934b9e,68817205a84113384fffdfe3,688248d100ff3702fc238da4,,,,,,,,,,,,./stim/wavs/cuban_match_declarative-broad-focus_Ana-lleva-el-abrigo.wav,0,,,124.8137,127.1142,0,1,1.7685,,0,14,14,50,1,51,0,cuban,,,,,,,,,,,,,,,,,,,,,,,,,,,,,,,,,,,,,,,,,,,,,,,,,,,,,,,,
,,,,,,,,,6629590de0554e4996934b9e,Mexican,13 or older,"no, only English or Spanish",no,2025-07-24_10h56.13.519,empathy_intonation_perc_control,2024.2.4,Win32,59.88023952,6629590de0554e4996934b9e,68817205a84113384fffdfe3,688248d100ff3702fc238da4,,,,,,,,,,,,./stim/wavs/puertorican_match_interrogative-total-yn_David-leia-el-libro.wav,1,,,127.1149,129.8981,0,0,2.2489,,0,15,15,20,1,21,1,puertorican,,,,,,,,,,,,,,,,,,,,,,,,,,,,,,,,,,,,,,,,,,,,,,,,,,,,,,,,
,,,,,,,,,6629590de0554e4996934b9e,Mexican,13 or older,"no, only English or Spanish",no,2025-07-24_10h56.13.519,empathy_intonation_perc_control,2024.2.4,Win32,59.88023952,6629590de0554e4996934b9e,68817205a84113384fffdfe3,688248d100ff3702fc238da4,,,,,,,,,,,,./stim/wavs/cuban_match_declarative-broad-focus_Marta-abre-el-regalo.wav,0,,,129.8988,132.5987,0,1,2.1774,,0,16,16,55,1,56,0,cuban,,,,,,,,,,,,,,,,,,,,,,,,,,,,,,,,,,,,,,,,,,,,,,,,,,,,,,,,
,,,,,,,,,6629590de0554e4996934b9e,Mexican,13 or older,"no, only English or Spanish",no,2025-07-24_10h56.13.519,empathy_intonation_perc_control,2024.2.4,Win32,59.88023952,6629590de0554e4996934b9e,68817205a84113384fffdfe3,688248d100ff3702fc238da4,,,,,,,,,,,,./stim/wavs/puertorican_match_interrogative-total-yn_Manuela-vende-el-carro.wav,1,,,132.5991,134.8833,0,0,1.7736,,0,17,17,22,1,23,1,puertorican,,,,,,,,,,,,,,,,,,,,,,,,,,,,,,,,,,,,,,,,,,,,,,,,,,,,,,,,
,,,,,,,,,6629590de0554e4996934b9e,Mexican,13 or older,"no, only English or Spanish",no,2025-07-24_10h56.13.519,empathy_intonation_perc_control,2024.2.4,Win32,59.88023952,6629590de0554e4996934b9e,68817205a84113384fffdfe3,688248d100ff3702fc238da4,,,,,,,,,,,,./stim/wavs/cuban_mismatch_interrogative-total-yn_El-hombre-mira-la-luna.wav,1,,,134.8837,137.7172,0,0,2.3127,,0,18,18,29,1,30,1,cuban,,,,,,,,,,,,,,,,,,,,,,,,,,,,,,,,,,,,,,,,,,,,,,,,,,,,,,,,
,,,,,,,,,6629590de0554e4996934b9e,Mexican,13 or older,"no, only English or Spanish",no,2025-07-24_10h56.13.519,empathy_intonation_perc_control,2024.2.4,Win32,59.88023952,6629590de0554e4996934b9e,68817205a84113384fffdfe3,688248d100ff3702fc238da4,,,,,,,,,,,,./stim/wavs/mexican_match_interrogative-total-yn_Emilio-ama-la-marcha.wav,1,,,137.7178,140.2852,1,1,2.0348,,0,19,19,15,1,16,0,mexican,,,,,,,,,,,,,,,,,,,,,,,,,,,,,,,,,,,,,,,,,,,,,,,,,,,,,,,,
,,,,,,,,,6629590de0554e4996934b9e,Mexican,13 or older,"no, only English or Spanish",no,2025-07-24_10h56.13.519,empathy_intonation_perc_control,2024.2.4,Win32,59.88023952,6629590de0554e4996934b9e,68817205a84113384fffdfe3,688248d100ff3702fc238da4,,,,,,,,,,,,./stim/wavs/castilian_match_declarative-broad-focus_Emilio-ama-la-marcha.wav,0,,,140.2859,142.8857,0,1,2.0706,,0,20,20,45,1,46,0,castilian,,,,,,,,,,,,,,,,,,,,,,,,,,,,,,,,,,,,,,,,,,,,,,,,,,,,,,,,
,,,,,,,,,6629590de0554e4996934b9e,Mexican,13 or older,"no, only English or Spanish",no,2025-07-24_10h56.13.519,empathy_intonation_perc_control,2024.2.4,Win32,59.88023952,6629590de0554e4996934b9e,68817205a84113384fffdfe3,688248d100ff3702fc238da4,,,,,,,,,,,,./stim/wavs/castilian_match_interrogative-total-yn_Emilio-ama-la-marcha.wav,1,,,142.8862,145.5203,1,1,2.102,,0,21,21,1,1,2,0,castilian,,,,,,,,,,,,,,,,,,,,,,,,,,,,,,,,,,,,,,,,,,,,,,,,,,,,,,,,
,,,,,,,,,6629590de0554e4996934b9e,Mexican,13 or older,"no, only English or Spanish",no,2025-07-24_10h56.13.519,empathy_intonation_perc_control,2024.2.4,Win32,59.88023952,6629590de0554e4996934b9e,68817205a84113384fffdfe3,688248d100ff3702fc238da4,,,,,,,,,,,,./stim/wavs/cuban_mismatch_interrogative-total-yn_Mi-novio-viene-del-lago.wav,1,,,145.5211,148.0708,0,0,2.021,,0,22,22,32,1,33,1,cuban,,,,,,,,,,,,,,,,,,,,,,,,,,,,,,,,,,,,,,,,,,,,,,,,,,,,,,,,
,,,,,,,,,6629590de0554e4996934b9e,Mexican,13 or older,"no, only English or Spanish",no,2025-07-24_10h56.13.519,empathy_intonation_perc_control,2024.2.4,Win32,59.88023952,6629590de0554e4996934b9e,68817205a84113384fffdfe3,688248d100ff3702fc238da4,,,,,,,,,,,,./stim/wavs/cuban_match_interrogative-total-yn_Marta-abre-el-regalo.wav,1,,,148.0712,150.2383,0,0,1.6537,,0,23,23,11,1,12,1,cuban,,,,,,,,,,,,,,,,,,,,,,,,,,,,,,,,,,,,,,,,,,,,,,,,,,,,,,,,
,,,,,,,,,6629590de0554e4996934b9e,Mexican,13 or older,"no, only English or Spanish",no,2025-07-24_10h56.13.519,empathy_intonation_perc_control,2024.2.4,Win32,59.88023952,6629590de0554e4996934b9e,68817205a84113384fffdfe3,688248d100ff3702fc238da4,,,,,,,,,,,,./stim/wavs/cuban_match_declarative-broad-focus_Mariano-habla-del-tiempo.wav,0,,,150.2388,152.606,0,1,1.8353,,0,24,24,54,1,55,0,cuban,,,,,,,,,,,,,,,,,,,,,,,,,,,,,,,,,,,,,,,,,,,,,,,,,,,,,,,,
,,,,,,,,,6629590de0554e4996934b9e,Mexican,13 or older,"no, only English or Spanish",no,2025-07-24_10h56.13.519,empathy_intonation_perc_control,2024.2.4,Win32,59.88023952,6629590de0554e4996934b9e,68817205a84113384fffdfe3,688248d100ff3702fc238da4,,,,,,,,,,,,./stim/wavs/puertorican_mismatch_interrogative-total-yn_Mi-madre-come-la-fruta.wav,1,,,152.6065,154.907,0,0,1.7669,,0,25,25,43,1,44,1,puertorican,,,,,,,,,,,,,,,,,,,,,,,,,,,,,,,,,,,,,,,,,,,,,,,,,,,,,,,,
,,,,,,,,,6629590de0554e4996934b9e,Mexican,13 or older,"no, only English or Spanish",no,2025-07-24_10h56.13.519,empathy_intonation_perc_control,2024.2.4,Win32,59.88023952,6629590de0554e4996934b9e,68817205a84113384fffdfe3,688248d100ff3702fc238da4,,,,,,,,,,,,./stim/wavs/mexican_mismatch_interrogative-total-yn_Mi-tia-odia-la-lluvia.wav,1,,,154.9077,157.3075,1,1,1.8649,,0,26,26,38,1,39,0,mexican,,,,,,,,,,,,,,,,,,,,,,,,,,,,,,,,,,,,,,,,,,,,,,,,,,,,,,,,
,,,,,,,,,6629590de0554e4996934b9e,Mexican,13 or older,"no, only English or Spanish",no,2025-07-24_10h56.13.519,empathy_intonation_perc_control,2024.2.4,Win32,59.88023952,6629590de0554e4996934b9e,68817205a84113384fffdfe3,688248d100ff3702fc238da4,,,,,,,,,,,,./stim/wavs/mexican_match_declarative-broad-focus_Ana-lleva-el-abrigo.wav,0,,,157.3083,160.2585,0,1,2.4175,,0,27,27,56,1,57,0,mexican,,,,,,,,,,,,,,,,,,,,,,,,,,,,,,,,,,,,,,,,,,,,,,,,,,,,,,,,
,,,,,,,,,6629590de0554e4996934b9e,Mexican,13 or older,"no, only English or Spanish",no,2025-07-24_10h56.13.519,empathy_intonation_perc_control,2024.2.4,Win32,59.88023952,6629590de0554e4996934b9e,68817205a84113384fffdfe3,688248d100ff3702fc238da4,,,,,,,,,,,,./stim/wavs/cuban_mismatch_interrogative-total-yn_El-nino-oye-el-rio.wav,1,,,160.2591,162.776,0,0,1.9853,,0,28,28,30,1,31,1,cuban,,,,,,,,,,,,,,,,,,,,,,,,,,,,,,,,,,,,,,,,,,,,,,,,,,,,,,,,
,,,,,,,,,6629590de0554e4996934b9e,Mexican,13 or older,"no, only English or Spanish",no,2025-07-24_10h56.13.519,empathy_intonation_perc_control,2024.2.4,Win32,59.88023952,6629590de0554e4996934b9e,68817205a84113384fffdfe3,688248d100ff3702fc238da4,,,,,,,,,,,,./stim/wavs/mexican_mismatch_declarative-broad-focus_Mi-tia-odia-la-lluvia.wav,0,,,162.7766,165.2101,0,1,1.9007,,0,29,29,82,1,83,0,mexican,,,,,,,,,,,,,,,,,,,,,,,,,,,,,,,,,,,,,,,,,,,,,,,,,,,,,,,,
,,,,,,,,,6629590de0554e4996934b9e,Mexican,13 or older,"no, only English or Spanish",no,2025-07-24_10h56.13.519,empathy_intonation_perc_control,2024.2.4,Win32,59.88023952,6629590de0554e4996934b9e,68817205a84113384fffdfe3,688248d100ff3702fc238da4,,,,,,,,,,,,./stim/wavs/puertorican_mismatch_declarative-broad-focus_El-bebe-comia-muy-bien.wav,0,,,165.2105,167.5276,0,1,1.8105,,0,30,30,83,1,84,0,puertorican,,,,,,,,,,,,,,,,,,,,,,,,,,,,,,,,,,,,,,,,,,,,,,,,,,,,,,,,
,,,,,,,,,6629590de0554e4996934b9e,Mexican,13 or older,"no, only English or Spanish",no,2025-07-24_10h56.13.519,empathy_intonation_perc_control,2024.2.4,Win32,59.88023952,6629590de0554e4996934b9e,68817205a84113384fffdfe3,688248d100ff3702fc238da4,,,,,,,,,,,,./stim/wavs/mexican_match_declarative-broad-focus_Marta-abre-el-regalo.wav,0,,,167.5286,169.4782,0,1,1.4274,,0,31,31,61,1,62,0,mexican,,,,,,,,,,,,,,,,,,,,,,,,,,,,,,,,,,,,,,,,,,,,,,,,,,,,,,,,
,,,,,,,,,6629590de0554e4996934b9e,Mexican,13 or older,"no, only English or Spanish",no,2025-07-24_10h56.13.519,empathy_intonation_perc_control,2024.2.4,Win32,59.88023952,6629590de0554e4996934b9e,68817205a84113384fffdfe3,688248d100ff3702fc238da4,,,,,,,,,,,,./stim/wavs/puertorican_match_interrogative-total-yn_Emilio-ama-la-marcha.wav,1,,,169.4787,172.2796,0,0,2.2699,,0,32,32,21,1,22,1,puertorican,,,,,,,,,,,,,,,,,,,,,,,,,,,,,,,,,,,,,,,,,,,,,,,,,,,,,,,,
,,,,,,,,,6629590de0554e4996934b9e,Mexican,13 or older,"no, only English or Spanish",no,2025-07-24_10h56.13.519,empathy_intonation_perc_control,2024.2.4,Win32,59.88023952,6629590de0554e4996934b9e,68817205a84113384fffdfe3,688248d100ff3702fc238da4,,,,,,,,,,,,./stim/wavs/puertorican_match_declarative-broad-focus_David-leia-el-libro.wav,0,,,172.2802,174.2135,0,1,1.404,,0,33,33,64,1,65,0,puertorican,,,,,,,,,,,,,,,,,,,,,,,,,,,,,,,,,,,,,,,,,,,,,,,,,,,,,,,,
,,,,,,,,,6629590de0554e4996934b9e,Mexican,13 or older,"no, only English or Spanish",no,2025-07-24_10h56.13.519,empathy_intonation_perc_control,2024.2.4,Win32,59.88023952,6629590de0554e4996934b9e,68817205a84113384fffdfe3,688248d100ff3702fc238da4,,,,,,,,,,,,./stim/wavs/mexican_match_interrogative-total-yn_Ana-lleva-el-abrigo.wav,1,,,174.2139,176.1972,1,1,1.462,,0,34,34,12,1,13,0,mexican,,,,,,,,,,,,,,,,,,,,,,,,,,,,,,,,,,,,,,,,,,,,,,,,,,,,,,,,
,,,,,,,,,6629590de0554e4996934b9e,Mexican,13 or older,"no, only English or Spanish",no,2025-07-24_10h56.13.519,empathy_intonation_perc_control,2024.2.4,Win32,59.88023952,6629590de0554e4996934b9e,68817205a84113384fffdfe3,688248d100ff3702fc238da4,,,,,,,,,,,,./stim/wavs/puertorican_mismatch_declarative-broad-focus_La-maestra-vive-en-Paris.wav,0,,,176.1978,178.5648,0,1,1.8352,,0,35,35,86,1,87,0,puertorican,,,,,,,,,,,,,,,,,,,,,,,,,,,,,,,,,,,,,,,,,,,,,,,,,,,,,,,,
,,,,,,,,,6629590de0554e4996934b9e,Mexican,13 or older,"no, only English or Spanish",no,2025-07-24_10h56.13.519,empathy_intonation_perc_control,2024.2.4,Win32,59.88023952,6629590de0554e4996934b9e,68817205a84113384fffdfe3,688248d100ff3702fc238da4,,,,,,,,,,,,./stim/wavs/castilian_mismatch_declarative-broad-focus_Mi-tia-odia-la-lluvia.wav,0,,,178.5653,181.1158,0,1,2.034,,0,36,36,72,1,73,0,castilian,,,,,,,,,,,,,,,,,,,,,,,,,,,,,,,,,,,,,,,,,,,,,,,,,,,,,,,,
,,,,,,,,,6629590de0554e4996934b9e,Mexican,13 or older,"no, only English or Spanish",no,2025-07-24_10h56.13.519,empathy_intonation_perc_control,2024.2.4,Win32,59.88023952,6629590de0554e4996934b9e,68817205a84113384fffdfe3,688248d100ff3702fc238da4,,,,,,,,,,,,./stim/wavs/mexican_mismatch_interrogative-total-yn_El-hombre-mira-la-luna.wav,1,,,181.1165,183.3334,1,1,1.6963,,0,37,37,34,1,35,0,mexican,,,,,,,,,,,,,,,,,,,,,,,,,,,,,,,,,,,,,,,,,,,,,,,,,,,,,,,,
,,,,,,,,,6629590de0554e4996934b9e,Mexican,13 or older,"no, only English or Spanish",no,2025-07-24_10h56.13.519,empathy_intonation_perc_control,2024.2.4,Win32,59.88023952,6629590de0554e4996934b9e,68817205a84113384fffdfe3,688248d100ff3702fc238da4,,,,,,,,,,,,./stim/wavs/cuban_match_interrogative-total-yn_Mariano-habla-del-tiempo.wav,1,,,183.3338,185.5672,0,0,1.7102,,0,38,38,10,1,11,1,cuban,,,,,,,,,,,,,,,,,,,,,,,,,,,,,,,,,,,,,,,,,,,,,,,,,,,,,,,,
,,,,,,,,,6629590de0554e4996934b9e,Mexican,13 or older,"no, only English or Spanish",no,2025-07-24_10h56.13.519,empathy_intonation_perc_control,2024.2.4,Win32,59.88023952,6629590de0554e4996934b9e,68817205a84113384fffdfe3,688248d100ff3702fc238da4,,,,,,,,,,,,./stim/wavs/castilian_mismatch_interrogative-total-yn_La-nina-lava-el-plato.wav,1,,,185.5679,188.2516,1,1,2.1552,,0,39,39,25,1,26,0,castilian,,,,,,,,,,,,,,,,,,,,,,,,,,,,,,,,,,,,,,,,,,,,,,,,,,,,,,,,
,,,,,,,,,6629590de0554e4996934b9e,Mexican,13 or older,"no, only English or Spanish",no,2025-07-24_10h56.13.519,empathy_intonation_perc_control,2024.2.4,Win32,59.88023952,6629590de0554e4996934b9e,68817205a84113384fffdfe3,688248d100ff3702fc238da4,,,,,,,,,,,,./stim/wavs/mexican_match_declarative-broad-focus_Mariano-habla-del-tiempo.wav,0,,,188.2523,190.3019,0,1,1.5282,,0,40,40,60,1,61,0,mexican,,,,,,,,,,,,,,,,,,,,,,,,,,,,,,,,,,,,,,,,,,,,,,,,,,,,,,,,
,,,,,,,,,6629590de0554e4996934b9e,Mexican,13 or older,"no, only English or Spanish",no,2025-07-24_10h56.13.519,empathy_intonation_perc_control,2024.2.4,Win32,59.88023952,6629590de0554e4996934b9e,68817205a84113384fffdfe3,688248d100ff3702fc238da4,,,,,,,,,,,,./stim/wavs/castilian_mismatch_interrogative-total-yn_Mi-madre-come-la-fruta.wav,1,,,190.3024,192.7365,1,1,1.9027,,0,41,41,26,1,27,0,castilian,,,,,,,,,,,,,,,,,,,,,,,,,,,,,,,,,,,,,,,,,,,,,,,,,,,,,,,,
,,,,,,,,,6629590de0554e4996934b9e,Mexican,13 or older,"no, only English or Spanish",no,2025-07-24_10h56.13.519,empathy_intonation_perc_control,2024.2.4,Win32,59.88023952,6629590de0554e4996934b9e,68817205a84113384fffdfe3,688248d100ff3702fc238da4,,,,,,,,,,,,./stim/wavs/cuban_match_interrogative-total-yn_Maria-bebe-el-vino.wav,1,,,192.737,194.8371,0,0,1.5688,,0,42,42,9,1,10,1,cuban,,,,,,,,,,,,,,,,,,,,,,,,,,,,,,,,,,,,,,,,,,,,,,,,,,,,,,,,
,,,,,,,,,6629590de0554e4996934b9e,Mexican,13 or older,"no, only English or Spanish",no,2025-07-24_10h56.13.519,empathy_intonation_perc_control,2024.2.4,Win32,59.88023952,6629590de0554e4996934b9e,68817205a84113384fffdfe3,688248d100ff3702fc238da4,,,,,,,,,,,,./stim/wavs/puertorican_match_declarative-broad-focus_Ana-lleva-el-abrigo.wav,0,,,194.8381,196.7376,0,1,1.3722,,0,43,43,62,1,63,0,puertorican,,,,,,,,,,,,,,,,,,,,,,,,,,,,,,,,,,,,,,,,,,,,,,,,,,,,,,,,
,,,,,,,,,6629590de0554e4996934b9e,Mexican,13 or older,"no, only English or Spanish",no,2025-07-24_10h56.13.519,empathy_intonation_perc_control,2024.2.4,Win32,59.88023952,6629590de0554e4996934b9e,68817205a84113384fffdfe3,688248d100ff3702fc238da4,,,,,,,,,,,,./stim/wavs/castilian_mismatch_declarative-broad-focus_Mi-novio-viene-del-lago.wav,0,,,196.7382,199.1225,0,1,1.8497,,0,44,44,71,1,72,0,castilian,,,,,,,,,,,,,,,,,,,,,,,,,,,,,,,,,,,,,,,,,,,,,,,,,,,,,,,,
,,,,,,,,,6629590de0554e4996934b9e,Mexican,13 or older,"no, only English or Spanish",no,2025-07-24_10h56.13.519,empathy_intonation_perc_control,2024.2.4,Win32,59.88023952,6629590de0554e4996934b9e,68817205a84113384fffdfe3,688248d100ff3702fc238da4,,,,,,,,,,,,./stim/wavs/puertorican_mismatch_declarative-broad-focus_El-hombre-mira-la-luna.wav,0,,,199.1238,201.1728,0,1,1.5297,,0,45,45,84,1,85,0,puertorican,,,,,,,,,,,,,,,,,,,,,,,,,,,,,,,,,,,,,,,,,,,,,,,,,,,,,,,,
,,,,,,,,,6629590de0554e4996934b9e,Mexican,13 or older,"no, only English or Spanish",no,2025-07-24_10h56.13.519,empathy_intonation_perc_control,2024.2.4,Win32,59.88023952,6629590de0554e4996934b9e,68817205a84113384fffdfe3,688248d100ff3702fc238da4,,,,,,,,,,,,./stim/wavs/cuban_mismatch_interrogative-total-yn_Mi-tia-odia-la-lluvia.wav,1,,,201.1736,203.6236,0,0,1.9181,,0,46,46,33,1,34,1,cuban,,,,,,,,,,,,,,,,,,,,,,,,,,,,,,,,,,,,,,,,,,,,,,,,,,,,,,,,
,,,,,,,,,6629590de0554e4996934b9e,Mexican,13 or older,"no, only English or Spanish",no,2025-07-24_10h56.13.519,empathy_intonation_perc_control,2024.2.4,Win32,59.88023952,6629590de0554e4996934b9e,68817205a84113384fffdfe3,688248d100ff3702fc238da4,,,,,,,,,,,,./stim/wavs/mexican_match_interrogative-total-yn_Marta-abre-el-regalo.wav,1,,,203.6246,205.5077,1,1,1.3502,,0,47,47,17,1,18,0,mexican,,,,,,,,,,,,,,,,,,,,,,,,,,,,,,,,,,,,,,,,,,,,,,,,,,,,,,,,
,,,,,,,,,6629590de0554e4996934b9e,Mexican,13 or older,"no, only English or Spanish",no,2025-07-24_10h56.13.519,empathy_intonation_perc_control,2024.2.4,Win32,59.88023952,6629590de0554e4996934b9e,68817205a84113384fffdfe3,688248d100ff3702fc238da4,,,,,,,,,,,,./stim/wavs/cuban_mismatch_interrogative-total-yn_Mi-madre-come-la-fruta.wav,1,,,205.5083,207.8583,0,0,1.8187,,0,48,48,31,1,32,1,cuban,,,,,,,,,,,,,,,,,,,,,,,,,,,,,,,,,,,,,,,,,,,,,,,,,,,,,,,,
,,,,,,,,,6629590de0554e4996934b9e,Mexican,13 or older,"no, only English or Spanish",no,2025-07-24_10h56.13.519,empathy_intonation_perc_control,2024.2.4,Win32,59.88023952,6629590de0554e4996934b9e,68817205a84113384fffdfe3,688248d100ff3702fc238da4,,,,,,,,,,,,./stim/wavs/mexican_match_declarative-broad-focus_Daniel-iba-a-Bolivia.wav,0,,,207.859,210.0088,0,1,1.6171,,0,49,49,57,1,58,0,mexican,,,,,,,,,,,,,,,,,,,,,,,,,,,,,,,,,,,,,,,,,,,,,,,,,,,,,,,,
,,,,,,,,,6629590de0554e4996934b9e,Mexican,13 or older,"no, only English or Spanish",no,2025-07-24_10h56.13.519,empathy_intonation_perc_control,2024.2.4,Win32,59.88023952,6629590de0554e4996934b9e,68817205a84113384fffdfe3,688248d100ff3702fc238da4,,,,,,,,,,,,./stim/wavs/cuban_match_interrogative-total-yn_Daniel-iba-a-Bolivia.wav,1,,,210.0092,212.3097,0,0,1.7952,,0,50,50,7,1,8,1,cuban,,,,,,,,,,,,,,,,,,,,,,,,,,,,,,,,,,,,,,,,,,,,,,,,,,,,,,,,
,,,,,,,,,6629590de0554e4996934b9e,Mexican,13 or older,"no, only English or Spanish",no,2025-07-24_10h56.13.519,empathy_intonation_perc_control,2024.2.4,Win32,59.88023952,6629590de0554e4996934b9e,68817205a84113384fffdfe3,688248d100ff3702fc238da4,,,,,,,,,,,,./stim/wavs/puertorican_mismatch_interrogative-total-yn_El-nino-oye-el-rio.wav,1,,,212.3105,214.2771,0,0,1.4378,,0,51,51,40,1,41,1,puertorican,,,,,,,,,,,,,,,,,,,,,,,,,,,,,,,,,,,,,,,,,,,,,,,,,,,,,,,,
,,,,,,,,,6629590de0554e4996934b9e,Mexican,13 or older,"no, only English or Spanish",no,2025-07-24_10h56.13.519,empathy_intonation_perc_control,2024.2.4,Win32,59.88023952,6629590de0554e4996934b9e,68817205a84113384fffdfe3,688248d100ff3702fc238da4,,,,,,,,,,,,./stim/wavs/mexican_match_interrogative-total-yn_Daniel-iba-a-Bolivia.wav,1,,,214.2778,216.9948,1,1,2.1844,,0,52,52,13,1,14,0,mexican,,,,,,,,,,,,,,,,,,,,,,,,,,,,,,,,,,,,,,,,,,,,,,,,,,,,,,,,
,,,,,,,,,6629590de0554e4996934b9e,Mexican,13 or older,"no, only English or Spanish",no,2025-07-24_10h56.13.519,empathy_intonation_perc_control,2024.2.4,Win32,59.88023952,6629590de0554e4996934b9e,68817205a84113384fffdfe3,688248d100ff3702fc238da4,,,,,,,,,,,,./stim/wavs/puertorican_mismatch_interrogative-total-yn_La-maestra-vive-en-Paris.wav,1,,,216.9952,219.4455,0,0,1.9208,,0,53,53,41,1,42,1,puertorican,,,,,,,,,,,,,,,,,,,,,,,,,,,,,,,,,,,,,,,,,,,,,,,,,,,,,,,,
,,,,,,,,,6629590de0554e4996934b9e,Mexican,13 or older,"no, only English or Spanish",no,2025-07-24_10h56.13.519,empathy_intonation_perc_control,2024.2.4,Win32,59.88023952,6629590de0554e4996934b9e,68817205a84113384fffdfe3,688248d100ff3702fc238da4,,,,,,,,,,,,./stim/wavs/mexican_match_interrogative-total-yn_Mariano-habla-del-tiempo.wav,1,,,219.4462,221.8295,1,1,1.862,,0,54,54,16,1,17,0,mexican,,,,,,,,,,,,,,,,,,,,,,,,,,,,,,,,,,,,,,,,,,,,,,,,,,,,,,,,
,,,,,,,,,6629590de0554e4996934b9e,Mexican,13 or older,"no, only English or Spanish",no,2025-07-24_10h56.13.519,empathy_intonation_perc_control,2024.2.4,Win32,59.88023952,6629590de0554e4996934b9e,68817205a84113384fffdfe3,688248d100ff3702fc238da4,,,,,,,,,,,,./stim/wavs/castilian_match_declarative-broad-focus_Maria-bebe-el-vino.wav,0,,,221.8301,224.0803,0,1,1.7253,,0,55,55,47,1,48,0,castilian,,,,,,,,,,,,,,,,,,,,,,,,,,,,,,,,,,,,,,,,,,,,,,,,,,,,,,,,
,,,,,,,,,6629590de0554e4996934b9e,Mexican,13 or older,"no, only English or Spanish",no,2025-07-24_10h56.13.519,empathy_intonation_perc_control,2024.2.4,Win32,59.88023952,6629590de0554e4996934b9e,68817205a84113384fffdfe3,688248d100ff3702fc238da4,,,,,,,,,,,,./stim/wavs/castilian_mismatch_declarative-broad-focus_El-nino-oye-el-rio.wav,0,,,224.081,226.3814,0,1,1.787,,0,56,56,68,1,69,0,castilian,,,,,,,,,,,,,,,,,,,,,,,,,,,,,,,,,,,,,,,,,,,,,,,,,,,,,,,,
,,,,,,,,,6629590de0554e4996934b9e,Mexican,13 or older,"no, only English or Spanish",no,2025-07-24_10h56.13.519,empathy_intonation_perc_control,2024.2.4,Win32,59.88023952,6629590de0554e4996934b9e,68817205a84113384fffdfe3,688248d100ff3702fc238da4,,,,,,,,,,,,./stim/wavs/puertorican_match_declarative-broad-focus_Emilio-ama-la-marcha.wav,0,,,226.3818,228.6823,0,1,1.7748,,0,57,57,65,1,66,0,puertorican,,,,,,,,,,,,,,,,,,,,,,,,,,,,,,,,,,,,,,,,,,,,,,,,,,,,,,,,
,,,,,,,,,6629590de0554e4996934b9e,Mexican,13 or older,"no, only English or Spanish",no,2025-07-24_10h56.13.519,empathy_intonation_perc_control,2024.2.4,Win32,59.88023952,6629590de0554e4996934b9e,68817205a84113384fffdfe3,688248d100ff3702fc238da4,,,,,,,,,,,,./stim/wavs/mexican_mismatch_declarative-broad-focus_La-maestra-vive-en-Paris.wav,0,,,228.6831,231.7667,0,1,2.5543,,0,58,58,80,1,81,0,mexican,,,,,,,,,,,,,,,,,,,,,,,,,,,,,,,,,,,,,,,,,,,,,,,,,,,,,,,,
,,,,,,,,,6629590de0554e4996934b9e,Mexican,13 or older,"no, only English or Spanish",no,2025-07-24_10h56.13.519,empathy_intonation_perc_control,2024.2.4,Win32,59.88023952,6629590de0554e4996934b9e,68817205a84113384fffdfe3,688248d100ff3702fc238da4,,,,,,,,,,,,./stim/wavs/puertorican_match_interrogative-total-yn_Daniel-iba-a-Bolivia.wav,1,,,231.7676,234.6009,0,0,2.3015,,0,59,59,19,1,20,1,puertorican,,,,,,,,,,,,,,,,,,,,,,,,,,,,,,,,,,,,,,,,,,,,,,,,,,,,,,,,
,,,,,,,,,6629590de0554e4996934b9e,Mexican,13 or older,"no, only English or Spanish",no,2025-07-24_10h56.13.519,empathy_intonation_perc_control,2024.2.4,Win32,59.88023952,6629590de0554e4996934b9e,68817205a84113384fffdfe3,688248d100ff3702fc238da4,,,,,,,,,,,,./stim/wavs/mexican_match_interrogative-total-yn_David-leia-el-libro.wav,1,,,234.6013,236.968,1,1,1.8349,,0,60,60,14,1,15,0,mexican,,,,,,,,,,,,,,,,,,,,,,,,,,,,,,,,,,,,,,,,,,,,,,,,,,,,,,,,
,,,,,,,,,6629590de0554e4996934b9e,Mexican,13 or older,"no, only English or Spanish",no,2025-07-24_10h56.13.519,empathy_intonation_perc_control,2024.2.4,Win32,59.88023952,6629590de0554e4996934b9e,68817205a84113384fffdfe3,688248d100ff3702fc238da4,,,,,,,,,,,,./stim/wavs/castilian_match_declarative-broad-focus_David-leia-el-libro.wav,0,,,236.9684,239.5526,0,1,2.0509,,0,61,61,44,1,45,0,castilian,,,,,,,,,,,,,,,,,,,,,,,,,,,,,,,,,,,,,,,,,,,,,,,,,,,,,,,,
,,,,,,,,,6629590de0554e4996934b9e,Mexican,13 or older,"no, only English or Spanish",no,2025-07-24_10h56.13.519,empathy_intonation_perc_control,2024.2.4,Win32,59.88023952,6629590de0554e4996934b9e,68817205a84113384fffdfe3,688248d100ff3702fc238da4,,,,,,,,,,,,./stim/wavs/cuban_mismatch_declarative-broad-focus_El-bebe-comia-muy-bien.wav,0,,,239.5532,241.9199,0,1,1.8428,,0,62,62,73,1,74,0,cuban,,,,,,,,,,,,,,,,,,,,,,,,,,,,,,,,,,,,,,,,,,,,,,,,,,,,,,,,
,,,,,,,,,6629590de0554e4996934b9e,Mexican,13 or older,"no, only English or Spanish",no,2025-07-24_10h56.13.519,empathy_intonation_perc_control,2024.2.4,Win32,59.88023952,6629590de0554e4996934b9e,68817205a84113384fffdfe3,688248d100ff3702fc238da4,,,,,,,,,,,,./stim/wavs/mexican_match_declarative-broad-focus_Emilio-ama-la-marcha.wav,0,,,241.9203,244.5043,0,1,2.0535,,0,63,63,59,1,60,0,mexican,,,,,,,,,,,,,,,,,,,,,,,,,,,,,,,,,,,,,,,,,,,,,,,,,,,,,,,,
,,,,,,,,,6629590de0554e4996934b9e,Mexican,13 or older,"no, only English or Spanish",no,2025-07-24_10h56.13.519,empathy_intonation_perc_control,2024.2.4,Win32,59.88023952,6629590de0554e4996934b9e,68817205a84113384fffdfe3,688248d100ff3702fc238da4,,,,,,,,,,,,./stim/wavs/castilian_mismatch_interrogative-total-yn_Mi-novio-viene-del-lago.wav,1,,,244.5048,247.0383,1,1,2.0085,,0,64,64,27,1,28,0,castilian,,,,,,,,,,,,,,,,,,,,,,,,,,,,,,,,,,,,,,,,,,,,,,,,,,,,,,,,
,,,,,,,,,6629590de0554e4996934b9e,Mexican,13 or older,"no, only English or Spanish",no,2025-07-24_10h56.13.519,empathy_intonation_perc_control,2024.2.4,Win32,59.88023952,6629590de0554e4996934b9e,68817205a84113384fffdfe3,688248d100ff3702fc238da4,,,,,,,,,,,,./stim/wavs/castilian_mismatch_interrogative-total-yn_La-maestra-vive-en-Paris.wav,1,,,247.0392,249.6394,1,1,2.0676,,0,65,65,24,1,25,0,castilian,,,,,,,,,,,,,,,,,,,,,,,,,,,,,,,,,,,,,,,,,,,,,,,,,,,,,,,,
,,,,,,,,,6629590de0554e4996934b9e,Mexican,13 or older,"no, only English or Spanish",no,2025-07-24_10h56.13.519,empathy_intonation_perc_control,2024.2.4,Win32,59.88023952,6629590de0554e4996934b9e,68817205a84113384fffdfe3,688248d100ff3702fc238da4,,,,,,,,,,,,./stim/wavs/cuban_mismatch_declarative-broad-focus_El-hombre-mira-la-luna.wav,0,,,249.64,252.1403,0,1,1.9667,,0,66,66,74,1,75,0,cuban,,,,,,,,,,,,,,,,,,,,,,,,,,,,,,,,,,,,,,,,,,,,,,,,,,,,,,,,
,,,,,,,,,6629590de0554e4996934b9e,Mexican,13 or older,"no, only English or Spanish",no,2025-07-24_10h56.13.519,empathy_intonation_perc_control,2024.2.4,Win32,59.88023952,6629590de0554e4996934b9e,68817205a84113384fffdfe3,688248d100ff3702fc238da4,,,,,,,,,,,,./stim/wavs/puertorican_mismatch_interrogative-total-yn_La-nina-lava-el-plato.wav,1,,,252.1409,255.8246,1,1,3.1592,,0,67,67,42,1,43,1,puertorican,,,,,,,,,,,,,,,,,,,,,,,,,,,,,,,,,,,,,,,,,,,,,,,,,,,,,,,,
,,,,,,,,,6629590de0554e4996934b9e,Mexican,13 or older,"no, only English or Spanish",no,2025-07-24_10h56.13.519,empathy_intonation_perc_control,2024.2.4,Win32,59.88023952,6629590de0554e4996934b9e,68817205a84113384fffdfe3,688248d100ff3702fc238da4,,,,,,,,,,,,./stim/wavs/castilian_match_interrogative-total-yn_Marta-abre-el-regalo.wav,1,,,255.8253,258.4256,1,1,2.0745,,0,68,68,5,1,6,0,castilian,,,,,,,,,,,,,,,,,,,,,,,,,,,,,,,,,,,,,,,,,,,,,,,,,,,,,,,,
,,,,,,,,,6629590de0554e4996934b9e,Mexican,13 or older,"no, only English or Spanish",no,2025-07-24_10h56.13.519,empathy_intonation_perc_control,2024.2.4,Win32,59.88023952,6629590de0554e4996934b9e,68817205a84113384fffdfe3,688248d100ff3702fc238da4,,,,,,,,,,,,./stim/wavs/cuban_match_interrogative-total-yn_Ana-lleva-el-abrigo.wav,1,,,258.4262,260.7765,0,0,1.8169,,0,69,69,6,1,7,1,cuban,,,,,,,,,,,,,,,,,,,,,,,,,,,,,,,,,,,,,,,,,,,,,,,,,,,,,,,,
,,,,,,,,,6629590de0554e4996934b9e,Mexican,13 or older,"no, only English or Spanish",no,2025-07-24_10h56.13.519,empathy_intonation_perc_control,2024.2.4,Win32,59.88023952,6629590de0554e4996934b9e,68817205a84113384fffdfe3,688248d100ff3702fc238da4,,,,,,,,,,,,./stim/wavs/cuban_match_interrogative-total-yn_Manuela-vende-el-carro.wav,1,,,260.7772,263.2773,0,0,1.9697,,0,70,70,8,1,9,1,cuban,,,,,,,,,,,,,,,,,,,,,,,,,,,,,,,,,,,,,,,,,,,,,,,,,,,,,,,,
,,,,,,,,,6629590de0554e4996934b9e,Mexican,13 or older,"no, only English or Spanish",no,2025-07-24_10h56.13.519,empathy_intonation_perc_control,2024.2.4,Win32,59.88023952,6629590de0554e4996934b9e,68817205a84113384fffdfe3,688248d100ff3702fc238da4,,,,,,,,,,,,./stim/wavs/castilian_mismatch_declarative-broad-focus_La-maestra-vive-en-Paris.wav,0,,,263.2781,265.8279,0,1,2.022,,0,71,71,69,1,70,0,castilian,,,,,,,,,,,,,,,,,,,,,,,,,,,,,,,,,,,,,,,,,,,,,,,,,,,,,,,,
,,,,,,,,,6629590de0554e4996934b9e,Mexican,13 or older,"no, only English or Spanish",no,2025-07-24_10h56.13.519,empathy_intonation_perc_control,2024.2.4,Win32,59.88023952,6629590de0554e4996934b9e,68817205a84113384fffdfe3,688248d100ff3702fc238da4,,,,,,,,,,,,./stim/wavs/castilian_match_interrogative-total-yn_Mariano-habla-del-tiempo.wav,1,,,265.8283,268.5125,1,1,2.1506,,0,72,72,4,1,5,0,castilian,,,,,,,,,,,,,,,,,,,,,,,,,,,,,,,,,,,,,,,,,,,,,,,,,,,,,,,,
,,,,,,,,,6629590de0554e4996934b9e,Mexican,13 or older,"no, only English or Spanish",no,2025-07-24_10h56.13.519,empathy_intonation_perc_control,2024.2.4,Win32,59.88023952,6629590de0554e4996934b9e,68817205a84113384fffdfe3,688248d100ff3702fc238da4,,,,,,,,,,,,./stim/wavs/mexican_mismatch_declarative-broad-focus_El-hombre-mira-la-luna.wav,0,,,268.5129,271.08,0,1,2.0433,,0,73,73,79,1,80,0,mexican,,,,,,,,,,,,,,,,,,,,,,,,,,,,,,,,,,,,,,,,,,,,,,,,,,,,,,,,
,,,,,,,,,6629590de0554e4996934b9e,Mexican,13 or older,"no, only English or Spanish",no,2025-07-24_10h56.13.519,empathy_intonation_perc_control,2024.2.4,Win32,59.88023952,6629590de0554e4996934b9e,68817205a84113384fffdfe3,688248d100ff3702fc238da4,,,,,,,,,,,,./stim/wavs/puertorican_match_declarative-broad-focus_Maria-bebe-el-vino.wav,0,,,271.0805,275.5654,0,1,3.9635,,0,74,74,67,1,68,0,puertorican,,,,,,,,,,,,,,,,,,,,,,,,,,,,,,,,,,,,,,,,,,,,,,,,,,,,,,,,
,,,,,,,,,6629590de0554e4996934b9e,Mexican,13 or older,"no, only English or Spanish",no,2025-07-24_10h56.13.519,empathy_intonation_perc_control,2024.2.4,Win32,59.88023952,6629590de0554e4996934b9e,68817205a84113384fffdfe3,688248d100ff3702fc238da4,,,,,,,,,,,,./stim/wavs/cuban_match_declarative-broad-focus_Maria-bebe-el-vino.wav,0,,,275.5663,277.8825,0,1,1.7842,,0,75,75,53,1,54,0,cuban,,,,,,,,,,,,,,,,,,,,,,,,,,,,,,,,,,,,,,,,,,,,,,,,,,,,,,,,
,,,,,,,,,6629590de0554e4996934b9e,Mexican,13 or older,"no, only English or Spanish",no,2025-07-24_10h56.13.519,empathy_intonation_perc_control,2024.2.4,Win32,59.88023952,6629590de0554e4996934b9e,68817205a84113384fffdfe3,688248d100ff3702fc238da4,,,,,,,,,,,,./stim/wavs/castilian_match_declarative-broad-focus_Manuela-vende-el-carro.wav,0,,,277.8831,280.5166,0,1,2.1132,,0,76,76,46,1,47,0,castilian,,,,,,,,,,,,,,,,,,,,,,,,,,,,,,,,,,,,,,,,,,,,,,,,,,,,,,,,
,,,,,,,,,6629590de0554e4996934b9e,Mexican,13 or older,"no, only English or Spanish",no,2025-07-24_10h56.13.519,empathy_intonation_perc_control,2024.2.4,Win32,59.88023952,6629590de0554e4996934b9e,68817205a84113384fffdfe3,688248d100ff3702fc238da4,,,,,,,,,,,,./stim/wavs/castilian_match_interrogative-total-yn_Maria-bebe-el-vino.wav,1,,,280.5173,282.6673,1,1,1.6191,,0,77,77,3,1,4,0,castilian,,,,,,,,,,,,,,,,,,,,,,,,,,,,,,,,,,,,,,,,,,,,,,,,,,,,,,,,
,,,,,,,,,6629590de0554e4996934b9e,Mexican,13 or older,"no, only English or Spanish",no,2025-07-24_10h56.13.519,empathy_intonation_perc_control,2024.2.4,Win32,59.88023952,6629590de0554e4996934b9e,68817205a84113384fffdfe3,688248d100ff3702fc238da4,,,,,,,,,,,,./stim/wavs/cuban_mismatch_declarative-broad-focus_Mi-novio-viene-del-lago.wav,0,,,282.6679,284.885,0,1,1.6954,,0,78,78,76,1,77,0,cuban,,,,,,,,,,,,,,,,,,,,,,,,,,,,,,,,,,,,,,,,,,,,,,,,,,,,,,,,
,,,,,,,,,6629590de0554e4996934b9e,Mexican,13 or older,"no, only English or Spanish",no,2025-07-24_10h56.13.519,empathy_intonation_perc_control,2024.2.4,Win32,59.88023952,6629590de0554e4996934b9e,68817205a84113384fffdfe3,688248d100ff3702fc238da4,,,,,,,,,,,,./stim/wavs/puertorican_mismatch_interrogative-total-yn_El-hombre-mira-la-luna.wav,1,,,284.8857,287.986,1,1,2.5679,,0,79,79,39,1,40,1,puertorican,,,,,,,,,,,,,,,,,,,,,,,,,,,,,,,,,,,,,,,,,,,,,,,,,,,,,,,,
,,,,,,,,,6629590de0554e4996934b9e,Mexican,13 or older,"no, only English or Spanish",no,2025-07-24_10h56.13.519,empathy_intonation_perc_control,2024.2.4,Win32,59.88023952,6629590de0554e4996934b9e,68817205a84113384fffdfe3,688248d100ff3702fc238da4,,,,,,,,,,,,./stim/wavs/castilian_mismatch_declarative-broad-focus_La-nina-lava-el-plato.wav,0,,,287.9864,290.4368,0,1,1.9221,,0,80,80,70,1,71,0,castilian,,,,,,,,,,,,,,,,,,,,,,,,,,,,,,,,,,,,,,,,,,,,,,,,,,,,,,,,
,,,,,,,,,6629590de0554e4996934b9e,Mexican,13 or older,"no, only English or Spanish",no,2025-07-24_10h56.13.519,empathy_intonation_perc_control,2024.2.4,Win32,59.88023952,6629590de0554e4996934b9e,68817205a84113384fffdfe3,688248d100ff3702fc238da4,,,,,,,,,,,,./stim/wavs/castilian_match_interrogative-total-yn_Manuela-vende-el-carro.wav,1,,,290.4376,293.171,1,1,2.2064,,0,81,81,2,1,3,0,castilian,,,,,,,,,,,,,,,,,,,,,,,,,,,,,,,,,,,,,,,,,,,,,,,,,,,,,,,,
,,,,,,,,,6629590de0554e4996934b9e,Mexican,13 or older,"no, only English or Spanish",no,2025-07-24_10h56.13.519,empathy_intonation_perc_control,2024.2.4,Win32,59.88023952,6629590de0554e4996934b9e,68817205a84113384fffdfe3,688248d100ff3702fc238da4,,,,,,,,,,,,./stim/wavs/cuban_mismatch_declarative-broad-focus_La-nina-lava-el-plato.wav,0,,,293.1716,295.3887,0,1,1.6842,,0,82,82,75,1,76,0,cuban,,,,,,,,,,,,,,,,,,,,,,,,,,,,,,,,,,,,,,,,,,,,,,,,,,,,,,,,
,,,,,,,,,6629590de0554e4996934b9e,Mexican,13 or older,"no, only English or Spanish",no,2025-07-24_10h56.13.519,empathy_intonation_perc_control,2024.2.4,Win32,59.88023952,6629590de0554e4996934b9e,68817205a84113384fffdfe3,688248d100ff3702fc238da4,,,,,,,,,,,,./stim/wavs/castilian_mismatch_interrogative-total-yn_Mi-tia-odia-la-lluvia.wav,1,,,295.3898,297.6725,1,1,1.7585,,0,83,83,28,1,29,0,castilian,,,,,,,,,,,,,,,,,,,,,,,,,,,,,,,,,,,,,,,,,,,,,,,,,,,,,,,,
,,,,,,,,,6629590de0554e4996934b9e,Mexican,13 or older,"no, only English or Spanish",no,2025-07-24_10h56.13.519,empathy_intonation_perc_control,2024.2.4,Win32,59.88023952,6629590de0554e4996934b9e,68817205a84113384fffdfe3,688248d100ff3702fc238da4,,,,,,,,,,,,./stim/wavs/mexican_mismatch_declarative-broad-focus_Mi-novio-viene-del-lago.wav,0,,,297.6731,299.64,0,1,1.4342,,0,84,84,81,1,82,0,mexican,,,,,,,,,,,,,,,,,,,,,,,,,,,,,,,,,,,,,,,,,,,,,,,,,,,,,,,,
,,,,,,,,,6629590de0554e4996934b9e,Mexican,13 or older,"no, only English or Spanish",no,2025-07-24_10h56.13.519,empathy_intonation_perc_control,2024.2.4,Win32,59.88023952,6629590de0554e4996934b9e,68817205a84113384fffdfe3,688248d100ff3702fc238da4,,,,,,,,,,,,./stim/wavs/cuban_match_declarative-broad-focus_Daniel-iba-a-Bolivia.wav,0,,,299.6405,302.1074,0,1,1.9326,,0,85,85,51,1,52,0,cuban,,,,,,,,,,,,,,,,,,,,,,,,,,,,,,,,,,,,,,,,,,,,,,,,,,,,,,,,
,,,,,,,,,6629590de0554e4996934b9e,Mexican,13 or older,"no, only English or Spanish",no,2025-07-24_10h56.13.519,empathy_intonation_perc_control,2024.2.4,Win32,59.88023952,6629590de0554e4996934b9e,68817205a84113384fffdfe3,688248d100ff3702fc238da4,,,,,,,,,,,,./stim/wavs/puertorican_match_interrogative-total-yn_Ana-lleva-el-abrigo.wav,1,,,302.1081,304.0912,0,0,1.4558,,0,86,86,18,1,19,1,puertorican,,,,,,,,,,,,,,,,,,,,,,,,,,,,,,,,,,,,,,,,,,,,,,,,,,,,,,,,
,,,,,,,,,6629590de0554e4996934b9e,Mexican,13 or older,"no, only English or Spanish",no,2025-07-24_10h56.13.519,empathy_intonation_perc_control,2024.2.4,Win32,59.88023952,6629590de0554e4996934b9e,68817205a84113384fffdfe3,688248d100ff3702fc238da4,,,,,,,,,,,,./stim/wavs/mexican_mismatch_interrogative-total-yn_El-nino-oye-el-rio.wav,1,,,304.0917,306.2586,1,1,1.6392,,0,87,87,35,1,36,0,mexican,,,,,,,,,,,,,,,,,,,,,,,,,,,,,,,,,,,,,,,,,,,,,,,,,,,,,,,,
,,,,,,,"Great! Now we will move on. The next task consists of about 60 trials, in each of which you will see a string of letters. 
  
  Your task is to decide whether this is a real Spanish word or not.", (press the spacebar to continue),6629590de0554e4996934b9e,Mexican,13 or older,"no, only English or Spanish",no,2025-07-24_10h56.13.519,empathy_intonation_perc_control,2024.2.4,Win32,59.88023952,6629590de0554e4996934b9e,68817205a84113384fffdfe3,688248d100ff3702fc238da4,,,,,,,,,,,,,,,,,,,,,,,,,,,,,,306.2663,319.6139,0,0,0,0,1,,,,,,,,,,,,,,,,,,,,,,,,,,,,,,,,,,,,,,,,,,,,,,,,,
,,,,,,,"If you think it is an existing Spanish word, you type '1' (for 'REAL'), and if you think it is not an existing Spanish word, you type '0' (for 'FAKE').", (press the spacebar to continue),6629590de0554e4996934b9e,Mexican,13 or older,"no, only English or Spanish",no,2025-07-24_10h56.13.519,empathy_intonation_perc_control,2024.2.4,Win32,59.88023952,6629590de0554e4996934b9e,68817205a84113384fffdfe3,688248d100ff3702fc238da4,,,,,,,,,,,,,,,,,,,,,,,,,,,,,,319.6177,326.4491,0,1,1,1,1,,,,,,,,,,,,,,,,,,,,,,,,,,,,,,,,,,,,,,,,,,,,,,,,,
,,,,,,,"If you are sure that the word exists, even though you don’t know its exact meaning, you may still respond '1' (REAL). 
  
  But if you are not sure if it is an existing word, you should respond '0' (FAKE).
  
  Let's do a practice round...", (press the spacebar to continue),6629590de0554e4996934b9e,Mexican,13 or older,"no, only English or Spanish",no,2025-07-24_10h56.13.519,empathy_intonation_perc_control,2024.2.4,Win32,59.88023952,6629590de0554e4996934b9e,68817205a84113384fffdfe3,688248d100ff3702fc238da4,,,,,,,,,,,,,,,,,,,,,,,,,,,,,,326.4522,337.1526,0,2,2,2,1,,,,,,,,,,,,,,,,,,,,,,,,,,,,,,,,,,,,,,,,,,,,,,,,,
,,,,,,,,,6629590de0554e4996934b9e,Mexican,13 or older,"no, only English or Spanish",no,2025-07-24_10h56.13.519,empathy_intonation_perc_control,2024.2.4,Win32,59.88023952,6629590de0554e4996934b9e,68817205a84113384fffdfe3,688248d100ff3702fc238da4,,,,,,,,,,,,,0,,,,,,,,,,,,,,,,,,,,,,,,337.1614,340.9213,0,1,3.2313,,340.9217,341.921,0,0,0,0,1,0,depiste,REAL,FAKE,,,,,,,,,,,,,,,,,,,,,,,,,,,,,,,,
,,,,,,,,,6629590de0554e4996934b9e,Mexican,13 or older,"no, only English or Spanish",no,2025-07-24_10h56.13.519,empathy_intonation_perc_control,2024.2.4,Win32,59.88023952,6629590de0554e4996934b9e,68817205a84113384fffdfe3,688248d100ff3702fc238da4,,,,,,,,,,,,,1,,,,,,,,,,,,,,,,,,,,,,,,341.9234,344.6388,1,1,2.1838,,344.6388,345.6389,0,1,1,1,1,0,sí,REAL,FAKE,,,,,,,,,,,,,,,,,,,,,,,,,,,,,,,,
,,,,,,,,,6629590de0554e4996934b9e,Mexican,13 or older,"no, only English or Spanish",no,2025-07-24_10h56.13.519,empathy_intonation_perc_control,2024.2.4,Win32,59.88023952,6629590de0554e4996934b9e,68817205a84113384fffdfe3,688248d100ff3702fc238da4,,,,,,,,,,,,,0,,,,,,,,,,,,,,,,,,,,,,,,345.6412,347.9735,1,0,1.7996,,347.9762,348.9735,0,2,2,2,1,0,coné,REAL,FAKE,,,,,,,,,,,,,,,,,,,,,,,,,,,,,,,,
,,,,,,,,,6629590de0554e4996934b9e,Mexican,13 or older,"no, only English or Spanish",no,2025-07-24_10h56.13.519,empathy_intonation_perc_control,2024.2.4,Win32,59.88023952,6629590de0554e4996934b9e,68817205a84113384fffdfe3,688248d100ff3702fc238da4,,,,,,,,,,,,,0,,,,,,,,,,,,,,,,,,,,,,,,348.9754,350.5742,0,1,1.0725,,350.575,351.5742,0,3,3,3,1,0,calpar,REAL,FAKE,,,,,,,,,,,,,,,,,,,,,,,,,,,,,,,,
,,,,,,,,,6629590de0554e4996934b9e,Mexican,13 or older,"no, only English or Spanish",no,2025-07-24_10h56.13.519,empathy_intonation_perc_control,2024.2.4,Win32,59.88023952,6629590de0554e4996934b9e,68817205a84113384fffdfe3,688248d100ff3702fc238da4,,,,,,,,,,,,,0,,,,,,,,,,,,,,,,,,,,,,,,351.576,353.0086,0,1,0.9056,,353.0087,354.0086,0,4,4,4,1,0,joten,REAL,FAKE,,,,,,,,,,,,,,,,,,,,,,,,,,,,,,,,
,,,,,,,,,6629590de0554e4996934b9e,Mexican,13 or older,"no, only English or Spanish",no,2025-07-24_10h56.13.519,empathy_intonation_perc_control,2024.2.4,Win32,59.88023952,6629590de0554e4996934b9e,68817205a84113384fffdfe3,688248d100ff3702fc238da4,,,,,,,,,,,,,1,,,,,,,,,,,,,,,,,,,,,,,,354.01,355.4925,0,0,0.9497,,355.4939,356.4925,0,5,5,5,1,0,sacapuntas,REAL,FAKE,,,,,,,,,,,,,,,,,,,,,,,,,,,,,,,,
,,,,,,,,,6629590de0554e4996934b9e,Mexican,13 or older,"no, only English or Spanish",no,2025-07-24_10h56.13.519,empathy_intonation_perc_control,2024.2.4,Win32,59.88023952,6629590de0554e4996934b9e,68817205a84113384fffdfe3,688248d100ff3702fc238da4,,,,,,,,,,,,,0,,,,,,,,,,,,,,,,,,,,,,,,356.4947,358.1433,0,1,1.1235,,358.1439,359.1439,0,6,6,6,1,0,priba,REAL,FAKE,,,,,,,,,,,,,,,,,,,,,,,,,,,,,,,,
,,,,,,,,,6629590de0554e4996934b9e,Mexican,13 or older,"no, only English or Spanish",no,2025-07-24_10h56.13.519,empathy_intonation_perc_control,2024.2.4,Win32,59.88023952,6629590de0554e4996934b9e,68817205a84113384fffdfe3,688248d100ff3702fc238da4,,,,,,,,,,,,,0,,,,,,,,,,,,,,,,,,,,,,,,359.145,360.8108,0,1,1.1303,,360.8109,361.8112,0,7,7,7,1,0,pelasula,REAL,FAKE,,,,,,,,,,,,,,,,,,,,,,,,,,,,,,,,
,,,,,,,,,6629590de0554e4996934b9e,Mexican,13 or older,"no, only English or Spanish",no,2025-07-24_10h56.13.519,empathy_intonation_perc_control,2024.2.4,Win32,59.88023952,6629590de0554e4996934b9e,68817205a84113384fffdfe3,688248d100ff3702fc238da4,,,,,,,,,,,,,1,,,,,,,,,,,,,,,,,,,,,,,,361.8125,363.2951,1,1,0.9496,,363.2951,364.2954,0,8,8,8,1,0,bien,REAL,FAKE,,,,,,,,,,,,,,,,,,,,,,,,,,,,,,,,
,,,,,,,,,6629590de0554e4996934b9e,Mexican,13 or older,"no, only English or Spanish",no,2025-07-24_10h56.13.519,empathy_intonation_perc_control,2024.2.4,Win32,59.88023952,6629590de0554e4996934b9e,68817205a84113384fffdfe3,688248d100ff3702fc238da4,,,,,,,,,,,,,1,,,,,,,,,,,,,,,,,,,,,,,,364.2969,365.6125,1,1,0.7861,,365.6127,366.613,0,9,9,9,1,0,casa,REAL,FAKE,,,,,,,,,,,,,,,,,,,,,,,,,,,,,,,,
,,,,,,,,,6629590de0554e4996934b9e,Mexican,13 or older,"no, only English or Spanish",no,2025-07-24_10h56.13.519,empathy_intonation_perc_control,2024.2.4,Win32,59.88023952,6629590de0554e4996934b9e,68817205a84113384fffdfe3,688248d100ff3702fc238da4,,,,,,,,,,,,,0,,,,,,,,,,,,,,,,,,,,,,,,366.614,368.4301,1,0,1.2918,,368.4309,369.4303,0,10,10,10,1,0,lejo,REAL,FAKE,,,,,,,,,,,,,,,,,,,,,,,,,,,,,,,,
,,,,,,,,,6629590de0554e4996934b9e,Mexican,13 or older,"no, only English or Spanish",no,2025-07-24_10h56.13.519,empathy_intonation_perc_control,2024.2.4,Win32,59.88023952,6629590de0554e4996934b9e,68817205a84113384fffdfe3,688248d100ff3702fc238da4,,,,,,,,,,,,,0,,,,,,,,,,,,,,,,,,,,,,,,369.4312,371.3312,1,0,1.3651,,371.3313,372.3313,0,11,11,11,1,0,pretantas,REAL,FAKE,,,,,,,,,,,,,,,,,,,,,,,,,,,,,,,,
,,,,,,,,,6629590de0554e4996934b9e,Mexican,13 or older,"no, only English or Spanish",no,2025-07-24_10h56.13.519,empathy_intonation_perc_control,2024.2.4,Win32,59.88023952,6629590de0554e4996934b9e,68817205a84113384fffdfe3,688248d100ff3702fc238da4,,,,,,,,,,,,,,,,,,,,,,,,,,,,,,,,,,,,,,,,,,,,,,,,,,,,,,372.3317,373.749,,,,,,,,,,,,,,,,,,,,,,,,,,,,,,
,,,,,,,,,6629590de0554e4996934b9e,Mexican,13 or older,"no, only English or Spanish",no,2025-07-24_10h56.13.519,empathy_intonation_perc_control,2024.2.4,Win32,59.88023952,6629590de0554e4996934b9e,68817205a84113384fffdfe3,688248d100ff3702fc238da4,,,,,,,,,,,,,1,,,,,,,,,,,,,,,,,,,,,,,,,,,,,,,,,,,,,71,polvoriento,,,,,373.7631,375.883,0,0,1.6013,,0,0,0,70,1,REAL,FAKE,,,,,,,,,,,,,,,,,
,,,,,,,,,6629590de0554e4996934b9e,Mexican,13 or older,"no, only English or Spanish",no,2025-07-24_10h56.13.519,empathy_intonation_perc_control,2024.2.4,Win32,59.88023952,6629590de0554e4996934b9e,68817205a84113384fffdfe3,688248d100ff3702fc238da4,,,,,,,,,,,,,0,,,,,,,,,,,,,,,,,,,,,,,,,,,,,,,,,,,,,4,batillón,,,,,375.884,377.6665,0,1,1.2457,,0,1,1,3,1,REAL,FAKE,,,,,,,,,,,,,,,,,
,,,,,,,,,6629590de0554e4996934b9e,Mexican,13 or older,"no, only English or Spanish",no,2025-07-24_10h56.13.519,empathy_intonation_perc_control,2024.2.4,Win32,59.88023952,6629590de0554e4996934b9e,68817205a84113384fffdfe3,688248d100ff3702fc238da4,,,,,,,,,,,,,1,,,,,,,,,,,,,,,,,,,,,,,,,,,,,,,,,,,,,25,bisagra,,,,,377.6685,379.0507,0,0,0.8504,,0,2,2,24,1,REAL,FAKE,,,,,,,,,,,,,,,,,
,,,,,,,,,6629590de0554e4996934b9e,Mexican,13 or older,"no, only English or Spanish",no,2025-07-24_10h56.13.519,empathy_intonation_perc_control,2024.2.4,Win32,59.88023952,6629590de0554e4996934b9e,68817205a84113384fffdfe3,688248d100ff3702fc238da4,,,,,,,,,,,,,1,,,,,,,,,,,,,,,,,,,,,,,,,,,,,,,,,,,,,38,estornudar,,,,,379.0519,381.2015,0,0,1.6149,,0,3,3,37,1,REAL,FAKE,,,,,,,,,,,,,,,,,
,,,,,,,,,6629590de0554e4996934b9e,Mexican,13 or older,"no, only English or Spanish",no,2025-07-24_10h56.13.519,empathy_intonation_perc_control,2024.2.4,Win32,59.88023952,6629590de0554e4996934b9e,68817205a84113384fffdfe3,688248d100ff3702fc238da4,,,,,,,,,,,,,1,,,,,,,,,,,,,,,,,,,,,,,,,,,,,,,,,,,,,64,orgulloso,,,,,381.2026,382.6689,0,0,0.9409,,0,4,4,63,1,REAL,FAKE,,,,,,,,,,,,,,,,,
,,,,,,,,,6629590de0554e4996934b9e,Mexican,13 or older,"no, only English or Spanish",no,2025-07-24_10h56.13.519,empathy_intonation_perc_control,2024.2.4,Win32,59.88023952,6629590de0554e4996934b9e,68817205a84113384fffdfe3,688248d100ff3702fc238da4,,,,,,,,,,,,,1,,,,,,,,,,,,,,,,,,,,,,,,,,,,,,,,,,,,,44,cuchara,,,,,382.6705,384.9027,0,0,1.6975,,0,5,5,43,1,REAL,FAKE,,,,,,,,,,,,,,,,,
,,,,,,,,,6629590de0554e4996934b9e,Mexican,13 or older,"no, only English or Spanish",no,2025-07-24_10h56.13.519,empathy_intonation_perc_control,2024.2.4,Win32,59.88023952,6629590de0554e4996934b9e,68817205a84113384fffdfe3,688248d100ff3702fc238da4,,,,,,,,,,,,,1,,,,,,,,,,,,,,,,,,,,,,,,,,,,,,,,,,,,,88,acantilado,,,,,384.9037,386.1363,0,0,0.7025,,0,6,6,87,1,REAL,FAKE,,,,,,,,,,,,,,,,,
,,,,,,,,,6629590de0554e4996934b9e,Mexican,13 or older,"no, only English or Spanish",no,2025-07-24_10h56.13.519,empathy_intonation_perc_control,2024.2.4,Win32,59.88023952,6629590de0554e4996934b9e,68817205a84113384fffdfe3,688248d100ff3702fc238da4,,,,,,,,,,,,,1,,,,,,,,,,,,,,,,,,,,,,,,,,,,,,,,,,,,,14,yunque,,,,,386.1386,387.2033,0,0,0.5339,,0,7,7,13,1,REAL,FAKE,,,,,,,,,,,,,,,,,
,,,,,,,,,6629590de0554e4996934b9e,Mexican,13 or older,"no, only English or Spanish",no,2025-07-24_10h56.13.519,empathy_intonation_perc_control,2024.2.4,Win32,59.88023952,6629590de0554e4996934b9e,68817205a84113384fffdfe3,688248d100ff3702fc238da4,,,,,,,,,,,,,1,,,,,,,,,,,,,,,,,,,,,,,,,,,,,,,,,,,,,46,martillo,,,,,387.2054,388.5372,0,0,0.799,,0,8,8,45,1,REAL,FAKE,,,,,,,,,,,,,,,,,
,,,,,,,,,6629590de0554e4996934b9e,Mexican,13 or older,"no, only English or Spanish",no,2025-07-24_10h56.13.519,empathy_intonation_perc_control,2024.2.4,Win32,59.88023952,6629590de0554e4996934b9e,68817205a84113384fffdfe3,688248d100ff3702fc238da4,,,,,,,,,,,,,0,,,,,,,,,,,,,,,,,,,,,,,,,,,,,,,,,,,,,35,rompido,,,,,388.5381,389.804,0,1,0.7307,,0,9,9,34,1,REAL,FAKE,,,,,,,,,,,,,,,,,
,,,,,,,,,6629590de0554e4996934b9e,Mexican,13 or older,"no, only English or Spanish",no,2025-07-24_10h56.13.519,empathy_intonation_perc_control,2024.2.4,Win32,59.88023952,6629590de0554e4996934b9e,68817205a84113384fffdfe3,688248d100ff3702fc238da4,,,,,,,,,,,,,1,,,,,,,,,,,,,,,,,,,,,,,,,,,,,,,,,,,,,39,torpe,,,,,389.8047,391.0714,0,0,0.7484,,0,10,10,38,1,REAL,FAKE,,,,,,,,,,,,,,,,,
,,,,,,,,,6629590de0554e4996934b9e,Mexican,13 or older,"no, only English or Spanish",no,2025-07-24_10h56.13.519,empathy_intonation_perc_control,2024.2.4,Win32,59.88023952,6629590de0554e4996934b9e,68817205a84113384fffdfe3,688248d100ff3702fc238da4,,,,,,,,,,,,,1,,,,,,,,,,,,,,,,,,,,,,,,,,,,,,,,,,,,,15,regar,,,,,391.0721,392.1716,0,0,0.5664,,0,11,11,14,1,REAL,FAKE,,,,,,,,,,,,,,,,,
,,,,,,,,,6629590de0554e4996934b9e,Mexican,13 or older,"no, only English or Spanish",no,2025-07-24_10h56.13.519,empathy_intonation_perc_control,2024.2.4,Win32,59.88023952,6629590de0554e4996934b9e,68817205a84113384fffdfe3,688248d100ff3702fc238da4,,,,,,,,,,,,,1,,,,,,,,,,,,,,,,,,,,,,,,,,,,,,,,,,,,,40,alfombra,,,,,392.1731,393.423,0,0,0.7226,,0,12,12,39,1,REAL,FAKE,,,,,,,,,,,,,,,,,
,,,,,,,,,6629590de0554e4996934b9e,Mexican,13 or older,"no, only English or Spanish",no,2025-07-24_10h56.13.519,empathy_intonation_perc_control,2024.2.4,Win32,59.88023952,6629590de0554e4996934b9e,68817205a84113384fffdfe3,688248d100ff3702fc238da4,,,,,,,,,,,,,0,,,,,,,,,,,,,,,,,,,,,,,,,,,,,,,,,,,,,53,vegada,,,,,393.4245,395.7898,0,1,1.8349,,0,13,13,52,1,REAL,FAKE,,,,,,,,,,,,,,,,,
,,,,,,,,,6629590de0554e4996934b9e,Mexican,13 or older,"no, only English or Spanish",no,2025-07-24_10h56.13.519,empathy_intonation_perc_control,2024.2.4,Win32,59.88023952,6629590de0554e4996934b9e,68817205a84113384fffdfe3,688248d100ff3702fc238da4,,,,,,,,,,,,,0,,,,,,,,,,,,,,,,,,,,,,,,,,,,,,,,,,,,,58,plaudir,,,,,395.7908,397.29,0,1,0.9688,,0,14,14,57,1,REAL,FAKE,,,,,,,,,,,,,,,,,
,,,,,,,,,6629590de0554e4996934b9e,Mexican,13 or older,"no, only English or Spanish",no,2025-07-24_10h56.13.519,empathy_intonation_perc_control,2024.2.4,Win32,59.88023952,6629590de0554e4996934b9e,68817205a84113384fffdfe3,688248d100ff3702fc238da4,,,,,,,,,,,,,1,,,,,,,,,,,,,,,,,,,,,,,,,,,,,,,,,,,,,13,helar,,,,,397.2912,398.6573,0,0,0.8366,,0,15,15,12,1,REAL,FAKE,,,,,,,,,,,,,,,,,
,,,,,,,,,6629590de0554e4996934b9e,Mexican,13 or older,"no, only English or Spanish",no,2025-07-24_10h56.13.519,empathy_intonation_perc_control,2024.2.4,Win32,59.88023952,6629590de0554e4996934b9e,68817205a84113384fffdfe3,688248d100ff3702fc238da4,,,,,,,,,,,,,1,,,,,,,,,,,,,,,,,,,,,,,,,,,,,,,,,,,,,6,tergiversar,,,,,398.6589,400.291,0,0,1.0982,,0,16,16,5,1,REAL,FAKE,,,,,,,,,,,,,,,,,
,,,,,,,,,6629590de0554e4996934b9e,Mexican,13 or older,"no, only English or Spanish",no,2025-07-24_10h56.13.519,empathy_intonation_perc_control,2024.2.4,Win32,59.88023952,6629590de0554e4996934b9e,68817205a84113384fffdfe3,688248d100ff3702fc238da4,,,,,,,,,,,,,1,,,,,,,,,,,,,,,,,,,,,,,,,,,,,,,,,,,,,68,alegre,,,,,400.2922,402.1085,0,0,1.2825,,0,17,17,67,1,REAL,FAKE,,,,,,,,,,,,,,,,,
,,,,,,,,,6629590de0554e4996934b9e,Mexican,13 or older,"no, only English or Spanish",no,2025-07-24_10h56.13.519,empathy_intonation_perc_control,2024.2.4,Win32,59.88023952,6629590de0554e4996934b9e,68817205a84113384fffdfe3,688248d100ff3702fc238da4,,,,,,,,,,,,,1,,,,,,,,,,,,,,,,,,,,,,,,,,,,,,,,,,,,,48,ladrón,,,,,402.1096,403.4255,0,0,0.7861,,0,18,18,47,1,REAL,FAKE,,,,,,,,,,,,,,,,,
,,,,,,,,,6629590de0554e4996934b9e,Mexican,13 or older,"no, only English or Spanish",no,2025-07-24_10h56.13.519,empathy_intonation_perc_control,2024.2.4,Win32,59.88023952,6629590de0554e4996934b9e,68817205a84113384fffdfe3,688248d100ff3702fc238da4,,,,,,,,,,,,,1,,,,,,,,,,,,,,,,,,,,,,,,,,,,,,,,,,,,,36,loro,,,,,403.4268,404.9259,0,0,0.9651,,0,19,19,35,1,REAL,FAKE,,,,,,,,,,,,,,,,,
,,,,,,,,,6629590de0554e4996934b9e,Mexican,13 or older,"no, only English or Spanish",no,2025-07-24_10h56.13.519,empathy_intonation_perc_control,2024.2.4,Win32,59.88023952,6629590de0554e4996934b9e,68817205a84113384fffdfe3,688248d100ff3702fc238da4,,,,,,,,,,,,,0,,,,,,,,,,,,,,,,,,,,,,,,,,,,,,,,,,,,,42,cadallo,,,,,404.9271,406.1435,0,1,0.6834,,0,20,20,41,1,REAL,FAKE,,,,,,,,,,,,,,,,,
,,,,,,,,,6629590de0554e4996934b9e,Mexican,13 or older,"no, only English or Spanish",no,2025-07-24_10h56.13.519,empathy_intonation_perc_control,2024.2.4,Win32,59.88023952,6629590de0554e4996934b9e,68817205a84113384fffdfe3,688248d100ff3702fc238da4,,,,,,,,,,,,,0,,,,,,,,,,,,,,,,,,,,,,,,,,,,,,,,,,,,,84,escuto,,,,,406.1451,407.8104,0,1,1.1333,,0,21,21,83,1,REAL,FAKE,,,,,,,,,,,,,,,,,
,,,,,,,,,6629590de0554e4996934b9e,Mexican,13 or older,"no, only English or Spanish",no,2025-07-24_10h56.13.519,empathy_intonation_perc_control,2024.2.4,Win32,59.88023952,6629590de0554e4996934b9e,68817205a84113384fffdfe3,688248d100ff3702fc238da4,,,,,,,,,,,,,0,,,,,,,,,,,,,,,,,,,,,,,,,,,,,,,,,,,,,21,capillo,,,,,407.8116,409.4608,0,1,1.1154,,0,22,22,20,1,REAL,FAKE,,,,,,,,,,,,,,,,,
,,,,,,,,,6629590de0554e4996934b9e,Mexican,13 or older,"no, only English or Spanish",no,2025-07-24_10h56.13.519,empathy_intonation_perc_control,2024.2.4,Win32,59.88023952,6629590de0554e4996934b9e,68817205a84113384fffdfe3,688248d100ff3702fc238da4,,,,,,,,,,,,,0,,,,,,,,,,,,,,,,,,,,,,,,,,,,,,,,,,,,,32,fatacidad,,,,,409.4619,410.5278,0,1,0.5381,,0,23,23,31,1,REAL,FAKE,,,,,,,,,,,,,,,,,
,,,,,,,,,6629590de0554e4996934b9e,Mexican,13 or older,"no, only English or Spanish",no,2025-07-24_10h56.13.519,empathy_intonation_perc_control,2024.2.4,Win32,59.88023952,6629590de0554e4996934b9e,68817205a84113384fffdfe3,688248d100ff3702fc238da4,,,,,,,,,,,,,0,,,,,,,,,,,,,,,,,,,,,,,,,,,,,,,,,,,,,27,acutación,,,,,410.529,411.9119,0,1,0.846,,0,24,24,26,1,REAL,FAKE,,,,,,,,,,,,,,,,,
,,,,,,,,,6629590de0554e4996934b9e,Mexican,13 or older,"no, only English or Spanish",no,2025-07-24_10h56.13.519,empathy_intonation_perc_control,2024.2.4,Win32,59.88023952,6629590de0554e4996934b9e,68817205a84113384fffdfe3,688248d100ff3702fc238da4,,,,,,,,,,,,,0,,,,,,,,,,,,,,,,,,,,,,,,,,,,,,,,,,,,,66,hacido,,,,,411.9131,413.4292,0,1,0.9848,,0,25,25,65,1,REAL,FAKE,,,,,,,,,,,,,,,,,
,,,,,,,,,6629590de0554e4996934b9e,Mexican,13 or older,"no, only English or Spanish",no,2025-07-24_10h56.13.519,empathy_intonation_perc_control,2024.2.4,Win32,59.88023952,6629590de0554e4996934b9e,68817205a84113384fffdfe3,688248d100ff3702fc238da4,,,,,,,,,,,,,0,,,,,,,,,,,,,,,,,,,,,,,,,,,,,,,,,,,,,87,grodo,,,,,413.4301,414.4794,0,1,0.5153,,0,26,26,86,1,REAL,FAKE,,,,,,,,,,,,,,,,,
,,,,,,,,,6629590de0554e4996934b9e,Mexican,13 or older,"no, only English or Spanish",no,2025-07-24_10h56.13.519,empathy_intonation_perc_control,2024.2.4,Win32,59.88023952,6629590de0554e4996934b9e,68817205a84113384fffdfe3,688248d100ff3702fc238da4,,,,,,,,,,,,,1,,,,,,,,,,,,,,,,,,,,,,,,,,,,,,,,,,,,,90,clavel,,,,,414.4804,415.5974,0,0,0.5939,,0,27,27,89,1,REAL,FAKE,,,,,,,,,,,,,,,,,
,,,,,,,,,6629590de0554e4996934b9e,Mexican,13 or older,"no, only English or Spanish",no,2025-07-24_10h56.13.519,empathy_intonation_perc_control,2024.2.4,Win32,59.88023952,6629590de0554e4996934b9e,68817205a84113384fffdfe3,688248d100ff3702fc238da4,,,,,,,,,,,,,1,,,,,,,,,,,,,,,,,,,,,,,,,,,,,,,,,,,,,26,secuestro,,,,,415.5998,416.6968,0,0,0.5718,,0,28,28,25,1,REAL,FAKE,,,,,,,,,,,,,,,,,
,,,,,,,,,6629590de0554e4996934b9e,Mexican,13 or older,"no, only English or Spanish",no,2025-07-24_10h56.13.519,empathy_intonation_perc_control,2024.2.4,Win32,59.88023952,6629590de0554e4996934b9e,68817205a84113384fffdfe3,688248d100ff3702fc238da4,,,,,,,,,,,,,1,,,,,,,,,,,,,,,,,,,,,,,,,,,,,,,,,,,,,12,asesinato,,,,,416.6982,417.9139,0,0,0.6865,,0,29,29,11,1,REAL,FAKE,,,,,,,,,,,,,,,,,
,,,,,,,,,6629590de0554e4996934b9e,Mexican,13 or older,"no, only English or Spanish",no,2025-07-24_10h56.13.519,empathy_intonation_perc_control,2024.2.4,Win32,59.88023952,6629590de0554e4996934b9e,68817205a84113384fffdfe3,688248d100ff3702fc238da4,,,,,,,,,,,,,0,,,,,,,,,,,,,,,,,,,,,,,,,,,,,,,,,,,,,70,temblo,,,,,417.9151,419.1976,0,1,0.75,,0,30,30,69,1,REAL,FAKE,,,,,,,,,,,,,,,,,
,,,,,,,,,6629590de0554e4996934b9e,Mexican,13 or older,"no, only English or Spanish",no,2025-07-24_10h56.13.519,empathy_intonation_perc_control,2024.2.4,Win32,59.88023952,6629590de0554e4996934b9e,68817205a84113384fffdfe3,688248d100ff3702fc238da4,,,,,,,,,,,,,1,,,,,,,,,,,,,,,,,,,,,,,,,,,,,,,,,,,,,22,lacayo,,,,,419.199,420.798,0,0,1.0649,,0,31,31,21,1,REAL,FAKE,,,,,,,,,,,,,,,,,
,,,,,,,,,6629590de0554e4996934b9e,Mexican,13 or older,"no, only English or Spanish",no,2025-07-24_10h56.13.519,empathy_intonation_perc_control,2024.2.4,Win32,59.88023952,6629590de0554e4996934b9e,68817205a84113384fffdfe3,688248d100ff3702fc238da4,,,,,,,,,,,,,1,,,,,,,,,,,,,,,,,,,,,,,,,,,,,,,,,,,,,24,látigo,,,,,420.7998,421.8651,0,0,0.5374,,0,32,32,23,1,REAL,FAKE,,,,,,,,,,,,,,,,,
,,,,,,,,,6629590de0554e4996934b9e,Mexican,13 or older,"no, only English or Spanish",no,2025-07-24_10h56.13.519,empathy_intonation_perc_control,2024.2.4,Win32,59.88023952,6629590de0554e4996934b9e,68817205a84113384fffdfe3,688248d100ff3702fc238da4,,,,,,,,,,,,,1,,,,,,,,,,,,,,,,,,,,,,,,,,,,,,,,,,,,,9,hacha,,,,,421.8659,423.0156,0,0,0.623,,0,33,33,8,1,REAL,FAKE,,,,,,,,,,,,,,,,,
,,,,,,,,,6629590de0554e4996934b9e,Mexican,13 or older,"no, only English or Spanish",no,2025-07-24_10h56.13.519,empathy_intonation_perc_control,2024.2.4,Win32,59.88023952,6629590de0554e4996934b9e,68817205a84113384fffdfe3,688248d100ff3702fc238da4,,,,,,,,,,,,,1,,,,,,,,,,,,,,,,,,,,,,,,,,,,,,,,,,,,,54,fomentar,,,,,423.0165,425.1827,0,0,1.6335,,0,34,34,53,1,REAL,FAKE,,,,,,,,,,,,,,,,,
,,,,,,,,,6629590de0554e4996934b9e,Mexican,13 or older,"no, only English or Spanish",no,2025-07-24_10h56.13.519,empathy_intonation_perc_control,2024.2.4,Win32,59.88023952,6629590de0554e4996934b9e,68817205a84113384fffdfe3,688248d100ff3702fc238da4,,,,,,,,,,,,,1,,,,,,,,,,,,,,,,,,,,,,,,,,,,,,,,,,,,,57,tacaño,,,,,425.1842,426.1999,0,0,0.4958,,0,35,35,56,1,REAL,FAKE,,,,,,,,,,,,,,,,,
,,,,,,,,,6629590de0554e4996934b9e,Mexican,13 or older,"no, only English or Spanish",no,2025-07-24_10h56.13.519,empathy_intonation_perc_control,2024.2.4,Win32,59.88023952,6629590de0554e4996934b9e,68817205a84113384fffdfe3,688248d100ff3702fc238da4,,,,,,,,,,,,,0,,,,,,,,,,,,,,,,,,,,,,,,,,,,,,,,,,,,,30,alardio,,,,,426.2007,427.2837,0,1,0.545,,0,36,36,29,1,REAL,FAKE,,,,,,,,,,,,,,,,,
,,,,,,,,,6629590de0554e4996934b9e,Mexican,13 or older,"no, only English or Spanish",no,2025-07-24_10h56.13.519,empathy_intonation_perc_control,2024.2.4,Win32,59.88023952,6629590de0554e4996934b9e,68817205a84113384fffdfe3,688248d100ff3702fc238da4,,,,,,,,,,,,,1,,,,,,,,,,,,,,,,,,,,,,,,,,,,,,,,,,,,,56,musgo,,,,,427.285,428.6507,0,0,0.8369,,0,37,37,55,1,REAL,FAKE,,,,,,,,,,,,,,,,,
,,,,,,,,,6629590de0554e4996934b9e,Mexican,13 or older,"no, only English or Spanish",no,2025-07-24_10h56.13.519,empathy_intonation_perc_control,2024.2.4,Win32,59.88023952,6629590de0554e4996934b9e,68817205a84113384fffdfe3,688248d100ff3702fc238da4,,,,,,,,,,,,,1,,,,,,,,,,,,,,,,,,,,,,,,,,,,,,,,,,,,,11,cenefa,,,,,428.6519,429.7176,0,0,0.5335,,0,38,38,10,1,REAL,FAKE,,,,,,,,,,,,,,,,,
,,,,,,,,,6629590de0554e4996934b9e,Mexican,13 or older,"no, only English or Spanish",no,2025-07-24_10h56.13.519,empathy_intonation_perc_control,2024.2.4,Win32,59.88023952,6629590de0554e4996934b9e,68817205a84113384fffdfe3,688248d100ff3702fc238da4,,,,,,,,,,,,,1,,,,,,,,,,,,,,,,,,,,,,,,,,,,,,,,,,,,,43,canela,,,,,429.7187,430.8017,0,0,0.5545,,0,39,39,42,1,REAL,FAKE,,,,,,,,,,,,,,,,,
,,,,,,,,,6629590de0554e4996934b9e,Mexican,13 or older,"no, only English or Spanish",no,2025-07-24_10h56.13.519,empathy_intonation_perc_control,2024.2.4,Win32,59.88023952,6629590de0554e4996934b9e,68817205a84113384fffdfe3,688248d100ff3702fc238da4,,,,,,,,,,,,,1,,,,,,,,,,,,,,,,,,,,,,,,,,,,,,,,,,,,,34,aviso,,,,,430.8026,432.002,0,0,0.6642,,0,40,40,33,1,REAL,FAKE,,,,,,,,,,,,,,,,,
,,,,,,,,,6629590de0554e4996934b9e,Mexican,13 or older,"no, only English or Spanish",no,2025-07-24_10h56.13.519,empathy_intonation_perc_control,2024.2.4,Win32,59.88023952,6629590de0554e4996934b9e,68817205a84113384fffdfe3,688248d100ff3702fc238da4,,,,,,,,,,,,,0,,,,,,,,,,,,,,,,,,,,,,,,,,,,,,,,,,,,,72,pemición,,,,,432.003,433.3193,0,1,0.7807,,0,41,41,71,1,REAL,FAKE,,,,,,,,,,,,,,,,,
,,,,,,,,,6629590de0554e4996934b9e,Mexican,13 or older,"no, only English or Spanish",no,2025-07-24_10h56.13.519,empathy_intonation_perc_control,2024.2.4,Win32,59.88023952,6629590de0554e4996934b9e,68817205a84113384fffdfe3,688248d100ff3702fc238da4,,,,,,,,,,,,,1,,,,,,,,,,,,,,,,,,,,,,,,,,,,,,,,,,,,,20,ávido,,,,,433.3203,435.0034,0,0,1.1536,,0,42,42,19,1,REAL,FAKE,,,,,,,,,,,,,,,,,
,,,,,,,,,6629590de0554e4996934b9e,Mexican,13 or older,"no, only English or Spanish",no,2025-07-24_10h56.13.519,empathy_intonation_perc_control,2024.2.4,Win32,59.88023952,6629590de0554e4996934b9e,68817205a84113384fffdfe3,688248d100ff3702fc238da4,,,,,,,,,,,,,1,,,,,,,,,,,,,,,,,,,,,,,,,,,,,,,,,,,,,89,prisa,,,,,435.0047,436.2206,0,0,0.6901,,0,43,43,88,1,REAL,FAKE,,,,,,,,,,,,,,,,,
,,,,,,,,,6629590de0554e4996934b9e,Mexican,13 or older,"no, only English or Spanish",no,2025-07-24_10h56.13.519,empathy_intonation_perc_control,2024.2.4,Win32,59.88023952,6629590de0554e4996934b9e,68817205a84113384fffdfe3,688248d100ff3702fc238da4,,,,,,,,,,,,,0,,,,,,,,,,,,,,,,,,,,,,,,,,,,,,,,,,,,,18,arsa,,,,,436.2223,437.4204,0,1,0.6642,,0,44,44,17,1,REAL,FAKE,,,,,,,,,,,,,,,,,
,,,,,,,,,6629590de0554e4996934b9e,Mexican,13 or older,"no, only English or Spanish",no,2025-07-24_10h56.13.519,empathy_intonation_perc_control,2024.2.4,Win32,59.88023952,6629590de0554e4996934b9e,68817205a84113384fffdfe3,688248d100ff3702fc238da4,,,,,,,,,,,,,0,,,,,,,,,,,,,,,,,,,,,,,,,,,,,,,,,,,,,19,brecedad,,,,,437.4214,438.6045,0,1,0.6517,,0,45,45,18,1,REAL,FAKE,,,,,,,,,,,,,,,,,
,,,,,,,,,6629590de0554e4996934b9e,Mexican,13 or older,"no, only English or Spanish",no,2025-07-24_10h56.13.519,empathy_intonation_perc_control,2024.2.4,Win32,59.88023952,6629590de0554e4996934b9e,68817205a84113384fffdfe3,688248d100ff3702fc238da4,,,,,,,,,,,,,1,,,,,,,,,,,,,,,,,,,,,,,,,,,,,,,,,,,,,51,candado,,,,,438.6057,439.9546,0,0,0.8187,,0,46,46,50,1,REAL,FAKE,,,,,,,,,,,,,,,,,
,,,,,,,,,6629590de0554e4996934b9e,Mexican,13 or older,"no, only English or Spanish",no,2025-07-24_10h56.13.519,empathy_intonation_perc_control,2024.2.4,Win32,59.88023952,6629590de0554e4996934b9e,68817205a84113384fffdfe3,688248d100ff3702fc238da4,,,,,,,,,,,,,0,,,,,,,,,,,,,,,,,,,,,,,,,,,,,,,,,,,,,47,cartinar,,,,,439.956,441.1386,0,1,0.6493,,0,47,47,46,1,REAL,FAKE,,,,,,,,,,,,,,,,,
,,,,,,,,,6629590de0554e4996934b9e,Mexican,13 or older,"no, only English or Spanish",no,2025-07-24_10h56.13.519,empathy_intonation_perc_control,2024.2.4,Win32,59.88023952,6629590de0554e4996934b9e,68817205a84113384fffdfe3,688248d100ff3702fc238da4,,,,,,,,,,,,,1,,,,,,,,,,,,,,,,,,,,,,,,,,,,,,,,,,,,,75,yacer,,,,,441.1397,442.3562,0,0,0.6794,,0,48,48,74,1,REAL,FAKE,,,,,,,,,,,,,,,,,
,,,,,,,,,6629590de0554e4996934b9e,Mexican,13 or older,"no, only English or Spanish",no,2025-07-24_10h56.13.519,empathy_intonation_perc_control,2024.2.4,Win32,59.88023952,6629590de0554e4996934b9e,68817205a84113384fffdfe3,688248d100ff3702fc238da4,,,,,,,,,,,,,1,,,,,,,,,,,,,,,,,,,,,,,,,,,,,,,,,,,,,81,pozo,,,,,442.3593,443.6727,0,0,0.7882,,0,49,49,80,1,REAL,FAKE,,,,,,,,,,,,,,,,,
,,,,,,,,,6629590de0554e4996934b9e,Mexican,13 or older,"no, only English or Spanish",no,2025-07-24_10h56.13.519,empathy_intonation_perc_control,2024.2.4,Win32,59.88023952,6629590de0554e4996934b9e,68817205a84113384fffdfe3,688248d100ff3702fc238da4,,,,,,,,,,,,,0,,,,,,,,,,,,,,,,,,,,,,,,,,,,,,,,,,,,,16,abracer,,,,,443.6735,445.0399,0,1,0.854,,0,50,50,15,1,REAL,FAKE,,,,,,,,,,,,,,,,,
,,,,,,,,,6629590de0554e4996934b9e,Mexican,13 or older,"no, only English or Spanish",no,2025-07-24_10h56.13.519,empathy_intonation_perc_control,2024.2.4,Win32,59.88023952,6629590de0554e4996934b9e,68817205a84113384fffdfe3,688248d100ff3702fc238da4,,,,,,,,,,,,,0,,,,,,,,,,,,,,,,,,,,,,,,,,,,,,,,,,,,,82,empirador,,,,,445.0406,446.9073,0,1,1.3511,,0,51,51,81,1,REAL,FAKE,,,,,,,,,,,,,,,,,
,,,,,,,,,6629590de0554e4996934b9e,Mexican,13 or older,"no, only English or Spanish",no,2025-07-24_10h56.13.519,empathy_intonation_perc_control,2024.2.4,Win32,59.88023952,6629590de0554e4996934b9e,68817205a84113384fffdfe3,688248d100ff3702fc238da4,,,,,,,,,,,,,1,,,,,,,,,,,,,,,,,,,,,,,,,,,,,,,,,,,,,3,pulmones,,,,,446.9084,448.1074,0,0,0.6683,,0,52,52,2,1,REAL,FAKE,,,,,,,,,,,,,,,,,
,,,,,,,,,6629590de0554e4996934b9e,Mexican,13 or older,"no, only English or Spanish",no,2025-07-24_10h56.13.519,empathy_intonation_perc_control,2024.2.4,Win32,59.88023952,6629590de0554e4996934b9e,68817205a84113384fffdfe3,688248d100ff3702fc238da4,,,,,,,,,,,,,1,,,,,,,,,,,,,,,,,,,,,,,,,,,,,,,,,,,,,37,granuja,,,,,448.1085,450.442,0,0,1.7968,,0,53,53,36,1,REAL,FAKE,,,,,,,,,,,,,,,,,
,,,,,,,,,6629590de0554e4996934b9e,Mexican,13 or older,"no, only English or Spanish",no,2025-07-24_10h56.13.519,empathy_intonation_perc_control,2024.2.4,Win32,59.88023952,6629590de0554e4996934b9e,68817205a84113384fffdfe3,688248d100ff3702fc238da4,,,,,,,,,,,,,1,,,,,,,,,,,,,,,,,,,,,,,,,,,,,,,,,,,,,65,bizcocho,,,,,450.4434,451.5919,0,0,0.6212,,0,54,54,64,1,REAL,FAKE,,,,,,,,,,,,,,,,,
,,,,,,,,,6629590de0554e4996934b9e,Mexican,13 or older,"no, only English or Spanish",no,2025-07-24_10h56.13.519,empathy_intonation_perc_control,2024.2.4,Win32,59.88023952,6629590de0554e4996934b9e,68817205a84113384fffdfe3,688248d100ff3702fc238da4,,,,,,,,,,,,,1,,,,,,,,,,,,,,,,,,,,,,,,,,,,,,,,,,,,,49,ganar,,,,,451.593,453.1093,0,0,0.9824,,0,55,55,48,1,REAL,FAKE,,,,,,,,,,,,,,,,,
,,,,,,,,,6629590de0554e4996934b9e,Mexican,13 or older,"no, only English or Spanish",no,2025-07-24_10h56.13.519,empathy_intonation_perc_control,2024.2.4,Win32,59.88023952,6629590de0554e4996934b9e,68817205a84113384fffdfe3,688248d100ff3702fc238da4,,,,,,,,,,,,,0,,,,,,,,,,,,,,,,,,,,,,,,,,,,,,,,,,,,,8,cadeña,,,,,453.1101,454.3097,0,1,0.666,,0,56,56,7,1,REAL,FAKE,,,,,,,,,,,,,,,,,
,,,,,,,,,6629590de0554e4996934b9e,Mexican,13 or older,"no, only English or Spanish",no,2025-07-24_10h56.13.519,empathy_intonation_perc_control,2024.2.4,Win32,59.88023952,6629590de0554e4996934b9e,68817205a84113384fffdfe3,688248d100ff3702fc238da4,,,,,,,,,,,,,1,,,,,,,,,,,,,,,,,,,,,,,,,,,,,,,,,,,,,78,frondoso,,,,,454.3111,456.1271,0,0,1.2813,,0,57,57,77,1,REAL,FAKE,,,,,,,,,,,,,,,,,
,,,,,,,,,6629590de0554e4996934b9e,Mexican,13 or older,"no, only English or Spanish",no,2025-07-24_10h56.13.519,empathy_intonation_perc_control,2024.2.4,Win32,59.88023952,6629590de0554e4996934b9e,68817205a84113384fffdfe3,688248d100ff3702fc238da4,,,,,,,,,,,,,1,,,,,,,,,,,,,,,,,,,,,,,,,,,,,,,,,,,,,85,laúd,,,,,456.1302,457.2776,0,0,0.616,,0,58,58,84,1,REAL,FAKE,,,,,,,,,,,,,,,,,
,,,,,,,,,6629590de0554e4996934b9e,Mexican,13 or older,"no, only English or Spanish",no,2025-07-24_10h56.13.519,empathy_intonation_perc_control,2024.2.4,Win32,59.88023952,6629590de0554e4996934b9e,68817205a84113384fffdfe3,688248d100ff3702fc238da4,,,,,,,,,,,,,0,,,,,,,,,,,,,,,,,,,,,,,,,,,,,,,,,,,,,92,click the 0 key.,,,,,457.2795,459.1613,0,1,1.3482,,0,59,59,91,1,REAL,FAKE,,,,,,,,,,,,,,,,,
,,,,,,,,,6629590de0554e4996934b9e,Mexican,13 or older,"no, only English or Spanish",no,2025-07-24_10h56.13.519,empathy_intonation_perc_control,2024.2.4,Win32,59.88023952,6629590de0554e4996934b9e,68817205a84113384fffdfe3,688248d100ff3702fc238da4,,,,,,,,,,,,,1,,,,,,,,,,,,,,,,,,,,,,,,,,,,,,,,,,,,,31,pandilla,,,,,459.1622,460.6119,0,0,0.9178,,0,60,60,30,1,REAL,FAKE,,,,,,,,,,,,,,,,,
,,,,,,,,,6629590de0554e4996934b9e,Mexican,13 or older,"no, only English or Spanish",no,2025-07-24_10h56.13.519,empathy_intonation_perc_control,2024.2.4,Win32,59.88023952,6629590de0554e4996934b9e,68817205a84113384fffdfe3,688248d100ff3702fc238da4,,,,,,,,,,,,,1,,,,,,,,,,,,,,,,,,,,,,,,,,,,,,,,,,,,,83,guante,,,,,460.6129,462.6457,0,0,1.5069,,0,61,61,82,1,REAL,FAKE,,,,,,,,,,,,,,,,,
,,,,,,,,,6629590de0554e4996934b9e,Mexican,13 or older,"no, only English or Spanish",no,2025-07-24_10h56.13.519,empathy_intonation_perc_control,2024.2.4,Win32,59.88023952,6629590de0554e4996934b9e,68817205a84113384fffdfe3,688248d100ff3702fc238da4,,,,,,,,,,,,,0,,,,,,,,,,,,,,,,,,,,,,,,,,,,,,,,,,,,,23,lampera,,,,,462.6469,463.763,0,1,0.5866,,0,62,62,22,1,REAL,FAKE,,,,,,,,,,,,,,,,,
,,,,,,,,,6629590de0554e4996934b9e,Mexican,13 or older,"no, only English or Spanish",no,2025-07-24_10h56.13.519,empathy_intonation_perc_control,2024.2.4,Win32,59.88023952,6629590de0554e4996934b9e,68817205a84113384fffdfe3,688248d100ff3702fc238da4,,,,,,,,,,,,,1,,,,,,,,,,,,,,,,,,,,,,,,,,,,,,,,,,,,,60,matar,,,,,463.7638,464.8298,0,0,0.5389,,0,63,63,59,1,REAL,FAKE,,,,,,,,,,,,,,,,,
,,,,,,,,,6629590de0554e4996934b9e,Mexican,13 or older,"no, only English or Spanish",no,2025-07-24_10h56.13.519,empathy_intonation_perc_control,2024.2.4,Win32,59.88023952,6629590de0554e4996934b9e,68817205a84113384fffdfe3,688248d100ff3702fc238da4,,,,,,,,,,,,,1,,,,,,,,,,,,,,,,,,,,,,,,,,,,,,,,,,,,,67,cabello,,,,,464.8305,466.0637,0,0,0.7227,,0,64,64,66,1,REAL,FAKE,,,,,,,,,,,,,,,,,
,,,,,,,,,6629590de0554e4996934b9e,Mexican,13 or older,"no, only English or Spanish",no,2025-07-24_10h56.13.519,empathy_intonation_perc_control,2024.2.4,Win32,59.88023952,6629590de0554e4996934b9e,68817205a84113384fffdfe3,688248d100ff3702fc238da4,,,,,,,,,,,,,1,,,,,,,,,,,,,,,,,,,,,,,,,,,,,,,,,,,,,52,camisa,,,,,466.0648,467.4311,0,0,0.8484,,0,65,65,51,1,REAL,FAKE,,,,,,,,,,,,,,,,,
,,,,,,,,,6629590de0554e4996934b9e,Mexican,13 or older,"no, only English or Spanish",no,2025-07-24_10h56.13.519,empathy_intonation_perc_control,2024.2.4,Win32,59.88023952,6629590de0554e4996934b9e,68817205a84113384fffdfe3,688248d100ff3702fc238da4,,,,,,,,,,,,,1,,,,,,,,,,,,,,,,,,,,,,,,,,,,,,,,,,,,,5,zapato,,,,,467.432,469.8483,1,1,1.8894,,0,66,66,4,1,REAL,FAKE,,,,,,,,,,,,,,,,,
,,,,,,,,,6629590de0554e4996934b9e,Mexican,13 or older,"no, only English or Spanish",no,2025-07-24_10h56.13.519,empathy_intonation_perc_control,2024.2.4,Win32,59.88023952,6629590de0554e4996934b9e,68817205a84113384fffdfe3,688248d100ff3702fc238da4,,,,,,,,,,,,,1,,,,,,,,,,,,,,,,,,,,,,,,,,,,,,,,,,,,,62,flaco,,,,,469.8493,471.0154,0,0,0.6384,,0,67,67,61,1,REAL,FAKE,,,,,,,,,,,,,,,,,
,,,,,,,,,6629590de0554e4996934b9e,Mexican,13 or older,"no, only English or Spanish",no,2025-07-24_10h56.13.519,empathy_intonation_perc_control,2024.2.4,Win32,59.88023952,6629590de0554e4996934b9e,68817205a84113384fffdfe3,688248d100ff3702fc238da4,,,,,,,,,,,,,0,,,,,,,,,,,,,,,,,,,,,,,,,,,,,,,,,,,,,33,pauca,,,,,471.0164,472.1993,0,1,0.6499,,0,68,68,32,1,REAL,FAKE,,,,,,,,,,,,,,,,,
,,,,,,,,,6629590de0554e4996934b9e,Mexican,13 or older,"no, only English or Spanish",no,2025-07-24_10h56.13.519,empathy_intonation_perc_control,2024.2.4,Win32,59.88023952,6629590de0554e4996934b9e,68817205a84113384fffdfe3,688248d100ff3702fc238da4,,,,,,,,,,,,,1,,,,,,,,,,,,,,,,,,,,,,,,,,,,,,,,,,,,,77,tiburón,,,,,472.2005,473.5161,0,0,0.7812,,0,69,69,76,1,REAL,FAKE,,,,,,,,,,,,,,,,,
,,,,,,,,,6629590de0554e4996934b9e,Mexican,13 or older,"no, only English or Spanish",no,2025-07-24_10h56.13.519,empathy_intonation_perc_control,2024.2.4,Win32,59.88023952,6629590de0554e4996934b9e,68817205a84113384fffdfe3,688248d100ff3702fc238da4,,,,,,,,,,,,,1,,,,,,,,,,,,,,,,,,,,,,,,,,,,,,,,,,,,,76,atar,,,,,473.5168,474.7999,0,0,0.77,,0,70,70,75,1,REAL,FAKE,,,,,,,,,,,,,,,,,
,,,,,,,,,6629590de0554e4996934b9e,Mexican,13 or older,"no, only English or Spanish",no,2025-07-24_10h56.13.519,empathy_intonation_perc_control,2024.2.4,Win32,59.88023952,6629590de0554e4996934b9e,68817205a84113384fffdfe3,688248d100ff3702fc238da4,,,,,,,,,,,,,0,,,,,,,,,,,,,,,,,,,,,,,,,,,,,,,,,,,,,50,flamida,,,,,474.8008,476.5009,0,1,1.1849,,0,71,71,49,1,REAL,FAKE,,,,,,,,,,,,,,,,,
,,,,,,,,,6629590de0554e4996934b9e,Mexican,13 or older,"no, only English or Spanish",no,2025-07-24_10h56.13.519,empathy_intonation_perc_control,2024.2.4,Win32,59.88023952,6629590de0554e4996934b9e,68817205a84113384fffdfe3,688248d100ff3702fc238da4,,,,,,,,,,,,,0,,,,,,,,,,,,,,,,,,,,,,,,,,,,,,,,,,,,,79,tropaje,,,,,476.5021,478.9347,0,1,1.9048,,0,72,72,78,1,REAL,FAKE,,,,,,,,,,,,,,,,,
,,,,,,,,,6629590de0554e4996934b9e,Mexican,13 or older,"no, only English or Spanish",no,2025-07-24_10h56.13.519,empathy_intonation_perc_control,2024.2.4,Win32,59.88023952,6629590de0554e4996934b9e,68817205a84113384fffdfe3,688248d100ff3702fc238da4,,,,,,,,,,,,,1,,,,,,,,,,,,,,,,,,,,,,,,,,,,,,,,,,,,,69,engatusar,,,,,478.936,481.9527,0,0,2.4794,,0,73,73,68,1,REAL,FAKE,,,,,,,,,,,,,,,,,
,,,,,,,,,6629590de0554e4996934b9e,Mexican,13 or older,"no, only English or Spanish",no,2025-07-24_10h56.13.519,empathy_intonation_perc_control,2024.2.4,Win32,59.88023952,6629590de0554e4996934b9e,68817205a84113384fffdfe3,688248d100ff3702fc238da4,,,,,,,,,,,,,0,,,,,,,,,,,,,,,,,,,,,,,,,,,,,,,,,,,,,63,esposante,,,,,481.9538,484.3702,0,1,1.8836,,0,74,74,62,1,REAL,FAKE,,,,,,,,,,,,,,,,,
,,,,,,,,,6629590de0554e4996934b9e,Mexican,13 or older,"no, only English or Spanish",no,2025-07-24_10h56.13.519,empathy_intonation_perc_control,2024.2.4,Win32,59.88023952,6629590de0554e4996934b9e,68817205a84113384fffdfe3,688248d100ff3702fc238da4,,,,,,,,,,,,,0,,,,,,,,,,,,,,,,,,,,,,,,,,,,,,,,,,,,,29,decar,,,,,484.3713,485.6202,0,1,0.7158,,0,75,75,28,1,REAL,FAKE,,,,,,,,,,,,,,,,,
,,,,,,,,,6629590de0554e4996934b9e,Mexican,13 or older,"no, only English or Spanish",no,2025-07-24_10h56.13.519,empathy_intonation_perc_control,2024.2.4,Win32,59.88023952,6629590de0554e4996934b9e,68817205a84113384fffdfe3,688248d100ff3702fc238da4,,,,,,,,,,,,,1,,,,,,,,,,,,,,,,,,,,,,,,,,,,,,,,,,,,,91,click the 1 key.,,,,,485.6214,487.321,1,1,1.1716,,0,76,76,90,1,REAL,FAKE,,,,,,,,,,,,,,,,,
,,,,,,,,,6629590de0554e4996934b9e,Mexican,13 or older,"no, only English or Spanish",no,2025-07-24_10h56.13.519,empathy_intonation_perc_control,2024.2.4,Win32,59.88023952,6629590de0554e4996934b9e,68817205a84113384fffdfe3,688248d100ff3702fc238da4,,,,,,,,,,,,,0,,,,,,,,,,,,,,,,,,,,,,,,,,,,,,,,,,,,,10,antar,,,,,487.3224,488.6381,0,1,0.7915,,0,77,77,9,1,REAL,FAKE,,,,,,,,,,,,,,,,,
,,,,,,,,,6629590de0554e4996934b9e,Mexican,13 or older,"no, only English or Spanish",no,2025-07-24_10h56.13.519,empathy_intonation_perc_control,2024.2.4,Win32,59.88023952,6629590de0554e4996934b9e,68817205a84113384fffdfe3,688248d100ff3702fc238da4,,,,,,,,,,,,,0,,,,,,,,,,,,,,,,,,,,,,,,,,,,,,,,,,,,,17,floroso,,,,,488.6392,490.3053,0,1,1.1297,,0,78,78,16,1,REAL,FAKE,,,,,,,,,,,,,,,,,
,,,,,,,,,6629590de0554e4996934b9e,Mexican,13 or older,"no, only English or Spanish",no,2025-07-24_10h56.13.519,empathy_intonation_perc_control,2024.2.4,Win32,59.88023952,6629590de0554e4996934b9e,68817205a84113384fffdfe3,688248d100ff3702fc238da4,,,,,,,,,,,,,1,,,,,,,,,,,,,,,,,,,,,,,,,,,,,,,,,,,,,45,jilguero,,,,,490.3061,491.7393,0,0,0.8978,,0,79,79,44,1,REAL,FAKE,,,,,,,,,,,,,,,,,
,,,,,,,,,6629590de0554e4996934b9e,Mexican,13 or older,"no, only English or Spanish",no,2025-07-24_10h56.13.519,empathy_intonation_perc_control,2024.2.4,Win32,59.88023952,6629590de0554e4996934b9e,68817205a84113384fffdfe3,688248d100ff3702fc238da4,,,,,,,,,,,,,1,,,,,,,,,,,,,,,,,,,,,,,,,,,,,,,,,,,,,55,nevar,,,,,491.7402,493.04,0,0,0.7638,,0,80,80,54,1,REAL,FAKE,,,,,,,,,,,,,,,,,
,,,,,,,,,6629590de0554e4996934b9e,Mexican,13 or older,"no, only English or Spanish",no,2025-07-24_10h56.13.519,empathy_intonation_perc_control,2024.2.4,Win32,59.88023952,6629590de0554e4996934b9e,68817205a84113384fffdfe3,688248d100ff3702fc238da4,,,,,,,,,,,,,1,,,,,,,,,,,,,,,,,,,,,,,,,,,,,,,,,,,,,73,hervidor,,,,,493.0413,494.3404,0,0,0.7673,,0,81,81,72,1,REAL,FAKE,,,,,,,,,,,,,,,,,
,,,,,,,,,6629590de0554e4996934b9e,Mexican,13 or older,"no, only English or Spanish",no,2025-07-24_10h56.13.519,empathy_intonation_perc_control,2024.2.4,Win32,59.88023952,6629590de0554e4996934b9e,68817205a84113384fffdfe3,688248d100ff3702fc238da4,,,,,,,,,,,,,1,,,,,,,,,,,,,,,,,,,,,,,,,,,,,,,,,,,,,7,pésimo,,,,,494.3416,496.124,0,0,1.2505,,0,82,82,6,1,REAL,FAKE,,,,,,,,,,,,,,,,,
,,,,,,,,,6629590de0554e4996934b9e,Mexican,13 or older,"no, only English or Spanish",no,2025-07-24_10h56.13.519,empathy_intonation_perc_control,2024.2.4,Win32,59.88023952,6629590de0554e4996934b9e,68817205a84113384fffdfe3,688248d100ff3702fc238da4,,,,,,,,,,,,,0,,,,,,,,,,,,,,,,,,,,,,,,,,,,,,,,,,,,,1,terzo,,,,,496.1253,498.2915,0,1,1.635,,0,83,83,0,1,REAL,FAKE,,,,,,,,,,,,,,,,,
,,,,,,,,,6629590de0554e4996934b9e,Mexican,13 or older,"no, only English or Spanish",no,2025-07-24_10h56.13.519,empathy_intonation_perc_control,2024.2.4,Win32,59.88023952,6629590de0554e4996934b9e,68817205a84113384fffdfe3,688248d100ff3702fc238da4,,,,,,,,,,,,,1,,,,,,,,,,,,,,,,,,,,,,,,,,,,,,,,,,,,,86,barato,,,,,498.2927,499.8588,0,0,1.0301,,0,84,84,85,1,REAL,FAKE,,,,,,,,,,,,,,,,,
,,,,,,,,,6629590de0554e4996934b9e,Mexican,13 or older,"no, only English or Spanish",no,2025-07-24_10h56.13.519,empathy_intonation_perc_control,2024.2.4,Win32,59.88023952,6629590de0554e4996934b9e,68817205a84113384fffdfe3,688248d100ff3702fc238da4,,,,,,,,,,,,,1,,,,,,,,,,,,,,,,,,,,,,,,,,,,,,,,,,,,,61,seda,,,,,499.8601,501.9427,0,0,1.5566,,0,85,85,60,1,REAL,FAKE,,,,,,,,,,,,,,,,,
,,,,,,,,,6629590de0554e4996934b9e,Mexican,13 or older,"no, only English or Spanish",no,2025-07-24_10h56.13.519,empathy_intonation_perc_control,2024.2.4,Win32,59.88023952,6629590de0554e4996934b9e,68817205a84113384fffdfe3,688248d100ff3702fc238da4,,,,,,,,,,,,,1,,,,,,,,,,,,,,,,,,,,,,,,,,,,,,,,,,,,,2,pellizcar,,,,,501.9441,503.3765,0,0,0.9041,,0,86,86,1,1,REAL,FAKE,,,,,,,,,,,,,,,,,
,,,,,,,,,6629590de0554e4996934b9e,Mexican,13 or older,"no, only English or Spanish",no,2025-07-24_10h56.13.519,empathy_intonation_perc_control,2024.2.4,Win32,59.88023952,6629590de0554e4996934b9e,68817205a84113384fffdfe3,688248d100ff3702fc238da4,,,,,,,,,,,,,1,,,,,,,,,,,,,,,,,,,,,,,,,,,,,,,,,,,,,80,hormiga,,,,,503.3773,504.5935,0,0,0.6827,,0,87,87,79,1,REAL,FAKE,,,,,,,,,,,,,,,,,
,,,,,,,,,6629590de0554e4996934b9e,Mexican,13 or older,"no, only English or Spanish",no,2025-07-24_10h56.13.519,empathy_intonation_perc_control,2024.2.4,Win32,59.88023952,6629590de0554e4996934b9e,68817205a84113384fffdfe3,688248d100ff3702fc238da4,,,,,,,,,,,,,0,,,,,,,,,,,,,,,,,,,,,,,,,,,,,,,,,,,,,74,cintro,,,,,504.5945,505.7941,0,1,0.6701,,0,88,88,73,1,REAL,FAKE,,,,,,,,,,,,,,,,,
,,,,,,,,,6629590de0554e4996934b9e,Mexican,13 or older,"no, only English or Spanish",no,2025-07-24_10h56.13.519,empathy_intonation_perc_control,2024.2.4,Win32,59.88023952,6629590de0554e4996934b9e,68817205a84113384fffdfe3,688248d100ff3702fc238da4,,,,,,,,,,,,,1,,,,,,,,,,,,,,,,,,,,,,,,,,,,,,,,,,,,,28,merodear,,,,,505.7952,506.9112,0,0,0.5903,,0,89,89,27,1,REAL,FAKE,,,,,,,,,,,,,,,,,
,,,,,,,,,6629590de0554e4996934b9e,Mexican,13 or older,"no, only English or Spanish",no,2025-07-24_10h56.13.519,empathy_intonation_perc_control,2024.2.4,Win32,59.88023952,6629590de0554e4996934b9e,68817205a84113384fffdfe3,688248d100ff3702fc238da4,,,,,,,,,,,,,1,,,,,,,,,,,,,,,,,,,,,,,,,,,,,,,,,,,,,59,besar,,,,,506.9126,507.9613,0,0,0.5221,,0,90,90,58,1,REAL,FAKE,,,,,,,,,,,,,,,,,
,,,,,,,,,6629590de0554e4996934b9e,Mexican,13 or older,"no, only English or Spanish",no,2025-07-24_10h56.13.519,empathy_intonation_perc_control,2024.2.4,Win32,59.88023952,6629590de0554e4996934b9e,68817205a84113384fffdfe3,688248d100ff3702fc238da4,,,,,,,,,,,,,1,,,,,,,,,,,,,,,,,,,,,,,,,,,,,,,,,,,,,41,rebuscar,,,,,507.9623,508.9783,0,0,0.481,,0,91,91,40,1,REAL,FAKE,,,,,,,,,,,,,,,,,
,,,,,,,,,6629590de0554e4996934b9e,Mexican,13 or older,"no, only English or Spanish",no,2025-07-24_10h56.13.519,empathy_intonation_perc_control,2024.2.4,Win32,59.88023952,6629590de0554e4996934b9e,68817205a84113384fffdfe3,688248d100ff3702fc238da4,,,,,,,,,,,,,,,,,,,,,,,,,,,,,,,,,,,,,,,,,,,,,,,,,,,,,,,,,,,,,,,,,,,,,508.9789,527.0352,,,,,,,,,,,,,,,
,,,,,,,,,6629590de0554e4996934b9e,Mexican,13 or older,"no, only English or Spanish",no,2025-07-24_10h56.13.519,empathy_intonation_perc_control,2024.2.4,Win32,59.88023952,6629590de0554e4996934b9e,68817205a84113384fffdfe3,688248d100ff3702fc238da4,,,,,,,,,,,,,,,,,,,,,,,,,,,1,,,,,,,,,,,,,,,,,,,,,,,,,,,,,,,,,,,,,,,,,,,,527.0451,533.2869,slightly agree,0,0,0,0,1,I can easily tell if someone else wants to enter a conversation.,1,0,1,0,,
,,,,,,,,,6629590de0554e4996934b9e,Mexican,13 or older,"no, only English or Spanish",no,2025-07-24_10h56.13.519,empathy_intonation_perc_control,2024.2.4,Win32,59.88023952,6629590de0554e4996934b9e,68817205a84113384fffdfe3,688248d100ff3702fc238da4,,,,,,,,,,,,,,,,,,,,,,,,,,,2,,,,,,,,,,,,,,,,,,,,,,,,,,,,,,,,,,,,,,,,,,,,533.2891,535.8045,slightly agree,0,1,1,1,1,I prefer animals to humans.,0,1,0,0,,
,,,,,,,,,6629590de0554e4996934b9e,Mexican,13 or older,"no, only English or Spanish",no,2025-07-24_10h56.13.519,empathy_intonation_perc_control,2024.2.4,Win32,59.88023952,6629590de0554e4996934b9e,68817205a84113384fffdfe3,688248d100ff3702fc238da4,,,,,,,,,,,,,,,,,,,,,,,,,,,3,,,,,,,,,,,,,,,,,,,,,,,,,,,,,,,,,,,,,,,,,,,,535.8063,539.0388,slightly disagree,0,2,2,2,1,I try to keep up with the current trends and fashions.,0,1,0,0,,
,,,,,,,,,6629590de0554e4996934b9e,Mexican,13 or older,"no, only English or Spanish",no,2025-07-24_10h56.13.519,empathy_intonation_perc_control,2024.2.4,Win32,59.88023952,6629590de0554e4996934b9e,68817205a84113384fffdfe3,688248d100ff3702fc238da4,,,,,,,,,,,,,,,,,,,,,,,,,,,4,,,,,,,,,,,,,,,,,,,,,,,,,,,,,,,,,,,,,,,,,,,,539.0406,548.2421,slightly agree,0,3,3,3,1,"I find it difficult to explain to others things that I understand easily,   when they don't understand it first time.",1,0,0,1,,
,,,,,,,,,6629590de0554e4996934b9e,Mexican,13 or older,"no, only English or Spanish",no,2025-07-24_10h56.13.519,empathy_intonation_perc_control,2024.2.4,Win32,59.88023952,6629590de0554e4996934b9e,68817205a84113384fffdfe3,688248d100ff3702fc238da4,,,,,,,,,,,,,,,,,,,,,,,,,,,5,,,,,,,,,,,,,,,,,,,,,,,,,,,,,,,,,,,,,,,,,,,,548.2434,549.8426,slightly agree,0,4,4,4,1,I dream most nights.,0,1,0,0,,
,,,,,,,,,6629590de0554e4996934b9e,Mexican,13 or older,"no, only English or Spanish",no,2025-07-24_10h56.13.519,empathy_intonation_perc_control,2024.2.4,Win32,59.88023952,6629590de0554e4996934b9e,68817205a84113384fffdfe3,688248d100ff3702fc238da4,,,,,,,,,,,,,,,,,,,,,,,,,,,6,,,,,,,,,,,,,,,,,,,,,,,,,,,,,,,,,,,,,,,,,,,,549.8443,553.7603,slightly agree,0,5,5,5,1,I really enjoy caring for other people.,1,0,1,0,,
,,,,,,,,,6629590de0554e4996934b9e,Mexican,13 or older,"no, only English or Spanish",no,2025-07-24_10h56.13.519,empathy_intonation_perc_control,2024.2.4,Win32,59.88023952,6629590de0554e4996934b9e,68817205a84113384fffdfe3,688248d100ff3702fc238da4,,,,,,,,,,,,,,,,,,,,,,,,,,,7,,,,,,,,,,,,,,,,,,,,,,,,,,,,,,,,,,,,,,,,,,,,553.7617,556.6116,strongly agree,0,6,6,6,1,I try to solve my own problems rather than discussing them with others.,0,1,0,0,,
,,,,,,,,,6629590de0554e4996934b9e,Mexican,13 or older,"no, only English or Spanish",no,2025-07-24_10h56.13.519,empathy_intonation_perc_control,2024.2.4,Win32,59.88023952,6629590de0554e4996934b9e,68817205a84113384fffdfe3,688248d100ff3702fc238da4,,,,,,,,,,,,,,,,,,,,,,,,,,,8,,,,,,,,,,,,,,,,,,,,,,,,,,,,,,,,,,,,,,,,,,,,556.6129,561.23,slightly agree,0,7,7,7,1,I find it hard to know what to do in a social situation.,1,0,0,1,,
,,,,,,,,,6629590de0554e4996934b9e,Mexican,13 or older,"no, only English or Spanish",no,2025-07-24_10h56.13.519,empathy_intonation_perc_control,2024.2.4,Win32,59.88023952,6629590de0554e4996934b9e,68817205a84113384fffdfe3,688248d100ff3702fc238da4,,,,,,,,,,,,,,,,,,,,,,,,,,,9,,,,,,,,,,,,,,,,,,,,,,,,,,,,,,,,,,,,,,,,,,,,561.2315,565.4146,slightly agree,0,8,8,8,1,I am at my best first thing in the morning.,0,1,0,0,,
,,,,,,,,,6629590de0554e4996934b9e,Mexican,13 or older,"no, only English or Spanish",no,2025-07-24_10h56.13.519,empathy_intonation_perc_control,2024.2.4,Win32,59.88023952,6629590de0554e4996934b9e,68817205a84113384fffdfe3,688248d100ff3702fc238da4,,,,,,,,,,,,,,,,,,,,,,,,,,,10,,,,,,,,,,,,,,,,,,,,,,,,,,,,,,,,,,,,,,,,,,,,565.4165,569.8325,strongly disagree,0,9,9,9,1,People often tell me that I went too far in driving my point home in a discussion.,1,0,0,1,,
,,,,,,,,,6629590de0554e4996934b9e,Mexican,13 or older,"no, only English or Spanish",no,2025-07-24_10h56.13.519,empathy_intonation_perc_control,2024.2.4,Win32,59.88023952,6629590de0554e4996934b9e,68817205a84113384fffdfe3,688248d100ff3702fc238da4,,,,,,,,,,,,,,,,,,,,,,,,,,,11,,,,,,,,,,,,,,,,,,,,,,,,,,,,,,,,,,,,,,,,,,,,569.8338,575.6015,slightly disagree,0,10,10,10,1,It doesn't bother me too much if I am late meeting a friend.,1,0,0,1,,
,,,,,,,,,6629590de0554e4996934b9e,Mexican,13 or older,"no, only English or Spanish",no,2025-07-24_10h56.13.519,empathy_intonation_perc_control,2024.2.4,Win32,59.88023952,6629590de0554e4996934b9e,68817205a84113384fffdfe3,688248d100ff3702fc238da4,,,,,,,,,,,,,,,,,,,,,,,,,,,12,,,,,,,,,,,,,,,,,,,,,,,,,,,,,,,,,,,,,,,,,,,,575.6032,579.1693,slightly agree,0,11,11,11,1,"Friendships and relationships are just too difficult, so I tend not to 
  bother with them.",1,0,0,1,,
,,,,,,,,,6629590de0554e4996934b9e,Mexican,13 or older,"no, only English or Spanish",no,2025-07-24_10h56.13.519,empathy_intonation_perc_control,2024.2.4,Win32,59.88023952,6629590de0554e4996934b9e,68817205a84113384fffdfe3,688248d100ff3702fc238da4,,,,,,,,,,,,,,,,,,,,,,,,,,,13,,,,,,,,,,,,,,,,,,,,,,,,,,,,,,,,,,,,,,,,,,,,579.1706,585.4549,slightly agree,0,12,12,12,1,"I would never break a law, no matter how minor.",0,1,0,0,,
,,,,,,,,,6629590de0554e4996934b9e,Mexican,13 or older,"no, only English or Spanish",no,2025-07-24_10h56.13.519,empathy_intonation_perc_control,2024.2.4,Win32,59.88023952,6629590de0554e4996934b9e,68817205a84113384fffdfe3,688248d100ff3702fc238da4,,,,,,,,,,,,,,,,,,,,,,,,,,,14,,,,,,,,,,,,,,,,,,,,,,,,,,,,,,,,,,,,,,,,,,,,585.4578,588.3562,slightly disagree,0,13,13,13,1,I often find it difficult to judge if something is rude or polite.,1,0,0,1,,
,,,,,,,,,6629590de0554e4996934b9e,Mexican,13 or older,"no, only English or Spanish",no,2025-07-24_10h56.13.519,empathy_intonation_perc_control,2024.2.4,Win32,59.88023952,6629590de0554e4996934b9e,68817205a84113384fffdfe3,688248d100ff3702fc238da4,,,,,,,,,,,,,,,,,,,,,,,,,,,15,,,,,,,,,,,,,,,,,,,,,,,,,,,,,,,,,,,,,,,,,,,,588.359,595.1913,slightly agree,0,14,14,14,1,"In a conversation, I tend to focus on my own thoughts rather than on what 
  my listener might be thinking.",1,0,0,1,,
,,,,,,,,,6629590de0554e4996934b9e,Mexican,13 or older,"no, only English or Spanish",no,2025-07-24_10h56.13.519,empathy_intonation_perc_control,2024.2.4,Win32,59.88023952,6629590de0554e4996934b9e,68817205a84113384fffdfe3,688248d100ff3702fc238da4,,,,,,,,,,,,,,,,,,,,,,,,,,,16,,,,,,,,,,,,,,,,,,,,,,,,,,,,,,,,,,,,,,,,,,,,595.1932,601.0768,slightly disagree,0,15,15,15,1,I prefer practical jokes to verbal humor.,0,1,0,0,,
,,,,,,,,,6629590de0554e4996934b9e,Mexican,13 or older,"no, only English or Spanish",no,2025-07-24_10h56.13.519,empathy_intonation_perc_control,2024.2.4,Win32,59.88023952,6629590de0554e4996934b9e,68817205a84113384fffdfe3,688248d100ff3702fc238da4,,,,,,,,,,,,,,,,,,,,,,,,,,,17,,,,,,,,,,,,,,,,,,,,,,,,,,,,,,,,,,,,,,,,,,,,601.0785,604.1446,slightly disagree,0,16,16,16,1,I live life for today rather than the future.,0,1,0,0,,
,,,,,,,,,6629590de0554e4996934b9e,Mexican,13 or older,"no, only English or Spanish",no,2025-07-24_10h56.13.519,empathy_intonation_perc_control,2024.2.4,Win32,59.88023952,6629590de0554e4996934b9e,68817205a84113384fffdfe3,688248d100ff3702fc238da4,,,,,,,,,,,,,,,,,,,,,,,,,,,18,,,,,,,,,,,,,,,,,,,,,,,,,,,,,,,,,,,,,,,,,,,,604.1466,607.5457,strongly disagree,0,17,17,17,1,"When I was a child, I enjoyed cutting up worms to see what would happen.",1,0,0,1,,
,,,,,,,,,6629590de0554e4996934b9e,Mexican,13 or older,"no, only English or Spanish",no,2025-07-24_10h56.13.519,empathy_intonation_perc_control,2024.2.4,Win32,59.88023952,6629590de0554e4996934b9e,68817205a84113384fffdfe3,688248d100ff3702fc238da4,,,,,,,,,,,,,,,,,,,,,,,,,,,19,,,,,,,,,,,,,,,,,,,,,,,,,,,,,,,,,,,,,,,,,,,,607.5475,614.1478,slightly agree,0,18,18,18,1,I can pick up quickly if someone says one thing but means another.,1,0,1,0,,
,,,,,,,,,6629590de0554e4996934b9e,Mexican,13 or older,"no, only English or Spanish",no,2025-07-24_10h56.13.519,empathy_intonation_perc_control,2024.2.4,Win32,59.88023952,6629590de0554e4996934b9e,68817205a84113384fffdfe3,688248d100ff3702fc238da4,,,,,,,,,,,,,,,,,,,,,,,,,,,20,,,,,,,,,,,,,,,,,,,,,,,,,,,,,,,,,,,,,,,,,,,,614.1491,617.149,slightly disagree,0,19,19,19,1,I tend to have very strong opinions about morality.,0,1,0,0,,
,,,,,,,,,6629590de0554e4996934b9e,Mexican,13 or older,"no, only English or Spanish",no,2025-07-24_10h56.13.519,empathy_intonation_perc_control,2024.2.4,Win32,59.88023952,6629590de0554e4996934b9e,68817205a84113384fffdfe3,688248d100ff3702fc238da4,,,,,,,,,,,,,,,,,,,,,,,,,,,21,,,,,,,,,,,,,,,,,,,,,,,,,,,,,,,,,,,,,,,,,,,,617.1503,623.0844,slightly disagree,0,20,20,20,1,It is hard for me to see why some things upset people so much.,1,0,0,1,,
,,,,,,,,,6629590de0554e4996934b9e,Mexican,13 or older,"no, only English or Spanish",no,2025-07-24_10h56.13.519,empathy_intonation_perc_control,2024.2.4,Win32,59.88023952,6629590de0554e4996934b9e,68817205a84113384fffdfe3,688248d100ff3702fc238da4,,,,,,,,,,,,,,,,,,,,,,,,,,,22,,,,,,,,,,,,,,,,,,,,,,,,,,,,,,,,,,,,,,,,,,,,623.0862,625.4019,slightly agree,0,21,21,21,1,I find it easy to put myself in somebody else's shoes.,1,0,1,0,,
,,,,,,,,,6629590de0554e4996934b9e,Mexican,13 or older,"no, only English or Spanish",no,2025-07-24_10h56.13.519,empathy_intonation_perc_control,2024.2.4,Win32,59.88023952,6629590de0554e4996934b9e,68817205a84113384fffdfe3,688248d100ff3702fc238da4,,,,,,,,,,,,,,,,,,,,,,,,,,,23,,,,,,,,,,,,,,,,,,,,,,,,,,,,,,,,,,,,,,,,,,,,625.4034,631.2536,slightly disagree,0,22,22,22,1,I think that good manners are the most important thing a parent can teach their child.,0,1,0,0,,
,,,,,,,,,6629590de0554e4996934b9e,Mexican,13 or older,"no, only English or Spanish",no,2025-07-24_10h56.13.519,empathy_intonation_perc_control,2024.2.4,Win32,59.88023952,6629590de0554e4996934b9e,68817205a84113384fffdfe3,688248d100ff3702fc238da4,,,,,,,,,,,,,,,,,,,,,,,,,,,24,,,,,,,,,,,,,,,,,,,,,,,,,,,,,,,,,,,,,,,,,,,,631.255,635.0889,slightly disagree,0,23,23,23,1,I like to do things on the spur of the moment.,0,1,0,0,,
,,,,,,,,,6629590de0554e4996934b9e,Mexican,13 or older,"no, only English or Spanish",no,2025-07-24_10h56.13.519,empathy_intonation_perc_control,2024.2.4,Win32,59.88023952,6629590de0554e4996934b9e,68817205a84113384fffdfe3,688248d100ff3702fc238da4,,,,,,,,,,,,,,,,,,,,,,,,,,,25,,,,,,,,,,,,,,,,,,,,,,,,,,,,,,,,,,,,,,,,,,,,635.091,639.7066,slightly disagree,0,24,24,24,1,I am good at predicting how someone will feel.,1,0,1,0,,
