instructions_2afc.started,instructions_2afc.stopped,instructions_2afc_loop.thisRepN,instructions_2afc_loop.thisTrialN,instructions_2afc_loop.thisN,instructions_2afc_loop.thisIndex,instructions_2afc_loop.ran,instructions_text,continue_text,participant_id,"What variety of Spanish are you most familiar with? (e.g., Peruvian, Spanish, Mexican)",At what age did you begin learning Spanish?,Are you proficient in any languages other than English/Spanish?,"Are you familiar with Caribbean (e.g., Caribbean, Puerto Rican) or Galician Spanish?",date,expName,psychopyVersion,OS,frameRate,id,study_id,session,practice_2afc.started,practice_2afc.stopped,key_resp_2afc_practice.keys,key_resp_2afc_practice.corr,key_resp_2afc_practice.rt,key_resp_2afc_practice.duration,trials_2afc_practice_loop.thisRepN,trials_2afc_practice_loop.thisTrialN,trials_2afc_practice_loop.thisN,trials_2afc_practice_loop.thisIndex,trials_2afc_practice_loop.ran,path,correct_response,check_2afc.started,check_2afc.stopped,trial_2afc.started,trial_2afc.stopped,key_resp_2afc_trial.keys,key_resp_2afc_trial.corr,key_resp_2afc_trial.rt,key_resp_2afc_trial.duration,trials_2afc_loop.thisRepN,trials_2afc_loop.thisTrialN,trials_2afc_loop.thisN,trials_2afc_loop.thisIndex,trials_2afc_loop.ran,item_num,target,variety,instructions_lextale.started,instructions_lextale.stopped,instructions_lextale_loop.thisRepN,instructions_lextale_loop.thisTrialN,instructions_lextale_loop.thisN,instructions_lextale_loop.thisIndex,instructions_lextale_loop.ran,practice_lextale.started,practice_lextale.stopped,key_resp_lextale_practice.keys,key_resp_lextale_practice.corr,key_resp_lextale_practice.rt,key_resp_lextale_practice.duration,practice_feedback_lextale.started,practice_feedback_lextale.stopped,trials_lextale_practice_loop.thisRepN,trials_lextale_practice_loop.thisTrialN,trials_lextale_practice_loop.thisN,trials_lextale_practice_loop.thisIndex,trials_lextale_practice_loop.ran,stim,word,prac_button_real,prac_button_false,check_lextale.started,check_lextale.stopped,trial_lextale.started,trial_lextale.stopped,key_resp_lextale_trial.keys,key_resp_lextale_trial.corr,key_resp_lextale_trial.rt,key_resp_lextale_trial.duration,trials_lextale_loop.thisRepN,trials_lextale_loop.thisTrialN,trials_lextale_loop.thisN,trials_lextale_loop.thisIndex,trials_lextale_loop.ran,button_real,button_false,instructions_eq.started,instructions_eq.stopped,trial_eq.started,trial_eq.stopped,slider_eq_trial.response,trials_eq_loop.thisRepN,trials_eq_loop.thisTrialN,trials_eq_loop.thisN,trials_eq_loop.thisIndex,trials_eq_loop.ran,item,is_test_item,is_distractor,is_agree_score,is_disagree_score,end_exp.started,end_exp.stopped
0.0239,2.8393,0,0,0,0,1,"In the following task you are going to hear a series of utterances. 

  You will decide if the utterances sound like questions or not using your keyboard.", (press the spacebar to continue),662ed96620183e2e20bb0751,Mexican,13 or older,"no, only English or Spanish",no,2025-07-24_03h00.23.180,empathy_intonation_perc_control,2024.2.4,Win32,59.52380952,662ed96620183e2e20bb0751,68817205a84113384fffdfe3,6881d9d920126ce816b166e9,,,,,,,,,,,,,,,,,,,,,,,,,,,,,,,,,,,,,,,,,,,,,,,,,,,,,,,,,,,,,,,,,,,,,,,,,,,,,,,,,,,,,
2.8431,9.2222,0,1,1,1,1,"If you believe the utterance is a question, type '1' (for 'yes') and if you do not 
  believe it is a question type '0' (for 'no').

  Let's practice a bit...", (press the spacebar to continue),662ed96620183e2e20bb0751,Mexican,13 or older,"no, only English or Spanish",no,2025-07-24_03h00.23.180,empathy_intonation_perc_control,2024.2.4,Win32,59.52380952,662ed96620183e2e20bb0751,68817205a84113384fffdfe3,6881d9d920126ce816b166e9,,,,,,,,,,,,,,,,,,,,,,,,,,,,,,,,,,,,,,,,,,,,,,,,,,,,,,,,,,,,,,,,,,,,,,,,,,,,,,,,,,,,,
,,,,,,,,,662ed96620183e2e20bb0751,Mexican,13 or older,"no, only English or Spanish",no,2025-07-24_03h00.23.180,empathy_intonation_perc_control,2024.2.4,Win32,59.52380952,662ed96620183e2e20bb0751,68817205a84113384fffdfe3,6881d9d920126ce816b166e9,9.2319,12.006,1,1,2.2549,,0,0,0,2,1,./stim/wavs/chilean_question_filler_Mi-padre-cantaba-bien.wav,1,,,,,,,,,,,,,,,,,,,,,,,,,,,,,,,,,,,,,,,,,,,,,,,,,,,,,,,,,,,,,,,,,,,,,,,,
,,,,,,,,,662ed96620183e2e20bb0751,Mexican,13 or older,"no, only English or Spanish",no,2025-07-24_03h00.23.180,empathy_intonation_perc_control,2024.2.4,Win32,59.52380952,662ed96620183e2e20bb0751,68817205a84113384fffdfe3,6881d9d920126ce816b166e9,12.0074,14.8898,0,1,2.3507,,0,1,1,7,1,./stim/wavs/puertorican_statement_filler_La-nina-pinta-con-su-amiga.wav,0,,,,,,,,,,,,,,,,,,,,,,,,,,,,,,,,,,,,,,,,,,,,,,,,,,,,,,,,,,,,,,,,,,,,,,,,
,,,,,,,,,662ed96620183e2e20bb0751,Mexican,13 or older,"no, only English or Spanish",no,2025-07-24_03h00.23.180,empathy_intonation_perc_control,2024.2.4,Win32,59.52380952,662ed96620183e2e20bb0751,68817205a84113384fffdfe3,6881d9d920126ce816b166e9,14.8912,17.64,0,1,2.2161,,0,2,2,6,1,./stim/wavs/peruvian_statement_filler_El-nino-habla-con-su-madre.wav,0,,,,,,,,,,,,,,,,,,,,,,,,,,,,,,,,,,,,,,,,,,,,,,,,,,,,,,,,,,,,,,,,,,,,,,,,
,,,,,,,,,662ed96620183e2e20bb0751,Mexican,13 or older,"no, only English or Spanish",no,2025-07-24_03h00.23.180,empathy_intonation_perc_control,2024.2.4,Win32,59.52380952,662ed96620183e2e20bb0751,68817205a84113384fffdfe3,6881d9d920126ce816b166e9,17.6407,19.823,0,1,1.6576,,0,3,3,4,1,./stim/wavs/cuban_statement_filler_Cocinabas-por-la-noche.wav,0,,,,,,,,,,,,,,,,,,,,,,,,,,,,,,,,,,,,,,,,,,,,,,,,,,,,,,,,,,,,,,,,,,,,,,,,
,,,,,,,,,662ed96620183e2e20bb0751,Mexican,13 or older,"no, only English or Spanish",no,2025-07-24_03h00.23.180,empathy_intonation_perc_control,2024.2.4,Win32,59.52380952,662ed96620183e2e20bb0751,68817205a84113384fffdfe3,6881d9d920126ce816b166e9,19.824,21.9902,1,1,1.6332,,0,4,4,3,1,./stim/wavs/mexican_question_filler_Felipe-no-tiene-contrasena.wav,1,,,,,,,,,,,,,,,,,,,,,,,,,,,,,,,,,,,,,,,,,,,,,,,,,,,,,,,,,,,,,,,,,,,,,,,,
,,,,,,,,,662ed96620183e2e20bb0751,Mexican,13 or older,"no, only English or Spanish",no,2025-07-24_03h00.23.180,empathy_intonation_perc_control,2024.2.4,Win32,59.52380952,662ed96620183e2e20bb0751,68817205a84113384fffdfe3,6881d9d920126ce816b166e9,21.9911,23.8405,1,1,1.3179,,0,5,5,1,1,./stim/wavs/argentine_question_filler_Mi-vecino-habla-mucho.wav,1,,,,,,,,,,,,,,,,,,,,,,,,,,,,,,,,,,,,,,,,,,,,,,,,,,,,,,,,,,,,,,,,,,,,,,,,
,,,,,,,,,662ed96620183e2e20bb0751,Mexican,13 or older,"no, only English or Spanish",no,2025-07-24_03h00.23.180,empathy_intonation_perc_control,2024.2.4,Win32,59.52380952,662ed96620183e2e20bb0751,68817205a84113384fffdfe3,6881d9d920126ce816b166e9,23.8415,25.9734,1,0,1.6011,,0,6,6,5,1,./stim/wavs/andalusian_statement_filler_Alberto-nunca-se-afeita.wav,0,,,,,,,,,,,,,,,,,,,,,,,,,,,,,,,,,,,,,,,,,,,,,,,,,,,,,,,,,,,,,,,,,,,,,,,,
,,,,,,,,,662ed96620183e2e20bb0751,Mexican,13 or older,"no, only English or Spanish",no,2025-07-24_03h00.23.180,empathy_intonation_perc_control,2024.2.4,Win32,59.52380952,662ed96620183e2e20bb0751,68817205a84113384fffdfe3,6881d9d920126ce816b166e9,25.9741,28.4577,1,1,1.9512,,0,7,7,0,1,./stim/wavs/castilian_question_filler_Mi-esposo-conoce-al-chico.wav,1,,,,,,,,,,,,,,,,,,,,,,,,,,,,,,,,,,,,,,,,,,,,,,,,,,,,,,,,,,,,,,,,,,,,,,,,
,,,,,,,,,662ed96620183e2e20bb0751,Mexican,13 or older,"no, only English or Spanish",no,2025-07-24_03h00.23.180,empathy_intonation_perc_control,2024.2.4,Win32,59.52380952,662ed96620183e2e20bb0751,68817205a84113384fffdfe3,6881d9d920126ce816b166e9,,,,,,,,,,,,,,28.4581,30.1749,,,,,,,,,,,,,,,,,,,,,,,,,,,,,,,,,,,,,,,,,,,,,,,,,,,,,,,,,,,,,,,,,,,,,,
,,,,,,,,,662ed96620183e2e20bb0751,Mexican,13 or older,"no, only English or Spanish",no,2025-07-24_03h00.23.180,empathy_intonation_perc_control,2024.2.4,Win32,59.52380952,662ed96620183e2e20bb0751,68817205a84113384fffdfe3,6881d9d920126ce816b166e9,,,,,,,,,,,,./stim/wavs/castilian_match_interrogative-total-yn_David-leia-el-libro.wav,1,,,30.1845,32.3574,1,1,1.6539,,0,0,0,0,1,1,0,castilian,,,,,,,,,,,,,,,,,,,,,,,,,,,,,,,,,,,,,,,,,,,,,,,,,,,,,,,,
,,,,,,,,,662ed96620183e2e20bb0751,Mexican,13 or older,"no, only English or Spanish",no,2025-07-24_03h00.23.180,empathy_intonation_perc_control,2024.2.4,Win32,59.52380952,662ed96620183e2e20bb0751,68817205a84113384fffdfe3,6881d9d920126ce816b166e9,,,,,,,,,,,,./stim/wavs/castilian_mismatch_declarative-broad-focus_El-nino-oye-el-rio.wav,0,,,32.3582,34.7744,0,1,1.8934,,0,1,1,68,1,69,0,castilian,,,,,,,,,,,,,,,,,,,,,,,,,,,,,,,,,,,,,,,,,,,,,,,,,,,,,,,,
,,,,,,,,,662ed96620183e2e20bb0751,Mexican,13 or older,"no, only English or Spanish",no,2025-07-24_03h00.23.180,empathy_intonation_perc_control,2024.2.4,Win32,59.52380952,662ed96620183e2e20bb0751,68817205a84113384fffdfe3,6881d9d920126ce816b166e9,,,,,,,,,,,,./stim/wavs/mexican_mismatch_interrogative-total-yn_Mi-tia-odia-la-lluvia.wav,1,,,34.7753,36.8076,1,1,1.5021,,0,2,2,38,1,39,0,mexican,,,,,,,,,,,,,,,,,,,,,,,,,,,,,,,,,,,,,,,,,,,,,,,,,,,,,,,,
,,,,,,,,,662ed96620183e2e20bb0751,Mexican,13 or older,"no, only English or Spanish",no,2025-07-24_03h00.23.180,empathy_intonation_perc_control,2024.2.4,Win32,59.52380952,662ed96620183e2e20bb0751,68817205a84113384fffdfe3,6881d9d920126ce816b166e9,,,,,,,,,,,,./stim/wavs/cuban_mismatch_interrogative-total-yn_Mi-madre-come-la-fruta.wav,1,,,36.8085,38.9986,0,0,1.6546,,0,3,3,31,1,32,1,cuban,,,,,,,,,,,,,,,,,,,,,,,,,,,,,,,,,,,,,,,,,,,,,,,,,,,,,,,,
,,,,,,,,,662ed96620183e2e20bb0751,Mexican,13 or older,"no, only English or Spanish",no,2025-07-24_03h00.23.180,empathy_intonation_perc_control,2024.2.4,Win32,59.52380952,662ed96620183e2e20bb0751,68817205a84113384fffdfe3,6881d9d920126ce816b166e9,,,,,,,,,,,,./stim/wavs/mexican_match_interrogative-total-yn_Emilio-ama-la-marcha.wav,1,,,38.9994,40.9917,1,1,1.4678,,0,4,4,15,1,16,0,mexican,,,,,,,,,,,,,,,,,,,,,,,,,,,,,,,,,,,,,,,,,,,,,,,,,,,,,,,,
,,,,,,,,,662ed96620183e2e20bb0751,Mexican,13 or older,"no, only English or Spanish",no,2025-07-24_03h00.23.180,empathy_intonation_perc_control,2024.2.4,Win32,59.52380952,662ed96620183e2e20bb0751,68817205a84113384fffdfe3,6881d9d920126ce816b166e9,,,,,,,,,,,,./stim/wavs/castilian_match_declarative-broad-focus_Manuela-vende-el-carro.wav,0,,,40.9925,43.3813,0,1,1.859,,0,5,5,46,1,47,0,castilian,,,,,,,,,,,,,,,,,,,,,,,,,,,,,,,,,,,,,,,,,,,,,,,,,,,,,,,,
,,,,,,,,,662ed96620183e2e20bb0751,Mexican,13 or older,"no, only English or Spanish",no,2025-07-24_03h00.23.180,empathy_intonation_perc_control,2024.2.4,Win32,59.52380952,662ed96620183e2e20bb0751,68817205a84113384fffdfe3,6881d9d920126ce816b166e9,,,,,,,,,,,,./stim/wavs/castilian_match_interrogative-total-yn_Manuela-vende-el-carro.wav,1,,,43.3822,45.5419,1,1,1.6345,,0,6,6,2,1,3,0,castilian,,,,,,,,,,,,,,,,,,,,,,,,,,,,,,,,,,,,,,,,,,,,,,,,,,,,,,,,
,,,,,,,,,662ed96620183e2e20bb0751,Mexican,13 or older,"no, only English or Spanish",no,2025-07-24_03h00.23.180,empathy_intonation_perc_control,2024.2.4,Win32,59.52380952,662ed96620183e2e20bb0751,68817205a84113384fffdfe3,6881d9d920126ce816b166e9,,,,,,,,,,,,./stim/wavs/puertorican_mismatch_declarative-broad-focus_La-nina-lava-el-plato.wav,0,,,45.543,47.7086,0,1,1.6385,,0,7,7,87,1,88,0,puertorican,,,,,,,,,,,,,,,,,,,,,,,,,,,,,,,,,,,,,,,,,,,,,,,,,,,,,,,,
,,,,,,,,,662ed96620183e2e20bb0751,Mexican,13 or older,"no, only English or Spanish",no,2025-07-24_03h00.23.180,empathy_intonation_perc_control,2024.2.4,Win32,59.52380952,662ed96620183e2e20bb0751,68817205a84113384fffdfe3,6881d9d920126ce816b166e9,,,,,,,,,,,,./stim/wavs/castilian_mismatch_interrogative-total-yn_Mi-tia-odia-la-lluvia.wav,1,,,47.7094,49.8753,1,1,1.6336,,0,8,8,28,1,29,0,castilian,,,,,,,,,,,,,,,,,,,,,,,,,,,,,,,,,,,,,,,,,,,,,,,,,,,,,,,,
,,,,,,,,,662ed96620183e2e20bb0751,Mexican,13 or older,"no, only English or Spanish",no,2025-07-24_03h00.23.180,empathy_intonation_perc_control,2024.2.4,Win32,59.52380952,662ed96620183e2e20bb0751,68817205a84113384fffdfe3,6881d9d920126ce816b166e9,,,,,,,,,,,,./stim/wavs/puertorican_mismatch_interrogative-total-yn_El-hombre-mira-la-luna.wav,1,,,49.8759,51.8923,0,0,1.4839,,0,9,9,39,1,40,1,puertorican,,,,,,,,,,,,,,,,,,,,,,,,,,,,,,,,,,,,,,,,,,,,,,,,,,,,,,,,
,,,,,,,,,662ed96620183e2e20bb0751,Mexican,13 or older,"no, only English or Spanish",no,2025-07-24_03h00.23.180,empathy_intonation_perc_control,2024.2.4,Win32,59.52380952,662ed96620183e2e20bb0751,68817205a84113384fffdfe3,6881d9d920126ce816b166e9,,,,,,,,,,,,./stim/wavs/puertorican_match_interrogative-total-yn_Daniel-iba-a-Bolivia.wav,1,,,51.893,54.3257,0,0,1.9011,,0,10,10,19,1,20,1,puertorican,,,,,,,,,,,,,,,,,,,,,,,,,,,,,,,,,,,,,,,,,,,,,,,,,,,,,,,,
,,,,,,,,,662ed96620183e2e20bb0751,Mexican,13 or older,"no, only English or Spanish",no,2025-07-24_03h00.23.180,empathy_intonation_perc_control,2024.2.4,Win32,59.52380952,662ed96620183e2e20bb0751,68817205a84113384fffdfe3,6881d9d920126ce816b166e9,,,,,,,,,,,,./stim/wavs/puertorican_mismatch_interrogative-total-yn_La-nina-lava-el-plato.wav,1,,,54.3266,56.5096,0,0,1.6516,,0,11,11,42,1,43,1,puertorican,,,,,,,,,,,,,,,,,,,,,,,,,,,,,,,,,,,,,,,,,,,,,,,,,,,,,,,,
,,,,,,,,,662ed96620183e2e20bb0751,Mexican,13 or older,"no, only English or Spanish",no,2025-07-24_03h00.23.180,empathy_intonation_perc_control,2024.2.4,Win32,59.52380952,662ed96620183e2e20bb0751,68817205a84113384fffdfe3,6881d9d920126ce816b166e9,,,,,,,,,,,,./stim/wavs/puertorican_mismatch_declarative-broad-focus_El-hombre-mira-la-luna.wav,0,,,56.5105,58.8597,0,1,1.8171,,0,12,12,84,1,85,0,puertorican,,,,,,,,,,,,,,,,,,,,,,,,,,,,,,,,,,,,,,,,,,,,,,,,,,,,,,,,
,,,,,,,,,662ed96620183e2e20bb0751,Mexican,13 or older,"no, only English or Spanish",no,2025-07-24_03h00.23.180,empathy_intonation_perc_control,2024.2.4,Win32,59.52380952,662ed96620183e2e20bb0751,68817205a84113384fffdfe3,6881d9d920126ce816b166e9,,,,,,,,,,,,./stim/wavs/puertorican_mismatch_interrogative-total-yn_Mi-madre-come-la-fruta.wav,1,,,58.8606,60.9098,0,0,1.5184,,0,13,13,43,1,44,1,puertorican,,,,,,,,,,,,,,,,,,,,,,,,,,,,,,,,,,,,,,,,,,,,,,,,,,,,,,,,
,,,,,,,,,662ed96620183e2e20bb0751,Mexican,13 or older,"no, only English or Spanish",no,2025-07-24_03h00.23.180,empathy_intonation_perc_control,2024.2.4,Win32,59.52380952,662ed96620183e2e20bb0751,68817205a84113384fffdfe3,6881d9d920126ce816b166e9,,,,,,,,,,,,./stim/wavs/cuban_mismatch_declarative-broad-focus_La-nina-lava-el-plato.wav,0,,,60.9105,63.2265,0,1,1.785,,0,14,14,75,1,76,0,cuban,,,,,,,,,,,,,,,,,,,,,,,,,,,,,,,,,,,,,,,,,,,,,,,,,,,,,,,,
,,,,,,,,,662ed96620183e2e20bb0751,Mexican,13 or older,"no, only English or Spanish",no,2025-07-24_03h00.23.180,empathy_intonation_perc_control,2024.2.4,Win32,59.52380952,662ed96620183e2e20bb0751,68817205a84113384fffdfe3,6881d9d920126ce816b166e9,,,,,,,,,,,,./stim/wavs/cuban_mismatch_declarative-broad-focus_Mi-tia-odia-la-lluvia.wav,0,,,63.2272,65.6102,0,1,1.8535,,0,15,15,77,1,78,0,cuban,,,,,,,,,,,,,,,,,,,,,,,,,,,,,,,,,,,,,,,,,,,,,,,,,,,,,,,,
,,,,,,,,,662ed96620183e2e20bb0751,Mexican,13 or older,"no, only English or Spanish",no,2025-07-24_03h00.23.180,empathy_intonation_perc_control,2024.2.4,Win32,59.52380952,662ed96620183e2e20bb0751,68817205a84113384fffdfe3,6881d9d920126ce816b166e9,,,,,,,,,,,,./stim/wavs/puertorican_match_interrogative-total-yn_Maria-bebe-el-vino.wav,1,,,65.6109,67.4766,1,1,1.3336,,0,16,16,23,1,24,1,puertorican,,,,,,,,,,,,,,,,,,,,,,,,,,,,,,,,,,,,,,,,,,,,,,,,,,,,,,,,
,,,,,,,,,662ed96620183e2e20bb0751,Mexican,13 or older,"no, only English or Spanish",no,2025-07-24_03h00.23.180,empathy_intonation_perc_control,2024.2.4,Win32,59.52380952,662ed96620183e2e20bb0751,68817205a84113384fffdfe3,6881d9d920126ce816b166e9,,,,,,,,,,,,./stim/wavs/cuban_match_interrogative-total-yn_Maria-bebe-el-vino.wav,1,,,67.4774,69.6939,0,0,1.6842,,0,17,17,9,1,10,1,cuban,,,,,,,,,,,,,,,,,,,,,,,,,,,,,,,,,,,,,,,,,,,,,,,,,,,,,,,,
,,,,,,,,,662ed96620183e2e20bb0751,Mexican,13 or older,"no, only English or Spanish",no,2025-07-24_03h00.23.180,empathy_intonation_perc_control,2024.2.4,Win32,59.52380952,662ed96620183e2e20bb0751,68817205a84113384fffdfe3,6881d9d920126ce816b166e9,,,,,,,,,,,,./stim/wavs/castilian_mismatch_declarative-broad-focus_Mi-tia-odia-la-lluvia.wav,0,,,69.695,71.7773,1,0,1.55,,0,18,18,72,1,73,0,castilian,,,,,,,,,,,,,,,,,,,,,,,,,,,,,,,,,,,,,,,,,,,,,,,,,,,,,,,,
,,,,,,,,,662ed96620183e2e20bb0751,Mexican,13 or older,"no, only English or Spanish",no,2025-07-24_03h00.23.180,empathy_intonation_perc_control,2024.2.4,Win32,59.52380952,662ed96620183e2e20bb0751,68817205a84113384fffdfe3,6881d9d920126ce816b166e9,,,,,,,,,,,,./stim/wavs/cuban_match_interrogative-total-yn_Ana-lleva-el-abrigo.wav,1,,,71.778,73.894,0,0,1.5832,,0,19,19,6,1,7,1,cuban,,,,,,,,,,,,,,,,,,,,,,,,,,,,,,,,,,,,,,,,,,,,,,,,,,,,,,,,
,,,,,,,,,662ed96620183e2e20bb0751,Mexican,13 or older,"no, only English or Spanish",no,2025-07-24_03h00.23.180,empathy_intonation_perc_control,2024.2.4,Win32,59.52380952,662ed96620183e2e20bb0751,68817205a84113384fffdfe3,6881d9d920126ce816b166e9,,,,,,,,,,,,./stim/wavs/cuban_match_interrogative-total-yn_Daniel-iba-a-Bolivia.wav,1,,,73.895,75.9609,0,0,1.541,,0,20,20,7,1,8,1,cuban,,,,,,,,,,,,,,,,,,,,,,,,,,,,,,,,,,,,,,,,,,,,,,,,,,,,,,,,
,,,,,,,,,662ed96620183e2e20bb0751,Mexican,13 or older,"no, only English or Spanish",no,2025-07-24_03h00.23.180,empathy_intonation_perc_control,2024.2.4,Win32,59.52380952,662ed96620183e2e20bb0751,68817205a84113384fffdfe3,6881d9d920126ce816b166e9,,,,,,,,,,,,./stim/wavs/cuban_match_declarative-broad-focus_Maria-bebe-el-vino.wav,0,,,75.9616,77.9946,0,1,1.5053,,0,21,21,53,1,54,0,cuban,,,,,,,,,,,,,,,,,,,,,,,,,,,,,,,,,,,,,,,,,,,,,,,,,,,,,,,,
,,,,,,,,,662ed96620183e2e20bb0751,Mexican,13 or older,"no, only English or Spanish",no,2025-07-24_03h00.23.180,empathy_intonation_perc_control,2024.2.4,Win32,59.52380952,662ed96620183e2e20bb0751,68817205a84113384fffdfe3,6881d9d920126ce816b166e9,,,,,,,,,,,,./stim/wavs/castilian_match_declarative-broad-focus_Mariano-habla-del-tiempo.wav,0,,,77.9955,81.1619,0,1,2.6353,,0,22,22,48,1,49,0,castilian,,,,,,,,,,,,,,,,,,,,,,,,,,,,,,,,,,,,,,,,,,,,,,,,,,,,,,,,
,,,,,,,,,662ed96620183e2e20bb0751,Mexican,13 or older,"no, only English or Spanish",no,2025-07-24_03h00.23.180,empathy_intonation_perc_control,2024.2.4,Win32,59.52380952,662ed96620183e2e20bb0751,68817205a84113384fffdfe3,6881d9d920126ce816b166e9,,,,,,,,,,,,./stim/wavs/castilian_mismatch_declarative-broad-focus_La-maestra-vive-en-Paris.wav,0,,,81.1628,83.678,0,1,1.989,,0,23,23,69,1,70,0,castilian,,,,,,,,,,,,,,,,,,,,,,,,,,,,,,,,,,,,,,,,,,,,,,,,,,,,,,,,
,,,,,,,,,662ed96620183e2e20bb0751,Mexican,13 or older,"no, only English or Spanish",no,2025-07-24_03h00.23.180,empathy_intonation_perc_control,2024.2.4,Win32,59.52380952,662ed96620183e2e20bb0751,68817205a84113384fffdfe3,6881d9d920126ce816b166e9,,,,,,,,,,,,./stim/wavs/castilian_match_interrogative-total-yn_Marta-abre-el-regalo.wav,1,,,83.6786,85.9456,1,1,1.7342,,0,24,24,5,1,6,0,castilian,,,,,,,,,,,,,,,,,,,,,,,,,,,,,,,,,,,,,,,,,,,,,,,,,,,,,,,,
,,,,,,,,,662ed96620183e2e20bb0751,Mexican,13 or older,"no, only English or Spanish",no,2025-07-24_03h00.23.180,empathy_intonation_perc_control,2024.2.4,Win32,59.52380952,662ed96620183e2e20bb0751,68817205a84113384fffdfe3,6881d9d920126ce816b166e9,,,,,,,,,,,,./stim/wavs/puertorican_mismatch_interrogative-total-yn_La-maestra-vive-en-Paris.wav,1,,,85.9464,88.0956,0,0,1.6213,,0,25,25,41,1,42,1,puertorican,,,,,,,,,,,,,,,,,,,,,,,,,,,,,,,,,,,,,,,,,,,,,,,,,,,,,,,,
,,,,,,,,,662ed96620183e2e20bb0751,Mexican,13 or older,"no, only English or Spanish",no,2025-07-24_03h00.23.180,empathy_intonation_perc_control,2024.2.4,Win32,59.52380952,662ed96620183e2e20bb0751,68817205a84113384fffdfe3,6881d9d920126ce816b166e9,,,,,,,,,,,,./stim/wavs/puertorican_match_declarative-broad-focus_Ana-lleva-el-abrigo.wav,0,,,88.0965,91.1117,0,1,2.4829,,0,26,26,62,1,63,0,puertorican,,,,,,,,,,,,,,,,,,,,,,,,,,,,,,,,,,,,,,,,,,,,,,,,,,,,,,,,
,,,,,,,,,662ed96620183e2e20bb0751,Mexican,13 or older,"no, only English or Spanish",no,2025-07-24_03h00.23.180,empathy_intonation_perc_control,2024.2.4,Win32,59.52380952,662ed96620183e2e20bb0751,68817205a84113384fffdfe3,6881d9d920126ce816b166e9,,,,,,,,,,,,./stim/wavs/mexican_mismatch_declarative-broad-focus_El-hombre-mira-la-luna.wav,0,,,91.1122,93.8689,0,1,2.233,,0,27,27,79,1,80,0,mexican,,,,,,,,,,,,,,,,,,,,,,,,,,,,,,,,,,,,,,,,,,,,,,,,,,,,,,,,
,,,,,,,,,662ed96620183e2e20bb0751,Mexican,13 or older,"no, only English or Spanish",no,2025-07-24_03h00.23.180,empathy_intonation_perc_control,2024.2.4,Win32,59.52380952,662ed96620183e2e20bb0751,68817205a84113384fffdfe3,6881d9d920126ce816b166e9,,,,,,,,,,,,./stim/wavs/mexican_match_declarative-broad-focus_Marta-abre-el-regalo.wav,0,,,93.8694,95.7523,0,1,1.351,,0,28,28,61,1,62,0,mexican,,,,,,,,,,,,,,,,,,,,,,,,,,,,,,,,,,,,,,,,,,,,,,,,,,,,,,,,
,,,,,,,,,662ed96620183e2e20bb0751,Mexican,13 or older,"no, only English or Spanish",no,2025-07-24_03h00.23.180,empathy_intonation_perc_control,2024.2.4,Win32,59.52380952,662ed96620183e2e20bb0751,68817205a84113384fffdfe3,6881d9d920126ce816b166e9,,,,,,,,,,,,./stim/wavs/puertorican_mismatch_interrogative-total-yn_El-nino-oye-el-rio.wav,1,,,95.7528,98.146,1,1,1.856,,0,29,29,40,1,41,1,puertorican,,,,,,,,,,,,,,,,,,,,,,,,,,,,,,,,,,,,,,,,,,,,,,,,,,,,,,,,
,,,,,,,,,662ed96620183e2e20bb0751,Mexican,13 or older,"no, only English or Spanish",no,2025-07-24_03h00.23.180,empathy_intonation_perc_control,2024.2.4,Win32,59.52380952,662ed96620183e2e20bb0751,68817205a84113384fffdfe3,6881d9d920126ce816b166e9,,,,,,,,,,,,./stim/wavs/puertorican_match_interrogative-total-yn_Emilio-ama-la-marcha.wav,1,,,98.147,100.2793,1,1,1.6109,,0,30,30,21,1,22,1,puertorican,,,,,,,,,,,,,,,,,,,,,,,,,,,,,,,,,,,,,,,,,,,,,,,,,,,,,,,,
,,,,,,,,,662ed96620183e2e20bb0751,Mexican,13 or older,"no, only English or Spanish",no,2025-07-24_03h00.23.180,empathy_intonation_perc_control,2024.2.4,Win32,59.52380952,662ed96620183e2e20bb0751,68817205a84113384fffdfe3,6881d9d920126ce816b166e9,,,,,,,,,,,,./stim/wavs/castilian_match_interrogative-total-yn_Emilio-ama-la-marcha.wav,1,,,100.28,102.4133,1,1,1.6065,,0,31,31,1,1,2,0,castilian,,,,,,,,,,,,,,,,,,,,,,,,,,,,,,,,,,,,,,,,,,,,,,,,,,,,,,,,
,,,,,,,,,662ed96620183e2e20bb0751,Mexican,13 or older,"no, only English or Spanish",no,2025-07-24_03h00.23.180,empathy_intonation_perc_control,2024.2.4,Win32,59.52380952,662ed96620183e2e20bb0751,68817205a84113384fffdfe3,6881d9d920126ce816b166e9,,,,,,,,,,,,./stim/wavs/mexican_mismatch_interrogative-total-yn_Mi-novio-viene-del-lago.wav,1,,,102.4141,104.413,1,1,1.4688,,0,32,32,37,1,38,0,mexican,,,,,,,,,,,,,,,,,,,,,,,,,,,,,,,,,,,,,,,,,,,,,,,,,,,,,,,,
,,,,,,,,,662ed96620183e2e20bb0751,Mexican,13 or older,"no, only English or Spanish",no,2025-07-24_03h00.23.180,empathy_intonation_perc_control,2024.2.4,Win32,59.52380952,662ed96620183e2e20bb0751,68817205a84113384fffdfe3,6881d9d920126ce816b166e9,,,,,,,,,,,,./stim/wavs/mexican_mismatch_declarative-broad-focus_Mi-tia-odia-la-lluvia.wav,0,,,104.4137,106.4636,0,1,1.5227,,0,33,33,82,1,83,0,mexican,,,,,,,,,,,,,,,,,,,,,,,,,,,,,,,,,,,,,,,,,,,,,,,,,,,,,,,,
,,,,,,,,,662ed96620183e2e20bb0751,Mexican,13 or older,"no, only English or Spanish",no,2025-07-24_03h00.23.180,empathy_intonation_perc_control,2024.2.4,Win32,59.52380952,662ed96620183e2e20bb0751,68817205a84113384fffdfe3,6881d9d920126ce816b166e9,,,,,,,,,,,,./stim/wavs/mexican_match_interrogative-total-yn_Mariano-habla-del-tiempo.wav,1,,,106.4641,108.5304,1,1,1.5439,,0,34,34,16,1,17,0,mexican,,,,,,,,,,,,,,,,,,,,,,,,,,,,,,,,,,,,,,,,,,,,,,,,,,,,,,,,
,,,,,,,,,662ed96620183e2e20bb0751,Mexican,13 or older,"no, only English or Spanish",no,2025-07-24_03h00.23.180,empathy_intonation_perc_control,2024.2.4,Win32,59.52380952,662ed96620183e2e20bb0751,68817205a84113384fffdfe3,6881d9d920126ce816b166e9,,,,,,,,,,,,./stim/wavs/mexican_mismatch_interrogative-total-yn_La-maestra-vive-en-Paris.wav,1,,,108.5311,111.0302,1,1,1.967,,0,35,35,36,1,37,0,mexican,,,,,,,,,,,,,,,,,,,,,,,,,,,,,,,,,,,,,,,,,,,,,,,,,,,,,,,,
,,,,,,,,,662ed96620183e2e20bb0751,Mexican,13 or older,"no, only English or Spanish",no,2025-07-24_03h00.23.180,empathy_intonation_perc_control,2024.2.4,Win32,59.52380952,662ed96620183e2e20bb0751,68817205a84113384fffdfe3,6881d9d920126ce816b166e9,,,,,,,,,,,,./stim/wavs/castilian_match_interrogative-total-yn_Mariano-habla-del-tiempo.wav,1,,,111.0313,113.2478,1,1,1.6906,,0,36,36,4,1,5,0,castilian,,,,,,,,,,,,,,,,,,,,,,,,,,,,,,,,,,,,,,,,,,,,,,,,,,,,,,,,
,,,,,,,,,662ed96620183e2e20bb0751,Mexican,13 or older,"no, only English or Spanish",no,2025-07-24_03h00.23.180,empathy_intonation_perc_control,2024.2.4,Win32,59.52380952,662ed96620183e2e20bb0751,68817205a84113384fffdfe3,6881d9d920126ce816b166e9,,,,,,,,,,,,./stim/wavs/cuban_match_interrogative-total-yn_Marta-abre-el-regalo.wav,1,,,113.2485,115.4807,1,1,1.7005,,0,37,37,11,1,12,1,cuban,,,,,,,,,,,,,,,,,,,,,,,,,,,,,,,,,,,,,,,,,,,,,,,,,,,,,,,,
,,,,,,,,,662ed96620183e2e20bb0751,Mexican,13 or older,"no, only English or Spanish",no,2025-07-24_03h00.23.180,empathy_intonation_perc_control,2024.2.4,Win32,59.52380952,662ed96620183e2e20bb0751,68817205a84113384fffdfe3,6881d9d920126ce816b166e9,,,,,,,,,,,,./stim/wavs/cuban_mismatch_interrogative-total-yn_El-nino-oye-el-rio.wav,1,,,115.4815,117.6645,1,1,1.6517,,0,38,38,30,1,31,1,cuban,,,,,,,,,,,,,,,,,,,,,,,,,,,,,,,,,,,,,,,,,,,,,,,,,,,,,,,,
,,,,,,,,,662ed96620183e2e20bb0751,Mexican,13 or older,"no, only English or Spanish",no,2025-07-24_03h00.23.180,empathy_intonation_perc_control,2024.2.4,Win32,59.52380952,662ed96620183e2e20bb0751,68817205a84113384fffdfe3,6881d9d920126ce816b166e9,,,,,,,,,,,,./stim/wavs/castilian_match_declarative-broad-focus_David-leia-el-libro.wav,0,,,117.6652,120.0478,0,1,1.8527,,0,39,39,44,1,45,0,castilian,,,,,,,,,,,,,,,,,,,,,,,,,,,,,,,,,,,,,,,,,,,,,,,,,,,,,,,,
,,,,,,,,,662ed96620183e2e20bb0751,Mexican,13 or older,"no, only English or Spanish",no,2025-07-24_03h00.23.180,empathy_intonation_perc_control,2024.2.4,Win32,59.52380952,662ed96620183e2e20bb0751,68817205a84113384fffdfe3,6881d9d920126ce816b166e9,,,,,,,,,,,,./stim/wavs/puertorican_match_declarative-broad-focus_David-leia-el-libro.wav,0,,,120.0485,122.2314,0,1,1.6508,,0,40,40,64,1,65,0,puertorican,,,,,,,,,,,,,,,,,,,,,,,,,,,,,,,,,,,,,,,,,,,,,,,,,,,,,,,,
,,,,,,,,,662ed96620183e2e20bb0751,Mexican,13 or older,"no, only English or Spanish",no,2025-07-24_03h00.23.180,empathy_intonation_perc_control,2024.2.4,Win32,59.52380952,662ed96620183e2e20bb0751,68817205a84113384fffdfe3,6881d9d920126ce816b166e9,,,,,,,,,,,,./stim/wavs/puertorican_mismatch_declarative-broad-focus_La-maestra-vive-en-Paris.wav,0,,,122.232,124.3982,0,1,1.634,,0,41,41,86,1,87,0,puertorican,,,,,,,,,,,,,,,,,,,,,,,,,,,,,,,,,,,,,,,,,,,,,,,,,,,,,,,,
,,,,,,,,,662ed96620183e2e20bb0751,Mexican,13 or older,"no, only English or Spanish",no,2025-07-24_03h00.23.180,empathy_intonation_perc_control,2024.2.4,Win32,59.52380952,662ed96620183e2e20bb0751,68817205a84113384fffdfe3,6881d9d920126ce816b166e9,,,,,,,,,,,,./stim/wavs/castilian_match_declarative-broad-focus_Maria-bebe-el-vino.wav,0,,,124.3988,126.8149,0,1,1.8933,,0,42,42,47,1,48,0,castilian,,,,,,,,,,,,,,,,,,,,,,,,,,,,,,,,,,,,,,,,,,,,,,,,,,,,,,,,
,,,,,,,,,662ed96620183e2e20bb0751,Mexican,13 or older,"no, only English or Spanish",no,2025-07-24_03h00.23.180,empathy_intonation_perc_control,2024.2.4,Win32,59.52380952,662ed96620183e2e20bb0751,68817205a84113384fffdfe3,6881d9d920126ce816b166e9,,,,,,,,,,,,./stim/wavs/mexican_match_declarative-broad-focus_David-leia-el-libro.wav,0,,,126.8156,128.8821,0,1,1.5346,,0,43,43,58,1,59,0,mexican,,,,,,,,,,,,,,,,,,,,,,,,,,,,,,,,,,,,,,,,,,,,,,,,,,,,,,,,
,,,,,,,,,662ed96620183e2e20bb0751,Mexican,13 or older,"no, only English or Spanish",no,2025-07-24_03h00.23.180,empathy_intonation_perc_control,2024.2.4,Win32,59.52380952,662ed96620183e2e20bb0751,68817205a84113384fffdfe3,6881d9d920126ce816b166e9,,,,,,,,,,,,./stim/wavs/cuban_match_declarative-broad-focus_Manuela-vende-el-carro.wav,0,,,128.8828,131.2153,0,1,1.8022,,0,44,44,52,1,53,0,cuban,,,,,,,,,,,,,,,,,,,,,,,,,,,,,,,,,,,,,,,,,,,,,,,,,,,,,,,,
,,,,,,,,,662ed96620183e2e20bb0751,Mexican,13 or older,"no, only English or Spanish",no,2025-07-24_03h00.23.180,empathy_intonation_perc_control,2024.2.4,Win32,59.52380952,662ed96620183e2e20bb0751,68817205a84113384fffdfe3,6881d9d920126ce816b166e9,,,,,,,,,,,,./stim/wavs/puertorican_match_declarative-broad-focus_Maria-bebe-el-vino.wav,0,,,131.2161,133.1491,0,1,1.4045,,0,45,45,67,1,68,0,puertorican,,,,,,,,,,,,,,,,,,,,,,,,,,,,,,,,,,,,,,,,,,,,,,,,,,,,,,,,
,,,,,,,,,662ed96620183e2e20bb0751,Mexican,13 or older,"no, only English or Spanish",no,2025-07-24_03h00.23.180,empathy_intonation_perc_control,2024.2.4,Win32,59.52380952,662ed96620183e2e20bb0751,68817205a84113384fffdfe3,6881d9d920126ce816b166e9,,,,,,,,,,,,./stim/wavs/puertorican_match_declarative-broad-focus_Daniel-iba-a-Bolivia.wav,0,,,133.1501,135.1827,0,1,1.5053,,0,46,46,63,1,64,0,puertorican,,,,,,,,,,,,,,,,,,,,,,,,,,,,,,,,,,,,,,,,,,,,,,,,,,,,,,,,
,,,,,,,,,662ed96620183e2e20bb0751,Mexican,13 or older,"no, only English or Spanish",no,2025-07-24_03h00.23.180,empathy_intonation_perc_control,2024.2.4,Win32,59.52380952,662ed96620183e2e20bb0751,68817205a84113384fffdfe3,6881d9d920126ce816b166e9,,,,,,,,,,,,./stim/wavs/castilian_mismatch_interrogative-total-yn_La-maestra-vive-en-Paris.wav,1,,,135.1846,137.5995,1,1,1.8853,,0,47,47,24,1,25,0,castilian,,,,,,,,,,,,,,,,,,,,,,,,,,,,,,,,,,,,,,,,,,,,,,,,,,,,,,,,
,,,,,,,,,662ed96620183e2e20bb0751,Mexican,13 or older,"no, only English or Spanish",no,2025-07-24_03h00.23.180,empathy_intonation_perc_control,2024.2.4,Win32,59.52380952,662ed96620183e2e20bb0751,68817205a84113384fffdfe3,6881d9d920126ce816b166e9,,,,,,,,,,,,./stim/wavs/mexican_match_declarative-broad-focus_Emilio-ama-la-marcha.wav,0,,,137.6006,139.8661,0,1,1.7403,,0,48,48,59,1,60,0,mexican,,,,,,,,,,,,,,,,,,,,,,,,,,,,,,,,,,,,,,,,,,,,,,,,,,,,,,,,
,,,,,,,,,662ed96620183e2e20bb0751,Mexican,13 or older,"no, only English or Spanish",no,2025-07-24_03h00.23.180,empathy_intonation_perc_control,2024.2.4,Win32,59.52380952,662ed96620183e2e20bb0751,68817205a84113384fffdfe3,6881d9d920126ce816b166e9,,,,,,,,,,,,./stim/wavs/mexican_match_interrogative-total-yn_Daniel-iba-a-Bolivia.wav,1,,,139.8668,141.9498,1,1,1.5648,,0,49,49,13,1,14,0,mexican,,,,,,,,,,,,,,,,,,,,,,,,,,,,,,,,,,,,,,,,,,,,,,,,,,,,,,,,
,,,,,,,,,662ed96620183e2e20bb0751,Mexican,13 or older,"no, only English or Spanish",no,2025-07-24_03h00.23.180,empathy_intonation_perc_control,2024.2.4,Win32,59.52380952,662ed96620183e2e20bb0751,68817205a84113384fffdfe3,6881d9d920126ce816b166e9,,,,,,,,,,,,./stim/wavs/castilian_mismatch_declarative-broad-focus_La-nina-lava-el-plato.wav,0,,,141.9509,144.1998,0,1,1.7181,,0,50,50,70,1,71,0,castilian,,,,,,,,,,,,,,,,,,,,,,,,,,,,,,,,,,,,,,,,,,,,,,,,,,,,,,,,
,,,,,,,,,662ed96620183e2e20bb0751,Mexican,13 or older,"no, only English or Spanish",no,2025-07-24_03h00.23.180,empathy_intonation_perc_control,2024.2.4,Win32,59.52380952,662ed96620183e2e20bb0751,68817205a84113384fffdfe3,6881d9d920126ce816b166e9,,,,,,,,,,,,./stim/wavs/mexican_match_interrogative-total-yn_Marta-abre-el-regalo.wav,1,,,144.201,146.2506,0,0,1.5272,,0,51,51,17,1,18,0,mexican,,,,,,,,,,,,,,,,,,,,,,,,,,,,,,,,,,,,,,,,,,,,,,,,,,,,,,,,
,,,,,,,,,662ed96620183e2e20bb0751,Mexican,13 or older,"no, only English or Spanish",no,2025-07-24_03h00.23.180,empathy_intonation_perc_control,2024.2.4,Win32,59.52380952,662ed96620183e2e20bb0751,68817205a84113384fffdfe3,6881d9d920126ce816b166e9,,,,,,,,,,,,./stim/wavs/castilian_match_declarative-broad-focus_Emilio-ama-la-marcha.wav,0,,,146.2512,148.417,0,1,1.6366,,0,52,52,45,1,46,0,castilian,,,,,,,,,,,,,,,,,,,,,,,,,,,,,,,,,,,,,,,,,,,,,,,,,,,,,,,,
,,,,,,,,,662ed96620183e2e20bb0751,Mexican,13 or older,"no, only English or Spanish",no,2025-07-24_03h00.23.180,empathy_intonation_perc_control,2024.2.4,Win32,59.52380952,662ed96620183e2e20bb0751,68817205a84113384fffdfe3,6881d9d920126ce816b166e9,,,,,,,,,,,,./stim/wavs/cuban_mismatch_interrogative-total-yn_Mi-novio-viene-del-lago.wav,1,,,148.4179,150.8167,1,1,1.8733,,0,53,53,32,1,33,1,cuban,,,,,,,,,,,,,,,,,,,,,,,,,,,,,,,,,,,,,,,,,,,,,,,,,,,,,,,,
,,,,,,,,,662ed96620183e2e20bb0751,Mexican,13 or older,"no, only English or Spanish",no,2025-07-24_03h00.23.180,empathy_intonation_perc_control,2024.2.4,Win32,59.52380952,662ed96620183e2e20bb0751,68817205a84113384fffdfe3,6881d9d920126ce816b166e9,,,,,,,,,,,,./stim/wavs/mexican_mismatch_interrogative-total-yn_El-nino-oye-el-rio.wav,1,,,150.8177,152.7011,1,1,1.3598,,0,54,54,35,1,36,0,mexican,,,,,,,,,,,,,,,,,,,,,,,,,,,,,,,,,,,,,,,,,,,,,,,,,,,,,,,,
,,,,,,,,,662ed96620183e2e20bb0751,Mexican,13 or older,"no, only English or Spanish",no,2025-07-24_03h00.23.180,empathy_intonation_perc_control,2024.2.4,Win32,59.52380952,662ed96620183e2e20bb0751,68817205a84113384fffdfe3,6881d9d920126ce816b166e9,,,,,,,,,,,,./stim/wavs/cuban_match_interrogative-total-yn_Mariano-habla-del-tiempo.wav,1,,,152.7026,154.7005,0,0,1.4593,,0,55,55,10,1,11,1,cuban,,,,,,,,,,,,,,,,,,,,,,,,,,,,,,,,,,,,,,,,,,,,,,,,,,,,,,,,
,,,,,,,,,662ed96620183e2e20bb0751,Mexican,13 or older,"no, only English or Spanish",no,2025-07-24_03h00.23.180,empathy_intonation_perc_control,2024.2.4,Win32,59.52380952,662ed96620183e2e20bb0751,68817205a84113384fffdfe3,6881d9d920126ce816b166e9,,,,,,,,,,,,./stim/wavs/cuban_mismatch_interrogative-total-yn_El-hombre-mira-la-luna.wav,1,,,154.7013,157.0511,1,1,1.8183,,0,56,56,29,1,30,1,cuban,,,,,,,,,,,,,,,,,,,,,,,,,,,,,,,,,,,,,,,,,,,,,,,,,,,,,,,,
,,,,,,,,,662ed96620183e2e20bb0751,Mexican,13 or older,"no, only English or Spanish",no,2025-07-24_03h00.23.180,empathy_intonation_perc_control,2024.2.4,Win32,59.52380952,662ed96620183e2e20bb0751,68817205a84113384fffdfe3,6881d9d920126ce816b166e9,,,,,,,,,,,,./stim/wavs/castilian_mismatch_declarative-broad-focus_Mi-novio-viene-del-lago.wav,0,,,157.052,159.4682,0,1,1.8858,,0,57,57,71,1,72,0,castilian,,,,,,,,,,,,,,,,,,,,,,,,,,,,,,,,,,,,,,,,,,,,,,,,,,,,,,,,
,,,,,,,,,662ed96620183e2e20bb0751,Mexican,13 or older,"no, only English or Spanish",no,2025-07-24_03h00.23.180,empathy_intonation_perc_control,2024.2.4,Win32,59.52380952,662ed96620183e2e20bb0751,68817205a84113384fffdfe3,6881d9d920126ce816b166e9,,,,,,,,,,,,./stim/wavs/cuban_mismatch_declarative-broad-focus_Mi-novio-viene-del-lago.wav,0,,,159.4692,161.7014,0,1,1.7015,,0,58,58,76,1,77,0,cuban,,,,,,,,,,,,,,,,,,,,,,,,,,,,,,,,,,,,,,,,,,,,,,,,,,,,,,,,
,,,,,,,,,662ed96620183e2e20bb0751,Mexican,13 or older,"no, only English or Spanish",no,2025-07-24_03h00.23.180,empathy_intonation_perc_control,2024.2.4,Win32,59.52380952,662ed96620183e2e20bb0751,68817205a84113384fffdfe3,6881d9d920126ce816b166e9,,,,,,,,,,,,./stim/wavs/castilian_match_interrogative-total-yn_Maria-bebe-el-vino.wav,1,,,161.7022,163.7016,1,1,1.4676,,0,59,59,3,1,4,0,castilian,,,,,,,,,,,,,,,,,,,,,,,,,,,,,,,,,,,,,,,,,,,,,,,,,,,,,,,,
,,,,,,,,,662ed96620183e2e20bb0751,Mexican,13 or older,"no, only English or Spanish",no,2025-07-24_03h00.23.180,empathy_intonation_perc_control,2024.2.4,Win32,59.52380952,662ed96620183e2e20bb0751,68817205a84113384fffdfe3,6881d9d920126ce816b166e9,,,,,,,,,,,,./stim/wavs/mexican_match_interrogative-total-yn_Ana-lleva-el-abrigo.wav,1,,,163.7024,165.8519,1,1,1.6227,,0,60,60,12,1,13,0,mexican,,,,,,,,,,,,,,,,,,,,,,,,,,,,,,,,,,,,,,,,,,,,,,,,,,,,,,,,
,,,,,,,,,662ed96620183e2e20bb0751,Mexican,13 or older,"no, only English or Spanish",no,2025-07-24_03h00.23.180,empathy_intonation_perc_control,2024.2.4,Win32,59.52380952,662ed96620183e2e20bb0751,68817205a84113384fffdfe3,6881d9d920126ce816b166e9,,,,,,,,,,,,./stim/wavs/castilian_match_declarative-broad-focus_Marta-abre-el-regalo.wav,0,,,165.8527,167.9853,0,1,1.6036,,0,61,61,49,1,50,0,castilian,,,,,,,,,,,,,,,,,,,,,,,,,,,,,,,,,,,,,,,,,,,,,,,,,,,,,,,,
,,,,,,,,,662ed96620183e2e20bb0751,Mexican,13 or older,"no, only English or Spanish",no,2025-07-24_03h00.23.180,empathy_intonation_perc_control,2024.2.4,Win32,59.52380952,662ed96620183e2e20bb0751,68817205a84113384fffdfe3,6881d9d920126ce816b166e9,,,,,,,,,,,,./stim/wavs/puertorican_mismatch_declarative-broad-focus_El-bebe-comia-muy-bien.wav,0,,,167.9861,170.2852,0,1,1.7688,,0,62,62,83,1,84,0,puertorican,,,,,,,,,,,,,,,,,,,,,,,,,,,,,,,,,,,,,,,,,,,,,,,,,,,,,,,,
,,,,,,,,,662ed96620183e2e20bb0751,Mexican,13 or older,"no, only English or Spanish",no,2025-07-24_03h00.23.180,empathy_intonation_perc_control,2024.2.4,Win32,59.52380952,662ed96620183e2e20bb0751,68817205a84113384fffdfe3,6881d9d920126ce816b166e9,,,,,,,,,,,,./stim/wavs/puertorican_match_interrogative-total-yn_Manuela-vende-el-carro.wav,1,,,170.2858,172.3358,0,0,1.518,,0,63,63,22,1,23,1,puertorican,,,,,,,,,,,,,,,,,,,,,,,,,,,,,,,,,,,,,,,,,,,,,,,,,,,,,,,,
,,,,,,,,,662ed96620183e2e20bb0751,Mexican,13 or older,"no, only English or Spanish",no,2025-07-24_03h00.23.180,empathy_intonation_perc_control,2024.2.4,Win32,59.52380952,662ed96620183e2e20bb0751,68817205a84113384fffdfe3,6881d9d920126ce816b166e9,,,,,,,,,,,,./stim/wavs/mexican_match_declarative-broad-focus_Ana-lleva-el-abrigo.wav,0,,,172.3365,174.3024,0,1,1.4368,,0,64,64,56,1,57,0,mexican,,,,,,,,,,,,,,,,,,,,,,,,,,,,,,,,,,,,,,,,,,,,,,,,,,,,,,,,
,,,,,,,,,662ed96620183e2e20bb0751,Mexican,13 or older,"no, only English or Spanish",no,2025-07-24_03h00.23.180,empathy_intonation_perc_control,2024.2.4,Win32,59.52380952,662ed96620183e2e20bb0751,68817205a84113384fffdfe3,6881d9d920126ce816b166e9,,,,,,,,,,,,./stim/wavs/puertorican_mismatch_declarative-broad-focus_El-nino-oye-el-rio.wav,0,,,174.3032,176.1691,0,1,1.3352,,0,65,65,85,1,86,0,puertorican,,,,,,,,,,,,,,,,,,,,,,,,,,,,,,,,,,,,,,,,,,,,,,,,,,,,,,,,
,,,,,,,,,662ed96620183e2e20bb0751,Mexican,13 or older,"no, only English or Spanish",no,2025-07-24_03h00.23.180,empathy_intonation_perc_control,2024.2.4,Win32,59.52380952,662ed96620183e2e20bb0751,68817205a84113384fffdfe3,6881d9d920126ce816b166e9,,,,,,,,,,,,./stim/wavs/puertorican_match_interrogative-total-yn_David-leia-el-libro.wav,1,,,176.1699,177.9694,1,1,1.2678,,0,66,66,20,1,21,1,puertorican,,,,,,,,,,,,,,,,,,,,,,,,,,,,,,,,,,,,,,,,,,,,,,,,,,,,,,,,
,,,,,,,,,662ed96620183e2e20bb0751,Mexican,13 or older,"no, only English or Spanish",no,2025-07-24_03h00.23.180,empathy_intonation_perc_control,2024.2.4,Win32,59.52380952,662ed96620183e2e20bb0751,68817205a84113384fffdfe3,6881d9d920126ce816b166e9,,,,,,,,,,,,./stim/wavs/castilian_mismatch_interrogative-total-yn_La-nina-lava-el-plato.wav,1,,,177.9702,180.1526,1,1,1.6579,,0,67,67,25,1,26,0,castilian,,,,,,,,,,,,,,,,,,,,,,,,,,,,,,,,,,,,,,,,,,,,,,,,,,,,,,,,
,,,,,,,,,662ed96620183e2e20bb0751,Mexican,13 or older,"no, only English or Spanish",no,2025-07-24_03h00.23.180,empathy_intonation_perc_control,2024.2.4,Win32,59.52380952,662ed96620183e2e20bb0751,68817205a84113384fffdfe3,6881d9d920126ce816b166e9,,,,,,,,,,,,./stim/wavs/cuban_mismatch_declarative-broad-focus_El-bebe-comia-muy-bien.wav,0,,,180.1533,182.1196,0,1,1.4359,,0,68,68,73,1,74,0,cuban,,,,,,,,,,,,,,,,,,,,,,,,,,,,,,,,,,,,,,,,,,,,,,,,,,,,,,,,
,,,,,,,,,662ed96620183e2e20bb0751,Mexican,13 or older,"no, only English or Spanish",no,2025-07-24_03h00.23.180,empathy_intonation_perc_control,2024.2.4,Win32,59.52380952,662ed96620183e2e20bb0751,68817205a84113384fffdfe3,6881d9d920126ce816b166e9,,,,,,,,,,,,./stim/wavs/castilian_mismatch_interrogative-total-yn_Mi-madre-come-la-fruta.wav,1,,,182.1204,184.2365,1,1,1.5834,,0,69,69,26,1,27,0,castilian,,,,,,,,,,,,,,,,,,,,,,,,,,,,,,,,,,,,,,,,,,,,,,,,,,,,,,,,
,,,,,,,,,662ed96620183e2e20bb0751,Mexican,13 or older,"no, only English or Spanish",no,2025-07-24_03h00.23.180,empathy_intonation_perc_control,2024.2.4,Win32,59.52380952,662ed96620183e2e20bb0751,68817205a84113384fffdfe3,6881d9d920126ce816b166e9,,,,,,,,,,,,./stim/wavs/puertorican_match_declarative-broad-focus_Emilio-ama-la-marcha.wav,0,,,184.2372,186.2699,0,1,1.5029,,0,70,70,65,1,66,0,puertorican,,,,,,,,,,,,,,,,,,,,,,,,,,,,,,,,,,,,,,,,,,,,,,,,,,,,,,,,
,,,,,,,,,662ed96620183e2e20bb0751,Mexican,13 or older,"no, only English or Spanish",no,2025-07-24_03h00.23.180,empathy_intonation_perc_control,2024.2.4,Win32,59.52380952,662ed96620183e2e20bb0751,68817205a84113384fffdfe3,6881d9d920126ce816b166e9,,,,,,,,,,,,./stim/wavs/puertorican_match_interrogative-total-yn_Ana-lleva-el-abrigo.wav,1,,,186.2709,188.2869,1,1,1.4831,,0,71,71,18,1,19,1,puertorican,,,,,,,,,,,,,,,,,,,,,,,,,,,,,,,,,,,,,,,,,,,,,,,,,,,,,,,,
,,,,,,,,,662ed96620183e2e20bb0751,Mexican,13 or older,"no, only English or Spanish",no,2025-07-24_03h00.23.180,empathy_intonation_perc_control,2024.2.4,Win32,59.52380952,662ed96620183e2e20bb0751,68817205a84113384fffdfe3,6881d9d920126ce816b166e9,,,,,,,,,,,,./stim/wavs/mexican_match_declarative-broad-focus_Mariano-habla-del-tiempo.wav,0,,,188.2877,190.3204,0,1,1.5004,,0,72,72,60,1,61,0,mexican,,,,,,,,,,,,,,,,,,,,,,,,,,,,,,,,,,,,,,,,,,,,,,,,,,,,,,,,
,,,,,,,,,662ed96620183e2e20bb0751,Mexican,13 or older,"no, only English or Spanish",no,2025-07-24_03h00.23.180,empathy_intonation_perc_control,2024.2.4,Win32,59.52380952,662ed96620183e2e20bb0751,68817205a84113384fffdfe3,6881d9d920126ce816b166e9,,,,,,,,,,,,./stim/wavs/castilian_mismatch_interrogative-total-yn_Mi-novio-viene-del-lago.wav,1,,,190.3214,192.6542,1,1,1.8002,,0,73,73,27,1,28,0,castilian,,,,,,,,,,,,,,,,,,,,,,,,,,,,,,,,,,,,,,,,,,,,,,,,,,,,,,,,
,,,,,,,,,662ed96620183e2e20bb0751,Mexican,13 or older,"no, only English or Spanish",no,2025-07-24_03h00.23.180,empathy_intonation_perc_control,2024.2.4,Win32,59.52380952,662ed96620183e2e20bb0751,68817205a84113384fffdfe3,6881d9d920126ce816b166e9,,,,,,,,,,,,./stim/wavs/mexican_mismatch_declarative-broad-focus_El-bebe-comia-muy-bien.wav,0,,,192.6551,194.7371,0,1,1.5533,,0,74,74,78,1,79,0,mexican,,,,,,,,,,,,,,,,,,,,,,,,,,,,,,,,,,,,,,,,,,,,,,,,,,,,,,,,
,,,,,,,,,662ed96620183e2e20bb0751,Mexican,13 or older,"no, only English or Spanish",no,2025-07-24_03h00.23.180,empathy_intonation_perc_control,2024.2.4,Win32,59.52380952,662ed96620183e2e20bb0751,68817205a84113384fffdfe3,6881d9d920126ce816b166e9,,,,,,,,,,,,./stim/wavs/mexican_match_declarative-broad-focus_Daniel-iba-a-Bolivia.wav,0,,,194.7378,196.8377,0,1,1.5673,,0,75,75,57,1,58,0,mexican,,,,,,,,,,,,,,,,,,,,,,,,,,,,,,,,,,,,,,,,,,,,,,,,,,,,,,,,
,,,,,,,,,662ed96620183e2e20bb0751,Mexican,13 or older,"no, only English or Spanish",no,2025-07-24_03h00.23.180,empathy_intonation_perc_control,2024.2.4,Win32,59.52380952,662ed96620183e2e20bb0751,68817205a84113384fffdfe3,6881d9d920126ce816b166e9,,,,,,,,,,,,./stim/wavs/cuban_match_interrogative-total-yn_Manuela-vende-el-carro.wav,1,,,196.8385,199.0043,0,0,1.6347,,0,76,76,8,1,9,1,cuban,,,,,,,,,,,,,,,,,,,,,,,,,,,,,,,,,,,,,,,,,,,,,,,,,,,,,,,,
,,,,,,,,,662ed96620183e2e20bb0751,Mexican,13 or older,"no, only English or Spanish",no,2025-07-24_03h00.23.180,empathy_intonation_perc_control,2024.2.4,Win32,59.52380952,662ed96620183e2e20bb0751,68817205a84113384fffdfe3,6881d9d920126ce816b166e9,,,,,,,,,,,,./stim/wavs/cuban_match_declarative-broad-focus_Ana-lleva-el-abrigo.wav,0,,,199.0054,201.1877,0,1,1.6551,,0,77,77,50,1,51,0,cuban,,,,,,,,,,,,,,,,,,,,,,,,,,,,,,,,,,,,,,,,,,,,,,,,,,,,,,,,
,,,,,,,,,662ed96620183e2e20bb0751,Mexican,13 or older,"no, only English or Spanish",no,2025-07-24_03h00.23.180,empathy_intonation_perc_control,2024.2.4,Win32,59.52380952,662ed96620183e2e20bb0751,68817205a84113384fffdfe3,6881d9d920126ce816b166e9,,,,,,,,,,,,./stim/wavs/puertorican_match_declarative-broad-focus_Manuela-vende-el-carro.wav,0,,,201.1885,203.1881,0,1,1.4729,,0,78,78,66,1,67,0,puertorican,,,,,,,,,,,,,,,,,,,,,,,,,,,,,,,,,,,,,,,,,,,,,,,,,,,,,,,,
,,,,,,,,,662ed96620183e2e20bb0751,Mexican,13 or older,"no, only English or Spanish",no,2025-07-24_03h00.23.180,empathy_intonation_perc_control,2024.2.4,Win32,59.52380952,662ed96620183e2e20bb0751,68817205a84113384fffdfe3,6881d9d920126ce816b166e9,,,,,,,,,,,,./stim/wavs/cuban_match_declarative-broad-focus_Marta-abre-el-regalo.wav,0,,,203.1888,205.3048,0,1,1.5858,,0,79,79,55,1,56,0,cuban,,,,,,,,,,,,,,,,,,,,,,,,,,,,,,,,,,,,,,,,,,,,,,,,,,,,,,,,
,,,,,,,,,662ed96620183e2e20bb0751,Mexican,13 or older,"no, only English or Spanish",no,2025-07-24_03h00.23.180,empathy_intonation_perc_control,2024.2.4,Win32,59.52380952,662ed96620183e2e20bb0751,68817205a84113384fffdfe3,6881d9d920126ce816b166e9,,,,,,,,,,,,./stim/wavs/mexican_match_interrogative-total-yn_David-leia-el-libro.wav,1,,,205.3058,207.5717,1,1,1.7381,,0,80,80,14,1,15,0,mexican,,,,,,,,,,,,,,,,,,,,,,,,,,,,,,,,,,,,,,,,,,,,,,,,,,,,,,,,
,,,,,,,,,662ed96620183e2e20bb0751,Mexican,13 or older,"no, only English or Spanish",no,2025-07-24_03h00.23.180,empathy_intonation_perc_control,2024.2.4,Win32,59.52380952,662ed96620183e2e20bb0751,68817205a84113384fffdfe3,6881d9d920126ce816b166e9,,,,,,,,,,,,./stim/wavs/mexican_mismatch_interrogative-total-yn_El-hombre-mira-la-luna.wav,1,,,207.5724,209.7715,1,1,1.6738,,0,81,81,34,1,35,0,mexican,,,,,,,,,,,,,,,,,,,,,,,,,,,,,,,,,,,,,,,,,,,,,,,,,,,,,,,,
,,,,,,,,,662ed96620183e2e20bb0751,Mexican,13 or older,"no, only English or Spanish",no,2025-07-24_03h00.23.180,empathy_intonation_perc_control,2024.2.4,Win32,59.52380952,662ed96620183e2e20bb0751,68817205a84113384fffdfe3,6881d9d920126ce816b166e9,,,,,,,,,,,,./stim/wavs/cuban_match_declarative-broad-focus_Mariano-habla-del-tiempo.wav,0,,,209.7722,212.4051,0,1,2.108,,0,82,82,54,1,55,0,cuban,,,,,,,,,,,,,,,,,,,,,,,,,,,,,,,,,,,,,,,,,,,,,,,,,,,,,,,,
,,,,,,,,,662ed96620183e2e20bb0751,Mexican,13 or older,"no, only English or Spanish",no,2025-07-24_03h00.23.180,empathy_intonation_perc_control,2024.2.4,Win32,59.52380952,662ed96620183e2e20bb0751,68817205a84113384fffdfe3,6881d9d920126ce816b166e9,,,,,,,,,,,,./stim/wavs/mexican_mismatch_declarative-broad-focus_Mi-novio-viene-del-lago.wav,0,,,212.406,214.5392,0,1,1.6033,,0,83,83,81,1,82,0,mexican,,,,,,,,,,,,,,,,,,,,,,,,,,,,,,,,,,,,,,,,,,,,,,,,,,,,,,,,
,,,,,,,,,662ed96620183e2e20bb0751,Mexican,13 or older,"no, only English or Spanish",no,2025-07-24_03h00.23.180,empathy_intonation_perc_control,2024.2.4,Win32,59.52380952,662ed96620183e2e20bb0751,68817205a84113384fffdfe3,6881d9d920126ce816b166e9,,,,,,,,,,,,./stim/wavs/cuban_mismatch_declarative-broad-focus_El-hombre-mira-la-luna.wav,0,,,214.54,216.4392,0,1,1.3673,,0,84,84,74,1,75,0,cuban,,,,,,,,,,,,,,,,,,,,,,,,,,,,,,,,,,,,,,,,,,,,,,,,,,,,,,,,
,,,,,,,,,662ed96620183e2e20bb0751,Mexican,13 or older,"no, only English or Spanish",no,2025-07-24_03h00.23.180,empathy_intonation_perc_control,2024.2.4,Win32,59.52380952,662ed96620183e2e20bb0751,68817205a84113384fffdfe3,6881d9d920126ce816b166e9,,,,,,,,,,,,./stim/wavs/cuban_match_declarative-broad-focus_Daniel-iba-a-Bolivia.wav,0,,,216.4413,218.3726,0,1,1.4011,,0,85,85,51,1,52,0,cuban,,,,,,,,,,,,,,,,,,,,,,,,,,,,,,,,,,,,,,,,,,,,,,,,,,,,,,,,
,,,,,,,,,662ed96620183e2e20bb0751,Mexican,13 or older,"no, only English or Spanish",no,2025-07-24_03h00.23.180,empathy_intonation_perc_control,2024.2.4,Win32,59.52380952,662ed96620183e2e20bb0751,68817205a84113384fffdfe3,6881d9d920126ce816b166e9,,,,,,,,,,,,./stim/wavs/mexican_mismatch_declarative-broad-focus_La-maestra-vive-en-Paris.wav,0,,,218.3735,220.4058,0,1,1.5066,,0,86,86,80,1,81,0,mexican,,,,,,,,,,,,,,,,,,,,,,,,,,,,,,,,,,,,,,,,,,,,,,,,,,,,,,,,
,,,,,,,,,662ed96620183e2e20bb0751,Mexican,13 or older,"no, only English or Spanish",no,2025-07-24_03h00.23.180,empathy_intonation_perc_control,2024.2.4,Win32,59.52380952,662ed96620183e2e20bb0751,68817205a84113384fffdfe3,6881d9d920126ce816b166e9,,,,,,,,,,,,./stim/wavs/cuban_mismatch_interrogative-total-yn_Mi-tia-odia-la-lluvia.wav,1,,,220.4065,222.356,0,0,1.4187,,0,87,87,33,1,34,1,cuban,,,,,,,,,,,,,,,,,,,,,,,,,,,,,,,,,,,,,,,,,,,,,,,,,,,,,,,,
,,,,,,,"Great! Now we will move on. The next task consists of about 60 trials, in each of which you will see a string of letters. 
  
  Your task is to decide whether this is a real Spanish word or not.", (press the spacebar to continue),662ed96620183e2e20bb0751,Mexican,13 or older,"no, only English or Spanish",no,2025-07-24_03h00.23.180,empathy_intonation_perc_control,2024.2.4,Win32,59.52380952,662ed96620183e2e20bb0751,68817205a84113384fffdfe3,6881d9d920126ce816b166e9,,,,,,,,,,,,,,,,,,,,,,,,,,,,,,222.3622,231.6571,0,0,0,0,1,,,,,,,,,,,,,,,,,,,,,,,,,,,,,,,,,,,,,,,,,,,,,,,,,
,,,,,,,"If you think it is an existing Spanish word, you type '1' (for 'REAL'), and if you think it is not an existing Spanish word, you type '0' (for 'FAKE').", (press the spacebar to continue),662ed96620183e2e20bb0751,Mexican,13 or older,"no, only English or Spanish",no,2025-07-24_03h00.23.180,empathy_intonation_perc_control,2024.2.4,Win32,59.52380952,662ed96620183e2e20bb0751,68817205a84113384fffdfe3,6881d9d920126ce816b166e9,,,,,,,,,,,,,,,,,,,,,,,,,,,,,,231.6597,233.9238,0,1,1,1,1,,,,,,,,,,,,,,,,,,,,,,,,,,,,,,,,,,,,,,,,,,,,,,,,,
,,,,,,,"If you are sure that the word exists, even though you don’t know its exact meaning, you may still respond '1' (REAL). 
  
  But if you are not sure if it is an existing word, you should respond '0' (FAKE).
  
  Let's do a practice round...", (press the spacebar to continue),662ed96620183e2e20bb0751,Mexican,13 or older,"no, only English or Spanish",no,2025-07-24_03h00.23.180,empathy_intonation_perc_control,2024.2.4,Win32,59.52380952,662ed96620183e2e20bb0751,68817205a84113384fffdfe3,6881d9d920126ce816b166e9,,,,,,,,,,,,,,,,,,,,,,,,,,,,,,233.9258,237.7744,0,2,2,2,1,,,,,,,,,,,,,,,,,,,,,,,,,,,,,,,,,,,,,,,,,,,,,,,,,
,,,,,,,,,662ed96620183e2e20bb0751,Mexican,13 or older,"no, only English or Spanish",no,2025-07-24_03h00.23.180,empathy_intonation_perc_control,2024.2.4,Win32,59.52380952,662ed96620183e2e20bb0751,68817205a84113384fffdfe3,6881d9d920126ce816b166e9,,,,,,,,,,,,,0,,,,,,,,,,,,,,,,,,,,,,,,237.7799,243.475,0,1,5.1618,,243.4753,244.4751,0,0,0,0,1,0,depiste,REAL,FAKE,,,,,,,,,,,,,,,,,,,,,,,,,,,,,,,,
,,,,,,,,,662ed96620183e2e20bb0751,Mexican,13 or older,"no, only English or Spanish",no,2025-07-24_03h00.23.180,empathy_intonation_perc_control,2024.2.4,Win32,59.52380952,662ed96620183e2e20bb0751,68817205a84113384fffdfe3,6881d9d920126ce816b166e9,,,,,,,,,,,,,1,,,,,,,,,,,,,,,,,,,,,,,,244.4795,246.1081,1,1,1.0983,,246.1083,247.1082,0,1,1,1,1,0,sí,REAL,FAKE,,,,,,,,,,,,,,,,,,,,,,,,,,,,,,,,
,,,,,,,,,662ed96620183e2e20bb0751,Mexican,13 or older,"no, only English or Spanish",no,2025-07-24_03h00.23.180,empathy_intonation_perc_control,2024.2.4,Win32,59.52380952,662ed96620183e2e20bb0751,68817205a84113384fffdfe3,6881d9d920126ce816b166e9,,,,,,,,,,,,,0,,,,,,,,,,,,,,,,,,,,,,,,247.1103,248.3917,0,1,0.7457,,248.3918,249.3917,0,2,2,2,1,0,coné,REAL,FAKE,,,,,,,,,,,,,,,,,,,,,,,,,,,,,,,,
,,,,,,,,,662ed96620183e2e20bb0751,Mexican,13 or older,"no, only English or Spanish",no,2025-07-24_03h00.23.180,empathy_intonation_perc_control,2024.2.4,Win32,59.52380952,662ed96620183e2e20bb0751,68817205a84113384fffdfe3,6881d9d920126ce816b166e9,,,,,,,,,,,,,0,,,,,,,,,,,,,,,,,,,,,,,,249.3934,250.5585,0,1,0.6468,,250.5586,251.5586,0,3,3,3,1,0,calpar,REAL,FAKE,,,,,,,,,,,,,,,,,,,,,,,,,,,,,,,,
,,,,,,,,,662ed96620183e2e20bb0751,Mexican,13 or older,"no, only English or Spanish",no,2025-07-24_03h00.23.180,empathy_intonation_perc_control,2024.2.4,Win32,59.52380952,662ed96620183e2e20bb0751,68817205a84113384fffdfe3,6881d9d920126ce816b166e9,,,,,,,,,,,,,0,,,,,,,,,,,,,,,,,,,,,,,,251.5603,252.9258,0,1,0.83,,252.9259,253.9253,0,4,4,4,1,0,joten,REAL,FAKE,,,,,,,,,,,,,,,,,,,,,,,,,,,,,,,,
,,,,,,,,,662ed96620183e2e20bb0751,Mexican,13 or older,"no, only English or Spanish",no,2025-07-24_03h00.23.180,empathy_intonation_perc_control,2024.2.4,Win32,59.52380952,662ed96620183e2e20bb0751,68817205a84113384fffdfe3,6881d9d920126ce816b166e9,,,,,,,,,,,,,1,,,,,,,,,,,,,,,,,,,,,,,,253.9263,255.2754,0,0,0.8192,,255.2768,256.2757,0,5,5,5,1,0,sacapuntas,REAL,FAKE,,,,,,,,,,,,,,,,,,,,,,,,,,,,,,,,
,,,,,,,,,662ed96620183e2e20bb0751,Mexican,13 or older,"no, only English or Spanish",no,2025-07-24_03h00.23.180,empathy_intonation_perc_control,2024.2.4,Win32,59.52380952,662ed96620183e2e20bb0751,68817205a84113384fffdfe3,6881d9d920126ce816b166e9,,,,,,,,,,,,,0,,,,,,,,,,,,,,,,,,,,,,,,256.2773,257.5259,0,1,0.7296,,257.5266,258.5261,0,6,6,6,1,0,priba,REAL,FAKE,,,,,,,,,,,,,,,,,,,,,,,,,,,,,,,,
,,,,,,,,,662ed96620183e2e20bb0751,Mexican,13 or older,"no, only English or Spanish",no,2025-07-24_03h00.23.180,empathy_intonation_perc_control,2024.2.4,Win32,59.52380952,662ed96620183e2e20bb0751,68817205a84113384fffdfe3,6881d9d920126ce816b166e9,,,,,,,,,,,,,0,,,,,,,,,,,,,,,,,,,,,,,,258.527,259.6597,0,1,0.5973,,259.6598,260.6596,0,7,7,7,1,0,pelasula,REAL,FAKE,,,,,,,,,,,,,,,,,,,,,,,,,,,,,,,,
,,,,,,,,,662ed96620183e2e20bb0751,Mexican,13 or older,"no, only English or Spanish",no,2025-07-24_03h00.23.180,empathy_intonation_perc_control,2024.2.4,Win32,59.52380952,662ed96620183e2e20bb0751,68817205a84113384fffdfe3,6881d9d920126ce816b166e9,,,,,,,,,,,,,1,,,,,,,,,,,,,,,,,,,,,,,,260.6615,261.8097,1,1,0.6178,,261.8098,262.81,0,8,8,8,1,0,bien,REAL,FAKE,,,,,,,,,,,,,,,,,,,,,,,,,,,,,,,,
,,,,,,,,,662ed96620183e2e20bb0751,Mexican,13 or older,"no, only English or Spanish",no,2025-07-24_03h00.23.180,empathy_intonation_perc_control,2024.2.4,Win32,59.52380952,662ed96620183e2e20bb0751,68817205a84113384fffdfe3,6881d9d920126ce816b166e9,,,,,,,,,,,,,1,,,,,,,,,,,,,,,,,,,,,,,,262.8109,263.826,1,1,0.4879,,263.8261,264.8264,0,9,9,9,1,0,casa,REAL,FAKE,,,,,,,,,,,,,,,,,,,,,,,,,,,,,,,,
,,,,,,,,,662ed96620183e2e20bb0751,Mexican,13 or older,"no, only English or Spanish",no,2025-07-24_03h00.23.180,empathy_intonation_perc_control,2024.2.4,Win32,59.52380952,662ed96620183e2e20bb0751,68817205a84113384fffdfe3,6881d9d920126ce816b166e9,,,,,,,,,,,,,0,,,,,,,,,,,,,,,,,,,,,,,,264.8281,265.7932,1,0,0.4297,,265.7943,266.7932,0,10,10,10,1,0,lejo,REAL,FAKE,,,,,,,,,,,,,,,,,,,,,,,,,,,,,,,,
,,,,,,,,,662ed96620183e2e20bb0751,Mexican,13 or older,"no, only English or Spanish",no,2025-07-24_03h00.23.180,empathy_intonation_perc_control,2024.2.4,Win32,59.52380952,662ed96620183e2e20bb0751,68817205a84113384fffdfe3,6881d9d920126ce816b166e9,,,,,,,,,,,,,0,,,,,,,,,,,,,,,,,,,,,,,,266.7944,267.9596,1,0,0.6379,,267.9597,268.96,0,11,11,11,1,0,pretantas,REAL,FAKE,,,,,,,,,,,,,,,,,,,,,,,,,,,,,,,,
,,,,,,,,,662ed96620183e2e20bb0751,Mexican,13 or older,"no, only English or Spanish",no,2025-07-24_03h00.23.180,empathy_intonation_perc_control,2024.2.4,Win32,59.52380952,662ed96620183e2e20bb0751,68817205a84113384fffdfe3,6881d9d920126ce816b166e9,,,,,,,,,,,,,,,,,,,,,,,,,,,,,,,,,,,,,,,,,,,,,,,,,,,,,,268.9603,270.1105,,,,,,,,,,,,,,,,,,,,,,,,,,,,,,
,,,,,,,,,662ed96620183e2e20bb0751,Mexican,13 or older,"no, only English or Spanish",no,2025-07-24_03h00.23.180,empathy_intonation_perc_control,2024.2.4,Win32,59.52380952,662ed96620183e2e20bb0751,68817205a84113384fffdfe3,6881d9d920126ce816b166e9,,,,,,,,,,,,,0,,,,,,,,,,,,,,,,,,,,,,,,,,,,,,,,,,,,,23,lampera,,,,,270.1193,271.4944,1,0,0.8476,,0,0,0,22,1,REAL,FAKE,,,,,,,,,,,,,,,,,
,,,,,,,,,662ed96620183e2e20bb0751,Mexican,13 or older,"no, only English or Spanish",no,2025-07-24_03h00.23.180,empathy_intonation_perc_control,2024.2.4,Win32,59.52380952,662ed96620183e2e20bb0751,68817205a84113384fffdfe3,6881d9d920126ce816b166e9,,,,,,,,,,,,,1,,,,,,,,,,,,,,,,,,,,,,,,,,,,,,,,,,,,,36,loro,,,,,271.4963,273.1438,1,1,1.1145,,0,1,1,35,1,REAL,FAKE,,,,,,,,,,,,,,,,,
,,,,,,,,,662ed96620183e2e20bb0751,Mexican,13 or older,"no, only English or Spanish",no,2025-07-24_03h00.23.180,empathy_intonation_perc_control,2024.2.4,Win32,59.52380952,662ed96620183e2e20bb0751,68817205a84113384fffdfe3,6881d9d920126ce816b166e9,,,,,,,,,,,,,1,,,,,,,,,,,,,,,,,,,,,,,,,,,,,,,,,,,,,76,atar,,,,,273.1449,274.8107,0,0,1.1308,,0,2,2,75,1,REAL,FAKE,,,,,,,,,,,,,,,,,
,,,,,,,,,662ed96620183e2e20bb0751,Mexican,13 or older,"no, only English or Spanish",no,2025-07-24_03h00.23.180,empathy_intonation_perc_control,2024.2.4,Win32,59.52380952,662ed96620183e2e20bb0751,68817205a84113384fffdfe3,6881d9d920126ce816b166e9,,,,,,,,,,,,,1,,,,,,,,,,,,,,,,,,,,,,,,,,,,,,,,,,,,,24,látigo,,,,,274.8127,276.9607,0,0,1.6191,,0,3,3,23,1,REAL,FAKE,,,,,,,,,,,,,,,,,
,,,,,,,,,662ed96620183e2e20bb0751,Mexican,13 or older,"no, only English or Spanish",no,2025-07-24_03h00.23.180,empathy_intonation_perc_control,2024.2.4,Win32,59.52380952,662ed96620183e2e20bb0751,68817205a84113384fffdfe3,6881d9d920126ce816b166e9,,,,,,,,,,,,,1,,,,,,,,,,,,,,,,,,,,,,,,,,,,,,,,,,,,,22,lacayo,,,,,276.9622,278.5107,1,1,1.0184,,0,4,4,21,1,REAL,FAKE,,,,,,,,,,,,,,,,,
,,,,,,,,,662ed96620183e2e20bb0751,Mexican,13 or older,"no, only English or Spanish",no,2025-07-24_03h00.23.180,empathy_intonation_perc_control,2024.2.4,Win32,59.52380952,662ed96620183e2e20bb0751,68817205a84113384fffdfe3,6881d9d920126ce816b166e9,,,,,,,,,,,,,1,,,,,,,,,,,,,,,,,,,,,,,,,,,,,,,,,,,,,2,pellizcar,,,,,278.5121,279.794,0,0,0.756,,0,5,5,1,1,REAL,FAKE,,,,,,,,,,,,,,,,,
,,,,,,,,,662ed96620183e2e20bb0751,Mexican,13 or older,"no, only English or Spanish",no,2025-07-24_03h00.23.180,empathy_intonation_perc_control,2024.2.4,Win32,59.52380952,662ed96620183e2e20bb0751,68817205a84113384fffdfe3,6881d9d920126ce816b166e9,,,,,,,,,,,,,1,,,,,,,,,,,,,,,,,,,,,,,,,,,,,,,,,,,,,20,ávido,,,,,279.7956,281.2613,1,1,0.947,,0,6,6,19,1,REAL,FAKE,,,,,,,,,,,,,,,,,
,,,,,,,,,662ed96620183e2e20bb0751,Mexican,13 or older,"no, only English or Spanish",no,2025-07-24_03h00.23.180,empathy_intonation_perc_control,2024.2.4,Win32,59.52380952,662ed96620183e2e20bb0751,68817205a84113384fffdfe3,6881d9d920126ce816b166e9,,,,,,,,,,,,,1,,,,,,,,,,,,,,,,,,,,,,,,,,,,,,,,,,,,,59,besar,,,,,281.2626,283.1777,0,0,1.3846,,0,7,7,58,1,REAL,FAKE,,,,,,,,,,,,,,,,,
,,,,,,,,,662ed96620183e2e20bb0751,Mexican,13 or older,"no, only English or Spanish",no,2025-07-24_03h00.23.180,empathy_intonation_perc_control,2024.2.4,Win32,59.52380952,662ed96620183e2e20bb0751,68817205a84113384fffdfe3,6881d9d920126ce816b166e9,,,,,,,,,,,,,1,,,,,,,,,,,,,,,,,,,,,,,,,,,,,,,,,,,,,69,engatusar,,,,,283.1787,284.962,1,1,1.2499,,0,8,8,68,1,REAL,FAKE,,,,,,,,,,,,,,,,,
,,,,,,,,,662ed96620183e2e20bb0751,Mexican,13 or older,"no, only English or Spanish",no,2025-07-24_03h00.23.180,empathy_intonation_perc_control,2024.2.4,Win32,59.52380952,662ed96620183e2e20bb0751,68817205a84113384fffdfe3,6881d9d920126ce816b166e9,,,,,,,,,,,,,1,,,,,,,,,,,,,,,,,,,,,,,,,,,,,,,,,,,,,67,cabello,,,,,284.9632,286.945,1,1,1.447,,0,9,9,66,1,REAL,FAKE,,,,,,,,,,,,,,,,,
,,,,,,,,,662ed96620183e2e20bb0751,Mexican,13 or older,"no, only English or Spanish",no,2025-07-24_03h00.23.180,empathy_intonation_perc_control,2024.2.4,Win32,59.52380952,662ed96620183e2e20bb0751,68817205a84113384fffdfe3,6881d9d920126ce816b166e9,,,,,,,,,,,,,1,,,,,,,,,,,,,,,,,,,,,,,,,,,,,,,,,,,,,60,matar,,,,,286.9464,288.6118,0,0,1.1309,,0,10,10,59,1,REAL,FAKE,,,,,,,,,,,,,,,,,
,,,,,,,,,662ed96620183e2e20bb0751,Mexican,13 or older,"no, only English or Spanish",no,2025-07-24_03h00.23.180,empathy_intonation_perc_control,2024.2.4,Win32,59.52380952,662ed96620183e2e20bb0751,68817205a84113384fffdfe3,6881d9d920126ce816b166e9,,,,,,,,,,,,,0,,,,,,,,,,,,,,,,,,,,,,,,,,,,,,,,,,,,,17,floroso,,,,,288.6134,290.3614,0,1,1.2198,,0,11,11,16,1,REAL,FAKE,,,,,,,,,,,,,,,,,
,,,,,,,,,662ed96620183e2e20bb0751,Mexican,13 or older,"no, only English or Spanish",no,2025-07-24_03h00.23.180,empathy_intonation_perc_control,2024.2.4,Win32,59.52380952,662ed96620183e2e20bb0751,68817205a84113384fffdfe3,6881d9d920126ce816b166e9,,,,,,,,,,,,,0,,,,,,,,,,,,,,,,,,,,,,,,,,,,,,,,,,,,,47,cartinar,,,,,290.3626,292.5454,0,1,1.655,,0,12,12,46,1,REAL,FAKE,,,,,,,,,,,,,,,,,
,,,,,,,,,662ed96620183e2e20bb0751,Mexican,13 or older,"no, only English or Spanish",no,2025-07-24_03h00.23.180,empathy_intonation_perc_control,2024.2.4,Win32,59.52380952,662ed96620183e2e20bb0751,68817205a84113384fffdfe3,6881d9d920126ce816b166e9,,,,,,,,,,,,,0,,,,,,,,,,,,,,,,,,,,,,,,,,,,,,,,,,,,,72,pemición,,,,,292.5472,294.1623,1,0,1.0804,,0,13,13,71,1,REAL,FAKE,,,,,,,,,,,,,,,,,
,,,,,,,,,662ed96620183e2e20bb0751,Mexican,13 or older,"no, only English or Spanish",no,2025-07-24_03h00.23.180,empathy_intonation_perc_control,2024.2.4,Win32,59.52380952,662ed96620183e2e20bb0751,68817205a84113384fffdfe3,6881d9d920126ce816b166e9,,,,,,,,,,,,,1,,,,,,,,,,,,,,,,,,,,,,,,,,,,,,,,,,,,,6,tergiversar,,,,,294.1637,296.9457,0,0,2.2513,,0,14,14,5,1,REAL,FAKE,,,,,,,,,,,,,,,,,
,,,,,,,,,662ed96620183e2e20bb0751,Mexican,13 or older,"no, only English or Spanish",no,2025-07-24_03h00.23.180,empathy_intonation_perc_control,2024.2.4,Win32,59.52380952,662ed96620183e2e20bb0751,68817205a84113384fffdfe3,6881d9d920126ce816b166e9,,,,,,,,,,,,,1,,,,,,,,,,,,,,,,,,,,,,,,,,,,,,,,,,,,,61,seda,,,,,296.9468,298.4292,1,1,0.9483,,0,15,15,60,1,REAL,FAKE,,,,,,,,,,,,,,,,,
,,,,,,,,,662ed96620183e2e20bb0751,Mexican,13 or older,"no, only English or Spanish",no,2025-07-24_03h00.23.180,empathy_intonation_perc_control,2024.2.4,Win32,59.52380952,662ed96620183e2e20bb0751,68817205a84113384fffdfe3,6881d9d920126ce816b166e9,,,,,,,,,,,,,1,,,,,,,,,,,,,,,,,,,,,,,,,,,,,,,,,,,,,14,yunque,,,,,298.4304,299.9626,0,0,0.9959,,0,16,16,13,1,REAL,FAKE,,,,,,,,,,,,,,,,,
,,,,,,,,,662ed96620183e2e20bb0751,Mexican,13 or older,"no, only English or Spanish",no,2025-07-24_03h00.23.180,empathy_intonation_perc_control,2024.2.4,Win32,59.52380952,662ed96620183e2e20bb0751,68817205a84113384fffdfe3,6881d9d920126ce816b166e9,,,,,,,,,,,,,1,,,,,,,,,,,,,,,,,,,,,,,,,,,,,,,,,,,,,78,frondoso,,,,,299.9636,302.2127,0,0,1.7123,,0,17,17,77,1,REAL,FAKE,,,,,,,,,,,,,,,,,
,,,,,,,,,662ed96620183e2e20bb0751,Mexican,13 or older,"no, only English or Spanish",no,2025-07-24_03h00.23.180,empathy_intonation_perc_control,2024.2.4,Win32,59.52380952,662ed96620183e2e20bb0751,68817205a84113384fffdfe3,6881d9d920126ce816b166e9,,,,,,,,,,,,,0,,,,,,,,,,,,,,,,,,,,,,,,,,,,,,,,,,,,,58,plaudir,,,,,302.2139,304.7294,0,1,1.9893,,0,18,18,57,1,REAL,FAKE,,,,,,,,,,,,,,,,,
,,,,,,,,,662ed96620183e2e20bb0751,Mexican,13 or older,"no, only English or Spanish",no,2025-07-24_03h00.23.180,empathy_intonation_perc_control,2024.2.4,Win32,59.52380952,662ed96620183e2e20bb0751,68817205a84113384fffdfe3,6881d9d920126ce816b166e9,,,,,,,,,,,,,0,,,,,,,,,,,,,,,,,,,,,,,,,,,,,,,,,,,,,84,escuto,,,,,304.7306,305.9964,1,0,0.7299,,0,19,19,83,1,REAL,FAKE,,,,,,,,,,,,,,,,,
,,,,,,,,,662ed96620183e2e20bb0751,Mexican,13 or older,"no, only English or Spanish",no,2025-07-24_03h00.23.180,empathy_intonation_perc_control,2024.2.4,Win32,59.52380952,662ed96620183e2e20bb0751,68817205a84113384fffdfe3,6881d9d920126ce816b166e9,,,,,,,,,,,,,1,,,,,,,,,,,,,,,,,,,,,,,,,,,,,,,,,,,,,57,tacaño,,,,,305.9978,307.2129,1,1,0.6888,,0,20,20,56,1,REAL,FAKE,,,,,,,,,,,,,,,,,
,,,,,,,,,662ed96620183e2e20bb0751,Mexican,13 or older,"no, only English or Spanish",no,2025-07-24_03h00.23.180,empathy_intonation_perc_control,2024.2.4,Win32,59.52380952,662ed96620183e2e20bb0751,68817205a84113384fffdfe3,6881d9d920126ce816b166e9,,,,,,,,,,,,,0,,,,,,,,,,,,,,,,,,,,,,,,,,,,,,,,,,,,,30,alardio,,,,,307.2139,308.7634,1,0,1.0131,,0,21,21,29,1,REAL,FAKE,,,,,,,,,,,,,,,,,
,,,,,,,,,662ed96620183e2e20bb0751,Mexican,13 or older,"no, only English or Spanish",no,2025-07-24_03h00.23.180,empathy_intonation_perc_control,2024.2.4,Win32,59.52380952,662ed96620183e2e20bb0751,68817205a84113384fffdfe3,6881d9d920126ce816b166e9,,,,,,,,,,,,,0,,,,,,,,,,,,,,,,,,,,,,,,,,,,,,,,,,,,,18,arsa,,,,,308.7656,310.6969,1,0,1.3995,,0,22,22,17,1,REAL,FAKE,,,,,,,,,,,,,,,,,
,,,,,,,,,662ed96620183e2e20bb0751,Mexican,13 or older,"no, only English or Spanish",no,2025-07-24_03h00.23.180,empathy_intonation_perc_control,2024.2.4,Win32,59.52380952,662ed96620183e2e20bb0751,68817205a84113384fffdfe3,6881d9d920126ce816b166e9,,,,,,,,,,,,,0,,,,,,,,,,,,,,,,,,,,,,,,,,,,,,,,,,,,,4,batillón,,,,,310.6983,312.4639,0,1,1.2367,,0,23,23,3,1,REAL,FAKE,,,,,,,,,,,,,,,,,
,,,,,,,,,662ed96620183e2e20bb0751,Mexican,13 or older,"no, only English or Spanish",no,2025-07-24_03h00.23.180,empathy_intonation_perc_control,2024.2.4,Win32,59.52380952,662ed96620183e2e20bb0751,68817205a84113384fffdfe3,6881d9d920126ce816b166e9,,,,,,,,,,,,,0,,,,,,,,,,,,,,,,,,,,,,,,,,,,,,,,,,,,,82,empirador,,,,,312.4648,314.5304,0,1,1.5373,,0,24,24,81,1,REAL,FAKE,,,,,,,,,,,,,,,,,
,,,,,,,,,662ed96620183e2e20bb0751,Mexican,13 or older,"no, only English or Spanish",no,2025-07-24_03h00.23.180,empathy_intonation_perc_control,2024.2.4,Win32,59.52380952,662ed96620183e2e20bb0751,68817205a84113384fffdfe3,6881d9d920126ce816b166e9,,,,,,,,,,,,,1,,,,,,,,,,,,,,,,,,,,,,,,,,,,,,,,,,,,,55,nevar,,,,,314.5314,316.0139,0,0,0.9486,,0,25,25,54,1,REAL,FAKE,,,,,,,,,,,,,,,,,
,,,,,,,,,662ed96620183e2e20bb0751,Mexican,13 or older,"no, only English or Spanish",no,2025-07-24_03h00.23.180,empathy_intonation_perc_control,2024.2.4,Win32,59.52380952,662ed96620183e2e20bb0751,68817205a84113384fffdfe3,6881d9d920126ce816b166e9,,,,,,,,,,,,,1,,,,,,,,,,,,,,,,,,,,,,,,,,,,,,,,,,,,,75,yacer,,,,,316.0151,317.9474,0,0,1.3995,,0,26,26,74,1,REAL,FAKE,,,,,,,,,,,,,,,,,
,,,,,,,,,662ed96620183e2e20bb0751,Mexican,13 or older,"no, only English or Spanish",no,2025-07-24_03h00.23.180,empathy_intonation_perc_control,2024.2.4,Win32,59.52380952,662ed96620183e2e20bb0751,68817205a84113384fffdfe3,6881d9d920126ce816b166e9,,,,,,,,,,,,,1,,,,,,,,,,,,,,,,,,,,,,,,,,,,,,,,,,,,,86,barato,,,,,317.9486,320.4814,1,1,2.0042,,0,27,27,85,1,REAL,FAKE,,,,,,,,,,,,,,,,,
,,,,,,,,,662ed96620183e2e20bb0751,Mexican,13 or older,"no, only English or Spanish",no,2025-07-24_03h00.23.180,empathy_intonation_perc_control,2024.2.4,Win32,59.52380952,662ed96620183e2e20bb0751,68817205a84113384fffdfe3,6881d9d920126ce816b166e9,,,,,,,,,,,,,0,,,,,,,,,,,,,,,,,,,,,,,,,,,,,,,,,,,,,70,temblo,,,,,320.4824,321.6977,1,0,0.6793,,0,28,28,69,1,REAL,FAKE,,,,,,,,,,,,,,,,,
,,,,,,,,,662ed96620183e2e20bb0751,Mexican,13 or older,"no, only English or Spanish",no,2025-07-24_03h00.23.180,empathy_intonation_perc_control,2024.2.4,Win32,59.52380952,662ed96620183e2e20bb0751,68817205a84113384fffdfe3,6881d9d920126ce816b166e9,,,,,,,,,,,,,1,,,,,,,,,,,,,,,,,,,,,,,,,,,,,,,,,,,,,64,orgulloso,,,,,321.6988,323.4311,1,1,1.1976,,0,29,29,63,1,REAL,FAKE,,,,,,,,,,,,,,,,,
,,,,,,,,,662ed96620183e2e20bb0751,Mexican,13 or older,"no, only English or Spanish",no,2025-07-24_03h00.23.180,empathy_intonation_perc_control,2024.2.4,Win32,59.52380952,662ed96620183e2e20bb0751,68817205a84113384fffdfe3,6881d9d920126ce816b166e9,,,,,,,,,,,,,1,,,,,,,,,,,,,,,,,,,,,,,,,,,,,,,,,,,,,28,merodear,,,,,323.4322,325.7479,1,1,1.7877,,0,30,30,27,1,REAL,FAKE,,,,,,,,,,,,,,,,,
,,,,,,,,,662ed96620183e2e20bb0751,Mexican,13 or older,"no, only English or Spanish",no,2025-07-24_03h00.23.180,empathy_intonation_perc_control,2024.2.4,Win32,59.52380952,662ed96620183e2e20bb0751,68817205a84113384fffdfe3,6881d9d920126ce816b166e9,,,,,,,,,,,,,1,,,,,,,,,,,,,,,,,,,,,,,,,,,,,,,,,,,,,56,musgo,,,,,325.7488,327.2311,0,0,0.9694,,0,31,31,55,1,REAL,FAKE,,,,,,,,,,,,,,,,,
,,,,,,,,,662ed96620183e2e20bb0751,Mexican,13 or older,"no, only English or Spanish",no,2025-07-24_03h00.23.180,empathy_intonation_perc_control,2024.2.4,Win32,59.52380952,662ed96620183e2e20bb0751,68817205a84113384fffdfe3,6881d9d920126ce816b166e9,,,,,,,,,,,,,1,,,,,,,,,,,,,,,,,,,,,,,,,,,,,,,,,,,,,71,polvoriento,,,,,327.2323,328.9816,1,1,1.2127,,0,32,32,70,1,REAL,FAKE,,,,,,,,,,,,,,,,,
,,,,,,,,,662ed96620183e2e20bb0751,Mexican,13 or older,"no, only English or Spanish",no,2025-07-24_03h00.23.180,empathy_intonation_perc_control,2024.2.4,Win32,59.52380952,662ed96620183e2e20bb0751,68817205a84113384fffdfe3,6881d9d920126ce816b166e9,,,,,,,,,,,,,1,,,,,,,,,,,,,,,,,,,,,,,,,,,,,,,,,,,,,88,acantilado,,,,,328.9828,331.6323,0,0,2.1149,,0,33,33,87,1,REAL,FAKE,,,,,,,,,,,,,,,,,
,,,,,,,,,662ed96620183e2e20bb0751,Mexican,13 or older,"no, only English or Spanish",no,2025-07-24_03h00.23.180,empathy_intonation_perc_control,2024.2.4,Win32,59.52380952,662ed96620183e2e20bb0751,68817205a84113384fffdfe3,6881d9d920126ce816b166e9,,,,,,,,,,,,,1,,,,,,,,,,,,,,,,,,,,,,,,,,,,,,,,,,,,,39,torpe,,,,,331.6336,332.9819,0,0,0.8145,,0,34,34,38,1,REAL,FAKE,,,,,,,,,,,,,,,,,
,,,,,,,,,662ed96620183e2e20bb0751,Mexican,13 or older,"no, only English or Spanish",no,2025-07-24_03h00.23.180,empathy_intonation_perc_control,2024.2.4,Win32,59.52380952,662ed96620183e2e20bb0751,68817205a84113384fffdfe3,6881d9d920126ce816b166e9,,,,,,,,,,,,,0,,,,,,,,,,,,,,,,,,,,,,,,,,,,,,,,,,,,,42,cadallo,,,,,332.983,334.9487,1,0,1.4401,,0,35,35,41,1,REAL,FAKE,,,,,,,,,,,,,,,,,
,,,,,,,,,662ed96620183e2e20bb0751,Mexican,13 or older,"no, only English or Spanish",no,2025-07-24_03h00.23.180,empathy_intonation_perc_control,2024.2.4,Win32,59.52380952,662ed96620183e2e20bb0751,68817205a84113384fffdfe3,6881d9d920126ce816b166e9,,,,,,,,,,,,,1,,,,,,,,,,,,,,,,,,,,,,,,,,,,,,,,,,,,,40,alfombra,,,,,334.9508,336.0825,0,0,0.6013,,0,36,36,39,1,REAL,FAKE,,,,,,,,,,,,,,,,,
,,,,,,,,,662ed96620183e2e20bb0751,Mexican,13 or older,"no, only English or Spanish",no,2025-07-24_03h00.23.180,empathy_intonation_perc_control,2024.2.4,Win32,59.52380952,662ed96620183e2e20bb0751,68817205a84113384fffdfe3,6881d9d920126ce816b166e9,,,,,,,,,,,,,1,,,,,,,,,,,,,,,,,,,,,,,,,,,,,,,,,,,,,13,helar,,,,,336.0843,337.2487,0,0,0.6272,,0,37,37,12,1,REAL,FAKE,,,,,,,,,,,,,,,,,
,,,,,,,,,662ed96620183e2e20bb0751,Mexican,13 or older,"no, only English or Spanish",no,2025-07-24_03h00.23.180,empathy_intonation_perc_control,2024.2.4,Win32,59.52380952,662ed96620183e2e20bb0751,68817205a84113384fffdfe3,6881d9d920126ce816b166e9,,,,,,,,,,,,,1,,,,,,,,,,,,,,,,,,,,,,,,,,,,,,,,,,,,,9,hacha,,,,,337.2507,338.299,0,0,0.5102,,0,38,38,8,1,REAL,FAKE,,,,,,,,,,,,,,,,,
,,,,,,,,,662ed96620183e2e20bb0751,Mexican,13 or older,"no, only English or Spanish",no,2025-07-24_03h00.23.180,empathy_intonation_perc_control,2024.2.4,Win32,59.52380952,662ed96620183e2e20bb0751,68817205a84113384fffdfe3,6881d9d920126ce816b166e9,,,,,,,,,,,,,1,,,,,,,,,,,,,,,,,,,,,,,,,,,,,,,,,,,,,48,ladrón,,,,,338.3001,339.7663,1,1,0.9183,,0,39,39,47,1,REAL,FAKE,,,,,,,,,,,,,,,,,
,,,,,,,,,662ed96620183e2e20bb0751,Mexican,13 or older,"no, only English or Spanish",no,2025-07-24_03h00.23.180,empathy_intonation_perc_control,2024.2.4,Win32,59.52380952,662ed96620183e2e20bb0751,68817205a84113384fffdfe3,6881d9d920126ce816b166e9,,,,,,,,,,,,,0,,,,,,,,,,,,,,,,,,,,,,,,,,,,,,,,,,,,,79,tropaje,,,,,339.7684,340.9991,1,0,0.6929,,0,40,40,78,1,REAL,FAKE,,,,,,,,,,,,,,,,,
,,,,,,,,,662ed96620183e2e20bb0751,Mexican,13 or older,"no, only English or Spanish",no,2025-07-24_03h00.23.180,empathy_intonation_perc_control,2024.2.4,Win32,59.52380952,662ed96620183e2e20bb0751,68817205a84113384fffdfe3,6881d9d920126ce816b166e9,,,,,,,,,,,,,0,,,,,,,,,,,,,,,,,,,,,,,,,,,,,,,,,,,,,27,acutación,,,,,341.0005,342.5164,1,0,0.9687,,0,41,41,26,1,REAL,FAKE,,,,,,,,,,,,,,,,,
,,,,,,,,,662ed96620183e2e20bb0751,Mexican,13 or older,"no, only English or Spanish",no,2025-07-24_03h00.23.180,empathy_intonation_perc_control,2024.2.4,Win32,59.52380952,662ed96620183e2e20bb0751,68817205a84113384fffdfe3,6881d9d920126ce816b166e9,,,,,,,,,,,,,1,,,,,,,,,,,,,,,,,,,,,,,,,,,,,,,,,,,,,37,granuja,,,,,342.5182,343.5829,1,1,0.5193,,0,42,42,36,1,REAL,FAKE,,,,,,,,,,,,,,,,,
,,,,,,,,,662ed96620183e2e20bb0751,Mexican,13 or older,"no, only English or Spanish",no,2025-07-24_03h00.23.180,empathy_intonation_perc_control,2024.2.4,Win32,59.52380952,662ed96620183e2e20bb0751,68817205a84113384fffdfe3,6881d9d920126ce816b166e9,,,,,,,,,,,,,0,,,,,,,,,,,,,,,,,,,,,,,,,,,,,,,,,,,,,10,antar,,,,,343.5845,344.833,1,0,0.7028,,0,43,43,9,1,REAL,FAKE,,,,,,,,,,,,,,,,,
,,,,,,,,,662ed96620183e2e20bb0751,Mexican,13 or older,"no, only English or Spanish",no,2025-07-24_03h00.23.180,empathy_intonation_perc_control,2024.2.4,Win32,59.52380952,662ed96620183e2e20bb0751,68817205a84113384fffdfe3,6881d9d920126ce816b166e9,,,,,,,,,,,,,1,,,,,,,,,,,,,,,,,,,,,,,,,,,,,,,,,,,,,85,laúd,,,,,344.8353,346.0163,0,0,0.6365,,0,44,44,84,1,REAL,FAKE,,,,,,,,,,,,,,,,,
,,,,,,,,,662ed96620183e2e20bb0751,Mexican,13 or older,"no, only English or Spanish",no,2025-07-24_03h00.23.180,empathy_intonation_perc_control,2024.2.4,Win32,59.52380952,662ed96620183e2e20bb0751,68817205a84113384fffdfe3,6881d9d920126ce816b166e9,,,,,,,,,,,,,1,,,,,,,,,,,,,,,,,,,,,,,,,,,,,,,,,,,,,12,asesinato,,,,,346.0184,347.5333,0,0,0.9716,,0,45,45,11,1,REAL,FAKE,,,,,,,,,,,,,,,,,
,,,,,,,,,662ed96620183e2e20bb0751,Mexican,13 or older,"no, only English or Spanish",no,2025-07-24_03h00.23.180,empathy_intonation_perc_control,2024.2.4,Win32,59.52380952,662ed96620183e2e20bb0751,68817205a84113384fffdfe3,6881d9d920126ce816b166e9,,,,,,,,,,,,,1,,,,,,,,,,,,,,,,,,,,,,,,,,,,,,,,,,,,,26,secuestro,,,,,347.5351,348.4833,0,0,0.4061,,0,46,46,25,1,REAL,FAKE,,,,,,,,,,,,,,,,,
,,,,,,,,,662ed96620183e2e20bb0751,Mexican,13 or older,"no, only English or Spanish",no,2025-07-24_03h00.23.180,empathy_intonation_perc_control,2024.2.4,Win32,59.52380952,662ed96620183e2e20bb0751,68817205a84113384fffdfe3,6881d9d920126ce816b166e9,,,,,,,,,,,,,0,,,,,,,,,,,,,,,,,,,,,,,,,,,,,,,,,,,,,35,rompido,,,,,348.4847,349.9338,0,1,0.9051,,0,47,47,34,1,REAL,FAKE,,,,,,,,,,,,,,,,,
,,,,,,,,,662ed96620183e2e20bb0751,Mexican,13 or older,"no, only English or Spanish",no,2025-07-24_03h00.23.180,empathy_intonation_perc_control,2024.2.4,Win32,59.52380952,662ed96620183e2e20bb0751,68817205a84113384fffdfe3,6881d9d920126ce816b166e9,,,,,,,,,,,,,1,,,,,,,,,,,,,,,,,,,,,,,,,,,,,,,,,,,,,91,click the 1 key.,,,,,349.9362,351.8669,1,1,1.386,,0,48,48,90,1,REAL,FAKE,,,,,,,,,,,,,,,,,
,,,,,,,,,662ed96620183e2e20bb0751,Mexican,13 or older,"no, only English or Spanish",no,2025-07-24_03h00.23.180,empathy_intonation_perc_control,2024.2.4,Win32,59.52380952,662ed96620183e2e20bb0751,68817205a84113384fffdfe3,6881d9d920126ce816b166e9,,,,,,,,,,,,,1,,,,,,,,,,,,,,,,,,,,,,,,,,,,,,,,,,,,,3,pulmones,,,,,351.8685,353.6668,0,0,1.2579,,0,49,49,2,1,REAL,FAKE,,,,,,,,,,,,,,,,,
,,,,,,,,,662ed96620183e2e20bb0751,Mexican,13 or older,"no, only English or Spanish",no,2025-07-24_03h00.23.180,empathy_intonation_perc_control,2024.2.4,Win32,59.52380952,662ed96620183e2e20bb0751,68817205a84113384fffdfe3,6881d9d920126ce816b166e9,,,,,,,,,,,,,0,,,,,,,,,,,,,,,,,,,,,,,,,,,,,,,,,,,,,19,brecedad,,,,,353.6684,354.9675,0,1,0.7601,,0,50,50,18,1,REAL,FAKE,,,,,,,,,,,,,,,,,
,,,,,,,,,662ed96620183e2e20bb0751,Mexican,13 or older,"no, only English or Spanish",no,2025-07-24_03h00.23.180,empathy_intonation_perc_control,2024.2.4,Win32,59.52380952,662ed96620183e2e20bb0751,68817205a84113384fffdfe3,6881d9d920126ce816b166e9,,,,,,,,,,,,,0,,,,,,,,,,,,,,,,,,,,,,,,,,,,,,,,,,,,,1,terzo,,,,,354.9699,356.3339,1,0,0.821,,0,51,51,0,1,REAL,FAKE,,,,,,,,,,,,,,,,,
,,,,,,,,,662ed96620183e2e20bb0751,Mexican,13 or older,"no, only English or Spanish",no,2025-07-24_03h00.23.180,empathy_intonation_perc_control,2024.2.4,Win32,59.52380952,662ed96620183e2e20bb0751,68817205a84113384fffdfe3,6881d9d920126ce816b166e9,,,,,,,,,,,,,1,,,,,,,,,,,,,,,,,,,,,,,,,,,,,,,,,,,,,77,tiburón,,,,,356.3358,358.0837,1,1,1.2089,,0,52,52,76,1,REAL,FAKE,,,,,,,,,,,,,,,,,
,,,,,,,,,662ed96620183e2e20bb0751,Mexican,13 or older,"no, only English or Spanish",no,2025-07-24_03h00.23.180,empathy_intonation_perc_control,2024.2.4,Win32,59.52380952,662ed96620183e2e20bb0751,68817205a84113384fffdfe3,6881d9d920126ce816b166e9,,,,,,,,,,,,,1,,,,,,,,,,,,,,,,,,,,,,,,,,,,,,,,,,,,,73,hervidor,,,,,358.0849,359.2173,1,1,0.5893,,0,53,53,72,1,REAL,FAKE,,,,,,,,,,,,,,,,,
,,,,,,,,,662ed96620183e2e20bb0751,Mexican,13 or older,"no, only English or Spanish",no,2025-07-24_03h00.23.180,empathy_intonation_perc_control,2024.2.4,Win32,59.52380952,662ed96620183e2e20bb0751,68817205a84113384fffdfe3,6881d9d920126ce816b166e9,,,,,,,,,,,,,1,,,,,,,,,,,,,,,,,,,,,,,,,,,,,,,,,,,,,62,flaco,,,,,359.219,360.4178,0,0,0.6516,,0,54,54,61,1,REAL,FAKE,,,,,,,,,,,,,,,,,
,,,,,,,,,662ed96620183e2e20bb0751,Mexican,13 or older,"no, only English or Spanish",no,2025-07-24_03h00.23.180,empathy_intonation_perc_control,2024.2.4,Win32,59.52380952,662ed96620183e2e20bb0751,68817205a84113384fffdfe3,6881d9d920126ce816b166e9,,,,,,,,,,,,,1,,,,,,,,,,,,,,,,,,,,,,,,,,,,,,,,,,,,,89,prisa,,,,,360.42,361.5341,1,1,0.569,,0,55,55,88,1,REAL,FAKE,,,,,,,,,,,,,,,,,
,,,,,,,,,662ed96620183e2e20bb0751,Mexican,13 or older,"no, only English or Spanish",no,2025-07-24_03h00.23.180,empathy_intonation_perc_control,2024.2.4,Win32,59.52380952,662ed96620183e2e20bb0751,68817205a84113384fffdfe3,6881d9d920126ce816b166e9,,,,,,,,,,,,,1,,,,,,,,,,,,,,,,,,,,,,,,,,,,,,,,,,,,,83,guante,,,,,361.536,362.5507,1,1,0.4757,,0,56,56,82,1,REAL,FAKE,,,,,,,,,,,,,,,,,
,,,,,,,,,662ed96620183e2e20bb0751,Mexican,13 or older,"no, only English or Spanish",no,2025-07-24_03h00.23.180,empathy_intonation_perc_control,2024.2.4,Win32,59.52380952,662ed96620183e2e20bb0751,68817205a84113384fffdfe3,6881d9d920126ce816b166e9,,,,,,,,,,,,,1,,,,,,,,,,,,,,,,,,,,,,,,,,,,,,,,,,,,,38,estornudar,,,,,362.5525,364.0347,1,1,0.94,,0,57,57,37,1,REAL,FAKE,,,,,,,,,,,,,,,,,
,,,,,,,,,662ed96620183e2e20bb0751,Mexican,13 or older,"no, only English or Spanish",no,2025-07-24_03h00.23.180,empathy_intonation_perc_control,2024.2.4,Win32,59.52380952,662ed96620183e2e20bb0751,68817205a84113384fffdfe3,6881d9d920126ce816b166e9,,,,,,,,,,,,,1,,,,,,,,,,,,,,,,,,,,,,,,,,,,,,,,,,,,,80,hormiga,,,,,364.0363,365.1683,1,1,0.5913,,0,58,58,79,1,REAL,FAKE,,,,,,,,,,,,,,,,,
,,,,,,,,,662ed96620183e2e20bb0751,Mexican,13 or older,"no, only English or Spanish",no,2025-07-24_03h00.23.180,empathy_intonation_perc_control,2024.2.4,Win32,59.52380952,662ed96620183e2e20bb0751,68817205a84113384fffdfe3,6881d9d920126ce816b166e9,,,,,,,,,,,,,0,,,,,,,,,,,,,,,,,,,,,,,,,,,,,,,,,,,,,63,esposante,,,,,365.17,366.5344,1,0,0.8263,,0,59,59,62,1,REAL,FAKE,,,,,,,,,,,,,,,,,
,,,,,,,,,662ed96620183e2e20bb0751,Mexican,13 or older,"no, only English or Spanish",no,2025-07-24_03h00.23.180,empathy_intonation_perc_control,2024.2.4,Win32,59.52380952,662ed96620183e2e20bb0751,68817205a84113384fffdfe3,6881d9d920126ce816b166e9,,,,,,,,,,,,,1,,,,,,,,,,,,,,,,,,,,,,,,,,,,,,,,,,,,,5,zapato,,,,,366.5364,367.9681,0,0,0.8838,,0,60,60,4,1,REAL,FAKE,,,,,,,,,,,,,,,,,
,,,,,,,,,662ed96620183e2e20bb0751,Mexican,13 or older,"no, only English or Spanish",no,2025-07-24_03h00.23.180,empathy_intonation_perc_control,2024.2.4,Win32,59.52380952,662ed96620183e2e20bb0751,68817205a84113384fffdfe3,6881d9d920126ce816b166e9,,,,,,,,,,,,,1,,,,,,,,,,,,,,,,,,,,,,,,,,,,,,,,,,,,,11,cenefa,,,,,367.9695,369.1355,1,1,0.6274,,0,61,61,10,1,REAL,FAKE,,,,,,,,,,,,,,,,,
,,,,,,,,,662ed96620183e2e20bb0751,Mexican,13 or older,"no, only English or Spanish",no,2025-07-24_03h00.23.180,empathy_intonation_perc_control,2024.2.4,Win32,59.52380952,662ed96620183e2e20bb0751,68817205a84113384fffdfe3,6881d9d920126ce816b166e9,,,,,,,,,,,,,1,,,,,,,,,,,,,,,,,,,,,,,,,,,,,,,,,,,,,46,martillo,,,,,369.1373,370.3684,1,1,0.686,,0,62,62,45,1,REAL,FAKE,,,,,,,,,,,,,,,,,
,,,,,,,,,662ed96620183e2e20bb0751,Mexican,13 or older,"no, only English or Spanish",no,2025-07-24_03h00.23.180,empathy_intonation_perc_control,2024.2.4,Win32,59.52380952,662ed96620183e2e20bb0751,68817205a84113384fffdfe3,6881d9d920126ce816b166e9,,,,,,,,,,,,,0,,,,,,,,,,,,,,,,,,,,,,,,,,,,,,,,,,,,,53,vegada,,,,,370.3702,371.5689,1,0,0.6509,,0,63,63,52,1,REAL,FAKE,,,,,,,,,,,,,,,,,
,,,,,,,,,662ed96620183e2e20bb0751,Mexican,13 or older,"no, only English or Spanish",no,2025-07-24_03h00.23.180,empathy_intonation_perc_control,2024.2.4,Win32,59.52380952,662ed96620183e2e20bb0751,68817205a84113384fffdfe3,6881d9d920126ce816b166e9,,,,,,,,,,,,,0,,,,,,,,,,,,,,,,,,,,,,,,,,,,,,,,,,,,,66,hacido,,,,,371.5705,372.8353,0,1,0.7186,,0,64,64,65,1,REAL,FAKE,,,,,,,,,,,,,,,,,
,,,,,,,,,662ed96620183e2e20bb0751,Mexican,13 or older,"no, only English or Spanish",no,2025-07-24_03h00.23.180,empathy_intonation_perc_control,2024.2.4,Win32,59.52380952,662ed96620183e2e20bb0751,68817205a84113384fffdfe3,6881d9d920126ce816b166e9,,,,,,,,,,,,,0,,,,,,,,,,,,,,,,,,,,,,,,,,,,,,,,,,,,,92,click the 0 key.,,,,,372.8371,374.1187,0,1,0.734,,0,65,65,91,1,REAL,FAKE,,,,,,,,,,,,,,,,,
,,,,,,,,,662ed96620183e2e20bb0751,Mexican,13 or older,"no, only English or Spanish",no,2025-07-24_03h00.23.180,empathy_intonation_perc_control,2024.2.4,Win32,59.52380952,662ed96620183e2e20bb0751,68817205a84113384fffdfe3,6881d9d920126ce816b166e9,,,,,,,,,,,,,1,,,,,,,,,,,,,,,,,,,,,,,,,,,,,,,,,,,,,7,pésimo,,,,,374.1199,375.7859,1,1,1.1213,,0,66,66,6,1,REAL,FAKE,,,,,,,,,,,,,,,,,
,,,,,,,,,662ed96620183e2e20bb0751,Mexican,13 or older,"no, only English or Spanish",no,2025-07-24_03h00.23.180,empathy_intonation_perc_control,2024.2.4,Win32,59.52380952,662ed96620183e2e20bb0751,68817205a84113384fffdfe3,6881d9d920126ce816b166e9,,,,,,,,,,,,,0,,,,,,,,,,,,,,,,,,,,,,,,,,,,,,,,,,,,,32,fatacidad,,,,,375.7878,378.2195,1,0,1.8853,,0,67,67,31,1,REAL,FAKE,,,,,,,,,,,,,,,,,
,,,,,,,,,662ed96620183e2e20bb0751,Mexican,13 or older,"no, only English or Spanish",no,2025-07-24_03h00.23.180,empathy_intonation_perc_control,2024.2.4,Win32,59.52380952,662ed96620183e2e20bb0751,68817205a84113384fffdfe3,6881d9d920126ce816b166e9,,,,,,,,,,,,,0,,,,,,,,,,,,,,,,,,,,,,,,,,,,,,,,,,,,,33,pauca,,,,,378.2215,379.8859,1,0,1.1235,,0,68,68,32,1,REAL,FAKE,,,,,,,,,,,,,,,,,
,,,,,,,,,662ed96620183e2e20bb0751,Mexican,13 or older,"no, only English or Spanish",no,2025-07-24_03h00.23.180,empathy_intonation_perc_control,2024.2.4,Win32,59.52380952,662ed96620183e2e20bb0751,68817205a84113384fffdfe3,6881d9d920126ce816b166e9,,,,,,,,,,,,,0,,,,,,,,,,,,,,,,,,,,,,,,,,,,,,,,,,,,,29,decar,,,,,379.8879,381.9195,0,1,1.4917,,0,69,69,28,1,REAL,FAKE,,,,,,,,,,,,,,,,,
,,,,,,,,,662ed96620183e2e20bb0751,Mexican,13 or older,"no, only English or Spanish",no,2025-07-24_03h00.23.180,empathy_intonation_perc_control,2024.2.4,Win32,59.52380952,662ed96620183e2e20bb0751,68817205a84113384fffdfe3,6881d9d920126ce816b166e9,,,,,,,,,,,,,1,,,,,,,,,,,,,,,,,,,,,,,,,,,,,,,,,,,,,15,regar,,,,,381.9211,383.2692,0,0,0.8081,,0,70,70,14,1,REAL,FAKE,,,,,,,,,,,,,,,,,
,,,,,,,,,662ed96620183e2e20bb0751,Mexican,13 or older,"no, only English or Spanish",no,2025-07-24_03h00.23.180,empathy_intonation_perc_control,2024.2.4,Win32,59.52380952,662ed96620183e2e20bb0751,68817205a84113384fffdfe3,6881d9d920126ce816b166e9,,,,,,,,,,,,,0,,,,,,,,,,,,,,,,,,,,,,,,,,,,,,,,,,,,,50,flamida,,,,,383.2711,385.0196,0,1,1.201,,0,71,71,49,1,REAL,FAKE,,,,,,,,,,,,,,,,,
,,,,,,,,,662ed96620183e2e20bb0751,Mexican,13 or older,"no, only English or Spanish",no,2025-07-24_03h00.23.180,empathy_intonation_perc_control,2024.2.4,Win32,59.52380952,662ed96620183e2e20bb0751,68817205a84113384fffdfe3,6881d9d920126ce816b166e9,,,,,,,,,,,,,1,,,,,,,,,,,,,,,,,,,,,,,,,,,,,,,,,,,,,51,candado,,,,,385.0211,386.5535,1,1,0.9876,,0,72,72,50,1,REAL,FAKE,,,,,,,,,,,,,,,,,
,,,,,,,,,662ed96620183e2e20bb0751,Mexican,13 or older,"no, only English or Spanish",no,2025-07-24_03h00.23.180,empathy_intonation_perc_control,2024.2.4,Win32,59.52380952,662ed96620183e2e20bb0751,68817205a84113384fffdfe3,6881d9d920126ce816b166e9,,,,,,,,,,,,,1,,,,,,,,,,,,,,,,,,,,,,,,,,,,,,,,,,,,,43,canela,,,,,386.5549,387.8531,1,1,0.7558,,0,73,73,42,1,REAL,FAKE,,,,,,,,,,,,,,,,,
,,,,,,,,,662ed96620183e2e20bb0751,Mexican,13 or older,"no, only English or Spanish",no,2025-07-24_03h00.23.180,empathy_intonation_perc_control,2024.2.4,Win32,59.52380952,662ed96620183e2e20bb0751,68817205a84113384fffdfe3,6881d9d920126ce816b166e9,,,,,,,,,,,,,1,,,,,,,,,,,,,,,,,,,,,,,,,,,,,,,,,,,,,52,camisa,,,,,387.8544,389.0696,0,0,0.6758,,0,74,74,51,1,REAL,FAKE,,,,,,,,,,,,,,,,,
,,,,,,,,,662ed96620183e2e20bb0751,Mexican,13 or older,"no, only English or Spanish",no,2025-07-24_03h00.23.180,empathy_intonation_perc_control,2024.2.4,Win32,59.52380952,662ed96620183e2e20bb0751,68817205a84113384fffdfe3,6881d9d920126ce816b166e9,,,,,,,,,,,,,1,,,,,,,,,,,,,,,,,,,,,,,,,,,,,,,,,,,,,34,aviso,,,,,389.0708,390.1204,1,1,0.5016,,0,75,75,33,1,REAL,FAKE,,,,,,,,,,,,,,,,,
,,,,,,,,,662ed96620183e2e20bb0751,Mexican,13 or older,"no, only English or Spanish",no,2025-07-24_03h00.23.180,empathy_intonation_perc_control,2024.2.4,Win32,59.52380952,662ed96620183e2e20bb0751,68817205a84113384fffdfe3,6881d9d920126ce816b166e9,,,,,,,,,,,,,1,,,,,,,,,,,,,,,,,,,,,,,,,,,,,,,,,,,,,44,cuchara,,,,,390.1224,390.9537,1,1,0.2864,,0,76,76,43,1,REAL,FAKE,,,,,,,,,,,,,,,,,
,,,,,,,,,662ed96620183e2e20bb0751,Mexican,13 or older,"no, only English or Spanish",no,2025-07-24_03h00.23.180,empathy_intonation_perc_control,2024.2.4,Win32,59.52380952,662ed96620183e2e20bb0751,68817205a84113384fffdfe3,6881d9d920126ce816b166e9,,,,,,,,,,,,,0,,,,,,,,,,,,,,,,,,,,,,,,,,,,,,,,,,,,,16,abracer,,,,,390.9556,391.9538,1,0,0.4514,,0,77,77,15,1,REAL,FAKE,,,,,,,,,,,,,,,,,
,,,,,,,,,662ed96620183e2e20bb0751,Mexican,13 or older,"no, only English or Spanish",no,2025-07-24_03h00.23.180,empathy_intonation_perc_control,2024.2.4,Win32,59.52380952,662ed96620183e2e20bb0751,68817205a84113384fffdfe3,6881d9d920126ce816b166e9,,,,,,,,,,,,,1,,,,,,,,,,,,,,,,,,,,,,,,,,,,,,,,,,,,,49,ganar,,,,,391.9553,392.6533,1,1,0.1603,,0,78,78,48,1,REAL,FAKE,,,,,,,,,,,,,,,,,
,,,,,,,,,662ed96620183e2e20bb0751,Mexican,13 or older,"no, only English or Spanish",no,2025-07-24_03h00.23.180,empathy_intonation_perc_control,2024.2.4,Win32,59.52380952,662ed96620183e2e20bb0751,68817205a84113384fffdfe3,6881d9d920126ce816b166e9,,,,,,,,,,,,,1,,,,,,,,,,,,,,,,,,,,,,,,,,,,,,,,,,,,,41,rebuscar,,,,,392.6553,393.1939,0,0,0.0008,,0,79,79,40,1,REAL,FAKE,,,,,,,,,,,,,,,,,
,,,,,,,,,662ed96620183e2e20bb0751,Mexican,13 or older,"no, only English or Spanish",no,2025-07-24_03h00.23.180,empathy_intonation_perc_control,2024.2.4,Win32,59.52380952,662ed96620183e2e20bb0751,68817205a84113384fffdfe3,6881d9d920126ce816b166e9,,,,,,,,,,,,,1,,,,,,,,,,,,,,,,,,,,,,,,,,,,,,,,,,,,,81,pozo,,,,,393.1955,394.8036,0,0,1.068,,0,80,80,80,1,REAL,FAKE,,,,,,,,,,,,,,,,,
,,,,,,,,,662ed96620183e2e20bb0751,Mexican,13 or older,"no, only English or Spanish",no,2025-07-24_03h00.23.180,empathy_intonation_perc_control,2024.2.4,Win32,59.52380952,662ed96620183e2e20bb0751,68817205a84113384fffdfe3,6881d9d920126ce816b166e9,,,,,,,,,,,,,1,,,,,,,,,,,,,,,,,,,,,,,,,,,,,,,,,,,,,65,bizcocho,,,,,394.8057,395.9537,0,0,0.6094,,0,81,81,64,1,REAL,FAKE,,,,,,,,,,,,,,,,,
,,,,,,,,,662ed96620183e2e20bb0751,Mexican,13 or older,"no, only English or Spanish",no,2025-07-24_03h00.23.180,empathy_intonation_perc_control,2024.2.4,Win32,59.52380952,662ed96620183e2e20bb0751,68817205a84113384fffdfe3,6881d9d920126ce816b166e9,,,,,,,,,,,,,0,,,,,,,,,,,,,,,,,,,,,,,,,,,,,,,,,,,,,74,cintro,,,,,395.9557,397.5103,0,1,1.0175,,0,82,82,73,1,REAL,FAKE,,,,,,,,,,,,,,,,,
,,,,,,,,,662ed96620183e2e20bb0751,Mexican,13 or older,"no, only English or Spanish",no,2025-07-24_03h00.23.180,empathy_intonation_perc_control,2024.2.4,Win32,59.52380952,662ed96620183e2e20bb0751,68817205a84113384fffdfe3,6881d9d920126ce816b166e9,,,,,,,,,,,,,1,,,,,,,,,,,,,,,,,,,,,,,,,,,,,,,,,,,,,45,jilguero,,,,,397.5118,398.8708,1,1,0.8179,,0,83,83,44,1,REAL,FAKE,,,,,,,,,,,,,,,,,
,,,,,,,,,662ed96620183e2e20bb0751,Mexican,13 or older,"no, only English or Spanish",no,2025-07-24_03h00.23.180,empathy_intonation_perc_control,2024.2.4,Win32,59.52380952,662ed96620183e2e20bb0751,68817205a84113384fffdfe3,6881d9d920126ce816b166e9,,,,,,,,,,,,,1,,,,,,,,,,,,,,,,,,,,,,,,,,,,,,,,,,,,,68,alegre,,,,,398.872,399.8206,1,1,0.4086,,0,84,84,67,1,REAL,FAKE,,,,,,,,,,,,,,,,,
,,,,,,,,,662ed96620183e2e20bb0751,Mexican,13 or older,"no, only English or Spanish",no,2025-07-24_03h00.23.180,empathy_intonation_perc_control,2024.2.4,Win32,59.52380952,662ed96620183e2e20bb0751,68817205a84113384fffdfe3,6881d9d920126ce816b166e9,,,,,,,,,,,,,1,,,,,,,,,,,,,,,,,,,,,,,,,,,,,,,,,,,,,25,bisagra,,,,,399.8219,400.6707,0,0,0.3064,,0,85,85,24,1,REAL,FAKE,,,,,,,,,,,,,,,,,
,,,,,,,,,662ed96620183e2e20bb0751,Mexican,13 or older,"no, only English or Spanish",no,2025-07-24_03h00.23.180,empathy_intonation_perc_control,2024.2.4,Win32,59.52380952,662ed96620183e2e20bb0751,68817205a84113384fffdfe3,6881d9d920126ce816b166e9,,,,,,,,,,,,,0,,,,,,,,,,,,,,,,,,,,,,,,,,,,,,,,,,,,,87,grodo,,,,,400.6727,401.9548,1,0,0.7355,,0,86,86,86,1,REAL,FAKE,,,,,,,,,,,,,,,,,
,,,,,,,,,662ed96620183e2e20bb0751,Mexican,13 or older,"no, only English or Spanish",no,2025-07-24_03h00.23.180,empathy_intonation_perc_control,2024.2.4,Win32,59.52380952,662ed96620183e2e20bb0751,68817205a84113384fffdfe3,6881d9d920126ce816b166e9,,,,,,,,,,,,,1,,,,,,,,,,,,,,,,,,,,,,,,,,,,,,,,,,,,,54,fomentar,,,,,401.9564,402.5876,1,1,0.0833,,0,87,87,53,1,REAL,FAKE,,,,,,,,,,,,,,,,,
,,,,,,,,,662ed96620183e2e20bb0751,Mexican,13 or older,"no, only English or Spanish",no,2025-07-24_03h00.23.180,empathy_intonation_perc_control,2024.2.4,Win32,59.52380952,662ed96620183e2e20bb0751,68817205a84113384fffdfe3,6881d9d920126ce816b166e9,,,,,,,,,,,,,1,,,,,,,,,,,,,,,,,,,,,,,,,,,,,,,,,,,,,31,pandilla,,,,,402.589,404.0709,1,1,0.9424,,0,88,88,30,1,REAL,FAKE,,,,,,,,,,,,,,,,,
,,,,,,,,,662ed96620183e2e20bb0751,Mexican,13 or older,"no, only English or Spanish",no,2025-07-24_03h00.23.180,empathy_intonation_perc_control,2024.2.4,Win32,59.52380952,662ed96620183e2e20bb0751,68817205a84113384fffdfe3,6881d9d920126ce816b166e9,,,,,,,,,,,,,0,,,,,,,,,,,,,,,,,,,,,,,,,,,,,,,,,,,,,8,cadeña,,,,,404.0721,405.0717,0,1,0.4564,,0,89,89,7,1,REAL,FAKE,,,,,,,,,,,,,,,,,
,,,,,,,,,662ed96620183e2e20bb0751,Mexican,13 or older,"no, only English or Spanish",no,2025-07-24_03h00.23.180,empathy_intonation_perc_control,2024.2.4,Win32,59.52380952,662ed96620183e2e20bb0751,68817205a84113384fffdfe3,6881d9d920126ce816b166e9,,,,,,,,,,,,,0,,,,,,,,,,,,,,,,,,,,,,,,,,,,,,,,,,,,,21,capillo,,,,,405.0731,406.7387,0,1,1.1235,,0,90,90,20,1,REAL,FAKE,,,,,,,,,,,,,,,,,
,,,,,,,,,662ed96620183e2e20bb0751,Mexican,13 or older,"no, only English or Spanish",no,2025-07-24_03h00.23.180,empathy_intonation_perc_control,2024.2.4,Win32,59.52380952,662ed96620183e2e20bb0751,68817205a84113384fffdfe3,6881d9d920126ce816b166e9,,,,,,,,,,,,,1,,,,,,,,,,,,,,,,,,,,,,,,,,,,,,,,,,,,,90,clavel,,,,,406.7404,407.7212,0,0,0.4432,,0,91,91,89,1,REAL,FAKE,,,,,,,,,,,,,,,,,
,,,,,,,,,662ed96620183e2e20bb0751,Mexican,13 or older,"no, only English or Spanish",no,2025-07-24_03h00.23.180,empathy_intonation_perc_control,2024.2.4,Win32,59.52380952,662ed96620183e2e20bb0751,68817205a84113384fffdfe3,6881d9d920126ce816b166e9,,,,,,,,,,,,,,,,,,,,,,,,,,,,,,,,,,,,,,,,,,,,,,,,,,,,,,,,,,,,,,,,,,,,,407.7219,420.54,,,,,,,,,,,,,,,
,,,,,,,,,662ed96620183e2e20bb0751,Mexican,13 or older,"no, only English or Spanish",no,2025-07-24_03h00.23.180,empathy_intonation_perc_control,2024.2.4,Win32,59.52380952,662ed96620183e2e20bb0751,68817205a84113384fffdfe3,6881d9d920126ce816b166e9,,,,,,,,,,,,,,,,,,,,,,,,,,,1,,,,,,,,,,,,,,,,,,,,,,,,,,,,,,,,,,,,,,,,,,,,420.5489,423.4229,strongly disagree,0,0,0,0,1,I can easily tell if someone else wants to enter a conversation.,1,0,1,0,,
,,,,,,,,,662ed96620183e2e20bb0751,Mexican,13 or older,"no, only English or Spanish",no,2025-07-24_03h00.23.180,empathy_intonation_perc_control,2024.2.4,Win32,59.52380952,662ed96620183e2e20bb0751,68817205a84113384fffdfe3,6881d9d920126ce816b166e9,,,,,,,,,,,,,,,,,,,,,,,,,,,2,,,,,,,,,,,,,,,,,,,,,,,,,,,,,,,,,,,,,,,,,,,,423.4254,428.2565,strongly agree,0,1,1,1,1,I prefer animals to humans.,0,1,0,0,,
,,,,,,,,,662ed96620183e2e20bb0751,Mexican,13 or older,"no, only English or Spanish",no,2025-07-24_03h00.23.180,empathy_intonation_perc_control,2024.2.4,Win32,59.52380952,662ed96620183e2e20bb0751,68817205a84113384fffdfe3,6881d9d920126ce816b166e9,,,,,,,,,,,,,,,,,,,,,,,,,,,3,,,,,,,,,,,,,,,,,,,,,,,,,,,,,,,,,,,,,,,,,,,,428.2587,431.3567,strongly disagree,0,2,2,2,1,I try to keep up with the current trends and fashions.,0,1,0,0,,
,,,,,,,,,662ed96620183e2e20bb0751,Mexican,13 or older,"no, only English or Spanish",no,2025-07-24_03h00.23.180,empathy_intonation_perc_control,2024.2.4,Win32,59.52380952,662ed96620183e2e20bb0751,68817205a84113384fffdfe3,6881d9d920126ce816b166e9,,,,,,,,,,,,,,,,,,,,,,,,,,,4,,,,,,,,,,,,,,,,,,,,,,,,,,,,,,,,,,,,,,,,,,,,431.3596,437.8736,slightly disagree,0,3,3,3,1,"I find it difficult to explain to others things that I understand easily,   when they don't understand it first time.",1,0,0,1,,
,,,,,,,,,662ed96620183e2e20bb0751,Mexican,13 or older,"no, only English or Spanish",no,2025-07-24_03h00.23.180,empathy_intonation_perc_control,2024.2.4,Win32,59.52380952,662ed96620183e2e20bb0751,68817205a84113384fffdfe3,6881d9d920126ce816b166e9,,,,,,,,,,,,,,,,,,,,,,,,,,,5,,,,,,,,,,,,,,,,,,,,,,,,,,,,,,,,,,,,,,,,,,,,437.875,439.7905,slightly agree,0,4,4,4,1,I dream most nights.,0,1,0,0,,
,,,,,,,,,662ed96620183e2e20bb0751,Mexican,13 or older,"no, only English or Spanish",no,2025-07-24_03h00.23.180,empathy_intonation_perc_control,2024.2.4,Win32,59.52380952,662ed96620183e2e20bb0751,68817205a84113384fffdfe3,6881d9d920126ce816b166e9,,,,,,,,,,,,,,,,,,,,,,,,,,,6,,,,,,,,,,,,,,,,,,,,,,,,,,,,,,,,,,,,,,,,,,,,439.7926,442.0243,strongly agree,0,5,5,5,1,I really enjoy caring for other people.,1,0,1,0,,
,,,,,,,,,662ed96620183e2e20bb0751,Mexican,13 or older,"no, only English or Spanish",no,2025-07-24_03h00.23.180,empathy_intonation_perc_control,2024.2.4,Win32,59.52380952,662ed96620183e2e20bb0751,68817205a84113384fffdfe3,6881d9d920126ce816b166e9,,,,,,,,,,,,,,,,,,,,,,,,,,,7,,,,,,,,,,,,,,,,,,,,,,,,,,,,,,,,,,,,,,,,,,,,442.027,443.8243,strongly agree,0,6,6,6,1,I try to solve my own problems rather than discussing them with others.,0,1,0,0,,
,,,,,,,,,662ed96620183e2e20bb0751,Mexican,13 or older,"no, only English or Spanish",no,2025-07-24_03h00.23.180,empathy_intonation_perc_control,2024.2.4,Win32,59.52380952,662ed96620183e2e20bb0751,68817205a84113384fffdfe3,6881d9d920126ce816b166e9,,,,,,,,,,,,,,,,,,,,,,,,,,,8,,,,,,,,,,,,,,,,,,,,,,,,,,,,,,,,,,,,,,,,,,,,443.8264,446.8245,strongly agree,0,7,7,7,1,I find it hard to know what to do in a social situation.,1,0,0,1,,
,,,,,,,,,662ed96620183e2e20bb0751,Mexican,13 or older,"no, only English or Spanish",no,2025-07-24_03h00.23.180,empathy_intonation_perc_control,2024.2.4,Win32,59.52380952,662ed96620183e2e20bb0751,68817205a84113384fffdfe3,6881d9d920126ce816b166e9,,,,,,,,,,,,,,,,,,,,,,,,,,,9,,,,,,,,,,,,,,,,,,,,,,,,,,,,,,,,,,,,,,,,,,,,446.8269,448.5914,strongly agree,0,8,8,8,1,I am at my best first thing in the morning.,0,1,0,0,,
,,,,,,,,,662ed96620183e2e20bb0751,Mexican,13 or older,"no, only English or Spanish",no,2025-07-24_03h00.23.180,empathy_intonation_perc_control,2024.2.4,Win32,59.52380952,662ed96620183e2e20bb0751,68817205a84113384fffdfe3,6881d9d920126ce816b166e9,,,,,,,,,,,,,,,,,,,,,,,,,,,10,,,,,,,,,,,,,,,,,,,,,,,,,,,,,,,,,,,,,,,,,,,,448.5942,453.2092,strongly disagree,0,9,9,9,1,People often tell me that I went too far in driving my point home in a discussion.,1,0,0,1,,
,,,,,,,,,662ed96620183e2e20bb0751,Mexican,13 or older,"no, only English or Spanish",no,2025-07-24_03h00.23.180,empathy_intonation_perc_control,2024.2.4,Win32,59.52380952,662ed96620183e2e20bb0751,68817205a84113384fffdfe3,6881d9d920126ce816b166e9,,,,,,,,,,,,,,,,,,,,,,,,,,,11,,,,,,,,,,,,,,,,,,,,,,,,,,,,,,,,,,,,,,,,,,,,453.2116,460.0589,strongly agree,0,10,10,10,1,It doesn't bother me too much if I am late meeting a friend.,1,0,0,1,,
,,,,,,,,,662ed96620183e2e20bb0751,Mexican,13 or older,"no, only English or Spanish",no,2025-07-24_03h00.23.180,empathy_intonation_perc_control,2024.2.4,Win32,59.52380952,662ed96620183e2e20bb0751,68817205a84113384fffdfe3,6881d9d920126ce816b166e9,,,,,,,,,,,,,,,,,,,,,,,,,,,12,,,,,,,,,,,,,,,,,,,,,,,,,,,,,,,,,,,,,,,,,,,,460.0614,462.259,strongly agree,0,11,11,11,1,"Friendships and relationships are just too difficult, so I tend not to 
  bother with them.",1,0,0,1,,
,,,,,,,,,662ed96620183e2e20bb0751,Mexican,13 or older,"no, only English or Spanish",no,2025-07-24_03h00.23.180,empathy_intonation_perc_control,2024.2.4,Win32,59.52380952,662ed96620183e2e20bb0751,68817205a84113384fffdfe3,6881d9d920126ce816b166e9,,,,,,,,,,,,,,,,,,,,,,,,,,,13,,,,,,,,,,,,,,,,,,,,,,,,,,,,,,,,,,,,,,,,,,,,462.2614,468.243,strongly agree,0,12,12,12,1,"I would never break a law, no matter how minor.",0,1,0,0,,
,,,,,,,,,662ed96620183e2e20bb0751,Mexican,13 or older,"no, only English or Spanish",no,2025-07-24_03h00.23.180,empathy_intonation_perc_control,2024.2.4,Win32,59.52380952,662ed96620183e2e20bb0751,68817205a84113384fffdfe3,6881d9d920126ce816b166e9,,,,,,,,,,,,,,,,,,,,,,,,,,,14,,,,,,,,,,,,,,,,,,,,,,,,,,,,,,,,,,,,,,,,,,,,468.2458,478.0276,strongly agree,0,13,13,13,1,I often find it difficult to judge if something is rude or polite.,1,0,0,1,,
,,,,,,,,,662ed96620183e2e20bb0751,Mexican,13 or older,"no, only English or Spanish",no,2025-07-24_03h00.23.180,empathy_intonation_perc_control,2024.2.4,Win32,59.52380952,662ed96620183e2e20bb0751,68817205a84113384fffdfe3,6881d9d920126ce816b166e9,,,,,,,,,,,,,,,,,,,,,,,,,,,15,,,,,,,,,,,,,,,,,,,,,,,,,,,,,,,,,,,,,,,,,,,,478.03,480.3274,strongly agree,0,14,14,14,1,"In a conversation, I tend to focus on my own thoughts rather than on what 
  my listener might be thinking.",1,0,0,1,,
,,,,,,,,,662ed96620183e2e20bb0751,Mexican,13 or older,"no, only English or Spanish",no,2025-07-24_03h00.23.180,empathy_intonation_perc_control,2024.2.4,Win32,59.52380952,662ed96620183e2e20bb0751,68817205a84113384fffdfe3,6881d9d920126ce816b166e9,,,,,,,,,,,,,,,,,,,,,,,,,,,16,,,,,,,,,,,,,,,,,,,,,,,,,,,,,,,,,,,,,,,,,,,,480.3299,483.8613,slightly agree,0,15,15,15,1,I prefer practical jokes to verbal humor.,0,1,0,0,,
,,,,,,,,,662ed96620183e2e20bb0751,Mexican,13 or older,"no, only English or Spanish",no,2025-07-24_03h00.23.180,empathy_intonation_perc_control,2024.2.4,Win32,59.52380952,662ed96620183e2e20bb0751,68817205a84113384fffdfe3,6881d9d920126ce816b166e9,,,,,,,,,,,,,,,,,,,,,,,,,,,17,,,,,,,,,,,,,,,,,,,,,,,,,,,,,,,,,,,,,,,,,,,,483.8637,489.3963,slightly disagree,0,16,16,16,1,I live life for today rather than the future.,0,1,0,0,,
,,,,,,,,,662ed96620183e2e20bb0751,Mexican,13 or older,"no, only English or Spanish",no,2025-07-24_03h00.23.180,empathy_intonation_perc_control,2024.2.4,Win32,59.52380952,662ed96620183e2e20bb0751,68817205a84113384fffdfe3,6881d9d920126ce816b166e9,,,,,,,,,,,,,,,,,,,,,,,,,,,18,,,,,,,,,,,,,,,,,,,,,,,,,,,,,,,,,,,,,,,,,,,,489.3986,494.0951,strongly disagree,0,17,17,17,1,"When I was a child, I enjoyed cutting up worms to see what would happen.",1,0,0,1,,
,,,,,,,,,662ed96620183e2e20bb0751,Mexican,13 or older,"no, only English or Spanish",no,2025-07-24_03h00.23.180,empathy_intonation_perc_control,2024.2.4,Win32,59.52380952,662ed96620183e2e20bb0751,68817205a84113384fffdfe3,6881d9d920126ce816b166e9,,,,,,,,,,,,,,,,,,,,,,,,,,,19,,,,,,,,,,,,,,,,,,,,,,,,,,,,,,,,,,,,,,,,,,,,494.0976,498.3622,strongly agree,0,18,18,18,1,I can pick up quickly if someone says one thing but means another.,1,0,1,0,,
,,,,,,,,,662ed96620183e2e20bb0751,Mexican,13 or older,"no, only English or Spanish",no,2025-07-24_03h00.23.180,empathy_intonation_perc_control,2024.2.4,Win32,59.52380952,662ed96620183e2e20bb0751,68817205a84113384fffdfe3,6881d9d920126ce816b166e9,,,,,,,,,,,,,,,,,,,,,,,,,,,20,,,,,,,,,,,,,,,,,,,,,,,,,,,,,,,,,,,,,,,,,,,,498.3645,501.1623,strongly agree,0,19,19,19,1,I tend to have very strong opinions about morality.,0,1,0,0,,
,,,,,,,,,662ed96620183e2e20bb0751,Mexican,13 or older,"no, only English or Spanish",no,2025-07-24_03h00.23.180,empathy_intonation_perc_control,2024.2.4,Win32,59.52380952,662ed96620183e2e20bb0751,68817205a84113384fffdfe3,6881d9d920126ce816b166e9,,,,,,,,,,,,,,,,,,,,,,,,,,,21,,,,,,,,,,,,,,,,,,,,,,,,,,,,,,,,,,,,,,,,,,,,501.1649,509.7131,slightly agree,0,20,20,20,1,It is hard for me to see why some things upset people so much.,1,0,0,1,,
,,,,,,,,,662ed96620183e2e20bb0751,Mexican,13 or older,"no, only English or Spanish",no,2025-07-24_03h00.23.180,empathy_intonation_perc_control,2024.2.4,Win32,59.52380952,662ed96620183e2e20bb0751,68817205a84113384fffdfe3,6881d9d920126ce816b166e9,,,,,,,,,,,,,,,,,,,,,,,,,,,22,,,,,,,,,,,,,,,,,,,,,,,,,,,,,,,,,,,,,,,,,,,,509.7155,512.1632,strongly agree,0,21,21,21,1,I find it easy to put myself in somebody else's shoes.,1,0,1,0,,
,,,,,,,,,662ed96620183e2e20bb0751,Mexican,13 or older,"no, only English or Spanish",no,2025-07-24_03h00.23.180,empathy_intonation_perc_control,2024.2.4,Win32,59.52380952,662ed96620183e2e20bb0751,68817205a84113384fffdfe3,6881d9d920126ce816b166e9,,,,,,,,,,,,,,,,,,,,,,,,,,,23,,,,,,,,,,,,,,,,,,,,,,,,,,,,,,,,,,,,,,,,,,,,512.1656,521.3476,strongly disagree,0,22,22,22,1,I think that good manners are the most important thing a parent can teach their child.,0,1,0,0,,
,,,,,,,,,662ed96620183e2e20bb0751,Mexican,13 or older,"no, only English or Spanish",no,2025-07-24_03h00.23.180,empathy_intonation_perc_control,2024.2.4,Win32,59.52380952,662ed96620183e2e20bb0751,68817205a84113384fffdfe3,6881d9d920126ce816b166e9,,,,,,,,,,,,,,,,,,,,,,,,,,,24,,,,,,,,,,,,,,,,,,,,,,,,,,,,,,,,,,,,,,,,,,,,521.3502,524.2478,strongly agree,0,23,23,23,1,I like to do things on the spur of the moment.,0,1,0,0,,
,,,,,,,,,662ed96620183e2e20bb0751,Mexican,13 or older,"no, only English or Spanish",no,2025-07-24_03h00.23.180,empathy_intonation_perc_control,2024.2.4,Win32,59.52380952,662ed96620183e2e20bb0751,68817205a84113384fffdfe3,6881d9d920126ce816b166e9,,,,,,,,,,,,,,,,,,,,,,,,,,,25,,,,,,,,,,,,,,,,,,,,,,,,,,,,,,,,,,,,,,,,,,,,524.2503,526.7979,strongly agree,0,24,24,24,1,I am good at predicting how someone will feel.,1,0,1,0,,
