instructions_2afc.started,instructions_2afc.stopped,instructions_2afc_loop.thisRepN,instructions_2afc_loop.thisTrialN,instructions_2afc_loop.thisN,instructions_2afc_loop.thisIndex,instructions_2afc_loop.ran,instructions_text,continue_text,participant_id,"What variety of Spanish are you most familiar with? (e.g., Peruvian, Spanish, Mexican)",At what age did you begin learning Spanish?,Are you proficient in any languages other than English/Spanish?,"Are you familiar with Caribbean (e.g., Caribbean, Puerto Rican) or Galician Spanish?",date,expName,psychopyVersion,OS,frameRate,id,study_id,session,practice_2afc.started,practice_2afc.stopped,key_resp_2afc_practice.keys,key_resp_2afc_practice.corr,key_resp_2afc_practice.rt,key_resp_2afc_practice.duration,trials_2afc_practice_loop.thisRepN,trials_2afc_practice_loop.thisTrialN,trials_2afc_practice_loop.thisN,trials_2afc_practice_loop.thisIndex,trials_2afc_practice_loop.ran,path,correct_response,check_2afc.started,check_2afc.stopped,trial_2afc.started,trial_2afc.stopped,key_resp_2afc_trial.keys,key_resp_2afc_trial.corr,key_resp_2afc_trial.rt,key_resp_2afc_trial.duration,trials_2afc_loop.thisRepN,trials_2afc_loop.thisTrialN,trials_2afc_loop.thisN,trials_2afc_loop.thisIndex,trials_2afc_loop.ran,item_num,target,variety,instructions_lextale.started,instructions_lextale.stopped,instructions_lextale_loop.thisRepN,instructions_lextale_loop.thisTrialN,instructions_lextale_loop.thisN,instructions_lextale_loop.thisIndex,instructions_lextale_loop.ran,practice_lextale.started,practice_lextale.stopped,key_resp_lextale_practice.keys,key_resp_lextale_practice.corr,key_resp_lextale_practice.rt,key_resp_lextale_practice.duration,practice_feedback_lextale.started,practice_feedback_lextale.stopped,trials_lextale_practice_loop.thisRepN,trials_lextale_practice_loop.thisTrialN,trials_lextale_practice_loop.thisN,trials_lextale_practice_loop.thisIndex,trials_lextale_practice_loop.ran,stim,word,prac_button_real,prac_button_false,check_lextale.started,check_lextale.stopped,trial_lextale.started,trial_lextale.stopped,key_resp_lextale_trial.keys,key_resp_lextale_trial.corr,key_resp_lextale_trial.rt,key_resp_lextale_trial.duration,trials_lextale_loop.thisRepN,trials_lextale_loop.thisTrialN,trials_lextale_loop.thisN,trials_lextale_loop.thisIndex,trials_lextale_loop.ran,button_real,button_false,instructions_eq.started,instructions_eq.stopped,trial_eq.started,trial_eq.stopped,slider_eq_trial.response,trials_eq_loop.thisRepN,trials_eq_loop.thisTrialN,trials_eq_loop.thisN,trials_eq_loop.thisIndex,trials_eq_loop.ran,item,is_test_item,is_distractor,is_agree_score,is_disagree_score,end_exp.started,end_exp.stopped
0.0902,46.0104,0,0,0,0,1,"In the following task you are going to hear a series of utterances. 

  You will decide if the utterances sound like questions or not using your keyboard.", (press the spacebar to continue),66315a3a93bb6b7499f106d4,Mexican ,13 or older,"no, only English or Spanish",yes,2025-07-23_23h35.14.957,empathy_intonation_perc_control,2024.2.4,Win32,7.501875469,66315a3a93bb6b7499f106d4,68817205a84113384fffdfe3,6881a6906e8a35fe22a200aa,,,,,,,,,,,,,,,,,,,,,,,,,,,,,,,,,,,,,,,,,,,,,,,,,,,,,,,,,,,,,,,,,,,,,,,,,,,,,,,,,,,,,
46.0316,61.4705,0,1,1,1,1,"If you believe the utterance is a question, type '1' (for 'yes') and if you do not 
  believe it is a question type '0' (for 'no').

  Let's practice a bit...", (press the spacebar to continue),66315a3a93bb6b7499f106d4,Mexican ,13 or older,"no, only English or Spanish",yes,2025-07-23_23h35.14.957,empathy_intonation_perc_control,2024.2.4,Win32,7.501875469,66315a3a93bb6b7499f106d4,68817205a84113384fffdfe3,6881a6906e8a35fe22a200aa,,,,,,,,,,,,,,,,,,,,,,,,,,,,,,,,,,,,,,,,,,,,,,,,,,,,,,,,,,,,,,,,,,,,,,,,,,,,,,,,,,,,,
,,,,,,,,,66315a3a93bb6b7499f106d4,Mexican ,13 or older,"no, only English or Spanish",yes,2025-07-23_23h35.14.957,empathy_intonation_perc_control,2024.2.4,Win32,7.501875469,66315a3a93bb6b7499f106d4,68817205a84113384fffdfe3,6881a6906e8a35fe22a200aa,61.5033,70.8527,0,0,8.7374,,0,0,0,2,1,./stim/wavs/chilean_question_filler_Mi-padre-cantaba-bien.wav,1,,,,,,,,,,,,,,,,,,,,,,,,,,,,,,,,,,,,,,,,,,,,,,,,,,,,,,,,,,,,,,,,,,,,,,,,
,,,,,,,,,66315a3a93bb6b7499f106d4,Mexican ,13 or older,"no, only English or Spanish",yes,2025-07-23_23h35.14.957,empathy_intonation_perc_control,2024.2.4,Win32,7.501875469,66315a3a93bb6b7499f106d4,68817205a84113384fffdfe3,6881a6906e8a35fe22a200aa,70.8549,79.6432,0,1,8.2365,,0,1,1,4,1,./stim/wavs/cuban_statement_filler_Cocinabas-por-la-noche.wav,0,,,,,,,,,,,,,,,,,,,,,,,,,,,,,,,,,,,,,,,,,,,,,,,,,,,,,,,,,,,,,,,,,,,,,,,,
,,,,,,,,,66315a3a93bb6b7499f106d4,Mexican ,13 or older,"no, only English or Spanish",yes,2025-07-23_23h35.14.957,empathy_intonation_perc_control,2024.2.4,Win32,7.501875469,66315a3a93bb6b7499f106d4,68817205a84113384fffdfe3,6881a6906e8a35fe22a200aa,79.6443,83.9586,0,0,3.7214,,0,2,2,1,1,./stim/wavs/argentine_question_filler_Mi-vecino-habla-mucho.wav,1,,,,,,,,,,,,,,,,,,,,,,,,,,,,,,,,,,,,,,,,,,,,,,,,,,,,,,,,,,,,,,,,,,,,,,,,
,,,,,,,,,66315a3a93bb6b7499f106d4,Mexican ,13 or older,"no, only English or Spanish",yes,2025-07-23_23h35.14.957,empathy_intonation_perc_control,2024.2.4,Win32,7.501875469,66315a3a93bb6b7499f106d4,68817205a84113384fffdfe3,6881a6906e8a35fe22a200aa,83.9617,88.299,1,1,3.7425,,0,3,3,3,1,./stim/wavs/mexican_question_filler_Felipe-no-tiene-contrasena.wav,1,,,,,,,,,,,,,,,,,,,,,,,,,,,,,,,,,,,,,,,,,,,,,,,,,,,,,,,,,,,,,,,,,,,,,,,,
,,,,,,,,,66315a3a93bb6b7499f106d4,Mexican ,13 or older,"no, only English or Spanish",yes,2025-07-23_23h35.14.957,empathy_intonation_perc_control,2024.2.4,Win32,7.501875469,66315a3a93bb6b7499f106d4,68817205a84113384fffdfe3,6881a6906e8a35fe22a200aa,88.3006,94.3548,0,1,5.4636,,0,4,4,6,1,./stim/wavs/peruvian_statement_filler_El-nino-habla-con-su-madre.wav,0,,,,,,,,,,,,,,,,,,,,,,,,,,,,,,,,,,,,,,,,,,,,,,,,,,,,,,,,,,,,,,,,,,,,,,,,
,,,,,,,,,66315a3a93bb6b7499f106d4,Mexican ,13 or older,"no, only English or Spanish",yes,2025-07-23_23h35.14.957,empathy_intonation_perc_control,2024.2.4,Win32,7.501875469,66315a3a93bb6b7499f106d4,68817205a84113384fffdfe3,6881a6906e8a35fe22a200aa,94.3568,98.6638,0,1,3.7273,,0,5,5,5,1,./stim/wavs/andalusian_statement_filler_Alberto-nunca-se-afeita.wav,0,,,,,,,,,,,,,,,,,,,,,,,,,,,,,,,,,,,,,,,,,,,,,,,,,,,,,,,,,,,,,,,,,,,,,,,,
,,,,,,,,,66315a3a93bb6b7499f106d4,Mexican ,13 or older,"no, only English or Spanish",yes,2025-07-23_23h35.14.957,empathy_intonation_perc_control,2024.2.4,Win32,7.501875469,66315a3a93bb6b7499f106d4,68817205a84113384fffdfe3,6881a6906e8a35fe22a200aa,98.6654,101.9612,1,1,2.7493,,0,6,6,0,1,./stim/wavs/castilian_question_filler_Mi-esposo-conoce-al-chico.wav,1,,,,,,,,,,,,,,,,,,,,,,,,,,,,,,,,,,,,,,,,,,,,,,,,,,,,,,,,,,,,,,,,,,,,,,,,
,,,,,,,,,66315a3a93bb6b7499f106d4,Mexican ,13 or older,"no, only English or Spanish",yes,2025-07-23_23h35.14.957,empathy_intonation_perc_control,2024.2.4,Win32,7.501875469,66315a3a93bb6b7499f106d4,68817205a84113384fffdfe3,6881a6906e8a35fe22a200aa,101.9633,106.0838,0,1,3.5504,,0,7,7,7,1,./stim/wavs/puertorican_statement_filler_La-nina-pinta-con-su-amiga.wav,0,,,,,,,,,,,,,,,,,,,,,,,,,,,,,,,,,,,,,,,,,,,,,,,,,,,,,,,,,,,,,,,,,,,,,,,,
,,,,,,,,,66315a3a93bb6b7499f106d4,Mexican ,13 or older,"no, only English or Spanish",yes,2025-07-23_23h35.14.957,empathy_intonation_perc_control,2024.2.4,Win32,7.501875469,66315a3a93bb6b7499f106d4,68817205a84113384fffdfe3,6881a6906e8a35fe22a200aa,,,,,,,,,,,,,,106.0887,114.5955,,,,,,,,,,,,,,,,,,,,,,,,,,,,,,,,,,,,,,,,,,,,,,,,,,,,,,,,,,,,,,,,,,,,,,
,,,,,,,,,66315a3a93bb6b7499f106d4,Mexican ,13 or older,"no, only English or Spanish",yes,2025-07-23_23h35.14.957,empathy_intonation_perc_control,2024.2.4,Win32,7.501875469,66315a3a93bb6b7499f106d4,68817205a84113384fffdfe3,6881a6906e8a35fe22a200aa,,,,,,,,,,,,./stim/wavs/castilian_mismatch_interrogative-total-yn_La-nina-lava-el-plato.wav,1,,,114.6266,119.245,0,0,3.9846,,0,0,0,25,1,26,0,castilian,,,,,,,,,,,,,,,,,,,,,,,,,,,,,,,,,,,,,,,,,,,,,,,,,,,,,,,,
,,,,,,,,,66315a3a93bb6b7499f106d4,Mexican ,13 or older,"no, only English or Spanish",yes,2025-07-23_23h35.14.957,empathy_intonation_perc_control,2024.2.4,Win32,7.501875469,66315a3a93bb6b7499f106d4,68817205a84113384fffdfe3,6881a6906e8a35fe22a200aa,,,,,,,,,,,,./stim/wavs/mexican_mismatch_declarative-broad-focus_Mi-novio-viene-del-lago.wav,0,,,119.2484,121.9611,0,1,2.1527,,0,1,1,81,1,82,0,mexican,,,,,,,,,,,,,,,,,,,,,,,,,,,,,,,,,,,,,,,,,,,,,,,,,,,,,,,,
,,,,,,,,,66315a3a93bb6b7499f106d4,Mexican ,13 or older,"no, only English or Spanish",yes,2025-07-23_23h35.14.957,empathy_intonation_perc_control,2024.2.4,Win32,7.501875469,66315a3a93bb6b7499f106d4,68817205a84113384fffdfe3,6881a6906e8a35fe22a200aa,,,,,,,,,,,,./stim/wavs/mexican_match_interrogative-total-yn_Marta-abre-el-regalo.wav,1,,,121.9623,124.2593,0,0,1.7524,,0,2,2,17,1,18,0,mexican,,,,,,,,,,,,,,,,,,,,,,,,,,,,,,,,,,,,,,,,,,,,,,,,,,,,,,,,
,,,,,,,,,66315a3a93bb6b7499f106d4,Mexican ,13 or older,"no, only English or Spanish",yes,2025-07-23_23h35.14.957,empathy_intonation_perc_control,2024.2.4,Win32,7.501875469,66315a3a93bb6b7499f106d4,68817205a84113384fffdfe3,6881a6906e8a35fe22a200aa,,,,,,,,,,,,./stim/wavs/mexican_match_interrogative-total-yn_Mariano-habla-del-tiempo.wav,1,,,124.2606,127.1622,1,1,2.3569,,0,3,3,16,1,17,0,mexican,,,,,,,,,,,,,,,,,,,,,,,,,,,,,,,,,,,,,,,,,,,,,,,,,,,,,,,,
,,,,,,,,,66315a3a93bb6b7499f106d4,Mexican ,13 or older,"no, only English or Spanish",yes,2025-07-23_23h35.14.957,empathy_intonation_perc_control,2024.2.4,Win32,7.501875469,66315a3a93bb6b7499f106d4,68817205a84113384fffdfe3,6881a6906e8a35fe22a200aa,,,,,,,,,,,,./stim/wavs/puertorican_match_declarative-broad-focus_Maria-bebe-el-vino.wav,0,,,127.1637,130.113,0,1,2.3638,,0,4,4,67,1,68,0,puertorican,,,,,,,,,,,,,,,,,,,,,,,,,,,,,,,,,,,,,,,,,,,,,,,,,,,,,,,,
,,,,,,,,,66315a3a93bb6b7499f106d4,Mexican ,13 or older,"no, only English or Spanish",yes,2025-07-23_23h35.14.957,empathy_intonation_perc_control,2024.2.4,Win32,7.501875469,66315a3a93bb6b7499f106d4,68817205a84113384fffdfe3,6881a6906e8a35fe22a200aa,,,,,,,,,,,,./stim/wavs/puertorican_mismatch_declarative-broad-focus_El-nino-oye-el-rio.wav,0,,,130.1141,132.7374,0,1,2.0426,,0,5,5,85,1,86,0,puertorican,,,,,,,,,,,,,,,,,,,,,,,,,,,,,,,,,,,,,,,,,,,,,,,,,,,,,,,,
,,,,,,,,,66315a3a93bb6b7499f106d4,Mexican ,13 or older,"no, only English or Spanish",yes,2025-07-23_23h35.14.957,empathy_intonation_perc_control,2024.2.4,Win32,7.501875469,66315a3a93bb6b7499f106d4,68817205a84113384fffdfe3,6881a6906e8a35fe22a200aa,,,,,,,,,,,,./stim/wavs/cuban_mismatch_declarative-broad-focus_Mi-tia-odia-la-lluvia.wav,0,,,132.7384,135.6501,1,0,2.3296,,0,6,6,77,1,78,0,cuban,,,,,,,,,,,,,,,,,,,,,,,,,,,,,,,,,,,,,,,,,,,,,,,,,,,,,,,,
,,,,,,,,,66315a3a93bb6b7499f106d4,Mexican ,13 or older,"no, only English or Spanish",yes,2025-07-23_23h35.14.957,empathy_intonation_perc_control,2024.2.4,Win32,7.501875469,66315a3a93bb6b7499f106d4,68817205a84113384fffdfe3,6881a6906e8a35fe22a200aa,,,,,,,,,,,,./stim/wavs/cuban_match_interrogative-total-yn_Mariano-habla-del-tiempo.wav,1,,,135.6512,138.6699,0,0,2.4708,,0,7,7,10,1,11,1,cuban,,,,,,,,,,,,,,,,,,,,,,,,,,,,,,,,,,,,,,,,,,,,,,,,,,,,,,,,
,,,,,,,,,66315a3a93bb6b7499f106d4,Mexican ,13 or older,"no, only English or Spanish",yes,2025-07-23_23h35.14.957,empathy_intonation_perc_control,2024.2.4,Win32,7.501875469,66315a3a93bb6b7499f106d4,68817205a84113384fffdfe3,6881a6906e8a35fe22a200aa,,,,,,,,,,,,./stim/wavs/mexican_match_interrogative-total-yn_Ana-lleva-el-abrigo.wav,1,,,138.6712,141.1893,1,1,1.923,,0,8,8,12,1,13,0,mexican,,,,,,,,,,,,,,,,,,,,,,,,,,,,,,,,,,,,,,,,,,,,,,,,,,,,,,,,
,,,,,,,,,66315a3a93bb6b7499f106d4,Mexican ,13 or older,"no, only English or Spanish",yes,2025-07-23_23h35.14.957,empathy_intonation_perc_control,2024.2.4,Win32,7.501875469,66315a3a93bb6b7499f106d4,68817205a84113384fffdfe3,6881a6906e8a35fe22a200aa,,,,,,,,,,,,./stim/wavs/castilian_match_declarative-broad-focus_Mariano-habla-del-tiempo.wav,0,,,141.1909,144.3631,0,1,2.6331,,0,9,9,48,1,49,0,castilian,,,,,,,,,,,,,,,,,,,,,,,,,,,,,,,,,,,,,,,,,,,,,,,,,,,,,,,,
,,,,,,,,,66315a3a93bb6b7499f106d4,Mexican ,13 or older,"no, only English or Spanish",yes,2025-07-23_23h35.14.957,empathy_intonation_perc_control,2024.2.4,Win32,7.501875469,66315a3a93bb6b7499f106d4,68817205a84113384fffdfe3,6881a6906e8a35fe22a200aa,,,,,,,,,,,,./stim/wavs/puertorican_match_declarative-broad-focus_Daniel-iba-a-Bolivia.wav,0,,,144.3646,147.333,0,1,2.4056,,0,10,10,63,1,64,0,puertorican,,,,,,,,,,,,,,,,,,,,,,,,,,,,,,,,,,,,,,,,,,,,,,,,,,,,,,,,
,,,,,,,,,66315a3a93bb6b7499f106d4,Mexican ,13 or older,"no, only English or Spanish",yes,2025-07-23_23h35.14.957,empathy_intonation_perc_control,2024.2.4,Win32,7.501875469,66315a3a93bb6b7499f106d4,68817205a84113384fffdfe3,6881a6906e8a35fe22a200aa,,,,,,,,,,,,./stim/wavs/castilian_mismatch_interrogative-total-yn_Mi-madre-come-la-fruta.wav,1,,,147.3339,151.4942,0,0,3.6049,,0,11,11,26,1,27,0,castilian,,,,,,,,,,,,,,,,,,,,,,,,,,,,,,,,,,,,,,,,,,,,,,,,,,,,,,,,
,,,,,,,,,66315a3a93bb6b7499f106d4,Mexican ,13 or older,"no, only English or Spanish",yes,2025-07-23_23h35.14.957,empathy_intonation_perc_control,2024.2.4,Win32,7.501875469,66315a3a93bb6b7499f106d4,68817205a84113384fffdfe3,6881a6906e8a35fe22a200aa,,,,,,,,,,,,./stim/wavs/cuban_mismatch_interrogative-total-yn_Mi-madre-come-la-fruta.wav,1,,,151.4961,154.2866,0,0,2.1906,,0,12,12,31,1,32,1,cuban,,,,,,,,,,,,,,,,,,,,,,,,,,,,,,,,,,,,,,,,,,,,,,,,,,,,,,,,
,,,,,,,,,66315a3a93bb6b7499f106d4,Mexican ,13 or older,"no, only English or Spanish",yes,2025-07-23_23h35.14.957,empathy_intonation_perc_control,2024.2.4,Win32,7.501875469,66315a3a93bb6b7499f106d4,68817205a84113384fffdfe3,6881a6906e8a35fe22a200aa,,,,,,,,,,,,./stim/wavs/castilian_mismatch_declarative-broad-focus_Mi-tia-odia-la-lluvia.wav,0,,,154.2879,157.5346,0,1,2.6611,,0,13,13,72,1,73,0,castilian,,,,,,,,,,,,,,,,,,,,,,,,,,,,,,,,,,,,,,,,,,,,,,,,,,,,,,,,
,,,,,,,,,66315a3a93bb6b7499f106d4,Mexican ,13 or older,"no, only English or Spanish",yes,2025-07-23_23h35.14.957,empathy_intonation_perc_control,2024.2.4,Win32,7.501875469,66315a3a93bb6b7499f106d4,68817205a84113384fffdfe3,6881a6906e8a35fe22a200aa,,,,,,,,,,,,./stim/wavs/puertorican_match_declarative-broad-focus_David-leia-el-libro.wav,0,,,157.5359,161.4596,0,1,3.3437,,0,14,14,64,1,65,0,puertorican,,,,,,,,,,,,,,,,,,,,,,,,,,,,,,,,,,,,,,,,,,,,,,,,,,,,,,,,
,,,,,,,,,66315a3a93bb6b7499f106d4,Mexican ,13 or older,"no, only English or Spanish",yes,2025-07-23_23h35.14.957,empathy_intonation_perc_control,2024.2.4,Win32,7.501875469,66315a3a93bb6b7499f106d4,68817205a84113384fffdfe3,6881a6906e8a35fe22a200aa,,,,,,,,,,,,./stim/wavs/cuban_mismatch_interrogative-total-yn_El-hombre-mira-la-luna.wav,1,,,161.4608,165.1098,0,0,3.0986,,0,15,15,29,1,30,1,cuban,,,,,,,,,,,,,,,,,,,,,,,,,,,,,,,,,,,,,,,,,,,,,,,,,,,,,,,,
,,,,,,,,,66315a3a93bb6b7499f106d4,Mexican ,13 or older,"no, only English or Spanish",yes,2025-07-23_23h35.14.957,empathy_intonation_perc_control,2024.2.4,Win32,7.501875469,66315a3a93bb6b7499f106d4,68817205a84113384fffdfe3,6881a6906e8a35fe22a200aa,,,,,,,,,,,,./stim/wavs/castilian_match_declarative-broad-focus_Manuela-vende-el-carro.wav,0,,,165.111,168.17,0,1,2.4742,,0,16,16,46,1,47,0,castilian,,,,,,,,,,,,,,,,,,,,,,,,,,,,,,,,,,,,,,,,,,,,,,,,,,,,,,,,
,,,,,,,,,66315a3a93bb6b7499f106d4,Mexican ,13 or older,"no, only English or Spanish",yes,2025-07-23_23h35.14.957,empathy_intonation_perc_control,2024.2.4,Win32,7.501875469,66315a3a93bb6b7499f106d4,68817205a84113384fffdfe3,6881a6906e8a35fe22a200aa,,,,,,,,,,,,./stim/wavs/mexican_match_declarative-broad-focus_David-leia-el-libro.wav,0,,,168.1712,171.0052,0,1,2.3,,0,17,17,58,1,59,0,mexican,,,,,,,,,,,,,,,,,,,,,,,,,,,,,,,,,,,,,,,,,,,,,,,,,,,,,,,,
,,,,,,,,,66315a3a93bb6b7499f106d4,Mexican ,13 or older,"no, only English or Spanish",yes,2025-07-23_23h35.14.957,empathy_intonation_perc_control,2024.2.4,Win32,7.501875469,66315a3a93bb6b7499f106d4,68817205a84113384fffdfe3,6881a6906e8a35fe22a200aa,,,,,,,,,,,,./stim/wavs/mexican_match_declarative-broad-focus_Marta-abre-el-regalo.wav,0,,,171.0073,173.6106,0,1,2.0112,,0,18,18,61,1,62,0,mexican,,,,,,,,,,,,,,,,,,,,,,,,,,,,,,,,,,,,,,,,,,,,,,,,,,,,,,,,
,,,,,,,,,66315a3a93bb6b7499f106d4,Mexican ,13 or older,"no, only English or Spanish",yes,2025-07-23_23h35.14.957,empathy_intonation_perc_control,2024.2.4,Win32,7.501875469,66315a3a93bb6b7499f106d4,68817205a84113384fffdfe3,6881a6906e8a35fe22a200aa,,,,,,,,,,,,./stim/wavs/cuban_match_interrogative-total-yn_Marta-abre-el-regalo.wav,1,,,173.6118,175.7214,0,0,1.541,,0,19,19,11,1,12,1,cuban,,,,,,,,,,,,,,,,,,,,,,,,,,,,,,,,,,,,,,,,,,,,,,,,,,,,,,,,
,,,,,,,,,66315a3a93bb6b7499f106d4,Mexican ,13 or older,"no, only English or Spanish",yes,2025-07-23_23h35.14.957,empathy_intonation_perc_control,2024.2.4,Win32,7.501875469,66315a3a93bb6b7499f106d4,68817205a84113384fffdfe3,6881a6906e8a35fe22a200aa,,,,,,,,,,,,./stim/wavs/puertorican_match_interrogative-total-yn_Emilio-ama-la-marcha.wav,1,,,175.7224,180.2045,1,1,3.9086,,0,20,20,21,1,22,1,puertorican,,,,,,,,,,,,,,,,,,,,,,,,,,,,,,,,,,,,,,,,,,,,,,,,,,,,,,,,
,,,,,,,,,66315a3a93bb6b7499f106d4,Mexican ,13 or older,"no, only English or Spanish",yes,2025-07-23_23h35.14.957,empathy_intonation_perc_control,2024.2.4,Win32,7.501875469,66315a3a93bb6b7499f106d4,68817205a84113384fffdfe3,6881a6906e8a35fe22a200aa,,,,,,,,,,,,./stim/wavs/cuban_match_interrogative-total-yn_Daniel-iba-a-Bolivia.wav,1,,,180.2054,183.9288,1,1,3.1604,,0,21,21,7,1,8,1,cuban,,,,,,,,,,,,,,,,,,,,,,,,,,,,,,,,,,,,,,,,,,,,,,,,,,,,,,,,
,,,,,,,,,66315a3a93bb6b7499f106d4,Mexican ,13 or older,"no, only English or Spanish",yes,2025-07-23_23h35.14.957,empathy_intonation_perc_control,2024.2.4,Win32,7.501875469,66315a3a93bb6b7499f106d4,68817205a84113384fffdfe3,6881a6906e8a35fe22a200aa,,,,,,,,,,,,./stim/wavs/puertorican_match_declarative-broad-focus_Ana-lleva-el-abrigo.wav,0,,,183.9307,189.6055,0,1,5.0827,,0,22,22,62,1,63,0,puertorican,,,,,,,,,,,,,,,,,,,,,,,,,,,,,,,,,,,,,,,,,,,,,,,,,,,,,,,,
,,,,,,,,,66315a3a93bb6b7499f106d4,Mexican ,13 or older,"no, only English or Spanish",yes,2025-07-23_23h35.14.957,empathy_intonation_perc_control,2024.2.4,Win32,7.501875469,66315a3a93bb6b7499f106d4,68817205a84113384fffdfe3,6881a6906e8a35fe22a200aa,,,,,,,,,,,,./stim/wavs/castilian_match_declarative-broad-focus_David-leia-el-libro.wav,0,,,189.6072,193.242,0,1,3.0964,,0,23,23,44,1,45,0,castilian,,,,,,,,,,,,,,,,,,,,,,,,,,,,,,,,,,,,,,,,,,,,,,,,,,,,,,,,
,,,,,,,,,66315a3a93bb6b7499f106d4,Mexican ,13 or older,"no, only English or Spanish",yes,2025-07-23_23h35.14.957,empathy_intonation_perc_control,2024.2.4,Win32,7.501875469,66315a3a93bb6b7499f106d4,68817205a84113384fffdfe3,6881a6906e8a35fe22a200aa,,,,,,,,,,,,./stim/wavs/puertorican_mismatch_declarative-broad-focus_El-hombre-mira-la-luna.wav,0,,,193.2432,196.5704,0,1,2.7632,,0,24,24,84,1,85,0,puertorican,,,,,,,,,,,,,,,,,,,,,,,,,,,,,,,,,,,,,,,,,,,,,,,,,,,,,,,,
,,,,,,,,,66315a3a93bb6b7499f106d4,Mexican ,13 or older,"no, only English or Spanish",yes,2025-07-23_23h35.14.957,empathy_intonation_perc_control,2024.2.4,Win32,7.501875469,66315a3a93bb6b7499f106d4,68817205a84113384fffdfe3,6881a6906e8a35fe22a200aa,,,,,,,,,,,,./stim/wavs/castilian_match_declarative-broad-focus_Emilio-ama-la-marcha.wav,0,,,196.5717,200.7294,0,1,3.5793,,0,25,25,45,1,46,0,castilian,,,,,,,,,,,,,,,,,,,,,,,,,,,,,,,,,,,,,,,,,,,,,,,,,,,,,,,,
,,,,,,,,,66315a3a93bb6b7499f106d4,Mexican ,13 or older,"no, only English or Spanish",yes,2025-07-23_23h35.14.957,empathy_intonation_perc_control,2024.2.4,Win32,7.501875469,66315a3a93bb6b7499f106d4,68817205a84113384fffdfe3,6881a6906e8a35fe22a200aa,,,,,,,,,,,,./stim/wavs/mexican_mismatch_interrogative-total-yn_Mi-novio-viene-del-lago.wav,1,,,200.7305,204.01,0,0,2.7259,,0,26,26,37,1,38,0,mexican,,,,,,,,,,,,,,,,,,,,,,,,,,,,,,,,,,,,,,,,,,,,,,,,,,,,,,,,
,,,,,,,,,66315a3a93bb6b7499f106d4,Mexican ,13 or older,"no, only English or Spanish",yes,2025-07-23_23h35.14.957,empathy_intonation_perc_control,2024.2.4,Win32,7.501875469,66315a3a93bb6b7499f106d4,68817205a84113384fffdfe3,6881a6906e8a35fe22a200aa,,,,,,,,,,,,./stim/wavs/cuban_mismatch_declarative-broad-focus_El-bebe-comia-muy-bien.wav,0,,,204.0112,208.3747,0,1,3.8003,,0,27,27,73,1,74,0,cuban,,,,,,,,,,,,,,,,,,,,,,,,,,,,,,,,,,,,,,,,,,,,,,,,,,,,,,,,
,,,,,,,,,66315a3a93bb6b7499f106d4,Mexican ,13 or older,"no, only English or Spanish",yes,2025-07-23_23h35.14.957,empathy_intonation_perc_control,2024.2.4,Win32,7.501875469,66315a3a93bb6b7499f106d4,68817205a84113384fffdfe3,6881a6906e8a35fe22a200aa,,,,,,,,,,,,./stim/wavs/mexican_mismatch_declarative-broad-focus_Mi-tia-odia-la-lluvia.wav,0,,,208.3758,216.2049,0,1,7.2432,,0,28,28,82,1,83,0,mexican,,,,,,,,,,,,,,,,,,,,,,,,,,,,,,,,,,,,,,,,,,,,,,,,,,,,,,,,
,,,,,,,,,66315a3a93bb6b7499f106d4,Mexican ,13 or older,"no, only English or Spanish",yes,2025-07-23_23h35.14.957,empathy_intonation_perc_control,2024.2.4,Win32,7.501875469,66315a3a93bb6b7499f106d4,68817205a84113384fffdfe3,6881a6906e8a35fe22a200aa,,,,,,,,,,,,./stim/wavs/castilian_mismatch_declarative-broad-focus_La-maestra-vive-en-Paris.wav,0,,,216.2067,219.8153,0,1,3.041,,0,29,29,69,1,70,0,castilian,,,,,,,,,,,,,,,,,,,,,,,,,,,,,,,,,,,,,,,,,,,,,,,,,,,,,,,,
,,,,,,,,,66315a3a93bb6b7499f106d4,Mexican ,13 or older,"no, only English or Spanish",yes,2025-07-23_23h35.14.957,empathy_intonation_perc_control,2024.2.4,Win32,7.501875469,66315a3a93bb6b7499f106d4,68817205a84113384fffdfe3,6881a6906e8a35fe22a200aa,,,,,,,,,,,,./stim/wavs/cuban_match_declarative-broad-focus_Marta-abre-el-regalo.wav,0,,,219.8168,222.6652,0,1,2.2637,,0,30,30,55,1,56,0,cuban,,,,,,,,,,,,,,,,,,,,,,,,,,,,,,,,,,,,,,,,,,,,,,,,,,,,,,,,
,,,,,,,,,66315a3a93bb6b7499f106d4,Mexican ,13 or older,"no, only English or Spanish",yes,2025-07-23_23h35.14.957,empathy_intonation_perc_control,2024.2.4,Win32,7.501875469,66315a3a93bb6b7499f106d4,68817205a84113384fffdfe3,6881a6906e8a35fe22a200aa,,,,,,,,,,,,./stim/wavs/cuban_match_interrogative-total-yn_Maria-bebe-el-vino.wav,1,,,222.6663,227.1377,0,0,3.9021,,0,31,31,9,1,10,1,cuban,,,,,,,,,,,,,,,,,,,,,,,,,,,,,,,,,,,,,,,,,,,,,,,,,,,,,,,,
,,,,,,,,,66315a3a93bb6b7499f106d4,Mexican ,13 or older,"no, only English or Spanish",yes,2025-07-23_23h35.14.957,empathy_intonation_perc_control,2024.2.4,Win32,7.501875469,66315a3a93bb6b7499f106d4,68817205a84113384fffdfe3,6881a6906e8a35fe22a200aa,,,,,,,,,,,,./stim/wavs/castilian_match_interrogative-total-yn_Maria-bebe-el-vino.wav,1,,,227.1395,229.2935,0,0,1.6062,,0,32,32,3,1,4,0,castilian,,,,,,,,,,,,,,,,,,,,,,,,,,,,,,,,,,,,,,,,,,,,,,,,,,,,,,,,
,,,,,,,,,66315a3a93bb6b7499f106d4,Mexican ,13 or older,"no, only English or Spanish",yes,2025-07-23_23h35.14.957,empathy_intonation_perc_control,2024.2.4,Win32,7.501875469,66315a3a93bb6b7499f106d4,68817205a84113384fffdfe3,6881a6906e8a35fe22a200aa,,,,,,,,,,,,./stim/wavs/puertorican_mismatch_interrogative-total-yn_La-nina-lava-el-plato.wav,1,,,229.2954,231.9325,0,0,2.0487,,0,33,33,42,1,43,1,puertorican,,,,,,,,,,,,,,,,,,,,,,,,,,,,,,,,,,,,,,,,,,,,,,,,,,,,,,,,
,,,,,,,,,66315a3a93bb6b7499f106d4,Mexican ,13 or older,"no, only English or Spanish",yes,2025-07-23_23h35.14.957,empathy_intonation_perc_control,2024.2.4,Win32,7.501875469,66315a3a93bb6b7499f106d4,68817205a84113384fffdfe3,6881a6906e8a35fe22a200aa,,,,,,,,,,,,./stim/wavs/castilian_match_declarative-broad-focus_Marta-abre-el-regalo.wav,0,,,231.9338,235.1836,0,1,2.6084,,0,34,34,49,1,50,0,castilian,,,,,,,,,,,,,,,,,,,,,,,,,,,,,,,,,,,,,,,,,,,,,,,,,,,,,,,,
,,,,,,,,,66315a3a93bb6b7499f106d4,Mexican ,13 or older,"no, only English or Spanish",yes,2025-07-23_23h35.14.957,empathy_intonation_perc_control,2024.2.4,Win32,7.501875469,66315a3a93bb6b7499f106d4,68817205a84113384fffdfe3,6881a6906e8a35fe22a200aa,,,,,,,,,,,,./stim/wavs/cuban_match_interrogative-total-yn_Manuela-vende-el-carro.wav,1,,,235.1848,237.9489,0,0,2.2214,,0,35,35,8,1,9,1,cuban,,,,,,,,,,,,,,,,,,,,,,,,,,,,,,,,,,,,,,,,,,,,,,,,,,,,,,,,
,,,,,,,,,66315a3a93bb6b7499f106d4,Mexican ,13 or older,"no, only English or Spanish",yes,2025-07-23_23h35.14.957,empathy_intonation_perc_control,2024.2.4,Win32,7.501875469,66315a3a93bb6b7499f106d4,68817205a84113384fffdfe3,6881a6906e8a35fe22a200aa,,,,,,,,,,,,./stim/wavs/castilian_mismatch_declarative-broad-focus_La-nina-lava-el-plato.wav,0,,,237.95,240.5018,0,1,2.0105,,0,36,36,70,1,71,0,castilian,,,,,,,,,,,,,,,,,,,,,,,,,,,,,,,,,,,,,,,,,,,,,,,,,,,,,,,,
,,,,,,,,,66315a3a93bb6b7499f106d4,Mexican ,13 or older,"no, only English or Spanish",yes,2025-07-23_23h35.14.957,empathy_intonation_perc_control,2024.2.4,Win32,7.501875469,66315a3a93bb6b7499f106d4,68817205a84113384fffdfe3,6881a6906e8a35fe22a200aa,,,,,,,,,,,,./stim/wavs/puertorican_mismatch_declarative-broad-focus_El-bebe-comia-muy-bien.wav,0,,,240.5031,242.9906,0,1,1.924,,0,37,37,83,1,84,0,puertorican,,,,,,,,,,,,,,,,,,,,,,,,,,,,,,,,,,,,,,,,,,,,,,,,,,,,,,,,
,,,,,,,,,66315a3a93bb6b7499f106d4,Mexican ,13 or older,"no, only English or Spanish",yes,2025-07-23_23h35.14.957,empathy_intonation_perc_control,2024.2.4,Win32,7.501875469,66315a3a93bb6b7499f106d4,68817205a84113384fffdfe3,6881a6906e8a35fe22a200aa,,,,,,,,,,,,./stim/wavs/castilian_match_interrogative-total-yn_Emilio-ama-la-marcha.wav,1,,,242.9919,246.0877,0,0,2.5523,,0,38,38,1,1,2,0,castilian,,,,,,,,,,,,,,,,,,,,,,,,,,,,,,,,,,,,,,,,,,,,,,,,,,,,,,,,
,,,,,,,,,66315a3a93bb6b7499f106d4,Mexican ,13 or older,"no, only English or Spanish",yes,2025-07-23_23h35.14.957,empathy_intonation_perc_control,2024.2.4,Win32,7.501875469,66315a3a93bb6b7499f106d4,68817205a84113384fffdfe3,6881a6906e8a35fe22a200aa,,,,,,,,,,,,./stim/wavs/cuban_mismatch_declarative-broad-focus_Mi-novio-viene-del-lago.wav,0,,,246.0886,248.6754,0,1,2.0289,,0,39,39,76,1,77,0,cuban,,,,,,,,,,,,,,,,,,,,,,,,,,,,,,,,,,,,,,,,,,,,,,,,,,,,,,,,
,,,,,,,,,66315a3a93bb6b7499f106d4,Mexican ,13 or older,"no, only English or Spanish",yes,2025-07-23_23h35.14.957,empathy_intonation_perc_control,2024.2.4,Win32,7.501875469,66315a3a93bb6b7499f106d4,68817205a84113384fffdfe3,6881a6906e8a35fe22a200aa,,,,,,,,,,,,./stim/wavs/mexican_mismatch_interrogative-total-yn_Mi-tia-odia-la-lluvia.wav,1,,,248.6772,251.7836,0,0,2.5055,,0,40,40,38,1,39,0,mexican,,,,,,,,,,,,,,,,,,,,,,,,,,,,,,,,,,,,,,,,,,,,,,,,,,,,,,,,
,,,,,,,,,66315a3a93bb6b7499f106d4,Mexican ,13 or older,"no, only English or Spanish",yes,2025-07-23_23h35.14.957,empathy_intonation_perc_control,2024.2.4,Win32,7.501875469,66315a3a93bb6b7499f106d4,68817205a84113384fffdfe3,6881a6906e8a35fe22a200aa,,,,,,,,,,,,./stim/wavs/mexican_mismatch_interrogative-total-yn_El-hombre-mira-la-luna.wav,1,,,251.7846,255.6138,1,1,3.2855,,0,41,41,34,1,35,0,mexican,,,,,,,,,,,,,,,,,,,,,,,,,,,,,,,,,,,,,,,,,,,,,,,,,,,,,,,,
,,,,,,,,,66315a3a93bb6b7499f106d4,Mexican ,13 or older,"no, only English or Spanish",yes,2025-07-23_23h35.14.957,empathy_intonation_perc_control,2024.2.4,Win32,7.501875469,66315a3a93bb6b7499f106d4,68817205a84113384fffdfe3,6881a6906e8a35fe22a200aa,,,,,,,,,,,,./stim/wavs/puertorican_mismatch_interrogative-total-yn_El-nino-oye-el-rio.wav,1,,,255.6152,259.3316,0,0,3.1703,,0,42,42,40,1,41,1,puertorican,,,,,,,,,,,,,,,,,,,,,,,,,,,,,,,,,,,,,,,,,,,,,,,,,,,,,,,,
,,,,,,,,,66315a3a93bb6b7499f106d4,Mexican ,13 or older,"no, only English or Spanish",yes,2025-07-23_23h35.14.957,empathy_intonation_perc_control,2024.2.4,Win32,7.501875469,66315a3a93bb6b7499f106d4,68817205a84113384fffdfe3,6881a6906e8a35fe22a200aa,,,,,,,,,,,,./stim/wavs/mexican_match_declarative-broad-focus_Emilio-ama-la-marcha.wav,0,,,259.3327,262.3795,0,1,2.4557,,0,43,43,59,1,60,0,mexican,,,,,,,,,,,,,,,,,,,,,,,,,,,,,,,,,,,,,,,,,,,,,,,,,,,,,,,,
,,,,,,,,,66315a3a93bb6b7499f106d4,Mexican ,13 or older,"no, only English or Spanish",yes,2025-07-23_23h35.14.957,empathy_intonation_perc_control,2024.2.4,Win32,7.501875469,66315a3a93bb6b7499f106d4,68817205a84113384fffdfe3,6881a6906e8a35fe22a200aa,,,,,,,,,,,,./stim/wavs/puertorican_match_declarative-broad-focus_Manuela-vende-el-carro.wav,0,,,262.3823,266.1955,0,1,3.243,,0,44,44,66,1,67,0,puertorican,,,,,,,,,,,,,,,,,,,,,,,,,,,,,,,,,,,,,,,,,,,,,,,,,,,,,,,,
,,,,,,,,,66315a3a93bb6b7499f106d4,Mexican ,13 or older,"no, only English or Spanish",yes,2025-07-23_23h35.14.957,empathy_intonation_perc_control,2024.2.4,Win32,7.501875469,66315a3a93bb6b7499f106d4,68817205a84113384fffdfe3,6881a6906e8a35fe22a200aa,,,,,,,,,,,,./stim/wavs/puertorican_match_interrogative-total-yn_Maria-bebe-el-vino.wav,1,,,266.1971,270.5922,0,0,3.7979,,0,45,45,23,1,24,1,puertorican,,,,,,,,,,,,,,,,,,,,,,,,,,,,,,,,,,,,,,,,,,,,,,,,,,,,,,,,
,,,,,,,,,66315a3a93bb6b7499f106d4,Mexican ,13 or older,"no, only English or Spanish",yes,2025-07-23_23h35.14.957,empathy_intonation_perc_control,2024.2.4,Win32,7.501875469,66315a3a93bb6b7499f106d4,68817205a84113384fffdfe3,6881a6906e8a35fe22a200aa,,,,,,,,,,,,./stim/wavs/puertorican_mismatch_interrogative-total-yn_El-hombre-mira-la-luna.wav,1,,,270.594,273.5194,0,0,2.3351,,0,46,46,39,1,40,1,puertorican,,,,,,,,,,,,,,,,,,,,,,,,,,,,,,,,,,,,,,,,,,,,,,,,,,,,,,,,
,,,,,,,,,66315a3a93bb6b7499f106d4,Mexican ,13 or older,"no, only English or Spanish",yes,2025-07-23_23h35.14.957,empathy_intonation_perc_control,2024.2.4,Win32,7.501875469,66315a3a93bb6b7499f106d4,68817205a84113384fffdfe3,6881a6906e8a35fe22a200aa,,,,,,,,,,,,./stim/wavs/castilian_match_interrogative-total-yn_Mariano-habla-del-tiempo.wav,1,,,273.5203,277.2846,1,1,3.2131,,0,47,47,4,1,5,0,castilian,,,,,,,,,,,,,,,,,,,,,,,,,,,,,,,,,,,,,,,,,,,,,,,,,,,,,,,,
,,,,,,,,,66315a3a93bb6b7499f106d4,Mexican ,13 or older,"no, only English or Spanish",yes,2025-07-23_23h35.14.957,empathy_intonation_perc_control,2024.2.4,Win32,7.501875469,66315a3a93bb6b7499f106d4,68817205a84113384fffdfe3,6881a6906e8a35fe22a200aa,,,,,,,,,,,,./stim/wavs/puertorican_mismatch_declarative-broad-focus_La-nina-lava-el-plato.wav,0,,,277.286,279.5071,0,1,1.6155,,0,48,48,87,1,88,0,puertorican,,,,,,,,,,,,,,,,,,,,,,,,,,,,,,,,,,,,,,,,,,,,,,,,,,,,,,,,
,,,,,,,,,66315a3a93bb6b7499f106d4,Mexican ,13 or older,"no, only English or Spanish",yes,2025-07-23_23h35.14.957,empathy_intonation_perc_control,2024.2.4,Win32,7.501875469,66315a3a93bb6b7499f106d4,68817205a84113384fffdfe3,6881a6906e8a35fe22a200aa,,,,,,,,,,,,./stim/wavs/mexican_mismatch_declarative-broad-focus_El-bebe-comia-muy-bien.wav,0,,,279.5082,281.745,0,1,1.7044,,0,49,49,78,1,79,0,mexican,,,,,,,,,,,,,,,,,,,,,,,,,,,,,,,,,,,,,,,,,,,,,,,,,,,,,,,,
,,,,,,,,,66315a3a93bb6b7499f106d4,Mexican ,13 or older,"no, only English or Spanish",yes,2025-07-23_23h35.14.957,empathy_intonation_perc_control,2024.2.4,Win32,7.501875469,66315a3a93bb6b7499f106d4,68817205a84113384fffdfe3,6881a6906e8a35fe22a200aa,,,,,,,,,,,,./stim/wavs/mexican_match_interrogative-total-yn_Daniel-iba-a-Bolivia.wav,1,,,281.7467,285.0639,1,1,2.7667,,0,50,50,13,1,14,0,mexican,,,,,,,,,,,,,,,,,,,,,,,,,,,,,,,,,,,,,,,,,,,,,,,,,,,,,,,,
,,,,,,,,,66315a3a93bb6b7499f106d4,Mexican ,13 or older,"no, only English or Spanish",yes,2025-07-23_23h35.14.957,empathy_intonation_perc_control,2024.2.4,Win32,7.501875469,66315a3a93bb6b7499f106d4,68817205a84113384fffdfe3,6881a6906e8a35fe22a200aa,,,,,,,,,,,,./stim/wavs/castilian_mismatch_interrogative-total-yn_Mi-novio-viene-del-lago.wav,1,,,285.065,288.5253,0,0,2.8931,,0,51,51,27,1,28,0,castilian,,,,,,,,,,,,,,,,,,,,,,,,,,,,,,,,,,,,,,,,,,,,,,,,,,,,,,,,
,,,,,,,,,66315a3a93bb6b7499f106d4,Mexican ,13 or older,"no, only English or Spanish",yes,2025-07-23_23h35.14.957,empathy_intonation_perc_control,2024.2.4,Win32,7.501875469,66315a3a93bb6b7499f106d4,68817205a84113384fffdfe3,6881a6906e8a35fe22a200aa,,,,,,,,,,,,./stim/wavs/puertorican_match_interrogative-total-yn_David-leia-el-libro.wav,1,,,288.5263,290.8427,0,0,1.7645,,0,52,52,20,1,21,1,puertorican,,,,,,,,,,,,,,,,,,,,,,,,,,,,,,,,,,,,,,,,,,,,,,,,,,,,,,,,
,,,,,,,,,66315a3a93bb6b7499f106d4,Mexican ,13 or older,"no, only English or Spanish",yes,2025-07-23_23h35.14.957,empathy_intonation_perc_control,2024.2.4,Win32,7.501875469,66315a3a93bb6b7499f106d4,68817205a84113384fffdfe3,6881a6906e8a35fe22a200aa,,,,,,,,,,,,./stim/wavs/mexican_match_declarative-broad-focus_Mariano-habla-del-tiempo.wav,0,,,290.8438,293.9701,0,1,2.6044,,0,53,53,60,1,61,0,mexican,,,,,,,,,,,,,,,,,,,,,,,,,,,,,,,,,,,,,,,,,,,,,,,,,,,,,,,,
,,,,,,,,,66315a3a93bb6b7499f106d4,Mexican ,13 or older,"no, only English or Spanish",yes,2025-07-23_23h35.14.957,empathy_intonation_perc_control,2024.2.4,Win32,7.501875469,66315a3a93bb6b7499f106d4,68817205a84113384fffdfe3,6881a6906e8a35fe22a200aa,,,,,,,,,,,,./stim/wavs/cuban_mismatch_declarative-broad-focus_La-nina-lava-el-plato.wav,0,,,293.9712,296.4836,0,1,1.9615,,0,54,54,75,1,76,0,cuban,,,,,,,,,,,,,,,,,,,,,,,,,,,,,,,,,,,,,,,,,,,,,,,,,,,,,,,,
,,,,,,,,,66315a3a93bb6b7499f106d4,Mexican ,13 or older,"no, only English or Spanish",yes,2025-07-23_23h35.14.957,empathy_intonation_perc_control,2024.2.4,Win32,7.501875469,66315a3a93bb6b7499f106d4,68817205a84113384fffdfe3,6881a6906e8a35fe22a200aa,,,,,,,,,,,,./stim/wavs/castilian_mismatch_interrogative-total-yn_Mi-tia-odia-la-lluvia.wav,1,,,296.4858,375.6458,0,0,78.5891,,0,55,55,28,1,29,0,castilian,,,,,,,,,,,,,,,,,,,,,,,,,,,,,,,,,,,,,,,,,,,,,,,,,,,,,,,,
,,,,,,,,,66315a3a93bb6b7499f106d4,Mexican ,13 or older,"no, only English or Spanish",yes,2025-07-23_23h35.14.957,empathy_intonation_perc_control,2024.2.4,Win32,7.501875469,66315a3a93bb6b7499f106d4,68817205a84113384fffdfe3,6881a6906e8a35fe22a200aa,,,,,,,,,,,,./stim/wavs/puertorican_match_interrogative-total-yn_Daniel-iba-a-Bolivia.wav,1,,,375.6486,379.4475,0,0,3.1919,,0,56,56,19,1,20,1,puertorican,,,,,,,,,,,,,,,,,,,,,,,,,,,,,,,,,,,,,,,,,,,,,,,,,,,,,,,,
,,,,,,,,,66315a3a93bb6b7499f106d4,Mexican ,13 or older,"no, only English or Spanish",yes,2025-07-23_23h35.14.957,empathy_intonation_perc_control,2024.2.4,Win32,7.501875469,66315a3a93bb6b7499f106d4,68817205a84113384fffdfe3,6881a6906e8a35fe22a200aa,,,,,,,,,,,,./stim/wavs/mexican_mismatch_interrogative-total-yn_La-maestra-vive-en-Paris.wav,1,,,379.4505,382.5141,1,1,2.4109,,0,57,57,36,1,37,0,mexican,,,,,,,,,,,,,,,,,,,,,,,,,,,,,,,,,,,,,,,,,,,,,,,,,,,,,,,,
,,,,,,,,,66315a3a93bb6b7499f106d4,Mexican ,13 or older,"no, only English or Spanish",yes,2025-07-23_23h35.14.957,empathy_intonation_perc_control,2024.2.4,Win32,7.501875469,66315a3a93bb6b7499f106d4,68817205a84113384fffdfe3,6881a6906e8a35fe22a200aa,,,,,,,,,,,,./stim/wavs/mexican_mismatch_declarative-broad-focus_La-maestra-vive-en-Paris.wav,0,,,382.5154,386.6154,1,0,3.4815,,0,58,58,80,1,81,0,mexican,,,,,,,,,,,,,,,,,,,,,,,,,,,,,,,,,,,,,,,,,,,,,,,,,,,,,,,,
,,,,,,,,,66315a3a93bb6b7499f106d4,Mexican ,13 or older,"no, only English or Spanish",yes,2025-07-23_23h35.14.957,empathy_intonation_perc_control,2024.2.4,Win32,7.501875469,66315a3a93bb6b7499f106d4,68817205a84113384fffdfe3,6881a6906e8a35fe22a200aa,,,,,,,,,,,,./stim/wavs/castilian_mismatch_declarative-broad-focus_El-nino-oye-el-rio.wav,0,,,386.6163,389.323,0,1,2.145,,0,59,59,68,1,69,0,castilian,,,,,,,,,,,,,,,,,,,,,,,,,,,,,,,,,,,,,,,,,,,,,,,,,,,,,,,,
,,,,,,,,,66315a3a93bb6b7499f106d4,Mexican ,13 or older,"no, only English or Spanish",yes,2025-07-23_23h35.14.957,empathy_intonation_perc_control,2024.2.4,Win32,7.501875469,66315a3a93bb6b7499f106d4,68817205a84113384fffdfe3,6881a6906e8a35fe22a200aa,,,,,,,,,,,,./stim/wavs/puertorican_match_interrogative-total-yn_Manuela-vende-el-carro.wav,1,,,389.3243,391.9611,1,1,2.0773,,0,60,60,22,1,23,1,puertorican,,,,,,,,,,,,,,,,,,,,,,,,,,,,,,,,,,,,,,,,,,,,,,,,,,,,,,,,
,,,,,,,,,66315a3a93bb6b7499f106d4,Mexican ,13 or older,"no, only English or Spanish",yes,2025-07-23_23h35.14.957,empathy_intonation_perc_control,2024.2.4,Win32,7.501875469,66315a3a93bb6b7499f106d4,68817205a84113384fffdfe3,6881a6906e8a35fe22a200aa,,,,,,,,,,,,./stim/wavs/mexican_match_declarative-broad-focus_Daniel-iba-a-Bolivia.wav,0,,,391.962,394.4082,0,1,1.903,,0,61,61,57,1,58,0,mexican,,,,,,,,,,,,,,,,,,,,,,,,,,,,,,,,,,,,,,,,,,,,,,,,,,,,,,,,
,,,,,,,,,66315a3a93bb6b7499f106d4,Mexican ,13 or older,"no, only English or Spanish",yes,2025-07-23_23h35.14.957,empathy_intonation_perc_control,2024.2.4,Win32,7.501875469,66315a3a93bb6b7499f106d4,68817205a84113384fffdfe3,6881a6906e8a35fe22a200aa,,,,,,,,,,,,./stim/wavs/castilian_match_declarative-broad-focus_Maria-bebe-el-vino.wav,0,,,394.4093,396.7723,0,1,1.7351,,0,62,62,47,1,48,0,castilian,,,,,,,,,,,,,,,,,,,,,,,,,,,,,,,,,,,,,,,,,,,,,,,,,,,,,,,,
,,,,,,,,,66315a3a93bb6b7499f106d4,Mexican ,13 or older,"no, only English or Spanish",yes,2025-07-23_23h35.14.957,empathy_intonation_perc_control,2024.2.4,Win32,7.501875469,66315a3a93bb6b7499f106d4,68817205a84113384fffdfe3,6881a6906e8a35fe22a200aa,,,,,,,,,,,,./stim/wavs/puertorican_match_interrogative-total-yn_Ana-lleva-el-abrigo.wav,1,,,396.7736,400.4727,1,1,3.1015,,0,63,63,18,1,19,1,puertorican,,,,,,,,,,,,,,,,,,,,,,,,,,,,,,,,,,,,,,,,,,,,,,,,,,,,,,,,
,,,,,,,,,66315a3a93bb6b7499f106d4,Mexican ,13 or older,"no, only English or Spanish",yes,2025-07-23_23h35.14.957,empathy_intonation_perc_control,2024.2.4,Win32,7.501875469,66315a3a93bb6b7499f106d4,68817205a84113384fffdfe3,6881a6906e8a35fe22a200aa,,,,,,,,,,,,./stim/wavs/puertorican_mismatch_declarative-broad-focus_La-maestra-vive-en-Paris.wav,0,,,400.4741,402.9176,0,1,1.8713,,0,64,64,86,1,87,0,puertorican,,,,,,,,,,,,,,,,,,,,,,,,,,,,,,,,,,,,,,,,,,,,,,,,,,,,,,,,
,,,,,,,,,66315a3a93bb6b7499f106d4,Mexican ,13 or older,"no, only English or Spanish",yes,2025-07-23_23h35.14.957,empathy_intonation_perc_control,2024.2.4,Win32,7.501875469,66315a3a93bb6b7499f106d4,68817205a84113384fffdfe3,6881a6906e8a35fe22a200aa,,,,,,,,,,,,./stim/wavs/castilian_mismatch_interrogative-total-yn_La-maestra-vive-en-Paris.wav,1,,,402.9194,406.7858,1,1,3.2572,,0,65,65,24,1,25,0,castilian,,,,,,,,,,,,,,,,,,,,,,,,,,,,,,,,,,,,,,,,,,,,,,,,,,,,,,,,
,,,,,,,,,66315a3a93bb6b7499f106d4,Mexican ,13 or older,"no, only English or Spanish",yes,2025-07-23_23h35.14.957,empathy_intonation_perc_control,2024.2.4,Win32,7.501875469,66315a3a93bb6b7499f106d4,68817205a84113384fffdfe3,6881a6906e8a35fe22a200aa,,,,,,,,,,,,./stim/wavs/mexican_mismatch_declarative-broad-focus_El-hombre-mira-la-luna.wav,0,,,406.7869,411.5834,0,1,4.2206,,0,66,66,79,1,80,0,mexican,,,,,,,,,,,,,,,,,,,,,,,,,,,,,,,,,,,,,,,,,,,,,,,,,,,,,,,,
,,,,,,,,,66315a3a93bb6b7499f106d4,Mexican ,13 or older,"no, only English or Spanish",yes,2025-07-23_23h35.14.957,empathy_intonation_perc_control,2024.2.4,Win32,7.501875469,66315a3a93bb6b7499f106d4,68817205a84113384fffdfe3,6881a6906e8a35fe22a200aa,,,,,,,,,,,,./stim/wavs/castilian_mismatch_declarative-broad-focus_Mi-novio-viene-del-lago.wav,0,,,411.5849,414.2502,0,1,2.1066,,0,67,67,71,1,72,0,castilian,,,,,,,,,,,,,,,,,,,,,,,,,,,,,,,,,,,,,,,,,,,,,,,,,,,,,,,,
,,,,,,,,,66315a3a93bb6b7499f106d4,Mexican ,13 or older,"no, only English or Spanish",yes,2025-07-23_23h35.14.957,empathy_intonation_perc_control,2024.2.4,Win32,7.501875469,66315a3a93bb6b7499f106d4,68817205a84113384fffdfe3,6881a6906e8a35fe22a200aa,,,,,,,,,,,,./stim/wavs/cuban_mismatch_declarative-broad-focus_El-hombre-mira-la-luna.wav,0,,,414.2516,416.9073,0,1,2.1051,,0,68,68,74,1,75,0,cuban,,,,,,,,,,,,,,,,,,,,,,,,,,,,,,,,,,,,,,,,,,,,,,,,,,,,,,,,
,,,,,,,,,66315a3a93bb6b7499f106d4,Mexican ,13 or older,"no, only English or Spanish",yes,2025-07-23_23h35.14.957,empathy_intonation_perc_control,2024.2.4,Win32,7.501875469,66315a3a93bb6b7499f106d4,68817205a84113384fffdfe3,6881a6906e8a35fe22a200aa,,,,,,,,,,,,./stim/wavs/castilian_match_interrogative-total-yn_David-leia-el-libro.wav,1,,,416.9084,420.512,1,1,3.0291,,0,69,69,0,1,1,0,castilian,,,,,,,,,,,,,,,,,,,,,,,,,,,,,,,,,,,,,,,,,,,,,,,,,,,,,,,,
,,,,,,,,,66315a3a93bb6b7499f106d4,Mexican ,13 or older,"no, only English or Spanish",yes,2025-07-23_23h35.14.957,empathy_intonation_perc_control,2024.2.4,Win32,7.501875469,66315a3a93bb6b7499f106d4,68817205a84113384fffdfe3,6881a6906e8a35fe22a200aa,,,,,,,,,,,,./stim/wavs/cuban_match_declarative-broad-focus_Daniel-iba-a-Bolivia.wav,0,,,420.5133,423.2369,0,1,2.1628,,0,70,70,51,1,52,0,cuban,,,,,,,,,,,,,,,,,,,,,,,,,,,,,,,,,,,,,,,,,,,,,,,,,,,,,,,,
,,,,,,,,,66315a3a93bb6b7499f106d4,Mexican ,13 or older,"no, only English or Spanish",yes,2025-07-23_23h35.14.957,empathy_intonation_perc_control,2024.2.4,Win32,7.501875469,66315a3a93bb6b7499f106d4,68817205a84113384fffdfe3,6881a6906e8a35fe22a200aa,,,,,,,,,,,,./stim/wavs/castilian_match_interrogative-total-yn_Marta-abre-el-regalo.wav,1,,,423.2384,427.0223,1,1,3.1877,,0,71,71,5,1,6,0,castilian,,,,,,,,,,,,,,,,,,,,,,,,,,,,,,,,,,,,,,,,,,,,,,,,,,,,,,,,
,,,,,,,,,66315a3a93bb6b7499f106d4,Mexican ,13 or older,"no, only English or Spanish",yes,2025-07-23_23h35.14.957,empathy_intonation_perc_control,2024.2.4,Win32,7.501875469,66315a3a93bb6b7499f106d4,68817205a84113384fffdfe3,6881a6906e8a35fe22a200aa,,,,,,,,,,,,./stim/wavs/mexican_match_declarative-broad-focus_Ana-lleva-el-abrigo.wav,0,,,427.0239,430.6282,0,1,3.0368,,0,72,72,56,1,57,0,mexican,,,,,,,,,,,,,,,,,,,,,,,,,,,,,,,,,,,,,,,,,,,,,,,,,,,,,,,,
,,,,,,,,,66315a3a93bb6b7499f106d4,Mexican ,13 or older,"no, only English or Spanish",yes,2025-07-23_23h35.14.957,empathy_intonation_perc_control,2024.2.4,Win32,7.501875469,66315a3a93bb6b7499f106d4,68817205a84113384fffdfe3,6881a6906e8a35fe22a200aa,,,,,,,,,,,,./stim/wavs/puertorican_mismatch_interrogative-total-yn_Mi-madre-come-la-fruta.wav,1,,,430.6294,433.6799,0,0,2.4772,,0,73,73,43,1,44,1,puertorican,,,,,,,,,,,,,,,,,,,,,,,,,,,,,,,,,,,,,,,,,,,,,,,,,,,,,,,,
,,,,,,,,,66315a3a93bb6b7499f106d4,Mexican ,13 or older,"no, only English or Spanish",yes,2025-07-23_23h35.14.957,empathy_intonation_perc_control,2024.2.4,Win32,7.501875469,66315a3a93bb6b7499f106d4,68817205a84113384fffdfe3,6881a6906e8a35fe22a200aa,,,,,,,,,,,,./stim/wavs/puertorican_match_declarative-broad-focus_Emilio-ama-la-marcha.wav,0,,,433.6812,436.547,0,1,2.2726,,0,74,74,65,1,66,0,puertorican,,,,,,,,,,,,,,,,,,,,,,,,,,,,,,,,,,,,,,,,,,,,,,,,,,,,,,,,
,,,,,,,,,66315a3a93bb6b7499f106d4,Mexican ,13 or older,"no, only English or Spanish",yes,2025-07-23_23h35.14.957,empathy_intonation_perc_control,2024.2.4,Win32,7.501875469,66315a3a93bb6b7499f106d4,68817205a84113384fffdfe3,6881a6906e8a35fe22a200aa,,,,,,,,,,,,./stim/wavs/puertorican_mismatch_interrogative-total-yn_La-maestra-vive-en-Paris.wav,1,,,436.5484,440.0486,1,1,2.9249,,0,75,75,41,1,42,1,puertorican,,,,,,,,,,,,,,,,,,,,,,,,,,,,,,,,,,,,,,,,,,,,,,,,,,,,,,,,
,,,,,,,,,66315a3a93bb6b7499f106d4,Mexican ,13 or older,"no, only English or Spanish",yes,2025-07-23_23h35.14.957,empathy_intonation_perc_control,2024.2.4,Win32,7.501875469,66315a3a93bb6b7499f106d4,68817205a84113384fffdfe3,6881a6906e8a35fe22a200aa,,,,,,,,,,,,./stim/wavs/cuban_mismatch_interrogative-total-yn_Mi-novio-viene-del-lago.wav,1,,,440.0496,443.9962,1,1,3.3599,,0,76,76,32,1,33,1,cuban,,,,,,,,,,,,,,,,,,,,,,,,,,,,,,,,,,,,,,,,,,,,,,,,,,,,,,,,
,,,,,,,,,66315a3a93bb6b7499f106d4,Mexican ,13 or older,"no, only English or Spanish",yes,2025-07-23_23h35.14.957,empathy_intonation_perc_control,2024.2.4,Win32,7.501875469,66315a3a93bb6b7499f106d4,68817205a84113384fffdfe3,6881a6906e8a35fe22a200aa,,,,,,,,,,,,./stim/wavs/cuban_match_declarative-broad-focus_Maria-bebe-el-vino.wav,0,,,443.9973,446.2727,0,1,1.7269,,0,77,77,53,1,54,0,cuban,,,,,,,,,,,,,,,,,,,,,,,,,,,,,,,,,,,,,,,,,,,,,,,,,,,,,,,,
,,,,,,,,,66315a3a93bb6b7499f106d4,Mexican ,13 or older,"no, only English or Spanish",yes,2025-07-23_23h35.14.957,empathy_intonation_perc_control,2024.2.4,Win32,7.501875469,66315a3a93bb6b7499f106d4,68817205a84113384fffdfe3,6881a6906e8a35fe22a200aa,,,,,,,,,,,,./stim/wavs/cuban_match_interrogative-total-yn_Ana-lleva-el-abrigo.wav,1,,,446.274,449.0244,1,1,2.1931,,0,78,78,6,1,7,1,cuban,,,,,,,,,,,,,,,,,,,,,,,,,,,,,,,,,,,,,,,,,,,,,,,,,,,,,,,,
,,,,,,,,,66315a3a93bb6b7499f106d4,Mexican ,13 or older,"no, only English or Spanish",yes,2025-07-23_23h35.14.957,empathy_intonation_perc_control,2024.2.4,Win32,7.501875469,66315a3a93bb6b7499f106d4,68817205a84113384fffdfe3,6881a6906e8a35fe22a200aa,,,,,,,,,,,,./stim/wavs/castilian_match_interrogative-total-yn_Manuela-vende-el-carro.wav,1,,,449.0255,452.4502,0,0,2.8425,,0,79,79,2,1,3,0,castilian,,,,,,,,,,,,,,,,,,,,,,,,,,,,,,,,,,,,,,,,,,,,,,,,,,,,,,,,
,,,,,,,,,66315a3a93bb6b7499f106d4,Mexican ,13 or older,"no, only English or Spanish",yes,2025-07-23_23h35.14.957,empathy_intonation_perc_control,2024.2.4,Win32,7.501875469,66315a3a93bb6b7499f106d4,68817205a84113384fffdfe3,6881a6906e8a35fe22a200aa,,,,,,,,,,,,./stim/wavs/mexican_match_interrogative-total-yn_Emilio-ama-la-marcha.wav,1,,,452.4512,456.6686,1,1,3.6392,,0,80,80,15,1,16,0,mexican,,,,,,,,,,,,,,,,,,,,,,,,,,,,,,,,,,,,,,,,,,,,,,,,,,,,,,,,
,,,,,,,,,66315a3a93bb6b7499f106d4,Mexican ,13 or older,"no, only English or Spanish",yes,2025-07-23_23h35.14.957,empathy_intonation_perc_control,2024.2.4,Win32,7.501875469,66315a3a93bb6b7499f106d4,68817205a84113384fffdfe3,6881a6906e8a35fe22a200aa,,,,,,,,,,,,./stim/wavs/cuban_match_declarative-broad-focus_Mariano-habla-del-tiempo.wav,0,,,456.6695,459.9751,1,0,2.7351,,0,81,81,54,1,55,0,cuban,,,,,,,,,,,,,,,,,,,,,,,,,,,,,,,,,,,,,,,,,,,,,,,,,,,,,,,,
,,,,,,,,,66315a3a93bb6b7499f106d4,Mexican ,13 or older,"no, only English or Spanish",yes,2025-07-23_23h35.14.957,empathy_intonation_perc_control,2024.2.4,Win32,7.501875469,66315a3a93bb6b7499f106d4,68817205a84113384fffdfe3,6881a6906e8a35fe22a200aa,,,,,,,,,,,,./stim/wavs/mexican_match_interrogative-total-yn_David-leia-el-libro.wav,1,,,459.9766,464.5976,1,1,4.0371,,0,82,82,14,1,15,0,mexican,,,,,,,,,,,,,,,,,,,,,,,,,,,,,,,,,,,,,,,,,,,,,,,,,,,,,,,,
,,,,,,,,,66315a3a93bb6b7499f106d4,Mexican ,13 or older,"no, only English or Spanish",yes,2025-07-23_23h35.14.957,empathy_intonation_perc_control,2024.2.4,Win32,7.501875469,66315a3a93bb6b7499f106d4,68817205a84113384fffdfe3,6881a6906e8a35fe22a200aa,,,,,,,,,,,,./stim/wavs/cuban_match_declarative-broad-focus_Ana-lleva-el-abrigo.wav,0,,,464.601,468.3918,1,0,3.2176,,0,83,83,50,1,51,0,cuban,,,,,,,,,,,,,,,,,,,,,,,,,,,,,,,,,,,,,,,,,,,,,,,,,,,,,,,,
,,,,,,,,,66315a3a93bb6b7499f106d4,Mexican ,13 or older,"no, only English or Spanish",yes,2025-07-23_23h35.14.957,empathy_intonation_perc_control,2024.2.4,Win32,7.501875469,66315a3a93bb6b7499f106d4,68817205a84113384fffdfe3,6881a6906e8a35fe22a200aa,,,,,,,,,,,,./stim/wavs/mexican_mismatch_interrogative-total-yn_El-nino-oye-el-rio.wav,1,,,468.3929,471.9345,0,0,2.973,,0,84,84,35,1,36,0,mexican,,,,,,,,,,,,,,,,,,,,,,,,,,,,,,,,,,,,,,,,,,,,,,,,,,,,,,,,
,,,,,,,,,66315a3a93bb6b7499f106d4,Mexican ,13 or older,"no, only English or Spanish",yes,2025-07-23_23h35.14.957,empathy_intonation_perc_control,2024.2.4,Win32,7.501875469,66315a3a93bb6b7499f106d4,68817205a84113384fffdfe3,6881a6906e8a35fe22a200aa,,,,,,,,,,,,./stim/wavs/cuban_match_declarative-broad-focus_Manuela-vende-el-carro.wav,0,,,471.9354,474.3866,0,1,1.9123,,0,85,85,52,1,53,0,cuban,,,,,,,,,,,,,,,,,,,,,,,,,,,,,,,,,,,,,,,,,,,,,,,,,,,,,,,,
,,,,,,,,,66315a3a93bb6b7499f106d4,Mexican ,13 or older,"no, only English or Spanish",yes,2025-07-23_23h35.14.957,empathy_intonation_perc_control,2024.2.4,Win32,7.501875469,66315a3a93bb6b7499f106d4,68817205a84113384fffdfe3,6881a6906e8a35fe22a200aa,,,,,,,,,,,,./stim/wavs/cuban_mismatch_interrogative-total-yn_El-nino-oye-el-rio.wav,1,,,474.3874,476.5534,0,0,1.6005,,0,86,86,30,1,31,1,cuban,,,,,,,,,,,,,,,,,,,,,,,,,,,,,,,,,,,,,,,,,,,,,,,,,,,,,,,,
,,,,,,,,,66315a3a93bb6b7499f106d4,Mexican ,13 or older,"no, only English or Spanish",yes,2025-07-23_23h35.14.957,empathy_intonation_perc_control,2024.2.4,Win32,7.501875469,66315a3a93bb6b7499f106d4,68817205a84113384fffdfe3,6881a6906e8a35fe22a200aa,,,,,,,,,,,,./stim/wavs/cuban_mismatch_interrogative-total-yn_Mi-tia-odia-la-lluvia.wav,1,,,476.5542,479.1285,0,0,2.0023,,0,87,87,33,1,34,1,cuban,,,,,,,,,,,,,,,,,,,,,,,,,,,,,,,,,,,,,,,,,,,,,,,,,,,,,,,,
,,,,,,,"Great! Now we will move on. The next task consists of about 60 trials, in each of which you will see a string of letters. 
  
  Your task is to decide whether this is a real Spanish word or not.", (press the spacebar to continue),66315a3a93bb6b7499f106d4,Mexican ,13 or older,"no, only English or Spanish",yes,2025-07-23_23h35.14.957,empathy_intonation_perc_control,2024.2.4,Win32,7.501875469,66315a3a93bb6b7499f106d4,68817205a84113384fffdfe3,6881a6906e8a35fe22a200aa,,,,,,,,,,,,,,,,,,,,,,,,,,,,,,479.1678,505.1365,0,0,0,0,1,,,,,,,,,,,,,,,,,,,,,,,,,,,,,,,,,,,,,,,,,,,,,,,,,
,,,,,,,"If you think it is an existing Spanish word, you type '1' (for 'REAL'), and if you think it is not an existing Spanish word, you type '0' (for 'FAKE').", (press the spacebar to continue),66315a3a93bb6b7499f106d4,Mexican ,13 or older,"no, only English or Spanish",yes,2025-07-23_23h35.14.957,empathy_intonation_perc_control,2024.2.4,Win32,7.501875469,66315a3a93bb6b7499f106d4,68817205a84113384fffdfe3,6881a6906e8a35fe22a200aa,,,,,,,,,,,,,,,,,,,,,,,,,,,,,,505.1503,516.1027,0,1,1,1,1,,,,,,,,,,,,,,,,,,,,,,,,,,,,,,,,,,,,,,,,,,,,,,,,,
,,,,,,,"If you are sure that the word exists, even though you don’t know its exact meaning, you may still respond '1' (REAL). 
  
  But if you are not sure if it is an existing word, you should respond '0' (FAKE).
  
  Let's do a practice round...", (press the spacebar to continue),66315a3a93bb6b7499f106d4,Mexican ,13 or older,"no, only English or Spanish",yes,2025-07-23_23h35.14.957,empathy_intonation_perc_control,2024.2.4,Win32,7.501875469,66315a3a93bb6b7499f106d4,68817205a84113384fffdfe3,6881a6906e8a35fe22a200aa,,,,,,,,,,,,,,,,,,,,,,,,,,,,,,516.1095,527.9559,0,2,2,2,1,,,,,,,,,,,,,,,,,,,,,,,,,,,,,,,,,,,,,,,,,,,,,,,,,
,,,,,,,,,66315a3a93bb6b7499f106d4,Mexican ,13 or older,"no, only English or Spanish",yes,2025-07-23_23h35.14.957,empathy_intonation_perc_control,2024.2.4,Win32,7.501875469,66315a3a93bb6b7499f106d4,68817205a84113384fffdfe3,6881a6906e8a35fe22a200aa,,,,,,,,,,,,,0,,,,,,,,,,,,,,,,,,,,,,,,527.9733,532.3618,0,1,3.7614,,532.3624,533.3846,0,0,0,0,1,0,depiste,REAL,FAKE,,,,,,,,,,,,,,,,,,,,,,,,,,,,,,,,
,,,,,,,,,66315a3a93bb6b7499f106d4,Mexican ,13 or older,"no, only English or Spanish",yes,2025-07-23_23h35.14.957,empathy_intonation_perc_control,2024.2.4,Win32,7.501875469,66315a3a93bb6b7499f106d4,68817205a84113384fffdfe3,6881a6906e8a35fe22a200aa,,,,,,,,,,,,,1,,,,,,,,,,,,,,,,,,,,,,,,533.3892,535.919,1,1,1.952,,535.9191,536.9054,0,1,1,1,1,0,sí,REAL,FAKE,,,,,,,,,,,,,,,,,,,,,,,,,,,,,,,,
,,,,,,,,,66315a3a93bb6b7499f106d4,Mexican ,13 or older,"no, only English or Spanish",yes,2025-07-23_23h35.14.957,empathy_intonation_perc_control,2024.2.4,Win32,7.501875469,66315a3a93bb6b7499f106d4,68817205a84113384fffdfe3,6881a6906e8a35fe22a200aa,,,,,,,,,,,,,0,,,,,,,,,,,,,,,,,,,,,,,,536.9085,539.2848,0,1,1.8115,,539.2849,540.3065,0,2,2,2,1,0,coné,REAL,FAKE,,,,,,,,,,,,,,,,,,,,,,,,,,,,,,,,
,,,,,,,,,66315a3a93bb6b7499f106d4,Mexican ,13 or older,"no, only English or Spanish",yes,2025-07-23_23h35.14.957,empathy_intonation_perc_control,2024.2.4,Win32,7.501875469,66315a3a93bb6b7499f106d4,68817205a84113384fffdfe3,6881a6906e8a35fe22a200aa,,,,,,,,,,,,,0,,,,,,,,,,,,,,,,,,,,,,,,540.3095,542.4488,0,1,1.5247,,542.4489,543.4593,0,3,3,3,1,0,calpar,REAL,FAKE,,,,,,,,,,,,,,,,,,,,,,,,,,,,,,,,
,,,,,,,,,66315a3a93bb6b7499f106d4,Mexican ,13 or older,"no, only English or Spanish",yes,2025-07-23_23h35.14.957,empathy_intonation_perc_control,2024.2.4,Win32,7.501875469,66315a3a93bb6b7499f106d4,68817205a84113384fffdfe3,6881a6906e8a35fe22a200aa,,,,,,,,,,,,,0,,,,,,,,,,,,,,,,,,,,,,,,543.4621,545.4388,0,1,1.4117,,545.4389,546.4544,0,4,4,4,1,0,joten,REAL,FAKE,,,,,,,,,,,,,,,,,,,,,,,,,,,,,,,,
,,,,,,,,,66315a3a93bb6b7499f106d4,Mexican ,13 or older,"no, only English or Spanish",yes,2025-07-23_23h35.14.957,empathy_intonation_perc_control,2024.2.4,Win32,7.501875469,66315a3a93bb6b7499f106d4,68817205a84113384fffdfe3,6881a6906e8a35fe22a200aa,,,,,,,,,,,,,1,,,,,,,,,,,,,,,,,,,,,,,,546.4576,548.9524,0,0,1.8496,,548.9564,549.9524,0,5,5,5,1,0,sacapuntas,REAL,FAKE,,,,,,,,,,,,,,,,,,,,,,,,,,,,,,,,
,,,,,,,,,66315a3a93bb6b7499f106d4,Mexican ,13 or older,"no, only English or Spanish",yes,2025-07-23_23h35.14.957,empathy_intonation_perc_control,2024.2.4,Win32,7.501875469,66315a3a93bb6b7499f106d4,68817205a84113384fffdfe3,6881a6906e8a35fe22a200aa,,,,,,,,,,,,,0,,,,,,,,,,,,,,,,,,,,,,,,549.9568,552.9194,1,0,2.356,,552.9195,553.8903,0,6,6,6,1,0,priba,REAL,FAKE,,,,,,,,,,,,,,,,,,,,,,,,,,,,,,,,
,,,,,,,,,66315a3a93bb6b7499f106d4,Mexican ,13 or older,"no, only English or Spanish",yes,2025-07-23_23h35.14.957,empathy_intonation_perc_control,2024.2.4,Win32,7.501875469,66315a3a93bb6b7499f106d4,68817205a84113384fffdfe3,6881a6906e8a35fe22a200aa,,,,,,,,,,,,,0,,,,,,,,,,,,,,,,,,,,,,,,553.8928,555.9617,0,1,1.4505,,555.9632,556.9873,0,7,7,7,1,0,pelasula,REAL,FAKE,,,,,,,,,,,,,,,,,,,,,,,,,,,,,,,,
,,,,,,,,,66315a3a93bb6b7499f106d4,Mexican ,13 or older,"no, only English or Spanish",yes,2025-07-23_23h35.14.957,empathy_intonation_perc_control,2024.2.4,Win32,7.501875469,66315a3a93bb6b7499f106d4,68817205a84113384fffdfe3,6881a6906e8a35fe22a200aa,,,,,,,,,,,,,1,,,,,,,,,,,,,,,,,,,,,,,,556.9891,558.9305,1,1,1.3636,,558.9307,559.9278,0,8,8,8,1,0,bien,REAL,FAKE,,,,,,,,,,,,,,,,,,,,,,,,,,,,,,,,
,,,,,,,,,66315a3a93bb6b7499f106d4,Mexican ,13 or older,"no, only English or Spanish",yes,2025-07-23_23h35.14.957,empathy_intonation_perc_control,2024.2.4,Win32,7.501875469,66315a3a93bb6b7499f106d4,68817205a84113384fffdfe3,6881a6906e8a35fe22a200aa,,,,,,,,,,,,,1,,,,,,,,,,,,,,,,,,,,,,,,559.9296,561.6587,1,1,1.1254,,561.6588,562.6405,0,9,9,9,1,0,casa,REAL,FAKE,,,,,,,,,,,,,,,,,,,,,,,,,,,,,,,,
,,,,,,,,,66315a3a93bb6b7499f106d4,Mexican ,13 or older,"no, only English or Spanish",yes,2025-07-23_23h35.14.957,empathy_intonation_perc_control,2024.2.4,Win32,7.501875469,66315a3a93bb6b7499f106d4,68817205a84113384fffdfe3,6881a6906e8a35fe22a200aa,,,,,,,,,,,,,0,,,,,,,,,,,,,,,,,,,,,,,,562.6422,565.4393,1,0,2.2025,,565.4409,566.4213,0,10,10,10,1,0,lejo,REAL,FAKE,,,,,,,,,,,,,,,,,,,,,,,,,,,,,,,,
,,,,,,,,,66315a3a93bb6b7499f106d4,Mexican ,13 or older,"no, only English or Spanish",yes,2025-07-23_23h35.14.957,empathy_intonation_perc_control,2024.2.4,Win32,7.501875469,66315a3a93bb6b7499f106d4,68817205a84113384fffdfe3,6881a6906e8a35fe22a200aa,,,,,,,,,,,,,0,,,,,,,,,,,,,,,,,,,,,,,,566.4239,569.4493,1,0,2.4566,,569.4494,570.4215,0,11,11,11,1,0,pretantas,REAL,FAKE,,,,,,,,,,,,,,,,,,,,,,,,,,,,,,,,
,,,,,,,,,66315a3a93bb6b7499f106d4,Mexican ,13 or older,"no, only English or Spanish",yes,2025-07-23_23h35.14.957,empathy_intonation_perc_control,2024.2.4,Win32,7.501875469,66315a3a93bb6b7499f106d4,68817205a84113384fffdfe3,6881a6906e8a35fe22a200aa,,,,,,,,,,,,,,,,,,,,,,,,,,,,,,,,,,,,,,,,,,,,,,,,,,,,,,570.4221,574.485,,,,,,,,,,,,,,,,,,,,,,,,,,,,,,
,,,,,,,,,66315a3a93bb6b7499f106d4,Mexican ,13 or older,"no, only English or Spanish",yes,2025-07-23_23h35.14.957,empathy_intonation_perc_control,2024.2.4,Win32,7.501875469,66315a3a93bb6b7499f106d4,68817205a84113384fffdfe3,6881a6906e8a35fe22a200aa,,,,,,,,,,,,,1,,,,,,,,,,,,,,,,,,,,,,,,,,,,,,,,,,,,,81,pozo,,,,,574.5325,576.7235,0,0,1.5607,,0,0,0,80,1,REAL,FAKE,,,,,,,,,,,,,,,,,
,,,,,,,,,66315a3a93bb6b7499f106d4,Mexican ,13 or older,"no, only English or Spanish",yes,2025-07-23_23h35.14.957,empathy_intonation_perc_control,2024.2.4,Win32,7.501875469,66315a3a93bb6b7499f106d4,68817205a84113384fffdfe3,6881a6906e8a35fe22a200aa,,,,,,,,,,,,,0,,,,,,,,,,,,,,,,,,,,,,,,,,,,,,,,,,,,,29,decar,,,,,576.7255,578.7939,1,0,1.4722,,0,1,1,28,1,REAL,FAKE,,,,,,,,,,,,,,,,,
,,,,,,,,,66315a3a93bb6b7499f106d4,Mexican ,13 or older,"no, only English or Spanish",yes,2025-07-23_23h35.14.957,empathy_intonation_perc_control,2024.2.4,Win32,7.501875469,66315a3a93bb6b7499f106d4,68817205a84113384fffdfe3,6881a6906e8a35fe22a200aa,,,,,,,,,,,,,0,,,,,,,,,,,,,,,,,,,,,,,,,,,,,,,,,,,,,87,grodo,,,,,578.7968,580.7615,0,1,1.4046,,0,2,2,86,1,REAL,FAKE,,,,,,,,,,,,,,,,,
,,,,,,,,,66315a3a93bb6b7499f106d4,Mexican ,13 or older,"no, only English or Spanish",yes,2025-07-23_23h35.14.957,empathy_intonation_perc_control,2024.2.4,Win32,7.501875469,66315a3a93bb6b7499f106d4,68817205a84113384fffdfe3,6881a6906e8a35fe22a200aa,,,,,,,,,,,,,1,,,,,,,,,,,,,,,,,,,,,,,,,,,,,,,,,,,,,28,merodear,,,,,580.7643,583.4986,1,1,2.1816,,0,3,3,27,1,REAL,FAKE,,,,,,,,,,,,,,,,,
,,,,,,,,,66315a3a93bb6b7499f106d4,Mexican ,13 or older,"no, only English or Spanish",yes,2025-07-23_23h35.14.957,empathy_intonation_perc_control,2024.2.4,Win32,7.501875469,66315a3a93bb6b7499f106d4,68817205a84113384fffdfe3,6881a6906e8a35fe22a200aa,,,,,,,,,,,,,1,,,,,,,,,,,,,,,,,,,,,,,,,,,,,,,,,,,,,7,pésimo,,,,,583.5003,587.0332,1,1,2.9095,,0,4,4,6,1,REAL,FAKE,,,,,,,,,,,,,,,,,
,,,,,,,,,66315a3a93bb6b7499f106d4,Mexican ,13 or older,"no, only English or Spanish",yes,2025-07-23_23h35.14.957,empathy_intonation_perc_control,2024.2.4,Win32,7.501875469,66315a3a93bb6b7499f106d4,68817205a84113384fffdfe3,6881a6906e8a35fe22a200aa,,,,,,,,,,,,,1,,,,,,,,,,,,,,,,,,,,,,,,,,,,,,,,,,,,,39,torpe,,,,,587.035,588.6247,0,0,1.0181,,0,5,5,38,1,REAL,FAKE,,,,,,,,,,,,,,,,,
,,,,,,,,,66315a3a93bb6b7499f106d4,Mexican ,13 or older,"no, only English or Spanish",yes,2025-07-23_23h35.14.957,empathy_intonation_perc_control,2024.2.4,Win32,7.501875469,66315a3a93bb6b7499f106d4,68817205a84113384fffdfe3,6881a6906e8a35fe22a200aa,,,,,,,,,,,,,0,,,,,,,,,,,,,,,,,,,,,,,,,,,,,,,,,,,,,32,fatacidad,,,,,588.628,590.9798,0,1,1.7517,,0,6,6,31,1,REAL,FAKE,,,,,,,,,,,,,,,,,
,,,,,,,,,66315a3a93bb6b7499f106d4,Mexican ,13 or older,"no, only English or Spanish",yes,2025-07-23_23h35.14.957,empathy_intonation_perc_control,2024.2.4,Win32,7.501875469,66315a3a93bb6b7499f106d4,68817205a84113384fffdfe3,6881a6906e8a35fe22a200aa,,,,,,,,,,,,,0,,,,,,,,,,,,,,,,,,,,,,,,,,,,,,,,,,,,,42,cadallo,,,,,590.9825,592.9135,0,1,1.3551,,0,7,7,41,1,REAL,FAKE,,,,,,,,,,,,,,,,,
,,,,,,,,,66315a3a93bb6b7499f106d4,Mexican ,13 or older,"no, only English or Spanish",yes,2025-07-23_23h35.14.957,empathy_intonation_perc_control,2024.2.4,Win32,7.501875469,66315a3a93bb6b7499f106d4,68817205a84113384fffdfe3,6881a6906e8a35fe22a200aa,,,,,,,,,,,,,1,,,,,,,,,,,,,,,,,,,,,,,,,,,,,,,,,,,,,85,laúd,,,,,592.9166,594.7577,1,1,1.2752,,0,8,8,84,1,REAL,FAKE,,,,,,,,,,,,,,,,,
,,,,,,,,,66315a3a93bb6b7499f106d4,Mexican ,13 or older,"no, only English or Spanish",yes,2025-07-23_23h35.14.957,empathy_intonation_perc_control,2024.2.4,Win32,7.501875469,66315a3a93bb6b7499f106d4,68817205a84113384fffdfe3,6881a6906e8a35fe22a200aa,,,,,,,,,,,,,1,,,,,,,,,,,,,,,,,,,,,,,,,,,,,,,,,,,,,89,prisa,,,,,594.7605,597.0769,1,1,1.738,,0,9,9,88,1,REAL,FAKE,,,,,,,,,,,,,,,,,
,,,,,,,,,66315a3a93bb6b7499f106d4,Mexican ,13 or older,"no, only English or Spanish",yes,2025-07-23_23h35.14.957,empathy_intonation_perc_control,2024.2.4,Win32,7.501875469,66315a3a93bb6b7499f106d4,68817205a84113384fffdfe3,6881a6906e8a35fe22a200aa,,,,,,,,,,,,,1,,,,,,,,,,,,,,,,,,,,,,,,,,,,,,,,,,,,,88,acantilado,,,,,597.0785,598.9205,1,1,1.2397,,0,10,10,87,1,REAL,FAKE,,,,,,,,,,,,,,,,,
,,,,,,,,,66315a3a93bb6b7499f106d4,Mexican ,13 or older,"no, only English or Spanish",yes,2025-07-23_23h35.14.957,empathy_intonation_perc_control,2024.2.4,Win32,7.501875469,66315a3a93bb6b7499f106d4,68817205a84113384fffdfe3,6881a6906e8a35fe22a200aa,,,,,,,,,,,,,1,,,,,,,,,,,,,,,,,,,,,,,,,,,,,,,,,,,,,91,click the 1 key.,,,,,598.9246,601.6617,1,1,2.1563,,0,11,11,90,1,REAL,FAKE,,,,,,,,,,,,,,,,,
,,,,,,,,,66315a3a93bb6b7499f106d4,Mexican ,13 or older,"no, only English or Spanish",yes,2025-07-23_23h35.14.957,empathy_intonation_perc_control,2024.2.4,Win32,7.501875469,66315a3a93bb6b7499f106d4,68817205a84113384fffdfe3,6881a6906e8a35fe22a200aa,,,,,,,,,,,,,1,,,,,,,,,,,,,,,,,,,,,,,,,,,,,,,,,,,,,55,nevar,,,,,601.6645,603.6253,0,0,1.3803,,0,12,12,54,1,REAL,FAKE,,,,,,,,,,,,,,,,,
,,,,,,,,,66315a3a93bb6b7499f106d4,Mexican ,13 or older,"no, only English or Spanish",yes,2025-07-23_23h35.14.957,empathy_intonation_perc_control,2024.2.4,Win32,7.501875469,66315a3a93bb6b7499f106d4,68817205a84113384fffdfe3,6881a6906e8a35fe22a200aa,,,,,,,,,,,,,1,,,,,,,,,,,,,,,,,,,,,,,,,,,,,,,,,,,,,6,tergiversar,,,,,603.6275,607.3605,0,0,3.1463,,0,13,13,5,1,REAL,FAKE,,,,,,,,,,,,,,,,,
,,,,,,,,,66315a3a93bb6b7499f106d4,Mexican ,13 or older,"no, only English or Spanish",yes,2025-07-23_23h35.14.957,empathy_intonation_perc_control,2024.2.4,Win32,7.501875469,66315a3a93bb6b7499f106d4,68817205a84113384fffdfe3,6881a6906e8a35fe22a200aa,,,,,,,,,,,,,1,,,,,,,,,,,,,,,,,,,,,,,,,,,,,,,,,,,,,83,guante,,,,,607.3627,609.3331,1,1,1.3778,,0,14,14,82,1,REAL,FAKE,,,,,,,,,,,,,,,,,
,,,,,,,,,66315a3a93bb6b7499f106d4,Mexican ,13 or older,"no, only English or Spanish",yes,2025-07-23_23h35.14.957,empathy_intonation_perc_control,2024.2.4,Win32,7.501875469,66315a3a93bb6b7499f106d4,68817205a84113384fffdfe3,6881a6906e8a35fe22a200aa,,,,,,,,,,,,,1,,,,,,,,,,,,,,,,,,,,,,,,,,,,,,,,,,,,,78,frondoso,,,,,609.3353,611.4802,0,0,1.593,,0,15,15,77,1,REAL,FAKE,,,,,,,,,,,,,,,,,
,,,,,,,,,66315a3a93bb6b7499f106d4,Mexican ,13 or older,"no, only English or Spanish",yes,2025-07-23_23h35.14.957,empathy_intonation_perc_control,2024.2.4,Win32,7.501875469,66315a3a93bb6b7499f106d4,68817205a84113384fffdfe3,6881a6906e8a35fe22a200aa,,,,,,,,,,,,,0,,,,,,,,,,,,,,,,,,,,,,,,,,,,,,,,,,,,,19,brecedad,,,,,611.4822,614.2278,0,1,2.1583,,0,16,16,18,1,REAL,FAKE,,,,,,,,,,,,,,,,,
,,,,,,,,,66315a3a93bb6b7499f106d4,Mexican ,13 or older,"no, only English or Spanish",yes,2025-07-23_23h35.14.957,empathy_intonation_perc_control,2024.2.4,Win32,7.501875469,66315a3a93bb6b7499f106d4,68817205a84113384fffdfe3,6881a6906e8a35fe22a200aa,,,,,,,,,,,,,1,,,,,,,,,,,,,,,,,,,,,,,,,,,,,,,,,,,,,64,orgulloso,,,,,614.2298,617.0694,0,0,2.2579,,0,17,17,63,1,REAL,FAKE,,,,,,,,,,,,,,,,,
,,,,,,,,,66315a3a93bb6b7499f106d4,Mexican ,13 or older,"no, only English or Spanish",yes,2025-07-23_23h35.14.957,empathy_intonation_perc_control,2024.2.4,Win32,7.501875469,66315a3a93bb6b7499f106d4,68817205a84113384fffdfe3,6881a6906e8a35fe22a200aa,,,,,,,,,,,,,0,,,,,,,,,,,,,,,,,,,,,,,,,,,,,,,,,,,,,1,terzo,,,,,617.0711,619.2706,0,1,1.6498,,0,18,18,0,1,REAL,FAKE,,,,,,,,,,,,,,,,,
,,,,,,,,,66315a3a93bb6b7499f106d4,Mexican ,13 or older,"no, only English or Spanish",yes,2025-07-23_23h35.14.957,empathy_intonation_perc_control,2024.2.4,Win32,7.501875469,66315a3a93bb6b7499f106d4,68817205a84113384fffdfe3,6881a6906e8a35fe22a200aa,,,,,,,,,,,,,1,,,,,,,,,,,,,,,,,,,,,,,,,,,,,,,,,,,,,20,ávido,,,,,619.2772,621.3827,1,1,1.5188,,0,19,19,19,1,REAL,FAKE,,,,,,,,,,,,,,,,,
,,,,,,,,,66315a3a93bb6b7499f106d4,Mexican ,13 or older,"no, only English or Spanish",yes,2025-07-23_23h35.14.957,empathy_intonation_perc_control,2024.2.4,Win32,7.501875469,66315a3a93bb6b7499f106d4,68817205a84113384fffdfe3,6881a6906e8a35fe22a200aa,,,,,,,,,,,,,1,,,,,,,,,,,,,,,,,,,,,,,,,,,,,,,,,,,,,67,cabello,,,,,621.3845,624.7768,0,0,2.8292,,0,20,20,66,1,REAL,FAKE,,,,,,,,,,,,,,,,,
,,,,,,,,,66315a3a93bb6b7499f106d4,Mexican ,13 or older,"no, only English or Spanish",yes,2025-07-23_23h35.14.957,empathy_intonation_perc_control,2024.2.4,Win32,7.501875469,66315a3a93bb6b7499f106d4,68817205a84113384fffdfe3,6881a6906e8a35fe22a200aa,,,,,,,,,,,,,0,,,,,,,,,,,,,,,,,,,,,,,,,,,,,,,,,,,,,84,escuto,,,,,624.7791,626.5579,1,0,1.2378,,0,21,21,83,1,REAL,FAKE,,,,,,,,,,,,,,,,,
,,,,,,,,,66315a3a93bb6b7499f106d4,Mexican ,13 or older,"no, only English or Spanish",yes,2025-07-23_23h35.14.957,empathy_intonation_perc_control,2024.2.4,Win32,7.501875469,66315a3a93bb6b7499f106d4,68817205a84113384fffdfe3,6881a6906e8a35fe22a200aa,,,,,,,,,,,,,1,,,,,,,,,,,,,,,,,,,,,,,,,,,,,,,,,,,,,22,lacayo,,,,,626.5602,628.84,1,1,1.7151,,0,22,22,21,1,REAL,FAKE,,,,,,,,,,,,,,,,,
,,,,,,,,,66315a3a93bb6b7499f106d4,Mexican ,13 or older,"no, only English or Spanish",yes,2025-07-23_23h35.14.957,empathy_intonation_perc_control,2024.2.4,Win32,7.501875469,66315a3a93bb6b7499f106d4,68817205a84113384fffdfe3,6881a6906e8a35fe22a200aa,,,,,,,,,,,,,0,,,,,,,,,,,,,,,,,,,,,,,,,,,,,,,,,,,,,8,cadeña,,,,,628.8429,631.3521,0,1,1.9297,,0,23,23,7,1,REAL,FAKE,,,,,,,,,,,,,,,,,
,,,,,,,,,66315a3a93bb6b7499f106d4,Mexican ,13 or older,"no, only English or Spanish",yes,2025-07-23_23h35.14.957,empathy_intonation_perc_control,2024.2.4,Win32,7.501875469,66315a3a93bb6b7499f106d4,68817205a84113384fffdfe3,6881a6906e8a35fe22a200aa,,,,,,,,,,,,,0,,,,,,,,,,,,,,,,,,,,,,,,,,,,,,,,,,,,,58,plaudir,,,,,631.3539,633.5912,0,1,1.6688,,0,24,24,57,1,REAL,FAKE,,,,,,,,,,,,,,,,,
,,,,,,,,,66315a3a93bb6b7499f106d4,Mexican ,13 or older,"no, only English or Spanish",yes,2025-07-23_23h35.14.957,empathy_intonation_perc_control,2024.2.4,Win32,7.501875469,66315a3a93bb6b7499f106d4,68817205a84113384fffdfe3,6881a6906e8a35fe22a200aa,,,,,,,,,,,,,0,,,,,,,,,,,,,,,,,,,,,,,,,,,,,,,,,,,,,70,temblo,,,,,633.5941,635.5511,0,1,1.3691,,0,25,25,69,1,REAL,FAKE,,,,,,,,,,,,,,,,,
,,,,,,,,,66315a3a93bb6b7499f106d4,Mexican ,13 or older,"no, only English or Spanish",yes,2025-07-23_23h35.14.957,empathy_intonation_perc_control,2024.2.4,Win32,7.501875469,66315a3a93bb6b7499f106d4,68817205a84113384fffdfe3,6881a6906e8a35fe22a200aa,,,,,,,,,,,,,1,,,,,,,,,,,,,,,,,,,,,,,,,,,,,,,,,,,,,69,engatusar,,,,,635.553,637.6643,0,0,1.556,,0,26,26,68,1,REAL,FAKE,,,,,,,,,,,,,,,,,
,,,,,,,,,66315a3a93bb6b7499f106d4,Mexican ,13 or older,"no, only English or Spanish",yes,2025-07-23_23h35.14.957,empathy_intonation_perc_control,2024.2.4,Win32,7.501875469,66315a3a93bb6b7499f106d4,68817205a84113384fffdfe3,6881a6906e8a35fe22a200aa,,,,,,,,,,,,,0,,,,,,,,,,,,,,,,,,,,,,,,,,,,,,,,,,,,,66,hacido,,,,,637.6661,639.6442,1,0,1.4055,,0,27,27,65,1,REAL,FAKE,,,,,,,,,,,,,,,,,
,,,,,,,,,66315a3a93bb6b7499f106d4,Mexican ,13 or older,"no, only English or Spanish",yes,2025-07-23_23h35.14.957,empathy_intonation_perc_control,2024.2.4,Win32,7.501875469,66315a3a93bb6b7499f106d4,68817205a84113384fffdfe3,6881a6906e8a35fe22a200aa,,,,,,,,,,,,,1,,,,,,,,,,,,,,,,,,,,,,,,,,,,,,,,,,,,,86,barato,,,,,639.6466,641.5771,0,0,1.3695,,0,28,28,85,1,REAL,FAKE,,,,,,,,,,,,,,,,,
,,,,,,,,,66315a3a93bb6b7499f106d4,Mexican ,13 or older,"no, only English or Spanish",yes,2025-07-23_23h35.14.957,empathy_intonation_perc_control,2024.2.4,Win32,7.501875469,66315a3a93bb6b7499f106d4,68817205a84113384fffdfe3,6881a6906e8a35fe22a200aa,,,,,,,,,,,,,0,,,,,,,,,,,,,,,,,,,,,,,,,,,,,,,,,,,,,63,esposante,,,,,641.5796,646.0605,1,0,3.8985,,0,29,29,62,1,REAL,FAKE,,,,,,,,,,,,,,,,,
,,,,,,,,,66315a3a93bb6b7499f106d4,Mexican ,13 or older,"no, only English or Spanish",yes,2025-07-23_23h35.14.957,empathy_intonation_perc_control,2024.2.4,Win32,7.501875469,66315a3a93bb6b7499f106d4,68817205a84113384fffdfe3,6881a6906e8a35fe22a200aa,,,,,,,,,,,,,0,,,,,,,,,,,,,,,,,,,,,,,,,,,,,,,,,,,,,18,arsa,,,,,646.0631,647.9448,0,1,1.3128,,0,30,30,17,1,REAL,FAKE,,,,,,,,,,,,,,,,,
,,,,,,,,,66315a3a93bb6b7499f106d4,Mexican ,13 or older,"no, only English or Spanish",yes,2025-07-23_23h35.14.957,empathy_intonation_perc_control,2024.2.4,Win32,7.501875469,66315a3a93bb6b7499f106d4,68817205a84113384fffdfe3,6881a6906e8a35fe22a200aa,,,,,,,,,,,,,1,,,,,,,,,,,,,,,,,,,,,,,,,,,,,,,,,,,,,49,ganar,,,,,647.9469,649.4666,0,0,0.9469,,0,31,31,48,1,REAL,FAKE,,,,,,,,,,,,,,,,,
,,,,,,,,,66315a3a93bb6b7499f106d4,Mexican ,13 or older,"no, only English or Spanish",yes,2025-07-23_23h35.14.957,empathy_intonation_perc_control,2024.2.4,Win32,7.501875469,66315a3a93bb6b7499f106d4,68817205a84113384fffdfe3,6881a6906e8a35fe22a200aa,,,,,,,,,,,,,1,,,,,,,,,,,,,,,,,,,,,,,,,,,,,,,,,,,,,56,musgo,,,,,649.4686,651.0796,0,0,1.0309,,0,32,32,55,1,REAL,FAKE,,,,,,,,,,,,,,,,,
,,,,,,,,,66315a3a93bb6b7499f106d4,Mexican ,13 or older,"no, only English or Spanish",yes,2025-07-23_23h35.14.957,empathy_intonation_perc_control,2024.2.4,Win32,7.501875469,66315a3a93bb6b7499f106d4,68817205a84113384fffdfe3,6881a6906e8a35fe22a200aa,,,,,,,,,,,,,1,,,,,,,,,,,,,,,,,,,,,,,,,,,,,,,,,,,,,26,secuestro,,,,,651.0822,653.4217,0,0,1.7751,,0,33,33,25,1,REAL,FAKE,,,,,,,,,,,,,,,,,
,,,,,,,,,66315a3a93bb6b7499f106d4,Mexican ,13 or older,"no, only English or Spanish",yes,2025-07-23_23h35.14.957,empathy_intonation_perc_control,2024.2.4,Win32,7.501875469,66315a3a93bb6b7499f106d4,68817205a84113384fffdfe3,6881a6906e8a35fe22a200aa,,,,,,,,,,,,,1,,,,,,,,,,,,,,,,,,,,,,,,,,,,,,,,,,,,,80,hormiga,,,,,653.424,656.047,0,0,2.0242,,0,34,34,79,1,REAL,FAKE,,,,,,,,,,,,,,,,,
,,,,,,,,,66315a3a93bb6b7499f106d4,Mexican ,13 or older,"no, only English or Spanish",yes,2025-07-23_23h35.14.957,empathy_intonation_perc_control,2024.2.4,Win32,7.501875469,66315a3a93bb6b7499f106d4,68817205a84113384fffdfe3,6881a6906e8a35fe22a200aa,,,,,,,,,,,,,1,,,,,,,,,,,,,,,,,,,,,,,,,,,,,,,,,,,,,12,asesinato,,,,,656.0494,658.0636,0,0,1.4423,,0,35,35,11,1,REAL,FAKE,,,,,,,,,,,,,,,,,
,,,,,,,,,66315a3a93bb6b7499f106d4,Mexican ,13 or older,"no, only English or Spanish",yes,2025-07-23_23h35.14.957,empathy_intonation_perc_control,2024.2.4,Win32,7.501875469,66315a3a93bb6b7499f106d4,68817205a84113384fffdfe3,6881a6906e8a35fe22a200aa,,,,,,,,,,,,,1,,,,,,,,,,,,,,,,,,,,,,,,,,,,,,,,,,,,,34,aviso,,,,,658.0654,660.0655,1,1,1.4498,,0,36,36,33,1,REAL,FAKE,,,,,,,,,,,,,,,,,
,,,,,,,,,66315a3a93bb6b7499f106d4,Mexican ,13 or older,"no, only English or Spanish",yes,2025-07-23_23h35.14.957,empathy_intonation_perc_control,2024.2.4,Win32,7.501875469,66315a3a93bb6b7499f106d4,68817205a84113384fffdfe3,6881a6906e8a35fe22a200aa,,,,,,,,,,,,,1,,,,,,,,,,,,,,,,,,,,,,,,,,,,,,,,,,,,,71,polvoriento,,,,,660.0673,661.9888,0,0,1.3413,,0,37,37,70,1,REAL,FAKE,,,,,,,,,,,,,,,,,
,,,,,,,,,66315a3a93bb6b7499f106d4,Mexican ,13 or older,"no, only English or Spanish",yes,2025-07-23_23h35.14.957,empathy_intonation_perc_control,2024.2.4,Win32,7.501875469,66315a3a93bb6b7499f106d4,68817205a84113384fffdfe3,6881a6906e8a35fe22a200aa,,,,,,,,,,,,,1,,,,,,,,,,,,,,,,,,,,,,,,,,,,,,,,,,,,,14,yunque,,,,,661.9903,663.6211,0,0,1.0735,,0,38,38,13,1,REAL,FAKE,,,,,,,,,,,,,,,,,
,,,,,,,,,66315a3a93bb6b7499f106d4,Mexican ,13 or older,"no, only English or Spanish",yes,2025-07-23_23h35.14.957,empathy_intonation_perc_control,2024.2.4,Win32,7.501875469,66315a3a93bb6b7499f106d4,68817205a84113384fffdfe3,6881a6906e8a35fe22a200aa,,,,,,,,,,,,,1,,,,,,,,,,,,,,,,,,,,,,,,,,,,,,,,,,,,,38,estornudar,,,,,663.6236,665.2437,0,0,1.0633,0.0008,0,39,39,37,1,REAL,FAKE,,,,,,,,,,,,,,,,,
,,,,,,,,,66315a3a93bb6b7499f106d4,Mexican ,13 or older,"no, only English or Spanish",yes,2025-07-23_23h35.14.957,empathy_intonation_perc_control,2024.2.4,Win32,7.501875469,66315a3a93bb6b7499f106d4,68817205a84113384fffdfe3,6881a6906e8a35fe22a200aa,,,,,,,,,,,,,1,,,,,,,,,,,,,,,,,,,,,,,,,,,,,,,,,,,,,65,bizcocho,,,,,665.2463,666.7381,0,0,0.9287,,0,40,40,64,1,REAL,FAKE,,,,,,,,,,,,,,,,,
,,,,,,,,,66315a3a93bb6b7499f106d4,Mexican ,13 or older,"no, only English or Spanish",yes,2025-07-23_23h35.14.957,empathy_intonation_perc_control,2024.2.4,Win32,7.501875469,66315a3a93bb6b7499f106d4,68817205a84113384fffdfe3,6881a6906e8a35fe22a200aa,,,,,,,,,,,,,1,,,,,,,,,,,,,,,,,,,,,,,,,,,,,,,,,,,,,59,besar,,,,,666.74,668.6219,1,1,1.2987,,0,41,41,58,1,REAL,FAKE,,,,,,,,,,,,,,,,,
,,,,,,,,,66315a3a93bb6b7499f106d4,Mexican ,13 or older,"no, only English or Spanish",yes,2025-07-23_23h35.14.957,empathy_intonation_perc_control,2024.2.4,Win32,7.501875469,66315a3a93bb6b7499f106d4,68817205a84113384fffdfe3,6881a6906e8a35fe22a200aa,,,,,,,,,,,,,1,,,,,,,,,,,,,,,,,,,,,,,,,,,,,,,,,,,,,44,cuchara,,,,,668.6241,670.5796,1,1,1.3739,,0,42,42,43,1,REAL,FAKE,,,,,,,,,,,,,,,,,
,,,,,,,,,66315a3a93bb6b7499f106d4,Mexican ,13 or older,"no, only English or Spanish",yes,2025-07-23_23h35.14.957,empathy_intonation_perc_control,2024.2.4,Win32,7.501875469,66315a3a93bb6b7499f106d4,68817205a84113384fffdfe3,6881a6906e8a35fe22a200aa,,,,,,,,,,,,,1,,,,,,,,,,,,,,,,,,,,,,,,,,,,,,,,,,,,,31,pandilla,,,,,670.5821,672.3479,0,0,1.1824,,0,43,43,30,1,REAL,FAKE,,,,,,,,,,,,,,,,,
,,,,,,,,,66315a3a93bb6b7499f106d4,Mexican ,13 or older,"no, only English or Spanish",yes,2025-07-23_23h35.14.957,empathy_intonation_perc_control,2024.2.4,Win32,7.501875469,66315a3a93bb6b7499f106d4,68817205a84113384fffdfe3,6881a6906e8a35fe22a200aa,,,,,,,,,,,,,1,,,,,,,,,,,,,,,,,,,,,,,,,,,,,,,,,,,,,61,seda,,,,,672.3508,675.2992,0,0,2.3688,,0,44,44,60,1,REAL,FAKE,,,,,,,,,,,,,,,,,
,,,,,,,,,66315a3a93bb6b7499f106d4,Mexican ,13 or older,"no, only English or Spanish",yes,2025-07-23_23h35.14.957,empathy_intonation_perc_control,2024.2.4,Win32,7.501875469,66315a3a93bb6b7499f106d4,68817205a84113384fffdfe3,6881a6906e8a35fe22a200aa,,,,,,,,,,,,,0,,,,,,,,,,,,,,,,,,,,,,,,,,,,,,,,,,,,,47,cartinar,,,,,675.3012,677.7222,0,1,1.8347,,0,45,45,46,1,REAL,FAKE,,,,,,,,,,,,,,,,,
,,,,,,,,,66315a3a93bb6b7499f106d4,Mexican ,13 or older,"no, only English or Spanish",yes,2025-07-23_23h35.14.957,empathy_intonation_perc_control,2024.2.4,Win32,7.501875469,66315a3a93bb6b7499f106d4,68817205a84113384fffdfe3,6881a6906e8a35fe22a200aa,,,,,,,,,,,,,0,,,,,,,,,,,,,,,,,,,,,,,,,,,,,,,,,,,,,35,rompido,,,,,677.7242,679.4495,0,1,1.1359,,0,46,46,34,1,REAL,FAKE,,,,,,,,,,,,,,,,,
,,,,,,,,,66315a3a93bb6b7499f106d4,Mexican ,13 or older,"no, only English or Spanish",yes,2025-07-23_23h35.14.957,empathy_intonation_perc_control,2024.2.4,Win32,7.501875469,66315a3a93bb6b7499f106d4,68817205a84113384fffdfe3,6881a6906e8a35fe22a200aa,,,,,,,,,,,,,1,,,,,,,,,,,,,,,,,,,,,,,,,,,,,,,,,,,,,9,hacha,,,,,679.4513,681.6105,1,1,1.5576,,0,47,47,8,1,REAL,FAKE,,,,,,,,,,,,,,,,,
,,,,,,,,,66315a3a93bb6b7499f106d4,Mexican ,13 or older,"no, only English or Spanish",yes,2025-07-23_23h35.14.957,empathy_intonation_perc_control,2024.2.4,Win32,7.501875469,66315a3a93bb6b7499f106d4,68817205a84113384fffdfe3,6881a6906e8a35fe22a200aa,,,,,,,,,,,,,0,,,,,,,,,,,,,,,,,,,,,,,,,,,,,,,,,,,,,72,pemición,,,,,681.614,683.7801,0,1,1.5885,,0,48,48,71,1,REAL,FAKE,,,,,,,,,,,,,,,,,
,,,,,,,,,66315a3a93bb6b7499f106d4,Mexican ,13 or older,"no, only English or Spanish",yes,2025-07-23_23h35.14.957,empathy_intonation_perc_control,2024.2.4,Win32,7.501875469,66315a3a93bb6b7499f106d4,68817205a84113384fffdfe3,6881a6906e8a35fe22a200aa,,,,,,,,,,,,,0,,,,,,,,,,,,,,,,,,,,,,,,,,,,,,,,,,,,,33,pauca,,,,,683.7826,685.727,0,1,1.3717,,0,49,49,32,1,REAL,FAKE,,,,,,,,,,,,,,,,,
,,,,,,,,,66315a3a93bb6b7499f106d4,Mexican ,13 or older,"no, only English or Spanish",yes,2025-07-23_23h35.14.957,empathy_intonation_perc_control,2024.2.4,Win32,7.501875469,66315a3a93bb6b7499f106d4,68817205a84113384fffdfe3,6881a6906e8a35fe22a200aa,,,,,,,,,,,,,1,,,,,,,,,,,,,,,,,,,,,,,,,,,,,,,,,,,,,57,tacaño,,,,,685.7298,687.4258,1,1,1.1344,,0,50,50,56,1,REAL,FAKE,,,,,,,,,,,,,,,,,
,,,,,,,,,66315a3a93bb6b7499f106d4,Mexican ,13 or older,"no, only English or Spanish",yes,2025-07-23_23h35.14.957,empathy_intonation_perc_control,2024.2.4,Win32,7.501875469,66315a3a93bb6b7499f106d4,68817205a84113384fffdfe3,6881a6906e8a35fe22a200aa,,,,,,,,,,,,,1,,,,,,,,,,,,,,,,,,,,,,,,,,,,,,,,,,,,,37,granuja,,,,,687.4285,690.2011,0,0,2.1786,,0,51,51,36,1,REAL,FAKE,,,,,,,,,,,,,,,,,
,,,,,,,,,66315a3a93bb6b7499f106d4,Mexican ,13 or older,"no, only English or Spanish",yes,2025-07-23_23h35.14.957,empathy_intonation_perc_control,2024.2.4,Win32,7.501875469,66315a3a93bb6b7499f106d4,68817205a84113384fffdfe3,6881a6906e8a35fe22a200aa,,,,,,,,,,,,,0,,,,,,,,,,,,,,,,,,,,,,,,,,,,,,,,,,,,,53,vegada,,,,,690.203,691.621,0,1,0.8493,,0,52,52,52,1,REAL,FAKE,,,,,,,,,,,,,,,,,
,,,,,,,,,66315a3a93bb6b7499f106d4,Mexican ,13 or older,"no, only English or Spanish",yes,2025-07-23_23h35.14.957,empathy_intonation_perc_control,2024.2.4,Win32,7.501875469,66315a3a93bb6b7499f106d4,68817205a84113384fffdfe3,6881a6906e8a35fe22a200aa,,,,,,,,,,,,,1,,,,,,,,,,,,,,,,,,,,,,,,,,,,,,,,,,,,,11,cenefa,,,,,691.6232,693.5262,0,0,1.3231,,0,53,53,10,1,REAL,FAKE,,,,,,,,,,,,,,,,,
,,,,,,,,,66315a3a93bb6b7499f106d4,Mexican ,13 or older,"no, only English or Spanish",yes,2025-07-23_23h35.14.957,empathy_intonation_perc_control,2024.2.4,Win32,7.501875469,66315a3a93bb6b7499f106d4,68817205a84113384fffdfe3,6881a6906e8a35fe22a200aa,,,,,,,,,,,,,1,,,,,,,,,,,,,,,,,,,,,,,,,,,,,,,,,,,,,25,bisagra,,,,,693.5286,694.9252,0,0,0.8125,,0,54,54,24,1,REAL,FAKE,,,,,,,,,,,,,,,,,
,,,,,,,,,66315a3a93bb6b7499f106d4,Mexican ,13 or older,"no, only English or Spanish",yes,2025-07-23_23h35.14.957,empathy_intonation_perc_control,2024.2.4,Win32,7.501875469,66315a3a93bb6b7499f106d4,68817205a84113384fffdfe3,6881a6906e8a35fe22a200aa,,,,,,,,,,,,,1,,,,,,,,,,,,,,,,,,,,,,,,,,,,,,,,,,,,,40,alfombra,,,,,694.9274,697.3044,1,1,1.7616,,0,55,55,39,1,REAL,FAKE,,,,,,,,,,,,,,,,,
,,,,,,,,,66315a3a93bb6b7499f106d4,Mexican ,13 or older,"no, only English or Spanish",yes,2025-07-23_23h35.14.957,empathy_intonation_perc_control,2024.2.4,Win32,7.501875469,66315a3a93bb6b7499f106d4,68817205a84113384fffdfe3,6881a6906e8a35fe22a200aa,,,,,,,,,,,,,0,,,,,,,,,,,,,,,,,,,,,,,,,,,,,,,,,,,,,17,floroso,,,,,697.3064,698.7922,0,1,0.9121,,0,56,56,16,1,REAL,FAKE,,,,,,,,,,,,,,,,,
,,,,,,,,,66315a3a93bb6b7499f106d4,Mexican ,13 or older,"no, only English or Spanish",yes,2025-07-23_23h35.14.957,empathy_intonation_perc_control,2024.2.4,Win32,7.501875469,66315a3a93bb6b7499f106d4,68817205a84113384fffdfe3,6881a6906e8a35fe22a200aa,,,,,,,,,,,,,1,,,,,,,,,,,,,,,,,,,,,,,,,,,,,,,,,,,,,15,regar,,,,,698.7951,700.1909,0,0,0.8182,,0,57,57,14,1,REAL,FAKE,,,,,,,,,,,,,,,,,
,,,,,,,,,66315a3a93bb6b7499f106d4,Mexican ,13 or older,"no, only English or Spanish",yes,2025-07-23_23h35.14.957,empathy_intonation_perc_control,2024.2.4,Win32,7.501875469,66315a3a93bb6b7499f106d4,68817205a84113384fffdfe3,6881a6906e8a35fe22a200aa,,,,,,,,,,,,,0,,,,,,,,,,,,,,,,,,,,,,,,,,,,,,,,,,,,,21,capillo,,,,,700.1946,701.6044,0,1,0.8167,,0,58,58,20,1,REAL,FAKE,,,,,,,,,,,,,,,,,
,,,,,,,,,66315a3a93bb6b7499f106d4,Mexican ,13 or older,"no, only English or Spanish",yes,2025-07-23_23h35.14.957,empathy_intonation_perc_control,2024.2.4,Win32,7.501875469,66315a3a93bb6b7499f106d4,68817205a84113384fffdfe3,6881a6906e8a35fe22a200aa,,,,,,,,,,,,,0,,,,,,,,,,,,,,,,,,,,,,,,,,,,,,,,,,,,,79,tropaje,,,,,701.6066,703.2762,0,1,1.0779,,0,59,59,78,1,REAL,FAKE,,,,,,,,,,,,,,,,,
,,,,,,,,,66315a3a93bb6b7499f106d4,Mexican ,13 or older,"no, only English or Spanish",yes,2025-07-23_23h35.14.957,empathy_intonation_perc_control,2024.2.4,Win32,7.501875469,66315a3a93bb6b7499f106d4,68817205a84113384fffdfe3,6881a6906e8a35fe22a200aa,,,,,,,,,,,,,0,,,,,,,,,,,,,,,,,,,,,,,,,,,,,,,,,,,,,4,batillón,,,,,703.2779,707.3637,0,1,3.4801,,0,60,60,3,1,REAL,FAKE,,,,,,,,,,,,,,,,,
,,,,,,,,,66315a3a93bb6b7499f106d4,Mexican ,13 or older,"no, only English or Spanish",yes,2025-07-23_23h35.14.957,empathy_intonation_perc_control,2024.2.4,Win32,7.501875469,66315a3a93bb6b7499f106d4,68817205a84113384fffdfe3,6881a6906e8a35fe22a200aa,,,,,,,,,,,,,1,,,,,,,,,,,,,,,,,,,,,,,,,,,,,,,,,,,,,41,rebuscar,,,,,707.3663,709.1624,1,1,1.2118,,0,61,61,40,1,REAL,FAKE,,,,,,,,,,,,,,,,,
,,,,,,,,,66315a3a93bb6b7499f106d4,Mexican ,13 or older,"no, only English or Spanish",yes,2025-07-23_23h35.14.957,empathy_intonation_perc_control,2024.2.4,Win32,7.501875469,66315a3a93bb6b7499f106d4,68817205a84113384fffdfe3,6881a6906e8a35fe22a200aa,,,,,,,,,,,,,1,,,,,,,,,,,,,,,,,,,,,,,,,,,,,,,,,,,,,46,martillo,,,,,709.1641,710.7809,0,0,1.0324,,0,62,62,45,1,REAL,FAKE,,,,,,,,,,,,,,,,,
,,,,,,,,,66315a3a93bb6b7499f106d4,Mexican ,13 or older,"no, only English or Spanish",yes,2025-07-23_23h35.14.957,empathy_intonation_perc_control,2024.2.4,Win32,7.501875469,66315a3a93bb6b7499f106d4,68817205a84113384fffdfe3,6881a6906e8a35fe22a200aa,,,,,,,,,,,,,1,,,,,,,,,,,,,,,,,,,,,,,,,,,,,,,,,,,,,5,zapato,,,,,710.7834,712.5077,1,1,1.1357,,0,63,63,4,1,REAL,FAKE,,,,,,,,,,,,,,,,,
,,,,,,,,,66315a3a93bb6b7499f106d4,Mexican ,13 or older,"no, only English or Spanish",yes,2025-07-23_23h35.14.957,empathy_intonation_perc_control,2024.2.4,Win32,7.501875469,66315a3a93bb6b7499f106d4,68817205a84113384fffdfe3,6881a6906e8a35fe22a200aa,,,,,,,,,,,,,1,,,,,,,,,,,,,,,,,,,,,,,,,,,,,,,,,,,,,48,ladrón,,,,,712.5097,714.709,0,0,1.6063,,0,64,64,47,1,REAL,FAKE,,,,,,,,,,,,,,,,,
,,,,,,,,,66315a3a93bb6b7499f106d4,Mexican ,13 or older,"no, only English or Spanish",yes,2025-07-23_23h35.14.957,empathy_intonation_perc_control,2024.2.4,Win32,7.501875469,66315a3a93bb6b7499f106d4,68817205a84113384fffdfe3,6881a6906e8a35fe22a200aa,,,,,,,,,,,,,1,,,,,,,,,,,,,,,,,,,,,,,,,,,,,,,,,,,,,13,helar,,,,,714.7112,716.4845,0,0,1.2036,,0,65,65,12,1,REAL,FAKE,,,,,,,,,,,,,,,,,
,,,,,,,,,66315a3a93bb6b7499f106d4,Mexican ,13 or older,"no, only English or Spanish",yes,2025-07-23_23h35.14.957,empathy_intonation_perc_control,2024.2.4,Win32,7.501875469,66315a3a93bb6b7499f106d4,68817205a84113384fffdfe3,6881a6906e8a35fe22a200aa,,,,,,,,,,,,,1,,,,,,,,,,,,,,,,,,,,,,,,,,,,,,,,,,,,,45,jilguero,,,,,716.4864,718.6059,1,1,1.5137,,0,66,66,44,1,REAL,FAKE,,,,,,,,,,,,,,,,,
,,,,,,,,,66315a3a93bb6b7499f106d4,Mexican ,13 or older,"no, only English or Spanish",yes,2025-07-23_23h35.14.957,empathy_intonation_perc_control,2024.2.4,Win32,7.501875469,66315a3a93bb6b7499f106d4,68817205a84113384fffdfe3,6881a6906e8a35fe22a200aa,,,,,,,,,,,,,1,,,,,,,,,,,,,,,,,,,,,,,,,,,,,,,,,,,,,75,yacer,,,,,718.608,720.5053,1,1,1.3317,,0,67,67,74,1,REAL,FAKE,,,,,,,,,,,,,,,,,
,,,,,,,,,66315a3a93bb6b7499f106d4,Mexican ,13 or older,"no, only English or Spanish",yes,2025-07-23_23h35.14.957,empathy_intonation_perc_control,2024.2.4,Win32,7.501875469,66315a3a93bb6b7499f106d4,68817205a84113384fffdfe3,6881a6906e8a35fe22a200aa,,,,,,,,,,,,,1,,,,,,,,,,,,,,,,,,,,,,,,,,,,,,,,,,,,,60,matar,,,,,720.5085,722.4106,1,1,1.3526,,0,68,68,59,1,REAL,FAKE,,,,,,,,,,,,,,,,,
,,,,,,,,,66315a3a93bb6b7499f106d4,Mexican ,13 or older,"no, only English or Spanish",yes,2025-07-23_23h35.14.957,empathy_intonation_perc_control,2024.2.4,Win32,7.501875469,66315a3a93bb6b7499f106d4,68817205a84113384fffdfe3,6881a6906e8a35fe22a200aa,,,,,,,,,,,,,1,,,,,,,,,,,,,,,,,,,,,,,,,,,,,,,,,,,,,90,clavel,,,,,722.4124,723.9729,0,0,0.9974,,0,69,69,89,1,REAL,FAKE,,,,,,,,,,,,,,,,,
,,,,,,,,,66315a3a93bb6b7499f106d4,Mexican ,13 or older,"no, only English or Spanish",yes,2025-07-23_23h35.14.957,empathy_intonation_perc_control,2024.2.4,Win32,7.501875469,66315a3a93bb6b7499f106d4,68817205a84113384fffdfe3,6881a6906e8a35fe22a200aa,,,,,,,,,,,,,1,,,,,,,,,,,,,,,,,,,,,,,,,,,,,,,,,,,,,36,loro,,,,,723.9756,725.2948,0,0,0.7397,,0,70,70,35,1,REAL,FAKE,,,,,,,,,,,,,,,,,
,,,,,,,,,66315a3a93bb6b7499f106d4,Mexican ,13 or older,"no, only English or Spanish",yes,2025-07-23_23h35.14.957,empathy_intonation_perc_control,2024.2.4,Win32,7.501875469,66315a3a93bb6b7499f106d4,68817205a84113384fffdfe3,6881a6906e8a35fe22a200aa,,,,,,,,,,,,,1,,,,,,,,,,,,,,,,,,,,,,,,,,,,,,,,,,,,,24,látigo,,,,,725.2969,727.0835,1,1,1.1699,,0,71,71,23,1,REAL,FAKE,,,,,,,,,,,,,,,,,
,,,,,,,,,66315a3a93bb6b7499f106d4,Mexican ,13 or older,"no, only English or Spanish",yes,2025-07-23_23h35.14.957,empathy_intonation_perc_control,2024.2.4,Win32,7.501875469,66315a3a93bb6b7499f106d4,68817205a84113384fffdfe3,6881a6906e8a35fe22a200aa,,,,,,,,,,,,,1,,,,,,,,,,,,,,,,,,,,,,,,,,,,,,,,,,,,,77,tiburón,,,,,727.0852,728.9728,0,0,1.287,,0,72,72,76,1,REAL,FAKE,,,,,,,,,,,,,,,,,
,,,,,,,,,66315a3a93bb6b7499f106d4,Mexican ,13 or older,"no, only English or Spanish",yes,2025-07-23_23h35.14.957,empathy_intonation_perc_control,2024.2.4,Win32,7.501875469,66315a3a93bb6b7499f106d4,68817205a84113384fffdfe3,6881a6906e8a35fe22a200aa,,,,,,,,,,,,,1,,,,,,,,,,,,,,,,,,,,,,,,,,,,,,,,,,,,,51,candado,,,,,728.9749,730.5292,0,0,0.9761,,0,73,73,50,1,REAL,FAKE,,,,,,,,,,,,,,,,,
,,,,,,,,,66315a3a93bb6b7499f106d4,Mexican ,13 or older,"no, only English or Spanish",yes,2025-07-23_23h35.14.957,empathy_intonation_perc_control,2024.2.4,Win32,7.501875469,66315a3a93bb6b7499f106d4,68817205a84113384fffdfe3,6881a6906e8a35fe22a200aa,,,,,,,,,,,,,0,,,,,,,,,,,,,,,,,,,,,,,,,,,,,,,,,,,,,74,cintro,,,,,730.5312,732.611,1,0,1.515,,0,74,74,73,1,REAL,FAKE,,,,,,,,,,,,,,,,,
,,,,,,,,,66315a3a93bb6b7499f106d4,Mexican ,13 or older,"no, only English or Spanish",yes,2025-07-23_23h35.14.957,empathy_intonation_perc_control,2024.2.4,Win32,7.501875469,66315a3a93bb6b7499f106d4,68817205a84113384fffdfe3,6881a6906e8a35fe22a200aa,,,,,,,,,,,,,0,,,,,,,,,,,,,,,,,,,,,,,,,,,,,,,,,,,,,92,click the 0 key.,,,,,732.6132,734.6718,0,1,1.4781,,0,75,75,91,1,REAL,FAKE,,,,,,,,,,,,,,,,,
,,,,,,,,,66315a3a93bb6b7499f106d4,Mexican ,13 or older,"no, only English or Spanish",yes,2025-07-23_23h35.14.957,empathy_intonation_perc_control,2024.2.4,Win32,7.501875469,66315a3a93bb6b7499f106d4,68817205a84113384fffdfe3,6881a6906e8a35fe22a200aa,,,,,,,,,,,,,0,,,,,,,,,,,,,,,,,,,,,,,,,,,,,,,,,,,,,50,flamida,,,,,734.6747,736.4035,0,1,1.1257,,0,76,76,49,1,REAL,FAKE,,,,,,,,,,,,,,,,,
,,,,,,,,,66315a3a93bb6b7499f106d4,Mexican ,13 or older,"no, only English or Spanish",yes,2025-07-23_23h35.14.957,empathy_intonation_perc_control,2024.2.4,Win32,7.501875469,66315a3a93bb6b7499f106d4,68817205a84113384fffdfe3,6881a6906e8a35fe22a200aa,,,,,,,,,,,,,0,,,,,,,,,,,,,,,,,,,,,,,,,,,,,,,,,,,,,82,empirador,,,,,736.405,738.0054,0,1,1.0329,,0,77,77,81,1,REAL,FAKE,,,,,,,,,,,,,,,,,
,,,,,,,,,66315a3a93bb6b7499f106d4,Mexican ,13 or older,"no, only English or Spanish",yes,2025-07-23_23h35.14.957,empathy_intonation_perc_control,2024.2.4,Win32,7.501875469,66315a3a93bb6b7499f106d4,68817205a84113384fffdfe3,6881a6906e8a35fe22a200aa,,,,,,,,,,,,,1,,,,,,,,,,,,,,,,,,,,,,,,,,,,,,,,,,,,,62,flaco,,,,,738.0075,740.9425,1,1,2.3683,,0,78,78,61,1,REAL,FAKE,,,,,,,,,,,,,,,,,
,,,,,,,,,66315a3a93bb6b7499f106d4,Mexican ,13 or older,"no, only English or Spanish",yes,2025-07-23_23h35.14.957,empathy_intonation_perc_control,2024.2.4,Win32,7.501875469,66315a3a93bb6b7499f106d4,68817205a84113384fffdfe3,6881a6906e8a35fe22a200aa,,,,,,,,,,,,,1,,,,,,,,,,,,,,,,,,,,,,,,,,,,,,,,,,,,,54,fomentar,,,,,740.9447,742.4487,0,0,0.9073,,0,79,79,53,1,REAL,FAKE,,,,,,,,,,,,,,,,,
,,,,,,,,,66315a3a93bb6b7499f106d4,Mexican ,13 or older,"no, only English or Spanish",yes,2025-07-23_23h35.14.957,empathy_intonation_perc_control,2024.2.4,Win32,7.501875469,66315a3a93bb6b7499f106d4,68817205a84113384fffdfe3,6881a6906e8a35fe22a200aa,,,,,,,,,,,,,0,,,,,,,,,,,,,,,,,,,,,,,,,,,,,,,,,,,,,27,acutación,,,,,742.4508,744.992,1,0,1.9979,,0,80,80,26,1,REAL,FAKE,,,,,,,,,,,,,,,,,
,,,,,,,,,66315a3a93bb6b7499f106d4,Mexican ,13 or older,"no, only English or Spanish",yes,2025-07-23_23h35.14.957,empathy_intonation_perc_control,2024.2.4,Win32,7.501875469,66315a3a93bb6b7499f106d4,68817205a84113384fffdfe3,6881a6906e8a35fe22a200aa,,,,,,,,,,,,,0,,,,,,,,,,,,,,,,,,,,,,,,,,,,,,,,,,,,,30,alardio,,,,,744.994,746.7969,0,1,1.2323,,0,81,81,29,1,REAL,FAKE,,,,,,,,,,,,,,,,,
,,,,,,,,,66315a3a93bb6b7499f106d4,Mexican ,13 or older,"no, only English or Spanish",yes,2025-07-23_23h35.14.957,empathy_intonation_perc_control,2024.2.4,Win32,7.501875469,66315a3a93bb6b7499f106d4,68817205a84113384fffdfe3,6881a6906e8a35fe22a200aa,,,,,,,,,,,,,0,,,,,,,,,,,,,,,,,,,,,,,,,,,,,,,,,,,,,23,lampera,,,,,746.7988,748.696,1,0,1.3251,,0,82,82,22,1,REAL,FAKE,,,,,,,,,,,,,,,,,
,,,,,,,,,66315a3a93bb6b7499f106d4,Mexican ,13 or older,"no, only English or Spanish",yes,2025-07-23_23h35.14.957,empathy_intonation_perc_control,2024.2.4,Win32,7.501875469,66315a3a93bb6b7499f106d4,68817205a84113384fffdfe3,6881a6906e8a35fe22a200aa,,,,,,,,,,,,,1,,,,,,,,,,,,,,,,,,,,,,,,,,,,,,,,,,,,,3,pulmones,,,,,748.6979,750.0807,0,0,0.7973,,0,83,83,2,1,REAL,FAKE,,,,,,,,,,,,,,,,,
,,,,,,,,,66315a3a93bb6b7499f106d4,Mexican ,13 or older,"no, only English or Spanish",yes,2025-07-23_23h35.14.957,empathy_intonation_perc_control,2024.2.4,Win32,7.501875469,66315a3a93bb6b7499f106d4,68817205a84113384fffdfe3,6881a6906e8a35fe22a200aa,,,,,,,,,,,,,0,,,,,,,,,,,,,,,,,,,,,,,,,,,,,,,,,,,,,16,abracer,,,,,750.0833,751.631,0,1,0.9935,,0,84,84,15,1,REAL,FAKE,,,,,,,,,,,,,,,,,
,,,,,,,,,66315a3a93bb6b7499f106d4,Mexican ,13 or older,"no, only English or Spanish",yes,2025-07-23_23h35.14.957,empathy_intonation_perc_control,2024.2.4,Win32,7.501875469,66315a3a93bb6b7499f106d4,68817205a84113384fffdfe3,6881a6906e8a35fe22a200aa,,,,,,,,,,,,,1,,,,,,,,,,,,,,,,,,,,,,,,,,,,,,,,,,,,,2,pellizcar,,,,,751.6332,753.8199,0,0,1.583,,0,85,85,1,1,REAL,FAKE,,,,,,,,,,,,,,,,,
,,,,,,,,,66315a3a93bb6b7499f106d4,Mexican ,13 or older,"no, only English or Spanish",yes,2025-07-23_23h35.14.957,empathy_intonation_perc_control,2024.2.4,Win32,7.501875469,66315a3a93bb6b7499f106d4,68817205a84113384fffdfe3,6881a6906e8a35fe22a200aa,,,,,,,,,,,,,1,,,,,,,,,,,,,,,,,,,,,,,,,,,,,,,,,,,,,52,camisa,,,,,753.8218,755.5196,1,1,1.1119,,0,86,86,51,1,REAL,FAKE,,,,,,,,,,,,,,,,,
,,,,,,,,,66315a3a93bb6b7499f106d4,Mexican ,13 or older,"no, only English or Spanish",yes,2025-07-23_23h35.14.957,empathy_intonation_perc_control,2024.2.4,Win32,7.501875469,66315a3a93bb6b7499f106d4,68817205a84113384fffdfe3,6881a6906e8a35fe22a200aa,,,,,,,,,,,,,1,,,,,,,,,,,,,,,,,,,,,,,,,,,,,,,,,,,,,73,hervidor,,,,,755.5216,757.3111,0,0,1.2293,,0,87,87,72,1,REAL,FAKE,,,,,,,,,,,,,,,,,
,,,,,,,,,66315a3a93bb6b7499f106d4,Mexican ,13 or older,"no, only English or Spanish",yes,2025-07-23_23h35.14.957,empathy_intonation_perc_control,2024.2.4,Win32,7.501875469,66315a3a93bb6b7499f106d4,68817205a84113384fffdfe3,6881a6906e8a35fe22a200aa,,,,,,,,,,,,,0,,,,,,,,,,,,,,,,,,,,,,,,,,,,,,,,,,,,,10,antar,,,,,757.3134,758.7815,0,1,0.8971,,0,88,88,9,1,REAL,FAKE,,,,,,,,,,,,,,,,,
,,,,,,,,,66315a3a93bb6b7499f106d4,Mexican ,13 or older,"no, only English or Spanish",yes,2025-07-23_23h35.14.957,empathy_intonation_perc_control,2024.2.4,Win32,7.501875469,66315a3a93bb6b7499f106d4,68817205a84113384fffdfe3,6881a6906e8a35fe22a200aa,,,,,,,,,,,,,1,,,,,,,,,,,,,,,,,,,,,,,,,,,,,,,,,,,,,68,alegre,,,,,758.7838,760.3437,0,0,0.9555,,0,89,89,67,1,REAL,FAKE,,,,,,,,,,,,,,,,,
,,,,,,,,,66315a3a93bb6b7499f106d4,Mexican ,13 or older,"no, only English or Spanish",yes,2025-07-23_23h35.14.957,empathy_intonation_perc_control,2024.2.4,Win32,7.501875469,66315a3a93bb6b7499f106d4,68817205a84113384fffdfe3,6881a6906e8a35fe22a200aa,,,,,,,,,,,,,1,,,,,,,,,,,,,,,,,,,,,,,,,,,,,,,,,,,,,43,canela,,,,,760.3463,762.0035,0,0,1.1048,,0,90,90,42,1,REAL,FAKE,,,,,,,,,,,,,,,,,
,,,,,,,,,66315a3a93bb6b7499f106d4,Mexican ,13 or older,"no, only English or Spanish",yes,2025-07-23_23h35.14.957,empathy_intonation_perc_control,2024.2.4,Win32,7.501875469,66315a3a93bb6b7499f106d4,68817205a84113384fffdfe3,6881a6906e8a35fe22a200aa,,,,,,,,,,,,,1,,,,,,,,,,,,,,,,,,,,,,,,,,,,,,,,,,,,,76,atar,,,,,762.005,763.7324,0,0,1.1518,,0,91,91,75,1,REAL,FAKE,,,,,,,,,,,,,,,,,
,,,,,,,,,66315a3a93bb6b7499f106d4,Mexican ,13 or older,"no, only English or Spanish",yes,2025-07-23_23h35.14.957,empathy_intonation_perc_control,2024.2.4,Win32,7.501875469,66315a3a93bb6b7499f106d4,68817205a84113384fffdfe3,6881a6906e8a35fe22a200aa,,,,,,,,,,,,,,,,,,,,,,,,,,,,,,,,,,,,,,,,,,,,,,,,,,,,,,,,,,,,,,,,,,,,,763.733,777.2394,,,,,,,,,,,,,,,
,,,,,,,,,66315a3a93bb6b7499f106d4,Mexican ,13 or older,"no, only English or Spanish",yes,2025-07-23_23h35.14.957,empathy_intonation_perc_control,2024.2.4,Win32,7.501875469,66315a3a93bb6b7499f106d4,68817205a84113384fffdfe3,6881a6906e8a35fe22a200aa,,,,,,,,,,,,,,,,,,,,,,,,,,,1,,,,,,,,,,,,,,,,,,,,,,,,,,,,,,,,,,,,,,,,,,,,777.2876,794.809,strongly agree,0,0,0,0,1,I can easily tell if someone else wants to enter a conversation.,1,0,1,0,,
,,,,,,,,,66315a3a93bb6b7499f106d4,Mexican ,13 or older,"no, only English or Spanish",yes,2025-07-23_23h35.14.957,empathy_intonation_perc_control,2024.2.4,Win32,7.501875469,66315a3a93bb6b7499f106d4,68817205a84113384fffdfe3,6881a6906e8a35fe22a200aa,,,,,,,,,,,,,,,,,,,,,,,,,,,2,,,,,,,,,,,,,,,,,,,,,,,,,,,,,,,,,,,,,,,,,,,,794.8141,800.3403,slightly disagree,0,1,1,1,1,I prefer animals to humans.,0,1,0,0,,
,,,,,,,,,66315a3a93bb6b7499f106d4,Mexican ,13 or older,"no, only English or Spanish",yes,2025-07-23_23h35.14.957,empathy_intonation_perc_control,2024.2.4,Win32,7.501875469,66315a3a93bb6b7499f106d4,68817205a84113384fffdfe3,6881a6906e8a35fe22a200aa,,,,,,,,,,,,,,,,,,,,,,,,,,,3,,,,,,,,,,,,,,,,,,,,,,,,,,,,,,,,,,,,,,,,,,,,800.3444,806.7108,slightly agree,0,2,2,2,1,I try to keep up with the current trends and fashions.,0,1,0,0,,
,,,,,,,,,66315a3a93bb6b7499f106d4,Mexican ,13 or older,"no, only English or Spanish",yes,2025-07-23_23h35.14.957,empathy_intonation_perc_control,2024.2.4,Win32,7.501875469,66315a3a93bb6b7499f106d4,68817205a84113384fffdfe3,6881a6906e8a35fe22a200aa,,,,,,,,,,,,,,,,,,,,,,,,,,,4,,,,,,,,,,,,,,,,,,,,,,,,,,,,,,,,,,,,,,,,,,,,806.7175,814.3915,slightly disagree,0,3,3,3,1,"I find it difficult to explain to others things that I understand easily,   when they don't understand it first time.",1,0,0,1,,
,,,,,,,,,66315a3a93bb6b7499f106d4,Mexican ,13 or older,"no, only English or Spanish",yes,2025-07-23_23h35.14.957,empathy_intonation_perc_control,2024.2.4,Win32,7.501875469,66315a3a93bb6b7499f106d4,68817205a84113384fffdfe3,6881a6906e8a35fe22a200aa,,,,,,,,,,,,,,,,,,,,,,,,,,,5,,,,,,,,,,,,,,,,,,,,,,,,,,,,,,,,,,,,,,,,,,,,814.3939,817.0689,strongly disagree,0,4,4,4,1,I dream most nights.,0,1,0,0,,
,,,,,,,,,66315a3a93bb6b7499f106d4,Mexican ,13 or older,"no, only English or Spanish",yes,2025-07-23_23h35.14.957,empathy_intonation_perc_control,2024.2.4,Win32,7.501875469,66315a3a93bb6b7499f106d4,68817205a84113384fffdfe3,6881a6906e8a35fe22a200aa,,,,,,,,,,,,,,,,,,,,,,,,,,,6,,,,,,,,,,,,,,,,,,,,,,,,,,,,,,,,,,,,,,,,,,,,817.0717,822.4959,slightly disagree,0,5,5,5,1,I really enjoy caring for other people.,1,0,1,0,,
,,,,,,,,,66315a3a93bb6b7499f106d4,Mexican ,13 or older,"no, only English or Spanish",yes,2025-07-23_23h35.14.957,empathy_intonation_perc_control,2024.2.4,Win32,7.501875469,66315a3a93bb6b7499f106d4,68817205a84113384fffdfe3,6881a6906e8a35fe22a200aa,,,,,,,,,,,,,,,,,,,,,,,,,,,7,,,,,,,,,,,,,,,,,,,,,,,,,,,,,,,,,,,,,,,,,,,,822.4993,825.9436,strongly agree,0,6,6,6,1,I try to solve my own problems rather than discussing them with others.,0,1,0,0,,
,,,,,,,,,66315a3a93bb6b7499f106d4,Mexican ,13 or older,"no, only English or Spanish",yes,2025-07-23_23h35.14.957,empathy_intonation_perc_control,2024.2.4,Win32,7.501875469,66315a3a93bb6b7499f106d4,68817205a84113384fffdfe3,6881a6906e8a35fe22a200aa,,,,,,,,,,,,,,,,,,,,,,,,,,,8,,,,,,,,,,,,,,,,,,,,,,,,,,,,,,,,,,,,,,,,,,,,825.9465,829.8754,strongly disagree,0,7,7,7,1,I find it hard to know what to do in a social situation.,1,0,0,1,,
,,,,,,,,,66315a3a93bb6b7499f106d4,Mexican ,13 or older,"no, only English or Spanish",yes,2025-07-23_23h35.14.957,empathy_intonation_perc_control,2024.2.4,Win32,7.501875469,66315a3a93bb6b7499f106d4,68817205a84113384fffdfe3,6881a6906e8a35fe22a200aa,,,,,,,,,,,,,,,,,,,,,,,,,,,9,,,,,,,,,,,,,,,,,,,,,,,,,,,,,,,,,,,,,,,,,,,,829.8777,834.789,slightly disagree,0,8,8,8,1,I am at my best first thing in the morning.,0,1,0,0,,
,,,,,,,,,66315a3a93bb6b7499f106d4,Mexican ,13 or older,"no, only English or Spanish",yes,2025-07-23_23h35.14.957,empathy_intonation_perc_control,2024.2.4,Win32,7.501875469,66315a3a93bb6b7499f106d4,68817205a84113384fffdfe3,6881a6906e8a35fe22a200aa,,,,,,,,,,,,,,,,,,,,,,,,,,,10,,,,,,,,,,,,,,,,,,,,,,,,,,,,,,,,,,,,,,,,,,,,834.7925,840.1948,slightly disagree,0,9,9,9,1,People often tell me that I went too far in driving my point home in a discussion.,1,0,0,1,,
,,,,,,,,,66315a3a93bb6b7499f106d4,Mexican ,13 or older,"no, only English or Spanish",yes,2025-07-23_23h35.14.957,empathy_intonation_perc_control,2024.2.4,Win32,7.501875469,66315a3a93bb6b7499f106d4,68817205a84113384fffdfe3,6881a6906e8a35fe22a200aa,,,,,,,,,,,,,,,,,,,,,,,,,,,11,,,,,,,,,,,,,,,,,,,,,,,,,,,,,,,,,,,,,,,,,,,,840.1979,845.503,slightly agree,0,10,10,10,1,It doesn't bother me too much if I am late meeting a friend.,1,0,0,1,,
,,,,,,,,,66315a3a93bb6b7499f106d4,Mexican ,13 or older,"no, only English or Spanish",yes,2025-07-23_23h35.14.957,empathy_intonation_perc_control,2024.2.4,Win32,7.501875469,66315a3a93bb6b7499f106d4,68817205a84113384fffdfe3,6881a6906e8a35fe22a200aa,,,,,,,,,,,,,,,,,,,,,,,,,,,12,,,,,,,,,,,,,,,,,,,,,,,,,,,,,,,,,,,,,,,,,,,,845.5076,849.4376,strongly disagree,0,11,11,11,1,"Friendships and relationships are just too difficult, so I tend not to 
  bother with them.",1,0,0,1,,
,,,,,,,,,66315a3a93bb6b7499f106d4,Mexican ,13 or older,"no, only English or Spanish",yes,2025-07-23_23h35.14.957,empathy_intonation_perc_control,2024.2.4,Win32,7.501875469,66315a3a93bb6b7499f106d4,68817205a84113384fffdfe3,6881a6906e8a35fe22a200aa,,,,,,,,,,,,,,,,,,,,,,,,,,,13,,,,,,,,,,,,,,,,,,,,,,,,,,,,,,,,,,,,,,,,,,,,849.4402,858.5068,slightly agree,0,12,12,12,1,"I would never break a law, no matter how minor.",0,1,0,0,,
,,,,,,,,,66315a3a93bb6b7499f106d4,Mexican ,13 or older,"no, only English or Spanish",yes,2025-07-23_23h35.14.957,empathy_intonation_perc_control,2024.2.4,Win32,7.501875469,66315a3a93bb6b7499f106d4,68817205a84113384fffdfe3,6881a6906e8a35fe22a200aa,,,,,,,,,,,,,,,,,,,,,,,,,,,14,,,,,,,,,,,,,,,,,,,,,,,,,,,,,,,,,,,,,,,,,,,,858.5103,862.4163,strongly disagree,0,13,13,13,1,I often find it difficult to judge if something is rude or polite.,1,0,0,1,,
,,,,,,,,,66315a3a93bb6b7499f106d4,Mexican ,13 or older,"no, only English or Spanish",yes,2025-07-23_23h35.14.957,empathy_intonation_perc_control,2024.2.4,Win32,7.501875469,66315a3a93bb6b7499f106d4,68817205a84113384fffdfe3,6881a6906e8a35fe22a200aa,,,,,,,,,,,,,,,,,,,,,,,,,,,15,,,,,,,,,,,,,,,,,,,,,,,,,,,,,,,,,,,,,,,,,,,,862.4192,869.9309,strongly disagree,0,14,14,14,1,"In a conversation, I tend to focus on my own thoughts rather than on what 
  my listener might be thinking.",1,0,0,1,,
,,,,,,,,,66315a3a93bb6b7499f106d4,Mexican ,13 or older,"no, only English or Spanish",yes,2025-07-23_23h35.14.957,empathy_intonation_perc_control,2024.2.4,Win32,7.501875469,66315a3a93bb6b7499f106d4,68817205a84113384fffdfe3,6881a6906e8a35fe22a200aa,,,,,,,,,,,,,,,,,,,,,,,,,,,16,,,,,,,,,,,,,,,,,,,,,,,,,,,,,,,,,,,,,,,,,,,,869.9338,874.4657,strongly disagree,0,15,15,15,1,I prefer practical jokes to verbal humor.,0,1,0,0,,
,,,,,,,,,66315a3a93bb6b7499f106d4,Mexican ,13 or older,"no, only English or Spanish",yes,2025-07-23_23h35.14.957,empathy_intonation_perc_control,2024.2.4,Win32,7.501875469,66315a3a93bb6b7499f106d4,68817205a84113384fffdfe3,6881a6906e8a35fe22a200aa,,,,,,,,,,,,,,,,,,,,,,,,,,,17,,,,,,,,,,,,,,,,,,,,,,,,,,,,,,,,,,,,,,,,,,,,874.4682,879.2974,slightly agree,0,16,16,16,1,I live life for today rather than the future.,0,1,0,0,,
,,,,,,,,,66315a3a93bb6b7499f106d4,Mexican ,13 or older,"no, only English or Spanish",yes,2025-07-23_23h35.14.957,empathy_intonation_perc_control,2024.2.4,Win32,7.501875469,66315a3a93bb6b7499f106d4,68817205a84113384fffdfe3,6881a6906e8a35fe22a200aa,,,,,,,,,,,,,,,,,,,,,,,,,,,18,,,,,,,,,,,,,,,,,,,,,,,,,,,,,,,,,,,,,,,,,,,,879.3009,883.4113,strongly disagree,0,17,17,17,1,"When I was a child, I enjoyed cutting up worms to see what would happen.",1,0,0,1,,
,,,,,,,,,66315a3a93bb6b7499f106d4,Mexican ,13 or older,"no, only English or Spanish",yes,2025-07-23_23h35.14.957,empathy_intonation_perc_control,2024.2.4,Win32,7.501875469,66315a3a93bb6b7499f106d4,68817205a84113384fffdfe3,6881a6906e8a35fe22a200aa,,,,,,,,,,,,,,,,,,,,,,,,,,,19,,,,,,,,,,,,,,,,,,,,,,,,,,,,,,,,,,,,,,,,,,,,883.4139,1047.8608,strongly agree,0,18,18,18,1,I can pick up quickly if someone says one thing but means another.,1,0,1,0,,
,,,,,,,,,66315a3a93bb6b7499f106d4,Mexican ,13 or older,"no, only English or Spanish",yes,2025-07-23_23h35.14.957,empathy_intonation_perc_control,2024.2.4,Win32,7.501875469,66315a3a93bb6b7499f106d4,68817205a84113384fffdfe3,6881a6906e8a35fe22a200aa,,,,,,,,,,,,,,,,,,,,,,,,,,,20,,,,,,,,,,,,,,,,,,,,,,,,,,,,,,,,,,,,,,,,,,,,1047.8699,1053.7654,slightly disagree,0,19,19,19,1,I tend to have very strong opinions about morality.,0,1,0,0,,
,,,,,,,,,66315a3a93bb6b7499f106d4,Mexican ,13 or older,"no, only English or Spanish",yes,2025-07-23_23h35.14.957,empathy_intonation_perc_control,2024.2.4,Win32,7.501875469,66315a3a93bb6b7499f106d4,68817205a84113384fffdfe3,6881a6906e8a35fe22a200aa,,,,,,,,,,,,,,,,,,,,,,,,,,,21,,,,,,,,,,,,,,,,,,,,,,,,,,,,,,,,,,,,,,,,,,,,1053.7697,1061.7684,strongly disagree,0,20,20,20,1,It is hard for me to see why some things upset people so much.,1,0,0,1,,
,,,,,,,,,66315a3a93bb6b7499f106d4,Mexican ,13 or older,"no, only English or Spanish",yes,2025-07-23_23h35.14.957,empathy_intonation_perc_control,2024.2.4,Win32,7.501875469,66315a3a93bb6b7499f106d4,68817205a84113384fffdfe3,6881a6906e8a35fe22a200aa,,,,,,,,,,,,,,,,,,,,,,,,,,,22,,,,,,,,,,,,,,,,,,,,,,,,,,,,,,,,,,,,,,,,,,,,1061.7714,1069.9825,strongly agree,0,21,21,21,1,I find it easy to put myself in somebody else's shoes.,1,0,1,0,,
,,,,,,,,,66315a3a93bb6b7499f106d4,Mexican ,13 or older,"no, only English or Spanish",yes,2025-07-23_23h35.14.957,empathy_intonation_perc_control,2024.2.4,Win32,7.501875469,66315a3a93bb6b7499f106d4,68817205a84113384fffdfe3,6881a6906e8a35fe22a200aa,,,,,,,,,,,,,,,,,,,,,,,,,,,23,,,,,,,,,,,,,,,,,,,,,,,,,,,,,,,,,,,,,,,,,,,,1069.9864,1079.9715,slightly agree,0,22,22,22,1,I think that good manners are the most important thing a parent can teach their child.,0,1,0,0,,
