instructions_2afc.started,instructions_2afc.stopped,instructions_2afc_loop.thisRepN,instructions_2afc_loop.thisTrialN,instructions_2afc_loop.thisN,instructions_2afc_loop.thisIndex,instructions_2afc_loop.ran,instructions_text,continue_text,participant_id,"What variety of Spanish are you most familiar with? (e.g., Peruvian, Spanish, Mexican)",At what age did you begin learning Spanish?,Are you proficient in any languages other than English/Spanish?,"Are you familiar with Caribbean (e.g., Caribbean, Puerto Rican) or Galician Spanish?",date,expName,psychopyVersion,OS,frameRate,id,study_id,session,practice_2afc.started,practice_2afc.stopped,key_resp_2afc_practice.keys,key_resp_2afc_practice.corr,key_resp_2afc_practice.rt,key_resp_2afc_practice.duration,trials_2afc_practice_loop.thisRepN,trials_2afc_practice_loop.thisTrialN,trials_2afc_practice_loop.thisN,trials_2afc_practice_loop.thisIndex,trials_2afc_practice_loop.ran,path,correct_response,check_2afc.started,check_2afc.stopped,trial_2afc.started,trial_2afc.stopped,key_resp_2afc_trial.keys,key_resp_2afc_trial.corr,key_resp_2afc_trial.rt,key_resp_2afc_trial.duration,trials_2afc_loop.thisRepN,trials_2afc_loop.thisTrialN,trials_2afc_loop.thisN,trials_2afc_loop.thisIndex,trials_2afc_loop.ran,item_num,target,variety,instructions_lextale.started,instructions_lextale.stopped,instructions_lextale_loop.thisRepN,instructions_lextale_loop.thisTrialN,instructions_lextale_loop.thisN,instructions_lextale_loop.thisIndex,instructions_lextale_loop.ran,practice_lextale.started,practice_lextale.stopped,key_resp_lextale_practice.keys,key_resp_lextale_practice.corr,key_resp_lextale_practice.rt,key_resp_lextale_practice.duration,practice_feedback_lextale.started,practice_feedback_lextale.stopped,trials_lextale_practice_loop.thisRepN,trials_lextale_practice_loop.thisTrialN,trials_lextale_practice_loop.thisN,trials_lextale_practice_loop.thisIndex,trials_lextale_practice_loop.ran,stim,word,prac_button_real,prac_button_false,check_lextale.started,check_lextale.stopped,trial_lextale.started,trial_lextale.stopped,key_resp_lextale_trial.keys,key_resp_lextale_trial.corr,key_resp_lextale_trial.rt,key_resp_lextale_trial.duration,trials_lextale_loop.thisRepN,trials_lextale_loop.thisTrialN,trials_lextale_loop.thisN,trials_lextale_loop.thisIndex,trials_lextale_loop.ran,button_real,button_false,instructions_eq.started,instructions_eq.stopped,trial_eq.started,trial_eq.stopped,slider_eq_trial.response,trials_eq_loop.thisRepN,trials_eq_loop.thisTrialN,trials_eq_loop.thisN,trials_eq_loop.thisIndex,trials_eq_loop.ran,item,is_test_item,is_distractor,is_agree_score,is_disagree_score,end_exp.started,end_exp.stopped
0.026,15.6927,0,0,0,0,1,"In the following task you are going to hear a series of utterances. 

  You will decide if the utterances sound like questions or not using your keyboard.", (press the spacebar to continue),6647ce8c4b8ee105144eb431,Spanish,13 or older,"no, only English or Spanish",no,2025-07-24_06h02.55.962,empathy_intonation_perc_control,2024.2.4,Win32,60.97560976,6647ce8c4b8ee105144eb431,68817205a84113384fffdfe3,6882049ad7cc1c94da3eb9a7,,,,,,,,,,,,,,,,,,,,,,,,,,,,,,,,,,,,,,,,,,,,,,,,,,,,,,,,,,,,,,,,,,,,,,,,,,,,,,,,,,,,,
15.6987,30.2537,0,1,1,1,1,"If you believe the utterance is a question, type '1' (for 'yes') and if you do not 
  believe it is a question type '0' (for 'no').

  Let's practice a bit...", (press the spacebar to continue),6647ce8c4b8ee105144eb431,Spanish,13 or older,"no, only English or Spanish",no,2025-07-24_06h02.55.962,empathy_intonation_perc_control,2024.2.4,Win32,60.97560976,6647ce8c4b8ee105144eb431,68817205a84113384fffdfe3,6882049ad7cc1c94da3eb9a7,,,,,,,,,,,,,,,,,,,,,,,,,,,,,,,,,,,,,,,,,,,,,,,,,,,,,,,,,,,,,,,,,,,,,,,,,,,,,,,,,,,,,
,,,,,,,,,6647ce8c4b8ee105144eb431,Spanish,13 or older,"no, only English or Spanish",no,2025-07-24_06h02.55.962,empathy_intonation_perc_control,2024.2.4,Win32,60.97560976,6647ce8c4b8ee105144eb431,68817205a84113384fffdfe3,6882049ad7cc1c94da3eb9a7,30.2776,36.8419,0,0,6.0325,,0,0,0,0,1,./stim/wavs/castilian_question_filler_Mi-esposo-conoce-al-chico.wav,1,,,,,,,,,,,,,,,,,,,,,,,,,,,,,,,,,,,,,,,,,,,,,,,,,,,,,,,,,,,,,,,,,,,,,,,,
,,,,,,,,,6647ce8c4b8ee105144eb431,Spanish,13 or older,"no, only English or Spanish",no,2025-07-24_06h02.55.962,empathy_intonation_perc_control,2024.2.4,Win32,60.97560976,6647ce8c4b8ee105144eb431,68817205a84113384fffdfe3,6882049ad7cc1c94da3eb9a7,36.847,40.6219,1,1,3.2456,,0,1,1,2,1,./stim/wavs/chilean_question_filler_Mi-padre-cantaba-bien.wav,1,,,,,,,,,,,,,,,,,,,,,,,,,,,,,,,,,,,,,,,,,,,,,,,,,,,,,,,,,,,,,,,,,,,,,,,,
,,,,,,,,,6647ce8c4b8ee105144eb431,Spanish,13 or older,"no, only English or Spanish",no,2025-07-24_06h02.55.962,empathy_intonation_perc_control,2024.2.4,Win32,60.97560976,6647ce8c4b8ee105144eb431,68817205a84113384fffdfe3,6882049ad7cc1c94da3eb9a7,40.626,41.9059,0,1,0.7535,,0,2,2,6,1,./stim/wavs/peruvian_statement_filler_El-nino-habla-con-su-madre.wav,0,,,,,,,,,,,,,,,,,,,,,,,,,,,,,,,,,,,,,,,,,,,,,,,,,,,,,,,,,,,,,,,,,,,,,,,,
,,,,,,,,,6647ce8c4b8ee105144eb431,Spanish,13 or older,"no, only English or Spanish",no,2025-07-24_06h02.55.962,empathy_intonation_perc_control,2024.2.4,Win32,60.97560976,6647ce8c4b8ee105144eb431,68817205a84113384fffdfe3,6882049ad7cc1c94da3eb9a7,41.9103,45.8822,0,0,3.4466,,0,3,3,3,1,./stim/wavs/mexican_question_filler_Felipe-no-tiene-contrasena.wav,1,,,,,,,,,,,,,,,,,,,,,,,,,,,,,,,,,,,,,,,,,,,,,,,,,,,,,,,,,,,,,,,,,,,,,,,,
,,,,,,,,,6647ce8c4b8ee105144eb431,Spanish,13 or older,"no, only English or Spanish",no,2025-07-24_06h02.55.962,empathy_intonation_perc_control,2024.2.4,Win32,60.97560976,6647ce8c4b8ee105144eb431,68817205a84113384fffdfe3,6882049ad7cc1c94da3eb9a7,45.8842,48.3039,0,1,1.8881,,0,4,4,4,1,./stim/wavs/cuban_statement_filler_Cocinabas-por-la-noche.wav,0,,,,,,,,,,,,,,,,,,,,,,,,,,,,,,,,,,,,,,,,,,,,,,,,,,,,,,,,,,,,,,,,,,,,,,,,
,,,,,,,,,6647ce8c4b8ee105144eb431,Spanish,13 or older,"no, only English or Spanish",no,2025-07-24_06h02.55.962,empathy_intonation_perc_control,2024.2.4,Win32,60.97560976,6647ce8c4b8ee105144eb431,68817205a84113384fffdfe3,6882049ad7cc1c94da3eb9a7,48.3068,50.2152,1,1,1.3847,,0,5,5,1,1,./stim/wavs/argentine_question_filler_Mi-vecino-habla-mucho.wav,1,,,,,,,,,,,,,,,,,,,,,,,,,,,,,,,,,,,,,,,,,,,,,,,,,,,,,,,,,,,,,,,,,,,,,,,,
,,,,,,,,,6647ce8c4b8ee105144eb431,Spanish,13 or older,"no, only English or Spanish",no,2025-07-24_06h02.55.962,empathy_intonation_perc_control,2024.2.4,Win32,60.97560976,6647ce8c4b8ee105144eb431,68817205a84113384fffdfe3,6882049ad7cc1c94da3eb9a7,50.2205,52.3754,1,0,1.6337,,0,6,6,5,1,./stim/wavs/andalusian_statement_filler_Alberto-nunca-se-afeita.wav,0,,,,,,,,,,,,,,,,,,,,,,,,,,,,,,,,,,,,,,,,,,,,,,,,,,,,,,,,,,,,,,,,,,,,,,,,
,,,,,,,,,6647ce8c4b8ee105144eb431,Spanish,13 or older,"no, only English or Spanish",no,2025-07-24_06h02.55.962,empathy_intonation_perc_control,2024.2.4,Win32,60.97560976,6647ce8c4b8ee105144eb431,68817205a84113384fffdfe3,6882049ad7cc1c94da3eb9a7,52.3774,58.4363,1,0,5.5311,,0,7,7,7,1,./stim/wavs/puertorican_statement_filler_La-nina-pinta-con-su-amiga.wav,0,,,,,,,,,,,,,,,,,,,,,,,,,,,,,,,,,,,,,,,,,,,,,,,,,,,,,,,,,,,,,,,,,,,,,,,,
,,,,,,,,,6647ce8c4b8ee105144eb431,Spanish,13 or older,"no, only English or Spanish",no,2025-07-24_06h02.55.962,empathy_intonation_perc_control,2024.2.4,Win32,60.97560976,6647ce8c4b8ee105144eb431,68817205a84113384fffdfe3,6882049ad7cc1c94da3eb9a7,,,,,,,,,,,,,,58.4375,68.1284,,,,,,,,,,,,,,,,,,,,,,,,,,,,,,,,,,,,,,,,,,,,,,,,,,,,,,,,,,,,,,,,,,,,,,
,,,,,,,,,6647ce8c4b8ee105144eb431,Spanish,13 or older,"no, only English or Spanish",no,2025-07-24_06h02.55.962,empathy_intonation_perc_control,2024.2.4,Win32,60.97560976,6647ce8c4b8ee105144eb431,68817205a84113384fffdfe3,6882049ad7cc1c94da3eb9a7,,,,,,,,,,,,./stim/wavs/cuban_match_declarative-broad-focus_Ana-lleva-el-abrigo.wav,0,,,68.1514,75.3309,1,0,6.6483,,0,0,0,50,1,51,0,cuban,,,,,,,,,,,,,,,,,,,,,,,,,,,,,,,,,,,,,,,,,,,,,,,,,,,,,,,,
,,,,,,,,,6647ce8c4b8ee105144eb431,Spanish,13 or older,"no, only English or Spanish",no,2025-07-24_06h02.55.962,empathy_intonation_perc_control,2024.2.4,Win32,60.97560976,6647ce8c4b8ee105144eb431,68817205a84113384fffdfe3,6882049ad7cc1c94da3eb9a7,,,,,,,,,,,,./stim/wavs/castilian_mismatch_declarative-broad-focus_El-nino-oye-el-rio.wav,0,,,75.3336,81.5499,1,0,5.6969,,0,1,1,68,1,69,0,castilian,,,,,,,,,,,,,,,,,,,,,,,,,,,,,,,,,,,,,,,,,,,,,,,,,,,,,,,,
,,,,,,,,,6647ce8c4b8ee105144eb431,Spanish,13 or older,"no, only English or Spanish",no,2025-07-24_06h02.55.962,empathy_intonation_perc_control,2024.2.4,Win32,60.97560976,6647ce8c4b8ee105144eb431,68817205a84113384fffdfe3,6882049ad7cc1c94da3eb9a7,,,,,,,,,,,,./stim/wavs/mexican_match_interrogative-total-yn_Daniel-iba-a-Bolivia.wav,1,,,81.5523,83.4831,0,0,1.4057,,0,2,2,13,1,14,0,mexican,,,,,,,,,,,,,,,,,,,,,,,,,,,,,,,,,,,,,,,,,,,,,,,,,,,,,,,,
,,,,,,,,,6647ce8c4b8ee105144eb431,Spanish,13 or older,"no, only English or Spanish",no,2025-07-24_06h02.55.962,empathy_intonation_perc_control,2024.2.4,Win32,60.97560976,6647ce8c4b8ee105144eb431,68817205a84113384fffdfe3,6882049ad7cc1c94da3eb9a7,,,,,,,,,,,,./stim/wavs/mexican_match_declarative-broad-focus_Daniel-iba-a-Bolivia.wav,0,,,83.4861,86.961,1,0,2.9489,,0,3,3,57,1,58,0,mexican,,,,,,,,,,,,,,,,,,,,,,,,,,,,,,,,,,,,,,,,,,,,,,,,,,,,,,,,
,,,,,,,,,6647ce8c4b8ee105144eb431,Spanish,13 or older,"no, only English or Spanish",no,2025-07-24_06h02.55.962,empathy_intonation_perc_control,2024.2.4,Win32,60.97560976,6647ce8c4b8ee105144eb431,68817205a84113384fffdfe3,6882049ad7cc1c94da3eb9a7,,,,,,,,,,,,./stim/wavs/cuban_match_interrogative-total-yn_Daniel-iba-a-Bolivia.wav,1,,,86.9623,92.413,0,0,4.9179,,0,4,4,7,1,8,1,cuban,,,,,,,,,,,,,,,,,,,,,,,,,,,,,,,,,,,,,,,,,,,,,,,,,,,,,,,,
,,,,,,,,,6647ce8c4b8ee105144eb431,Spanish,13 or older,"no, only English or Spanish",no,2025-07-24_06h02.55.962,empathy_intonation_perc_control,2024.2.4,Win32,60.97560976,6647ce8c4b8ee105144eb431,68817205a84113384fffdfe3,6882049ad7cc1c94da3eb9a7,,,,,,,,,,,,./stim/wavs/mexican_mismatch_declarative-broad-focus_Mi-tia-odia-la-lluvia.wav,0,,,92.4181,94.6253,1,0,1.6921,,0,5,5,82,1,83,0,mexican,,,,,,,,,,,,,,,,,,,,,,,,,,,,,,,,,,,,,,,,,,,,,,,,,,,,,,,,
,,,,,,,,,6647ce8c4b8ee105144eb431,Spanish,13 or older,"no, only English or Spanish",no,2025-07-24_06h02.55.962,empathy_intonation_perc_control,2024.2.4,Win32,60.97560976,6647ce8c4b8ee105144eb431,68817205a84113384fffdfe3,6882049ad7cc1c94da3eb9a7,,,,,,,,,,,,./stim/wavs/castilian_match_declarative-broad-focus_Manuela-vende-el-carro.wav,0,,,94.6268,97.8821,1,0,2.7305,,0,6,6,46,1,47,0,castilian,,,,,,,,,,,,,,,,,,,,,,,,,,,,,,,,,,,,,,,,,,,,,,,,,,,,,,,,
,,,,,,,,,6647ce8c4b8ee105144eb431,Spanish,13 or older,"no, only English or Spanish",no,2025-07-24_06h02.55.962,empathy_intonation_perc_control,2024.2.4,Win32,60.97560976,6647ce8c4b8ee105144eb431,68817205a84113384fffdfe3,6882049ad7cc1c94da3eb9a7,,,,,,,,,,,,./stim/wavs/mexican_mismatch_declarative-broad-focus_El-hombre-mira-la-luna.wav,0,,,97.8829,102.5112,1,0,4.0915,,0,7,7,79,1,80,0,mexican,,,,,,,,,,,,,,,,,,,,,,,,,,,,,,,,,,,,,,,,,,,,,,,,,,,,,,,,
,,,,,,,,,6647ce8c4b8ee105144eb431,Spanish,13 or older,"no, only English or Spanish",no,2025-07-24_06h02.55.962,empathy_intonation_perc_control,2024.2.4,Win32,60.97560976,6647ce8c4b8ee105144eb431,68817205a84113384fffdfe3,6882049ad7cc1c94da3eb9a7,,,,,,,,,,,,./stim/wavs/cuban_mismatch_declarative-broad-focus_Mi-novio-viene-del-lago.wav,0,,,102.5119,103.9951,0,1,0.9486,,0,8,8,76,1,77,0,cuban,,,,,,,,,,,,,,,,,,,,,,,,,,,,,,,,,,,,,,,,,,,,,,,,,,,,,,,,
,,,,,,,,,6647ce8c4b8ee105144eb431,Spanish,13 or older,"no, only English or Spanish",no,2025-07-24_06h02.55.962,empathy_intonation_perc_control,2024.2.4,Win32,60.97560976,6647ce8c4b8ee105144eb431,68817205a84113384fffdfe3,6882049ad7cc1c94da3eb9a7,,,,,,,,,,,,./stim/wavs/castilian_mismatch_interrogative-total-yn_La-nina-lava-el-plato.wav,1,,,103.9977,106.2317,1,1,1.7055,,0,9,9,25,1,26,0,castilian,,,,,,,,,,,,,,,,,,,,,,,,,,,,,,,,,,,,,,,,,,,,,,,,,,,,,,,,
,,,,,,,,,6647ce8c4b8ee105144eb431,Spanish,13 or older,"no, only English or Spanish",no,2025-07-24_06h02.55.962,empathy_intonation_perc_control,2024.2.4,Win32,60.97560976,6647ce8c4b8ee105144eb431,68817205a84113384fffdfe3,6882049ad7cc1c94da3eb9a7,,,,,,,,,,,,./stim/wavs/cuban_mismatch_interrogative-total-yn_El-nino-oye-el-rio.wav,1,,,106.2333,108.3416,0,0,1.582,,0,10,10,30,1,31,1,cuban,,,,,,,,,,,,,,,,,,,,,,,,,,,,,,,,,,,,,,,,,,,,,,,,,,,,,,,,
,,,,,,,,,6647ce8c4b8ee105144eb431,Spanish,13 or older,"no, only English or Spanish",no,2025-07-24_06h02.55.962,empathy_intonation_perc_control,2024.2.4,Win32,60.97560976,6647ce8c4b8ee105144eb431,68817205a84113384fffdfe3,6882049ad7cc1c94da3eb9a7,,,,,,,,,,,,./stim/wavs/castilian_match_interrogative-total-yn_Manuela-vende-el-carro.wav,1,,,108.3469,110.805,1,1,1.9352,,0,11,11,2,1,3,0,castilian,,,,,,,,,,,,,,,,,,,,,,,,,,,,,,,,,,,,,,,,,,,,,,,,,,,,,,,,
,,,,,,,,,6647ce8c4b8ee105144eb431,Spanish,13 or older,"no, only English or Spanish",no,2025-07-24_06h02.55.962,empathy_intonation_perc_control,2024.2.4,Win32,60.97560976,6647ce8c4b8ee105144eb431,68817205a84113384fffdfe3,6882049ad7cc1c94da3eb9a7,,,,,,,,,,,,./stim/wavs/cuban_mismatch_interrogative-total-yn_Mi-novio-viene-del-lago.wav,1,,,110.8076,113.7172,0,0,2.3847,,0,12,12,32,1,33,1,cuban,,,,,,,,,,,,,,,,,,,,,,,,,,,,,,,,,,,,,,,,,,,,,,,,,,,,,,,,
,,,,,,,,,6647ce8c4b8ee105144eb431,Spanish,13 or older,"no, only English or Spanish",no,2025-07-24_06h02.55.962,empathy_intonation_perc_control,2024.2.4,Win32,60.97560976,6647ce8c4b8ee105144eb431,68817205a84113384fffdfe3,6882049ad7cc1c94da3eb9a7,,,,,,,,,,,,./stim/wavs/castilian_match_declarative-broad-focus_David-leia-el-libro.wav,0,,,113.7196,116.3028,0,1,2.0572,,0,13,13,44,1,45,0,castilian,,,,,,,,,,,,,,,,,,,,,,,,,,,,,,,,,,,,,,,,,,,,,,,,,,,,,,,,
,,,,,,,,,6647ce8c4b8ee105144eb431,Spanish,13 or older,"no, only English or Spanish",no,2025-07-24_06h02.55.962,empathy_intonation_perc_control,2024.2.4,Win32,60.97560976,6647ce8c4b8ee105144eb431,68817205a84113384fffdfe3,6882049ad7cc1c94da3eb9a7,,,,,,,,,,,,./stim/wavs/mexican_mismatch_interrogative-total-yn_Mi-novio-viene-del-lago.wav,1,,,116.3042,118.6863,1,1,1.8534,,0,14,14,37,1,38,0,mexican,,,,,,,,,,,,,,,,,,,,,,,,,,,,,,,,,,,,,,,,,,,,,,,,,,,,,,,,
,,,,,,,,,6647ce8c4b8ee105144eb431,Spanish,13 or older,"no, only English or Spanish",no,2025-07-24_06h02.55.962,empathy_intonation_perc_control,2024.2.4,Win32,60.97560976,6647ce8c4b8ee105144eb431,68817205a84113384fffdfe3,6882049ad7cc1c94da3eb9a7,,,,,,,,,,,,./stim/wavs/cuban_match_declarative-broad-focus_Maria-bebe-el-vino.wav,0,,,118.6891,120.9274,0,1,1.7139,,0,15,15,53,1,54,0,cuban,,,,,,,,,,,,,,,,,,,,,,,,,,,,,,,,,,,,,,,,,,,,,,,,,,,,,,,,
,,,,,,,,,6647ce8c4b8ee105144eb431,Spanish,13 or older,"no, only English or Spanish",no,2025-07-24_06h02.55.962,empathy_intonation_perc_control,2024.2.4,Win32,60.97560976,6647ce8c4b8ee105144eb431,68817205a84113384fffdfe3,6882049ad7cc1c94da3eb9a7,,,,,,,,,,,,./stim/wavs/castilian_mismatch_declarative-broad-focus_Mi-novio-viene-del-lago.wav,0,,,120.9295,123.5472,0,1,2.0862,,0,16,16,71,1,72,0,castilian,,,,,,,,,,,,,,,,,,,,,,,,,,,,,,,,,,,,,,,,,,,,,,,,,,,,,,,,
,,,,,,,,,6647ce8c4b8ee105144eb431,Spanish,13 or older,"no, only English or Spanish",no,2025-07-24_06h02.55.962,empathy_intonation_perc_control,2024.2.4,Win32,60.97560976,6647ce8c4b8ee105144eb431,68817205a84113384fffdfe3,6882049ad7cc1c94da3eb9a7,,,,,,,,,,,,./stim/wavs/mexican_match_declarative-broad-focus_Marta-abre-el-regalo.wav,0,,,123.5513,125.806,0,1,1.7297,,0,17,17,61,1,62,0,mexican,,,,,,,,,,,,,,,,,,,,,,,,,,,,,,,,,,,,,,,,,,,,,,,,,,,,,,,,
,,,,,,,,,6647ce8c4b8ee105144eb431,Spanish,13 or older,"no, only English or Spanish",no,2025-07-24_06h02.55.962,empathy_intonation_perc_control,2024.2.4,Win32,60.97560976,6647ce8c4b8ee105144eb431,68817205a84113384fffdfe3,6882049ad7cc1c94da3eb9a7,,,,,,,,,,,,./stim/wavs/puertorican_mismatch_interrogative-total-yn_El-hombre-mira-la-luna.wav,1,,,125.8073,127.8075,1,1,1.473,,0,18,18,39,1,40,1,puertorican,,,,,,,,,,,,,,,,,,,,,,,,,,,,,,,,,,,,,,,,,,,,,,,,,,,,,,,,
,,,,,,,,,6647ce8c4b8ee105144eb431,Spanish,13 or older,"no, only English or Spanish",no,2025-07-24_06h02.55.962,empathy_intonation_perc_control,2024.2.4,Win32,60.97560976,6647ce8c4b8ee105144eb431,68817205a84113384fffdfe3,6882049ad7cc1c94da3eb9a7,,,,,,,,,,,,./stim/wavs/cuban_mismatch_declarative-broad-focus_El-hombre-mira-la-luna.wav,0,,,127.8111,129.8748,0,1,1.5413,,0,19,19,74,1,75,0,cuban,,,,,,,,,,,,,,,,,,,,,,,,,,,,,,,,,,,,,,,,,,,,,,,,,,,,,,,,
,,,,,,,,,6647ce8c4b8ee105144eb431,Spanish,13 or older,"no, only English or Spanish",no,2025-07-24_06h02.55.962,empathy_intonation_perc_control,2024.2.4,Win32,60.97560976,6647ce8c4b8ee105144eb431,68817205a84113384fffdfe3,6882049ad7cc1c94da3eb9a7,,,,,,,,,,,,./stim/wavs/cuban_match_declarative-broad-focus_Mariano-habla-del-tiempo.wav,0,,,129.8769,132.0733,0,1,1.6666,,0,20,20,54,1,55,0,cuban,,,,,,,,,,,,,,,,,,,,,,,,,,,,,,,,,,,,,,,,,,,,,,,,,,,,,,,,
,,,,,,,,,6647ce8c4b8ee105144eb431,Spanish,13 or older,"no, only English or Spanish",no,2025-07-24_06h02.55.962,empathy_intonation_perc_control,2024.2.4,Win32,60.97560976,6647ce8c4b8ee105144eb431,68817205a84113384fffdfe3,6882049ad7cc1c94da3eb9a7,,,,,,,,,,,,./stim/wavs/puertorican_match_declarative-broad-focus_Daniel-iba-a-Bolivia.wav,0,,,132.0764,134.1317,0,1,1.5311,,0,21,21,63,1,64,0,puertorican,,,,,,,,,,,,,,,,,,,,,,,,,,,,,,,,,,,,,,,,,,,,,,,,,,,,,,,,
,,,,,,,,,6647ce8c4b8ee105144eb431,Spanish,13 or older,"no, only English or Spanish",no,2025-07-24_06h02.55.962,empathy_intonation_perc_control,2024.2.4,Win32,60.97560976,6647ce8c4b8ee105144eb431,68817205a84113384fffdfe3,6882049ad7cc1c94da3eb9a7,,,,,,,,,,,,./stim/wavs/mexican_match_interrogative-total-yn_Emilio-ama-la-marcha.wav,1,,,134.1329,136.1632,1,1,1.4958,,0,22,22,15,1,16,0,mexican,,,,,,,,,,,,,,,,,,,,,,,,,,,,,,,,,,,,,,,,,,,,,,,,,,,,,,,,
,,,,,,,,,6647ce8c4b8ee105144eb431,Spanish,13 or older,"no, only English or Spanish",no,2025-07-24_06h02.55.962,empathy_intonation_perc_control,2024.2.4,Win32,60.97560976,6647ce8c4b8ee105144eb431,68817205a84113384fffdfe3,6882049ad7cc1c94da3eb9a7,,,,,,,,,,,,./stim/wavs/castilian_mismatch_interrogative-total-yn_Mi-novio-viene-del-lago.wav,1,,,136.1643,138.6611,1,1,1.9657,,0,23,23,27,1,28,0,castilian,,,,,,,,,,,,,,,,,,,,,,,,,,,,,,,,,,,,,,,,,,,,,,,,,,,,,,,,
,,,,,,,,,6647ce8c4b8ee105144eb431,Spanish,13 or older,"no, only English or Spanish",no,2025-07-24_06h02.55.962,empathy_intonation_perc_control,2024.2.4,Win32,60.97560976,6647ce8c4b8ee105144eb431,68817205a84113384fffdfe3,6882049ad7cc1c94da3eb9a7,,,,,,,,,,,,./stim/wavs/cuban_match_interrogative-total-yn_Marta-abre-el-regalo.wav,1,,,138.6631,140.6263,0,0,1.4321,,0,24,24,11,1,12,1,cuban,,,,,,,,,,,,,,,,,,,,,,,,,,,,,,,,,,,,,,,,,,,,,,,,,,,,,,,,
,,,,,,,,,6647ce8c4b8ee105144eb431,Spanish,13 or older,"no, only English or Spanish",no,2025-07-24_06h02.55.962,empathy_intonation_perc_control,2024.2.4,Win32,60.97560976,6647ce8c4b8ee105144eb431,68817205a84113384fffdfe3,6882049ad7cc1c94da3eb9a7,,,,,,,,,,,,./stim/wavs/castilian_mismatch_interrogative-total-yn_La-maestra-vive-en-Paris.wav,1,,,140.6303,142.998,1,1,1.8391,,0,25,25,24,1,25,0,castilian,,,,,,,,,,,,,,,,,,,,,,,,,,,,,,,,,,,,,,,,,,,,,,,,,,,,,,,,
,,,,,,,,,6647ce8c4b8ee105144eb431,Spanish,13 or older,"no, only English or Spanish",no,2025-07-24_06h02.55.962,empathy_intonation_perc_control,2024.2.4,Win32,60.97560976,6647ce8c4b8ee105144eb431,68817205a84113384fffdfe3,6882049ad7cc1c94da3eb9a7,,,,,,,,,,,,./stim/wavs/castilian_match_declarative-broad-focus_Maria-bebe-el-vino.wav,0,,,143.0004,145.093,0,1,1.5696,,0,26,26,47,1,48,0,castilian,,,,,,,,,,,,,,,,,,,,,,,,,,,,,,,,,,,,,,,,,,,,,,,,,,,,,,,,
,,,,,,,,,6647ce8c4b8ee105144eb431,Spanish,13 or older,"no, only English or Spanish",no,2025-07-24_06h02.55.962,empathy_intonation_perc_control,2024.2.4,Win32,60.97560976,6647ce8c4b8ee105144eb431,68817205a84113384fffdfe3,6882049ad7cc1c94da3eb9a7,,,,,,,,,,,,./stim/wavs/puertorican_mismatch_declarative-broad-focus_El-hombre-mira-la-luna.wav,0,,,145.0952,149.0217,0,1,3.4016,,0,27,27,84,1,85,0,puertorican,,,,,,,,,,,,,,,,,,,,,,,,,,,,,,,,,,,,,,,,,,,,,,,,,,,,,,,,
,,,,,,,,,6647ce8c4b8ee105144eb431,Spanish,13 or older,"no, only English or Spanish",no,2025-07-24_06h02.55.962,empathy_intonation_perc_control,2024.2.4,Win32,60.97560976,6647ce8c4b8ee105144eb431,68817205a84113384fffdfe3,6882049ad7cc1c94da3eb9a7,,,,,,,,,,,,./stim/wavs/puertorican_mismatch_interrogative-total-yn_La-nina-lava-el-plato.wav,1,,,149.0287,150.9042,1,1,1.3574,,0,28,28,42,1,43,1,puertorican,,,,,,,,,,,,,,,,,,,,,,,,,,,,,,,,,,,,,,,,,,,,,,,,,,,,,,,,
,,,,,,,,,6647ce8c4b8ee105144eb431,Spanish,13 or older,"no, only English or Spanish",no,2025-07-24_06h02.55.962,empathy_intonation_perc_control,2024.2.4,Win32,60.97560976,6647ce8c4b8ee105144eb431,68817205a84113384fffdfe3,6882049ad7cc1c94da3eb9a7,,,,,,,,,,,,./stim/wavs/cuban_mismatch_declarative-broad-focus_El-bebe-comia-muy-bien.wav,0,,,150.9056,153.1214,0,1,1.6903,,0,29,29,73,1,74,0,cuban,,,,,,,,,,,,,,,,,,,,,,,,,,,,,,,,,,,,,,,,,,,,,,,,,,,,,,,,
,,,,,,,,,6647ce8c4b8ee105144eb431,Spanish,13 or older,"no, only English or Spanish",no,2025-07-24_06h02.55.962,empathy_intonation_perc_control,2024.2.4,Win32,60.97560976,6647ce8c4b8ee105144eb431,68817205a84113384fffdfe3,6882049ad7cc1c94da3eb9a7,,,,,,,,,,,,./stim/wavs/mexican_match_declarative-broad-focus_Emilio-ama-la-marcha.wav,0,,,153.1237,155.2529,0,1,1.6068,,0,30,30,59,1,60,0,mexican,,,,,,,,,,,,,,,,,,,,,,,,,,,,,,,,,,,,,,,,,,,,,,,,,,,,,,,,
,,,,,,,,,6647ce8c4b8ee105144eb431,Spanish,13 or older,"no, only English or Spanish",no,2025-07-24_06h02.55.962,empathy_intonation_perc_control,2024.2.4,Win32,60.97560976,6647ce8c4b8ee105144eb431,68817205a84113384fffdfe3,6882049ad7cc1c94da3eb9a7,,,,,,,,,,,,./stim/wavs/cuban_match_declarative-broad-focus_Manuela-vende-el-carro.wav,0,,,155.2551,157.5298,0,1,1.7529,,0,31,31,52,1,53,0,cuban,,,,,,,,,,,,,,,,,,,,,,,,,,,,,,,,,,,,,,,,,,,,,,,,,,,,,,,,
,,,,,,,,,6647ce8c4b8ee105144eb431,Spanish,13 or older,"no, only English or Spanish",no,2025-07-24_06h02.55.962,empathy_intonation_perc_control,2024.2.4,Win32,60.97560976,6647ce8c4b8ee105144eb431,68817205a84113384fffdfe3,6882049ad7cc1c94da3eb9a7,,,,,,,,,,,,./stim/wavs/mexican_mismatch_interrogative-total-yn_El-hombre-mira-la-luna.wav,1,,,157.5339,159.7074,1,1,1.6539,,0,32,32,34,1,35,0,mexican,,,,,,,,,,,,,,,,,,,,,,,,,,,,,,,,,,,,,,,,,,,,,,,,,,,,,,,,
,,,,,,,,,6647ce8c4b8ee105144eb431,Spanish,13 or older,"no, only English or Spanish",no,2025-07-24_06h02.55.962,empathy_intonation_perc_control,2024.2.4,Win32,60.97560976,6647ce8c4b8ee105144eb431,68817205a84113384fffdfe3,6882049ad7cc1c94da3eb9a7,,,,,,,,,,,,./stim/wavs/castilian_match_interrogative-total-yn_Maria-bebe-el-vino.wav,1,,,159.7091,161.6896,1,1,1.4489,,0,33,33,3,1,4,0,castilian,,,,,,,,,,,,,,,,,,,,,,,,,,,,,,,,,,,,,,,,,,,,,,,,,,,,,,,,
,,,,,,,,,6647ce8c4b8ee105144eb431,Spanish,13 or older,"no, only English or Spanish",no,2025-07-24_06h02.55.962,empathy_intonation_perc_control,2024.2.4,Win32,60.97560976,6647ce8c4b8ee105144eb431,68817205a84113384fffdfe3,6882049ad7cc1c94da3eb9a7,,,,,,,,,,,,./stim/wavs/mexican_match_declarative-broad-focus_David-leia-el-libro.wav,0,,,161.6905,163.9603,0,1,1.7361,,0,34,34,58,1,59,0,mexican,,,,,,,,,,,,,,,,,,,,,,,,,,,,,,,,,,,,,,,,,,,,,,,,,,,,,,,,
,,,,,,,,,6647ce8c4b8ee105144eb431,Spanish,13 or older,"no, only English or Spanish",no,2025-07-24_06h02.55.962,empathy_intonation_perc_control,2024.2.4,Win32,60.97560976,6647ce8c4b8ee105144eb431,68817205a84113384fffdfe3,6882049ad7cc1c94da3eb9a7,,,,,,,,,,,,./stim/wavs/cuban_mismatch_interrogative-total-yn_Mi-madre-come-la-fruta.wav,1,,,163.9622,166.1743,0,0,1.6873,,0,35,35,31,1,32,1,cuban,,,,,,,,,,,,,,,,,,,,,,,,,,,,,,,,,,,,,,,,,,,,,,,,,,,,,,,,
,,,,,,,,,6647ce8c4b8ee105144eb431,Spanish,13 or older,"no, only English or Spanish",no,2025-07-24_06h02.55.962,empathy_intonation_perc_control,2024.2.4,Win32,60.97560976,6647ce8c4b8ee105144eb431,68817205a84113384fffdfe3,6882049ad7cc1c94da3eb9a7,,,,,,,,,,,,./stim/wavs/mexican_mismatch_declarative-broad-focus_Mi-novio-viene-del-lago.wav,0,,,166.1775,168.0177,0,1,1.3117,,0,36,36,81,1,82,0,mexican,,,,,,,,,,,,,,,,,,,,,,,,,,,,,,,,,,,,,,,,,,,,,,,,,,,,,,,,
,,,,,,,,,6647ce8c4b8ee105144eb431,Spanish,13 or older,"no, only English or Spanish",no,2025-07-24_06h02.55.962,empathy_intonation_perc_control,2024.2.4,Win32,60.97560976,6647ce8c4b8ee105144eb431,68817205a84113384fffdfe3,6882049ad7cc1c94da3eb9a7,,,,,,,,,,,,./stim/wavs/mexican_mismatch_interrogative-total-yn_El-nino-oye-el-rio.wav,1,,,168.0231,170.1392,1,1,1.5879,,0,37,37,35,1,36,0,mexican,,,,,,,,,,,,,,,,,,,,,,,,,,,,,,,,,,,,,,,,,,,,,,,,,,,,,,,,
,,,,,,,,,6647ce8c4b8ee105144eb431,Spanish,13 or older,"no, only English or Spanish",no,2025-07-24_06h02.55.962,empathy_intonation_perc_control,2024.2.4,Win32,60.97560976,6647ce8c4b8ee105144eb431,68817205a84113384fffdfe3,6882049ad7cc1c94da3eb9a7,,,,,,,,,,,,./stim/wavs/mexican_match_declarative-broad-focus_Mariano-habla-del-tiempo.wav,0,,,170.1426,172.2328,0,1,1.5651,,0,38,38,60,1,61,0,mexican,,,,,,,,,,,,,,,,,,,,,,,,,,,,,,,,,,,,,,,,,,,,,,,,,,,,,,,,
,,,,,,,,,6647ce8c4b8ee105144eb431,Spanish,13 or older,"no, only English or Spanish",no,2025-07-24_06h02.55.962,empathy_intonation_perc_control,2024.2.4,Win32,60.97560976,6647ce8c4b8ee105144eb431,68817205a84113384fffdfe3,6882049ad7cc1c94da3eb9a7,,,,,,,,,,,,./stim/wavs/puertorican_match_declarative-broad-focus_David-leia-el-libro.wav,0,,,172.2352,174.2273,0,1,1.4613,,0,39,39,64,1,65,0,puertorican,,,,,,,,,,,,,,,,,,,,,,,,,,,,,,,,,,,,,,,,,,,,,,,,,,,,,,,,
,,,,,,,,,6647ce8c4b8ee105144eb431,Spanish,13 or older,"no, only English or Spanish",no,2025-07-24_06h02.55.962,empathy_intonation_perc_control,2024.2.4,Win32,60.97560976,6647ce8c4b8ee105144eb431,68817205a84113384fffdfe3,6882049ad7cc1c94da3eb9a7,,,,,,,,,,,,./stim/wavs/puertorican_mismatch_declarative-broad-focus_El-bebe-comia-muy-bien.wav,0,,,174.2285,176.5584,0,1,1.7907,,0,40,40,83,1,84,0,puertorican,,,,,,,,,,,,,,,,,,,,,,,,,,,,,,,,,,,,,,,,,,,,,,,,,,,,,,,,
,,,,,,,,,6647ce8c4b8ee105144eb431,Spanish,13 or older,"no, only English or Spanish",no,2025-07-24_06h02.55.962,empathy_intonation_perc_control,2024.2.4,Win32,60.97560976,6647ce8c4b8ee105144eb431,68817205a84113384fffdfe3,6882049ad7cc1c94da3eb9a7,,,,,,,,,,,,./stim/wavs/castilian_match_interrogative-total-yn_Mariano-habla-del-tiempo.wav,1,,,176.5591,178.6066,1,1,1.5333,,0,41,41,4,1,5,0,castilian,,,,,,,,,,,,,,,,,,,,,,,,,,,,,,,,,,,,,,,,,,,,,,,,,,,,,,,,
,,,,,,,,,6647ce8c4b8ee105144eb431,Spanish,13 or older,"no, only English or Spanish",no,2025-07-24_06h02.55.962,empathy_intonation_perc_control,2024.2.4,Win32,60.97560976,6647ce8c4b8ee105144eb431,68817205a84113384fffdfe3,6882049ad7cc1c94da3eb9a7,,,,,,,,,,,,./stim/wavs/mexican_match_declarative-broad-focus_Ana-lleva-el-abrigo.wav,0,,,178.6071,181.0045,0,1,1.8666,,0,42,42,56,1,57,0,mexican,,,,,,,,,,,,,,,,,,,,,,,,,,,,,,,,,,,,,,,,,,,,,,,,,,,,,,,,
,,,,,,,,,6647ce8c4b8ee105144eb431,Spanish,13 or older,"no, only English or Spanish",no,2025-07-24_06h02.55.962,empathy_intonation_perc_control,2024.2.4,Win32,60.97560976,6647ce8c4b8ee105144eb431,68817205a84113384fffdfe3,6882049ad7cc1c94da3eb9a7,,,,,,,,,,,,./stim/wavs/castilian_mismatch_declarative-broad-focus_La-nina-lava-el-plato.wav,0,,,181.0054,183.1719,1,0,1.6371,,0,43,43,70,1,71,0,castilian,,,,,,,,,,,,,,,,,,,,,,,,,,,,,,,,,,,,,,,,,,,,,,,,,,,,,,,,
,,,,,,,,,6647ce8c4b8ee105144eb431,Spanish,13 or older,"no, only English or Spanish",no,2025-07-24_06h02.55.962,empathy_intonation_perc_control,2024.2.4,Win32,60.97560976,6647ce8c4b8ee105144eb431,68817205a84113384fffdfe3,6882049ad7cc1c94da3eb9a7,,,,,,,,,,,,./stim/wavs/puertorican_match_declarative-broad-focus_Emilio-ama-la-marcha.wav,0,,,183.1763,185.2339,0,1,1.5283,,0,44,44,65,1,66,0,puertorican,,,,,,,,,,,,,,,,,,,,,,,,,,,,,,,,,,,,,,,,,,,,,,,,,,,,,,,,
,,,,,,,,,6647ce8c4b8ee105144eb431,Spanish,13 or older,"no, only English or Spanish",no,2025-07-24_06h02.55.962,empathy_intonation_perc_control,2024.2.4,Win32,60.97560976,6647ce8c4b8ee105144eb431,68817205a84113384fffdfe3,6882049ad7cc1c94da3eb9a7,,,,,,,,,,,,./stim/wavs/mexican_mismatch_interrogative-total-yn_La-maestra-vive-en-Paris.wav,1,,,185.2348,187.1856,0,0,1.4342,,0,45,45,36,1,37,0,mexican,,,,,,,,,,,,,,,,,,,,,,,,,,,,,,,,,,,,,,,,,,,,,,,,,,,,,,,,
,,,,,,,,,6647ce8c4b8ee105144eb431,Spanish,13 or older,"no, only English or Spanish",no,2025-07-24_06h02.55.962,empathy_intonation_perc_control,2024.2.4,Win32,60.97560976,6647ce8c4b8ee105144eb431,68817205a84113384fffdfe3,6882049ad7cc1c94da3eb9a7,,,,,,,,,,,,./stim/wavs/castilian_mismatch_declarative-broad-focus_La-maestra-vive-en-Paris.wav,0,,,187.1873,189.3359,1,0,1.6253,,0,46,46,69,1,70,0,castilian,,,,,,,,,,,,,,,,,,,,,,,,,,,,,,,,,,,,,,,,,,,,,,,,,,,,,,,,
,,,,,,,,,6647ce8c4b8ee105144eb431,Spanish,13 or older,"no, only English or Spanish",no,2025-07-24_06h02.55.962,empathy_intonation_perc_control,2024.2.4,Win32,60.97560976,6647ce8c4b8ee105144eb431,68817205a84113384fffdfe3,6882049ad7cc1c94da3eb9a7,,,,,,,,,,,,./stim/wavs/puertorican_mismatch_interrogative-total-yn_La-maestra-vive-en-Paris.wav,1,,,189.3378,195.3784,0,0,5.5167,,0,47,47,41,1,42,1,puertorican,,,,,,,,,,,,,,,,,,,,,,,,,,,,,,,,,,,,,,,,,,,,,,,,,,,,,,,,
,,,,,,,,,6647ce8c4b8ee105144eb431,Spanish,13 or older,"no, only English or Spanish",no,2025-07-24_06h02.55.962,empathy_intonation_perc_control,2024.2.4,Win32,60.97560976,6647ce8c4b8ee105144eb431,68817205a84113384fffdfe3,6882049ad7cc1c94da3eb9a7,,,,,,,,,,,,./stim/wavs/castilian_mismatch_interrogative-total-yn_Mi-madre-come-la-fruta.wav,1,,,195.3799,197.7744,1,1,1.8693,,0,48,48,26,1,27,0,castilian,,,,,,,,,,,,,,,,,,,,,,,,,,,,,,,,,,,,,,,,,,,,,,,,,,,,,,,,
,,,,,,,,,6647ce8c4b8ee105144eb431,Spanish,13 or older,"no, only English or Spanish",no,2025-07-24_06h02.55.962,empathy_intonation_perc_control,2024.2.4,Win32,60.97560976,6647ce8c4b8ee105144eb431,68817205a84113384fffdfe3,6882049ad7cc1c94da3eb9a7,,,,,,,,,,,,./stim/wavs/puertorican_match_declarative-broad-focus_Maria-bebe-el-vino.wav,0,,,197.7758,201.785,0,1,3.4788,,0,49,49,67,1,68,0,puertorican,,,,,,,,,,,,,,,,,,,,,,,,,,,,,,,,,,,,,,,,,,,,,,,,,,,,,,,,
,,,,,,,,,6647ce8c4b8ee105144eb431,Spanish,13 or older,"no, only English or Spanish",no,2025-07-24_06h02.55.962,empathy_intonation_perc_control,2024.2.4,Win32,60.97560976,6647ce8c4b8ee105144eb431,68817205a84113384fffdfe3,6882049ad7cc1c94da3eb9a7,,,,,,,,,,,,./stim/wavs/castilian_match_interrogative-total-yn_David-leia-el-libro.wav,1,,,201.7856,204.2418,1,1,1.9235,,0,50,50,0,1,1,0,castilian,,,,,,,,,,,,,,,,,,,,,,,,,,,,,,,,,,,,,,,,,,,,,,,,,,,,,,,,
,,,,,,,,,6647ce8c4b8ee105144eb431,Spanish,13 or older,"no, only English or Spanish",no,2025-07-24_06h02.55.962,empathy_intonation_perc_control,2024.2.4,Win32,60.97560976,6647ce8c4b8ee105144eb431,68817205a84113384fffdfe3,6882049ad7cc1c94da3eb9a7,,,,,,,,,,,,./stim/wavs/castilian_match_declarative-broad-focus_Emilio-ama-la-marcha.wav,0,,,204.244,206.5343,0,1,1.7695,,0,51,51,45,1,46,0,castilian,,,,,,,,,,,,,,,,,,,,,,,,,,,,,,,,,,,,,,,,,,,,,,,,,,,,,,,,
,,,,,,,,,6647ce8c4b8ee105144eb431,Spanish,13 or older,"no, only English or Spanish",no,2025-07-24_06h02.55.962,empathy_intonation_perc_control,2024.2.4,Win32,60.97560976,6647ce8c4b8ee105144eb431,68817205a84113384fffdfe3,6882049ad7cc1c94da3eb9a7,,,,,,,,,,,,./stim/wavs/castilian_mismatch_declarative-broad-focus_Mi-tia-odia-la-lluvia.wav,0,,,206.5376,208.6175,0,1,1.5553,,0,52,52,72,1,73,0,castilian,,,,,,,,,,,,,,,,,,,,,,,,,,,,,,,,,,,,,,,,,,,,,,,,,,,,,,,,
,,,,,,,,,6647ce8c4b8ee105144eb431,Spanish,13 or older,"no, only English or Spanish",no,2025-07-24_06h02.55.962,empathy_intonation_perc_control,2024.2.4,Win32,60.97560976,6647ce8c4b8ee105144eb431,68817205a84113384fffdfe3,6882049ad7cc1c94da3eb9a7,,,,,,,,,,,,./stim/wavs/castilian_match_declarative-broad-focus_Marta-abre-el-regalo.wav,0,,,208.621,210.7273,0,1,1.5846,,0,53,53,49,1,50,0,castilian,,,,,,,,,,,,,,,,,,,,,,,,,,,,,,,,,,,,,,,,,,,,,,,,,,,,,,,,
,,,,,,,,,6647ce8c4b8ee105144eb431,Spanish,13 or older,"no, only English or Spanish",no,2025-07-24_06h02.55.962,empathy_intonation_perc_control,2024.2.4,Win32,60.97560976,6647ce8c4b8ee105144eb431,68817205a84113384fffdfe3,6882049ad7cc1c94da3eb9a7,,,,,,,,,,,,./stim/wavs/puertorican_mismatch_declarative-broad-focus_El-nino-oye-el-rio.wav,0,,,210.7291,212.7185,0,1,1.4605,,0,54,54,85,1,86,0,puertorican,,,,,,,,,,,,,,,,,,,,,,,,,,,,,,,,,,,,,,,,,,,,,,,,,,,,,,,,
,,,,,,,,,6647ce8c4b8ee105144eb431,Spanish,13 or older,"no, only English or Spanish",no,2025-07-24_06h02.55.962,empathy_intonation_perc_control,2024.2.4,Win32,60.97560976,6647ce8c4b8ee105144eb431,68817205a84113384fffdfe3,6882049ad7cc1c94da3eb9a7,,,,,,,,,,,,./stim/wavs/castilian_mismatch_interrogative-total-yn_Mi-tia-odia-la-lluvia.wav,1,,,212.7215,214.8397,1,1,1.5998,,0,55,55,28,1,29,0,castilian,,,,,,,,,,,,,,,,,,,,,,,,,,,,,,,,,,,,,,,,,,,,,,,,,,,,,,,,
,,,,,,,,,6647ce8c4b8ee105144eb431,Spanish,13 or older,"no, only English or Spanish",no,2025-07-24_06h02.55.962,empathy_intonation_perc_control,2024.2.4,Win32,60.97560976,6647ce8c4b8ee105144eb431,68817205a84113384fffdfe3,6882049ad7cc1c94da3eb9a7,,,,,,,,,,,,./stim/wavs/puertorican_match_interrogative-total-yn_Manuela-vende-el-carro.wav,1,,,214.8419,217.7213,0,0,2.3472,,0,56,56,22,1,23,1,puertorican,,,,,,,,,,,,,,,,,,,,,,,,,,,,,,,,,,,,,,,,,,,,,,,,,,,,,,,,
,,,,,,,,,6647ce8c4b8ee105144eb431,Spanish,13 or older,"no, only English or Spanish",no,2025-07-24_06h02.55.962,empathy_intonation_perc_control,2024.2.4,Win32,60.97560976,6647ce8c4b8ee105144eb431,68817205a84113384fffdfe3,6882049ad7cc1c94da3eb9a7,,,,,,,,,,,,./stim/wavs/mexican_match_interrogative-total-yn_Ana-lleva-el-abrigo.wav,1,,,217.7253,219.8348,1,1,1.5822,,0,57,57,12,1,13,0,mexican,,,,,,,,,,,,,,,,,,,,,,,,,,,,,,,,,,,,,,,,,,,,,,,,,,,,,,,,
,,,,,,,,,6647ce8c4b8ee105144eb431,Spanish,13 or older,"no, only English or Spanish",no,2025-07-24_06h02.55.962,empathy_intonation_perc_control,2024.2.4,Win32,60.97560976,6647ce8c4b8ee105144eb431,68817205a84113384fffdfe3,6882049ad7cc1c94da3eb9a7,,,,,,,,,,,,./stim/wavs/cuban_mismatch_interrogative-total-yn_El-hombre-mira-la-luna.wav,1,,,219.8353,221.7346,1,1,1.3891,,0,58,58,29,1,30,1,cuban,,,,,,,,,,,,,,,,,,,,,,,,,,,,,,,,,,,,,,,,,,,,,,,,,,,,,,,,
,,,,,,,,,6647ce8c4b8ee105144eb431,Spanish,13 or older,"no, only English or Spanish",no,2025-07-24_06h02.55.962,empathy_intonation_perc_control,2024.2.4,Win32,60.97560976,6647ce8c4b8ee105144eb431,68817205a84113384fffdfe3,6882049ad7cc1c94da3eb9a7,,,,,,,,,,,,./stim/wavs/cuban_mismatch_declarative-broad-focus_Mi-tia-odia-la-lluvia.wav,0,,,221.7378,224.0306,0,1,1.7689,,0,59,59,77,1,78,0,cuban,,,,,,,,,,,,,,,,,,,,,,,,,,,,,,,,,,,,,,,,,,,,,,,,,,,,,,,,
,,,,,,,,,6647ce8c4b8ee105144eb431,Spanish,13 or older,"no, only English or Spanish",no,2025-07-24_06h02.55.962,empathy_intonation_perc_control,2024.2.4,Win32,60.97560976,6647ce8c4b8ee105144eb431,68817205a84113384fffdfe3,6882049ad7cc1c94da3eb9a7,,,,,,,,,,,,./stim/wavs/cuban_match_interrogative-total-yn_Maria-bebe-el-vino.wav,1,,,224.0317,226.2972,0,0,1.7312,,0,60,60,9,1,10,1,cuban,,,,,,,,,,,,,,,,,,,,,,,,,,,,,,,,,,,,,,,,,,,,,,,,,,,,,,,,
,,,,,,,,,6647ce8c4b8ee105144eb431,Spanish,13 or older,"no, only English or Spanish",no,2025-07-24_06h02.55.962,empathy_intonation_perc_control,2024.2.4,Win32,60.97560976,6647ce8c4b8ee105144eb431,68817205a84113384fffdfe3,6882049ad7cc1c94da3eb9a7,,,,,,,,,,,,./stim/wavs/puertorican_mismatch_declarative-broad-focus_La-nina-lava-el-plato.wav,0,,,226.2992,228.3936,0,1,1.563,,0,61,61,87,1,88,0,puertorican,,,,,,,,,,,,,,,,,,,,,,,,,,,,,,,,,,,,,,,,,,,,,,,,,,,,,,,,
,,,,,,,,,6647ce8c4b8ee105144eb431,Spanish,13 or older,"no, only English or Spanish",no,2025-07-24_06h02.55.962,empathy_intonation_perc_control,2024.2.4,Win32,60.97560976,6647ce8c4b8ee105144eb431,68817205a84113384fffdfe3,6882049ad7cc1c94da3eb9a7,,,,,,,,,,,,./stim/wavs/mexican_mismatch_declarative-broad-focus_La-maestra-vive-en-Paris.wav,0,,,228.3947,230.6129,0,1,1.6893,,0,62,62,80,1,81,0,mexican,,,,,,,,,,,,,,,,,,,,,,,,,,,,,,,,,,,,,,,,,,,,,,,,,,,,,,,,
,,,,,,,,,6647ce8c4b8ee105144eb431,Spanish,13 or older,"no, only English or Spanish",no,2025-07-24_06h02.55.962,empathy_intonation_perc_control,2024.2.4,Win32,60.97560976,6647ce8c4b8ee105144eb431,68817205a84113384fffdfe3,6882049ad7cc1c94da3eb9a7,,,,,,,,,,,,./stim/wavs/puertorican_match_interrogative-total-yn_Maria-bebe-el-vino.wav,1,,,230.6155,233.981,0,0,2.8383,,0,63,63,23,1,24,1,puertorican,,,,,,,,,,,,,,,,,,,,,,,,,,,,,,,,,,,,,,,,,,,,,,,,,,,,,,,,
,,,,,,,,,6647ce8c4b8ee105144eb431,Spanish,13 or older,"no, only English or Spanish",no,2025-07-24_06h02.55.962,empathy_intonation_perc_control,2024.2.4,Win32,60.97560976,6647ce8c4b8ee105144eb431,68817205a84113384fffdfe3,6882049ad7cc1c94da3eb9a7,,,,,,,,,,,,./stim/wavs/castilian_match_interrogative-total-yn_Marta-abre-el-regalo.wav,1,,,233.9832,236.2564,1,1,1.7487,,0,64,64,5,1,6,0,castilian,,,,,,,,,,,,,,,,,,,,,,,,,,,,,,,,,,,,,,,,,,,,,,,,,,,,,,,,
,,,,,,,,,6647ce8c4b8ee105144eb431,Spanish,13 or older,"no, only English or Spanish",no,2025-07-24_06h02.55.962,empathy_intonation_perc_control,2024.2.4,Win32,60.97560976,6647ce8c4b8ee105144eb431,68817205a84113384fffdfe3,6882049ad7cc1c94da3eb9a7,,,,,,,,,,,,./stim/wavs/puertorican_match_interrogative-total-yn_Daniel-iba-a-Bolivia.wav,1,,,236.2621,238.5872,0,0,1.8034,,0,65,65,19,1,20,1,puertorican,,,,,,,,,,,,,,,,,,,,,,,,,,,,,,,,,,,,,,,,,,,,,,,,,,,,,,,,
,,,,,,,,,6647ce8c4b8ee105144eb431,Spanish,13 or older,"no, only English or Spanish",no,2025-07-24_06h02.55.962,empathy_intonation_perc_control,2024.2.4,Win32,60.97560976,6647ce8c4b8ee105144eb431,68817205a84113384fffdfe3,6882049ad7cc1c94da3eb9a7,,,,,,,,,,,,./stim/wavs/puertorican_match_interrogative-total-yn_Emilio-ama-la-marcha.wav,1,,,238.5898,241.0395,0,0,1.9254,,0,66,66,21,1,22,1,puertorican,,,,,,,,,,,,,,,,,,,,,,,,,,,,,,,,,,,,,,,,,,,,,,,,,,,,,,,,
,,,,,,,,,6647ce8c4b8ee105144eb431,Spanish,13 or older,"no, only English or Spanish",no,2025-07-24_06h02.55.962,empathy_intonation_perc_control,2024.2.4,Win32,60.97560976,6647ce8c4b8ee105144eb431,68817205a84113384fffdfe3,6882049ad7cc1c94da3eb9a7,,,,,,,,,,,,./stim/wavs/cuban_mismatch_interrogative-total-yn_Mi-tia-odia-la-lluvia.wav,1,,,241.0416,243.1381,0,0,1.5722,,0,67,67,33,1,34,1,cuban,,,,,,,,,,,,,,,,,,,,,,,,,,,,,,,,,,,,,,,,,,,,,,,,,,,,,,,,
,,,,,,,,,6647ce8c4b8ee105144eb431,Spanish,13 or older,"no, only English or Spanish",no,2025-07-24_06h02.55.962,empathy_intonation_perc_control,2024.2.4,Win32,60.97560976,6647ce8c4b8ee105144eb431,68817205a84113384fffdfe3,6882049ad7cc1c94da3eb9a7,,,,,,,,,,,,./stim/wavs/cuban_match_interrogative-total-yn_Mariano-habla-del-tiempo.wav,1,,,243.141,245.415,0,0,1.7492,,0,68,68,10,1,11,1,cuban,,,,,,,,,,,,,,,,,,,,,,,,,,,,,,,,,,,,,,,,,,,,,,,,,,,,,,,,
,,,,,,,,,6647ce8c4b8ee105144eb431,Spanish,13 or older,"no, only English or Spanish",no,2025-07-24_06h02.55.962,empathy_intonation_perc_control,2024.2.4,Win32,60.97560976,6647ce8c4b8ee105144eb431,68817205a84113384fffdfe3,6882049ad7cc1c94da3eb9a7,,,,,,,,,,,,./stim/wavs/puertorican_mismatch_interrogative-total-yn_Mi-madre-come-la-fruta.wav,1,,,245.4174,247.6995,0,0,1.7555,,0,69,69,43,1,44,1,puertorican,,,,,,,,,,,,,,,,,,,,,,,,,,,,,,,,,,,,,,,,,,,,,,,,,,,,,,,,
,,,,,,,,,6647ce8c4b8ee105144eb431,Spanish,13 or older,"no, only English or Spanish",no,2025-07-24_06h02.55.962,empathy_intonation_perc_control,2024.2.4,Win32,60.97560976,6647ce8c4b8ee105144eb431,68817205a84113384fffdfe3,6882049ad7cc1c94da3eb9a7,,,,,,,,,,,,./stim/wavs/cuban_match_interrogative-total-yn_Manuela-vende-el-carro.wav,1,,,247.701,253.1719,0,0,4.9487,,0,70,70,8,1,9,1,cuban,,,,,,,,,,,,,,,,,,,,,,,,,,,,,,,,,,,,,,,,,,,,,,,,,,,,,,,,
,,,,,,,,,6647ce8c4b8ee105144eb431,Spanish,13 or older,"no, only English or Spanish",no,2025-07-24_06h02.55.962,empathy_intonation_perc_control,2024.2.4,Win32,60.97560976,6647ce8c4b8ee105144eb431,68817205a84113384fffdfe3,6882049ad7cc1c94da3eb9a7,,,,,,,,,,,,./stim/wavs/mexican_match_interrogative-total-yn_Mariano-habla-del-tiempo.wav,1,,,253.1735,255.5023,1,1,1.7974,,0,71,71,16,1,17,0,mexican,,,,,,,,,,,,,,,,,,,,,,,,,,,,,,,,,,,,,,,,,,,,,,,,,,,,,,,,
,,,,,,,,,6647ce8c4b8ee105144eb431,Spanish,13 or older,"no, only English or Spanish",no,2025-07-24_06h02.55.962,empathy_intonation_perc_control,2024.2.4,Win32,60.97560976,6647ce8c4b8ee105144eb431,68817205a84113384fffdfe3,6882049ad7cc1c94da3eb9a7,,,,,,,,,,,,./stim/wavs/cuban_match_declarative-broad-focus_Daniel-iba-a-Bolivia.wav,0,,,255.5067,258.3047,0,1,2.2703,,0,72,72,51,1,52,0,cuban,,,,,,,,,,,,,,,,,,,,,,,,,,,,,,,,,,,,,,,,,,,,,,,,,,,,,,,,
,,,,,,,,,6647ce8c4b8ee105144eb431,Spanish,13 or older,"no, only English or Spanish",no,2025-07-24_06h02.55.962,empathy_intonation_perc_control,2024.2.4,Win32,60.97560976,6647ce8c4b8ee105144eb431,68817205a84113384fffdfe3,6882049ad7cc1c94da3eb9a7,,,,,,,,,,,,./stim/wavs/cuban_mismatch_declarative-broad-focus_La-nina-lava-el-plato.wav,0,,,258.308,260.6642,0,1,1.8351,,0,73,73,75,1,76,0,cuban,,,,,,,,,,,,,,,,,,,,,,,,,,,,,,,,,,,,,,,,,,,,,,,,,,,,,,,,
,,,,,,,,,6647ce8c4b8ee105144eb431,Spanish,13 or older,"no, only English or Spanish",no,2025-07-24_06h02.55.962,empathy_intonation_perc_control,2024.2.4,Win32,60.97560976,6647ce8c4b8ee105144eb431,68817205a84113384fffdfe3,6882049ad7cc1c94da3eb9a7,,,,,,,,,,,,./stim/wavs/cuban_match_interrogative-total-yn_Ana-lleva-el-abrigo.wav,1,,,260.6673,262.4453,1,1,1.2519,,0,74,74,6,1,7,1,cuban,,,,,,,,,,,,,,,,,,,,,,,,,,,,,,,,,,,,,,,,,,,,,,,,,,,,,,,,
,,,,,,,,,6647ce8c4b8ee105144eb431,Spanish,13 or older,"no, only English or Spanish",no,2025-07-24_06h02.55.962,empathy_intonation_perc_control,2024.2.4,Win32,60.97560976,6647ce8c4b8ee105144eb431,68817205a84113384fffdfe3,6882049ad7cc1c94da3eb9a7,,,,,,,,,,,,./stim/wavs/puertorican_match_interrogative-total-yn_Ana-lleva-el-abrigo.wav,1,,,262.4471,264.1139,1,1,1.1369,,0,75,75,18,1,19,1,puertorican,,,,,,,,,,,,,,,,,,,,,,,,,,,,,,,,,,,,,,,,,,,,,,,,,,,,,,,,
,,,,,,,,,6647ce8c4b8ee105144eb431,Spanish,13 or older,"no, only English or Spanish",no,2025-07-24_06h02.55.962,empathy_intonation_perc_control,2024.2.4,Win32,60.97560976,6647ce8c4b8ee105144eb431,68817205a84113384fffdfe3,6882049ad7cc1c94da3eb9a7,,,,,,,,,,,,./stim/wavs/mexican_mismatch_declarative-broad-focus_El-bebe-comia-muy-bien.wav,0,,,264.1159,267.0086,0,1,2.3606,,0,76,76,78,1,79,0,mexican,,,,,,,,,,,,,,,,,,,,,,,,,,,,,,,,,,,,,,,,,,,,,,,,,,,,,,,,
,,,,,,,,,6647ce8c4b8ee105144eb431,Spanish,13 or older,"no, only English or Spanish",no,2025-07-24_06h02.55.962,empathy_intonation_perc_control,2024.2.4,Win32,60.97560976,6647ce8c4b8ee105144eb431,68817205a84113384fffdfe3,6882049ad7cc1c94da3eb9a7,,,,,,,,,,,,./stim/wavs/puertorican_match_declarative-broad-focus_Ana-lleva-el-abrigo.wav,0,,,267.0162,270.1211,0,1,2.5778,,0,77,77,62,1,63,0,puertorican,,,,,,,,,,,,,,,,,,,,,,,,,,,,,,,,,,,,,,,,,,,,,,,,,,,,,,,,
,,,,,,,,,6647ce8c4b8ee105144eb431,Spanish,13 or older,"no, only English or Spanish",no,2025-07-24_06h02.55.962,empathy_intonation_perc_control,2024.2.4,Win32,60.97560976,6647ce8c4b8ee105144eb431,68817205a84113384fffdfe3,6882049ad7cc1c94da3eb9a7,,,,,,,,,,,,./stim/wavs/castilian_match_interrogative-total-yn_Emilio-ama-la-marcha.wav,1,,,270.1217,272.1857,1,1,1.5349,,0,78,78,1,1,2,0,castilian,,,,,,,,,,,,,,,,,,,,,,,,,,,,,,,,,,,,,,,,,,,,,,,,,,,,,,,,
,,,,,,,,,6647ce8c4b8ee105144eb431,Spanish,13 or older,"no, only English or Spanish",no,2025-07-24_06h02.55.962,empathy_intonation_perc_control,2024.2.4,Win32,60.97560976,6647ce8c4b8ee105144eb431,68817205a84113384fffdfe3,6882049ad7cc1c94da3eb9a7,,,,,,,,,,,,./stim/wavs/puertorican_match_declarative-broad-focus_Manuela-vende-el-carro.wav,0,,,272.1873,275.2667,0,1,2.5463,,0,79,79,66,1,67,0,puertorican,,,,,,,,,,,,,,,,,,,,,,,,,,,,,,,,,,,,,,,,,,,,,,,,,,,,,,,,
,,,,,,,,,6647ce8c4b8ee105144eb431,Spanish,13 or older,"no, only English or Spanish",no,2025-07-24_06h02.55.962,empathy_intonation_perc_control,2024.2.4,Win32,60.97560976,6647ce8c4b8ee105144eb431,68817205a84113384fffdfe3,6882049ad7cc1c94da3eb9a7,,,,,,,,,,,,./stim/wavs/mexican_match_interrogative-total-yn_David-leia-el-libro.wav,1,,,275.2697,277.4989,1,1,1.7019,,0,80,80,14,1,15,0,mexican,,,,,,,,,,,,,,,,,,,,,,,,,,,,,,,,,,,,,,,,,,,,,,,,,,,,,,,,
,,,,,,,,,6647ce8c4b8ee105144eb431,Spanish,13 or older,"no, only English or Spanish",no,2025-07-24_06h02.55.962,empathy_intonation_perc_control,2024.2.4,Win32,60.97560976,6647ce8c4b8ee105144eb431,68817205a84113384fffdfe3,6882049ad7cc1c94da3eb9a7,,,,,,,,,,,,./stim/wavs/puertorican_mismatch_interrogative-total-yn_El-nino-oye-el-rio.wav,1,,,277.5013,280.3303,0,0,2.2981,,0,81,81,40,1,41,1,puertorican,,,,,,,,,,,,,,,,,,,,,,,,,,,,,,,,,,,,,,,,,,,,,,,,,,,,,,,,
,,,,,,,,,6647ce8c4b8ee105144eb431,Spanish,13 or older,"no, only English or Spanish",no,2025-07-24_06h02.55.962,empathy_intonation_perc_control,2024.2.4,Win32,60.97560976,6647ce8c4b8ee105144eb431,68817205a84113384fffdfe3,6882049ad7cc1c94da3eb9a7,,,,,,,,,,,,./stim/wavs/mexican_match_interrogative-total-yn_Marta-abre-el-regalo.wav,1,,,280.334,282.4613,1,1,1.6039,,0,82,82,17,1,18,0,mexican,,,,,,,,,,,,,,,,,,,,,,,,,,,,,,,,,,,,,,,,,,,,,,,,,,,,,,,,
,,,,,,,,,6647ce8c4b8ee105144eb431,Spanish,13 or older,"no, only English or Spanish",no,2025-07-24_06h02.55.962,empathy_intonation_perc_control,2024.2.4,Win32,60.97560976,6647ce8c4b8ee105144eb431,68817205a84113384fffdfe3,6882049ad7cc1c94da3eb9a7,,,,,,,,,,,,./stim/wavs/mexican_mismatch_interrogative-total-yn_Mi-tia-odia-la-lluvia.wav,1,,,282.4625,284.6595,1,1,1.6689,,0,83,83,38,1,39,0,mexican,,,,,,,,,,,,,,,,,,,,,,,,,,,,,,,,,,,,,,,,,,,,,,,,,,,,,,,,
,,,,,,,,,6647ce8c4b8ee105144eb431,Spanish,13 or older,"no, only English or Spanish",no,2025-07-24_06h02.55.962,empathy_intonation_perc_control,2024.2.4,Win32,60.97560976,6647ce8c4b8ee105144eb431,68817205a84113384fffdfe3,6882049ad7cc1c94da3eb9a7,,,,,,,,,,,,./stim/wavs/cuban_match_declarative-broad-focus_Marta-abre-el-regalo.wav,0,,,284.662,286.8489,0,1,1.6563,,0,84,84,55,1,56,0,cuban,,,,,,,,,,,,,,,,,,,,,,,,,,,,,,,,,,,,,,,,,,,,,,,,,,,,,,,,
,,,,,,,,,6647ce8c4b8ee105144eb431,Spanish,13 or older,"no, only English or Spanish",no,2025-07-24_06h02.55.962,empathy_intonation_perc_control,2024.2.4,Win32,60.97560976,6647ce8c4b8ee105144eb431,68817205a84113384fffdfe3,6882049ad7cc1c94da3eb9a7,,,,,,,,,,,,./stim/wavs/castilian_match_declarative-broad-focus_Mariano-habla-del-tiempo.wav,0,,,286.8516,289.2208,0,1,1.8442,,0,85,85,48,1,49,0,castilian,,,,,,,,,,,,,,,,,,,,,,,,,,,,,,,,,,,,,,,,,,,,,,,,,,,,,,,,
,,,,,,,,,6647ce8c4b8ee105144eb431,Spanish,13 or older,"no, only English or Spanish",no,2025-07-24_06h02.55.962,empathy_intonation_perc_control,2024.2.4,Win32,60.97560976,6647ce8c4b8ee105144eb431,68817205a84113384fffdfe3,6882049ad7cc1c94da3eb9a7,,,,,,,,,,,,./stim/wavs/puertorican_match_interrogative-total-yn_David-leia-el-libro.wav,1,,,289.2246,291.274,1,1,1.5269,,0,86,86,20,1,21,1,puertorican,,,,,,,,,,,,,,,,,,,,,,,,,,,,,,,,,,,,,,,,,,,,,,,,,,,,,,,,
,,,,,,,,,6647ce8c4b8ee105144eb431,Spanish,13 or older,"no, only English or Spanish",no,2025-07-24_06h02.55.962,empathy_intonation_perc_control,2024.2.4,Win32,60.97560976,6647ce8c4b8ee105144eb431,68817205a84113384fffdfe3,6882049ad7cc1c94da3eb9a7,,,,,,,,,,,,./stim/wavs/puertorican_mismatch_declarative-broad-focus_La-maestra-vive-en-Paris.wav,0,,,291.2766,293.6827,0,1,1.8852,,0,87,87,86,1,87,0,puertorican,,,,,,,,,,,,,,,,,,,,,,,,,,,,,,,,,,,,,,,,,,,,,,,,,,,,,,,,
,,,,,,,"Great! Now we will move on. The next task consists of about 60 trials, in each of which you will see a string of letters. 
  
  Your task is to decide whether this is a real Spanish word or not.", (press the spacebar to continue),6647ce8c4b8ee105144eb431,Spanish,13 or older,"no, only English or Spanish",no,2025-07-24_06h02.55.962,empathy_intonation_perc_control,2024.2.4,Win32,60.97560976,6647ce8c4b8ee105144eb431,68817205a84113384fffdfe3,6882049ad7cc1c94da3eb9a7,,,,,,,,,,,,,,,,,,,,,,,,,,,,,,293.7008,304.8259,0,0,0,0,1,,,,,,,,,,,,,,,,,,,,,,,,,,,,,,,,,,,,,,,,,,,,,,,,,
,,,,,,,"If you think it is an existing Spanish word, you type '1' (for 'REAL'), and if you think it is not an existing Spanish word, you type '0' (for 'FAKE').", (press the spacebar to continue),6647ce8c4b8ee105144eb431,Spanish,13 or older,"no, only English or Spanish",no,2025-07-24_06h02.55.962,empathy_intonation_perc_control,2024.2.4,Win32,60.97560976,6647ce8c4b8ee105144eb431,68817205a84113384fffdfe3,6882049ad7cc1c94da3eb9a7,,,,,,,,,,,,,,,,,,,,,,,,,,,,,,304.8384,313.665,0,1,1,1,1,,,,,,,,,,,,,,,,,,,,,,,,,,,,,,,,,,,,,,,,,,,,,,,,,
,,,,,,,"If you are sure that the word exists, even though you don’t know its exact meaning, you may still respond '1' (REAL). 
  
  But if you are not sure if it is an existing word, you should respond '0' (FAKE).
  
  Let's do a practice round...", (press the spacebar to continue),6647ce8c4b8ee105144eb431,Spanish,13 or older,"no, only English or Spanish",no,2025-07-24_06h02.55.962,empathy_intonation_perc_control,2024.2.4,Win32,60.97560976,6647ce8c4b8ee105144eb431,68817205a84113384fffdfe3,6882049ad7cc1c94da3eb9a7,,,,,,,,,,,,,,,,,,,,,,,,,,,,,,313.6765,325.4197,0,2,2,2,1,,,,,,,,,,,,,,,,,,,,,,,,,,,,,,,,,,,,,,,,,,,,,,,,,
,,,,,,,,,6647ce8c4b8ee105144eb431,Spanish,13 or older,"no, only English or Spanish",no,2025-07-24_06h02.55.962,empathy_intonation_perc_control,2024.2.4,Win32,60.97560976,6647ce8c4b8ee105144eb431,68817205a84113384fffdfe3,6882049ad7cc1c94da3eb9a7,,,,,,,,,,,,,0,,,,,,,,,,,,,,,,,,,,,,,,325.4334,328.9663,0,1,2.9851,,328.9666,329.9722,0,0,0,0,1,0,depiste,REAL,FAKE,,,,,,,,,,,,,,,,,,,,,,,,,,,,,,,,
,,,,,,,,,6647ce8c4b8ee105144eb431,Spanish,13 or older,"no, only English or Spanish",no,2025-07-24_06h02.55.962,empathy_intonation_perc_control,2024.2.4,Win32,60.97560976,6647ce8c4b8ee105144eb431,68817205a84113384fffdfe3,6882049ad7cc1c94da3eb9a7,,,,,,,,,,,,,1,,,,,,,,,,,,,,,,,,,,,,,,329.9783,331.9138,1,1,1.403,,331.914,332.9145,0,1,1,1,1,0,sí,REAL,FAKE,,,,,,,,,,,,,,,,,,,,,,,,,,,,,,,,
,,,,,,,,,6647ce8c4b8ee105144eb431,Spanish,13 or older,"no, only English or Spanish",no,2025-07-24_06h02.55.962,empathy_intonation_perc_control,2024.2.4,Win32,60.97560976,6647ce8c4b8ee105144eb431,68817205a84113384fffdfe3,6882049ad7cc1c94da3eb9a7,,,,,,,,,,,,,0,,,,,,,,,,,,,,,,,,,,,,,,332.9207,337.043,1,0,3.5846,,337.0499,338.0419,0,2,2,2,1,0,coné,REAL,FAKE,,,,,,,,,,,,,,,,,,,,,,,,,,,,,,,,
,,,,,,,,,6647ce8c4b8ee105144eb431,Spanish,13 or older,"no, only English or Spanish",no,2025-07-24_06h02.55.962,empathy_intonation_perc_control,2024.2.4,Win32,60.97560976,6647ce8c4b8ee105144eb431,68817205a84113384fffdfe3,6882049ad7cc1c94da3eb9a7,,,,,,,,,,,,,0,,,,,,,,,,,,,,,,,,,,,,,,338.0487,340.1087,0,1,1.5233,,340.1113,341.108,0,3,3,3,1,0,calpar,REAL,FAKE,,,,,,,,,,,,,,,,,,,,,,,,,,,,,,,,
,,,,,,,,,6647ce8c4b8ee105144eb431,Spanish,13 or older,"no, only English or Spanish",no,2025-07-24_06h02.55.962,empathy_intonation_perc_control,2024.2.4,Win32,60.97560976,6647ce8c4b8ee105144eb431,68817205a84113384fffdfe3,6882049ad7cc1c94da3eb9a7,,,,,,,,,,,,,0,,,,,,,,,,,,,,,,,,,,,,,,341.1151,342.5884,0,1,0.9424,,342.5888,343.5866,0,4,4,4,1,0,joten,REAL,FAKE,,,,,,,,,,,,,,,,,,,,,,,,,,,,,,,,
,,,,,,,,,6647ce8c4b8ee105144eb431,Spanish,13 or older,"no, only English or Spanish",no,2025-07-24_06h02.55.962,empathy_intonation_perc_control,2024.2.4,Win32,60.97560976,6647ce8c4b8ee105144eb431,68817205a84113384fffdfe3,6882049ad7cc1c94da3eb9a7,,,,,,,,,,,,,1,,,,,,,,,,,,,,,,,,,,,,,,343.5919,345.1718,0,0,1.0435,,345.1749,346.1674,0,5,5,5,1,0,sacapuntas,REAL,FAKE,,,,,,,,,,,,,,,,,,,,,,,,,,,,,,,,
,,,,,,,,,6647ce8c4b8ee105144eb431,Spanish,13 or older,"no, only English or Spanish",no,2025-07-24_06h02.55.962,empathy_intonation_perc_control,2024.2.4,Win32,60.97560976,6647ce8c4b8ee105144eb431,68817205a84113384fffdfe3,6882049ad7cc1c94da3eb9a7,,,,,,,,,,,,,0,,,,,,,,,,,,,,,,,,,,,,,,346.1736,349.3491,0,1,2.6422,,349.3513,350.3462,0,6,6,6,1,0,priba,REAL,FAKE,,,,,,,,,,,,,,,,,,,,,,,,,,,,,,,,
,,,,,,,,,6647ce8c4b8ee105144eb431,Spanish,13 or older,"no, only English or Spanish",no,2025-07-24_06h02.55.962,empathy_intonation_perc_control,2024.2.4,Win32,60.97560976,6647ce8c4b8ee105144eb431,68817205a84113384fffdfe3,6882049ad7cc1c94da3eb9a7,,,,,,,,,,,,,0,,,,,,,,,,,,,,,,,,,,,,,,350.3472,353.9663,1,0,3.0732,,353.9701,354.9597,0,7,7,7,1,0,pelasula,REAL,FAKE,,,,,,,,,,,,,,,,,,,,,,,,,,,,,,,,
,,,,,,,,,6647ce8c4b8ee105144eb431,Spanish,13 or older,"no, only English or Spanish",no,2025-07-24_06h02.55.962,empathy_intonation_perc_control,2024.2.4,Win32,60.97560976,6647ce8c4b8ee105144eb431,68817205a84113384fffdfe3,6882049ad7cc1c94da3eb9a7,,,,,,,,,,,,,1,,,,,,,,,,,,,,,,,,,,,,,,354.9646,356.2797,1,1,0.7815,,356.2819,357.2739,0,8,8,8,1,0,bien,REAL,FAKE,,,,,,,,,,,,,,,,,,,,,,,,,,,,,,,,
,,,,,,,,,6647ce8c4b8ee105144eb431,Spanish,13 or older,"no, only English or Spanish",no,2025-07-24_06h02.55.962,empathy_intonation_perc_control,2024.2.4,Win32,60.97560976,6647ce8c4b8ee105144eb431,68817205a84113384fffdfe3,6882049ad7cc1c94da3eb9a7,,,,,,,,,,,,,1,,,,,,,,,,,,,,,,,,,,,,,,357.2793,358.5952,1,1,0.7866,,358.5955,359.5885,0,9,9,9,1,0,casa,REAL,FAKE,,,,,,,,,,,,,,,,,,,,,,,,,,,,,,,,
,,,,,,,,,6647ce8c4b8ee105144eb431,Spanish,13 or older,"no, only English or Spanish",no,2025-07-24_06h02.55.962,empathy_intonation_perc_control,2024.2.4,Win32,60.97560976,6647ce8c4b8ee105144eb431,68817205a84113384fffdfe3,6882049ad7cc1c94da3eb9a7,,,,,,,,,,,,,0,,,,,,,,,,,,,,,,,,,,,,,,359.5948,360.9703,1,0,0.8395,,360.9741,361.9729,0,10,10,10,1,0,lejo,REAL,FAKE,,,,,,,,,,,,,,,,,,,,,,,,,,,,,,,,
,,,,,,,,,6647ce8c4b8ee105144eb431,Spanish,13 or older,"no, only English or Spanish",no,2025-07-24_06h02.55.962,empathy_intonation_perc_control,2024.2.4,Win32,60.97560976,6647ce8c4b8ee105144eb431,68817205a84113384fffdfe3,6882049ad7cc1c94da3eb9a7,,,,,,,,,,,,,0,,,,,,,,,,,,,,,,,,,,,,,,361.9769,364.2341,1,0,1.7209,,364.2343,365.2338,0,11,11,11,1,0,pretantas,REAL,FAKE,,,,,,,,,,,,,,,,,,,,,,,,,,,,,,,,
,,,,,,,,,6647ce8c4b8ee105144eb431,Spanish,13 or older,"no, only English or Spanish",no,2025-07-24_06h02.55.962,empathy_intonation_perc_control,2024.2.4,Win32,60.97560976,6647ce8c4b8ee105144eb431,68817205a84113384fffdfe3,6882049ad7cc1c94da3eb9a7,,,,,,,,,,,,,,,,,,,,,,,,,,,,,,,,,,,,,,,,,,,,,,,,,,,,,,365.2348,368.0184,,,,,,,,,,,,,,,,,,,,,,,,,,,,,,
,,,,,,,,,6647ce8c4b8ee105144eb431,Spanish,13 or older,"no, only English or Spanish",no,2025-07-24_06h02.55.962,empathy_intonation_perc_control,2024.2.4,Win32,60.97560976,6647ce8c4b8ee105144eb431,68817205a84113384fffdfe3,6882049ad7cc1c94da3eb9a7,,,,,,,,,,,,,1,,,,,,,,,,,,,,,,,,,,,,,,,,,,,,,,,,,,,90,clavel,,,,,368.0489,370.4971,0,0,1.9062,,0,0,0,89,1,REAL,FAKE,,,,,,,,,,,,,,,,,
,,,,,,,,,6647ce8c4b8ee105144eb431,Spanish,13 or older,"no, only English or Spanish",no,2025-07-24_06h02.55.962,empathy_intonation_perc_control,2024.2.4,Win32,60.97560976,6647ce8c4b8ee105144eb431,68817205a84113384fffdfe3,6882049ad7cc1c94da3eb9a7,,,,,,,,,,,,,1,,,,,,,,,,,,,,,,,,,,,,,,,,,,,,,,,,,,,61,seda,,,,,370.5007,371.8822,1,1,0.8486,,0,1,1,60,1,REAL,FAKE,,,,,,,,,,,,,,,,,
,,,,,,,,,6647ce8c4b8ee105144eb431,Spanish,13 or older,"no, only English or Spanish",no,2025-07-24_06h02.55.962,empathy_intonation_perc_control,2024.2.4,Win32,60.97560976,6647ce8c4b8ee105144eb431,68817205a84113384fffdfe3,6882049ad7cc1c94da3eb9a7,,,,,,,,,,,,,1,,,,,,,,,,,,,,,,,,,,,,,,,,,,,,,,,,,,,75,yacer,,,,,371.8869,373.3914,0,0,0.9702,,0,2,2,74,1,REAL,FAKE,,,,,,,,,,,,,,,,,
,,,,,,,,,6647ce8c4b8ee105144eb431,Spanish,13 or older,"no, only English or Spanish",no,2025-07-24_06h02.55.962,empathy_intonation_perc_control,2024.2.4,Win32,60.97560976,6647ce8c4b8ee105144eb431,68817205a84113384fffdfe3,6882049ad7cc1c94da3eb9a7,,,,,,,,,,,,,0,,,,,,,,,,,,,,,,,,,,,,,,,,,,,,,,,,,,,53,vegada,,,,,373.3962,375.2412,1,0,1.3134,,0,3,3,52,1,REAL,FAKE,,,,,,,,,,,,,,,,,
,,,,,,,,,6647ce8c4b8ee105144eb431,Spanish,13 or older,"no, only English or Spanish",no,2025-07-24_06h02.55.962,empathy_intonation_perc_control,2024.2.4,Win32,60.97560976,6647ce8c4b8ee105144eb431,68817205a84113384fffdfe3,6882049ad7cc1c94da3eb9a7,,,,,,,,,,,,,0,,,,,,,,,,,,,,,,,,,,,,,,,,,,,,,,,,,,,84,escuto,,,,,375.2444,377.5872,1,0,1.7983,,0,4,4,83,1,REAL,FAKE,,,,,,,,,,,,,,,,,
,,,,,,,,,6647ce8c4b8ee105144eb431,Spanish,13 or older,"no, only English or Spanish",no,2025-07-24_06h02.55.962,empathy_intonation_perc_control,2024.2.4,Win32,60.97560976,6647ce8c4b8ee105144eb431,68817205a84113384fffdfe3,6882049ad7cc1c94da3eb9a7,,,,,,,,,,,,,1,,,,,,,,,,,,,,,,,,,,,,,,,,,,,,,,,,,,,22,lacayo,,,,,377.5884,380.2697,0,0,2.1498,,0,5,5,21,1,REAL,FAKE,,,,,,,,,,,,,,,,,
,,,,,,,,,6647ce8c4b8ee105144eb431,Spanish,13 or older,"no, only English or Spanish",no,2025-07-24_06h02.55.962,empathy_intonation_perc_control,2024.2.4,Win32,60.97560976,6647ce8c4b8ee105144eb431,68817205a84113384fffdfe3,6882049ad7cc1c94da3eb9a7,,,,,,,,,,,,,1,,,,,,,,,,,,,,,,,,,,,,,,,,,,,,,,,,,,,76,atar,,,,,380.273,381.9462,1,1,1.1405,,0,6,6,75,1,REAL,FAKE,,,,,,,,,,,,,,,,,
,,,,,,,,,6647ce8c4b8ee105144eb431,Spanish,13 or older,"no, only English or Spanish",no,2025-07-24_06h02.55.962,empathy_intonation_perc_control,2024.2.4,Win32,60.97560976,6647ce8c4b8ee105144eb431,68817205a84113384fffdfe3,6882049ad7cc1c94da3eb9a7,,,,,,,,,,,,,1,,,,,,,,,,,,,,,,,,,,,,,,,,,,,,,,,,,,,7,pésimo,,,,,381.9499,383.3669,1,1,0.8923,,0,7,7,6,1,REAL,FAKE,,,,,,,,,,,,,,,,,
,,,,,,,,,6647ce8c4b8ee105144eb431,Spanish,13 or older,"no, only English or Spanish",no,2025-07-24_06h02.55.962,empathy_intonation_perc_control,2024.2.4,Win32,60.97560976,6647ce8c4b8ee105144eb431,68817205a84113384fffdfe3,6882049ad7cc1c94da3eb9a7,,,,,,,,,,,,,0,,,,,,,,,,,,,,,,,,,,,,,,,,,,,,,,,,,,,30,alardio,,,,,383.3691,386.1126,0,1,2.1975,,0,8,8,29,1,REAL,FAKE,,,,,,,,,,,,,,,,,
,,,,,,,,,6647ce8c4b8ee105144eb431,Spanish,13 or older,"no, only English or Spanish",no,2025-07-24_06h02.55.962,empathy_intonation_perc_control,2024.2.4,Win32,60.97560976,6647ce8c4b8ee105144eb431,68817205a84113384fffdfe3,6882049ad7cc1c94da3eb9a7,,,,,,,,,,,,,1,,,,,,,,,,,,,,,,,,,,,,,,,,,,,,,,,,,,,43,canela,,,,,386.1148,387.4668,1,1,0.8058,,0,9,9,42,1,REAL,FAKE,,,,,,,,,,,,,,,,,
,,,,,,,,,6647ce8c4b8ee105144eb431,Spanish,13 or older,"no, only English or Spanish",no,2025-07-24_06h02.55.962,empathy_intonation_perc_control,2024.2.4,Win32,60.97560976,6647ce8c4b8ee105144eb431,68817205a84113384fffdfe3,6882049ad7cc1c94da3eb9a7,,,,,,,,,,,,,1,,,,,,,,,,,,,,,,,,,,,,,,,,,,,,,,,,,,,62,flaco,,,,,387.4723,388.83,1,1,0.8262,,0,10,10,61,1,REAL,FAKE,,,,,,,,,,,,,,,,,
,,,,,,,,,6647ce8c4b8ee105144eb431,Spanish,13 or older,"no, only English or Spanish",no,2025-07-24_06h02.55.962,empathy_intonation_perc_control,2024.2.4,Win32,60.97560976,6647ce8c4b8ee105144eb431,68817205a84113384fffdfe3,6882049ad7cc1c94da3eb9a7,,,,,,,,,,,,,1,,,,,,,,,,,,,,,,,,,,,,,,,,,,,,,,,,,,,5,zapato,,,,,388.8349,390.1096,1,1,0.7323,,0,11,11,4,1,REAL,FAKE,,,,,,,,,,,,,,,,,
,,,,,,,,,6647ce8c4b8ee105144eb431,Spanish,13 or older,"no, only English or Spanish",no,2025-07-24_06h02.55.962,empathy_intonation_perc_control,2024.2.4,Win32,60.97560976,6647ce8c4b8ee105144eb431,68817205a84113384fffdfe3,6882049ad7cc1c94da3eb9a7,,,,,,,,,,,,,1,,,,,,,,,,,,,,,,,,,,,,,,,,,,,,,,,,,,,45,jilguero,,,,,390.1133,392.5271,0,0,1.8783,,0,12,12,44,1,REAL,FAKE,,,,,,,,,,,,,,,,,
,,,,,,,,,6647ce8c4b8ee105144eb431,Spanish,13 or older,"no, only English or Spanish",no,2025-07-24_06h02.55.962,empathy_intonation_perc_control,2024.2.4,Win32,60.97560976,6647ce8c4b8ee105144eb431,68817205a84113384fffdfe3,6882049ad7cc1c94da3eb9a7,,,,,,,,,,,,,1,,,,,,,,,,,,,,,,,,,,,,,,,,,,,,,,,,,,,85,laúd,,,,,392.5337,394.3767,0,0,1.3153,,0,13,13,84,1,REAL,FAKE,,,,,,,,,,,,,,,,,
,,,,,,,,,6647ce8c4b8ee105144eb431,Spanish,13 or older,"no, only English or Spanish",no,2025-07-24_06h02.55.962,empathy_intonation_perc_control,2024.2.4,Win32,60.97560976,6647ce8c4b8ee105144eb431,68817205a84113384fffdfe3,6882049ad7cc1c94da3eb9a7,,,,,,,,,,,,,1,,,,,,,,,,,,,,,,,,,,,,,,,,,,,,,,,,,,,3,pulmones,,,,,394.3811,396.3718,1,1,1.4554,,0,14,14,2,1,REAL,FAKE,,,,,,,,,,,,,,,,,
,,,,,,,,,6647ce8c4b8ee105144eb431,Spanish,13 or older,"no, only English or Spanish",no,2025-07-24_06h02.55.962,empathy_intonation_perc_control,2024.2.4,Win32,60.97560976,6647ce8c4b8ee105144eb431,68817205a84113384fffdfe3,6882049ad7cc1c94da3eb9a7,,,,,,,,,,,,,1,,,,,,,,,,,,,,,,,,,,,,,,,,,,,,,,,,,,,31,pandilla,,,,,396.3782,398.0226,1,1,1.1149,,0,15,15,30,1,REAL,FAKE,,,,,,,,,,,,,,,,,
,,,,,,,,,6647ce8c4b8ee105144eb431,Spanish,13 or older,"no, only English or Spanish",no,2025-07-24_06h02.55.962,empathy_intonation_perc_control,2024.2.4,Win32,60.97560976,6647ce8c4b8ee105144eb431,68817205a84113384fffdfe3,6882049ad7cc1c94da3eb9a7,,,,,,,,,,,,,1,,,,,,,,,,,,,,,,,,,,,,,,,,,,,,,,,,,,,67,cabello,,,,,398.0273,399.2866,1,1,0.7278,,0,16,16,66,1,REAL,FAKE,,,,,,,,,,,,,,,,,
,,,,,,,,,6647ce8c4b8ee105144eb431,Spanish,13 or older,"no, only English or Spanish",no,2025-07-24_06h02.55.962,empathy_intonation_perc_control,2024.2.4,Win32,60.97560976,6647ce8c4b8ee105144eb431,68817205a84113384fffdfe3,6882049ad7cc1c94da3eb9a7,,,,,,,,,,,,,1,,,,,,,,,,,,,,,,,,,,,,,,,,,,,,,,,,,,,15,regar,,,,,399.2909,400.6553,1,1,0.823,,0,17,17,14,1,REAL,FAKE,,,,,,,,,,,,,,,,,
,,,,,,,,,6647ce8c4b8ee105144eb431,Spanish,13 or older,"no, only English or Spanish",no,2025-07-24_06h02.55.962,empathy_intonation_perc_control,2024.2.4,Win32,60.97560976,6647ce8c4b8ee105144eb431,68817205a84113384fffdfe3,6882049ad7cc1c94da3eb9a7,,,,,,,,,,,,,1,,,,,,,,,,,,,,,,,,,,,,,,,,,,,,,,,,,,,34,aviso,,,,,400.6595,402.4845,1,1,1.2949,,0,18,18,33,1,REAL,FAKE,,,,,,,,,,,,,,,,,
,,,,,,,,,6647ce8c4b8ee105144eb431,Spanish,13 or older,"no, only English or Spanish",no,2025-07-24_06h02.55.962,empathy_intonation_perc_control,2024.2.4,Win32,60.97560976,6647ce8c4b8ee105144eb431,68817205a84113384fffdfe3,6882049ad7cc1c94da3eb9a7,,,,,,,,,,,,,1,,,,,,,,,,,,,,,,,,,,,,,,,,,,,,,,,,,,,24,látigo,,,,,402.4929,405.3805,1,1,2.3519,,0,19,19,23,1,REAL,FAKE,,,,,,,,,,,,,,,,,
,,,,,,,,,6647ce8c4b8ee105144eb431,Spanish,13 or older,"no, only English or Spanish",no,2025-07-24_06h02.55.962,empathy_intonation_perc_control,2024.2.4,Win32,60.97560976,6647ce8c4b8ee105144eb431,68817205a84113384fffdfe3,6882049ad7cc1c94da3eb9a7,,,,,,,,,,,,,1,,,,,,,,,,,,,,,,,,,,,,,,,,,,,,,,,,,,,68,alegre,,,,,405.387,406.9843,1,1,1.0628,,0,20,20,67,1,REAL,FAKE,,,,,,,,,,,,,,,,,
,,,,,,,,,6647ce8c4b8ee105144eb431,Spanish,13 or older,"no, only English or Spanish",no,2025-07-24_06h02.55.962,empathy_intonation_perc_control,2024.2.4,Win32,60.97560976,6647ce8c4b8ee105144eb431,68817205a84113384fffdfe3,6882049ad7cc1c94da3eb9a7,,,,,,,,,,,,,0,,,,,,,,,,,,,,,,,,,,,,,,,,,,,,,,,,,,,10,antar,,,,,406.9892,408.5328,1,0,1.0211,,0,21,21,9,1,REAL,FAKE,,,,,,,,,,,,,,,,,
,,,,,,,,,6647ce8c4b8ee105144eb431,Spanish,13 or older,"no, only English or Spanish",no,2025-07-24_06h02.55.962,empathy_intonation_perc_control,2024.2.4,Win32,60.97560976,6647ce8c4b8ee105144eb431,68817205a84113384fffdfe3,6882049ad7cc1c94da3eb9a7,,,,,,,,,,,,,1,,,,,,,,,,,,,,,,,,,,,,,,,,,,,,,,,,,,,54,fomentar,,,,,408.5393,412.9107,0,0,3.8354,,0,22,22,53,1,REAL,FAKE,,,,,,,,,,,,,,,,,
,,,,,,,,,6647ce8c4b8ee105144eb431,Spanish,13 or older,"no, only English or Spanish",no,2025-07-24_06h02.55.962,empathy_intonation_perc_control,2024.2.4,Win32,60.97560976,6647ce8c4b8ee105144eb431,68817205a84113384fffdfe3,6882049ad7cc1c94da3eb9a7,,,,,,,,,,,,,1,,,,,,,,,,,,,,,,,,,,,,,,,,,,,,,,,,,,,48,ladrón,,,,,412.9152,415.7225,0,0,2.2689,,0,23,23,47,1,REAL,FAKE,,,,,,,,,,,,,,,,,
,,,,,,,,,6647ce8c4b8ee105144eb431,Spanish,13 or older,"no, only English or Spanish",no,2025-07-24_06h02.55.962,empathy_intonation_perc_control,2024.2.4,Win32,60.97560976,6647ce8c4b8ee105144eb431,68817205a84113384fffdfe3,6882049ad7cc1c94da3eb9a7,,,,,,,,,,,,,1,,,,,,,,,,,,,,,,,,,,,,,,,,,,,,,,,,,,,80,hormiga,,,,,415.728,417.4168,0,0,1.1507,,0,24,24,79,1,REAL,FAKE,,,,,,,,,,,,,,,,,
,,,,,,,,,6647ce8c4b8ee105144eb431,Spanish,13 or older,"no, only English or Spanish",no,2025-07-24_06h02.55.962,empathy_intonation_perc_control,2024.2.4,Win32,60.97560976,6647ce8c4b8ee105144eb431,68817205a84113384fffdfe3,6882049ad7cc1c94da3eb9a7,,,,,,,,,,,,,0,,,,,,,,,,,,,,,,,,,,,,,,,,,,,,,,,,,,,87,grodo,,,,,417.4182,418.8229,0,1,0.865,,0,25,25,86,1,REAL,FAKE,,,,,,,,,,,,,,,,,
,,,,,,,,,6647ce8c4b8ee105144eb431,Spanish,13 or older,"no, only English or Spanish",no,2025-07-24_06h02.55.962,empathy_intonation_perc_control,2024.2.4,Win32,60.97560976,6647ce8c4b8ee105144eb431,68817205a84113384fffdfe3,6882049ad7cc1c94da3eb9a7,,,,,,,,,,,,,0,,,,,,,,,,,,,,,,,,,,,,,,,,,,,,,,,,,,,82,empirador,,,,,418.8257,421.9795,1,0,2.6306,,0,26,26,81,1,REAL,FAKE,,,,,,,,,,,,,,,,,
,,,,,,,,,6647ce8c4b8ee105144eb431,Spanish,13 or older,"no, only English or Spanish",no,2025-07-24_06h02.55.962,empathy_intonation_perc_control,2024.2.4,Win32,60.97560976,6647ce8c4b8ee105144eb431,68817205a84113384fffdfe3,6882049ad7cc1c94da3eb9a7,,,,,,,,,,,,,1,,,,,,,,,,,,,,,,,,,,,,,,,,,,,,,,,,,,,55,nevar,,,,,421.9836,423.3008,1,1,0.7849,,0,27,27,54,1,REAL,FAKE,,,,,,,,,,,,,,,,,
,,,,,,,,,6647ce8c4b8ee105144eb431,Spanish,13 or older,"no, only English or Spanish",no,2025-07-24_06h02.55.962,empathy_intonation_perc_control,2024.2.4,Win32,60.97560976,6647ce8c4b8ee105144eb431,68817205a84113384fffdfe3,6882049ad7cc1c94da3eb9a7,,,,,,,,,,,,,1,,,,,,,,,,,,,,,,,,,,,,,,,,,,,,,,,,,,,44,cuchara,,,,,423.3046,425.0768,1,1,1.2471,,0,28,28,43,1,REAL,FAKE,,,,,,,,,,,,,,,,,
,,,,,,,,,6647ce8c4b8ee105144eb431,Spanish,13 or older,"no, only English or Spanish",no,2025-07-24_06h02.55.962,empathy_intonation_perc_control,2024.2.4,Win32,60.97560976,6647ce8c4b8ee105144eb431,68817205a84113384fffdfe3,6882049ad7cc1c94da3eb9a7,,,,,,,,,,,,,1,,,,,,,,,,,,,,,,,,,,,,,,,,,,,,,,,,,,,78,frondoso,,,,,425.0807,426.6914,0,0,1.0657,,0,29,29,77,1,REAL,FAKE,,,,,,,,,,,,,,,,,
,,,,,,,,,6647ce8c4b8ee105144eb431,Spanish,13 or older,"no, only English or Spanish",no,2025-07-24_06h02.55.962,empathy_intonation_perc_control,2024.2.4,Win32,60.97560976,6647ce8c4b8ee105144eb431,68817205a84113384fffdfe3,6882049ad7cc1c94da3eb9a7,,,,,,,,,,,,,1,,,,,,,,,,,,,,,,,,,,,,,,,,,,,,,,,,,,,13,helar,,,,,426.6944,428.2261,0,0,1.0011,,0,30,30,12,1,REAL,FAKE,,,,,,,,,,,,,,,,,
,,,,,,,,,6647ce8c4b8ee105144eb431,Spanish,13 or older,"no, only English or Spanish",no,2025-07-24_06h02.55.962,empathy_intonation_perc_control,2024.2.4,Win32,60.97560976,6647ce8c4b8ee105144eb431,68817205a84113384fffdfe3,6882049ad7cc1c94da3eb9a7,,,,,,,,,,,,,1,,,,,,,,,,,,,,,,,,,,,,,,,,,,,,,,,,,,,39,torpe,,,,,428.2312,430.1251,0,0,1.3624,,0,31,31,38,1,REAL,FAKE,,,,,,,,,,,,,,,,,
,,,,,,,,,6647ce8c4b8ee105144eb431,Spanish,13 or older,"no, only English or Spanish",no,2025-07-24_06h02.55.962,empathy_intonation_perc_control,2024.2.4,Win32,60.97560976,6647ce8c4b8ee105144eb431,68817205a84113384fffdfe3,6882049ad7cc1c94da3eb9a7,,,,,,,,,,,,,1,,,,,,,,,,,,,,,,,,,,,,,,,,,,,,,,,,,,,88,acantilado,,,,,430.13,433.2051,0,0,2.5427,,0,32,32,87,1,REAL,FAKE,,,,,,,,,,,,,,,,,
,,,,,,,,,6647ce8c4b8ee105144eb431,Spanish,13 or older,"no, only English or Spanish",no,2025-07-24_06h02.55.962,empathy_intonation_perc_control,2024.2.4,Win32,60.97560976,6647ce8c4b8ee105144eb431,68817205a84113384fffdfe3,6882049ad7cc1c94da3eb9a7,,,,,,,,,,,,,0,,,,,,,,,,,,,,,,,,,,,,,,,,,,,,,,,,,,,58,plaudir,,,,,433.21,436.7348,0,1,2.9864,,0,33,33,57,1,REAL,FAKE,,,,,,,,,,,,,,,,,
,,,,,,,,,6647ce8c4b8ee105144eb431,Spanish,13 or older,"no, only English or Spanish",no,2025-07-24_06h02.55.962,empathy_intonation_perc_control,2024.2.4,Win32,60.97560976,6647ce8c4b8ee105144eb431,68817205a84113384fffdfe3,6882049ad7cc1c94da3eb9a7,,,,,,,,,,,,,1,,,,,,,,,,,,,,,,,,,,,,,,,,,,,,,,,,,,,46,martillo,,,,,436.7394,439.1175,0,0,1.8387,,0,34,34,45,1,REAL,FAKE,,,,,,,,,,,,,,,,,
,,,,,,,,,6647ce8c4b8ee105144eb431,Spanish,13 or older,"no, only English or Spanish",no,2025-07-24_06h02.55.962,empathy_intonation_perc_control,2024.2.4,Win32,60.97560976,6647ce8c4b8ee105144eb431,68817205a84113384fffdfe3,6882049ad7cc1c94da3eb9a7,,,,,,,,,,,,,0,,,,,,,,,,,,,,,,,,,,,,,,,,,,,,,,,,,,,63,esposante,,,,,439.1215,440.3784,0,1,0.7158,,0,35,35,62,1,REAL,FAKE,,,,,,,,,,,,,,,,,
,,,,,,,,,6647ce8c4b8ee105144eb431,Spanish,13 or older,"no, only English or Spanish",no,2025-07-24_06h02.55.962,empathy_intonation_perc_control,2024.2.4,Win32,60.97560976,6647ce8c4b8ee105144eb431,68817205a84113384fffdfe3,6882049ad7cc1c94da3eb9a7,,,,,,,,,,,,,0,,,,,,,,,,,,,,,,,,,,,,,,,,,,,,,,,,,,,1,terzo,,,,,440.3796,442.5609,1,0,1.6508,,0,36,36,0,1,REAL,FAKE,,,,,,,,,,,,,,,,,
,,,,,,,,,6647ce8c4b8ee105144eb431,Spanish,13 or older,"no, only English or Spanish",no,2025-07-24_06h02.55.962,empathy_intonation_perc_control,2024.2.4,Win32,60.97560976,6647ce8c4b8ee105144eb431,68817205a84113384fffdfe3,6882049ad7cc1c94da3eb9a7,,,,,,,,,,,,,1,,,,,,,,,,,,,,,,,,,,,,,,,,,,,,,,,,,,,59,besar,,,,,442.5668,444.6765,0,0,1.5767,,0,37,37,58,1,REAL,FAKE,,,,,,,,,,,,,,,,,
,,,,,,,,,6647ce8c4b8ee105144eb431,Spanish,13 or older,"no, only English or Spanish",no,2025-07-24_06h02.55.962,empathy_intonation_perc_control,2024.2.4,Win32,60.97560976,6647ce8c4b8ee105144eb431,68817205a84113384fffdfe3,6882049ad7cc1c94da3eb9a7,,,,,,,,,,,,,0,,,,,,,,,,,,,,,,,,,,,,,,,,,,,,,,,,,,,74,cintro,,,,,444.68,445.8796,1,0,0.6636,,0,38,38,73,1,REAL,FAKE,,,,,,,,,,,,,,,,,
,,,,,,,,,6647ce8c4b8ee105144eb431,Spanish,13 or older,"no, only English or Spanish",no,2025-07-24_06h02.55.962,empathy_intonation_perc_control,2024.2.4,Win32,60.97560976,6647ce8c4b8ee105144eb431,68817205a84113384fffdfe3,6882049ad7cc1c94da3eb9a7,,,,,,,,,,,,,1,,,,,,,,,,,,,,,,,,,,,,,,,,,,,,,,,,,,,26,secuestro,,,,,445.8852,448.0743,1,1,1.6617,,0,39,39,25,1,REAL,FAKE,,,,,,,,,,,,,,,,,
,,,,,,,,,6647ce8c4b8ee105144eb431,Spanish,13 or older,"no, only English or Spanish",no,2025-07-24_06h02.55.962,empathy_intonation_perc_control,2024.2.4,Win32,60.97560976,6647ce8c4b8ee105144eb431,68817205a84113384fffdfe3,6882049ad7cc1c94da3eb9a7,,,,,,,,,,,,,0,,,,,,,,,,,,,,,,,,,,,,,,,,,,,,,,,,,,,23,lampera,,,,,448.0814,449.5277,1,0,0.9084,,0,40,40,22,1,REAL,FAKE,,,,,,,,,,,,,,,,,
,,,,,,,,,6647ce8c4b8ee105144eb431,Spanish,13 or older,"no, only English or Spanish",no,2025-07-24_06h02.55.962,empathy_intonation_perc_control,2024.2.4,Win32,60.97560976,6647ce8c4b8ee105144eb431,68817205a84113384fffdfe3,6882049ad7cc1c94da3eb9a7,,,,,,,,,,,,,1,,,,,,,,,,,,,,,,,,,,,,,,,,,,,,,,,,,,,12,asesinato,,,,,449.532,452.9672,0,0,2.9084,,0,41,41,11,1,REAL,FAKE,,,,,,,,,,,,,,,,,
,,,,,,,,,6647ce8c4b8ee105144eb431,Spanish,13 or older,"no, only English or Spanish",no,2025-07-24_06h02.55.962,empathy_intonation_perc_control,2024.2.4,Win32,60.97560976,6647ce8c4b8ee105144eb431,68817205a84113384fffdfe3,6882049ad7cc1c94da3eb9a7,,,,,,,,,,,,,0,,,,,,,,,,,,,,,,,,,,,,,,,,,,,,,,,,,,,50,flamida,,,,,452.9711,454.8823,0,1,1.3769,,0,42,42,49,1,REAL,FAKE,,,,,,,,,,,,,,,,,
,,,,,,,,,6647ce8c4b8ee105144eb431,Spanish,13 or older,"no, only English or Spanish",no,2025-07-24_06h02.55.962,empathy_intonation_perc_control,2024.2.4,Win32,60.97560976,6647ce8c4b8ee105144eb431,68817205a84113384fffdfe3,6882049ad7cc1c94da3eb9a7,,,,,,,,,,,,,0,,,,,,,,,,,,,,,,,,,,,,,,,,,,,,,,,,,,,92,click the 0 key.,,,,,454.8868,457.768,0,1,2.349,,0,43,43,91,1,REAL,FAKE,,,,,,,,,,,,,,,,,
,,,,,,,,,6647ce8c4b8ee105144eb431,Spanish,13 or older,"no, only English or Spanish",no,2025-07-24_06h02.55.962,empathy_intonation_perc_control,2024.2.4,Win32,60.97560976,6647ce8c4b8ee105144eb431,68817205a84113384fffdfe3,6882049ad7cc1c94da3eb9a7,,,,,,,,,,,,,1,,,,,,,,,,,,,,,,,,,,,,,,,,,,,,,,,,,,,9,hacha,,,,,457.7735,461.4662,0,0,3.1635,,0,44,44,8,1,REAL,FAKE,,,,,,,,,,,,,,,,,
,,,,,,,,,6647ce8c4b8ee105144eb431,Spanish,13 or older,"no, only English or Spanish",no,2025-07-24_06h02.55.962,empathy_intonation_perc_control,2024.2.4,Win32,60.97560976,6647ce8c4b8ee105144eb431,68817205a84113384fffdfe3,6882049ad7cc1c94da3eb9a7,,,,,,,,,,,,,1,,,,,,,,,,,,,,,,,,,,,,,,,,,,,,,,,,,,,37,granuja,,,,,461.4704,463.2452,0,0,1.2465,,0,45,45,36,1,REAL,FAKE,,,,,,,,,,,,,,,,,
,,,,,,,,,6647ce8c4b8ee105144eb431,Spanish,13 or older,"no, only English or Spanish",no,2025-07-24_06h02.55.962,empathy_intonation_perc_control,2024.2.4,Win32,60.97560976,6647ce8c4b8ee105144eb431,68817205a84113384fffdfe3,6882049ad7cc1c94da3eb9a7,,,,,,,,,,,,,1,,,,,,,,,,,,,,,,,,,,,,,,,,,,,,,,,,,,,2,pellizcar,,,,,463.2493,465.0592,1,1,1.2842,,0,46,46,1,1,REAL,FAKE,,,,,,,,,,,,,,,,,
,,,,,,,,,6647ce8c4b8ee105144eb431,Spanish,13 or older,"no, only English or Spanish",no,2025-07-24_06h02.55.962,empathy_intonation_perc_control,2024.2.4,Win32,60.97560976,6647ce8c4b8ee105144eb431,68817205a84113384fffdfe3,6882049ad7cc1c94da3eb9a7,,,,,,,,,,,,,1,,,,,,,,,,,,,,,,,,,,,,,,,,,,,,,,,,,,,81,pozo,,,,,465.0664,466.5217,0,0,0.9262,,0,47,47,80,1,REAL,FAKE,,,,,,,,,,,,,,,,,
,,,,,,,,,6647ce8c4b8ee105144eb431,Spanish,13 or older,"no, only English or Spanish",no,2025-07-24_06h02.55.962,empathy_intonation_perc_control,2024.2.4,Win32,60.97560976,6647ce8c4b8ee105144eb431,68817205a84113384fffdfe3,6882049ad7cc1c94da3eb9a7,,,,,,,,,,,,,0,,,,,,,,,,,,,,,,,,,,,,,,,,,,,,,,,,,,,16,abracer,,,,,466.5287,468.1541,1,0,1.0938,,0,48,48,15,1,REAL,FAKE,,,,,,,,,,,,,,,,,
,,,,,,,,,6647ce8c4b8ee105144eb431,Spanish,13 or older,"no, only English or Spanish",no,2025-07-24_06h02.55.962,empathy_intonation_perc_control,2024.2.4,Win32,60.97560976,6647ce8c4b8ee105144eb431,68817205a84113384fffdfe3,6882049ad7cc1c94da3eb9a7,,,,,,,,,,,,,0,,,,,,,,,,,,,,,,,,,,,,,,,,,,,,,,,,,,,33,pauca,,,,,468.1605,469.5864,0,1,0.8884,,0,49,49,32,1,REAL,FAKE,,,,,,,,,,,,,,,,,
,,,,,,,,,6647ce8c4b8ee105144eb431,Spanish,13 or older,"no, only English or Spanish",no,2025-07-24_06h02.55.962,empathy_intonation_perc_control,2024.2.4,Win32,60.97560976,6647ce8c4b8ee105144eb431,68817205a84113384fffdfe3,6882049ad7cc1c94da3eb9a7,,,,,,,,,,,,,1,,,,,,,,,,,,,,,,,,,,,,,,,,,,,,,,,,,,,25,bisagra,,,,,469.5903,471.1503,0,0,1.0291,,0,50,50,24,1,REAL,FAKE,,,,,,,,,,,,,,,,,
,,,,,,,,,6647ce8c4b8ee105144eb431,Spanish,13 or older,"no, only English or Spanish",no,2025-07-24_06h02.55.962,empathy_intonation_perc_control,2024.2.4,Win32,60.97560976,6647ce8c4b8ee105144eb431,68817205a84113384fffdfe3,6882049ad7cc1c94da3eb9a7,,,,,,,,,,,,,1,,,,,,,,,,,,,,,,,,,,,,,,,,,,,,,,,,,,,28,merodear,,,,,471.1541,473.7011,0,0,2.0117,,0,51,51,27,1,REAL,FAKE,,,,,,,,,,,,,,,,,
,,,,,,,,,6647ce8c4b8ee105144eb431,Spanish,13 or older,"no, only English or Spanish",no,2025-07-24_06h02.55.962,empathy_intonation_perc_control,2024.2.4,Win32,60.97560976,6647ce8c4b8ee105144eb431,68817205a84113384fffdfe3,6882049ad7cc1c94da3eb9a7,,,,,,,,,,,,,0,,,,,,,,,,,,,,,,,,,,,,,,,,,,,,,,,,,,,29,decar,,,,,473.706,476.1803,1,0,1.9458,,0,52,52,28,1,REAL,FAKE,,,,,,,,,,,,,,,,,
,,,,,,,,,6647ce8c4b8ee105144eb431,Spanish,13 or older,"no, only English or Spanish",no,2025-07-24_06h02.55.962,empathy_intonation_perc_control,2024.2.4,Win32,60.97560976,6647ce8c4b8ee105144eb431,68817205a84113384fffdfe3,6882049ad7cc1c94da3eb9a7,,,,,,,,,,,,,1,,,,,,,,,,,,,,,,,,,,,,,,,,,,,,,,,,,,,20,ávido,,,,,476.1873,477.4616,1,1,0.7413,,0,53,53,19,1,REAL,FAKE,,,,,,,,,,,,,,,,,
,,,,,,,,,6647ce8c4b8ee105144eb431,Spanish,13 or older,"no, only English or Spanish",no,2025-07-24_06h02.55.962,empathy_intonation_perc_control,2024.2.4,Win32,60.97560976,6647ce8c4b8ee105144eb431,68817205a84113384fffdfe3,6882049ad7cc1c94da3eb9a7,,,,,,,,,,,,,1,,,,,,,,,,,,,,,,,,,,,,,,,,,,,,,,,,,,,69,engatusar,,,,,477.4662,479.1589,0,0,1.1656,,0,54,54,68,1,REAL,FAKE,,,,,,,,,,,,,,,,,
,,,,,,,,,6647ce8c4b8ee105144eb431,Spanish,13 or older,"no, only English or Spanish",no,2025-07-24_06h02.55.962,empathy_intonation_perc_control,2024.2.4,Win32,60.97560976,6647ce8c4b8ee105144eb431,68817205a84113384fffdfe3,6882049ad7cc1c94da3eb9a7,,,,,,,,,,,,,1,,,,,,,,,,,,,,,,,,,,,,,,,,,,,,,,,,,,,11,cenefa,,,,,479.1608,481.5406,0,0,1.8492,,0,55,55,10,1,REAL,FAKE,,,,,,,,,,,,,,,,,
,,,,,,,,,6647ce8c4b8ee105144eb431,Spanish,13 or older,"no, only English or Spanish",no,2025-07-24_06h02.55.962,empathy_intonation_perc_control,2024.2.4,Win32,60.97560976,6647ce8c4b8ee105144eb431,68817205a84113384fffdfe3,6882049ad7cc1c94da3eb9a7,,,,,,,,,,,,,0,,,,,,,,,,,,,,,,,,,,,,,,,,,,,,,,,,,,,42,cadallo,,,,,481.5427,484.7869,0,1,2.7269,,0,56,56,41,1,REAL,FAKE,,,,,,,,,,,,,,,,,
,,,,,,,,,6647ce8c4b8ee105144eb431,Spanish,13 or older,"no, only English or Spanish",no,2025-07-24_06h02.55.962,empathy_intonation_perc_control,2024.2.4,Win32,60.97560976,6647ce8c4b8ee105144eb431,68817205a84113384fffdfe3,6882049ad7cc1c94da3eb9a7,,,,,,,,,,,,,1,,,,,,,,,,,,,,,,,,,,,,,,,,,,,,,,,,,,,86,barato,,,,,484.7883,486.0692,1,1,0.7485,,0,57,57,85,1,REAL,FAKE,,,,,,,,,,,,,,,,,
,,,,,,,,,6647ce8c4b8ee105144eb431,Spanish,13 or older,"no, only English or Spanish",no,2025-07-24_06h02.55.962,empathy_intonation_perc_control,2024.2.4,Win32,60.97560976,6647ce8c4b8ee105144eb431,68817205a84113384fffdfe3,6882049ad7cc1c94da3eb9a7,,,,,,,,,,,,,0,,,,,,,,,,,,,,,,,,,,,,,,,,,,,,,,,,,,,32,fatacidad,,,,,486.0704,488.401,0,1,1.7954,,0,58,58,31,1,REAL,FAKE,,,,,,,,,,,,,,,,,
,,,,,,,,,6647ce8c4b8ee105144eb431,Spanish,13 or older,"no, only English or Spanish",no,2025-07-24_06h02.55.962,empathy_intonation_perc_control,2024.2.4,Win32,60.97560976,6647ce8c4b8ee105144eb431,68817205a84113384fffdfe3,6882049ad7cc1c94da3eb9a7,,,,,,,,,,,,,1,,,,,,,,,,,,,,,,,,,,,,,,,,,,,,,,,,,,,71,polvoriento,,,,,488.4062,490.6818,0,0,1.7461,,0,59,59,70,1,REAL,FAKE,,,,,,,,,,,,,,,,,
,,,,,,,,,6647ce8c4b8ee105144eb431,Spanish,13 or older,"no, only English or Spanish",no,2025-07-24_06h02.55.962,empathy_intonation_perc_control,2024.2.4,Win32,60.97560976,6647ce8c4b8ee105144eb431,68817205a84113384fffdfe3,6882049ad7cc1c94da3eb9a7,,,,,,,,,,,,,0,,,,,,,,,,,,,,,,,,,,,,,,,,,,,,,,,,,,,19,brecedad,,,,,490.6843,493.2469,0,1,2.024,,0,60,60,18,1,REAL,FAKE,,,,,,,,,,,,,,,,,
,,,,,,,,,6647ce8c4b8ee105144eb431,Spanish,13 or older,"no, only English or Spanish",no,2025-07-24_06h02.55.962,empathy_intonation_perc_control,2024.2.4,Win32,60.97560976,6647ce8c4b8ee105144eb431,68817205a84113384fffdfe3,6882049ad7cc1c94da3eb9a7,,,,,,,,,,,,,1,,,,,,,,,,,,,,,,,,,,,,,,,,,,,,,,,,,,,40,alfombra,,,,,493.253,495.8978,1,1,2.1196,,0,61,61,39,1,REAL,FAKE,,,,,,,,,,,,,,,,,
,,,,,,,,,6647ce8c4b8ee105144eb431,Spanish,13 or older,"no, only English or Spanish",no,2025-07-24_06h02.55.962,empathy_intonation_perc_control,2024.2.4,Win32,60.97560976,6647ce8c4b8ee105144eb431,68817205a84113384fffdfe3,6882049ad7cc1c94da3eb9a7,,,,,,,,,,,,,0,,,,,,,,,,,,,,,,,,,,,,,,,,,,,,,,,,,,,4,batillón,,,,,495.9024,497.254,1,0,0.8292,,0,62,62,3,1,REAL,FAKE,,,,,,,,,,,,,,,,,
,,,,,,,,,6647ce8c4b8ee105144eb431,Spanish,13 or older,"no, only English or Spanish",no,2025-07-24_06h02.55.962,empathy_intonation_perc_control,2024.2.4,Win32,60.97560976,6647ce8c4b8ee105144eb431,68817205a84113384fffdfe3,6882049ad7cc1c94da3eb9a7,,,,,,,,,,,,,1,,,,,,,,,,,,,,,,,,,,,,,,,,,,,,,,,,,,,91,click the 1 key.,,,,,497.258,498.7906,1,1,1.0044,,0,63,63,90,1,REAL,FAKE,,,,,,,,,,,,,,,,,
,,,,,,,,,6647ce8c4b8ee105144eb431,Spanish,13 or older,"no, only English or Spanish",no,2025-07-24_06h02.55.962,empathy_intonation_perc_control,2024.2.4,Win32,60.97560976,6647ce8c4b8ee105144eb431,68817205a84113384fffdfe3,6882049ad7cc1c94da3eb9a7,,,,,,,,,,,,,1,,,,,,,,,,,,,,,,,,,,,,,,,,,,,,,,,,,,,83,guante,,,,,498.7916,500.3409,1,1,1.0121,,0,64,64,82,1,REAL,FAKE,,,,,,,,,,,,,,,,,
,,,,,,,,,6647ce8c4b8ee105144eb431,Spanish,13 or older,"no, only English or Spanish",no,2025-07-24_06h02.55.962,empathy_intonation_perc_control,2024.2.4,Win32,60.97560976,6647ce8c4b8ee105144eb431,68817205a84113384fffdfe3,6882049ad7cc1c94da3eb9a7,,,,,,,,,,,,,1,,,,,,,,,,,,,,,,,,,,,,,,,,,,,,,,,,,,,56,musgo,,,,,500.347,501.6232,0,0,0.7452,,0,65,65,55,1,REAL,FAKE,,,,,,,,,,,,,,,,,
,,,,,,,,,6647ce8c4b8ee105144eb431,Spanish,13 or older,"no, only English or Spanish",no,2025-07-24_06h02.55.962,empathy_intonation_perc_control,2024.2.4,Win32,60.97560976,6647ce8c4b8ee105144eb431,68817205a84113384fffdfe3,6882049ad7cc1c94da3eb9a7,,,,,,,,,,,,,1,,,,,,,,,,,,,,,,,,,,,,,,,,,,,,,,,,,,,14,yunque,,,,,501.6276,503.2387,0,0,1.0823,,0,66,66,13,1,REAL,FAKE,,,,,,,,,,,,,,,,,
,,,,,,,,,6647ce8c4b8ee105144eb431,Spanish,13 or older,"no, only English or Spanish",no,2025-07-24_06h02.55.962,empathy_intonation_perc_control,2024.2.4,Win32,60.97560976,6647ce8c4b8ee105144eb431,68817205a84113384fffdfe3,6882049ad7cc1c94da3eb9a7,,,,,,,,,,,,,0,,,,,,,,,,,,,,,,,,,,,,,,,,,,,,,,,,,,,18,arsa,,,,,503.2468,504.8722,0,1,1.0962,,0,67,67,17,1,REAL,FAKE,,,,,,,,,,,,,,,,,
,,,,,,,,,6647ce8c4b8ee105144eb431,Spanish,13 or older,"no, only English or Spanish",no,2025-07-24_06h02.55.962,empathy_intonation_perc_control,2024.2.4,Win32,60.97560976,6647ce8c4b8ee105144eb431,68817205a84113384fffdfe3,6882049ad7cc1c94da3eb9a7,,,,,,,,,,,,,1,,,,,,,,,,,,,,,,,,,,,,,,,,,,,,,,,,,,,65,bizcocho,,,,,504.8772,507.1179,0,0,1.7097,,0,68,68,64,1,REAL,FAKE,,,,,,,,,,,,,,,,,
,,,,,,,,,6647ce8c4b8ee105144eb431,Spanish,13 or older,"no, only English or Spanish",no,2025-07-24_06h02.55.962,empathy_intonation_perc_control,2024.2.4,Win32,60.97560976,6647ce8c4b8ee105144eb431,68817205a84113384fffdfe3,6882049ad7cc1c94da3eb9a7,,,,,,,,,,,,,1,,,,,,,,,,,,,,,,,,,,,,,,,,,,,,,,,,,,,38,estornudar,,,,,507.1217,508.9656,0,0,1.3048,,0,69,69,37,1,REAL,FAKE,,,,,,,,,,,,,,,,,
,,,,,,,,,6647ce8c4b8ee105144eb431,Spanish,13 or older,"no, only English or Spanish",no,2025-07-24_06h02.55.962,empathy_intonation_perc_control,2024.2.4,Win32,60.97560976,6647ce8c4b8ee105144eb431,68817205a84113384fffdfe3,6882049ad7cc1c94da3eb9a7,,,,,,,,,,,,,1,,,,,,,,,,,,,,,,,,,,,,,,,,,,,,,,,,,,,77,tiburón,,,,,508.9718,510.3974,0,0,0.8941,,0,70,70,76,1,REAL,FAKE,,,,,,,,,,,,,,,,,
,,,,,,,,,6647ce8c4b8ee105144eb431,Spanish,13 or older,"no, only English or Spanish",no,2025-07-24_06h02.55.962,empathy_intonation_perc_control,2024.2.4,Win32,60.97560976,6647ce8c4b8ee105144eb431,68817205a84113384fffdfe3,6882049ad7cc1c94da3eb9a7,,,,,,,,,,,,,1,,,,,,,,,,,,,,,,,,,,,,,,,,,,,,,,,,,,,51,candado,,,,,510.4055,511.7864,1,1,0.8437,,0,71,71,50,1,REAL,FAKE,,,,,,,,,,,,,,,,,
,,,,,,,,,6647ce8c4b8ee105144eb431,Spanish,13 or older,"no, only English or Spanish",no,2025-07-24_06h02.55.962,empathy_intonation_perc_control,2024.2.4,Win32,60.97560976,6647ce8c4b8ee105144eb431,68817205a84113384fffdfe3,6882049ad7cc1c94da3eb9a7,,,,,,,,,,,,,0,,,,,,,,,,,,,,,,,,,,,,,,,,,,,,,,,,,,,66,hacido,,,,,511.791,513.1,1,0,0.7803,,0,72,72,65,1,REAL,FAKE,,,,,,,,,,,,,,,,,
,,,,,,,,,6647ce8c4b8ee105144eb431,Spanish,13 or older,"no, only English or Spanish",no,2025-07-24_06h02.55.962,empathy_intonation_perc_control,2024.2.4,Win32,60.97560976,6647ce8c4b8ee105144eb431,68817205a84113384fffdfe3,6882049ad7cc1c94da3eb9a7,,,,,,,,,,,,,0,,,,,,,,,,,,,,,,,,,,,,,,,,,,,,,,,,,,,21,capillo,,,,,513.1031,515.1861,1,0,1.5545,,0,73,73,20,1,REAL,FAKE,,,,,,,,,,,,,,,,,
,,,,,,,,,6647ce8c4b8ee105144eb431,Spanish,13 or older,"no, only English or Spanish",no,2025-07-24_06h02.55.962,empathy_intonation_perc_control,2024.2.4,Win32,60.97560976,6647ce8c4b8ee105144eb431,68817205a84113384fffdfe3,6882049ad7cc1c94da3eb9a7,,,,,,,,,,,,,1,,,,,,,,,,,,,,,,,,,,,,,,,,,,,,,,,,,,,64,orgulloso,,,,,515.1886,516.6583,0,0,0.9334,,0,74,74,63,1,REAL,FAKE,,,,,,,,,,,,,,,,,
,,,,,,,,,6647ce8c4b8ee105144eb431,Spanish,13 or older,"no, only English or Spanish",no,2025-07-24_06h02.55.962,empathy_intonation_perc_control,2024.2.4,Win32,60.97560976,6647ce8c4b8ee105144eb431,68817205a84113384fffdfe3,6882049ad7cc1c94da3eb9a7,,,,,,,,,,,,,1,,,,,,,,,,,,,,,,,,,,,,,,,,,,,,,,,,,,,36,loro,,,,,516.6634,517.9445,0,0,0.7482,,0,75,75,35,1,REAL,FAKE,,,,,,,,,,,,,,,,,
,,,,,,,,,6647ce8c4b8ee105144eb431,Spanish,13 or older,"no, only English or Spanish",no,2025-07-24_06h02.55.962,empathy_intonation_perc_control,2024.2.4,Win32,60.97560976,6647ce8c4b8ee105144eb431,68817205a84113384fffdfe3,6882049ad7cc1c94da3eb9a7,,,,,,,,,,,,,1,,,,,,,,,,,,,,,,,,,,,,,,,,,,,,,,,,,,,52,camisa,,,,,517.9501,519.2885,1,1,0.8083,,0,76,76,51,1,REAL,FAKE,,,,,,,,,,,,,,,,,
,,,,,,,,,6647ce8c4b8ee105144eb431,Spanish,13 or older,"no, only English or Spanish",no,2025-07-24_06h02.55.962,empathy_intonation_perc_control,2024.2.4,Win32,60.97560976,6647ce8c4b8ee105144eb431,68817205a84113384fffdfe3,6882049ad7cc1c94da3eb9a7,,,,,,,,,,,,,1,,,,,,,,,,,,,,,,,,,,,,,,,,,,,,,,,,,,,60,matar,,,,,519.2916,523.0192,0,0,3.1915,,0,77,77,59,1,REAL,FAKE,,,,,,,,,,,,,,,,,
,,,,,,,,,6647ce8c4b8ee105144eb431,Spanish,13 or older,"no, only English or Spanish",no,2025-07-24_06h02.55.962,empathy_intonation_perc_control,2024.2.4,Win32,60.97560976,6647ce8c4b8ee105144eb431,68817205a84113384fffdfe3,6882049ad7cc1c94da3eb9a7,,,,,,,,,,,,,1,,,,,,,,,,,,,,,,,,,,,,,,,,,,,,,,,,,,,57,tacaño,,,,,523.0277,524.2001,1,1,0.6505,,0,78,78,56,1,REAL,FAKE,,,,,,,,,,,,,,,,,
,,,,,,,,,6647ce8c4b8ee105144eb431,Spanish,13 or older,"no, only English or Spanish",no,2025-07-24_06h02.55.962,empathy_intonation_perc_control,2024.2.4,Win32,60.97560976,6647ce8c4b8ee105144eb431,68817205a84113384fffdfe3,6882049ad7cc1c94da3eb9a7,,,,,,,,,,,,,0,,,,,,,,,,,,,,,,,,,,,,,,,,,,,,,,,,,,,17,floroso,,,,,524.2014,527.0987,1,0,2.356,,0,79,79,16,1,REAL,FAKE,,,,,,,,,,,,,,,,,
,,,,,,,,,6647ce8c4b8ee105144eb431,Spanish,13 or older,"no, only English or Spanish",no,2025-07-24_06h02.55.962,empathy_intonation_perc_control,2024.2.4,Win32,60.97560976,6647ce8c4b8ee105144eb431,68817205a84113384fffdfe3,6882049ad7cc1c94da3eb9a7,,,,,,,,,,,,,1,,,,,,,,,,,,,,,,,,,,,,,,,,,,,,,,,,,,,89,prisa,,,,,527.1054,528.5383,1,1,0.8967,,0,80,80,88,1,REAL,FAKE,,,,,,,,,,,,,,,,,
,,,,,,,,,6647ce8c4b8ee105144eb431,Spanish,13 or older,"no, only English or Spanish",no,2025-07-24_06h02.55.962,empathy_intonation_perc_control,2024.2.4,Win32,60.97560976,6647ce8c4b8ee105144eb431,68817205a84113384fffdfe3,6882049ad7cc1c94da3eb9a7,,,,,,,,,,,,,0,,,,,,,,,,,,,,,,,,,,,,,,,,,,,,,,,,,,,72,pemición,,,,,528.5431,530.3481,0,1,1.271,,0,81,81,71,1,REAL,FAKE,,,,,,,,,,,,,,,,,
,,,,,,,,,6647ce8c4b8ee105144eb431,Spanish,13 or older,"no, only English or Spanish",no,2025-07-24_06h02.55.962,empathy_intonation_perc_control,2024.2.4,Win32,60.97560976,6647ce8c4b8ee105144eb431,68817205a84113384fffdfe3,6882049ad7cc1c94da3eb9a7,,,,,,,,,,,,,0,,,,,,,,,,,,,,,,,,,,,,,,,,,,,,,,,,,,,47,cartinar,,,,,530.3526,532.942,1,0,2.0595,,0,82,82,46,1,REAL,FAKE,,,,,,,,,,,,,,,,,
,,,,,,,,,6647ce8c4b8ee105144eb431,Spanish,13 or older,"no, only English or Spanish",no,2025-07-24_06h02.55.962,empathy_intonation_perc_control,2024.2.4,Win32,60.97560976,6647ce8c4b8ee105144eb431,68817205a84113384fffdfe3,6882049ad7cc1c94da3eb9a7,,,,,,,,,,,,,0,,,,,,,,,,,,,,,,,,,,,,,,,,,,,,,,,,,,,70,temblo,,,,,532.9442,534.558,0,1,1.0675,,0,83,83,69,1,REAL,FAKE,,,,,,,,,,,,,,,,,
,,,,,,,,,6647ce8c4b8ee105144eb431,Spanish,13 or older,"no, only English or Spanish",no,2025-07-24_06h02.55.962,empathy_intonation_perc_control,2024.2.4,Win32,60.97560976,6647ce8c4b8ee105144eb431,68817205a84113384fffdfe3,6882049ad7cc1c94da3eb9a7,,,,,,,,,,,,,1,,,,,,,,,,,,,,,,,,,,,,,,,,,,,,,,,,,,,73,hervidor,,,,,534.564,535.8988,0,0,0.7979,,0,84,84,72,1,REAL,FAKE,,,,,,,,,,,,,,,,,
,,,,,,,,,6647ce8c4b8ee105144eb431,Spanish,13 or older,"no, only English or Spanish",no,2025-07-24_06h02.55.962,empathy_intonation_perc_control,2024.2.4,Win32,60.97560976,6647ce8c4b8ee105144eb431,68817205a84113384fffdfe3,6882049ad7cc1c94da3eb9a7,,,,,,,,,,,,,0,,,,,,,,,,,,,,,,,,,,,,,,,,,,,,,,,,,,,27,acutación,,,,,535.9018,538.3416,0,1,1.9124,,0,85,85,26,1,REAL,FAKE,,,,,,,,,,,,,,,,,
,,,,,,,,,6647ce8c4b8ee105144eb431,Spanish,13 or older,"no, only English or Spanish",no,2025-07-24_06h02.55.962,empathy_intonation_perc_control,2024.2.4,Win32,60.97560976,6647ce8c4b8ee105144eb431,68817205a84113384fffdfe3,6882049ad7cc1c94da3eb9a7,,,,,,,,,,,,,1,,,,,,,,,,,,,,,,,,,,,,,,,,,,,,,,,,,,,49,ganar,,,,,538.348,541.2717,1,1,2.3957,,0,86,86,48,1,REAL,FAKE,,,,,,,,,,,,,,,,,
,,,,,,,,,6647ce8c4b8ee105144eb431,Spanish,13 or older,"no, only English or Spanish",no,2025-07-24_06h02.55.962,empathy_intonation_perc_control,2024.2.4,Win32,60.97560976,6647ce8c4b8ee105144eb431,68817205a84113384fffdfe3,6882049ad7cc1c94da3eb9a7,,,,,,,,,,,,,0,,,,,,,,,,,,,,,,,,,,,,,,,,,,,,,,,,,,,35,rompido,,,,,541.2784,542.4194,0,1,0.6118,,0,87,87,34,1,REAL,FAKE,,,,,,,,,,,,,,,,,
,,,,,,,,,6647ce8c4b8ee105144eb431,Spanish,13 or older,"no, only English or Spanish",no,2025-07-24_06h02.55.962,empathy_intonation_perc_control,2024.2.4,Win32,60.97560976,6647ce8c4b8ee105144eb431,68817205a84113384fffdfe3,6882049ad7cc1c94da3eb9a7,,,,,,,,,,,,,1,,,,,,,,,,,,,,,,,,,,,,,,,,,,,,,,,,,,,41,rebuscar,,,,,542.4258,547.8614,0,0,4.9065,,0,88,88,40,1,REAL,FAKE,,,,,,,,,,,,,,,,,
,,,,,,,,,6647ce8c4b8ee105144eb431,Spanish,13 or older,"no, only English or Spanish",no,2025-07-24_06h02.55.962,empathy_intonation_perc_control,2024.2.4,Win32,60.97560976,6647ce8c4b8ee105144eb431,68817205a84113384fffdfe3,6882049ad7cc1c94da3eb9a7,,,,,,,,,,,,,0,,,,,,,,,,,,,,,,,,,,,,,,,,,,,,,,,,,,,8,cadeña,,,,,547.8637,549.66,0,1,1.2513,,0,89,89,7,1,REAL,FAKE,,,,,,,,,,,,,,,,,
,,,,,,,,,6647ce8c4b8ee105144eb431,Spanish,13 or older,"no, only English or Spanish",no,2025-07-24_06h02.55.962,empathy_intonation_perc_control,2024.2.4,Win32,60.97560976,6647ce8c4b8ee105144eb431,68817205a84113384fffdfe3,6882049ad7cc1c94da3eb9a7,,,,,,,,,,,,,1,,,,,,,,,,,,,,,,,,,,,,,,,,,,,,,,,,,,,6,tergiversar,,,,,549.6634,551.2581,0,0,1.0568,,0,90,90,5,1,REAL,FAKE,,,,,,,,,,,,,,,,,
,,,,,,,,,6647ce8c4b8ee105144eb431,Spanish,13 or older,"no, only English or Spanish",no,2025-07-24_06h02.55.962,empathy_intonation_perc_control,2024.2.4,Win32,60.97560976,6647ce8c4b8ee105144eb431,68817205a84113384fffdfe3,6882049ad7cc1c94da3eb9a7,,,,,,,,,,,,,0,,,,,,,,,,,,,,,,,,,,,,,,,,,,,,,,,,,,,79,tropaje,,,,,551.2604,553.442,0,1,1.6489,,0,91,91,78,1,REAL,FAKE,,,,,,,,,,,,,,,,,
,,,,,,,,,6647ce8c4b8ee105144eb431,Spanish,13 or older,"no, only English or Spanish",no,2025-07-24_06h02.55.962,empathy_intonation_perc_control,2024.2.4,Win32,60.97560976,6647ce8c4b8ee105144eb431,68817205a84113384fffdfe3,6882049ad7cc1c94da3eb9a7,,,,,,,,,,,,,,,,,,,,,,,,,,,,,,,,,,,,,,,,,,,,,,,,,,,,,,,,,,,,,,,,,,,,,553.4445,567.2845,,,,,,,,,,,,,,,
,,,,,,,,,6647ce8c4b8ee105144eb431,Spanish,13 or older,"no, only English or Spanish",no,2025-07-24_06h02.55.962,empathy_intonation_perc_control,2024.2.4,Win32,60.97560976,6647ce8c4b8ee105144eb431,68817205a84113384fffdfe3,6882049ad7cc1c94da3eb9a7,,,,,,,,,,,,,,,,,,,,,,,,,,,1,,,,,,,,,,,,,,,,,,,,,,,,,,,,,,,,,,,,,,,,,,,,567.3112,577.4204,slightly agree,0,0,0,0,1,I can easily tell if someone else wants to enter a conversation.,1,0,1,0,,
,,,,,,,,,6647ce8c4b8ee105144eb431,Spanish,13 or older,"no, only English or Spanish",no,2025-07-24_06h02.55.962,empathy_intonation_perc_control,2024.2.4,Win32,60.97560976,6647ce8c4b8ee105144eb431,68817205a84113384fffdfe3,6882049ad7cc1c94da3eb9a7,,,,,,,,,,,,,,,,,,,,,,,,,,,2,,,,,,,,,,,,,,,,,,,,,,,,,,,,,,,,,,,,,,,,,,,,577.4242,581.9807,slightly disagree,0,1,1,1,1,I prefer animals to humans.,0,1,0,0,,
,,,,,,,,,6647ce8c4b8ee105144eb431,Spanish,13 or older,"no, only English or Spanish",no,2025-07-24_06h02.55.962,empathy_intonation_perc_control,2024.2.4,Win32,60.97560976,6647ce8c4b8ee105144eb431,68817205a84113384fffdfe3,6882049ad7cc1c94da3eb9a7,,,,,,,,,,,,,,,,,,,,,,,,,,,3,,,,,,,,,,,,,,,,,,,,,,,,,,,,,,,,,,,,,,,,,,,,581.9842,586.4768,slightly disagree,0,2,2,2,1,I try to keep up with the current trends and fashions.,0,1,0,0,,
,,,,,,,,,6647ce8c4b8ee105144eb431,Spanish,13 or older,"no, only English or Spanish",no,2025-07-24_06h02.55.962,empathy_intonation_perc_control,2024.2.4,Win32,60.97560976,6647ce8c4b8ee105144eb431,68817205a84113384fffdfe3,6882049ad7cc1c94da3eb9a7,,,,,,,,,,,,,,,,,,,,,,,,,,,4,,,,,,,,,,,,,,,,,,,,,,,,,,,,,,,,,,,,,,,,,,,,586.4811,606.0739,slightly agree,0,3,3,3,1,"I find it difficult to explain to others things that I understand easily,   when they don't understand it first time.",1,0,0,1,,
,,,,,,,,,6647ce8c4b8ee105144eb431,Spanish,13 or older,"no, only English or Spanish",no,2025-07-24_06h02.55.962,empathy_intonation_perc_control,2024.2.4,Win32,60.97560976,6647ce8c4b8ee105144eb431,68817205a84113384fffdfe3,6882049ad7cc1c94da3eb9a7,,,,,,,,,,,,,,,,,,,,,,,,,,,5,,,,,,,,,,,,,,,,,,,,,,,,,,,,,,,,,,,,,,,,,,,,606.0758,609.4374,slightly disagree,0,4,4,4,1,I dream most nights.,0,1,0,0,,
,,,,,,,,,6647ce8c4b8ee105144eb431,Spanish,13 or older,"no, only English or Spanish",no,2025-07-24_06h02.55.962,empathy_intonation_perc_control,2024.2.4,Win32,60.97560976,6647ce8c4b8ee105144eb431,68817205a84113384fffdfe3,6882049ad7cc1c94da3eb9a7,,,,,,,,,,,,,,,,,,,,,,,,,,,6,,,,,,,,,,,,,,,,,,,,,,,,,,,,,,,,,,,,,,,,,,,,609.4404,619.5777,slightly agree,0,5,5,5,1,I really enjoy caring for other people.,1,0,1,0,,
,,,,,,,,,6647ce8c4b8ee105144eb431,Spanish,13 or older,"no, only English or Spanish",no,2025-07-24_06h02.55.962,empathy_intonation_perc_control,2024.2.4,Win32,60.97560976,6647ce8c4b8ee105144eb431,68817205a84113384fffdfe3,6882049ad7cc1c94da3eb9a7,,,,,,,,,,,,,,,,,,,,,,,,,,,7,,,,,,,,,,,,,,,,,,,,,,,,,,,,,,,,,,,,,,,,,,,,619.5814,624.5399,slightly disagree,0,6,6,6,1,I try to solve my own problems rather than discussing them with others.,0,1,0,0,,
,,,,,,,,,6647ce8c4b8ee105144eb431,Spanish,13 or older,"no, only English or Spanish",no,2025-07-24_06h02.55.962,empathy_intonation_perc_control,2024.2.4,Win32,60.97560976,6647ce8c4b8ee105144eb431,68817205a84113384fffdfe3,6882049ad7cc1c94da3eb9a7,,,,,,,,,,,,,,,,,,,,,,,,,,,8,,,,,,,,,,,,,,,,,,,,,,,,,,,,,,,,,,,,,,,,,,,,624.5434,630.7675,slightly agree,0,7,7,7,1,I find it hard to know what to do in a social situation.,1,0,0,1,,
,,,,,,,,,6647ce8c4b8ee105144eb431,Spanish,13 or older,"no, only English or Spanish",no,2025-07-24_06h02.55.962,empathy_intonation_perc_control,2024.2.4,Win32,60.97560976,6647ce8c4b8ee105144eb431,68817205a84113384fffdfe3,6882049ad7cc1c94da3eb9a7,,,,,,,,,,,,,,,,,,,,,,,,,,,9,,,,,,,,,,,,,,,,,,,,,,,,,,,,,,,,,,,,,,,,,,,,630.77,637.3121,strongly agree,0,8,8,8,1,I am at my best first thing in the morning.,0,1,0,0,,
,,,,,,,,,6647ce8c4b8ee105144eb431,Spanish,13 or older,"no, only English or Spanish",no,2025-07-24_06h02.55.962,empathy_intonation_perc_control,2024.2.4,Win32,60.97560976,6647ce8c4b8ee105144eb431,68817205a84113384fffdfe3,6882049ad7cc1c94da3eb9a7,,,,,,,,,,,,,,,,,,,,,,,,,,,10,,,,,,,,,,,,,,,,,,,,,,,,,,,,,,,,,,,,,,,,,,,,637.3148,643.7886,slightly disagree,0,9,9,9,1,People often tell me that I went too far in driving my point home in a discussion.,1,0,0,1,,
,,,,,,,,,6647ce8c4b8ee105144eb431,Spanish,13 or older,"no, only English or Spanish",no,2025-07-24_06h02.55.962,empathy_intonation_perc_control,2024.2.4,Win32,60.97560976,6647ce8c4b8ee105144eb431,68817205a84113384fffdfe3,6882049ad7cc1c94da3eb9a7,,,,,,,,,,,,,,,,,,,,,,,,,,,11,,,,,,,,,,,,,,,,,,,,,,,,,,,,,,,,,,,,,,,,,,,,643.7914,654.9448,strongly disagree,0,10,10,10,1,It doesn't bother me too much if I am late meeting a friend.,1,0,0,1,,
,,,,,,,,,6647ce8c4b8ee105144eb431,Spanish,13 or older,"no, only English or Spanish",no,2025-07-24_06h02.55.962,empathy_intonation_perc_control,2024.2.4,Win32,60.97560976,6647ce8c4b8ee105144eb431,68817205a84113384fffdfe3,6882049ad7cc1c94da3eb9a7,,,,,,,,,,,,,,,,,,,,,,,,,,,12,,,,,,,,,,,,,,,,,,,,,,,,,,,,,,,,,,,,,,,,,,,,654.948,664.7531,strongly disagree,0,11,11,11,1,"Friendships and relationships are just too difficult, so I tend not to 
  bother with them.",1,0,0,1,,
,,,,,,,,,6647ce8c4b8ee105144eb431,Spanish,13 or older,"no, only English or Spanish",no,2025-07-24_06h02.55.962,empathy_intonation_perc_control,2024.2.4,Win32,60.97560976,6647ce8c4b8ee105144eb431,68817205a84113384fffdfe3,6882049ad7cc1c94da3eb9a7,,,,,,,,,,,,,,,,,,,,,,,,,,,13,,,,,,,,,,,,,,,,,,,,,,,,,,,,,,,,,,,,,,,,,,,,664.758,673.6603,slightly disagree,0,12,12,12,1,"I would never break a law, no matter how minor.",0,1,0,0,,
,,,,,,,,,6647ce8c4b8ee105144eb431,Spanish,13 or older,"no, only English or Spanish",no,2025-07-24_06h02.55.962,empathy_intonation_perc_control,2024.2.4,Win32,60.97560976,6647ce8c4b8ee105144eb431,68817205a84113384fffdfe3,6882049ad7cc1c94da3eb9a7,,,,,,,,,,,,,,,,,,,,,,,,,,,14,,,,,,,,,,,,,,,,,,,,,,,,,,,,,,,,,,,,,,,,,,,,673.6636,702.0841,slightly agree,0,13,13,13,1,I often find it difficult to judge if something is rude or polite.,1,0,0,1,,
,,,,,,,,,6647ce8c4b8ee105144eb431,Spanish,13 or older,"no, only English or Spanish",no,2025-07-24_06h02.55.962,empathy_intonation_perc_control,2024.2.4,Win32,60.97560976,6647ce8c4b8ee105144eb431,68817205a84113384fffdfe3,6882049ad7cc1c94da3eb9a7,,,,,,,,,,,,,,,,,,,,,,,,,,,15,,,,,,,,,,,,,,,,,,,,,,,,,,,,,,,,,,,,,,,,,,,,702.0869,708.5114,slightly disagree,0,14,14,14,1,"In a conversation, I tend to focus on my own thoughts rather than on what 
  my listener might be thinking.",1,0,0,1,,
,,,,,,,,,6647ce8c4b8ee105144eb431,Spanish,13 or older,"no, only English or Spanish",no,2025-07-24_06h02.55.962,empathy_intonation_perc_control,2024.2.4,Win32,60.97560976,6647ce8c4b8ee105144eb431,68817205a84113384fffdfe3,6882049ad7cc1c94da3eb9a7,,,,,,,,,,,,,,,,,,,,,,,,,,,16,,,,,,,,,,,,,,,,,,,,,,,,,,,,,,,,,,,,,,,,,,,,708.5136,720.45,strongly disagree,0,15,15,15,1,I prefer practical jokes to verbal humor.,0,1,0,0,,
,,,,,,,,,6647ce8c4b8ee105144eb431,Spanish,13 or older,"no, only English or Spanish",no,2025-07-24_06h02.55.962,empathy_intonation_perc_control,2024.2.4,Win32,60.97560976,6647ce8c4b8ee105144eb431,68817205a84113384fffdfe3,6882049ad7cc1c94da3eb9a7,,,,,,,,,,,,,,,,,,,,,,,,,,,17,,,,,,,,,,,,,,,,,,,,,,,,,,,,,,,,,,,,,,,,,,,,720.4534,725.3121,slightly disagree,0,16,16,16,1,I live life for today rather than the future.,0,1,0,0,,
,,,,,,,,,6647ce8c4b8ee105144eb431,Spanish,13 or older,"no, only English or Spanish",no,2025-07-24_06h02.55.962,empathy_intonation_perc_control,2024.2.4,Win32,60.97560976,6647ce8c4b8ee105144eb431,68817205a84113384fffdfe3,6882049ad7cc1c94da3eb9a7,,,,,,,,,,,,,,,,,,,,,,,,,,,18,,,,,,,,,,,,,,,,,,,,,,,,,,,,,,,,,,,,,,,,,,,,725.3159,731.3769,strongly disagree,0,17,17,17,1,"When I was a child, I enjoyed cutting up worms to see what would happen.",1,0,0,1,,
,,,,,,,,,6647ce8c4b8ee105144eb431,Spanish,13 or older,"no, only English or Spanish",no,2025-07-24_06h02.55.962,empathy_intonation_perc_control,2024.2.4,Win32,60.97560976,6647ce8c4b8ee105144eb431,68817205a84113384fffdfe3,6882049ad7cc1c94da3eb9a7,,,,,,,,,,,,,,,,,,,,,,,,,,,19,,,,,,,,,,,,,,,,,,,,,,,,,,,,,,,,,,,,,,,,,,,,731.3795,737.9847,slightly disagree,0,18,18,18,1,I can pick up quickly if someone says one thing but means another.,1,0,1,0,,
,,,,,,,,,6647ce8c4b8ee105144eb431,Spanish,13 or older,"no, only English or Spanish",no,2025-07-24_06h02.55.962,empathy_intonation_perc_control,2024.2.4,Win32,60.97560976,6647ce8c4b8ee105144eb431,68817205a84113384fffdfe3,6882049ad7cc1c94da3eb9a7,,,,,,,,,,,,,,,,,,,,,,,,,,,20,,,,,,,,,,,,,,,,,,,,,,,,,,,,,,,,,,,,,,,,,,,,737.9876,747.8747,slightly disagree,0,19,19,19,1,I tend to have very strong opinions about morality.,0,1,0,0,,
,,,,,,,,,6647ce8c4b8ee105144eb431,Spanish,13 or older,"no, only English or Spanish",no,2025-07-24_06h02.55.962,empathy_intonation_perc_control,2024.2.4,Win32,60.97560976,6647ce8c4b8ee105144eb431,68817205a84113384fffdfe3,6882049ad7cc1c94da3eb9a7,,,,,,,,,,,,,,,,,,,,,,,,,,,21,,,,,,,,,,,,,,,,,,,,,,,,,,,,,,,,,,,,,,,,,,,,747.8782,753.3359,slightly disagree,0,20,20,20,1,It is hard for me to see why some things upset people so much.,1,0,0,1,,
,,,,,,,,,6647ce8c4b8ee105144eb431,Spanish,13 or older,"no, only English or Spanish",no,2025-07-24_06h02.55.962,empathy_intonation_perc_control,2024.2.4,Win32,60.97560976,6647ce8c4b8ee105144eb431,68817205a84113384fffdfe3,6882049ad7cc1c94da3eb9a7,,,,,,,,,,,,,,,,,,,,,,,,,,,22,,,,,,,,,,,,,,,,,,,,,,,,,,,,,,,,,,,,,,,,,,,,753.3385,759.2471,slightly disagree,0,21,21,21,1,I find it easy to put myself in somebody else's shoes.,1,0,1,0,,
,,,,,,,,,6647ce8c4b8ee105144eb431,Spanish,13 or older,"no, only English or Spanish",no,2025-07-24_06h02.55.962,empathy_intonation_perc_control,2024.2.4,Win32,60.97560976,6647ce8c4b8ee105144eb431,68817205a84113384fffdfe3,6882049ad7cc1c94da3eb9a7,,,,,,,,,,,,,,,,,,,,,,,,,,,23,,,,,,,,,,,,,,,,,,,,,,,,,,,,,,,,,,,,,,,,,,,,759.2498,767.0731,slightly agree,0,22,22,22,1,I think that good manners are the most important thing a parent can teach their child.,0,1,0,0,,
,,,,,,,,,6647ce8c4b8ee105144eb431,Spanish,13 or older,"no, only English or Spanish",no,2025-07-24_06h02.55.962,empathy_intonation_perc_control,2024.2.4,Win32,60.97560976,6647ce8c4b8ee105144eb431,68817205a84113384fffdfe3,6882049ad7cc1c94da3eb9a7,,,,,,,,,,,,,,,,,,,,,,,,,,,24,,,,,,,,,,,,,,,,,,,,,,,,,,,,,,,,,,,,,,,,,,,,767.0747,775.267,slightly disagree,0,23,23,23,1,I like to do things on the spur of the moment.,0,1,0,0,,
,,,,,,,,,6647ce8c4b8ee105144eb431,Spanish,13 or older,"no, only English or Spanish",no,2025-07-24_06h02.55.962,empathy_intonation_perc_control,2024.2.4,Win32,60.97560976,6647ce8c4b8ee105144eb431,68817205a84113384fffdfe3,6882049ad7cc1c94da3eb9a7,,,,,,,,,,,,,,,,,,,,,,,,,,,25,,,,,,,,,,,,,,,,,,,,,,,,,,,,,,,,,,,,,,,,,,,,775.2699,780.4276,slightly disagree,0,24,24,24,1,I am good at predicting how someone will feel.,1,0,1,0,,
