instructions_2afc.started,instructions_2afc.stopped,instructions_2afc_loop.thisRepN,instructions_2afc_loop.thisTrialN,instructions_2afc_loop.thisN,instructions_2afc_loop.thisIndex,instructions_2afc_loop.ran,instructions_text,continue_text,participant_id,"What variety of Spanish are you most familiar with? (e.g., Peruvian, Spanish, Mexican)",At what age did you begin learning Spanish?,Are you proficient in any languages other than English/Spanish?,"Are you familiar with Caribbean (e.g., Caribbean, Puerto Rican) or Galician Spanish?",date,expName,psychopyVersion,OS,frameRate,id,study_id,session,practice_2afc.started,practice_2afc.stopped,key_resp_2afc_practice.keys,key_resp_2afc_practice.corr,key_resp_2afc_practice.rt,key_resp_2afc_practice.duration,trials_2afc_practice_loop.thisRepN,trials_2afc_practice_loop.thisTrialN,trials_2afc_practice_loop.thisN,trials_2afc_practice_loop.thisIndex,trials_2afc_practice_loop.ran,path,correct_response,check_2afc.started,check_2afc.stopped,trial_2afc.started,trial_2afc.stopped,key_resp_2afc_trial.keys,key_resp_2afc_trial.corr,key_resp_2afc_trial.rt,key_resp_2afc_trial.duration,trials_2afc_loop.thisRepN,trials_2afc_loop.thisTrialN,trials_2afc_loop.thisN,trials_2afc_loop.thisIndex,trials_2afc_loop.ran,item_num,target,variety,instructions_lextale.started,instructions_lextale.stopped,instructions_lextale_loop.thisRepN,instructions_lextale_loop.thisTrialN,instructions_lextale_loop.thisN,instructions_lextale_loop.thisIndex,instructions_lextale_loop.ran,practice_lextale.started,practice_lextale.stopped,key_resp_lextale_practice.keys,key_resp_lextale_practice.corr,key_resp_lextale_practice.rt,key_resp_lextale_practice.duration,practice_feedback_lextale.started,practice_feedback_lextale.stopped,trials_lextale_practice_loop.thisRepN,trials_lextale_practice_loop.thisTrialN,trials_lextale_practice_loop.thisN,trials_lextale_practice_loop.thisIndex,trials_lextale_practice_loop.ran,stim,word,prac_button_real,prac_button_false,check_lextale.started,check_lextale.stopped,trial_lextale.started,trial_lextale.stopped,key_resp_lextale_trial.keys,key_resp_lextale_trial.corr,key_resp_lextale_trial.rt,key_resp_lextale_trial.duration,trials_lextale_loop.thisRepN,trials_lextale_loop.thisTrialN,trials_lextale_loop.thisN,trials_lextale_loop.thisIndex,trials_lextale_loop.ran,button_real,button_false,instructions_eq.started,instructions_eq.stopped,trial_eq.started,trial_eq.stopped,slider_eq_trial.response,trials_eq_loop.thisRepN,trials_eq_loop.thisTrialN,trials_eq_loop.thisN,trials_eq_loop.thisIndex,trials_eq_loop.ran,item,is_test_item,is_distractor,is_agree_score,is_disagree_score,end_exp.started,end_exp.stopped
0.0107,5.5175,0,0,0,0,1,"In the following task you are going to hear a series of utterances. 

  You will decide if the utterances sound like questions or not using your keyboard.", (press the spacebar to continue),664cef98bb2e4a28e1fce2cb,Puerto Rican,13 or older,"no, only English or Spanish",yes,2025-07-23_22h16.14.489,empathy_intonation_perc_control,2024.2.4,Win32,59.88023952,664cef98bb2e4a28e1fce2cb,68817205a84113384fffdfe3,6881974abef3badc2c03b831,,,,,,,,,,,,,,,,,,,,,,,,,,,,,,,,,,,,,,,,,,,,,,,,,,,,,,,,,,,,,,,,,,,,,,,,,,,,,,,,,,,,,
5.522,11.8698,0,1,1,1,1,"If you believe the utterance is a question, type '1' (for 'yes') and if you do not 
  believe it is a question type '0' (for 'no').

  Let's practice a bit...", (press the spacebar to continue),664cef98bb2e4a28e1fce2cb,Puerto Rican,13 or older,"no, only English or Spanish",yes,2025-07-23_22h16.14.489,empathy_intonation_perc_control,2024.2.4,Win32,59.88023952,664cef98bb2e4a28e1fce2cb,68817205a84113384fffdfe3,6881974abef3badc2c03b831,,,,,,,,,,,,,,,,,,,,,,,,,,,,,,,,,,,,,,,,,,,,,,,,,,,,,,,,,,,,,,,,,,,,,,,,,,,,,,,,,,,,,
,,,,,,,,,664cef98bb2e4a28e1fce2cb,Puerto Rican,13 or older,"no, only English or Spanish",yes,2025-07-23_22h16.14.489,empathy_intonation_perc_control,2024.2.4,Win32,59.88023952,664cef98bb2e4a28e1fce2cb,68817205a84113384fffdfe3,6881974abef3badc2c03b831,11.8834,14.9089,1,1,2.4982,,0,0,0,1,1,./stim/wavs/argentine_question_filler_Mi-vecino-habla-mucho.wav,1,,,,,,,,,,,,,,,,,,,,,,,,,,,,,,,,,,,,,,,,,,,,,,,,,,,,,,,,,,,,,,,,,,,,,,,,
,,,,,,,,,664cef98bb2e4a28e1fce2cb,Puerto Rican,13 or older,"no, only English or Spanish",yes,2025-07-23_22h16.14.489,empathy_intonation_perc_control,2024.2.4,Win32,59.88023952,664cef98bb2e4a28e1fce2cb,68817205a84113384fffdfe3,6881974abef3badc2c03b831,14.9104,17.7403,0,1,2.2981,,0,1,1,7,1,./stim/wavs/puertorican_statement_filler_La-nina-pinta-con-su-amiga.wav,0,,,,,,,,,,,,,,,,,,,,,,,,,,,,,,,,,,,,,,,,,,,,,,,,,,,,,,,,,,,,,,,,,,,,,,,,
,,,,,,,,,664cef98bb2e4a28e1fce2cb,Puerto Rican,13 or older,"no, only English or Spanish",yes,2025-07-23_22h16.14.489,empathy_intonation_perc_control,2024.2.4,Win32,59.88023952,664cef98bb2e4a28e1fce2cb,68817205a84113384fffdfe3,6881974abef3badc2c03b831,17.7418,20.287,0,1,2.0183,,0,2,2,4,1,./stim/wavs/cuban_statement_filler_Cocinabas-por-la-noche.wav,0,,,,,,,,,,,,,,,,,,,,,,,,,,,,,,,,,,,,,,,,,,,,,,,,,,,,,,,,,,,,,,,,,,,,,,,,
,,,,,,,,,664cef98bb2e4a28e1fce2cb,Puerto Rican,13 or older,"no, only English or Spanish",yes,2025-07-23_22h16.14.489,empathy_intonation_perc_control,2024.2.4,Win32,59.88023952,664cef98bb2e4a28e1fce2cb,68817205a84113384fffdfe3,6881974abef3badc2c03b831,20.2883,22.1687,1,1,1.3518,,0,3,3,2,1,./stim/wavs/chilean_question_filler_Mi-padre-cantaba-bien.wav,1,,,,,,,,,,,,,,,,,,,,,,,,,,,,,,,,,,,,,,,,,,,,,,,,,,,,,,,,,,,,,,,,,,,,,,,,
,,,,,,,,,664cef98bb2e4a28e1fce2cb,Puerto Rican,13 or older,"no, only English or Spanish",yes,2025-07-23_22h16.14.489,empathy_intonation_perc_control,2024.2.4,Win32,59.88023952,664cef98bb2e4a28e1fce2cb,68817205a84113384fffdfe3,6881974abef3badc2c03b831,22.1698,24.4997,1,1,1.8025,,0,4,4,3,1,./stim/wavs/mexican_question_filler_Felipe-no-tiene-contrasena.wav,1,,,,,,,,,,,,,,,,,,,,,,,,,,,,,,,,,,,,,,,,,,,,,,,,,,,,,,,,,,,,,,,,,,,,,,,,
,,,,,,,,,664cef98bb2e4a28e1fce2cb,Puerto Rican,13 or older,"no, only English or Spanish",yes,2025-07-23_22h16.14.489,empathy_intonation_perc_control,2024.2.4,Win32,59.88023952,664cef98bb2e4a28e1fce2cb,68817205a84113384fffdfe3,6881974abef3badc2c03b831,24.5007,27.0144,1,1,1.9882,,0,5,5,0,1,./stim/wavs/castilian_question_filler_Mi-esposo-conoce-al-chico.wav,1,,,,,,,,,,,,,,,,,,,,,,,,,,,,,,,,,,,,,,,,,,,,,,,,,,,,,,,,,,,,,,,,,,,,,,,,
,,,,,,,,,664cef98bb2e4a28e1fce2cb,Puerto Rican,13 or older,"no, only English or Spanish",yes,2025-07-23_22h16.14.489,empathy_intonation_perc_control,2024.2.4,Win32,59.88023952,664cef98bb2e4a28e1fce2cb,68817205a84113384fffdfe3,6881974abef3badc2c03b831,27.0155,30.3113,0,1,2.7664,,0,6,6,5,1,./stim/wavs/andalusian_statement_filler_Alberto-nunca-se-afeita.wav,0,,,,,,,,,,,,,,,,,,,,,,,,,,,,,,,,,,,,,,,,,,,,,,,,,,,,,,,,,,,,,,,,,,,,,,,,
,,,,,,,,,664cef98bb2e4a28e1fce2cb,Puerto Rican,13 or older,"no, only English or Spanish",yes,2025-07-23_22h16.14.489,empathy_intonation_perc_control,2024.2.4,Win32,59.88023952,664cef98bb2e4a28e1fce2cb,68817205a84113384fffdfe3,6881974abef3badc2c03b831,30.3119,33.0593,0,1,2.2178,,0,7,7,6,1,./stim/wavs/peruvian_statement_filler_El-nino-habla-con-su-madre.wav,0,,,,,,,,,,,,,,,,,,,,,,,,,,,,,,,,,,,,,,,,,,,,,,,,,,,,,,,,,,,,,,,,,,,,,,,,
,,,,,,,,,664cef98bb2e4a28e1fce2cb,Puerto Rican,13 or older,"no, only English or Spanish",yes,2025-07-23_22h16.14.489,empathy_intonation_perc_control,2024.2.4,Win32,59.88023952,664cef98bb2e4a28e1fce2cb,68817205a84113384fffdfe3,6881974abef3badc2c03b831,,,,,,,,,,,,,,33.0598,35.4747,,,,,,,,,,,,,,,,,,,,,,,,,,,,,,,,,,,,,,,,,,,,,,,,,,,,,,,,,,,,,,,,,,,,,,
,,,,,,,,,664cef98bb2e4a28e1fce2cb,Puerto Rican,13 or older,"no, only English or Spanish",yes,2025-07-23_22h16.14.489,empathy_intonation_perc_control,2024.2.4,Win32,59.88023952,664cef98bb2e4a28e1fce2cb,68817205a84113384fffdfe3,6881974abef3badc2c03b831,,,,,,,,,,,,./stim/wavs/puertorican_mismatch_declarative-broad-focus_El-bebe-comia-muy-bien.wav,0,,,35.4905,37.505,0,1,1.4901,,0,0,0,83,1,84,0,puertorican,,,,,,,,,,,,,,,,,,,,,,,,,,,,,,,,,,,,,,,,,,,,,,,,,,,,,,,,
,,,,,,,,,664cef98bb2e4a28e1fce2cb,Puerto Rican,13 or older,"no, only English or Spanish",yes,2025-07-23_22h16.14.489,empathy_intonation_perc_control,2024.2.4,Win32,59.88023952,664cef98bb2e4a28e1fce2cb,68817205a84113384fffdfe3,6881974abef3badc2c03b831,,,,,,,,,,,,./stim/wavs/cuban_mismatch_interrogative-total-yn_Mi-madre-come-la-fruta.wav,1,,,37.5058,39.5701,0,0,1.5368,,0,1,1,31,1,32,1,cuban,,,,,,,,,,,,,,,,,,,,,,,,,,,,,,,,,,,,,,,,,,,,,,,,,,,,,,,,
,,,,,,,,,664cef98bb2e4a28e1fce2cb,Puerto Rican,13 or older,"no, only English or Spanish",yes,2025-07-23_22h16.14.489,empathy_intonation_perc_control,2024.2.4,Win32,59.88023952,664cef98bb2e4a28e1fce2cb,68817205a84113384fffdfe3,6881974abef3badc2c03b831,,,,,,,,,,,,./stim/wavs/castilian_mismatch_declarative-broad-focus_Mi-tia-odia-la-lluvia.wav,0,,,39.5709,41.8179,0,1,1.7153,,0,2,2,72,1,73,0,castilian,,,,,,,,,,,,,,,,,,,,,,,,,,,,,,,,,,,,,,,,,,,,,,,,,,,,,,,,
,,,,,,,,,664cef98bb2e4a28e1fce2cb,Puerto Rican,13 or older,"no, only English or Spanish",yes,2025-07-23_22h16.14.489,empathy_intonation_perc_control,2024.2.4,Win32,59.88023952,664cef98bb2e4a28e1fce2cb,68817205a84113384fffdfe3,6881974abef3badc2c03b831,,,,,,,,,,,,./stim/wavs/puertorican_mismatch_declarative-broad-focus_La-nina-lava-el-plato.wav,0,,,41.8186,43.8495,0,1,1.5053,,0,3,3,87,1,88,0,puertorican,,,,,,,,,,,,,,,,,,,,,,,,,,,,,,,,,,,,,,,,,,,,,,,,,,,,,,,,
,,,,,,,,,664cef98bb2e4a28e1fce2cb,Puerto Rican,13 or older,"no, only English or Spanish",yes,2025-07-23_22h16.14.489,empathy_intonation_perc_control,2024.2.4,Win32,59.88023952,664cef98bb2e4a28e1fce2cb,68817205a84113384fffdfe3,6881974abef3badc2c03b831,,,,,,,,,,,,./stim/wavs/puertorican_match_declarative-broad-focus_Ana-lleva-el-abrigo.wav,0,,,43.8502,45.7645,0,1,1.3805,,0,4,4,62,1,63,0,puertorican,,,,,,,,,,,,,,,,,,,,,,,,,,,,,,,,,,,,,,,,,,,,,,,,,,,,,,,,
,,,,,,,,,664cef98bb2e4a28e1fce2cb,Puerto Rican,13 or older,"no, only English or Spanish",yes,2025-07-23_22h16.14.489,empathy_intonation_perc_control,2024.2.4,Win32,59.88023952,664cef98bb2e4a28e1fce2cb,68817205a84113384fffdfe3,6881974abef3badc2c03b831,,,,,,,,,,,,./stim/wavs/puertorican_match_interrogative-total-yn_Ana-lleva-el-abrigo.wav,1,,,45.765,47.5635,1,1,1.2723,,0,5,5,18,1,19,1,puertorican,,,,,,,,,,,,,,,,,,,,,,,,,,,,,,,,,,,,,,,,,,,,,,,,,,,,,,,,
,,,,,,,,,664cef98bb2e4a28e1fce2cb,Puerto Rican,13 or older,"no, only English or Spanish",yes,2025-07-23_22h16.14.489,empathy_intonation_perc_control,2024.2.4,Win32,59.88023952,664cef98bb2e4a28e1fce2cb,68817205a84113384fffdfe3,6881974abef3badc2c03b831,,,,,,,,,,,,./stim/wavs/cuban_mismatch_declarative-broad-focus_El-bebe-comia-muy-bien.wav,0,,,47.5644,49.6109,0,1,1.524,,0,6,6,73,1,74,0,cuban,,,,,,,,,,,,,,,,,,,,,,,,,,,,,,,,,,,,,,,,,,,,,,,,,,,,,,,,
,,,,,,,,,664cef98bb2e4a28e1fce2cb,Puerto Rican,13 or older,"no, only English or Spanish",yes,2025-07-23_22h16.14.489,empathy_intonation_perc_control,2024.2.4,Win32,59.88023952,664cef98bb2e4a28e1fce2cb,68817205a84113384fffdfe3,6881974abef3badc2c03b831,,,,,,,,,,,,./stim/wavs/castilian_match_declarative-broad-focus_David-leia-el-libro.wav,0,,,49.6116,51.8593,0,1,1.7238,,0,7,7,44,1,45,0,castilian,,,,,,,,,,,,,,,,,,,,,,,,,,,,,,,,,,,,,,,,,,,,,,,,,,,,,,,,
,,,,,,,,,664cef98bb2e4a28e1fce2cb,Puerto Rican,13 or older,"no, only English or Spanish",yes,2025-07-23_22h16.14.489,empathy_intonation_perc_control,2024.2.4,Win32,59.88023952,664cef98bb2e4a28e1fce2cb,68817205a84113384fffdfe3,6881974abef3badc2c03b831,,,,,,,,,,,,./stim/wavs/cuban_mismatch_interrogative-total-yn_Mi-tia-odia-la-lluvia.wav,1,,,51.8602,53.824,1,1,1.4336,,0,8,8,33,1,34,1,cuban,,,,,,,,,,,,,,,,,,,,,,,,,,,,,,,,,,,,,,,,,,,,,,,,,,,,,,,,
,,,,,,,,,664cef98bb2e4a28e1fce2cb,Puerto Rican,13 or older,"no, only English or Spanish",yes,2025-07-23_22h16.14.489,empathy_intonation_perc_control,2024.2.4,Win32,59.88023952,664cef98bb2e4a28e1fce2cb,68817205a84113384fffdfe3,6881974abef3badc2c03b831,,,,,,,,,,,,./stim/wavs/puertorican_match_declarative-broad-focus_Maria-bebe-el-vino.wav,0,,,53.8246,55.8893,0,1,1.5196,,0,9,9,67,1,68,0,puertorican,,,,,,,,,,,,,,,,,,,,,,,,,,,,,,,,,,,,,,,,,,,,,,,,,,,,,,,,
,,,,,,,,,664cef98bb2e4a28e1fce2cb,Puerto Rican,13 or older,"no, only English or Spanish",yes,2025-07-23_22h16.14.489,empathy_intonation_perc_control,2024.2.4,Win32,59.88023952,664cef98bb2e4a28e1fce2cb,68817205a84113384fffdfe3,6881974abef3badc2c03b831,,,,,,,,,,,,./stim/wavs/cuban_match_declarative-broad-focus_Mariano-habla-del-tiempo.wav,0,,,55.8901,58.1535,0,1,1.7371,,0,10,10,54,1,55,0,cuban,,,,,,,,,,,,,,,,,,,,,,,,,,,,,,,,,,,,,,,,,,,,,,,,,,,,,,,,
,,,,,,,,,664cef98bb2e4a28e1fce2cb,Puerto Rican,13 or older,"no, only English or Spanish",yes,2025-07-23_22h16.14.489,empathy_intonation_perc_control,2024.2.4,Win32,59.88023952,664cef98bb2e4a28e1fce2cb,68817205a84113384fffdfe3,6881974abef3badc2c03b831,,,,,,,,,,,,./stim/wavs/puertorican_mismatch_declarative-broad-focus_El-hombre-mira-la-luna.wav,0,,,58.1543,60.1851,0,1,1.4988,,0,11,11,84,1,85,0,puertorican,,,,,,,,,,,,,,,,,,,,,,,,,,,,,,,,,,,,,,,,,,,,,,,,,,,,,,,,
,,,,,,,,,664cef98bb2e4a28e1fce2cb,Puerto Rican,13 or older,"no, only English or Spanish",yes,2025-07-23_22h16.14.489,empathy_intonation_perc_control,2024.2.4,Win32,59.88023952,664cef98bb2e4a28e1fce2cb,68817205a84113384fffdfe3,6881974abef3badc2c03b831,,,,,,,,,,,,./stim/wavs/cuban_match_declarative-broad-focus_Manuela-vende-el-carro.wav,0,,,60.1855,62.3,0,1,1.5903,,0,12,12,52,1,53,0,cuban,,,,,,,,,,,,,,,,,,,,,,,,,,,,,,,,,,,,,,,,,,,,,,,,,,,,,,,,
,,,,,,,,,664cef98bb2e4a28e1fce2cb,Puerto Rican,13 or older,"no, only English or Spanish",yes,2025-07-23_22h16.14.489,empathy_intonation_perc_control,2024.2.4,Win32,59.88023952,664cef98bb2e4a28e1fce2cb,68817205a84113384fffdfe3,6881974abef3badc2c03b831,,,,,,,,,,,,./stim/wavs/castilian_match_interrogative-total-yn_David-leia-el-libro.wav,1,,,62.301,64.3816,1,1,1.5575,,0,13,13,0,1,1,0,castilian,,,,,,,,,,,,,,,,,,,,,,,,,,,,,,,,,,,,,,,,,,,,,,,,,,,,,,,,
,,,,,,,,,664cef98bb2e4a28e1fce2cb,Puerto Rican,13 or older,"no, only English or Spanish",yes,2025-07-23_22h16.14.489,empathy_intonation_perc_control,2024.2.4,Win32,59.88023952,664cef98bb2e4a28e1fce2cb,68817205a84113384fffdfe3,6881974abef3badc2c03b831,,,,,,,,,,,,./stim/wavs/cuban_match_declarative-broad-focus_Marta-abre-el-regalo.wav,0,,,64.3821,66.5129,0,1,1.5986,,0,14,14,55,1,56,0,cuban,,,,,,,,,,,,,,,,,,,,,,,,,,,,,,,,,,,,,,,,,,,,,,,,,,,,,,,,
,,,,,,,,,664cef98bb2e4a28e1fce2cb,Puerto Rican,13 or older,"no, only English or Spanish",yes,2025-07-23_22h16.14.489,empathy_intonation_perc_control,2024.2.4,Win32,59.88023952,664cef98bb2e4a28e1fce2cb,68817205a84113384fffdfe3,6881974abef3badc2c03b831,,,,,,,,,,,,./stim/wavs/castilian_match_declarative-broad-focus_Emilio-ama-la-marcha.wav,0,,,66.5133,68.6845,0,1,1.6482,,0,15,15,45,1,46,0,castilian,,,,,,,,,,,,,,,,,,,,,,,,,,,,,,,,,,,,,,,,,,,,,,,,,,,,,,,,
,,,,,,,,,664cef98bb2e4a28e1fce2cb,Puerto Rican,13 or older,"no, only English or Spanish",yes,2025-07-23_22h16.14.489,empathy_intonation_perc_control,2024.2.4,Win32,59.88023952,664cef98bb2e4a28e1fce2cb,68817205a84113384fffdfe3,6881974abef3badc2c03b831,,,,,,,,,,,,./stim/wavs/mexican_match_interrogative-total-yn_Marta-abre-el-regalo.wav,1,,,68.6857,70.5428,1,1,1.341,,0,16,16,17,1,18,0,mexican,,,,,,,,,,,,,,,,,,,,,,,,,,,,,,,,,,,,,,,,,,,,,,,,,,,,,,,,
,,,,,,,,,664cef98bb2e4a28e1fce2cb,Puerto Rican,13 or older,"no, only English or Spanish",yes,2025-07-23_22h16.14.489,empathy_intonation_perc_control,2024.2.4,Win32,59.88023952,664cef98bb2e4a28e1fce2cb,68817205a84113384fffdfe3,6881974abef3badc2c03b831,,,,,,,,,,,,./stim/wavs/castilian_match_interrogative-total-yn_Marta-abre-el-regalo.wav,1,,,70.5436,72.698,1,1,1.6311,,0,17,17,5,1,6,0,castilian,,,,,,,,,,,,,,,,,,,,,,,,,,,,,,,,,,,,,,,,,,,,,,,,,,,,,,,,
,,,,,,,,,664cef98bb2e4a28e1fce2cb,Puerto Rican,13 or older,"no, only English or Spanish",yes,2025-07-23_22h16.14.489,empathy_intonation_perc_control,2024.2.4,Win32,59.88023952,664cef98bb2e4a28e1fce2cb,68817205a84113384fffdfe3,6881974abef3badc2c03b831,,,,,,,,,,,,./stim/wavs/castilian_match_interrogative-total-yn_Emilio-ama-la-marcha.wav,1,,,72.6987,74.8065,1,1,1.583,,0,18,18,1,1,2,0,castilian,,,,,,,,,,,,,,,,,,,,,,,,,,,,,,,,,,,,,,,,,,,,,,,,,,,,,,,,
,,,,,,,,,664cef98bb2e4a28e1fce2cb,Puerto Rican,13 or older,"no, only English or Spanish",yes,2025-07-23_22h16.14.489,empathy_intonation_perc_control,2024.2.4,Win32,59.88023952,664cef98bb2e4a28e1fce2cb,68817205a84113384fffdfe3,6881974abef3badc2c03b831,,,,,,,,,,,,./stim/wavs/cuban_match_declarative-broad-focus_Daniel-iba-a-Bolivia.wav,0,,,74.8072,77.0368,0,1,1.7193,,0,19,19,51,1,52,0,cuban,,,,,,,,,,,,,,,,,,,,,,,,,,,,,,,,,,,,,,,,,,,,,,,,,,,,,,,,
,,,,,,,,,664cef98bb2e4a28e1fce2cb,Puerto Rican,13 or older,"no, only English or Spanish",yes,2025-07-23_22h16.14.489,empathy_intonation_perc_control,2024.2.4,Win32,59.88023952,664cef98bb2e4a28e1fce2cb,68817205a84113384fffdfe3,6881974abef3badc2c03b831,,,,,,,,,,,,./stim/wavs/mexican_match_declarative-broad-focus_Mariano-habla-del-tiempo.wav,0,,,77.0371,79.1187,0,1,1.5571,,0,20,20,60,1,61,0,mexican,,,,,,,,,,,,,,,,,,,,,,,,,,,,,,,,,,,,,,,,,,,,,,,,,,,,,,,,
,,,,,,,,,664cef98bb2e4a28e1fce2cb,Puerto Rican,13 or older,"no, only English or Spanish",yes,2025-07-23_22h16.14.489,empathy_intonation_perc_control,2024.2.4,Win32,59.88023952,664cef98bb2e4a28e1fce2cb,68817205a84113384fffdfe3,6881974abef3badc2c03b831,,,,,,,,,,,,./stim/wavs/puertorican_match_interrogative-total-yn_Maria-bebe-el-vino.wav,1,,,79.1197,80.8504,1,1,1.188,,0,21,21,23,1,24,1,puertorican,,,,,,,,,,,,,,,,,,,,,,,,,,,,,,,,,,,,,,,,,,,,,,,,,,,,,,,,
,,,,,,,,,664cef98bb2e4a28e1fce2cb,Puerto Rican,13 or older,"no, only English or Spanish",yes,2025-07-23_22h16.14.489,empathy_intonation_perc_control,2024.2.4,Win32,59.88023952,664cef98bb2e4a28e1fce2cb,68817205a84113384fffdfe3,6881974abef3badc2c03b831,,,,,,,,,,,,./stim/wavs/castilian_mismatch_interrogative-total-yn_Mi-tia-odia-la-lluvia.wav,1,,,80.8511,83.0484,1,1,1.6732,,0,22,22,28,1,29,0,castilian,,,,,,,,,,,,,,,,,,,,,,,,,,,,,,,,,,,,,,,,,,,,,,,,,,,,,,,,
,,,,,,,,,664cef98bb2e4a28e1fce2cb,Puerto Rican,13 or older,"no, only English or Spanish",yes,2025-07-23_22h16.14.489,empathy_intonation_perc_control,2024.2.4,Win32,59.88023952,664cef98bb2e4a28e1fce2cb,68817205a84113384fffdfe3,6881974abef3badc2c03b831,,,,,,,,,,,,./stim/wavs/mexican_mismatch_interrogative-total-yn_Mi-tia-odia-la-lluvia.wav,1,,,83.0494,84.98,1,1,1.4007,,0,23,23,38,1,39,0,mexican,,,,,,,,,,,,,,,,,,,,,,,,,,,,,,,,,,,,,,,,,,,,,,,,,,,,,,,,
,,,,,,,,,664cef98bb2e4a28e1fce2cb,Puerto Rican,13 or older,"no, only English or Spanish",yes,2025-07-23_22h16.14.489,empathy_intonation_perc_control,2024.2.4,Win32,59.88023952,664cef98bb2e4a28e1fce2cb,68817205a84113384fffdfe3,6881974abef3badc2c03b831,,,,,,,,,,,,./stim/wavs/puertorican_match_declarative-broad-focus_Daniel-iba-a-Bolivia.wav,0,,,84.9806,87.1282,0,1,1.6161,,0,24,24,63,1,64,0,puertorican,,,,,,,,,,,,,,,,,,,,,,,,,,,,,,,,,,,,,,,,,,,,,,,,,,,,,,,,
,,,,,,,,,664cef98bb2e4a28e1fce2cb,Puerto Rican,13 or older,"no, only English or Spanish",yes,2025-07-23_22h16.14.489,empathy_intonation_perc_control,2024.2.4,Win32,59.88023952,664cef98bb2e4a28e1fce2cb,68817205a84113384fffdfe3,6881974abef3badc2c03b831,,,,,,,,,,,,./stim/wavs/cuban_mismatch_declarative-broad-focus_La-nina-lava-el-plato.wav,0,,,87.129,89.1432,0,1,1.4828,,0,25,25,75,1,76,0,cuban,,,,,,,,,,,,,,,,,,,,,,,,,,,,,,,,,,,,,,,,,,,,,,,,,,,,,,,,
,,,,,,,,,664cef98bb2e4a28e1fce2cb,Puerto Rican,13 or older,"no, only English or Spanish",yes,2025-07-23_22h16.14.489,empathy_intonation_perc_control,2024.2.4,Win32,59.88023952,664cef98bb2e4a28e1fce2cb,68817205a84113384fffdfe3,6881974abef3badc2c03b831,,,,,,,,,,,,./stim/wavs/puertorican_match_interrogative-total-yn_David-leia-el-libro.wav,1,,,89.1439,91.049,1,1,1.3808,,0,26,26,20,1,21,1,puertorican,,,,,,,,,,,,,,,,,,,,,,,,,,,,,,,,,,,,,,,,,,,,,,,,,,,,,,,,
,,,,,,,,,664cef98bb2e4a28e1fce2cb,Puerto Rican,13 or older,"no, only English or Spanish",yes,2025-07-23_22h16.14.489,empathy_intonation_perc_control,2024.2.4,Win32,59.88023952,664cef98bb2e4a28e1fce2cb,68817205a84113384fffdfe3,6881974abef3badc2c03b831,,,,,,,,,,,,./stim/wavs/mexican_match_interrogative-total-yn_Daniel-iba-a-Bolivia.wav,1,,,91.0498,93.3396,1,1,1.7657,,0,27,27,13,1,14,0,mexican,,,,,,,,,,,,,,,,,,,,,,,,,,,,,,,,,,,,,,,,,,,,,,,,,,,,,,,,
,,,,,,,,,664cef98bb2e4a28e1fce2cb,Puerto Rican,13 or older,"no, only English or Spanish",yes,2025-07-23_22h16.14.489,empathy_intonation_perc_control,2024.2.4,Win32,59.88023952,664cef98bb2e4a28e1fce2cb,68817205a84113384fffdfe3,6881974abef3badc2c03b831,,,,,,,,,,,,./stim/wavs/puertorican_mismatch_interrogative-total-yn_El-hombre-mira-la-luna.wav,1,,,93.3404,95.1879,1,1,1.321,,0,28,28,39,1,40,1,puertorican,,,,,,,,,,,,,,,,,,,,,,,,,,,,,,,,,,,,,,,,,,,,,,,,,,,,,,,,
,,,,,,,,,664cef98bb2e4a28e1fce2cb,Puerto Rican,13 or older,"no, only English or Spanish",yes,2025-07-23_22h16.14.489,empathy_intonation_perc_control,2024.2.4,Win32,59.88023952,664cef98bb2e4a28e1fce2cb,68817205a84113384fffdfe3,6881974abef3badc2c03b831,,,,,,,,,,,,./stim/wavs/cuban_mismatch_declarative-broad-focus_El-hombre-mira-la-luna.wav,0,,,95.1888,97.4579,0,1,1.7458,,0,29,29,74,1,75,0,cuban,,,,,,,,,,,,,,,,,,,,,,,,,,,,,,,,,,,,,,,,,,,,,,,,,,,,,,,,
,,,,,,,,,664cef98bb2e4a28e1fce2cb,Puerto Rican,13 or older,"no, only English or Spanish",yes,2025-07-23_22h16.14.489,empathy_intonation_perc_control,2024.2.4,Win32,59.88023952,664cef98bb2e4a28e1fce2cb,68817205a84113384fffdfe3,6881974abef3badc2c03b831,,,,,,,,,,,,./stim/wavs/mexican_match_interrogative-total-yn_Ana-lleva-el-abrigo.wav,1,,,97.4588,99.5839,1,1,1.6045,,0,30,30,12,1,13,0,mexican,,,,,,,,,,,,,,,,,,,,,,,,,,,,,,,,,,,,,,,,,,,,,,,,,,,,,,,,
,,,,,,,,,664cef98bb2e4a28e1fce2cb,Puerto Rican,13 or older,"no, only English or Spanish",yes,2025-07-23_22h16.14.489,empathy_intonation_perc_control,2024.2.4,Win32,59.88023952,664cef98bb2e4a28e1fce2cb,68817205a84113384fffdfe3,6881974abef3badc2c03b831,,,,,,,,,,,,./stim/wavs/castilian_match_declarative-broad-focus_Mariano-habla-del-tiempo.wav,0,,,99.5849,101.6988,0,1,1.5829,,0,31,31,48,1,49,0,castilian,,,,,,,,,,,,,,,,,,,,,,,,,,,,,,,,,,,,,,,,,,,,,,,,,,,,,,,,
,,,,,,,,,664cef98bb2e4a28e1fce2cb,Puerto Rican,13 or older,"no, only English or Spanish",yes,2025-07-23_22h16.14.489,empathy_intonation_perc_control,2024.2.4,Win32,59.88023952,664cef98bb2e4a28e1fce2cb,68817205a84113384fffdfe3,6881974abef3badc2c03b831,,,,,,,,,,,,./stim/wavs/puertorican_match_declarative-broad-focus_David-leia-el-libro.wav,0,,,101.6995,103.6138,0,1,1.3822,,0,32,32,64,1,65,0,puertorican,,,,,,,,,,,,,,,,,,,,,,,,,,,,,,,,,,,,,,,,,,,,,,,,,,,,,,,,
,,,,,,,,,664cef98bb2e4a28e1fce2cb,Puerto Rican,13 or older,"no, only English or Spanish",yes,2025-07-23_22h16.14.489,empathy_intonation_perc_control,2024.2.4,Win32,59.88023952,664cef98bb2e4a28e1fce2cb,68817205a84113384fffdfe3,6881974abef3badc2c03b831,,,,,,,,,,,,./stim/wavs/castilian_mismatch_declarative-broad-focus_La-nina-lava-el-plato.wav,0,,,103.6144,105.8118,0,1,1.668,,0,33,33,70,1,71,0,castilian,,,,,,,,,,,,,,,,,,,,,,,,,,,,,,,,,,,,,,,,,,,,,,,,,,,,,,,,
,,,,,,,,,664cef98bb2e4a28e1fce2cb,Puerto Rican,13 or older,"no, only English or Spanish",yes,2025-07-23_22h16.14.489,empathy_intonation_perc_control,2024.2.4,Win32,59.88023952,664cef98bb2e4a28e1fce2cb,68817205a84113384fffdfe3,6881974abef3badc2c03b831,,,,,,,,,,,,./stim/wavs/cuban_mismatch_declarative-broad-focus_Mi-tia-odia-la-lluvia.wav,0,,,105.8124,107.9266,0,1,1.5906,,0,34,34,77,1,78,0,cuban,,,,,,,,,,,,,,,,,,,,,,,,,,,,,,,,,,,,,,,,,,,,,,,,,,,,,,,,
,,,,,,,,,664cef98bb2e4a28e1fce2cb,Puerto Rican,13 or older,"no, only English or Spanish",yes,2025-07-23_22h16.14.489,empathy_intonation_perc_control,2024.2.4,Win32,59.88023952,664cef98bb2e4a28e1fce2cb,68817205a84113384fffdfe3,6881974abef3badc2c03b831,,,,,,,,,,,,./stim/wavs/mexican_mismatch_interrogative-total-yn_Mi-novio-viene-del-lago.wav,1,,,107.9273,109.9252,1,1,1.4677,,0,35,35,37,1,38,0,mexican,,,,,,,,,,,,,,,,,,,,,,,,,,,,,,,,,,,,,,,,,,,,,,,,,,,,,,,,
,,,,,,,,,664cef98bb2e4a28e1fce2cb,Puerto Rican,13 or older,"no, only English or Spanish",yes,2025-07-23_22h16.14.489,empathy_intonation_perc_control,2024.2.4,Win32,59.88023952,664cef98bb2e4a28e1fce2cb,68817205a84113384fffdfe3,6881974abef3badc2c03b831,,,,,,,,,,,,./stim/wavs/mexican_mismatch_interrogative-total-yn_El-nino-oye-el-rio.wav,1,,,109.926,112.0901,1,1,1.6337,,0,36,36,35,1,36,0,mexican,,,,,,,,,,,,,,,,,,,,,,,,,,,,,,,,,,,,,,,,,,,,,,,,,,,,,,,,
,,,,,,,,,664cef98bb2e4a28e1fce2cb,Puerto Rican,13 or older,"no, only English or Spanish",yes,2025-07-23_22h16.14.489,empathy_intonation_perc_control,2024.2.4,Win32,59.88023952,664cef98bb2e4a28e1fce2cb,68817205a84113384fffdfe3,6881974abef3badc2c03b831,,,,,,,,,,,,./stim/wavs/cuban_mismatch_interrogative-total-yn_Mi-novio-viene-del-lago.wav,1,,,112.091,114.0213,1,1,1.4039,,0,37,37,32,1,33,1,cuban,,,,,,,,,,,,,,,,,,,,,,,,,,,,,,,,,,,,,,,,,,,,,,,,,,,,,,,,
,,,,,,,,,664cef98bb2e4a28e1fce2cb,Puerto Rican,13 or older,"no, only English or Spanish",yes,2025-07-23_22h16.14.489,empathy_intonation_perc_control,2024.2.4,Win32,59.88023952,664cef98bb2e4a28e1fce2cb,68817205a84113384fffdfe3,6881974abef3badc2c03b831,,,,,,,,,,,,./stim/wavs/mexican_match_declarative-broad-focus_Daniel-iba-a-Bolivia.wav,0,,,114.0218,115.9863,0,1,1.4329,,0,38,38,57,1,58,0,mexican,,,,,,,,,,,,,,,,,,,,,,,,,,,,,,,,,,,,,,,,,,,,,,,,,,,,,,,,
,,,,,,,,,664cef98bb2e4a28e1fce2cb,Puerto Rican,13 or older,"no, only English or Spanish",yes,2025-07-23_22h16.14.489,empathy_intonation_perc_control,2024.2.4,Win32,59.88023952,664cef98bb2e4a28e1fce2cb,68817205a84113384fffdfe3,6881974abef3badc2c03b831,,,,,,,,,,,,./stim/wavs/mexican_mismatch_interrogative-total-yn_El-hombre-mira-la-luna.wav,1,,,115.9871,118.0013,1,1,1.4861,,0,39,39,34,1,35,0,mexican,,,,,,,,,,,,,,,,,,,,,,,,,,,,,,,,,,,,,,,,,,,,,,,,,,,,,,,,
,,,,,,,,,664cef98bb2e4a28e1fce2cb,Puerto Rican,13 or older,"no, only English or Spanish",yes,2025-07-23_22h16.14.489,empathy_intonation_perc_control,2024.2.4,Win32,59.88023952,664cef98bb2e4a28e1fce2cb,68817205a84113384fffdfe3,6881974abef3badc2c03b831,,,,,,,,,,,,./stim/wavs/puertorican_match_declarative-broad-focus_Emilio-ama-la-marcha.wav,0,,,118.0021,119.966,0,1,1.4366,,0,40,40,65,1,66,0,puertorican,,,,,,,,,,,,,,,,,,,,,,,,,,,,,,,,,,,,,,,,,,,,,,,,,,,,,,,,
,,,,,,,,,664cef98bb2e4a28e1fce2cb,Puerto Rican,13 or older,"no, only English or Spanish",yes,2025-07-23_22h16.14.489,empathy_intonation_perc_control,2024.2.4,Win32,59.88023952,664cef98bb2e4a28e1fce2cb,68817205a84113384fffdfe3,6881974abef3badc2c03b831,,,,,,,,,,,,./stim/wavs/mexican_mismatch_declarative-broad-focus_Mi-novio-viene-del-lago.wav,0,,,119.9666,121.8479,0,1,1.3547,,0,41,41,81,1,82,0,mexican,,,,,,,,,,,,,,,,,,,,,,,,,,,,,,,,,,,,,,,,,,,,,,,,,,,,,,,,
,,,,,,,,,664cef98bb2e4a28e1fce2cb,Puerto Rican,13 or older,"no, only English or Spanish",yes,2025-07-23_22h16.14.489,empathy_intonation_perc_control,2024.2.4,Win32,59.88023952,664cef98bb2e4a28e1fce2cb,68817205a84113384fffdfe3,6881974abef3badc2c03b831,,,,,,,,,,,,./stim/wavs/puertorican_mismatch_declarative-broad-focus_La-maestra-vive-en-Paris.wav,0,,,121.8486,123.8626,0,1,1.4926,,0,42,42,86,1,87,0,puertorican,,,,,,,,,,,,,,,,,,,,,,,,,,,,,,,,,,,,,,,,,,,,,,,,,,,,,,,,
,,,,,,,,,664cef98bb2e4a28e1fce2cb,Puerto Rican,13 or older,"no, only English or Spanish",yes,2025-07-23_22h16.14.489,empathy_intonation_perc_control,2024.2.4,Win32,59.88023952,664cef98bb2e4a28e1fce2cb,68817205a84113384fffdfe3,6881974abef3badc2c03b831,,,,,,,,,,,,./stim/wavs/mexican_match_interrogative-total-yn_Emilio-ama-la-marcha.wav,1,,,123.8631,125.7941,0,0,1.4021,,0,43,43,15,1,16,0,mexican,,,,,,,,,,,,,,,,,,,,,,,,,,,,,,,,,,,,,,,,,,,,,,,,,,,,,,,,
,,,,,,,,,664cef98bb2e4a28e1fce2cb,Puerto Rican,13 or older,"no, only English or Spanish",yes,2025-07-23_22h16.14.489,empathy_intonation_perc_control,2024.2.4,Win32,59.88023952,664cef98bb2e4a28e1fce2cb,68817205a84113384fffdfe3,6881974abef3badc2c03b831,,,,,,,,,,,,./stim/wavs/cuban_match_declarative-broad-focus_Maria-bebe-el-vino.wav,0,,,125.7951,127.7925,0,1,1.4713,,0,44,44,53,1,54,0,cuban,,,,,,,,,,,,,,,,,,,,,,,,,,,,,,,,,,,,,,,,,,,,,,,,,,,,,,,,
,,,,,,,,,664cef98bb2e4a28e1fce2cb,Puerto Rican,13 or older,"no, only English or Spanish",yes,2025-07-23_22h16.14.489,empathy_intonation_perc_control,2024.2.4,Win32,59.88023952,664cef98bb2e4a28e1fce2cb,68817205a84113384fffdfe3,6881974abef3badc2c03b831,,,,,,,,,,,,./stim/wavs/puertorican_match_interrogative-total-yn_Manuela-vende-el-carro.wav,1,,,127.793,129.6743,1,1,1.3502,,0,45,45,22,1,23,1,puertorican,,,,,,,,,,,,,,,,,,,,,,,,,,,,,,,,,,,,,,,,,,,,,,,,,,,,,,,,
,,,,,,,,,664cef98bb2e4a28e1fce2cb,Puerto Rican,13 or older,"no, only English or Spanish",yes,2025-07-23_22h16.14.489,empathy_intonation_perc_control,2024.2.4,Win32,59.88023952,664cef98bb2e4a28e1fce2cb,68817205a84113384fffdfe3,6881974abef3badc2c03b831,,,,,,,,,,,,./stim/wavs/mexican_match_declarative-broad-focus_Ana-lleva-el-abrigo.wav,0,,,129.6751,131.5226,0,1,1.3228,,0,46,46,56,1,57,0,mexican,,,,,,,,,,,,,,,,,,,,,,,,,,,,,,,,,,,,,,,,,,,,,,,,,,,,,,,,
,,,,,,,,,664cef98bb2e4a28e1fce2cb,Puerto Rican,13 or older,"no, only English or Spanish",yes,2025-07-23_22h16.14.489,empathy_intonation_perc_control,2024.2.4,Win32,59.88023952,664cef98bb2e4a28e1fce2cb,68817205a84113384fffdfe3,6881974abef3badc2c03b831,,,,,,,,,,,,./stim/wavs/mexican_mismatch_declarative-broad-focus_Mi-tia-odia-la-lluvia.wav,0,,,131.5236,133.4965,0,1,1.4489,,0,47,47,82,1,83,0,mexican,,,,,,,,,,,,,,,,,,,,,,,,,,,,,,,,,,,,,,,,,,,,,,,,,,,,,,,,
,,,,,,,,,664cef98bb2e4a28e1fce2cb,Puerto Rican,13 or older,"no, only English or Spanish",yes,2025-07-23_22h16.14.489,empathy_intonation_perc_control,2024.2.4,Win32,59.88023952,664cef98bb2e4a28e1fce2cb,68817205a84113384fffdfe3,6881974abef3badc2c03b831,,,,,,,,,,,,./stim/wavs/cuban_match_interrogative-total-yn_Maria-bebe-el-vino.wav,1,,,133.4973,135.4357,1,1,1.4147,,0,48,48,9,1,10,1,cuban,,,,,,,,,,,,,,,,,,,,,,,,,,,,,,,,,,,,,,,,,,,,,,,,,,,,,,,,
,,,,,,,,,664cef98bb2e4a28e1fce2cb,Puerto Rican,13 or older,"no, only English or Spanish",yes,2025-07-23_22h16.14.489,empathy_intonation_perc_control,2024.2.4,Win32,59.88023952,664cef98bb2e4a28e1fce2cb,68817205a84113384fffdfe3,6881974abef3badc2c03b831,,,,,,,,,,,,./stim/wavs/puertorican_mismatch_declarative-broad-focus_El-nino-oye-el-rio.wav,0,,,135.4361,137.6171,0,1,1.6557,,0,49,49,85,1,86,0,puertorican,,,,,,,,,,,,,,,,,,,,,,,,,,,,,,,,,,,,,,,,,,,,,,,,,,,,,,,,
,,,,,,,,,664cef98bb2e4a28e1fce2cb,Puerto Rican,13 or older,"no, only English or Spanish",yes,2025-07-23_22h16.14.489,empathy_intonation_perc_control,2024.2.4,Win32,59.88023952,664cef98bb2e4a28e1fce2cb,68817205a84113384fffdfe3,6881974abef3badc2c03b831,,,,,,,,,,,,./stim/wavs/cuban_match_interrogative-total-yn_Daniel-iba-a-Bolivia.wav,1,,,137.6177,139.5489,1,1,1.4037,,0,50,50,7,1,8,1,cuban,,,,,,,,,,,,,,,,,,,,,,,,,,,,,,,,,,,,,,,,,,,,,,,,,,,,,,,,
,,,,,,,,,664cef98bb2e4a28e1fce2cb,Puerto Rican,13 or older,"no, only English or Spanish",yes,2025-07-23_22h16.14.489,empathy_intonation_perc_control,2024.2.4,Win32,59.88023952,664cef98bb2e4a28e1fce2cb,68817205a84113384fffdfe3,6881974abef3badc2c03b831,,,,,,,,,,,,./stim/wavs/castilian_mismatch_interrogative-total-yn_La-maestra-vive-en-Paris.wav,1,,,139.5494,141.9467,1,1,1.8713,,0,51,51,24,1,25,0,castilian,,,,,,,,,,,,,,,,,,,,,,,,,,,,,,,,,,,,,,,,,,,,,,,,,,,,,,,,
,,,,,,,,,664cef98bb2e4a28e1fce2cb,Puerto Rican,13 or older,"no, only English or Spanish",yes,2025-07-23_22h16.14.489,empathy_intonation_perc_control,2024.2.4,Win32,59.88023952,664cef98bb2e4a28e1fce2cb,68817205a84113384fffdfe3,6881974abef3badc2c03b831,,,,,,,,,,,,./stim/wavs/cuban_match_interrogative-total-yn_Mariano-habla-del-tiempo.wav,1,,,141.9475,144.245,0,0,1.7748,,0,52,52,10,1,11,1,cuban,,,,,,,,,,,,,,,,,,,,,,,,,,,,,,,,,,,,,,,,,,,,,,,,,,,,,,,,
,,,,,,,,,664cef98bb2e4a28e1fce2cb,Puerto Rican,13 or older,"no, only English or Spanish",yes,2025-07-23_22h16.14.489,empathy_intonation_perc_control,2024.2.4,Win32,59.88023952,664cef98bb2e4a28e1fce2cb,68817205a84113384fffdfe3,6881974abef3badc2c03b831,,,,,,,,,,,,./stim/wavs/castilian_mismatch_interrogative-total-yn_Mi-novio-viene-del-lago.wav,1,,,144.246,146.4598,1,1,1.6819,,0,53,53,27,1,28,0,castilian,,,,,,,,,,,,,,,,,,,,,,,,,,,,,,,,,,,,,,,,,,,,,,,,,,,,,,,,
,,,,,,,,,664cef98bb2e4a28e1fce2cb,Puerto Rican,13 or older,"no, only English or Spanish",yes,2025-07-23_22h16.14.489,empathy_intonation_perc_control,2024.2.4,Win32,59.88023952,664cef98bb2e4a28e1fce2cb,68817205a84113384fffdfe3,6881974abef3badc2c03b831,,,,,,,,,,,,./stim/wavs/cuban_match_declarative-broad-focus_Ana-lleva-el-abrigo.wav,0,,,146.4606,148.4582,0,1,1.4669,,0,54,54,50,1,51,0,cuban,,,,,,,,,,,,,,,,,,,,,,,,,,,,,,,,,,,,,,,,,,,,,,,,,,,,,,,,
,,,,,,,,,664cef98bb2e4a28e1fce2cb,Puerto Rican,13 or older,"no, only English or Spanish",yes,2025-07-23_22h16.14.489,empathy_intonation_perc_control,2024.2.4,Win32,59.88023952,664cef98bb2e4a28e1fce2cb,68817205a84113384fffdfe3,6881974abef3badc2c03b831,,,,,,,,,,,,./stim/wavs/cuban_match_interrogative-total-yn_Manuela-vende-el-carro.wav,1,,,148.4592,150.5561,0,0,1.5532,,0,55,55,8,1,9,1,cuban,,,,,,,,,,,,,,,,,,,,,,,,,,,,,,,,,,,,,,,,,,,,,,,,,,,,,,,,
,,,,,,,,,664cef98bb2e4a28e1fce2cb,Puerto Rican,13 or older,"no, only English or Spanish",yes,2025-07-23_22h16.14.489,empathy_intonation_perc_control,2024.2.4,Win32,59.88023952,664cef98bb2e4a28e1fce2cb,68817205a84113384fffdfe3,6881974abef3badc2c03b831,,,,,,,,,,,,./stim/wavs/mexican_match_declarative-broad-focus_Emilio-ama-la-marcha.wav,0,,,150.5567,152.7039,0,1,1.5986,,0,56,56,59,1,60,0,mexican,,,,,,,,,,,,,,,,,,,,,,,,,,,,,,,,,,,,,,,,,,,,,,,,,,,,,,,,
,,,,,,,,,664cef98bb2e4a28e1fce2cb,Puerto Rican,13 or older,"no, only English or Spanish",yes,2025-07-23_22h16.14.489,empathy_intonation_perc_control,2024.2.4,Win32,59.88023952,664cef98bb2e4a28e1fce2cb,68817205a84113384fffdfe3,6881974abef3badc2c03b831,,,,,,,,,,,,./stim/wavs/puertorican_mismatch_interrogative-total-yn_La-nina-lava-el-plato.wav,1,,,152.7046,154.4528,1,1,1.2148,,0,57,57,42,1,43,1,puertorican,,,,,,,,,,,,,,,,,,,,,,,,,,,,,,,,,,,,,,,,,,,,,,,,,,,,,,,,
,,,,,,,,,664cef98bb2e4a28e1fce2cb,Puerto Rican,13 or older,"no, only English or Spanish",yes,2025-07-23_22h16.14.489,empathy_intonation_perc_control,2024.2.4,Win32,59.88023952,664cef98bb2e4a28e1fce2cb,68817205a84113384fffdfe3,6881974abef3badc2c03b831,,,,,,,,,,,,./stim/wavs/mexican_match_interrogative-total-yn_David-leia-el-libro.wav,1,,,154.4535,156.6172,0,0,1.6393,,0,58,58,14,1,15,0,mexican,,,,,,,,,,,,,,,,,,,,,,,,,,,,,,,,,,,,,,,,,,,,,,,,,,,,,,,,
,,,,,,,,,664cef98bb2e4a28e1fce2cb,Puerto Rican,13 or older,"no, only English or Spanish",yes,2025-07-23_22h16.14.489,empathy_intonation_perc_control,2024.2.4,Win32,59.88023952,664cef98bb2e4a28e1fce2cb,68817205a84113384fffdfe3,6881974abef3badc2c03b831,,,,,,,,,,,,./stim/wavs/mexican_mismatch_declarative-broad-focus_El-bebe-comia-muy-bien.wav,0,,,156.6179,158.9321,0,1,1.7821,,0,59,59,78,1,79,0,mexican,,,,,,,,,,,,,,,,,,,,,,,,,,,,,,,,,,,,,,,,,,,,,,,,,,,,,,,,
,,,,,,,,,664cef98bb2e4a28e1fce2cb,Puerto Rican,13 or older,"no, only English or Spanish",yes,2025-07-23_22h16.14.489,empathy_intonation_perc_control,2024.2.4,Win32,59.88023952,664cef98bb2e4a28e1fce2cb,68817205a84113384fffdfe3,6881974abef3badc2c03b831,,,,,,,,,,,,./stim/wavs/mexican_match_declarative-broad-focus_David-leia-el-libro.wav,0,,,158.9328,160.8304,0,1,1.3683,,0,60,60,58,1,59,0,mexican,,,,,,,,,,,,,,,,,,,,,,,,,,,,,,,,,,,,,,,,,,,,,,,,,,,,,,,,
,,,,,,,,,664cef98bb2e4a28e1fce2cb,Puerto Rican,13 or older,"no, only English or Spanish",yes,2025-07-23_22h16.14.489,empathy_intonation_perc_control,2024.2.4,Win32,59.88023952,664cef98bb2e4a28e1fce2cb,68817205a84113384fffdfe3,6881974abef3badc2c03b831,,,,,,,,,,,,./stim/wavs/cuban_match_interrogative-total-yn_Ana-lleva-el-abrigo.wav,1,,,160.8313,162.7288,1,1,1.3656,,0,61,61,6,1,7,1,cuban,,,,,,,,,,,,,,,,,,,,,,,,,,,,,,,,,,,,,,,,,,,,,,,,,,,,,,,,
,,,,,,,,,664cef98bb2e4a28e1fce2cb,Puerto Rican,13 or older,"no, only English or Spanish",yes,2025-07-23_22h16.14.489,empathy_intonation_perc_control,2024.2.4,Win32,59.88023952,664cef98bb2e4a28e1fce2cb,68817205a84113384fffdfe3,6881974abef3badc2c03b831,,,,,,,,,,,,./stim/wavs/puertorican_mismatch_interrogative-total-yn_El-nino-oye-el-rio.wav,1,,,162.7294,165.0102,1,1,1.7496,,0,62,62,40,1,41,1,puertorican,,,,,,,,,,,,,,,,,,,,,,,,,,,,,,,,,,,,,,,,,,,,,,,,,,,,,,,,
,,,,,,,,,664cef98bb2e4a28e1fce2cb,Puerto Rican,13 or older,"no, only English or Spanish",yes,2025-07-23_22h16.14.489,empathy_intonation_perc_control,2024.2.4,Win32,59.88023952,664cef98bb2e4a28e1fce2cb,68817205a84113384fffdfe3,6881974abef3badc2c03b831,,,,,,,,,,,,./stim/wavs/cuban_mismatch_declarative-broad-focus_Mi-novio-viene-del-lago.wav,0,,,165.0111,167.2922,0,1,1.7606,,0,63,63,76,1,77,0,cuban,,,,,,,,,,,,,,,,,,,,,,,,,,,,,,,,,,,,,,,,,,,,,,,,,,,,,,,,
,,,,,,,,,664cef98bb2e4a28e1fce2cb,Puerto Rican,13 or older,"no, only English or Spanish",yes,2025-07-23_22h16.14.489,empathy_intonation_perc_control,2024.2.4,Win32,59.88023952,664cef98bb2e4a28e1fce2cb,68817205a84113384fffdfe3,6881974abef3badc2c03b831,,,,,,,,,,,,./stim/wavs/puertorican_match_interrogative-total-yn_Daniel-iba-a-Bolivia.wav,1,,,167.2929,169.3397,1,1,1.5162,,0,64,64,19,1,20,1,puertorican,,,,,,,,,,,,,,,,,,,,,,,,,,,,,,,,,,,,,,,,,,,,,,,,,,,,,,,,
,,,,,,,,,664cef98bb2e4a28e1fce2cb,Puerto Rican,13 or older,"no, only English or Spanish",yes,2025-07-23_22h16.14.489,empathy_intonation_perc_control,2024.2.4,Win32,59.88023952,664cef98bb2e4a28e1fce2cb,68817205a84113384fffdfe3,6881974abef3badc2c03b831,,,,,,,,,,,,./stim/wavs/mexican_mismatch_declarative-broad-focus_El-hombre-mira-la-luna.wav,0,,,169.3404,171.2878,0,1,1.4157,,0,65,65,79,1,80,0,mexican,,,,,,,,,,,,,,,,,,,,,,,,,,,,,,,,,,,,,,,,,,,,,,,,,,,,,,,,
,,,,,,,,,664cef98bb2e4a28e1fce2cb,Puerto Rican,13 or older,"no, only English or Spanish",yes,2025-07-23_22h16.14.489,empathy_intonation_perc_control,2024.2.4,Win32,59.88023952,664cef98bb2e4a28e1fce2cb,68817205a84113384fffdfe3,6881974abef3badc2c03b831,,,,,,,,,,,,./stim/wavs/puertorican_mismatch_interrogative-total-yn_La-maestra-vive-en-Paris.wav,1,,,171.2884,173.5024,0,0,1.6877,,0,66,66,41,1,42,1,puertorican,,,,,,,,,,,,,,,,,,,,,,,,,,,,,,,,,,,,,,,,,,,,,,,,,,,,,,,,
,,,,,,,,,664cef98bb2e4a28e1fce2cb,Puerto Rican,13 or older,"no, only English or Spanish",yes,2025-07-23_22h16.14.489,empathy_intonation_perc_control,2024.2.4,Win32,59.88023952,664cef98bb2e4a28e1fce2cb,68817205a84113384fffdfe3,6881974abef3badc2c03b831,,,,,,,,,,,,./stim/wavs/castilian_match_declarative-broad-focus_Manuela-vende-el-carro.wav,0,,,173.503,175.9343,0,1,1.908,,0,67,67,46,1,47,0,castilian,,,,,,,,,,,,,,,,,,,,,,,,,,,,,,,,,,,,,,,,,,,,,,,,,,,,,,,,
,,,,,,,,,664cef98bb2e4a28e1fce2cb,Puerto Rican,13 or older,"no, only English or Spanish",yes,2025-07-23_22h16.14.489,empathy_intonation_perc_control,2024.2.4,Win32,59.88023952,664cef98bb2e4a28e1fce2cb,68817205a84113384fffdfe3,6881974abef3badc2c03b831,,,,,,,,,,,,./stim/wavs/castilian_mismatch_interrogative-total-yn_Mi-madre-come-la-fruta.wav,1,,,175.9352,178.0318,1,1,1.5733,,0,68,68,26,1,27,0,castilian,,,,,,,,,,,,,,,,,,,,,,,,,,,,,,,,,,,,,,,,,,,,,,,,,,,,,,,,
,,,,,,,,,664cef98bb2e4a28e1fce2cb,Puerto Rican,13 or older,"no, only English or Spanish",yes,2025-07-23_22h16.14.489,empathy_intonation_perc_control,2024.2.4,Win32,59.88023952,664cef98bb2e4a28e1fce2cb,68817205a84113384fffdfe3,6881974abef3badc2c03b831,,,,,,,,,,,,./stim/wavs/mexican_match_interrogative-total-yn_Mariano-habla-del-tiempo.wav,1,,,178.0324,180.2134,1,1,1.6571,,0,69,69,16,1,17,0,mexican,,,,,,,,,,,,,,,,,,,,,,,,,,,,,,,,,,,,,,,,,,,,,,,,,,,,,,,,
,,,,,,,,,664cef98bb2e4a28e1fce2cb,Puerto Rican,13 or older,"no, only English or Spanish",yes,2025-07-23_22h16.14.489,empathy_intonation_perc_control,2024.2.4,Win32,59.88023952,664cef98bb2e4a28e1fce2cb,68817205a84113384fffdfe3,6881974abef3badc2c03b831,,,,,,,,,,,,./stim/wavs/castilian_match_declarative-broad-focus_Maria-bebe-el-vino.wav,0,,,180.2141,182.2115,0,1,1.4696,,0,70,70,47,1,48,0,castilian,,,,,,,,,,,,,,,,,,,,,,,,,,,,,,,,,,,,,,,,,,,,,,,,,,,,,,,,
,,,,,,,,,664cef98bb2e4a28e1fce2cb,Puerto Rican,13 or older,"no, only English or Spanish",yes,2025-07-23_22h16.14.489,empathy_intonation_perc_control,2024.2.4,Win32,59.88023952,664cef98bb2e4a28e1fce2cb,68817205a84113384fffdfe3,6881974abef3badc2c03b831,,,,,,,,,,,,./stim/wavs/castilian_mismatch_declarative-broad-focus_Mi-novio-viene-del-lago.wav,0,,,182.2121,184.3263,0,1,1.5821,,0,71,71,71,1,72,0,castilian,,,,,,,,,,,,,,,,,,,,,,,,,,,,,,,,,,,,,,,,,,,,,,,,,,,,,,,,
,,,,,,,,,664cef98bb2e4a28e1fce2cb,Puerto Rican,13 or older,"no, only English or Spanish",yes,2025-07-23_22h16.14.489,empathy_intonation_perc_control,2024.2.4,Win32,59.88023952,664cef98bb2e4a28e1fce2cb,68817205a84113384fffdfe3,6881974abef3badc2c03b831,,,,,,,,,,,,./stim/wavs/puertorican_match_interrogative-total-yn_Emilio-ama-la-marcha.wav,1,,,184.327,187.307,0,0,2.4548,,0,72,72,21,1,22,1,puertorican,,,,,,,,,,,,,,,,,,,,,,,,,,,,,,,,,,,,,,,,,,,,,,,,,,,,,,,,
,,,,,,,,,664cef98bb2e4a28e1fce2cb,Puerto Rican,13 or older,"no, only English or Spanish",yes,2025-07-23_22h16.14.489,empathy_intonation_perc_control,2024.2.4,Win32,59.88023952,664cef98bb2e4a28e1fce2cb,68817205a84113384fffdfe3,6881974abef3badc2c03b831,,,,,,,,,,,,./stim/wavs/castilian_mismatch_declarative-broad-focus_La-maestra-vive-en-Paris.wav,0,,,187.3077,189.5214,0,1,1.6798,,0,73,73,69,1,70,0,castilian,,,,,,,,,,,,,,,,,,,,,,,,,,,,,,,,,,,,,,,,,,,,,,,,,,,,,,,,
,,,,,,,,,664cef98bb2e4a28e1fce2cb,Puerto Rican,13 or older,"no, only English or Spanish",yes,2025-07-23_22h16.14.489,empathy_intonation_perc_control,2024.2.4,Win32,59.88023952,664cef98bb2e4a28e1fce2cb,68817205a84113384fffdfe3,6881974abef3badc2c03b831,,,,,,,,,,,,./stim/wavs/castilian_mismatch_interrogative-total-yn_La-nina-lava-el-plato.wav,1,,,189.5218,191.6368,1,1,1.5822,,0,74,74,25,1,26,0,castilian,,,,,,,,,,,,,,,,,,,,,,,,,,,,,,,,,,,,,,,,,,,,,,,,,,,,,,,,
,,,,,,,,,664cef98bb2e4a28e1fce2cb,Puerto Rican,13 or older,"no, only English or Spanish",yes,2025-07-23_22h16.14.489,empathy_intonation_perc_control,2024.2.4,Win32,59.88023952,664cef98bb2e4a28e1fce2cb,68817205a84113384fffdfe3,6881974abef3badc2c03b831,,,,,,,,,,,,./stim/wavs/puertorican_mismatch_interrogative-total-yn_Mi-madre-come-la-fruta.wav,1,,,191.6375,193.568,0,0,1.3998,,0,75,75,43,1,44,1,puertorican,,,,,,,,,,,,,,,,,,,,,,,,,,,,,,,,,,,,,,,,,,,,,,,,,,,,,,,,
,,,,,,,,,664cef98bb2e4a28e1fce2cb,Puerto Rican,13 or older,"no, only English or Spanish",yes,2025-07-23_22h16.14.489,empathy_intonation_perc_control,2024.2.4,Win32,59.88023952,664cef98bb2e4a28e1fce2cb,68817205a84113384fffdfe3,6881974abef3badc2c03b831,,,,,,,,,,,,./stim/wavs/castilian_match_interrogative-total-yn_Mariano-habla-del-tiempo.wav,1,,,193.5686,195.683,1,1,1.5852,,0,76,76,4,1,5,0,castilian,,,,,,,,,,,,,,,,,,,,,,,,,,,,,,,,,,,,,,,,,,,,,,,,,,,,,,,,
,,,,,,,,,664cef98bb2e4a28e1fce2cb,Puerto Rican,13 or older,"no, only English or Spanish",yes,2025-07-23_22h16.14.489,empathy_intonation_perc_control,2024.2.4,Win32,59.88023952,664cef98bb2e4a28e1fce2cb,68817205a84113384fffdfe3,6881974abef3badc2c03b831,,,,,,,,,,,,./stim/wavs/mexican_mismatch_declarative-broad-focus_La-maestra-vive-en-Paris.wav,0,,,195.6838,197.5814,0,1,1.3686,,0,77,77,80,1,81,0,mexican,,,,,,,,,,,,,,,,,,,,,,,,,,,,,,,,,,,,,,,,,,,,,,,,,,,,,,,,
,,,,,,,,,664cef98bb2e4a28e1fce2cb,Puerto Rican,13 or older,"no, only English or Spanish",yes,2025-07-23_22h16.14.489,empathy_intonation_perc_control,2024.2.4,Win32,59.88023952,664cef98bb2e4a28e1fce2cb,68817205a84113384fffdfe3,6881974abef3badc2c03b831,,,,,,,,,,,,./stim/wavs/castilian_match_interrogative-total-yn_Maria-bebe-el-vino.wav,1,,,197.5817,199.3467,1,1,1.234,,0,78,78,3,1,4,0,castilian,,,,,,,,,,,,,,,,,,,,,,,,,,,,,,,,,,,,,,,,,,,,,,,,,,,,,,,,
,,,,,,,,,664cef98bb2e4a28e1fce2cb,Puerto Rican,13 or older,"no, only English or Spanish",yes,2025-07-23_22h16.14.489,empathy_intonation_perc_control,2024.2.4,Win32,59.88023952,664cef98bb2e4a28e1fce2cb,68817205a84113384fffdfe3,6881974abef3badc2c03b831,,,,,,,,,,,,./stim/wavs/puertorican_match_declarative-broad-focus_Manuela-vende-el-carro.wav,0,,,199.3477,200.9618,0,1,1.0834,,0,79,79,66,1,67,0,puertorican,,,,,,,,,,,,,,,,,,,,,,,,,,,,,,,,,,,,,,,,,,,,,,,,,,,,,,,,
,,,,,,,,,664cef98bb2e4a28e1fce2cb,Puerto Rican,13 or older,"no, only English or Spanish",yes,2025-07-23_22h16.14.489,empathy_intonation_perc_control,2024.2.4,Win32,59.88023952,664cef98bb2e4a28e1fce2cb,68817205a84113384fffdfe3,6881974abef3badc2c03b831,,,,,,,,,,,,./stim/wavs/cuban_mismatch_interrogative-total-yn_El-hombre-mira-la-luna.wav,1,,,200.9625,202.9766,1,1,1.4829,,0,80,80,29,1,30,1,cuban,,,,,,,,,,,,,,,,,,,,,,,,,,,,,,,,,,,,,,,,,,,,,,,,,,,,,,,,
,,,,,,,,,664cef98bb2e4a28e1fce2cb,Puerto Rican,13 or older,"no, only English or Spanish",yes,2025-07-23_22h16.14.489,empathy_intonation_perc_control,2024.2.4,Win32,59.88023952,664cef98bb2e4a28e1fce2cb,68817205a84113384fffdfe3,6881974abef3badc2c03b831,,,,,,,,,,,,./stim/wavs/castilian_match_interrogative-total-yn_Manuela-vende-el-carro.wav,1,,,202.9773,204.9752,1,1,1.4658,,0,81,81,2,1,3,0,castilian,,,,,,,,,,,,,,,,,,,,,,,,,,,,,,,,,,,,,,,,,,,,,,,,,,,,,,,,
,,,,,,,,,664cef98bb2e4a28e1fce2cb,Puerto Rican,13 or older,"no, only English or Spanish",yes,2025-07-23_22h16.14.489,empathy_intonation_perc_control,2024.2.4,Win32,59.88023952,664cef98bb2e4a28e1fce2cb,68817205a84113384fffdfe3,6881974abef3badc2c03b831,,,,,,,,,,,,./stim/wavs/castilian_mismatch_declarative-broad-focus_El-nino-oye-el-rio.wav,0,,,204.976,207.0397,1,0,1.5389,,0,82,82,68,1,69,0,castilian,,,,,,,,,,,,,,,,,,,,,,,,,,,,,,,,,,,,,,,,,,,,,,,,,,,,,,,,
,,,,,,,,,664cef98bb2e4a28e1fce2cb,Puerto Rican,13 or older,"no, only English or Spanish",yes,2025-07-23_22h16.14.489,empathy_intonation_perc_control,2024.2.4,Win32,59.88023952,664cef98bb2e4a28e1fce2cb,68817205a84113384fffdfe3,6881974abef3badc2c03b831,,,,,,,,,,,,./stim/wavs/mexican_mismatch_interrogative-total-yn_La-maestra-vive-en-Paris.wav,1,,,207.0404,209.5708,1,1,1.9993,,0,83,83,36,1,37,0,mexican,,,,,,,,,,,,,,,,,,,,,,,,,,,,,,,,,,,,,,,,,,,,,,,,,,,,,,,,
,,,,,,,,,664cef98bb2e4a28e1fce2cb,Puerto Rican,13 or older,"no, only English or Spanish",yes,2025-07-23_22h16.14.489,empathy_intonation_perc_control,2024.2.4,Win32,59.88023952,664cef98bb2e4a28e1fce2cb,68817205a84113384fffdfe3,6881974abef3badc2c03b831,,,,,,,,,,,,./stim/wavs/cuban_mismatch_interrogative-total-yn_El-nino-oye-el-rio.wav,1,,,209.572,211.536,1,1,1.4327,,0,84,84,30,1,31,1,cuban,,,,,,,,,,,,,,,,,,,,,,,,,,,,,,,,,,,,,,,,,,,,,,,,,,,,,,,,
,,,,,,,,,664cef98bb2e4a28e1fce2cb,Puerto Rican,13 or older,"no, only English or Spanish",yes,2025-07-23_22h16.14.489,empathy_intonation_perc_control,2024.2.4,Win32,59.88023952,664cef98bb2e4a28e1fce2cb,68817205a84113384fffdfe3,6881974abef3badc2c03b831,,,,,,,,,,,,./stim/wavs/cuban_match_interrogative-total-yn_Marta-abre-el-regalo.wav,1,,,211.5376,213.451,1,1,1.3808,,0,85,85,11,1,12,1,cuban,,,,,,,,,,,,,,,,,,,,,,,,,,,,,,,,,,,,,,,,,,,,,,,,,,,,,,,,
,,,,,,,,,664cef98bb2e4a28e1fce2cb,Puerto Rican,13 or older,"no, only English or Spanish",yes,2025-07-23_22h16.14.489,empathy_intonation_perc_control,2024.2.4,Win32,59.88023952,664cef98bb2e4a28e1fce2cb,68817205a84113384fffdfe3,6881974abef3badc2c03b831,,,,,,,,,,,,./stim/wavs/mexican_match_declarative-broad-focus_Marta-abre-el-regalo.wav,0,,,213.4517,215.5822,0,1,1.5993,,0,86,86,61,1,62,0,mexican,,,,,,,,,,,,,,,,,,,,,,,,,,,,,,,,,,,,,,,,,,,,,,,,,,,,,,,,
,,,,,,,,,664cef98bb2e4a28e1fce2cb,Puerto Rican,13 or older,"no, only English or Spanish",yes,2025-07-23_22h16.14.489,empathy_intonation_perc_control,2024.2.4,Win32,59.88023952,664cef98bb2e4a28e1fce2cb,68817205a84113384fffdfe3,6881974abef3badc2c03b831,,,,,,,,,,,,./stim/wavs/castilian_match_declarative-broad-focus_Marta-abre-el-regalo.wav,0,,,215.5829,217.7137,0,1,1.6018,,0,87,87,49,1,50,0,castilian,,,,,,,,,,,,,,,,,,,,,,,,,,,,,,,,,,,,,,,,,,,,,,,,,,,,,,,,
,,,,,,,"Great! Now we will move on. The next task consists of about 60 trials, in each of which you will see a string of letters. 
  
  Your task is to decide whether this is a real Spanish word or not.", (press the spacebar to continue),664cef98bb2e4a28e1fce2cb,Puerto Rican,13 or older,"no, only English or Spanish",yes,2025-07-23_22h16.14.489,empathy_intonation_perc_control,2024.2.4,Win32,59.88023952,664cef98bb2e4a28e1fce2cb,68817205a84113384fffdfe3,6881974abef3badc2c03b831,,,,,,,,,,,,,,,,,,,,,,,,,,,,,,217.7224,223.5441,0,0,0,0,1,,,,,,,,,,,,,,,,,,,,,,,,,,,,,,,,,,,,,,,,,,,,,,,,,
,,,,,,,"If you think it is an existing Spanish word, you type '1' (for 'REAL'), and if you think it is not an existing Spanish word, you type '0' (for 'FAKE').", (press the spacebar to continue),664cef98bb2e4a28e1fce2cb,Puerto Rican,13 or older,"no, only English or Spanish",yes,2025-07-23_22h16.14.489,empathy_intonation_perc_control,2024.2.4,Win32,59.88023952,664cef98bb2e4a28e1fce2cb,68817205a84113384fffdfe3,6881974abef3badc2c03b831,,,,,,,,,,,,,,,,,,,,,,,,,,,,,,223.5478,227.3226,0,1,1,1,1,,,,,,,,,,,,,,,,,,,,,,,,,,,,,,,,,,,,,,,,,,,,,,,,,
,,,,,,,"If you are sure that the word exists, even though you don’t know its exact meaning, you may still respond '1' (REAL). 
  
  But if you are not sure if it is an existing word, you should respond '0' (FAKE).
  
  Let's do a practice round...", (press the spacebar to continue),664cef98bb2e4a28e1fce2cb,Puerto Rican,13 or older,"no, only English or Spanish",yes,2025-07-23_22h16.14.489,empathy_intonation_perc_control,2024.2.4,Win32,59.88023952,664cef98bb2e4a28e1fce2cb,68817205a84113384fffdfe3,6881974abef3badc2c03b831,,,,,,,,,,,,,,,,,,,,,,,,,,,,,,227.3264,232.7175,0,2,2,2,1,,,,,,,,,,,,,,,,,,,,,,,,,,,,,,,,,,,,,,,,,,,,,,,,,
,,,,,,,,,664cef98bb2e4a28e1fce2cb,Puerto Rican,13 or older,"no, only English or Spanish",yes,2025-07-23_22h16.14.489,empathy_intonation_perc_control,2024.2.4,Win32,59.88023952,664cef98bb2e4a28e1fce2cb,68817205a84113384fffdfe3,6881974abef3badc2c03b831,,,,,,,,,,,,,0,,,,,,,,,,,,,,,,,,,,,,,,232.7279,234.9655,0,1,1.7038,,234.9657,235.9649,0,0,0,0,1,0,depiste,REAL,FAKE,,,,,,,,,,,,,,,,,,,,,,,,,,,,,,,,
,,,,,,,,,664cef98bb2e4a28e1fce2cb,Puerto Rican,13 or older,"no, only English or Spanish",yes,2025-07-23_22h16.14.489,empathy_intonation_perc_control,2024.2.4,Win32,59.88023952,664cef98bb2e4a28e1fce2cb,68817205a84113384fffdfe3,6881974abef3badc2c03b831,,,,,,,,,,,,,1,,,,,,,,,,,,,,,,,,,,,,,,235.9675,237.3798,1,1,0.8722,,237.3799,238.3791,0,1,1,1,1,0,sí,REAL,FAKE,,,,,,,,,,,,,,,,,,,,,,,,,,,,,,,,
,,,,,,,,,664cef98bb2e4a28e1fce2cb,Puerto Rican,13 or older,"no, only English or Spanish",yes,2025-07-23_22h16.14.489,empathy_intonation_perc_control,2024.2.4,Win32,59.88023952,664cef98bb2e4a28e1fce2cb,68817205a84113384fffdfe3,6881974abef3badc2c03b831,,,,,,,,,,,,,0,,,,,,,,,,,,,,,,,,,,,,,,238.3803,240.4935,0,1,1.5722,,240.4935,241.4934,0,2,2,2,1,0,coné,REAL,FAKE,,,,,,,,,,,,,,,,,,,,,,,,,,,,,,,,
,,,,,,,,,664cef98bb2e4a28e1fce2cb,Puerto Rican,13 or older,"no, only English or Spanish",yes,2025-07-23_22h16.14.489,empathy_intonation_perc_control,2024.2.4,Win32,59.88023952,664cef98bb2e4a28e1fce2cb,68817205a84113384fffdfe3,6881974abef3badc2c03b831,,,,,,,,,,,,,0,,,,,,,,,,,,,,,,,,,,,,,,241.4959,243.2912,1,0,1.2497,,243.2922,244.2906,0,3,3,3,1,0,calpar,REAL,FAKE,,,,,,,,,,,,,,,,,,,,,,,,,,,,,,,,
,,,,,,,,,664cef98bb2e4a28e1fce2cb,Puerto Rican,13 or older,"no, only English or Spanish",yes,2025-07-23_22h16.14.489,empathy_intonation_perc_control,2024.2.4,Win32,59.88023952,664cef98bb2e4a28e1fce2cb,68817205a84113384fffdfe3,6881974abef3badc2c03b831,,,,,,,,,,,,,0,,,,,,,,,,,,,,,,,,,,,,,,244.2923,246.9551,0,1,2.1165,,246.9563,247.9543,0,4,4,4,1,0,joten,REAL,FAKE,,,,,,,,,,,,,,,,,,,,,,,,,,,,,,,,
,,,,,,,,,664cef98bb2e4a28e1fce2cb,Puerto Rican,13 or older,"no, only English or Spanish",yes,2025-07-23_22h16.14.489,empathy_intonation_perc_control,2024.2.4,Win32,59.88023952,664cef98bb2e4a28e1fce2cb,68817205a84113384fffdfe3,6881974abef3badc2c03b831,,,,,,,,,,,,,1,,,,,,,,,,,,,,,,,,,,,,,,247.9563,250.4021,0,0,1.9076,,250.4031,251.4009,0,5,5,5,1,0,sacapuntas,REAL,FAKE,,,,,,,,,,,,,,,,,,,,,,,,,,,,,,,,
,,,,,,,,,664cef98bb2e4a28e1fce2cb,Puerto Rican,13 or older,"no, only English or Spanish",yes,2025-07-23_22h16.14.489,empathy_intonation_perc_control,2024.2.4,Win32,59.88023952,664cef98bb2e4a28e1fce2cb,68817205a84113384fffdfe3,6881974abef3badc2c03b831,,,,,,,,,,,,,0,,,,,,,,,,,,,,,,,,,,,,,,251.4034,253.3495,0,1,1.4007,,253.3507,254.3486,0,6,6,6,1,0,priba,REAL,FAKE,,,,,,,,,,,,,,,,,,,,,,,,,,,,,,,,
,,,,,,,,,664cef98bb2e4a28e1fce2cb,Puerto Rican,13 or older,"no, only English or Spanish",yes,2025-07-23_22h16.14.489,empathy_intonation_perc_control,2024.2.4,Win32,59.88023952,664cef98bb2e4a28e1fce2cb,68817205a84113384fffdfe3,6881974abef3badc2c03b831,,,,,,,,,,,,,0,,,,,,,,,,,,,,,,,,,,,,,,254.3507,257.0627,1,0,2.1659,,257.064,258.0622,0,7,7,7,1,0,pelasula,REAL,FAKE,,,,,,,,,,,,,,,,,,,,,,,,,,,,,,,,
,,,,,,,,,664cef98bb2e4a28e1fce2cb,Puerto Rican,13 or older,"no, only English or Spanish",yes,2025-07-23_22h16.14.489,empathy_intonation_perc_control,2024.2.4,Win32,59.88023952,664cef98bb2e4a28e1fce2cb,68817205a84113384fffdfe3,6881974abef3badc2c03b831,,,,,,,,,,,,,1,,,,,,,,,,,,,,,,,,,,,,,,258.0643,259.3776,1,1,0.7669,,259.3791,260.3843,0,8,8,8,1,0,bien,REAL,FAKE,,,,,,,,,,,,,,,,,,,,,,,,,,,,,,,,
,,,,,,,,,664cef98bb2e4a28e1fce2cb,Puerto Rican,13 or older,"no, only English or Spanish",yes,2025-07-23_22h16.14.489,empathy_intonation_perc_control,2024.2.4,Win32,59.88023952,664cef98bb2e4a28e1fce2cb,68817205a84113384fffdfe3,6881974abef3badc2c03b831,,,,,,,,,,,,,1,,,,,,,,,,,,,,,,,,,,,,,,260.3856,261.675,1,1,0.7545,,261.675,262.6745,0,9,9,9,1,0,casa,REAL,FAKE,,,,,,,,,,,,,,,,,,,,,,,,,,,,,,,,
,,,,,,,,,664cef98bb2e4a28e1fce2cb,Puerto Rican,13 or older,"no, only English or Spanish",yes,2025-07-23_22h16.14.489,empathy_intonation_perc_control,2024.2.4,Win32,59.88023952,664cef98bb2e4a28e1fce2cb,68817205a84113384fffdfe3,6881974abef3badc2c03b831,,,,,,,,,,,,,0,,,,,,,,,,,,,,,,,,,,,,,,262.6759,264.5395,1,0,1.3166,,264.54,265.5464,0,10,10,10,1,0,lejo,REAL,FAKE,,,,,,,,,,,,,,,,,,,,,,,,,,,,,,,,
,,,,,,,,,664cef98bb2e4a28e1fce2cb,Puerto Rican,13 or older,"no, only English or Spanish",yes,2025-07-23_22h16.14.489,empathy_intonation_perc_control,2024.2.4,Win32,59.88023952,664cef98bb2e4a28e1fce2cb,68817205a84113384fffdfe3,6881974abef3badc2c03b831,,,,,,,,,,,,,0,,,,,,,,,,,,,,,,,,,,,,,,265.548,269.2855,0,1,3.1983,,269.2866,270.2844,0,11,11,11,1,0,pretantas,REAL,FAKE,,,,,,,,,,,,,,,,,,,,,,,,,,,,,,,,
,,,,,,,,,664cef98bb2e4a28e1fce2cb,Puerto Rican,13 or older,"no, only English or Spanish",yes,2025-07-23_22h16.14.489,empathy_intonation_perc_control,2024.2.4,Win32,59.88023952,664cef98bb2e4a28e1fce2cb,68817205a84113384fffdfe3,6881974abef3badc2c03b831,,,,,,,,,,,,,,,,,,,,,,,,,,,,,,,,,,,,,,,,,,,,,,,,,,,,,,270.285,271.1386,,,,,,,,,,,,,,,,,,,,,,,,,,,,,,
,,,,,,,,,664cef98bb2e4a28e1fce2cb,Puerto Rican,13 or older,"no, only English or Spanish",yes,2025-07-23_22h16.14.489,empathy_intonation_perc_control,2024.2.4,Win32,59.88023952,664cef98bb2e4a28e1fce2cb,68817205a84113384fffdfe3,6881974abef3badc2c03b831,,,,,,,,,,,,,0,,,,,,,,,,,,,,,,,,,,,,,,,,,,,,,,,,,,,87,grodo,,,,,271.1507,273.0158,0,1,1.3249,,0,0,0,86,1,REAL,FAKE,,,,,,,,,,,,,,,,,
,,,,,,,,,664cef98bb2e4a28e1fce2cb,Puerto Rican,13 or older,"no, only English or Spanish",yes,2025-07-23_22h16.14.489,empathy_intonation_perc_control,2024.2.4,Win32,59.88023952,664cef98bb2e4a28e1fce2cb,68817205a84113384fffdfe3,6881974abef3badc2c03b831,,,,,,,,,,,,,1,,,,,,,,,,,,,,,,,,,,,,,,,,,,,,,,,,,,,73,hervidor,,,,,273.0175,276.4958,0,0,2.9329,,0,1,1,72,1,REAL,FAKE,,,,,,,,,,,,,,,,,
,,,,,,,,,664cef98bb2e4a28e1fce2cb,Puerto Rican,13 or older,"no, only English or Spanish",yes,2025-07-23_22h16.14.489,empathy_intonation_perc_control,2024.2.4,Win32,59.88023952,664cef98bb2e4a28e1fce2cb,68817205a84113384fffdfe3,6881974abef3badc2c03b831,,,,,,,,,,,,,1,,,,,,,,,,,,,,,,,,,,,,,,,,,,,,,,,,,,,43,canela,,,,,276.4975,278.4984,1,1,1.4805,,0,2,2,42,1,REAL,FAKE,,,,,,,,,,,,,,,,,
,,,,,,,,,664cef98bb2e4a28e1fce2cb,Puerto Rican,13 or older,"no, only English or Spanish",yes,2025-07-23_22h16.14.489,empathy_intonation_perc_control,2024.2.4,Win32,59.88023952,664cef98bb2e4a28e1fce2cb,68817205a84113384fffdfe3,6881974abef3badc2c03b831,,,,,,,,,,,,,1,,,,,,,,,,,,,,,,,,,,,,,,,,,,,,,,,,,,,81,pozo,,,,,278.5003,281.0416,0,0,2,,0,3,3,80,1,REAL,FAKE,,,,,,,,,,,,,,,,,
,,,,,,,,,664cef98bb2e4a28e1fce2cb,Puerto Rican,13 or older,"no, only English or Spanish",yes,2025-07-23_22h16.14.489,empathy_intonation_perc_control,2024.2.4,Win32,59.88023952,664cef98bb2e4a28e1fce2cb,68817205a84113384fffdfe3,6881974abef3badc2c03b831,,,,,,,,,,,,,1,,,,,,,,,,,,,,,,,,,,,,,,,,,,,,,,,,,,,61,seda,,,,,281.0429,282.9154,1,1,1.3326,,0,4,4,60,1,REAL,FAKE,,,,,,,,,,,,,,,,,
,,,,,,,,,664cef98bb2e4a28e1fce2cb,Puerto Rican,13 or older,"no, only English or Spanish",yes,2025-07-23_22h16.14.489,empathy_intonation_perc_control,2024.2.4,Win32,59.88023952,664cef98bb2e4a28e1fce2cb,68817205a84113384fffdfe3,6881974abef3badc2c03b831,,,,,,,,,,,,,0,,,,,,,,,,,,,,,,,,,,,,,,,,,,,,,,,,,,,58,plaudir,,,,,282.9172,284.8931,0,1,1.4461,,0,5,5,57,1,REAL,FAKE,,,,,,,,,,,,,,,,,
,,,,,,,,,664cef98bb2e4a28e1fce2cb,Puerto Rican,13 or older,"no, only English or Spanish",yes,2025-07-23_22h16.14.489,empathy_intonation_perc_control,2024.2.4,Win32,59.88023952,664cef98bb2e4a28e1fce2cb,68817205a84113384fffdfe3,6881974abef3badc2c03b831,,,,,,,,,,,,,1,,,,,,,,,,,,,,,,,,,,,,,,,,,,,,,,,,,,,86,barato,,,,,284.8945,286.9034,1,1,1.4748,,0,6,6,85,1,REAL,FAKE,,,,,,,,,,,,,,,,,
,,,,,,,,,664cef98bb2e4a28e1fce2cb,Puerto Rican,13 or older,"no, only English or Spanish",yes,2025-07-23_22h16.14.489,empathy_intonation_perc_control,2024.2.4,Win32,59.88023952,664cef98bb2e4a28e1fce2cb,68817205a84113384fffdfe3,6881974abef3badc2c03b831,,,,,,,,,,,,,0,,,,,,,,,,,,,,,,,,,,,,,,,,,,,,,,,,,,,70,temblo,,,,,286.9054,288.9519,1,0,1.502,,0,7,7,69,1,REAL,FAKE,,,,,,,,,,,,,,,,,
,,,,,,,,,664cef98bb2e4a28e1fce2cb,Puerto Rican,13 or older,"no, only English or Spanish",yes,2025-07-23_22h16.14.489,empathy_intonation_perc_control,2024.2.4,Win32,59.88023952,664cef98bb2e4a28e1fce2cb,68817205a84113384fffdfe3,6881974abef3badc2c03b831,,,,,,,,,,,,,0,,,,,,,,,,,,,,,,,,,,,,,,,,,,,,,,,,,,,29,decar,,,,,288.9538,290.7666,1,0,1.2708,,0,8,8,28,1,REAL,FAKE,,,,,,,,,,,,,,,,,
,,,,,,,,,664cef98bb2e4a28e1fce2cb,Puerto Rican,13 or older,"no, only English or Spanish",yes,2025-07-23_22h16.14.489,empathy_intonation_perc_control,2024.2.4,Win32,59.88023952,664cef98bb2e4a28e1fce2cb,68817205a84113384fffdfe3,6881974abef3badc2c03b831,,,,,,,,,,,,,0,,,,,,,,,,,,,,,,,,,,,,,,,,,,,,,,,,,,,53,vegada,,,,,290.7677,292.6147,0,1,1.3064,,0,9,9,52,1,REAL,FAKE,,,,,,,,,,,,,,,,,
,,,,,,,,,664cef98bb2e4a28e1fce2cb,Puerto Rican,13 or older,"no, only English or Spanish",yes,2025-07-23_22h16.14.489,empathy_intonation_perc_control,2024.2.4,Win32,59.88023952,664cef98bb2e4a28e1fce2cb,68817205a84113384fffdfe3,6881974abef3badc2c03b831,,,,,,,,,,,,,1,,,,,,,,,,,,,,,,,,,,,,,,,,,,,,,,,,,,,48,ladrón,,,,,292.6166,294.8629,0,0,1.7001,,0,10,10,47,1,REAL,FAKE,,,,,,,,,,,,,,,,,
,,,,,,,,,664cef98bb2e4a28e1fce2cb,Puerto Rican,13 or older,"no, only English or Spanish",yes,2025-07-23_22h16.14.489,empathy_intonation_perc_control,2024.2.4,Win32,59.88023952,664cef98bb2e4a28e1fce2cb,68817205a84113384fffdfe3,6881974abef3badc2c03b831,,,,,,,,,,,,,0,,,,,,,,,,,,,,,,,,,,,,,,,,,,,,,,,,,,,17,floroso,,,,,294.865,296.7445,0,1,1.3372,,0,11,11,16,1,REAL,FAKE,,,,,,,,,,,,,,,,,
,,,,,,,,,664cef98bb2e4a28e1fce2cb,Puerto Rican,13 or older,"no, only English or Spanish",yes,2025-07-23_22h16.14.489,empathy_intonation_perc_control,2024.2.4,Win32,59.88023952,664cef98bb2e4a28e1fce2cb,68817205a84113384fffdfe3,6881974abef3badc2c03b831,,,,,,,,,,,,,0,,,,,,,,,,,,,,,,,,,,,,,,,,,,,,,,,,,,,4,batillón,,,,,296.7456,299.5095,1,0,2.2249,,0,12,12,3,1,REAL,FAKE,,,,,,,,,,,,,,,,,
,,,,,,,,,664cef98bb2e4a28e1fce2cb,Puerto Rican,13 or older,"no, only English or Spanish",yes,2025-07-23_22h16.14.489,empathy_intonation_perc_control,2024.2.4,Win32,59.88023952,664cef98bb2e4a28e1fce2cb,68817205a84113384fffdfe3,6881974abef3badc2c03b831,,,,,,,,,,,,,1,,,,,,,,,,,,,,,,,,,,,,,,,,,,,,,,,,,,,60,matar,,,,,299.5109,301.6238,1,1,1.5681,,0,13,13,59,1,REAL,FAKE,,,,,,,,,,,,,,,,,
,,,,,,,,,664cef98bb2e4a28e1fce2cb,Puerto Rican,13 or older,"no, only English or Spanish",yes,2025-07-23_22h16.14.489,empathy_intonation_perc_control,2024.2.4,Win32,59.88023952,664cef98bb2e4a28e1fce2cb,68817205a84113384fffdfe3,6881974abef3badc2c03b831,,,,,,,,,,,,,1,,,,,,,,,,,,,,,,,,,,,,,,,,,,,,,,,,,,,49,ganar,,,,,301.6246,303.1721,0,0,1.006,,0,14,14,48,1,REAL,FAKE,,,,,,,,,,,,,,,,,
,,,,,,,,,664cef98bb2e4a28e1fce2cb,Puerto Rican,13 or older,"no, only English or Spanish",yes,2025-07-23_22h16.14.489,empathy_intonation_perc_control,2024.2.4,Win32,59.88023952,664cef98bb2e4a28e1fce2cb,68817205a84113384fffdfe3,6881974abef3badc2c03b831,,,,,,,,,,,,,1,,,,,,,,,,,,,,,,,,,,,,,,,,,,,,,,,,,,,36,loro,,,,,303.1728,304.5878,0,0,0.8691,,0,15,15,35,1,REAL,FAKE,,,,,,,,,,,,,,,,,
,,,,,,,,,664cef98bb2e4a28e1fce2cb,Puerto Rican,13 or older,"no, only English or Spanish",yes,2025-07-23_22h16.14.489,empathy_intonation_perc_control,2024.2.4,Win32,59.88023952,664cef98bb2e4a28e1fce2cb,68817205a84113384fffdfe3,6881974abef3badc2c03b831,,,,,,,,,,,,,1,,,,,,,,,,,,,,,,,,,,,,,,,,,,,,,,,,,,,69,engatusar,,,,,304.589,306.5529,0,0,1.4178,,0,16,16,68,1,REAL,FAKE,,,,,,,,,,,,,,,,,
,,,,,,,,,664cef98bb2e4a28e1fce2cb,Puerto Rican,13 or older,"no, only English or Spanish",yes,2025-07-23_22h16.14.489,empathy_intonation_perc_control,2024.2.4,Win32,59.88023952,664cef98bb2e4a28e1fce2cb,68817205a84113384fffdfe3,6881974abef3badc2c03b831,,,,,,,,,,,,,1,,,,,,,,,,,,,,,,,,,,,,,,,,,,,,,,,,,,,11,cenefa,,,,,306.5542,308.2345,0,0,1.1334,,0,17,17,10,1,REAL,FAKE,,,,,,,,,,,,,,,,,
,,,,,,,,,664cef98bb2e4a28e1fce2cb,Puerto Rican,13 or older,"no, only English or Spanish",yes,2025-07-23_22h16.14.489,empathy_intonation_perc_control,2024.2.4,Win32,59.88023952,664cef98bb2e4a28e1fce2cb,68817205a84113384fffdfe3,6881974abef3badc2c03b831,,,,,,,,,,,,,1,,,,,,,,,,,,,,,,,,,,,,,,,,,,,,,,,,,,,3,pulmones,,,,,308.2353,310.8157,0,0,2.0345,,0,18,18,2,1,REAL,FAKE,,,,,,,,,,,,,,,,,
,,,,,,,,,664cef98bb2e4a28e1fce2cb,Puerto Rican,13 or older,"no, only English or Spanish",yes,2025-07-23_22h16.14.489,empathy_intonation_perc_control,2024.2.4,Win32,59.88023952,664cef98bb2e4a28e1fce2cb,68817205a84113384fffdfe3,6881974abef3badc2c03b831,,,,,,,,,,,,,1,,,,,,,,,,,,,,,,,,,,,,,,,,,,,,,,,,,,,57,tacaño,,,,,310.8177,314.1542,0,0,2.7989,,0,19,19,56,1,REAL,FAKE,,,,,,,,,,,,,,,,,
,,,,,,,,,664cef98bb2e4a28e1fce2cb,Puerto Rican,13 or older,"no, only English or Spanish",yes,2025-07-23_22h16.14.489,empathy_intonation_perc_control,2024.2.4,Win32,59.88023952,664cef98bb2e4a28e1fce2cb,68817205a84113384fffdfe3,6881974abef3badc2c03b831,,,,,,,,,,,,,0,,,,,,,,,,,,,,,,,,,,,,,,,,,,,,,,,,,,,10,antar,,,,,314.1557,316.0854,0,1,1.3999,,0,20,20,9,1,REAL,FAKE,,,,,,,,,,,,,,,,,
,,,,,,,,,664cef98bb2e4a28e1fce2cb,Puerto Rican,13 or older,"no, only English or Spanish",yes,2025-07-23_22h16.14.489,empathy_intonation_perc_control,2024.2.4,Win32,59.88023952,664cef98bb2e4a28e1fce2cb,68817205a84113384fffdfe3,6881974abef3badc2c03b831,,,,,,,,,,,,,1,,,,,,,,,,,,,,,,,,,,,,,,,,,,,,,,,,,,,45,jilguero,,,,,316.0868,317.9093,0,0,1.2868,,0,21,21,44,1,REAL,FAKE,,,,,,,,,,,,,,,,,
,,,,,,,,,664cef98bb2e4a28e1fce2cb,Puerto Rican,13 or older,"no, only English or Spanish",yes,2025-07-23_22h16.14.489,empathy_intonation_perc_control,2024.2.4,Win32,59.88023952,664cef98bb2e4a28e1fce2cb,68817205a84113384fffdfe3,6881974abef3badc2c03b831,,,,,,,,,,,,,0,,,,,,,,,,,,,,,,,,,,,,,,,,,,,,,,,,,,,72,pemición,,,,,317.9104,321.1901,0,1,2.7323,,0,22,22,71,1,REAL,FAKE,,,,,,,,,,,,,,,,,
,,,,,,,,,664cef98bb2e4a28e1fce2cb,Puerto Rican,13 or older,"no, only English or Spanish",yes,2025-07-23_22h16.14.489,empathy_intonation_perc_control,2024.2.4,Win32,59.88023952,664cef98bb2e4a28e1fce2cb,68817205a84113384fffdfe3,6881974abef3badc2c03b831,,,,,,,,,,,,,1,,,,,,,,,,,,,,,,,,,,,,,,,,,,,,,,,,,,,90,clavel,,,,,321.1918,322.8215,0,0,1.0814,,0,23,23,89,1,REAL,FAKE,,,,,,,,,,,,,,,,,
,,,,,,,,,664cef98bb2e4a28e1fce2cb,Puerto Rican,13 or older,"no, only English or Spanish",yes,2025-07-23_22h16.14.489,empathy_intonation_perc_control,2024.2.4,Win32,59.88023952,664cef98bb2e4a28e1fce2cb,68817205a84113384fffdfe3,6881974abef3badc2c03b831,,,,,,,,,,,,,1,,,,,,,,,,,,,,,,,,,,,,,,,,,,,,,,,,,,,28,merodear,,,,,322.8221,326.0692,0,0,2.7007,,0,24,24,27,1,REAL,FAKE,,,,,,,,,,,,,,,,,
,,,,,,,,,664cef98bb2e4a28e1fce2cb,Puerto Rican,13 or older,"no, only English or Spanish",yes,2025-07-23_22h16.14.489,empathy_intonation_perc_control,2024.2.4,Win32,59.88023952,664cef98bb2e4a28e1fce2cb,68817205a84113384fffdfe3,6881974abef3badc2c03b831,,,,,,,,,,,,,1,,,,,,,,,,,,,,,,,,,,,,,,,,,,,,,,,,,,,7,pésimo,,,,,326.0711,329.4493,0,0,2.8345,,0,25,25,6,1,REAL,FAKE,,,,,,,,,,,,,,,,,
,,,,,,,,,664cef98bb2e4a28e1fce2cb,Puerto Rican,13 or older,"no, only English or Spanish",yes,2025-07-23_22h16.14.489,empathy_intonation_perc_control,2024.2.4,Win32,59.88023952,664cef98bb2e4a28e1fce2cb,68817205a84113384fffdfe3,6881974abef3badc2c03b831,,,,,,,,,,,,,1,,,,,,,,,,,,,,,,,,,,,,,,,,,,,,,,,,,,,22,lacayo,,,,,329.4517,332.2802,0,0,2.2888,,0,26,26,21,1,REAL,FAKE,,,,,,,,,,,,,,,,,
,,,,,,,,,664cef98bb2e4a28e1fce2cb,Puerto Rican,13 or older,"no, only English or Spanish",yes,2025-07-23_22h16.14.489,empathy_intonation_perc_control,2024.2.4,Win32,59.88023952,664cef98bb2e4a28e1fce2cb,68817205a84113384fffdfe3,6881974abef3badc2c03b831,,,,,,,,,,,,,1,,,,,,,,,,,,,,,,,,,,,,,,,,,,,,,,,,,,,31,pandilla,,,,,332.2834,334.9779,0,0,2.1509,,0,27,27,30,1,REAL,FAKE,,,,,,,,,,,,,,,,,
,,,,,,,,,664cef98bb2e4a28e1fce2cb,Puerto Rican,13 or older,"no, only English or Spanish",yes,2025-07-23_22h16.14.489,empathy_intonation_perc_control,2024.2.4,Win32,59.88023952,664cef98bb2e4a28e1fce2cb,68817205a84113384fffdfe3,6881974abef3badc2c03b831,,,,,,,,,,,,,0,,,,,,,,,,,,,,,,,,,,,,,,,,,,,,,,,,,,,50,flamida,,,,,334.9805,336.6103,0,1,1.0835,,0,28,28,49,1,REAL,FAKE,,,,,,,,,,,,,,,,,
,,,,,,,,,664cef98bb2e4a28e1fce2cb,Puerto Rican,13 or older,"no, only English or Spanish",yes,2025-07-23_22h16.14.489,empathy_intonation_perc_control,2024.2.4,Win32,59.88023952,664cef98bb2e4a28e1fce2cb,68817205a84113384fffdfe3,6881974abef3badc2c03b831,,,,,,,,,,,,,1,,,,,,,,,,,,,,,,,,,,,,,,,,,,,,,,,,,,,68,alegre,,,,,336.612,338.1084,1,1,0.953,,0,29,29,67,1,REAL,FAKE,,,,,,,,,,,,,,,,,
,,,,,,,,,664cef98bb2e4a28e1fce2cb,Puerto Rican,13 or older,"no, only English or Spanish",yes,2025-07-23_22h16.14.489,empathy_intonation_perc_control,2024.2.4,Win32,59.88023952,664cef98bb2e4a28e1fce2cb,68817205a84113384fffdfe3,6881974abef3badc2c03b831,,,,,,,,,,,,,0,,,,,,,,,,,,,,,,,,,,,,,,,,,,,,,,,,,,,82,empirador,,,,,338.1101,340.3228,0,1,1.6664,,0,30,30,81,1,REAL,FAKE,,,,,,,,,,,,,,,,,
,,,,,,,,,664cef98bb2e4a28e1fce2cb,Puerto Rican,13 or older,"no, only English or Spanish",yes,2025-07-23_22h16.14.489,empathy_intonation_perc_control,2024.2.4,Win32,59.88023952,664cef98bb2e4a28e1fce2cb,68817205a84113384fffdfe3,6881974abef3badc2c03b831,,,,,,,,,,,,,0,,,,,,,,,,,,,,,,,,,,,,,,,,,,,,,,,,,,,1,terzo,,,,,340.3236,342.5051,0,1,1.6423,,0,31,31,0,1,REAL,FAKE,,,,,,,,,,,,,,,,,
,,,,,,,,,664cef98bb2e4a28e1fce2cb,Puerto Rican,13 or older,"no, only English or Spanish",yes,2025-07-23_22h16.14.489,empathy_intonation_perc_control,2024.2.4,Win32,59.88023952,664cef98bb2e4a28e1fce2cb,68817205a84113384fffdfe3,6881974abef3badc2c03b831,,,,,,,,,,,,,0,,,,,,,,,,,,,,,,,,,,,,,,,,,,,,,,,,,,,84,escuto,,,,,342.5063,344.2862,0,1,1.2389,,0,32,32,83,1,REAL,FAKE,,,,,,,,,,,,,,,,,
,,,,,,,,,664cef98bb2e4a28e1fce2cb,Puerto Rican,13 or older,"no, only English or Spanish",yes,2025-07-23_22h16.14.489,empathy_intonation_perc_control,2024.2.4,Win32,59.88023952,664cef98bb2e4a28e1fce2cb,68817205a84113384fffdfe3,6881974abef3badc2c03b831,,,,,,,,,,,,,1,,,,,,,,,,,,,,,,,,,,,,,,,,,,,,,,,,,,,9,hacha,,,,,344.2874,346.6508,0,0,1.8229,,0,33,33,8,1,REAL,FAKE,,,,,,,,,,,,,,,,,
,,,,,,,,,664cef98bb2e4a28e1fce2cb,Puerto Rican,13 or older,"no, only English or Spanish",yes,2025-07-23_22h16.14.489,empathy_intonation_perc_control,2024.2.4,Win32,59.88023952,664cef98bb2e4a28e1fce2cb,68817205a84113384fffdfe3,6881974abef3badc2c03b831,,,,,,,,,,,,,1,,,,,,,,,,,,,,,,,,,,,,,,,,,,,,,,,,,,,25,bisagra,,,,,346.6518,348.6738,0,0,1.4829,,0,34,34,24,1,REAL,FAKE,,,,,,,,,,,,,,,,,
,,,,,,,,,664cef98bb2e4a28e1fce2cb,Puerto Rican,13 or older,"no, only English or Spanish",yes,2025-07-23_22h16.14.489,empathy_intonation_perc_control,2024.2.4,Win32,59.88023952,664cef98bb2e4a28e1fce2cb,68817205a84113384fffdfe3,6881974abef3badc2c03b831,,,,,,,,,,,,,1,,,,,,,,,,,,,,,,,,,,,,,,,,,,,,,,,,,,,14,yunque,,,,,348.6753,350.7186,0,0,1.5124,,0,35,35,13,1,REAL,FAKE,,,,,,,,,,,,,,,,,
,,,,,,,,,664cef98bb2e4a28e1fce2cb,Puerto Rican,13 or older,"no, only English or Spanish",yes,2025-07-23_22h16.14.489,empathy_intonation_perc_control,2024.2.4,Win32,59.88023952,664cef98bb2e4a28e1fce2cb,68817205a84113384fffdfe3,6881974abef3badc2c03b831,,,,,,,,,,,,,1,,,,,,,,,,,,,,,,,,,,,,,,,,,,,,,,,,,,,64,orgulloso,,,,,350.7199,352.5126,0,0,1.25,,0,36,36,63,1,REAL,FAKE,,,,,,,,,,,,,,,,,
,,,,,,,,,664cef98bb2e4a28e1fce2cb,Puerto Rican,13 or older,"no, only English or Spanish",yes,2025-07-23_22h16.14.489,empathy_intonation_perc_control,2024.2.4,Win32,59.88023952,664cef98bb2e4a28e1fce2cb,68817205a84113384fffdfe3,6881974abef3badc2c03b831,,,,,,,,,,,,,0,,,,,,,,,,,,,,,,,,,,,,,,,,,,,,,,,,,,,30,alardio,,,,,352.5145,354.1169,0,1,1.0645,,0,37,37,29,1,REAL,FAKE,,,,,,,,,,,,,,,,,
,,,,,,,,,664cef98bb2e4a28e1fce2cb,Puerto Rican,13 or older,"no, only English or Spanish",yes,2025-07-23_22h16.14.489,empathy_intonation_perc_control,2024.2.4,Win32,59.88023952,664cef98bb2e4a28e1fce2cb,68817205a84113384fffdfe3,6881974abef3badc2c03b831,,,,,,,,,,,,,1,,,,,,,,,,,,,,,,,,,,,,,,,,,,,,,,,,,,,2,pellizcar,,,,,354.1183,356.176,0,0,1.5163,,0,38,38,1,1,REAL,FAKE,,,,,,,,,,,,,,,,,
,,,,,,,,,664cef98bb2e4a28e1fce2cb,Puerto Rican,13 or older,"no, only English or Spanish",yes,2025-07-23_22h16.14.489,empathy_intonation_perc_control,2024.2.4,Win32,59.88023952,664cef98bb2e4a28e1fce2cb,68817205a84113384fffdfe3,6881974abef3badc2c03b831,,,,,,,,,,,,,0,,,,,,,,,,,,,,,,,,,,,,,,,,,,,,,,,,,,,66,hacido,,,,,356.1773,358.1741,1,0,1.4573,,0,39,39,65,1,REAL,FAKE,,,,,,,,,,,,,,,,,
,,,,,,,,,664cef98bb2e4a28e1fce2cb,Puerto Rican,13 or older,"no, only English or Spanish",yes,2025-07-23_22h16.14.489,empathy_intonation_perc_control,2024.2.4,Win32,59.88023952,664cef98bb2e4a28e1fce2cb,68817205a84113384fffdfe3,6881974abef3badc2c03b831,,,,,,,,,,,,,1,,,,,,,,,,,,,,,,,,,,,,,,,,,,,,,,,,,,,38,estornudar,,,,,358.1752,359.7059,0,0,0.9917,,0,40,40,37,1,REAL,FAKE,,,,,,,,,,,,,,,,,
,,,,,,,,,664cef98bb2e4a28e1fce2cb,Puerto Rican,13 or older,"no, only English or Spanish",yes,2025-07-23_22h16.14.489,empathy_intonation_perc_control,2024.2.4,Win32,59.88023952,664cef98bb2e4a28e1fce2cb,68817205a84113384fffdfe3,6881974abef3badc2c03b831,,,,,,,,,,,,,1,,,,,,,,,,,,,,,,,,,,,,,,,,,,,,,,,,,,,15,regar,,,,,359.7081,361.6211,0,0,1.3703,,0,41,41,14,1,REAL,FAKE,,,,,,,,,,,,,,,,,
,,,,,,,,,664cef98bb2e4a28e1fce2cb,Puerto Rican,13 or older,"no, only English or Spanish",yes,2025-07-23_22h16.14.489,empathy_intonation_perc_control,2024.2.4,Win32,59.88023952,664cef98bb2e4a28e1fce2cb,68817205a84113384fffdfe3,6881974abef3badc2c03b831,,,,,,,,,,,,,1,,,,,,,,,,,,,,,,,,,,,,,,,,,,,,,,,,,,,26,secuestro,,,,,361.623,363.2032,0,0,1.056,,0,42,42,25,1,REAL,FAKE,,,,,,,,,,,,,,,,,
,,,,,,,,,664cef98bb2e4a28e1fce2cb,Puerto Rican,13 or older,"no, only English or Spanish",yes,2025-07-23_22h16.14.489,empathy_intonation_perc_control,2024.2.4,Win32,59.88023952,664cef98bb2e4a28e1fce2cb,68817205a84113384fffdfe3,6881974abef3badc2c03b831,,,,,,,,,,,,,0,,,,,,,,,,,,,,,,,,,,,,,,,,,,,,,,,,,,,42,cadallo,,,,,363.2052,365.368,0,1,1.6164,,0,43,43,41,1,REAL,FAKE,,,,,,,,,,,,,,,,,
,,,,,,,,,664cef98bb2e4a28e1fce2cb,Puerto Rican,13 or older,"no, only English or Spanish",yes,2025-07-23_22h16.14.489,empathy_intonation_perc_control,2024.2.4,Win32,59.88023952,664cef98bb2e4a28e1fce2cb,68817205a84113384fffdfe3,6881974abef3badc2c03b831,,,,,,,,,,,,,1,,,,,,,,,,,,,,,,,,,,,,,,,,,,,,,,,,,,,52,camisa,,,,,365.37,366.5999,1,1,0.69,,0,44,44,51,1,REAL,FAKE,,,,,,,,,,,,,,,,,
,,,,,,,,,664cef98bb2e4a28e1fce2cb,Puerto Rican,13 or older,"no, only English or Spanish",yes,2025-07-23_22h16.14.489,empathy_intonation_perc_control,2024.2.4,Win32,59.88023952,664cef98bb2e4a28e1fce2cb,68817205a84113384fffdfe3,6881974abef3badc2c03b831,,,,,,,,,,,,,1,,,,,,,,,,,,,,,,,,,,,,,,,,,,,,,,,,,,,12,asesinato,,,,,366.6013,368.1825,0,0,1.0429,,0,45,45,11,1,REAL,FAKE,,,,,,,,,,,,,,,,,
,,,,,,,,,664cef98bb2e4a28e1fce2cb,Puerto Rican,13 or older,"no, only English or Spanish",yes,2025-07-23_22h16.14.489,empathy_intonation_perc_control,2024.2.4,Win32,59.88023952,664cef98bb2e4a28e1fce2cb,68817205a84113384fffdfe3,6881974abef3badc2c03b831,,,,,,,,,,,,,1,,,,,,,,,,,,,,,,,,,,,,,,,,,,,,,,,,,,,37,granuja,,,,,368.1849,369.9805,0,0,1.2677,,0,46,46,36,1,REAL,FAKE,,,,,,,,,,,,,,,,,
,,,,,,,,,664cef98bb2e4a28e1fce2cb,Puerto Rican,13 or older,"no, only English or Spanish",yes,2025-07-23_22h16.14.489,empathy_intonation_perc_control,2024.2.4,Win32,59.88023952,664cef98bb2e4a28e1fce2cb,68817205a84113384fffdfe3,6881974abef3badc2c03b831,,,,,,,,,,,,,1,,,,,,,,,,,,,,,,,,,,,,,,,,,,,,,,,,,,,13,helar,,,,,369.982,371.5704,0,0,1.0663,,0,47,47,12,1,REAL,FAKE,,,,,,,,,,,,,,,,,
,,,,,,,,,664cef98bb2e4a28e1fce2cb,Puerto Rican,13 or older,"no, only English or Spanish",yes,2025-07-23_22h16.14.489,empathy_intonation_perc_control,2024.2.4,Win32,59.88023952,664cef98bb2e4a28e1fce2cb,68817205a84113384fffdfe3,6881974abef3badc2c03b831,,,,,,,,,,,,,1,,,,,,,,,,,,,,,,,,,,,,,,,,,,,,,,,,,,,71,polvoriento,,,,,371.5721,372.9279,0,0,0.8175,,0,48,48,70,1,REAL,FAKE,,,,,,,,,,,,,,,,,
,,,,,,,,,664cef98bb2e4a28e1fce2cb,Puerto Rican,13 or older,"no, only English or Spanish",yes,2025-07-23_22h16.14.489,empathy_intonation_perc_control,2024.2.4,Win32,59.88023952,664cef98bb2e4a28e1fce2cb,68817205a84113384fffdfe3,6881974abef3badc2c03b831,,,,,,,,,,,,,1,,,,,,,,,,,,,,,,,,,,,,,,,,,,,,,,,,,,,51,candado,,,,,372.9291,374.3934,0,0,0.9245,,0,49,49,50,1,REAL,FAKE,,,,,,,,,,,,,,,,,
,,,,,,,,,664cef98bb2e4a28e1fce2cb,Puerto Rican,13 or older,"no, only English or Spanish",yes,2025-07-23_22h16.14.489,empathy_intonation_perc_control,2024.2.4,Win32,59.88023952,664cef98bb2e4a28e1fce2cb,68817205a84113384fffdfe3,6881974abef3badc2c03b831,,,,,,,,,,,,,0,,,,,,,,,,,,,,,,,,,,,,,,,,,,,,,,,,,,,35,rompido,,,,,374.3959,376.2581,0,1,1.3214,,0,50,50,34,1,REAL,FAKE,,,,,,,,,,,,,,,,,
,,,,,,,,,664cef98bb2e4a28e1fce2cb,Puerto Rican,13 or older,"no, only English or Spanish",yes,2025-07-23_22h16.14.489,empathy_intonation_perc_control,2024.2.4,Win32,59.88023952,664cef98bb2e4a28e1fce2cb,68817205a84113384fffdfe3,6881974abef3badc2c03b831,,,,,,,,,,,,,1,,,,,,,,,,,,,,,,,,,,,,,,,,,,,,,,,,,,,34,aviso,,,,,376.2589,377.6072,0,0,0.8013,,0,51,51,33,1,REAL,FAKE,,,,,,,,,,,,,,,,,
,,,,,,,,,664cef98bb2e4a28e1fce2cb,Puerto Rican,13 or older,"no, only English or Spanish",yes,2025-07-23_22h16.14.489,empathy_intonation_perc_control,2024.2.4,Win32,59.88023952,664cef98bb2e4a28e1fce2cb,68817205a84113384fffdfe3,6881974abef3badc2c03b831,,,,,,,,,,,,,1,,,,,,,,,,,,,,,,,,,,,,,,,,,,,,,,,,,,,54,fomentar,,,,,377.6085,379.4892,0,0,1.3422,,0,52,52,53,1,REAL,FAKE,,,,,,,,,,,,,,,,,
,,,,,,,,,664cef98bb2e4a28e1fce2cb,Puerto Rican,13 or older,"no, only English or Spanish",yes,2025-07-23_22h16.14.489,empathy_intonation_perc_control,2024.2.4,Win32,59.88023952,664cef98bb2e4a28e1fce2cb,68817205a84113384fffdfe3,6881974abef3badc2c03b831,,,,,,,,,,,,,0,,,,,,,,,,,,,,,,,,,,,,,,,,,,,,,,,,,,,74,cintro,,,,,379.4905,381.1539,0,1,1.124,,0,53,53,73,1,REAL,FAKE,,,,,,,,,,,,,,,,,
,,,,,,,,,664cef98bb2e4a28e1fce2cb,Puerto Rican,13 or older,"no, only English or Spanish",yes,2025-07-23_22h16.14.489,empathy_intonation_perc_control,2024.2.4,Win32,59.88023952,664cef98bb2e4a28e1fce2cb,68817205a84113384fffdfe3,6881974abef3badc2c03b831,,,,,,,,,,,,,0,,,,,,,,,,,,,,,,,,,,,,,,,,,,,,,,,,,,,27,acutación,,,,,381.1551,383.0194,0,1,1.3252,,0,54,54,26,1,REAL,FAKE,,,,,,,,,,,,,,,,,
,,,,,,,,,664cef98bb2e4a28e1fce2cb,Puerto Rican,13 or older,"no, only English or Spanish",yes,2025-07-23_22h16.14.489,empathy_intonation_perc_control,2024.2.4,Win32,59.88023952,664cef98bb2e4a28e1fce2cb,68817205a84113384fffdfe3,6881974abef3badc2c03b831,,,,,,,,,,,,,0,,,,,,,,,,,,,,,,,,,,,,,,,,,,,,,,,,,,,79,tropaje,,,,,383.0214,384.9506,0,1,1.385,,0,55,55,78,1,REAL,FAKE,,,,,,,,,,,,,,,,,
,,,,,,,,,664cef98bb2e4a28e1fce2cb,Puerto Rican,13 or older,"no, only English or Spanish",yes,2025-07-23_22h16.14.489,empathy_intonation_perc_control,2024.2.4,Win32,59.88023952,664cef98bb2e4a28e1fce2cb,68817205a84113384fffdfe3,6881974abef3badc2c03b831,,,,,,,,,,,,,1,,,,,,,,,,,,,,,,,,,,,,,,,,,,,,,,,,,,,75,yacer,,,,,384.9519,386.7322,0,0,1.2407,,0,56,56,74,1,REAL,FAKE,,,,,,,,,,,,,,,,,
,,,,,,,,,664cef98bb2e4a28e1fce2cb,Puerto Rican,13 or older,"no, only English or Spanish",yes,2025-07-23_22h16.14.489,empathy_intonation_perc_control,2024.2.4,Win32,59.88023952,664cef98bb2e4a28e1fce2cb,68817205a84113384fffdfe3,6881974abef3badc2c03b831,,,,,,,,,,,,,0,,,,,,,,,,,,,,,,,,,,,,,,,,,,,,,,,,,,,18,arsa,,,,,386.7332,388.6037,0,1,1.3314,,0,57,57,17,1,REAL,FAKE,,,,,,,,,,,,,,,,,
,,,,,,,,,664cef98bb2e4a28e1fce2cb,Puerto Rican,13 or older,"no, only English or Spanish",yes,2025-07-23_22h16.14.489,empathy_intonation_perc_control,2024.2.4,Win32,59.88023952,664cef98bb2e4a28e1fce2cb,68817205a84113384fffdfe3,6881974abef3badc2c03b831,,,,,,,,,,,,,1,,,,,,,,,,,,,,,,,,,,,,,,,,,,,,,,,,,,,83,guante,,,,,388.6054,389.9962,1,1,0.8509,,0,58,58,82,1,REAL,FAKE,,,,,,,,,,,,,,,,,
,,,,,,,,,664cef98bb2e4a28e1fce2cb,Puerto Rican,13 or older,"no, only English or Spanish",yes,2025-07-23_22h16.14.489,empathy_intonation_perc_control,2024.2.4,Win32,59.88023952,664cef98bb2e4a28e1fce2cb,68817205a84113384fffdfe3,6881974abef3badc2c03b831,,,,,,,,,,,,,1,,,,,,,,,,,,,,,,,,,,,,,,,,,,,,,,,,,,,5,zapato,,,,,389.9981,391.5449,1,1,1.0029,,0,59,59,4,1,REAL,FAKE,,,,,,,,,,,,,,,,,
,,,,,,,,,664cef98bb2e4a28e1fce2cb,Puerto Rican,13 or older,"no, only English or Spanish",yes,2025-07-23_22h16.14.489,empathy_intonation_perc_control,2024.2.4,Win32,59.88023952,664cef98bb2e4a28e1fce2cb,68817205a84113384fffdfe3,6881974abef3badc2c03b831,,,,,,,,,,,,,0,,,,,,,,,,,,,,,,,,,,,,,,,,,,,,,,,,,,,19,brecedad,,,,,391.546,392.9436,0,1,0.8563,,0,60,60,18,1,REAL,FAKE,,,,,,,,,,,,,,,,,
,,,,,,,,,664cef98bb2e4a28e1fce2cb,Puerto Rican,13 or older,"no, only English or Spanish",yes,2025-07-23_22h16.14.489,empathy_intonation_perc_control,2024.2.4,Win32,59.88023952,664cef98bb2e4a28e1fce2cb,68817205a84113384fffdfe3,6881974abef3badc2c03b831,,,,,,,,,,,,,1,,,,,,,,,,,,,,,,,,,,,,,,,,,,,,,,,,,,,56,musgo,,,,,392.9452,394.3257,0,0,0.8377,,0,61,61,55,1,REAL,FAKE,,,,,,,,,,,,,,,,,
,,,,,,,,,664cef98bb2e4a28e1fce2cb,Puerto Rican,13 or older,"no, only English or Spanish",yes,2025-07-23_22h16.14.489,empathy_intonation_perc_control,2024.2.4,Win32,59.88023952,664cef98bb2e4a28e1fce2cb,68817205a84113384fffdfe3,6881974abef3badc2c03b831,,,,,,,,,,,,,1,,,,,,,,,,,,,,,,,,,,,,,,,,,,,,,,,,,,,80,hormiga,,,,,394.3267,396.1241,0,0,1.2519,,0,62,62,79,1,REAL,FAKE,,,,,,,,,,,,,,,,,
,,,,,,,,,664cef98bb2e4a28e1fce2cb,Puerto Rican,13 or older,"no, only English or Spanish",yes,2025-07-23_22h16.14.489,empathy_intonation_perc_control,2024.2.4,Win32,59.88023952,664cef98bb2e4a28e1fce2cb,68817205a84113384fffdfe3,6881974abef3badc2c03b831,,,,,,,,,,,,,1,,,,,,,,,,,,,,,,,,,,,,,,,,,,,,,,,,,,,44,cuchara,,,,,396.1253,397.7394,0,0,1.07,,0,63,63,43,1,REAL,FAKE,,,,,,,,,,,,,,,,,
,,,,,,,,,664cef98bb2e4a28e1fce2cb,Puerto Rican,13 or older,"no, only English or Spanish",yes,2025-07-23_22h16.14.489,empathy_intonation_perc_control,2024.2.4,Win32,59.88023952,664cef98bb2e4a28e1fce2cb,68817205a84113384fffdfe3,6881974abef3badc2c03b831,,,,,,,,,,,,,0,,,,,,,,,,,,,,,,,,,,,,,,,,,,,,,,,,,,,33,pauca,,,,,397.7411,399.4763,0,1,1.1969,,0,64,64,32,1,REAL,FAKE,,,,,,,,,,,,,,,,,
,,,,,,,,,664cef98bb2e4a28e1fce2cb,Puerto Rican,13 or older,"no, only English or Spanish",yes,2025-07-23_22h16.14.489,empathy_intonation_perc_control,2024.2.4,Win32,59.88023952,664cef98bb2e4a28e1fce2cb,68817205a84113384fffdfe3,6881974abef3badc2c03b831,,,,,,,,,,,,,0,,,,,,,,,,,,,,,,,,,,,,,,,,,,,,,,,,,,,92,click the 0 key.,,,,,399.4786,401.5527,0,1,1.5341,,0,65,65,91,1,REAL,FAKE,,,,,,,,,,,,,,,,,
,,,,,,,,,664cef98bb2e4a28e1fce2cb,Puerto Rican,13 or older,"no, only English or Spanish",yes,2025-07-23_22h16.14.489,empathy_intonation_perc_control,2024.2.4,Win32,59.88023952,664cef98bb2e4a28e1fce2cb,68817205a84113384fffdfe3,6881974abef3badc2c03b831,,,,,,,,,,,,,1,,,,,,,,,,,,,,,,,,,,,,,,,,,,,,,,,,,,,89,prisa,,,,,401.5545,404.7831,0,0,2.6869,,0,66,66,88,1,REAL,FAKE,,,,,,,,,,,,,,,,,
,,,,,,,,,664cef98bb2e4a28e1fce2cb,Puerto Rican,13 or older,"no, only English or Spanish",yes,2025-07-23_22h16.14.489,empathy_intonation_perc_control,2024.2.4,Win32,59.88023952,664cef98bb2e4a28e1fce2cb,68817205a84113384fffdfe3,6881974abef3badc2c03b831,,,,,,,,,,,,,1,,,,,,,,,,,,,,,,,,,,,,,,,,,,,,,,,,,,,88,acantilado,,,,,404.7846,406.5819,0,0,1.2502,,0,67,67,87,1,REAL,FAKE,,,,,,,,,,,,,,,,,
,,,,,,,,,664cef98bb2e4a28e1fce2cb,Puerto Rican,13 or older,"no, only English or Spanish",yes,2025-07-23_22h16.14.489,empathy_intonation_perc_control,2024.2.4,Win32,59.88023952,664cef98bb2e4a28e1fce2cb,68817205a84113384fffdfe3,6881974abef3badc2c03b831,,,,,,,,,,,,,1,,,,,,,,,,,,,,,,,,,,,,,,,,,,,,,,,,,,,46,martillo,,,,,406.5845,410.8446,0,0,3.7156,,0,68,68,45,1,REAL,FAKE,,,,,,,,,,,,,,,,,
,,,,,,,,,664cef98bb2e4a28e1fce2cb,Puerto Rican,13 or older,"no, only English or Spanish",yes,2025-07-23_22h16.14.489,empathy_intonation_perc_control,2024.2.4,Win32,59.88023952,664cef98bb2e4a28e1fce2cb,68817205a84113384fffdfe3,6881974abef3badc2c03b831,,,,,,,,,,,,,0,,,,,,,,,,,,,,,,,,,,,,,,,,,,,,,,,,,,,16,abracer,,,,,410.8461,414.1584,0,1,2.7668,,0,69,69,15,1,REAL,FAKE,,,,,,,,,,,,,,,,,
,,,,,,,,,664cef98bb2e4a28e1fce2cb,Puerto Rican,13 or older,"no, only English or Spanish",yes,2025-07-23_22h16.14.489,empathy_intonation_perc_control,2024.2.4,Win32,59.88023952,664cef98bb2e4a28e1fce2cb,68817205a84113384fffdfe3,6881974abef3badc2c03b831,,,,,,,,,,,,,1,,,,,,,,,,,,,,,,,,,,,,,,,,,,,,,,,,,,,77,tiburón,,,,,414.1604,416.1234,0,0,1.4197,,0,70,70,76,1,REAL,FAKE,,,,,,,,,,,,,,,,,
,,,,,,,,,664cef98bb2e4a28e1fce2cb,Puerto Rican,13 or older,"no, only English or Spanish",yes,2025-07-23_22h16.14.489,empathy_intonation_perc_control,2024.2.4,Win32,59.88023952,664cef98bb2e4a28e1fce2cb,68817205a84113384fffdfe3,6881974abef3badc2c03b831,,,,,,,,,,,,,1,,,,,,,,,,,,,,,,,,,,,,,,,,,,,,,,,,,,,24,látigo,,,,,416.1255,418.5543,1,1,1.8827,,0,71,71,23,1,REAL,FAKE,,,,,,,,,,,,,,,,,
,,,,,,,,,664cef98bb2e4a28e1fce2cb,Puerto Rican,13 or older,"no, only English or Spanish",yes,2025-07-23_22h16.14.489,empathy_intonation_perc_control,2024.2.4,Win32,59.88023952,664cef98bb2e4a28e1fce2cb,68817205a84113384fffdfe3,6881974abef3badc2c03b831,,,,,,,,,,,,,0,,,,,,,,,,,,,,,,,,,,,,,,,,,,,,,,,,,,,21,capillo,,,,,418.5554,419.8704,0,1,0.7715,,0,72,72,20,1,REAL,FAKE,,,,,,,,,,,,,,,,,
,,,,,,,,,664cef98bb2e4a28e1fce2cb,Puerto Rican,13 or older,"no, only English or Spanish",yes,2025-07-23_22h16.14.489,empathy_intonation_perc_control,2024.2.4,Win32,59.88023952,664cef98bb2e4a28e1fce2cb,68817205a84113384fffdfe3,6881974abef3badc2c03b831,,,,,,,,,,,,,1,,,,,,,,,,,,,,,,,,,,,,,,,,,,,,,,,,,,,39,torpe,,,,,419.8716,421.219,0,0,0.81,,0,73,73,38,1,REAL,FAKE,,,,,,,,,,,,,,,,,
,,,,,,,,,664cef98bb2e4a28e1fce2cb,Puerto Rican,13 or older,"no, only English or Spanish",yes,2025-07-23_22h16.14.489,empathy_intonation_perc_control,2024.2.4,Win32,59.88023952,664cef98bb2e4a28e1fce2cb,68817205a84113384fffdfe3,6881974abef3badc2c03b831,,,,,,,,,,,,,1,,,,,,,,,,,,,,,,,,,,,,,,,,,,,,,,,,,,,55,nevar,,,,,421.2203,422.4901,0,0,0.7309,,0,74,74,54,1,REAL,FAKE,,,,,,,,,,,,,,,,,
,,,,,,,,,664cef98bb2e4a28e1fce2cb,Puerto Rican,13 or older,"no, only English or Spanish",yes,2025-07-23_22h16.14.489,empathy_intonation_perc_control,2024.2.4,Win32,59.88023952,664cef98bb2e4a28e1fce2cb,68817205a84113384fffdfe3,6881974abef3badc2c03b831,,,,,,,,,,,,,1,,,,,,,,,,,,,,,,,,,,,,,,,,,,,,,,,,,,,65,bizcocho,,,,,422.4915,425.2819,1,1,2.2513,,0,75,75,64,1,REAL,FAKE,,,,,,,,,,,,,,,,,
,,,,,,,,,664cef98bb2e4a28e1fce2cb,Puerto Rican,13 or older,"no, only English or Spanish",yes,2025-07-23_22h16.14.489,empathy_intonation_perc_control,2024.2.4,Win32,59.88023952,664cef98bb2e4a28e1fce2cb,68817205a84113384fffdfe3,6881974abef3badc2c03b831,,,,,,,,,,,,,1,,,,,,,,,,,,,,,,,,,,,,,,,,,,,,,,,,,,,78,frondoso,,,,,425.2832,427.5632,0,0,1.7341,,0,76,76,77,1,REAL,FAKE,,,,,,,,,,,,,,,,,
,,,,,,,,,664cef98bb2e4a28e1fce2cb,Puerto Rican,13 or older,"no, only English or Spanish",yes,2025-07-23_22h16.14.489,empathy_intonation_perc_control,2024.2.4,Win32,59.88023952,664cef98bb2e4a28e1fce2cb,68817205a84113384fffdfe3,6881974abef3badc2c03b831,,,,,,,,,,,,,1,,,,,,,,,,,,,,,,,,,,,,,,,,,,,,,,,,,,,41,rebuscar,,,,,427.5645,428.8953,0,0,0.7826,,0,77,77,40,1,REAL,FAKE,,,,,,,,,,,,,,,,,
,,,,,,,,,664cef98bb2e4a28e1fce2cb,Puerto Rican,13 or older,"no, only English or Spanish",yes,2025-07-23_22h16.14.489,empathy_intonation_perc_control,2024.2.4,Win32,59.88023952,664cef98bb2e4a28e1fce2cb,68817205a84113384fffdfe3,6881974abef3badc2c03b831,,,,,,,,,,,,,0,,,,,,,,,,,,,,,,,,,,,,,,,,,,,,,,,,,,,8,cadeña,,,,,428.8971,430.7513,1,0,1.3334,,0,78,78,7,1,REAL,FAKE,,,,,,,,,,,,,,,,,
,,,,,,,,,664cef98bb2e4a28e1fce2cb,Puerto Rican,13 or older,"no, only English or Spanish",yes,2025-07-23_22h16.14.489,empathy_intonation_perc_control,2024.2.4,Win32,59.88023952,664cef98bb2e4a28e1fce2cb,68817205a84113384fffdfe3,6881974abef3badc2c03b831,,,,,,,,,,,,,0,,,,,,,,,,,,,,,,,,,,,,,,,,,,,,,,,,,,,23,lampera,,,,,430.7532,432.3756,0,1,1.0876,,0,79,79,22,1,REAL,FAKE,,,,,,,,,,,,,,,,,
,,,,,,,,,664cef98bb2e4a28e1fce2cb,Puerto Rican,13 or older,"no, only English or Spanish",yes,2025-07-23_22h16.14.489,empathy_intonation_perc_control,2024.2.4,Win32,59.88023952,664cef98bb2e4a28e1fce2cb,68817205a84113384fffdfe3,6881974abef3badc2c03b831,,,,,,,,,,,,,0,,,,,,,,,,,,,,,,,,,,,,,,,,,,,,,,,,,,,63,esposante,,,,,432.3766,433.891,0,1,0.9683,,0,80,80,62,1,REAL,FAKE,,,,,,,,,,,,,,,,,
,,,,,,,,,664cef98bb2e4a28e1fce2cb,Puerto Rican,13 or older,"no, only English or Spanish",yes,2025-07-23_22h16.14.489,empathy_intonation_perc_control,2024.2.4,Win32,59.88023952,664cef98bb2e4a28e1fce2cb,68817205a84113384fffdfe3,6881974abef3badc2c03b831,,,,,,,,,,,,,1,,,,,,,,,,,,,,,,,,,,,,,,,,,,,,,,,,,,,76,atar,,,,,433.8922,435.0445,0,0,0.6138,,0,81,81,75,1,REAL,FAKE,,,,,,,,,,,,,,,,,
,,,,,,,,,664cef98bb2e4a28e1fce2cb,Puerto Rican,13 or older,"no, only English or Spanish",yes,2025-07-23_22h16.14.489,empathy_intonation_perc_control,2024.2.4,Win32,59.88023952,664cef98bb2e4a28e1fce2cb,68817205a84113384fffdfe3,6881974abef3badc2c03b831,,,,,,,,,,,,,1,,,,,,,,,,,,,,,,,,,,,,,,,,,,,,,,,,,,,91,click the 1 key.,,,,,435.0462,436.4286,1,1,0.8483,,0,82,82,90,1,REAL,FAKE,,,,,,,,,,,,,,,,,
,,,,,,,,,664cef98bb2e4a28e1fce2cb,Puerto Rican,13 or older,"no, only English or Spanish",yes,2025-07-23_22h16.14.489,empathy_intonation_perc_control,2024.2.4,Win32,59.88023952,664cef98bb2e4a28e1fce2cb,68817205a84113384fffdfe3,6881974abef3badc2c03b831,,,,,,,,,,,,,1,,,,,,,,,,,,,,,,,,,,,,,,,,,,,,,,,,,,,20,ávido,,,,,436.4293,438.3883,0,0,1.4265,,0,83,83,19,1,REAL,FAKE,,,,,,,,,,,,,,,,,
,,,,,,,,,664cef98bb2e4a28e1fce2cb,Puerto Rican,13 or older,"no, only English or Spanish",yes,2025-07-23_22h16.14.489,empathy_intonation_perc_control,2024.2.4,Win32,59.88023952,664cef98bb2e4a28e1fce2cb,68817205a84113384fffdfe3,6881974abef3badc2c03b831,,,,,,,,,,,,,1,,,,,,,,,,,,,,,,,,,,,,,,,,,,,,,,,,,,,67,cabello,,,,,438.3899,439.7579,1,1,0.8319,,0,84,84,66,1,REAL,FAKE,,,,,,,,,,,,,,,,,
,,,,,,,,,664cef98bb2e4a28e1fce2cb,Puerto Rican,13 or older,"no, only English or Spanish",yes,2025-07-23_22h16.14.489,empathy_intonation_perc_control,2024.2.4,Win32,59.88023952,664cef98bb2e4a28e1fce2cb,68817205a84113384fffdfe3,6881974abef3badc2c03b831,,,,,,,,,,,,,0,,,,,,,,,,,,,,,,,,,,,,,,,,,,,,,,,,,,,47,cartinar,,,,,439.7584,441.4173,0,1,1.1171,,0,85,85,46,1,REAL,FAKE,,,,,,,,,,,,,,,,,
,,,,,,,,,664cef98bb2e4a28e1fce2cb,Puerto Rican,13 or older,"no, only English or Spanish",yes,2025-07-23_22h16.14.489,empathy_intonation_perc_control,2024.2.4,Win32,59.88023952,664cef98bb2e4a28e1fce2cb,68817205a84113384fffdfe3,6881974abef3badc2c03b831,,,,,,,,,,,,,1,,,,,,,,,,,,,,,,,,,,,,,,,,,,,,,,,,,,,85,laúd,,,,,441.4181,443.0241,0,0,1.066,,0,86,86,84,1,REAL,FAKE,,,,,,,,,,,,,,,,,
,,,,,,,,,664cef98bb2e4a28e1fce2cb,Puerto Rican,13 or older,"no, only English or Spanish",yes,2025-07-23_22h16.14.489,empathy_intonation_perc_control,2024.2.4,Win32,59.88023952,664cef98bb2e4a28e1fce2cb,68817205a84113384fffdfe3,6881974abef3badc2c03b831,,,,,,,,,,,,,1,,,,,,,,,,,,,,,,,,,,,,,,,,,,,,,,,,,,,59,besar,,,,,443.0255,444.8149,0,0,1.2535,,0,87,87,58,1,REAL,FAKE,,,,,,,,,,,,,,,,,
,,,,,,,,,664cef98bb2e4a28e1fce2cb,Puerto Rican,13 or older,"no, only English or Spanish",yes,2025-07-23_22h16.14.489,empathy_intonation_perc_control,2024.2.4,Win32,59.88023952,664cef98bb2e4a28e1fce2cb,68817205a84113384fffdfe3,6881974abef3badc2c03b831,,,,,,,,,,,,,1,,,,,,,,,,,,,,,,,,,,,,,,,,,,,,,,,,,,,6,tergiversar,,,,,444.8166,446.3136,0,0,0.9529,,0,88,88,5,1,REAL,FAKE,,,,,,,,,,,,,,,,,
,,,,,,,,,664cef98bb2e4a28e1fce2cb,Puerto Rican,13 or older,"no, only English or Spanish",yes,2025-07-23_22h16.14.489,empathy_intonation_perc_control,2024.2.4,Win32,59.88023952,664cef98bb2e4a28e1fce2cb,68817205a84113384fffdfe3,6881974abef3badc2c03b831,,,,,,,,,,,,,1,,,,,,,,,,,,,,,,,,,,,,,,,,,,,,,,,,,,,40,alfombra,,,,,446.3153,448.3949,0,0,1.554,,0,89,89,39,1,REAL,FAKE,,,,,,,,,,,,,,,,,
,,,,,,,,,664cef98bb2e4a28e1fce2cb,Puerto Rican,13 or older,"no, only English or Spanish",yes,2025-07-23_22h16.14.489,empathy_intonation_perc_control,2024.2.4,Win32,59.88023952,664cef98bb2e4a28e1fce2cb,68817205a84113384fffdfe3,6881974abef3badc2c03b831,,,,,,,,,,,,,1,,,,,,,,,,,,,,,,,,,,,,,,,,,,,,,,,,,,,62,flaco,,,,,448.3969,451.2091,1,1,2.2735,,0,90,90,61,1,REAL,FAKE,,,,,,,,,,,,,,,,,
,,,,,,,,,664cef98bb2e4a28e1fce2cb,Puerto Rican,13 or older,"no, only English or Spanish",yes,2025-07-23_22h16.14.489,empathy_intonation_perc_control,2024.2.4,Win32,59.88023952,664cef98bb2e4a28e1fce2cb,68817205a84113384fffdfe3,6881974abef3badc2c03b831,,,,,,,,,,,,,0,,,,,,,,,,,,,,,,,,,,,,,,,,,,,,,,,,,,,32,fatacidad,,,,,451.2102,453.4072,0,1,1.6506,,0,91,91,31,1,REAL,FAKE,,,,,,,,,,,,,,,,,
,,,,,,,,,664cef98bb2e4a28e1fce2cb,Puerto Rican,13 or older,"no, only English or Spanish",yes,2025-07-23_22h16.14.489,empathy_intonation_perc_control,2024.2.4,Win32,59.88023952,664cef98bb2e4a28e1fce2cb,68817205a84113384fffdfe3,6881974abef3badc2c03b831,,,,,,,,,,,,,,,,,,,,,,,,,,,,,,,,,,,,,,,,,,,,,,,,,,,,,,,,,,,,,,,,,,,,,453.4079,456.688,,,,,,,,,,,,,,,
,,,,,,,,,664cef98bb2e4a28e1fce2cb,Puerto Rican,13 or older,"no, only English or Spanish",yes,2025-07-23_22h16.14.489,empathy_intonation_perc_control,2024.2.4,Win32,59.88023952,664cef98bb2e4a28e1fce2cb,68817205a84113384fffdfe3,6881974abef3badc2c03b831,,,,,,,,,,,,,,,,,,,,,,,,,,,1,,,,,,,,,,,,,,,,,,,,,,,,,,,,,,,,,,,,,,,,,,,,456.6991,462.4326,strongly agree,0,0,0,0,1,I can easily tell if someone else wants to enter a conversation.,1,0,1,0,,
,,,,,,,,,664cef98bb2e4a28e1fce2cb,Puerto Rican,13 or older,"no, only English or Spanish",yes,2025-07-23_22h16.14.489,empathy_intonation_perc_control,2024.2.4,Win32,59.88023952,664cef98bb2e4a28e1fce2cb,68817205a84113384fffdfe3,6881974abef3badc2c03b831,,,,,,,,,,,,,,,,,,,,,,,,,,,2,,,,,,,,,,,,,,,,,,,,,,,,,,,,,,,,,,,,,,,,,,,,462.4342,465.0466,slightly agree,0,1,1,1,1,I prefer animals to humans.,0,1,0,0,,
,,,,,,,,,664cef98bb2e4a28e1fce2cb,Puerto Rican,13 or older,"no, only English or Spanish",yes,2025-07-23_22h16.14.489,empathy_intonation_perc_control,2024.2.4,Win32,59.88023952,664cef98bb2e4a28e1fce2cb,68817205a84113384fffdfe3,6881974abef3badc2c03b831,,,,,,,,,,,,,,,,,,,,,,,,,,,3,,,,,,,,,,,,,,,,,,,,,,,,,,,,,,,,,,,,,,,,,,,,465.048,467.6113,slightly agree,0,2,2,2,1,I try to keep up with the current trends and fashions.,0,1,0,0,,
,,,,,,,,,664cef98bb2e4a28e1fce2cb,Puerto Rican,13 or older,"no, only English or Spanish",yes,2025-07-23_22h16.14.489,empathy_intonation_perc_control,2024.2.4,Win32,59.88023952,664cef98bb2e4a28e1fce2cb,68817205a84113384fffdfe3,6881974abef3badc2c03b831,,,,,,,,,,,,,,,,,,,,,,,,,,,4,,,,,,,,,,,,,,,,,,,,,,,,,,,,,,,,,,,,,,,,,,,,467.6131,474.4553,slightly agree,0,3,3,3,1,"I find it difficult to explain to others things that I understand easily,   when they don't understand it first time.",1,0,0,1,,
,,,,,,,,,664cef98bb2e4a28e1fce2cb,Puerto Rican,13 or older,"no, only English or Spanish",yes,2025-07-23_22h16.14.489,empathy_intonation_perc_control,2024.2.4,Win32,59.88023952,664cef98bb2e4a28e1fce2cb,68817205a84113384fffdfe3,6881974abef3badc2c03b831,,,,,,,,,,,,,,,,,,,,,,,,,,,5,,,,,,,,,,,,,,,,,,,,,,,,,,,,,,,,,,,,,,,,,,,,474.4563,476.8199,slightly disagree,0,4,4,4,1,I dream most nights.,0,1,0,0,,
,,,,,,,,,664cef98bb2e4a28e1fce2cb,Puerto Rican,13 or older,"no, only English or Spanish",yes,2025-07-23_22h16.14.489,empathy_intonation_perc_control,2024.2.4,Win32,59.88023952,664cef98bb2e4a28e1fce2cb,68817205a84113384fffdfe3,6881974abef3badc2c03b831,,,,,,,,,,,,,,,,,,,,,,,,,,,6,,,,,,,,,,,,,,,,,,,,,,,,,,,,,,,,,,,,,,,,,,,,476.8209,479.3176,slightly agree,0,5,5,5,1,I really enjoy caring for other people.,1,0,1,0,,
,,,,,,,,,664cef98bb2e4a28e1fce2cb,Puerto Rican,13 or older,"no, only English or Spanish",yes,2025-07-23_22h16.14.489,empathy_intonation_perc_control,2024.2.4,Win32,59.88023952,664cef98bb2e4a28e1fce2cb,68817205a84113384fffdfe3,6881974abef3badc2c03b831,,,,,,,,,,,,,,,,,,,,,,,,,,,7,,,,,,,,,,,,,,,,,,,,,,,,,,,,,,,,,,,,,,,,,,,,479.319,482.3818,slightly disagree,0,6,6,6,1,I try to solve my own problems rather than discussing them with others.,0,1,0,0,,
,,,,,,,,,664cef98bb2e4a28e1fce2cb,Puerto Rican,13 or older,"no, only English or Spanish",yes,2025-07-23_22h16.14.489,empathy_intonation_perc_control,2024.2.4,Win32,59.88023952,664cef98bb2e4a28e1fce2cb,68817205a84113384fffdfe3,6881974abef3badc2c03b831,,,,,,,,,,,,,,,,,,,,,,,,,,,8,,,,,,,,,,,,,,,,,,,,,,,,,,,,,,,,,,,,,,,,,,,,482.383,485.6121,slightly disagree,0,7,7,7,1,I find it hard to know what to do in a social situation.,1,0,0,1,,
,,,,,,,,,664cef98bb2e4a28e1fce2cb,Puerto Rican,13 or older,"no, only English or Spanish",yes,2025-07-23_22h16.14.489,empathy_intonation_perc_control,2024.2.4,Win32,59.88023952,664cef98bb2e4a28e1fce2cb,68817205a84113384fffdfe3,6881974abef3badc2c03b831,,,,,,,,,,,,,,,,,,,,,,,,,,,9,,,,,,,,,,,,,,,,,,,,,,,,,,,,,,,,,,,,,,,,,,,,485.6132,488.7262,strongly disagree,0,8,8,8,1,I am at my best first thing in the morning.,0,1,0,0,,
,,,,,,,,,664cef98bb2e4a28e1fce2cb,Puerto Rican,13 or older,"no, only English or Spanish",yes,2025-07-23_22h16.14.489,empathy_intonation_perc_control,2024.2.4,Win32,59.88023952,664cef98bb2e4a28e1fce2cb,68817205a84113384fffdfe3,6881974abef3badc2c03b831,,,,,,,,,,,,,,,,,,,,,,,,,,,10,,,,,,,,,,,,,,,,,,,,,,,,,,,,,,,,,,,,,,,,,,,,488.7276,493.5385,slightly agree,0,9,9,9,1,People often tell me that I went too far in driving my point home in a discussion.,1,0,0,1,,
,,,,,,,,,664cef98bb2e4a28e1fce2cb,Puerto Rican,13 or older,"no, only English or Spanish",yes,2025-07-23_22h16.14.489,empathy_intonation_perc_control,2024.2.4,Win32,59.88023952,664cef98bb2e4a28e1fce2cb,68817205a84113384fffdfe3,6881974abef3badc2c03b831,,,,,,,,,,,,,,,,,,,,,,,,,,,11,,,,,,,,,,,,,,,,,,,,,,,,,,,,,,,,,,,,,,,,,,,,493.5397,496.8357,slightly disagree,0,10,10,10,1,It doesn't bother me too much if I am late meeting a friend.,1,0,0,1,,
,,,,,,,,,664cef98bb2e4a28e1fce2cb,Puerto Rican,13 or older,"no, only English or Spanish",yes,2025-07-23_22h16.14.489,empathy_intonation_perc_control,2024.2.4,Win32,59.88023952,664cef98bb2e4a28e1fce2cb,68817205a84113384fffdfe3,6881974abef3badc2c03b831,,,,,,,,,,,,,,,,,,,,,,,,,,,12,,,,,,,,,,,,,,,,,,,,,,,,,,,,,,,,,,,,,,,,,,,,496.8373,500.4823,strongly disagree,0,11,11,11,1,"Friendships and relationships are just too difficult, so I tend not to 
  bother with them.",1,0,0,1,,
,,,,,,,,,664cef98bb2e4a28e1fce2cb,Puerto Rican,13 or older,"no, only English or Spanish",yes,2025-07-23_22h16.14.489,empathy_intonation_perc_control,2024.2.4,Win32,59.88023952,664cef98bb2e4a28e1fce2cb,68817205a84113384fffdfe3,6881974abef3badc2c03b831,,,,,,,,,,,,,,,,,,,,,,,,,,,13,,,,,,,,,,,,,,,,,,,,,,,,,,,,,,,,,,,,,,,,,,,,500.4837,502.8138,strongly disagree,0,12,12,12,1,"I would never break a law, no matter how minor.",0,1,0,0,,
,,,,,,,,,664cef98bb2e4a28e1fce2cb,Puerto Rican,13 or older,"no, only English or Spanish",yes,2025-07-23_22h16.14.489,empathy_intonation_perc_control,2024.2.4,Win32,59.88023952,664cef98bb2e4a28e1fce2cb,68817205a84113384fffdfe3,6881974abef3badc2c03b831,,,,,,,,,,,,,,,,,,,,,,,,,,,14,,,,,,,,,,,,,,,,,,,,,,,,,,,,,,,,,,,,,,,,,,,,502.8151,509.541,strongly disagree,0,13,13,13,1,I often find it difficult to judge if something is rude or polite.,1,0,0,1,,
,,,,,,,,,664cef98bb2e4a28e1fce2cb,Puerto Rican,13 or older,"no, only English or Spanish",yes,2025-07-23_22h16.14.489,empathy_intonation_perc_control,2024.2.4,Win32,59.88023952,664cef98bb2e4a28e1fce2cb,68817205a84113384fffdfe3,6881974abef3badc2c03b831,,,,,,,,,,,,,,,,,,,,,,,,,,,15,,,,,,,,,,,,,,,,,,,,,,,,,,,,,,,,,,,,,,,,,,,,509.5419,516.5519,slightly disagree,0,14,14,14,1,"In a conversation, I tend to focus on my own thoughts rather than on what 
  my listener might be thinking.",1,0,0,1,,
,,,,,,,,,664cef98bb2e4a28e1fce2cb,Puerto Rican,13 or older,"no, only English or Spanish",yes,2025-07-23_22h16.14.489,empathy_intonation_perc_control,2024.2.4,Win32,59.88023952,664cef98bb2e4a28e1fce2cb,68817205a84113384fffdfe3,6881974abef3badc2c03b831,,,,,,,,,,,,,,,,,,,,,,,,,,,16,,,,,,,,,,,,,,,,,,,,,,,,,,,,,,,,,,,,,,,,,,,,516.553,521.781,slightly disagree,0,15,15,15,1,I prefer practical jokes to verbal humor.,0,1,0,0,,
,,,,,,,,,664cef98bb2e4a28e1fce2cb,Puerto Rican,13 or older,"no, only English or Spanish",yes,2025-07-23_22h16.14.489,empathy_intonation_perc_control,2024.2.4,Win32,59.88023952,664cef98bb2e4a28e1fce2cb,68817205a84113384fffdfe3,6881974abef3badc2c03b831,,,,,,,,,,,,,,,,,,,,,,,,,,,17,,,,,,,,,,,,,,,,,,,,,,,,,,,,,,,,,,,,,,,,,,,,521.7831,526.2603,strongly agree,0,16,16,16,1,I live life for today rather than the future.,0,1,0,0,,
,,,,,,,,,664cef98bb2e4a28e1fce2cb,Puerto Rican,13 or older,"no, only English or Spanish",yes,2025-07-23_22h16.14.489,empathy_intonation_perc_control,2024.2.4,Win32,59.88023952,664cef98bb2e4a28e1fce2cb,68817205a84113384fffdfe3,6881974abef3badc2c03b831,,,,,,,,,,,,,,,,,,,,,,,,,,,18,,,,,,,,,,,,,,,,,,,,,,,,,,,,,,,,,,,,,,,,,,,,526.2624,528.941,strongly disagree,0,17,17,17,1,"When I was a child, I enjoyed cutting up worms to see what would happen.",1,0,0,1,,
,,,,,,,,,664cef98bb2e4a28e1fce2cb,Puerto Rican,13 or older,"no, only English or Spanish",yes,2025-07-23_22h16.14.489,empathy_intonation_perc_control,2024.2.4,Win32,59.88023952,664cef98bb2e4a28e1fce2cb,68817205a84113384fffdfe3,6881974abef3badc2c03b831,,,,,,,,,,,,,,,,,,,,,,,,,,,19,,,,,,,,,,,,,,,,,,,,,,,,,,,,,,,,,,,,,,,,,,,,528.9423,533.3257,slightly agree,0,18,18,18,1,I can pick up quickly if someone says one thing but means another.,1,0,1,0,,
,,,,,,,,,664cef98bb2e4a28e1fce2cb,Puerto Rican,13 or older,"no, only English or Spanish",yes,2025-07-23_22h16.14.489,empathy_intonation_perc_control,2024.2.4,Win32,59.88023952,664cef98bb2e4a28e1fce2cb,68817205a84113384fffdfe3,6881974abef3badc2c03b831,,,,,,,,,,,,,,,,,,,,,,,,,,,20,,,,,,,,,,,,,,,,,,,,,,,,,,,,,,,,,,,,,,,,,,,,533.327,536.2845,strongly agree,0,19,19,19,1,I tend to have very strong opinions about morality.,0,1,0,0,,
,,,,,,,,,664cef98bb2e4a28e1fce2cb,Puerto Rican,13 or older,"no, only English or Spanish",yes,2025-07-23_22h16.14.489,empathy_intonation_perc_control,2024.2.4,Win32,59.88023952,664cef98bb2e4a28e1fce2cb,68817205a84113384fffdfe3,6881974abef3badc2c03b831,,,,,,,,,,,,,,,,,,,,,,,,,,,21,,,,,,,,,,,,,,,,,,,,,,,,,,,,,,,,,,,,,,,,,,,,536.2856,539.5981,strongly disagree,0,20,20,20,1,It is hard for me to see why some things upset people so much.,1,0,0,1,,
,,,,,,,,,664cef98bb2e4a28e1fce2cb,Puerto Rican,13 or older,"no, only English or Spanish",yes,2025-07-23_22h16.14.489,empathy_intonation_perc_control,2024.2.4,Win32,59.88023952,664cef98bb2e4a28e1fce2cb,68817205a84113384fffdfe3,6881974abef3badc2c03b831,,,,,,,,,,,,,,,,,,,,,,,,,,,22,,,,,,,,,,,,,,,,,,,,,,,,,,,,,,,,,,,,,,,,,,,,539.5993,543.6281,slightly agree,0,21,21,21,1,I find it easy to put myself in somebody else's shoes.,1,0,1,0,,
