instructions_2afc.started,instructions_2afc.stopped,instructions_2afc_loop.thisRepN,instructions_2afc_loop.thisTrialN,instructions_2afc_loop.thisN,instructions_2afc_loop.thisIndex,instructions_2afc_loop.ran,instructions_text,continue_text,participant_id,"What variety of Spanish are you most familiar with? (e.g., Peruvian, Spanish, Mexican)",At what age did you begin learning Spanish?,Are you proficient in any languages other than English/Spanish?,"Are you familiar with Caribbean (e.g., Caribbean, Puerto Rican) or Galician Spanish?",date,expName,psychopyVersion,OS,frameRate,id,study_id,session,practice_2afc.started,practice_2afc.stopped,key_resp_2afc_practice.keys,key_resp_2afc_practice.corr,key_resp_2afc_practice.rt,key_resp_2afc_practice.duration,trials_2afc_practice_loop.thisRepN,trials_2afc_practice_loop.thisTrialN,trials_2afc_practice_loop.thisN,trials_2afc_practice_loop.thisIndex,trials_2afc_practice_loop.ran,path,correct_response,check_2afc.started,check_2afc.stopped,trial_2afc.started,trial_2afc.stopped,key_resp_2afc_trial.keys,key_resp_2afc_trial.corr,key_resp_2afc_trial.rt,key_resp_2afc_trial.duration,trials_2afc_loop.thisRepN,trials_2afc_loop.thisTrialN,trials_2afc_loop.thisN,trials_2afc_loop.thisIndex,trials_2afc_loop.ran,item_num,target,variety,instructions_lextale.started,instructions_lextale.stopped,instructions_lextale_loop.thisRepN,instructions_lextale_loop.thisTrialN,instructions_lextale_loop.thisN,instructions_lextale_loop.thisIndex,instructions_lextale_loop.ran,practice_lextale.started,practice_lextale.stopped,key_resp_lextale_practice.keys,key_resp_lextale_practice.corr,key_resp_lextale_practice.rt,key_resp_lextale_practice.duration,practice_feedback_lextale.started,practice_feedback_lextale.stopped,trials_lextale_practice_loop.thisRepN,trials_lextale_practice_loop.thisTrialN,trials_lextale_practice_loop.thisN,trials_lextale_practice_loop.thisIndex,trials_lextale_practice_loop.ran,stim,word,prac_button_real,prac_button_false,check_lextale.started,check_lextale.stopped,trial_lextale.started,trial_lextale.stopped,key_resp_lextale_trial.keys,key_resp_lextale_trial.corr,key_resp_lextale_trial.rt,key_resp_lextale_trial.duration,trials_lextale_loop.thisRepN,trials_lextale_loop.thisTrialN,trials_lextale_loop.thisN,trials_lextale_loop.thisIndex,trials_lextale_loop.ran,button_real,button_false,instructions_eq.started,instructions_eq.stopped,trial_eq.started,trial_eq.stopped,slider_eq_trial.response,trials_eq_loop.thisRepN,trials_eq_loop.thisTrialN,trials_eq_loop.thisN,trials_eq_loop.thisIndex,trials_eq_loop.ran,item,is_test_item,is_distractor,is_agree_score,is_disagree_score,end_exp.started,end_exp.stopped
0.0083,716.2816,0,0,0,0,1,"In the following task you are going to hear a series of utterances. 

  You will decide if the utterances sound like questions or not using your keyboard.", (press the spacebar to continue),6650ee988709a4266409c5f9,Spanish,13 or older,"no, only English or Spanish",no,2025-07-24_10h45.09.207,empathy_intonation_perc_control,2024.2.4,MacIntel,142.8571429,6650ee988709a4266409c5f9,68817205a84113384fffdfe3,68824694612265548ee6e8f5,,,,,,,,,,,,,,,,,,,,,,,,,,,,,,,,,,,,,,,,,,,,,,,,,,,,,,,,,,,,,,,,,,,,,,,,,,,,,,,,,,,,,
716.2826,729.039,0,1,1,1,1,"If you believe the utterance is a question, type '1' (for 'yes') and if you do not 
  believe it is a question type '0' (for 'no').

  Let's practice a bit...", (press the spacebar to continue),6650ee988709a4266409c5f9,Spanish,13 or older,"no, only English or Spanish",no,2025-07-24_10h45.09.207,empathy_intonation_perc_control,2024.2.4,MacIntel,142.8571429,6650ee988709a4266409c5f9,68817205a84113384fffdfe3,68824694612265548ee6e8f5,,,,,,,,,,,,,,,,,,,,,,,,,,,,,,,,,,,,,,,,,,,,,,,,,,,,,,,,,,,,,,,,,,,,,,,,,,,,,,,,,,,,,
,,,,,,,,,6650ee988709a4266409c5f9,Spanish,13 or older,"no, only English or Spanish",no,2025-07-24_10h45.09.207,empathy_intonation_perc_control,2024.2.4,MacIntel,142.8571429,6650ee988709a4266409c5f9,68817205a84113384fffdfe3,68824694612265548ee6e8f5,729.0496,733.4292,0,1,3.8678,,0,0,0,6,1,./stim/wavs/peruvian_statement_filler_El-nino-habla-con-su-madre.wav,0,,,,,,,,,,,,,,,,,,,,,,,,,,,,,,,,,,,,,,,,,,,,,,,,,,,,,,,,,,,,,,,,,,,,,,,,
,,,,,,,,,6650ee988709a4266409c5f9,Spanish,13 or older,"no, only English or Spanish",no,2025-07-24_10h45.09.207,empathy_intonation_perc_control,2024.2.4,MacIntel,142.8571429,6650ee988709a4266409c5f9,68817205a84113384fffdfe3,68824694612265548ee6e8f5,733.43,744.1368,1,1,10.1897,,0,1,1,2,1,./stim/wavs/chilean_question_filler_Mi-padre-cantaba-bien.wav,1,,,,,,,,,,,,,,,,,,,,,,,,,,,,,,,,,,,,,,,,,,,,,,,,,,,,,,,,,,,,,,,,,,,,,,,,
,,,,,,,,,6650ee988709a4266409c5f9,Spanish,13 or older,"no, only English or Spanish",no,2025-07-24_10h45.09.207,empathy_intonation_perc_control,2024.2.4,MacIntel,142.8571429,6650ee988709a4266409c5f9,68817205a84113384fffdfe3,68824694612265548ee6e8f5,744.1379,747.5193,0,1,2.8687,,0,2,2,4,1,./stim/wavs/cuban_statement_filler_Cocinabas-por-la-noche.wav,0,,,,,,,,,,,,,,,,,,,,,,,,,,,,,,,,,,,,,,,,,,,,,,,,,,,,,,,,,,,,,,,,,,,,,,,,
,,,,,,,,,6650ee988709a4266409c5f9,Spanish,13 or older,"no, only English or Spanish",no,2025-07-24_10h45.09.207,empathy_intonation_perc_control,2024.2.4,MacIntel,142.8571429,6650ee988709a4266409c5f9,68817205a84113384fffdfe3,68824694612265548ee6e8f5,747.52,750.8793,0,1,2.8477,,0,3,3,7,1,./stim/wavs/puertorican_statement_filler_La-nina-pinta-con-su-amiga.wav,0,,,,,,,,,,,,,,,,,,,,,,,,,,,,,,,,,,,,,,,,,,,,,,,,,,,,,,,,,,,,,,,,,,,,,,,,
,,,,,,,,,6650ee988709a4266409c5f9,Spanish,13 or older,"no, only English or Spanish",no,2025-07-24_10h45.09.207,empathy_intonation_perc_control,2024.2.4,MacIntel,142.8571429,6650ee988709a4266409c5f9,68817205a84113384fffdfe3,68824694612265548ee6e8f5,750.8798,753.4624,1,1,2.0699,,0,4,4,3,1,./stim/wavs/mexican_question_filler_Felipe-no-tiene-contrasena.wav,1,,,,,,,,,,,,,,,,,,,,,,,,,,,,,,,,,,,,,,,,,,,,,,,,,,,,,,,,,,,,,,,,,,,,,,,,
,,,,,,,,,6650ee988709a4266409c5f9,Spanish,13 or older,"no, only English or Spanish",no,2025-07-24_10h45.09.207,empathy_intonation_perc_control,2024.2.4,MacIntel,142.8571429,6650ee988709a4266409c5f9,68817205a84113384fffdfe3,68824694612265548ee6e8f5,753.4631,756.0383,1,1,2.0644,,0,5,5,0,1,./stim/wavs/castilian_question_filler_Mi-esposo-conoce-al-chico.wav,1,,,,,,,,,,,,,,,,,,,,,,,,,,,,,,,,,,,,,,,,,,,,,,,,,,,,,,,,,,,,,,,,,,,,,,,,
,,,,,,,,,6650ee988709a4266409c5f9,Spanish,13 or older,"no, only English or Spanish",no,2025-07-24_10h45.09.207,empathy_intonation_perc_control,2024.2.4,MacIntel,142.8571429,6650ee988709a4266409c5f9,68817205a84113384fffdfe3,68824694612265548ee6e8f5,756.0388,758.6289,0,1,2.0746,,0,6,6,5,1,./stim/wavs/andalusian_statement_filler_Alberto-nunca-se-afeita.wav,0,,,,,,,,,,,,,,,,,,,,,,,,,,,,,,,,,,,,,,,,,,,,,,,,,,,,,,,,,,,,,,,,,,,,,,,,
,,,,,,,,,6650ee988709a4266409c5f9,Spanish,13 or older,"no, only English or Spanish",no,2025-07-24_10h45.09.207,empathy_intonation_perc_control,2024.2.4,MacIntel,142.8571429,6650ee988709a4266409c5f9,68817205a84113384fffdfe3,68824694612265548ee6e8f5,758.6293,760.8187,1,1,1.6772,,0,7,7,1,1,./stim/wavs/argentine_question_filler_Mi-vecino-habla-mucho.wav,1,,,,,,,,,,,,,,,,,,,,,,,,,,,,,,,,,,,,,,,,,,,,,,,,,,,,,,,,,,,,,,,,,,,,,,,,
,,,,,,,,,6650ee988709a4266409c5f9,Spanish,13 or older,"no, only English or Spanish",no,2025-07-24_10h45.09.207,empathy_intonation_perc_control,2024.2.4,MacIntel,142.8571429,6650ee988709a4266409c5f9,68817205a84113384fffdfe3,68824694612265548ee6e8f5,,,,,,,,,,,,,,760.8191,830.2717,,,,,,,,,,,,,,,,,,,,,,,,,,,,,,,,,,,,,,,,,,,,,,,,,,,,,,,,,,,,,,,,,,,,,,
,,,,,,,,,6650ee988709a4266409c5f9,Spanish,13 or older,"no, only English or Spanish",no,2025-07-24_10h45.09.207,empathy_intonation_perc_control,2024.2.4,MacIntel,142.8571429,6650ee988709a4266409c5f9,68817205a84113384fffdfe3,68824694612265548ee6e8f5,,,,,,,,,,,,./stim/wavs/puertorican_match_interrogative-total-yn_Emilio-ama-la-marcha.wav,1,,,830.2806,832.9096,0,0,2.1212,,0,0,0,21,1,22,1,puertorican,,,,,,,,,,,,,,,,,,,,,,,,,,,,,,,,,,,,,,,,,,,,,,,,,,,,,,,,
,,,,,,,,,6650ee988709a4266409c5f9,Spanish,13 or older,"no, only English or Spanish",no,2025-07-24_10h45.09.207,empathy_intonation_perc_control,2024.2.4,MacIntel,142.8571429,6650ee988709a4266409c5f9,68817205a84113384fffdfe3,68824694612265548ee6e8f5,,,,,,,,,,,,./stim/wavs/castilian_match_declarative-broad-focus_David-leia-el-libro.wav,0,,,832.9099,835.3678,0,1,1.9464,,0,1,1,44,1,45,0,castilian,,,,,,,,,,,,,,,,,,,,,,,,,,,,,,,,,,,,,,,,,,,,,,,,,,,,,,,,
,,,,,,,,,6650ee988709a4266409c5f9,Spanish,13 or older,"no, only English or Spanish",no,2025-07-24_10h45.09.207,empathy_intonation_perc_control,2024.2.4,MacIntel,142.8571429,6650ee988709a4266409c5f9,68817205a84113384fffdfe3,68824694612265548ee6e8f5,,,,,,,,,,,,./stim/wavs/cuban_mismatch_declarative-broad-focus_El-bebe-comia-muy-bien.wav,0,,,835.3681,837.5344,0,1,1.6537,,0,2,2,73,1,74,0,cuban,,,,,,,,,,,,,,,,,,,,,,,,,,,,,,,,,,,,,,,,,,,,,,,,,,,,,,,,
,,,,,,,,,6650ee988709a4266409c5f9,Spanish,13 or older,"no, only English or Spanish",no,2025-07-24_10h45.09.207,empathy_intonation_perc_control,2024.2.4,MacIntel,142.8571429,6650ee988709a4266409c5f9,68817205a84113384fffdfe3,68824694612265548ee6e8f5,,,,,,,,,,,,./stim/wavs/puertorican_match_declarative-broad-focus_Ana-lleva-el-abrigo.wav,0,,,837.5348,839.6311,0,1,1.5903,,0,3,3,62,1,63,0,puertorican,,,,,,,,,,,,,,,,,,,,,,,,,,,,,,,,,,,,,,,,,,,,,,,,,,,,,,,,
,,,,,,,,,6650ee988709a4266409c5f9,Spanish,13 or older,"no, only English or Spanish",no,2025-07-24_10h45.09.207,empathy_intonation_perc_control,2024.2.4,MacIntel,142.8571429,6650ee988709a4266409c5f9,68817205a84113384fffdfe3,68824694612265548ee6e8f5,,,,,,,,,,,,./stim/wavs/mexican_mismatch_declarative-broad-focus_Mi-tia-odia-la-lluvia.wav,0,,,839.6313,841.8192,0,1,1.6732,,0,4,4,82,1,83,0,mexican,,,,,,,,,,,,,,,,,,,,,,,,,,,,,,,,,,,,,,,,,,,,,,,,,,,,,,,,
,,,,,,,,,6650ee988709a4266409c5f9,Spanish,13 or older,"no, only English or Spanish",no,2025-07-24_10h45.09.207,empathy_intonation_perc_control,2024.2.4,MacIntel,142.8571429,6650ee988709a4266409c5f9,68817205a84113384fffdfe3,68824694612265548ee6e8f5,,,,,,,,,,,,./stim/wavs/castilian_mismatch_interrogative-total-yn_Mi-tia-odia-la-lluvia.wav,1,,,841.8197,844.2774,1,1,1.9432,,0,5,5,28,1,29,0,castilian,,,,,,,,,,,,,,,,,,,,,,,,,,,,,,,,,,,,,,,,,,,,,,,,,,,,,,,,
,,,,,,,,,6650ee988709a4266409c5f9,Spanish,13 or older,"no, only English or Spanish",no,2025-07-24_10h45.09.207,empathy_intonation_perc_control,2024.2.4,MacIntel,142.8571429,6650ee988709a4266409c5f9,68817205a84113384fffdfe3,68824694612265548ee6e8f5,,,,,,,,,,,,./stim/wavs/castilian_mismatch_interrogative-total-yn_Mi-novio-viene-del-lago.wav,1,,,844.2779,846.6039,1,1,1.8127,,0,6,6,27,1,28,0,castilian,,,,,,,,,,,,,,,,,,,,,,,,,,,,,,,,,,,,,,,,,,,,,,,,,,,,,,,,
,,,,,,,,,6650ee988709a4266409c5f9,Spanish,13 or older,"no, only English or Spanish",no,2025-07-24_10h45.09.207,empathy_intonation_perc_control,2024.2.4,MacIntel,142.8571429,6650ee988709a4266409c5f9,68817205a84113384fffdfe3,68824694612265548ee6e8f5,,,,,,,,,,,,./stim/wavs/castilian_mismatch_declarative-broad-focus_Mi-tia-odia-la-lluvia.wav,0,,,846.6043,849.0275,0,1,1.9106,,0,7,7,72,1,73,0,castilian,,,,,,,,,,,,,,,,,,,,,,,,,,,,,,,,,,,,,,,,,,,,,,,,,,,,,,,,
,,,,,,,,,6650ee988709a4266409c5f9,Spanish,13 or older,"no, only English or Spanish",no,2025-07-24_10h45.09.207,empathy_intonation_perc_control,2024.2.4,MacIntel,142.8571429,6650ee988709a4266409c5f9,68817205a84113384fffdfe3,68824694612265548ee6e8f5,,,,,,,,,,,,./stim/wavs/castilian_match_declarative-broad-focus_Maria-bebe-el-vino.wav,0,,,849.0279,851.2219,0,1,1.6864,,0,8,8,47,1,48,0,castilian,,,,,,,,,,,,,,,,,,,,,,,,,,,,,,,,,,,,,,,,,,,,,,,,,,,,,,,,
,,,,,,,,,6650ee988709a4266409c5f9,Spanish,13 or older,"no, only English or Spanish",no,2025-07-24_10h45.09.207,empathy_intonation_perc_control,2024.2.4,MacIntel,142.8571429,6650ee988709a4266409c5f9,68817205a84113384fffdfe3,68824694612265548ee6e8f5,,,,,,,,,,,,./stim/wavs/cuban_match_interrogative-total-yn_Mariano-habla-del-tiempo.wav,1,,,851.2221,853.4788,0,0,1.7486,,0,9,9,10,1,11,1,cuban,,,,,,,,,,,,,,,,,,,,,,,,,,,,,,,,,,,,,,,,,,,,,,,,,,,,,,,,
,,,,,,,,,6650ee988709a4266409c5f9,Spanish,13 or older,"no, only English or Spanish",no,2025-07-24_10h45.09.207,empathy_intonation_perc_control,2024.2.4,MacIntel,142.8571429,6650ee988709a4266409c5f9,68817205a84113384fffdfe3,68824694612265548ee6e8f5,,,,,,,,,,,,./stim/wavs/castilian_mismatch_declarative-broad-focus_La-nina-lava-el-plato.wav,0,,,853.4793,855.9441,0,1,1.9598,,0,10,10,70,1,71,0,castilian,,,,,,,,,,,,,,,,,,,,,,,,,,,,,,,,,,,,,,,,,,,,,,,,,,,,,,,,
,,,,,,,,,6650ee988709a4266409c5f9,Spanish,13 or older,"no, only English or Spanish",no,2025-07-24_10h45.09.207,empathy_intonation_perc_control,2024.2.4,MacIntel,142.8571429,6650ee988709a4266409c5f9,68817205a84113384fffdfe3,68824694612265548ee6e8f5,,,,,,,,,,,,./stim/wavs/mexican_mismatch_interrogative-total-yn_El-hombre-mira-la-luna.wav,1,,,855.9444,858.4787,1,1,2.0214,,0,11,11,34,1,35,0,mexican,,,,,,,,,,,,,,,,,,,,,,,,,,,,,,,,,,,,,,,,,,,,,,,,,,,,,,,,
,,,,,,,,,6650ee988709a4266409c5f9,Spanish,13 or older,"no, only English or Spanish",no,2025-07-24_10h45.09.207,empathy_intonation_perc_control,2024.2.4,MacIntel,142.8571429,6650ee988709a4266409c5f9,68817205a84113384fffdfe3,68824694612265548ee6e8f5,,,,,,,,,,,,./stim/wavs/cuban_mismatch_declarative-broad-focus_Mi-novio-viene-del-lago.wav,0,,,858.4791,860.854,0,1,1.8615,,0,12,12,76,1,77,0,cuban,,,,,,,,,,,,,,,,,,,,,,,,,,,,,,,,,,,,,,,,,,,,,,,,,,,,,,,,
,,,,,,,,,6650ee988709a4266409c5f9,Spanish,13 or older,"no, only English or Spanish",no,2025-07-24_10h45.09.207,empathy_intonation_perc_control,2024.2.4,MacIntel,142.8571429,6650ee988709a4266409c5f9,68817205a84113384fffdfe3,68824694612265548ee6e8f5,,,,,,,,,,,,./stim/wavs/mexican_match_interrogative-total-yn_Mariano-habla-del-tiempo.wav,1,,,860.8545,863.5694,1,1,2.2033,,0,13,13,16,1,17,0,mexican,,,,,,,,,,,,,,,,,,,,,,,,,,,,,,,,,,,,,,,,,,,,,,,,,,,,,,,,
,,,,,,,,,6650ee988709a4266409c5f9,Spanish,13 or older,"no, only English or Spanish",no,2025-07-24_10h45.09.207,empathy_intonation_perc_control,2024.2.4,MacIntel,142.8571429,6650ee988709a4266409c5f9,68817205a84113384fffdfe3,68824694612265548ee6e8f5,,,,,,,,,,,,./stim/wavs/puertorican_mismatch_declarative-broad-focus_El-nino-oye-el-rio.wav,0,,,863.5698,865.9026,0,1,1.821,,0,14,14,85,1,86,0,puertorican,,,,,,,,,,,,,,,,,,,,,,,,,,,,,,,,,,,,,,,,,,,,,,,,,,,,,,,,
,,,,,,,,,6650ee988709a4266409c5f9,Spanish,13 or older,"no, only English or Spanish",no,2025-07-24_10h45.09.207,empathy_intonation_perc_control,2024.2.4,MacIntel,142.8571429,6650ee988709a4266409c5f9,68817205a84113384fffdfe3,68824694612265548ee6e8f5,,,,,,,,,,,,./stim/wavs/puertorican_mismatch_interrogative-total-yn_La-maestra-vive-en-Paris.wav,1,,,865.903,868.2781,0,0,1.8609,,0,15,15,41,1,42,1,puertorican,,,,,,,,,,,,,,,,,,,,,,,,,,,,,,,,,,,,,,,,,,,,,,,,,,,,,,,,
,,,,,,,,,6650ee988709a4266409c5f9,Spanish,13 or older,"no, only English or Spanish",no,2025-07-24_10h45.09.207,empathy_intonation_perc_control,2024.2.4,MacIntel,142.8571429,6650ee988709a4266409c5f9,68817205a84113384fffdfe3,68824694612265548ee6e8f5,,,,,,,,,,,,./stim/wavs/cuban_mismatch_interrogative-total-yn_Mi-novio-viene-del-lago.wav,1,,,868.2786,870.4719,0,0,1.6815,,0,16,16,32,1,33,1,cuban,,,,,,,,,,,,,,,,,,,,,,,,,,,,,,,,,,,,,,,,,,,,,,,,,,,,,,,,
,,,,,,,,,6650ee988709a4266409c5f9,Spanish,13 or older,"no, only English or Spanish",no,2025-07-24_10h45.09.207,empathy_intonation_perc_control,2024.2.4,MacIntel,142.8571429,6650ee988709a4266409c5f9,68817205a84113384fffdfe3,68824694612265548ee6e8f5,,,,,,,,,,,,./stim/wavs/cuban_mismatch_declarative-broad-focus_El-hombre-mira-la-luna.wav,0,,,870.4723,872.5903,0,1,1.6047,,0,17,17,74,1,75,0,cuban,,,,,,,,,,,,,,,,,,,,,,,,,,,,,,,,,,,,,,,,,,,,,,,,,,,,,,,,
,,,,,,,,,6650ee988709a4266409c5f9,Spanish,13 or older,"no, only English or Spanish",no,2025-07-24_10h45.09.207,empathy_intonation_perc_control,2024.2.4,MacIntel,142.8571429,6650ee988709a4266409c5f9,68817205a84113384fffdfe3,68824694612265548ee6e8f5,,,,,,,,,,,,./stim/wavs/mexican_match_declarative-broad-focus_Mariano-habla-del-tiempo.wav,0,,,872.591,874.8571,0,1,1.7541,,0,18,18,60,1,61,0,mexican,,,,,,,,,,,,,,,,,,,,,,,,,,,,,,,,,,,,,,,,,,,,,,,,,,,,,,,,
,,,,,,,,,6650ee988709a4266409c5f9,Spanish,13 or older,"no, only English or Spanish",no,2025-07-24_10h45.09.207,empathy_intonation_perc_control,2024.2.4,MacIntel,142.8571429,6650ee988709a4266409c5f9,68817205a84113384fffdfe3,68824694612265548ee6e8f5,,,,,,,,,,,,./stim/wavs/castilian_match_interrogative-total-yn_Marta-abre-el-regalo.wav,1,,,874.8574,877.7705,1,1,2.4033,,0,19,19,5,1,6,0,castilian,,,,,,,,,,,,,,,,,,,,,,,,,,,,,,,,,,,,,,,,,,,,,,,,,,,,,,,,
,,,,,,,,,6650ee988709a4266409c5f9,Spanish,13 or older,"no, only English or Spanish",no,2025-07-24_10h45.09.207,empathy_intonation_perc_control,2024.2.4,MacIntel,142.8571429,6650ee988709a4266409c5f9,68817205a84113384fffdfe3,68824694612265548ee6e8f5,,,,,,,,,,,,./stim/wavs/puertorican_match_declarative-broad-focus_Manuela-vende-el-carro.wav,0,,,877.771,880.1385,0,1,1.8619,,0,20,20,66,1,67,0,puertorican,,,,,,,,,,,,,,,,,,,,,,,,,,,,,,,,,,,,,,,,,,,,,,,,,,,,,,,,
,,,,,,,,,6650ee988709a4266409c5f9,Spanish,13 or older,"no, only English or Spanish",no,2025-07-24_10h45.09.207,empathy_intonation_perc_control,2024.2.4,MacIntel,142.8571429,6650ee988709a4266409c5f9,68817205a84113384fffdfe3,68824694612265548ee6e8f5,,,,,,,,,,,,./stim/wavs/puertorican_mismatch_interrogative-total-yn_El-hombre-mira-la-luna.wav,1,,,880.139,882.8751,1,1,2.221,,0,21,21,39,1,40,1,puertorican,,,,,,,,,,,,,,,,,,,,,,,,,,,,,,,,,,,,,,,,,,,,,,,,,,,,,,,,
,,,,,,,,,6650ee988709a4266409c5f9,Spanish,13 or older,"no, only English or Spanish",no,2025-07-24_10h45.09.207,empathy_intonation_perc_control,2024.2.4,MacIntel,142.8571429,6650ee988709a4266409c5f9,68817205a84113384fffdfe3,68824694612265548ee6e8f5,,,,,,,,,,,,./stim/wavs/mexican_mismatch_declarative-broad-focus_La-maestra-vive-en-Paris.wav,0,,,882.8763,885.2081,0,1,1.8188,,0,22,22,80,1,81,0,mexican,,,,,,,,,,,,,,,,,,,,,,,,,,,,,,,,,,,,,,,,,,,,,,,,,,,,,,,,
,,,,,,,,,6650ee988709a4266409c5f9,Spanish,13 or older,"no, only English or Spanish",no,2025-07-24_10h45.09.207,empathy_intonation_perc_control,2024.2.4,MacIntel,142.8571429,6650ee988709a4266409c5f9,68817205a84113384fffdfe3,68824694612265548ee6e8f5,,,,,,,,,,,,./stim/wavs/castilian_match_declarative-broad-focus_Marta-abre-el-regalo.wav,0,,,885.2086,887.333,0,1,1.6117,,0,23,23,49,1,50,0,castilian,,,,,,,,,,,,,,,,,,,,,,,,,,,,,,,,,,,,,,,,,,,,,,,,,,,,,,,,
,,,,,,,,,6650ee988709a4266409c5f9,Spanish,13 or older,"no, only English or Spanish",no,2025-07-24_10h45.09.207,empathy_intonation_perc_control,2024.2.4,MacIntel,142.8571429,6650ee988709a4266409c5f9,68817205a84113384fffdfe3,68824694612265548ee6e8f5,,,,,,,,,,,,./stim/wavs/puertorican_mismatch_interrogative-total-yn_La-nina-lava-el-plato.wav,1,,,887.3332,889.4442,0,0,1.5988,,0,24,24,42,1,43,1,puertorican,,,,,,,,,,,,,,,,,,,,,,,,,,,,,,,,,,,,,,,,,,,,,,,,,,,,,,,,
,,,,,,,,,6650ee988709a4266409c5f9,Spanish,13 or older,"no, only English or Spanish",no,2025-07-24_10h45.09.207,empathy_intonation_perc_control,2024.2.4,MacIntel,142.8571429,6650ee988709a4266409c5f9,68817205a84113384fffdfe3,68824694612265548ee6e8f5,,,,,,,,,,,,./stim/wavs/cuban_mismatch_interrogative-total-yn_El-nino-oye-el-rio.wav,1,,,889.4446,891.4789,0,0,1.5207,,0,25,25,30,1,31,1,cuban,,,,,,,,,,,,,,,,,,,,,,,,,,,,,,,,,,,,,,,,,,,,,,,,,,,,,,,,
,,,,,,,,,6650ee988709a4266409c5f9,Spanish,13 or older,"no, only English or Spanish",no,2025-07-24_10h45.09.207,empathy_intonation_perc_control,2024.2.4,MacIntel,142.8571429,6650ee988709a4266409c5f9,68817205a84113384fffdfe3,68824694612265548ee6e8f5,,,,,,,,,,,,./stim/wavs/puertorican_match_interrogative-total-yn_Manuela-vende-el-carro.wav,1,,,891.4794,893.6733,0,0,1.6772,,0,26,26,22,1,23,1,puertorican,,,,,,,,,,,,,,,,,,,,,,,,,,,,,,,,,,,,,,,,,,,,,,,,,,,,,,,,
,,,,,,,,,6650ee988709a4266409c5f9,Spanish,13 or older,"no, only English or Spanish",no,2025-07-24_10h45.09.207,empathy_intonation_perc_control,2024.2.4,MacIntel,142.8571429,6650ee988709a4266409c5f9,68817205a84113384fffdfe3,68824694612265548ee6e8f5,,,,,,,,,,,,./stim/wavs/cuban_match_interrogative-total-yn_Marta-abre-el-regalo.wav,1,,,893.6736,895.7793,0,0,1.5954,,0,27,27,11,1,12,1,cuban,,,,,,,,,,,,,,,,,,,,,,,,,,,,,,,,,,,,,,,,,,,,,,,,,,,,,,,,
,,,,,,,,,6650ee988709a4266409c5f9,Spanish,13 or older,"no, only English or Spanish",no,2025-07-24_10h45.09.207,empathy_intonation_perc_control,2024.2.4,MacIntel,142.8571429,6650ee988709a4266409c5f9,68817205a84113384fffdfe3,68824694612265548ee6e8f5,,,,,,,,,,,,./stim/wavs/cuban_match_interrogative-total-yn_Maria-bebe-el-vino.wav,1,,,895.7795,898.0214,0,0,1.7282,,0,28,28,9,1,10,1,cuban,,,,,,,,,,,,,,,,,,,,,,,,,,,,,,,,,,,,,,,,,,,,,,,,,,,,,,,,
,,,,,,,,,6650ee988709a4266409c5f9,Spanish,13 or older,"no, only English or Spanish",no,2025-07-24_10h45.09.207,empathy_intonation_perc_control,2024.2.4,MacIntel,142.8571429,6650ee988709a4266409c5f9,68817205a84113384fffdfe3,68824694612265548ee6e8f5,,,,,,,,,,,,./stim/wavs/cuban_mismatch_interrogative-total-yn_Mi-tia-odia-la-lluvia.wav,1,,,898.0224,900.2427,0,0,1.7103,,0,29,29,33,1,34,1,cuban,,,,,,,,,,,,,,,,,,,,,,,,,,,,,,,,,,,,,,,,,,,,,,,,,,,,,,,,
,,,,,,,,,6650ee988709a4266409c5f9,Spanish,13 or older,"no, only English or Spanish",no,2025-07-24_10h45.09.207,empathy_intonation_perc_control,2024.2.4,MacIntel,142.8571429,6650ee988709a4266409c5f9,68817205a84113384fffdfe3,68824694612265548ee6e8f5,,,,,,,,,,,,./stim/wavs/mexican_match_declarative-broad-focus_David-leia-el-libro.wav,0,,,900.2432,902.3263,0,1,1.5665,,0,30,30,58,1,59,0,mexican,,,,,,,,,,,,,,,,,,,,,,,,,,,,,,,,,,,,,,,,,,,,,,,,,,,,,,,,
,,,,,,,,,6650ee988709a4266409c5f9,Spanish,13 or older,"no, only English or Spanish",no,2025-07-24_10h45.09.207,empathy_intonation_perc_control,2024.2.4,MacIntel,142.8571429,6650ee988709a4266409c5f9,68817205a84113384fffdfe3,68824694612265548ee6e8f5,,,,,,,,,,,,./stim/wavs/puertorican_match_interrogative-total-yn_Maria-bebe-el-vino.wav,1,,,902.3265,904.5036,1,1,1.6674,,0,31,31,23,1,24,1,puertorican,,,,,,,,,,,,,,,,,,,,,,,,,,,,,,,,,,,,,,,,,,,,,,,,,,,,,,,,
,,,,,,,,,6650ee988709a4266409c5f9,Spanish,13 or older,"no, only English or Spanish",no,2025-07-24_10h45.09.207,empathy_intonation_perc_control,2024.2.4,MacIntel,142.8571429,6650ee988709a4266409c5f9,68817205a84113384fffdfe3,68824694612265548ee6e8f5,,,,,,,,,,,,./stim/wavs/puertorican_match_interrogative-total-yn_Ana-lleva-el-abrigo.wav,1,,,904.504,906.9652,0,0,1.9503,,0,32,32,18,1,19,1,puertorican,,,,,,,,,,,,,,,,,,,,,,,,,,,,,,,,,,,,,,,,,,,,,,,,,,,,,,,,
,,,,,,,,,6650ee988709a4266409c5f9,Spanish,13 or older,"no, only English or Spanish",no,2025-07-24_10h45.09.207,empathy_intonation_perc_control,2024.2.4,MacIntel,142.8571429,6650ee988709a4266409c5f9,68817205a84113384fffdfe3,68824694612265548ee6e8f5,,,,,,,,,,,,./stim/wavs/puertorican_match_declarative-broad-focus_David-leia-el-libro.wav,0,,,906.9657,909.0764,0,1,1.5987,,0,33,33,64,1,65,0,puertorican,,,,,,,,,,,,,,,,,,,,,,,,,,,,,,,,,,,,,,,,,,,,,,,,,,,,,,,,
,,,,,,,,,6650ee988709a4266409c5f9,Spanish,13 or older,"no, only English or Spanish",no,2025-07-24_10h45.09.207,empathy_intonation_perc_control,2024.2.4,MacIntel,142.8571429,6650ee988709a4266409c5f9,68817205a84113384fffdfe3,68824694612265548ee6e8f5,,,,,,,,,,,,./stim/wavs/puertorican_match_interrogative-total-yn_Daniel-iba-a-Bolivia.wav,1,,,909.0772,911.3124,0,0,1.7238,,0,34,34,19,1,20,1,puertorican,,,,,,,,,,,,,,,,,,,,,,,,,,,,,,,,,,,,,,,,,,,,,,,,,,,,,,,,
,,,,,,,,,6650ee988709a4266409c5f9,Spanish,13 or older,"no, only English or Spanish",no,2025-07-24_10h45.09.207,empathy_intonation_perc_control,2024.2.4,MacIntel,142.8571429,6650ee988709a4266409c5f9,68817205a84113384fffdfe3,68824694612265548ee6e8f5,,,,,,,,,,,,./stim/wavs/castilian_mismatch_interrogative-total-yn_Mi-madre-come-la-fruta.wav,1,,,911.3129,914.2846,1,1,2.4592,,0,35,35,26,1,27,0,castilian,,,,,,,,,,,,,,,,,,,,,,,,,,,,,,,,,,,,,,,,,,,,,,,,,,,,,,,,
,,,,,,,,,6650ee988709a4266409c5f9,Spanish,13 or older,"no, only English or Spanish",no,2025-07-24_10h45.09.207,empathy_intonation_perc_control,2024.2.4,MacIntel,142.8571429,6650ee988709a4266409c5f9,68817205a84113384fffdfe3,68824694612265548ee6e8f5,,,,,,,,,,,,./stim/wavs/mexican_match_interrogative-total-yn_Ana-lleva-el-abrigo.wav,1,,,914.2852,916.9587,1,1,2.1613,,0,36,36,12,1,13,0,mexican,,,,,,,,,,,,,,,,,,,,,,,,,,,,,,,,,,,,,,,,,,,,,,,,,,,,,,,,
,,,,,,,,,6650ee988709a4266409c5f9,Spanish,13 or older,"no, only English or Spanish",no,2025-07-24_10h45.09.207,empathy_intonation_perc_control,2024.2.4,MacIntel,142.8571429,6650ee988709a4266409c5f9,68817205a84113384fffdfe3,68824694612265548ee6e8f5,,,,,,,,,,,,./stim/wavs/castilian_match_declarative-broad-focus_Mariano-habla-del-tiempo.wav,0,,,916.9593,919.5205,0,1,2.0522,,0,37,37,48,1,49,0,castilian,,,,,,,,,,,,,,,,,,,,,,,,,,,,,,,,,,,,,,,,,,,,,,,,,,,,,,,,
,,,,,,,,,6650ee988709a4266409c5f9,Spanish,13 or older,"no, only English or Spanish",no,2025-07-24_10h45.09.207,empathy_intonation_perc_control,2024.2.4,MacIntel,142.8571429,6650ee988709a4266409c5f9,68817205a84113384fffdfe3,68824694612265548ee6e8f5,,,,,,,,,,,,./stim/wavs/cuban_mismatch_declarative-broad-focus_Mi-tia-odia-la-lluvia.wav,0,,,919.5209,921.9238,0,1,1.8966,,0,38,38,77,1,78,0,cuban,,,,,,,,,,,,,,,,,,,,,,,,,,,,,,,,,,,,,,,,,,,,,,,,,,,,,,,,
,,,,,,,,,6650ee988709a4266409c5f9,Spanish,13 or older,"no, only English or Spanish",no,2025-07-24_10h45.09.207,empathy_intonation_perc_control,2024.2.4,MacIntel,142.8571429,6650ee988709a4266409c5f9,68817205a84113384fffdfe3,68824694612265548ee6e8f5,,,,,,,,,,,,./stim/wavs/castilian_mismatch_declarative-broad-focus_La-maestra-vive-en-Paris.wav,0,,,921.9245,924.3954,0,1,1.9582,,0,39,39,69,1,70,0,castilian,,,,,,,,,,,,,,,,,,,,,,,,,,,,,,,,,,,,,,,,,,,,,,,,,,,,,,,,
,,,,,,,,,6650ee988709a4266409c5f9,Spanish,13 or older,"no, only English or Spanish",no,2025-07-24_10h45.09.207,empathy_intonation_perc_control,2024.2.4,MacIntel,142.8571429,6650ee988709a4266409c5f9,68817205a84113384fffdfe3,68824694612265548ee6e8f5,,,,,,,,,,,,./stim/wavs/puertorican_mismatch_interrogative-total-yn_Mi-madre-come-la-fruta.wav,1,,,924.396,926.8338,0,0,1.9234,,0,40,40,43,1,44,1,puertorican,,,,,,,,,,,,,,,,,,,,,,,,,,,,,,,,,,,,,,,,,,,,,,,,,,,,,,,,
,,,,,,,,,6650ee988709a4266409c5f9,Spanish,13 or older,"no, only English or Spanish",no,2025-07-24_10h45.09.207,empathy_intonation_perc_control,2024.2.4,MacIntel,142.8571429,6650ee988709a4266409c5f9,68817205a84113384fffdfe3,68824694612265548ee6e8f5,,,,,,,,,,,,./stim/wavs/mexican_match_interrogative-total-yn_Marta-abre-el-regalo.wav,1,,,926.8347,928.8956,0,0,1.5481,,0,41,41,17,1,18,0,mexican,,,,,,,,,,,,,,,,,,,,,,,,,,,,,,,,,,,,,,,,,,,,,,,,,,,,,,,,
,,,,,,,,,6650ee988709a4266409c5f9,Spanish,13 or older,"no, only English or Spanish",no,2025-07-24_10h45.09.207,empathy_intonation_perc_control,2024.2.4,MacIntel,142.8571429,6650ee988709a4266409c5f9,68817205a84113384fffdfe3,68824694612265548ee6e8f5,,,,,,,,,,,,./stim/wavs/cuban_mismatch_interrogative-total-yn_El-hombre-mira-la-luna.wav,1,,,928.8958,930.9924,0,0,1.5891,,0,42,42,29,1,30,1,cuban,,,,,,,,,,,,,,,,,,,,,,,,,,,,,,,,,,,,,,,,,,,,,,,,,,,,,,,,
,,,,,,,,,6650ee988709a4266409c5f9,Spanish,13 or older,"no, only English or Spanish",no,2025-07-24_10h45.09.207,empathy_intonation_perc_control,2024.2.4,MacIntel,142.8571429,6650ee988709a4266409c5f9,68817205a84113384fffdfe3,68824694612265548ee6e8f5,,,,,,,,,,,,./stim/wavs/castilian_match_interrogative-total-yn_David-leia-el-libro.wav,1,,,930.993,933.5756,1,1,2.0695,,0,43,43,0,1,1,0,castilian,,,,,,,,,,,,,,,,,,,,,,,,,,,,,,,,,,,,,,,,,,,,,,,,,,,,,,,,
,,,,,,,,,6650ee988709a4266409c5f9,Spanish,13 or older,"no, only English or Spanish",no,2025-07-24_10h45.09.207,empathy_intonation_perc_control,2024.2.4,MacIntel,142.8571429,6650ee988709a4266409c5f9,68817205a84113384fffdfe3,68824694612265548ee6e8f5,,,,,,,,,,,,./stim/wavs/cuban_match_declarative-broad-focus_Mariano-habla-del-tiempo.wav,0,,,933.5759,935.7775,0,1,1.688,,0,44,44,54,1,55,0,cuban,,,,,,,,,,,,,,,,,,,,,,,,,,,,,,,,,,,,,,,,,,,,,,,,,,,,,,,,
,,,,,,,,,6650ee988709a4266409c5f9,Spanish,13 or older,"no, only English or Spanish",no,2025-07-24_10h45.09.207,empathy_intonation_perc_control,2024.2.4,MacIntel,142.8571429,6650ee988709a4266409c5f9,68817205a84113384fffdfe3,68824694612265548ee6e8f5,,,,,,,,,,,,./stim/wavs/cuban_match_declarative-broad-focus_Ana-lleva-el-abrigo.wav,0,,,935.7778,937.9087,0,1,1.6183,,0,45,45,50,1,51,0,cuban,,,,,,,,,,,,,,,,,,,,,,,,,,,,,,,,,,,,,,,,,,,,,,,,,,,,,,,,
,,,,,,,,,6650ee988709a4266409c5f9,Spanish,13 or older,"no, only English or Spanish",no,2025-07-24_10h45.09.207,empathy_intonation_perc_control,2024.2.4,MacIntel,142.8571429,6650ee988709a4266409c5f9,68817205a84113384fffdfe3,68824694612265548ee6e8f5,,,,,,,,,,,,./stim/wavs/mexican_match_declarative-broad-focus_Ana-lleva-el-abrigo.wav,0,,,937.9089,939.8187,0,1,1.4031,,0,46,46,56,1,57,0,mexican,,,,,,,,,,,,,,,,,,,,,,,,,,,,,,,,,,,,,,,,,,,,,,,,,,,,,,,,
,,,,,,,,,6650ee988709a4266409c5f9,Spanish,13 or older,"no, only English or Spanish",no,2025-07-24_10h45.09.207,empathy_intonation_perc_control,2024.2.4,MacIntel,142.8571429,6650ee988709a4266409c5f9,68817205a84113384fffdfe3,68824694612265548ee6e8f5,,,,,,,,,,,,./stim/wavs/cuban_mismatch_declarative-broad-focus_La-nina-lava-el-plato.wav,0,,,939.8191,941.9442,0,1,1.6183,,0,47,47,75,1,76,0,cuban,,,,,,,,,,,,,,,,,,,,,,,,,,,,,,,,,,,,,,,,,,,,,,,,,,,,,,,,
,,,,,,,,,6650ee988709a4266409c5f9,Spanish,13 or older,"no, only English or Spanish",no,2025-07-24_10h45.09.207,empathy_intonation_perc_control,2024.2.4,MacIntel,142.8571429,6650ee988709a4266409c5f9,68817205a84113384fffdfe3,68824694612265548ee6e8f5,,,,,,,,,,,,./stim/wavs/puertorican_mismatch_declarative-broad-focus_El-hombre-mira-la-luna.wav,0,,,941.9446,944.0484,0,1,1.5983,,0,48,48,84,1,85,0,puertorican,,,,,,,,,,,,,,,,,,,,,,,,,,,,,,,,,,,,,,,,,,,,,,,,,,,,,,,,
,,,,,,,,,6650ee988709a4266409c5f9,Spanish,13 or older,"no, only English or Spanish",no,2025-07-24_10h45.09.207,empathy_intonation_perc_control,2024.2.4,MacIntel,142.8571429,6650ee988709a4266409c5f9,68817205a84113384fffdfe3,68824694612265548ee6e8f5,,,,,,,,,,,,./stim/wavs/mexican_match_declarative-broad-focus_Marta-abre-el-regalo.wav,0,,,944.0486,946.3192,0,1,1.7625,,0,49,49,61,1,62,0,mexican,,,,,,,,,,,,,,,,,,,,,,,,,,,,,,,,,,,,,,,,,,,,,,,,,,,,,,,,
,,,,,,,,,6650ee988709a4266409c5f9,Spanish,13 or older,"no, only English or Spanish",no,2025-07-24_10h45.09.207,empathy_intonation_perc_control,2024.2.4,MacIntel,142.8571429,6650ee988709a4266409c5f9,68817205a84113384fffdfe3,68824694612265548ee6e8f5,,,,,,,,,,,,./stim/wavs/mexican_match_declarative-broad-focus_Emilio-ama-la-marcha.wav,0,,,946.3194,948.8691,0,1,2.0393,,0,50,50,59,1,60,0,mexican,,,,,,,,,,,,,,,,,,,,,,,,,,,,,,,,,,,,,,,,,,,,,,,,,,,,,,,,
,,,,,,,,,6650ee988709a4266409c5f9,Spanish,13 or older,"no, only English or Spanish",no,2025-07-24_10h45.09.207,empathy_intonation_perc_control,2024.2.4,MacIntel,142.8571429,6650ee988709a4266409c5f9,68817205a84113384fffdfe3,68824694612265548ee6e8f5,,,,,,,,,,,,./stim/wavs/castilian_mismatch_interrogative-total-yn_La-nina-lava-el-plato.wav,1,,,948.8694,951.139,1,1,1.7593,,0,51,51,25,1,26,0,castilian,,,,,,,,,,,,,,,,,,,,,,,,,,,,,,,,,,,,,,,,,,,,,,,,,,,,,,,,
,,,,,,,,,6650ee988709a4266409c5f9,Spanish,13 or older,"no, only English or Spanish",no,2025-07-24_10h45.09.207,empathy_intonation_perc_control,2024.2.4,MacIntel,142.8571429,6650ee988709a4266409c5f9,68817205a84113384fffdfe3,68824694612265548ee6e8f5,,,,,,,,,,,,./stim/wavs/puertorican_mismatch_declarative-broad-focus_La-maestra-vive-en-Paris.wav,0,,,951.1394,953.4857,0,1,1.8324,,0,52,52,86,1,87,0,puertorican,,,,,,,,,,,,,,,,,,,,,,,,,,,,,,,,,,,,,,,,,,,,,,,,,,,,,,,,
,,,,,,,,,6650ee988709a4266409c5f9,Spanish,13 or older,"no, only English or Spanish",no,2025-07-24_10h45.09.207,empathy_intonation_perc_control,2024.2.4,MacIntel,142.8571429,6650ee988709a4266409c5f9,68817205a84113384fffdfe3,68824694612265548ee6e8f5,,,,,,,,,,,,./stim/wavs/cuban_match_interrogative-total-yn_Daniel-iba-a-Bolivia.wav,1,,,953.486,955.7984,0,0,1.8008,,0,53,53,7,1,8,1,cuban,,,,,,,,,,,,,,,,,,,,,,,,,,,,,,,,,,,,,,,,,,,,,,,,,,,,,,,,
,,,,,,,,,6650ee988709a4266409c5f9,Spanish,13 or older,"no, only English or Spanish",no,2025-07-24_10h45.09.207,empathy_intonation_perc_control,2024.2.4,MacIntel,142.8571429,6650ee988709a4266409c5f9,68817205a84113384fffdfe3,68824694612265548ee6e8f5,,,,,,,,,,,,./stim/wavs/mexican_match_interrogative-total-yn_David-leia-el-libro.wav,1,,,955.7986,958.2083,1,1,1.8963,,0,54,54,14,1,15,0,mexican,,,,,,,,,,,,,,,,,,,,,,,,,,,,,,,,,,,,,,,,,,,,,,,,,,,,,,,,
,,,,,,,,,6650ee988709a4266409c5f9,Spanish,13 or older,"no, only English or Spanish",no,2025-07-24_10h45.09.207,empathy_intonation_perc_control,2024.2.4,MacIntel,142.8571429,6650ee988709a4266409c5f9,68817205a84113384fffdfe3,68824694612265548ee6e8f5,,,,,,,,,,,,./stim/wavs/castilian_match_interrogative-total-yn_Emilio-ama-la-marcha.wav,1,,,958.2089,960.6246,1,1,1.9039,,0,55,55,1,1,2,0,castilian,,,,,,,,,,,,,,,,,,,,,,,,,,,,,,,,,,,,,,,,,,,,,,,,,,,,,,,,
,,,,,,,,,6650ee988709a4266409c5f9,Spanish,13 or older,"no, only English or Spanish",no,2025-07-24_10h45.09.207,empathy_intonation_perc_control,2024.2.4,MacIntel,142.8571429,6650ee988709a4266409c5f9,68817205a84113384fffdfe3,68824694612265548ee6e8f5,,,,,,,,,,,,./stim/wavs/cuban_mismatch_interrogative-total-yn_Mi-madre-come-la-fruta.wav,1,,,960.6249,964.0131,0,0,2.8769,,0,56,56,31,1,32,1,cuban,,,,,,,,,,,,,,,,,,,,,,,,,,,,,,,,,,,,,,,,,,,,,,,,,,,,,,,,
,,,,,,,,,6650ee988709a4266409c5f9,Spanish,13 or older,"no, only English or Spanish",no,2025-07-24_10h45.09.207,empathy_intonation_perc_control,2024.2.4,MacIntel,142.8571429,6650ee988709a4266409c5f9,68817205a84113384fffdfe3,68824694612265548ee6e8f5,,,,,,,,,,,,./stim/wavs/mexican_mismatch_interrogative-total-yn_El-nino-oye-el-rio.wav,1,,,964.0135,966.4933,1,1,1.9731,,0,57,57,35,1,36,0,mexican,,,,,,,,,,,,,,,,,,,,,,,,,,,,,,,,,,,,,,,,,,,,,,,,,,,,,,,,
,,,,,,,,,6650ee988709a4266409c5f9,Spanish,13 or older,"no, only English or Spanish",no,2025-07-24_10h45.09.207,empathy_intonation_perc_control,2024.2.4,MacIntel,142.8571429,6650ee988709a4266409c5f9,68817205a84113384fffdfe3,68824694612265548ee6e8f5,,,,,,,,,,,,./stim/wavs/castilian_match_declarative-broad-focus_Manuela-vende-el-carro.wav,0,,,966.4944,968.972,0,1,1.967,,0,58,58,46,1,47,0,castilian,,,,,,,,,,,,,,,,,,,,,,,,,,,,,,,,,,,,,,,,,,,,,,,,,,,,,,,,
,,,,,,,,,6650ee988709a4266409c5f9,Spanish,13 or older,"no, only English or Spanish",no,2025-07-24_10h45.09.207,empathy_intonation_perc_control,2024.2.4,MacIntel,142.8571429,6650ee988709a4266409c5f9,68817205a84113384fffdfe3,68824694612265548ee6e8f5,,,,,,,,,,,,./stim/wavs/puertorican_match_declarative-broad-focus_Maria-bebe-el-vino.wav,0,,,968.9724,971.2106,0,1,1.7259,,0,59,59,67,1,68,0,puertorican,,,,,,,,,,,,,,,,,,,,,,,,,,,,,,,,,,,,,,,,,,,,,,,,,,,,,,,,
,,,,,,,,,6650ee988709a4266409c5f9,Spanish,13 or older,"no, only English or Spanish",no,2025-07-24_10h45.09.207,empathy_intonation_perc_control,2024.2.4,MacIntel,142.8571429,6650ee988709a4266409c5f9,68817205a84113384fffdfe3,68824694612265548ee6e8f5,,,,,,,,,,,,./stim/wavs/castilian_mismatch_declarative-broad-focus_El-nino-oye-el-rio.wav,0,,,971.2115,973.5763,0,1,1.8543,,0,60,60,68,1,69,0,castilian,,,,,,,,,,,,,,,,,,,,,,,,,,,,,,,,,,,,,,,,,,,,,,,,,,,,,,,,
,,,,,,,,,6650ee988709a4266409c5f9,Spanish,13 or older,"no, only English or Spanish",no,2025-07-24_10h45.09.207,empathy_intonation_perc_control,2024.2.4,MacIntel,142.8571429,6650ee988709a4266409c5f9,68817205a84113384fffdfe3,68824694612265548ee6e8f5,,,,,,,,,,,,./stim/wavs/castilian_mismatch_declarative-broad-focus_Mi-novio-viene-del-lago.wav,0,,,973.5767,976.1943,0,1,2.1026,,0,61,61,71,1,72,0,castilian,,,,,,,,,,,,,,,,,,,,,,,,,,,,,,,,,,,,,,,,,,,,,,,,,,,,,,,,
,,,,,,,,,6650ee988709a4266409c5f9,Spanish,13 or older,"no, only English or Spanish",no,2025-07-24_10h45.09.207,empathy_intonation_perc_control,2024.2.4,MacIntel,142.8571429,6650ee988709a4266409c5f9,68817205a84113384fffdfe3,68824694612265548ee6e8f5,,,,,,,,,,,,./stim/wavs/mexican_mismatch_interrogative-total-yn_Mi-novio-viene-del-lago.wav,1,,,976.1947,978.514,1,1,1.8029,,0,62,62,37,1,38,0,mexican,,,,,,,,,,,,,,,,,,,,,,,,,,,,,,,,,,,,,,,,,,,,,,,,,,,,,,,,
,,,,,,,,,6650ee988709a4266409c5f9,Spanish,13 or older,"no, only English or Spanish",no,2025-07-24_10h45.09.207,empathy_intonation_perc_control,2024.2.4,MacIntel,142.8571429,6650ee988709a4266409c5f9,68817205a84113384fffdfe3,68824694612265548ee6e8f5,,,,,,,,,,,,./stim/wavs/cuban_match_interrogative-total-yn_Manuela-vende-el-carro.wav,1,,,978.5144,980.618,0,0,1.5915,,0,63,63,8,1,9,1,cuban,,,,,,,,,,,,,,,,,,,,,,,,,,,,,,,,,,,,,,,,,,,,,,,,,,,,,,,,
,,,,,,,,,6650ee988709a4266409c5f9,Spanish,13 or older,"no, only English or Spanish",no,2025-07-24_10h45.09.207,empathy_intonation_perc_control,2024.2.4,MacIntel,142.8571429,6650ee988709a4266409c5f9,68817205a84113384fffdfe3,68824694612265548ee6e8f5,,,,,,,,,,,,./stim/wavs/cuban_match_declarative-broad-focus_Maria-bebe-el-vino.wav,0,,,980.6185,982.8958,0,1,1.767,,0,64,64,53,1,54,0,cuban,,,,,,,,,,,,,,,,,,,,,,,,,,,,,,,,,,,,,,,,,,,,,,,,,,,,,,,,
,,,,,,,,,6650ee988709a4266409c5f9,Spanish,13 or older,"no, only English or Spanish",no,2025-07-24_10h45.09.207,empathy_intonation_perc_control,2024.2.4,MacIntel,142.8571429,6650ee988709a4266409c5f9,68817205a84113384fffdfe3,68824694612265548ee6e8f5,,,,,,,,,,,,./stim/wavs/mexican_match_declarative-broad-focus_Daniel-iba-a-Bolivia.wav,0,,,982.8966,985.1174,0,1,1.7064,,0,65,65,57,1,58,0,mexican,,,,,,,,,,,,,,,,,,,,,,,,,,,,,,,,,,,,,,,,,,,,,,,,,,,,,,,,
,,,,,,,,,6650ee988709a4266409c5f9,Spanish,13 or older,"no, only English or Spanish",no,2025-07-24_10h45.09.207,empathy_intonation_perc_control,2024.2.4,MacIntel,142.8571429,6650ee988709a4266409c5f9,68817205a84113384fffdfe3,68824694612265548ee6e8f5,,,,,,,,,,,,./stim/wavs/mexican_match_interrogative-total-yn_Emilio-ama-la-marcha.wav,1,,,985.1177,987.5624,1,1,1.9371,,0,66,66,15,1,16,0,mexican,,,,,,,,,,,,,,,,,,,,,,,,,,,,,,,,,,,,,,,,,,,,,,,,,,,,,,,,
,,,,,,,,,6650ee988709a4266409c5f9,Spanish,13 or older,"no, only English or Spanish",no,2025-07-24_10h45.09.207,empathy_intonation_perc_control,2024.2.4,MacIntel,142.8571429,6650ee988709a4266409c5f9,68817205a84113384fffdfe3,68824694612265548ee6e8f5,,,,,,,,,,,,./stim/wavs/mexican_mismatch_interrogative-total-yn_La-maestra-vive-en-Paris.wav,1,,,987.5629,990.0282,1,1,1.9533,,0,67,67,36,1,37,0,mexican,,,,,,,,,,,,,,,,,,,,,,,,,,,,,,,,,,,,,,,,,,,,,,,,,,,,,,,,
,,,,,,,,,6650ee988709a4266409c5f9,Spanish,13 or older,"no, only English or Spanish",no,2025-07-24_10h45.09.207,empathy_intonation_perc_control,2024.2.4,MacIntel,142.8571429,6650ee988709a4266409c5f9,68817205a84113384fffdfe3,68824694612265548ee6e8f5,,,,,,,,,,,,./stim/wavs/castilian_match_interrogative-total-yn_Manuela-vende-el-carro.wav,1,,,990.0291,992.4991,1,1,1.962,,0,68,68,2,1,3,0,castilian,,,,,,,,,,,,,,,,,,,,,,,,,,,,,,,,,,,,,,,,,,,,,,,,,,,,,,,,
,,,,,,,,,6650ee988709a4266409c5f9,Spanish,13 or older,"no, only English or Spanish",no,2025-07-24_10h45.09.207,empathy_intonation_perc_control,2024.2.4,MacIntel,142.8571429,6650ee988709a4266409c5f9,68817205a84113384fffdfe3,68824694612265548ee6e8f5,,,,,,,,,,,,./stim/wavs/mexican_mismatch_declarative-broad-focus_El-hombre-mira-la-luna.wav,0,,,992.4996,994.8607,0,1,1.8448,,0,69,69,79,1,80,0,mexican,,,,,,,,,,,,,,,,,,,,,,,,,,,,,,,,,,,,,,,,,,,,,,,,,,,,,,,,
,,,,,,,,,6650ee988709a4266409c5f9,Spanish,13 or older,"no, only English or Spanish",no,2025-07-24_10h45.09.207,empathy_intonation_perc_control,2024.2.4,MacIntel,142.8571429,6650ee988709a4266409c5f9,68817205a84113384fffdfe3,68824694612265548ee6e8f5,,,,,,,,,,,,./stim/wavs/cuban_match_declarative-broad-focus_Manuela-vende-el-carro.wav,0,,,994.8612,997.5763,0,1,2.2073,,0,70,70,52,1,53,0,cuban,,,,,,,,,,,,,,,,,,,,,,,,,,,,,,,,,,,,,,,,,,,,,,,,,,,,,,,,
,,,,,,,,,6650ee988709a4266409c5f9,Spanish,13 or older,"no, only English or Spanish",no,2025-07-24_10h45.09.207,empathy_intonation_perc_control,2024.2.4,MacIntel,142.8571429,6650ee988709a4266409c5f9,68817205a84113384fffdfe3,68824694612265548ee6e8f5,,,,,,,,,,,,./stim/wavs/puertorican_mismatch_declarative-broad-focus_La-nina-lava-el-plato.wav,0,,,997.5766,999.7453,0,1,1.6611,,0,71,71,87,1,88,0,puertorican,,,,,,,,,,,,,,,,,,,,,,,,,,,,,,,,,,,,,,,,,,,,,,,,,,,,,,,,
,,,,,,,,,6650ee988709a4266409c5f9,Spanish,13 or older,"no, only English or Spanish",no,2025-07-24_10h45.09.207,empathy_intonation_perc_control,2024.2.4,MacIntel,142.8571429,6650ee988709a4266409c5f9,68817205a84113384fffdfe3,68824694612265548ee6e8f5,,,,,,,,,,,,./stim/wavs/puertorican_mismatch_declarative-broad-focus_El-bebe-comia-muy-bien.wav,0,,,999.7459,1001.8958,0,1,1.6368,,0,72,72,83,1,84,0,puertorican,,,,,,,,,,,,,,,,,,,,,,,,,,,,,,,,,,,,,,,,,,,,,,,,,,,,,,,,
,,,,,,,,,6650ee988709a4266409c5f9,Spanish,13 or older,"no, only English or Spanish",no,2025-07-24_10h45.09.207,empathy_intonation_perc_control,2024.2.4,MacIntel,142.8571429,6650ee988709a4266409c5f9,68817205a84113384fffdfe3,68824694612265548ee6e8f5,,,,,,,,,,,,./stim/wavs/mexican_match_interrogative-total-yn_Daniel-iba-a-Bolivia.wav,1,,,1001.8963,1004.9436,1,1,2.536,,0,73,73,13,1,14,0,mexican,,,,,,,,,,,,,,,,,,,,,,,,,,,,,,,,,,,,,,,,,,,,,,,,,,,,,,,,
,,,,,,,,,6650ee988709a4266409c5f9,Spanish,13 or older,"no, only English or Spanish",no,2025-07-24_10h45.09.207,empathy_intonation_perc_control,2024.2.4,MacIntel,142.8571429,6650ee988709a4266409c5f9,68817205a84113384fffdfe3,68824694612265548ee6e8f5,,,,,,,,,,,,./stim/wavs/cuban_match_declarative-broad-focus_Daniel-iba-a-Bolivia.wav,0,,,1004.9439,1007.9025,0,1,2.4501,,0,74,74,51,1,52,0,cuban,,,,,,,,,,,,,,,,,,,,,,,,,,,,,,,,,,,,,,,,,,,,,,,,,,,,,,,,
,,,,,,,,,6650ee988709a4266409c5f9,Spanish,13 or older,"no, only English or Spanish",no,2025-07-24_10h45.09.207,empathy_intonation_perc_control,2024.2.4,MacIntel,142.8571429,6650ee988709a4266409c5f9,68817205a84113384fffdfe3,68824694612265548ee6e8f5,,,,,,,,,,,,./stim/wavs/puertorican_match_declarative-broad-focus_Emilio-ama-la-marcha.wav,0,,,1007.9028,1009.9576,0,1,1.5495,,0,75,75,65,1,66,0,puertorican,,,,,,,,,,,,,,,,,,,,,,,,,,,,,,,,,,,,,,,,,,,,,,,,,,,,,,,,
,,,,,,,,,6650ee988709a4266409c5f9,Spanish,13 or older,"no, only English or Spanish",no,2025-07-24_10h45.09.207,empathy_intonation_perc_control,2024.2.4,MacIntel,142.8571429,6650ee988709a4266409c5f9,68817205a84113384fffdfe3,68824694612265548ee6e8f5,,,,,,,,,,,,./stim/wavs/castilian_match_interrogative-total-yn_Mariano-habla-del-tiempo.wav,1,,,1009.9578,1012.2013,1,1,1.7331,,0,76,76,4,1,5,0,castilian,,,,,,,,,,,,,,,,,,,,,,,,,,,,,,,,,,,,,,,,,,,,,,,,,,,,,,,,
,,,,,,,,,6650ee988709a4266409c5f9,Spanish,13 or older,"no, only English or Spanish",no,2025-07-24_10h45.09.207,empathy_intonation_perc_control,2024.2.4,MacIntel,142.8571429,6650ee988709a4266409c5f9,68817205a84113384fffdfe3,68824694612265548ee6e8f5,,,,,,,,,,,,./stim/wavs/cuban_match_declarative-broad-focus_Marta-abre-el-regalo.wav,0,,,1012.2015,1014.4535,0,1,1.745,,0,77,77,55,1,56,0,cuban,,,,,,,,,,,,,,,,,,,,,,,,,,,,,,,,,,,,,,,,,,,,,,,,,,,,,,,,
,,,,,,,,,6650ee988709a4266409c5f9,Spanish,13 or older,"no, only English or Spanish",no,2025-07-24_10h45.09.207,empathy_intonation_perc_control,2024.2.4,MacIntel,142.8571429,6650ee988709a4266409c5f9,68817205a84113384fffdfe3,68824694612265548ee6e8f5,,,,,,,,,,,,./stim/wavs/castilian_match_interrogative-total-yn_Maria-bebe-el-vino.wav,1,,,1014.4547,1016.4862,1,1,1.5171,,0,78,78,3,1,4,0,castilian,,,,,,,,,,,,,,,,,,,,,,,,,,,,,,,,,,,,,,,,,,,,,,,,,,,,,,,,
,,,,,,,,,6650ee988709a4266409c5f9,Spanish,13 or older,"no, only English or Spanish",no,2025-07-24_10h45.09.207,empathy_intonation_perc_control,2024.2.4,MacIntel,142.8571429,6650ee988709a4266409c5f9,68817205a84113384fffdfe3,68824694612265548ee6e8f5,,,,,,,,,,,,./stim/wavs/mexican_mismatch_interrogative-total-yn_Mi-tia-odia-la-lluvia.wav,1,,,1016.4867,1018.6946,1,1,1.6966,,0,79,79,38,1,39,0,mexican,,,,,,,,,,,,,,,,,,,,,,,,,,,,,,,,,,,,,,,,,,,,,,,,,,,,,,,,
,,,,,,,,,6650ee988709a4266409c5f9,Spanish,13 or older,"no, only English or Spanish",no,2025-07-24_10h45.09.207,empathy_intonation_perc_control,2024.2.4,MacIntel,142.8571429,6650ee988709a4266409c5f9,68817205a84113384fffdfe3,68824694612265548ee6e8f5,,,,,,,,,,,,./stim/wavs/puertorican_match_interrogative-total-yn_David-leia-el-libro.wav,1,,,1018.6951,1020.7223,0,0,1.5119,,0,80,80,20,1,21,1,puertorican,,,,,,,,,,,,,,,,,,,,,,,,,,,,,,,,,,,,,,,,,,,,,,,,,,,,,,,,
,,,,,,,,,6650ee988709a4266409c5f9,Spanish,13 or older,"no, only English or Spanish",no,2025-07-24_10h45.09.207,empathy_intonation_perc_control,2024.2.4,MacIntel,142.8571429,6650ee988709a4266409c5f9,68817205a84113384fffdfe3,68824694612265548ee6e8f5,,,,,,,,,,,,./stim/wavs/castilian_mismatch_interrogative-total-yn_La-maestra-vive-en-Paris.wav,1,,,1020.7227,1023.2708,1,1,2.0368,,0,81,81,24,1,25,0,castilian,,,,,,,,,,,,,,,,,,,,,,,,,,,,,,,,,,,,,,,,,,,,,,,,,,,,,,,,
,,,,,,,,,6650ee988709a4266409c5f9,Spanish,13 or older,"no, only English or Spanish",no,2025-07-24_10h45.09.207,empathy_intonation_perc_control,2024.2.4,MacIntel,142.8571429,6650ee988709a4266409c5f9,68817205a84113384fffdfe3,68824694612265548ee6e8f5,,,,,,,,,,,,./stim/wavs/mexican_mismatch_declarative-broad-focus_Mi-novio-viene-del-lago.wav,0,,,1023.271,1025.3336,0,1,1.5557,,0,82,82,81,1,82,0,mexican,,,,,,,,,,,,,,,,,,,,,,,,,,,,,,,,,,,,,,,,,,,,,,,,,,,,,,,,
,,,,,,,,,6650ee988709a4266409c5f9,Spanish,13 or older,"no, only English or Spanish",no,2025-07-24_10h45.09.207,empathy_intonation_perc_control,2024.2.4,MacIntel,142.8571429,6650ee988709a4266409c5f9,68817205a84113384fffdfe3,68824694612265548ee6e8f5,,,,,,,,,,,,./stim/wavs/mexican_mismatch_declarative-broad-focus_El-bebe-comia-muy-bien.wav,0,,,1025.334,1027.375,0,1,1.5339,,0,83,83,78,1,79,0,mexican,,,,,,,,,,,,,,,,,,,,,,,,,,,,,,,,,,,,,,,,,,,,,,,,,,,,,,,,
,,,,,,,,,6650ee988709a4266409c5f9,Spanish,13 or older,"no, only English or Spanish",no,2025-07-24_10h45.09.207,empathy_intonation_perc_control,2024.2.4,MacIntel,142.8571429,6650ee988709a4266409c5f9,68817205a84113384fffdfe3,68824694612265548ee6e8f5,,,,,,,,,,,,./stim/wavs/cuban_match_interrogative-total-yn_Ana-lleva-el-abrigo.wav,1,,,1027.3756,1029.2361,0,0,1.3482,,0,84,84,6,1,7,1,cuban,,,,,,,,,,,,,,,,,,,,,,,,,,,,,,,,,,,,,,,,,,,,,,,,,,,,,,,,
,,,,,,,,,6650ee988709a4266409c5f9,Spanish,13 or older,"no, only English or Spanish",no,2025-07-24_10h45.09.207,empathy_intonation_perc_control,2024.2.4,MacIntel,142.8571429,6650ee988709a4266409c5f9,68817205a84113384fffdfe3,68824694612265548ee6e8f5,,,,,,,,,,,,./stim/wavs/puertorican_mismatch_interrogative-total-yn_El-nino-oye-el-rio.wav,1,,,1029.2365,1031.3194,0,0,1.5748,,0,85,85,40,1,41,1,puertorican,,,,,,,,,,,,,,,,,,,,,,,,,,,,,,,,,,,,,,,,,,,,,,,,,,,,,,,,
,,,,,,,,,6650ee988709a4266409c5f9,Spanish,13 or older,"no, only English or Spanish",no,2025-07-24_10h45.09.207,empathy_intonation_perc_control,2024.2.4,MacIntel,142.8571429,6650ee988709a4266409c5f9,68817205a84113384fffdfe3,68824694612265548ee6e8f5,,,,,,,,,,,,./stim/wavs/castilian_match_declarative-broad-focus_Emilio-ama-la-marcha.wav,0,,,1031.3198,1033.6937,0,1,1.8605,,0,86,86,45,1,46,0,castilian,,,,,,,,,,,,,,,,,,,,,,,,,,,,,,,,,,,,,,,,,,,,,,,,,,,,,,,,
,,,,,,,,,6650ee988709a4266409c5f9,Spanish,13 or older,"no, only English or Spanish",no,2025-07-24_10h45.09.207,empathy_intonation_perc_control,2024.2.4,MacIntel,142.8571429,6650ee988709a4266409c5f9,68817205a84113384fffdfe3,68824694612265548ee6e8f5,,,,,,,,,,,,./stim/wavs/puertorican_match_declarative-broad-focus_Daniel-iba-a-Bolivia.wav,0,,,1033.6939,1036.0068,0,1,1.8049,,0,87,87,63,1,64,0,puertorican,,,,,,,,,,,,,,,,,,,,,,,,,,,,,,,,,,,,,,,,,,,,,,,,,,,,,,,,
,,,,,,,"Great! Now we will move on. The next task consists of about 60 trials, in each of which you will see a string of letters. 
  
  Your task is to decide whether this is a real Spanish word or not.", (press the spacebar to continue),6650ee988709a4266409c5f9,Spanish,13 or older,"no, only English or Spanish",no,2025-07-24_10h45.09.207,empathy_intonation_perc_control,2024.2.4,MacIntel,142.8571429,6650ee988709a4266409c5f9,68817205a84113384fffdfe3,68824694612265548ee6e8f5,,,,,,,,,,,,,,,,,,,,,,,,,,,,,,1036.0096,1295.5425,0,0,0,0,1,,,,,,,,,,,,,,,,,,,,,,,,,,,,,,,,,,,,,,,,,,,,,,,,,
,,,,,,,"If you think it is an existing Spanish word, you type '1' (for 'REAL'), and if you think it is not an existing Spanish word, you type '0' (for 'FAKE').", (press the spacebar to continue),6650ee988709a4266409c5f9,Spanish,13 or older,"no, only English or Spanish",no,2025-07-24_10h45.09.207,empathy_intonation_perc_control,2024.2.4,MacIntel,142.8571429,6650ee988709a4266409c5f9,68817205a84113384fffdfe3,68824694612265548ee6e8f5,,,,,,,,,,,,,,,,,,,,,,,,,,,,,,1295.5443,1297.5979,0,1,1,1,1,,,,,,,,,,,,,,,,,,,,,,,,,,,,,,,,,,,,,,,,,,,,,,,,,
,,,,,,,"If you are sure that the word exists, even though you don’t know its exact meaning, you may still respond '1' (REAL). 
  
  But if you are not sure if it is an existing word, you should respond '0' (FAKE).
  
  Let's do a practice round...", (press the spacebar to continue),6650ee988709a4266409c5f9,Spanish,13 or older,"no, only English or Spanish",no,2025-07-24_10h45.09.207,empathy_intonation_perc_control,2024.2.4,MacIntel,142.8571429,6650ee988709a4266409c5f9,68817205a84113384fffdfe3,68824694612265548ee6e8f5,,,,,,,,,,,,,,,,,,,,,,,,,,,,,,1297.5998,1299.3125,0,2,2,2,1,,,,,,,,,,,,,,,,,,,,,,,,,,,,,,,,,,,,,,,,,,,,,,,,,
,,,,,,,,,6650ee988709a4266409c5f9,Spanish,13 or older,"no, only English or Spanish",no,2025-07-24_10h45.09.207,empathy_intonation_perc_control,2024.2.4,MacIntel,142.8571429,6650ee988709a4266409c5f9,68817205a84113384fffdfe3,68824694612265548ee6e8f5,,,,,,,,,,,,,0,,,,,,,,,,,,,,,,,,,,,,,,1299.3163,1303.3468,1,0,3.5137,,1303.3469,1304.348,0,0,0,0,1,0,depiste,REAL,FAKE,,,,,,,,,,,,,,,,,,,,,,,,,,,,,,,,
,,,,,,,,,6650ee988709a4266409c5f9,Spanish,13 or older,"no, only English or Spanish",no,2025-07-24_10h45.09.207,empathy_intonation_perc_control,2024.2.4,MacIntel,142.8571429,6650ee988709a4266409c5f9,68817205a84113384fffdfe3,68824694612265548ee6e8f5,,,,,,,,,,,,,1,,,,,,,,,,,,,,,,,,,,,,,,1304.3498,1305.5972,1,1,0.7292,,1305.5976,1306.5977,0,1,1,1,1,0,sí,REAL,FAKE,,,,,,,,,,,,,,,,,,,,,,,,,,,,,,,,
,,,,,,,,,6650ee988709a4266409c5f9,Spanish,13 or older,"no, only English or Spanish",no,2025-07-24_10h45.09.207,empathy_intonation_perc_control,2024.2.4,MacIntel,142.8571429,6650ee988709a4266409c5f9,68817205a84113384fffdfe3,68824694612265548ee6e8f5,,,,,,,,,,,,,0,,,,,,,,,,,,,,,,,,,,,,,,1306.5991,1307.7715,1,0,0.6562,,1307.7723,1308.7708,0,2,2,2,1,0,coné,REAL,FAKE,,,,,,,,,,,,,,,,,,,,,,,,,,,,,,,,
,,,,,,,,,6650ee988709a4266409c5f9,Spanish,13 or older,"no, only English or Spanish",no,2025-07-24_10h45.09.207,empathy_intonation_perc_control,2024.2.4,MacIntel,142.8571429,6650ee988709a4266409c5f9,68817205a84113384fffdfe3,68824694612265548ee6e8f5,,,,,,,,,,,,,0,,,,,,,,,,,,,,,,,,,,,,,,1308.7714,1310.0881,1,0,0.8002,,1310.0881,1311.0833,0,3,3,3,1,0,calpar,REAL,FAKE,,,,,,,,,,,,,,,,,,,,,,,,,,,,,,,,
,,,,,,,,,6650ee988709a4266409c5f9,Spanish,13 or older,"no, only English or Spanish",no,2025-07-24_10h45.09.207,empathy_intonation_perc_control,2024.2.4,MacIntel,142.8571429,6650ee988709a4266409c5f9,68817205a84113384fffdfe3,68824694612265548ee6e8f5,,,,,,,,,,,,,0,,,,,,,,,,,,,,,,,,,,,,,,1311.0843,1312.6454,0,1,1.0409,,1312.6461,1313.6461,0,4,4,4,1,0,joten,REAL,FAKE,,,,,,,,,,,,,,,,,,,,,,,,,,,,,,,,
,,,,,,,,,6650ee988709a4266409c5f9,Spanish,13 or older,"no, only English or Spanish",no,2025-07-24_10h45.09.207,empathy_intonation_perc_control,2024.2.4,MacIntel,142.8571429,6650ee988709a4266409c5f9,68817205a84113384fffdfe3,68824694612265548ee6e8f5,,,,,,,,,,,,,1,,,,,,,,,,,,,,,,,,,,,,,,1313.6472,1315.1041,1,1,0.938,,1315.1043,1316.1047,0,5,5,5,1,0,sacapuntas,REAL,FAKE,,,,,,,,,,,,,,,,,,,,,,,,,,,,,,,,
,,,,,,,,,6650ee988709a4266409c5f9,Spanish,13 or older,"no, only English or Spanish",no,2025-07-24_10h45.09.207,empathy_intonation_perc_control,2024.2.4,MacIntel,142.8571429,6650ee988709a4266409c5f9,68817205a84113384fffdfe3,68824694612265548ee6e8f5,,,,,,,,,,,,,0,,,,,,,,,,,,,,,,,,,,,,,,1316.1061,1317.8473,1,0,1.2234,,1317.8477,1318.8469,0,6,6,6,1,0,priba,REAL,FAKE,,,,,,,,,,,,,,,,,,,,,,,,,,,,,,,,
,,,,,,,,,6650ee988709a4266409c5f9,Spanish,13 or older,"no, only English or Spanish",no,2025-07-24_10h45.09.207,empathy_intonation_perc_control,2024.2.4,MacIntel,142.8571429,6650ee988709a4266409c5f9,68817205a84113384fffdfe3,68824694612265548ee6e8f5,,,,,,,,,,,,,0,,,,,,,,,,,,,,,,,,,,,,,,1318.8479,1320.3605,1,0,1.0005,,1320.3606,1321.3617,0,7,7,7,1,0,pelasula,REAL,FAKE,,,,,,,,,,,,,,,,,,,,,,,,,,,,,,,,
,,,,,,,,,6650ee988709a4266409c5f9,Spanish,13 or older,"no, only English or Spanish",no,2025-07-24_10h45.09.207,empathy_intonation_perc_control,2024.2.4,MacIntel,142.8571429,6650ee988709a4266409c5f9,68817205a84113384fffdfe3,68824694612265548ee6e8f5,,,,,,,,,,,,,1,,,,,,,,,,,,,,,,,,,,,,,,1321.3633,1323.3203,1,1,1.4448,,1323.321,1324.3179,0,8,8,8,1,0,bien,REAL,FAKE,,,,,,,,,,,,,,,,,,,,,,,,,,,,,,,,
,,,,,,,,,6650ee988709a4266409c5f9,Spanish,13 or older,"no, only English or Spanish",no,2025-07-24_10h45.09.207,empathy_intonation_perc_control,2024.2.4,MacIntel,142.8571429,6650ee988709a4266409c5f9,68817205a84113384fffdfe3,68824694612265548ee6e8f5,,,,,,,,,,,,,1,,,,,,,,,,,,,,,,,,,,,,,,1324.319,1325.7291,1,1,0.8964,,1325.7292,1326.729,0,9,9,9,1,0,casa,REAL,FAKE,,,,,,,,,,,,,,,,,,,,,,,,,,,,,,,,
,,,,,,,,,6650ee988709a4266409c5f9,Spanish,13 or older,"no, only English or Spanish",no,2025-07-24_10h45.09.207,empathy_intonation_perc_control,2024.2.4,MacIntel,142.8571429,6650ee988709a4266409c5f9,68817205a84113384fffdfe3,68824694612265548ee6e8f5,,,,,,,,,,,,,0,,,,,,,,,,,,,,,,,,,,,,,,1326.7295,1782.464,1,0,455.2233,,1782.4646,1783.4633,0,10,10,10,1,0,lejo,REAL,FAKE,,,,,,,,,,,,,,,,,,,,,,,,,,,,,,,,
,,,,,,,,,6650ee988709a4266409c5f9,Spanish,13 or older,"no, only English or Spanish",no,2025-07-24_10h45.09.207,empathy_intonation_perc_control,2024.2.4,MacIntel,142.8571429,6650ee988709a4266409c5f9,68817205a84113384fffdfe3,68824694612265548ee6e8f5,,,,,,,,,,,,,0,,,,,,,,,,,,,,,,,,,,,,,,1783.4643,1785.1581,1,0,1.1809,,1785.1582,1786.1578,0,11,11,11,1,0,pretantas,REAL,FAKE,,,,,,,,,,,,,,,,,,,,,,,,,,,,,,,,
,,,,,,,,,6650ee988709a4266409c5f9,Spanish,13 or older,"no, only English or Spanish",no,2025-07-24_10h45.09.207,empathy_intonation_perc_control,2024.2.4,MacIntel,142.8571429,6650ee988709a4266409c5f9,68817205a84113384fffdfe3,68824694612265548ee6e8f5,,,,,,,,,,,,,,,,,,,,,,,,,,,,,,,,,,,,,,,,,,,,,,,,,,,,,,1786.1582,1789.5191,,,,,,,,,,,,,,,,,,,,,,,,,,,,,,
,,,,,,,,,6650ee988709a4266409c5f9,Spanish,13 or older,"no, only English or Spanish",no,2025-07-24_10h45.09.207,empathy_intonation_perc_control,2024.2.4,MacIntel,142.8571429,6650ee988709a4266409c5f9,68817205a84113384fffdfe3,68824694612265548ee6e8f5,,,,,,,,,,,,,0,,,,,,,,,,,,,,,,,,,,,,,,,,,,,,,,,,,,,66,hacido,,,,,1789.5284,1791.3398,1,0,1.2991,,0,0,0,65,1,REAL,FAKE,,,,,,,,,,,,,,,,,
,,,,,,,,,6650ee988709a4266409c5f9,Spanish,13 or older,"no, only English or Spanish",no,2025-07-24_10h45.09.207,empathy_intonation_perc_control,2024.2.4,MacIntel,142.8571429,6650ee988709a4266409c5f9,68817205a84113384fffdfe3,68824694612265548ee6e8f5,,,,,,,,,,,,,0,,,,,,,,,,,,,,,,,,,,,,,,,,,,,,,,,,,,,30,alardio,,,,,1791.3407,1792.8796,1,0,1.0224,,0,1,1,29,1,REAL,FAKE,,,,,,,,,,,,,,,,,
,,,,,,,,,6650ee988709a4266409c5f9,Spanish,13 or older,"no, only English or Spanish",no,2025-07-24_10h45.09.207,empathy_intonation_perc_control,2024.2.4,MacIntel,142.8571429,6650ee988709a4266409c5f9,68817205a84113384fffdfe3,68824694612265548ee6e8f5,,,,,,,,,,,,,0,,,,,,,,,,,,,,,,,,,,,,,,,,,,,,,,,,,,,33,pauca,,,,,1792.8801,1795.6258,1,0,2.2373,,0,2,2,32,1,REAL,FAKE,,,,,,,,,,,,,,,,,
,,,,,,,,,6650ee988709a4266409c5f9,Spanish,13 or older,"no, only English or Spanish",no,2025-07-24_10h45.09.207,empathy_intonation_perc_control,2024.2.4,MacIntel,142.8571429,6650ee988709a4266409c5f9,68817205a84113384fffdfe3,68824694612265548ee6e8f5,,,,,,,,,,,,,1,,,,,,,,,,,,,,,,,,,,,,,,,,,,,,,,,,,,,20,ávido,,,,,1795.6284,1796.9266,1,1,0.7854,,0,3,3,19,1,REAL,FAKE,,,,,,,,,,,,,,,,,
,,,,,,,,,6650ee988709a4266409c5f9,Spanish,13 or older,"no, only English or Spanish",no,2025-07-24_10h45.09.207,empathy_intonation_perc_control,2024.2.4,MacIntel,142.8571429,6650ee988709a4266409c5f9,68817205a84113384fffdfe3,68824694612265548ee6e8f5,,,,,,,,,,,,,1,,,,,,,,,,,,,,,,,,,,,,,,,,,,,,,,,,,,,14,yunque,,,,,1796.9277,1798.9774,0,0,1.5385,,0,4,4,13,1,REAL,FAKE,,,,,,,,,,,,,,,,,
,,,,,,,,,6650ee988709a4266409c5f9,Spanish,13 or older,"no, only English or Spanish",no,2025-07-24_10h45.09.207,empathy_intonation_perc_control,2024.2.4,MacIntel,142.8571429,6650ee988709a4266409c5f9,68817205a84113384fffdfe3,68824694612265548ee6e8f5,,,,,,,,,,,,,1,,,,,,,,,,,,,,,,,,,,,,,,,,,,,,,,,,,,,77,tiburón,,,,,1798.9783,1801.7552,0,0,2.2571,,0,5,5,76,1,REAL,FAKE,,,,,,,,,,,,,,,,,
,,,,,,,,,6650ee988709a4266409c5f9,Spanish,13 or older,"no, only English or Spanish",no,2025-07-24_10h45.09.207,empathy_intonation_perc_control,2024.2.4,MacIntel,142.8571429,6650ee988709a4266409c5f9,68817205a84113384fffdfe3,68824694612265548ee6e8f5,,,,,,,,,,,,,0,,,,,,,,,,,,,,,,,,,,,,,,,,,,,,,,,,,,,79,tropaje,,,,,1801.7563,1803.5711,1,0,1.3002,,0,6,6,78,1,REAL,FAKE,,,,,,,,,,,,,,,,,
,,,,,,,,,6650ee988709a4266409c5f9,Spanish,13 or older,"no, only English or Spanish",no,2025-07-24_10h45.09.207,empathy_intonation_perc_control,2024.2.4,MacIntel,142.8571429,6650ee988709a4266409c5f9,68817205a84113384fffdfe3,68824694612265548ee6e8f5,,,,,,,,,,,,,1,,,,,,,,,,,,,,,,,,,,,,,,,,,,,,,,,,,,,81,pozo,,,,,1803.572,1805.1371,1,1,1.0531,,0,7,7,80,1,REAL,FAKE,,,,,,,,,,,,,,,,,
,,,,,,,,,6650ee988709a4266409c5f9,Spanish,13 or older,"no, only English or Spanish",no,2025-07-24_10h45.09.207,empathy_intonation_perc_control,2024.2.4,MacIntel,142.8571429,6650ee988709a4266409c5f9,68817205a84113384fffdfe3,68824694612265548ee6e8f5,,,,,,,,,,,,,1,,,,,,,,,,,,,,,,,,,,,,,,,,,,,,,,,,,,,80,hormiga,,,,,1805.138,1807.0504,0,0,1.3902,,0,8,8,79,1,REAL,FAKE,,,,,,,,,,,,,,,,,
,,,,,,,,,6650ee988709a4266409c5f9,Spanish,13 or older,"no, only English or Spanish",no,2025-07-24_10h45.09.207,empathy_intonation_perc_control,2024.2.4,MacIntel,142.8571429,6650ee988709a4266409c5f9,68817205a84113384fffdfe3,68824694612265548ee6e8f5,,,,,,,,,,,,,1,,,,,,,,,,,,,,,,,,,,,,,,,,,,,,,,,,,,,6,tergiversar,,,,,1807.0517,1808.6332,0,0,1.0718,,0,9,9,5,1,REAL,FAKE,,,,,,,,,,,,,,,,,
,,,,,,,,,6650ee988709a4266409c5f9,Spanish,13 or older,"no, only English or Spanish",no,2025-07-24_10h45.09.207,empathy_intonation_perc_control,2024.2.4,MacIntel,142.8571429,6650ee988709a4266409c5f9,68817205a84113384fffdfe3,68824694612265548ee6e8f5,,,,,,,,,,,,,0,,,,,,,,,,,,,,,,,,,,,,,,,,,,,,,,,,,,,19,brecedad,,,,,1808.6338,1811.2689,0,1,2.121,,0,10,10,18,1,REAL,FAKE,,,,,,,,,,,,,,,,,
,,,,,,,,,6650ee988709a4266409c5f9,Spanish,13 or older,"no, only English or Spanish",no,2025-07-24_10h45.09.207,empathy_intonation_perc_control,2024.2.4,MacIntel,142.8571429,6650ee988709a4266409c5f9,68817205a84113384fffdfe3,68824694612265548ee6e8f5,,,,,,,,,,,,,1,,,,,,,,,,,,,,,,,,,,,,,,,,,,,,,,,,,,,86,barato,,,,,1811.2695,1812.5885,1,1,0.8045,,0,11,11,85,1,REAL,FAKE,,,,,,,,,,,,,,,,,
,,,,,,,,,6650ee988709a4266409c5f9,Spanish,13 or older,"no, only English or Spanish",no,2025-07-24_10h45.09.207,empathy_intonation_perc_control,2024.2.4,MacIntel,142.8571429,6650ee988709a4266409c5f9,68817205a84113384fffdfe3,68824694612265548ee6e8f5,,,,,,,,,,,,,1,,,,,,,,,,,,,,,,,,,,,,,,,,,,,,,,,,,,,44,cuchara,,,,,1812.5891,1814.2393,1,1,1.1416,,0,12,12,43,1,REAL,FAKE,,,,,,,,,,,,,,,,,
,,,,,,,,,6650ee988709a4266409c5f9,Spanish,13 or older,"no, only English or Spanish",no,2025-07-24_10h45.09.207,empathy_intonation_perc_control,2024.2.4,MacIntel,142.8571429,6650ee988709a4266409c5f9,68817205a84113384fffdfe3,68824694612265548ee6e8f5,,,,,,,,,,,,,0,,,,,,,,,,,,,,,,,,,,,,,,,,,,,,,,,,,,,53,vegada,,,,,1814.2399,1815.8197,0,1,1.0709,,0,13,13,52,1,REAL,FAKE,,,,,,,,,,,,,,,,,
,,,,,,,,,6650ee988709a4266409c5f9,Spanish,13 or older,"no, only English or Spanish",no,2025-07-24_10h45.09.207,empathy_intonation_perc_control,2024.2.4,MacIntel,142.8571429,6650ee988709a4266409c5f9,68817205a84113384fffdfe3,68824694612265548ee6e8f5,,,,,,,,,,,,,1,,,,,,,,,,,,,,,,,,,,,,,,,,,,,,,,,,,,,73,hervidor,,,,,1815.8207,1817.7569,0,0,1.4172,,0,14,14,72,1,REAL,FAKE,,,,,,,,,,,,,,,,,
,,,,,,,,,6650ee988709a4266409c5f9,Spanish,13 or older,"no, only English or Spanish",no,2025-07-24_10h45.09.207,empathy_intonation_perc_control,2024.2.4,MacIntel,142.8571429,6650ee988709a4266409c5f9,68817205a84113384fffdfe3,68824694612265548ee6e8f5,,,,,,,,,,,,,1,,,,,,,,,,,,,,,,,,,,,,,,,,,,,,,,,,,,,62,flaco,,,,,1817.7577,1819.1863,0,0,0.9158,,0,15,15,61,1,REAL,FAKE,,,,,,,,,,,,,,,,,
,,,,,,,,,6650ee988709a4266409c5f9,Spanish,13 or older,"no, only English or Spanish",no,2025-07-24_10h45.09.207,empathy_intonation_perc_control,2024.2.4,MacIntel,142.8571429,6650ee988709a4266409c5f9,68817205a84113384fffdfe3,68824694612265548ee6e8f5,,,,,,,,,,,,,1,,,,,,,,,,,,,,,,,,,,,,,,,,,,,,,,,,,,,64,orgulloso,,,,,1819.1867,1822.7411,1,1,3.0392,,0,16,16,63,1,REAL,FAKE,,,,,,,,,,,,,,,,,
,,,,,,,,,6650ee988709a4266409c5f9,Spanish,13 or older,"no, only English or Spanish",no,2025-07-24_10h45.09.207,empathy_intonation_perc_control,2024.2.4,MacIntel,142.8571429,6650ee988709a4266409c5f9,68817205a84113384fffdfe3,68824694612265548ee6e8f5,,,,,,,,,,,,,0,,,,,,,,,,,,,,,,,,,,,,,,,,,,,,,,,,,,,18,arsa,,,,,1822.7417,1825.6585,0,1,2.4083,,0,17,17,17,1,REAL,FAKE,,,,,,,,,,,,,,,,,
,,,,,,,,,6650ee988709a4266409c5f9,Spanish,13 or older,"no, only English or Spanish",no,2025-07-24_10h45.09.207,empathy_intonation_perc_control,2024.2.4,MacIntel,142.8571429,6650ee988709a4266409c5f9,68817205a84113384fffdfe3,68824694612265548ee6e8f5,,,,,,,,,,,,,1,,,,,,,,,,,,,,,,,,,,,,,,,,,,,,,,,,,,,48,ladrón,,,,,1825.6591,1828.1579,1,1,1.9803,,0,18,18,47,1,REAL,FAKE,,,,,,,,,,,,,,,,,
,,,,,,,,,6650ee988709a4266409c5f9,Spanish,13 or older,"no, only English or Spanish",no,2025-07-24_10h45.09.207,empathy_intonation_perc_control,2024.2.4,MacIntel,142.8571429,6650ee988709a4266409c5f9,68817205a84113384fffdfe3,68824694612265548ee6e8f5,,,,,,,,,,,,,0,,,,,,,,,,,,,,,,,,,,,,,,,,,,,,,,,,,,,21,capillo,,,,,1828.1588,1830.0289,1,0,1.3636,,0,19,19,20,1,REAL,FAKE,,,,,,,,,,,,,,,,,
,,,,,,,,,6650ee988709a4266409c5f9,Spanish,13 or older,"no, only English or Spanish",no,2025-07-24_10h45.09.207,empathy_intonation_perc_control,2024.2.4,MacIntel,142.8571429,6650ee988709a4266409c5f9,68817205a84113384fffdfe3,68824694612265548ee6e8f5,,,,,,,,,,,,,0,,,,,,,,,,,,,,,,,,,,,,,,,,,,,,,,,,,,,74,cintro,,,,,1830.0298,1832.2273,1,0,1.6849,,0,20,20,73,1,REAL,FAKE,,,,,,,,,,,,,,,,,
,,,,,,,,,6650ee988709a4266409c5f9,Spanish,13 or older,"no, only English or Spanish",no,2025-07-24_10h45.09.207,empathy_intonation_perc_control,2024.2.4,MacIntel,142.8571429,6650ee988709a4266409c5f9,68817205a84113384fffdfe3,68824694612265548ee6e8f5,,,,,,,,,,,,,1,,,,,,,,,,,,,,,,,,,,,,,,,,,,,,,,,,,,,40,alfombra,,,,,1832.2284,1833.7976,0,0,1.0569,,0,21,21,39,1,REAL,FAKE,,,,,,,,,,,,,,,,,
,,,,,,,,,6650ee988709a4266409c5f9,Spanish,13 or older,"no, only English or Spanish",no,2025-07-24_10h45.09.207,empathy_intonation_perc_control,2024.2.4,MacIntel,142.8571429,6650ee988709a4266409c5f9,68817205a84113384fffdfe3,68824694612265548ee6e8f5,,,,,,,,,,,,,1,,,,,,,,,,,,,,,,,,,,,,,,,,,,,,,,,,,,,41,rebuscar,,,,,1833.7982,1866.4856,0,0,32.1739,,0,22,22,40,1,REAL,FAKE,,,,,,,,,,,,,,,,,
,,,,,,,,,6650ee988709a4266409c5f9,Spanish,13 or older,"no, only English or Spanish",no,2025-07-24_10h45.09.207,empathy_intonation_perc_control,2024.2.4,MacIntel,142.8571429,6650ee988709a4266409c5f9,68817205a84113384fffdfe3,68824694612265548ee6e8f5,,,,,,,,,,,,,1,,,,,,,,,,,,,,,,,,,,,,,,,,,,,,,,,,,,,7,pésimo,,,,,1866.4867,1869.2206,1,1,2.2125,,0,23,23,6,1,REAL,FAKE,,,,,,,,,,,,,,,,,
,,,,,,,,,6650ee988709a4266409c5f9,Spanish,13 or older,"no, only English or Spanish",no,2025-07-24_10h45.09.207,empathy_intonation_perc_control,2024.2.4,MacIntel,142.8571429,6650ee988709a4266409c5f9,68817205a84113384fffdfe3,68824694612265548ee6e8f5,,,,,,,,,,,,,0,,,,,,,,,,,,,,,,,,,,,,,,,,,,,,,,,,,,,87,grodo,,,,,1869.2215,1871.4496,0,1,1.7125,,0,24,24,86,1,REAL,FAKE,,,,,,,,,,,,,,,,,
,,,,,,,,,6650ee988709a4266409c5f9,Spanish,13 or older,"no, only English or Spanish",no,2025-07-24_10h45.09.207,empathy_intonation_perc_control,2024.2.4,MacIntel,142.8571429,6650ee988709a4266409c5f9,68817205a84113384fffdfe3,68824694612265548ee6e8f5,,,,,,,,,,,,,1,,,,,,,,,,,,,,,,,,,,,,,,,,,,,,,,,,,,,2,pellizcar,,,,,1871.4505,1875.0328,1,1,3.0658,,0,25,25,1,1,REAL,FAKE,,,,,,,,,,,,,,,,,
,,,,,,,,,6650ee988709a4266409c5f9,Spanish,13 or older,"no, only English or Spanish",no,2025-07-24_10h45.09.207,empathy_intonation_perc_control,2024.2.4,MacIntel,142.8571429,6650ee988709a4266409c5f9,68817205a84113384fffdfe3,68824694612265548ee6e8f5,,,,,,,,,,,,,1,,,,,,,,,,,,,,,,,,,,,,,,,,,,,,,,,,,,,65,bizcocho,,,,,1875.0333,1879.2622,0,0,3.7176,,0,26,26,64,1,REAL,FAKE,,,,,,,,,,,,,,,,,
,,,,,,,,,6650ee988709a4266409c5f9,Spanish,13 or older,"no, only English or Spanish",no,2025-07-24_10h45.09.207,empathy_intonation_perc_control,2024.2.4,MacIntel,142.8571429,6650ee988709a4266409c5f9,68817205a84113384fffdfe3,68824694612265548ee6e8f5,,,,,,,,,,,,,0,,,,,,,,,,,,,,,,,,,,,,,,,,,,,,,,,,,,,29,decar,,,,,1879.2632,1880.8404,0,1,1.0611,,0,27,27,28,1,REAL,FAKE,,,,,,,,,,,,,,,,,
,,,,,,,,,6650ee988709a4266409c5f9,Spanish,13 or older,"no, only English or Spanish",no,2025-07-24_10h45.09.207,empathy_intonation_perc_control,2024.2.4,MacIntel,142.8571429,6650ee988709a4266409c5f9,68817205a84113384fffdfe3,68824694612265548ee6e8f5,,,,,,,,,,,,,1,,,,,,,,,,,,,,,,,,,,,,,,,,,,,,,,,,,,,71,polvoriento,,,,,1880.8411,1883.555,1,1,2.197,,0,28,28,70,1,REAL,FAKE,,,,,,,,,,,,,,,,,
,,,,,,,,,6650ee988709a4266409c5f9,Spanish,13 or older,"no, only English or Spanish",no,2025-07-24_10h45.09.207,empathy_intonation_perc_control,2024.2.4,MacIntel,142.8571429,6650ee988709a4266409c5f9,68817205a84113384fffdfe3,68824694612265548ee6e8f5,,,,,,,,,,,,,1,,,,,,,,,,,,,,,,,,,,,,,,,,,,,,,,,,,,,13,helar,,,,,1883.5558,1886.4081,1,1,2.3377,,0,29,29,12,1,REAL,FAKE,,,,,,,,,,,,,,,,,
,,,,,,,,,6650ee988709a4266409c5f9,Spanish,13 or older,"no, only English or Spanish",no,2025-07-24_10h45.09.207,empathy_intonation_perc_control,2024.2.4,MacIntel,142.8571429,6650ee988709a4266409c5f9,68817205a84113384fffdfe3,68824694612265548ee6e8f5,,,,,,,,,,,,,0,,,,,,,,,,,,,,,,,,,,,,,,,,,,,,,,,,,,,84,escuto,,,,,1886.4091,1887.7899,1,0,0.8663,,0,30,30,83,1,REAL,FAKE,,,,,,,,,,,,,,,,,
,,,,,,,,,6650ee988709a4266409c5f9,Spanish,13 or older,"no, only English or Spanish",no,2025-07-24_10h45.09.207,empathy_intonation_perc_control,2024.2.4,MacIntel,142.8571429,6650ee988709a4266409c5f9,68817205a84113384fffdfe3,68824694612265548ee6e8f5,,,,,,,,,,,,,0,,,,,,,,,,,,,,,,,,,,,,,,,,,,,,,,,,,,,8,cadeña,,,,,1887.7906,1889.3171,1,0,1.0104,,0,31,31,7,1,REAL,FAKE,,,,,,,,,,,,,,,,,
,,,,,,,,,6650ee988709a4266409c5f9,Spanish,13 or older,"no, only English or Spanish",no,2025-07-24_10h45.09.207,empathy_intonation_perc_control,2024.2.4,MacIntel,142.8571429,6650ee988709a4266409c5f9,68817205a84113384fffdfe3,68824694612265548ee6e8f5,,,,,,,,,,,,,0,,,,,,,,,,,,,,,,,,,,,,,,,,,,,,,,,,,,,70,temblo,,,,,1889.3177,1890.7616,0,1,0.9324,,0,32,32,69,1,REAL,FAKE,,,,,,,,,,,,,,,,,
,,,,,,,,,6650ee988709a4266409c5f9,Spanish,13 or older,"no, only English or Spanish",no,2025-07-24_10h45.09.207,empathy_intonation_perc_control,2024.2.4,MacIntel,142.8571429,6650ee988709a4266409c5f9,68817205a84113384fffdfe3,68824694612265548ee6e8f5,,,,,,,,,,,,,0,,,,,,,,,,,,,,,,,,,,,,,,,,,,,,,,,,,,,23,lampera,,,,,1890.7621,1892.1581,1,0,0.8862,,0,33,33,22,1,REAL,FAKE,,,,,,,,,,,,,,,,,
,,,,,,,,,6650ee988709a4266409c5f9,Spanish,13 or older,"no, only English or Spanish",no,2025-07-24_10h45.09.207,empathy_intonation_perc_control,2024.2.4,MacIntel,142.8571429,6650ee988709a4266409c5f9,68817205a84113384fffdfe3,68824694612265548ee6e8f5,,,,,,,,,,,,,1,,,,,,,,,,,,,,,,,,,,,,,,,,,,,,,,,,,,,25,bisagra,,,,,1892.1592,1902.1676,0,0,9.495,,0,34,34,24,1,REAL,FAKE,,,,,,,,,,,,,,,,,
,,,,,,,,,6650ee988709a4266409c5f9,Spanish,13 or older,"no, only English or Spanish",no,2025-07-24_10h45.09.207,empathy_intonation_perc_control,2024.2.4,MacIntel,142.8571429,6650ee988709a4266409c5f9,68817205a84113384fffdfe3,68824694612265548ee6e8f5,,,,,,,,,,,,,1,,,,,,,,,,,,,,,,,,,,,,,,,,,,,,,,,,,,,91,click the 1 key.,,,,,1902.1687,1904.741,1,1,2.054,,0,35,35,90,1,REAL,FAKE,,,,,,,,,,,,,,,,,
,,,,,,,,,6650ee988709a4266409c5f9,Spanish,13 or older,"no, only English or Spanish",no,2025-07-24_10h45.09.207,empathy_intonation_perc_control,2024.2.4,MacIntel,142.8571429,6650ee988709a4266409c5f9,68817205a84113384fffdfe3,68824694612265548ee6e8f5,,,,,,,,,,,,,0,,,,,,,,,,,,,,,,,,,,,,,,,,,,,,,,,,,,,47,cartinar,,,,,1904.7416,1906.561,0,1,1.3022,,0,36,36,46,1,REAL,FAKE,,,,,,,,,,,,,,,,,
,,,,,,,,,6650ee988709a4266409c5f9,Spanish,13 or older,"no, only English or Spanish",no,2025-07-24_10h45.09.207,empathy_intonation_perc_control,2024.2.4,MacIntel,142.8571429,6650ee988709a4266409c5f9,68817205a84113384fffdfe3,68824694612265548ee6e8f5,,,,,,,,,,,,,1,,,,,,,,,,,,,,,,,,,,,,,,,,,,,,,,,,,,,46,martillo,,,,,1906.562,1910.0342,1,1,2.9514,,0,37,37,45,1,REAL,FAKE,,,,,,,,,,,,,,,,,
,,,,,,,,,6650ee988709a4266409c5f9,Spanish,13 or older,"no, only English or Spanish",no,2025-07-24_10h45.09.207,empathy_intonation_perc_control,2024.2.4,MacIntel,142.8571429,6650ee988709a4266409c5f9,68817205a84113384fffdfe3,68824694612265548ee6e8f5,,,,,,,,,,,,,0,,,,,,,,,,,,,,,,,,,,,,,,,,,,,,,,,,,,,58,plaudir,,,,,1910.0348,1911.3941,0,1,0.8392,,0,38,38,57,1,REAL,FAKE,,,,,,,,,,,,,,,,,
,,,,,,,,,6650ee988709a4266409c5f9,Spanish,13 or older,"no, only English or Spanish",no,2025-07-24_10h45.09.207,empathy_intonation_perc_control,2024.2.4,MacIntel,142.8571429,6650ee988709a4266409c5f9,68817205a84113384fffdfe3,68824694612265548ee6e8f5,,,,,,,,,,,,,1,,,,,,,,,,,,,,,,,,,,,,,,,,,,,,,,,,,,,51,candado,,,,,1911.3949,1912.6391,0,0,0.735,,0,39,39,50,1,REAL,FAKE,,,,,,,,,,,,,,,,,
,,,,,,,,,6650ee988709a4266409c5f9,Spanish,13 or older,"no, only English or Spanish",no,2025-07-24_10h45.09.207,empathy_intonation_perc_control,2024.2.4,MacIntel,142.8571429,6650ee988709a4266409c5f9,68817205a84113384fffdfe3,68824694612265548ee6e8f5,,,,,,,,,,,,,1,,,,,,,,,,,,,,,,,,,,,,,,,,,,,,,,,,,,,85,laúd,,,,,1912.641,1914.1464,0,0,0.9874,,0,40,40,84,1,REAL,FAKE,,,,,,,,,,,,,,,,,
,,,,,,,,,6650ee988709a4266409c5f9,Spanish,13 or older,"no, only English or Spanish",no,2025-07-24_10h45.09.207,empathy_intonation_perc_control,2024.2.4,MacIntel,142.8571429,6650ee988709a4266409c5f9,68817205a84113384fffdfe3,68824694612265548ee6e8f5,,,,,,,,,,,,,1,,,,,,,,,,,,,,,,,,,,,,,,,,,,,,,,,,,,,24,látigo,,,,,1914.1468,1915.7557,1,1,1.0933,,0,41,41,23,1,REAL,FAKE,,,,,,,,,,,,,,,,,
,,,,,,,,,6650ee988709a4266409c5f9,Spanish,13 or older,"no, only English or Spanish",no,2025-07-24_10h45.09.207,empathy_intonation_perc_control,2024.2.4,MacIntel,142.8571429,6650ee988709a4266409c5f9,68817205a84113384fffdfe3,68824694612265548ee6e8f5,,,,,,,,,,,,,1,,,,,,,,,,,,,,,,,,,,,,,,,,,,,,,,,,,,,15,regar,,,,,1915.7575,1917.9709,0,0,1.6946,,0,42,42,14,1,REAL,FAKE,,,,,,,,,,,,,,,,,
,,,,,,,,,6650ee988709a4266409c5f9,Spanish,13 or older,"no, only English or Spanish",no,2025-07-24_10h45.09.207,empathy_intonation_perc_control,2024.2.4,MacIntel,142.8571429,6650ee988709a4266409c5f9,68817205a84113384fffdfe3,68824694612265548ee6e8f5,,,,,,,,,,,,,0,,,,,,,,,,,,,,,,,,,,,,,,,,,,,,,,,,,,,10,antar,,,,,1917.9726,1920.2649,1,0,1.7801,,0,43,43,9,1,REAL,FAKE,,,,,,,,,,,,,,,,,
,,,,,,,,,6650ee988709a4266409c5f9,Spanish,13 or older,"no, only English or Spanish",no,2025-07-24_10h45.09.207,empathy_intonation_perc_control,2024.2.4,MacIntel,142.8571429,6650ee988709a4266409c5f9,68817205a84113384fffdfe3,68824694612265548ee6e8f5,,,,,,,,,,,,,1,,,,,,,,,,,,,,,,,,,,,,,,,,,,,,,,,,,,,61,seda,,,,,1920.2661,1921.7834,0,0,1.0056,,0,44,44,60,1,REAL,FAKE,,,,,,,,,,,,,,,,,
,,,,,,,,,6650ee988709a4266409c5f9,Spanish,13 or older,"no, only English or Spanish",no,2025-07-24_10h45.09.207,empathy_intonation_perc_control,2024.2.4,MacIntel,142.8571429,6650ee988709a4266409c5f9,68817205a84113384fffdfe3,68824694612265548ee6e8f5,,,,,,,,,,,,,0,,,,,,,,,,,,,,,,,,,,,,,,,,,,,,,,,,,,,16,abracer,,,,,1921.7838,1923.8129,0,1,1.5125,,0,45,45,15,1,REAL,FAKE,,,,,,,,,,,,,,,,,
,,,,,,,,,6650ee988709a4266409c5f9,Spanish,13 or older,"no, only English or Spanish",no,2025-07-24_10h45.09.207,empathy_intonation_perc_control,2024.2.4,MacIntel,142.8571429,6650ee988709a4266409c5f9,68817205a84113384fffdfe3,68824694612265548ee6e8f5,,,,,,,,,,,,,1,,,,,,,,,,,,,,,,,,,,,,,,,,,,,,,,,,,,,5,zapato,,,,,1923.8136,1925.7693,1,1,1.4329,,0,46,46,4,1,REAL,FAKE,,,,,,,,,,,,,,,,,
,,,,,,,,,6650ee988709a4266409c5f9,Spanish,13 or older,"no, only English or Spanish",no,2025-07-24_10h45.09.207,empathy_intonation_perc_control,2024.2.4,MacIntel,142.8571429,6650ee988709a4266409c5f9,68817205a84113384fffdfe3,68824694612265548ee6e8f5,,,,,,,,,,,,,0,,,,,,,,,,,,,,,,,,,,,,,,,,,,,,,,,,,,,82,empirador,,,,,1925.7703,1929.29,1,0,3.0142,,0,47,47,81,1,REAL,FAKE,,,,,,,,,,,,,,,,,
,,,,,,,,,6650ee988709a4266409c5f9,Spanish,13 or older,"no, only English or Spanish",no,2025-07-24_10h45.09.207,empathy_intonation_perc_control,2024.2.4,MacIntel,142.8571429,6650ee988709a4266409c5f9,68817205a84113384fffdfe3,68824694612265548ee6e8f5,,,,,,,,,,,,,1,,,,,,,,,,,,,,,,,,,,,,,,,,,,,,,,,,,,,28,merodear,,,,,1929.2908,1930.7206,1,1,0.9141,,0,48,48,27,1,REAL,FAKE,,,,,,,,,,,,,,,,,
,,,,,,,,,6650ee988709a4266409c5f9,Spanish,13 or older,"no, only English or Spanish",no,2025-07-24_10h45.09.207,empathy_intonation_perc_control,2024.2.4,MacIntel,142.8571429,6650ee988709a4266409c5f9,68817205a84113384fffdfe3,68824694612265548ee6e8f5,,,,,,,,,,,,,1,,,,,,,,,,,,,,,,,,,,,,,,,,,,,,,,,,,,,76,atar,,,,,1930.7215,1932.6467,0,0,1.411,,0,49,49,75,1,REAL,FAKE,,,,,,,,,,,,,,,,,
,,,,,,,,,6650ee988709a4266409c5f9,Spanish,13 or older,"no, only English or Spanish",no,2025-07-24_10h45.09.207,empathy_intonation_perc_control,2024.2.4,MacIntel,142.8571429,6650ee988709a4266409c5f9,68817205a84113384fffdfe3,68824694612265548ee6e8f5,,,,,,,,,,,,,0,,,,,,,,,,,,,,,,,,,,,,,,,,,,,,,,,,,,,35,rompido,,,,,1932.6476,1937.7347,0,1,4.5733,,0,50,50,34,1,REAL,FAKE,,,,,,,,,,,,,,,,,
,,,,,,,,,6650ee988709a4266409c5f9,Spanish,13 or older,"no, only English or Spanish",no,2025-07-24_10h45.09.207,empathy_intonation_perc_control,2024.2.4,MacIntel,142.8571429,6650ee988709a4266409c5f9,68817205a84113384fffdfe3,68824694612265548ee6e8f5,,,,,,,,,,,,,1,,,,,,,,,,,,,,,,,,,,,,,,,,,,,,,,,,,,,68,alegre,,,,,1937.7357,1940.0196,1,1,1.7629,,0,51,51,67,1,REAL,FAKE,,,,,,,,,,,,,,,,,
,,,,,,,,,6650ee988709a4266409c5f9,Spanish,13 or older,"no, only English or Spanish",no,2025-07-24_10h45.09.207,empathy_intonation_perc_control,2024.2.4,MacIntel,142.8571429,6650ee988709a4266409c5f9,68817205a84113384fffdfe3,68824694612265548ee6e8f5,,,,,,,,,,,,,1,,,,,,,,,,,,,,,,,,,,,,,,,,,,,,,,,,,,,11,cenefa,,,,,1940.0214,1941.7929,0,0,1.2579,,0,52,52,10,1,REAL,FAKE,,,,,,,,,,,,,,,,,
,,,,,,,,,6650ee988709a4266409c5f9,Spanish,13 or older,"no, only English or Spanish",no,2025-07-24_10h45.09.207,empathy_intonation_perc_control,2024.2.4,MacIntel,142.8571429,6650ee988709a4266409c5f9,68817205a84113384fffdfe3,68824694612265548ee6e8f5,,,,,,,,,,,,,1,,,,,,,,,,,,,,,,,,,,,,,,,,,,,,,,,,,,,39,torpe,,,,,1941.7939,1943.6811,1,1,1.378,,0,53,53,38,1,REAL,FAKE,,,,,,,,,,,,,,,,,
,,,,,,,,,6650ee988709a4266409c5f9,Spanish,13 or older,"no, only English or Spanish",no,2025-07-24_10h45.09.207,empathy_intonation_perc_control,2024.2.4,MacIntel,142.8571429,6650ee988709a4266409c5f9,68817205a84113384fffdfe3,68824694612265548ee6e8f5,,,,,,,,,,,,,1,,,,,,,,,,,,,,,,,,,,,,,,,,,,,,,,,,,,,89,prisa,,,,,1943.6818,1944.9782,1,1,0.7783,,0,54,54,88,1,REAL,FAKE,,,,,,,,,,,,,,,,,
,,,,,,,,,6650ee988709a4266409c5f9,Spanish,13 or older,"no, only English or Spanish",no,2025-07-24_10h45.09.207,empathy_intonation_perc_control,2024.2.4,MacIntel,142.8571429,6650ee988709a4266409c5f9,68817205a84113384fffdfe3,68824694612265548ee6e8f5,,,,,,,,,,,,,1,,,,,,,,,,,,,,,,,,,,,,,,,,,,,,,,,,,,,60,matar,,,,,1944.9799,1946.3041,0,0,0.8128,,0,55,55,59,1,REAL,FAKE,,,,,,,,,,,,,,,,,
,,,,,,,,,6650ee988709a4266409c5f9,Spanish,13 or older,"no, only English or Spanish",no,2025-07-24_10h45.09.207,empathy_intonation_perc_control,2024.2.4,MacIntel,142.8571429,6650ee988709a4266409c5f9,68817205a84113384fffdfe3,68824694612265548ee6e8f5,,,,,,,,,,,,,1,,,,,,,,,,,,,,,,,,,,,,,,,,,,,,,,,,,,,57,tacaño,,,,,1946.3057,1947.6094,1,1,0.794,,0,56,56,56,1,REAL,FAKE,,,,,,,,,,,,,,,,,
,,,,,,,,,6650ee988709a4266409c5f9,Spanish,13 or older,"no, only English or Spanish",no,2025-07-24_10h45.09.207,empathy_intonation_perc_control,2024.2.4,MacIntel,142.8571429,6650ee988709a4266409c5f9,68817205a84113384fffdfe3,68824694612265548ee6e8f5,,,,,,,,,,,,,0,,,,,,,,,,,,,,,,,,,,,,,,,,,,,,,,,,,,,63,esposante,,,,,1947.6107,1949.3183,1,0,1.1917,,0,57,57,62,1,REAL,FAKE,,,,,,,,,,,,,,,,,
,,,,,,,,,6650ee988709a4266409c5f9,Spanish,13 or older,"no, only English or Spanish",no,2025-07-24_10h45.09.207,empathy_intonation_perc_control,2024.2.4,MacIntel,142.8571429,6650ee988709a4266409c5f9,68817205a84113384fffdfe3,68824694612265548ee6e8f5,,,,,,,,,,,,,1,,,,,,,,,,,,,,,,,,,,,,,,,,,,,,,,,,,,,67,cabello,,,,,1949.3187,1950.6246,1,1,0.7908,,0,58,58,66,1,REAL,FAKE,,,,,,,,,,,,,,,,,
,,,,,,,,,6650ee988709a4266409c5f9,Spanish,13 or older,"no, only English or Spanish",no,2025-07-24_10h45.09.207,empathy_intonation_perc_control,2024.2.4,MacIntel,142.8571429,6650ee988709a4266409c5f9,68817205a84113384fffdfe3,68824694612265548ee6e8f5,,,,,,,,,,,,,0,,,,,,,,,,,,,,,,,,,,,,,,,,,,,,,,,,,,,17,floroso,,,,,1950.6251,1952.2205,1,0,1.0801,,0,59,59,16,1,REAL,FAKE,,,,,,,,,,,,,,,,,
,,,,,,,,,6650ee988709a4266409c5f9,Spanish,13 or older,"no, only English or Spanish",no,2025-07-24_10h45.09.207,empathy_intonation_perc_control,2024.2.4,MacIntel,142.8571429,6650ee988709a4266409c5f9,68817205a84113384fffdfe3,68824694612265548ee6e8f5,,,,,,,,,,,,,0,,,,,,,,,,,,,,,,,,,,,,,,,,,,,,,,,,,,,27,acutación,,,,,1952.221,1953.5866,1,0,0.8494,,0,60,60,26,1,REAL,FAKE,,,,,,,,,,,,,,,,,
,,,,,,,,,6650ee988709a4266409c5f9,Spanish,13 or older,"no, only English or Spanish",no,2025-07-24_10h45.09.207,empathy_intonation_perc_control,2024.2.4,MacIntel,142.8571429,6650ee988709a4266409c5f9,68817205a84113384fffdfe3,68824694612265548ee6e8f5,,,,,,,,,,,,,1,,,,,,,,,,,,,,,,,,,,,,,,,,,,,,,,,,,,,34,aviso,,,,,1953.5876,1955.0325,1,1,0.934,,0,61,61,33,1,REAL,FAKE,,,,,,,,,,,,,,,,,
,,,,,,,,,6650ee988709a4266409c5f9,Spanish,13 or older,"no, only English or Spanish",no,2025-07-24_10h45.09.207,empathy_intonation_perc_control,2024.2.4,MacIntel,142.8571429,6650ee988709a4266409c5f9,68817205a84113384fffdfe3,68824694612265548ee6e8f5,,,,,,,,,,,,,1,,,,,,,,,,,,,,,,,,,,,,,,,,,,,,,,,,,,,56,musgo,,,,,1955.0337,1956.6802,0,0,1.136,,0,62,62,55,1,REAL,FAKE,,,,,,,,,,,,,,,,,
,,,,,,,,,6650ee988709a4266409c5f9,Spanish,13 or older,"no, only English or Spanish",no,2025-07-24_10h45.09.207,empathy_intonation_perc_control,2024.2.4,MacIntel,142.8571429,6650ee988709a4266409c5f9,68817205a84113384fffdfe3,68824694612265548ee6e8f5,,,,,,,,,,,,,1,,,,,,,,,,,,,,,,,,,,,,,,,,,,,,,,,,,,,88,acantilado,,,,,1956.6815,1958.4024,1,1,1.2071,,0,63,63,87,1,REAL,FAKE,,,,,,,,,,,,,,,,,
,,,,,,,,,6650ee988709a4266409c5f9,Spanish,13 or older,"no, only English or Spanish",no,2025-07-24_10h45.09.207,empathy_intonation_perc_control,2024.2.4,MacIntel,142.8571429,6650ee988709a4266409c5f9,68817205a84113384fffdfe3,68824694612265548ee6e8f5,,,,,,,,,,,,,0,,,,,,,,,,,,,,,,,,,,,,,,,,,,,,,,,,,,,32,fatacidad,,,,,1958.4028,1960.2003,1,0,1.2832,,0,64,64,31,1,REAL,FAKE,,,,,,,,,,,,,,,,,
,,,,,,,,,6650ee988709a4266409c5f9,Spanish,13 or older,"no, only English or Spanish",no,2025-07-24_10h45.09.207,empathy_intonation_perc_control,2024.2.4,MacIntel,142.8571429,6650ee988709a4266409c5f9,68817205a84113384fffdfe3,68824694612265548ee6e8f5,,,,,,,,,,,,,1,,,,,,,,,,,,,,,,,,,,,,,,,,,,,,,,,,,,,78,frondoso,,,,,1960.2009,1961.9013,0,0,1.1867,,0,65,65,77,1,REAL,FAKE,,,,,,,,,,,,,,,,,
,,,,,,,,,6650ee988709a4266409c5f9,Spanish,13 or older,"no, only English or Spanish",no,2025-07-24_10h45.09.207,empathy_intonation_perc_control,2024.2.4,MacIntel,142.8571429,6650ee988709a4266409c5f9,68817205a84113384fffdfe3,68824694612265548ee6e8f5,,,,,,,,,,,,,1,,,,,,,,,,,,,,,,,,,,,,,,,,,,,,,,,,,,,26,secuestro,,,,,1961.9024,1963.186,1,1,0.7695,,0,66,66,25,1,REAL,FAKE,,,,,,,,,,,,,,,,,
,,,,,,,,,6650ee988709a4266409c5f9,Spanish,13 or older,"no, only English or Spanish",no,2025-07-24_10h45.09.207,empathy_intonation_perc_control,2024.2.4,MacIntel,142.8571429,6650ee988709a4266409c5f9,68817205a84113384fffdfe3,68824694612265548ee6e8f5,,,,,,,,,,,,,0,,,,,,,,,,,,,,,,,,,,,,,,,,,,,,,,,,,,,42,cadallo,,,,,1963.1865,1964.9101,0,1,1.2155,,0,67,67,41,1,REAL,FAKE,,,,,,,,,,,,,,,,,
,,,,,,,,,6650ee988709a4266409c5f9,Spanish,13 or older,"no, only English or Spanish",no,2025-07-24_10h45.09.207,empathy_intonation_perc_control,2024.2.4,MacIntel,142.8571429,6650ee988709a4266409c5f9,68817205a84113384fffdfe3,68824694612265548ee6e8f5,,,,,,,,,,,,,0,,,,,,,,,,,,,,,,,,,,,,,,,,,,,,,,,,,,,1,terzo,,,,,1964.911,1966.2833,0,1,0.8552,,0,68,68,0,1,REAL,FAKE,,,,,,,,,,,,,,,,,
,,,,,,,,,6650ee988709a4266409c5f9,Spanish,13 or older,"no, only English or Spanish",no,2025-07-24_10h45.09.207,empathy_intonation_perc_control,2024.2.4,MacIntel,142.8571429,6650ee988709a4266409c5f9,68817205a84113384fffdfe3,68824694612265548ee6e8f5,,,,,,,,,,,,,1,,,,,,,,,,,,,,,,,,,,,,,,,,,,,,,,,,,,,52,camisa,,,,,1966.2843,1967.8492,1,1,1.049,,0,69,69,51,1,REAL,FAKE,,,,,,,,,,,,,,,,,
,,,,,,,,,6650ee988709a4266409c5f9,Spanish,13 or older,"no, only English or Spanish",no,2025-07-24_10h45.09.207,empathy_intonation_perc_control,2024.2.4,MacIntel,142.8571429,6650ee988709a4266409c5f9,68817205a84113384fffdfe3,68824694612265548ee6e8f5,,,,,,,,,,,,,1,,,,,,,,,,,,,,,,,,,,,,,,,,,,,,,,,,,,,90,clavel,,,,,1967.8509,1969.3603,0,0,0.9984,,0,70,70,89,1,REAL,FAKE,,,,,,,,,,,,,,,,,
,,,,,,,,,6650ee988709a4266409c5f9,Spanish,13 or older,"no, only English or Spanish",no,2025-07-24_10h45.09.207,empathy_intonation_perc_control,2024.2.4,MacIntel,142.8571429,6650ee988709a4266409c5f9,68817205a84113384fffdfe3,68824694612265548ee6e8f5,,,,,,,,,,,,,0,,,,,,,,,,,,,,,,,,,,,,,,,,,,,,,,,,,,,50,flamida,,,,,1969.361,1973.1861,1,0,3.3119,,0,71,71,49,1,REAL,FAKE,,,,,,,,,,,,,,,,,
,,,,,,,,,6650ee988709a4266409c5f9,Spanish,13 or older,"no, only English or Spanish",no,2025-07-24_10h45.09.207,empathy_intonation_perc_control,2024.2.4,MacIntel,142.8571429,6650ee988709a4266409c5f9,68817205a84113384fffdfe3,68824694612265548ee6e8f5,,,,,,,,,,,,,1,,,,,,,,,,,,,,,,,,,,,,,,,,,,,,,,,,,,,75,yacer,,,,,1973.1871,1974.3529,0,0,0.6499,,0,72,72,74,1,REAL,FAKE,,,,,,,,,,,,,,,,,
,,,,,,,,,6650ee988709a4266409c5f9,Spanish,13 or older,"no, only English or Spanish",no,2025-07-24_10h45.09.207,empathy_intonation_perc_control,2024.2.4,MacIntel,142.8571429,6650ee988709a4266409c5f9,68817205a84113384fffdfe3,68824694612265548ee6e8f5,,,,,,,,,,,,,1,,,,,,,,,,,,,,,,,,,,,,,,,,,,,,,,,,,,,38,estornudar,,,,,1974.3538,1976.797,1,1,1.9249,,0,73,73,37,1,REAL,FAKE,,,,,,,,,,,,,,,,,
,,,,,,,,,6650ee988709a4266409c5f9,Spanish,13 or older,"no, only English or Spanish",no,2025-07-24_10h45.09.207,empathy_intonation_perc_control,2024.2.4,MacIntel,142.8571429,6650ee988709a4266409c5f9,68817205a84113384fffdfe3,68824694612265548ee6e8f5,,,,,,,,,,,,,1,,,,,,,,,,,,,,,,,,,,,,,,,,,,,,,,,,,,,54,fomentar,,,,,1976.798,1978.3666,0,0,1.0514,,0,74,74,53,1,REAL,FAKE,,,,,,,,,,,,,,,,,
,,,,,,,,,6650ee988709a4266409c5f9,Spanish,13 or older,"no, only English or Spanish",no,2025-07-24_10h45.09.207,empathy_intonation_perc_control,2024.2.4,MacIntel,142.8571429,6650ee988709a4266409c5f9,68817205a84113384fffdfe3,68824694612265548ee6e8f5,,,,,,,,,,,,,0,,,,,,,,,,,,,,,,,,,,,,,,,,,,,,,,,,,,,92,click the 0 key.,,,,,1978.3676,1979.6859,0,1,0.7985,,0,75,75,91,1,REAL,FAKE,,,,,,,,,,,,,,,,,
,,,,,,,,,6650ee988709a4266409c5f9,Spanish,13 or older,"no, only English or Spanish",no,2025-07-24_10h45.09.207,empathy_intonation_perc_control,2024.2.4,MacIntel,142.8571429,6650ee988709a4266409c5f9,68817205a84113384fffdfe3,68824694612265548ee6e8f5,,,,,,,,,,,,,1,,,,,,,,,,,,,,,,,,,,,,,,,,,,,,,,,,,,,3,pulmones,,,,,1979.6867,1981.7787,1,1,1.5774,,0,76,76,2,1,REAL,FAKE,,,,,,,,,,,,,,,,,
,,,,,,,,,6650ee988709a4266409c5f9,Spanish,13 or older,"no, only English or Spanish",no,2025-07-24_10h45.09.207,empathy_intonation_perc_control,2024.2.4,MacIntel,142.8571429,6650ee988709a4266409c5f9,68817205a84113384fffdfe3,68824694612265548ee6e8f5,,,,,,,,,,,,,1,,,,,,,,,,,,,,,,,,,,,,,,,,,,,,,,,,,,,49,ganar,,,,,1981.7795,1983.166,0,0,0.8674,,0,77,77,48,1,REAL,FAKE,,,,,,,,,,,,,,,,,
,,,,,,,,,6650ee988709a4266409c5f9,Spanish,13 or older,"no, only English or Spanish",no,2025-07-24_10h45.09.207,empathy_intonation_perc_control,2024.2.4,MacIntel,142.8571429,6650ee988709a4266409c5f9,68817205a84113384fffdfe3,68824694612265548ee6e8f5,,,,,,,,,,,,,1,,,,,,,,,,,,,,,,,,,,,,,,,,,,,,,,,,,,,83,guante,,,,,1983.1677,1984.4315,1,1,0.7443,,0,78,78,82,1,REAL,FAKE,,,,,,,,,,,,,,,,,
,,,,,,,,,6650ee988709a4266409c5f9,Spanish,13 or older,"no, only English or Spanish",no,2025-07-24_10h45.09.207,empathy_intonation_perc_control,2024.2.4,MacIntel,142.8571429,6650ee988709a4266409c5f9,68817205a84113384fffdfe3,68824694612265548ee6e8f5,,,,,,,,,,,,,1,,,,,,,,,,,,,,,,,,,,,,,,,,,,,,,,,,,,,45,jilguero,,,,,1984.4325,1990.2207,1,1,5.2738,,0,79,79,44,1,REAL,FAKE,,,,,,,,,,,,,,,,,
,,,,,,,,,6650ee988709a4266409c5f9,Spanish,13 or older,"no, only English or Spanish",no,2025-07-24_10h45.09.207,empathy_intonation_perc_control,2024.2.4,MacIntel,142.8571429,6650ee988709a4266409c5f9,68817205a84113384fffdfe3,68824694612265548ee6e8f5,,,,,,,,,,,,,1,,,,,,,,,,,,,,,,,,,,,,,,,,,,,,,,,,,,,36,loro,,,,,1990.2212,1991.3256,0,0,0.5901,,0,80,80,35,1,REAL,FAKE,,,,,,,,,,,,,,,,,
,,,,,,,,,6650ee988709a4266409c5f9,Spanish,13 or older,"no, only English or Spanish",no,2025-07-24_10h45.09.207,empathy_intonation_perc_control,2024.2.4,MacIntel,142.8571429,6650ee988709a4266409c5f9,68817205a84113384fffdfe3,68824694612265548ee6e8f5,,,,,,,,,,,,,1,,,,,,,,,,,,,,,,,,,,,,,,,,,,,,,,,,,,,69,engatusar,,,,,1991.3273,1992.8308,0,0,0.9861,,0,81,81,68,1,REAL,FAKE,,,,,,,,,,,,,,,,,
,,,,,,,,,6650ee988709a4266409c5f9,Spanish,13 or older,"no, only English or Spanish",no,2025-07-24_10h45.09.207,empathy_intonation_perc_control,2024.2.4,MacIntel,142.8571429,6650ee988709a4266409c5f9,68817205a84113384fffdfe3,68824694612265548ee6e8f5,,,,,,,,,,,,,1,,,,,,,,,,,,,,,,,,,,,,,,,,,,,,,,,,,,,9,hacha,,,,,1992.8314,1994.3664,1,1,1.0265,,0,82,82,8,1,REAL,FAKE,,,,,,,,,,,,,,,,,
,,,,,,,,,6650ee988709a4266409c5f9,Spanish,13 or older,"no, only English or Spanish",no,2025-07-24_10h45.09.207,empathy_intonation_perc_control,2024.2.4,MacIntel,142.8571429,6650ee988709a4266409c5f9,68817205a84113384fffdfe3,68824694612265548ee6e8f5,,,,,,,,,,,,,1,,,,,,,,,,,,,,,,,,,,,,,,,,,,,,,,,,,,,31,pandilla,,,,,1994.3668,1995.9575,1,1,1.0822,,0,83,83,30,1,REAL,FAKE,,,,,,,,,,,,,,,,,
,,,,,,,,,6650ee988709a4266409c5f9,Spanish,13 or older,"no, only English or Spanish",no,2025-07-24_10h45.09.207,empathy_intonation_perc_control,2024.2.4,MacIntel,142.8571429,6650ee988709a4266409c5f9,68817205a84113384fffdfe3,68824694612265548ee6e8f5,,,,,,,,,,,,,1,,,,,,,,,,,,,,,,,,,,,,,,,,,,,,,,,,,,,59,besar,,,,,1995.9585,1998.4012,0,0,1.9284,,0,84,84,58,1,REAL,FAKE,,,,,,,,,,,,,,,,,
,,,,,,,,,6650ee988709a4266409c5f9,Spanish,13 or older,"no, only English or Spanish",no,2025-07-24_10h45.09.207,empathy_intonation_perc_control,2024.2.4,MacIntel,142.8571429,6650ee988709a4266409c5f9,68817205a84113384fffdfe3,68824694612265548ee6e8f5,,,,,,,,,,,,,0,,,,,,,,,,,,,,,,,,,,,,,,,,,,,,,,,,,,,72,pemición,,,,,1998.402,2000.11,1,0,1.1982,,0,85,85,71,1,REAL,FAKE,,,,,,,,,,,,,,,,,
,,,,,,,,,6650ee988709a4266409c5f9,Spanish,13 or older,"no, only English or Spanish",no,2025-07-24_10h45.09.207,empathy_intonation_perc_control,2024.2.4,MacIntel,142.8571429,6650ee988709a4266409c5f9,68817205a84113384fffdfe3,68824694612265548ee6e8f5,,,,,,,,,,,,,1,,,,,,,,,,,,,,,,,,,,,,,,,,,,,,,,,,,,,43,canela,,,,,2000.1111,2001.7969,0,0,1.1724,,0,86,86,42,1,REAL,FAKE,,,,,,,,,,,,,,,,,
,,,,,,,,,6650ee988709a4266409c5f9,Spanish,13 or older,"no, only English or Spanish",no,2025-07-24_10h45.09.207,empathy_intonation_perc_control,2024.2.4,MacIntel,142.8571429,6650ee988709a4266409c5f9,68817205a84113384fffdfe3,68824694612265548ee6e8f5,,,,,,,,,,,,,0,,,,,,,,,,,,,,,,,,,,,,,,,,,,,,,,,,,,,4,batillón,,,,,2001.7979,2006.4222,1,0,4.1107,,0,87,87,3,1,REAL,FAKE,,,,,,,,,,,,,,,,,
,,,,,,,,,6650ee988709a4266409c5f9,Spanish,13 or older,"no, only English or Spanish",no,2025-07-24_10h45.09.207,empathy_intonation_perc_control,2024.2.4,MacIntel,142.8571429,6650ee988709a4266409c5f9,68817205a84113384fffdfe3,68824694612265548ee6e8f5,,,,,,,,,,,,,1,,,,,,,,,,,,,,,,,,,,,,,,,,,,,,,,,,,,,37,granuja,,,,,2006.4231,2009.7766,1,1,2.8448,,0,88,88,36,1,REAL,FAKE,,,,,,,,,,,,,,,,,
,,,,,,,,,6650ee988709a4266409c5f9,Spanish,13 or older,"no, only English or Spanish",no,2025-07-24_10h45.09.207,empathy_intonation_perc_control,2024.2.4,MacIntel,142.8571429,6650ee988709a4266409c5f9,68817205a84113384fffdfe3,68824694612265548ee6e8f5,,,,,,,,,,,,,1,,,,,,,,,,,,,,,,,,,,,,,,,,,,,,,,,,,,,12,asesinato,,,,,2009.7771,2021.311,1,1,11.0171,,0,89,89,11,1,REAL,FAKE,,,,,,,,,,,,,,,,,
,,,,,,,,,6650ee988709a4266409c5f9,Spanish,13 or older,"no, only English or Spanish",no,2025-07-24_10h45.09.207,empathy_intonation_perc_control,2024.2.4,MacIntel,142.8571429,6650ee988709a4266409c5f9,68817205a84113384fffdfe3,68824694612265548ee6e8f5,,,,,,,,,,,,,1,,,,,,,,,,,,,,,,,,,,,,,,,,,,,,,,,,,,,55,nevar,,,,,2021.3118,2023.3077,0,0,1.4825,,0,90,90,54,1,REAL,FAKE,,,,,,,,,,,,,,,,,
,,,,,,,,,6650ee988709a4266409c5f9,Spanish,13 or older,"no, only English or Spanish",no,2025-07-24_10h45.09.207,empathy_intonation_perc_control,2024.2.4,MacIntel,142.8571429,6650ee988709a4266409c5f9,68817205a84113384fffdfe3,68824694612265548ee6e8f5,,,,,,,,,,,,,1,,,,,,,,,,,,,,,,,,,,,,,,,,,,,,,,,,,,,22,lacayo,,,,,2023.3086,2024.8458,0,0,1.0238,,0,91,91,21,1,REAL,FAKE,,,,,,,,,,,,,,,,,
,,,,,,,,,6650ee988709a4266409c5f9,Spanish,13 or older,"no, only English or Spanish",no,2025-07-24_10h45.09.207,empathy_intonation_perc_control,2024.2.4,MacIntel,142.8571429,6650ee988709a4266409c5f9,68817205a84113384fffdfe3,68824694612265548ee6e8f5,,,,,,,,,,,,,,,,,,,,,,,,,,,,,,,,,,,,,,,,,,,,,,,,,,,,,,,,,,,,,,,,,,,,,2024.8463,2030.6589,,,,,,,,,,,,,,,
,,,,,,,,,6650ee988709a4266409c5f9,Spanish,13 or older,"no, only English or Spanish",no,2025-07-24_10h45.09.207,empathy_intonation_perc_control,2024.2.4,MacIntel,142.8571429,6650ee988709a4266409c5f9,68817205a84113384fffdfe3,68824694612265548ee6e8f5,,,,,,,,,,,,,,,,,,,,,,,,,,,1,,,,,,,,,,,,,,,,,,,,,,,,,,,,,,,,,,,,,,,,,,,,2030.6734,2034.4502,slightly agree,0,0,0,0,1,I can easily tell if someone else wants to enter a conversation.,1,0,1,0,,
,,,,,,,,,6650ee988709a4266409c5f9,Spanish,13 or older,"no, only English or Spanish",no,2025-07-24_10h45.09.207,empathy_intonation_perc_control,2024.2.4,MacIntel,142.8571429,6650ee988709a4266409c5f9,68817205a84113384fffdfe3,68824694612265548ee6e8f5,,,,,,,,,,,,,,,,,,,,,,,,,,,2,,,,,,,,,,,,,,,,,,,,,,,,,,,,,,,,,,,,,,,,,,,,2034.4515,2038.1592,slightly agree,0,1,1,1,1,I prefer animals to humans.,0,1,0,0,,
,,,,,,,,,6650ee988709a4266409c5f9,Spanish,13 or older,"no, only English or Spanish",no,2025-07-24_10h45.09.207,empathy_intonation_perc_control,2024.2.4,MacIntel,142.8571429,6650ee988709a4266409c5f9,68817205a84113384fffdfe3,68824694612265548ee6e8f5,,,,,,,,,,,,,,,,,,,,,,,,,,,3,,,,,,,,,,,,,,,,,,,,,,,,,,,,,,,,,,,,,,,,,,,,2038.1598,2041.4988,slightly disagree,0,2,2,2,1,I try to keep up with the current trends and fashions.,0,1,0,0,,
,,,,,,,,,6650ee988709a4266409c5f9,Spanish,13 or older,"no, only English or Spanish",no,2025-07-24_10h45.09.207,empathy_intonation_perc_control,2024.2.4,MacIntel,142.8571429,6650ee988709a4266409c5f9,68817205a84113384fffdfe3,68824694612265548ee6e8f5,,,,,,,,,,,,,,,,,,,,,,,,,,,4,,,,,,,,,,,,,,,,,,,,,,,,,,,,,,,,,,,,,,,,,,,,2041.5001,2049.7733,slightly agree,0,3,3,3,1,"I find it difficult to explain to others things that I understand easily,   when they don't understand it first time.",1,0,0,1,,
,,,,,,,,,6650ee988709a4266409c5f9,Spanish,13 or older,"no, only English or Spanish",no,2025-07-24_10h45.09.207,empathy_intonation_perc_control,2024.2.4,MacIntel,142.8571429,6650ee988709a4266409c5f9,68817205a84113384fffdfe3,68824694612265548ee6e8f5,,,,,,,,,,,,,,,,,,,,,,,,,,,5,,,,,,,,,,,,,,,,,,,,,,,,,,,,,,,,,,,,,,,,,,,,2049.7746,2051.4638,strongly agree,0,4,4,4,1,I dream most nights.,0,1,0,0,,
,,,,,,,,,6650ee988709a4266409c5f9,Spanish,13 or older,"no, only English or Spanish",no,2025-07-24_10h45.09.207,empathy_intonation_perc_control,2024.2.4,MacIntel,142.8571429,6650ee988709a4266409c5f9,68817205a84113384fffdfe3,68824694612265548ee6e8f5,,,,,,,,,,,,,,,,,,,,,,,,,,,6,,,,,,,,,,,,,,,,,,,,,,,,,,,,,,,,,,,,,,,,,,,,2051.4645,2053.1029,slightly agree,0,5,5,5,1,I really enjoy caring for other people.,1,0,1,0,,
,,,,,,,,,6650ee988709a4266409c5f9,Spanish,13 or older,"no, only English or Spanish",no,2025-07-24_10h45.09.207,empathy_intonation_perc_control,2024.2.4,MacIntel,142.8571429,6650ee988709a4266409c5f9,68817205a84113384fffdfe3,68824694612265548ee6e8f5,,,,,,,,,,,,,,,,,,,,,,,,,,,7,,,,,,,,,,,,,,,,,,,,,,,,,,,,,,,,,,,,,,,,,,,,2053.1037,2057.1614,strongly agree,0,6,6,6,1,I try to solve my own problems rather than discussing them with others.,0,1,0,0,,
,,,,,,,,,6650ee988709a4266409c5f9,Spanish,13 or older,"no, only English or Spanish",no,2025-07-24_10h45.09.207,empathy_intonation_perc_control,2024.2.4,MacIntel,142.8571429,6650ee988709a4266409c5f9,68817205a84113384fffdfe3,68824694612265548ee6e8f5,,,,,,,,,,,,,,,,,,,,,,,,,,,8,,,,,,,,,,,,,,,,,,,,,,,,,,,,,,,,,,,,,,,,,,,,2057.1623,2061.3668,strongly agree,0,7,7,7,1,I find it hard to know what to do in a social situation.,1,0,0,1,,
,,,,,,,,,6650ee988709a4266409c5f9,Spanish,13 or older,"no, only English or Spanish",no,2025-07-24_10h45.09.207,empathy_intonation_perc_control,2024.2.4,MacIntel,142.8571429,6650ee988709a4266409c5f9,68817205a84113384fffdfe3,68824694612265548ee6e8f5,,,,,,,,,,,,,,,,,,,,,,,,,,,9,,,,,,,,,,,,,,,,,,,,,,,,,,,,,,,,,,,,,,,,,,,,2061.3682,2064.1238,slightly disagree,0,8,8,8,1,I am at my best first thing in the morning.,0,1,0,0,,
,,,,,,,,,6650ee988709a4266409c5f9,Spanish,13 or older,"no, only English or Spanish",no,2025-07-24_10h45.09.207,empathy_intonation_perc_control,2024.2.4,MacIntel,142.8571429,6650ee988709a4266409c5f9,68817205a84113384fffdfe3,68824694612265548ee6e8f5,,,,,,,,,,,,,,,,,,,,,,,,,,,10,,,,,,,,,,,,,,,,,,,,,,,,,,,,,,,,,,,,,,,,,,,,2064.1252,2067.1025,slightly disagree,0,9,9,9,1,People often tell me that I went too far in driving my point home in a discussion.,1,0,0,1,,
,,,,,,,,,6650ee988709a4266409c5f9,Spanish,13 or older,"no, only English or Spanish",no,2025-07-24_10h45.09.207,empathy_intonation_perc_control,2024.2.4,MacIntel,142.8571429,6650ee988709a4266409c5f9,68817205a84113384fffdfe3,68824694612265548ee6e8f5,,,,,,,,,,,,,,,,,,,,,,,,,,,11,,,,,,,,,,,,,,,,,,,,,,,,,,,,,,,,,,,,,,,,,,,,2067.1031,2071.1314,strongly disagree,0,10,10,10,1,It doesn't bother me too much if I am late meeting a friend.,1,0,0,1,,
,,,,,,,,,6650ee988709a4266409c5f9,Spanish,13 or older,"no, only English or Spanish",no,2025-07-24_10h45.09.207,empathy_intonation_perc_control,2024.2.4,MacIntel,142.8571429,6650ee988709a4266409c5f9,68817205a84113384fffdfe3,68824694612265548ee6e8f5,,,,,,,,,,,,,,,,,,,,,,,,,,,12,,,,,,,,,,,,,,,,,,,,,,,,,,,,,,,,,,,,,,,,,,,,2071.1326,2073.6027,slightly disagree,0,11,11,11,1,"Friendships and relationships are just too difficult, so I tend not to 
  bother with them.",1,0,0,1,,
,,,,,,,,,6650ee988709a4266409c5f9,Spanish,13 or older,"no, only English or Spanish",no,2025-07-24_10h45.09.207,empathy_intonation_perc_control,2024.2.4,MacIntel,142.8571429,6650ee988709a4266409c5f9,68817205a84113384fffdfe3,68824694612265548ee6e8f5,,,,,,,,,,,,,,,,,,,,,,,,,,,13,,,,,,,,,,,,,,,,,,,,,,,,,,,,,,,,,,,,,,,,,,,,2073.6033,2076.9672,slightly agree,0,12,12,12,1,"I would never break a law, no matter how minor.",0,1,0,0,,
,,,,,,,,,6650ee988709a4266409c5f9,Spanish,13 or older,"no, only English or Spanish",no,2025-07-24_10h45.09.207,empathy_intonation_perc_control,2024.2.4,MacIntel,142.8571429,6650ee988709a4266409c5f9,68817205a84113384fffdfe3,68824694612265548ee6e8f5,,,,,,,,,,,,,,,,,,,,,,,,,,,14,,,,,,,,,,,,,,,,,,,,,,,,,,,,,,,,,,,,,,,,,,,,2076.9679,2079.3321,slightly agree,0,13,13,13,1,I often find it difficult to judge if something is rude or polite.,1,0,0,1,,
,,,,,,,,,6650ee988709a4266409c5f9,Spanish,13 or older,"no, only English or Spanish",no,2025-07-24_10h45.09.207,empathy_intonation_perc_control,2024.2.4,MacIntel,142.8571429,6650ee988709a4266409c5f9,68817205a84113384fffdfe3,68824694612265548ee6e8f5,,,,,,,,,,,,,,,,,,,,,,,,,,,15,,,,,,,,,,,,,,,,,,,,,,,,,,,,,,,,,,,,,,,,,,,,2079.3326,2091.214,slightly agree,0,14,14,14,1,"In a conversation, I tend to focus on my own thoughts rather than on what 
  my listener might be thinking.",1,0,0,1,,
,,,,,,,,,6650ee988709a4266409c5f9,Spanish,13 or older,"no, only English or Spanish",no,2025-07-24_10h45.09.207,empathy_intonation_perc_control,2024.2.4,MacIntel,142.8571429,6650ee988709a4266409c5f9,68817205a84113384fffdfe3,68824694612265548ee6e8f5,,,,,,,,,,,,,,,,,,,,,,,,,,,16,,,,,,,,,,,,,,,,,,,,,,,,,,,,,,,,,,,,,,,,,,,,2091.2149,2094.2213,slightly disagree,0,15,15,15,1,I prefer practical jokes to verbal humor.,0,1,0,0,,
,,,,,,,,,6650ee988709a4266409c5f9,Spanish,13 or older,"no, only English or Spanish",no,2025-07-24_10h45.09.207,empathy_intonation_perc_control,2024.2.4,MacIntel,142.8571429,6650ee988709a4266409c5f9,68817205a84113384fffdfe3,68824694612265548ee6e8f5,,,,,,,,,,,,,,,,,,,,,,,,,,,17,,,,,,,,,,,,,,,,,,,,,,,,,,,,,,,,,,,,,,,,,,,,2094.2228,2097.2784,slightly disagree,0,16,16,16,1,I live life for today rather than the future.,0,1,0,0,,
,,,,,,,,,6650ee988709a4266409c5f9,Spanish,13 or older,"no, only English or Spanish",no,2025-07-24_10h45.09.207,empathy_intonation_perc_control,2024.2.4,MacIntel,142.8571429,6650ee988709a4266409c5f9,68817205a84113384fffdfe3,68824694612265548ee6e8f5,,,,,,,,,,,,,,,,,,,,,,,,,,,18,,,,,,,,,,,,,,,,,,,,,,,,,,,,,,,,,,,,,,,,,,,,2097.2795,2099.7307,strongly disagree,0,17,17,17,1,"When I was a child, I enjoyed cutting up worms to see what would happen.",1,0,0,1,,
,,,,,,,,,6650ee988709a4266409c5f9,Spanish,13 or older,"no, only English or Spanish",no,2025-07-24_10h45.09.207,empathy_intonation_perc_control,2024.2.4,MacIntel,142.8571429,6650ee988709a4266409c5f9,68817205a84113384fffdfe3,68824694612265548ee6e8f5,,,,,,,,,,,,,,,,,,,,,,,,,,,19,,,,,,,,,,,,,,,,,,,,,,,,,,,,,,,,,,,,,,,,,,,,2099.7322,2104.8043,slightly agree,0,18,18,18,1,I can pick up quickly if someone says one thing but means another.,1,0,1,0,,
,,,,,,,,,6650ee988709a4266409c5f9,Spanish,13 or older,"no, only English or Spanish",no,2025-07-24_10h45.09.207,empathy_intonation_perc_control,2024.2.4,MacIntel,142.8571429,6650ee988709a4266409c5f9,68817205a84113384fffdfe3,68824694612265548ee6e8f5,,,,,,,,,,,,,,,,,,,,,,,,,,,20,,,,,,,,,,,,,,,,,,,,,,,,,,,,,,,,,,,,,,,,,,,,2104.8052,2107.7211,slightly agree,0,19,19,19,1,I tend to have very strong opinions about morality.,0,1,0,0,,
,,,,,,,,,6650ee988709a4266409c5f9,Spanish,13 or older,"no, only English or Spanish",no,2025-07-24_10h45.09.207,empathy_intonation_perc_control,2024.2.4,MacIntel,142.8571429,6650ee988709a4266409c5f9,68817205a84113384fffdfe3,68824694612265548ee6e8f5,,,,,,,,,,,,,,,,,,,,,,,,,,,21,,,,,,,,,,,,,,,,,,,,,,,,,,,,,,,,,,,,,,,,,,,,2107.7219,2110.207,strongly agree,0,20,20,20,1,It is hard for me to see why some things upset people so much.,1,0,0,1,,
,,,,,,,,,6650ee988709a4266409c5f9,Spanish,13 or older,"no, only English or Spanish",no,2025-07-24_10h45.09.207,empathy_intonation_perc_control,2024.2.4,MacIntel,142.8571429,6650ee988709a4266409c5f9,68817205a84113384fffdfe3,68824694612265548ee6e8f5,,,,,,,,,,,,,,,,,,,,,,,,,,,22,,,,,,,,,,,,,,,,,,,,,,,,,,,,,,,,,,,,,,,,,,,,2110.2083,2133.6859,slightly disagree,0,21,21,21,1,I find it easy to put myself in somebody else's shoes.,1,0,1,0,,
