instructions_2afc.started,instructions_2afc.stopped,instructions_2afc_loop.thisRepN,instructions_2afc_loop.thisTrialN,instructions_2afc_loop.thisN,instructions_2afc_loop.thisIndex,instructions_2afc_loop.ran,instructions_text,continue_text,participant_id,"What variety of Spanish are you most familiar with? (e.g., Peruvian, Spanish, Mexican)",At what age did you begin learning Spanish?,Are you proficient in any languages other than English/Spanish?,"Are you familiar with Caribbean (e.g., Caribbean, Puerto Rican) or Galician Spanish?",date,expName,psychopyVersion,OS,frameRate,id,study_id,session,practice_2afc.started,practice_2afc.stopped,key_resp_2afc_practice.keys,key_resp_2afc_practice.corr,key_resp_2afc_practice.rt,key_resp_2afc_practice.duration,trials_2afc_practice_loop.thisRepN,trials_2afc_practice_loop.thisTrialN,trials_2afc_practice_loop.thisN,trials_2afc_practice_loop.thisIndex,trials_2afc_practice_loop.ran,path,correct_response,check_2afc.started,check_2afc.stopped,trial_2afc.started,trial_2afc.stopped,key_resp_2afc_trial.keys,key_resp_2afc_trial.corr,key_resp_2afc_trial.rt,key_resp_2afc_trial.duration,trials_2afc_loop.thisRepN,trials_2afc_loop.thisTrialN,trials_2afc_loop.thisN,trials_2afc_loop.thisIndex,trials_2afc_loop.ran,item_num,target,variety,instructions_lextale.started,instructions_lextale.stopped,instructions_lextale_loop.thisRepN,instructions_lextale_loop.thisTrialN,instructions_lextale_loop.thisN,instructions_lextale_loop.thisIndex,instructions_lextale_loop.ran,practice_lextale.started,practice_lextale.stopped,key_resp_lextale_practice.keys,key_resp_lextale_practice.corr,key_resp_lextale_practice.rt,key_resp_lextale_practice.duration,practice_feedback_lextale.started,practice_feedback_lextale.stopped,trials_lextale_practice_loop.thisRepN,trials_lextale_practice_loop.thisTrialN,trials_lextale_practice_loop.thisN,trials_lextale_practice_loop.thisIndex,trials_lextale_practice_loop.ran,stim,word,prac_button_real,prac_button_false,check_lextale.started,check_lextale.stopped,trial_lextale.started,trial_lextale.stopped,key_resp_lextale_trial.keys,key_resp_lextale_trial.corr,key_resp_lextale_trial.rt,key_resp_lextale_trial.duration,trials_lextale_loop.thisRepN,trials_lextale_loop.thisTrialN,trials_lextale_loop.thisN,trials_lextale_loop.thisIndex,trials_lextale_loop.ran,button_real,button_false,instructions_eq.started,instructions_eq.stopped,trial_eq.started,trial_eq.stopped,slider_eq_trial.response,trials_eq_loop.thisRepN,trials_eq_loop.thisTrialN,trials_eq_loop.thisN,trials_eq_loop.thisIndex,trials_eq_loop.ran,item,is_test_item,is_distractor,is_agree_score,is_disagree_score,end_exp.started,end_exp.stopped
0.033,13.9875,0,0,0,0,1,"In the following task you are going to hear a series of utterances. 

  You will decide if the utterances sound like questions or not using your keyboard.", (press the spacebar to continue),66536514443a3c5e8dda9208,Spanish,13 or older,"no, only English or Spanish",no,2025-07-24_08h03.26.592,empathy_intonation_perc_control,2024.2.4,MacIntel,59.52380952,66536514443a3c5e8dda9208,68817205a84113384fffdfe3,688220d5d4e0a1b7c6411749,,,,,,,,,,,,,,,,,,,,,,,,,,,,,,,,,,,,,,,,,,,,,,,,,,,,,,,,,,,,,,,,,,,,,,,,,,,,,,,,,,,,,
13.9896,27.4042,0,1,1,1,1,"If you believe the utterance is a question, type '1' (for 'yes') and if you do not 
  believe it is a question type '0' (for 'no').

  Let's practice a bit...", (press the spacebar to continue),66536514443a3c5e8dda9208,Spanish,13 or older,"no, only English or Spanish",no,2025-07-24_08h03.26.592,empathy_intonation_perc_control,2024.2.4,MacIntel,59.52380952,66536514443a3c5e8dda9208,68817205a84113384fffdfe3,688220d5d4e0a1b7c6411749,,,,,,,,,,,,,,,,,,,,,,,,,,,,,,,,,,,,,,,,,,,,,,,,,,,,,,,,,,,,,,,,,,,,,,,,,,,,,,,,,,,,,
,,,,,,,,,66536514443a3c5e8dda9208,Spanish,13 or older,"no, only English or Spanish",no,2025-07-24_08h03.26.592,empathy_intonation_perc_control,2024.2.4,MacIntel,59.52380952,66536514443a3c5e8dda9208,68817205a84113384fffdfe3,688220d5d4e0a1b7c6411749,27.4158,31.6389,0,0,3.7019,,0,0,0,2,1,./stim/wavs/chilean_question_filler_Mi-padre-cantaba-bien.wav,1,,,,,,,,,,,,,,,,,,,,,,,,,,,,,,,,,,,,,,,,,,,,,,,,,,,,,,,,,,,,,,,,,,,,,,,,
,,,,,,,,,66536514443a3c5e8dda9208,Spanish,13 or older,"no, only English or Spanish",no,2025-07-24_08h03.26.592,empathy_intonation_perc_control,2024.2.4,MacIntel,59.52380952,66536514443a3c5e8dda9208,68817205a84113384fffdfe3,688220d5d4e0a1b7c6411749,31.6403,34.3055,0,1,2.1422,,0,1,1,5,1,./stim/wavs/andalusian_statement_filler_Alberto-nunca-se-afeita.wav,0,,,,,,,,,,,,,,,,,,,,,,,,,,,,,,,,,,,,,,,,,,,,,,,,,,,,,,,,,,,,,,,,,,,,,,,,
,,,,,,,,,66536514443a3c5e8dda9208,Spanish,13 or older,"no, only English or Spanish",no,2025-07-24_08h03.26.592,empathy_intonation_perc_control,2024.2.4,MacIntel,59.52380952,66536514443a3c5e8dda9208,68817205a84113384fffdfe3,688220d5d4e0a1b7c6411749,34.3066,37.0377,1,1,2.2078,,0,2,2,1,1,./stim/wavs/argentine_question_filler_Mi-vecino-habla-mucho.wav,1,,,,,,,,,,,,,,,,,,,,,,,,,,,,,,,,,,,,,,,,,,,,,,,,,,,,,,,,,,,,,,,,,,,,,,,,
,,,,,,,,,66536514443a3c5e8dda9208,Spanish,13 or older,"no, only English or Spanish",no,2025-07-24_08h03.26.592,empathy_intonation_perc_control,2024.2.4,MacIntel,59.52380952,66536514443a3c5e8dda9208,68817205a84113384fffdfe3,688220d5d4e0a1b7c6411749,37.0386,40.3044,0,1,2.7578,,0,3,3,7,1,./stim/wavs/puertorican_statement_filler_La-nina-pinta-con-su-amiga.wav,0,,,,,,,,,,,,,,,,,,,,,,,,,,,,,,,,,,,,,,,,,,,,,,,,,,,,,,,,,,,,,,,,,,,,,,,,
,,,,,,,,,66536514443a3c5e8dda9208,Spanish,13 or older,"no, only English or Spanish",no,2025-07-24_08h03.26.592,empathy_intonation_perc_control,2024.2.4,MacIntel,59.52380952,66536514443a3c5e8dda9208,68817205a84113384fffdfe3,688220d5d4e0a1b7c6411749,40.3051,42.9892,1,1,2.1725,,0,4,4,0,1,./stim/wavs/castilian_question_filler_Mi-esposo-conoce-al-chico.wav,1,,,,,,,,,,,,,,,,,,,,,,,,,,,,,,,,,,,,,,,,,,,,,,,,,,,,,,,,,,,,,,,,,,,,,,,,
,,,,,,,,,66536514443a3c5e8dda9208,Spanish,13 or older,"no, only English or Spanish",no,2025-07-24_08h03.26.592,empathy_intonation_perc_control,2024.2.4,MacIntel,59.52380952,66536514443a3c5e8dda9208,68817205a84113384fffdfe3,688220d5d4e0a1b7c6411749,42.9903,45.6882,1,1,2.1719,,0,5,5,3,1,./stim/wavs/mexican_question_filler_Felipe-no-tiene-contrasena.wav,1,,,,,,,,,,,,,,,,,,,,,,,,,,,,,,,,,,,,,,,,,,,,,,,,,,,,,,,,,,,,,,,,,,,,,,,,
,,,,,,,,,66536514443a3c5e8dda9208,Spanish,13 or older,"no, only English or Spanish",no,2025-07-24_08h03.26.592,empathy_intonation_perc_control,2024.2.4,MacIntel,59.52380952,66536514443a3c5e8dda9208,68817205a84113384fffdfe3,688220d5d4e0a1b7c6411749,45.6887,49.1891,0,1,2.9823,,0,6,6,6,1,./stim/wavs/peruvian_statement_filler_El-nino-habla-con-su-madre.wav,0,,,,,,,,,,,,,,,,,,,,,,,,,,,,,,,,,,,,,,,,,,,,,,,,,,,,,,,,,,,,,,,,,,,,,,,,
,,,,,,,,,66536514443a3c5e8dda9208,Spanish,13 or older,"no, only English or Spanish",no,2025-07-24_08h03.26.592,empathy_intonation_perc_control,2024.2.4,MacIntel,59.52380952,66536514443a3c5e8dda9208,68817205a84113384fffdfe3,688220d5d4e0a1b7c6411749,49.1898,51.9054,0,1,2.1904,,0,7,7,4,1,./stim/wavs/cuban_statement_filler_Cocinabas-por-la-noche.wav,0,,,,,,,,,,,,,,,,,,,,,,,,,,,,,,,,,,,,,,,,,,,,,,,,,,,,,,,,,,,,,,,,,,,,,,,,
,,,,,,,,,66536514443a3c5e8dda9208,Spanish,13 or older,"no, only English or Spanish",no,2025-07-24_08h03.26.592,empathy_intonation_perc_control,2024.2.4,MacIntel,59.52380952,66536514443a3c5e8dda9208,68817205a84113384fffdfe3,688220d5d4e0a1b7c6411749,,,,,,,,,,,,,,51.9058,58.9239,,,,,,,,,,,,,,,,,,,,,,,,,,,,,,,,,,,,,,,,,,,,,,,,,,,,,,,,,,,,,,,,,,,,,,
,,,,,,,,,66536514443a3c5e8dda9208,Spanish,13 or older,"no, only English or Spanish",no,2025-07-24_08h03.26.592,empathy_intonation_perc_control,2024.2.4,MacIntel,59.52380952,66536514443a3c5e8dda9208,68817205a84113384fffdfe3,688220d5d4e0a1b7c6411749,,,,,,,,,,,,./stim/wavs/mexican_mismatch_declarative-broad-focus_Mi-novio-viene-del-lago.wav,0,,,58.937,61.374,0,1,1.9155,,0,0,0,81,1,82,0,mexican,,,,,,,,,,,,,,,,,,,,,,,,,,,,,,,,,,,,,,,,,,,,,,,,,,,,,,,,
,,,,,,,,,66536514443a3c5e8dda9208,Spanish,13 or older,"no, only English or Spanish",no,2025-07-24_08h03.26.592,empathy_intonation_perc_control,2024.2.4,MacIntel,59.52380952,66536514443a3c5e8dda9208,68817205a84113384fffdfe3,688220d5d4e0a1b7c6411749,,,,,,,,,,,,./stim/wavs/puertorican_mismatch_interrogative-total-yn_El-nino-oye-el-rio.wav,1,,,61.3753,63.3901,0,0,1.4883,,0,1,1,40,1,41,1,puertorican,,,,,,,,,,,,,,,,,,,,,,,,,,,,,,,,,,,,,,,,,,,,,,,,,,,,,,,,
,,,,,,,,,66536514443a3c5e8dda9208,Spanish,13 or older,"no, only English or Spanish",no,2025-07-24_08h03.26.592,empathy_intonation_perc_control,2024.2.4,MacIntel,59.52380952,66536514443a3c5e8dda9208,68817205a84113384fffdfe3,688220d5d4e0a1b7c6411749,,,,,,,,,,,,./stim/wavs/cuban_mismatch_declarative-broad-focus_El-bebe-comia-muy-bien.wav,0,,,63.3906,65.5411,0,1,1.6175,,0,2,2,73,1,74,0,cuban,,,,,,,,,,,,,,,,,,,,,,,,,,,,,,,,,,,,,,,,,,,,,,,,,,,,,,,,
,,,,,,,,,66536514443a3c5e8dda9208,Spanish,13 or older,"no, only English or Spanish",no,2025-07-24_08h03.26.592,empathy_intonation_perc_control,2024.2.4,MacIntel,59.52380952,66536514443a3c5e8dda9208,68817205a84113384fffdfe3,688220d5d4e0a1b7c6411749,,,,,,,,,,,,./stim/wavs/castilian_mismatch_declarative-broad-focus_Mi-tia-odia-la-lluvia.wav,0,,,65.5417,67.9065,0,1,1.8352,,0,3,3,72,1,73,0,castilian,,,,,,,,,,,,,,,,,,,,,,,,,,,,,,,,,,,,,,,,,,,,,,,,,,,,,,,,
,,,,,,,,,66536514443a3c5e8dda9208,Spanish,13 or older,"no, only English or Spanish",no,2025-07-24_08h03.26.592,empathy_intonation_perc_control,2024.2.4,MacIntel,59.52380952,66536514443a3c5e8dda9208,68817205a84113384fffdfe3,688220d5d4e0a1b7c6411749,,,,,,,,,,,,./stim/wavs/castilian_mismatch_declarative-broad-focus_El-nino-oye-el-rio.wav,0,,,67.9076,70.5745,0,1,2.1585,,0,4,4,68,1,69,0,castilian,,,,,,,,,,,,,,,,,,,,,,,,,,,,,,,,,,,,,,,,,,,,,,,,,,,,,,,,
,,,,,,,,,66536514443a3c5e8dda9208,Spanish,13 or older,"no, only English or Spanish",no,2025-07-24_08h03.26.592,empathy_intonation_perc_control,2024.2.4,MacIntel,59.52380952,66536514443a3c5e8dda9208,68817205a84113384fffdfe3,688220d5d4e0a1b7c6411749,,,,,,,,,,,,./stim/wavs/mexican_match_declarative-broad-focus_Emilio-ama-la-marcha.wav,0,,,70.575,72.9741,0,1,1.8728,,0,5,5,59,1,60,0,mexican,,,,,,,,,,,,,,,,,,,,,,,,,,,,,,,,,,,,,,,,,,,,,,,,,,,,,,,,
,,,,,,,,,66536514443a3c5e8dda9208,Spanish,13 or older,"no, only English or Spanish",no,2025-07-24_08h03.26.592,empathy_intonation_perc_control,2024.2.4,MacIntel,59.52380952,66536514443a3c5e8dda9208,68817205a84113384fffdfe3,688220d5d4e0a1b7c6411749,,,,,,,,,,,,./stim/wavs/castilian_mismatch_interrogative-total-yn_Mi-madre-come-la-fruta.wav,1,,,72.9745,75.6236,1,1,2.1207,,0,6,6,26,1,27,0,castilian,,,,,,,,,,,,,,,,,,,,,,,,,,,,,,,,,,,,,,,,,,,,,,,,,,,,,,,,
,,,,,,,,,66536514443a3c5e8dda9208,Spanish,13 or older,"no, only English or Spanish",no,2025-07-24_08h03.26.592,empathy_intonation_perc_control,2024.2.4,MacIntel,59.52380952,66536514443a3c5e8dda9208,68817205a84113384fffdfe3,688220d5d4e0a1b7c6411749,,,,,,,,,,,,./stim/wavs/mexican_mismatch_declarative-broad-focus_El-bebe-comia-muy-bien.wav,0,,,75.6242,77.9913,0,1,1.8425,,0,7,7,78,1,79,0,mexican,,,,,,,,,,,,,,,,,,,,,,,,,,,,,,,,,,,,,,,,,,,,,,,,,,,,,,,,
,,,,,,,,,66536514443a3c5e8dda9208,Spanish,13 or older,"no, only English or Spanish",no,2025-07-24_08h03.26.592,empathy_intonation_perc_control,2024.2.4,MacIntel,59.52380952,66536514443a3c5e8dda9208,68817205a84113384fffdfe3,688220d5d4e0a1b7c6411749,,,,,,,,,,,,./stim/wavs/puertorican_match_declarative-broad-focus_Maria-bebe-el-vino.wav,0,,,77.9922,80.3748,1,0,1.8553,,0,8,8,67,1,68,0,puertorican,,,,,,,,,,,,,,,,,,,,,,,,,,,,,,,,,,,,,,,,,,,,,,,,,,,,,,,,
,,,,,,,,,66536514443a3c5e8dda9208,Spanish,13 or older,"no, only English or Spanish",no,2025-07-24_08h03.26.592,empathy_intonation_perc_control,2024.2.4,MacIntel,59.52380952,66536514443a3c5e8dda9208,68817205a84113384fffdfe3,688220d5d4e0a1b7c6411749,,,,,,,,,,,,./stim/wavs/mexican_mismatch_interrogative-total-yn_El-hombre-mira-la-luna.wav,1,,,80.3752,82.5583,1,1,1.6536,,0,9,9,34,1,35,0,mexican,,,,,,,,,,,,,,,,,,,,,,,,,,,,,,,,,,,,,,,,,,,,,,,,,,,,,,,,
,,,,,,,,,66536514443a3c5e8dda9208,Spanish,13 or older,"no, only English or Spanish",no,2025-07-24_08h03.26.592,empathy_intonation_perc_control,2024.2.4,MacIntel,59.52380952,66536514443a3c5e8dda9208,68817205a84113384fffdfe3,688220d5d4e0a1b7c6411749,,,,,,,,,,,,./stim/wavs/cuban_match_interrogative-total-yn_Mariano-habla-del-tiempo.wav,1,,,82.5589,84.8244,0,0,1.7417,,0,10,10,10,1,11,1,cuban,,,,,,,,,,,,,,,,,,,,,,,,,,,,,,,,,,,,,,,,,,,,,,,,,,,,,,,,
,,,,,,,,,66536514443a3c5e8dda9208,Spanish,13 or older,"no, only English or Spanish",no,2025-07-24_08h03.26.592,empathy_intonation_perc_control,2024.2.4,MacIntel,59.52380952,66536514443a3c5e8dda9208,68817205a84113384fffdfe3,688220d5d4e0a1b7c6411749,,,,,,,,,,,,./stim/wavs/castilian_mismatch_interrogative-total-yn_Mi-novio-viene-del-lago.wav,1,,,84.8251,87.2417,1,1,1.9076,,0,11,11,27,1,28,0,castilian,,,,,,,,,,,,,,,,,,,,,,,,,,,,,,,,,,,,,,,,,,,,,,,,,,,,,,,,
,,,,,,,,,66536514443a3c5e8dda9208,Spanish,13 or older,"no, only English or Spanish",no,2025-07-24_08h03.26.592,empathy_intonation_perc_control,2024.2.4,MacIntel,59.52380952,66536514443a3c5e8dda9208,68817205a84113384fffdfe3,688220d5d4e0a1b7c6411749,,,,,,,,,,,,./stim/wavs/castilian_match_declarative-broad-focus_David-leia-el-libro.wav,0,,,87.2423,89.7425,0,1,1.9702,,0,12,12,44,1,45,0,castilian,,,,,,,,,,,,,,,,,,,,,,,,,,,,,,,,,,,,,,,,,,,,,,,,,,,,,,,,
,,,,,,,,,66536514443a3c5e8dda9208,Spanish,13 or older,"no, only English or Spanish",no,2025-07-24_08h03.26.592,empathy_intonation_perc_control,2024.2.4,MacIntel,59.52380952,66536514443a3c5e8dda9208,68817205a84113384fffdfe3,688220d5d4e0a1b7c6411749,,,,,,,,,,,,./stim/wavs/puertorican_mismatch_interrogative-total-yn_La-maestra-vive-en-Paris.wav,1,,,89.7437,92.109,0,0,1.8375,,0,13,13,41,1,42,1,puertorican,,,,,,,,,,,,,,,,,,,,,,,,,,,,,,,,,,,,,,,,,,,,,,,,,,,,,,,,
,,,,,,,,,66536514443a3c5e8dda9208,Spanish,13 or older,"no, only English or Spanish",no,2025-07-24_08h03.26.592,empathy_intonation_perc_control,2024.2.4,MacIntel,59.52380952,66536514443a3c5e8dda9208,68817205a84113384fffdfe3,688220d5d4e0a1b7c6411749,,,,,,,,,,,,./stim/wavs/puertorican_mismatch_interrogative-total-yn_Mi-madre-come-la-fruta.wav,1,,,92.1096,94.326,0,0,1.6926,,0,14,14,43,1,44,1,puertorican,,,,,,,,,,,,,,,,,,,,,,,,,,,,,,,,,,,,,,,,,,,,,,,,,,,,,,,,
,,,,,,,,,66536514443a3c5e8dda9208,Spanish,13 or older,"no, only English or Spanish",no,2025-07-24_08h03.26.592,empathy_intonation_perc_control,2024.2.4,MacIntel,59.52380952,66536514443a3c5e8dda9208,68817205a84113384fffdfe3,688220d5d4e0a1b7c6411749,,,,,,,,,,,,./stim/wavs/castilian_match_declarative-broad-focus_Mariano-habla-del-tiempo.wav,0,,,94.327,96.8253,0,1,1.9757,,0,15,15,48,1,49,0,castilian,,,,,,,,,,,,,,,,,,,,,,,,,,,,,,,,,,,,,,,,,,,,,,,,,,,,,,,,
,,,,,,,,,66536514443a3c5e8dda9208,Spanish,13 or older,"no, only English or Spanish",no,2025-07-24_08h03.26.592,empathy_intonation_perc_control,2024.2.4,MacIntel,59.52380952,66536514443a3c5e8dda9208,68817205a84113384fffdfe3,688220d5d4e0a1b7c6411749,,,,,,,,,,,,./stim/wavs/cuban_mismatch_interrogative-total-yn_Mi-novio-viene-del-lago.wav,1,,,96.8259,99.1082,0,0,1.7565,,0,16,16,32,1,33,1,cuban,,,,,,,,,,,,,,,,,,,,,,,,,,,,,,,,,,,,,,,,,,,,,,,,,,,,,,,,
,,,,,,,,,66536514443a3c5e8dda9208,Spanish,13 or older,"no, only English or Spanish",no,2025-07-24_08h03.26.592,empathy_intonation_perc_control,2024.2.4,MacIntel,59.52380952,66536514443a3c5e8dda9208,68817205a84113384fffdfe3,688220d5d4e0a1b7c6411749,,,,,,,,,,,,./stim/wavs/puertorican_mismatch_declarative-broad-focus_La-nina-lava-el-plato.wav,0,,,99.1086,101.0763,0,1,1.4483,,0,17,17,87,1,88,0,puertorican,,,,,,,,,,,,,,,,,,,,,,,,,,,,,,,,,,,,,,,,,,,,,,,,,,,,,,,,
,,,,,,,,,66536514443a3c5e8dda9208,Spanish,13 or older,"no, only English or Spanish",no,2025-07-24_08h03.26.592,empathy_intonation_perc_control,2024.2.4,MacIntel,59.52380952,66536514443a3c5e8dda9208,68817205a84113384fffdfe3,688220d5d4e0a1b7c6411749,,,,,,,,,,,,./stim/wavs/mexican_match_declarative-broad-focus_David-leia-el-libro.wav,0,,,101.0771,103.0095,0,1,1.4007,,0,18,18,58,1,59,0,mexican,,,,,,,,,,,,,,,,,,,,,,,,,,,,,,,,,,,,,,,,,,,,,,,,,,,,,,,,
,,,,,,,,,66536514443a3c5e8dda9208,Spanish,13 or older,"no, only English or Spanish",no,2025-07-24_08h03.26.592,empathy_intonation_perc_control,2024.2.4,MacIntel,59.52380952,66536514443a3c5e8dda9208,68817205a84113384fffdfe3,688220d5d4e0a1b7c6411749,,,,,,,,,,,,./stim/wavs/castilian_match_interrogative-total-yn_Manuela-vende-el-carro.wav,1,,,103.0101,105.3266,1,1,1.7868,,0,19,19,2,1,3,0,castilian,,,,,,,,,,,,,,,,,,,,,,,,,,,,,,,,,,,,,,,,,,,,,,,,,,,,,,,,
,,,,,,,,,66536514443a3c5e8dda9208,Spanish,13 or older,"no, only English or Spanish",no,2025-07-24_08h03.26.592,empathy_intonation_perc_control,2024.2.4,MacIntel,59.52380952,66536514443a3c5e8dda9208,68817205a84113384fffdfe3,688220d5d4e0a1b7c6411749,,,,,,,,,,,,./stim/wavs/puertorican_match_declarative-broad-focus_Daniel-iba-a-Bolivia.wav,0,,,105.3272,107.3448,0,1,1.496,,0,20,20,63,1,64,0,puertorican,,,,,,,,,,,,,,,,,,,,,,,,,,,,,,,,,,,,,,,,,,,,,,,,,,,,,,,,
,,,,,,,,,66536514443a3c5e8dda9208,Spanish,13 or older,"no, only English or Spanish",no,2025-07-24_08h03.26.592,empathy_intonation_perc_control,2024.2.4,MacIntel,59.52380952,66536514443a3c5e8dda9208,68817205a84113384fffdfe3,688220d5d4e0a1b7c6411749,,,,,,,,,,,,./stim/wavs/mexican_mismatch_interrogative-total-yn_Mi-tia-odia-la-lluvia.wav,1,,,107.3453,109.3767,1,1,1.5051,,0,21,21,38,1,39,0,mexican,,,,,,,,,,,,,,,,,,,,,,,,,,,,,,,,,,,,,,,,,,,,,,,,,,,,,,,,
,,,,,,,,,66536514443a3c5e8dda9208,Spanish,13 or older,"no, only English or Spanish",no,2025-07-24_08h03.26.592,empathy_intonation_perc_control,2024.2.4,MacIntel,59.52380952,66536514443a3c5e8dda9208,68817205a84113384fffdfe3,688220d5d4e0a1b7c6411749,,,,,,,,,,,,./stim/wavs/castilian_match_interrogative-total-yn_Maria-bebe-el-vino.wav,1,,,109.3775,111.3774,1,1,1.4701,,0,22,22,3,1,4,0,castilian,,,,,,,,,,,,,,,,,,,,,,,,,,,,,,,,,,,,,,,,,,,,,,,,,,,,,,,,
,,,,,,,,,66536514443a3c5e8dda9208,Spanish,13 or older,"no, only English or Spanish",no,2025-07-24_08h03.26.592,empathy_intonation_perc_control,2024.2.4,MacIntel,59.52380952,66536514443a3c5e8dda9208,68817205a84113384fffdfe3,688220d5d4e0a1b7c6411749,,,,,,,,,,,,./stim/wavs/puertorican_match_interrogative-total-yn_Manuela-vende-el-carro.wav,1,,,111.3781,113.6107,0,0,1.6985,,0,23,23,22,1,23,1,puertorican,,,,,,,,,,,,,,,,,,,,,,,,,,,,,,,,,,,,,,,,,,,,,,,,,,,,,,,,
,,,,,,,,,66536514443a3c5e8dda9208,Spanish,13 or older,"no, only English or Spanish",no,2025-07-24_08h03.26.592,empathy_intonation_perc_control,2024.2.4,MacIntel,59.52380952,66536514443a3c5e8dda9208,68817205a84113384fffdfe3,688220d5d4e0a1b7c6411749,,,,,,,,,,,,./stim/wavs/castilian_match_declarative-broad-focus_Emilio-ama-la-marcha.wav,0,,,113.6118,115.7933,0,1,1.6581,,0,24,24,45,1,46,0,castilian,,,,,,,,,,,,,,,,,,,,,,,,,,,,,,,,,,,,,,,,,,,,,,,,,,,,,,,,
,,,,,,,,,66536514443a3c5e8dda9208,Spanish,13 or older,"no, only English or Spanish",no,2025-07-24_08h03.26.592,empathy_intonation_perc_control,2024.2.4,MacIntel,59.52380952,66536514443a3c5e8dda9208,68817205a84113384fffdfe3,688220d5d4e0a1b7c6411749,,,,,,,,,,,,./stim/wavs/mexican_mismatch_declarative-broad-focus_La-maestra-vive-en-Paris.wav,0,,,115.7937,118.193,0,1,1.8819,,0,25,25,80,1,81,0,mexican,,,,,,,,,,,,,,,,,,,,,,,,,,,,,,,,,,,,,,,,,,,,,,,,,,,,,,,,
,,,,,,,,,66536514443a3c5e8dda9208,Spanish,13 or older,"no, only English or Spanish",no,2025-07-24_08h03.26.592,empathy_intonation_perc_control,2024.2.4,MacIntel,59.52380952,66536514443a3c5e8dda9208,68817205a84113384fffdfe3,688220d5d4e0a1b7c6411749,,,,,,,,,,,,./stim/wavs/mexican_match_declarative-broad-focus_Mariano-habla-del-tiempo.wav,0,,,118.1937,120.3275,0,1,1.6218,,0,26,26,60,1,61,0,mexican,,,,,,,,,,,,,,,,,,,,,,,,,,,,,,,,,,,,,,,,,,,,,,,,,,,,,,,,
,,,,,,,,,66536514443a3c5e8dda9208,Spanish,13 or older,"no, only English or Spanish",no,2025-07-24_08h03.26.592,empathy_intonation_perc_control,2024.2.4,MacIntel,59.52380952,66536514443a3c5e8dda9208,68817205a84113384fffdfe3,688220d5d4e0a1b7c6411749,,,,,,,,,,,,./stim/wavs/puertorican_match_declarative-broad-focus_David-leia-el-libro.wav,0,,,120.328,122.2934,0,1,1.4558,,0,27,27,64,1,65,0,puertorican,,,,,,,,,,,,,,,,,,,,,,,,,,,,,,,,,,,,,,,,,,,,,,,,,,,,,,,,
,,,,,,,,,66536514443a3c5e8dda9208,Spanish,13 or older,"no, only English or Spanish",no,2025-07-24_08h03.26.592,empathy_intonation_perc_control,2024.2.4,MacIntel,59.52380952,66536514443a3c5e8dda9208,68817205a84113384fffdfe3,688220d5d4e0a1b7c6411749,,,,,,,,,,,,./stim/wavs/puertorican_mismatch_interrogative-total-yn_El-hombre-mira-la-luna.wav,1,,,122.2939,124.2777,1,1,1.4736,,0,28,28,39,1,40,1,puertorican,,,,,,,,,,,,,,,,,,,,,,,,,,,,,,,,,,,,,,,,,,,,,,,,,,,,,,,,
,,,,,,,,,66536514443a3c5e8dda9208,Spanish,13 or older,"no, only English or Spanish",no,2025-07-24_08h03.26.592,empathy_intonation_perc_control,2024.2.4,MacIntel,59.52380952,66536514443a3c5e8dda9208,68817205a84113384fffdfe3,688220d5d4e0a1b7c6411749,,,,,,,,,,,,./stim/wavs/cuban_mismatch_declarative-broad-focus_La-nina-lava-el-plato.wav,0,,,124.2787,126.3114,0,1,1.5097,,0,29,29,75,1,76,0,cuban,,,,,,,,,,,,,,,,,,,,,,,,,,,,,,,,,,,,,,,,,,,,,,,,,,,,,,,,
,,,,,,,,,66536514443a3c5e8dda9208,Spanish,13 or older,"no, only English or Spanish",no,2025-07-24_08h03.26.592,empathy_intonation_perc_control,2024.2.4,MacIntel,59.52380952,66536514443a3c5e8dda9208,68817205a84113384fffdfe3,688220d5d4e0a1b7c6411749,,,,,,,,,,,,./stim/wavs/cuban_mismatch_interrogative-total-yn_Mi-madre-come-la-fruta.wav,1,,,126.3123,128.4773,1,1,1.6342,,0,30,30,31,1,32,1,cuban,,,,,,,,,,,,,,,,,,,,,,,,,,,,,,,,,,,,,,,,,,,,,,,,,,,,,,,,
,,,,,,,,,66536514443a3c5e8dda9208,Spanish,13 or older,"no, only English or Spanish",no,2025-07-24_08h03.26.592,empathy_intonation_perc_control,2024.2.4,MacIntel,59.52380952,66536514443a3c5e8dda9208,68817205a84113384fffdfe3,688220d5d4e0a1b7c6411749,,,,,,,,,,,,./stim/wavs/puertorican_match_interrogative-total-yn_David-leia-el-libro.wav,1,,,128.4778,130.3946,0,0,1.4076,,0,31,31,20,1,21,1,puertorican,,,,,,,,,,,,,,,,,,,,,,,,,,,,,,,,,,,,,,,,,,,,,,,,,,,,,,,,
,,,,,,,,,66536514443a3c5e8dda9208,Spanish,13 or older,"no, only English or Spanish",no,2025-07-24_08h03.26.592,empathy_intonation_perc_control,2024.2.4,MacIntel,59.52380952,66536514443a3c5e8dda9208,68817205a84113384fffdfe3,688220d5d4e0a1b7c6411749,,,,,,,,,,,,./stim/wavs/mexican_match_interrogative-total-yn_Daniel-iba-a-Bolivia.wav,1,,,130.3953,132.5616,1,1,1.6346,,0,32,32,13,1,14,0,mexican,,,,,,,,,,,,,,,,,,,,,,,,,,,,,,,,,,,,,,,,,,,,,,,,,,,,,,,,
,,,,,,,,,66536514443a3c5e8dda9208,Spanish,13 or older,"no, only English or Spanish",no,2025-07-24_08h03.26.592,empathy_intonation_perc_control,2024.2.4,MacIntel,59.52380952,66536514443a3c5e8dda9208,68817205a84113384fffdfe3,688220d5d4e0a1b7c6411749,,,,,,,,,,,,./stim/wavs/cuban_match_declarative-broad-focus_Maria-bebe-el-vino.wav,0,,,132.5623,134.6787,0,1,1.5869,,0,33,33,53,1,54,0,cuban,,,,,,,,,,,,,,,,,,,,,,,,,,,,,,,,,,,,,,,,,,,,,,,,,,,,,,,,
,,,,,,,,,66536514443a3c5e8dda9208,Spanish,13 or older,"no, only English or Spanish",no,2025-07-24_08h03.26.592,empathy_intonation_perc_control,2024.2.4,MacIntel,59.52380952,66536514443a3c5e8dda9208,68817205a84113384fffdfe3,688220d5d4e0a1b7c6411749,,,,,,,,,,,,./stim/wavs/cuban_mismatch_interrogative-total-yn_Mi-tia-odia-la-lluvia.wav,1,,,134.6792,136.6778,1,1,1.4744,,0,34,34,33,1,34,1,cuban,,,,,,,,,,,,,,,,,,,,,,,,,,,,,,,,,,,,,,,,,,,,,,,,,,,,,,,,
,,,,,,,,,66536514443a3c5e8dda9208,Spanish,13 or older,"no, only English or Spanish",no,2025-07-24_08h03.26.592,empathy_intonation_perc_control,2024.2.4,MacIntel,59.52380952,66536514443a3c5e8dda9208,68817205a84113384fffdfe3,688220d5d4e0a1b7c6411749,,,,,,,,,,,,./stim/wavs/puertorican_match_interrogative-total-yn_Maria-bebe-el-vino.wav,1,,,136.679,138.7621,0,0,1.5551,,0,35,35,23,1,24,1,puertorican,,,,,,,,,,,,,,,,,,,,,,,,,,,,,,,,,,,,,,,,,,,,,,,,,,,,,,,,
,,,,,,,,,66536514443a3c5e8dda9208,Spanish,13 or older,"no, only English or Spanish",no,2025-07-24_08h03.26.592,empathy_intonation_perc_control,2024.2.4,MacIntel,59.52380952,66536514443a3c5e8dda9208,68817205a84113384fffdfe3,688220d5d4e0a1b7c6411749,,,,,,,,,,,,./stim/wavs/mexican_match_interrogative-total-yn_Mariano-habla-del-tiempo.wav,1,,,138.7628,141.1445,1,1,1.8567,,0,36,36,16,1,17,0,mexican,,,,,,,,,,,,,,,,,,,,,,,,,,,,,,,,,,,,,,,,,,,,,,,,,,,,,,,,
,,,,,,,,,66536514443a3c5e8dda9208,Spanish,13 or older,"no, only English or Spanish",no,2025-07-24_08h03.26.592,empathy_intonation_perc_control,2024.2.4,MacIntel,59.52380952,66536514443a3c5e8dda9208,68817205a84113384fffdfe3,688220d5d4e0a1b7c6411749,,,,,,,,,,,,./stim/wavs/castilian_match_interrogative-total-yn_Emilio-ama-la-marcha.wav,1,,,141.1452,143.4633,1,1,1.7939,,0,37,37,1,1,2,0,castilian,,,,,,,,,,,,,,,,,,,,,,,,,,,,,,,,,,,,,,,,,,,,,,,,,,,,,,,,
,,,,,,,,,66536514443a3c5e8dda9208,Spanish,13 or older,"no, only English or Spanish",no,2025-07-24_08h03.26.592,empathy_intonation_perc_control,2024.2.4,MacIntel,59.52380952,66536514443a3c5e8dda9208,68817205a84113384fffdfe3,688220d5d4e0a1b7c6411749,,,,,,,,,,,,./stim/wavs/castilian_mismatch_interrogative-total-yn_Mi-tia-odia-la-lluvia.wav,1,,,143.4638,145.7624,1,1,1.7697,,0,38,38,28,1,29,0,castilian,,,,,,,,,,,,,,,,,,,,,,,,,,,,,,,,,,,,,,,,,,,,,,,,,,,,,,,,
,,,,,,,,,66536514443a3c5e8dda9208,Spanish,13 or older,"no, only English or Spanish",no,2025-07-24_08h03.26.592,empathy_intonation_perc_control,2024.2.4,MacIntel,59.52380952,66536514443a3c5e8dda9208,68817205a84113384fffdfe3,688220d5d4e0a1b7c6411749,,,,,,,,,,,,./stim/wavs/cuban_mismatch_interrogative-total-yn_El-hombre-mira-la-luna.wav,1,,,145.7628,148.1964,1,1,1.9009,,0,39,39,29,1,30,1,cuban,,,,,,,,,,,,,,,,,,,,,,,,,,,,,,,,,,,,,,,,,,,,,,,,,,,,,,,,
,,,,,,,,,66536514443a3c5e8dda9208,Spanish,13 or older,"no, only English or Spanish",no,2025-07-24_08h03.26.592,empathy_intonation_perc_control,2024.2.4,MacIntel,59.52380952,66536514443a3c5e8dda9208,68817205a84113384fffdfe3,688220d5d4e0a1b7c6411749,,,,,,,,,,,,./stim/wavs/castilian_mismatch_interrogative-total-yn_La-maestra-vive-en-Paris.wav,1,,,148.1971,150.7462,1,1,2.0239,,0,40,40,24,1,25,0,castilian,,,,,,,,,,,,,,,,,,,,,,,,,,,,,,,,,,,,,,,,,,,,,,,,,,,,,,,,
,,,,,,,,,66536514443a3c5e8dda9208,Spanish,13 or older,"no, only English or Spanish",no,2025-07-24_08h03.26.592,empathy_intonation_perc_control,2024.2.4,MacIntel,59.52380952,66536514443a3c5e8dda9208,68817205a84113384fffdfe3,688220d5d4e0a1b7c6411749,,,,,,,,,,,,./stim/wavs/puertorican_match_declarative-broad-focus_Ana-lleva-el-abrigo.wav,0,,,150.7468,152.6788,0,1,1.4012,,0,41,41,62,1,63,0,puertorican,,,,,,,,,,,,,,,,,,,,,,,,,,,,,,,,,,,,,,,,,,,,,,,,,,,,,,,,
,,,,,,,,,66536514443a3c5e8dda9208,Spanish,13 or older,"no, only English or Spanish",no,2025-07-24_08h03.26.592,empathy_intonation_perc_control,2024.2.4,MacIntel,59.52380952,66536514443a3c5e8dda9208,68817205a84113384fffdfe3,688220d5d4e0a1b7c6411749,,,,,,,,,,,,./stim/wavs/mexican_mismatch_declarative-broad-focus_Mi-tia-odia-la-lluvia.wav,0,,,152.6791,154.6464,0,1,1.4576,,0,42,42,82,1,83,0,mexican,,,,,,,,,,,,,,,,,,,,,,,,,,,,,,,,,,,,,,,,,,,,,,,,,,,,,,,,
,,,,,,,,,66536514443a3c5e8dda9208,Spanish,13 or older,"no, only English or Spanish",no,2025-07-24_08h03.26.592,empathy_intonation_perc_control,2024.2.4,MacIntel,59.52380952,66536514443a3c5e8dda9208,68817205a84113384fffdfe3,688220d5d4e0a1b7c6411749,,,,,,,,,,,,./stim/wavs/cuban_mismatch_declarative-broad-focus_El-hombre-mira-la-luna.wav,0,,,154.6469,157.0626,0,1,1.8884,,0,43,43,74,1,75,0,cuban,,,,,,,,,,,,,,,,,,,,,,,,,,,,,,,,,,,,,,,,,,,,,,,,,,,,,,,,
,,,,,,,,,66536514443a3c5e8dda9208,Spanish,13 or older,"no, only English or Spanish",no,2025-07-24_08h03.26.592,empathy_intonation_perc_control,2024.2.4,MacIntel,59.52380952,66536514443a3c5e8dda9208,68817205a84113384fffdfe3,688220d5d4e0a1b7c6411749,,,,,,,,,,,,./stim/wavs/cuban_match_declarative-broad-focus_Marta-abre-el-regalo.wav,0,,,157.0631,159.4803,0,1,1.8827,,0,44,44,55,1,56,0,cuban,,,,,,,,,,,,,,,,,,,,,,,,,,,,,,,,,,,,,,,,,,,,,,,,,,,,,,,,
,,,,,,,,,66536514443a3c5e8dda9208,Spanish,13 or older,"no, only English or Spanish",no,2025-07-24_08h03.26.592,empathy_intonation_perc_control,2024.2.4,MacIntel,59.52380952,66536514443a3c5e8dda9208,68817205a84113384fffdfe3,688220d5d4e0a1b7c6411749,,,,,,,,,,,,./stim/wavs/puertorican_mismatch_declarative-broad-focus_El-nino-oye-el-rio.wav,0,,,159.4816,161.6962,0,1,1.6926,,0,45,45,85,1,86,0,puertorican,,,,,,,,,,,,,,,,,,,,,,,,,,,,,,,,,,,,,,,,,,,,,,,,,,,,,,,,
,,,,,,,,,66536514443a3c5e8dda9208,Spanish,13 or older,"no, only English or Spanish",no,2025-07-24_08h03.26.592,empathy_intonation_perc_control,2024.2.4,MacIntel,59.52380952,66536514443a3c5e8dda9208,68817205a84113384fffdfe3,688220d5d4e0a1b7c6411749,,,,,,,,,,,,./stim/wavs/castilian_match_interrogative-total-yn_Mariano-habla-del-tiempo.wav,1,,,161.6968,163.9478,1,1,1.7443,,0,46,46,4,1,5,0,castilian,,,,,,,,,,,,,,,,,,,,,,,,,,,,,,,,,,,,,,,,,,,,,,,,,,,,,,,,
,,,,,,,,,66536514443a3c5e8dda9208,Spanish,13 or older,"no, only English or Spanish",no,2025-07-24_08h03.26.592,empathy_intonation_perc_control,2024.2.4,MacIntel,59.52380952,66536514443a3c5e8dda9208,68817205a84113384fffdfe3,688220d5d4e0a1b7c6411749,,,,,,,,,,,,./stim/wavs/castilian_match_interrogative-total-yn_Marta-abre-el-regalo.wav,1,,,163.9486,166.0973,1,1,1.6178,,0,47,47,5,1,6,0,castilian,,,,,,,,,,,,,,,,,,,,,,,,,,,,,,,,,,,,,,,,,,,,,,,,,,,,,,,,
,,,,,,,,,66536514443a3c5e8dda9208,Spanish,13 or older,"no, only English or Spanish",no,2025-07-24_08h03.26.592,empathy_intonation_perc_control,2024.2.4,MacIntel,59.52380952,66536514443a3c5e8dda9208,68817205a84113384fffdfe3,688220d5d4e0a1b7c6411749,,,,,,,,,,,,./stim/wavs/puertorican_match_declarative-broad-focus_Emilio-ama-la-marcha.wav,0,,,166.0979,168.2801,0,1,1.6574,,0,48,48,65,1,66,0,puertorican,,,,,,,,,,,,,,,,,,,,,,,,,,,,,,,,,,,,,,,,,,,,,,,,,,,,,,,,
,,,,,,,,,66536514443a3c5e8dda9208,Spanish,13 or older,"no, only English or Spanish",no,2025-07-24_08h03.26.592,empathy_intonation_perc_control,2024.2.4,MacIntel,59.52380952,66536514443a3c5e8dda9208,68817205a84113384fffdfe3,688220d5d4e0a1b7c6411749,,,,,,,,,,,,./stim/wavs/puertorican_mismatch_declarative-broad-focus_El-bebe-comia-muy-bien.wav,0,,,168.2805,170.2974,1,0,1.4912,,0,49,49,83,1,84,0,puertorican,,,,,,,,,,,,,,,,,,,,,,,,,,,,,,,,,,,,,,,,,,,,,,,,,,,,,,,,
,,,,,,,,,66536514443a3c5e8dda9208,Spanish,13 or older,"no, only English or Spanish",no,2025-07-24_08h03.26.592,empathy_intonation_perc_control,2024.2.4,MacIntel,59.52380952,66536514443a3c5e8dda9208,68817205a84113384fffdfe3,688220d5d4e0a1b7c6411749,,,,,,,,,,,,./stim/wavs/mexican_match_declarative-broad-focus_Ana-lleva-el-abrigo.wav,0,,,170.2982,172.3144,0,1,1.4866,,0,50,50,56,1,57,0,mexican,,,,,,,,,,,,,,,,,,,,,,,,,,,,,,,,,,,,,,,,,,,,,,,,,,,,,,,,
,,,,,,,,,66536514443a3c5e8dda9208,Spanish,13 or older,"no, only English or Spanish",no,2025-07-24_08h03.26.592,empathy_intonation_perc_control,2024.2.4,MacIntel,59.52380952,66536514443a3c5e8dda9208,68817205a84113384fffdfe3,688220d5d4e0a1b7c6411749,,,,,,,,,,,,./stim/wavs/castilian_match_declarative-broad-focus_Marta-abre-el-regalo.wav,0,,,172.315,174.4484,0,1,1.6103,,0,51,51,49,1,50,0,castilian,,,,,,,,,,,,,,,,,,,,,,,,,,,,,,,,,,,,,,,,,,,,,,,,,,,,,,,,
,,,,,,,,,66536514443a3c5e8dda9208,Spanish,13 or older,"no, only English or Spanish",no,2025-07-24_08h03.26.592,empathy_intonation_perc_control,2024.2.4,MacIntel,59.52380952,66536514443a3c5e8dda9208,68817205a84113384fffdfe3,688220d5d4e0a1b7c6411749,,,,,,,,,,,,./stim/wavs/castilian_mismatch_declarative-broad-focus_Mi-novio-viene-del-lago.wav,0,,,174.4489,176.9147,0,1,1.9385,,0,52,52,71,1,72,0,castilian,,,,,,,,,,,,,,,,,,,,,,,,,,,,,,,,,,,,,,,,,,,,,,,,,,,,,,,,
,,,,,,,,,66536514443a3c5e8dda9208,Spanish,13 or older,"no, only English or Spanish",no,2025-07-24_08h03.26.592,empathy_intonation_perc_control,2024.2.4,MacIntel,59.52380952,66536514443a3c5e8dda9208,68817205a84113384fffdfe3,688220d5d4e0a1b7c6411749,,,,,,,,,,,,./stim/wavs/cuban_match_declarative-broad-focus_Manuela-vende-el-carro.wav,0,,,176.9157,179.1973,0,1,1.7487,,0,53,53,52,1,53,0,cuban,,,,,,,,,,,,,,,,,,,,,,,,,,,,,,,,,,,,,,,,,,,,,,,,,,,,,,,,
,,,,,,,,,66536514443a3c5e8dda9208,Spanish,13 or older,"no, only English or Spanish",no,2025-07-24_08h03.26.592,empathy_intonation_perc_control,2024.2.4,MacIntel,59.52380952,66536514443a3c5e8dda9208,68817205a84113384fffdfe3,688220d5d4e0a1b7c6411749,,,,,,,,,,,,./stim/wavs/mexican_match_interrogative-total-yn_Emilio-ama-la-marcha.wav,1,,,179.1978,181.6312,1,1,1.9228,,0,54,54,15,1,16,0,mexican,,,,,,,,,,,,,,,,,,,,,,,,,,,,,,,,,,,,,,,,,,,,,,,,,,,,,,,,
,,,,,,,,,66536514443a3c5e8dda9208,Spanish,13 or older,"no, only English or Spanish",no,2025-07-24_08h03.26.592,empathy_intonation_perc_control,2024.2.4,MacIntel,59.52380952,66536514443a3c5e8dda9208,68817205a84113384fffdfe3,688220d5d4e0a1b7c6411749,,,,,,,,,,,,./stim/wavs/castilian_mismatch_declarative-broad-focus_La-nina-lava-el-plato.wav,0,,,181.6318,184.5983,1,0,2.439,,0,55,55,70,1,71,0,castilian,,,,,,,,,,,,,,,,,,,,,,,,,,,,,,,,,,,,,,,,,,,,,,,,,,,,,,,,
,,,,,,,,,66536514443a3c5e8dda9208,Spanish,13 or older,"no, only English or Spanish",no,2025-07-24_08h03.26.592,empathy_intonation_perc_control,2024.2.4,MacIntel,59.52380952,66536514443a3c5e8dda9208,68817205a84113384fffdfe3,688220d5d4e0a1b7c6411749,,,,,,,,,,,,./stim/wavs/castilian_mismatch_declarative-broad-focus_La-maestra-vive-en-Paris.wav,0,,,184.5988,186.8976,0,1,1.7746,,0,56,56,69,1,70,0,castilian,,,,,,,,,,,,,,,,,,,,,,,,,,,,,,,,,,,,,,,,,,,,,,,,,,,,,,,,
,,,,,,,,,66536514443a3c5e8dda9208,Spanish,13 or older,"no, only English or Spanish",no,2025-07-24_08h03.26.592,empathy_intonation_perc_control,2024.2.4,MacIntel,59.52380952,66536514443a3c5e8dda9208,68817205a84113384fffdfe3,688220d5d4e0a1b7c6411749,,,,,,,,,,,,./stim/wavs/puertorican_mismatch_interrogative-total-yn_La-nina-lava-el-plato.wav,1,,,186.8983,189.8145,1,1,2.3899,,0,57,57,42,1,43,1,puertorican,,,,,,,,,,,,,,,,,,,,,,,,,,,,,,,,,,,,,,,,,,,,,,,,,,,,,,,,
,,,,,,,,,66536514443a3c5e8dda9208,Spanish,13 or older,"no, only English or Spanish",no,2025-07-24_08h03.26.592,empathy_intonation_perc_control,2024.2.4,MacIntel,59.52380952,66536514443a3c5e8dda9208,68817205a84113384fffdfe3,688220d5d4e0a1b7c6411749,,,,,,,,,,,,./stim/wavs/cuban_mismatch_interrogative-total-yn_El-nino-oye-el-rio.wav,1,,,189.8152,191.799,0,0,1.47,,0,58,58,30,1,31,1,cuban,,,,,,,,,,,,,,,,,,,,,,,,,,,,,,,,,,,,,,,,,,,,,,,,,,,,,,,,
,,,,,,,,,66536514443a3c5e8dda9208,Spanish,13 or older,"no, only English or Spanish",no,2025-07-24_08h03.26.592,empathy_intonation_perc_control,2024.2.4,MacIntel,59.52380952,66536514443a3c5e8dda9208,68817205a84113384fffdfe3,688220d5d4e0a1b7c6411749,,,,,,,,,,,,./stim/wavs/cuban_match_interrogative-total-yn_Marta-abre-el-regalo.wav,1,,,191.8,194.1651,0,0,1.8349,,0,59,59,11,1,12,1,cuban,,,,,,,,,,,,,,,,,,,,,,,,,,,,,,,,,,,,,,,,,,,,,,,,,,,,,,,,
,,,,,,,,,66536514443a3c5e8dda9208,Spanish,13 or older,"no, only English or Spanish",no,2025-07-24_08h03.26.592,empathy_intonation_perc_control,2024.2.4,MacIntel,59.52380952,66536514443a3c5e8dda9208,68817205a84113384fffdfe3,688220d5d4e0a1b7c6411749,,,,,,,,,,,,./stim/wavs/puertorican_match_interrogative-total-yn_Ana-lleva-el-abrigo.wav,1,,,194.1656,196.0159,1,1,1.3322,,0,60,60,18,1,19,1,puertorican,,,,,,,,,,,,,,,,,,,,,,,,,,,,,,,,,,,,,,,,,,,,,,,,,,,,,,,,
,,,,,,,,,66536514443a3c5e8dda9208,Spanish,13 or older,"no, only English or Spanish",no,2025-07-24_08h03.26.592,empathy_intonation_perc_control,2024.2.4,MacIntel,59.52380952,66536514443a3c5e8dda9208,68817205a84113384fffdfe3,688220d5d4e0a1b7c6411749,,,,,,,,,,,,./stim/wavs/mexican_match_declarative-broad-focus_Marta-abre-el-regalo.wav,0,,,196.0164,197.9822,0,1,1.4373,,0,61,61,61,1,62,0,mexican,,,,,,,,,,,,,,,,,,,,,,,,,,,,,,,,,,,,,,,,,,,,,,,,,,,,,,,,
,,,,,,,,,66536514443a3c5e8dda9208,Spanish,13 or older,"no, only English or Spanish",no,2025-07-24_08h03.26.592,empathy_intonation_perc_control,2024.2.4,MacIntel,59.52380952,66536514443a3c5e8dda9208,68817205a84113384fffdfe3,688220d5d4e0a1b7c6411749,,,,,,,,,,,,./stim/wavs/cuban_match_interrogative-total-yn_Manuela-vende-el-carro.wav,1,,,197.9827,200.1995,1,1,1.6882,,0,62,62,8,1,9,1,cuban,,,,,,,,,,,,,,,,,,,,,,,,,,,,,,,,,,,,,,,,,,,,,,,,,,,,,,,,
,,,,,,,,,66536514443a3c5e8dda9208,Spanish,13 or older,"no, only English or Spanish",no,2025-07-24_08h03.26.592,empathy_intonation_perc_control,2024.2.4,MacIntel,59.52380952,66536514443a3c5e8dda9208,68817205a84113384fffdfe3,688220d5d4e0a1b7c6411749,,,,,,,,,,,,./stim/wavs/puertorican_match_interrogative-total-yn_Daniel-iba-a-Bolivia.wav,1,,,200.2003,202.8832,1,1,2.1488,,0,63,63,19,1,20,1,puertorican,,,,,,,,,,,,,,,,,,,,,,,,,,,,,,,,,,,,,,,,,,,,,,,,,,,,,,,,
,,,,,,,,,66536514443a3c5e8dda9208,Spanish,13 or older,"no, only English or Spanish",no,2025-07-24_08h03.26.592,empathy_intonation_perc_control,2024.2.4,MacIntel,59.52380952,66536514443a3c5e8dda9208,68817205a84113384fffdfe3,688220d5d4e0a1b7c6411749,,,,,,,,,,,,./stim/wavs/mexican_match_interrogative-total-yn_Ana-lleva-el-abrigo.wav,1,,,202.884,204.9326,1,1,1.5255,,0,64,64,12,1,13,0,mexican,,,,,,,,,,,,,,,,,,,,,,,,,,,,,,,,,,,,,,,,,,,,,,,,,,,,,,,,
,,,,,,,,,66536514443a3c5e8dda9208,Spanish,13 or older,"no, only English or Spanish",no,2025-07-24_08h03.26.592,empathy_intonation_perc_control,2024.2.4,MacIntel,59.52380952,66536514443a3c5e8dda9208,68817205a84113384fffdfe3,688220d5d4e0a1b7c6411749,,,,,,,,,,,,./stim/wavs/mexican_match_declarative-broad-focus_Daniel-iba-a-Bolivia.wav,0,,,204.9333,207.2004,0,1,1.7329,,0,65,65,57,1,58,0,mexican,,,,,,,,,,,,,,,,,,,,,,,,,,,,,,,,,,,,,,,,,,,,,,,,,,,,,,,,
,,,,,,,,,66536514443a3c5e8dda9208,Spanish,13 or older,"no, only English or Spanish",no,2025-07-24_08h03.26.592,empathy_intonation_perc_control,2024.2.4,MacIntel,59.52380952,66536514443a3c5e8dda9208,68817205a84113384fffdfe3,688220d5d4e0a1b7c6411749,,,,,,,,,,,,./stim/wavs/puertorican_mismatch_declarative-broad-focus_El-hombre-mira-la-luna.wav,0,,,207.2013,209.4336,1,0,1.7051,,0,66,66,84,1,85,0,puertorican,,,,,,,,,,,,,,,,,,,,,,,,,,,,,,,,,,,,,,,,,,,,,,,,,,,,,,,,
,,,,,,,,,66536514443a3c5e8dda9208,Spanish,13 or older,"no, only English or Spanish",no,2025-07-24_08h03.26.592,empathy_intonation_perc_control,2024.2.4,MacIntel,59.52380952,66536514443a3c5e8dda9208,68817205a84113384fffdfe3,688220d5d4e0a1b7c6411749,,,,,,,,,,,,./stim/wavs/cuban_match_declarative-broad-focus_Daniel-iba-a-Bolivia.wav,0,,,209.4341,211.6497,0,1,1.6909,,0,67,67,51,1,52,0,cuban,,,,,,,,,,,,,,,,,,,,,,,,,,,,,,,,,,,,,,,,,,,,,,,,,,,,,,,,
,,,,,,,,,66536514443a3c5e8dda9208,Spanish,13 or older,"no, only English or Spanish",no,2025-07-24_08h03.26.592,empathy_intonation_perc_control,2024.2.4,MacIntel,59.52380952,66536514443a3c5e8dda9208,68817205a84113384fffdfe3,688220d5d4e0a1b7c6411749,,,,,,,,,,,,./stim/wavs/castilian_mismatch_interrogative-total-yn_La-nina-lava-el-plato.wav,1,,,211.6501,213.8672,1,1,1.7034,,0,68,68,25,1,26,0,castilian,,,,,,,,,,,,,,,,,,,,,,,,,,,,,,,,,,,,,,,,,,,,,,,,,,,,,,,,
,,,,,,,,,66536514443a3c5e8dda9208,Spanish,13 or older,"no, only English or Spanish",no,2025-07-24_08h03.26.592,empathy_intonation_perc_control,2024.2.4,MacIntel,59.52380952,66536514443a3c5e8dda9208,68817205a84113384fffdfe3,688220d5d4e0a1b7c6411749,,,,,,,,,,,,./stim/wavs/castilian_match_declarative-broad-focus_Maria-bebe-el-vino.wav,0,,,213.8678,216.2678,0,1,1.8769,,0,69,69,47,1,48,0,castilian,,,,,,,,,,,,,,,,,,,,,,,,,,,,,,,,,,,,,,,,,,,,,,,,,,,,,,,,
,,,,,,,,,66536514443a3c5e8dda9208,Spanish,13 or older,"no, only English or Spanish",no,2025-07-24_08h03.26.592,empathy_intonation_perc_control,2024.2.4,MacIntel,59.52380952,66536514443a3c5e8dda9208,68817205a84113384fffdfe3,688220d5d4e0a1b7c6411749,,,,,,,,,,,,./stim/wavs/puertorican_match_declarative-broad-focus_Manuela-vende-el-carro.wav,0,,,216.2683,218.4507,0,1,1.654,,0,70,70,66,1,67,0,puertorican,,,,,,,,,,,,,,,,,,,,,,,,,,,,,,,,,,,,,,,,,,,,,,,,,,,,,,,,
,,,,,,,,,66536514443a3c5e8dda9208,Spanish,13 or older,"no, only English or Spanish",no,2025-07-24_08h03.26.592,empathy_intonation_perc_control,2024.2.4,MacIntel,59.52380952,66536514443a3c5e8dda9208,68817205a84113384fffdfe3,688220d5d4e0a1b7c6411749,,,,,,,,,,,,./stim/wavs/cuban_match_declarative-broad-focus_Mariano-habla-del-tiempo.wav,0,,,218.4516,221.0831,0,1,2.1076,,0,71,71,54,1,55,0,cuban,,,,,,,,,,,,,,,,,,,,,,,,,,,,,,,,,,,,,,,,,,,,,,,,,,,,,,,,
,,,,,,,,,66536514443a3c5e8dda9208,Spanish,13 or older,"no, only English or Spanish",no,2025-07-24_08h03.26.592,empathy_intonation_perc_control,2024.2.4,MacIntel,59.52380952,66536514443a3c5e8dda9208,68817205a84113384fffdfe3,688220d5d4e0a1b7c6411749,,,,,,,,,,,,./stim/wavs/cuban_mismatch_declarative-broad-focus_Mi-tia-odia-la-lluvia.wav,0,,,221.0835,223.3849,0,1,1.7692,,0,72,72,77,1,78,0,cuban,,,,,,,,,,,,,,,,,,,,,,,,,,,,,,,,,,,,,,,,,,,,,,,,,,,,,,,,
,,,,,,,,,66536514443a3c5e8dda9208,Spanish,13 or older,"no, only English or Spanish",no,2025-07-24_08h03.26.592,empathy_intonation_perc_control,2024.2.4,MacIntel,59.52380952,66536514443a3c5e8dda9208,68817205a84113384fffdfe3,688220d5d4e0a1b7c6411749,,,,,,,,,,,,./stim/wavs/cuban_match_interrogative-total-yn_Maria-bebe-el-vino.wav,1,,,223.3854,225.8503,1,1,1.9389,,0,73,73,9,1,10,1,cuban,,,,,,,,,,,,,,,,,,,,,,,,,,,,,,,,,,,,,,,,,,,,,,,,,,,,,,,,
,,,,,,,,,66536514443a3c5e8dda9208,Spanish,13 or older,"no, only English or Spanish",no,2025-07-24_08h03.26.592,empathy_intonation_perc_control,2024.2.4,MacIntel,59.52380952,66536514443a3c5e8dda9208,68817205a84113384fffdfe3,688220d5d4e0a1b7c6411749,,,,,,,,,,,,./stim/wavs/mexican_mismatch_declarative-broad-focus_El-hombre-mira-la-luna.wav,0,,,225.8508,227.8022,0,1,1.4431,,0,74,74,79,1,80,0,mexican,,,,,,,,,,,,,,,,,,,,,,,,,,,,,,,,,,,,,,,,,,,,,,,,,,,,,,,,
,,,,,,,,,66536514443a3c5e8dda9208,Spanish,13 or older,"no, only English or Spanish",no,2025-07-24_08h03.26.592,empathy_intonation_perc_control,2024.2.4,MacIntel,59.52380952,66536514443a3c5e8dda9208,68817205a84113384fffdfe3,688220d5d4e0a1b7c6411749,,,,,,,,,,,,./stim/wavs/mexican_match_interrogative-total-yn_David-leia-el-libro.wav,1,,,227.8026,230.1183,1,1,1.7885,,0,75,75,14,1,15,0,mexican,,,,,,,,,,,,,,,,,,,,,,,,,,,,,,,,,,,,,,,,,,,,,,,,,,,,,,,,
,,,,,,,,,66536514443a3c5e8dda9208,Spanish,13 or older,"no, only English or Spanish",no,2025-07-24_08h03.26.592,empathy_intonation_perc_control,2024.2.4,MacIntel,59.52380952,66536514443a3c5e8dda9208,68817205a84113384fffdfe3,688220d5d4e0a1b7c6411749,,,,,,,,,,,,./stim/wavs/cuban_match_interrogative-total-yn_Daniel-iba-a-Bolivia.wav,1,,,230.1188,232.3186,0,0,1.6753,,0,76,76,7,1,8,1,cuban,,,,,,,,,,,,,,,,,,,,,,,,,,,,,,,,,,,,,,,,,,,,,,,,,,,,,,,,
,,,,,,,,,66536514443a3c5e8dda9208,Spanish,13 or older,"no, only English or Spanish",no,2025-07-24_08h03.26.592,empathy_intonation_perc_control,2024.2.4,MacIntel,59.52380952,66536514443a3c5e8dda9208,68817205a84113384fffdfe3,688220d5d4e0a1b7c6411749,,,,,,,,,,,,./stim/wavs/puertorican_mismatch_declarative-broad-focus_La-maestra-vive-en-Paris.wav,0,,,232.3191,234.5184,0,1,1.6667,,0,77,77,86,1,87,0,puertorican,,,,,,,,,,,,,,,,,,,,,,,,,,,,,,,,,,,,,,,,,,,,,,,,,,,,,,,,
,,,,,,,,,66536514443a3c5e8dda9208,Spanish,13 or older,"no, only English or Spanish",no,2025-07-24_08h03.26.592,empathy_intonation_perc_control,2024.2.4,MacIntel,59.52380952,66536514443a3c5e8dda9208,68817205a84113384fffdfe3,688220d5d4e0a1b7c6411749,,,,,,,,,,,,./stim/wavs/cuban_match_declarative-broad-focus_Ana-lleva-el-abrigo.wav,0,,,234.519,236.7687,0,1,1.7222,,0,78,78,50,1,51,0,cuban,,,,,,,,,,,,,,,,,,,,,,,,,,,,,,,,,,,,,,,,,,,,,,,,,,,,,,,,
,,,,,,,,,66536514443a3c5e8dda9208,Spanish,13 or older,"no, only English or Spanish",no,2025-07-24_08h03.26.592,empathy_intonation_perc_control,2024.2.4,MacIntel,59.52380952,66536514443a3c5e8dda9208,68817205a84113384fffdfe3,688220d5d4e0a1b7c6411749,,,,,,,,,,,,./stim/wavs/cuban_mismatch_declarative-broad-focus_Mi-novio-viene-del-lago.wav,0,,,236.7694,238.9014,0,1,1.6078,,0,79,79,76,1,77,0,cuban,,,,,,,,,,,,,,,,,,,,,,,,,,,,,,,,,,,,,,,,,,,,,,,,,,,,,,,,
,,,,,,,,,66536514443a3c5e8dda9208,Spanish,13 or older,"no, only English or Spanish",no,2025-07-24_08h03.26.592,empathy_intonation_perc_control,2024.2.4,MacIntel,59.52380952,66536514443a3c5e8dda9208,68817205a84113384fffdfe3,688220d5d4e0a1b7c6411749,,,,,,,,,,,,./stim/wavs/mexican_match_interrogative-total-yn_Marta-abre-el-regalo.wav,1,,,238.9021,240.8348,1,1,1.415,,0,80,80,17,1,18,0,mexican,,,,,,,,,,,,,,,,,,,,,,,,,,,,,,,,,,,,,,,,,,,,,,,,,,,,,,,,
,,,,,,,,,66536514443a3c5e8dda9208,Spanish,13 or older,"no, only English or Spanish",no,2025-07-24_08h03.26.592,empathy_intonation_perc_control,2024.2.4,MacIntel,59.52380952,66536514443a3c5e8dda9208,68817205a84113384fffdfe3,688220d5d4e0a1b7c6411749,,,,,,,,,,,,./stim/wavs/mexican_mismatch_interrogative-total-yn_La-maestra-vive-en-Paris.wav,1,,,240.8357,242.9848,1,1,1.6415,,0,81,81,36,1,37,0,mexican,,,,,,,,,,,,,,,,,,,,,,,,,,,,,,,,,,,,,,,,,,,,,,,,,,,,,,,,
,,,,,,,,,66536514443a3c5e8dda9208,Spanish,13 or older,"no, only English or Spanish",no,2025-07-24_08h03.26.592,empathy_intonation_perc_control,2024.2.4,MacIntel,59.52380952,66536514443a3c5e8dda9208,68817205a84113384fffdfe3,688220d5d4e0a1b7c6411749,,,,,,,,,,,,./stim/wavs/castilian_match_interrogative-total-yn_David-leia-el-libro.wav,1,,,242.9856,245.3187,1,1,1.8188,,0,82,82,0,1,1,0,castilian,,,,,,,,,,,,,,,,,,,,,,,,,,,,,,,,,,,,,,,,,,,,,,,,,,,,,,,,
,,,,,,,,,66536514443a3c5e8dda9208,Spanish,13 or older,"no, only English or Spanish",no,2025-07-24_08h03.26.592,empathy_intonation_perc_control,2024.2.4,MacIntel,59.52380952,66536514443a3c5e8dda9208,68817205a84113384fffdfe3,688220d5d4e0a1b7c6411749,,,,,,,,,,,,./stim/wavs/cuban_match_interrogative-total-yn_Ana-lleva-el-abrigo.wav,1,,,245.3194,247.4024,0,0,1.5726,,0,83,83,6,1,7,1,cuban,,,,,,,,,,,,,,,,,,,,,,,,,,,,,,,,,,,,,,,,,,,,,,,,,,,,,,,,
,,,,,,,,,66536514443a3c5e8dda9208,Spanish,13 or older,"no, only English or Spanish",no,2025-07-24_08h03.26.592,empathy_intonation_perc_control,2024.2.4,MacIntel,59.52380952,66536514443a3c5e8dda9208,68817205a84113384fffdfe3,688220d5d4e0a1b7c6411749,,,,,,,,,,,,./stim/wavs/puertorican_match_interrogative-total-yn_Emilio-ama-la-marcha.wav,1,,,247.4028,249.469,1,1,1.5486,,0,84,84,21,1,22,1,puertorican,,,,,,,,,,,,,,,,,,,,,,,,,,,,,,,,,,,,,,,,,,,,,,,,,,,,,,,,
,,,,,,,,,66536514443a3c5e8dda9208,Spanish,13 or older,"no, only English or Spanish",no,2025-07-24_08h03.26.592,empathy_intonation_perc_control,2024.2.4,MacIntel,59.52380952,66536514443a3c5e8dda9208,68817205a84113384fffdfe3,688220d5d4e0a1b7c6411749,,,,,,,,,,,,./stim/wavs/mexican_mismatch_interrogative-total-yn_El-nino-oye-el-rio.wav,1,,,249.4696,251.6188,1,1,1.6235,,0,85,85,35,1,36,0,mexican,,,,,,,,,,,,,,,,,,,,,,,,,,,,,,,,,,,,,,,,,,,,,,,,,,,,,,,,
,,,,,,,,,66536514443a3c5e8dda9208,Spanish,13 or older,"no, only English or Spanish",no,2025-07-24_08h03.26.592,empathy_intonation_perc_control,2024.2.4,MacIntel,59.52380952,66536514443a3c5e8dda9208,68817205a84113384fffdfe3,688220d5d4e0a1b7c6411749,,,,,,,,,,,,./stim/wavs/mexican_mismatch_interrogative-total-yn_Mi-novio-viene-del-lago.wav,1,,,251.6192,253.6866,1,1,1.5557,,0,86,86,37,1,38,0,mexican,,,,,,,,,,,,,,,,,,,,,,,,,,,,,,,,,,,,,,,,,,,,,,,,,,,,,,,,
,,,,,,,,,66536514443a3c5e8dda9208,Spanish,13 or older,"no, only English or Spanish",no,2025-07-24_08h03.26.592,empathy_intonation_perc_control,2024.2.4,MacIntel,59.52380952,66536514443a3c5e8dda9208,68817205a84113384fffdfe3,688220d5d4e0a1b7c6411749,,,,,,,,,,,,./stim/wavs/castilian_match_declarative-broad-focus_Manuela-vende-el-carro.wav,0,,,253.687,255.92,0,1,1.7047,,0,87,87,46,1,47,0,castilian,,,,,,,,,,,,,,,,,,,,,,,,,,,,,,,,,,,,,,,,,,,,,,,,,,,,,,,,
,,,,,,,"Great! Now we will move on. The next task consists of about 60 trials, in each of which you will see a string of letters. 
  
  Your task is to decide whether this is a real Spanish word or not.", (press the spacebar to continue),66536514443a3c5e8dda9208,Spanish,13 or older,"no, only English or Spanish",no,2025-07-24_08h03.26.592,empathy_intonation_perc_control,2024.2.4,MacIntel,59.52380952,66536514443a3c5e8dda9208,68817205a84113384fffdfe3,688220d5d4e0a1b7c6411749,,,,,,,,,,,,,,,,,,,,,,,,,,,,,,255.9256,268.1707,0,0,0,0,1,,,,,,,,,,,,,,,,,,,,,,,,,,,,,,,,,,,,,,,,,,,,,,,,,
,,,,,,,"If you think it is an existing Spanish word, you type '1' (for 'REAL'), and if you think it is not an existing Spanish word, you type '0' (for 'FAKE').", (press the spacebar to continue),66536514443a3c5e8dda9208,Spanish,13 or older,"no, only English or Spanish",no,2025-07-24_08h03.26.592,empathy_intonation_perc_control,2024.2.4,MacIntel,59.52380952,66536514443a3c5e8dda9208,68817205a84113384fffdfe3,688220d5d4e0a1b7c6411749,,,,,,,,,,,,,,,,,,,,,,,,,,,,,,268.1727,274.3874,0,1,1,1,1,,,,,,,,,,,,,,,,,,,,,,,,,,,,,,,,,,,,,,,,,,,,,,,,,
,,,,,,,"If you are sure that the word exists, even though you don’t know its exact meaning, you may still respond '1' (REAL). 
  
  But if you are not sure if it is an existing word, you should respond '0' (FAKE).
  
  Let's do a practice round...", (press the spacebar to continue),66536514443a3c5e8dda9208,Spanish,13 or older,"no, only English or Spanish",no,2025-07-24_08h03.26.592,empathy_intonation_perc_control,2024.2.4,MacIntel,59.52380952,66536514443a3c5e8dda9208,68817205a84113384fffdfe3,688220d5d4e0a1b7c6411749,,,,,,,,,,,,,,,,,,,,,,,,,,,,,,274.3889,294.456,0,2,2,2,1,,,,,,,,,,,,,,,,,,,,,,,,,,,,,,,,,,,,,,,,,,,,,,,,,
,,,,,,,,,66536514443a3c5e8dda9208,Spanish,13 or older,"no, only English or Spanish",no,2025-07-24_08h03.26.592,empathy_intonation_perc_control,2024.2.4,MacIntel,59.52380952,66536514443a3c5e8dda9208,68817205a84113384fffdfe3,688220d5d4e0a1b7c6411749,,,,,,,,,,,,,0,,,,,,,,,,,,,,,,,,,,,,,,294.4613,297.5054,1,0,2.5171,,297.5058,298.5065,0,0,0,0,1,0,depiste,REAL,FAKE,,,,,,,,,,,,,,,,,,,,,,,,,,,,,,,,
,,,,,,,,,66536514443a3c5e8dda9208,Spanish,13 or older,"no, only English or Spanish",no,2025-07-24_08h03.26.592,empathy_intonation_perc_control,2024.2.4,MacIntel,59.52380952,66536514443a3c5e8dda9208,68817205a84113384fffdfe3,688220d5d4e0a1b7c6411749,,,,,,,,,,,,,1,,,,,,,,,,,,,,,,,,,,,,,,298.5082,301.5229,1,1,2.4836,,301.5237,302.5233,0,1,1,1,1,0,sí,REAL,FAKE,,,,,,,,,,,,,,,,,,,,,,,,,,,,,,,,
,,,,,,,,,66536514443a3c5e8dda9208,Spanish,13 or older,"no, only English or Spanish",no,2025-07-24_08h03.26.592,empathy_intonation_perc_control,2024.2.4,MacIntel,59.52380952,66536514443a3c5e8dda9208,68817205a84113384fffdfe3,688220d5d4e0a1b7c6411749,,,,,,,,,,,,,0,,,,,,,,,,,,,,,,,,,,,,,,302.5249,304.8896,0,1,1.833,,304.8897,305.8901,0,2,2,2,1,0,coné,REAL,FAKE,,,,,,,,,,,,,,,,,,,,,,,,,,,,,,,,
,,,,,,,,,66536514443a3c5e8dda9208,Spanish,13 or older,"no, only English or Spanish",no,2025-07-24_08h03.26.592,empathy_intonation_perc_control,2024.2.4,MacIntel,59.52380952,66536514443a3c5e8dda9208,68817205a84113384fffdfe3,688220d5d4e0a1b7c6411749,,,,,,,,,,,,,0,,,,,,,,,,,,,,,,,,,,,,,,305.8917,307.9238,0,1,1.4965,,307.9238,308.9236,0,3,3,3,1,0,calpar,REAL,FAKE,,,,,,,,,,,,,,,,,,,,,,,,,,,,,,,,
,,,,,,,,,66536514443a3c5e8dda9208,Spanish,13 or older,"no, only English or Spanish",no,2025-07-24_08h03.26.592,empathy_intonation_perc_control,2024.2.4,MacIntel,59.52380952,66536514443a3c5e8dda9208,68817205a84113384fffdfe3,688220d5d4e0a1b7c6411749,,,,,,,,,,,,,0,,,,,,,,,,,,,,,,,,,,,,,,308.925,310.7236,0,1,1.2722,,310.7236,311.7239,0,4,4,4,1,0,joten,REAL,FAKE,,,,,,,,,,,,,,,,,,,,,,,,,,,,,,,,
,,,,,,,,,66536514443a3c5e8dda9208,Spanish,13 or older,"no, only English or Spanish",no,2025-07-24_08h03.26.592,empathy_intonation_perc_control,2024.2.4,MacIntel,59.52380952,66536514443a3c5e8dda9208,68817205a84113384fffdfe3,688220d5d4e0a1b7c6411749,,,,,,,,,,,,,1,,,,,,,,,,,,,,,,,,,,,,,,311.7254,313.9399,1,1,1.6839,,313.9401,314.9407,0,5,5,5,1,0,sacapuntas,REAL,FAKE,,,,,,,,,,,,,,,,,,,,,,,,,,,,,,,,
,,,,,,,,,66536514443a3c5e8dda9208,Spanish,13 or older,"no, only English or Spanish",no,2025-07-24_08h03.26.592,empathy_intonation_perc_control,2024.2.4,MacIntel,59.52380952,66536514443a3c5e8dda9208,68817205a84113384fffdfe3,688220d5d4e0a1b7c6411749,,,,,,,,,,,,,0,,,,,,,,,,,,,,,,,,,,,,,,314.9422,316.6243,0,1,1.1486,,316.6244,317.6244,0,6,6,6,1,0,priba,REAL,FAKE,,,,,,,,,,,,,,,,,,,,,,,,,,,,,,,,
,,,,,,,,,66536514443a3c5e8dda9208,Spanish,13 or older,"no, only English or Spanish",no,2025-07-24_08h03.26.592,empathy_intonation_perc_control,2024.2.4,MacIntel,59.52380952,66536514443a3c5e8dda9208,68817205a84113384fffdfe3,688220d5d4e0a1b7c6411749,,,,,,,,,,,,,0,,,,,,,,,,,,,,,,,,,,,,,,317.6254,319.5744,1,0,1.4089,,319.5757,320.5745,0,7,7,7,1,0,pelasula,REAL,FAKE,,,,,,,,,,,,,,,,,,,,,,,,,,,,,,,,
,,,,,,,,,66536514443a3c5e8dda9208,Spanish,13 or older,"no, only English or Spanish",no,2025-07-24_08h03.26.592,empathy_intonation_perc_control,2024.2.4,MacIntel,59.52380952,66536514443a3c5e8dda9208,68817205a84113384fffdfe3,688220d5d4e0a1b7c6411749,,,,,,,,,,,,,1,,,,,,,,,,,,,,,,,,,,,,,,320.5762,322.1246,1,1,1.0159,,322.1256,323.1248,0,8,8,8,1,0,bien,REAL,FAKE,,,,,,,,,,,,,,,,,,,,,,,,,,,,,,,,
,,,,,,,,,66536514443a3c5e8dda9208,Spanish,13 or older,"no, only English or Spanish",no,2025-07-24_08h03.26.592,empathy_intonation_perc_control,2024.2.4,MacIntel,59.52380952,66536514443a3c5e8dda9208,68817205a84113384fffdfe3,688220d5d4e0a1b7c6411749,,,,,,,,,,,,,1,,,,,,,,,,,,,,,,,,,,,,,,323.1264,324.7075,1,1,1.0466,,324.7075,325.7081,0,9,9,9,1,0,casa,REAL,FAKE,,,,,,,,,,,,,,,,,,,,,,,,,,,,,,,,
,,,,,,,,,66536514443a3c5e8dda9208,Spanish,13 or older,"no, only English or Spanish",no,2025-07-24_08h03.26.592,empathy_intonation_perc_control,2024.2.4,MacIntel,59.52380952,66536514443a3c5e8dda9208,68817205a84113384fffdfe3,688220d5d4e0a1b7c6411749,,,,,,,,,,,,,0,,,,,,,,,,,,,,,,,,,,,,,,325.7093,327.8082,0,1,1.567,,327.8084,328.8084,0,10,10,10,1,0,lejo,REAL,FAKE,,,,,,,,,,,,,,,,,,,,,,,,,,,,,,,,
,,,,,,,,,66536514443a3c5e8dda9208,Spanish,13 or older,"no, only English or Spanish",no,2025-07-24_08h03.26.592,empathy_intonation_perc_control,2024.2.4,MacIntel,59.52380952,66536514443a3c5e8dda9208,68817205a84113384fffdfe3,688220d5d4e0a1b7c6411749,,,,,,,,,,,,,0,,,,,,,,,,,,,,,,,,,,,,,,328.8099,330.9419,1,0,1.5952,,330.943,331.942,0,11,11,11,1,0,pretantas,REAL,FAKE,,,,,,,,,,,,,,,,,,,,,,,,,,,,,,,,
,,,,,,,,,66536514443a3c5e8dda9208,Spanish,13 or older,"no, only English or Spanish",no,2025-07-24_08h03.26.592,empathy_intonation_perc_control,2024.2.4,MacIntel,59.52380952,66536514443a3c5e8dda9208,68817205a84113384fffdfe3,688220d5d4e0a1b7c6411749,,,,,,,,,,,,,,,,,,,,,,,,,,,,,,,,,,,,,,,,,,,,,,,,,,,,,,331.9424,333.5588,,,,,,,,,,,,,,,,,,,,,,,,,,,,,,
,,,,,,,,,66536514443a3c5e8dda9208,Spanish,13 or older,"no, only English or Spanish",no,2025-07-24_08h03.26.592,empathy_intonation_perc_control,2024.2.4,MacIntel,59.52380952,66536514443a3c5e8dda9208,68817205a84113384fffdfe3,688220d5d4e0a1b7c6411749,,,,,,,,,,,,,0,,,,,,,,,,,,,,,,,,,,,,,,,,,,,,,,,,,,,53,vegada,,,,,333.5691,335.4589,1,0,1.3598,,0,0,0,52,1,REAL,FAKE,,,,,,,,,,,,,,,,,
,,,,,,,,,66536514443a3c5e8dda9208,Spanish,13 or older,"no, only English or Spanish",no,2025-07-24_08h03.26.592,empathy_intonation_perc_control,2024.2.4,MacIntel,59.52380952,66536514443a3c5e8dda9208,68817205a84113384fffdfe3,688220d5d4e0a1b7c6411749,,,,,,,,,,,,,0,,,,,,,,,,,,,,,,,,,,,,,,,,,,,,,,,,,,,87,grodo,,,,,335.4606,337.3087,0,1,1.3235,,0,1,1,86,1,REAL,FAKE,,,,,,,,,,,,,,,,,
,,,,,,,,,66536514443a3c5e8dda9208,Spanish,13 or older,"no, only English or Spanish",no,2025-07-24_08h03.26.592,empathy_intonation_perc_control,2024.2.4,MacIntel,59.52380952,66536514443a3c5e8dda9208,68817205a84113384fffdfe3,688220d5d4e0a1b7c6411749,,,,,,,,,,,,,1,,,,,,,,,,,,,,,,,,,,,,,,,,,,,,,,,,,,,26,secuestro,,,,,337.3096,338.7917,1,1,0.9528,,0,2,2,25,1,REAL,FAKE,,,,,,,,,,,,,,,,,
,,,,,,,,,66536514443a3c5e8dda9208,Spanish,13 or older,"no, only English or Spanish",no,2025-07-24_08h03.26.592,empathy_intonation_perc_control,2024.2.4,MacIntel,59.52380952,66536514443a3c5e8dda9208,68817205a84113384fffdfe3,688220d5d4e0a1b7c6411749,,,,,,,,,,,,,1,,,,,,,,,,,,,,,,,,,,,,,,,,,,,,,,,,,,,52,camisa,,,,,338.7929,340.7426,0,0,1.4307,,0,3,3,51,1,REAL,FAKE,,,,,,,,,,,,,,,,,
,,,,,,,,,66536514443a3c5e8dda9208,Spanish,13 or older,"no, only English or Spanish",no,2025-07-24_08h03.26.592,empathy_intonation_perc_control,2024.2.4,MacIntel,59.52380952,66536514443a3c5e8dda9208,68817205a84113384fffdfe3,688220d5d4e0a1b7c6411749,,,,,,,,,,,,,1,,,,,,,,,,,,,,,,,,,,,,,,,,,,,,,,,,,,,55,nevar,,,,,340.7438,342.3758,0,0,1.0971,,0,4,4,54,1,REAL,FAKE,,,,,,,,,,,,,,,,,
,,,,,,,,,66536514443a3c5e8dda9208,Spanish,13 or older,"no, only English or Spanish",no,2025-07-24_08h03.26.592,empathy_intonation_perc_control,2024.2.4,MacIntel,59.52380952,66536514443a3c5e8dda9208,68817205a84113384fffdfe3,688220d5d4e0a1b7c6411749,,,,,,,,,,,,,1,,,,,,,,,,,,,,,,,,,,,,,,,,,,,,,,,,,,,44,cuchara,,,,,342.3768,343.8584,1,1,0.9416,,0,5,5,43,1,REAL,FAKE,,,,,,,,,,,,,,,,,
,,,,,,,,,66536514443a3c5e8dda9208,Spanish,13 or older,"no, only English or Spanish",no,2025-07-24_08h03.26.592,empathy_intonation_perc_control,2024.2.4,MacIntel,59.52380952,66536514443a3c5e8dda9208,68817205a84113384fffdfe3,688220d5d4e0a1b7c6411749,,,,,,,,,,,,,1,,,,,,,,,,,,,,,,,,,,,,,,,,,,,,,,,,,,,3,pulmones,,,,,343.8598,346.3429,1,1,1.9533,,0,6,6,2,1,REAL,FAKE,,,,,,,,,,,,,,,,,
,,,,,,,,,66536514443a3c5e8dda9208,Spanish,13 or older,"no, only English or Spanish",no,2025-07-24_08h03.26.592,empathy_intonation_perc_control,2024.2.4,MacIntel,59.52380952,66536514443a3c5e8dda9208,68817205a84113384fffdfe3,688220d5d4e0a1b7c6411749,,,,,,,,,,,,,1,,,,,,,,,,,,,,,,,,,,,,,,,,,,,,,,,,,,,60,matar,,,,,346.3442,347.7252,0,0,0.8478,,0,7,7,59,1,REAL,FAKE,,,,,,,,,,,,,,,,,
,,,,,,,,,66536514443a3c5e8dda9208,Spanish,13 or older,"no, only English or Spanish",no,2025-07-24_08h03.26.592,empathy_intonation_perc_control,2024.2.4,MacIntel,59.52380952,66536514443a3c5e8dda9208,68817205a84113384fffdfe3,688220d5d4e0a1b7c6411749,,,,,,,,,,,,,0,,,,,,,,,,,,,,,,,,,,,,,,,,,,,,,,,,,,,32,fatacidad,,,,,347.7262,349.5261,1,0,1.2847,,0,8,8,31,1,REAL,FAKE,,,,,,,,,,,,,,,,,
,,,,,,,,,66536514443a3c5e8dda9208,Spanish,13 or older,"no, only English or Spanish",no,2025-07-24_08h03.26.592,empathy_intonation_perc_control,2024.2.4,MacIntel,59.52380952,66536514443a3c5e8dda9208,68817205a84113384fffdfe3,688220d5d4e0a1b7c6411749,,,,,,,,,,,,,1,,,,,,,,,,,,,,,,,,,,,,,,,,,,,,,,,,,,,64,orgulloso,,,,,349.5272,351.5266,0,0,1.4613,,0,9,9,63,1,REAL,FAKE,,,,,,,,,,,,,,,,,
,,,,,,,,,66536514443a3c5e8dda9208,Spanish,13 or older,"no, only English or Spanish",no,2025-07-24_08h03.26.592,empathy_intonation_perc_control,2024.2.4,MacIntel,59.52380952,66536514443a3c5e8dda9208,68817205a84113384fffdfe3,688220d5d4e0a1b7c6411749,,,,,,,,,,,,,1,,,,,,,,,,,,,,,,,,,,,,,,,,,,,,,,,,,,,73,hervidor,,,,,351.5281,353.4597,0,0,1.4036,,0,10,10,72,1,REAL,FAKE,,,,,,,,,,,,,,,,,
,,,,,,,,,66536514443a3c5e8dda9208,Spanish,13 or older,"no, only English or Spanish",no,2025-07-24_08h03.26.592,empathy_intonation_perc_control,2024.2.4,MacIntel,59.52380952,66536514443a3c5e8dda9208,68817205a84113384fffdfe3,688220d5d4e0a1b7c6411749,,,,,,,,,,,,,1,,,,,,,,,,,,,,,,,,,,,,,,,,,,,,,,,,,,,40,alfombra,,,,,353.4606,354.9268,1,1,0.9287,,0,11,11,39,1,REAL,FAKE,,,,,,,,,,,,,,,,,
,,,,,,,,,66536514443a3c5e8dda9208,Spanish,13 or older,"no, only English or Spanish",no,2025-07-24_08h03.26.592,empathy_intonation_perc_control,2024.2.4,MacIntel,59.52380952,66536514443a3c5e8dda9208,68817205a84113384fffdfe3,688220d5d4e0a1b7c6411749,,,,,,,,,,,,,1,,,,,,,,,,,,,,,,,,,,,,,,,,,,,,,,,,,,,49,ganar,,,,,354.9277,356.759,0,0,1.3034,,0,12,12,48,1,REAL,FAKE,,,,,,,,,,,,,,,,,
,,,,,,,,,66536514443a3c5e8dda9208,Spanish,13 or older,"no, only English or Spanish",no,2025-07-24_08h03.26.592,empathy_intonation_perc_control,2024.2.4,MacIntel,59.52380952,66536514443a3c5e8dda9208,68817205a84113384fffdfe3,688220d5d4e0a1b7c6411749,,,,,,,,,,,,,1,,,,,,,,,,,,,,,,,,,,,,,,,,,,,,,,,,,,,78,frondoso,,,,,356.7599,358.3436,1,1,1.0648,,0,13,13,77,1,REAL,FAKE,,,,,,,,,,,,,,,,,
,,,,,,,,,66536514443a3c5e8dda9208,Spanish,13 or older,"no, only English or Spanish",no,2025-07-24_08h03.26.592,empathy_intonation_perc_control,2024.2.4,MacIntel,59.52380952,66536514443a3c5e8dda9208,68817205a84113384fffdfe3,688220d5d4e0a1b7c6411749,,,,,,,,,,,,,0,,,,,,,,,,,,,,,,,,,,,,,,,,,,,,,,,,,,,4,batillón,,,,,358.3449,360.4766,0,1,1.6008,,0,14,14,3,1,REAL,FAKE,,,,,,,,,,,,,,,,,
,,,,,,,,,66536514443a3c5e8dda9208,Spanish,13 or older,"no, only English or Spanish",no,2025-07-24_08h03.26.592,empathy_intonation_perc_control,2024.2.4,MacIntel,59.52380952,66536514443a3c5e8dda9208,68817205a84113384fffdfe3,688220d5d4e0a1b7c6411749,,,,,,,,,,,,,1,,,,,,,,,,,,,,,,,,,,,,,,,,,,,,,,,,,,,83,guante,,,,,360.4775,363.3606,1,1,2.3485,,0,15,15,82,1,REAL,FAKE,,,,,,,,,,,,,,,,,
,,,,,,,,,66536514443a3c5e8dda9208,Spanish,13 or older,"no, only English or Spanish",no,2025-07-24_08h03.26.592,empathy_intonation_perc_control,2024.2.4,MacIntel,59.52380952,66536514443a3c5e8dda9208,68817205a84113384fffdfe3,688220d5d4e0a1b7c6411749,,,,,,,,,,,,,0,,,,,,,,,,,,,,,,,,,,,,,,,,,,,,,,,,,,,18,arsa,,,,,363.362,365.144,1,0,1.2492,,0,16,16,17,1,REAL,FAKE,,,,,,,,,,,,,,,,,
,,,,,,,,,66536514443a3c5e8dda9208,Spanish,13 or older,"no, only English or Spanish",no,2025-07-24_08h03.26.592,empathy_intonation_perc_control,2024.2.4,MacIntel,59.52380952,66536514443a3c5e8dda9208,68817205a84113384fffdfe3,688220d5d4e0a1b7c6411749,,,,,,,,,,,,,1,,,,,,,,,,,,,,,,,,,,,,,,,,,,,,,,,,,,,80,hormiga,,,,,365.1448,366.8109,0,0,1.1308,,0,17,17,79,1,REAL,FAKE,,,,,,,,,,,,,,,,,
,,,,,,,,,66536514443a3c5e8dda9208,Spanish,13 or older,"no, only English or Spanish",no,2025-07-24_08h03.26.592,empathy_intonation_perc_control,2024.2.4,MacIntel,59.52380952,66536514443a3c5e8dda9208,68817205a84113384fffdfe3,688220d5d4e0a1b7c6411749,,,,,,,,,,,,,1,,,,,,,,,,,,,,,,,,,,,,,,,,,,,,,,,,,,,62,flaco,,,,,366.8121,368.3611,0,0,1.011,,0,18,18,61,1,REAL,FAKE,,,,,,,,,,,,,,,,,
,,,,,,,,,66536514443a3c5e8dda9208,Spanish,13 or older,"no, only English or Spanish",no,2025-07-24_08h03.26.592,empathy_intonation_perc_control,2024.2.4,MacIntel,59.52380952,66536514443a3c5e8dda9208,68817205a84113384fffdfe3,688220d5d4e0a1b7c6411749,,,,,,,,,,,,,1,,,,,,,,,,,,,,,,,,,,,,,,,,,,,,,,,,,,,90,clavel,,,,,368.3621,369.9608,1,1,1.0658,,0,19,19,89,1,REAL,FAKE,,,,,,,,,,,,,,,,,
,,,,,,,,,66536514443a3c5e8dda9208,Spanish,13 or older,"no, only English or Spanish",no,2025-07-24_08h03.26.592,empathy_intonation_perc_control,2024.2.4,MacIntel,59.52380952,66536514443a3c5e8dda9208,68817205a84113384fffdfe3,688220d5d4e0a1b7c6411749,,,,,,,,,,,,,1,,,,,,,,,,,,,,,,,,,,,,,,,,,,,,,,,,,,,89,prisa,,,,,369.9623,371.5946,1,1,1.0957,,0,20,20,88,1,REAL,FAKE,,,,,,,,,,,,,,,,,
,,,,,,,,,66536514443a3c5e8dda9208,Spanish,13 or older,"no, only English or Spanish",no,2025-07-24_08h03.26.592,empathy_intonation_perc_control,2024.2.4,MacIntel,59.52380952,66536514443a3c5e8dda9208,68817205a84113384fffdfe3,688220d5d4e0a1b7c6411749,,,,,,,,,,,,,1,,,,,,,,,,,,,,,,,,,,,,,,,,,,,,,,,,,,,14,yunque,,,,,371.5961,372.911,0,0,0.7846,,0,21,21,13,1,REAL,FAKE,,,,,,,,,,,,,,,,,
,,,,,,,,,66536514443a3c5e8dda9208,Spanish,13 or older,"no, only English or Spanish",no,2025-07-24_08h03.26.592,empathy_intonation_perc_control,2024.2.4,MacIntel,59.52380952,66536514443a3c5e8dda9208,68817205a84113384fffdfe3,688220d5d4e0a1b7c6411749,,,,,,,,,,,,,0,,,,,,,,,,,,,,,,,,,,,,,,,,,,,,,,,,,,,35,rompido,,,,,372.912,374.6279,0,1,1.1785,,0,22,22,34,1,REAL,FAKE,,,,,,,,,,,,,,,,,
,,,,,,,,,66536514443a3c5e8dda9208,Spanish,13 or older,"no, only English or Spanish",no,2025-07-24_08h03.26.592,empathy_intonation_perc_control,2024.2.4,MacIntel,59.52380952,66536514443a3c5e8dda9208,68817205a84113384fffdfe3,688220d5d4e0a1b7c6411749,,,,,,,,,,,,,0,,,,,,,,,,,,,,,,,,,,,,,,,,,,,,,,,,,,,8,cadeña,,,,,374.629,376.0271,1,0,0.8695,,0,23,23,7,1,REAL,FAKE,,,,,,,,,,,,,,,,,
,,,,,,,,,66536514443a3c5e8dda9208,Spanish,13 or older,"no, only English or Spanish",no,2025-07-24_08h03.26.592,empathy_intonation_perc_control,2024.2.4,MacIntel,59.52380952,66536514443a3c5e8dda9208,68817205a84113384fffdfe3,688220d5d4e0a1b7c6411749,,,,,,,,,,,,,1,,,,,,,,,,,,,,,,,,,,,,,,,,,,,,,,,,,,,25,bisagra,,,,,376.0283,377.9618,1,1,1.4217,,0,24,24,24,1,REAL,FAKE,,,,,,,,,,,,,,,,,
,,,,,,,,,66536514443a3c5e8dda9208,Spanish,13 or older,"no, only English or Spanish",no,2025-07-24_08h03.26.592,empathy_intonation_perc_control,2024.2.4,MacIntel,59.52380952,66536514443a3c5e8dda9208,68817205a84113384fffdfe3,688220d5d4e0a1b7c6411749,,,,,,,,,,,,,1,,,,,,,,,,,,,,,,,,,,,,,,,,,,,,,,,,,,,9,hacha,,,,,377.9628,379.6115,0,0,1.1188,,0,25,25,8,1,REAL,FAKE,,,,,,,,,,,,,,,,,
,,,,,,,,,66536514443a3c5e8dda9208,Spanish,13 or older,"no, only English or Spanish",no,2025-07-24_08h03.26.592,empathy_intonation_perc_control,2024.2.4,MacIntel,59.52380952,66536514443a3c5e8dda9208,68817205a84113384fffdfe3,688220d5d4e0a1b7c6411749,,,,,,,,,,,,,1,,,,,,,,,,,,,,,,,,,,,,,,,,,,,,,,,,,,,48,ladrón,,,,,379.613,381.8449,1,1,1.7044,,0,26,26,47,1,REAL,FAKE,,,,,,,,,,,,,,,,,
,,,,,,,,,66536514443a3c5e8dda9208,Spanish,13 or older,"no, only English or Spanish",no,2025-07-24_08h03.26.592,empathy_intonation_perc_control,2024.2.4,MacIntel,59.52380952,66536514443a3c5e8dda9208,68817205a84113384fffdfe3,688220d5d4e0a1b7c6411749,,,,,,,,,,,,,1,,,,,,,,,,,,,,,,,,,,,,,,,,,,,,,,,,,,,38,estornudar,,,,,381.846,383.4289,1,1,1.0418,,0,27,27,37,1,REAL,FAKE,,,,,,,,,,,,,,,,,
,,,,,,,,,66536514443a3c5e8dda9208,Spanish,13 or older,"no, only English or Spanish",no,2025-07-24_08h03.26.592,empathy_intonation_perc_control,2024.2.4,MacIntel,59.52380952,66536514443a3c5e8dda9208,68817205a84113384fffdfe3,688220d5d4e0a1b7c6411749,,,,,,,,,,,,,0,,,,,,,,,,,,,,,,,,,,,,,,,,,,,,,,,,,,,74,cintro,,,,,383.4302,384.8121,1,0,0.8493,,0,28,28,73,1,REAL,FAKE,,,,,,,,,,,,,,,,,
,,,,,,,,,66536514443a3c5e8dda9208,Spanish,13 or older,"no, only English or Spanish",no,2025-07-24_08h03.26.592,empathy_intonation_perc_control,2024.2.4,MacIntel,59.52380952,66536514443a3c5e8dda9208,68817205a84113384fffdfe3,688220d5d4e0a1b7c6411749,,,,,,,,,,,,,1,,,,,,,,,,,,,,,,,,,,,,,,,,,,,,,,,,,,,31,pandilla,,,,,384.8132,386.512,1,1,1.1705,,0,29,29,30,1,REAL,FAKE,,,,,,,,,,,,,,,,,
,,,,,,,,,66536514443a3c5e8dda9208,Spanish,13 or older,"no, only English or Spanish",no,2025-07-24_08h03.26.592,empathy_intonation_perc_control,2024.2.4,MacIntel,59.52380952,66536514443a3c5e8dda9208,68817205a84113384fffdfe3,688220d5d4e0a1b7c6411749,,,,,,,,,,,,,1,,,,,,,,,,,,,,,,,,,,,,,,,,,,,,,,,,,,,46,martillo,,,,,386.5133,387.6453,0,0,0.6039,,0,30,30,45,1,REAL,FAKE,,,,,,,,,,,,,,,,,
,,,,,,,,,66536514443a3c5e8dda9208,Spanish,13 or older,"no, only English or Spanish",no,2025-07-24_08h03.26.592,empathy_intonation_perc_control,2024.2.4,MacIntel,59.52380952,66536514443a3c5e8dda9208,68817205a84113384fffdfe3,688220d5d4e0a1b7c6411749,,,,,,,,,,,,,1,,,,,,,,,,,,,,,,,,,,,,,,,,,,,,,,,,,,,39,torpe,,,,,387.6464,389.0619,0,0,0.9051,,0,31,31,38,1,REAL,FAKE,,,,,,,,,,,,,,,,,
,,,,,,,,,66536514443a3c5e8dda9208,Spanish,13 or older,"no, only English or Spanish",no,2025-07-24_08h03.26.592,empathy_intonation_perc_control,2024.2.4,MacIntel,59.52380952,66536514443a3c5e8dda9208,68817205a84113384fffdfe3,688220d5d4e0a1b7c6411749,,,,,,,,,,,,,0,,,,,,,,,,,,,,,,,,,,,,,,,,,,,,,,,,,,,47,cartinar,,,,,389.0635,391.3623,0,1,1.7708,,0,32,32,46,1,REAL,FAKE,,,,,,,,,,,,,,,,,
,,,,,,,,,66536514443a3c5e8dda9208,Spanish,13 or older,"no, only English or Spanish",no,2025-07-24_08h03.26.592,empathy_intonation_perc_control,2024.2.4,MacIntel,59.52380952,66536514443a3c5e8dda9208,68817205a84113384fffdfe3,688220d5d4e0a1b7c6411749,,,,,,,,,,,,,1,,,,,,,,,,,,,,,,,,,,,,,,,,,,,,,,,,,,,61,seda,,,,,391.3633,392.6786,1,1,0.7825,,0,33,33,60,1,REAL,FAKE,,,,,,,,,,,,,,,,,
,,,,,,,,,66536514443a3c5e8dda9208,Spanish,13 or older,"no, only English or Spanish",no,2025-07-24_08h03.26.592,empathy_intonation_perc_control,2024.2.4,MacIntel,59.52380952,66536514443a3c5e8dda9208,68817205a84113384fffdfe3,688220d5d4e0a1b7c6411749,,,,,,,,,,,,,1,,,,,,,,,,,,,,,,,,,,,,,,,,,,,,,,,,,,,7,pésimo,,,,,392.6794,394.5126,1,1,1.3155,,0,34,34,6,1,REAL,FAKE,,,,,,,,,,,,,,,,,
,,,,,,,,,66536514443a3c5e8dda9208,Spanish,13 or older,"no, only English or Spanish",no,2025-07-24_08h03.26.592,empathy_intonation_perc_control,2024.2.4,MacIntel,59.52380952,66536514443a3c5e8dda9208,68817205a84113384fffdfe3,688220d5d4e0a1b7c6411749,,,,,,,,,,,,,1,,,,,,,,,,,,,,,,,,,,,,,,,,,,,,,,,,,,,86,barato,,,,,394.5137,396.1295,0,0,1.0817,,0,35,35,85,1,REAL,FAKE,,,,,,,,,,,,,,,,,
,,,,,,,,,66536514443a3c5e8dda9208,Spanish,13 or older,"no, only English or Spanish",no,2025-07-24_08h03.26.592,empathy_intonation_perc_control,2024.2.4,MacIntel,59.52380952,66536514443a3c5e8dda9208,68817205a84113384fffdfe3,688220d5d4e0a1b7c6411749,,,,,,,,,,,,,1,,,,,,,,,,,,,,,,,,,,,,,,,,,,,,,,,,,,,34,aviso,,,,,396.1307,398.1463,1,1,1.4845,,0,36,36,33,1,REAL,FAKE,,,,,,,,,,,,,,,,,
,,,,,,,,,66536514443a3c5e8dda9208,Spanish,13 or older,"no, only English or Spanish",no,2025-07-24_08h03.26.592,empathy_intonation_perc_control,2024.2.4,MacIntel,59.52380952,66536514443a3c5e8dda9208,68817205a84113384fffdfe3,688220d5d4e0a1b7c6411749,,,,,,,,,,,,,1,,,,,,,,,,,,,,,,,,,,,,,,,,,,,,,,,,,,,28,merodear,,,,,398.1475,399.6629,0,0,0.9821,,0,37,37,27,1,REAL,FAKE,,,,,,,,,,,,,,,,,
,,,,,,,,,66536514443a3c5e8dda9208,Spanish,13 or older,"no, only English or Spanish",no,2025-07-24_08h03.26.592,empathy_intonation_perc_control,2024.2.4,MacIntel,59.52380952,66536514443a3c5e8dda9208,68817205a84113384fffdfe3,688220d5d4e0a1b7c6411749,,,,,,,,,,,,,0,,,,,,,,,,,,,,,,,,,,,,,,,,,,,,,,,,,,,58,plaudir,,,,,399.664,401.1465,0,1,0.9494,,0,38,38,57,1,REAL,FAKE,,,,,,,,,,,,,,,,,
,,,,,,,,,66536514443a3c5e8dda9208,Spanish,13 or older,"no, only English or Spanish",no,2025-07-24_08h03.26.592,empathy_intonation_perc_control,2024.2.4,MacIntel,59.52380952,66536514443a3c5e8dda9208,68817205a84113384fffdfe3,688220d5d4e0a1b7c6411749,,,,,,,,,,,,,1,,,,,,,,,,,,,,,,,,,,,,,,,,,,,,,,,,,,,22,lacayo,,,,,401.1477,403.0967,1,1,1.4147,,0,39,39,21,1,REAL,FAKE,,,,,,,,,,,,,,,,,
,,,,,,,,,66536514443a3c5e8dda9208,Spanish,13 or older,"no, only English or Spanish",no,2025-07-24_08h03.26.592,empathy_intonation_perc_control,2024.2.4,MacIntel,59.52380952,66536514443a3c5e8dda9208,68817205a84113384fffdfe3,688220d5d4e0a1b7c6411749,,,,,,,,,,,,,1,,,,,,,,,,,,,,,,,,,,,,,,,,,,,,,,,,,,,59,besar,,,,,403.098,404.4967,1,1,0.8649,,0,40,40,58,1,REAL,FAKE,,,,,,,,,,,,,,,,,
,,,,,,,,,66536514443a3c5e8dda9208,Spanish,13 or older,"no, only English or Spanish",no,2025-07-24_08h03.26.592,empathy_intonation_perc_control,2024.2.4,MacIntel,59.52380952,66536514443a3c5e8dda9208,68817205a84113384fffdfe3,688220d5d4e0a1b7c6411749,,,,,,,,,,,,,0,,,,,,,,,,,,,,,,,,,,,,,,,,,,,,,,,,,,,63,esposante,,,,,404.4978,405.9468,1,0,0.9165,,0,41,41,62,1,REAL,FAKE,,,,,,,,,,,,,,,,,
,,,,,,,,,66536514443a3c5e8dda9208,Spanish,13 or older,"no, only English or Spanish",no,2025-07-24_08h03.26.592,empathy_intonation_perc_control,2024.2.4,MacIntel,59.52380952,66536514443a3c5e8dda9208,68817205a84113384fffdfe3,688220d5d4e0a1b7c6411749,,,,,,,,,,,,,1,,,,,,,,,,,,,,,,,,,,,,,,,,,,,,,,,,,,,37,granuja,,,,,405.9476,407.7805,1,1,1.2973,,0,42,42,36,1,REAL,FAKE,,,,,,,,,,,,,,,,,
,,,,,,,,,66536514443a3c5e8dda9208,Spanish,13 or older,"no, only English or Spanish",no,2025-07-24_08h03.26.592,empathy_intonation_perc_control,2024.2.4,MacIntel,59.52380952,66536514443a3c5e8dda9208,68817205a84113384fffdfe3,688220d5d4e0a1b7c6411749,,,,,,,,,,,,,1,,,,,,,,,,,,,,,,,,,,,,,,,,,,,,,,,,,,,67,cabello,,,,,407.782,408.9798,0,0,0.668,,0,43,43,66,1,REAL,FAKE,,,,,,,,,,,,,,,,,
,,,,,,,,,66536514443a3c5e8dda9208,Spanish,13 or older,"no, only English or Spanish",no,2025-07-24_08h03.26.592,empathy_intonation_perc_control,2024.2.4,MacIntel,59.52380952,66536514443a3c5e8dda9208,68817205a84113384fffdfe3,688220d5d4e0a1b7c6411749,,,,,,,,,,,,,1,,,,,,,,,,,,,,,,,,,,,,,,,,,,,,,,,,,,,77,tiburón,,,,,408.9811,410.9971,0,0,1.4993,,0,44,44,76,1,REAL,FAKE,,,,,,,,,,,,,,,,,
,,,,,,,,,66536514443a3c5e8dda9208,Spanish,13 or older,"no, only English or Spanish",no,2025-07-24_08h03.26.592,empathy_intonation_perc_control,2024.2.4,MacIntel,59.52380952,66536514443a3c5e8dda9208,68817205a84113384fffdfe3,688220d5d4e0a1b7c6411749,,,,,,,,,,,,,0,,,,,,,,,,,,,,,,,,,,,,,,,,,,,,,,,,,,,42,cadallo,,,,,410.9986,413.0307,1,0,1.4921,,0,45,45,41,1,REAL,FAKE,,,,,,,,,,,,,,,,,
,,,,,,,,,66536514443a3c5e8dda9208,Spanish,13 or older,"no, only English or Spanish",no,2025-07-24_08h03.26.592,empathy_intonation_perc_control,2024.2.4,MacIntel,59.52380952,66536514443a3c5e8dda9208,68817205a84113384fffdfe3,688220d5d4e0a1b7c6411749,,,,,,,,,,,,,1,,,,,,,,,,,,,,,,,,,,,,,,,,,,,,,,,,,,,71,polvoriento,,,,,413.0321,415.4296,0,0,1.8671,,0,46,46,70,1,REAL,FAKE,,,,,,,,,,,,,,,,,
,,,,,,,,,66536514443a3c5e8dda9208,Spanish,13 or older,"no, only English or Spanish",no,2025-07-24_08h03.26.592,empathy_intonation_perc_control,2024.2.4,MacIntel,59.52380952,66536514443a3c5e8dda9208,68817205a84113384fffdfe3,688220d5d4e0a1b7c6411749,,,,,,,,,,,,,0,,,,,,,,,,,,,,,,,,,,,,,,,,,,,,,,,,,,,29,decar,,,,,415.4308,417.3804,0,1,1.4156,,0,47,47,28,1,REAL,FAKE,,,,,,,,,,,,,,,,,
,,,,,,,,,66536514443a3c5e8dda9208,Spanish,13 or older,"no, only English or Spanish",no,2025-07-24_08h03.26.592,empathy_intonation_perc_control,2024.2.4,MacIntel,59.52380952,66536514443a3c5e8dda9208,68817205a84113384fffdfe3,688220d5d4e0a1b7c6411749,,,,,,,,,,,,,1,,,,,,,,,,,,,,,,,,,,,,,,,,,,,,,,,,,,,41,rebuscar,,,,,417.381,419.0143,0,0,1.117,,0,48,48,40,1,REAL,FAKE,,,,,,,,,,,,,,,,,
,,,,,,,,,66536514443a3c5e8dda9208,Spanish,13 or older,"no, only English or Spanish",no,2025-07-24_08h03.26.592,empathy_intonation_perc_control,2024.2.4,MacIntel,59.52380952,66536514443a3c5e8dda9208,68817205a84113384fffdfe3,688220d5d4e0a1b7c6411749,,,,,,,,,,,,,0,,,,,,,,,,,,,,,,,,,,,,,,,,,,,,,,,,,,,27,acutación,,,,,419.0155,420.6134,1,0,1.0673,,0,49,49,26,1,REAL,FAKE,,,,,,,,,,,,,,,,,
,,,,,,,,,66536514443a3c5e8dda9208,Spanish,13 or older,"no, only English or Spanish",no,2025-07-24_08h03.26.592,empathy_intonation_perc_control,2024.2.4,MacIntel,59.52380952,66536514443a3c5e8dda9208,68817205a84113384fffdfe3,688220d5d4e0a1b7c6411749,,,,,,,,,,,,,1,,,,,,,,,,,,,,,,,,,,,,,,,,,,,,,,,,,,,54,fomentar,,,,,420.6145,422.1148,0,0,0.9621,,0,50,50,53,1,REAL,FAKE,,,,,,,,,,,,,,,,,
,,,,,,,,,66536514443a3c5e8dda9208,Spanish,13 or older,"no, only English or Spanish",no,2025-07-24_08h03.26.592,empathy_intonation_perc_control,2024.2.4,MacIntel,59.52380952,66536514443a3c5e8dda9208,68817205a84113384fffdfe3,688220d5d4e0a1b7c6411749,,,,,,,,,,,,,0,,,,,,,,,,,,,,,,,,,,,,,,,,,,,,,,,,,,,16,abracer,,,,,422.116,423.548,0,1,0.9064,,0,51,51,15,1,REAL,FAKE,,,,,,,,,,,,,,,,,
,,,,,,,,,66536514443a3c5e8dda9208,Spanish,13 or older,"no, only English or Spanish",no,2025-07-24_08h03.26.592,empathy_intonation_perc_control,2024.2.4,MacIntel,59.52380952,66536514443a3c5e8dda9208,68817205a84113384fffdfe3,688220d5d4e0a1b7c6411749,,,,,,,,,,,,,0,,,,,,,,,,,,,,,,,,,,,,,,,,,,,,,,,,,,,10,antar,,,,,423.5498,425.2477,1,0,1.1728,,0,52,52,9,1,REAL,FAKE,,,,,,,,,,,,,,,,,
,,,,,,,,,66536514443a3c5e8dda9208,Spanish,13 or older,"no, only English or Spanish",no,2025-07-24_08h03.26.592,empathy_intonation_perc_control,2024.2.4,MacIntel,59.52380952,66536514443a3c5e8dda9208,68817205a84113384fffdfe3,688220d5d4e0a1b7c6411749,,,,,,,,,,,,,1,,,,,,,,,,,,,,,,,,,,,,,,,,,,,,,,,,,,,2,pellizcar,,,,,425.2497,426.8636,0,0,1.0822,,0,53,53,1,1,REAL,FAKE,,,,,,,,,,,,,,,,,
,,,,,,,,,66536514443a3c5e8dda9208,Spanish,13 or older,"no, only English or Spanish",no,2025-07-24_08h03.26.592,empathy_intonation_perc_control,2024.2.4,MacIntel,59.52380952,66536514443a3c5e8dda9208,68817205a84113384fffdfe3,688220d5d4e0a1b7c6411749,,,,,,,,,,,,,0,,,,,,,,,,,,,,,,,,,,,,,,,,,,,,,,,,,,,19,brecedad,,,,,426.8646,428.2489,1,0,0.8706,,0,54,54,18,1,REAL,FAKE,,,,,,,,,,,,,,,,,
,,,,,,,,,66536514443a3c5e8dda9208,Spanish,13 or older,"no, only English or Spanish",no,2025-07-24_08h03.26.592,empathy_intonation_perc_control,2024.2.4,MacIntel,59.52380952,66536514443a3c5e8dda9208,68817205a84113384fffdfe3,688220d5d4e0a1b7c6411749,,,,,,,,,,,,,0,,,,,,,,,,,,,,,,,,,,,,,,,,,,,,,,,,,,,72,pemición,,,,,428.2509,429.7819,1,0,0.9965,,0,55,55,71,1,REAL,FAKE,,,,,,,,,,,,,,,,,
,,,,,,,,,66536514443a3c5e8dda9208,Spanish,13 or older,"no, only English or Spanish",no,2025-07-24_08h03.26.592,empathy_intonation_perc_control,2024.2.4,MacIntel,59.52380952,66536514443a3c5e8dda9208,68817205a84113384fffdfe3,688220d5d4e0a1b7c6411749,,,,,,,,,,,,,1,,,,,,,,,,,,,,,,,,,,,,,,,,,,,,,,,,,,,65,bizcocho,,,,,429.7831,431.3651,0,0,1.0506,,0,56,56,64,1,REAL,FAKE,,,,,,,,,,,,,,,,,
,,,,,,,,,66536514443a3c5e8dda9208,Spanish,13 or older,"no, only English or Spanish",no,2025-07-24_08h03.26.592,empathy_intonation_perc_control,2024.2.4,MacIntel,59.52380952,66536514443a3c5e8dda9208,68817205a84113384fffdfe3,688220d5d4e0a1b7c6411749,,,,,,,,,,,,,1,,,,,,,,,,,,,,,,,,,,,,,,,,,,,,,,,,,,,69,engatusar,,,,,431.3664,433.5975,1,1,1.6978,,0,57,57,68,1,REAL,FAKE,,,,,,,,,,,,,,,,,
,,,,,,,,,66536514443a3c5e8dda9208,Spanish,13 or older,"no, only English or Spanish",no,2025-07-24_08h03.26.592,empathy_intonation_perc_control,2024.2.4,MacIntel,59.52380952,66536514443a3c5e8dda9208,68817205a84113384fffdfe3,688220d5d4e0a1b7c6411749,,,,,,,,,,,,,0,,,,,,,,,,,,,,,,,,,,,,,,,,,,,,,,,,,,,66,hacido,,,,,433.5986,435.4816,1,0,1.3658,,0,58,58,65,1,REAL,FAKE,,,,,,,,,,,,,,,,,
,,,,,,,,,66536514443a3c5e8dda9208,Spanish,13 or older,"no, only English or Spanish",no,2025-07-24_08h03.26.592,empathy_intonation_perc_control,2024.2.4,MacIntel,59.52380952,66536514443a3c5e8dda9208,68817205a84113384fffdfe3,688220d5d4e0a1b7c6411749,,,,,,,,,,,,,0,,,,,,,,,,,,,,,,,,,,,,,,,,,,,,,,,,,,,23,lampera,,,,,435.4824,437.8648,0,1,1.8686,,0,59,59,22,1,REAL,FAKE,,,,,,,,,,,,,,,,,
,,,,,,,,,66536514443a3c5e8dda9208,Spanish,13 or older,"no, only English or Spanish",no,2025-07-24_08h03.26.592,empathy_intonation_perc_control,2024.2.4,MacIntel,59.52380952,66536514443a3c5e8dda9208,68817205a84113384fffdfe3,688220d5d4e0a1b7c6411749,,,,,,,,,,,,,1,,,,,,,,,,,,,,,,,,,,,,,,,,,,,,,,,,,,,36,loro,,,,,437.8658,439.2824,1,1,0.8966,,0,60,60,35,1,REAL,FAKE,,,,,,,,,,,,,,,,,
,,,,,,,,,66536514443a3c5e8dda9208,Spanish,13 or older,"no, only English or Spanish",no,2025-07-24_08h03.26.592,empathy_intonation_perc_control,2024.2.4,MacIntel,59.52380952,66536514443a3c5e8dda9208,68817205a84113384fffdfe3,688220d5d4e0a1b7c6411749,,,,,,,,,,,,,0,,,,,,,,,,,,,,,,,,,,,,,,,,,,,,,,,,,,,33,pauca,,,,,439.2838,440.6825,0,1,0.8601,,0,61,61,32,1,REAL,FAKE,,,,,,,,,,,,,,,,,
,,,,,,,,,66536514443a3c5e8dda9208,Spanish,13 or older,"no, only English or Spanish",no,2025-07-24_08h03.26.592,empathy_intonation_perc_control,2024.2.4,MacIntel,59.52380952,66536514443a3c5e8dda9208,68817205a84113384fffdfe3,688220d5d4e0a1b7c6411749,,,,,,,,,,,,,1,,,,,,,,,,,,,,,,,,,,,,,,,,,,,,,,,,,,,85,laúd,,,,,440.6837,442.0659,1,1,0.8456,,0,62,62,84,1,REAL,FAKE,,,,,,,,,,,,,,,,,
,,,,,,,,,66536514443a3c5e8dda9208,Spanish,13 or older,"no, only English or Spanish",no,2025-07-24_08h03.26.592,empathy_intonation_perc_control,2024.2.4,MacIntel,59.52380952,66536514443a3c5e8dda9208,68817205a84113384fffdfe3,688220d5d4e0a1b7c6411749,,,,,,,,,,,,,1,,,,,,,,,,,,,,,,,,,,,,,,,,,,,,,,,,,,,5,zapato,,,,,442.0673,443.6651,0,0,1.066,,0,63,63,4,1,REAL,FAKE,,,,,,,,,,,,,,,,,
,,,,,,,,,66536514443a3c5e8dda9208,Spanish,13 or older,"no, only English or Spanish",no,2025-07-24_08h03.26.592,empathy_intonation_perc_control,2024.2.4,MacIntel,59.52380952,66536514443a3c5e8dda9208,68817205a84113384fffdfe3,688220d5d4e0a1b7c6411749,,,,,,,,,,,,,1,,,,,,,,,,,,,,,,,,,,,,,,,,,,,,,,,,,,,81,pozo,,,,,443.6658,445.2996,1,1,1.1221,,0,64,64,80,1,REAL,FAKE,,,,,,,,,,,,,,,,,
,,,,,,,,,66536514443a3c5e8dda9208,Spanish,13 or older,"no, only English or Spanish",no,2025-07-24_08h03.26.592,empathy_intonation_perc_control,2024.2.4,MacIntel,59.52380952,66536514443a3c5e8dda9208,68817205a84113384fffdfe3,688220d5d4e0a1b7c6411749,,,,,,,,,,,,,0,,,,,,,,,,,,,,,,,,,,,,,,,,,,,,,,,,,,,70,temblo,,,,,445.3004,446.816,1,0,0.984,,0,65,65,69,1,REAL,FAKE,,,,,,,,,,,,,,,,,
,,,,,,,,,66536514443a3c5e8dda9208,Spanish,13 or older,"no, only English or Spanish",no,2025-07-24_08h03.26.592,empathy_intonation_perc_control,2024.2.4,MacIntel,59.52380952,66536514443a3c5e8dda9208,68817205a84113384fffdfe3,688220d5d4e0a1b7c6411749,,,,,,,,,,,,,0,,,,,,,,,,,,,,,,,,,,,,,,,,,,,,,,,,,,,50,flamida,,,,,446.8167,449.1998,1,0,1.8673,,0,66,66,49,1,REAL,FAKE,,,,,,,,,,,,,,,,,
,,,,,,,,,66536514443a3c5e8dda9208,Spanish,13 or older,"no, only English or Spanish",no,2025-07-24_08h03.26.592,empathy_intonation_perc_control,2024.2.4,MacIntel,59.52380952,66536514443a3c5e8dda9208,68817205a84113384fffdfe3,688220d5d4e0a1b7c6411749,,,,,,,,,,,,,0,,,,,,,,,,,,,,,,,,,,,,,,,,,,,,,,,,,,,1,terzo,,,,,449.2008,450.8997,0,1,1.1669,,0,67,67,0,1,REAL,FAKE,,,,,,,,,,,,,,,,,
,,,,,,,,,66536514443a3c5e8dda9208,Spanish,13 or older,"no, only English or Spanish",no,2025-07-24_08h03.26.592,empathy_intonation_perc_control,2024.2.4,MacIntel,59.52380952,66536514443a3c5e8dda9208,68817205a84113384fffdfe3,688220d5d4e0a1b7c6411749,,,,,,,,,,,,,0,,,,,,,,,,,,,,,,,,,,,,,,,,,,,,,,,,,,,82,empirador,,,,,450.9009,453.9329,0,1,2.5017,,0,68,68,81,1,REAL,FAKE,,,,,,,,,,,,,,,,,
,,,,,,,,,66536514443a3c5e8dda9208,Spanish,13 or older,"no, only English or Spanish",no,2025-07-24_08h03.26.592,empathy_intonation_perc_control,2024.2.4,MacIntel,59.52380952,66536514443a3c5e8dda9208,68817205a84113384fffdfe3,688220d5d4e0a1b7c6411749,,,,,,,,,,,,,1,,,,,,,,,,,,,,,,,,,,,,,,,,,,,,,,,,,,,68,alegre,,,,,453.9342,455.2991,1,1,0.8491,,0,69,69,67,1,REAL,FAKE,,,,,,,,,,,,,,,,,
,,,,,,,,,66536514443a3c5e8dda9208,Spanish,13 or older,"no, only English or Spanish",no,2025-07-24_08h03.26.592,empathy_intonation_perc_control,2024.2.4,MacIntel,59.52380952,66536514443a3c5e8dda9208,68817205a84113384fffdfe3,688220d5d4e0a1b7c6411749,,,,,,,,,,,,,1,,,,,,,,,,,,,,,,,,,,,,,,,,,,,,,,,,,,,88,acantilado,,,,,455.2998,457.0494,1,1,1.2379,,0,70,70,87,1,REAL,FAKE,,,,,,,,,,,,,,,,,
,,,,,,,,,66536514443a3c5e8dda9208,Spanish,13 or older,"no, only English or Spanish",no,2025-07-24_08h03.26.592,empathy_intonation_perc_control,2024.2.4,MacIntel,59.52380952,66536514443a3c5e8dda9208,68817205a84113384fffdfe3,688220d5d4e0a1b7c6411749,,,,,,,,,,,,,1,,,,,,,,,,,,,,,,,,,,,,,,,,,,,,,,,,,,,56,musgo,,,,,457.0505,458.2494,0,0,0.6684,,0,71,71,55,1,REAL,FAKE,,,,,,,,,,,,,,,,,
,,,,,,,,,66536514443a3c5e8dda9208,Spanish,13 or older,"no, only English or Spanish",no,2025-07-24_08h03.26.592,empathy_intonation_perc_control,2024.2.4,MacIntel,59.52380952,66536514443a3c5e8dda9208,68817205a84113384fffdfe3,688220d5d4e0a1b7c6411749,,,,,,,,,,,,,1,,,,,,,,,,,,,,,,,,,,,,,,,,,,,,,,,,,,,51,candado,,,,,458.2507,460.1495,0,0,1.3638,,0,72,72,50,1,REAL,FAKE,,,,,,,,,,,,,,,,,
,,,,,,,,,66536514443a3c5e8dda9208,Spanish,13 or older,"no, only English or Spanish",no,2025-07-24_08h03.26.592,empathy_intonation_perc_control,2024.2.4,MacIntel,59.52380952,66536514443a3c5e8dda9208,68817205a84113384fffdfe3,688220d5d4e0a1b7c6411749,,,,,,,,,,,,,1,,,,,,,,,,,,,,,,,,,,,,,,,,,,,,,,,,,,,24,látigo,,,,,460.1507,461.5008,1,1,0.829,,0,73,73,23,1,REAL,FAKE,,,,,,,,,,,,,,,,,
,,,,,,,,,66536514443a3c5e8dda9208,Spanish,13 or older,"no, only English or Spanish",no,2025-07-24_08h03.26.592,empathy_intonation_perc_control,2024.2.4,MacIntel,59.52380952,66536514443a3c5e8dda9208,68817205a84113384fffdfe3,688220d5d4e0a1b7c6411749,,,,,,,,,,,,,0,,,,,,,,,,,,,,,,,,,,,,,,,,,,,,,,,,,,,79,tropaje,,,,,461.5023,463.3672,0,1,1.3368,,0,74,74,78,1,REAL,FAKE,,,,,,,,,,,,,,,,,
,,,,,,,,,66536514443a3c5e8dda9208,Spanish,13 or older,"no, only English or Spanish",no,2025-07-24_08h03.26.592,empathy_intonation_perc_control,2024.2.4,MacIntel,59.52380952,66536514443a3c5e8dda9208,68817205a84113384fffdfe3,688220d5d4e0a1b7c6411749,,,,,,,,,,,,,1,,,,,,,,,,,,,,,,,,,,,,,,,,,,,,,,,,,,,20,ávido,,,,,463.3682,465.3331,1,1,1.4299,,0,75,75,19,1,REAL,FAKE,,,,,,,,,,,,,,,,,
,,,,,,,,,66536514443a3c5e8dda9208,Spanish,13 or older,"no, only English or Spanish",no,2025-07-24_08h03.26.592,empathy_intonation_perc_control,2024.2.4,MacIntel,59.52380952,66536514443a3c5e8dda9208,68817205a84113384fffdfe3,688220d5d4e0a1b7c6411749,,,,,,,,,,,,,0,,,,,,,,,,,,,,,,,,,,,,,,,,,,,,,,,,,,,21,capillo,,,,,465.3343,467.0169,0,1,1.1667,,0,76,76,20,1,REAL,FAKE,,,,,,,,,,,,,,,,,
,,,,,,,,,66536514443a3c5e8dda9208,Spanish,13 or older,"no, only English or Spanish",no,2025-07-24_08h03.26.592,empathy_intonation_perc_control,2024.2.4,MacIntel,59.52380952,66536514443a3c5e8dda9208,68817205a84113384fffdfe3,688220d5d4e0a1b7c6411749,,,,,,,,,,,,,1,,,,,,,,,,,,,,,,,,,,,,,,,,,,,,,,,,,,,76,atar,,,,,467.018,468.6343,0,0,1.1018,,0,77,77,75,1,REAL,FAKE,,,,,,,,,,,,,,,,,
,,,,,,,,,66536514443a3c5e8dda9208,Spanish,13 or older,"no, only English or Spanish",no,2025-07-24_08h03.26.592,empathy_intonation_perc_control,2024.2.4,MacIntel,59.52380952,66536514443a3c5e8dda9208,68817205a84113384fffdfe3,688220d5d4e0a1b7c6411749,,,,,,,,,,,,,1,,,,,,,,,,,,,,,,,,,,,,,,,,,,,,,,,,,,,6,tergiversar,,,,,468.6353,470.3999,0,0,1.232,,0,78,78,5,1,REAL,FAKE,,,,,,,,,,,,,,,,,
,,,,,,,,,66536514443a3c5e8dda9208,Spanish,13 or older,"no, only English or Spanish",no,2025-07-24_08h03.26.592,empathy_intonation_perc_control,2024.2.4,MacIntel,59.52380952,66536514443a3c5e8dda9208,68817205a84113384fffdfe3,688220d5d4e0a1b7c6411749,,,,,,,,,,,,,1,,,,,,,,,,,,,,,,,,,,,,,,,,,,,,,,,,,,,11,cenefa,,,,,470.4006,471.7013,1,1,0.7866,,0,79,79,10,1,REAL,FAKE,,,,,,,,,,,,,,,,,
,,,,,,,,,66536514443a3c5e8dda9208,Spanish,13 or older,"no, only English or Spanish",no,2025-07-24_08h03.26.592,empathy_intonation_perc_control,2024.2.4,MacIntel,59.52380952,66536514443a3c5e8dda9208,68817205a84113384fffdfe3,688220d5d4e0a1b7c6411749,,,,,,,,,,,,,1,,,,,,,,,,,,,,,,,,,,,,,,,,,,,,,,,,,,,75,yacer,,,,,471.7028,473.0014,0,0,0.7628,,0,80,80,74,1,REAL,FAKE,,,,,,,,,,,,,,,,,
,,,,,,,,,66536514443a3c5e8dda9208,Spanish,13 or older,"no, only English or Spanish",no,2025-07-24_08h03.26.592,empathy_intonation_perc_control,2024.2.4,MacIntel,59.52380952,66536514443a3c5e8dda9208,68817205a84113384fffdfe3,688220d5d4e0a1b7c6411749,,,,,,,,,,,,,1,,,,,,,,,,,,,,,,,,,,,,,,,,,,,,,,,,,,,15,regar,,,,,473.0029,474.8172,0,0,1.2844,,0,81,81,14,1,REAL,FAKE,,,,,,,,,,,,,,,,,
,,,,,,,,,66536514443a3c5e8dda9208,Spanish,13 or older,"no, only English or Spanish",no,2025-07-24_08h03.26.592,empathy_intonation_perc_control,2024.2.4,MacIntel,59.52380952,66536514443a3c5e8dda9208,68817205a84113384fffdfe3,688220d5d4e0a1b7c6411749,,,,,,,,,,,,,1,,,,,,,,,,,,,,,,,,,,,,,,,,,,,,,,,,,,,13,helar,,,,,474.8182,476.1017,0,0,0.7544,,0,82,82,12,1,REAL,FAKE,,,,,,,,,,,,,,,,,
,,,,,,,,,66536514443a3c5e8dda9208,Spanish,13 or older,"no, only English or Spanish",no,2025-07-24_08h03.26.592,empathy_intonation_perc_control,2024.2.4,MacIntel,59.52380952,66536514443a3c5e8dda9208,68817205a84113384fffdfe3,688220d5d4e0a1b7c6411749,,,,,,,,,,,,,0,,,,,,,,,,,,,,,,,,,,,,,,,,,,,,,,,,,,,92,click the 0 key.,,,,,476.1029,477.9349,0,1,1.2977,,0,83,83,91,1,REAL,FAKE,,,,,,,,,,,,,,,,,
,,,,,,,,,66536514443a3c5e8dda9208,Spanish,13 or older,"no, only English or Spanish",no,2025-07-24_08h03.26.592,empathy_intonation_perc_control,2024.2.4,MacIntel,59.52380952,66536514443a3c5e8dda9208,68817205a84113384fffdfe3,688220d5d4e0a1b7c6411749,,,,,,,,,,,,,1,,,,,,,,,,,,,,,,,,,,,,,,,,,,,,,,,,,,,43,canela,,,,,477.9362,481.4181,1,1,2.951,,0,84,84,42,1,REAL,FAKE,,,,,,,,,,,,,,,,,
,,,,,,,,,66536514443a3c5e8dda9208,Spanish,13 or older,"no, only English or Spanish",no,2025-07-24_08h03.26.592,empathy_intonation_perc_control,2024.2.4,MacIntel,59.52380952,66536514443a3c5e8dda9208,68817205a84113384fffdfe3,688220d5d4e0a1b7c6411749,,,,,,,,,,,,,0,,,,,,,,,,,,,,,,,,,,,,,,,,,,,,,,,,,,,84,escuto,,,,,481.4192,485.269,1,0,3.3228,,0,85,85,83,1,REAL,FAKE,,,,,,,,,,,,,,,,,
,,,,,,,,,66536514443a3c5e8dda9208,Spanish,13 or older,"no, only English or Spanish",no,2025-07-24_08h03.26.592,empathy_intonation_perc_control,2024.2.4,MacIntel,59.52380952,66536514443a3c5e8dda9208,68817205a84113384fffdfe3,688220d5d4e0a1b7c6411749,,,,,,,,,,,,,1,,,,,,,,,,,,,,,,,,,,,,,,,,,,,,,,,,,,,45,jilguero,,,,,485.2702,487.019,0,0,1.2191,,0,86,86,44,1,REAL,FAKE,,,,,,,,,,,,,,,,,
,,,,,,,,,66536514443a3c5e8dda9208,Spanish,13 or older,"no, only English or Spanish",no,2025-07-24_08h03.26.592,empathy_intonation_perc_control,2024.2.4,MacIntel,59.52380952,66536514443a3c5e8dda9208,68817205a84113384fffdfe3,688220d5d4e0a1b7c6411749,,,,,,,,,,,,,1,,,,,,,,,,,,,,,,,,,,,,,,,,,,,,,,,,,,,12,asesinato,,,,,487.0199,488.6856,0,0,1.1375,,0,87,87,11,1,REAL,FAKE,,,,,,,,,,,,,,,,,
,,,,,,,,,66536514443a3c5e8dda9208,Spanish,13 or older,"no, only English or Spanish",no,2025-07-24_08h03.26.592,empathy_intonation_perc_control,2024.2.4,MacIntel,59.52380952,66536514443a3c5e8dda9208,68817205a84113384fffdfe3,688220d5d4e0a1b7c6411749,,,,,,,,,,,,,1,,,,,,,,,,,,,,,,,,,,,,,,,,,,,,,,,,,,,57,tacaño,,,,,488.6863,489.9852,1,1,0.7705,,0,88,88,56,1,REAL,FAKE,,,,,,,,,,,,,,,,,
,,,,,,,,,66536514443a3c5e8dda9208,Spanish,13 or older,"no, only English or Spanish",no,2025-07-24_08h03.26.592,empathy_intonation_perc_control,2024.2.4,MacIntel,59.52380952,66536514443a3c5e8dda9208,68817205a84113384fffdfe3,688220d5d4e0a1b7c6411749,,,,,,,,,,,,,1,,,,,,,,,,,,,,,,,,,,,,,,,,,,,,,,,,,,,91,click the 1 key.,,,,,489.9867,491.9025,1,1,1.4003,,0,89,89,90,1,REAL,FAKE,,,,,,,,,,,,,,,,,
,,,,,,,,,66536514443a3c5e8dda9208,Spanish,13 or older,"no, only English or Spanish",no,2025-07-24_08h03.26.592,empathy_intonation_perc_control,2024.2.4,MacIntel,59.52380952,66536514443a3c5e8dda9208,68817205a84113384fffdfe3,688220d5d4e0a1b7c6411749,,,,,,,,,,,,,0,,,,,,,,,,,,,,,,,,,,,,,,,,,,,,,,,,,,,30,alardio,,,,,491.9036,494.1194,1,0,1.6807,,0,90,90,29,1,REAL,FAKE,,,,,,,,,,,,,,,,,
,,,,,,,,,66536514443a3c5e8dda9208,Spanish,13 or older,"no, only English or Spanish",no,2025-07-24_08h03.26.592,empathy_intonation_perc_control,2024.2.4,MacIntel,59.52380952,66536514443a3c5e8dda9208,68817205a84113384fffdfe3,688220d5d4e0a1b7c6411749,,,,,,,,,,,,,0,,,,,,,,,,,,,,,,,,,,,,,,,,,,,,,,,,,,,17,floroso,,,,,494.1207,495.9362,1,0,1.2828,,0,91,91,16,1,REAL,FAKE,,,,,,,,,,,,,,,,,
,,,,,,,,,66536514443a3c5e8dda9208,Spanish,13 or older,"no, only English or Spanish",no,2025-07-24_08h03.26.592,empathy_intonation_perc_control,2024.2.4,MacIntel,59.52380952,66536514443a3c5e8dda9208,68817205a84113384fffdfe3,688220d5d4e0a1b7c6411749,,,,,,,,,,,,,,,,,,,,,,,,,,,,,,,,,,,,,,,,,,,,,,,,,,,,,,,,,,,,,,,,,,,,,495.9365,509.1371,,,,,,,,,,,,,,,
,,,,,,,,,66536514443a3c5e8dda9208,Spanish,13 or older,"no, only English or Spanish",no,2025-07-24_08h03.26.592,empathy_intonation_perc_control,2024.2.4,MacIntel,59.52380952,66536514443a3c5e8dda9208,68817205a84113384fffdfe3,688220d5d4e0a1b7c6411749,,,,,,,,,,,,,,,,,,,,,,,,,,,1,,,,,,,,,,,,,,,,,,,,,,,,,,,,,,,,,,,,,,,,,,,,509.1472,516.8378,strongly disagree,0,0,0,0,1,I can easily tell if someone else wants to enter a conversation.,1,0,1,0,,
,,,,,,,,,66536514443a3c5e8dda9208,Spanish,13 or older,"no, only English or Spanish",no,2025-07-24_08h03.26.592,empathy_intonation_perc_control,2024.2.4,MacIntel,59.52380952,66536514443a3c5e8dda9208,68817205a84113384fffdfe3,688220d5d4e0a1b7c6411749,,,,,,,,,,,,,,,,,,,,,,,,,,,2,,,,,,,,,,,,,,,,,,,,,,,,,,,,,,,,,,,,,,,,,,,,516.8399,520.9045,slightly agree,0,1,1,1,1,I prefer animals to humans.,0,1,0,0,,
,,,,,,,,,66536514443a3c5e8dda9208,Spanish,13 or older,"no, only English or Spanish",no,2025-07-24_08h03.26.592,empathy_intonation_perc_control,2024.2.4,MacIntel,59.52380952,66536514443a3c5e8dda9208,68817205a84113384fffdfe3,688220d5d4e0a1b7c6411749,,,,,,,,,,,,,,,,,,,,,,,,,,,3,,,,,,,,,,,,,,,,,,,,,,,,,,,,,,,,,,,,,,,,,,,,520.9065,524.7383,slightly agree,0,2,2,2,1,I try to keep up with the current trends and fashions.,0,1,0,0,,
,,,,,,,,,66536514443a3c5e8dda9208,Spanish,13 or older,"no, only English or Spanish",no,2025-07-24_08h03.26.592,empathy_intonation_perc_control,2024.2.4,MacIntel,59.52380952,66536514443a3c5e8dda9208,68817205a84113384fffdfe3,688220d5d4e0a1b7c6411749,,,,,,,,,,,,,,,,,,,,,,,,,,,4,,,,,,,,,,,,,,,,,,,,,,,,,,,,,,,,,,,,,,,,,,,,524.7404,534.2719,slightly agree,0,3,3,3,1,"I find it difficult to explain to others things that I understand easily,   when they don't understand it first time.",1,0,0,1,,
,,,,,,,,,66536514443a3c5e8dda9208,Spanish,13 or older,"no, only English or Spanish",no,2025-07-24_08h03.26.592,empathy_intonation_perc_control,2024.2.4,MacIntel,59.52380952,66536514443a3c5e8dda9208,68817205a84113384fffdfe3,688220d5d4e0a1b7c6411749,,,,,,,,,,,,,,,,,,,,,,,,,,,5,,,,,,,,,,,,,,,,,,,,,,,,,,,,,,,,,,,,,,,,,,,,534.2733,537.9886,slightly agree,0,4,4,4,1,I dream most nights.,0,1,0,0,,
,,,,,,,,,66536514443a3c5e8dda9208,Spanish,13 or older,"no, only English or Spanish",no,2025-07-24_08h03.26.592,empathy_intonation_perc_control,2024.2.4,MacIntel,59.52380952,66536514443a3c5e8dda9208,68817205a84113384fffdfe3,688220d5d4e0a1b7c6411749,,,,,,,,,,,,,,,,,,,,,,,,,,,6,,,,,,,,,,,,,,,,,,,,,,,,,,,,,,,,,,,,,,,,,,,,537.9905,542.6727,strongly agree,0,5,5,5,1,I really enjoy caring for other people.,1,0,1,0,,
,,,,,,,,,66536514443a3c5e8dda9208,Spanish,13 or older,"no, only English or Spanish",no,2025-07-24_08h03.26.592,empathy_intonation_perc_control,2024.2.4,MacIntel,59.52380952,66536514443a3c5e8dda9208,68817205a84113384fffdfe3,688220d5d4e0a1b7c6411749,,,,,,,,,,,,,,,,,,,,,,,,,,,7,,,,,,,,,,,,,,,,,,,,,,,,,,,,,,,,,,,,,,,,,,,,542.6747,546.6732,strongly agree,0,6,6,6,1,I try to solve my own problems rather than discussing them with others.,0,1,0,0,,
,,,,,,,,,66536514443a3c5e8dda9208,Spanish,13 or older,"no, only English or Spanish",no,2025-07-24_08h03.26.592,empathy_intonation_perc_control,2024.2.4,MacIntel,59.52380952,66536514443a3c5e8dda9208,68817205a84113384fffdfe3,688220d5d4e0a1b7c6411749,,,,,,,,,,,,,,,,,,,,,,,,,,,8,,,,,,,,,,,,,,,,,,,,,,,,,,,,,,,,,,,,,,,,,,,,546.6748,551.5066,slightly disagree,0,7,7,7,1,I find it hard to know what to do in a social situation.,1,0,0,1,,
,,,,,,,,,66536514443a3c5e8dda9208,Spanish,13 or older,"no, only English or Spanish",no,2025-07-24_08h03.26.592,empathy_intonation_perc_control,2024.2.4,MacIntel,59.52380952,66536514443a3c5e8dda9208,68817205a84113384fffdfe3,688220d5d4e0a1b7c6411749,,,,,,,,,,,,,,,,,,,,,,,,,,,9,,,,,,,,,,,,,,,,,,,,,,,,,,,,,,,,,,,,,,,,,,,,551.509,554.4402,strongly agree,0,8,8,8,1,I am at my best first thing in the morning.,0,1,0,0,,
,,,,,,,,,66536514443a3c5e8dda9208,Spanish,13 or older,"no, only English or Spanish",no,2025-07-24_08h03.26.592,empathy_intonation_perc_control,2024.2.4,MacIntel,59.52380952,66536514443a3c5e8dda9208,68817205a84113384fffdfe3,688220d5d4e0a1b7c6411749,,,,,,,,,,,,,,,,,,,,,,,,,,,10,,,,,,,,,,,,,,,,,,,,,,,,,,,,,,,,,,,,,,,,,,,,554.4427,561.7909,slightly disagree,0,9,9,9,1,People often tell me that I went too far in driving my point home in a discussion.,1,0,0,1,,
,,,,,,,,,66536514443a3c5e8dda9208,Spanish,13 or older,"no, only English or Spanish",no,2025-07-24_08h03.26.592,empathy_intonation_perc_control,2024.2.4,MacIntel,59.52380952,66536514443a3c5e8dda9208,68817205a84113384fffdfe3,688220d5d4e0a1b7c6411749,,,,,,,,,,,,,,,,,,,,,,,,,,,11,,,,,,,,,,,,,,,,,,,,,,,,,,,,,,,,,,,,,,,,,,,,561.7937,569.1408,strongly disagree,0,10,10,10,1,It doesn't bother me too much if I am late meeting a friend.,1,0,0,1,,
,,,,,,,,,66536514443a3c5e8dda9208,Spanish,13 or older,"no, only English or Spanish",no,2025-07-24_08h03.26.592,empathy_intonation_perc_control,2024.2.4,MacIntel,59.52380952,66536514443a3c5e8dda9208,68817205a84113384fffdfe3,688220d5d4e0a1b7c6411749,,,,,,,,,,,,,,,,,,,,,,,,,,,12,,,,,,,,,,,,,,,,,,,,,,,,,,,,,,,,,,,,,,,,,,,,569.1423,576.6914,slightly disagree,0,11,11,11,1,"Friendships and relationships are just too difficult, so I tend not to 
  bother with them.",1,0,0,1,,
,,,,,,,,,66536514443a3c5e8dda9208,Spanish,13 or older,"no, only English or Spanish",no,2025-07-24_08h03.26.592,empathy_intonation_perc_control,2024.2.4,MacIntel,59.52380952,66536514443a3c5e8dda9208,68817205a84113384fffdfe3,688220d5d4e0a1b7c6411749,,,,,,,,,,,,,,,,,,,,,,,,,,,13,,,,,,,,,,,,,,,,,,,,,,,,,,,,,,,,,,,,,,,,,,,,576.6927,580.1585,slightly disagree,0,12,12,12,1,"I would never break a law, no matter how minor.",0,1,0,0,,
,,,,,,,,,66536514443a3c5e8dda9208,Spanish,13 or older,"no, only English or Spanish",no,2025-07-24_08h03.26.592,empathy_intonation_perc_control,2024.2.4,MacIntel,59.52380952,66536514443a3c5e8dda9208,68817205a84113384fffdfe3,688220d5d4e0a1b7c6411749,,,,,,,,,,,,,,,,,,,,,,,,,,,14,,,,,,,,,,,,,,,,,,,,,,,,,,,,,,,,,,,,,,,,,,,,580.1609,587.5423,slightly disagree,0,13,13,13,1,I often find it difficult to judge if something is rude or polite.,1,0,0,1,,
,,,,,,,,,66536514443a3c5e8dda9208,Spanish,13 or older,"no, only English or Spanish",no,2025-07-24_08h03.26.592,empathy_intonation_perc_control,2024.2.4,MacIntel,59.52380952,66536514443a3c5e8dda9208,68817205a84113384fffdfe3,688220d5d4e0a1b7c6411749,,,,,,,,,,,,,,,,,,,,,,,,,,,15,,,,,,,,,,,,,,,,,,,,,,,,,,,,,,,,,,,,,,,,,,,,587.5449,594.0085,slightly agree,0,14,14,14,1,"In a conversation, I tend to focus on my own thoughts rather than on what 
  my listener might be thinking.",1,0,0,1,,
,,,,,,,,,66536514443a3c5e8dda9208,Spanish,13 or older,"no, only English or Spanish",no,2025-07-24_08h03.26.592,empathy_intonation_perc_control,2024.2.4,MacIntel,59.52380952,66536514443a3c5e8dda9208,68817205a84113384fffdfe3,688220d5d4e0a1b7c6411749,,,,,,,,,,,,,,,,,,,,,,,,,,,16,,,,,,,,,,,,,,,,,,,,,,,,,,,,,,,,,,,,,,,,,,,,594.0104,598.6098,slightly disagree,0,15,15,15,1,I prefer practical jokes to verbal humor.,0,1,0,0,,
,,,,,,,,,66536514443a3c5e8dda9208,Spanish,13 or older,"no, only English or Spanish",no,2025-07-24_08h03.26.592,empathy_intonation_perc_control,2024.2.4,MacIntel,59.52380952,66536514443a3c5e8dda9208,68817205a84113384fffdfe3,688220d5d4e0a1b7c6411749,,,,,,,,,,,,,,,,,,,,,,,,,,,17,,,,,,,,,,,,,,,,,,,,,,,,,,,,,,,,,,,,,,,,,,,,598.6119,601.8766,slightly agree,0,16,16,16,1,I live life for today rather than the future.,0,1,0,0,,
,,,,,,,,,66536514443a3c5e8dda9208,Spanish,13 or older,"no, only English or Spanish",no,2025-07-24_08h03.26.592,empathy_intonation_perc_control,2024.2.4,MacIntel,59.52380952,66536514443a3c5e8dda9208,68817205a84113384fffdfe3,688220d5d4e0a1b7c6411749,,,,,,,,,,,,,,,,,,,,,,,,,,,18,,,,,,,,,,,,,,,,,,,,,,,,,,,,,,,,,,,,,,,,,,,,601.8793,606.5427,slightly agree,0,17,17,17,1,"When I was a child, I enjoyed cutting up worms to see what would happen.",1,0,0,1,,
,,,,,,,,,66536514443a3c5e8dda9208,Spanish,13 or older,"no, only English or Spanish",no,2025-07-24_08h03.26.592,empathy_intonation_perc_control,2024.2.4,MacIntel,59.52380952,66536514443a3c5e8dda9208,68817205a84113384fffdfe3,688220d5d4e0a1b7c6411749,,,,,,,,,,,,,,,,,,,,,,,,,,,19,,,,,,,,,,,,,,,,,,,,,,,,,,,,,,,,,,,,,,,,,,,,606.5444,614.3603,slightly agree,0,18,18,18,1,I can pick up quickly if someone says one thing but means another.,1,0,1,0,,
,,,,,,,,,66536514443a3c5e8dda9208,Spanish,13 or older,"no, only English or Spanish",no,2025-07-24_08h03.26.592,empathy_intonation_perc_control,2024.2.4,MacIntel,59.52380952,66536514443a3c5e8dda9208,68817205a84113384fffdfe3,688220d5d4e0a1b7c6411749,,,,,,,,,,,,,,,,,,,,,,,,,,,20,,,,,,,,,,,,,,,,,,,,,,,,,,,,,,,,,,,,,,,,,,,,614.3619,618.7938,slightly agree,0,19,19,19,1,I tend to have very strong opinions about morality.,0,1,0,0,,
,,,,,,,,,66536514443a3c5e8dda9208,Spanish,13 or older,"no, only English or Spanish",no,2025-07-24_08h03.26.592,empathy_intonation_perc_control,2024.2.4,MacIntel,59.52380952,66536514443a3c5e8dda9208,68817205a84113384fffdfe3,688220d5d4e0a1b7c6411749,,,,,,,,,,,,,,,,,,,,,,,,,,,21,,,,,,,,,,,,,,,,,,,,,,,,,,,,,,,,,,,,,,,,,,,,618.7952,625.0282,slightly disagree,0,20,20,20,1,It is hard for me to see why some things upset people so much.,1,0,0,1,,
,,,,,,,,,66536514443a3c5e8dda9208,Spanish,13 or older,"no, only English or Spanish",no,2025-07-24_08h03.26.592,empathy_intonation_perc_control,2024.2.4,MacIntel,59.52380952,66536514443a3c5e8dda9208,68817205a84113384fffdfe3,688220d5d4e0a1b7c6411749,,,,,,,,,,,,,,,,,,,,,,,,,,,22,,,,,,,,,,,,,,,,,,,,,,,,,,,,,,,,,,,,,,,,,,,,625.03,627.8951,slightly agree,0,21,21,21,1,I find it easy to put myself in somebody else's shoes.,1,0,1,0,,
,,,,,,,,,66536514443a3c5e8dda9208,Spanish,13 or older,"no, only English or Spanish",no,2025-07-24_08h03.26.592,empathy_intonation_perc_control,2024.2.4,MacIntel,59.52380952,66536514443a3c5e8dda9208,68817205a84113384fffdfe3,688220d5d4e0a1b7c6411749,,,,,,,,,,,,,,,,,,,,,,,,,,,23,,,,,,,,,,,,,,,,,,,,,,,,,,,,,,,,,,,,,,,,,,,,627.8968,634.212,slightly agree,0,22,22,22,1,I think that good manners are the most important thing a parent can teach their child.,0,1,0,0,,
