instructions_2afc.started,instructions_2afc.stopped,instructions_2afc_loop.thisRepN,instructions_2afc_loop.thisTrialN,instructions_2afc_loop.thisN,instructions_2afc_loop.thisIndex,instructions_2afc_loop.ran,instructions_text,continue_text,participant_id,"What variety of Spanish are you most familiar with? (e.g., Peruvian, Spanish, Mexican)",At what age did you begin learning Spanish?,Are you proficient in any languages other than English/Spanish?,"Are you familiar with Caribbean (e.g., Caribbean, Puerto Rican) or Galician Spanish?",date,expName,psychopyVersion,OS,frameRate,id,study_id,session,practice_2afc.started,practice_2afc.stopped,key_resp_2afc_practice.keys,key_resp_2afc_practice.corr,key_resp_2afc_practice.rt,key_resp_2afc_practice.duration,trials_2afc_practice_loop.thisRepN,trials_2afc_practice_loop.thisTrialN,trials_2afc_practice_loop.thisN,trials_2afc_practice_loop.thisIndex,trials_2afc_practice_loop.ran,path,correct_response,check_2afc.started,check_2afc.stopped,trial_2afc.started,trial_2afc.stopped,key_resp_2afc_trial.keys,key_resp_2afc_trial.corr,key_resp_2afc_trial.rt,key_resp_2afc_trial.duration,trials_2afc_loop.thisRepN,trials_2afc_loop.thisTrialN,trials_2afc_loop.thisN,trials_2afc_loop.thisIndex,trials_2afc_loop.ran,item_num,target,variety,instructions_lextale.started,instructions_lextale.stopped,instructions_lextale_loop.thisRepN,instructions_lextale_loop.thisTrialN,instructions_lextale_loop.thisN,instructions_lextale_loop.thisIndex,instructions_lextale_loop.ran,practice_lextale.started,practice_lextale.stopped,key_resp_lextale_practice.keys,key_resp_lextale_practice.corr,key_resp_lextale_practice.rt,key_resp_lextale_practice.duration,practice_feedback_lextale.started,practice_feedback_lextale.stopped,trials_lextale_practice_loop.thisRepN,trials_lextale_practice_loop.thisTrialN,trials_lextale_practice_loop.thisN,trials_lextale_practice_loop.thisIndex,trials_lextale_practice_loop.ran,stim,word,prac_button_real,prac_button_false,check_lextale.started,check_lextale.stopped,trial_lextale.started,trial_lextale.stopped,key_resp_lextale_trial.keys,key_resp_lextale_trial.corr,key_resp_lextale_trial.rt,key_resp_lextale_trial.duration,trials_lextale_loop.thisRepN,trials_lextale_loop.thisTrialN,trials_lextale_loop.thisN,trials_lextale_loop.thisIndex,trials_lextale_loop.ran,button_real,button_false,instructions_eq.started,instructions_eq.stopped,trial_eq.started,trial_eq.stopped,slider_eq_trial.response,trials_eq_loop.thisRepN,trials_eq_loop.thisTrialN,trials_eq_loop.thisN,trials_eq_loop.thisIndex,trials_eq_loop.ran,item,is_test_item,is_distractor,is_agree_score,is_disagree_score,end_exp.started,end_exp.stopped
0.02,5.1262,0,0,0,0,1,"In the following task you are going to hear a series of utterances. 

  You will decide if the utterances sound like questions or not using your keyboard.", (press the spacebar to continue),6654ea31b450c037ef242412,Spanish,13 or older,"no, only English or Spanish",no,2025-08-12_16h42.11.381,empathy_intonation_perc_control,2024.2.4,MacIntel,59.97361161,6654ea31b450c037ef242412,68817205a84113384fffdfe3,689ba6f48eec46f654290db6,,,,,,,,,,,,,,,,,,,,,,,,,,,,,,,,,,,,,,,,,,,,,,,,,,,,,,,,,,,,,,,,,,,,,,,,,,,,,,,,,,,,,
5.1283,12.5607,0,1,1,1,1,"If you believe the utterance is a question, type '1' (for 'yes') and if you do not 
  believe it is a question type '0' (for 'no').

  Let's practice a bit...", (press the spacebar to continue),6654ea31b450c037ef242412,Spanish,13 or older,"no, only English or Spanish",no,2025-08-12_16h42.11.381,empathy_intonation_perc_control,2024.2.4,MacIntel,59.97361161,6654ea31b450c037ef242412,68817205a84113384fffdfe3,689ba6f48eec46f654290db6,,,,,,,,,,,,,,,,,,,,,,,,,,,,,,,,,,,,,,,,,,,,,,,,,,,,,,,,,,,,,,,,,,,,,,,,,,,,,,,,,,,,,
,,,,,,,,,6654ea31b450c037ef242412,Spanish,13 or older,"no, only English or Spanish",no,2025-08-12_16h42.11.381,empathy_intonation_perc_control,2024.2.4,MacIntel,59.97361161,6654ea31b450c037ef242412,68817205a84113384fffdfe3,689ba6f48eec46f654290db6,12.5728,15.5479,0,1,2.4508,,0,0,0,7,1,./stim/wavs/puertorican_statement_filler_La-nina-pinta-con-su-amiga.wav,0,,,,,,,,,,,,,,,,,,,,,,,,,,,,,,,,,,,,,,,,,,,,,,,,,,,,,,,,,,,,,,,,,,,,,,,,
,,,,,,,,,6654ea31b450c037ef242412,Spanish,13 or older,"no, only English or Spanish",no,2025-08-12_16h42.11.381,empathy_intonation_perc_control,2024.2.4,MacIntel,59.97361161,6654ea31b450c037ef242412,68817205a84113384fffdfe3,689ba6f48eec46f654290db6,15.5494,17.9813,0,1,1.9017,,0,1,1,5,1,./stim/wavs/andalusian_statement_filler_Alberto-nunca-se-afeita.wav,0,,,,,,,,,,,,,,,,,,,,,,,,,,,,,,,,,,,,,,,,,,,,,,,,,,,,,,,,,,,,,,,,,,,,,,,,
,,,,,,,,,6654ea31b450c037ef242412,Spanish,13 or older,"no, only English or Spanish",no,2025-08-12_16h42.11.381,empathy_intonation_perc_control,2024.2.4,MacIntel,59.97361161,6654ea31b450c037ef242412,68817205a84113384fffdfe3,689ba6f48eec46f654290db6,17.9832,20.7011,0,1,2.2008,,0,2,2,6,1,./stim/wavs/peruvian_statement_filler_El-nino-habla-con-su-madre.wav,0,,,,,,,,,,,,,,,,,,,,,,,,,,,,,,,,,,,,,,,,,,,,,,,,,,,,,,,,,,,,,,,,,,,,,,,,
,,,,,,,,,6654ea31b450c037ef242412,Spanish,13 or older,"no, only English or Spanish",no,2025-08-12_16h42.11.381,empathy_intonation_perc_control,2024.2.4,MacIntel,59.97361161,6654ea31b450c037ef242412,68817205a84113384fffdfe3,689ba6f48eec46f654290db6,20.7017,22.9701,1,1,1.7332,,0,3,3,3,1,./stim/wavs/mexican_question_filler_Felipe-no-tiene-contrasena.wav,1,,,,,,,,,,,,,,,,,,,,,,,,,,,,,,,,,,,,,,,,,,,,,,,,,,,,,,,,,,,,,,,,,,,,,,,,
,,,,,,,,,6654ea31b450c037ef242412,Spanish,13 or older,"no, only English or Spanish",no,2025-08-12_16h42.11.381,empathy_intonation_perc_control,2024.2.4,MacIntel,59.97361161,6654ea31b450c037ef242412,68817205a84113384fffdfe3,689ba6f48eec46f654290db6,22.9715,25.0192,0,0,1.5184,,0,4,4,2,1,./stim/wavs/chilean_question_filler_Mi-padre-cantaba-bien.wav,1,,,,,,,,,,,,,,,,,,,,,,,,,,,,,,,,,,,,,,,,,,,,,,,,,,,,,,,,,,,,,,,,,,,,,,,,
,,,,,,,,,6654ea31b450c037ef242412,Spanish,13 or older,"no, only English or Spanish",no,2025-08-12_16h42.11.381,empathy_intonation_perc_control,2024.2.4,MacIntel,59.97361161,6654ea31b450c037ef242412,68817205a84113384fffdfe3,689ba6f48eec46f654290db6,25.0202,27.4545,1,1,1.897,,0,5,5,0,1,./stim/wavs/castilian_question_filler_Mi-esposo-conoce-al-chico.wav,1,,,,,,,,,,,,,,,,,,,,,,,,,,,,,,,,,,,,,,,,,,,,,,,,,,,,,,,,,,,,,,,,,,,,,,,,
,,,,,,,,,6654ea31b450c037ef242412,Spanish,13 or older,"no, only English or Spanish",no,2025-08-12_16h42.11.381,empathy_intonation_perc_control,2024.2.4,MacIntel,59.97361161,6654ea31b450c037ef242412,68817205a84113384fffdfe3,689ba6f48eec46f654290db6,27.4552,29.7853,0,1,1.7984,,0,6,6,4,1,./stim/wavs/cuban_statement_filler_Cocinabas-por-la-noche.wav,0,,,,,,,,,,,,,,,,,,,,,,,,,,,,,,,,,,,,,,,,,,,,,,,,,,,,,,,,,,,,,,,,,,,,,,,,
,,,,,,,,,6654ea31b450c037ef242412,Spanish,13 or older,"no, only English or Spanish",no,2025-08-12_16h42.11.381,empathy_intonation_perc_control,2024.2.4,MacIntel,59.97361161,6654ea31b450c037ef242412,68817205a84113384fffdfe3,689ba6f48eec46f654290db6,29.786,31.6718,1,1,1.3636,,0,7,7,1,1,./stim/wavs/argentine_question_filler_Mi-vecino-habla-mucho.wav,1,,,,,,,,,,,,,,,,,,,,,,,,,,,,,,,,,,,,,,,,,,,,,,,,,,,,,,,,,,,,,,,,,,,,,,,,
,,,,,,,,,6654ea31b450c037ef242412,Spanish,13 or older,"no, only English or Spanish",no,2025-08-12_16h42.11.381,empathy_intonation_perc_control,2024.2.4,MacIntel,59.97361161,6654ea31b450c037ef242412,68817205a84113384fffdfe3,689ba6f48eec46f654290db6,,,,,,,,,,,,,,31.6727,59.5832,,,,,,,,,,,,,,,,,,,,,,,,,,,,,,,,,,,,,,,,,,,,,,,,,,,,,,,,,,,,,,,,,,,,,,
,,,,,,,,,6654ea31b450c037ef242412,Spanish,13 or older,"no, only English or Spanish",no,2025-08-12_16h42.11.381,empathy_intonation_perc_control,2024.2.4,MacIntel,59.97361161,6654ea31b450c037ef242412,68817205a84113384fffdfe3,689ba6f48eec46f654290db6,,,,,,,,,,,,./stim/wavs/cuban_match_interrogative-total-yn_Ana-lleva-el-abrigo.wav,1,,,59.5946,62.1853,0,0,2.0716,,0,0,0,6,1,7,1,cuban,,,,,,,,,,,,,,,,,,,,,,,,,,,,,,,,,,,,,,,,,,,,,,,,,,,,,,,,
,,,,,,,,,6654ea31b450c037ef242412,Spanish,13 or older,"no, only English or Spanish",no,2025-08-12_16h42.11.381,empathy_intonation_perc_control,2024.2.4,MacIntel,59.97361161,6654ea31b450c037ef242412,68817205a84113384fffdfe3,689ba6f48eec46f654290db6,,,,,,,,,,,,./stim/wavs/mexican_mismatch_declarative-broad-focus_Mi-tia-odia-la-lluvia.wav,0,,,62.1866,64.1198,0,1,1.4179,,0,1,1,82,1,83,0,mexican,,,,,,,,,,,,,,,,,,,,,,,,,,,,,,,,,,,,,,,,,,,,,,,,,,,,,,,,
,,,,,,,,,6654ea31b450c037ef242412,Spanish,13 or older,"no, only English or Spanish",no,2025-08-12_16h42.11.381,empathy_intonation_perc_control,2024.2.4,MacIntel,59.97361161,6654ea31b450c037ef242412,68817205a84113384fffdfe3,689ba6f48eec46f654290db6,,,,,,,,,,,,./stim/wavs/castilian_mismatch_interrogative-total-yn_Mi-madre-come-la-fruta.wav,1,,,64.1212,64.7867,1,1,0.1347,,0,2,2,26,1,27,0,castilian,,,,,,,,,,,,,,,,,,,,,,,,,,,,,,,,,,,,,,,,,,,,,,,,,,,,,,,,
,,,,,,,,,6654ea31b450c037ef242412,Spanish,13 or older,"no, only English or Spanish",no,2025-08-12_16h42.11.381,empathy_intonation_perc_control,2024.2.4,MacIntel,59.97361161,6654ea31b450c037ef242412,68817205a84113384fffdfe3,689ba6f48eec46f654290db6,,,,,,,,,,,,./stim/wavs/cuban_match_declarative-broad-focus_Ana-lleva-el-abrigo.wav,0,,,64.7876,66.7372,0,1,1.4222,,0,3,3,50,1,51,0,cuban,,,,,,,,,,,,,,,,,,,,,,,,,,,,,,,,,,,,,,,,,,,,,,,,,,,,,,,,
,,,,,,,,,6654ea31b450c037ef242412,Spanish,13 or older,"no, only English or Spanish",no,2025-08-12_16h42.11.381,empathy_intonation_perc_control,2024.2.4,MacIntel,59.97361161,6654ea31b450c037ef242412,68817205a84113384fffdfe3,689ba6f48eec46f654290db6,,,,,,,,,,,,./stim/wavs/mexican_match_declarative-broad-focus_Marta-abre-el-regalo.wav,0,,,66.7385,68.7205,0,1,1.4512,,0,4,4,61,1,62,0,mexican,,,,,,,,,,,,,,,,,,,,,,,,,,,,,,,,,,,,,,,,,,,,,,,,,,,,,,,,
,,,,,,,,,6654ea31b450c037ef242412,Spanish,13 or older,"no, only English or Spanish",no,2025-08-12_16h42.11.381,empathy_intonation_perc_control,2024.2.4,MacIntel,59.97361161,6654ea31b450c037ef242412,68817205a84113384fffdfe3,689ba6f48eec46f654290db6,,,,,,,,,,,,./stim/wavs/puertorican_match_declarative-broad-focus_Emilio-ama-la-marcha.wav,0,,,68.7211,70.7228,0,1,1.4655,,0,5,5,65,1,66,0,puertorican,,,,,,,,,,,,,,,,,,,,,,,,,,,,,,,,,,,,,,,,,,,,,,,,,,,,,,,,
,,,,,,,,,6654ea31b450c037ef242412,Spanish,13 or older,"no, only English or Spanish",no,2025-08-12_16h42.11.381,empathy_intonation_perc_control,2024.2.4,MacIntel,59.97361161,6654ea31b450c037ef242412,68817205a84113384fffdfe3,689ba6f48eec46f654290db6,,,,,,,,,,,,./stim/wavs/puertorican_mismatch_declarative-broad-focus_El-nino-oye-el-rio.wav,0,,,70.724,72.6238,0,1,1.3644,,0,6,6,85,1,86,0,puertorican,,,,,,,,,,,,,,,,,,,,,,,,,,,,,,,,,,,,,,,,,,,,,,,,,,,,,,,,
,,,,,,,,,6654ea31b450c037ef242412,Spanish,13 or older,"no, only English or Spanish",no,2025-08-12_16h42.11.381,empathy_intonation_perc_control,2024.2.4,MacIntel,59.97361161,6654ea31b450c037ef242412,68817205a84113384fffdfe3,689ba6f48eec46f654290db6,,,,,,,,,,,,./stim/wavs/puertorican_match_declarative-broad-focus_Ana-lleva-el-abrigo.wav,0,,,72.6244,74.3739,0,1,1.2184,,0,7,7,62,1,63,0,puertorican,,,,,,,,,,,,,,,,,,,,,,,,,,,,,,,,,,,,,,,,,,,,,,,,,,,,,,,,
,,,,,,,,,6654ea31b450c037ef242412,Spanish,13 or older,"no, only English or Spanish",no,2025-08-12_16h42.11.381,empathy_intonation_perc_control,2024.2.4,MacIntel,59.97361161,6654ea31b450c037ef242412,68817205a84113384fffdfe3,689ba6f48eec46f654290db6,,,,,,,,,,,,./stim/wavs/cuban_mismatch_interrogative-total-yn_El-nino-oye-el-rio.wav,1,,,74.3751,76.142,0,0,1.2368,,0,8,8,30,1,31,1,cuban,,,,,,,,,,,,,,,,,,,,,,,,,,,,,,,,,,,,,,,,,,,,,,,,,,,,,,,,
,,,,,,,,,6654ea31b450c037ef242412,Spanish,13 or older,"no, only English or Spanish",no,2025-08-12_16h42.11.381,empathy_intonation_perc_control,2024.2.4,MacIntel,59.97361161,6654ea31b450c037ef242412,68817205a84113384fffdfe3,689ba6f48eec46f654290db6,,,,,,,,,,,,./stim/wavs/castilian_match_declarative-broad-focus_Manuela-vende-el-carro.wav,0,,,76.1433,78.3754,0,1,1.7008,,0,9,9,46,1,47,0,castilian,,,,,,,,,,,,,,,,,,,,,,,,,,,,,,,,,,,,,,,,,,,,,,,,,,,,,,,,
,,,,,,,,,6654ea31b450c037ef242412,Spanish,13 or older,"no, only English or Spanish",no,2025-08-12_16h42.11.381,empathy_intonation_perc_control,2024.2.4,MacIntel,59.97361161,6654ea31b450c037ef242412,68817205a84113384fffdfe3,689ba6f48eec46f654290db6,,,,,,,,,,,,./stim/wavs/puertorican_mismatch_interrogative-total-yn_La-maestra-vive-en-Paris.wav,1,,,78.3759,80.5435,0,0,1.6466,,0,10,10,41,1,42,1,puertorican,,,,,,,,,,,,,,,,,,,,,,,,,,,,,,,,,,,,,,,,,,,,,,,,,,,,,,,,
,,,,,,,,,6654ea31b450c037ef242412,Spanish,13 or older,"no, only English or Spanish",no,2025-08-12_16h42.11.381,empathy_intonation_perc_control,2024.2.4,MacIntel,59.97361161,6654ea31b450c037ef242412,68817205a84113384fffdfe3,689ba6f48eec46f654290db6,,,,,,,,,,,,./stim/wavs/castilian_match_declarative-broad-focus_Emilio-ama-la-marcha.wav,0,,,80.5447,82.6777,0,1,1.6032,,0,11,11,45,1,46,0,castilian,,,,,,,,,,,,,,,,,,,,,,,,,,,,,,,,,,,,,,,,,,,,,,,,,,,,,,,,
,,,,,,,,,6654ea31b450c037ef242412,Spanish,13 or older,"no, only English or Spanish",no,2025-08-12_16h42.11.381,empathy_intonation_perc_control,2024.2.4,MacIntel,59.97361161,6654ea31b450c037ef242412,68817205a84113384fffdfe3,689ba6f48eec46f654290db6,,,,,,,,,,,,./stim/wavs/cuban_match_declarative-broad-focus_Marta-abre-el-regalo.wav,0,,,82.6789,84.7961,0,1,1.6013,,0,12,12,55,1,56,0,cuban,,,,,,,,,,,,,,,,,,,,,,,,,,,,,,,,,,,,,,,,,,,,,,,,,,,,,,,,
,,,,,,,,,6654ea31b450c037ef242412,Spanish,13 or older,"no, only English or Spanish",no,2025-08-12_16h42.11.381,empathy_intonation_perc_control,2024.2.4,MacIntel,59.97361161,6654ea31b450c037ef242412,68817205a84113384fffdfe3,689ba6f48eec46f654290db6,,,,,,,,,,,,./stim/wavs/castilian_mismatch_declarative-broad-focus_Mi-novio-viene-del-lago.wav,0,,,84.7965,86.8655,0,1,1.5347,,0,13,13,71,1,72,0,castilian,,,,,,,,,,,,,,,,,,,,,,,,,,,,,,,,,,,,,,,,,,,,,,,,,,,,,,,,
,,,,,,,,,6654ea31b450c037ef242412,Spanish,13 or older,"no, only English or Spanish",no,2025-08-12_16h42.11.381,empathy_intonation_perc_control,2024.2.4,MacIntel,59.97361161,6654ea31b450c037ef242412,68817205a84113384fffdfe3,689ba6f48eec46f654290db6,,,,,,,,,,,,./stim/wavs/mexican_match_declarative-broad-focus_Ana-lleva-el-abrigo.wav,0,,,86.8663,88.7167,0,1,1.3166,,0,14,14,56,1,57,0,mexican,,,,,,,,,,,,,,,,,,,,,,,,,,,,,,,,,,,,,,,,,,,,,,,,,,,,,,,,
,,,,,,,,,6654ea31b450c037ef242412,Spanish,13 or older,"no, only English or Spanish",no,2025-08-12_16h42.11.381,empathy_intonation_perc_control,2024.2.4,MacIntel,59.97361161,6654ea31b450c037ef242412,68817205a84113384fffdfe3,689ba6f48eec46f654290db6,,,,,,,,,,,,./stim/wavs/mexican_match_interrogative-total-yn_Mariano-habla-del-tiempo.wav,1,,,88.7173,90.882,1,1,1.6392,,0,15,15,16,1,17,0,mexican,,,,,,,,,,,,,,,,,,,,,,,,,,,,,,,,,,,,,,,,,,,,,,,,,,,,,,,,
,,,,,,,,,6654ea31b450c037ef242412,Spanish,13 or older,"no, only English or Spanish",no,2025-08-12_16h42.11.381,empathy_intonation_perc_control,2024.2.4,MacIntel,59.97361161,6654ea31b450c037ef242412,68817205a84113384fffdfe3,689ba6f48eec46f654290db6,,,,,,,,,,,,./stim/wavs/mexican_match_declarative-broad-focus_Emilio-ama-la-marcha.wav,0,,,90.8827,93.0499,0,1,1.6508,,0,16,16,59,1,60,0,mexican,,,,,,,,,,,,,,,,,,,,,,,,,,,,,,,,,,,,,,,,,,,,,,,,,,,,,,,,
,,,,,,,,,6654ea31b450c037ef242412,Spanish,13 or older,"no, only English or Spanish",no,2025-08-12_16h42.11.381,empathy_intonation_perc_control,2024.2.4,MacIntel,59.97361161,6654ea31b450c037ef242412,68817205a84113384fffdfe3,689ba6f48eec46f654290db6,,,,,,,,,,,,./stim/wavs/mexican_mismatch_interrogative-total-yn_Mi-tia-odia-la-lluvia.wav,1,,,93.0511,95.0162,1,1,1.433,,0,17,17,38,1,39,0,mexican,,,,,,,,,,,,,,,,,,,,,,,,,,,,,,,,,,,,,,,,,,,,,,,,,,,,,,,,
,,,,,,,,,6654ea31b450c037ef242412,Spanish,13 or older,"no, only English or Spanish",no,2025-08-12_16h42.11.381,empathy_intonation_perc_control,2024.2.4,MacIntel,59.97361161,6654ea31b450c037ef242412,68817205a84113384fffdfe3,689ba6f48eec46f654290db6,,,,,,,,,,,,./stim/wavs/cuban_match_interrogative-total-yn_Manuela-vende-el-carro.wav,1,,,95.0167,97.0508,0,0,1.5162,,0,18,18,8,1,9,1,cuban,,,,,,,,,,,,,,,,,,,,,,,,,,,,,,,,,,,,,,,,,,,,,,,,,,,,,,,,
,,,,,,,,,6654ea31b450c037ef242412,Spanish,13 or older,"no, only English or Spanish",no,2025-08-12_16h42.11.381,empathy_intonation_perc_control,2024.2.4,MacIntel,59.97361161,6654ea31b450c037ef242412,68817205a84113384fffdfe3,689ba6f48eec46f654290db6,,,,,,,,,,,,./stim/wavs/mexican_mismatch_interrogative-total-yn_Mi-novio-viene-del-lago.wav,1,,,97.0513,99.189,1,1,1.6169,,0,19,19,37,1,38,0,mexican,,,,,,,,,,,,,,,,,,,,,,,,,,,,,,,,,,,,,,,,,,,,,,,,,,,,,,,,
,,,,,,,,,6654ea31b450c037ef242412,Spanish,13 or older,"no, only English or Spanish",no,2025-08-12_16h42.11.381,empathy_intonation_perc_control,2024.2.4,MacIntel,59.97361161,6654ea31b450c037ef242412,68817205a84113384fffdfe3,689ba6f48eec46f654290db6,,,,,,,,,,,,./stim/wavs/mexican_match_interrogative-total-yn_Ana-lleva-el-abrigo.wav,1,,,99.1897,101.1222,1,1,1.4023,,0,20,20,12,1,13,0,mexican,,,,,,,,,,,,,,,,,,,,,,,,,,,,,,,,,,,,,,,,,,,,,,,,,,,,,,,,
,,,,,,,,,6654ea31b450c037ef242412,Spanish,13 or older,"no, only English or Spanish",no,2025-08-12_16h42.11.381,empathy_intonation_perc_control,2024.2.4,MacIntel,59.97361161,6654ea31b450c037ef242412,68817205a84113384fffdfe3,689ba6f48eec46f654290db6,,,,,,,,,,,,./stim/wavs/mexican_mismatch_interrogative-total-yn_La-maestra-vive-en-Paris.wav,1,,,101.1228,103.2046,1,1,1.5467,,0,21,21,36,1,37,0,mexican,,,,,,,,,,,,,,,,,,,,,,,,,,,,,,,,,,,,,,,,,,,,,,,,,,,,,,,,
,,,,,,,,,6654ea31b450c037ef242412,Spanish,13 or older,"no, only English or Spanish",no,2025-08-12_16h42.11.381,empathy_intonation_perc_control,2024.2.4,MacIntel,59.97361161,6654ea31b450c037ef242412,68817205a84113384fffdfe3,689ba6f48eec46f654290db6,,,,,,,,,,,,./stim/wavs/mexican_mismatch_declarative-broad-focus_El-hombre-mira-la-luna.wav,0,,,103.205,105.174,0,1,1.4508,,0,22,22,79,1,80,0,mexican,,,,,,,,,,,,,,,,,,,,,,,,,,,,,,,,,,,,,,,,,,,,,,,,,,,,,,,,
,,,,,,,,,6654ea31b450c037ef242412,Spanish,13 or older,"no, only English or Spanish",no,2025-08-12_16h42.11.381,empathy_intonation_perc_control,2024.2.4,MacIntel,59.97361161,6654ea31b450c037ef242412,68817205a84113384fffdfe3,689ba6f48eec46f654290db6,,,,,,,,,,,,./stim/wavs/castilian_match_interrogative-total-yn_Emilio-ama-la-marcha.wav,1,,,105.1746,107.2255,1,1,1.5175,,0,23,23,1,1,2,0,castilian,,,,,,,,,,,,,,,,,,,,,,,,,,,,,,,,,,,,,,,,,,,,,,,,,,,,,,,,
,,,,,,,,,6654ea31b450c037ef242412,Spanish,13 or older,"no, only English or Spanish",no,2025-08-12_16h42.11.381,empathy_intonation_perc_control,2024.2.4,MacIntel,59.97361161,6654ea31b450c037ef242412,68817205a84113384fffdfe3,689ba6f48eec46f654290db6,,,,,,,,,,,,./stim/wavs/puertorican_mismatch_interrogative-total-yn_El-nino-oye-el-rio.wav,1,,,107.2261,109.2231,0,0,1.4708,,0,24,24,40,1,41,1,puertorican,,,,,,,,,,,,,,,,,,,,,,,,,,,,,,,,,,,,,,,,,,,,,,,,,,,,,,,,
,,,,,,,,,6654ea31b450c037ef242412,Spanish,13 or older,"no, only English or Spanish",no,2025-08-12_16h42.11.381,empathy_intonation_perc_control,2024.2.4,MacIntel,59.97361161,6654ea31b450c037ef242412,68817205a84113384fffdfe3,689ba6f48eec46f654290db6,,,,,,,,,,,,./stim/wavs/cuban_mismatch_declarative-broad-focus_La-nina-lava-el-plato.wav,0,,,109.2236,111.1915,0,1,1.4426,,0,25,25,75,1,76,0,cuban,,,,,,,,,,,,,,,,,,,,,,,,,,,,,,,,,,,,,,,,,,,,,,,,,,,,,,,,
,,,,,,,,,6654ea31b450c037ef242412,Spanish,13 or older,"no, only English or Spanish",no,2025-08-12_16h42.11.381,empathy_intonation_perc_control,2024.2.4,MacIntel,59.97361161,6654ea31b450c037ef242412,68817205a84113384fffdfe3,689ba6f48eec46f654290db6,,,,,,,,,,,,./stim/wavs/cuban_mismatch_declarative-broad-focus_El-bebe-comia-muy-bien.wav,0,,,111.1922,113.0922,0,1,1.3842,,0,26,26,73,1,74,0,cuban,,,,,,,,,,,,,,,,,,,,,,,,,,,,,,,,,,,,,,,,,,,,,,,,,,,,,,,,
,,,,,,,,,6654ea31b450c037ef242412,Spanish,13 or older,"no, only English or Spanish",no,2025-08-12_16h42.11.381,empathy_intonation_perc_control,2024.2.4,MacIntel,59.97361161,6654ea31b450c037ef242412,68817205a84113384fffdfe3,689ba6f48eec46f654290db6,,,,,,,,,,,,./stim/wavs/mexican_mismatch_interrogative-total-yn_El-nino-oye-el-rio.wav,1,,,113.093,115.0431,1,1,1.4186,,0,27,27,35,1,36,0,mexican,,,,,,,,,,,,,,,,,,,,,,,,,,,,,,,,,,,,,,,,,,,,,,,,,,,,,,,,
,,,,,,,,,6654ea31b450c037ef242412,Spanish,13 or older,"no, only English or Spanish",no,2025-08-12_16h42.11.381,empathy_intonation_perc_control,2024.2.4,MacIntel,59.97361161,6654ea31b450c037ef242412,68817205a84113384fffdfe3,689ba6f48eec46f654290db6,,,,,,,,,,,,./stim/wavs/cuban_mismatch_interrogative-total-yn_Mi-madre-come-la-fruta.wav,1,,,115.0436,117.1943,0,0,1.6343,,0,28,28,31,1,32,1,cuban,,,,,,,,,,,,,,,,,,,,,,,,,,,,,,,,,,,,,,,,,,,,,,,,,,,,,,,,
,,,,,,,,,6654ea31b450c037ef242412,Spanish,13 or older,"no, only English or Spanish",no,2025-08-12_16h42.11.381,empathy_intonation_perc_control,2024.2.4,MacIntel,59.97361161,6654ea31b450c037ef242412,68817205a84113384fffdfe3,689ba6f48eec46f654290db6,,,,,,,,,,,,./stim/wavs/puertorican_mismatch_declarative-broad-focus_La-nina-lava-el-plato.wav,0,,,117.1947,119.1473,0,1,1.4191,,0,29,29,87,1,88,0,puertorican,,,,,,,,,,,,,,,,,,,,,,,,,,,,,,,,,,,,,,,,,,,,,,,,,,,,,,,,
,,,,,,,,,6654ea31b450c037ef242412,Spanish,13 or older,"no, only English or Spanish",no,2025-08-12_16h42.11.381,empathy_intonation_perc_control,2024.2.4,MacIntel,59.97361161,6654ea31b450c037ef242412,68817205a84113384fffdfe3,689ba6f48eec46f654290db6,,,,,,,,,,,,./stim/wavs/castilian_match_interrogative-total-yn_Marta-abre-el-regalo.wav,1,,,119.1482,121.2301,1,1,1.5515,,0,30,30,5,1,6,0,castilian,,,,,,,,,,,,,,,,,,,,,,,,,,,,,,,,,,,,,,,,,,,,,,,,,,,,,,,,
,,,,,,,,,6654ea31b450c037ef242412,Spanish,13 or older,"no, only English or Spanish",no,2025-08-12_16h42.11.381,empathy_intonation_perc_control,2024.2.4,MacIntel,59.97361161,6654ea31b450c037ef242412,68817205a84113384fffdfe3,689ba6f48eec46f654290db6,,,,,,,,,,,,./stim/wavs/puertorican_mismatch_declarative-broad-focus_El-bebe-comia-muy-bien.wav,0,,,121.2314,123.331,0,1,1.5682,,0,31,31,83,1,84,0,puertorican,,,,,,,,,,,,,,,,,,,,,,,,,,,,,,,,,,,,,,,,,,,,,,,,,,,,,,,,
,,,,,,,,,6654ea31b450c037ef242412,Spanish,13 or older,"no, only English or Spanish",no,2025-08-12_16h42.11.381,empathy_intonation_perc_control,2024.2.4,MacIntel,59.97361161,6654ea31b450c037ef242412,68817205a84113384fffdfe3,689ba6f48eec46f654290db6,,,,,,,,,,,,./stim/wavs/castilian_mismatch_declarative-broad-focus_La-nina-lava-el-plato.wav,0,,,123.3326,125.682,0,1,1.8171,,0,32,32,70,1,71,0,castilian,,,,,,,,,,,,,,,,,,,,,,,,,,,,,,,,,,,,,,,,,,,,,,,,,,,,,,,,
,,,,,,,,,6654ea31b450c037ef242412,Spanish,13 or older,"no, only English or Spanish",no,2025-08-12_16h42.11.381,empathy_intonation_perc_control,2024.2.4,MacIntel,59.97361161,6654ea31b450c037ef242412,68817205a84113384fffdfe3,689ba6f48eec46f654290db6,,,,,,,,,,,,./stim/wavs/castilian_match_interrogative-total-yn_Mariano-habla-del-tiempo.wav,1,,,125.6834,127.9321,1,1,1.7222,,0,33,33,4,1,5,0,castilian,,,,,,,,,,,,,,,,,,,,,,,,,,,,,,,,,,,,,,,,,,,,,,,,,,,,,,,,
,,,,,,,,,6654ea31b450c037ef242412,Spanish,13 or older,"no, only English or Spanish",no,2025-08-12_16h42.11.381,empathy_intonation_perc_control,2024.2.4,MacIntel,59.97361161,6654ea31b450c037ef242412,68817205a84113384fffdfe3,689ba6f48eec46f654290db6,,,,,,,,,,,,./stim/wavs/mexican_match_interrogative-total-yn_David-leia-el-libro.wav,1,,,127.9325,129.9162,1,1,1.4684,,0,34,34,14,1,15,0,mexican,,,,,,,,,,,,,,,,,,,,,,,,,,,,,,,,,,,,,,,,,,,,,,,,,,,,,,,,
,,,,,,,,,6654ea31b450c037ef242412,Spanish,13 or older,"no, only English or Spanish",no,2025-08-12_16h42.11.381,empathy_intonation_perc_control,2024.2.4,MacIntel,59.97361161,6654ea31b450c037ef242412,68817205a84113384fffdfe3,689ba6f48eec46f654290db6,,,,,,,,,,,,./stim/wavs/puertorican_match_interrogative-total-yn_Ana-lleva-el-abrigo.wav,1,,,129.9169,132.0171,0,0,1.5727,,0,35,35,18,1,19,1,puertorican,,,,,,,,,,,,,,,,,,,,,,,,,,,,,,,,,,,,,,,,,,,,,,,,,,,,,,,,
,,,,,,,,,6654ea31b450c037ef242412,Spanish,13 or older,"no, only English or Spanish",no,2025-08-12_16h42.11.381,empathy_intonation_perc_control,2024.2.4,MacIntel,59.97361161,6654ea31b450c037ef242412,68817205a84113384fffdfe3,689ba6f48eec46f654290db6,,,,,,,,,,,,./stim/wavs/cuban_mismatch_declarative-broad-focus_Mi-tia-odia-la-lluvia.wav,0,,,132.0177,134.2521,0,1,1.7018,,0,36,36,77,1,78,0,cuban,,,,,,,,,,,,,,,,,,,,,,,,,,,,,,,,,,,,,,,,,,,,,,,,,,,,,,,,
,,,,,,,,,6654ea31b450c037ef242412,Spanish,13 or older,"no, only English or Spanish",no,2025-08-12_16h42.11.381,empathy_intonation_perc_control,2024.2.4,MacIntel,59.97361161,6654ea31b450c037ef242412,68817205a84113384fffdfe3,689ba6f48eec46f654290db6,,,,,,,,,,,,./stim/wavs/puertorican_match_declarative-broad-focus_Maria-bebe-el-vino.wav,0,,,134.2525,136.2201,0,1,1.4493,,0,37,37,67,1,68,0,puertorican,,,,,,,,,,,,,,,,,,,,,,,,,,,,,,,,,,,,,,,,,,,,,,,,,,,,,,,,
,,,,,,,,,6654ea31b450c037ef242412,Spanish,13 or older,"no, only English or Spanish",no,2025-08-12_16h42.11.381,empathy_intonation_perc_control,2024.2.4,MacIntel,59.97361161,6654ea31b450c037ef242412,68817205a84113384fffdfe3,689ba6f48eec46f654290db6,,,,,,,,,,,,./stim/wavs/puertorican_match_interrogative-total-yn_Manuela-vende-el-carro.wav,1,,,136.2206,138.172,0,0,1.4185,,0,38,38,22,1,23,1,puertorican,,,,,,,,,,,,,,,,,,,,,,,,,,,,,,,,,,,,,,,,,,,,,,,,,,,,,,,,
,,,,,,,,,6654ea31b450c037ef242412,Spanish,13 or older,"no, only English or Spanish",no,2025-08-12_16h42.11.381,empathy_intonation_perc_control,2024.2.4,MacIntel,59.97361161,6654ea31b450c037ef242412,68817205a84113384fffdfe3,689ba6f48eec46f654290db6,,,,,,,,,,,,./stim/wavs/castilian_mismatch_interrogative-total-yn_Mi-novio-viene-del-lago.wav,1,,,138.1728,140.3567,1,1,1.6586,,0,39,39,27,1,28,0,castilian,,,,,,,,,,,,,,,,,,,,,,,,,,,,,,,,,,,,,,,,,,,,,,,,,,,,,,,,
,,,,,,,,,6654ea31b450c037ef242412,Spanish,13 or older,"no, only English or Spanish",no,2025-08-12_16h42.11.381,empathy_intonation_perc_control,2024.2.4,MacIntel,59.97361161,6654ea31b450c037ef242412,68817205a84113384fffdfe3,689ba6f48eec46f654290db6,,,,,,,,,,,,./stim/wavs/puertorican_match_declarative-broad-focus_David-leia-el-libro.wav,0,,,140.3577,142.3054,0,1,1.417,,0,40,40,64,1,65,0,puertorican,,,,,,,,,,,,,,,,,,,,,,,,,,,,,,,,,,,,,,,,,,,,,,,,,,,,,,,,
,,,,,,,,,6654ea31b450c037ef242412,Spanish,13 or older,"no, only English or Spanish",no,2025-08-12_16h42.11.381,empathy_intonation_perc_control,2024.2.4,MacIntel,59.97361161,6654ea31b450c037ef242412,68817205a84113384fffdfe3,689ba6f48eec46f654290db6,,,,,,,,,,,,./stim/wavs/cuban_mismatch_declarative-broad-focus_Mi-novio-viene-del-lago.wav,0,,,142.306,144.4739,0,1,1.6315,,0,41,41,76,1,77,0,cuban,,,,,,,,,,,,,,,,,,,,,,,,,,,,,,,,,,,,,,,,,,,,,,,,,,,,,,,,
,,,,,,,,,6654ea31b450c037ef242412,Spanish,13 or older,"no, only English or Spanish",no,2025-08-12_16h42.11.381,empathy_intonation_perc_control,2024.2.4,MacIntel,59.97361161,6654ea31b450c037ef242412,68817205a84113384fffdfe3,689ba6f48eec46f654290db6,,,,,,,,,,,,./stim/wavs/puertorican_mismatch_declarative-broad-focus_El-hombre-mira-la-luna.wav,0,,,144.4751,146.4092,0,1,1.4004,,0,42,42,84,1,85,0,puertorican,,,,,,,,,,,,,,,,,,,,,,,,,,,,,,,,,,,,,,,,,,,,,,,,,,,,,,,,
,,,,,,,,,6654ea31b450c037ef242412,Spanish,13 or older,"no, only English or Spanish",no,2025-08-12_16h42.11.381,empathy_intonation_perc_control,2024.2.4,MacIntel,59.97361161,6654ea31b450c037ef242412,68817205a84113384fffdfe3,689ba6f48eec46f654290db6,,,,,,,,,,,,./stim/wavs/castilian_mismatch_interrogative-total-yn_La-nina-lava-el-plato.wav,1,,,146.4101,148.4424,1,1,1.5,,0,43,43,25,1,26,0,castilian,,,,,,,,,,,,,,,,,,,,,,,,,,,,,,,,,,,,,,,,,,,,,,,,,,,,,,,,
,,,,,,,,,6654ea31b450c037ef242412,Spanish,13 or older,"no, only English or Spanish",no,2025-08-12_16h42.11.381,empathy_intonation_perc_control,2024.2.4,MacIntel,59.97361161,6654ea31b450c037ef242412,68817205a84113384fffdfe3,689ba6f48eec46f654290db6,,,,,,,,,,,,./stim/wavs/puertorican_match_interrogative-total-yn_David-leia-el-libro.wav,1,,,148.443,150.3109,0,0,1.3463,,0,44,44,20,1,21,1,puertorican,,,,,,,,,,,,,,,,,,,,,,,,,,,,,,,,,,,,,,,,,,,,,,,,,,,,,,,,
,,,,,,,,,6654ea31b450c037ef242412,Spanish,13 or older,"no, only English or Spanish",no,2025-08-12_16h42.11.381,empathy_intonation_perc_control,2024.2.4,MacIntel,59.97361161,6654ea31b450c037ef242412,68817205a84113384fffdfe3,689ba6f48eec46f654290db6,,,,,,,,,,,,./stim/wavs/cuban_mismatch_interrogative-total-yn_Mi-novio-viene-del-lago.wav,1,,,150.3121,152.3104,0,0,1.4685,,0,45,45,32,1,33,1,cuban,,,,,,,,,,,,,,,,,,,,,,,,,,,,,,,,,,,,,,,,,,,,,,,,,,,,,,,,
,,,,,,,,,6654ea31b450c037ef242412,Spanish,13 or older,"no, only English or Spanish",no,2025-08-12_16h42.11.381,empathy_intonation_perc_control,2024.2.4,MacIntel,59.97361161,6654ea31b450c037ef242412,68817205a84113384fffdfe3,689ba6f48eec46f654290db6,,,,,,,,,,,,./stim/wavs/cuban_match_interrogative-total-yn_Marta-abre-el-regalo.wav,1,,,152.311,154.1451,0,0,1.3154,,0,46,46,11,1,12,1,cuban,,,,,,,,,,,,,,,,,,,,,,,,,,,,,,,,,,,,,,,,,,,,,,,,,,,,,,,,
,,,,,,,,,6654ea31b450c037ef242412,Spanish,13 or older,"no, only English or Spanish",no,2025-08-12_16h42.11.381,empathy_intonation_perc_control,2024.2.4,MacIntel,59.97361161,6654ea31b450c037ef242412,68817205a84113384fffdfe3,689ba6f48eec46f654290db6,,,,,,,,,,,,./stim/wavs/cuban_match_interrogative-total-yn_Maria-bebe-el-vino.wav,1,,,154.1455,156.0788,0,0,1.4067,,0,47,47,9,1,10,1,cuban,,,,,,,,,,,,,,,,,,,,,,,,,,,,,,,,,,,,,,,,,,,,,,,,,,,,,,,,
,,,,,,,,,6654ea31b450c037ef242412,Spanish,13 or older,"no, only English or Spanish",no,2025-08-12_16h42.11.381,empathy_intonation_perc_control,2024.2.4,MacIntel,59.97361161,6654ea31b450c037ef242412,68817205a84113384fffdfe3,689ba6f48eec46f654290db6,,,,,,,,,,,,./stim/wavs/mexican_match_interrogative-total-yn_Daniel-iba-a-Bolivia.wav,1,,,156.0794,158.1133,1,1,1.5198,,0,48,48,13,1,14,0,mexican,,,,,,,,,,,,,,,,,,,,,,,,,,,,,,,,,,,,,,,,,,,,,,,,,,,,,,,,
,,,,,,,,,6654ea31b450c037ef242412,Spanish,13 or older,"no, only English or Spanish",no,2025-08-12_16h42.11.381,empathy_intonation_perc_control,2024.2.4,MacIntel,59.97361161,6654ea31b450c037ef242412,68817205a84113384fffdfe3,689ba6f48eec46f654290db6,,,,,,,,,,,,./stim/wavs/castilian_mismatch_declarative-broad-focus_La-maestra-vive-en-Paris.wav,0,,,158.1137,160.4319,0,1,1.8042,,0,49,49,69,1,70,0,castilian,,,,,,,,,,,,,,,,,,,,,,,,,,,,,,,,,,,,,,,,,,,,,,,,,,,,,,,,
,,,,,,,,,6654ea31b450c037ef242412,Spanish,13 or older,"no, only English or Spanish",no,2025-08-12_16h42.11.381,empathy_intonation_perc_control,2024.2.4,MacIntel,59.97361161,6654ea31b450c037ef242412,68817205a84113384fffdfe3,689ba6f48eec46f654290db6,,,,,,,,,,,,./stim/wavs/castilian_match_declarative-broad-focus_David-leia-el-libro.wav,0,,,160.4331,162.6162,0,1,1.6522,,0,50,50,44,1,45,0,castilian,,,,,,,,,,,,,,,,,,,,,,,,,,,,,,,,,,,,,,,,,,,,,,,,,,,,,,,,
,,,,,,,,,6654ea31b450c037ef242412,Spanish,13 or older,"no, only English or Spanish",no,2025-08-12_16h42.11.381,empathy_intonation_perc_control,2024.2.4,MacIntel,59.97361161,6654ea31b450c037ef242412,68817205a84113384fffdfe3,689ba6f48eec46f654290db6,,,,,,,,,,,,./stim/wavs/mexican_mismatch_declarative-broad-focus_Mi-novio-viene-del-lago.wav,0,,,162.6176,164.5009,0,1,1.3512,,0,51,51,81,1,82,0,mexican,,,,,,,,,,,,,,,,,,,,,,,,,,,,,,,,,,,,,,,,,,,,,,,,,,,,,,,,
,,,,,,,,,6654ea31b450c037ef242412,Spanish,13 or older,"no, only English or Spanish",no,2025-08-12_16h42.11.381,empathy_intonation_perc_control,2024.2.4,MacIntel,59.97361161,6654ea31b450c037ef242412,68817205a84113384fffdfe3,689ba6f48eec46f654290db6,,,,,,,,,,,,./stim/wavs/cuban_match_declarative-broad-focus_Maria-bebe-el-vino.wav,0,,,164.5015,166.4679,0,1,1.4344,,0,52,52,53,1,54,0,cuban,,,,,,,,,,,,,,,,,,,,,,,,,,,,,,,,,,,,,,,,,,,,,,,,,,,,,,,,
,,,,,,,,,6654ea31b450c037ef242412,Spanish,13 or older,"no, only English or Spanish",no,2025-08-12_16h42.11.381,empathy_intonation_perc_control,2024.2.4,MacIntel,59.97361161,6654ea31b450c037ef242412,68817205a84113384fffdfe3,689ba6f48eec46f654290db6,,,,,,,,,,,,./stim/wavs/cuban_mismatch_declarative-broad-focus_El-hombre-mira-la-luna.wav,0,,,166.4688,168.3187,0,1,1.3172,,0,53,53,74,1,75,0,cuban,,,,,,,,,,,,,,,,,,,,,,,,,,,,,,,,,,,,,,,,,,,,,,,,,,,,,,,,
,,,,,,,,,6654ea31b450c037ef242412,Spanish,13 or older,"no, only English or Spanish",no,2025-08-12_16h42.11.381,empathy_intonation_perc_control,2024.2.4,MacIntel,59.97361161,6654ea31b450c037ef242412,68817205a84113384fffdfe3,689ba6f48eec46f654290db6,,,,,,,,,,,,./stim/wavs/mexican_match_declarative-broad-focus_Mariano-habla-del-tiempo.wav,0,,,168.3193,170.2535,1,0,1.4168,,0,54,54,60,1,61,0,mexican,,,,,,,,,,,,,,,,,,,,,,,,,,,,,,,,,,,,,,,,,,,,,,,,,,,,,,,,
,,,,,,,,,6654ea31b450c037ef242412,Spanish,13 or older,"no, only English or Spanish",no,2025-08-12_16h42.11.381,empathy_intonation_perc_control,2024.2.4,MacIntel,59.97361161,6654ea31b450c037ef242412,68817205a84113384fffdfe3,689ba6f48eec46f654290db6,,,,,,,,,,,,./stim/wavs/puertorican_match_declarative-broad-focus_Daniel-iba-a-Bolivia.wav,0,,,170.2547,172.2041,0,1,1.4171,,0,55,55,63,1,64,0,puertorican,,,,,,,,,,,,,,,,,,,,,,,,,,,,,,,,,,,,,,,,,,,,,,,,,,,,,,,,
,,,,,,,,,6654ea31b450c037ef242412,Spanish,13 or older,"no, only English or Spanish",no,2025-08-12_16h42.11.381,empathy_intonation_perc_control,2024.2.4,MacIntel,59.97361161,6654ea31b450c037ef242412,68817205a84113384fffdfe3,689ba6f48eec46f654290db6,,,,,,,,,,,,./stim/wavs/cuban_match_interrogative-total-yn_Mariano-habla-del-tiempo.wav,1,,,172.2053,174.2879,0,0,1.5526,,0,56,56,10,1,11,1,cuban,,,,,,,,,,,,,,,,,,,,,,,,,,,,,,,,,,,,,,,,,,,,,,,,,,,,,,,,
,,,,,,,,,6654ea31b450c037ef242412,Spanish,13 or older,"no, only English or Spanish",no,2025-08-12_16h42.11.381,empathy_intonation_perc_control,2024.2.4,MacIntel,59.97361161,6654ea31b450c037ef242412,68817205a84113384fffdfe3,689ba6f48eec46f654290db6,,,,,,,,,,,,./stim/wavs/mexican_match_interrogative-total-yn_Emilio-ama-la-marcha.wav,1,,,174.2884,176.3083,1,1,1.5004,,0,57,57,15,1,16,0,mexican,,,,,,,,,,,,,,,,,,,,,,,,,,,,,,,,,,,,,,,,,,,,,,,,,,,,,,,,
,,,,,,,,,6654ea31b450c037ef242412,Spanish,13 or older,"no, only English or Spanish",no,2025-08-12_16h42.11.381,empathy_intonation_perc_control,2024.2.4,MacIntel,59.97361161,6654ea31b450c037ef242412,68817205a84113384fffdfe3,689ba6f48eec46f654290db6,,,,,,,,,,,,./stim/wavs/castilian_mismatch_interrogative-total-yn_La-maestra-vive-en-Paris.wav,1,,,176.309,178.5566,1,1,1.7169,,0,58,58,24,1,25,0,castilian,,,,,,,,,,,,,,,,,,,,,,,,,,,,,,,,,,,,,,,,,,,,,,,,,,,,,,,,
,,,,,,,,,6654ea31b450c037ef242412,Spanish,13 or older,"no, only English or Spanish",no,2025-08-12_16h42.11.381,empathy_intonation_perc_control,2024.2.4,MacIntel,59.97361161,6654ea31b450c037ef242412,68817205a84113384fffdfe3,689ba6f48eec46f654290db6,,,,,,,,,,,,./stim/wavs/puertorican_mismatch_declarative-broad-focus_La-maestra-vive-en-Paris.wav,0,,,178.5571,180.6401,0,1,1.5553,,0,59,59,86,1,87,0,puertorican,,,,,,,,,,,,,,,,,,,,,,,,,,,,,,,,,,,,,,,,,,,,,,,,,,,,,,,,
,,,,,,,,,6654ea31b450c037ef242412,Spanish,13 or older,"no, only English or Spanish",no,2025-08-12_16h42.11.381,empathy_intonation_perc_control,2024.2.4,MacIntel,59.97361161,6654ea31b450c037ef242412,68817205a84113384fffdfe3,689ba6f48eec46f654290db6,,,,,,,,,,,,./stim/wavs/castilian_match_interrogative-total-yn_Maria-bebe-el-vino.wav,1,,,180.6406,182.6078,1,1,1.4448,,0,60,60,3,1,4,0,castilian,,,,,,,,,,,,,,,,,,,,,,,,,,,,,,,,,,,,,,,,,,,,,,,,,,,,,,,,
,,,,,,,,,6654ea31b450c037ef242412,Spanish,13 or older,"no, only English or Spanish",no,2025-08-12_16h42.11.381,empathy_intonation_perc_control,2024.2.4,MacIntel,59.97361161,6654ea31b450c037ef242412,68817205a84113384fffdfe3,689ba6f48eec46f654290db6,,,,,,,,,,,,./stim/wavs/puertorican_match_interrogative-total-yn_Daniel-iba-a-Bolivia.wav,1,,,182.6085,184.561,0,0,1.4308,,0,61,61,19,1,20,1,puertorican,,,,,,,,,,,,,,,,,,,,,,,,,,,,,,,,,,,,,,,,,,,,,,,,,,,,,,,,
,,,,,,,,,6654ea31b450c037ef242412,Spanish,13 or older,"no, only English or Spanish",no,2025-08-12_16h42.11.381,empathy_intonation_perc_control,2024.2.4,MacIntel,59.97361161,6654ea31b450c037ef242412,68817205a84113384fffdfe3,689ba6f48eec46f654290db6,,,,,,,,,,,,./stim/wavs/castilian_mismatch_declarative-broad-focus_El-nino-oye-el-rio.wav,0,,,184.562,186.6444,0,1,1.5552,,0,62,62,68,1,69,0,castilian,,,,,,,,,,,,,,,,,,,,,,,,,,,,,,,,,,,,,,,,,,,,,,,,,,,,,,,,
,,,,,,,,,6654ea31b450c037ef242412,Spanish,13 or older,"no, only English or Spanish",no,2025-08-12_16h42.11.381,empathy_intonation_perc_control,2024.2.4,MacIntel,59.97361161,6654ea31b450c037ef242412,68817205a84113384fffdfe3,689ba6f48eec46f654290db6,,,,,,,,,,,,./stim/wavs/cuban_match_declarative-broad-focus_Daniel-iba-a-Bolivia.wav,0,,,186.6448,188.8277,0,1,1.6499,,0,63,63,51,1,52,0,cuban,,,,,,,,,,,,,,,,,,,,,,,,,,,,,,,,,,,,,,,,,,,,,,,,,,,,,,,,
,,,,,,,,,6654ea31b450c037ef242412,Spanish,13 or older,"no, only English or Spanish",no,2025-08-12_16h42.11.381,empathy_intonation_perc_control,2024.2.4,MacIntel,59.97361161,6654ea31b450c037ef242412,68817205a84113384fffdfe3,689ba6f48eec46f654290db6,,,,,,,,,,,,./stim/wavs/mexican_mismatch_declarative-broad-focus_La-maestra-vive-en-Paris.wav,0,,,188.8289,190.9288,0,1,1.5845,,0,64,64,80,1,81,0,mexican,,,,,,,,,,,,,,,,,,,,,,,,,,,,,,,,,,,,,,,,,,,,,,,,,,,,,,,,
,,,,,,,,,6654ea31b450c037ef242412,Spanish,13 or older,"no, only English or Spanish",no,2025-08-12_16h42.11.381,empathy_intonation_perc_control,2024.2.4,MacIntel,59.97361161,6654ea31b450c037ef242412,68817205a84113384fffdfe3,689ba6f48eec46f654290db6,,,,,,,,,,,,./stim/wavs/puertorican_mismatch_interrogative-total-yn_Mi-madre-come-la-fruta.wav,1,,,190.9293,192.8814,0,0,1.434,,0,65,65,43,1,44,1,puertorican,,,,,,,,,,,,,,,,,,,,,,,,,,,,,,,,,,,,,,,,,,,,,,,,,,,,,,,,
,,,,,,,,,6654ea31b450c037ef242412,Spanish,13 or older,"no, only English or Spanish",no,2025-08-12_16h42.11.381,empathy_intonation_perc_control,2024.2.4,MacIntel,59.97361161,6654ea31b450c037ef242412,68817205a84113384fffdfe3,689ba6f48eec46f654290db6,,,,,,,,,,,,./stim/wavs/castilian_match_declarative-broad-focus_Maria-bebe-el-vino.wav,0,,,192.8827,194.9143,0,1,1.5007,,0,66,66,47,1,48,0,castilian,,,,,,,,,,,,,,,,,,,,,,,,,,,,,,,,,,,,,,,,,,,,,,,,,,,,,,,,
,,,,,,,,,6654ea31b450c037ef242412,Spanish,13 or older,"no, only English or Spanish",no,2025-08-12_16h42.11.381,empathy_intonation_perc_control,2024.2.4,MacIntel,59.97361161,6654ea31b450c037ef242412,68817205a84113384fffdfe3,689ba6f48eec46f654290db6,,,,,,,,,,,,./stim/wavs/castilian_mismatch_interrogative-total-yn_Mi-tia-odia-la-lluvia.wav,1,,,194.9149,197.001,1,1,1.5675,,0,67,67,28,1,29,0,castilian,,,,,,,,,,,,,,,,,,,,,,,,,,,,,,,,,,,,,,,,,,,,,,,,,,,,,,,,
,,,,,,,,,6654ea31b450c037ef242412,Spanish,13 or older,"no, only English or Spanish",no,2025-08-12_16h42.11.381,empathy_intonation_perc_control,2024.2.4,MacIntel,59.97361161,6654ea31b450c037ef242412,68817205a84113384fffdfe3,689ba6f48eec46f654290db6,,,,,,,,,,,,./stim/wavs/mexican_match_interrogative-total-yn_Marta-abre-el-regalo.wav,1,,,197.0014,198.9517,0,0,1.418,,0,68,68,17,1,18,0,mexican,,,,,,,,,,,,,,,,,,,,,,,,,,,,,,,,,,,,,,,,,,,,,,,,,,,,,,,,
,,,,,,,,,6654ea31b450c037ef242412,Spanish,13 or older,"no, only English or Spanish",no,2025-08-12_16h42.11.381,empathy_intonation_perc_control,2024.2.4,MacIntel,59.97361161,6654ea31b450c037ef242412,68817205a84113384fffdfe3,689ba6f48eec46f654290db6,,,,,,,,,,,,./stim/wavs/castilian_match_interrogative-total-yn_Manuela-vende-el-carro.wav,1,,,198.9524,201.2,1,1,1.7188,,0,69,69,2,1,3,0,castilian,,,,,,,,,,,,,,,,,,,,,,,,,,,,,,,,,,,,,,,,,,,,,,,,,,,,,,,,
,,,,,,,,,6654ea31b450c037ef242412,Spanish,13 or older,"no, only English or Spanish",no,2025-08-12_16h42.11.381,empathy_intonation_perc_control,2024.2.4,MacIntel,59.97361161,6654ea31b450c037ef242412,68817205a84113384fffdfe3,689ba6f48eec46f654290db6,,,,,,,,,,,,./stim/wavs/cuban_match_interrogative-total-yn_Daniel-iba-a-Bolivia.wav,1,,,201.2005,203.285,0,0,1.5658,,0,70,70,7,1,8,1,cuban,,,,,,,,,,,,,,,,,,,,,,,,,,,,,,,,,,,,,,,,,,,,,,,,,,,,,,,,
,,,,,,,,,6654ea31b450c037ef242412,Spanish,13 or older,"no, only English or Spanish",no,2025-08-12_16h42.11.381,empathy_intonation_perc_control,2024.2.4,MacIntel,59.97361161,6654ea31b450c037ef242412,68817205a84113384fffdfe3,689ba6f48eec46f654290db6,,,,,,,,,,,,./stim/wavs/cuban_mismatch_interrogative-total-yn_El-hombre-mira-la-luna.wav,1,,,203.2856,205.2022,0,0,1.3844,,0,71,71,29,1,30,1,cuban,,,,,,,,,,,,,,,,,,,,,,,,,,,,,,,,,,,,,,,,,,,,,,,,,,,,,,,,
,,,,,,,,,6654ea31b450c037ef242412,Spanish,13 or older,"no, only English or Spanish",no,2025-08-12_16h42.11.381,empathy_intonation_perc_control,2024.2.4,MacIntel,59.97361161,6654ea31b450c037ef242412,68817205a84113384fffdfe3,689ba6f48eec46f654290db6,,,,,,,,,,,,./stim/wavs/cuban_match_declarative-broad-focus_Manuela-vende-el-carro.wav,0,,,205.2028,207.5041,0,1,1.7664,,0,72,72,52,1,53,0,cuban,,,,,,,,,,,,,,,,,,,,,,,,,,,,,,,,,,,,,,,,,,,,,,,,,,,,,,,,
,,,,,,,,,6654ea31b450c037ef242412,Spanish,13 or older,"no, only English or Spanish",no,2025-08-12_16h42.11.381,empathy_intonation_perc_control,2024.2.4,MacIntel,59.97361161,6654ea31b450c037ef242412,68817205a84113384fffdfe3,689ba6f48eec46f654290db6,,,,,,,,,,,,./stim/wavs/mexican_match_declarative-broad-focus_Daniel-iba-a-Bolivia.wav,0,,,207.505,209.5039,0,1,1.4672,,0,73,73,57,1,58,0,mexican,,,,,,,,,,,,,,,,,,,,,,,,,,,,,,,,,,,,,,,,,,,,,,,,,,,,,,,,
,,,,,,,,,6654ea31b450c037ef242412,Spanish,13 or older,"no, only English or Spanish",no,2025-08-12_16h42.11.381,empathy_intonation_perc_control,2024.2.4,MacIntel,59.97361161,6654ea31b450c037ef242412,68817205a84113384fffdfe3,689ba6f48eec46f654290db6,,,,,,,,,,,,./stim/wavs/castilian_mismatch_declarative-broad-focus_Mi-tia-odia-la-lluvia.wav,0,,,209.5043,211.6727,0,1,1.6502,,0,74,74,72,1,73,0,castilian,,,,,,,,,,,,,,,,,,,,,,,,,,,,,,,,,,,,,,,,,,,,,,,,,,,,,,,,
,,,,,,,,,6654ea31b450c037ef242412,Spanish,13 or older,"no, only English or Spanish",no,2025-08-12_16h42.11.381,empathy_intonation_perc_control,2024.2.4,MacIntel,59.97361161,6654ea31b450c037ef242412,68817205a84113384fffdfe3,689ba6f48eec46f654290db6,,,,,,,,,,,,./stim/wavs/castilian_match_declarative-broad-focus_Mariano-habla-del-tiempo.wav,0,,,211.6731,213.8563,0,1,1.6522,,0,75,75,48,1,49,0,castilian,,,,,,,,,,,,,,,,,,,,,,,,,,,,,,,,,,,,,,,,,,,,,,,,,,,,,,,,
,,,,,,,,,6654ea31b450c037ef242412,Spanish,13 or older,"no, only English or Spanish",no,2025-08-12_16h42.11.381,empathy_intonation_perc_control,2024.2.4,MacIntel,59.97361161,6654ea31b450c037ef242412,68817205a84113384fffdfe3,689ba6f48eec46f654290db6,,,,,,,,,,,,./stim/wavs/puertorican_match_interrogative-total-yn_Maria-bebe-el-vino.wav,1,,,213.8566,215.7247,0,0,1.3518,,0,76,76,23,1,24,1,puertorican,,,,,,,,,,,,,,,,,,,,,,,,,,,,,,,,,,,,,,,,,,,,,,,,,,,,,,,,
,,,,,,,,,6654ea31b450c037ef242412,Spanish,13 or older,"no, only English or Spanish",no,2025-08-12_16h42.11.381,empathy_intonation_perc_control,2024.2.4,MacIntel,59.97361161,6654ea31b450c037ef242412,68817205a84113384fffdfe3,689ba6f48eec46f654290db6,,,,,,,,,,,,./stim/wavs/castilian_match_declarative-broad-focus_Marta-abre-el-regalo.wav,0,,,215.7251,217.8429,0,1,1.5848,,0,77,77,49,1,50,0,castilian,,,,,,,,,,,,,,,,,,,,,,,,,,,,,,,,,,,,,,,,,,,,,,,,,,,,,,,,
,,,,,,,,,6654ea31b450c037ef242412,Spanish,13 or older,"no, only English or Spanish",no,2025-08-12_16h42.11.381,empathy_intonation_perc_control,2024.2.4,MacIntel,59.97361161,6654ea31b450c037ef242412,68817205a84113384fffdfe3,689ba6f48eec46f654290db6,,,,,,,,,,,,./stim/wavs/puertorican_mismatch_interrogative-total-yn_El-hombre-mira-la-luna.wav,1,,,217.8437,219.7927,0,0,1.4181,,0,78,78,39,1,40,1,puertorican,,,,,,,,,,,,,,,,,,,,,,,,,,,,,,,,,,,,,,,,,,,,,,,,,,,,,,,,
,,,,,,,,,6654ea31b450c037ef242412,Spanish,13 or older,"no, only English or Spanish",no,2025-08-12_16h42.11.381,empathy_intonation_perc_control,2024.2.4,MacIntel,59.97361161,6654ea31b450c037ef242412,68817205a84113384fffdfe3,689ba6f48eec46f654290db6,,,,,,,,,,,,./stim/wavs/mexican_mismatch_declarative-broad-focus_El-bebe-comia-muy-bien.wav,0,,,219.7942,221.7458,0,1,1.4125,,0,79,79,78,1,79,0,mexican,,,,,,,,,,,,,,,,,,,,,,,,,,,,,,,,,,,,,,,,,,,,,,,,,,,,,,,,
,,,,,,,,,6654ea31b450c037ef242412,Spanish,13 or older,"no, only English or Spanish",no,2025-08-12_16h42.11.381,empathy_intonation_perc_control,2024.2.4,MacIntel,59.97361161,6654ea31b450c037ef242412,68817205a84113384fffdfe3,689ba6f48eec46f654290db6,,,,,,,,,,,,./stim/wavs/puertorican_match_interrogative-total-yn_Emilio-ama-la-marcha.wav,1,,,221.7463,223.5606,0,0,1.2887,,0,80,80,21,1,22,1,puertorican,,,,,,,,,,,,,,,,,,,,,,,,,,,,,,,,,,,,,,,,,,,,,,,,,,,,,,,,
,,,,,,,,,6654ea31b450c037ef242412,Spanish,13 or older,"no, only English or Spanish",no,2025-08-12_16h42.11.381,empathy_intonation_perc_control,2024.2.4,MacIntel,59.97361161,6654ea31b450c037ef242412,68817205a84113384fffdfe3,689ba6f48eec46f654290db6,,,,,,,,,,,,./stim/wavs/cuban_match_declarative-broad-focus_Mariano-habla-del-tiempo.wav,0,,,223.5611,225.5617,0,1,1.4807,,0,81,81,54,1,55,0,cuban,,,,,,,,,,,,,,,,,,,,,,,,,,,,,,,,,,,,,,,,,,,,,,,,,,,,,,,,
,,,,,,,,,6654ea31b450c037ef242412,Spanish,13 or older,"no, only English or Spanish",no,2025-08-12_16h42.11.381,empathy_intonation_perc_control,2024.2.4,MacIntel,59.97361161,6654ea31b450c037ef242412,68817205a84113384fffdfe3,689ba6f48eec46f654290db6,,,,,,,,,,,,./stim/wavs/puertorican_match_declarative-broad-focus_Manuela-vende-el-carro.wav,0,,,225.5624,227.5132,0,1,1.4385,,0,82,82,66,1,67,0,puertorican,,,,,,,,,,,,,,,,,,,,,,,,,,,,,,,,,,,,,,,,,,,,,,,,,,,,,,,,
,,,,,,,,,6654ea31b450c037ef242412,Spanish,13 or older,"no, only English or Spanish",no,2025-08-12_16h42.11.381,empathy_intonation_perc_control,2024.2.4,MacIntel,59.97361161,6654ea31b450c037ef242412,68817205a84113384fffdfe3,689ba6f48eec46f654290db6,,,,,,,,,,,,./stim/wavs/mexican_match_declarative-broad-focus_David-leia-el-libro.wav,0,,,227.5142,229.3798,0,1,1.3564,,0,83,83,58,1,59,0,mexican,,,,,,,,,,,,,,,,,,,,,,,,,,,,,,,,,,,,,,,,,,,,,,,,,,,,,,,,
,,,,,,,,,6654ea31b450c037ef242412,Spanish,13 or older,"no, only English or Spanish",no,2025-08-12_16h42.11.381,empathy_intonation_perc_control,2024.2.4,MacIntel,59.97361161,6654ea31b450c037ef242412,68817205a84113384fffdfe3,689ba6f48eec46f654290db6,,,,,,,,,,,,./stim/wavs/puertorican_mismatch_interrogative-total-yn_La-nina-lava-el-plato.wav,1,,,229.3802,231.2169,0,0,1.3222,,0,84,84,42,1,43,1,puertorican,,,,,,,,,,,,,,,,,,,,,,,,,,,,,,,,,,,,,,,,,,,,,,,,,,,,,,,,
,,,,,,,,,6654ea31b450c037ef242412,Spanish,13 or older,"no, only English or Spanish",no,2025-08-12_16h42.11.381,empathy_intonation_perc_control,2024.2.4,MacIntel,59.97361161,6654ea31b450c037ef242412,68817205a84113384fffdfe3,689ba6f48eec46f654290db6,,,,,,,,,,,,./stim/wavs/castilian_match_interrogative-total-yn_David-leia-el-libro.wav,1,,,231.2177,233.2494,1,1,1.502,,0,85,85,0,1,1,0,castilian,,,,,,,,,,,,,,,,,,,,,,,,,,,,,,,,,,,,,,,,,,,,,,,,,,,,,,,,
,,,,,,,,,6654ea31b450c037ef242412,Spanish,13 or older,"no, only English or Spanish",no,2025-08-12_16h42.11.381,empathy_intonation_perc_control,2024.2.4,MacIntel,59.97361161,6654ea31b450c037ef242412,68817205a84113384fffdfe3,689ba6f48eec46f654290db6,,,,,,,,,,,,./stim/wavs/mexican_mismatch_interrogative-total-yn_El-hombre-mira-la-luna.wav,1,,,233.2502,235.084,1,1,1.3131,,0,86,86,34,1,35,0,mexican,,,,,,,,,,,,,,,,,,,,,,,,,,,,,,,,,,,,,,,,,,,,,,,,,,,,,,,,
,,,,,,,,,6654ea31b450c037ef242412,Spanish,13 or older,"no, only English or Spanish",no,2025-08-12_16h42.11.381,empathy_intonation_perc_control,2024.2.4,MacIntel,59.97361161,6654ea31b450c037ef242412,68817205a84113384fffdfe3,689ba6f48eec46f654290db6,,,,,,,,,,,,./stim/wavs/cuban_mismatch_interrogative-total-yn_Mi-tia-odia-la-lluvia.wav,1,,,235.0844,237.2342,0,0,1.6184,,0,87,87,33,1,34,1,cuban,,,,,,,,,,,,,,,,,,,,,,,,,,,,,,,,,,,,,,,,,,,,,,,,,,,,,,,,
,,,,,,,"Great! Now we will move on. The next task consists of about 60 trials, in each of which you will see a string of letters. 
  
  Your task is to decide whether this is a real Spanish word or not.", (press the spacebar to continue),6654ea31b450c037ef242412,Spanish,13 or older,"no, only English or Spanish",no,2025-08-12_16h42.11.381,empathy_intonation_perc_control,2024.2.4,MacIntel,59.97361161,6654ea31b450c037ef242412,68817205a84113384fffdfe3,689ba6f48eec46f654290db6,,,,,,,,,,,,,,,,,,,,,,,,,,,,,,237.2413,243.5046,0,0,0,0,1,,,,,,,,,,,,,,,,,,,,,,,,,,,,,,,,,,,,,,,,,,,,,,,,,
,,,,,,,"If you think it is an existing Spanish word, you type '1' (for 'REAL'), and if you think it is not an existing Spanish word, you type '0' (for 'FAKE').", (press the spacebar to continue),6654ea31b450c037ef242412,Spanish,13 or older,"no, only English or Spanish",no,2025-08-12_16h42.11.381,empathy_intonation_perc_control,2024.2.4,MacIntel,59.97361161,6654ea31b450c037ef242412,68817205a84113384fffdfe3,689ba6f48eec46f654290db6,,,,,,,,,,,,,,,,,,,,,,,,,,,,,,243.5074,245.3716,0,1,1,1,1,,,,,,,,,,,,,,,,,,,,,,,,,,,,,,,,,,,,,,,,,,,,,,,,,
,,,,,,,"If you are sure that the word exists, even though you don’t know its exact meaning, you may still respond '1' (REAL). 
  
  But if you are not sure if it is an existing word, you should respond '0' (FAKE).
  
  Let's do a practice round...", (press the spacebar to continue),6654ea31b450c037ef242412,Spanish,13 or older,"no, only English or Spanish",no,2025-08-12_16h42.11.381,empathy_intonation_perc_control,2024.2.4,MacIntel,59.97361161,6654ea31b450c037ef242412,68817205a84113384fffdfe3,689ba6f48eec46f654290db6,,,,,,,,,,,,,,,,,,,,,,,,,,,,,,245.3742,247.4063,0,2,2,2,1,,,,,,,,,,,,,,,,,,,,,,,,,,,,,,,,,,,,,,,,,,,,,,,,,
,,,,,,,,,6654ea31b450c037ef242412,Spanish,13 or older,"no, only English or Spanish",no,2025-08-12_16h42.11.381,empathy_intonation_perc_control,2024.2.4,MacIntel,59.97361161,6654ea31b450c037ef242412,68817205a84113384fffdfe3,689ba6f48eec46f654290db6,,,,,,,,,,,,,0,,,,,,,,,,,,,,,,,,,,,,,,247.4132,249.5237,1,0,1.5802,,249.5239,250.5249,0,0,0,0,1,0,depiste,REAL,FAKE,,,,,,,,,,,,,,,,,,,,,,,,,,,,,,,,
,,,,,,,,,6654ea31b450c037ef242412,Spanish,13 or older,"no, only English or Spanish",no,2025-08-12_16h42.11.381,empathy_intonation_perc_control,2024.2.4,MacIntel,59.97361161,6654ea31b450c037ef242412,68817205a84113384fffdfe3,689ba6f48eec46f654290db6,,,,,,,,,,,,,1,,,,,,,,,,,,,,,,,,,,,,,,250.5271,251.7254,1,1,0.6681,,251.727,252.7257,0,1,1,1,1,0,sí,REAL,FAKE,,,,,,,,,,,,,,,,,,,,,,,,,,,,,,,,
,,,,,,,,,6654ea31b450c037ef242412,Spanish,13 or older,"no, only English or Spanish",no,2025-08-12_16h42.11.381,empathy_intonation_perc_control,2024.2.4,MacIntel,59.97361161,6654ea31b450c037ef242412,68817205a84113384fffdfe3,689ba6f48eec46f654290db6,,,,,,,,,,,,,0,,,,,,,,,,,,,,,,,,,,,,,,252.7278,254.0763,1,0,0.8255,,254.0781,255.0757,0,2,2,2,1,0,coné,REAL,FAKE,,,,,,,,,,,,,,,,,,,,,,,,,,,,,,,,
,,,,,,,,,6654ea31b450c037ef242412,Spanish,13 or older,"no, only English or Spanish",no,2025-08-12_16h42.11.381,empathy_intonation_perc_control,2024.2.4,MacIntel,59.97361161,6654ea31b450c037ef242412,68817205a84113384fffdfe3,689ba6f48eec46f654290db6,,,,,,,,,,,,,0,,,,,,,,,,,,,,,,,,,,,,,,255.0767,256.6103,0,1,1.014,,256.6114,257.6113,0,3,3,3,1,0,calpar,REAL,FAKE,,,,,,,,,,,,,,,,,,,,,,,,,,,,,,,,
,,,,,,,,,6654ea31b450c037ef242412,Spanish,13 or older,"no, only English or Spanish",no,2025-08-12_16h42.11.381,empathy_intonation_perc_control,2024.2.4,MacIntel,59.97361161,6654ea31b450c037ef242412,68817205a84113384fffdfe3,689ba6f48eec46f654290db6,,,,,,,,,,,,,0,,,,,,,,,,,,,,,,,,,,,,,,257.6138,259.3284,0,1,1.1812,,259.3285,260.3299,0,4,4,4,1,0,joten,REAL,FAKE,,,,,,,,,,,,,,,,,,,,,,,,,,,,,,,,
,,,,,,,,,6654ea31b450c037ef242412,Spanish,13 or older,"no, only English or Spanish",no,2025-08-12_16h42.11.381,empathy_intonation_perc_control,2024.2.4,MacIntel,59.97361161,6654ea31b450c037ef242412,68817205a84113384fffdfe3,689ba6f48eec46f654290db6,,,,,,,,,,,,,1,,,,,,,,,,,,,,,,,,,,,,,,260.3315,262.7315,1,1,1.8642,,262.7317,263.7305,0,5,5,5,1,0,sacapuntas,REAL,FAKE,,,,,,,,,,,,,,,,,,,,,,,,,,,,,,,,
,,,,,,,,,6654ea31b450c037ef242412,Spanish,13 or older,"no, only English or Spanish",no,2025-08-12_16h42.11.381,empathy_intonation_perc_control,2024.2.4,MacIntel,59.97361161,6654ea31b450c037ef242412,68817205a84113384fffdfe3,689ba6f48eec46f654290db6,,,,,,,,,,,,,0,,,,,,,,,,,,,,,,,,,,,,,,263.7327,265.3979,0,1,1.132,,265.3979,266.3989,0,6,6,6,1,0,priba,REAL,FAKE,,,,,,,,,,,,,,,,,,,,,,,,,,,,,,,,
,,,,,,,,,6654ea31b450c037ef242412,Spanish,13 or older,"no, only English or Spanish",no,2025-08-12_16h42.11.381,empathy_intonation_perc_control,2024.2.4,MacIntel,59.97361161,6654ea31b450c037ef242412,68817205a84113384fffdfe3,689ba6f48eec46f654290db6,,,,,,,,,,,,,0,,,,,,,,,,,,,,,,,,,,,,,,266.4007,267.8993,1,0,0.9627,,267.9008,268.8989,0,7,7,7,1,0,pelasula,REAL,FAKE,,,,,,,,,,,,,,,,,,,,,,,,,,,,,,,,
,,,,,,,,,6654ea31b450c037ef242412,Spanish,13 or older,"no, only English or Spanish",no,2025-08-12_16h42.11.381,empathy_intonation_perc_control,2024.2.4,MacIntel,59.97361161,6654ea31b450c037ef242412,68817205a84113384fffdfe3,689ba6f48eec46f654290db6,,,,,,,,,,,,,1,,,,,,,,,,,,,,,,,,,,,,,,268.9009,270.1005,1,1,0.674,,270.1017,271.1008,0,8,8,8,1,0,bien,REAL,FAKE,,,,,,,,,,,,,,,,,,,,,,,,,,,,,,,,
,,,,,,,,,6654ea31b450c037ef242412,Spanish,13 or older,"no, only English or Spanish",no,2025-08-12_16h42.11.381,empathy_intonation_perc_control,2024.2.4,MacIntel,59.97361161,6654ea31b450c037ef242412,68817205a84113384fffdfe3,689ba6f48eec46f654290db6,,,,,,,,,,,,,1,,,,,,,,,,,,,,,,,,,,,,,,271.1031,272.2177,1,1,0.599,,272.2178,273.2175,0,9,9,9,1,0,casa,REAL,FAKE,,,,,,,,,,,,,,,,,,,,,,,,,,,,,,,,
,,,,,,,,,6654ea31b450c037ef242412,Spanish,13 or older,"no, only English or Spanish",no,2025-08-12_16h42.11.381,empathy_intonation_perc_control,2024.2.4,MacIntel,59.97361161,6654ea31b450c037ef242412,68817205a84113384fffdfe3,689ba6f48eec46f654290db6,,,,,,,,,,,,,0,,,,,,,,,,,,,,,,,,,,,,,,273.219,274.5194,1,0,0.7779,,274.5205,275.5203,0,10,10,10,1,0,lejo,REAL,FAKE,,,,,,,,,,,,,,,,,,,,,,,,,,,,,,,,
,,,,,,,,,6654ea31b450c037ef242412,Spanish,13 or older,"no, only English or Spanish",no,2025-08-12_16h42.11.381,empathy_intonation_perc_control,2024.2.4,MacIntel,59.97361161,6654ea31b450c037ef242412,68817205a84113384fffdfe3,689ba6f48eec46f654290db6,,,,,,,,,,,,,0,,,,,,,,,,,,,,,,,,,,,,,,275.5225,277.5063,1,0,1.4424,,277.5063,278.5044,0,11,11,11,1,0,pretantas,REAL,FAKE,,,,,,,,,,,,,,,,,,,,,,,,,,,,,,,,
,,,,,,,,,6654ea31b450c037ef242412,Spanish,13 or older,"no, only English or Spanish",no,2025-08-12_16h42.11.381,empathy_intonation_perc_control,2024.2.4,MacIntel,59.97361161,6654ea31b450c037ef242412,68817205a84113384fffdfe3,689ba6f48eec46f654290db6,,,,,,,,,,,,,,,,,,,,,,,,,,,,,,,,,,,,,,,,,,,,,,,,,,,,,,278.5051,280.2379,,,,,,,,,,,,,,,,,,,,,,,,,,,,,,
,,,,,,,,,6654ea31b450c037ef242412,Spanish,13 or older,"no, only English or Spanish",no,2025-08-12_16h42.11.381,empathy_intonation_perc_control,2024.2.4,MacIntel,59.97361161,6654ea31b450c037ef242412,68817205a84113384fffdfe3,689ba6f48eec46f654290db6,,,,,,,,,,,,,1,,,,,,,,,,,,,,,,,,,,,,,,,,,,,,,,,,,,,86,barato,,,,,280.2487,281.8899,1,1,1.1147,,0,0,0,85,1,REAL,FAKE,,,,,,,,,,,,,,,,,
,,,,,,,,,6654ea31b450c037ef242412,Spanish,13 or older,"no, only English or Spanish",no,2025-08-12_16h42.11.381,empathy_intonation_perc_control,2024.2.4,MacIntel,59.97361161,6654ea31b450c037ef242412,68817205a84113384fffdfe3,689ba6f48eec46f654290db6,,,,,,,,,,,,,0,,,,,,,,,,,,,,,,,,,,,,,,,,,,,,,,,,,,,84,escuto,,,,,281.8925,283.5403,0,1,1.1146,,0,1,1,83,1,REAL,FAKE,,,,,,,,,,,,,,,,,
,,,,,,,,,6654ea31b450c037ef242412,Spanish,13 or older,"no, only English or Spanish",no,2025-08-12_16h42.11.381,empathy_intonation_perc_control,2024.2.4,MacIntel,59.97361161,6654ea31b450c037ef242412,68817205a84113384fffdfe3,689ba6f48eec46f654290db6,,,,,,,,,,,,,1,,,,,,,,,,,,,,,,,,,,,,,,,,,,,,,,,,,,,7,pésimo,,,,,283.5423,285.0071,1,1,0.9277,,0,2,2,6,1,REAL,FAKE,,,,,,,,,,,,,,,,,
,,,,,,,,,6654ea31b450c037ef242412,Spanish,13 or older,"no, only English or Spanish",no,2025-08-12_16h42.11.381,empathy_intonation_perc_control,2024.2.4,MacIntel,59.97361161,6654ea31b450c037ef242412,68817205a84113384fffdfe3,689ba6f48eec46f654290db6,,,,,,,,,,,,,1,,,,,,,,,,,,,,,,,,,,,,,,,,,,,,,,,,,,,15,regar,,,,,285.009,286.1903,1,1,0.6632,,0,3,3,14,1,REAL,FAKE,,,,,,,,,,,,,,,,,
,,,,,,,,,6654ea31b450c037ef242412,Spanish,13 or older,"no, only English or Spanish",no,2025-08-12_16h42.11.381,empathy_intonation_perc_control,2024.2.4,MacIntel,59.97361161,6654ea31b450c037ef242412,68817205a84113384fffdfe3,689ba6f48eec46f654290db6,,,,,,,,,,,,,0,,,,,,,,,,,,,,,,,,,,,,,,,,,,,,,,,,,,,21,capillo,,,,,286.1913,287.6254,1,0,0.9137,,0,4,4,20,1,REAL,FAKE,,,,,,,,,,,,,,,,,
,,,,,,,,,6654ea31b450c037ef242412,Spanish,13 or older,"no, only English or Spanish",no,2025-08-12_16h42.11.381,empathy_intonation_perc_control,2024.2.4,MacIntel,59.97361161,6654ea31b450c037ef242412,68817205a84113384fffdfe3,689ba6f48eec46f654290db6,,,,,,,,,,,,,1,,,,,,,,,,,,,,,,,,,,,,,,,,,,,,,,,,,,,51,candado,,,,,287.6272,289.342,0,0,1.1775,,0,5,5,50,1,REAL,FAKE,,,,,,,,,,,,,,,,,
,,,,,,,,,6654ea31b450c037ef242412,Spanish,13 or older,"no, only English or Spanish",no,2025-08-12_16h42.11.381,empathy_intonation_perc_control,2024.2.4,MacIntel,59.97361161,6654ea31b450c037ef242412,68817205a84113384fffdfe3,689ba6f48eec46f654290db6,,,,,,,,,,,,,0,,,,,,,,,,,,,,,,,,,,,,,,,,,,,,,,,,,,,17,floroso,,,,,289.3439,291.1759,1,0,1.3132,,0,6,6,16,1,REAL,FAKE,,,,,,,,,,,,,,,,,
,,,,,,,,,6654ea31b450c037ef242412,Spanish,13 or older,"no, only English or Spanish",no,2025-08-12_16h42.11.381,empathy_intonation_perc_control,2024.2.4,MacIntel,59.97361161,6654ea31b450c037ef242412,68817205a84113384fffdfe3,689ba6f48eec46f654290db6,,,,,,,,,,,,,1,,,,,,,,,,,,,,,,,,,,,,,,,,,,,,,,,,,,,39,torpe,,,,,291.1768,292.4281,0,0,0.7288,,0,7,7,38,1,REAL,FAKE,,,,,,,,,,,,,,,,,
,,,,,,,,,6654ea31b450c037ef242412,Spanish,13 or older,"no, only English or Spanish",no,2025-08-12_16h42.11.381,empathy_intonation_perc_control,2024.2.4,MacIntel,59.97361161,6654ea31b450c037ef242412,68817205a84113384fffdfe3,689ba6f48eec46f654290db6,,,,,,,,,,,,,1,,,,,,,,,,,,,,,,,,,,,,,,,,,,,,,,,,,,,77,tiburón,,,,,292.4306,293.8273,1,1,0.8636,,0,8,8,76,1,REAL,FAKE,,,,,,,,,,,,,,,,,
,,,,,,,,,6654ea31b450c037ef242412,Spanish,13 or older,"no, only English or Spanish",no,2025-08-12_16h42.11.381,empathy_intonation_perc_control,2024.2.4,MacIntel,59.97361161,6654ea31b450c037ef242412,68817205a84113384fffdfe3,689ba6f48eec46f654290db6,,,,,,,,,,,,,1,,,,,,,,,,,,,,,,,,,,,,,,,,,,,,,,,,,,,3,pulmones,,,,,293.8283,295.4806,0,0,1.1305,,0,9,9,2,1,REAL,FAKE,,,,,,,,,,,,,,,,,
,,,,,,,,,6654ea31b450c037ef242412,Spanish,13 or older,"no, only English or Spanish",no,2025-08-12_16h42.11.381,empathy_intonation_perc_control,2024.2.4,MacIntel,59.97361161,6654ea31b450c037ef242412,68817205a84113384fffdfe3,689ba6f48eec46f654290db6,,,,,,,,,,,,,1,,,,,,,,,,,,,,,,,,,,,,,,,,,,,,,,,,,,,36,loro,,,,,295.4819,297.2636,0,0,1.2456,,0,10,10,35,1,REAL,FAKE,,,,,,,,,,,,,,,,,
,,,,,,,,,6654ea31b450c037ef242412,Spanish,13 or older,"no, only English or Spanish",no,2025-08-12_16h42.11.381,empathy_intonation_perc_control,2024.2.4,MacIntel,59.97361161,6654ea31b450c037ef242412,68817205a84113384fffdfe3,689ba6f48eec46f654290db6,,,,,,,,,,,,,1,,,,,,,,,,,,,,,,,,,,,,,,,,,,,,,,,,,,,88,acantilado,,,,,297.2656,298.9318,0,0,1.1292,,0,11,11,87,1,REAL,FAKE,,,,,,,,,,,,,,,,,
,,,,,,,,,6654ea31b450c037ef242412,Spanish,13 or older,"no, only English or Spanish",no,2025-08-12_16h42.11.381,empathy_intonation_perc_control,2024.2.4,MacIntel,59.97361161,6654ea31b450c037ef242412,68817205a84113384fffdfe3,689ba6f48eec46f654290db6,,,,,,,,,,,,,1,,,,,,,,,,,,,,,,,,,,,,,,,,,,,,,,,,,,,85,laúd,,,,,298.9331,300.3304,1,1,0.8648,,0,12,12,84,1,REAL,FAKE,,,,,,,,,,,,,,,,,
,,,,,,,,,6654ea31b450c037ef242412,Spanish,13 or older,"no, only English or Spanish",no,2025-08-12_16h42.11.381,empathy_intonation_perc_control,2024.2.4,MacIntel,59.97361161,6654ea31b450c037ef242412,68817205a84113384fffdfe3,689ba6f48eec46f654290db6,,,,,,,,,,,,,1,,,,,,,,,,,,,,,,,,,,,,,,,,,,,,,,,,,,,59,besar,,,,,300.3313,301.665,1,1,0.8142,,0,13,13,58,1,REAL,FAKE,,,,,,,,,,,,,,,,,
,,,,,,,,,6654ea31b450c037ef242412,Spanish,13 or older,"no, only English or Spanish",no,2025-08-12_16h42.11.381,empathy_intonation_perc_control,2024.2.4,MacIntel,59.97361161,6654ea31b450c037ef242412,68817205a84113384fffdfe3,689ba6f48eec46f654290db6,,,,,,,,,,,,,1,,,,,,,,,,,,,,,,,,,,,,,,,,,,,,,,,,,,,49,ganar,,,,,301.6665,302.9828,0,0,0.7971,,0,14,14,48,1,REAL,FAKE,,,,,,,,,,,,,,,,,
,,,,,,,,,6654ea31b450c037ef242412,Spanish,13 or older,"no, only English or Spanish",no,2025-08-12_16h42.11.381,empathy_intonation_perc_control,2024.2.4,MacIntel,59.97361161,6654ea31b450c037ef242412,68817205a84113384fffdfe3,689ba6f48eec46f654290db6,,,,,,,,,,,,,0,,,,,,,,,,,,,,,,,,,,,,,,,,,,,,,,,,,,,23,lampera,,,,,302.985,304.3995,1,0,0.8798,,0,15,15,22,1,REAL,FAKE,,,,,,,,,,,,,,,,,
,,,,,,,,,6654ea31b450c037ef242412,Spanish,13 or older,"no, only English or Spanish",no,2025-08-12_16h42.11.381,empathy_intonation_perc_control,2024.2.4,MacIntel,59.97361161,6654ea31b450c037ef242412,68817205a84113384fffdfe3,689ba6f48eec46f654290db6,,,,,,,,,,,,,1,,,,,,,,,,,,,,,,,,,,,,,,,,,,,,,,,,,,,75,yacer,,,,,304.4014,305.6342,0,0,0.6956,,0,16,16,74,1,REAL,FAKE,,,,,,,,,,,,,,,,,
,,,,,,,,,6654ea31b450c037ef242412,Spanish,13 or older,"no, only English or Spanish",no,2025-08-12_16h42.11.381,empathy_intonation_perc_control,2024.2.4,MacIntel,59.97361161,6654ea31b450c037ef242412,68817205a84113384fffdfe3,689ba6f48eec46f654290db6,,,,,,,,,,,,,0,,,,,,,,,,,,,,,,,,,,,,,,,,,,,,,,,,,,,27,acutación,,,,,305.6362,307.3844,1,0,1.214,,0,17,17,26,1,REAL,FAKE,,,,,,,,,,,,,,,,,
,,,,,,,,,6654ea31b450c037ef242412,Spanish,13 or older,"no, only English or Spanish",no,2025-08-12_16h42.11.381,empathy_intonation_perc_control,2024.2.4,MacIntel,59.97361161,6654ea31b450c037ef242412,68817205a84113384fffdfe3,689ba6f48eec46f654290db6,,,,,,,,,,,,,1,,,,,,,,,,,,,,,,,,,,,,,,,,,,,,,,,,,,,71,polvoriento,,,,,307.3857,308.8509,0,0,0.9479,,0,18,18,70,1,REAL,FAKE,,,,,,,,,,,,,,,,,
,,,,,,,,,6654ea31b450c037ef242412,Spanish,13 or older,"no, only English or Spanish",no,2025-08-12_16h42.11.381,empathy_intonation_perc_control,2024.2.4,MacIntel,59.97361161,6654ea31b450c037ef242412,68817205a84113384fffdfe3,689ba6f48eec46f654290db6,,,,,,,,,,,,,1,,,,,,,,,,,,,,,,,,,,,,,,,,,,,,,,,,,,,6,tergiversar,,,,,308.8517,310.1182,0,0,0.7298,,0,19,19,5,1,REAL,FAKE,,,,,,,,,,,,,,,,,
,,,,,,,,,6654ea31b450c037ef242412,Spanish,13 or older,"no, only English or Spanish",no,2025-08-12_16h42.11.381,empathy_intonation_perc_control,2024.2.4,MacIntel,59.97361161,6654ea31b450c037ef242412,68817205a84113384fffdfe3,689ba6f48eec46f654290db6,,,,,,,,,,,,,0,,,,,,,,,,,,,,,,,,,,,,,,,,,,,,,,,,,,,66,hacido,,,,,310.1192,311.4201,1,0,0.7795,,0,20,20,65,1,REAL,FAKE,,,,,,,,,,,,,,,,,
,,,,,,,,,6654ea31b450c037ef242412,Spanish,13 or older,"no, only English or Spanish",no,2025-08-12_16h42.11.381,empathy_intonation_perc_control,2024.2.4,MacIntel,59.97361161,6654ea31b450c037ef242412,68817205a84113384fffdfe3,689ba6f48eec46f654290db6,,,,,,,,,,,,,1,,,,,,,,,,,,,,,,,,,,,,,,,,,,,,,,,,,,,26,secuestro,,,,,311.4218,312.9206,1,1,0.9628,,0,21,21,25,1,REAL,FAKE,,,,,,,,,,,,,,,,,
,,,,,,,,,6654ea31b450c037ef242412,Spanish,13 or older,"no, only English or Spanish",no,2025-08-12_16h42.11.381,empathy_intonation_perc_control,2024.2.4,MacIntel,59.97361161,6654ea31b450c037ef242412,68817205a84113384fffdfe3,689ba6f48eec46f654290db6,,,,,,,,,,,,,1,,,,,,,,,,,,,,,,,,,,,,,,,,,,,,,,,,,,,89,prisa,,,,,312.9224,314.3035,0,0,0.8464,,0,22,22,88,1,REAL,FAKE,,,,,,,,,,,,,,,,,
,,,,,,,,,6654ea31b450c037ef242412,Spanish,13 or older,"no, only English or Spanish",no,2025-08-12_16h42.11.381,empathy_intonation_perc_control,2024.2.4,MacIntel,59.97361161,6654ea31b450c037ef242412,68817205a84113384fffdfe3,689ba6f48eec46f654290db6,,,,,,,,,,,,,1,,,,,,,,,,,,,,,,,,,,,,,,,,,,,,,,,,,,,44,cuchara,,,,,314.3051,316.1557,1,1,1.3309,,0,23,23,43,1,REAL,FAKE,,,,,,,,,,,,,,,,,
,,,,,,,,,6654ea31b450c037ef242412,Spanish,13 or older,"no, only English or Spanish",no,2025-08-12_16h42.11.381,empathy_intonation_perc_control,2024.2.4,MacIntel,59.97361161,6654ea31b450c037ef242412,68817205a84113384fffdfe3,689ba6f48eec46f654290db6,,,,,,,,,,,,,1,,,,,,,,,,,,,,,,,,,,,,,,,,,,,,,,,,,,,55,nevar,,,,,316.1576,317.5717,1,1,0.8787,,0,24,24,54,1,REAL,FAKE,,,,,,,,,,,,,,,,,
,,,,,,,,,6654ea31b450c037ef242412,Spanish,13 or older,"no, only English or Spanish",no,2025-08-12_16h42.11.381,empathy_intonation_perc_control,2024.2.4,MacIntel,59.97361161,6654ea31b450c037ef242412,68817205a84113384fffdfe3,689ba6f48eec46f654290db6,,,,,,,,,,,,,0,,,,,,,,,,,,,,,,,,,,,,,,,,,,,,,,,,,,,1,terzo,,,,,317.5726,318.7403,0,1,0.6439,,0,25,25,0,1,REAL,FAKE,,,,,,,,,,,,,,,,,
,,,,,,,,,6654ea31b450c037ef242412,Spanish,13 or older,"no, only English or Spanish",no,2025-08-12_16h42.11.381,empathy_intonation_perc_control,2024.2.4,MacIntel,59.97361161,6654ea31b450c037ef242412,68817205a84113384fffdfe3,689ba6f48eec46f654290db6,,,,,,,,,,,,,1,,,,,,,,,,,,,,,,,,,,,,,,,,,,,,,,,,,,,52,camisa,,,,,318.7426,319.9408,1,1,0.6619,,0,26,26,51,1,REAL,FAKE,,,,,,,,,,,,,,,,,
,,,,,,,,,6654ea31b450c037ef242412,Spanish,13 or older,"no, only English or Spanish",no,2025-08-12_16h42.11.381,empathy_intonation_perc_control,2024.2.4,MacIntel,59.97361161,6654ea31b450c037ef242412,68817205a84113384fffdfe3,689ba6f48eec46f654290db6,,,,,,,,,,,,,0,,,,,,,,,,,,,,,,,,,,,,,,,,,,,,,,,,,,,33,pauca,,,,,319.9429,321.1405,0,1,0.6634,,0,27,27,32,1,REAL,FAKE,,,,,,,,,,,,,,,,,
,,,,,,,,,6654ea31b450c037ef242412,Spanish,13 or older,"no, only English or Spanish",no,2025-08-12_16h42.11.381,empathy_intonation_perc_control,2024.2.4,MacIntel,59.97361161,6654ea31b450c037ef242412,68817205a84113384fffdfe3,689ba6f48eec46f654290db6,,,,,,,,,,,,,1,,,,,,,,,,,,,,,,,,,,,,,,,,,,,,,,,,,,,12,asesinato,,,,,321.1417,322.708,1,1,1.0461,,0,28,28,11,1,REAL,FAKE,,,,,,,,,,,,,,,,,
,,,,,,,,,6654ea31b450c037ef242412,Spanish,13 or older,"no, only English or Spanish",no,2025-08-12_16h42.11.381,empathy_intonation_perc_control,2024.2.4,MacIntel,59.97361161,6654ea31b450c037ef242412,68817205a84113384fffdfe3,689ba6f48eec46f654290db6,,,,,,,,,,,,,0,,,,,,,,,,,,,,,,,,,,,,,,,,,,,,,,,,,,,72,pemición,,,,,322.7094,324.1092,0,1,0.8787,,0,29,29,71,1,REAL,FAKE,,,,,,,,,,,,,,,,,
,,,,,,,,,6654ea31b450c037ef242412,Spanish,13 or older,"no, only English or Spanish",no,2025-08-12_16h42.11.381,empathy_intonation_perc_control,2024.2.4,MacIntel,59.97361161,6654ea31b450c037ef242412,68817205a84113384fffdfe3,689ba6f48eec46f654290db6,,,,,,,,,,,,,1,,,,,,,,,,,,,,,,,,,,,,,,,,,,,,,,,,,,,34,aviso,,,,,324.1108,325.3764,1,1,0.7301,,0,30,30,33,1,REAL,FAKE,,,,,,,,,,,,,,,,,
,,,,,,,,,6654ea31b450c037ef242412,Spanish,13 or older,"no, only English or Spanish",no,2025-08-12_16h42.11.381,empathy_intonation_perc_control,2024.2.4,MacIntel,59.97361161,6654ea31b450c037ef242412,68817205a84113384fffdfe3,689ba6f48eec46f654290db6,,,,,,,,,,,,,0,,,,,,,,,,,,,,,,,,,,,,,,,,,,,,,,,,,,,82,empirador,,,,,325.3785,326.9095,0,1,1.0156,,0,31,31,81,1,REAL,FAKE,,,,,,,,,,,,,,,,,
,,,,,,,,,6654ea31b450c037ef242412,Spanish,13 or older,"no, only English or Spanish",no,2025-08-12_16h42.11.381,empathy_intonation_perc_control,2024.2.4,MacIntel,59.97361161,6654ea31b450c037ef242412,68817205a84113384fffdfe3,689ba6f48eec46f654290db6,,,,,,,,,,,,,1,,,,,,,,,,,,,,,,,,,,,,,,,,,,,,,,,,,,,41,rebuscar,,,,,326.9103,328.3603,1,1,0.9292,,0,32,32,40,1,REAL,FAKE,,,,,,,,,,,,,,,,,
,,,,,,,,,6654ea31b450c037ef242412,Spanish,13 or older,"no, only English or Spanish",no,2025-08-12_16h42.11.381,empathy_intonation_perc_control,2024.2.4,MacIntel,59.97361161,6654ea31b450c037ef242412,68817205a84113384fffdfe3,689ba6f48eec46f654290db6,,,,,,,,,,,,,1,,,,,,,,,,,,,,,,,,,,,,,,,,,,,,,,,,,,,13,helar,,,,,328.3621,329.8123,1,1,0.9299,,0,33,33,12,1,REAL,FAKE,,,,,,,,,,,,,,,,,
,,,,,,,,,6654ea31b450c037ef242412,Spanish,13 or older,"no, only English or Spanish",no,2025-08-12_16h42.11.381,empathy_intonation_perc_control,2024.2.4,MacIntel,59.97361161,6654ea31b450c037ef242412,68817205a84113384fffdfe3,689ba6f48eec46f654290db6,,,,,,,,,,,,,0,,,,,,,,,,,,,,,,,,,,,,,,,,,,,,,,,,,,,50,flamida,,,,,329.8146,331.3287,0,1,0.9785,,0,34,34,49,1,REAL,FAKE,,,,,,,,,,,,,,,,,
,,,,,,,,,6654ea31b450c037ef242412,Spanish,13 or older,"no, only English or Spanish",no,2025-08-12_16h42.11.381,empathy_intonation_perc_control,2024.2.4,MacIntel,59.97361161,6654ea31b450c037ef242412,68817205a84113384fffdfe3,689ba6f48eec46f654290db6,,,,,,,,,,,,,0,,,,,,,,,,,,,,,,,,,,,,,,,,,,,,,,,,,,,74,cintro,,,,,331.3304,332.6468,1,0,0.7963,,0,35,35,73,1,REAL,FAKE,,,,,,,,,,,,,,,,,
,,,,,,,,,6654ea31b450c037ef242412,Spanish,13 or older,"no, only English or Spanish",no,2025-08-12_16h42.11.381,empathy_intonation_perc_control,2024.2.4,MacIntel,59.97361161,6654ea31b450c037ef242412,68817205a84113384fffdfe3,689ba6f48eec46f654290db6,,,,,,,,,,,,,1,,,,,,,,,,,,,,,,,,,,,,,,,,,,,,,,,,,,,28,merodear,,,,,332.6487,334.0147,0,0,0.8255,,0,36,36,27,1,REAL,FAKE,,,,,,,,,,,,,,,,,
,,,,,,,,,6654ea31b450c037ef242412,Spanish,13 or older,"no, only English or Spanish",no,2025-08-12_16h42.11.381,empathy_intonation_perc_control,2024.2.4,MacIntel,59.97361161,6654ea31b450c037ef242412,68817205a84113384fffdfe3,689ba6f48eec46f654290db6,,,,,,,,,,,,,1,,,,,,,,,,,,,,,,,,,,,,,,,,,,,,,,,,,,,83,guante,,,,,334.0171,335.23,1,1,0.6801,,0,37,37,82,1,REAL,FAKE,,,,,,,,,,,,,,,,,
,,,,,,,,,6654ea31b450c037ef242412,Spanish,13 or older,"no, only English or Spanish",no,2025-08-12_16h42.11.381,empathy_intonation_perc_control,2024.2.4,MacIntel,59.97361161,6654ea31b450c037ef242412,68817205a84113384fffdfe3,689ba6f48eec46f654290db6,,,,,,,,,,,,,1,,,,,,,,,,,,,,,,,,,,,,,,,,,,,,,,,,,,,40,alfombra,,,,,335.2309,336.9142,1,1,1.1639,,0,38,38,39,1,REAL,FAKE,,,,,,,,,,,,,,,,,
,,,,,,,,,6654ea31b450c037ef242412,Spanish,13 or older,"no, only English or Spanish",no,2025-08-12_16h42.11.381,empathy_intonation_perc_control,2024.2.4,MacIntel,59.97361161,6654ea31b450c037ef242412,68817205a84113384fffdfe3,689ba6f48eec46f654290db6,,,,,,,,,,,,,1,,,,,,,,,,,,,,,,,,,,,,,,,,,,,,,,,,,,,46,martillo,,,,,336.9151,338.183,1,1,0.7461,,0,39,39,45,1,REAL,FAKE,,,,,,,,,,,,,,,,,
,,,,,,,,,6654ea31b450c037ef242412,Spanish,13 or older,"no, only English or Spanish",no,2025-08-12_16h42.11.381,empathy_intonation_perc_control,2024.2.4,MacIntel,59.97361161,6654ea31b450c037ef242412,68817205a84113384fffdfe3,689ba6f48eec46f654290db6,,,,,,,,,,,,,1,,,,,,,,,,,,,,,,,,,,,,,,,,,,,,,,,,,,,9,hacha,,,,,338.1844,339.633,0,0,0.9117,,0,40,40,8,1,REAL,FAKE,,,,,,,,,,,,,,,,,
,,,,,,,,,6654ea31b450c037ef242412,Spanish,13 or older,"no, only English or Spanish",no,2025-08-12_16h42.11.381,empathy_intonation_perc_control,2024.2.4,MacIntel,59.97361161,6654ea31b450c037ef242412,68817205a84113384fffdfe3,689ba6f48eec46f654290db6,,,,,,,,,,,,,0,,,,,,,,,,,,,,,,,,,,,,,,,,,,,,,,,,,,,10,antar,,,,,339.6348,341.1697,0,1,0.9915,,0,41,41,9,1,REAL,FAKE,,,,,,,,,,,,,,,,,
,,,,,,,,,6654ea31b450c037ef242412,Spanish,13 or older,"no, only English or Spanish",no,2025-08-12_16h42.11.381,empathy_intonation_perc_control,2024.2.4,MacIntel,59.97361161,6654ea31b450c037ef242412,68817205a84113384fffdfe3,689ba6f48eec46f654290db6,,,,,,,,,,,,,1,,,,,,,,,,,,,,,,,,,,,,,,,,,,,,,,,,,,,67,cabello,,,,,341.1713,342.4684,1,1,0.7642,,0,42,42,66,1,REAL,FAKE,,,,,,,,,,,,,,,,,
,,,,,,,,,6654ea31b450c037ef242412,Spanish,13 or older,"no, only English or Spanish",no,2025-08-12_16h42.11.381,empathy_intonation_perc_control,2024.2.4,MacIntel,59.97361161,6654ea31b450c037ef242412,68817205a84113384fffdfe3,689ba6f48eec46f654290db6,,,,,,,,,,,,,1,,,,,,,,,,,,,,,,,,,,,,,,,,,,,,,,,,,,,62,flaco,,,,,342.4702,344.1025,1,1,1.0981,,0,43,43,61,1,REAL,FAKE,,,,,,,,,,,,,,,,,
,,,,,,,,,6654ea31b450c037ef242412,Spanish,13 or older,"no, only English or Spanish",no,2025-08-12_16h42.11.381,empathy_intonation_perc_control,2024.2.4,MacIntel,59.97361161,6654ea31b450c037ef242412,68817205a84113384fffdfe3,689ba6f48eec46f654290db6,,,,,,,,,,,,,1,,,,,,,,,,,,,,,,,,,,,,,,,,,,,,,,,,,,,5,zapato,,,,,344.1041,345.303,1,1,0.6631,,0,44,44,4,1,REAL,FAKE,,,,,,,,,,,,,,,,,
,,,,,,,,,6654ea31b450c037ef242412,Spanish,13 or older,"no, only English or Spanish",no,2025-08-12_16h42.11.381,empathy_intonation_perc_control,2024.2.4,MacIntel,59.97361161,6654ea31b450c037ef242412,68817205a84113384fffdfe3,689ba6f48eec46f654290db6,,,,,,,,,,,,,1,,,,,,,,,,,,,,,,,,,,,,,,,,,,,,,,,,,,,45,jilguero,,,,,345.3049,346.6366,0,0,0.7944,,0,45,45,44,1,REAL,FAKE,,,,,,,,,,,,,,,,,
,,,,,,,,,6654ea31b450c037ef242412,Spanish,13 or older,"no, only English or Spanish",no,2025-08-12_16h42.11.381,empathy_intonation_perc_control,2024.2.4,MacIntel,59.97361161,6654ea31b450c037ef242412,68817205a84113384fffdfe3,689ba6f48eec46f654290db6,,,,,,,,,,,,,0,,,,,,,,,,,,,,,,,,,,,,,,,,,,,,,,,,,,,42,cadallo,,,,,346.6383,347.97,1,0,0.7984,,0,46,46,41,1,REAL,FAKE,,,,,,,,,,,,,,,,,
,,,,,,,,,6654ea31b450c037ef242412,Spanish,13 or older,"no, only English or Spanish",no,2025-08-12_16h42.11.381,empathy_intonation_perc_control,2024.2.4,MacIntel,59.97361161,6654ea31b450c037ef242412,68817205a84113384fffdfe3,689ba6f48eec46f654290db6,,,,,,,,,,,,,1,,,,,,,,,,,,,,,,,,,,,,,,,,,,,,,,,,,,,80,hormiga,,,,,347.9712,349.2536,0,0,0.7651,,0,47,47,79,1,REAL,FAKE,,,,,,,,,,,,,,,,,
,,,,,,,,,6654ea31b450c037ef242412,Spanish,13 or older,"no, only English or Spanish",no,2025-08-12_16h42.11.381,empathy_intonation_perc_control,2024.2.4,MacIntel,59.97361161,6654ea31b450c037ef242412,68817205a84113384fffdfe3,689ba6f48eec46f654290db6,,,,,,,,,,,,,1,,,,,,,,,,,,,,,,,,,,,,,,,,,,,,,,,,,,,14,yunque,,,,,349.2547,350.8887,1,1,1.1108,,0,48,48,13,1,REAL,FAKE,,,,,,,,,,,,,,,,,
,,,,,,,,,6654ea31b450c037ef242412,Spanish,13 or older,"no, only English or Spanish",no,2025-08-12_16h42.11.381,empathy_intonation_perc_control,2024.2.4,MacIntel,59.97361161,6654ea31b450c037ef242412,68817205a84113384fffdfe3,689ba6f48eec46f654290db6,,,,,,,,,,,,,1,,,,,,,,,,,,,,,,,,,,,,,,,,,,,,,,,,,,,90,clavel,,,,,350.8902,352.1558,0,0,0.7471,,0,49,49,89,1,REAL,FAKE,,,,,,,,,,,,,,,,,
,,,,,,,,,6654ea31b450c037ef242412,Spanish,13 or older,"no, only English or Spanish",no,2025-08-12_16h42.11.381,empathy_intonation_perc_control,2024.2.4,MacIntel,59.97361161,6654ea31b450c037ef242412,68817205a84113384fffdfe3,689ba6f48eec46f654290db6,,,,,,,,,,,,,0,,,,,,,,,,,,,,,,,,,,,,,,,,,,,,,,,,,,,63,esposante,,,,,352.1575,353.7398,0,1,1.048,,0,50,50,62,1,REAL,FAKE,,,,,,,,,,,,,,,,,
,,,,,,,,,6654ea31b450c037ef242412,Spanish,13 or older,"no, only English or Spanish",no,2025-08-12_16h42.11.381,empathy_intonation_perc_control,2024.2.4,MacIntel,59.97361161,6654ea31b450c037ef242412,68817205a84113384fffdfe3,689ba6f48eec46f654290db6,,,,,,,,,,,,,0,,,,,,,,,,,,,,,,,,,,,,,,,,,,,,,,,,,,,29,decar,,,,,353.7416,354.907,1,0,0.6471,,0,51,51,28,1,REAL,FAKE,,,,,,,,,,,,,,,,,
,,,,,,,,,6654ea31b450c037ef242412,Spanish,13 or older,"no, only English or Spanish",no,2025-08-12_16h42.11.381,empathy_intonation_perc_control,2024.2.4,MacIntel,59.97361161,6654ea31b450c037ef242412,68817205a84113384fffdfe3,689ba6f48eec46f654290db6,,,,,,,,,,,,,0,,,,,,,,,,,,,,,,,,,,,,,,,,,,,,,,,,,,,18,arsa,,,,,354.9087,356.0901,0,1,0.6457,,0,52,52,17,1,REAL,FAKE,,,,,,,,,,,,,,,,,
,,,,,,,,,6654ea31b450c037ef242412,Spanish,13 or older,"no, only English or Spanish",no,2025-08-12_16h42.11.381,empathy_intonation_perc_control,2024.2.4,MacIntel,59.97361161,6654ea31b450c037ef242412,68817205a84113384fffdfe3,689ba6f48eec46f654290db6,,,,,,,,,,,,,0,,,,,,,,,,,,,,,,,,,,,,,,,,,,,,,,,,,,,87,grodo,,,,,356.0917,357.3748,0,1,0.7623,,0,53,53,86,1,REAL,FAKE,,,,,,,,,,,,,,,,,
,,,,,,,,,6654ea31b450c037ef242412,Spanish,13 or older,"no, only English or Spanish",no,2025-08-12_16h42.11.381,empathy_intonation_perc_control,2024.2.4,MacIntel,59.97361161,6654ea31b450c037ef242412,68817205a84113384fffdfe3,689ba6f48eec46f654290db6,,,,,,,,,,,,,1,,,,,,,,,,,,,,,,,,,,,,,,,,,,,,,,,,,,,60,matar,,,,,357.377,358.7913,1,1,0.8808,,0,54,54,59,1,REAL,FAKE,,,,,,,,,,,,,,,,,
,,,,,,,,,6654ea31b450c037ef242412,Spanish,13 or older,"no, only English or Spanish",no,2025-08-12_16h42.11.381,empathy_intonation_perc_control,2024.2.4,MacIntel,59.97361161,6654ea31b450c037ef242412,68817205a84113384fffdfe3,689ba6f48eec46f654290db6,,,,,,,,,,,,,1,,,,,,,,,,,,,,,,,,,,,,,,,,,,,,,,,,,,,38,estornudar,,,,,358.7924,360.1093,0,0,0.796,,0,55,55,37,1,REAL,FAKE,,,,,,,,,,,,,,,,,
,,,,,,,,,6654ea31b450c037ef242412,Spanish,13 or older,"no, only English or Spanish",no,2025-08-12_16h42.11.381,empathy_intonation_perc_control,2024.2.4,MacIntel,59.97361161,6654ea31b450c037ef242412,68817205a84113384fffdfe3,689ba6f48eec46f654290db6,,,,,,,,,,,,,1,,,,,,,,,,,,,,,,,,,,,,,,,,,,,,,,,,,,,20,ávido,,,,,360.1116,361.2939,1,1,0.6594,,0,56,56,19,1,REAL,FAKE,,,,,,,,,,,,,,,,,
,,,,,,,,,6654ea31b450c037ef242412,Spanish,13 or older,"no, only English or Spanish",no,2025-08-12_16h42.11.381,empathy_intonation_perc_control,2024.2.4,MacIntel,59.97361161,6654ea31b450c037ef242412,68817205a84113384fffdfe3,689ba6f48eec46f654290db6,,,,,,,,,,,,,1,,,,,,,,,,,,,,,,,,,,,,,,,,,,,,,,,,,,,24,látigo,,,,,361.296,362.9119,1,1,1.0789,,0,57,57,23,1,REAL,FAKE,,,,,,,,,,,,,,,,,
,,,,,,,,,6654ea31b450c037ef242412,Spanish,13 or older,"no, only English or Spanish",no,2025-08-12_16h42.11.381,empathy_intonation_perc_control,2024.2.4,MacIntel,59.97361161,6654ea31b450c037ef242412,68817205a84113384fffdfe3,689ba6f48eec46f654290db6,,,,,,,,,,,,,1,,,,,,,,,,,,,,,,,,,,,,,,,,,,,,,,,,,,,61,seda,,,,,362.9139,364.3787,0,0,0.9287,,0,58,58,60,1,REAL,FAKE,,,,,,,,,,,,,,,,,
,,,,,,,,,6654ea31b450c037ef242412,Spanish,13 or older,"no, only English or Spanish",no,2025-08-12_16h42.11.381,empathy_intonation_perc_control,2024.2.4,MacIntel,59.97361161,6654ea31b450c037ef242412,68817205a84113384fffdfe3,689ba6f48eec46f654290db6,,,,,,,,,,,,,1,,,,,,,,,,,,,,,,,,,,,,,,,,,,,,,,,,,,,73,hervidor,,,,,364.3809,365.5956,0,0,0.6796,,0,59,59,72,1,REAL,FAKE,,,,,,,,,,,,,,,,,
,,,,,,,,,6654ea31b450c037ef242412,Spanish,13 or older,"no, only English or Spanish",no,2025-08-12_16h42.11.381,empathy_intonation_perc_control,2024.2.4,MacIntel,59.97361161,6654ea31b450c037ef242412,68817205a84113384fffdfe3,689ba6f48eec46f654290db6,,,,,,,,,,,,,1,,,,,,,,,,,,,,,,,,,,,,,,,,,,,,,,,,,,,64,orgulloso,,,,,365.5976,366.7786,0,0,0.6458,,0,60,60,63,1,REAL,FAKE,,,,,,,,,,,,,,,,,
,,,,,,,,,6654ea31b450c037ef242412,Spanish,13 or older,"no, only English or Spanish",no,2025-08-12_16h42.11.381,empathy_intonation_perc_control,2024.2.4,MacIntel,59.97361161,6654ea31b450c037ef242412,68817205a84113384fffdfe3,689ba6f48eec46f654290db6,,,,,,,,,,,,,1,,,,,,,,,,,,,,,,,,,,,,,,,,,,,,,,,,,,,76,atar,,,,,366.7804,367.9798,0,0,0.6799,,0,61,61,75,1,REAL,FAKE,,,,,,,,,,,,,,,,,
,,,,,,,,,6654ea31b450c037ef242412,Spanish,13 or older,"no, only English or Spanish",no,2025-08-12_16h42.11.381,empathy_intonation_perc_control,2024.2.4,MacIntel,59.97361161,6654ea31b450c037ef242412,68817205a84113384fffdfe3,689ba6f48eec46f654290db6,,,,,,,,,,,,,1,,,,,,,,,,,,,,,,,,,,,,,,,,,,,,,,,,,,,69,engatusar,,,,,367.9814,369.1964,0,0,0.6793,,0,62,62,68,1,REAL,FAKE,,,,,,,,,,,,,,,,,
,,,,,,,,,6654ea31b450c037ef242412,Spanish,13 or older,"no, only English or Spanish",no,2025-08-12_16h42.11.381,empathy_intonation_perc_control,2024.2.4,MacIntel,59.97361161,6654ea31b450c037ef242412,68817205a84113384fffdfe3,689ba6f48eec46f654290db6,,,,,,,,,,,,,1,,,,,,,,,,,,,,,,,,,,,,,,,,,,,,,,,,,,,31,pandilla,,,,,369.198,370.4475,1,1,0.729,,0,63,63,30,1,REAL,FAKE,,,,,,,,,,,,,,,,,
,,,,,,,,,6654ea31b450c037ef242412,Spanish,13 or older,"no, only English or Spanish",no,2025-08-12_16h42.11.381,empathy_intonation_perc_control,2024.2.4,MacIntel,59.97361161,6654ea31b450c037ef242412,68817205a84113384fffdfe3,689ba6f48eec46f654290db6,,,,,,,,,,,,,1,,,,,,,,,,,,,,,,,,,,,,,,,,,,,,,,,,,,,81,pozo,,,,,370.4496,372.1501,1,1,1.1811,,0,64,64,80,1,REAL,FAKE,,,,,,,,,,,,,,,,,
,,,,,,,,,6654ea31b450c037ef242412,Spanish,13 or older,"no, only English or Spanish",no,2025-08-12_16h42.11.381,empathy_intonation_perc_control,2024.2.4,MacIntel,59.97361161,6654ea31b450c037ef242412,68817205a84113384fffdfe3,689ba6f48eec46f654290db6,,,,,,,,,,,,,1,,,,,,,,,,,,,,,,,,,,,,,,,,,,,,,,,,,,,68,alegre,,,,,372.1513,374.5991,1,1,1.9089,,0,65,65,67,1,REAL,FAKE,,,,,,,,,,,,,,,,,
,,,,,,,,,6654ea31b450c037ef242412,Spanish,13 or older,"no, only English or Spanish",no,2025-08-12_16h42.11.381,empathy_intonation_perc_control,2024.2.4,MacIntel,59.97361161,6654ea31b450c037ef242412,68817205a84113384fffdfe3,689ba6f48eec46f654290db6,,,,,,,,,,,,,1,,,,,,,,,,,,,,,,,,,,,,,,,,,,,,,,,,,,,91,click the 1 key.,,,,,374.601,376.9505,1,1,1.8298,,0,66,66,90,1,REAL,FAKE,,,,,,,,,,,,,,,,,
,,,,,,,,,6654ea31b450c037ef242412,Spanish,13 or older,"no, only English or Spanish",no,2025-08-12_16h42.11.381,empathy_intonation_perc_control,2024.2.4,MacIntel,59.97361161,6654ea31b450c037ef242412,68817205a84113384fffdfe3,689ba6f48eec46f654290db6,,,,,,,,,,,,,0,,,,,,,,,,,,,,,,,,,,,,,,,,,,,,,,,,,,,53,vegada,,,,,376.9527,378.4686,0,1,0.9982,,0,67,67,52,1,REAL,FAKE,,,,,,,,,,,,,,,,,
,,,,,,,,,6654ea31b450c037ef242412,Spanish,13 or older,"no, only English or Spanish",no,2025-08-12_16h42.11.381,empathy_intonation_perc_control,2024.2.4,MacIntel,59.97361161,6654ea31b450c037ef242412,68817205a84113384fffdfe3,689ba6f48eec46f654290db6,,,,,,,,,,,,,0,,,,,,,,,,,,,,,,,,,,,,,,,,,,,,,,,,,,,92,click the 0 key.,,,,,378.4704,379.9046,0,1,0.8915,,0,68,68,91,1,REAL,FAKE,,,,,,,,,,,,,,,,,
,,,,,,,,,6654ea31b450c037ef242412,Spanish,13 or older,"no, only English or Spanish",no,2025-08-12_16h42.11.381,empathy_intonation_perc_control,2024.2.4,MacIntel,59.97361161,6654ea31b450c037ef242412,68817205a84113384fffdfe3,689ba6f48eec46f654290db6,,,,,,,,,,,,,0,,,,,,,,,,,,,,,,,,,,,,,,,,,,,,,,,,,,,70,temblo,,,,,379.9057,381.6033,0,1,1.1645,,0,69,69,69,1,REAL,FAKE,,,,,,,,,,,,,,,,,
,,,,,,,,,6654ea31b450c037ef242412,Spanish,13 or older,"no, only English or Spanish",no,2025-08-12_16h42.11.381,empathy_intonation_perc_control,2024.2.4,MacIntel,59.97361161,6654ea31b450c037ef242412,68817205a84113384fffdfe3,689ba6f48eec46f654290db6,,,,,,,,,,,,,1,,,,,,,,,,,,,,,,,,,,,,,,,,,,,,,,,,,,,56,musgo,,,,,381.6051,383.1037,0,0,0.9648,,0,70,70,55,1,REAL,FAKE,,,,,,,,,,,,,,,,,
,,,,,,,,,6654ea31b450c037ef242412,Spanish,13 or older,"no, only English or Spanish",no,2025-08-12_16h42.11.381,empathy_intonation_perc_control,2024.2.4,MacIntel,59.97361161,6654ea31b450c037ef242412,68817205a84113384fffdfe3,689ba6f48eec46f654290db6,,,,,,,,,,,,,1,,,,,,,,,,,,,,,,,,,,,,,,,,,,,,,,,,,,,48,ladrón,,,,,383.1051,384.7553,0,0,1.1301,,0,71,71,47,1,REAL,FAKE,,,,,,,,,,,,,,,,,
,,,,,,,,,6654ea31b450c037ef242412,Spanish,13 or older,"no, only English or Spanish",no,2025-08-12_16h42.11.381,empathy_intonation_perc_control,2024.2.4,MacIntel,59.97361161,6654ea31b450c037ef242412,68817205a84113384fffdfe3,689ba6f48eec46f654290db6,,,,,,,,,,,,,1,,,,,,,,,,,,,,,,,,,,,,,,,,,,,,,,,,,,,37,granuja,,,,,384.7576,386.1718,1,1,0.8808,,0,72,72,36,1,REAL,FAKE,,,,,,,,,,,,,,,,,
,,,,,,,,,6654ea31b450c037ef242412,Spanish,13 or older,"no, only English or Spanish",no,2025-08-12_16h42.11.381,empathy_intonation_perc_control,2024.2.4,MacIntel,59.97361161,6654ea31b450c037ef242412,68817205a84113384fffdfe3,689ba6f48eec46f654290db6,,,,,,,,,,,,,1,,,,,,,,,,,,,,,,,,,,,,,,,,,,,,,,,,,,,11,cenefa,,,,,386.1732,387.8734,1,1,1.1791,,0,73,73,10,1,REAL,FAKE,,,,,,,,,,,,,,,,,
,,,,,,,,,6654ea31b450c037ef242412,Spanish,13 or older,"no, only English or Spanish",no,2025-08-12_16h42.11.381,empathy_intonation_perc_control,2024.2.4,MacIntel,59.97361161,6654ea31b450c037ef242412,68817205a84113384fffdfe3,689ba6f48eec46f654290db6,,,,,,,,,,,,,0,,,,,,,,,,,,,,,,,,,,,,,,,,,,,,,,,,,,,79,tropaje,,,,,387.8755,389.306,0,1,0.9122,,0,74,74,78,1,REAL,FAKE,,,,,,,,,,,,,,,,,
,,,,,,,,,6654ea31b450c037ef242412,Spanish,13 or older,"no, only English or Spanish",no,2025-08-12_16h42.11.381,empathy_intonation_perc_control,2024.2.4,MacIntel,59.97361161,6654ea31b450c037ef242412,68817205a84113384fffdfe3,689ba6f48eec46f654290db6,,,,,,,,,,,,,0,,,,,,,,,,,,,,,,,,,,,,,,,,,,,,,,,,,,,16,abracer,,,,,389.3073,390.6074,1,0,0.7819,,0,75,75,15,1,REAL,FAKE,,,,,,,,,,,,,,,,,
,,,,,,,,,6654ea31b450c037ef242412,Spanish,13 or older,"no, only English or Spanish",no,2025-08-12_16h42.11.381,empathy_intonation_perc_control,2024.2.4,MacIntel,59.97361161,6654ea31b450c037ef242412,68817205a84113384fffdfe3,689ba6f48eec46f654290db6,,,,,,,,,,,,,0,,,,,,,,,,,,,,,,,,,,,,,,,,,,,,,,,,,,,47,cartinar,,,,,390.6089,392.4751,1,0,1.3291,,0,76,76,46,1,REAL,FAKE,,,,,,,,,,,,,,,,,
,,,,,,,,,6654ea31b450c037ef242412,Spanish,13 or older,"no, only English or Spanish",no,2025-08-12_16h42.11.381,empathy_intonation_perc_control,2024.2.4,MacIntel,59.97361161,6654ea31b450c037ef242412,68817205a84113384fffdfe3,689ba6f48eec46f654290db6,,,,,,,,,,,,,1,,,,,,,,,,,,,,,,,,,,,,,,,,,,,,,,,,,,,2,pellizcar,,,,,392.4769,393.96,0,0,0.9623,,0,77,77,1,1,REAL,FAKE,,,,,,,,,,,,,,,,,
,,,,,,,,,6654ea31b450c037ef242412,Spanish,13 or older,"no, only English or Spanish",no,2025-08-12_16h42.11.381,empathy_intonation_perc_control,2024.2.4,MacIntel,59.97361161,6654ea31b450c037ef242412,68817205a84113384fffdfe3,689ba6f48eec46f654290db6,,,,,,,,,,,,,0,,,,,,,,,,,,,,,,,,,,,,,,,,,,,,,,,,,,,32,fatacidad,,,,,393.962,395.5927,0,1,1.0964,,0,78,78,31,1,REAL,FAKE,,,,,,,,,,,,,,,,,
,,,,,,,,,6654ea31b450c037ef242412,Spanish,13 or older,"no, only English or Spanish",no,2025-08-12_16h42.11.381,empathy_intonation_perc_control,2024.2.4,MacIntel,59.97361161,6654ea31b450c037ef242412,68817205a84113384fffdfe3,689ba6f48eec46f654290db6,,,,,,,,,,,,,1,,,,,,,,,,,,,,,,,,,,,,,,,,,,,,,,,,,,,57,tacaño,,,,,395.5948,396.8596,1,1,0.7334,,0,79,79,56,1,REAL,FAKE,,,,,,,,,,,,,,,,,
,,,,,,,,,6654ea31b450c037ef242412,Spanish,13 or older,"no, only English or Spanish",no,2025-08-12_16h42.11.381,empathy_intonation_perc_control,2024.2.4,MacIntel,59.97361161,6654ea31b450c037ef242412,68817205a84113384fffdfe3,689ba6f48eec46f654290db6,,,,,,,,,,,,,0,,,,,,,,,,,,,,,,,,,,,,,,,,,,,,,,,,,,,19,brecedad,,,,,396.8604,398.2784,0,1,0.8928,,0,80,80,18,1,REAL,FAKE,,,,,,,,,,,,,,,,,
,,,,,,,,,6654ea31b450c037ef242412,Spanish,13 or older,"no, only English or Spanish",no,2025-08-12_16h42.11.381,empathy_intonation_perc_control,2024.2.4,MacIntel,59.97361161,6654ea31b450c037ef242412,68817205a84113384fffdfe3,689ba6f48eec46f654290db6,,,,,,,,,,,,,1,,,,,,,,,,,,,,,,,,,,,,,,,,,,,,,,,,,,,43,canela,,,,,398.2804,399.6455,1,1,0.8283,,0,81,81,42,1,REAL,FAKE,,,,,,,,,,,,,,,,,
,,,,,,,,,6654ea31b450c037ef242412,Spanish,13 or older,"no, only English or Spanish",no,2025-08-12_16h42.11.381,empathy_intonation_perc_control,2024.2.4,MacIntel,59.97361161,6654ea31b450c037ef242412,68817205a84113384fffdfe3,689ba6f48eec46f654290db6,,,,,,,,,,,,,1,,,,,,,,,,,,,,,,,,,,,,,,,,,,,,,,,,,,,65,bizcocho,,,,,399.6477,401.4288,1,1,1.2463,,0,82,82,64,1,REAL,FAKE,,,,,,,,,,,,,,,,,
,,,,,,,,,6654ea31b450c037ef242412,Spanish,13 or older,"no, only English or Spanish",no,2025-08-12_16h42.11.381,empathy_intonation_perc_control,2024.2.4,MacIntel,59.97361161,6654ea31b450c037ef242412,68817205a84113384fffdfe3,689ba6f48eec46f654290db6,,,,,,,,,,,,,1,,,,,,,,,,,,,,,,,,,,,,,,,,,,,,,,,,,,,54,fomentar,,,,,401.4299,402.8465,0,0,0.8965,,0,83,83,53,1,REAL,FAKE,,,,,,,,,,,,,,,,,
,,,,,,,,,6654ea31b450c037ef242412,Spanish,13 or older,"no, only English or Spanish",no,2025-08-12_16h42.11.381,empathy_intonation_perc_control,2024.2.4,MacIntel,59.97361161,6654ea31b450c037ef242412,68817205a84113384fffdfe3,689ba6f48eec46f654290db6,,,,,,,,,,,,,0,,,,,,,,,,,,,,,,,,,,,,,,,,,,,,,,,,,,,4,batillón,,,,,402.8481,404.7647,1,0,1.3963,,0,84,84,3,1,REAL,FAKE,,,,,,,,,,,,,,,,,
,,,,,,,,,6654ea31b450c037ef242412,Spanish,13 or older,"no, only English or Spanish",no,2025-08-12_16h42.11.381,empathy_intonation_perc_control,2024.2.4,MacIntel,59.97361161,6654ea31b450c037ef242412,68817205a84113384fffdfe3,689ba6f48eec46f654290db6,,,,,,,,,,,,,1,,,,,,,,,,,,,,,,,,,,,,,,,,,,,,,,,,,,,22,lacayo,,,,,404.7671,406.0985,0,0,0.7934,,0,85,85,21,1,REAL,FAKE,,,,,,,,,,,,,,,,,
,,,,,,,,,6654ea31b450c037ef242412,Spanish,13 or older,"no, only English or Spanish",no,2025-08-12_16h42.11.381,empathy_intonation_perc_control,2024.2.4,MacIntel,59.97361161,6654ea31b450c037ef242412,68817205a84113384fffdfe3,689ba6f48eec46f654290db6,,,,,,,,,,,,,0,,,,,,,,,,,,,,,,,,,,,,,,,,,,,,,,,,,,,30,alardio,,,,,406.1009,407.2989,0,1,0.664,,0,86,86,29,1,REAL,FAKE,,,,,,,,,,,,,,,,,
,,,,,,,,,6654ea31b450c037ef242412,Spanish,13 or older,"no, only English or Spanish",no,2025-08-12_16h42.11.381,empathy_intonation_perc_control,2024.2.4,MacIntel,59.97361161,6654ea31b450c037ef242412,68817205a84113384fffdfe3,689ba6f48eec46f654290db6,,,,,,,,,,,,,0,,,,,,,,,,,,,,,,,,,,,,,,,,,,,,,,,,,,,58,plaudir,,,,,407.3005,408.5163,0,1,0.6807,,0,87,87,57,1,REAL,FAKE,,,,,,,,,,,,,,,,,
,,,,,,,,,6654ea31b450c037ef242412,Spanish,13 or older,"no, only English or Spanish",no,2025-08-12_16h42.11.381,empathy_intonation_perc_control,2024.2.4,MacIntel,59.97361161,6654ea31b450c037ef242412,68817205a84113384fffdfe3,689ba6f48eec46f654290db6,,,,,,,,,,,,,1,,,,,,,,,,,,,,,,,,,,,,,,,,,,,,,,,,,,,25,bisagra,,,,,408.5185,409.9324,0,0,0.8783,,0,88,88,24,1,REAL,FAKE,,,,,,,,,,,,,,,,,
,,,,,,,,,6654ea31b450c037ef242412,Spanish,13 or older,"no, only English or Spanish",no,2025-08-12_16h42.11.381,empathy_intonation_perc_control,2024.2.4,MacIntel,59.97361161,6654ea31b450c037ef242412,68817205a84113384fffdfe3,689ba6f48eec46f654290db6,,,,,,,,,,,,,0,,,,,,,,,,,,,,,,,,,,,,,,,,,,,,,,,,,,,35,rompido,,,,,409.9334,411.133,1,0,0.6826,,0,89,89,34,1,REAL,FAKE,,,,,,,,,,,,,,,,,
,,,,,,,,,6654ea31b450c037ef242412,Spanish,13 or older,"no, only English or Spanish",no,2025-08-12_16h42.11.381,empathy_intonation_perc_control,2024.2.4,MacIntel,59.97361161,6654ea31b450c037ef242412,68817205a84113384fffdfe3,689ba6f48eec46f654290db6,,,,,,,,,,,,,0,,,,,,,,,,,,,,,,,,,,,,,,,,,,,,,,,,,,,8,cadeña,,,,,411.1341,412.4012,1,0,0.7446,,0,90,90,7,1,REAL,FAKE,,,,,,,,,,,,,,,,,
,,,,,,,,,6654ea31b450c037ef242412,Spanish,13 or older,"no, only English or Spanish",no,2025-08-12_16h42.11.381,empathy_intonation_perc_control,2024.2.4,MacIntel,59.97361161,6654ea31b450c037ef242412,68817205a84113384fffdfe3,689ba6f48eec46f654290db6,,,,,,,,,,,,,1,,,,,,,,,,,,,,,,,,,,,,,,,,,,,,,,,,,,,78,frondoso,,,,,412.4032,414.0351,0,0,1.1128,,0,91,91,77,1,REAL,FAKE,,,,,,,,,,,,,,,,,
,,,,,,,,,6654ea31b450c037ef242412,Spanish,13 or older,"no, only English or Spanish",no,2025-08-12_16h42.11.381,empathy_intonation_perc_control,2024.2.4,MacIntel,59.97361161,6654ea31b450c037ef242412,68817205a84113384fffdfe3,689ba6f48eec46f654290db6,,,,,,,,,,,,,,,,,,,,,,,,,,,,,,,,,,,,,,,,,,,,,,,,,,,,,,,,,,,,,,,,,,,,,414.0362,418.4043,,,,,,,,,,,,,,,
,,,,,,,,,6654ea31b450c037ef242412,Spanish,13 or older,"no, only English or Spanish",no,2025-08-12_16h42.11.381,empathy_intonation_perc_control,2024.2.4,MacIntel,59.97361161,6654ea31b450c037ef242412,68817205a84113384fffdfe3,689ba6f48eec46f654290db6,,,,,,,,,,,,,,,,,,,,,,,,,,,1,,,,,,,,,,,,,,,,,,,,,,,,,,,,,,,,,,,,,,,,,,,,418.4139,422.8567,slightly agree,0,0,0,0,1,I can easily tell if someone else wants to enter a conversation.,1,0,1,0,,
,,,,,,,,,6654ea31b450c037ef242412,Spanish,13 or older,"no, only English or Spanish",no,2025-08-12_16h42.11.381,empathy_intonation_perc_control,2024.2.4,MacIntel,59.97361161,6654ea31b450c037ef242412,68817205a84113384fffdfe3,689ba6f48eec46f654290db6,,,,,,,,,,,,,,,,,,,,,,,,,,,2,,,,,,,,,,,,,,,,,,,,,,,,,,,,,,,,,,,,,,,,,,,,422.8593,425.0255,strongly agree,0,1,1,1,1,I prefer animals to humans.,0,1,0,0,,
,,,,,,,,,6654ea31b450c037ef242412,Spanish,13 or older,"no, only English or Spanish",no,2025-08-12_16h42.11.381,empathy_intonation_perc_control,2024.2.4,MacIntel,59.97361161,6654ea31b450c037ef242412,68817205a84113384fffdfe3,689ba6f48eec46f654290db6,,,,,,,,,,,,,,,,,,,,,,,,,,,3,,,,,,,,,,,,,,,,,,,,,,,,,,,,,,,,,,,,,,,,,,,,425.0266,427.2752,slightly disagree,0,2,2,2,1,I try to keep up with the current trends and fashions.,0,1,0,0,,
,,,,,,,,,6654ea31b450c037ef242412,Spanish,13 or older,"no, only English or Spanish",no,2025-08-12_16h42.11.381,empathy_intonation_perc_control,2024.2.4,MacIntel,59.97361161,6654ea31b450c037ef242412,68817205a84113384fffdfe3,689ba6f48eec46f654290db6,,,,,,,,,,,,,,,,,,,,,,,,,,,4,,,,,,,,,,,,,,,,,,,,,,,,,,,,,,,,,,,,,,,,,,,,427.278,430.2586,slightly disagree,0,3,3,3,1,"I find it difficult to explain to others things that I understand easily,   when they don't understand it first time.",1,0,0,1,,
,,,,,,,,,6654ea31b450c037ef242412,Spanish,13 or older,"no, only English or Spanish",no,2025-08-12_16h42.11.381,empathy_intonation_perc_control,2024.2.4,MacIntel,59.97361161,6654ea31b450c037ef242412,68817205a84113384fffdfe3,689ba6f48eec46f654290db6,,,,,,,,,,,,,,,,,,,,,,,,,,,5,,,,,,,,,,,,,,,,,,,,,,,,,,,,,,,,,,,,,,,,,,,,430.2607,432.2435,strongly agree,0,4,4,4,1,I dream most nights.,0,1,0,0,,
,,,,,,,,,6654ea31b450c037ef242412,Spanish,13 or older,"no, only English or Spanish",no,2025-08-12_16h42.11.381,empathy_intonation_perc_control,2024.2.4,MacIntel,59.97361161,6654ea31b450c037ef242412,68817205a84113384fffdfe3,689ba6f48eec46f654290db6,,,,,,,,,,,,,,,,,,,,,,,,,,,6,,,,,,,,,,,,,,,,,,,,,,,,,,,,,,,,,,,,,,,,,,,,432.246,433.4455,strongly agree,0,5,5,5,1,I really enjoy caring for other people.,1,0,1,0,,
,,,,,,,,,6654ea31b450c037ef242412,Spanish,13 or older,"no, only English or Spanish",no,2025-08-12_16h42.11.381,empathy_intonation_perc_control,2024.2.4,MacIntel,59.97361161,6654ea31b450c037ef242412,68817205a84113384fffdfe3,689ba6f48eec46f654290db6,,,,,,,,,,,,,,,,,,,,,,,,,,,7,,,,,,,,,,,,,,,,,,,,,,,,,,,,,,,,,,,,,,,,,,,,433.4474,436.5645,slightly agree,0,6,6,6,1,I try to solve my own problems rather than discussing them with others.,0,1,0,0,,
,,,,,,,,,6654ea31b450c037ef242412,Spanish,13 or older,"no, only English or Spanish",no,2025-08-12_16h42.11.381,empathy_intonation_perc_control,2024.2.4,MacIntel,59.97361161,6654ea31b450c037ef242412,68817205a84113384fffdfe3,689ba6f48eec46f654290db6,,,,,,,,,,,,,,,,,,,,,,,,,,,8,,,,,,,,,,,,,,,,,,,,,,,,,,,,,,,,,,,,,,,,,,,,436.5668,439.0971,slightly disagree,0,7,7,7,1,I find it hard to know what to do in a social situation.,1,0,0,1,,
,,,,,,,,,6654ea31b450c037ef242412,Spanish,13 or older,"no, only English or Spanish",no,2025-08-12_16h42.11.381,empathy_intonation_perc_control,2024.2.4,MacIntel,59.97361161,6654ea31b450c037ef242412,68817205a84113384fffdfe3,689ba6f48eec46f654290db6,,,,,,,,,,,,,,,,,,,,,,,,,,,9,,,,,,,,,,,,,,,,,,,,,,,,,,,,,,,,,,,,,,,,,,,,439.1009,441.2303,strongly agree,0,8,8,8,1,I am at my best first thing in the morning.,0,1,0,0,,
,,,,,,,,,6654ea31b450c037ef242412,Spanish,13 or older,"no, only English or Spanish",no,2025-08-12_16h42.11.381,empathy_intonation_perc_control,2024.2.4,MacIntel,59.97361161,6654ea31b450c037ef242412,68817205a84113384fffdfe3,689ba6f48eec46f654290db6,,,,,,,,,,,,,,,,,,,,,,,,,,,10,,,,,,,,,,,,,,,,,,,,,,,,,,,,,,,,,,,,,,,,,,,,441.2321,444.1998,slightly agree,0,9,9,9,1,People often tell me that I went too far in driving my point home in a discussion.,1,0,0,1,,
,,,,,,,,,6654ea31b450c037ef242412,Spanish,13 or older,"no, only English or Spanish",no,2025-08-12_16h42.11.381,empathy_intonation_perc_control,2024.2.4,MacIntel,59.97361161,6654ea31b450c037ef242412,68817205a84113384fffdfe3,689ba6f48eec46f654290db6,,,,,,,,,,,,,,,,,,,,,,,,,,,11,,,,,,,,,,,,,,,,,,,,,,,,,,,,,,,,,,,,,,,,,,,,444.2029,447.1665,slightly disagree,0,10,10,10,1,It doesn't bother me too much if I am late meeting a friend.,1,0,0,1,,
,,,,,,,,,6654ea31b450c037ef242412,Spanish,13 or older,"no, only English or Spanish",no,2025-08-12_16h42.11.381,empathy_intonation_perc_control,2024.2.4,MacIntel,59.97361161,6654ea31b450c037ef242412,68817205a84113384fffdfe3,689ba6f48eec46f654290db6,,,,,,,,,,,,,,,,,,,,,,,,,,,12,,,,,,,,,,,,,,,,,,,,,,,,,,,,,,,,,,,,,,,,,,,,447.1696,449.8187,strongly disagree,0,11,11,11,1,"Friendships and relationships are just too difficult, so I tend not to 
  bother with them.",1,0,0,1,,
,,,,,,,,,6654ea31b450c037ef242412,Spanish,13 or older,"no, only English or Spanish",no,2025-08-12_16h42.11.381,empathy_intonation_perc_control,2024.2.4,MacIntel,59.97361161,6654ea31b450c037ef242412,68817205a84113384fffdfe3,689ba6f48eec46f654290db6,,,,,,,,,,,,,,,,,,,,,,,,,,,13,,,,,,,,,,,,,,,,,,,,,,,,,,,,,,,,,,,,,,,,,,,,449.8208,452.737,slightly disagree,0,12,12,12,1,"I would never break a law, no matter how minor.",0,1,0,0,,
,,,,,,,,,6654ea31b450c037ef242412,Spanish,13 or older,"no, only English or Spanish",no,2025-08-12_16h42.11.381,empathy_intonation_perc_control,2024.2.4,MacIntel,59.97361161,6654ea31b450c037ef242412,68817205a84113384fffdfe3,689ba6f48eec46f654290db6,,,,,,,,,,,,,,,,,,,,,,,,,,,14,,,,,,,,,,,,,,,,,,,,,,,,,,,,,,,,,,,,,,,,,,,,452.7389,455.3711,slightly disagree,0,13,13,13,1,I often find it difficult to judge if something is rude or polite.,1,0,0,1,,
,,,,,,,,,6654ea31b450c037ef242412,Spanish,13 or older,"no, only English or Spanish",no,2025-08-12_16h42.11.381,empathy_intonation_perc_control,2024.2.4,MacIntel,59.97361161,6654ea31b450c037ef242412,68817205a84113384fffdfe3,689ba6f48eec46f654290db6,,,,,,,,,,,,,,,,,,,,,,,,,,,15,,,,,,,,,,,,,,,,,,,,,,,,,,,,,,,,,,,,,,,,,,,,455.3733,457.8052,slightly disagree,0,14,14,14,1,"In a conversation, I tend to focus on my own thoughts rather than on what 
  my listener might be thinking.",1,0,0,1,,
,,,,,,,,,6654ea31b450c037ef242412,Spanish,13 or older,"no, only English or Spanish",no,2025-08-12_16h42.11.381,empathy_intonation_perc_control,2024.2.4,MacIntel,59.97361161,6654ea31b450c037ef242412,68817205a84113384fffdfe3,689ba6f48eec46f654290db6,,,,,,,,,,,,,,,,,,,,,,,,,,,16,,,,,,,,,,,,,,,,,,,,,,,,,,,,,,,,,,,,,,,,,,,,457.8078,460.7065,strongly disagree,0,15,15,15,1,I prefer practical jokes to verbal humor.,0,1,0,0,,
,,,,,,,,,6654ea31b450c037ef242412,Spanish,13 or older,"no, only English or Spanish",no,2025-08-12_16h42.11.381,empathy_intonation_perc_control,2024.2.4,MacIntel,59.97361161,6654ea31b450c037ef242412,68817205a84113384fffdfe3,689ba6f48eec46f654290db6,,,,,,,,,,,,,,,,,,,,,,,,,,,17,,,,,,,,,,,,,,,,,,,,,,,,,,,,,,,,,,,,,,,,,,,,460.7092,462.56,slightly agree,0,16,16,16,1,I live life for today rather than the future.,0,1,0,0,,
,,,,,,,,,6654ea31b450c037ef242412,Spanish,13 or older,"no, only English or Spanish",no,2025-08-12_16h42.11.381,empathy_intonation_perc_control,2024.2.4,MacIntel,59.97361161,6654ea31b450c037ef242412,68817205a84113384fffdfe3,689ba6f48eec46f654290db6,,,,,,,,,,,,,,,,,,,,,,,,,,,18,,,,,,,,,,,,,,,,,,,,,,,,,,,,,,,,,,,,,,,,,,,,462.562,465.3932,strongly disagree,0,17,17,17,1,"When I was a child, I enjoyed cutting up worms to see what would happen.",1,0,0,1,,
,,,,,,,,,6654ea31b450c037ef242412,Spanish,13 or older,"no, only English or Spanish",no,2025-08-12_16h42.11.381,empathy_intonation_perc_control,2024.2.4,MacIntel,59.97361161,6654ea31b450c037ef242412,68817205a84113384fffdfe3,689ba6f48eec46f654290db6,,,,,,,,,,,,,,,,,,,,,,,,,,,19,,,,,,,,,,,,,,,,,,,,,,,,,,,,,,,,,,,,,,,,,,,,465.3955,467.9602,slightly agree,0,18,18,18,1,I can pick up quickly if someone says one thing but means another.,1,0,1,0,,
,,,,,,,,,6654ea31b450c037ef242412,Spanish,13 or older,"no, only English or Spanish",no,2025-08-12_16h42.11.381,empathy_intonation_perc_control,2024.2.4,MacIntel,59.97361161,6654ea31b450c037ef242412,68817205a84113384fffdfe3,689ba6f48eec46f654290db6,,,,,,,,,,,,,,,,,,,,,,,,,,,20,,,,,,,,,,,,,,,,,,,,,,,,,,,,,,,,,,,,,,,,,,,,467.9622,469.645,slightly agree,0,19,19,19,1,I tend to have very strong opinions about morality.,0,1,0,0,,
,,,,,,,,,6654ea31b450c037ef242412,Spanish,13 or older,"no, only English or Spanish",no,2025-08-12_16h42.11.381,empathy_intonation_perc_control,2024.2.4,MacIntel,59.97361161,6654ea31b450c037ef242412,68817205a84113384fffdfe3,689ba6f48eec46f654290db6,,,,,,,,,,,,,,,,,,,,,,,,,,,21,,,,,,,,,,,,,,,,,,,,,,,,,,,,,,,,,,,,,,,,,,,,469.6477,472.3632,slightly disagree,0,20,20,20,1,It is hard for me to see why some things upset people so much.,1,0,0,1,,
,,,,,,,,,6654ea31b450c037ef242412,Spanish,13 or older,"no, only English or Spanish",no,2025-08-12_16h42.11.381,empathy_intonation_perc_control,2024.2.4,MacIntel,59.97361161,6654ea31b450c037ef242412,68817205a84113384fffdfe3,689ba6f48eec46f654290db6,,,,,,,,,,,,,,,,,,,,,,,,,,,22,,,,,,,,,,,,,,,,,,,,,,,,,,,,,,,,,,,,,,,,,,,,472.3652,474.196,slightly agree,0,21,21,21,1,I find it easy to put myself in somebody else's shoes.,1,0,1,0,,
,,,,,,,,,6654ea31b450c037ef242412,Spanish,13 or older,"no, only English or Spanish",no,2025-08-12_16h42.11.381,empathy_intonation_perc_control,2024.2.4,MacIntel,59.97361161,6654ea31b450c037ef242412,68817205a84113384fffdfe3,689ba6f48eec46f654290db6,,,,,,,,,,,,,,,,,,,,,,,,,,,23,,,,,,,,,,,,,,,,,,,,,,,,,,,,,,,,,,,,,,,,,,,,474.1974,476.8644,slightly disagree,0,22,22,22,1,I think that good manners are the most important thing a parent can teach their child.,0,1,0,0,,
