instructions_2afc.started,instructions_2afc.stopped,instructions_2afc_loop.thisRepN,instructions_2afc_loop.thisTrialN,instructions_2afc_loop.thisN,instructions_2afc_loop.thisIndex,instructions_2afc_loop.ran,instructions_text,continue_text,participant_id,"What variety of Spanish are you most familiar with? (e.g., Peruvian, Spanish, Mexican)",At what age did you begin learning Spanish?,Are you proficient in any languages other than English/Spanish?,"Are you familiar with Caribbean (e.g., Caribbean, Puerto Rican) or Galician Spanish?",date,expName,psychopyVersion,OS,frameRate,id,study_id,session,practice_2afc.started,practice_2afc.stopped,key_resp_2afc_practice.keys,key_resp_2afc_practice.corr,key_resp_2afc_practice.rt,key_resp_2afc_practice.duration,trials_2afc_practice_loop.thisRepN,trials_2afc_practice_loop.thisTrialN,trials_2afc_practice_loop.thisN,trials_2afc_practice_loop.thisIndex,trials_2afc_practice_loop.ran,path,correct_response,check_2afc.started,check_2afc.stopped,trial_2afc.started,trial_2afc.stopped,key_resp_2afc_trial.keys,key_resp_2afc_trial.corr,key_resp_2afc_trial.rt,key_resp_2afc_trial.duration,trials_2afc_loop.thisRepN,trials_2afc_loop.thisTrialN,trials_2afc_loop.thisN,trials_2afc_loop.thisIndex,trials_2afc_loop.ran,item_num,target,variety,instructions_lextale.started,instructions_lextale.stopped,instructions_lextale_loop.thisRepN,instructions_lextale_loop.thisTrialN,instructions_lextale_loop.thisN,instructions_lextale_loop.thisIndex,instructions_lextale_loop.ran,practice_lextale.started,practice_lextale.stopped,key_resp_lextale_practice.keys,key_resp_lextale_practice.corr,key_resp_lextale_practice.rt,key_resp_lextale_practice.duration,practice_feedback_lextale.started,practice_feedback_lextale.stopped,trials_lextale_practice_loop.thisRepN,trials_lextale_practice_loop.thisTrialN,trials_lextale_practice_loop.thisN,trials_lextale_practice_loop.thisIndex,trials_lextale_practice_loop.ran,stim,word,prac_button_real,prac_button_false,check_lextale.started,check_lextale.stopped,trial_lextale.started,trial_lextale.stopped,key_resp_lextale_trial.keys,key_resp_lextale_trial.corr,key_resp_lextale_trial.rt,key_resp_lextale_trial.duration,trials_lextale_loop.thisRepN,trials_lextale_loop.thisTrialN,trials_lextale_loop.thisN,trials_lextale_loop.thisIndex,trials_lextale_loop.ran,button_real,button_false,instructions_eq.started,instructions_eq.stopped,trial_eq.started,trial_eq.stopped,slider_eq_trial.response,trials_eq_loop.thisRepN,trials_eq_loop.thisTrialN,trials_eq_loop.thisN,trials_eq_loop.thisIndex,trials_eq_loop.ran,item,is_test_item,is_distractor,is_agree_score,is_disagree_score,end_exp.started,end_exp.stopped
0.0242,2.9739,0,0,0,0,1,"In the following task you are going to hear a series of utterances. 

  You will decide if the utterances sound like questions or not using your keyboard.", (press the spacebar to continue),6658d49af0f0787f8c8132b9,"Spanish, Mexican",13 or older,"no, only English or Spanish",no,2025-08-12_16h32.12.147,empathy_intonation_perc_control,2024.2.4,Win32,59.88023952,6658d49af0f0787f8c8132b9,68817205a84113384fffdfe3,689ba4a3dec8374738dc4b05,,,,,,,,,,,,,,,,,,,,,,,,,,,,,,,,,,,,,,,,,,,,,,,,,,,,,,,,,,,,,,,,,,,,,,,,,,,,,,,,,,,,,
2.9768,11.1732,0,1,1,1,1,"If you believe the utterance is a question, type '1' (for 'yes') and if you do not 
  believe it is a question type '0' (for 'no').

  Let's practice a bit...", (press the spacebar to continue),6658d49af0f0787f8c8132b9,"Spanish, Mexican",13 or older,"no, only English or Spanish",no,2025-08-12_16h32.12.147,empathy_intonation_perc_control,2024.2.4,Win32,59.88023952,6658d49af0f0787f8c8132b9,68817205a84113384fffdfe3,689ba4a3dec8374738dc4b05,,,,,,,,,,,,,,,,,,,,,,,,,,,,,,,,,,,,,,,,,,,,,,,,,,,,,,,,,,,,,,,,,,,,,,,,,,,,,,,,,,,,,
,,,,,,,,,6658d49af0f0787f8c8132b9,"Spanish, Mexican",13 or older,"no, only English or Spanish",no,2025-08-12_16h32.12.147,empathy_intonation_perc_control,2024.2.4,Win32,59.88023952,6658d49af0f0787f8c8132b9,68817205a84113384fffdfe3,689ba4a3dec8374738dc4b05,11.1938,21.4295,0,1,9.7095,,0,0,0,7,1,./stim/wavs/puertorican_statement_filler_La-nina-pinta-con-su-amiga.wav,0,,,,,,,,,,,,,,,,,,,,,,,,,,,,,,,,,,,,,,,,,,,,,,,,,,,,,,,,,,,,,,,,,,,,,,,,
,,,,,,,,,6658d49af0f0787f8c8132b9,"Spanish, Mexican",13 or older,"no, only English or Spanish",no,2025-08-12_16h32.12.147,empathy_intonation_perc_control,2024.2.4,Win32,59.88023952,6658d49af0f0787f8c8132b9,68817205a84113384fffdfe3,689ba4a3dec8374738dc4b05,21.4325,25.2919,1,1,3.3293,,0,1,1,2,1,./stim/wavs/chilean_question_filler_Mi-padre-cantaba-bien.wav,1,,,,,,,,,,,,,,,,,,,,,,,,,,,,,,,,,,,,,,,,,,,,,,,,,,,,,,,,,,,,,,,,,,,,,,,,
,,,,,,,,,6658d49af0f0787f8c8132b9,"Spanish, Mexican",13 or older,"no, only English or Spanish",no,2025-08-12_16h32.12.147,empathy_intonation_perc_control,2024.2.4,Win32,59.88023952,6658d49af0f0787f8c8132b9,68817205a84113384fffdfe3,689ba4a3dec8374738dc4b05,25.2931,27.3896,0,1,1.5693,,0,2,2,4,1,./stim/wavs/cuban_statement_filler_Cocinabas-por-la-noche.wav,0,,,,,,,,,,,,,,,,,,,,,,,,,,,,,,,,,,,,,,,,,,,,,,,,,,,,,,,,,,,,,,,,,,,,,,,,
,,,,,,,,,6658d49af0f0787f8c8132b9,"Spanish, Mexican",13 or older,"no, only English or Spanish",no,2025-08-12_16h32.12.147,empathy_intonation_perc_control,2024.2.4,Win32,59.88023952,6658d49af0f0787f8c8132b9,68817205a84113384fffdfe3,689ba4a3dec8374738dc4b05,27.3911,29.6376,0,1,1.7159,,0,3,3,5,1,./stim/wavs/andalusian_statement_filler_Alberto-nunca-se-afeita.wav,0,,,,,,,,,,,,,,,,,,,,,,,,,,,,,,,,,,,,,,,,,,,,,,,,,,,,,,,,,,,,,,,,,,,,,,,,
,,,,,,,,,6658d49af0f0787f8c8132b9,"Spanish, Mexican",13 or older,"no, only English or Spanish",no,2025-08-12_16h32.12.147,empathy_intonation_perc_control,2024.2.4,Win32,59.88023952,6658d49af0f0787f8c8132b9,68817205a84113384fffdfe3,689ba4a3dec8374738dc4b05,29.6387,31.6021,1,1,1.4303,,0,4,4,1,1,./stim/wavs/argentine_question_filler_Mi-vecino-habla-mucho.wav,1,,,,,,,,,,,,,,,,,,,,,,,,,,,,,,,,,,,,,,,,,,,,,,,,,,,,,,,,,,,,,,,,,,,,,,,,
,,,,,,,,,6658d49af0f0787f8c8132b9,"Spanish, Mexican",13 or older,"no, only English or Spanish",no,2025-08-12_16h32.12.147,empathy_intonation_perc_control,2024.2.4,Win32,59.88023952,6658d49af0f0787f8c8132b9,68817205a84113384fffdfe3,689ba4a3dec8374738dc4b05,31.6034,34.2013,0,1,2.0756,,0,5,5,6,1,./stim/wavs/peruvian_statement_filler_El-nino-habla-con-su-madre.wav,0,,,,,,,,,,,,,,,,,,,,,,,,,,,,,,,,,,,,,,,,,,,,,,,,,,,,,,,,,,,,,,,,,,,,,,,,
,,,,,,,,,6658d49af0f0787f8c8132b9,"Spanish, Mexican",13 or older,"no, only English or Spanish",no,2025-08-12_16h32.12.147,empathy_intonation_perc_control,2024.2.4,Win32,59.88023952,6658d49af0f0787f8c8132b9,68817205a84113384fffdfe3,689ba4a3dec8374738dc4b05,34.2023,36.5813,1,1,1.8487,,0,6,6,0,1,./stim/wavs/castilian_question_filler_Mi-esposo-conoce-al-chico.wav,1,,,,,,,,,,,,,,,,,,,,,,,,,,,,,,,,,,,,,,,,,,,,,,,,,,,,,,,,,,,,,,,,,,,,,,,,
,,,,,,,,,6658d49af0f0787f8c8132b9,"Spanish, Mexican",13 or older,"no, only English or Spanish",no,2025-08-12_16h32.12.147,empathy_intonation_perc_control,2024.2.4,Win32,59.88023952,6658d49af0f0787f8c8132b9,68817205a84113384fffdfe3,689ba4a3dec8374738dc4b05,36.5822,38.9117,1,1,1.7976,,0,7,7,3,1,./stim/wavs/mexican_question_filler_Felipe-no-tiene-contrasena.wav,1,,,,,,,,,,,,,,,,,,,,,,,,,,,,,,,,,,,,,,,,,,,,,,,,,,,,,,,,,,,,,,,,,,,,,,,,
,,,,,,,,,6658d49af0f0787f8c8132b9,"Spanish, Mexican",13 or older,"no, only English or Spanish",no,2025-08-12_16h32.12.147,empathy_intonation_perc_control,2024.2.4,Win32,59.88023952,6658d49af0f0787f8c8132b9,68817205a84113384fffdfe3,689ba4a3dec8374738dc4b05,,,,,,,,,,,,,,38.9124,41.6929,,,,,,,,,,,,,,,,,,,,,,,,,,,,,,,,,,,,,,,,,,,,,,,,,,,,,,,,,,,,,,,,,,,,,,
,,,,,,,,,6658d49af0f0787f8c8132b9,"Spanish, Mexican",13 or older,"no, only English or Spanish",no,2025-08-12_16h32.12.147,empathy_intonation_perc_control,2024.2.4,Win32,59.88023952,6658d49af0f0787f8c8132b9,68817205a84113384fffdfe3,689ba4a3dec8374738dc4b05,,,,,,,,,,,,./stim/wavs/mexican_match_interrogative-total-yn_David-leia-el-libro.wav,1,,,41.7083,43.9073,1,1,1.6813,,0,0,0,14,1,15,0,mexican,,,,,,,,,,,,,,,,,,,,,,,,,,,,,,,,,,,,,,,,,,,,,,,,,,,,,,,,
,,,,,,,,,6658d49af0f0787f8c8132b9,"Spanish, Mexican",13 or older,"no, only English or Spanish",no,2025-08-12_16h32.12.147,empathy_intonation_perc_control,2024.2.4,Win32,59.88023952,6658d49af0f0787f8c8132b9,68817205a84113384fffdfe3,689ba4a3dec8374738dc4b05,,,,,,,,,,,,./stim/wavs/puertorican_match_interrogative-total-yn_Manuela-vende-el-carro.wav,1,,,43.9085,45.9059,0,0,1.4753,,0,1,1,22,1,23,1,puertorican,,,,,,,,,,,,,,,,,,,,,,,,,,,,,,,,,,,,,,,,,,,,,,,,,,,,,,,,
,,,,,,,,,6658d49af0f0787f8c8132b9,"Spanish, Mexican",13 or older,"no, only English or Spanish",no,2025-08-12_16h32.12.147,empathy_intonation_perc_control,2024.2.4,Win32,59.88023952,6658d49af0f0787f8c8132b9,68817205a84113384fffdfe3,689ba4a3dec8374738dc4b05,,,,,,,,,,,,./stim/wavs/cuban_mismatch_interrogative-total-yn_El-hombre-mira-la-luna.wav,1,,,45.9068,48.6854,1,1,2.2553,,0,2,2,29,1,30,1,cuban,,,,,,,,,,,,,,,,,,,,,,,,,,,,,,,,,,,,,,,,,,,,,,,,,,,,,,,,
,,,,,,,,,6658d49af0f0787f8c8132b9,"Spanish, Mexican",13 or older,"no, only English or Spanish",no,2025-08-12_16h32.12.147,empathy_intonation_perc_control,2024.2.4,Win32,59.88023952,6658d49af0f0787f8c8132b9,68817205a84113384fffdfe3,689ba4a3dec8374738dc4b05,,,,,,,,,,,,./stim/wavs/mexican_match_interrogative-total-yn_Mariano-habla-del-tiempo.wav,1,,,48.6864,50.8999,1,1,1.6907,,0,3,3,16,1,17,0,mexican,,,,,,,,,,,,,,,,,,,,,,,,,,,,,,,,,,,,,,,,,,,,,,,,,,,,,,,,
,,,,,,,,,6658d49af0f0787f8c8132b9,"Spanish, Mexican",13 or older,"no, only English or Spanish",no,2025-08-12_16h32.12.147,empathy_intonation_perc_control,2024.2.4,Win32,59.88023952,6658d49af0f0787f8c8132b9,68817205a84113384fffdfe3,689ba4a3dec8374738dc4b05,,,,,,,,,,,,./stim/wavs/mexican_mismatch_declarative-broad-focus_Mi-tia-odia-la-lluvia.wav,0,,,50.9013,52.8982,0,1,1.4654,,0,4,4,82,1,83,0,mexican,,,,,,,,,,,,,,,,,,,,,,,,,,,,,,,,,,,,,,,,,,,,,,,,,,,,,,,,
,,,,,,,,,6658d49af0f0787f8c8132b9,"Spanish, Mexican",13 or older,"no, only English or Spanish",no,2025-08-12_16h32.12.147,empathy_intonation_perc_control,2024.2.4,Win32,59.88023952,6658d49af0f0787f8c8132b9,68817205a84113384fffdfe3,689ba4a3dec8374738dc4b05,,,,,,,,,,,,./stim/wavs/mexican_match_interrogative-total-yn_Marta-abre-el-regalo.wav,1,,,52.8993,54.9128,1,1,1.481,,0,5,5,17,1,18,0,mexican,,,,,,,,,,,,,,,,,,,,,,,,,,,,,,,,,,,,,,,,,,,,,,,,,,,,,,,,
,,,,,,,,,6658d49af0f0787f8c8132b9,"Spanish, Mexican",13 or older,"no, only English or Spanish",no,2025-08-12_16h32.12.147,empathy_intonation_perc_control,2024.2.4,Win32,59.88023952,6658d49af0f0787f8c8132b9,68817205a84113384fffdfe3,689ba4a3dec8374738dc4b05,,,,,,,,,,,,./stim/wavs/cuban_match_interrogative-total-yn_Maria-bebe-el-vino.wav,1,,,54.9138,57.0775,0,0,1.6327,,0,6,6,9,1,10,1,cuban,,,,,,,,,,,,,,,,,,,,,,,,,,,,,,,,,,,,,,,,,,,,,,,,,,,,,,,,
,,,,,,,,,6658d49af0f0787f8c8132b9,"Spanish, Mexican",13 or older,"no, only English or Spanish",no,2025-08-12_16h32.12.147,empathy_intonation_perc_control,2024.2.4,Win32,59.88023952,6658d49af0f0787f8c8132b9,68817205a84113384fffdfe3,689ba4a3dec8374738dc4b05,,,,,,,,,,,,./stim/wavs/puertorican_mismatch_declarative-broad-focus_La-nina-lava-el-plato.wav,0,,,57.0784,59.0088,0,1,1.4004,,0,7,7,87,1,88,0,puertorican,,,,,,,,,,,,,,,,,,,,,,,,,,,,,,,,,,,,,,,,,,,,,,,,,,,,,,,,
,,,,,,,,,6658d49af0f0787f8c8132b9,"Spanish, Mexican",13 or older,"no, only English or Spanish",no,2025-08-12_16h32.12.147,empathy_intonation_perc_control,2024.2.4,Win32,59.88023952,6658d49af0f0787f8c8132b9,68817205a84113384fffdfe3,689ba4a3dec8374738dc4b05,,,,,,,,,,,,./stim/wavs/castilian_match_interrogative-total-yn_Marta-abre-el-regalo.wav,1,,,59.0099,61.2065,1,1,1.6697,,0,8,8,5,1,6,0,castilian,,,,,,,,,,,,,,,,,,,,,,,,,,,,,,,,,,,,,,,,,,,,,,,,,,,,,,,,
,,,,,,,,,6658d49af0f0787f8c8132b9,"Spanish, Mexican",13 or older,"no, only English or Spanish",no,2025-08-12_16h32.12.147,empathy_intonation_perc_control,2024.2.4,Win32,59.88023952,6658d49af0f0787f8c8132b9,68817205a84113384fffdfe3,689ba4a3dec8374738dc4b05,,,,,,,,,,,,./stim/wavs/castilian_match_declarative-broad-focus_Mariano-habla-del-tiempo.wav,0,,,61.2076,63.5543,0,1,1.8231,,0,9,9,48,1,49,0,castilian,,,,,,,,,,,,,,,,,,,,,,,,,,,,,,,,,,,,,,,,,,,,,,,,,,,,,,,,
,,,,,,,,,6658d49af0f0787f8c8132b9,"Spanish, Mexican",13 or older,"no, only English or Spanish",no,2025-08-12_16h32.12.147,empathy_intonation_perc_control,2024.2.4,Win32,59.88023952,6658d49af0f0787f8c8132b9,68817205a84113384fffdfe3,689ba4a3dec8374738dc4b05,,,,,,,,,,,,./stim/wavs/castilian_match_declarative-broad-focus_Marta-abre-el-regalo.wav,0,,,63.5552,65.9687,0,1,1.8828,,0,10,10,49,1,50,0,castilian,,,,,,,,,,,,,,,,,,,,,,,,,,,,,,,,,,,,,,,,,,,,,,,,,,,,,,,,
,,,,,,,,,6658d49af0f0787f8c8132b9,"Spanish, Mexican",13 or older,"no, only English or Spanish",no,2025-08-12_16h32.12.147,empathy_intonation_perc_control,2024.2.4,Win32,59.88023952,6658d49af0f0787f8c8132b9,68817205a84113384fffdfe3,689ba4a3dec8374738dc4b05,,,,,,,,,,,,./stim/wavs/puertorican_match_declarative-broad-focus_David-leia-el-libro.wav,0,,,65.9696,68.0665,0,1,1.5682,,0,11,11,64,1,65,0,puertorican,,,,,,,,,,,,,,,,,,,,,,,,,,,,,,,,,,,,,,,,,,,,,,,,,,,,,,,,
,,,,,,,,,6658d49af0f0787f8c8132b9,"Spanish, Mexican",13 or older,"no, only English or Spanish",no,2025-08-12_16h32.12.147,empathy_intonation_perc_control,2024.2.4,Win32,59.88023952,6658d49af0f0787f8c8132b9,68817205a84113384fffdfe3,689ba4a3dec8374738dc4b05,,,,,,,,,,,,./stim/wavs/castilian_mismatch_interrogative-total-yn_La-nina-lava-el-plato.wav,1,,,68.0676,70.2142,1,1,1.6243,,0,12,12,25,1,26,0,castilian,,,,,,,,,,,,,,,,,,,,,,,,,,,,,,,,,,,,,,,,,,,,,,,,,,,,,,,,
,,,,,,,,,6658d49af0f0787f8c8132b9,"Spanish, Mexican",13 or older,"no, only English or Spanish",no,2025-08-12_16h32.12.147,empathy_intonation_perc_control,2024.2.4,Win32,59.88023952,6658d49af0f0787f8c8132b9,68817205a84113384fffdfe3,689ba4a3dec8374738dc4b05,,,,,,,,,,,,./stim/wavs/cuban_match_interrogative-total-yn_Mariano-habla-del-tiempo.wav,1,,,70.2152,72.6286,0,0,1.8836,,0,13,13,10,1,11,1,cuban,,,,,,,,,,,,,,,,,,,,,,,,,,,,,,,,,,,,,,,,,,,,,,,,,,,,,,,,
,,,,,,,,,6658d49af0f0787f8c8132b9,"Spanish, Mexican",13 or older,"no, only English or Spanish",no,2025-08-12_16h32.12.147,empathy_intonation_perc_control,2024.2.4,Win32,59.88023952,6658d49af0f0787f8c8132b9,68817205a84113384fffdfe3,689ba4a3dec8374738dc4b05,,,,,,,,,,,,./stim/wavs/mexican_mismatch_interrogative-total-yn_El-hombre-mira-la-luna.wav,1,,,72.6297,74.6434,1,1,1.485,,0,14,14,34,1,35,0,mexican,,,,,,,,,,,,,,,,,,,,,,,,,,,,,,,,,,,,,,,,,,,,,,,,,,,,,,,,
,,,,,,,,,6658d49af0f0787f8c8132b9,"Spanish, Mexican",13 or older,"no, only English or Spanish",no,2025-08-12_16h32.12.147,empathy_intonation_perc_control,2024.2.4,Win32,59.88023952,6658d49af0f0787f8c8132b9,68817205a84113384fffdfe3,689ba4a3dec8374738dc4b05,,,,,,,,,,,,./stim/wavs/castilian_mismatch_interrogative-total-yn_Mi-novio-viene-del-lago.wav,1,,,74.6445,76.9578,1,1,1.7817,,0,15,15,27,1,28,0,castilian,,,,,,,,,,,,,,,,,,,,,,,,,,,,,,,,,,,,,,,,,,,,,,,,,,,,,,,,
,,,,,,,,,6658d49af0f0787f8c8132b9,"Spanish, Mexican",13 or older,"no, only English or Spanish",no,2025-08-12_16h32.12.147,empathy_intonation_perc_control,2024.2.4,Win32,59.88023952,6658d49af0f0787f8c8132b9,68817205a84113384fffdfe3,689ba4a3dec8374738dc4b05,,,,,,,,,,,,./stim/wavs/castilian_match_interrogative-total-yn_David-leia-el-libro.wav,1,,,76.9586,79.2222,1,1,1.7316,,0,16,16,0,1,1,0,castilian,,,,,,,,,,,,,,,,,,,,,,,,,,,,,,,,,,,,,,,,,,,,,,,,,,,,,,,,
,,,,,,,,,6658d49af0f0787f8c8132b9,"Spanish, Mexican",13 or older,"no, only English or Spanish",no,2025-08-12_16h32.12.147,empathy_intonation_perc_control,2024.2.4,Win32,59.88023952,6658d49af0f0787f8c8132b9,68817205a84113384fffdfe3,689ba4a3dec8374738dc4b05,,,,,,,,,,,,./stim/wavs/castilian_match_interrogative-total-yn_Emilio-ama-la-marcha.wav,1,,,79.2234,81.4199,1,1,1.6637,,0,17,17,1,1,2,0,castilian,,,,,,,,,,,,,,,,,,,,,,,,,,,,,,,,,,,,,,,,,,,,,,,,,,,,,,,,
,,,,,,,,,6658d49af0f0787f8c8132b9,"Spanish, Mexican",13 or older,"no, only English or Spanish",no,2025-08-12_16h32.12.147,empathy_intonation_perc_control,2024.2.4,Win32,59.88023952,6658d49af0f0787f8c8132b9,68817205a84113384fffdfe3,689ba4a3dec8374738dc4b05,,,,,,,,,,,,./stim/wavs/cuban_match_interrogative-total-yn_Ana-lleva-el-abrigo.wav,1,,,81.4205,83.2184,0,0,1.2672,,0,18,18,6,1,7,1,cuban,,,,,,,,,,,,,,,,,,,,,,,,,,,,,,,,,,,,,,,,,,,,,,,,,,,,,,,,
,,,,,,,,,6658d49af0f0787f8c8132b9,"Spanish, Mexican",13 or older,"no, only English or Spanish",no,2025-08-12_16h32.12.147,empathy_intonation_perc_control,2024.2.4,Win32,59.88023952,6658d49af0f0787f8c8132b9,68817205a84113384fffdfe3,689ba4a3dec8374738dc4b05,,,,,,,,,,,,./stim/wavs/cuban_mismatch_declarative-broad-focus_El-bebe-comia-muy-bien.wav,0,,,83.2195,85.0836,0,1,1.335,,0,19,19,73,1,74,0,cuban,,,,,,,,,,,,,,,,,,,,,,,,,,,,,,,,,,,,,,,,,,,,,,,,,,,,,,,,
,,,,,,,,,6658d49af0f0787f8c8132b9,"Spanish, Mexican",13 or older,"no, only English or Spanish",no,2025-08-12_16h32.12.147,empathy_intonation_perc_control,2024.2.4,Win32,59.88023952,6658d49af0f0787f8c8132b9,68817205a84113384fffdfe3,689ba4a3dec8374738dc4b05,,,,,,,,,,,,./stim/wavs/cuban_mismatch_declarative-broad-focus_Mi-tia-odia-la-lluvia.wav,0,,,85.0846,87.2475,0,1,1.6335,,0,20,20,77,1,78,0,cuban,,,,,,,,,,,,,,,,,,,,,,,,,,,,,,,,,,,,,,,,,,,,,,,,,,,,,,,,
,,,,,,,,,6658d49af0f0787f8c8132b9,"Spanish, Mexican",13 or older,"no, only English or Spanish",no,2025-08-12_16h32.12.147,empathy_intonation_perc_control,2024.2.4,Win32,59.88023952,6658d49af0f0787f8c8132b9,68817205a84113384fffdfe3,689ba4a3dec8374738dc4b05,,,,,,,,,,,,./stim/wavs/mexican_match_declarative-broad-focus_Ana-lleva-el-abrigo.wav,0,,,87.2481,89.036,0,1,1.2648,,0,21,21,56,1,57,0,mexican,,,,,,,,,,,,,,,,,,,,,,,,,,,,,,,,,,,,,,,,,,,,,,,,,,,,,,,,
,,,,,,,,,6658d49af0f0787f8c8132b9,"Spanish, Mexican",13 or older,"no, only English or Spanish",no,2025-08-12_16h32.12.147,empathy_intonation_perc_control,2024.2.4,Win32,59.88023952,6658d49af0f0787f8c8132b9,68817205a84113384fffdfe3,689ba4a3dec8374738dc4b05,,,,,,,,,,,,./stim/wavs/puertorican_match_declarative-broad-focus_Daniel-iba-a-Bolivia.wav,0,,,89.0366,90.9501,0,1,1.3979,,0,22,22,63,1,64,0,puertorican,,,,,,,,,,,,,,,,,,,,,,,,,,,,,,,,,,,,,,,,,,,,,,,,,,,,,,,,
,,,,,,,,,6658d49af0f0787f8c8132b9,"Spanish, Mexican",13 or older,"no, only English or Spanish",no,2025-08-12_16h32.12.147,empathy_intonation_perc_control,2024.2.4,Win32,59.88023952,6658d49af0f0787f8c8132b9,68817205a84113384fffdfe3,689ba4a3dec8374738dc4b05,,,,,,,,,,,,./stim/wavs/castilian_mismatch_declarative-broad-focus_El-nino-oye-el-rio.wav,0,,,90.9507,93.196,0,1,1.713,,0,23,23,68,1,69,0,castilian,,,,,,,,,,,,,,,,,,,,,,,,,,,,,,,,,,,,,,,,,,,,,,,,,,,,,,,,
,,,,,,,,,6658d49af0f0787f8c8132b9,"Spanish, Mexican",13 or older,"no, only English or Spanish",no,2025-08-12_16h32.12.147,empathy_intonation_perc_control,2024.2.4,Win32,59.88023952,6658d49af0f0787f8c8132b9,68817205a84113384fffdfe3,689ba4a3dec8374738dc4b05,,,,,,,,,,,,./stim/wavs/mexican_match_declarative-broad-focus_Daniel-iba-a-Bolivia.wav,0,,,93.1965,95.1067,0,1,1.3839,,0,24,24,57,1,58,0,mexican,,,,,,,,,,,,,,,,,,,,,,,,,,,,,,,,,,,,,,,,,,,,,,,,,,,,,,,,
,,,,,,,,,6658d49af0f0787f8c8132b9,"Spanish, Mexican",13 or older,"no, only English or Spanish",no,2025-08-12_16h32.12.147,empathy_intonation_perc_control,2024.2.4,Win32,59.88023952,6658d49af0f0787f8c8132b9,68817205a84113384fffdfe3,689ba4a3dec8374738dc4b05,,,,,,,,,,,,./stim/wavs/mexican_mismatch_declarative-broad-focus_El-bebe-comia-muy-bien.wav,0,,,95.1083,98.1541,1,0,2.5123,,0,25,25,78,1,79,0,mexican,,,,,,,,,,,,,,,,,,,,,,,,,,,,,,,,,,,,,,,,,,,,,,,,,,,,,,,,
,,,,,,,,,6658d49af0f0787f8c8132b9,"Spanish, Mexican",13 or older,"no, only English or Spanish",no,2025-08-12_16h32.12.147,empathy_intonation_perc_control,2024.2.4,Win32,59.88023952,6658d49af0f0787f8c8132b9,68817205a84113384fffdfe3,689ba4a3dec8374738dc4b05,,,,,,,,,,,,./stim/wavs/cuban_mismatch_interrogative-total-yn_El-nino-oye-el-rio.wav,1,,,98.1556,100.1524,0,0,1.4703,,0,26,26,30,1,31,1,cuban,,,,,,,,,,,,,,,,,,,,,,,,,,,,,,,,,,,,,,,,,,,,,,,,,,,,,,,,
,,,,,,,,,6658d49af0f0787f8c8132b9,"Spanish, Mexican",13 or older,"no, only English or Spanish",no,2025-08-12_16h32.12.147,empathy_intonation_perc_control,2024.2.4,Win32,59.88023952,6658d49af0f0787f8c8132b9,68817205a84113384fffdfe3,689ba4a3dec8374738dc4b05,,,,,,,,,,,,./stim/wavs/cuban_match_declarative-broad-focus_Marta-abre-el-regalo.wav,0,,,100.1537,102.2189,0,1,1.5445,,0,27,27,55,1,56,0,cuban,,,,,,,,,,,,,,,,,,,,,,,,,,,,,,,,,,,,,,,,,,,,,,,,,,,,,,,,
,,,,,,,,,6658d49af0f0787f8c8132b9,"Spanish, Mexican",13 or older,"no, only English or Spanish",no,2025-08-12_16h32.12.147,empathy_intonation_perc_control,2024.2.4,Win32,59.88023952,6658d49af0f0787f8c8132b9,68817205a84113384fffdfe3,689ba4a3dec8374738dc4b05,,,,,,,,,,,,./stim/wavs/puertorican_mismatch_declarative-broad-focus_El-hombre-mira-la-luna.wav,0,,,102.2193,104.6322,0,1,1.8834,,0,28,28,84,1,85,0,puertorican,,,,,,,,,,,,,,,,,,,,,,,,,,,,,,,,,,,,,,,,,,,,,,,,,,,,,,,,
,,,,,,,,,6658d49af0f0787f8c8132b9,"Spanish, Mexican",13 or older,"no, only English or Spanish",no,2025-08-12_16h32.12.147,empathy_intonation_perc_control,2024.2.4,Win32,59.88023952,6658d49af0f0787f8c8132b9,68817205a84113384fffdfe3,689ba4a3dec8374738dc4b05,,,,,,,,,,,,./stim/wavs/puertorican_match_interrogative-total-yn_Ana-lleva-el-abrigo.wav,1,,,104.6326,106.501,0,0,1.3428,,0,29,29,18,1,19,1,puertorican,,,,,,,,,,,,,,,,,,,,,,,,,,,,,,,,,,,,,,,,,,,,,,,,,,,,,,,,
,,,,,,,,,6658d49af0f0787f8c8132b9,"Spanish, Mexican",13 or older,"no, only English or Spanish",no,2025-08-12_16h32.12.147,empathy_intonation_perc_control,2024.2.4,Win32,59.88023952,6658d49af0f0787f8c8132b9,68817205a84113384fffdfe3,689ba4a3dec8374738dc4b05,,,,,,,,,,,,./stim/wavs/puertorican_mismatch_declarative-broad-focus_La-maestra-vive-en-Paris.wav,0,,,106.5015,108.6637,0,1,1.6295,,0,30,30,86,1,87,0,puertorican,,,,,,,,,,,,,,,,,,,,,,,,,,,,,,,,,,,,,,,,,,,,,,,,,,,,,,,,
,,,,,,,,,6658d49af0f0787f8c8132b9,"Spanish, Mexican",13 or older,"no, only English or Spanish",no,2025-08-12_16h32.12.147,empathy_intonation_perc_control,2024.2.4,Win32,59.88023952,6658d49af0f0787f8c8132b9,68817205a84113384fffdfe3,689ba4a3dec8374738dc4b05,,,,,,,,,,,,./stim/wavs/castilian_match_declarative-broad-focus_Emilio-ama-la-marcha.wav,0,,,108.6645,110.892,0,1,1.6942,,0,31,31,45,1,46,0,castilian,,,,,,,,,,,,,,,,,,,,,,,,,,,,,,,,,,,,,,,,,,,,,,,,,,,,,,,,
,,,,,,,,,6658d49af0f0787f8c8132b9,"Spanish, Mexican",13 or older,"no, only English or Spanish",no,2025-08-12_16h32.12.147,empathy_intonation_perc_control,2024.2.4,Win32,59.88023952,6658d49af0f0787f8c8132b9,68817205a84113384fffdfe3,689ba4a3dec8374738dc4b05,,,,,,,,,,,,./stim/wavs/castilian_match_declarative-broad-focus_Maria-bebe-el-vino.wav,0,,,110.8934,113.0229,0,1,1.5943,,0,32,32,47,1,48,0,castilian,,,,,,,,,,,,,,,,,,,,,,,,,,,,,,,,,,,,,,,,,,,,,,,,,,,,,,,,
,,,,,,,,,6658d49af0f0787f8c8132b9,"Spanish, Mexican",13 or older,"no, only English or Spanish",no,2025-08-12_16h32.12.147,empathy_intonation_perc_control,2024.2.4,Win32,59.88023952,6658d49af0f0787f8c8132b9,68817205a84113384fffdfe3,689ba4a3dec8374738dc4b05,,,,,,,,,,,,./stim/wavs/cuban_match_declarative-broad-focus_Manuela-vende-el-carro.wav,0,,,113.0245,114.994,0,1,1.448,,0,33,33,52,1,53,0,cuban,,,,,,,,,,,,,,,,,,,,,,,,,,,,,,,,,,,,,,,,,,,,,,,,,,,,,,,,
,,,,,,,,,6658d49af0f0787f8c8132b9,"Spanish, Mexican",13 or older,"no, only English or Spanish",no,2025-08-12_16h32.12.147,empathy_intonation_perc_control,2024.2.4,Win32,59.88023952,6658d49af0f0787f8c8132b9,68817205a84113384fffdfe3,689ba4a3dec8374738dc4b05,,,,,,,,,,,,./stim/wavs/mexican_mismatch_interrogative-total-yn_Mi-novio-viene-del-lago.wav,1,,,114.9949,117.1521,1,1,1.6356,,0,34,34,37,1,38,0,mexican,,,,,,,,,,,,,,,,,,,,,,,,,,,,,,,,,,,,,,,,,,,,,,,,,,,,,,,,
,,,,,,,,,6658d49af0f0787f8c8132b9,"Spanish, Mexican",13 or older,"no, only English or Spanish",no,2025-08-12_16h32.12.147,empathy_intonation_perc_control,2024.2.4,Win32,59.88023952,6658d49af0f0787f8c8132b9,68817205a84113384fffdfe3,689ba4a3dec8374738dc4b05,,,,,,,,,,,,./stim/wavs/puertorican_match_interrogative-total-yn_Emilio-ama-la-marcha.wav,1,,,117.1536,119.1711,0,0,1.4902,,0,35,35,21,1,22,1,puertorican,,,,,,,,,,,,,,,,,,,,,,,,,,,,,,,,,,,,,,,,,,,,,,,,,,,,,,,,
,,,,,,,,,6658d49af0f0787f8c8132b9,"Spanish, Mexican",13 or older,"no, only English or Spanish",no,2025-08-12_16h32.12.147,empathy_intonation_perc_control,2024.2.4,Win32,59.88023952,6658d49af0f0787f8c8132b9,68817205a84113384fffdfe3,689ba4a3dec8374738dc4b05,,,,,,,,,,,,./stim/wavs/puertorican_match_interrogative-total-yn_Daniel-iba-a-Bolivia.wav,1,,,119.1717,122.2138,0,0,2.5141,,0,36,36,19,1,20,1,puertorican,,,,,,,,,,,,,,,,,,,,,,,,,,,,,,,,,,,,,,,,,,,,,,,,,,,,,,,,
,,,,,,,,,6658d49af0f0787f8c8132b9,"Spanish, Mexican",13 or older,"no, only English or Spanish",no,2025-08-12_16h32.12.147,empathy_intonation_perc_control,2024.2.4,Win32,59.88023952,6658d49af0f0787f8c8132b9,68817205a84113384fffdfe3,689ba4a3dec8374738dc4b05,,,,,,,,,,,,./stim/wavs/puertorican_mismatch_interrogative-total-yn_Mi-madre-come-la-fruta.wav,1,,,122.2154,124.4448,0,0,1.6836,,0,37,37,43,1,44,1,puertorican,,,,,,,,,,,,,,,,,,,,,,,,,,,,,,,,,,,,,,,,,,,,,,,,,,,,,,,,
,,,,,,,,,6658d49af0f0787f8c8132b9,"Spanish, Mexican",13 or older,"no, only English or Spanish",no,2025-08-12_16h32.12.147,empathy_intonation_perc_control,2024.2.4,Win32,59.88023952,6658d49af0f0787f8c8132b9,68817205a84113384fffdfe3,689ba4a3dec8374738dc4b05,,,,,,,,,,,,./stim/wavs/castilian_mismatch_interrogative-total-yn_Mi-madre-come-la-fruta.wav,1,,,124.4462,126.5927,1,1,1.6079,,0,38,38,26,1,27,0,castilian,,,,,,,,,,,,,,,,,,,,,,,,,,,,,,,,,,,,,,,,,,,,,,,,,,,,,,,,
,,,,,,,,,6658d49af0f0787f8c8132b9,"Spanish, Mexican",13 or older,"no, only English or Spanish",no,2025-08-12_16h32.12.147,empathy_intonation_perc_control,2024.2.4,Win32,59.88023952,6658d49af0f0787f8c8132b9,68817205a84113384fffdfe3,689ba4a3dec8374738dc4b05,,,,,,,,,,,,./stim/wavs/cuban_mismatch_declarative-broad-focus_Mi-novio-viene-del-lago.wav,0,,,126.5941,128.9571,0,1,1.8217,,0,39,39,76,1,77,0,cuban,,,,,,,,,,,,,,,,,,,,,,,,,,,,,,,,,,,,,,,,,,,,,,,,,,,,,,,,
,,,,,,,,,6658d49af0f0787f8c8132b9,"Spanish, Mexican",13 or older,"no, only English or Spanish",no,2025-08-12_16h32.12.147,empathy_intonation_perc_control,2024.2.4,Win32,59.88023952,6658d49af0f0787f8c8132b9,68817205a84113384fffdfe3,689ba4a3dec8374738dc4b05,,,,,,,,,,,,./stim/wavs/mexican_match_declarative-broad-focus_Emilio-ama-la-marcha.wav,0,,,128.9585,131.8766,0,1,2.3946,,0,40,40,59,1,60,0,mexican,,,,,,,,,,,,,,,,,,,,,,,,,,,,,,,,,,,,,,,,,,,,,,,,,,,,,,,,
,,,,,,,,,6658d49af0f0787f8c8132b9,"Spanish, Mexican",13 or older,"no, only English or Spanish",no,2025-08-12_16h32.12.147,empathy_intonation_perc_control,2024.2.4,Win32,59.88023952,6658d49af0f0787f8c8132b9,68817205a84113384fffdfe3,689ba4a3dec8374738dc4b05,,,,,,,,,,,,./stim/wavs/puertorican_mismatch_declarative-broad-focus_El-bebe-comia-muy-bien.wav,0,,,131.8774,133.9411,0,1,1.5315,,0,41,41,83,1,84,0,puertorican,,,,,,,,,,,,,,,,,,,,,,,,,,,,,,,,,,,,,,,,,,,,,,,,,,,,,,,,
,,,,,,,,,6658d49af0f0787f8c8132b9,"Spanish, Mexican",13 or older,"no, only English or Spanish",no,2025-08-12_16h32.12.147,empathy_intonation_perc_control,2024.2.4,Win32,59.88023952,6658d49af0f0787f8c8132b9,68817205a84113384fffdfe3,689ba4a3dec8374738dc4b05,,,,,,,,,,,,./stim/wavs/castilian_mismatch_declarative-broad-focus_La-nina-lava-el-plato.wav,0,,,133.9418,137.0824,0,1,2.6035,,0,42,42,70,1,71,0,castilian,,,,,,,,,,,,,,,,,,,,,,,,,,,,,,,,,,,,,,,,,,,,,,,,,,,,,,,,
,,,,,,,,,6658d49af0f0787f8c8132b9,"Spanish, Mexican",13 or older,"no, only English or Spanish",no,2025-08-12_16h32.12.147,empathy_intonation_perc_control,2024.2.4,Win32,59.88023952,6658d49af0f0787f8c8132b9,68817205a84113384fffdfe3,689ba4a3dec8374738dc4b05,,,,,,,,,,,,./stim/wavs/mexican_match_interrogative-total-yn_Ana-lleva-el-abrigo.wav,1,,,137.084,139.3137,1,1,1.6998,,0,43,43,12,1,13,0,mexican,,,,,,,,,,,,,,,,,,,,,,,,,,,,,,,,,,,,,,,,,,,,,,,,,,,,,,,,
,,,,,,,,,6658d49af0f0787f8c8132b9,"Spanish, Mexican",13 or older,"no, only English or Spanish",no,2025-08-12_16h32.12.147,empathy_intonation_perc_control,2024.2.4,Win32,59.88023952,6658d49af0f0787f8c8132b9,68817205a84113384fffdfe3,689ba4a3dec8374738dc4b05,,,,,,,,,,,,./stim/wavs/mexican_match_interrogative-total-yn_Emilio-ama-la-marcha.wav,1,,,139.3148,141.4451,1,1,1.5905,,0,44,44,15,1,16,0,mexican,,,,,,,,,,,,,,,,,,,,,,,,,,,,,,,,,,,,,,,,,,,,,,,,,,,,,,,,
,,,,,,,,,6658d49af0f0787f8c8132b9,"Spanish, Mexican",13 or older,"no, only English or Spanish",no,2025-08-12_16h32.12.147,empathy_intonation_perc_control,2024.2.4,Win32,59.88023952,6658d49af0f0787f8c8132b9,68817205a84113384fffdfe3,689ba4a3dec8374738dc4b05,,,,,,,,,,,,./stim/wavs/puertorican_match_interrogative-total-yn_David-leia-el-libro.wav,1,,,141.4465,143.2597,0,0,1.2728,,0,45,45,20,1,21,1,puertorican,,,,,,,,,,,,,,,,,,,,,,,,,,,,,,,,,,,,,,,,,,,,,,,,,,,,,,,,
,,,,,,,,,6658d49af0f0787f8c8132b9,"Spanish, Mexican",13 or older,"no, only English or Spanish",no,2025-08-12_16h32.12.147,empathy_intonation_perc_control,2024.2.4,Win32,59.88023952,6658d49af0f0787f8c8132b9,68817205a84113384fffdfe3,689ba4a3dec8374738dc4b05,,,,,,,,,,,,./stim/wavs/puertorican_match_interrogative-total-yn_Maria-bebe-el-vino.wav,1,,,143.2612,145.3274,1,1,1.53,,0,46,46,23,1,24,1,puertorican,,,,,,,,,,,,,,,,,,,,,,,,,,,,,,,,,,,,,,,,,,,,,,,,,,,,,,,,
,,,,,,,,,6658d49af0f0787f8c8132b9,"Spanish, Mexican",13 or older,"no, only English or Spanish",no,2025-08-12_16h32.12.147,empathy_intonation_perc_control,2024.2.4,Win32,59.88023952,6658d49af0f0787f8c8132b9,68817205a84113384fffdfe3,689ba4a3dec8374738dc4b05,,,,,,,,,,,,./stim/wavs/cuban_match_declarative-broad-focus_Maria-bebe-el-vino.wav,0,,,145.3282,147.2887,0,1,1.4242,,0,47,47,53,1,54,0,cuban,,,,,,,,,,,,,,,,,,,,,,,,,,,,,,,,,,,,,,,,,,,,,,,,,,,,,,,,
,,,,,,,,,6658d49af0f0787f8c8132b9,"Spanish, Mexican",13 or older,"no, only English or Spanish",no,2025-08-12_16h32.12.147,empathy_intonation_perc_control,2024.2.4,Win32,59.88023952,6658d49af0f0787f8c8132b9,68817205a84113384fffdfe3,689ba4a3dec8374738dc4b05,,,,,,,,,,,,./stim/wavs/castilian_match_interrogative-total-yn_Mariano-habla-del-tiempo.wav,1,,,147.2903,149.9893,1,1,2.1919,,0,48,48,4,1,5,0,castilian,,,,,,,,,,,,,,,,,,,,,,,,,,,,,,,,,,,,,,,,,,,,,,,,,,,,,,,,
,,,,,,,,,6658d49af0f0787f8c8132b9,"Spanish, Mexican",13 or older,"no, only English or Spanish",no,2025-08-12_16h32.12.147,empathy_intonation_perc_control,2024.2.4,Win32,59.88023952,6658d49af0f0787f8c8132b9,68817205a84113384fffdfe3,689ba4a3dec8374738dc4b05,,,,,,,,,,,,./stim/wavs/mexican_mismatch_interrogative-total-yn_La-maestra-vive-en-Paris.wav,1,,,149.9901,152.3228,1,1,1.7971,,0,49,49,36,1,37,0,mexican,,,,,,,,,,,,,,,,,,,,,,,,,,,,,,,,,,,,,,,,,,,,,,,,,,,,,,,,
,,,,,,,,,6658d49af0f0787f8c8132b9,"Spanish, Mexican",13 or older,"no, only English or Spanish",no,2025-08-12_16h32.12.147,empathy_intonation_perc_control,2024.2.4,Win32,59.88023952,6658d49af0f0787f8c8132b9,68817205a84113384fffdfe3,689ba4a3dec8374738dc4b05,,,,,,,,,,,,./stim/wavs/cuban_match_declarative-broad-focus_Mariano-habla-del-tiempo.wav,0,,,152.3236,154.5822,0,1,1.7313,,0,50,50,54,1,55,0,cuban,,,,,,,,,,,,,,,,,,,,,,,,,,,,,,,,,,,,,,,,,,,,,,,,,,,,,,,,
,,,,,,,,,6658d49af0f0787f8c8132b9,"Spanish, Mexican",13 or older,"no, only English or Spanish",no,2025-08-12_16h32.12.147,empathy_intonation_perc_control,2024.2.4,Win32,59.88023952,6658d49af0f0787f8c8132b9,68817205a84113384fffdfe3,689ba4a3dec8374738dc4b05,,,,,,,,,,,,./stim/wavs/castilian_match_interrogative-total-yn_Maria-bebe-el-vino.wav,1,,,154.5837,156.5803,1,1,1.4743,,0,51,51,3,1,4,0,castilian,,,,,,,,,,,,,,,,,,,,,,,,,,,,,,,,,,,,,,,,,,,,,,,,,,,,,,,,
,,,,,,,,,6658d49af0f0787f8c8132b9,"Spanish, Mexican",13 or older,"no, only English or Spanish",no,2025-08-12_16h32.12.147,empathy_intonation_perc_control,2024.2.4,Win32,59.88023952,6658d49af0f0787f8c8132b9,68817205a84113384fffdfe3,689ba4a3dec8374738dc4b05,,,,,,,,,,,,./stim/wavs/mexican_mismatch_declarative-broad-focus_El-hombre-mira-la-luna.wav,0,,,156.5819,158.5839,0,1,1.4806,,0,52,52,79,1,80,0,mexican,,,,,,,,,,,,,,,,,,,,,,,,,,,,,,,,,,,,,,,,,,,,,,,,,,,,,,,,
,,,,,,,,,6658d49af0f0787f8c8132b9,"Spanish, Mexican",13 or older,"no, only English or Spanish",no,2025-08-12_16h32.12.147,empathy_intonation_perc_control,2024.2.4,Win32,59.88023952,6658d49af0f0787f8c8132b9,68817205a84113384fffdfe3,689ba4a3dec8374738dc4b05,,,,,,,,,,,,./stim/wavs/cuban_match_interrogative-total-yn_Marta-abre-el-regalo.wav,1,,,158.5849,161.548,1,1,2.4465,,0,53,53,11,1,12,1,cuban,,,,,,,,,,,,,,,,,,,,,,,,,,,,,,,,,,,,,,,,,,,,,,,,,,,,,,,,
,,,,,,,,,6658d49af0f0787f8c8132b9,"Spanish, Mexican",13 or older,"no, only English or Spanish",no,2025-08-12_16h32.12.147,empathy_intonation_perc_control,2024.2.4,Win32,59.88023952,6658d49af0f0787f8c8132b9,68817205a84113384fffdfe3,689ba4a3dec8374738dc4b05,,,,,,,,,,,,./stim/wavs/mexican_match_declarative-broad-focus_David-leia-el-libro.wav,0,,,161.5487,163.6796,0,1,1.6087,,0,54,54,58,1,59,0,mexican,,,,,,,,,,,,,,,,,,,,,,,,,,,,,,,,,,,,,,,,,,,,,,,,,,,,,,,,
,,,,,,,,,6658d49af0f0787f8c8132b9,"Spanish, Mexican",13 or older,"no, only English or Spanish",no,2025-08-12_16h32.12.147,empathy_intonation_perc_control,2024.2.4,Win32,59.88023952,6658d49af0f0787f8c8132b9,68817205a84113384fffdfe3,689ba4a3dec8374738dc4b05,,,,,,,,,,,,./stim/wavs/cuban_mismatch_declarative-broad-focus_El-hombre-mira-la-luna.wav,0,,,163.6803,165.8215,0,1,1.6145,,0,55,55,74,1,75,0,cuban,,,,,,,,,,,,,,,,,,,,,,,,,,,,,,,,,,,,,,,,,,,,,,,,,,,,,,,,
,,,,,,,,,6658d49af0f0787f8c8132b9,"Spanish, Mexican",13 or older,"no, only English or Spanish",no,2025-08-12_16h32.12.147,empathy_intonation_perc_control,2024.2.4,Win32,59.88023952,6658d49af0f0787f8c8132b9,68817205a84113384fffdfe3,689ba4a3dec8374738dc4b05,,,,,,,,,,,,./stim/wavs/cuban_match_interrogative-total-yn_Daniel-iba-a-Bolivia.wav,1,,,165.8227,168.0355,0,0,1.692,,0,56,56,7,1,8,1,cuban,,,,,,,,,,,,,,,,,,,,,,,,,,,,,,,,,,,,,,,,,,,,,,,,,,,,,,,,
,,,,,,,,,6658d49af0f0787f8c8132b9,"Spanish, Mexican",13 or older,"no, only English or Spanish",no,2025-08-12_16h32.12.147,empathy_intonation_perc_control,2024.2.4,Win32,59.88023952,6658d49af0f0787f8c8132b9,68817205a84113384fffdfe3,689ba4a3dec8374738dc4b05,,,,,,,,,,,,./stim/wavs/mexican_mismatch_interrogative-total-yn_Mi-tia-odia-la-lluvia.wav,1,,,168.0368,170.1697,1,1,1.6157,,0,57,57,38,1,39,0,mexican,,,,,,,,,,,,,,,,,,,,,,,,,,,,,,,,,,,,,,,,,,,,,,,,,,,,,,,,
,,,,,,,,,6658d49af0f0787f8c8132b9,"Spanish, Mexican",13 or older,"no, only English or Spanish",no,2025-08-12_16h32.12.147,empathy_intonation_perc_control,2024.2.4,Win32,59.88023952,6658d49af0f0787f8c8132b9,68817205a84113384fffdfe3,689ba4a3dec8374738dc4b05,,,,,,,,,,,,./stim/wavs/castilian_mismatch_declarative-broad-focus_La-maestra-vive-en-Paris.wav,0,,,170.1703,172.5204,0,1,1.8182,,0,58,58,69,1,70,0,castilian,,,,,,,,,,,,,,,,,,,,,,,,,,,,,,,,,,,,,,,,,,,,,,,,,,,,,,,,
,,,,,,,,,6658d49af0f0787f8c8132b9,"Spanish, Mexican",13 or older,"no, only English or Spanish",no,2025-08-12_16h32.12.147,empathy_intonation_perc_control,2024.2.4,Win32,59.88023952,6658d49af0f0787f8c8132b9,68817205a84113384fffdfe3,689ba4a3dec8374738dc4b05,,,,,,,,,,,,./stim/wavs/cuban_match_declarative-broad-focus_Ana-lleva-el-abrigo.wav,0,,,172.5213,174.496,0,1,1.4427,,0,59,59,50,1,51,0,cuban,,,,,,,,,,,,,,,,,,,,,,,,,,,,,,,,,,,,,,,,,,,,,,,,,,,,,,,,
,,,,,,,,,6658d49af0f0787f8c8132b9,"Spanish, Mexican",13 or older,"no, only English or Spanish",no,2025-08-12_16h32.12.147,empathy_intonation_perc_control,2024.2.4,Win32,59.88023952,6658d49af0f0787f8c8132b9,68817205a84113384fffdfe3,689ba4a3dec8374738dc4b05,,,,,,,,,,,,./stim/wavs/puertorican_match_declarative-broad-focus_Manuela-vende-el-carro.wav,0,,,174.4973,176.6773,0,1,1.6539,,0,60,60,66,1,67,0,puertorican,,,,,,,,,,,,,,,,,,,,,,,,,,,,,,,,,,,,,,,,,,,,,,,,,,,,,,,,
,,,,,,,,,6658d49af0f0787f8c8132b9,"Spanish, Mexican",13 or older,"no, only English or Spanish",no,2025-08-12_16h32.12.147,empathy_intonation_perc_control,2024.2.4,Win32,59.88023952,6658d49af0f0787f8c8132b9,68817205a84113384fffdfe3,689ba4a3dec8374738dc4b05,,,,,,,,,,,,./stim/wavs/cuban_mismatch_interrogative-total-yn_Mi-madre-come-la-fruta.wav,1,,,176.6784,178.8255,0,0,1.6129,,0,61,61,31,1,32,1,cuban,,,,,,,,,,,,,,,,,,,,,,,,,,,,,,,,,,,,,,,,,,,,,,,,,,,,,,,,
,,,,,,,,,6658d49af0f0787f8c8132b9,"Spanish, Mexican",13 or older,"no, only English or Spanish",no,2025-08-12_16h32.12.147,empathy_intonation_perc_control,2024.2.4,Win32,59.88023952,6658d49af0f0787f8c8132b9,68817205a84113384fffdfe3,689ba4a3dec8374738dc4b05,,,,,,,,,,,,./stim/wavs/mexican_mismatch_declarative-broad-focus_La-maestra-vive-en-Paris.wav,0,,,178.8267,181.9611,0,1,2.6251,,0,62,62,80,1,81,0,mexican,,,,,,,,,,,,,,,,,,,,,,,,,,,,,,,,,,,,,,,,,,,,,,,,,,,,,,,,
,,,,,,,,,6658d49af0f0787f8c8132b9,"Spanish, Mexican",13 or older,"no, only English or Spanish",no,2025-08-12_16h32.12.147,empathy_intonation_perc_control,2024.2.4,Win32,59.88023952,6658d49af0f0787f8c8132b9,68817205a84113384fffdfe3,689ba4a3dec8374738dc4b05,,,,,,,,,,,,./stim/wavs/castilian_match_interrogative-total-yn_Manuela-vende-el-carro.wav,1,,,181.9616,184.3907,1,1,1.9077,,0,63,63,2,1,3,0,castilian,,,,,,,,,,,,,,,,,,,,,,,,,,,,,,,,,,,,,,,,,,,,,,,,,,,,,,,,
,,,,,,,,,6658d49af0f0787f8c8132b9,"Spanish, Mexican",13 or older,"no, only English or Spanish",no,2025-08-12_16h32.12.147,empathy_intonation_perc_control,2024.2.4,Win32,59.88023952,6658d49af0f0787f8c8132b9,68817205a84113384fffdfe3,689ba4a3dec8374738dc4b05,,,,,,,,,,,,./stim/wavs/mexican_match_interrogative-total-yn_Daniel-iba-a-Bolivia.wav,1,,,184.3916,191.5631,1,1,6.6501,,0,64,64,13,1,14,0,mexican,,,,,,,,,,,,,,,,,,,,,,,,,,,,,,,,,,,,,,,,,,,,,,,,,,,,,,,,
,,,,,,,,,6658d49af0f0787f8c8132b9,"Spanish, Mexican",13 or older,"no, only English or Spanish",no,2025-08-12_16h32.12.147,empathy_intonation_perc_control,2024.2.4,Win32,59.88023952,6658d49af0f0787f8c8132b9,68817205a84113384fffdfe3,689ba4a3dec8374738dc4b05,,,,,,,,,,,,./stim/wavs/puertorican_match_declarative-broad-focus_Ana-lleva-el-abrigo.wav,0,,,191.564,193.5604,0,1,1.4711,,0,65,65,62,1,63,0,puertorican,,,,,,,,,,,,,,,,,,,,,,,,,,,,,,,,,,,,,,,,,,,,,,,,,,,,,,,,
,,,,,,,,,6658d49af0f0787f8c8132b9,"Spanish, Mexican",13 or older,"no, only English or Spanish",no,2025-08-12_16h32.12.147,empathy_intonation_perc_control,2024.2.4,Win32,59.88023952,6658d49af0f0787f8c8132b9,68817205a84113384fffdfe3,689ba4a3dec8374738dc4b05,,,,,,,,,,,,./stim/wavs/cuban_mismatch_interrogative-total-yn_Mi-tia-odia-la-lluvia.wav,1,,,193.5612,196.141,0,0,2.0526,,0,66,66,33,1,34,1,cuban,,,,,,,,,,,,,,,,,,,,,,,,,,,,,,,,,,,,,,,,,,,,,,,,,,,,,,,,
,,,,,,,,,6658d49af0f0787f8c8132b9,"Spanish, Mexican",13 or older,"no, only English or Spanish",no,2025-08-12_16h32.12.147,empathy_intonation_perc_control,2024.2.4,Win32,59.88023952,6658d49af0f0787f8c8132b9,68817205a84113384fffdfe3,689ba4a3dec8374738dc4b05,,,,,,,,,,,,./stim/wavs/puertorican_match_declarative-broad-focus_Maria-bebe-el-vino.wav,0,,,196.1415,198.3392,0,1,1.667,,0,67,67,67,1,68,0,puertorican,,,,,,,,,,,,,,,,,,,,,,,,,,,,,,,,,,,,,,,,,,,,,,,,,,,,,,,,
,,,,,,,,,6658d49af0f0787f8c8132b9,"Spanish, Mexican",13 or older,"no, only English or Spanish",no,2025-08-12_16h32.12.147,empathy_intonation_perc_control,2024.2.4,Win32,59.88023952,6658d49af0f0787f8c8132b9,68817205a84113384fffdfe3,689ba4a3dec8374738dc4b05,,,,,,,,,,,,./stim/wavs/castilian_match_declarative-broad-focus_Manuela-vende-el-carro.wav,0,,,198.3397,200.6034,0,1,1.734,,0,68,68,46,1,47,0,castilian,,,,,,,,,,,,,,,,,,,,,,,,,,,,,,,,,,,,,,,,,,,,,,,,,,,,,,,,
,,,,,,,,,6658d49af0f0787f8c8132b9,"Spanish, Mexican",13 or older,"no, only English or Spanish",no,2025-08-12_16h32.12.147,empathy_intonation_perc_control,2024.2.4,Win32,59.88023952,6658d49af0f0787f8c8132b9,68817205a84113384fffdfe3,689ba4a3dec8374738dc4b05,,,,,,,,,,,,./stim/wavs/puertorican_mismatch_interrogative-total-yn_El-nino-oye-el-rio.wav,1,,,200.6038,203.4339,0,0,2.3037,,0,69,69,40,1,41,1,puertorican,,,,,,,,,,,,,,,,,,,,,,,,,,,,,,,,,,,,,,,,,,,,,,,,,,,,,,,,
,,,,,,,,,6658d49af0f0787f8c8132b9,"Spanish, Mexican",13 or older,"no, only English or Spanish",no,2025-08-12_16h32.12.147,empathy_intonation_perc_control,2024.2.4,Win32,59.88023952,6658d49af0f0787f8c8132b9,68817205a84113384fffdfe3,689ba4a3dec8374738dc4b05,,,,,,,,,,,,./stim/wavs/puertorican_mismatch_interrogative-total-yn_La-nina-lava-el-plato.wav,1,,,203.4349,205.3657,0,0,1.4074,,0,70,70,42,1,43,1,puertorican,,,,,,,,,,,,,,,,,,,,,,,,,,,,,,,,,,,,,,,,,,,,,,,,,,,,,,,,
,,,,,,,,,6658d49af0f0787f8c8132b9,"Spanish, Mexican",13 or older,"no, only English or Spanish",no,2025-08-12_16h32.12.147,empathy_intonation_perc_control,2024.2.4,Win32,59.88023952,6658d49af0f0787f8c8132b9,68817205a84113384fffdfe3,689ba4a3dec8374738dc4b05,,,,,,,,,,,,./stim/wavs/mexican_match_declarative-broad-focus_Mariano-habla-del-tiempo.wav,0,,,205.3663,207.2802,0,1,1.3923,,0,71,71,60,1,61,0,mexican,,,,,,,,,,,,,,,,,,,,,,,,,,,,,,,,,,,,,,,,,,,,,,,,,,,,,,,,
,,,,,,,,,6658d49af0f0787f8c8132b9,"Spanish, Mexican",13 or older,"no, only English or Spanish",no,2025-08-12_16h32.12.147,empathy_intonation_perc_control,2024.2.4,Win32,59.88023952,6658d49af0f0787f8c8132b9,68817205a84113384fffdfe3,689ba4a3dec8374738dc4b05,,,,,,,,,,,,./stim/wavs/cuban_match_declarative-broad-focus_Daniel-iba-a-Bolivia.wav,0,,,207.2815,209.4612,0,1,1.6555,,0,72,72,51,1,52,0,cuban,,,,,,,,,,,,,,,,,,,,,,,,,,,,,,,,,,,,,,,,,,,,,,,,,,,,,,,,
,,,,,,,,,6658d49af0f0787f8c8132b9,"Spanish, Mexican",13 or older,"no, only English or Spanish",no,2025-08-12_16h32.12.147,empathy_intonation_perc_control,2024.2.4,Win32,59.88023952,6658d49af0f0787f8c8132b9,68817205a84113384fffdfe3,689ba4a3dec8374738dc4b05,,,,,,,,,,,,./stim/wavs/cuban_mismatch_declarative-broad-focus_La-nina-lava-el-plato.wav,0,,,209.4621,211.8756,0,1,1.8815,,0,73,73,75,1,76,0,cuban,,,,,,,,,,,,,,,,,,,,,,,,,,,,,,,,,,,,,,,,,,,,,,,,,,,,,,,,
,,,,,,,,,6658d49af0f0787f8c8132b9,"Spanish, Mexican",13 or older,"no, only English or Spanish",no,2025-08-12_16h32.12.147,empathy_intonation_perc_control,2024.2.4,Win32,59.88023952,6658d49af0f0787f8c8132b9,68817205a84113384fffdfe3,689ba4a3dec8374738dc4b05,,,,,,,,,,,,./stim/wavs/castilian_mismatch_declarative-broad-focus_Mi-novio-viene-del-lago.wav,0,,,211.8762,214.0901,0,1,1.6829,,0,74,74,71,1,72,0,castilian,,,,,,,,,,,,,,,,,,,,,,,,,,,,,,,,,,,,,,,,,,,,,,,,,,,,,,,,
,,,,,,,,,6658d49af0f0787f8c8132b9,"Spanish, Mexican",13 or older,"no, only English or Spanish",no,2025-08-12_16h32.12.147,empathy_intonation_perc_control,2024.2.4,Win32,59.88023952,6658d49af0f0787f8c8132b9,68817205a84113384fffdfe3,689ba4a3dec8374738dc4b05,,,,,,,,,,,,./stim/wavs/castilian_match_declarative-broad-focus_David-leia-el-libro.wav,0,,,214.0908,216.3217,0,1,1.6988,,0,75,75,44,1,45,0,castilian,,,,,,,,,,,,,,,,,,,,,,,,,,,,,,,,,,,,,,,,,,,,,,,,,,,,,,,,
,,,,,,,,,6658d49af0f0787f8c8132b9,"Spanish, Mexican",13 or older,"no, only English or Spanish",no,2025-08-12_16h32.12.147,empathy_intonation_perc_control,2024.2.4,Win32,59.88023952,6658d49af0f0787f8c8132b9,68817205a84113384fffdfe3,689ba4a3dec8374738dc4b05,,,,,,,,,,,,./stim/wavs/castilian_mismatch_declarative-broad-focus_Mi-tia-odia-la-lluvia.wav,0,,,216.3223,218.3693,0,1,1.5171,,0,76,76,72,1,73,0,castilian,,,,,,,,,,,,,,,,,,,,,,,,,,,,,,,,,,,,,,,,,,,,,,,,,,,,,,,,
,,,,,,,,,6658d49af0f0787f8c8132b9,"Spanish, Mexican",13 or older,"no, only English or Spanish",no,2025-08-12_16h32.12.147,empathy_intonation_perc_control,2024.2.4,Win32,59.88023952,6658d49af0f0787f8c8132b9,68817205a84113384fffdfe3,689ba4a3dec8374738dc4b05,,,,,,,,,,,,./stim/wavs/mexican_mismatch_declarative-broad-focus_Mi-novio-viene-del-lago.wav,0,,,218.3703,220.384,0,1,1.4814,,0,77,77,81,1,82,0,mexican,,,,,,,,,,,,,,,,,,,,,,,,,,,,,,,,,,,,,,,,,,,,,,,,,,,,,,,,
,,,,,,,,,6658d49af0f0787f8c8132b9,"Spanish, Mexican",13 or older,"no, only English or Spanish",no,2025-08-12_16h32.12.147,empathy_intonation_perc_control,2024.2.4,Win32,59.88023952,6658d49af0f0787f8c8132b9,68817205a84113384fffdfe3,689ba4a3dec8374738dc4b05,,,,,,,,,,,,./stim/wavs/castilian_mismatch_interrogative-total-yn_Mi-tia-odia-la-lluvia.wav,1,,,220.3846,223.2812,1,1,2.3673,,0,78,78,28,1,29,0,castilian,,,,,,,,,,,,,,,,,,,,,,,,,,,,,,,,,,,,,,,,,,,,,,,,,,,,,,,,
,,,,,,,,,6658d49af0f0787f8c8132b9,"Spanish, Mexican",13 or older,"no, only English or Spanish",no,2025-08-12_16h32.12.147,empathy_intonation_perc_control,2024.2.4,Win32,59.88023952,6658d49af0f0787f8c8132b9,68817205a84113384fffdfe3,689ba4a3dec8374738dc4b05,,,,,,,,,,,,./stim/wavs/cuban_mismatch_interrogative-total-yn_Mi-novio-viene-del-lago.wav,1,,,223.2816,225.6292,0,0,1.8199,,0,79,79,32,1,33,1,cuban,,,,,,,,,,,,,,,,,,,,,,,,,,,,,,,,,,,,,,,,,,,,,,,,,,,,,,,,
,,,,,,,,,6658d49af0f0787f8c8132b9,"Spanish, Mexican",13 or older,"no, only English or Spanish",no,2025-08-12_16h32.12.147,empathy_intonation_perc_control,2024.2.4,Win32,59.88023952,6658d49af0f0787f8c8132b9,68817205a84113384fffdfe3,689ba4a3dec8374738dc4b05,,,,,,,,,,,,./stim/wavs/puertorican_match_declarative-broad-focus_Emilio-ama-la-marcha.wav,0,,,225.6302,227.627,0,1,1.4725,,0,80,80,65,1,66,0,puertorican,,,,,,,,,,,,,,,,,,,,,,,,,,,,,,,,,,,,,,,,,,,,,,,,,,,,,,,,
,,,,,,,,,6658d49af0f0787f8c8132b9,"Spanish, Mexican",13 or older,"no, only English or Spanish",no,2025-08-12_16h32.12.147,empathy_intonation_perc_control,2024.2.4,Win32,59.88023952,6658d49af0f0787f8c8132b9,68817205a84113384fffdfe3,689ba4a3dec8374738dc4b05,,,,,,,,,,,,./stim/wavs/puertorican_mismatch_declarative-broad-focus_El-nino-oye-el-rio.wav,0,,,227.6276,229.5417,0,1,1.3834,,0,81,81,85,1,86,0,puertorican,,,,,,,,,,,,,,,,,,,,,,,,,,,,,,,,,,,,,,,,,,,,,,,,,,,,,,,,
,,,,,,,,,6658d49af0f0787f8c8132b9,"Spanish, Mexican",13 or older,"no, only English or Spanish",no,2025-08-12_16h32.12.147,empathy_intonation_perc_control,2024.2.4,Win32,59.88023952,6658d49af0f0787f8c8132b9,68817205a84113384fffdfe3,689ba4a3dec8374738dc4b05,,,,,,,,,,,,./stim/wavs/castilian_mismatch_interrogative-total-yn_La-maestra-vive-en-Paris.wav,1,,,229.5425,232.5224,1,1,2.4475,,0,82,82,24,1,25,0,castilian,,,,,,,,,,,,,,,,,,,,,,,,,,,,,,,,,,,,,,,,,,,,,,,,,,,,,,,,
,,,,,,,,,6658d49af0f0787f8c8132b9,"Spanish, Mexican",13 or older,"no, only English or Spanish",no,2025-08-12_16h32.12.147,empathy_intonation_perc_control,2024.2.4,Win32,59.88023952,6658d49af0f0787f8c8132b9,68817205a84113384fffdfe3,689ba4a3dec8374738dc4b05,,,,,,,,,,,,./stim/wavs/cuban_match_interrogative-total-yn_Manuela-vende-el-carro.wav,1,,,232.523,234.9197,0,0,1.872,,0,83,83,8,1,9,1,cuban,,,,,,,,,,,,,,,,,,,,,,,,,,,,,,,,,,,,,,,,,,,,,,,,,,,,,,,,
,,,,,,,,,6658d49af0f0787f8c8132b9,"Spanish, Mexican",13 or older,"no, only English or Spanish",no,2025-08-12_16h32.12.147,empathy_intonation_perc_control,2024.2.4,Win32,59.88023952,6658d49af0f0787f8c8132b9,68817205a84113384fffdfe3,689ba4a3dec8374738dc4b05,,,,,,,,,,,,./stim/wavs/mexican_match_declarative-broad-focus_Marta-abre-el-regalo.wav,0,,,234.9201,237.251,0,1,1.8001,,0,84,84,61,1,62,0,mexican,,,,,,,,,,,,,,,,,,,,,,,,,,,,,,,,,,,,,,,,,,,,,,,,,,,,,,,,
,,,,,,,,,6658d49af0f0787f8c8132b9,"Spanish, Mexican",13 or older,"no, only English or Spanish",no,2025-08-12_16h32.12.147,empathy_intonation_perc_control,2024.2.4,Win32,59.88023952,6658d49af0f0787f8c8132b9,68817205a84113384fffdfe3,689ba4a3dec8374738dc4b05,,,,,,,,,,,,./stim/wavs/mexican_mismatch_interrogative-total-yn_El-nino-oye-el-rio.wav,1,,,237.2515,240.0813,1,1,2.3,,0,85,85,35,1,36,0,mexican,,,,,,,,,,,,,,,,,,,,,,,,,,,,,,,,,,,,,,,,,,,,,,,,,,,,,,,,
,,,,,,,,,6658d49af0f0787f8c8132b9,"Spanish, Mexican",13 or older,"no, only English or Spanish",no,2025-08-12_16h32.12.147,empathy_intonation_perc_control,2024.2.4,Win32,59.88023952,6658d49af0f0787f8c8132b9,68817205a84113384fffdfe3,689ba4a3dec8374738dc4b05,,,,,,,,,,,,./stim/wavs/puertorican_mismatch_interrogative-total-yn_El-hombre-mira-la-luna.wav,1,,,240.082,242.7124,0,0,2.1084,,0,86,86,39,1,40,1,puertorican,,,,,,,,,,,,,,,,,,,,,,,,,,,,,,,,,,,,,,,,,,,,,,,,,,,,,,,,
,,,,,,,,,6658d49af0f0787f8c8132b9,"Spanish, Mexican",13 or older,"no, only English or Spanish",no,2025-08-12_16h32.12.147,empathy_intonation_perc_control,2024.2.4,Win32,59.88023952,6658d49af0f0787f8c8132b9,68817205a84113384fffdfe3,689ba4a3dec8374738dc4b05,,,,,,,,,,,,./stim/wavs/puertorican_mismatch_interrogative-total-yn_La-maestra-vive-en-Paris.wav,1,,,242.7129,245.476,0,0,2.2384,,0,87,87,41,1,42,1,puertorican,,,,,,,,,,,,,,,,,,,,,,,,,,,,,,,,,,,,,,,,,,,,,,,,,,,,,,,,
,,,,,,,"Great! Now we will move on. The next task consists of about 60 trials, in each of which you will see a string of letters. 
  
  Your task is to decide whether this is a real Spanish word or not.", (press the spacebar to continue),6658d49af0f0787f8c8132b9,"Spanish, Mexican",13 or older,"no, only English or Spanish",no,2025-08-12_16h32.12.147,empathy_intonation_perc_control,2024.2.4,Win32,59.88023952,6658d49af0f0787f8c8132b9,68817205a84113384fffdfe3,689ba4a3dec8374738dc4b05,,,,,,,,,,,,,,,,,,,,,,,,,,,,,,245.4817,250.9719,0,0,0,0,1,,,,,,,,,,,,,,,,,,,,,,,,,,,,,,,,,,,,,,,,,,,,,,,,,
,,,,,,,"If you think it is an existing Spanish word, you type '1' (for 'REAL'), and if you think it is not an existing Spanish word, you type '0' (for 'FAKE').", (press the spacebar to continue),6658d49af0f0787f8c8132b9,"Spanish, Mexican",13 or older,"no, only English or Spanish",no,2025-08-12_16h32.12.147,empathy_intonation_perc_control,2024.2.4,Win32,59.88023952,6658d49af0f0787f8c8132b9,68817205a84113384fffdfe3,689ba4a3dec8374738dc4b05,,,,,,,,,,,,,,,,,,,,,,,,,,,,,,250.9747,252.969,0,1,1,1,1,,,,,,,,,,,,,,,,,,,,,,,,,,,,,,,,,,,,,,,,,,,,,,,,,
,,,,,,,"If you are sure that the word exists, even though you don’t know its exact meaning, you may still respond '1' (REAL). 
  
  But if you are not sure if it is an existing word, you should respond '0' (FAKE).
  
  Let's do a practice round...", (press the spacebar to continue),6658d49af0f0787f8c8132b9,"Spanish, Mexican",13 or older,"no, only English or Spanish",no,2025-08-12_16h32.12.147,empathy_intonation_perc_control,2024.2.4,Win32,59.88023952,6658d49af0f0787f8c8132b9,68817205a84113384fffdfe3,689ba4a3dec8374738dc4b05,,,,,,,,,,,,,,,,,,,,,,,,,,,,,,252.972,254.7725,0,2,2,2,1,,,,,,,,,,,,,,,,,,,,,,,,,,,,,,,,,,,,,,,,,,,,,,,,,
,,,,,,,,,6658d49af0f0787f8c8132b9,"Spanish, Mexican",13 or older,"no, only English or Spanish",no,2025-08-12_16h32.12.147,empathy_intonation_perc_control,2024.2.4,Win32,59.88023952,6658d49af0f0787f8c8132b9,68817205a84113384fffdfe3,689ba4a3dec8374738dc4b05,,,,,,,,,,,,,0,,,,,,,,,,,,,,,,,,,,,,,,254.7778,258.3025,1,0,2.9963,,258.3028,259.297,0,0,0,0,1,0,depiste,REAL,FAKE,,,,,,,,,,,,,,,,,,,,,,,,,,,,,,,,
,,,,,,,,,6658d49af0f0787f8c8132b9,"Spanish, Mexican",13 or older,"no, only English or Spanish",no,2025-08-12_16h32.12.147,empathy_intonation_perc_control,2024.2.4,Win32,59.88023952,6658d49af0f0787f8c8132b9,68817205a84113384fffdfe3,689ba4a3dec8374738dc4b05,,,,,,,,,,,,,1,,,,,,,,,,,,,,,,,,,,,,,,259.4153,260.5785,1,1,0.7504,,260.5809,261.5769,0,1,1,1,1,0,sí,REAL,FAKE,,,,,,,,,,,,,,,,,,,,,,,,,,,,,,,,
,,,,,,,,,6658d49af0f0787f8c8132b9,"Spanish, Mexican",13 or older,"no, only English or Spanish",no,2025-08-12_16h32.12.147,empathy_intonation_perc_control,2024.2.4,Win32,59.88023952,6658d49af0f0787f8c8132b9,68817205a84113384fffdfe3,689ba4a3dec8374738dc4b05,,,,,,,,,,,,,0,,,,,,,,,,,,,,,,,,,,,,,,261.5786,264.441,0,1,2.3324,,264.4411,265.4399,0,2,2,2,1,0,coné,REAL,FAKE,,,,,,,,,,,,,,,,,,,,,,,,,,,,,,,,
,,,,,,,,,6658d49af0f0787f8c8132b9,"Spanish, Mexican",13 or older,"no, only English or Spanish",no,2025-08-12_16h32.12.147,empathy_intonation_perc_control,2024.2.4,Win32,59.88023952,6658d49af0f0787f8c8132b9,68817205a84113384fffdfe3,689ba4a3dec8374738dc4b05,,,,,,,,,,,,,0,,,,,,,,,,,,,,,,,,,,,,,,265.4412,267.3713,0,1,1.3949,,267.3713,268.3718,0,3,3,3,1,0,calpar,REAL,FAKE,,,,,,,,,,,,,,,,,,,,,,,,,,,,,,,,
,,,,,,,,,6658d49af0f0787f8c8132b9,"Spanish, Mexican",13 or older,"no, only English or Spanish",no,2025-08-12_16h32.12.147,empathy_intonation_perc_control,2024.2.4,Win32,59.88023952,6658d49af0f0787f8c8132b9,68817205a84113384fffdfe3,689ba4a3dec8374738dc4b05,,,,,,,,,,,,,0,,,,,,,,,,,,,,,,,,,,,,,,268.3734,269.9856,0,1,1.0793,,269.9858,270.9846,0,4,4,4,1,0,joten,REAL,FAKE,,,,,,,,,,,,,,,,,,,,,,,,,,,,,,,,
,,,,,,,,,6658d49af0f0787f8c8132b9,"Spanish, Mexican",13 or older,"no, only English or Spanish",no,2025-08-12_16h32.12.147,empathy_intonation_perc_control,2024.2.4,Win32,59.88023952,6658d49af0f0787f8c8132b9,68817205a84113384fffdfe3,689ba4a3dec8374738dc4b05,,,,,,,,,,,,,1,,,,,,,,,,,,,,,,,,,,,,,,270.986,272.9326,0,0,1.4078,,272.9337,273.9316,0,5,5,5,1,0,sacapuntas,REAL,FAKE,,,,,,,,,,,,,,,,,,,,,,,,,,,,,,,,
,,,,,,,,,6658d49af0f0787f8c8132b9,"Spanish, Mexican",13 or older,"no, only English or Spanish",no,2025-08-12_16h32.12.147,empathy_intonation_perc_control,2024.2.4,Win32,59.88023952,6658d49af0f0787f8c8132b9,68817205a84113384fffdfe3,689ba4a3dec8374738dc4b05,,,,,,,,,,,,,0,,,,,,,,,,,,,,,,,,,,,,,,273.9336,275.8464,1,0,1.3823,,275.8466,276.8455,0,6,6,6,1,0,priba,REAL,FAKE,,,,,,,,,,,,,,,,,,,,,,,,,,,,,,,,
,,,,,,,,,6658d49af0f0787f8c8132b9,"Spanish, Mexican",13 or older,"no, only English or Spanish",no,2025-08-12_16h32.12.147,empathy_intonation_perc_control,2024.2.4,Win32,59.88023952,6658d49af0f0787f8c8132b9,68817205a84113384fffdfe3,689ba4a3dec8374738dc4b05,,,,,,,,,,,,,0,,,,,,,,,,,,,,,,,,,,,,,,276.8467,278.6275,0,1,1.2467,,278.6288,279.6266,0,7,7,7,1,0,pelasula,REAL,FAKE,,,,,,,,,,,,,,,,,,,,,,,,,,,,,,,,
,,,,,,,,,6658d49af0f0787f8c8132b9,"Spanish, Mexican",13 or older,"no, only English or Spanish",no,2025-08-12_16h32.12.147,empathy_intonation_perc_control,2024.2.4,Win32,59.88023952,6658d49af0f0787f8c8132b9,68817205a84113384fffdfe3,689ba4a3dec8374738dc4b05,,,,,,,,,,,,,1,,,,,,,,,,,,,,,,,,,,,,,,279.6282,281.341,1,1,1.1864,,281.3411,282.3399,0,8,8,8,1,0,bien,REAL,FAKE,,,,,,,,,,,,,,,,,,,,,,,,,,,,,,,,
,,,,,,,,,6658d49af0f0787f8c8132b9,"Spanish, Mexican",13 or older,"no, only English or Spanish",no,2025-08-12_16h32.12.147,empathy_intonation_perc_control,2024.2.4,Win32,59.88023952,6658d49af0f0787f8c8132b9,68817205a84113384fffdfe3,689ba4a3dec8374738dc4b05,,,,,,,,,,,,,1,,,,,,,,,,,,,,,,,,,,,,,,282.341,283.7387,1,1,0.864,,283.7387,284.7375,0,9,9,9,1,0,casa,REAL,FAKE,,,,,,,,,,,,,,,,,,,,,,,,,,,,,,,,
,,,,,,,,,6658d49af0f0787f8c8132b9,"Spanish, Mexican",13 or older,"no, only English or Spanish",no,2025-08-12_16h32.12.147,empathy_intonation_perc_control,2024.2.4,Win32,59.88023952,6658d49af0f0787f8c8132b9,68817205a84113384fffdfe3,689ba4a3dec8374738dc4b05,,,,,,,,,,,,,0,,,,,,,,,,,,,,,,,,,,,,,,284.7386,286.2695,1,0,1.0025,,286.2706,287.2685,0,10,10,10,1,0,lejo,REAL,FAKE,,,,,,,,,,,,,,,,,,,,,,,,,,,,,,,,
,,,,,,,,,6658d49af0f0787f8c8132b9,"Spanish, Mexican",13 or older,"no, only English or Spanish",no,2025-08-12_16h32.12.147,empathy_intonation_perc_control,2024.2.4,Win32,59.88023952,6658d49af0f0787f8c8132b9,68817205a84113384fffdfe3,689ba4a3dec8374738dc4b05,,,,,,,,,,,,,0,,,,,,,,,,,,,,,,,,,,,,,,287.2696,288.9341,1,0,1.1319,,288.9342,289.9328,0,11,11,11,1,0,pretantas,REAL,FAKE,,,,,,,,,,,,,,,,,,,,,,,,,,,,,,,,
,,,,,,,,,6658d49af0f0787f8c8132b9,"Spanish, Mexican",13 or older,"no, only English or Spanish",no,2025-08-12_16h32.12.147,empathy_intonation_perc_control,2024.2.4,Win32,59.88023952,6658d49af0f0787f8c8132b9,68817205a84113384fffdfe3,689ba4a3dec8374738dc4b05,,,,,,,,,,,,,,,,,,,,,,,,,,,,,,,,,,,,,,,,,,,,,,,,,,,,,,289.9333,291.1984,,,,,,,,,,,,,,,,,,,,,,,,,,,,,,
,,,,,,,,,6658d49af0f0787f8c8132b9,"Spanish, Mexican",13 or older,"no, only English or Spanish",no,2025-08-12_16h32.12.147,empathy_intonation_perc_control,2024.2.4,Win32,59.88023952,6658d49af0f0787f8c8132b9,68817205a84113384fffdfe3,689ba4a3dec8374738dc4b05,,,,,,,,,,,,,1,,,,,,,,,,,,,,,,,,,,,,,,,,,,,,,,,,,,,77,tiburón,,,,,291.208,292.8298,1,1,1.0973,,0,0,0,76,1,REAL,FAKE,,,,,,,,,,,,,,,,,
,,,,,,,,,6658d49af0f0787f8c8132b9,"Spanish, Mexican",13 or older,"no, only English or Spanish",no,2025-08-12_16h32.12.147,empathy_intonation_perc_control,2024.2.4,Win32,59.88023952,6658d49af0f0787f8c8132b9,68817205a84113384fffdfe3,689ba4a3dec8374738dc4b05,,,,,,,,,,,,,1,,,,,,,,,,,,,,,,,,,,,,,,,,,,,,,,,,,,,2,pellizcar,,,,,292.8308,294.4615,0,0,1.1034,,0,1,1,1,1,REAL,FAKE,,,,,,,,,,,,,,,,,
,,,,,,,,,6658d49af0f0787f8c8132b9,"Spanish, Mexican",13 or older,"no, only English or Spanish",no,2025-08-12_16h32.12.147,empathy_intonation_perc_control,2024.2.4,Win32,59.88023952,6658d49af0f0787f8c8132b9,68817205a84113384fffdfe3,689ba4a3dec8374738dc4b05,,,,,,,,,,,,,1,,,,,,,,,,,,,,,,,,,,,,,,,,,,,,,,,,,,,86,barato,,,,,294.4628,295.677,1,1,0.6895,,0,2,2,85,1,REAL,FAKE,,,,,,,,,,,,,,,,,
,,,,,,,,,6658d49af0f0787f8c8132b9,"Spanish, Mexican",13 or older,"no, only English or Spanish",no,2025-08-12_16h32.12.147,empathy_intonation_perc_control,2024.2.4,Win32,59.88023952,6658d49af0f0787f8c8132b9,68817205a84113384fffdfe3,689ba4a3dec8374738dc4b05,,,,,,,,,,,,,1,,,,,,,,,,,,,,,,,,,,,,,,,,,,,,,,,,,,,52,camisa,,,,,295.6792,296.8923,1,1,0.6812,,0,3,3,51,1,REAL,FAKE,,,,,,,,,,,,,,,,,
,,,,,,,,,6658d49af0f0787f8c8132b9,"Spanish, Mexican",13 or older,"no, only English or Spanish",no,2025-08-12_16h32.12.147,empathy_intonation_perc_control,2024.2.4,Win32,59.88023952,6658d49af0f0787f8c8132b9,68817205a84113384fffdfe3,689ba4a3dec8374738dc4b05,,,,,,,,,,,,,0,,,,,,,,,,,,,,,,,,,,,,,,,,,,,,,,,,,,,58,plaudir,,,,,296.8933,298.1912,0,1,0.7737,,0,4,4,57,1,REAL,FAKE,,,,,,,,,,,,,,,,,
,,,,,,,,,6658d49af0f0787f8c8132b9,"Spanish, Mexican",13 or older,"no, only English or Spanish",no,2025-08-12_16h32.12.147,empathy_intonation_perc_control,2024.2.4,Win32,59.88023952,6658d49af0f0787f8c8132b9,68817205a84113384fffdfe3,689ba4a3dec8374738dc4b05,,,,,,,,,,,,,1,,,,,,,,,,,,,,,,,,,,,,,,,,,,,,,,,,,,,78,frondoso,,,,,298.1925,299.6231,0,0,0.8978,,0,5,5,77,1,REAL,FAKE,,,,,,,,,,,,,,,,,
,,,,,,,,,6658d49af0f0787f8c8132b9,"Spanish, Mexican",13 or older,"no, only English or Spanish",no,2025-08-12_16h32.12.147,empathy_intonation_perc_control,2024.2.4,Win32,59.88023952,6658d49af0f0787f8c8132b9,68817205a84113384fffdfe3,689ba4a3dec8374738dc4b05,,,,,,,,,,,,,0,,,,,,,,,,,,,,,,,,,,,,,,,,,,,,,,,,,,,74,cintro,,,,,299.6244,301.0218,1,0,0.8693,,0,6,6,73,1,REAL,FAKE,,,,,,,,,,,,,,,,,
,,,,,,,,,6658d49af0f0787f8c8132b9,"Spanish, Mexican",13 or older,"no, only English or Spanish",no,2025-08-12_16h32.12.147,empathy_intonation_perc_control,2024.2.4,Win32,59.88023952,6658d49af0f0787f8c8132b9,68817205a84113384fffdfe3,689ba4a3dec8374738dc4b05,,,,,,,,,,,,,1,,,,,,,,,,,,,,,,,,,,,,,,,,,,,,,,,,,,,15,regar,,,,,301.0238,303.6358,1,1,2.0853,,0,7,7,14,1,REAL,FAKE,,,,,,,,,,,,,,,,,
,,,,,,,,,6658d49af0f0787f8c8132b9,"Spanish, Mexican",13 or older,"no, only English or Spanish",no,2025-08-12_16h32.12.147,empathy_intonation_perc_control,2024.2.4,Win32,59.88023952,6658d49af0f0787f8c8132b9,68817205a84113384fffdfe3,689ba4a3dec8374738dc4b05,,,,,,,,,,,,,0,,,,,,,,,,,,,,,,,,,,,,,,,,,,,,,,,,,,,10,antar,,,,,303.6372,304.8678,0,1,0.6995,,0,8,8,9,1,REAL,FAKE,,,,,,,,,,,,,,,,,
,,,,,,,,,6658d49af0f0787f8c8132b9,"Spanish, Mexican",13 or older,"no, only English or Spanish",no,2025-08-12_16h32.12.147,empathy_intonation_perc_control,2024.2.4,Win32,59.88023952,6658d49af0f0787f8c8132b9,68817205a84113384fffdfe3,689ba4a3dec8374738dc4b05,,,,,,,,,,,,,1,,,,,,,,,,,,,,,,,,,,,,,,,,,,,,,,,,,,,51,candado,,,,,304.8689,306.3165,1,1,0.9213,,0,9,9,50,1,REAL,FAKE,,,,,,,,,,,,,,,,,
,,,,,,,,,6658d49af0f0787f8c8132b9,"Spanish, Mexican",13 or older,"no, only English or Spanish",no,2025-08-12_16h32.12.147,empathy_intonation_perc_control,2024.2.4,Win32,59.88023952,6658d49af0f0787f8c8132b9,68817205a84113384fffdfe3,689ba4a3dec8374738dc4b05,,,,,,,,,,,,,1,,,,,,,,,,,,,,,,,,,,,,,,,,,,,,,,,,,,,88,acantilado,,,,,306.3179,308.9139,1,1,2.0636,,0,10,10,87,1,REAL,FAKE,,,,,,,,,,,,,,,,,
,,,,,,,,,6658d49af0f0787f8c8132b9,"Spanish, Mexican",13 or older,"no, only English or Spanish",no,2025-08-12_16h32.12.147,empathy_intonation_perc_control,2024.2.4,Win32,59.88023952,6658d49af0f0787f8c8132b9,68817205a84113384fffdfe3,689ba4a3dec8374738dc4b05,,,,,,,,,,,,,1,,,,,,,,,,,,,,,,,,,,,,,,,,,,,,,,,,,,,90,clavel,,,,,308.9154,310.0794,0,0,0.6309,,0,11,11,89,1,REAL,FAKE,,,,,,,,,,,,,,,,,
,,,,,,,,,6658d49af0f0787f8c8132b9,"Spanish, Mexican",13 or older,"no, only English or Spanish",no,2025-08-12_16h32.12.147,empathy_intonation_perc_control,2024.2.4,Win32,59.88023952,6658d49af0f0787f8c8132b9,68817205a84113384fffdfe3,689ba4a3dec8374738dc4b05,,,,,,,,,,,,,1,,,,,,,,,,,,,,,,,,,,,,,,,,,,,,,,,,,,,9,hacha,,,,,310.0808,311.5446,1,1,0.9346,,0,12,12,8,1,REAL,FAKE,,,,,,,,,,,,,,,,,
,,,,,,,,,6658d49af0f0787f8c8132b9,"Spanish, Mexican",13 or older,"no, only English or Spanish",no,2025-08-12_16h32.12.147,empathy_intonation_perc_control,2024.2.4,Win32,59.88023952,6658d49af0f0787f8c8132b9,68817205a84113384fffdfe3,689ba4a3dec8374738dc4b05,,,,,,,,,,,,,1,,,,,,,,,,,,,,,,,,,,,,,,,,,,,,,,,,,,,26,secuestro,,,,,311.5458,312.9269,1,1,0.8507,,0,13,13,25,1,REAL,FAKE,,,,,,,,,,,,,,,,,
,,,,,,,,,6658d49af0f0787f8c8132b9,"Spanish, Mexican",13 or older,"no, only English or Spanish",no,2025-08-12_16h32.12.147,empathy_intonation_perc_control,2024.2.4,Win32,59.88023952,6658d49af0f0787f8c8132b9,68817205a84113384fffdfe3,689ba4a3dec8374738dc4b05,,,,,,,,,,,,,0,,,,,,,,,,,,,,,,,,,,,,,,,,,,,,,,,,,,,17,floroso,,,,,312.9286,314.4584,0,1,0.996,,0,14,14,16,1,REAL,FAKE,,,,,,,,,,,,,,,,,
,,,,,,,,,6658d49af0f0787f8c8132b9,"Spanish, Mexican",13 or older,"no, only English or Spanish",no,2025-08-12_16h32.12.147,empathy_intonation_perc_control,2024.2.4,Win32,59.88023952,6658d49af0f0787f8c8132b9,68817205a84113384fffdfe3,689ba4a3dec8374738dc4b05,,,,,,,,,,,,,1,,,,,,,,,,,,,,,,,,,,,,,,,,,,,,,,,,,,,76,atar,,,,,314.4596,315.6906,0,0,0.7054,,0,15,15,75,1,REAL,FAKE,,,,,,,,,,,,,,,,,
,,,,,,,,,6658d49af0f0787f8c8132b9,"Spanish, Mexican",13 or older,"no, only English or Spanish",no,2025-08-12_16h32.12.147,empathy_intonation_perc_control,2024.2.4,Win32,59.88023952,6658d49af0f0787f8c8132b9,68817205a84113384fffdfe3,689ba4a3dec8374738dc4b05,,,,,,,,,,,,,1,,,,,,,,,,,,,,,,,,,,,,,,,,,,,,,,,,,,,36,loro,,,,,315.6915,317.4722,1,1,1.2487,,0,16,16,35,1,REAL,FAKE,,,,,,,,,,,,,,,,,
,,,,,,,,,6658d49af0f0787f8c8132b9,"Spanish, Mexican",13 or older,"no, only English or Spanish",no,2025-08-12_16h32.12.147,empathy_intonation_perc_control,2024.2.4,Win32,59.88023952,6658d49af0f0787f8c8132b9,68817205a84113384fffdfe3,689ba4a3dec8374738dc4b05,,,,,,,,,,,,,1,,,,,,,,,,,,,,,,,,,,,,,,,,,,,,,,,,,,,85,laúd,,,,,317.4739,318.5882,0,0,0.5889,,0,17,17,84,1,REAL,FAKE,,,,,,,,,,,,,,,,,
,,,,,,,,,6658d49af0f0787f8c8132b9,"Spanish, Mexican",13 or older,"no, only English or Spanish",no,2025-08-12_16h32.12.147,empathy_intonation_perc_control,2024.2.4,Win32,59.88023952,6658d49af0f0787f8c8132b9,68817205a84113384fffdfe3,689ba4a3dec8374738dc4b05,,,,,,,,,,,,,1,,,,,,,,,,,,,,,,,,,,,,,,,,,,,,,,,,,,,40,alfombra,,,,,318.5897,320.0197,0,0,0.9029,,0,18,18,39,1,REAL,FAKE,,,,,,,,,,,,,,,,,
,,,,,,,,,6658d49af0f0787f8c8132b9,"Spanish, Mexican",13 or older,"no, only English or Spanish",no,2025-08-12_16h32.12.147,empathy_intonation_perc_control,2024.2.4,Win32,59.88023952,6658d49af0f0787f8c8132b9,68817205a84113384fffdfe3,689ba4a3dec8374738dc4b05,,,,,,,,,,,,,0,,,,,,,,,,,,,,,,,,,,,,,,,,,,,,,,,,,,,42,cadallo,,,,,320.0206,321.7348,0,1,1.1792,,0,19,19,41,1,REAL,FAKE,,,,,,,,,,,,,,,,,
,,,,,,,,,6658d49af0f0787f8c8132b9,"Spanish, Mexican",13 or older,"no, only English or Spanish",no,2025-08-12_16h32.12.147,empathy_intonation_perc_control,2024.2.4,Win32,59.88023952,6658d49af0f0787f8c8132b9,68817205a84113384fffdfe3,689ba4a3dec8374738dc4b05,,,,,,,,,,,,,1,,,,,,,,,,,,,,,,,,,,,,,,,,,,,,,,,,,,,5,zapato,,,,,321.7356,323.217,1,1,0.9556,,0,20,20,4,1,REAL,FAKE,,,,,,,,,,,,,,,,,
,,,,,,,,,6658d49af0f0787f8c8132b9,"Spanish, Mexican",13 or older,"no, only English or Spanish",no,2025-08-12_16h32.12.147,empathy_intonation_perc_control,2024.2.4,Win32,59.88023952,6658d49af0f0787f8c8132b9,68817205a84113384fffdfe3,689ba4a3dec8374738dc4b05,,,,,,,,,,,,,1,,,,,,,,,,,,,,,,,,,,,,,,,,,,,,,,,,,,,45,jilguero,,,,,323.218,325.4477,0,0,1.6951,,0,21,21,44,1,REAL,FAKE,,,,,,,,,,,,,,,,,
,,,,,,,,,6658d49af0f0787f8c8132b9,"Spanish, Mexican",13 or older,"no, only English or Spanish",no,2025-08-12_16h32.12.147,empathy_intonation_perc_control,2024.2.4,Win32,59.88023952,6658d49af0f0787f8c8132b9,68817205a84113384fffdfe3,689ba4a3dec8374738dc4b05,,,,,,,,,,,,,1,,,,,,,,,,,,,,,,,,,,,,,,,,,,,,,,,,,,,71,polvoriento,,,,,325.4486,326.8797,0,0,0.8949,,0,22,22,70,1,REAL,FAKE,,,,,,,,,,,,,,,,,
,,,,,,,,,6658d49af0f0787f8c8132b9,"Spanish, Mexican",13 or older,"no, only English or Spanish",no,2025-08-12_16h32.12.147,empathy_intonation_perc_control,2024.2.4,Win32,59.88023952,6658d49af0f0787f8c8132b9,68817205a84113384fffdfe3,689ba4a3dec8374738dc4b05,,,,,,,,,,,,,1,,,,,,,,,,,,,,,,,,,,,,,,,,,,,,,,,,,,,61,seda,,,,,326.8806,328.3949,0,0,0.9814,,0,23,23,60,1,REAL,FAKE,,,,,,,,,,,,,,,,,
,,,,,,,,,6658d49af0f0787f8c8132b9,"Spanish, Mexican",13 or older,"no, only English or Spanish",no,2025-08-12_16h32.12.147,empathy_intonation_perc_control,2024.2.4,Win32,59.88023952,6658d49af0f0787f8c8132b9,68817205a84113384fffdfe3,689ba4a3dec8374738dc4b05,,,,,,,,,,,,,0,,,,,,,,,,,,,,,,,,,,,,,,,,,,,,,,,,,,,30,alardio,,,,,328.3959,329.627,0,1,0.6967,,0,24,24,29,1,REAL,FAKE,,,,,,,,,,,,,,,,,
,,,,,,,,,6658d49af0f0787f8c8132b9,"Spanish, Mexican",13 or older,"no, only English or Spanish",no,2025-08-12_16h32.12.147,empathy_intonation_perc_control,2024.2.4,Win32,59.88023952,6658d49af0f0787f8c8132b9,68817205a84113384fffdfe3,689ba4a3dec8374738dc4b05,,,,,,,,,,,,,1,,,,,,,,,,,,,,,,,,,,,,,,,,,,,,,,,,,,,24,látigo,,,,,329.6286,330.9924,1,1,0.8302,,0,25,25,23,1,REAL,FAKE,,,,,,,,,,,,,,,,,
,,,,,,,,,6658d49af0f0787f8c8132b9,"Spanish, Mexican",13 or older,"no, only English or Spanish",no,2025-08-12_16h32.12.147,empathy_intonation_perc_control,2024.2.4,Win32,59.88023952,6658d49af0f0787f8c8132b9,68817205a84113384fffdfe3,689ba4a3dec8374738dc4b05,,,,,,,,,,,,,1,,,,,,,,,,,,,,,,,,,,,,,,,,,,,,,,,,,,,6,tergiversar,,,,,330.9933,332.2247,0,0,0.6955,,0,26,26,5,1,REAL,FAKE,,,,,,,,,,,,,,,,,
,,,,,,,,,6658d49af0f0787f8c8132b9,"Spanish, Mexican",13 or older,"no, only English or Spanish",no,2025-08-12_16h32.12.147,empathy_intonation_perc_control,2024.2.4,Win32,59.88023952,6658d49af0f0787f8c8132b9,68817205a84113384fffdfe3,689ba4a3dec8374738dc4b05,,,,,,,,,,,,,1,,,,,,,,,,,,,,,,,,,,,,,,,,,,,,,,,,,,,20,ávido,,,,,332.2258,333.5899,0,0,0.8328,,0,27,27,19,1,REAL,FAKE,,,,,,,,,,,,,,,,,
,,,,,,,,,6658d49af0f0787f8c8132b9,"Spanish, Mexican",13 or older,"no, only English or Spanish",no,2025-08-12_16h32.12.147,empathy_intonation_perc_control,2024.2.4,Win32,59.88023952,6658d49af0f0787f8c8132b9,68817205a84113384fffdfe3,689ba4a3dec8374738dc4b05,,,,,,,,,,,,,0,,,,,,,,,,,,,,,,,,,,,,,,,,,,,,,,,,,,,21,capillo,,,,,333.5907,335.1882,1,0,1.0635,,0,28,28,20,1,REAL,FAKE,,,,,,,,,,,,,,,,,
,,,,,,,,,6658d49af0f0787f8c8132b9,"Spanish, Mexican",13 or older,"no, only English or Spanish",no,2025-08-12_16h32.12.147,empathy_intonation_perc_control,2024.2.4,Win32,59.88023952,6658d49af0f0787f8c8132b9,68817205a84113384fffdfe3,689ba4a3dec8374738dc4b05,,,,,,,,,,,,,1,,,,,,,,,,,,,,,,,,,,,,,,,,,,,,,,,,,,,12,asesinato,,,,,335.1892,336.5203,0,0,0.8004,,0,29,29,11,1,REAL,FAKE,,,,,,,,,,,,,,,,,
,,,,,,,,,6658d49af0f0787f8c8132b9,"Spanish, Mexican",13 or older,"no, only English or Spanish",no,2025-08-12_16h32.12.147,empathy_intonation_perc_control,2024.2.4,Win32,59.88023952,6658d49af0f0787f8c8132b9,68817205a84113384fffdfe3,689ba4a3dec8374738dc4b05,,,,,,,,,,,,,1,,,,,,,,,,,,,,,,,,,,,,,,,,,,,,,,,,,,,67,cabello,,,,,336.5217,337.9023,1,1,0.8488,,0,30,30,66,1,REAL,FAKE,,,,,,,,,,,,,,,,,
,,,,,,,,,6658d49af0f0787f8c8132b9,"Spanish, Mexican",13 or older,"no, only English or Spanish",no,2025-08-12_16h32.12.147,empathy_intonation_perc_control,2024.2.4,Win32,59.88023952,6658d49af0f0787f8c8132b9,68817205a84113384fffdfe3,689ba4a3dec8374738dc4b05,,,,,,,,,,,,,0,,,,,,,,,,,,,,,,,,,,,,,,,,,,,,,,,,,,,92,click the 0 key.,,,,,337.9049,339.7672,0,1,1.3298,,0,31,31,91,1,REAL,FAKE,,,,,,,,,,,,,,,,,
,,,,,,,,,6658d49af0f0787f8c8132b9,"Spanish, Mexican",13 or older,"no, only English or Spanish",no,2025-08-12_16h32.12.147,empathy_intonation_perc_control,2024.2.4,Win32,59.88023952,6658d49af0f0787f8c8132b9,68817205a84113384fffdfe3,689ba4a3dec8374738dc4b05,,,,,,,,,,,,,1,,,,,,,,,,,,,,,,,,,,,,,,,,,,,,,,,,,,,41,rebuscar,,,,,339.7684,341.499,0,0,1.2052,,0,32,32,40,1,REAL,FAKE,,,,,,,,,,,,,,,,,
,,,,,,,,,6658d49af0f0787f8c8132b9,"Spanish, Mexican",13 or older,"no, only English or Spanish",no,2025-08-12_16h32.12.147,empathy_intonation_perc_control,2024.2.4,Win32,59.88023952,6658d49af0f0787f8c8132b9,68817205a84113384fffdfe3,689ba4a3dec8374738dc4b05,,,,,,,,,,,,,1,,,,,,,,,,,,,,,,,,,,,,,,,,,,,,,,,,,,,44,cuchara,,,,,341.5,343.3469,1,1,1.3141,,0,33,33,43,1,REAL,FAKE,,,,,,,,,,,,,,,,,
,,,,,,,,,6658d49af0f0787f8c8132b9,"Spanish, Mexican",13 or older,"no, only English or Spanish",no,2025-08-12_16h32.12.147,empathy_intonation_perc_control,2024.2.4,Win32,59.88023952,6658d49af0f0787f8c8132b9,68817205a84113384fffdfe3,689ba4a3dec8374738dc4b05,,,,,,,,,,,,,1,,,,,,,,,,,,,,,,,,,,,,,,,,,,,,,,,,,,,39,torpe,,,,,343.348,344.4791,0,0,0.5971,,0,34,34,38,1,REAL,FAKE,,,,,,,,,,,,,,,,,
,,,,,,,,,6658d49af0f0787f8c8132b9,"Spanish, Mexican",13 or older,"no, only English or Spanish",no,2025-08-12_16h32.12.147,empathy_intonation_perc_control,2024.2.4,Win32,59.88023952,6658d49af0f0787f8c8132b9,68817205a84113384fffdfe3,689ba4a3dec8374738dc4b05,,,,,,,,,,,,,0,,,,,,,,,,,,,,,,,,,,,,,,,,,,,,,,,,,,,70,temblo,,,,,344.4801,345.5282,0,1,0.5132,,0,35,35,69,1,REAL,FAKE,,,,,,,,,,,,,,,,,
,,,,,,,,,6658d49af0f0787f8c8132b9,"Spanish, Mexican",13 or older,"no, only English or Spanish",no,2025-08-12_16h32.12.147,empathy_intonation_perc_control,2024.2.4,Win32,59.88023952,6658d49af0f0787f8c8132b9,68817205a84113384fffdfe3,689ba4a3dec8374738dc4b05,,,,,,,,,,,,,0,,,,,,,,,,,,,,,,,,,,,,,,,,,,,,,,,,,,,1,terzo,,,,,345.5296,346.7102,0,1,0.6479,,0,36,36,0,1,REAL,FAKE,,,,,,,,,,,,,,,,,
,,,,,,,,,6658d49af0f0787f8c8132b9,"Spanish, Mexican",13 or older,"no, only English or Spanish",no,2025-08-12_16h32.12.147,empathy_intonation_perc_control,2024.2.4,Win32,59.88023952,6658d49af0f0787f8c8132b9,68817205a84113384fffdfe3,689ba4a3dec8374738dc4b05,,,,,,,,,,,,,0,,,,,,,,,,,,,,,,,,,,,,,,,,,,,,,,,,,,,87,grodo,,,,,346.7112,347.7094,0,1,0.4644,,0,37,37,86,1,REAL,FAKE,,,,,,,,,,,,,,,,,
,,,,,,,,,6658d49af0f0787f8c8132b9,"Spanish, Mexican",13 or older,"no, only English or Spanish",no,2025-08-12_16h32.12.147,empathy_intonation_perc_control,2024.2.4,Win32,59.88023952,6658d49af0f0787f8c8132b9,68817205a84113384fffdfe3,689ba4a3dec8374738dc4b05,,,,,,,,,,,,,1,,,,,,,,,,,,,,,,,,,,,,,,,,,,,,,,,,,,,34,aviso,,,,,347.7104,348.7085,0,0,0.4709,,0,38,38,33,1,REAL,FAKE,,,,,,,,,,,,,,,,,
,,,,,,,,,6658d49af0f0787f8c8132b9,"Spanish, Mexican",13 or older,"no, only English or Spanish",no,2025-08-12_16h32.12.147,empathy_intonation_perc_control,2024.2.4,Win32,59.88023952,6658d49af0f0787f8c8132b9,68817205a84113384fffdfe3,689ba4a3dec8374738dc4b05,,,,,,,,,,,,,1,,,,,,,,,,,,,,,,,,,,,,,,,,,,,,,,,,,,,13,helar,,,,,348.7103,349.7577,0,0,0.5182,,0,39,39,12,1,REAL,FAKE,,,,,,,,,,,,,,,,,
,,,,,,,,,6658d49af0f0787f8c8132b9,"Spanish, Mexican",13 or older,"no, only English or Spanish",no,2025-08-12_16h32.12.147,empathy_intonation_perc_control,2024.2.4,Win32,59.88023952,6658d49af0f0787f8c8132b9,68817205a84113384fffdfe3,689ba4a3dec8374738dc4b05,,,,,,,,,,,,,0,,,,,,,,,,,,,,,,,,,,,,,,,,,,,,,,,,,,,23,lampera,,,,,349.7592,351.4057,1,0,1.1139,,0,40,40,22,1,REAL,FAKE,,,,,,,,,,,,,,,,,
,,,,,,,,,6658d49af0f0787f8c8132b9,"Spanish, Mexican",13 or older,"no, only English or Spanish",no,2025-08-12_16h32.12.147,empathy_intonation_perc_control,2024.2.4,Win32,59.88023952,6658d49af0f0787f8c8132b9,68817205a84113384fffdfe3,689ba4a3dec8374738dc4b05,,,,,,,,,,,,,1,,,,,,,,,,,,,,,,,,,,,,,,,,,,,,,,,,,,,46,martillo,,,,,351.4072,352.8543,0,0,0.913,,0,41,41,45,1,REAL,FAKE,,,,,,,,,,,,,,,,,
,,,,,,,,,6658d49af0f0787f8c8132b9,"Spanish, Mexican",13 or older,"no, only English or Spanish",no,2025-08-12_16h32.12.147,empathy_intonation_perc_control,2024.2.4,Win32,59.88023952,6658d49af0f0787f8c8132b9,68817205a84113384fffdfe3,689ba4a3dec8374738dc4b05,,,,,,,,,,,,,0,,,,,,,,,,,,,,,,,,,,,,,,,,,,,,,,,,,,,82,empirador,,,,,352.8555,354.4864,0,1,1.1014,,0,42,42,81,1,REAL,FAKE,,,,,,,,,,,,,,,,,
,,,,,,,,,6658d49af0f0787f8c8132b9,"Spanish, Mexican",13 or older,"no, only English or Spanish",no,2025-08-12_16h32.12.147,empathy_intonation_perc_control,2024.2.4,Win32,59.88023952,6658d49af0f0787f8c8132b9,68817205a84113384fffdfe3,689ba4a3dec8374738dc4b05,,,,,,,,,,,,,0,,,,,,,,,,,,,,,,,,,,,,,,,,,,,,,,,,,,,33,pauca,,,,,354.4889,356.6011,0,1,1.5817,,0,43,43,32,1,REAL,FAKE,,,,,,,,,,,,,,,,,
,,,,,,,,,6658d49af0f0787f8c8132b9,"Spanish, Mexican",13 or older,"no, only English or Spanish",no,2025-08-12_16h32.12.147,empathy_intonation_perc_control,2024.2.4,Win32,59.88023952,6658d49af0f0787f8c8132b9,68817205a84113384fffdfe3,689ba4a3dec8374738dc4b05,,,,,,,,,,,,,1,,,,,,,,,,,,,,,,,,,,,,,,,,,,,,,,,,,,,54,fomentar,,,,,356.6021,357.6828,0,0,0.5509,,0,44,44,53,1,REAL,FAKE,,,,,,,,,,,,,,,,,
,,,,,,,,,6658d49af0f0787f8c8132b9,"Spanish, Mexican",13 or older,"no, only English or Spanish",no,2025-08-12_16h32.12.147,empathy_intonation_perc_control,2024.2.4,Win32,59.88023952,6658d49af0f0787f8c8132b9,68817205a84113384fffdfe3,689ba4a3dec8374738dc4b05,,,,,,,,,,,,,1,,,,,,,,,,,,,,,,,,,,,,,,,,,,,,,,,,,,,31,pandilla,,,,,357.6837,359.0651,1,1,0.8496,,0,45,45,30,1,REAL,FAKE,,,,,,,,,,,,,,,,,
,,,,,,,,,6658d49af0f0787f8c8132b9,"Spanish, Mexican",13 or older,"no, only English or Spanish",no,2025-08-12_16h32.12.147,empathy_intonation_perc_control,2024.2.4,Win32,59.88023952,6658d49af0f0787f8c8132b9,68817205a84113384fffdfe3,689ba4a3dec8374738dc4b05,,,,,,,,,,,,,1,,,,,,,,,,,,,,,,,,,,,,,,,,,,,,,,,,,,,62,flaco,,,,,359.0667,360.3698,1,1,0.7764,,0,46,46,61,1,REAL,FAKE,,,,,,,,,,,,,,,,,
,,,,,,,,,6658d49af0f0787f8c8132b9,"Spanish, Mexican",13 or older,"no, only English or Spanish",no,2025-08-12_16h32.12.147,empathy_intonation_perc_control,2024.2.4,Win32,59.88023952,6658d49af0f0787f8c8132b9,68817205a84113384fffdfe3,689ba4a3dec8374738dc4b05,,,,,,,,,,,,,0,,,,,,,,,,,,,,,,,,,,,,,,,,,,,,,,,,,,,32,fatacidad,,,,,360.3712,362.1226,0,1,0.8191,0.098,0,47,47,31,1,REAL,FAKE,,,,,,,,,,,,,,,,,
,,,,,,,,,6658d49af0f0787f8c8132b9,"Spanish, Mexican",13 or older,"no, only English or Spanish",no,2025-08-12_16h32.12.147,empathy_intonation_perc_control,2024.2.4,Win32,59.88023952,6658d49af0f0787f8c8132b9,68817205a84113384fffdfe3,689ba4a3dec8374738dc4b05,,,,,,,,,,,,,0,,,,,,,,,,,,,,,,,,,,,,,,,,,,,,,,,,,,,63,esposante,,,,,362.1243,364.3768,0,1,1.4391,,0,48,48,62,1,REAL,FAKE,,,,,,,,,,,,,,,,,
,,,,,,,,,6658d49af0f0787f8c8132b9,"Spanish, Mexican",13 or older,"no, only English or Spanish",no,2025-08-12_16h32.12.147,empathy_intonation_perc_control,2024.2.4,Win32,59.88023952,6658d49af0f0787f8c8132b9,68817205a84113384fffdfe3,689ba4a3dec8374738dc4b05,,,,,,,,,,,,,1,,,,,,,,,,,,,,,,,,,,,,,,,,,,,,,,,,,,,75,yacer,,,,,364.3787,365.8805,0,0,0.9811,,0,49,49,74,1,REAL,FAKE,,,,,,,,,,,,,,,,,
,,,,,,,,,6658d49af0f0787f8c8132b9,"Spanish, Mexican",13 or older,"no, only English or Spanish",no,2025-08-12_16h32.12.147,empathy_intonation_perc_control,2024.2.4,Win32,59.88023952,6658d49af0f0787f8c8132b9,68817205a84113384fffdfe3,689ba4a3dec8374738dc4b05,,,,,,,,,,,,,1,,,,,,,,,,,,,,,,,,,,,,,,,,,,,,,,,,,,,59,besar,,,,,365.8824,367.3796,1,1,0.966,,0,50,50,58,1,REAL,FAKE,,,,,,,,,,,,,,,,,
,,,,,,,,,6658d49af0f0787f8c8132b9,"Spanish, Mexican",13 or older,"no, only English or Spanish",no,2025-08-12_16h32.12.147,empathy_intonation_perc_control,2024.2.4,Win32,59.88023952,6658d49af0f0787f8c8132b9,68817205a84113384fffdfe3,689ba4a3dec8374738dc4b05,,,,,,,,,,,,,1,,,,,,,,,,,,,,,,,,,,,,,,,,,,,,,,,,,,,43,canela,,,,,367.3805,368.8778,1,1,0.9662,,0,51,51,42,1,REAL,FAKE,,,,,,,,,,,,,,,,,
,,,,,,,,,6658d49af0f0787f8c8132b9,"Spanish, Mexican",13 or older,"no, only English or Spanish",no,2025-08-12_16h32.12.147,empathy_intonation_perc_control,2024.2.4,Win32,59.88023952,6658d49af0f0787f8c8132b9,68817205a84113384fffdfe3,689ba4a3dec8374738dc4b05,,,,,,,,,,,,,0,,,,,,,,,,,,,,,,,,,,,,,,,,,,,,,,,,,,,35,rompido,,,,,368.8787,370.1441,0,1,0.733,,0,52,52,34,1,REAL,FAKE,,,,,,,,,,,,,,,,,
,,,,,,,,,6658d49af0f0787f8c8132b9,"Spanish, Mexican",13 or older,"no, only English or Spanish",no,2025-08-12_16h32.12.147,empathy_intonation_perc_control,2024.2.4,Win32,59.88023952,6658d49af0f0787f8c8132b9,68817205a84113384fffdfe3,689ba4a3dec8374738dc4b05,,,,,,,,,,,,,1,,,,,,,,,,,,,,,,,,,,,,,,,,,,,,,,,,,,,48,ladrón,,,,,370.145,371.3868,0,0,0.7067,,0,53,53,47,1,REAL,FAKE,,,,,,,,,,,,,,,,,
,,,,,,,,,6658d49af0f0787f8c8132b9,"Spanish, Mexican",13 or older,"no, only English or Spanish",no,2025-08-12_16h32.12.147,empathy_intonation_perc_control,2024.2.4,Win32,59.88023952,6658d49af0f0787f8c8132b9,68817205a84113384fffdfe3,689ba4a3dec8374738dc4b05,,,,,,,,,,,,,1,,,,,,,,,,,,,,,,,,,,,,,,,,,,,,,,,,,,,55,nevar,,,,,371.3889,372.4701,0,0,0.5441,,0,54,54,54,1,REAL,FAKE,,,,,,,,,,,,,,,,,
,,,,,,,,,6658d49af0f0787f8c8132b9,"Spanish, Mexican",13 or older,"no, only English or Spanish",no,2025-08-12_16h32.12.147,empathy_intonation_perc_control,2024.2.4,Win32,59.88023952,6658d49af0f0787f8c8132b9,68817205a84113384fffdfe3,689ba4a3dec8374738dc4b05,,,,,,,,,,,,,0,,,,,,,,,,,,,,,,,,,,,,,,,,,,,,,,,,,,,84,escuto,,,,,372.4711,373.6678,0,1,0.6551,,0,55,55,83,1,REAL,FAKE,,,,,,,,,,,,,,,,,
,,,,,,,,,6658d49af0f0787f8c8132b9,"Spanish, Mexican",13 or older,"no, only English or Spanish",no,2025-08-12_16h32.12.147,empathy_intonation_perc_control,2024.2.4,Win32,59.88023952,6658d49af0f0787f8c8132b9,68817205a84113384fffdfe3,689ba4a3dec8374738dc4b05,,,,,,,,,,,,,1,,,,,,,,,,,,,,,,,,,,,,,,,,,,,,,,,,,,,91,click the 1 key.,,,,,373.6708,375.0229,1,1,0.8159,,0,56,56,90,1,REAL,FAKE,,,,,,,,,,,,,,,,,
,,,,,,,,,6658d49af0f0787f8c8132b9,"Spanish, Mexican",13 or older,"no, only English or Spanish",no,2025-08-12_16h32.12.147,empathy_intonation_perc_control,2024.2.4,Win32,59.88023952,6658d49af0f0787f8c8132b9,68817205a84113384fffdfe3,689ba4a3dec8374738dc4b05,,,,,,,,,,,,,1,,,,,,,,,,,,,,,,,,,,,,,,,,,,,,,,,,,,,89,prisa,,,,,375.024,376.42,0,0,0.8647,,0,57,57,88,1,REAL,FAKE,,,,,,,,,,,,,,,,,
,,,,,,,,,6658d49af0f0787f8c8132b9,"Spanish, Mexican",13 or older,"no, only English or Spanish",no,2025-08-12_16h32.12.147,empathy_intonation_perc_control,2024.2.4,Win32,59.88023952,6658d49af0f0787f8c8132b9,68817205a84113384fffdfe3,689ba4a3dec8374738dc4b05,,,,,,,,,,,,,1,,,,,,,,,,,,,,,,,,,,,,,,,,,,,,,,,,,,,7,pésimo,,,,,376.4212,377.7207,1,1,0.7668,,0,58,58,6,1,REAL,FAKE,,,,,,,,,,,,,,,,,
,,,,,,,,,6658d49af0f0787f8c8132b9,"Spanish, Mexican",13 or older,"no, only English or Spanish",no,2025-08-12_16h32.12.147,empathy_intonation_perc_control,2024.2.4,Win32,59.88023952,6658d49af0f0787f8c8132b9,68817205a84113384fffdfe3,689ba4a3dec8374738dc4b05,,,,,,,,,,,,,0,,,,,,,,,,,,,,,,,,,,,,,,,,,,,,,,,,,,,66,hacido,,,,,377.7224,379.1685,1,0,0.9155,,0,59,59,65,1,REAL,FAKE,,,,,,,,,,,,,,,,,
,,,,,,,,,6658d49af0f0787f8c8132b9,"Spanish, Mexican",13 or older,"no, only English or Spanish",no,2025-08-12_16h32.12.147,empathy_intonation_perc_control,2024.2.4,Win32,59.88023952,6658d49af0f0787f8c8132b9,68817205a84113384fffdfe3,689ba4a3dec8374738dc4b05,,,,,,,,,,,,,0,,,,,,,,,,,,,,,,,,,,,,,,,,,,,,,,,,,,,29,decar,,,,,379.1695,380.7005,0,1,0.9993,,0,60,60,28,1,REAL,FAKE,,,,,,,,,,,,,,,,,
,,,,,,,,,6658d49af0f0787f8c8132b9,"Spanish, Mexican",13 or older,"no, only English or Spanish",no,2025-08-12_16h32.12.147,empathy_intonation_perc_control,2024.2.4,Win32,59.88023952,6658d49af0f0787f8c8132b9,68817205a84113384fffdfe3,689ba4a3dec8374738dc4b05,,,,,,,,,,,,,0,,,,,,,,,,,,,,,,,,,,,,,,,,,,,,,,,,,,,27,acutación,,,,,380.7017,381.8159,0,1,0.5827,,0,61,61,26,1,REAL,FAKE,,,,,,,,,,,,,,,,,
,,,,,,,,,6658d49af0f0787f8c8132b9,"Spanish, Mexican",13 or older,"no, only English or Spanish",no,2025-08-12_16h32.12.147,empathy_intonation_perc_control,2024.2.4,Win32,59.88023952,6658d49af0f0787f8c8132b9,68817205a84113384fffdfe3,689ba4a3dec8374738dc4b05,,,,,,,,,,,,,0,,,,,,,,,,,,,,,,,,,,,,,,,,,,,,,,,,,,,8,cadeña,,,,,381.8189,383.5815,0,1,1.232,,0,62,62,7,1,REAL,FAKE,,,,,,,,,,,,,,,,,
,,,,,,,,,6658d49af0f0787f8c8132b9,"Spanish, Mexican",13 or older,"no, only English or Spanish",no,2025-08-12_16h32.12.147,empathy_intonation_perc_control,2024.2.4,Win32,59.88023952,6658d49af0f0787f8c8132b9,68817205a84113384fffdfe3,689ba4a3dec8374738dc4b05,,,,,,,,,,,,,0,,,,,,,,,,,,,,,,,,,,,,,,,,,,,,,,,,,,,4,batillón,,,,,383.5829,385.7624,1,0,1.6485,,0,63,63,3,1,REAL,FAKE,,,,,,,,,,,,,,,,,
,,,,,,,,,6658d49af0f0787f8c8132b9,"Spanish, Mexican",13 or older,"no, only English or Spanish",no,2025-08-12_16h32.12.147,empathy_intonation_perc_control,2024.2.4,Win32,59.88023952,6658d49af0f0787f8c8132b9,68817205a84113384fffdfe3,689ba4a3dec8374738dc4b05,,,,,,,,,,,,,1,,,,,,,,,,,,,,,,,,,,,,,,,,,,,,,,,,,,,37,granuja,,,,,385.7638,387.1609,0,0,0.8661,,0,64,64,36,1,REAL,FAKE,,,,,,,,,,,,,,,,,
,,,,,,,,,6658d49af0f0787f8c8132b9,"Spanish, Mexican",13 or older,"no, only English or Spanish",no,2025-08-12_16h32.12.147,empathy_intonation_perc_control,2024.2.4,Win32,59.88023952,6658d49af0f0787f8c8132b9,68817205a84113384fffdfe3,689ba4a3dec8374738dc4b05,,,,,,,,,,,,,1,,,,,,,,,,,,,,,,,,,,,,,,,,,,,,,,,,,,,28,merodear,,,,,387.1621,388.3199,0,0,0.6256,,0,65,65,27,1,REAL,FAKE,,,,,,,,,,,,,,,,,
,,,,,,,,,6658d49af0f0787f8c8132b9,"Spanish, Mexican",13 or older,"no, only English or Spanish",no,2025-08-12_16h32.12.147,empathy_intonation_perc_control,2024.2.4,Win32,59.88023952,6658d49af0f0787f8c8132b9,68817205a84113384fffdfe3,689ba4a3dec8374738dc4b05,,,,,,,,,,,,,0,,,,,,,,,,,,,,,,,,,,,,,,,,,,,,,,,,,,,19,brecedad,,,,,388.3217,389.3907,0,1,0.5486,,0,66,66,18,1,REAL,FAKE,,,,,,,,,,,,,,,,,
,,,,,,,,,6658d49af0f0787f8c8132b9,"Spanish, Mexican",13 or older,"no, only English or Spanish",no,2025-08-12_16h32.12.147,empathy_intonation_perc_control,2024.2.4,Win32,59.88023952,6658d49af0f0787f8c8132b9,68817205a84113384fffdfe3,689ba4a3dec8374738dc4b05,,,,,,,,,,,,,0,,,,,,,,,,,,,,,,,,,,,,,,,,,,,,,,,,,,,18,arsa,,,,,389.3918,390.3683,0,1,0.4403,,0,67,67,17,1,REAL,FAKE,,,,,,,,,,,,,,,,,
,,,,,,,,,6658d49af0f0787f8c8132b9,"Spanish, Mexican",13 or older,"no, only English or Spanish",no,2025-08-12_16h32.12.147,empathy_intonation_perc_control,2024.2.4,Win32,59.88023952,6658d49af0f0787f8c8132b9,68817205a84113384fffdfe3,689ba4a3dec8374738dc4b05,,,,,,,,,,,,,0,,,,,,,,,,,,,,,,,,,,,,,,,,,,,,,,,,,,,50,flamida,,,,,390.3702,391.7669,0,1,0.8745,,0,68,68,49,1,REAL,FAKE,,,,,,,,,,,,,,,,,
,,,,,,,,,6658d49af0f0787f8c8132b9,"Spanish, Mexican",13 or older,"no, only English or Spanish",no,2025-08-12_16h32.12.147,empathy_intonation_perc_control,2024.2.4,Win32,59.88023952,6658d49af0f0787f8c8132b9,68817205a84113384fffdfe3,689ba4a3dec8374738dc4b05,,,,,,,,,,,,,1,,,,,,,,,,,,,,,,,,,,,,,,,,,,,,,,,,,,,65,bizcocho,,,,,391.7685,392.7889,0,0,0.4832,,0,69,69,64,1,REAL,FAKE,,,,,,,,,,,,,,,,,
,,,,,,,,,6658d49af0f0787f8c8132b9,"Spanish, Mexican",13 or older,"no, only English or Spanish",no,2025-08-12_16h32.12.147,empathy_intonation_perc_control,2024.2.4,Win32,59.88023952,6658d49af0f0787f8c8132b9,68817205a84113384fffdfe3,689ba4a3dec8374738dc4b05,,,,,,,,,,,,,0,,,,,,,,,,,,,,,,,,,,,,,,,,,,,,,,,,,,,16,abracer,,,,,392.7901,393.8885,0,1,0.5672,,0,70,70,15,1,REAL,FAKE,,,,,,,,,,,,,,,,,
,,,,,,,,,6658d49af0f0787f8c8132b9,"Spanish, Mexican",13 or older,"no, only English or Spanish",no,2025-08-12_16h32.12.147,empathy_intonation_perc_control,2024.2.4,Win32,59.88023952,6658d49af0f0787f8c8132b9,68817205a84113384fffdfe3,689ba4a3dec8374738dc4b05,,,,,,,,,,,,,1,,,,,,,,,,,,,,,,,,,,,,,,,,,,,,,,,,,,,11,cenefa,,,,,393.8897,394.9856,0,0,0.5658,,0,71,71,10,1,REAL,FAKE,,,,,,,,,,,,,,,,,
,,,,,,,,,6658d49af0f0787f8c8132b9,"Spanish, Mexican",13 or older,"no, only English or Spanish",no,2025-08-12_16h32.12.147,empathy_intonation_perc_control,2024.2.4,Win32,59.88023952,6658d49af0f0787f8c8132b9,68817205a84113384fffdfe3,689ba4a3dec8374738dc4b05,,,,,,,,,,,,,0,,,,,,,,,,,,,,,,,,,,,,,,,,,,,,,,,,,,,47,cartinar,,,,,394.9869,395.9793,0,1,0.458,,0,72,72,46,1,REAL,FAKE,,,,,,,,,,,,,,,,,
,,,,,,,,,6658d49af0f0787f8c8132b9,"Spanish, Mexican",13 or older,"no, only English or Spanish",no,2025-08-12_16h32.12.147,empathy_intonation_perc_control,2024.2.4,Win32,59.88023952,6658d49af0f0787f8c8132b9,68817205a84113384fffdfe3,689ba4a3dec8374738dc4b05,,,,,,,,,,,,,1,,,,,,,,,,,,,,,,,,,,,,,,,,,,,,,,,,,,,68,alegre,,,,,395.9811,397.0115,0,0,0.4854,,0,73,73,67,1,REAL,FAKE,,,,,,,,,,,,,,,,,
,,,,,,,,,6658d49af0f0787f8c8132b9,"Spanish, Mexican",13 or older,"no, only English or Spanish",no,2025-08-12_16h32.12.147,empathy_intonation_perc_control,2024.2.4,Win32,59.88023952,6658d49af0f0787f8c8132b9,68817205a84113384fffdfe3,689ba4a3dec8374738dc4b05,,,,,,,,,,,,,0,,,,,,,,,,,,,,,,,,,,,,,,,,,,,,,,,,,,,72,pemición,,,,,397.0135,398.0274,0,1,0.4874,,0,74,74,71,1,REAL,FAKE,,,,,,,,,,,,,,,,,
,,,,,,,,,6658d49af0f0787f8c8132b9,"Spanish, Mexican",13 or older,"no, only English or Spanish",no,2025-08-12_16h32.12.147,empathy_intonation_perc_control,2024.2.4,Win32,59.88023952,6658d49af0f0787f8c8132b9,68817205a84113384fffdfe3,689ba4a3dec8374738dc4b05,,,,,,,,,,,,,1,,,,,,,,,,,,,,,,,,,,,,,,,,,,,,,,,,,,,56,musgo,,,,,398.0292,399.3162,0,0,0.7488,,0,75,75,55,1,REAL,FAKE,,,,,,,,,,,,,,,,,
,,,,,,,,,6658d49af0f0787f8c8132b9,"Spanish, Mexican",13 or older,"no, only English or Spanish",no,2025-08-12_16h32.12.147,empathy_intonation_perc_control,2024.2.4,Win32,59.88023952,6658d49af0f0787f8c8132b9,68817205a84113384fffdfe3,689ba4a3dec8374738dc4b05,,,,,,,,,,,,,1,,,,,,,,,,,,,,,,,,,,,,,,,,,,,,,,,,,,,3,pulmones,,,,,399.3175,400.2752,0,0,0.423,,0,76,76,2,1,REAL,FAKE,,,,,,,,,,,,,,,,,
,,,,,,,,,6658d49af0f0787f8c8132b9,"Spanish, Mexican",13 or older,"no, only English or Spanish",no,2025-08-12_16h32.12.147,empathy_intonation_perc_control,2024.2.4,Win32,59.88023952,6658d49af0f0787f8c8132b9,68817205a84113384fffdfe3,689ba4a3dec8374738dc4b05,,,,,,,,,,,,,1,,,,,,,,,,,,,,,,,,,,,,,,,,,,,,,,,,,,,22,lacayo,,,,,400.277,401.2422,0,0,0.4448,,0,77,77,21,1,REAL,FAKE,,,,,,,,,,,,,,,,,
,,,,,,,,,6658d49af0f0787f8c8132b9,"Spanish, Mexican",13 or older,"no, only English or Spanish",no,2025-08-12_16h32.12.147,empathy_intonation_perc_control,2024.2.4,Win32,59.88023952,6658d49af0f0787f8c8132b9,68817205a84113384fffdfe3,689ba4a3dec8374738dc4b05,,,,,,,,,,,,,1,,,,,,,,,,,,,,,,,,,,,,,,,,,,,,,,,,,,,69,engatusar,,,,,401.2434,402.4654,0,0,0.7002,,0,78,78,68,1,REAL,FAKE,,,,,,,,,,,,,,,,,
,,,,,,,,,6658d49af0f0787f8c8132b9,"Spanish, Mexican",13 or older,"no, only English or Spanish",no,2025-08-12_16h32.12.147,empathy_intonation_perc_control,2024.2.4,Win32,59.88023952,6658d49af0f0787f8c8132b9,68817205a84113384fffdfe3,689ba4a3dec8374738dc4b05,,,,,,,,,,,,,1,,,,,,,,,,,,,,,,,,,,,,,,,,,,,,,,,,,,,38,estornudar,,,,,402.4667,403.5116,0,0,0.5162,,0,79,79,37,1,REAL,FAKE,,,,,,,,,,,,,,,,,
,,,,,,,,,6658d49af0f0787f8c8132b9,"Spanish, Mexican",13 or older,"no, only English or Spanish",no,2025-08-12_16h32.12.147,empathy_intonation_perc_control,2024.2.4,Win32,59.88023952,6658d49af0f0787f8c8132b9,68817205a84113384fffdfe3,689ba4a3dec8374738dc4b05,,,,,,,,,,,,,1,,,,,,,,,,,,,,,,,,,,,,,,,,,,,,,,,,,,,14,yunque,,,,,403.5131,404.5405,0,0,0.4966,,0,80,80,13,1,REAL,FAKE,,,,,,,,,,,,,,,,,
,,,,,,,,,6658d49af0f0787f8c8132b9,"Spanish, Mexican",13 or older,"no, only English or Spanish",no,2025-08-12_16h32.12.147,empathy_intonation_perc_control,2024.2.4,Win32,59.88023952,6658d49af0f0787f8c8132b9,68817205a84113384fffdfe3,689ba4a3dec8374738dc4b05,,,,,,,,,,,,,1,,,,,,,,,,,,,,,,,,,,,,,,,,,,,,,,,,,,,60,matar,,,,,404.5416,405.9032,1,1,0.8219,,0,81,81,59,1,REAL,FAKE,,,,,,,,,,,,,,,,,
,,,,,,,,,6658d49af0f0787f8c8132b9,"Spanish, Mexican",13 or older,"no, only English or Spanish",no,2025-08-12_16h32.12.147,empathy_intonation_perc_control,2024.2.4,Win32,59.88023952,6658d49af0f0787f8c8132b9,68817205a84113384fffdfe3,689ba4a3dec8374738dc4b05,,,,,,,,,,,,,0,,,,,,,,,,,,,,,,,,,,,,,,,,,,,,,,,,,,,79,tropaje,,,,,405.9049,407.3849,0,1,0.9545,,0,82,82,78,1,REAL,FAKE,,,,,,,,,,,,,,,,,
,,,,,,,,,6658d49af0f0787f8c8132b9,"Spanish, Mexican",13 or older,"no, only English or Spanish",no,2025-08-12_16h32.12.147,empathy_intonation_perc_control,2024.2.4,Win32,59.88023952,6658d49af0f0787f8c8132b9,68817205a84113384fffdfe3,689ba4a3dec8374738dc4b05,,,,,,,,,,,,,1,,,,,,,,,,,,,,,,,,,,,,,,,,,,,,,,,,,,,80,hormiga,,,,,407.3867,408.4171,0,0,0.4919,,0,83,83,79,1,REAL,FAKE,,,,,,,,,,,,,,,,,
,,,,,,,,,6658d49af0f0787f8c8132b9,"Spanish, Mexican",13 or older,"no, only English or Spanish",no,2025-08-12_16h32.12.147,empathy_intonation_perc_control,2024.2.4,Win32,59.88023952,6658d49af0f0787f8c8132b9,68817205a84113384fffdfe3,689ba4a3dec8374738dc4b05,,,,,,,,,,,,,1,,,,,,,,,,,,,,,,,,,,,,,,,,,,,,,,,,,,,83,guante,,,,,408.4192,409.4884,0,0,0.5326,,0,84,84,82,1,REAL,FAKE,,,,,,,,,,,,,,,,,
,,,,,,,,,6658d49af0f0787f8c8132b9,"Spanish, Mexican",13 or older,"no, only English or Spanish",no,2025-08-12_16h32.12.147,empathy_intonation_perc_control,2024.2.4,Win32,59.88023952,6658d49af0f0787f8c8132b9,68817205a84113384fffdfe3,689ba4a3dec8374738dc4b05,,,,,,,,,,,,,1,,,,,,,,,,,,,,,,,,,,,,,,,,,,,,,,,,,,,57,tacaño,,,,,409.4897,410.9147,0,0,0.889,,0,85,85,56,1,REAL,FAKE,,,,,,,,,,,,,,,,,
,,,,,,,,,6658d49af0f0787f8c8132b9,"Spanish, Mexican",13 or older,"no, only English or Spanish",no,2025-08-12_16h32.12.147,empathy_intonation_perc_control,2024.2.4,Win32,59.88023952,6658d49af0f0787f8c8132b9,68817205a84113384fffdfe3,689ba4a3dec8374738dc4b05,,,,,,,,,,,,,1,,,,,,,,,,,,,,,,,,,,,,,,,,,,,,,,,,,,,49,ganar,,,,,410.917,411.8525,0,0,0.4152,,0,86,86,48,1,REAL,FAKE,,,,,,,,,,,,,,,,,
,,,,,,,,,6658d49af0f0787f8c8132b9,"Spanish, Mexican",13 or older,"no, only English or Spanish",no,2025-08-12_16h32.12.147,empathy_intonation_perc_control,2024.2.4,Win32,59.88023952,6658d49af0f0787f8c8132b9,68817205a84113384fffdfe3,689ba4a3dec8374738dc4b05,,,,,,,,,,,,,1,,,,,,,,,,,,,,,,,,,,,,,,,,,,,,,,,,,,,25,bisagra,,,,,411.8537,412.8962,0,0,0.5024,,0,87,87,24,1,REAL,FAKE,,,,,,,,,,,,,,,,,
,,,,,,,,,6658d49af0f0787f8c8132b9,"Spanish, Mexican",13 or older,"no, only English or Spanish",no,2025-08-12_16h32.12.147,empathy_intonation_perc_control,2024.2.4,Win32,59.88023952,6658d49af0f0787f8c8132b9,68817205a84113384fffdfe3,689ba4a3dec8374738dc4b05,,,,,,,,,,,,,1,,,,,,,,,,,,,,,,,,,,,,,,,,,,,,,,,,,,,73,hervidor,,,,,412.8981,413.9002,0,0,0.4652,,0,88,88,72,1,REAL,FAKE,,,,,,,,,,,,,,,,,
,,,,,,,,,6658d49af0f0787f8c8132b9,"Spanish, Mexican",13 or older,"no, only English or Spanish",no,2025-08-12_16h32.12.147,empathy_intonation_perc_control,2024.2.4,Win32,59.88023952,6658d49af0f0787f8c8132b9,68817205a84113384fffdfe3,689ba4a3dec8374738dc4b05,,,,,,,,,,,,,0,,,,,,,,,,,,,,,,,,,,,,,,,,,,,,,,,,,,,53,vegada,,,,,413.9014,414.9166,0,1,0.4981,,0,89,89,52,1,REAL,FAKE,,,,,,,,,,,,,,,,,
,,,,,,,,,6658d49af0f0787f8c8132b9,"Spanish, Mexican",13 or older,"no, only English or Spanish",no,2025-08-12_16h32.12.147,empathy_intonation_perc_control,2024.2.4,Win32,59.88023952,6658d49af0f0787f8c8132b9,68817205a84113384fffdfe3,689ba4a3dec8374738dc4b05,,,,,,,,,,,,,1,,,,,,,,,,,,,,,,,,,,,,,,,,,,,,,,,,,,,81,pozo,,,,,414.9177,416.0332,0,0,0.5838,,0,90,90,80,1,REAL,FAKE,,,,,,,,,,,,,,,,,
,,,,,,,,,6658d49af0f0787f8c8132b9,"Spanish, Mexican",13 or older,"no, only English or Spanish",no,2025-08-12_16h32.12.147,empathy_intonation_perc_control,2024.2.4,Win32,59.88023952,6658d49af0f0787f8c8132b9,68817205a84113384fffdfe3,689ba4a3dec8374738dc4b05,,,,,,,,,,,,,1,,,,,,,,,,,,,,,,,,,,,,,,,,,,,,,,,,,,,64,orgulloso,,,,,416.0343,416.992,0,0,0.423,,0,91,91,63,1,REAL,FAKE,,,,,,,,,,,,,,,,,
,,,,,,,,,6658d49af0f0787f8c8132b9,"Spanish, Mexican",13 or older,"no, only English or Spanish",no,2025-08-12_16h32.12.147,empathy_intonation_perc_control,2024.2.4,Win32,59.88023952,6658d49af0f0787f8c8132b9,68817205a84113384fffdfe3,689ba4a3dec8374738dc4b05,,,,,,,,,,,,,,,,,,,,,,,,,,,,,,,,,,,,,,,,,,,,,,,,,,,,,,,,,,,,,,,,,,,,,416.9929,421.4718,,,,,,,,,,,,,,,
,,,,,,,,,6658d49af0f0787f8c8132b9,"Spanish, Mexican",13 or older,"no, only English or Spanish",no,2025-08-12_16h32.12.147,empathy_intonation_perc_control,2024.2.4,Win32,59.88023952,6658d49af0f0787f8c8132b9,68817205a84113384fffdfe3,689ba4a3dec8374738dc4b05,,,,,,,,,,,,,,,,,,,,,,,,,,,1,,,,,,,,,,,,,,,,,,,,,,,,,,,,,,,,,,,,,,,,,,,,421.4877,426.1248,slightly agree,0,0,0,0,1,I can easily tell if someone else wants to enter a conversation.,1,0,1,0,,
,,,,,,,,,6658d49af0f0787f8c8132b9,"Spanish, Mexican",13 or older,"no, only English or Spanish",no,2025-08-12_16h32.12.147,empathy_intonation_perc_control,2024.2.4,Win32,59.88023952,6658d49af0f0787f8c8132b9,68817205a84113384fffdfe3,689ba4a3dec8374738dc4b05,,,,,,,,,,,,,,,,,,,,,,,,,,,2,,,,,,,,,,,,,,,,,,,,,,,,,,,,,,,,,,,,,,,,,,,,426.1278,429.0133,strongly agree,0,1,1,1,1,I prefer animals to humans.,0,1,0,0,,
,,,,,,,,,6658d49af0f0787f8c8132b9,"Spanish, Mexican",13 or older,"no, only English or Spanish",no,2025-08-12_16h32.12.147,empathy_intonation_perc_control,2024.2.4,Win32,59.88023952,6658d49af0f0787f8c8132b9,68817205a84113384fffdfe3,689ba4a3dec8374738dc4b05,,,,,,,,,,,,,,,,,,,,,,,,,,,3,,,,,,,,,,,,,,,,,,,,,,,,,,,,,,,,,,,,,,,,,,,,429.0175,431.5788,slightly agree,0,2,2,2,1,I try to keep up with the current trends and fashions.,0,1,0,0,,
,,,,,,,,,6658d49af0f0787f8c8132b9,"Spanish, Mexican",13 or older,"no, only English or Spanish",no,2025-08-12_16h32.12.147,empathy_intonation_perc_control,2024.2.4,Win32,59.88023952,6658d49af0f0787f8c8132b9,68817205a84113384fffdfe3,689ba4a3dec8374738dc4b05,,,,,,,,,,,,,,,,,,,,,,,,,,,4,,,,,,,,,,,,,,,,,,,,,,,,,,,,,,,,,,,,,,,,,,,,431.5828,436.4072,strongly agree,0,3,3,3,1,"I find it difficult to explain to others things that I understand easily,   when they don't understand it first time.",1,0,0,1,,
,,,,,,,,,6658d49af0f0787f8c8132b9,"Spanish, Mexican",13 or older,"no, only English or Spanish",no,2025-08-12_16h32.12.147,empathy_intonation_perc_control,2024.2.4,Win32,59.88023952,6658d49af0f0787f8c8132b9,68817205a84113384fffdfe3,689ba4a3dec8374738dc4b05,,,,,,,,,,,,,,,,,,,,,,,,,,,5,,,,,,,,,,,,,,,,,,,,,,,,,,,,,,,,,,,,,,,,,,,,436.4091,439.4367,slightly disagree,0,4,4,4,1,I dream most nights.,0,1,0,0,,
,,,,,,,,,6658d49af0f0787f8c8132b9,"Spanish, Mexican",13 or older,"no, only English or Spanish",no,2025-08-12_16h32.12.147,empathy_intonation_perc_control,2024.2.4,Win32,59.88023952,6658d49af0f0787f8c8132b9,68817205a84113384fffdfe3,689ba4a3dec8374738dc4b05,,,,,,,,,,,,,,,,,,,,,,,,,,,6,,,,,,,,,,,,,,,,,,,,,,,,,,,,,,,,,,,,,,,,,,,,439.4395,441.4747,strongly agree,0,5,5,5,1,I really enjoy caring for other people.,1,0,1,0,,
,,,,,,,,,6658d49af0f0787f8c8132b9,"Spanish, Mexican",13 or older,"no, only English or Spanish",no,2025-08-12_16h32.12.147,empathy_intonation_perc_control,2024.2.4,Win32,59.88023952,6658d49af0f0787f8c8132b9,68817205a84113384fffdfe3,689ba4a3dec8374738dc4b05,,,,,,,,,,,,,,,,,,,,,,,,,,,7,,,,,,,,,,,,,,,,,,,,,,,,,,,,,,,,,,,,,,,,,,,,441.4769,445.7141,strongly agree,0,6,6,6,1,I try to solve my own problems rather than discussing them with others.,0,1,0,0,,
,,,,,,,,,6658d49af0f0787f8c8132b9,"Spanish, Mexican",13 or older,"no, only English or Spanish",no,2025-08-12_16h32.12.147,empathy_intonation_perc_control,2024.2.4,Win32,59.88023952,6658d49af0f0787f8c8132b9,68817205a84113384fffdfe3,689ba4a3dec8374738dc4b05,,,,,,,,,,,,,,,,,,,,,,,,,,,8,,,,,,,,,,,,,,,,,,,,,,,,,,,,,,,,,,,,,,,,,,,,445.7168,448.0324,slightly disagree,0,7,7,7,1,I find it hard to know what to do in a social situation.,1,0,0,1,,
,,,,,,,,,6658d49af0f0787f8c8132b9,"Spanish, Mexican",13 or older,"no, only English or Spanish",no,2025-08-12_16h32.12.147,empathy_intonation_perc_control,2024.2.4,Win32,59.88023952,6658d49af0f0787f8c8132b9,68817205a84113384fffdfe3,689ba4a3dec8374738dc4b05,,,,,,,,,,,,,,,,,,,,,,,,,,,9,,,,,,,,,,,,,,,,,,,,,,,,,,,,,,,,,,,,,,,,,,,,448.0343,450.1093,strongly disagree,0,8,8,8,1,I am at my best first thing in the morning.,0,1,0,0,,
,,,,,,,,,6658d49af0f0787f8c8132b9,"Spanish, Mexican",13 or older,"no, only English or Spanish",no,2025-08-12_16h32.12.147,empathy_intonation_perc_control,2024.2.4,Win32,59.88023952,6658d49af0f0787f8c8132b9,68817205a84113384fffdfe3,689ba4a3dec8374738dc4b05,,,,,,,,,,,,,,,,,,,,,,,,,,,10,,,,,,,,,,,,,,,,,,,,,,,,,,,,,,,,,,,,,,,,,,,,450.1128,452.8904,slightly agree,0,9,9,9,1,People often tell me that I went too far in driving my point home in a discussion.,1,0,0,1,,
,,,,,,,,,6658d49af0f0787f8c8132b9,"Spanish, Mexican",13 or older,"no, only English or Spanish",no,2025-08-12_16h32.12.147,empathy_intonation_perc_control,2024.2.4,Win32,59.88023952,6658d49af0f0787f8c8132b9,68817205a84113384fffdfe3,689ba4a3dec8374738dc4b05,,,,,,,,,,,,,,,,,,,,,,,,,,,11,,,,,,,,,,,,,,,,,,,,,,,,,,,,,,,,,,,,,,,,,,,,452.8931,457.0598,slightly disagree,0,10,10,10,1,It doesn't bother me too much if I am late meeting a friend.,1,0,0,1,,
,,,,,,,,,6658d49af0f0787f8c8132b9,"Spanish, Mexican",13 or older,"no, only English or Spanish",no,2025-08-12_16h32.12.147,empathy_intonation_perc_control,2024.2.4,Win32,59.88023952,6658d49af0f0787f8c8132b9,68817205a84113384fffdfe3,689ba4a3dec8374738dc4b05,,,,,,,,,,,,,,,,,,,,,,,,,,,12,,,,,,,,,,,,,,,,,,,,,,,,,,,,,,,,,,,,,,,,,,,,457.0619,460.7239,strongly disagree,0,11,11,11,1,"Friendships and relationships are just too difficult, so I tend not to 
  bother with them.",1,0,0,1,,
,,,,,,,,,6658d49af0f0787f8c8132b9,"Spanish, Mexican",13 or older,"no, only English or Spanish",no,2025-08-12_16h32.12.147,empathy_intonation_perc_control,2024.2.4,Win32,59.88023952,6658d49af0f0787f8c8132b9,68817205a84113384fffdfe3,689ba4a3dec8374738dc4b05,,,,,,,,,,,,,,,,,,,,,,,,,,,13,,,,,,,,,,,,,,,,,,,,,,,,,,,,,,,,,,,,,,,,,,,,460.7257,464.0798,slightly disagree,0,12,12,12,1,"I would never break a law, no matter how minor.",0,1,0,0,,
,,,,,,,,,6658d49af0f0787f8c8132b9,"Spanish, Mexican",13 or older,"no, only English or Spanish",no,2025-08-12_16h32.12.147,empathy_intonation_perc_control,2024.2.4,Win32,59.88023952,6658d49af0f0787f8c8132b9,68817205a84113384fffdfe3,689ba4a3dec8374738dc4b05,,,,,,,,,,,,,,,,,,,,,,,,,,,14,,,,,,,,,,,,,,,,,,,,,,,,,,,,,,,,,,,,,,,,,,,,464.0822,468.6913,slightly disagree,0,13,13,13,1,I often find it difficult to judge if something is rude or polite.,1,0,0,1,,
,,,,,,,,,6658d49af0f0787f8c8132b9,"Spanish, Mexican",13 or older,"no, only English or Spanish",no,2025-08-12_16h32.12.147,empathy_intonation_perc_control,2024.2.4,Win32,59.88023952,6658d49af0f0787f8c8132b9,68817205a84113384fffdfe3,689ba4a3dec8374738dc4b05,,,,,,,,,,,,,,,,,,,,,,,,,,,15,,,,,,,,,,,,,,,,,,,,,,,,,,,,,,,,,,,,,,,,,,,,468.6946,473.1037,slightly agree,0,14,14,14,1,"In a conversation, I tend to focus on my own thoughts rather than on what 
  my listener might be thinking.",1,0,0,1,,
,,,,,,,,,6658d49af0f0787f8c8132b9,"Spanish, Mexican",13 or older,"no, only English or Spanish",no,2025-08-12_16h32.12.147,empathy_intonation_perc_control,2024.2.4,Win32,59.88023952,6658d49af0f0787f8c8132b9,68817205a84113384fffdfe3,689ba4a3dec8374738dc4b05,,,,,,,,,,,,,,,,,,,,,,,,,,,16,,,,,,,,,,,,,,,,,,,,,,,,,,,,,,,,,,,,,,,,,,,,473.1074,476.5834,strongly disagree,0,15,15,15,1,I prefer practical jokes to verbal humor.,0,1,0,0,,
,,,,,,,,,6658d49af0f0787f8c8132b9,"Spanish, Mexican",13 or older,"no, only English or Spanish",no,2025-08-12_16h32.12.147,empathy_intonation_perc_control,2024.2.4,Win32,59.88023952,6658d49af0f0787f8c8132b9,68817205a84113384fffdfe3,689ba4a3dec8374738dc4b05,,,,,,,,,,,,,,,,,,,,,,,,,,,17,,,,,,,,,,,,,,,,,,,,,,,,,,,,,,,,,,,,,,,,,,,,476.5865,478.5649,slightly disagree,0,16,16,16,1,I live life for today rather than the future.,0,1,0,0,,
,,,,,,,,,6658d49af0f0787f8c8132b9,"Spanish, Mexican",13 or older,"no, only English or Spanish",no,2025-08-12_16h32.12.147,empathy_intonation_perc_control,2024.2.4,Win32,59.88023952,6658d49af0f0787f8c8132b9,68817205a84113384fffdfe3,689ba4a3dec8374738dc4b05,,,,,,,,,,,,,,,,,,,,,,,,,,,18,,,,,,,,,,,,,,,,,,,,,,,,,,,,,,,,,,,,,,,,,,,,478.5694,483.3774,strongly disagree,0,17,17,17,1,"When I was a child, I enjoyed cutting up worms to see what would happen.",1,0,0,1,,
,,,,,,,,,6658d49af0f0787f8c8132b9,"Spanish, Mexican",13 or older,"no, only English or Spanish",no,2025-08-12_16h32.12.147,empathy_intonation_perc_control,2024.2.4,Win32,59.88023952,6658d49af0f0787f8c8132b9,68817205a84113384fffdfe3,689ba4a3dec8374738dc4b05,,,,,,,,,,,,,,,,,,,,,,,,,,,19,,,,,,,,,,,,,,,,,,,,,,,,,,,,,,,,,,,,,,,,,,,,483.3808,486.99,slightly agree,0,18,18,18,1,I can pick up quickly if someone says one thing but means another.,1,0,1,0,,
