instructions_2afc.started,instructions_2afc.stopped,instructions_2afc_loop.thisRepN,instructions_2afc_loop.thisTrialN,instructions_2afc_loop.thisN,instructions_2afc_loop.thisIndex,instructions_2afc_loop.ran,instructions_text,continue_text,participant_id,"What variety of Spanish are you most familiar with? (e.g., Peruvian, Spanish, Mexican)",At what age did you begin learning Spanish?,Are you proficient in any languages other than English/Spanish?,"Are you familiar with Caribbean (e.g., Caribbean, Puerto Rican) or Galician Spanish?",date,expName,psychopyVersion,OS,frameRate,id,study_id,session,practice_2afc.started,practice_2afc.stopped,key_resp_2afc_practice.keys,key_resp_2afc_practice.corr,key_resp_2afc_practice.rt,key_resp_2afc_practice.duration,trials_2afc_practice_loop.thisRepN,trials_2afc_practice_loop.thisTrialN,trials_2afc_practice_loop.thisN,trials_2afc_practice_loop.thisIndex,trials_2afc_practice_loop.ran,path,correct_response,check_2afc.started,check_2afc.stopped,trial_2afc.started,trial_2afc.stopped,key_resp_2afc_trial.keys,key_resp_2afc_trial.corr,key_resp_2afc_trial.rt,key_resp_2afc_trial.duration,trials_2afc_loop.thisRepN,trials_2afc_loop.thisTrialN,trials_2afc_loop.thisN,trials_2afc_loop.thisIndex,trials_2afc_loop.ran,item_num,target,variety,instructions_lextale.started,instructions_lextale.stopped,instructions_lextale_loop.thisRepN,instructions_lextale_loop.thisTrialN,instructions_lextale_loop.thisN,instructions_lextale_loop.thisIndex,instructions_lextale_loop.ran,practice_lextale.started,practice_lextale.stopped,key_resp_lextale_practice.keys,key_resp_lextale_practice.corr,key_resp_lextale_practice.rt,key_resp_lextale_practice.duration,practice_feedback_lextale.started,practice_feedback_lextale.stopped,trials_lextale_practice_loop.thisRepN,trials_lextale_practice_loop.thisTrialN,trials_lextale_practice_loop.thisN,trials_lextale_practice_loop.thisIndex,trials_lextale_practice_loop.ran,stim,word,prac_button_real,prac_button_false,check_lextale.started,check_lextale.stopped,trial_lextale.started,trial_lextale.stopped,key_resp_lextale_trial.keys,key_resp_lextale_trial.corr,key_resp_lextale_trial.rt,key_resp_lextale_trial.duration,trials_lextale_loop.thisRepN,trials_lextale_loop.thisTrialN,trials_lextale_loop.thisN,trials_lextale_loop.thisIndex,trials_lextale_loop.ran,button_real,button_false,instructions_eq.started,instructions_eq.stopped,trial_eq.started,trial_eq.stopped,slider_eq_trial.response,trials_eq_loop.thisRepN,trials_eq_loop.thisTrialN,trials_eq_loop.thisN,trials_eq_loop.thisIndex,trials_eq_loop.ran,item,is_test_item,is_distractor,is_agree_score,is_disagree_score,end_exp.started,end_exp.stopped
0.0467,6.4032,0,0,0,0,1,"In the following task you are going to hear a series of utterances. 

  You will decide if the utterances sound like questions or not using your keyboard.", (press the spacebar to continue),665fa1e8b8211326822c59a7,Spanish,13 or older,"no, only English or Spanish",no,2025-08-10_16h04.11.771,empathy_intonation_perc_control,2024.2.4,Win32,59.88023952,665fa1e8b8211326822c59a7,68817205a84113384fffdfe3,6898f9aba129496188814597,,,,,,,,,,,,,,,,,,,,,,,,,,,,,,,,,,,,,,,,,,,,,,,,,,,,,,,,,,,,,,,,,,,,,,,,,,,,,,,,,,,,,
6.414,11.2526,0,1,1,1,1,"If you believe the utterance is a question, type '1' (for 'yes') and if you do not 
  believe it is a question type '0' (for 'no').

  Let's practice a bit...", (press the spacebar to continue),665fa1e8b8211326822c59a7,Spanish,13 or older,"no, only English or Spanish",no,2025-08-10_16h04.11.771,empathy_intonation_perc_control,2024.2.4,Win32,59.88023952,665fa1e8b8211326822c59a7,68817205a84113384fffdfe3,6898f9aba129496188814597,,,,,,,,,,,,,,,,,,,,,,,,,,,,,,,,,,,,,,,,,,,,,,,,,,,,,,,,,,,,,,,,,,,,,,,,,,,,,,,,,,,,,
,,,,,,,,,665fa1e8b8211326822c59a7,Spanish,13 or older,"no, only English or Spanish",no,2025-08-10_16h04.11.771,empathy_intonation_perc_control,2024.2.4,Win32,59.88023952,665fa1e8b8211326822c59a7,68817205a84113384fffdfe3,6898f9aba129496188814597,11.2859,14.5574,1,1,2.7401,,0,0,0,0,1,./stim/wavs/castilian_question_filler_Mi-esposo-conoce-al-chico.wav,1,,,,,,,,,,,,,,,,,,,,,,,,,,,,,,,,,,,,,,,,,,,,,,,,,,,,,,,,,,,,,,,,,,,,,,,,
,,,,,,,,,665fa1e8b8211326822c59a7,Spanish,13 or older,"no, only English or Spanish",no,2025-08-10_16h04.11.771,empathy_intonation_perc_control,2024.2.4,Win32,59.88023952,665fa1e8b8211326822c59a7,68817205a84113384fffdfe3,6898f9aba129496188814597,14.5604,17.639,0,0,2.5491,,0,1,1,2,1,./stim/wavs/chilean_question_filler_Mi-padre-cantaba-bien.wav,1,,,,,,,,,,,,,,,,,,,,,,,,,,,,,,,,,,,,,,,,,,,,,,,,,,,,,,,,,,,,,,,,,,,,,,,,
,,,,,,,,,665fa1e8b8211326822c59a7,Spanish,13 or older,"no, only English or Spanish",no,2025-08-10_16h04.11.771,empathy_intonation_perc_control,2024.2.4,Win32,59.88023952,665fa1e8b8211326822c59a7,68817205a84113384fffdfe3,6898f9aba129496188814597,17.6412,21.2879,0,1,3.118,,0,2,2,4,1,./stim/wavs/cuban_statement_filler_Cocinabas-por-la-noche.wav,0,,,,,,,,,,,,,,,,,,,,,,,,,,,,,,,,,,,,,,,,,,,,,,,,,,,,,,,,,,,,,,,,,,,,,,,,
,,,,,,,,,665fa1e8b8211326822c59a7,Spanish,13 or older,"no, only English or Spanish",no,2025-08-10_16h04.11.771,empathy_intonation_perc_control,2024.2.4,Win32,59.88023952,665fa1e8b8211326822c59a7,68817205a84113384fffdfe3,6898f9aba129496188814597,21.2899,23.8698,1,1,2.0547,,0,3,3,3,1,./stim/wavs/mexican_question_filler_Felipe-no-tiene-contrasena.wav,1,,,,,,,,,,,,,,,,,,,,,,,,,,,,,,,,,,,,,,,,,,,,,,,,,,,,,,,,,,,,,,,,,,,,,,,,
,,,,,,,,,665fa1e8b8211326822c59a7,Spanish,13 or older,"no, only English or Spanish",no,2025-08-10_16h04.11.771,empathy_intonation_perc_control,2024.2.4,Win32,59.88023952,665fa1e8b8211326822c59a7,68817205a84113384fffdfe3,6898f9aba129496188814597,23.8703,26.8027,0,1,2.4022,,0,4,4,5,1,./stim/wavs/andalusian_statement_filler_Alberto-nunca-se-afeita.wav,0,,,,,,,,,,,,,,,,,,,,,,,,,,,,,,,,,,,,,,,,,,,,,,,,,,,,,,,,,,,,,,,,,,,,,,,,
,,,,,,,,,665fa1e8b8211326822c59a7,Spanish,13 or older,"no, only English or Spanish",no,2025-08-10_16h04.11.771,empathy_intonation_perc_control,2024.2.4,Win32,59.88023952,665fa1e8b8211326822c59a7,68817205a84113384fffdfe3,6898f9aba129496188814597,26.8056,30.0014,0,1,2.665,,0,5,5,6,1,./stim/wavs/peruvian_statement_filler_El-nino-habla-con-su-madre.wav,0,,,,,,,,,,,,,,,,,,,,,,,,,,,,,,,,,,,,,,,,,,,,,,,,,,,,,,,,,,,,,,,,,,,,,,,,
,,,,,,,,,665fa1e8b8211326822c59a7,Spanish,13 or older,"no, only English or Spanish",no,2025-08-10_16h04.11.771,empathy_intonation_perc_control,2024.2.4,Win32,59.88023952,665fa1e8b8211326822c59a7,68817205a84113384fffdfe3,6898f9aba129496188814597,30.003,32.2174,1,1,1.681,,0,6,6,1,1,./stim/wavs/argentine_question_filler_Mi-vecino-habla-mucho.wav,1,,,,,,,,,,,,,,,,,,,,,,,,,,,,,,,,,,,,,,,,,,,,,,,,,,,,,,,,,,,,,,,,,,,,,,,,
,,,,,,,,,665fa1e8b8211326822c59a7,Spanish,13 or older,"no, only English or Spanish",no,2025-08-10_16h04.11.771,empathy_intonation_perc_control,2024.2.4,Win32,59.88023952,665fa1e8b8211326822c59a7,68817205a84113384fffdfe3,6898f9aba129496188814597,32.2196,35.0662,0,1,2.3166,,0,7,7,7,1,./stim/wavs/puertorican_statement_filler_La-nina-pinta-con-su-amiga.wav,0,,,,,,,,,,,,,,,,,,,,,,,,,,,,,,,,,,,,,,,,,,,,,,,,,,,,,,,,,,,,,,,,,,,,,,,,
,,,,,,,,,665fa1e8b8211326822c59a7,Spanish,13 or older,"no, only English or Spanish",no,2025-08-10_16h04.11.771,empathy_intonation_perc_control,2024.2.4,Win32,59.88023952,665fa1e8b8211326822c59a7,68817205a84113384fffdfe3,6898f9aba129496188814597,,,,,,,,,,,,,,35.0666,37.4519,,,,,,,,,,,,,,,,,,,,,,,,,,,,,,,,,,,,,,,,,,,,,,,,,,,,,,,,,,,,,,,,,,,,,,
,,,,,,,,,665fa1e8b8211326822c59a7,Spanish,13 or older,"no, only English or Spanish",no,2025-08-10_16h04.11.771,empathy_intonation_perc_control,2024.2.4,Win32,59.88023952,665fa1e8b8211326822c59a7,68817205a84113384fffdfe3,6898f9aba129496188814597,,,,,,,,,,,,./stim/wavs/cuban_mismatch_interrogative-total-yn_El-hombre-mira-la-luna.wav,1,,,37.4743,40.0648,1,1,2.0588,,0,0,0,29,1,30,1,cuban,,,,,,,,,,,,,,,,,,,,,,,,,,,,,,,,,,,,,,,,,,,,,,,,,,,,,,,,
,,,,,,,,,665fa1e8b8211326822c59a7,Spanish,13 or older,"no, only English or Spanish",no,2025-08-10_16h04.11.771,empathy_intonation_perc_control,2024.2.4,Win32,59.88023952,665fa1e8b8211326822c59a7,68817205a84113384fffdfe3,6898f9aba129496188814597,,,,,,,,,,,,./stim/wavs/puertorican_mismatch_interrogative-total-yn_Mi-madre-come-la-fruta.wav,1,,,40.0665,42.3476,0,0,1.7586,,0,1,1,43,1,44,1,puertorican,,,,,,,,,,,,,,,,,,,,,,,,,,,,,,,,,,,,,,,,,,,,,,,,,,,,,,,,
,,,,,,,,,665fa1e8b8211326822c59a7,Spanish,13 or older,"no, only English or Spanish",no,2025-08-10_16h04.11.771,empathy_intonation_perc_control,2024.2.4,Win32,59.88023952,665fa1e8b8211326822c59a7,68817205a84113384fffdfe3,6898f9aba129496188814597,,,,,,,,,,,,./stim/wavs/castilian_match_declarative-broad-focus_Manuela-vende-el-carro.wav,0,,,42.3536,44.763,0,1,1.8824,,0,2,2,46,1,47,0,castilian,,,,,,,,,,,,,,,,,,,,,,,,,,,,,,,,,,,,,,,,,,,,,,,,,,,,,,,,
,,,,,,,,,665fa1e8b8211326822c59a7,Spanish,13 or older,"no, only English or Spanish",no,2025-08-10_16h04.11.771,empathy_intonation_perc_control,2024.2.4,Win32,59.88023952,665fa1e8b8211326822c59a7,68817205a84113384fffdfe3,6898f9aba129496188814597,,,,,,,,,,,,./stim/wavs/cuban_match_interrogative-total-yn_Ana-lleva-el-abrigo.wav,1,,,44.7652,47.4786,0,0,2.1856,,0,3,3,6,1,7,1,cuban,,,,,,,,,,,,,,,,,,,,,,,,,,,,,,,,,,,,,,,,,,,,,,,,,,,,,,,,
,,,,,,,,,665fa1e8b8211326822c59a7,Spanish,13 or older,"no, only English or Spanish",no,2025-08-10_16h04.11.771,empathy_intonation_perc_control,2024.2.4,Win32,59.88023952,665fa1e8b8211326822c59a7,68817205a84113384fffdfe3,6898f9aba129496188814597,,,,,,,,,,,,./stim/wavs/puertorican_match_declarative-broad-focus_Emilio-ama-la-marcha.wav,0,,,47.4795,49.8112,0,1,1.7969,,0,4,4,65,1,66,0,puertorican,,,,,,,,,,,,,,,,,,,,,,,,,,,,,,,,,,,,,,,,,,,,,,,,,,,,,,,,
,,,,,,,,,665fa1e8b8211326822c59a7,Spanish,13 or older,"no, only English or Spanish",no,2025-08-10_16h04.11.771,empathy_intonation_perc_control,2024.2.4,Win32,59.88023952,665fa1e8b8211326822c59a7,68817205a84113384fffdfe3,6898f9aba129496188814597,,,,,,,,,,,,./stim/wavs/puertorican_match_interrogative-total-yn_Manuela-vende-el-carro.wav,1,,,49.8125,51.894,1,1,1.5477,,0,5,5,22,1,23,1,puertorican,,,,,,,,,,,,,,,,,,,,,,,,,,,,,,,,,,,,,,,,,,,,,,,,,,,,,,,,
,,,,,,,,,665fa1e8b8211326822c59a7,Spanish,13 or older,"no, only English or Spanish",no,2025-08-10_16h04.11.771,empathy_intonation_perc_control,2024.2.4,Win32,59.88023952,665fa1e8b8211326822c59a7,68817205a84113384fffdfe3,6898f9aba129496188814597,,,,,,,,,,,,./stim/wavs/castilian_match_interrogative-total-yn_David-leia-el-libro.wav,1,,,51.8966,54.2597,1,1,1.8385,,0,6,6,0,1,1,0,castilian,,,,,,,,,,,,,,,,,,,,,,,,,,,,,,,,,,,,,,,,,,,,,,,,,,,,,,,,
,,,,,,,,,665fa1e8b8211326822c59a7,Spanish,13 or older,"no, only English or Spanish",no,2025-08-10_16h04.11.771,empathy_intonation_perc_control,2024.2.4,Win32,59.88023952,665fa1e8b8211326822c59a7,68817205a84113384fffdfe3,6898f9aba129496188814597,,,,,,,,,,,,./stim/wavs/castilian_match_interrogative-total-yn_Emilio-ama-la-marcha.wav,1,,,54.2628,56.4588,1,1,1.6691,,0,7,7,1,1,2,0,castilian,,,,,,,,,,,,,,,,,,,,,,,,,,,,,,,,,,,,,,,,,,,,,,,,,,,,,,,,
,,,,,,,,,665fa1e8b8211326822c59a7,Spanish,13 or older,"no, only English or Spanish",no,2025-08-10_16h04.11.771,empathy_intonation_perc_control,2024.2.4,Win32,59.88023952,665fa1e8b8211326822c59a7,68817205a84113384fffdfe3,6898f9aba129496188814597,,,,,,,,,,,,./stim/wavs/puertorican_match_interrogative-total-yn_Maria-bebe-el-vino.wav,1,,,56.4595,58.625,1,1,1.631,,0,8,8,23,1,24,1,puertorican,,,,,,,,,,,,,,,,,,,,,,,,,,,,,,,,,,,,,,,,,,,,,,,,,,,,,,,,
,,,,,,,,,665fa1e8b8211326822c59a7,Spanish,13 or older,"no, only English or Spanish",no,2025-08-10_16h04.11.771,empathy_intonation_perc_control,2024.2.4,Win32,59.88023952,665fa1e8b8211326822c59a7,68817205a84113384fffdfe3,6898f9aba129496188814597,,,,,,,,,,,,./stim/wavs/mexican_match_interrogative-total-yn_Marta-abre-el-regalo.wav,1,,,58.6258,61.0407,1,1,1.8835,,0,9,9,17,1,18,0,mexican,,,,,,,,,,,,,,,,,,,,,,,,,,,,,,,,,,,,,,,,,,,,,,,,,,,,,,,,
,,,,,,,,,665fa1e8b8211326822c59a7,Spanish,13 or older,"no, only English or Spanish",no,2025-08-10_16h04.11.771,empathy_intonation_perc_control,2024.2.4,Win32,59.88023952,665fa1e8b8211326822c59a7,68817205a84113384fffdfe3,6898f9aba129496188814597,,,,,,,,,,,,./stim/wavs/mexican_mismatch_declarative-broad-focus_Mi-tia-odia-la-lluvia.wav,0,,,61.0414,63.3235,0,1,1.7523,,0,10,10,82,1,83,0,mexican,,,,,,,,,,,,,,,,,,,,,,,,,,,,,,,,,,,,,,,,,,,,,,,,,,,,,,,,
,,,,,,,,,665fa1e8b8211326822c59a7,Spanish,13 or older,"no, only English or Spanish",no,2025-08-10_16h04.11.771,empathy_intonation_perc_control,2024.2.4,Win32,59.88023952,665fa1e8b8211326822c59a7,68817205a84113384fffdfe3,6898f9aba129496188814597,,,,,,,,,,,,./stim/wavs/cuban_match_interrogative-total-yn_Manuela-vende-el-carro.wav,1,,,63.3253,65.7723,0,0,1.9164,,0,11,11,8,1,9,1,cuban,,,,,,,,,,,,,,,,,,,,,,,,,,,,,,,,,,,,,,,,,,,,,,,,,,,,,,,,
,,,,,,,,,665fa1e8b8211326822c59a7,Spanish,13 or older,"no, only English or Spanish",no,2025-08-10_16h04.11.771,empathy_intonation_perc_control,2024.2.4,Win32,59.88023952,665fa1e8b8211326822c59a7,68817205a84113384fffdfe3,6898f9aba129496188814597,,,,,,,,,,,,./stim/wavs/puertorican_match_declarative-broad-focus_Manuela-vende-el-carro.wav,0,,,65.774,68.2607,0,1,1.956,,0,12,12,66,1,67,0,puertorican,,,,,,,,,,,,,,,,,,,,,,,,,,,,,,,,,,,,,,,,,,,,,,,,,,,,,,,,
,,,,,,,,,665fa1e8b8211326822c59a7,Spanish,13 or older,"no, only English or Spanish",no,2025-08-10_16h04.11.771,empathy_intonation_perc_control,2024.2.4,Win32,59.88023952,665fa1e8b8211326822c59a7,68817205a84113384fffdfe3,6898f9aba129496188814597,,,,,,,,,,,,./stim/wavs/castilian_mismatch_interrogative-total-yn_Mi-novio-viene-del-lago.wav,1,,,68.2625,70.7074,1,1,1.9168,,0,13,13,27,1,28,0,castilian,,,,,,,,,,,,,,,,,,,,,,,,,,,,,,,,,,,,,,,,,,,,,,,,,,,,,,,,
,,,,,,,,,665fa1e8b8211326822c59a7,Spanish,13 or older,"no, only English or Spanish",no,2025-08-10_16h04.11.771,empathy_intonation_perc_control,2024.2.4,Win32,59.88023952,665fa1e8b8211326822c59a7,68817205a84113384fffdfe3,6898f9aba129496188814597,,,,,,,,,,,,./stim/wavs/cuban_match_interrogative-total-yn_Maria-bebe-el-vino.wav,1,,,70.7105,73.3366,0,0,2.0999,,0,14,14,9,1,10,1,cuban,,,,,,,,,,,,,,,,,,,,,,,,,,,,,,,,,,,,,,,,,,,,,,,,,,,,,,,,
,,,,,,,,,665fa1e8b8211326822c59a7,Spanish,13 or older,"no, only English or Spanish",no,2025-08-10_16h04.11.771,empathy_intonation_perc_control,2024.2.4,Win32,59.88023952,665fa1e8b8211326822c59a7,68817205a84113384fffdfe3,6898f9aba129496188814597,,,,,,,,,,,,./stim/wavs/cuban_match_declarative-broad-focus_Maria-bebe-el-vino.wav,0,,,73.3376,75.6358,0,1,1.7713,,0,15,15,53,1,54,0,cuban,,,,,,,,,,,,,,,,,,,,,,,,,,,,,,,,,,,,,,,,,,,,,,,,,,,,,,,,
,,,,,,,,,665fa1e8b8211326822c59a7,Spanish,13 or older,"no, only English or Spanish",no,2025-08-10_16h04.11.771,empathy_intonation_perc_control,2024.2.4,Win32,59.88023952,665fa1e8b8211326822c59a7,68817205a84113384fffdfe3,6898f9aba129496188814597,,,,,,,,,,,,./stim/wavs/mexican_mismatch_interrogative-total-yn_El-nino-oye-el-rio.wav,1,,,75.6376,77.6352,1,1,1.4664,,0,16,16,35,1,36,0,mexican,,,,,,,,,,,,,,,,,,,,,,,,,,,,,,,,,,,,,,,,,,,,,,,,,,,,,,,,
,,,,,,,,,665fa1e8b8211326822c59a7,Spanish,13 or older,"no, only English or Spanish",no,2025-08-10_16h04.11.771,empathy_intonation_perc_control,2024.2.4,Win32,59.88023952,665fa1e8b8211326822c59a7,68817205a84113384fffdfe3,6898f9aba129496188814597,,,,,,,,,,,,./stim/wavs/cuban_mismatch_declarative-broad-focus_Mi-novio-viene-del-lago.wav,0,,,77.6359,80.0676,0,1,1.9054,,0,17,17,76,1,77,0,cuban,,,,,,,,,,,,,,,,,,,,,,,,,,,,,,,,,,,,,,,,,,,,,,,,,,,,,,,,
,,,,,,,,,665fa1e8b8211326822c59a7,Spanish,13 or older,"no, only English or Spanish",no,2025-08-10_16h04.11.771,empathy_intonation_perc_control,2024.2.4,Win32,59.88023952,665fa1e8b8211326822c59a7,68817205a84113384fffdfe3,6898f9aba129496188814597,,,,,,,,,,,,./stim/wavs/cuban_match_declarative-broad-focus_Daniel-iba-a-Bolivia.wav,0,,,80.0691,82.8676,0,1,2.2758,,0,18,18,51,1,52,0,cuban,,,,,,,,,,,,,,,,,,,,,,,,,,,,,,,,,,,,,,,,,,,,,,,,,,,,,,,,
,,,,,,,,,665fa1e8b8211326822c59a7,Spanish,13 or older,"no, only English or Spanish",no,2025-08-10_16h04.11.771,empathy_intonation_perc_control,2024.2.4,Win32,59.88023952,665fa1e8b8211326822c59a7,68817205a84113384fffdfe3,6898f9aba129496188814597,,,,,,,,,,,,./stim/wavs/puertorican_mismatch_declarative-broad-focus_La-maestra-vive-en-Paris.wav,0,,,82.871,85.3323,0,1,1.9332,,0,19,19,86,1,87,0,puertorican,,,,,,,,,,,,,,,,,,,,,,,,,,,,,,,,,,,,,,,,,,,,,,,,,,,,,,,,
,,,,,,,,,665fa1e8b8211326822c59a7,Spanish,13 or older,"no, only English or Spanish",no,2025-08-10_16h04.11.771,empathy_intonation_perc_control,2024.2.4,Win32,59.88023952,665fa1e8b8211326822c59a7,68817205a84113384fffdfe3,6898f9aba129496188814597,,,,,,,,,,,,./stim/wavs/castilian_match_declarative-broad-focus_Maria-bebe-el-vino.wav,0,,,85.3331,87.9649,0,1,2.0973,,0,20,20,47,1,48,0,castilian,,,,,,,,,,,,,,,,,,,,,,,,,,,,,,,,,,,,,,,,,,,,,,,,,,,,,,,,
,,,,,,,,,665fa1e8b8211326822c59a7,Spanish,13 or older,"no, only English or Spanish",no,2025-08-10_16h04.11.771,empathy_intonation_perc_control,2024.2.4,Win32,59.88023952,665fa1e8b8211326822c59a7,68817205a84113384fffdfe3,6898f9aba129496188814597,,,,,,,,,,,,./stim/wavs/mexican_match_declarative-broad-focus_Ana-lleva-el-abrigo.wav,0,,,87.9656,90.1641,0,1,1.6685,,0,21,21,56,1,57,0,mexican,,,,,,,,,,,,,,,,,,,,,,,,,,,,,,,,,,,,,,,,,,,,,,,,,,,,,,,,
,,,,,,,,,665fa1e8b8211326822c59a7,Spanish,13 or older,"no, only English or Spanish",no,2025-08-10_16h04.11.771,empathy_intonation_perc_control,2024.2.4,Win32,59.88023952,665fa1e8b8211326822c59a7,68817205a84113384fffdfe3,6898f9aba129496188814597,,,,,,,,,,,,./stim/wavs/castilian_mismatch_interrogative-total-yn_Mi-madre-come-la-fruta.wav,1,,,90.1649,92.4635,1,1,1.7685,,0,22,22,26,1,27,0,castilian,,,,,,,,,,,,,,,,,,,,,,,,,,,,,,,,,,,,,,,,,,,,,,,,,,,,,,,,
,,,,,,,,,665fa1e8b8211326822c59a7,Spanish,13 or older,"no, only English or Spanish",no,2025-08-10_16h04.11.771,empathy_intonation_perc_control,2024.2.4,Win32,59.88023952,665fa1e8b8211326822c59a7,68817205a84113384fffdfe3,6898f9aba129496188814597,,,,,,,,,,,,./stim/wavs/castilian_mismatch_declarative-broad-focus_El-nino-oye-el-rio.wav,0,,,92.4652,95.2623,0,1,2.2692,,0,23,23,68,1,69,0,castilian,,,,,,,,,,,,,,,,,,,,,,,,,,,,,,,,,,,,,,,,,,,,,,,,,,,,,,,,
,,,,,,,,,665fa1e8b8211326822c59a7,Spanish,13 or older,"no, only English or Spanish",no,2025-08-10_16h04.11.771,empathy_intonation_perc_control,2024.2.4,Win32,59.88023952,665fa1e8b8211326822c59a7,68817205a84113384fffdfe3,6898f9aba129496188814597,,,,,,,,,,,,./stim/wavs/puertorican_match_interrogative-total-yn_David-leia-el-libro.wav,1,,,95.2636,97.2952,0,0,1.4983,,0,24,24,20,1,21,1,puertorican,,,,,,,,,,,,,,,,,,,,,,,,,,,,,,,,,,,,,,,,,,,,,,,,,,,,,,,,
,,,,,,,,,665fa1e8b8211326822c59a7,Spanish,13 or older,"no, only English or Spanish",no,2025-08-10_16h04.11.771,empathy_intonation_perc_control,2024.2.4,Win32,59.88023952,665fa1e8b8211326822c59a7,68817205a84113384fffdfe3,6898f9aba129496188814597,,,,,,,,,,,,./stim/wavs/cuban_match_interrogative-total-yn_Daniel-iba-a-Bolivia.wav,1,,,97.2964,100.4277,1,1,2.5994,,0,25,25,7,1,8,1,cuban,,,,,,,,,,,,,,,,,,,,,,,,,,,,,,,,,,,,,,,,,,,,,,,,,,,,,,,,
,,,,,,,,,665fa1e8b8211326822c59a7,Spanish,13 or older,"no, only English or Spanish",no,2025-08-10_16h04.11.771,empathy_intonation_perc_control,2024.2.4,Win32,59.88023952,665fa1e8b8211326822c59a7,68817205a84113384fffdfe3,6898f9aba129496188814597,,,,,,,,,,,,./stim/wavs/puertorican_match_declarative-broad-focus_Maria-bebe-el-vino.wav,0,,,100.4292,102.5767,0,1,1.6166,,0,26,26,67,1,68,0,puertorican,,,,,,,,,,,,,,,,,,,,,,,,,,,,,,,,,,,,,,,,,,,,,,,,,,,,,,,,
,,,,,,,,,665fa1e8b8211326822c59a7,Spanish,13 or older,"no, only English or Spanish",no,2025-08-10_16h04.11.771,empathy_intonation_perc_control,2024.2.4,Win32,59.88023952,665fa1e8b8211326822c59a7,68817205a84113384fffdfe3,6898f9aba129496188814597,,,,,,,,,,,,./stim/wavs/castilian_mismatch_declarative-broad-focus_La-maestra-vive-en-Paris.wav,0,,,102.5775,105.0423,0,1,1.9304,,0,27,27,69,1,70,0,castilian,,,,,,,,,,,,,,,,,,,,,,,,,,,,,,,,,,,,,,,,,,,,,,,,,,,,,,,,
,,,,,,,,,665fa1e8b8211326822c59a7,Spanish,13 or older,"no, only English or Spanish",no,2025-08-10_16h04.11.771,empathy_intonation_perc_control,2024.2.4,Win32,59.88023952,665fa1e8b8211326822c59a7,68817205a84113384fffdfe3,6898f9aba129496188814597,,,,,,,,,,,,./stim/wavs/castilian_match_interrogative-total-yn_Manuela-vende-el-carro.wav,1,,,105.0443,107.5749,1,1,2.0048,,0,28,28,2,1,3,0,castilian,,,,,,,,,,,,,,,,,,,,,,,,,,,,,,,,,,,,,,,,,,,,,,,,,,,,,,,,
,,,,,,,,,665fa1e8b8211326822c59a7,Spanish,13 or older,"no, only English or Spanish",no,2025-08-10_16h04.11.771,empathy_intonation_perc_control,2024.2.4,Win32,59.88023952,665fa1e8b8211326822c59a7,68817205a84113384fffdfe3,6898f9aba129496188814597,,,,,,,,,,,,./stim/wavs/castilian_mismatch_interrogative-total-yn_La-nina-lava-el-plato.wav,1,,,107.5756,109.8574,1,1,1.7554,,0,29,29,25,1,26,0,castilian,,,,,,,,,,,,,,,,,,,,,,,,,,,,,,,,,,,,,,,,,,,,,,,,,,,,,,,,
,,,,,,,,,665fa1e8b8211326822c59a7,Spanish,13 or older,"no, only English or Spanish",no,2025-08-10_16h04.11.771,empathy_intonation_perc_control,2024.2.4,Win32,59.88023952,665fa1e8b8211326822c59a7,68817205a84113384fffdfe3,6898f9aba129496188814597,,,,,,,,,,,,./stim/wavs/mexican_match_declarative-broad-focus_Marta-abre-el-regalo.wav,0,,,109.858,111.8571,0,1,1.4688,,0,30,30,61,1,62,0,mexican,,,,,,,,,,,,,,,,,,,,,,,,,,,,,,,,,,,,,,,,,,,,,,,,,,,,,,,,
,,,,,,,,,665fa1e8b8211326822c59a7,Spanish,13 or older,"no, only English or Spanish",no,2025-08-10_16h04.11.771,empathy_intonation_perc_control,2024.2.4,Win32,59.88023952,665fa1e8b8211326822c59a7,68817205a84113384fffdfe3,6898f9aba129496188814597,,,,,,,,,,,,./stim/wavs/cuban_match_interrogative-total-yn_Mariano-habla-del-tiempo.wav,1,,,111.8589,114.8224,1,1,2.4355,,0,31,31,10,1,11,1,cuban,,,,,,,,,,,,,,,,,,,,,,,,,,,,,,,,,,,,,,,,,,,,,,,,,,,,,,,,
,,,,,,,,,665fa1e8b8211326822c59a7,Spanish,13 or older,"no, only English or Spanish",no,2025-08-10_16h04.11.771,empathy_intonation_perc_control,2024.2.4,Win32,59.88023952,665fa1e8b8211326822c59a7,68817205a84113384fffdfe3,6898f9aba129496188814597,,,,,,,,,,,,./stim/wavs/cuban_match_declarative-broad-focus_Manuela-vende-el-carro.wav,0,,,114.8245,117.0218,0,1,1.6722,,0,32,32,52,1,53,0,cuban,,,,,,,,,,,,,,,,,,,,,,,,,,,,,,,,,,,,,,,,,,,,,,,,,,,,,,,,
,,,,,,,,,665fa1e8b8211326822c59a7,Spanish,13 or older,"no, only English or Spanish",no,2025-08-10_16h04.11.771,empathy_intonation_perc_control,2024.2.4,Win32,59.88023952,665fa1e8b8211326822c59a7,68817205a84113384fffdfe3,6898f9aba129496188814597,,,,,,,,,,,,./stim/wavs/puertorican_mismatch_declarative-broad-focus_El-hombre-mira-la-luna.wav,0,,,117.0228,119.6104,0,1,2.0638,,0,33,33,84,1,85,0,puertorican,,,,,,,,,,,,,,,,,,,,,,,,,,,,,,,,,,,,,,,,,,,,,,,,,,,,,,,,
,,,,,,,,,665fa1e8b8211326822c59a7,Spanish,13 or older,"no, only English or Spanish",no,2025-08-10_16h04.11.771,empathy_intonation_perc_control,2024.2.4,Win32,59.88023952,665fa1e8b8211326822c59a7,68817205a84113384fffdfe3,6898f9aba129496188814597,,,,,,,,,,,,./stim/wavs/cuban_match_declarative-broad-focus_Marta-abre-el-regalo.wav,0,,,119.614,122.0367,0,1,1.9054,,0,34,34,55,1,56,0,cuban,,,,,,,,,,,,,,,,,,,,,,,,,,,,,,,,,,,,,,,,,,,,,,,,,,,,,,,,
,,,,,,,,,665fa1e8b8211326822c59a7,Spanish,13 or older,"no, only English or Spanish",no,2025-08-10_16h04.11.771,empathy_intonation_perc_control,2024.2.4,Win32,59.88023952,665fa1e8b8211326822c59a7,68817205a84113384fffdfe3,6898f9aba129496188814597,,,,,,,,,,,,./stim/wavs/cuban_mismatch_declarative-broad-focus_El-bebe-comia-muy-bien.wav,0,,,122.0385,124.7359,0,1,2.164,,0,35,35,73,1,74,0,cuban,,,,,,,,,,,,,,,,,,,,,,,,,,,,,,,,,,,,,,,,,,,,,,,,,,,,,,,,
,,,,,,,,,665fa1e8b8211326822c59a7,Spanish,13 or older,"no, only English or Spanish",no,2025-08-10_16h04.11.771,empathy_intonation_perc_control,2024.2.4,Win32,59.88023952,665fa1e8b8211326822c59a7,68817205a84113384fffdfe3,6898f9aba129496188814597,,,,,,,,,,,,./stim/wavs/mexican_match_declarative-broad-focus_Mariano-habla-del-tiempo.wav,0,,,124.7367,128.118,0,1,2.8464,,0,36,36,60,1,61,0,mexican,,,,,,,,,,,,,,,,,,,,,,,,,,,,,,,,,,,,,,,,,,,,,,,,,,,,,,,,
,,,,,,,,,665fa1e8b8211326822c59a7,Spanish,13 or older,"no, only English or Spanish",no,2025-08-10_16h04.11.771,empathy_intonation_perc_control,2024.2.4,Win32,59.88023952,665fa1e8b8211326822c59a7,68817205a84113384fffdfe3,6898f9aba129496188814597,,,,,,,,,,,,./stim/wavs/mexican_match_declarative-broad-focus_David-leia-el-libro.wav,0,,,128.1188,130.1174,0,1,1.4733,,0,37,37,58,1,59,0,mexican,,,,,,,,,,,,,,,,,,,,,,,,,,,,,,,,,,,,,,,,,,,,,,,,,,,,,,,,
,,,,,,,,,665fa1e8b8211326822c59a7,Spanish,13 or older,"no, only English or Spanish",no,2025-08-10_16h04.11.771,empathy_intonation_perc_control,2024.2.4,Win32,59.88023952,665fa1e8b8211326822c59a7,68817205a84113384fffdfe3,6898f9aba129496188814597,,,,,,,,,,,,./stim/wavs/mexican_mismatch_declarative-broad-focus_Mi-novio-viene-del-lago.wav,0,,,130.1184,132.1354,0,1,1.4876,,0,38,38,81,1,82,0,mexican,,,,,,,,,,,,,,,,,,,,,,,,,,,,,,,,,,,,,,,,,,,,,,,,,,,,,,,,
,,,,,,,,,665fa1e8b8211326822c59a7,Spanish,13 or older,"no, only English or Spanish",no,2025-08-10_16h04.11.771,empathy_intonation_perc_control,2024.2.4,Win32,59.88023952,665fa1e8b8211326822c59a7,68817205a84113384fffdfe3,6898f9aba129496188814597,,,,,,,,,,,,./stim/wavs/puertorican_mismatch_interrogative-total-yn_La-nina-lava-el-plato.wav,1,,,132.1382,135.116,1,1,2.4479,,0,39,39,42,1,43,1,puertorican,,,,,,,,,,,,,,,,,,,,,,,,,,,,,,,,,,,,,,,,,,,,,,,,,,,,,,,,
,,,,,,,,,665fa1e8b8211326822c59a7,Spanish,13 or older,"no, only English or Spanish",no,2025-08-10_16h04.11.771,empathy_intonation_perc_control,2024.2.4,Win32,59.88023952,665fa1e8b8211326822c59a7,68817205a84113384fffdfe3,6898f9aba129496188814597,,,,,,,,,,,,./stim/wavs/mexican_match_interrogative-total-yn_Mariano-habla-del-tiempo.wav,1,,,135.1173,137.5314,1,1,1.8818,,0,40,40,16,1,17,0,mexican,,,,,,,,,,,,,,,,,,,,,,,,,,,,,,,,,,,,,,,,,,,,,,,,,,,,,,,,
,,,,,,,,,665fa1e8b8211326822c59a7,Spanish,13 or older,"no, only English or Spanish",no,2025-08-10_16h04.11.771,empathy_intonation_perc_control,2024.2.4,Win32,59.88023952,665fa1e8b8211326822c59a7,68817205a84113384fffdfe3,6898f9aba129496188814597,,,,,,,,,,,,./stim/wavs/mexican_mismatch_declarative-broad-focus_La-maestra-vive-en-Paris.wav,0,,,137.5321,140.0639,0,1,2.0011,,0,41,41,80,1,81,0,mexican,,,,,,,,,,,,,,,,,,,,,,,,,,,,,,,,,,,,,,,,,,,,,,,,,,,,,,,,
,,,,,,,,,665fa1e8b8211326822c59a7,Spanish,13 or older,"no, only English or Spanish",no,2025-08-10_16h04.11.771,empathy_intonation_perc_control,2024.2.4,Win32,59.88023952,665fa1e8b8211326822c59a7,68817205a84113384fffdfe3,6898f9aba129496188814597,,,,,,,,,,,,./stim/wavs/cuban_mismatch_interrogative-total-yn_Mi-tia-odia-la-lluvia.wav,1,,,140.0646,142.3797,0,0,1.783,,0,42,42,33,1,34,1,cuban,,,,,,,,,,,,,,,,,,,,,,,,,,,,,,,,,,,,,,,,,,,,,,,,,,,,,,,,
,,,,,,,,,665fa1e8b8211326822c59a7,Spanish,13 or older,"no, only English or Spanish",no,2025-08-10_16h04.11.771,empathy_intonation_perc_control,2024.2.4,Win32,59.88023952,665fa1e8b8211326822c59a7,68817205a84113384fffdfe3,6898f9aba129496188814597,,,,,,,,,,,,./stim/wavs/cuban_mismatch_declarative-broad-focus_Mi-tia-odia-la-lluvia.wav,0,,,142.3813,145.0457,0,1,2.1338,,0,43,43,77,1,78,0,cuban,,,,,,,,,,,,,,,,,,,,,,,,,,,,,,,,,,,,,,,,,,,,,,,,,,,,,,,,
,,,,,,,,,665fa1e8b8211326822c59a7,Spanish,13 or older,"no, only English or Spanish",no,2025-08-10_16h04.11.771,empathy_intonation_perc_control,2024.2.4,Win32,59.88023952,665fa1e8b8211326822c59a7,68817205a84113384fffdfe3,6898f9aba129496188814597,,,,,,,,,,,,./stim/wavs/castilian_mismatch_declarative-broad-focus_La-nina-lava-el-plato.wav,0,,,145.0468,149.2942,0,1,3.7181,,0,44,44,70,1,71,0,castilian,,,,,,,,,,,,,,,,,,,,,,,,,,,,,,,,,,,,,,,,,,,,,,,,,,,,,,,,
,,,,,,,,,665fa1e8b8211326822c59a7,Spanish,13 or older,"no, only English or Spanish",no,2025-08-10_16h04.11.771,empathy_intonation_perc_control,2024.2.4,Win32,59.88023952,665fa1e8b8211326822c59a7,68817205a84113384fffdfe3,6898f9aba129496188814597,,,,,,,,,,,,./stim/wavs/castilian_match_declarative-broad-focus_Emilio-ama-la-marcha.wav,0,,,149.2951,152.2765,0,1,2.4632,,0,45,45,45,1,46,0,castilian,,,,,,,,,,,,,,,,,,,,,,,,,,,,,,,,,,,,,,,,,,,,,,,,,,,,,,,,
,,,,,,,,,665fa1e8b8211326822c59a7,Spanish,13 or older,"no, only English or Spanish",no,2025-08-10_16h04.11.771,empathy_intonation_perc_control,2024.2.4,Win32,59.88023952,665fa1e8b8211326822c59a7,68817205a84113384fffdfe3,6898f9aba129496188814597,,,,,,,,,,,,./stim/wavs/mexican_match_interrogative-total-yn_David-leia-el-libro.wav,1,,,152.2775,154.2592,1,1,1.4526,,0,46,46,14,1,15,0,mexican,,,,,,,,,,,,,,,,,,,,,,,,,,,,,,,,,,,,,,,,,,,,,,,,,,,,,,,,
,,,,,,,,,665fa1e8b8211326822c59a7,Spanish,13 or older,"no, only English or Spanish",no,2025-08-10_16h04.11.771,empathy_intonation_perc_control,2024.2.4,Win32,59.88023952,665fa1e8b8211326822c59a7,68817205a84113384fffdfe3,6898f9aba129496188814597,,,,,,,,,,,,./stim/wavs/mexican_match_declarative-broad-focus_Emilio-ama-la-marcha.wav,0,,,154.2599,156.9916,0,1,2.1996,,0,47,47,59,1,60,0,mexican,,,,,,,,,,,,,,,,,,,,,,,,,,,,,,,,,,,,,,,,,,,,,,,,,,,,,,,,
,,,,,,,,,665fa1e8b8211326822c59a7,Spanish,13 or older,"no, only English or Spanish",no,2025-08-10_16h04.11.771,empathy_intonation_perc_control,2024.2.4,Win32,59.88023952,665fa1e8b8211326822c59a7,68817205a84113384fffdfe3,6898f9aba129496188814597,,,,,,,,,,,,./stim/wavs/cuban_mismatch_interrogative-total-yn_El-nino-oye-el-rio.wav,1,,,156.9925,160.5409,1,1,3.024,,0,48,48,30,1,31,1,cuban,,,,,,,,,,,,,,,,,,,,,,,,,,,,,,,,,,,,,,,,,,,,,,,,,,,,,,,,
,,,,,,,,,665fa1e8b8211326822c59a7,Spanish,13 or older,"no, only English or Spanish",no,2025-08-10_16h04.11.771,empathy_intonation_perc_control,2024.2.4,Win32,59.88023952,665fa1e8b8211326822c59a7,68817205a84113384fffdfe3,6898f9aba129496188814597,,,,,,,,,,,,./stim/wavs/cuban_match_declarative-broad-focus_Mariano-habla-del-tiempo.wav,0,,,160.5436,163.356,0,1,2.2874,,0,49,49,54,1,55,0,cuban,,,,,,,,,,,,,,,,,,,,,,,,,,,,,,,,,,,,,,,,,,,,,,,,,,,,,,,,
,,,,,,,,,665fa1e8b8211326822c59a7,Spanish,13 or older,"no, only English or Spanish",no,2025-08-10_16h04.11.771,empathy_intonation_perc_control,2024.2.4,Win32,59.88023952,665fa1e8b8211326822c59a7,68817205a84113384fffdfe3,6898f9aba129496188814597,,,,,,,,,,,,./stim/wavs/cuban_mismatch_declarative-broad-focus_La-nina-lava-el-plato.wav,0,,,163.3575,165.4554,0,1,1.5639,,0,50,50,75,1,76,0,cuban,,,,,,,,,,,,,,,,,,,,,,,,,,,,,,,,,,,,,,,,,,,,,,,,,,,,,,,,
,,,,,,,,,665fa1e8b8211326822c59a7,Spanish,13 or older,"no, only English or Spanish",no,2025-08-10_16h04.11.771,empathy_intonation_perc_control,2024.2.4,Win32,59.88023952,665fa1e8b8211326822c59a7,68817205a84113384fffdfe3,6898f9aba129496188814597,,,,,,,,,,,,./stim/wavs/castilian_mismatch_declarative-broad-focus_Mi-tia-odia-la-lluvia.wav,0,,,165.456,167.6547,0,1,1.6716,,0,51,51,72,1,73,0,castilian,,,,,,,,,,,,,,,,,,,,,,,,,,,,,,,,,,,,,,,,,,,,,,,,,,,,,,,,
,,,,,,,,,665fa1e8b8211326822c59a7,Spanish,13 or older,"no, only English or Spanish",no,2025-08-10_16h04.11.771,empathy_intonation_perc_control,2024.2.4,Win32,59.88023952,665fa1e8b8211326822c59a7,68817205a84113384fffdfe3,6898f9aba129496188814597,,,,,,,,,,,,./stim/wavs/mexican_mismatch_interrogative-total-yn_Mi-tia-odia-la-lluvia.wav,1,,,167.6553,170.0037,1,1,1.8163,,0,52,52,38,1,39,0,mexican,,,,,,,,,,,,,,,,,,,,,,,,,,,,,,,,,,,,,,,,,,,,,,,,,,,,,,,,
,,,,,,,,,665fa1e8b8211326822c59a7,Spanish,13 or older,"no, only English or Spanish",no,2025-08-10_16h04.11.771,empathy_intonation_perc_control,2024.2.4,Win32,59.88023952,665fa1e8b8211326822c59a7,68817205a84113384fffdfe3,6898f9aba129496188814597,,,,,,,,,,,,./stim/wavs/puertorican_mismatch_declarative-broad-focus_El-bebe-comia-muy-bien.wav,0,,,170.0045,172.736,0,1,2.2002,,0,53,53,83,1,84,0,puertorican,,,,,,,,,,,,,,,,,,,,,,,,,,,,,,,,,,,,,,,,,,,,,,,,,,,,,,,,
,,,,,,,,,665fa1e8b8211326822c59a7,Spanish,13 or older,"no, only English or Spanish",no,2025-08-10_16h04.11.771,empathy_intonation_perc_control,2024.2.4,Win32,59.88023952,665fa1e8b8211326822c59a7,68817205a84113384fffdfe3,6898f9aba129496188814597,,,,,,,,,,,,./stim/wavs/puertorican_match_interrogative-total-yn_Ana-lleva-el-abrigo.wav,1,,,172.7366,174.5691,1,1,1.3003,,0,54,54,18,1,19,1,puertorican,,,,,,,,,,,,,,,,,,,,,,,,,,,,,,,,,,,,,,,,,,,,,,,,,,,,,,,,
,,,,,,,,,665fa1e8b8211326822c59a7,Spanish,13 or older,"no, only English or Spanish",no,2025-08-10_16h04.11.771,empathy_intonation_perc_control,2024.2.4,Win32,59.88023952,665fa1e8b8211326822c59a7,68817205a84113384fffdfe3,6898f9aba129496188814597,,,,,,,,,,,,./stim/wavs/castilian_match_declarative-broad-focus_Marta-abre-el-regalo.wav,0,,,174.5701,176.7849,0,1,1.6842,,0,55,55,49,1,50,0,castilian,,,,,,,,,,,,,,,,,,,,,,,,,,,,,,,,,,,,,,,,,,,,,,,,,,,,,,,,
,,,,,,,,,665fa1e8b8211326822c59a7,Spanish,13 or older,"no, only English or Spanish",no,2025-08-10_16h04.11.771,empathy_intonation_perc_control,2024.2.4,Win32,59.88023952,665fa1e8b8211326822c59a7,68817205a84113384fffdfe3,6898f9aba129496188814597,,,,,,,,,,,,./stim/wavs/castilian_mismatch_declarative-broad-focus_Mi-novio-viene-del-lago.wav,0,,,176.7856,180.9517,0,1,3.6387,,0,56,56,71,1,72,0,castilian,,,,,,,,,,,,,,,,,,,,,,,,,,,,,,,,,,,,,,,,,,,,,,,,,,,,,,,,
,,,,,,,,,665fa1e8b8211326822c59a7,Spanish,13 or older,"no, only English or Spanish",no,2025-08-10_16h04.11.771,empathy_intonation_perc_control,2024.2.4,Win32,59.88023952,665fa1e8b8211326822c59a7,68817205a84113384fffdfe3,6898f9aba129496188814597,,,,,,,,,,,,./stim/wavs/mexican_mismatch_interrogative-total-yn_Mi-novio-viene-del-lago.wav,1,,,180.9575,183.0165,0,0,1.5329,,0,57,57,37,1,38,0,mexican,,,,,,,,,,,,,,,,,,,,,,,,,,,,,,,,,,,,,,,,,,,,,,,,,,,,,,,,
,,,,,,,,,665fa1e8b8211326822c59a7,Spanish,13 or older,"no, only English or Spanish",no,2025-08-10_16h04.11.771,empathy_intonation_perc_control,2024.2.4,Win32,59.88023952,665fa1e8b8211326822c59a7,68817205a84113384fffdfe3,6898f9aba129496188814597,,,,,,,,,,,,./stim/wavs/castilian_match_declarative-broad-focus_David-leia-el-libro.wav,0,,,183.018,185.182,0,1,1.6288,,0,58,58,44,1,45,0,castilian,,,,,,,,,,,,,,,,,,,,,,,,,,,,,,,,,,,,,,,,,,,,,,,,,,,,,,,,
,,,,,,,,,665fa1e8b8211326822c59a7,Spanish,13 or older,"no, only English or Spanish",no,2025-08-10_16h04.11.771,empathy_intonation_perc_control,2024.2.4,Win32,59.88023952,665fa1e8b8211326822c59a7,68817205a84113384fffdfe3,6898f9aba129496188814597,,,,,,,,,,,,./stim/wavs/mexican_match_interrogative-total-yn_Ana-lleva-el-abrigo.wav,1,,,185.1829,187.1484,1,1,1.4316,,0,59,59,12,1,13,0,mexican,,,,,,,,,,,,,,,,,,,,,,,,,,,,,,,,,,,,,,,,,,,,,,,,,,,,,,,,
,,,,,,,,,665fa1e8b8211326822c59a7,Spanish,13 or older,"no, only English or Spanish",no,2025-08-10_16h04.11.771,empathy_intonation_perc_control,2024.2.4,Win32,59.88023952,665fa1e8b8211326822c59a7,68817205a84113384fffdfe3,6898f9aba129496188814597,,,,,,,,,,,,./stim/wavs/puertorican_mismatch_interrogative-total-yn_La-maestra-vive-en-Paris.wav,1,,,187.1497,190.0473,1,1,2.3711,,0,60,60,41,1,42,1,puertorican,,,,,,,,,,,,,,,,,,,,,,,,,,,,,,,,,,,,,,,,,,,,,,,,,,,,,,,,
,,,,,,,,,665fa1e8b8211326822c59a7,Spanish,13 or older,"no, only English or Spanish",no,2025-08-10_16h04.11.771,empathy_intonation_perc_control,2024.2.4,Win32,59.88023952,665fa1e8b8211326822c59a7,68817205a84113384fffdfe3,6898f9aba129496188814597,,,,,,,,,,,,./stim/wavs/mexican_mismatch_declarative-broad-focus_El-hombre-mira-la-luna.wav,0,,,190.0481,192.2294,0,1,1.6512,,0,61,61,79,1,80,0,mexican,,,,,,,,,,,,,,,,,,,,,,,,,,,,,,,,,,,,,,,,,,,,,,,,,,,,,,,,
,,,,,,,,,665fa1e8b8211326822c59a7,Spanish,13 or older,"no, only English or Spanish",no,2025-08-10_16h04.11.771,empathy_intonation_perc_control,2024.2.4,Win32,59.88023952,665fa1e8b8211326822c59a7,68817205a84113384fffdfe3,6898f9aba129496188814597,,,,,,,,,,,,./stim/wavs/cuban_mismatch_interrogative-total-yn_Mi-madre-come-la-fruta.wav,1,,,192.2304,194.8788,0,0,2.1184,,0,62,62,31,1,32,1,cuban,,,,,,,,,,,,,,,,,,,,,,,,,,,,,,,,,,,,,,,,,,,,,,,,,,,,,,,,
,,,,,,,,,665fa1e8b8211326822c59a7,Spanish,13 or older,"no, only English or Spanish",no,2025-08-10_16h04.11.771,empathy_intonation_perc_control,2024.2.4,Win32,59.88023952,665fa1e8b8211326822c59a7,68817205a84113384fffdfe3,6898f9aba129496188814597,,,,,,,,,,,,./stim/wavs/puertorican_match_interrogative-total-yn_Emilio-ama-la-marcha.wav,1,,,194.8793,197.8943,0,0,2.4823,,0,63,63,21,1,22,1,puertorican,,,,,,,,,,,,,,,,,,,,,,,,,,,,,,,,,,,,,,,,,,,,,,,,,,,,,,,,
,,,,,,,,,665fa1e8b8211326822c59a7,Spanish,13 or older,"no, only English or Spanish",no,2025-08-10_16h04.11.771,empathy_intonation_perc_control,2024.2.4,Win32,59.88023952,665fa1e8b8211326822c59a7,68817205a84113384fffdfe3,6898f9aba129496188814597,,,,,,,,,,,,./stim/wavs/cuban_match_declarative-broad-focus_Ana-lleva-el-abrigo.wav,0,,,197.8949,200.0268,0,1,1.6024,,0,64,64,50,1,51,0,cuban,,,,,,,,,,,,,,,,,,,,,,,,,,,,,,,,,,,,,,,,,,,,,,,,,,,,,,,,
,,,,,,,,,665fa1e8b8211326822c59a7,Spanish,13 or older,"no, only English or Spanish",no,2025-08-10_16h04.11.771,empathy_intonation_perc_control,2024.2.4,Win32,59.88023952,665fa1e8b8211326822c59a7,68817205a84113384fffdfe3,6898f9aba129496188814597,,,,,,,,,,,,./stim/wavs/castilian_match_interrogative-total-yn_Maria-bebe-el-vino.wav,1,,,200.0276,203.4426,1,1,2.8833,,0,65,65,3,1,4,0,castilian,,,,,,,,,,,,,,,,,,,,,,,,,,,,,,,,,,,,,,,,,,,,,,,,,,,,,,,,
,,,,,,,,,665fa1e8b8211326822c59a7,Spanish,13 or older,"no, only English or Spanish",no,2025-08-10_16h04.11.771,empathy_intonation_perc_control,2024.2.4,Win32,59.88023952,665fa1e8b8211326822c59a7,68817205a84113384fffdfe3,6898f9aba129496188814597,,,,,,,,,,,,./stim/wavs/castilian_match_interrogative-total-yn_Mariano-habla-del-tiempo.wav,1,,,203.4448,205.7249,1,1,1.7495,,0,66,66,4,1,5,0,castilian,,,,,,,,,,,,,,,,,,,,,,,,,,,,,,,,,,,,,,,,,,,,,,,,,,,,,,,,
,,,,,,,,,665fa1e8b8211326822c59a7,Spanish,13 or older,"no, only English or Spanish",no,2025-08-10_16h04.11.771,empathy_intonation_perc_control,2024.2.4,Win32,59.88023952,665fa1e8b8211326822c59a7,68817205a84113384fffdfe3,6898f9aba129496188814597,,,,,,,,,,,,./stim/wavs/puertorican_mismatch_declarative-broad-focus_La-nina-lava-el-plato.wav,0,,,205.7257,210.6908,0,1,4.438,,0,67,67,87,1,88,0,puertorican,,,,,,,,,,,,,,,,,,,,,,,,,,,,,,,,,,,,,,,,,,,,,,,,,,,,,,,,
,,,,,,,,,665fa1e8b8211326822c59a7,Spanish,13 or older,"no, only English or Spanish",no,2025-08-10_16h04.11.771,empathy_intonation_perc_control,2024.2.4,Win32,59.88023952,665fa1e8b8211326822c59a7,68817205a84113384fffdfe3,6898f9aba129496188814597,,,,,,,,,,,,./stim/wavs/mexican_mismatch_interrogative-total-yn_El-hombre-mira-la-luna.wav,1,,,210.693,212.5899,1,1,1.3698,,0,68,68,34,1,35,0,mexican,,,,,,,,,,,,,,,,,,,,,,,,,,,,,,,,,,,,,,,,,,,,,,,,,,,,,,,,
,,,,,,,,,665fa1e8b8211326822c59a7,Spanish,13 or older,"no, only English or Spanish",no,2025-08-10_16h04.11.771,empathy_intonation_perc_control,2024.2.4,Win32,59.88023952,665fa1e8b8211326822c59a7,68817205a84113384fffdfe3,6898f9aba129496188814597,,,,,,,,,,,,./stim/wavs/puertorican_mismatch_interrogative-total-yn_El-hombre-mira-la-luna.wav,1,,,212.5922,214.739,1,1,1.6219,,0,69,69,39,1,40,1,puertorican,,,,,,,,,,,,,,,,,,,,,,,,,,,,,,,,,,,,,,,,,,,,,,,,,,,,,,,,
,,,,,,,,,665fa1e8b8211326822c59a7,Spanish,13 or older,"no, only English or Spanish",no,2025-08-10_16h04.11.771,empathy_intonation_perc_control,2024.2.4,Win32,59.88023952,665fa1e8b8211326822c59a7,68817205a84113384fffdfe3,6898f9aba129496188814597,,,,,,,,,,,,./stim/wavs/cuban_mismatch_interrogative-total-yn_Mi-novio-viene-del-lago.wav,1,,,214.7425,217.0545,1,1,1.7855,,0,70,70,32,1,33,1,cuban,,,,,,,,,,,,,,,,,,,,,,,,,,,,,,,,,,,,,,,,,,,,,,,,,,,,,,,,
,,,,,,,,,665fa1e8b8211326822c59a7,Spanish,13 or older,"no, only English or Spanish",no,2025-08-10_16h04.11.771,empathy_intonation_perc_control,2024.2.4,Win32,59.88023952,665fa1e8b8211326822c59a7,68817205a84113384fffdfe3,6898f9aba129496188814597,,,,,,,,,,,,./stim/wavs/cuban_mismatch_declarative-broad-focus_El-hombre-mira-la-luna.wav,0,,,217.0553,219.3369,0,1,1.7496,,0,71,71,74,1,75,0,cuban,,,,,,,,,,,,,,,,,,,,,,,,,,,,,,,,,,,,,,,,,,,,,,,,,,,,,,,,
,,,,,,,,,665fa1e8b8211326822c59a7,Spanish,13 or older,"no, only English or Spanish",no,2025-08-10_16h04.11.771,empathy_intonation_perc_control,2024.2.4,Win32,59.88023952,665fa1e8b8211326822c59a7,68817205a84113384fffdfe3,6898f9aba129496188814597,,,,,,,,,,,,./stim/wavs/castilian_mismatch_interrogative-total-yn_Mi-tia-odia-la-lluvia.wav,1,,,219.3375,221.703,1,1,1.8338,,0,72,72,28,1,29,0,castilian,,,,,,,,,,,,,,,,,,,,,,,,,,,,,,,,,,,,,,,,,,,,,,,,,,,,,,,,
,,,,,,,,,665fa1e8b8211326822c59a7,Spanish,13 or older,"no, only English or Spanish",no,2025-08-10_16h04.11.771,empathy_intonation_perc_control,2024.2.4,Win32,59.88023952,665fa1e8b8211326822c59a7,68817205a84113384fffdfe3,6898f9aba129496188814597,,,,,,,,,,,,./stim/wavs/puertorican_match_declarative-broad-focus_Ana-lleva-el-abrigo.wav,0,,,221.7042,224.6353,0,1,2.402,,0,73,73,62,1,63,0,puertorican,,,,,,,,,,,,,,,,,,,,,,,,,,,,,,,,,,,,,,,,,,,,,,,,,,,,,,,,
,,,,,,,,,665fa1e8b8211326822c59a7,Spanish,13 or older,"no, only English or Spanish",no,2025-08-10_16h04.11.771,empathy_intonation_perc_control,2024.2.4,Win32,59.88023952,665fa1e8b8211326822c59a7,68817205a84113384fffdfe3,6898f9aba129496188814597,,,,,,,,,,,,./stim/wavs/mexican_mismatch_declarative-broad-focus_El-bebe-comia-muy-bien.wav,0,,,224.6361,227.6508,1,0,2.4828,,0,74,74,78,1,79,0,mexican,,,,,,,,,,,,,,,,,,,,,,,,,,,,,,,,,,,,,,,,,,,,,,,,,,,,,,,,
,,,,,,,,,665fa1e8b8211326822c59a7,Spanish,13 or older,"no, only English or Spanish",no,2025-08-10_16h04.11.771,empathy_intonation_perc_control,2024.2.4,Win32,59.88023952,665fa1e8b8211326822c59a7,68817205a84113384fffdfe3,6898f9aba129496188814597,,,,,,,,,,,,./stim/wavs/castilian_match_interrogative-total-yn_Marta-abre-el-regalo.wav,1,,,227.6515,230.1185,1,1,1.9315,,0,75,75,5,1,6,0,castilian,,,,,,,,,,,,,,,,,,,,,,,,,,,,,,,,,,,,,,,,,,,,,,,,,,,,,,,,
,,,,,,,,,665fa1e8b8211326822c59a7,Spanish,13 or older,"no, only English or Spanish",no,2025-08-10_16h04.11.771,empathy_intonation_perc_control,2024.2.4,Win32,59.88023952,665fa1e8b8211326822c59a7,68817205a84113384fffdfe3,6898f9aba129496188814597,,,,,,,,,,,,./stim/wavs/puertorican_match_interrogative-total-yn_Daniel-iba-a-Bolivia.wav,1,,,230.1225,232.0333,1,1,1.383,,0,76,76,19,1,20,1,puertorican,,,,,,,,,,,,,,,,,,,,,,,,,,,,,,,,,,,,,,,,,,,,,,,,,,,,,,,,
,,,,,,,,,665fa1e8b8211326822c59a7,Spanish,13 or older,"no, only English or Spanish",no,2025-08-10_16h04.11.771,empathy_intonation_perc_control,2024.2.4,Win32,59.88023952,665fa1e8b8211326822c59a7,68817205a84113384fffdfe3,6898f9aba129496188814597,,,,,,,,,,,,./stim/wavs/puertorican_match_declarative-broad-focus_David-leia-el-libro.wav,0,,,232.0359,234.1819,0,1,1.6131,,0,77,77,64,1,65,0,puertorican,,,,,,,,,,,,,,,,,,,,,,,,,,,,,,,,,,,,,,,,,,,,,,,,,,,,,,,,
,,,,,,,,,665fa1e8b8211326822c59a7,Spanish,13 or older,"no, only English or Spanish",no,2025-08-10_16h04.11.771,empathy_intonation_perc_control,2024.2.4,Win32,59.88023952,665fa1e8b8211326822c59a7,68817205a84113384fffdfe3,6898f9aba129496188814597,,,,,,,,,,,,./stim/wavs/puertorican_match_declarative-broad-focus_Daniel-iba-a-Bolivia.wav,0,,,234.1828,236.5648,0,1,1.8492,,0,78,78,63,1,64,0,puertorican,,,,,,,,,,,,,,,,,,,,,,,,,,,,,,,,,,,,,,,,,,,,,,,,,,,,,,,,
,,,,,,,,,665fa1e8b8211326822c59a7,Spanish,13 or older,"no, only English or Spanish",no,2025-08-10_16h04.11.771,empathy_intonation_perc_control,2024.2.4,Win32,59.88023952,665fa1e8b8211326822c59a7,68817205a84113384fffdfe3,6898f9aba129496188814597,,,,,,,,,,,,./stim/wavs/puertorican_mismatch_interrogative-total-yn_El-nino-oye-el-rio.wav,1,,,236.5665,238.7973,1,1,1.6971,,0,79,79,40,1,41,1,puertorican,,,,,,,,,,,,,,,,,,,,,,,,,,,,,,,,,,,,,,,,,,,,,,,,,,,,,,,,
,,,,,,,,,665fa1e8b8211326822c59a7,Spanish,13 or older,"no, only English or Spanish",no,2025-08-10_16h04.11.771,empathy_intonation_perc_control,2024.2.4,Win32,59.88023952,665fa1e8b8211326822c59a7,68817205a84113384fffdfe3,6898f9aba129496188814597,,,,,,,,,,,,./stim/wavs/cuban_match_interrogative-total-yn_Marta-abre-el-regalo.wav,1,,,238.7983,241.1965,0,0,1.8739,,0,80,80,11,1,12,1,cuban,,,,,,,,,,,,,,,,,,,,,,,,,,,,,,,,,,,,,,,,,,,,,,,,,,,,,,,,
,,,,,,,,,665fa1e8b8211326822c59a7,Spanish,13 or older,"no, only English or Spanish",no,2025-08-10_16h04.11.771,empathy_intonation_perc_control,2024.2.4,Win32,59.88023952,665fa1e8b8211326822c59a7,68817205a84113384fffdfe3,6898f9aba129496188814597,,,,,,,,,,,,./stim/wavs/castilian_match_declarative-broad-focus_Mariano-habla-del-tiempo.wav,0,,,241.1984,243.8133,0,1,2.0874,,0,81,81,48,1,49,0,castilian,,,,,,,,,,,,,,,,,,,,,,,,,,,,,,,,,,,,,,,,,,,,,,,,,,,,,,,,
,,,,,,,,,665fa1e8b8211326822c59a7,Spanish,13 or older,"no, only English or Spanish",no,2025-08-10_16h04.11.771,empathy_intonation_perc_control,2024.2.4,Win32,59.88023952,665fa1e8b8211326822c59a7,68817205a84113384fffdfe3,6898f9aba129496188814597,,,,,,,,,,,,./stim/wavs/mexican_mismatch_interrogative-total-yn_La-maestra-vive-en-Paris.wav,1,,,243.8155,246.1612,1,1,1.819,,0,82,82,36,1,37,0,mexican,,,,,,,,,,,,,,,,,,,,,,,,,,,,,,,,,,,,,,,,,,,,,,,,,,,,,,,,
,,,,,,,,,665fa1e8b8211326822c59a7,Spanish,13 or older,"no, only English or Spanish",no,2025-08-10_16h04.11.771,empathy_intonation_perc_control,2024.2.4,Win32,59.88023952,665fa1e8b8211326822c59a7,68817205a84113384fffdfe3,6898f9aba129496188814597,,,,,,,,,,,,./stim/wavs/mexican_match_declarative-broad-focus_Daniel-iba-a-Bolivia.wav,0,,,246.1617,251.2326,0,1,4.5445,,0,83,83,57,1,58,0,mexican,,,,,,,,,,,,,,,,,,,,,,,,,,,,,,,,,,,,,,,,,,,,,,,,,,,,,,,,
,,,,,,,,,665fa1e8b8211326822c59a7,Spanish,13 or older,"no, only English or Spanish",no,2025-08-10_16h04.11.771,empathy_intonation_perc_control,2024.2.4,Win32,59.88023952,665fa1e8b8211326822c59a7,68817205a84113384fffdfe3,6898f9aba129496188814597,,,,,,,,,,,,./stim/wavs/mexican_match_interrogative-total-yn_Emilio-ama-la-marcha.wav,1,,,251.2354,253.9418,1,1,2.1818,,0,84,84,15,1,16,0,mexican,,,,,,,,,,,,,,,,,,,,,,,,,,,,,,,,,,,,,,,,,,,,,,,,,,,,,,,,
,,,,,,,,,665fa1e8b8211326822c59a7,Spanish,13 or older,"no, only English or Spanish",no,2025-08-10_16h04.11.771,empathy_intonation_perc_control,2024.2.4,Win32,59.88023952,665fa1e8b8211326822c59a7,68817205a84113384fffdfe3,6898f9aba129496188814597,,,,,,,,,,,,./stim/wavs/puertorican_mismatch_declarative-broad-focus_El-nino-oye-el-rio.wav,0,,,253.9426,256.2079,0,1,1.7351,,0,85,85,85,1,86,0,puertorican,,,,,,,,,,,,,,,,,,,,,,,,,,,,,,,,,,,,,,,,,,,,,,,,,,,,,,,,
,,,,,,,,,665fa1e8b8211326822c59a7,Spanish,13 or older,"no, only English or Spanish",no,2025-08-10_16h04.11.771,empathy_intonation_perc_control,2024.2.4,Win32,59.88023952,665fa1e8b8211326822c59a7,68817205a84113384fffdfe3,6898f9aba129496188814597,,,,,,,,,,,,./stim/wavs/mexican_match_interrogative-total-yn_Daniel-iba-a-Bolivia.wav,1,,,256.2086,258.5571,1,1,1.8203,,0,86,86,13,1,14,0,mexican,,,,,,,,,,,,,,,,,,,,,,,,,,,,,,,,,,,,,,,,,,,,,,,,,,,,,,,,
,,,,,,,,,665fa1e8b8211326822c59a7,Spanish,13 or older,"no, only English or Spanish",no,2025-08-10_16h04.11.771,empathy_intonation_perc_control,2024.2.4,Win32,59.88023952,665fa1e8b8211326822c59a7,68817205a84113384fffdfe3,6898f9aba129496188814597,,,,,,,,,,,,./stim/wavs/castilian_mismatch_interrogative-total-yn_La-maestra-vive-en-Paris.wav,1,,,258.558,260.9397,1,1,1.8556,,0,87,87,24,1,25,0,castilian,,,,,,,,,,,,,,,,,,,,,,,,,,,,,,,,,,,,,,,,,,,,,,,,,,,,,,,,
,,,,,,,"Great! Now we will move on. The next task consists of about 60 trials, in each of which you will see a string of letters. 
  
  Your task is to decide whether this is a real Spanish word or not.", (press the spacebar to continue),665fa1e8b8211326822c59a7,Spanish,13 or older,"no, only English or Spanish",no,2025-08-10_16h04.11.771,empathy_intonation_perc_control,2024.2.4,Win32,59.88023952,665fa1e8b8211326822c59a7,68817205a84113384fffdfe3,6898f9aba129496188814597,,,,,,,,,,,,,,,,,,,,,,,,,,,,,,260.9501,276.8014,0,0,0,0,1,,,,,,,,,,,,,,,,,,,,,,,,,,,,,,,,,,,,,,,,,,,,,,,,,
,,,,,,,"If you think it is an existing Spanish word, you type '1' (for 'REAL'), and if you think it is not an existing Spanish word, you type '0' (for 'FAKE').", (press the spacebar to continue),665fa1e8b8211326822c59a7,Spanish,13 or older,"no, only English or Spanish",no,2025-08-10_16h04.11.771,empathy_intonation_perc_control,2024.2.4,Win32,59.88023952,665fa1e8b8211326822c59a7,68817205a84113384fffdfe3,6898f9aba129496188814597,,,,,,,,,,,,,,,,,,,,,,,,,,,,,,276.8075,278.034,0,1,1,1,1,,,,,,,,,,,,,,,,,,,,,,,,,,,,,,,,,,,,,,,,,,,,,,,,,
,,,,,,,"If you are sure that the word exists, even though you don’t know its exact meaning, you may still respond '1' (REAL). 
  
  But if you are not sure if it is an existing word, you should respond '0' (FAKE).
  
  Let's do a practice round...", (press the spacebar to continue),665fa1e8b8211326822c59a7,Spanish,13 or older,"no, only English or Spanish",no,2025-08-10_16h04.11.771,empathy_intonation_perc_control,2024.2.4,Win32,59.88023952,665fa1e8b8211326822c59a7,68817205a84113384fffdfe3,6898f9aba129496188814597,,,,,,,,,,,,,,,,,,,,,,,,,,,,,,278.0397,279.7003,0,2,2,2,1,,,,,,,,,,,,,,,,,,,,,,,,,,,,,,,,,,,,,,,,,,,,,,,,,
,,,,,,,,,665fa1e8b8211326822c59a7,Spanish,13 or older,"no, only English or Spanish",no,2025-08-10_16h04.11.771,empathy_intonation_perc_control,2024.2.4,Win32,59.88023952,665fa1e8b8211326822c59a7,68817205a84113384fffdfe3,6898f9aba129496188814597,,,,,,,,,,,,,0,,,,,,,,,,,,,,,,,,,,,,,,279.7116,282.3999,0,1,2.1544,,282.4004,283.3994,0,0,0,0,1,0,depiste,REAL,FAKE,,,,,,,,,,,,,,,,,,,,,,,,,,,,,,,,
,,,,,,,,,665fa1e8b8211326822c59a7,Spanish,13 or older,"no, only English or Spanish",no,2025-08-10_16h04.11.771,empathy_intonation_perc_control,2024.2.4,Win32,59.88023952,665fa1e8b8211326822c59a7,68817205a84113384fffdfe3,6898f9aba129496188814597,,,,,,,,,,,,,1,,,,,,,,,,,,,,,,,,,,,,,,283.4048,284.7318,1,1,0.7953,,284.732,285.7312,0,1,1,1,1,0,sí,REAL,FAKE,,,,,,,,,,,,,,,,,,,,,,,,,,,,,,,,
,,,,,,,,,665fa1e8b8211326822c59a7,Spanish,13 or older,"no, only English or Spanish",no,2025-08-10_16h04.11.771,empathy_intonation_perc_control,2024.2.4,Win32,59.88023952,665fa1e8b8211326822c59a7,68817205a84113384fffdfe3,6898f9aba129496188814597,,,,,,,,,,,,,0,,,,,,,,,,,,,,,,,,,,,,,,285.7353,287.1471,1,0,0.8867,,287.1495,288.147,0,2,2,2,1,0,coné,REAL,FAKE,,,,,,,,,,,,,,,,,,,,,,,,,,,,,,,,
,,,,,,,,,665fa1e8b8211326822c59a7,Spanish,13 or older,"no, only English or Spanish",no,2025-08-10_16h04.11.771,empathy_intonation_perc_control,2024.2.4,Win32,59.88023952,665fa1e8b8211326822c59a7,68817205a84113384fffdfe3,6898f9aba129496188814597,,,,,,,,,,,,,0,,,,,,,,,,,,,,,,,,,,,,,,288.1493,289.6466,1,0,0.963,,289.6466,290.6466,0,3,3,3,1,0,calpar,REAL,FAKE,,,,,,,,,,,,,,,,,,,,,,,,,,,,,,,,
,,,,,,,,,665fa1e8b8211326822c59a7,Spanish,13 or older,"no, only English or Spanish",no,2025-08-10_16h04.11.771,empathy_intonation_perc_control,2024.2.4,Win32,59.88023952,665fa1e8b8211326822c59a7,68817205a84113384fffdfe3,6898f9aba129496188814597,,,,,,,,,,,,,0,,,,,,,,,,,,,,,,,,,,,,,,290.652,292.082,0,1,0.9023,,292.0859,293.0798,0,4,4,4,1,0,joten,REAL,FAKE,,,,,,,,,,,,,,,,,,,,,,,,,,,,,,,,
,,,,,,,,,665fa1e8b8211326822c59a7,Spanish,13 or older,"no, only English or Spanish",no,2025-08-10_16h04.11.771,empathy_intonation_perc_control,2024.2.4,Win32,59.88023952,665fa1e8b8211326822c59a7,68817205a84113384fffdfe3,6898f9aba129496188814597,,,,,,,,,,,,,1,,,,,,,,,,,,,,,,,,,,,,,,293.0861,294.8295,1,1,1.2024,,294.8298,295.83,0,5,5,5,1,0,sacapuntas,REAL,FAKE,,,,,,,,,,,,,,,,,,,,,,,,,,,,,,,,
,,,,,,,,,665fa1e8b8211326822c59a7,Spanish,13 or older,"no, only English or Spanish",no,2025-08-10_16h04.11.771,empathy_intonation_perc_control,2024.2.4,Win32,59.88023952,665fa1e8b8211326822c59a7,68817205a84113384fffdfe3,6898f9aba129496188814597,,,,,,,,,,,,,0,,,,,,,,,,,,,,,,,,,,,,,,295.838,297.9951,0,1,1.623,,297.9954,298.9944,0,6,6,6,1,0,priba,REAL,FAKE,,,,,,,,,,,,,,,,,,,,,,,,,,,,,,,,
,,,,,,,,,665fa1e8b8211326822c59a7,Spanish,13 or older,"no, only English or Spanish",no,2025-08-10_16h04.11.771,empathy_intonation_perc_control,2024.2.4,Win32,59.88023952,665fa1e8b8211326822c59a7,68817205a84113384fffdfe3,6898f9aba129496188814597,,,,,,,,,,,,,0,,,,,,,,,,,,,,,,,,,,,,,,299.0007,301.6283,0,1,2.0891,,301.6285,302.6264,0,7,7,7,1,0,pelasula,REAL,FAKE,,,,,,,,,,,,,,,,,,,,,,,,,,,,,,,,
,,,,,,,,,665fa1e8b8211326822c59a7,Spanish,13 or older,"no, only English or Spanish",no,2025-08-10_16h04.11.771,empathy_intonation_perc_control,2024.2.4,Win32,59.88023952,665fa1e8b8211326822c59a7,68817205a84113384fffdfe3,6898f9aba129496188814597,,,,,,,,,,,,,1,,,,,,,,,,,,,,,,,,,,,,,,302.6322,303.8269,1,1,0.6695,,303.8271,304.8247,0,8,8,8,1,0,bien,REAL,FAKE,,,,,,,,,,,,,,,,,,,,,,,,,,,,,,,,
,,,,,,,,,665fa1e8b8211326822c59a7,Spanish,13 or older,"no, only English or Spanish",no,2025-08-10_16h04.11.771,empathy_intonation_perc_control,2024.2.4,Win32,59.88023952,665fa1e8b8211326822c59a7,68817205a84113384fffdfe3,6898f9aba129496188814597,,,,,,,,,,,,,1,,,,,,,,,,,,,,,,,,,,,,,,304.827,306.0932,1,1,0.7212,,306.0934,307.0921,0,9,9,9,1,0,casa,REAL,FAKE,,,,,,,,,,,,,,,,,,,,,,,,,,,,,,,,
,,,,,,,,,665fa1e8b8211326822c59a7,Spanish,13 or older,"no, only English or Spanish",no,2025-08-10_16h04.11.771,empathy_intonation_perc_control,2024.2.4,Win32,59.88023952,665fa1e8b8211326822c59a7,68817205a84113384fffdfe3,6898f9aba129496188814597,,,,,,,,,,,,,0,,,,,,,,,,,,,,,,,,,,,,,,307.0988,310.4578,0,1,2.833,,310.458,311.4571,0,10,10,10,1,0,lejo,REAL,FAKE,,,,,,,,,,,,,,,,,,,,,,,,,,,,,,,,
,,,,,,,,,665fa1e8b8211326822c59a7,Spanish,13 or older,"no, only English or Spanish",no,2025-08-10_16h04.11.771,empathy_intonation_perc_control,2024.2.4,Win32,59.88023952,665fa1e8b8211326822c59a7,68817205a84113384fffdfe3,6898f9aba129496188814597,,,,,,,,,,,,,0,,,,,,,,,,,,,,,,,,,,,,,,311.463,313.8057,0,1,1.8038,,313.8058,314.8062,0,11,11,11,1,0,pretantas,REAL,FAKE,,,,,,,,,,,,,,,,,,,,,,,,,,,,,,,,
,,,,,,,,,665fa1e8b8211326822c59a7,Spanish,13 or older,"no, only English or Spanish",no,2025-08-10_16h04.11.771,empathy_intonation_perc_control,2024.2.4,Win32,59.88023952,665fa1e8b8211326822c59a7,68817205a84113384fffdfe3,6898f9aba129496188814597,,,,,,,,,,,,,,,,,,,,,,,,,,,,,,,,,,,,,,,,,,,,,,,,,,,,,,314.8078,315.9611,,,,,,,,,,,,,,,,,,,,,,,,,,,,,,
,,,,,,,,,665fa1e8b8211326822c59a7,Spanish,13 or older,"no, only English or Spanish",no,2025-08-10_16h04.11.771,empathy_intonation_perc_control,2024.2.4,Win32,59.88023952,665fa1e8b8211326822c59a7,68817205a84113384fffdfe3,6898f9aba129496188814597,,,,,,,,,,,,,1,,,,,,,,,,,,,,,,,,,,,,,,,,,,,,,,,,,,,56,musgo,,,,,315.9803,317.4804,0,0,0.9696,,0,0,0,55,1,REAL,FAKE,,,,,,,,,,,,,,,,,
,,,,,,,,,665fa1e8b8211326822c59a7,Spanish,13 or older,"no, only English or Spanish",no,2025-08-10_16h04.11.771,empathy_intonation_perc_control,2024.2.4,Win32,59.88023952,665fa1e8b8211326822c59a7,68817205a84113384fffdfe3,6898f9aba129496188814597,,,,,,,,,,,,,0,,,,,,,,,,,,,,,,,,,,,,,,,,,,,,,,,,,,,29,decar,,,,,317.4828,319.1391,0,1,1.1229,,0,1,1,28,1,REAL,FAKE,,,,,,,,,,,,,,,,,
,,,,,,,,,665fa1e8b8211326822c59a7,Spanish,13 or older,"no, only English or Spanish",no,2025-08-10_16h04.11.771,empathy_intonation_perc_control,2024.2.4,Win32,59.88023952,665fa1e8b8211326822c59a7,68817205a84113384fffdfe3,6898f9aba129496188814597,,,,,,,,,,,,,1,,,,,,,,,,,,,,,,,,,,,,,,,,,,,,,,,,,,,5,zapato,,,,,319.1475,320.3744,1,1,0.6919,,0,2,2,4,1,REAL,FAKE,,,,,,,,,,,,,,,,,
,,,,,,,,,665fa1e8b8211326822c59a7,Spanish,13 or older,"no, only English or Spanish",no,2025-08-10_16h04.11.771,empathy_intonation_perc_control,2024.2.4,Win32,59.88023952,665fa1e8b8211326822c59a7,68817205a84113384fffdfe3,6898f9aba129496188814597,,,,,,,,,,,,,1,,,,,,,,,,,,,,,,,,,,,,,,,,,,,,,,,,,,,31,pandilla,,,,,320.3799,321.7208,1,1,0.8082,,0,3,3,30,1,REAL,FAKE,,,,,,,,,,,,,,,,,
,,,,,,,,,665fa1e8b8211326822c59a7,Spanish,13 or older,"no, only English or Spanish",no,2025-08-10_16h04.11.771,empathy_intonation_perc_control,2024.2.4,Win32,59.88023952,665fa1e8b8211326822c59a7,68817205a84113384fffdfe3,6898f9aba129496188814597,,,,,,,,,,,,,1,,,,,,,,,,,,,,,,,,,,,,,,,,,,,,,,,,,,,59,besar,,,,,321.7261,322.9206,1,1,0.6647,,0,4,4,58,1,REAL,FAKE,,,,,,,,,,,,,,,,,
,,,,,,,,,665fa1e8b8211326822c59a7,Spanish,13 or older,"no, only English or Spanish",no,2025-08-10_16h04.11.771,empathy_intonation_perc_control,2024.2.4,Win32,59.88023952,665fa1e8b8211326822c59a7,68817205a84113384fffdfe3,6898f9aba129496188814597,,,,,,,,,,,,,1,,,,,,,,,,,,,,,,,,,,,,,,,,,,,,,,,,,,,15,regar,,,,,322.9276,324.0856,1,1,0.6301,,0,5,5,14,1,REAL,FAKE,,,,,,,,,,,,,,,,,
,,,,,,,,,665fa1e8b8211326822c59a7,Spanish,13 or older,"no, only English or Spanish",no,2025-08-10_16h04.11.771,empathy_intonation_perc_control,2024.2.4,Win32,59.88023952,665fa1e8b8211326822c59a7,68817205a84113384fffdfe3,6898f9aba129496188814597,,,,,,,,,,,,,0,,,,,,,,,,,,,,,,,,,,,,,,,,,,,,,,,,,,,74,cintro,,,,,324.0898,325.2184,1,0,0.6003,,0,6,6,73,1,REAL,FAKE,,,,,,,,,,,,,,,,,
,,,,,,,,,665fa1e8b8211326822c59a7,Spanish,13 or older,"no, only English or Spanish",no,2025-08-10_16h04.11.771,empathy_intonation_perc_control,2024.2.4,Win32,59.88023952,665fa1e8b8211326822c59a7,68817205a84113384fffdfe3,6898f9aba129496188814597,,,,,,,,,,,,,1,,,,,,,,,,,,,,,,,,,,,,,,,,,,,,,,,,,,,34,aviso,,,,,325.224,326.3681,1,1,0.6148,,0,7,7,33,1,REAL,FAKE,,,,,,,,,,,,,,,,,
,,,,,,,,,665fa1e8b8211326822c59a7,Spanish,13 or older,"no, only English or Spanish",no,2025-08-10_16h04.11.771,empathy_intonation_perc_control,2024.2.4,Win32,59.88023952,665fa1e8b8211326822c59a7,68817205a84113384fffdfe3,6898f9aba129496188814597,,,,,,,,,,,,,0,,,,,,,,,,,,,,,,,,,,,,,,,,,,,,,,,,,,,35,rompido,,,,,326.3724,328.4003,1,0,1.496,,0,8,8,34,1,REAL,FAKE,,,,,,,,,,,,,,,,,
,,,,,,,,,665fa1e8b8211326822c59a7,Spanish,13 or older,"no, only English or Spanish",no,2025-08-10_16h04.11.771,empathy_intonation_perc_control,2024.2.4,Win32,59.88023952,665fa1e8b8211326822c59a7,68817205a84113384fffdfe3,6898f9aba129496188814597,,,,,,,,,,,,,1,,,,,,,,,,,,,,,,,,,,,,,,,,,,,,,,,,,,,71,polvoriento,,,,,328.4037,329.8839,0,0,0.9482,,0,9,9,70,1,REAL,FAKE,,,,,,,,,,,,,,,,,
,,,,,,,,,665fa1e8b8211326822c59a7,Spanish,13 or older,"no, only English or Spanish",no,2025-08-10_16h04.11.771,empathy_intonation_perc_control,2024.2.4,Win32,59.88023952,665fa1e8b8211326822c59a7,68817205a84113384fffdfe3,6898f9aba129496188814597,,,,,,,,,,,,,1,,,,,,,,,,,,,,,,,,,,,,,,,,,,,,,,,,,,,54,fomentar,,,,,329.8903,331.317,1,1,0.8885,,0,10,10,53,1,REAL,FAKE,,,,,,,,,,,,,,,,,
,,,,,,,,,665fa1e8b8211326822c59a7,Spanish,13 or older,"no, only English or Spanish",no,2025-08-10_16h04.11.771,empathy_intonation_perc_control,2024.2.4,Win32,59.88023952,665fa1e8b8211326822c59a7,68817205a84113384fffdfe3,6898f9aba129496188814597,,,,,,,,,,,,,0,,,,,,,,,,,,,,,,,,,,,,,,,,,,,,,,,,,,,21,capillo,,,,,331.3234,332.6662,0,1,0.8093,,0,11,11,20,1,REAL,FAKE,,,,,,,,,,,,,,,,,
,,,,,,,,,665fa1e8b8211326822c59a7,Spanish,13 or older,"no, only English or Spanish",no,2025-08-10_16h04.11.771,empathy_intonation_perc_control,2024.2.4,Win32,59.88023952,665fa1e8b8211326822c59a7,68817205a84113384fffdfe3,6898f9aba129496188814597,,,,,,,,,,,,,1,,,,,,,,,,,,,,,,,,,,,,,,,,,,,,,,,,,,,20,ávido,,,,,332.6733,334.1497,0,0,0.9404,,0,12,12,19,1,REAL,FAKE,,,,,,,,,,,,,,,,,
,,,,,,,,,665fa1e8b8211326822c59a7,Spanish,13 or older,"no, only English or Spanish",no,2025-08-10_16h04.11.771,empathy_intonation_perc_control,2024.2.4,Win32,59.88023952,665fa1e8b8211326822c59a7,68817205a84113384fffdfe3,6898f9aba129496188814597,,,,,,,,,,,,,0,,,,,,,,,,,,,,,,,,,,,,,,,,,,,,,,,,,,,58,plaudir,,,,,334.1548,335.7543,0,1,1.0677,,0,13,13,57,1,REAL,FAKE,,,,,,,,,,,,,,,,,
,,,,,,,,,665fa1e8b8211326822c59a7,Spanish,13 or older,"no, only English or Spanish",no,2025-08-10_16h04.11.771,empathy_intonation_perc_control,2024.2.4,Win32,59.88023952,665fa1e8b8211326822c59a7,68817205a84113384fffdfe3,6898f9aba129496188814597,,,,,,,,,,,,,1,,,,,,,,,,,,,,,,,,,,,,,,,,,,,,,,,,,,,38,estornudar,,,,,335.7584,337.0347,0,0,0.7436,,0,14,14,37,1,REAL,FAKE,,,,,,,,,,,,,,,,,
,,,,,,,,,665fa1e8b8211326822c59a7,Spanish,13 or older,"no, only English or Spanish",no,2025-08-10_16h04.11.771,empathy_intonation_perc_control,2024.2.4,Win32,59.88023952,665fa1e8b8211326822c59a7,68817205a84113384fffdfe3,6898f9aba129496188814597,,,,,,,,,,,,,0,,,,,,,,,,,,,,,,,,,,,,,,,,,,,,,,,,,,,33,pauca,,,,,337.0392,338.281,0,1,0.708,,0,15,15,32,1,REAL,FAKE,,,,,,,,,,,,,,,,,
,,,,,,,,,665fa1e8b8211326822c59a7,Spanish,13 or older,"no, only English or Spanish",no,2025-08-10_16h04.11.771,empathy_intonation_perc_control,2024.2.4,Win32,59.88023952,665fa1e8b8211326822c59a7,68817205a84113384fffdfe3,6898f9aba129496188814597,,,,,,,,,,,,,1,,,,,,,,,,,,,,,,,,,,,,,,,,,,,,,,,,,,,81,pozo,,,,,338.285,339.7014,0,0,0.8744,,0,16,16,80,1,REAL,FAKE,,,,,,,,,,,,,,,,,
,,,,,,,,,665fa1e8b8211326822c59a7,Spanish,13 or older,"no, only English or Spanish",no,2025-08-10_16h04.11.771,empathy_intonation_perc_control,2024.2.4,Win32,59.88023952,665fa1e8b8211326822c59a7,68817205a84113384fffdfe3,6898f9aba129496188814597,,,,,,,,,,,,,0,,,,,,,,,,,,,,,,,,,,,,,,,,,,,,,,,,,,,8,cadeña,,,,,339.7063,341.0858,1,0,0.8427,,0,17,17,7,1,REAL,FAKE,,,,,,,,,,,,,,,,,
,,,,,,,,,665fa1e8b8211326822c59a7,Spanish,13 or older,"no, only English or Spanish",no,2025-08-10_16h04.11.771,empathy_intonation_perc_control,2024.2.4,Win32,59.88023952,665fa1e8b8211326822c59a7,68817205a84113384fffdfe3,6898f9aba129496188814597,,,,,,,,,,,,,0,,,,,,,,,,,,,,,,,,,,,,,,,,,,,,,,,,,,,18,arsa,,,,,341.0912,342.4317,0,1,0.8058,,0,18,18,17,1,REAL,FAKE,,,,,,,,,,,,,,,,,
,,,,,,,,,665fa1e8b8211326822c59a7,Spanish,13 or older,"no, only English or Spanish",no,2025-08-10_16h04.11.771,empathy_intonation_perc_control,2024.2.4,Win32,59.88023952,665fa1e8b8211326822c59a7,68817205a84113384fffdfe3,6898f9aba129496188814597,,,,,,,,,,,,,1,,,,,,,,,,,,,,,,,,,,,,,,,,,,,,,,,,,,,49,ganar,,,,,342.4361,343.7128,1,1,0.7399,,0,19,19,48,1,REAL,FAKE,,,,,,,,,,,,,,,,,
,,,,,,,,,665fa1e8b8211326822c59a7,Spanish,13 or older,"no, only English or Spanish",no,2025-08-10_16h04.11.771,empathy_intonation_perc_control,2024.2.4,Win32,59.88023952,665fa1e8b8211326822c59a7,68817205a84113384fffdfe3,6898f9aba129496188814597,,,,,,,,,,,,,1,,,,,,,,,,,,,,,,,,,,,,,,,,,,,,,,,,,,,86,barato,,,,,343.7179,345.0464,0,0,0.7868,,0,20,20,85,1,REAL,FAKE,,,,,,,,,,,,,,,,,
,,,,,,,,,665fa1e8b8211326822c59a7,Spanish,13 or older,"no, only English or Spanish",no,2025-08-10_16h04.11.771,empathy_intonation_perc_control,2024.2.4,Win32,59.88023952,665fa1e8b8211326822c59a7,68817205a84113384fffdfe3,6898f9aba129496188814597,,,,,,,,,,,,,1,,,,,,,,,,,,,,,,,,,,,,,,,,,,,,,,,,,,,25,bisagra,,,,,345.0521,346.8126,0,0,1.2295,,0,21,21,24,1,REAL,FAKE,,,,,,,,,,,,,,,,,
,,,,,,,,,665fa1e8b8211326822c59a7,Spanish,13 or older,"no, only English or Spanish",no,2025-08-10_16h04.11.771,empathy_intonation_perc_control,2024.2.4,Win32,59.88023952,665fa1e8b8211326822c59a7,68817205a84113384fffdfe3,6898f9aba129496188814597,,,,,,,,,,,,,0,,,,,,,,,,,,,,,,,,,,,,,,,,,,,,,,,,,,,84,escuto,,,,,346.8167,348.1441,0,1,0.7837,,0,22,22,83,1,REAL,FAKE,,,,,,,,,,,,,,,,,
,,,,,,,,,665fa1e8b8211326822c59a7,Spanish,13 or older,"no, only English or Spanish",no,2025-08-10_16h04.11.771,empathy_intonation_perc_control,2024.2.4,Win32,59.88023952,665fa1e8b8211326822c59a7,68817205a84113384fffdfe3,6898f9aba129496188814597,,,,,,,,,,,,,1,,,,,,,,,,,,,,,,,,,,,,,,,,,,,,,,,,,,,65,bizcocho,,,,,348.1484,350.8428,1,1,2.1594,,0,23,23,64,1,REAL,FAKE,,,,,,,,,,,,,,,,,
,,,,,,,,,665fa1e8b8211326822c59a7,Spanish,13 or older,"no, only English or Spanish",no,2025-08-10_16h04.11.771,empathy_intonation_perc_control,2024.2.4,Win32,59.88023952,665fa1e8b8211326822c59a7,68817205a84113384fffdfe3,6898f9aba129496188814597,,,,,,,,,,,,,1,,,,,,,,,,,,,,,,,,,,,,,,,,,,,,,,,,,,,80,hormiga,,,,,350.8465,352.2426,0,0,0.8627,,0,24,24,79,1,REAL,FAKE,,,,,,,,,,,,,,,,,
,,,,,,,,,665fa1e8b8211326822c59a7,Spanish,13 or older,"no, only English or Spanish",no,2025-08-10_16h04.11.771,empathy_intonation_perc_control,2024.2.4,Win32,59.88023952,665fa1e8b8211326822c59a7,68817205a84113384fffdfe3,6898f9aba129496188814597,,,,,,,,,,,,,1,,,,,,,,,,,,,,,,,,,,,,,,,,,,,,,,,,,,,88,acantilado,,,,,352.2465,354.9916,0,0,2.2125,,0,25,25,87,1,REAL,FAKE,,,,,,,,,,,,,,,,,
,,,,,,,,,665fa1e8b8211326822c59a7,Spanish,13 or older,"no, only English or Spanish",no,2025-08-10_16h04.11.771,empathy_intonation_perc_control,2024.2.4,Win32,59.88023952,665fa1e8b8211326822c59a7,68817205a84113384fffdfe3,6898f9aba129496188814597,,,,,,,,,,,,,0,,,,,,,,,,,,,,,,,,,,,,,,,,,,,,,,,,,,,63,esposante,,,,,354.9951,356.6579,0,1,1.1306,,0,26,26,62,1,REAL,FAKE,,,,,,,,,,,,,,,,,
,,,,,,,,,665fa1e8b8211326822c59a7,Spanish,13 or older,"no, only English or Spanish",no,2025-08-10_16h04.11.771,empathy_intonation_perc_control,2024.2.4,Win32,59.88023952,665fa1e8b8211326822c59a7,68817205a84113384fffdfe3,6898f9aba129496188814597,,,,,,,,,,,,,1,,,,,,,,,,,,,,,,,,,,,,,,,,,,,,,,,,,,,67,cabello,,,,,356.6631,357.8736,1,1,0.6796,,0,27,27,66,1,REAL,FAKE,,,,,,,,,,,,,,,,,
,,,,,,,,,665fa1e8b8211326822c59a7,Spanish,13 or older,"no, only English or Spanish",no,2025-08-10_16h04.11.771,empathy_intonation_perc_control,2024.2.4,Win32,59.88023952,665fa1e8b8211326822c59a7,68817205a84113384fffdfe3,6898f9aba129496188814597,,,,,,,,,,,,,1,,,,,,,,,,,,,,,,,,,,,,,,,,,,,,,,,,,,,57,tacaño,,,,,357.8769,359.1278,0,0,0.7201,,0,28,28,56,1,REAL,FAKE,,,,,,,,,,,,,,,,,
,,,,,,,,,665fa1e8b8211326822c59a7,Spanish,13 or older,"no, only English or Spanish",no,2025-08-10_16h04.11.771,empathy_intonation_perc_control,2024.2.4,Win32,59.88023952,665fa1e8b8211326822c59a7,68817205a84113384fffdfe3,6898f9aba129496188814597,,,,,,,,,,,,,1,,,,,,,,,,,,,,,,,,,,,,,,,,,,,,,,,,,,,41,rebuscar,,,,,359.1305,360.5896,1,1,0.9302,,0,29,29,40,1,REAL,FAKE,,,,,,,,,,,,,,,,,
,,,,,,,,,665fa1e8b8211326822c59a7,Spanish,13 or older,"no, only English or Spanish",no,2025-08-10_16h04.11.771,empathy_intonation_perc_control,2024.2.4,Win32,59.88023952,665fa1e8b8211326822c59a7,68817205a84113384fffdfe3,6898f9aba129496188814597,,,,,,,,,,,,,0,,,,,,,,,,,,,,,,,,,,,,,,,,,,,,,,,,,,,47,cartinar,,,,,360.5931,361.8735,0,1,0.7494,,0,30,30,46,1,REAL,FAKE,,,,,,,,,,,,,,,,,
,,,,,,,,,665fa1e8b8211326822c59a7,Spanish,13 or older,"no, only English or Spanish",no,2025-08-10_16h04.11.771,empathy_intonation_perc_control,2024.2.4,Win32,59.88023952,665fa1e8b8211326822c59a7,68817205a84113384fffdfe3,6898f9aba129496188814597,,,,,,,,,,,,,1,,,,,,,,,,,,,,,,,,,,,,,,,,,,,,,,,,,,,91,click the 1 key.,,,,,361.8813,363.6062,1,1,1.1918,,0,31,31,90,1,REAL,FAKE,,,,,,,,,,,,,,,,,
,,,,,,,,,665fa1e8b8211326822c59a7,Spanish,13 or older,"no, only English or Spanish",no,2025-08-10_16h04.11.771,empathy_intonation_perc_control,2024.2.4,Win32,59.88023952,665fa1e8b8211326822c59a7,68817205a84113384fffdfe3,6898f9aba129496188814597,,,,,,,,,,,,,1,,,,,,,,,,,,,,,,,,,,,,,,,,,,,,,,,,,,,69,engatusar,,,,,363.6114,364.9724,0,0,0.8295,,0,32,32,68,1,REAL,FAKE,,,,,,,,,,,,,,,,,
,,,,,,,,,665fa1e8b8211326822c59a7,Spanish,13 or older,"no, only English or Spanish",no,2025-08-10_16h04.11.771,empathy_intonation_perc_control,2024.2.4,Win32,59.88023952,665fa1e8b8211326822c59a7,68817205a84113384fffdfe3,6898f9aba129496188814597,,,,,,,,,,,,,0,,,,,,,,,,,,,,,,,,,,,,,,,,,,,,,,,,,,,1,terzo,,,,,364.9766,367.6547,1,0,2.1429,,0,33,33,0,1,REAL,FAKE,,,,,,,,,,,,,,,,,
,,,,,,,,,665fa1e8b8211326822c59a7,Spanish,13 or older,"no, only English or Spanish",no,2025-08-10_16h04.11.771,empathy_intonation_perc_control,2024.2.4,Win32,59.88023952,665fa1e8b8211326822c59a7,68817205a84113384fffdfe3,6898f9aba129496188814597,,,,,,,,,,,,,1,,,,,,,,,,,,,,,,,,,,,,,,,,,,,,,,,,,,,14,yunque,,,,,367.6613,369.1873,1,1,0.9995,,0,34,34,13,1,REAL,FAKE,,,,,,,,,,,,,,,,,
,,,,,,,,,665fa1e8b8211326822c59a7,Spanish,13 or older,"no, only English or Spanish",no,2025-08-10_16h04.11.771,empathy_intonation_perc_control,2024.2.4,Win32,59.88023952,665fa1e8b8211326822c59a7,68817205a84113384fffdfe3,6898f9aba129496188814597,,,,,,,,,,,,,1,,,,,,,,,,,,,,,,,,,,,,,,,,,,,,,,,,,,,77,tiburón,,,,,369.1933,371.1187,1,1,1.3972,,0,35,35,76,1,REAL,FAKE,,,,,,,,,,,,,,,,,
,,,,,,,,,665fa1e8b8211326822c59a7,Spanish,13 or older,"no, only English or Spanish",no,2025-08-10_16h04.11.771,empathy_intonation_perc_control,2024.2.4,Win32,59.88023952,665fa1e8b8211326822c59a7,68817205a84113384fffdfe3,6898f9aba129496188814597,,,,,,,,,,,,,1,,,,,,,,,,,,,,,,,,,,,,,,,,,,,,,,,,,,,89,prisa,,,,,371.1213,372.452,0,0,0.7957,,0,36,36,88,1,REAL,FAKE,,,,,,,,,,,,,,,,,
,,,,,,,,,665fa1e8b8211326822c59a7,Spanish,13 or older,"no, only English or Spanish",no,2025-08-10_16h04.11.771,empathy_intonation_perc_control,2024.2.4,Win32,59.88023952,665fa1e8b8211326822c59a7,68817205a84113384fffdfe3,6898f9aba129496188814597,,,,,,,,,,,,,0,,,,,,,,,,,,,,,,,,,,,,,,,,,,,,,,,,,,,87,grodo,,,,,372.4549,374.0547,0,1,1.0689,,0,37,37,86,1,REAL,FAKE,,,,,,,,,,,,,,,,,
,,,,,,,,,665fa1e8b8211326822c59a7,Spanish,13 or older,"no, only English or Spanish",no,2025-08-10_16h04.11.771,empathy_intonation_perc_control,2024.2.4,Win32,59.88023952,665fa1e8b8211326822c59a7,68817205a84113384fffdfe3,6898f9aba129496188814597,,,,,,,,,,,,,1,,,,,,,,,,,,,,,,,,,,,,,,,,,,,,,,,,,,,51,candado,,,,,374.0577,375.5524,1,1,0.9691,,0,38,38,50,1,REAL,FAKE,,,,,,,,,,,,,,,,,
,,,,,,,,,665fa1e8b8211326822c59a7,Spanish,13 or older,"no, only English or Spanish",no,2025-08-10_16h04.11.771,empathy_intonation_perc_control,2024.2.4,Win32,59.88023952,665fa1e8b8211326822c59a7,68817205a84113384fffdfe3,6898f9aba129496188814597,,,,,,,,,,,,,0,,,,,,,,,,,,,,,,,,,,,,,,,,,,,,,,,,,,,50,flamida,,,,,375.5573,376.9178,0,1,0.8331,,0,39,39,49,1,REAL,FAKE,,,,,,,,,,,,,,,,,
,,,,,,,,,665fa1e8b8211326822c59a7,Spanish,13 or older,"no, only English or Spanish",no,2025-08-10_16h04.11.771,empathy_intonation_perc_control,2024.2.4,Win32,59.88023952,665fa1e8b8211326822c59a7,68817205a84113384fffdfe3,6898f9aba129496188814597,,,,,,,,,,,,,1,,,,,,,,,,,,,,,,,,,,,,,,,,,,,,,,,,,,,55,nevar,,,,,376.9236,378.0699,1,1,0.6153,,0,40,40,54,1,REAL,FAKE,,,,,,,,,,,,,,,,,
,,,,,,,,,665fa1e8b8211326822c59a7,Spanish,13 or older,"no, only English or Spanish",no,2025-08-10_16h04.11.771,empathy_intonation_perc_control,2024.2.4,Win32,59.88023952,665fa1e8b8211326822c59a7,68817205a84113384fffdfe3,6898f9aba129496188814597,,,,,,,,,,,,,1,,,,,,,,,,,,,,,,,,,,,,,,,,,,,,,,,,,,,43,canela,,,,,378.0739,379.322,1,1,0.722,,0,41,41,42,1,REAL,FAKE,,,,,,,,,,,,,,,,,
,,,,,,,,,665fa1e8b8211326822c59a7,Spanish,13 or older,"no, only English or Spanish",no,2025-08-10_16h04.11.771,empathy_intonation_perc_control,2024.2.4,Win32,59.88023952,665fa1e8b8211326822c59a7,68817205a84113384fffdfe3,6898f9aba129496188814597,,,,,,,,,,,,,1,,,,,,,,,,,,,,,,,,,,,,,,,,,,,,,,,,,,,60,matar,,,,,379.3265,380.4344,1,1,0.5812,,0,42,42,59,1,REAL,FAKE,,,,,,,,,,,,,,,,,
,,,,,,,,,665fa1e8b8211326822c59a7,Spanish,13 or older,"no, only English or Spanish",no,2025-08-10_16h04.11.771,empathy_intonation_perc_control,2024.2.4,Win32,59.88023952,665fa1e8b8211326822c59a7,68817205a84113384fffdfe3,6898f9aba129496188814597,,,,,,,,,,,,,1,,,,,,,,,,,,,,,,,,,,,,,,,,,,,,,,,,,,,2,pellizcar,,,,,380.4391,381.9326,0,0,0.9641,,0,43,43,1,1,REAL,FAKE,,,,,,,,,,,,,,,,,
,,,,,,,,,665fa1e8b8211326822c59a7,Spanish,13 or older,"no, only English or Spanish",no,2025-08-10_16h04.11.771,empathy_intonation_perc_control,2024.2.4,Win32,59.88023952,665fa1e8b8211326822c59a7,68817205a84113384fffdfe3,6898f9aba129496188814597,,,,,,,,,,,,,0,,,,,,,,,,,,,,,,,,,,,,,,,,,,,,,,,,,,,79,tropaje,,,,,381.9385,383.2657,0,1,0.7666,,0,44,44,78,1,REAL,FAKE,,,,,,,,,,,,,,,,,
,,,,,,,,,665fa1e8b8211326822c59a7,Spanish,13 or older,"no, only English or Spanish",no,2025-08-10_16h04.11.771,empathy_intonation_perc_control,2024.2.4,Win32,59.88023952,665fa1e8b8211326822c59a7,68817205a84113384fffdfe3,6898f9aba129496188814597,,,,,,,,,,,,,1,,,,,,,,,,,,,,,,,,,,,,,,,,,,,,,,,,,,,28,merodear,,,,,383.2708,384.6141,0,0,0.8121,,0,45,45,27,1,REAL,FAKE,,,,,,,,,,,,,,,,,
,,,,,,,,,665fa1e8b8211326822c59a7,Spanish,13 or older,"no, only English or Spanish",no,2025-08-10_16h04.11.771,empathy_intonation_perc_control,2024.2.4,Win32,59.88023952,665fa1e8b8211326822c59a7,68817205a84113384fffdfe3,6898f9aba129496188814597,,,,,,,,,,,,,1,,,,,,,,,,,,,,,,,,,,,,,,,,,,,,,,,,,,,24,látigo,,,,,384.6177,386.014,0,0,0.8647,,0,46,46,23,1,REAL,FAKE,,,,,,,,,,,,,,,,,
,,,,,,,,,665fa1e8b8211326822c59a7,Spanish,13 or older,"no, only English or Spanish",no,2025-08-10_16h04.11.771,empathy_intonation_perc_control,2024.2.4,Win32,59.88023952,665fa1e8b8211326822c59a7,68817205a84113384fffdfe3,6898f9aba129496188814597,,,,,,,,,,,,,1,,,,,,,,,,,,,,,,,,,,,,,,,,,,,,,,,,,,,73,hervidor,,,,,386.0163,387.2642,0,0,0.7165,,0,47,47,72,1,REAL,FAKE,,,,,,,,,,,,,,,,,
,,,,,,,,,665fa1e8b8211326822c59a7,Spanish,13 or older,"no, only English or Spanish",no,2025-08-10_16h04.11.771,empathy_intonation_perc_control,2024.2.4,Win32,59.88023952,665fa1e8b8211326822c59a7,68817205a84113384fffdfe3,6898f9aba129496188814597,,,,,,,,,,,,,0,,,,,,,,,,,,,,,,,,,,,,,,,,,,,,,,,,,,,32,fatacidad,,,,,387.2678,390.963,0,1,3.1656,,0,48,48,31,1,REAL,FAKE,,,,,,,,,,,,,,,,,
,,,,,,,,,665fa1e8b8211326822c59a7,Spanish,13 or older,"no, only English or Spanish",no,2025-08-10_16h04.11.771,empathy_intonation_perc_control,2024.2.4,Win32,59.88023952,665fa1e8b8211326822c59a7,68817205a84113384fffdfe3,6898f9aba129496188814597,,,,,,,,,,,,,1,,,,,,,,,,,,,,,,,,,,,,,,,,,,,,,,,,,,,36,loro,,,,,390.9689,392.3626,1,1,0.8655,,0,49,49,35,1,REAL,FAKE,,,,,,,,,,,,,,,,,
,,,,,,,,,665fa1e8b8211326822c59a7,Spanish,13 or older,"no, only English or Spanish",no,2025-08-10_16h04.11.771,empathy_intonation_perc_control,2024.2.4,Win32,59.88023952,665fa1e8b8211326822c59a7,68817205a84113384fffdfe3,6898f9aba129496188814597,,,,,,,,,,,,,1,,,,,,,,,,,,,,,,,,,,,,,,,,,,,,,,,,,,,7,pésimo,,,,,392.3668,394.0622,1,1,1.1607,,0,50,50,6,1,REAL,FAKE,,,,,,,,,,,,,,,,,
,,,,,,,,,665fa1e8b8211326822c59a7,Spanish,13 or older,"no, only English or Spanish",no,2025-08-10_16h04.11.771,empathy_intonation_perc_control,2024.2.4,Win32,59.88023952,665fa1e8b8211326822c59a7,68817205a84113384fffdfe3,6898f9aba129496188814597,,,,,,,,,,,,,0,,,,,,,,,,,,,,,,,,,,,,,,,,,,,,,,,,,,,27,acutación,,,,,394.0668,396.3151,1,0,1.717,,0,51,51,26,1,REAL,FAKE,,,,,,,,,,,,,,,,,
,,,,,,,,,665fa1e8b8211326822c59a7,Spanish,13 or older,"no, only English or Spanish",no,2025-08-10_16h04.11.771,empathy_intonation_perc_control,2024.2.4,Win32,59.88023952,665fa1e8b8211326822c59a7,68817205a84113384fffdfe3,6898f9aba129496188814597,,,,,,,,,,,,,0,,,,,,,,,,,,,,,,,,,,,,,,,,,,,,,,,,,,,23,lampera,,,,,396.3191,397.9599,1,0,1.1103,,0,52,52,22,1,REAL,FAKE,,,,,,,,,,,,,,,,,
,,,,,,,,,665fa1e8b8211326822c59a7,Spanish,13 or older,"no, only English or Spanish",no,2025-08-10_16h04.11.771,empathy_intonation_perc_control,2024.2.4,Win32,59.88023952,665fa1e8b8211326822c59a7,68817205a84113384fffdfe3,6898f9aba129496188814597,,,,,,,,,,,,,1,,,,,,,,,,,,,,,,,,,,,,,,,,,,,,,,,,,,,39,torpe,,,,,397.9629,399.0935,1,1,0.5882,,0,53,53,38,1,REAL,FAKE,,,,,,,,,,,,,,,,,
,,,,,,,,,665fa1e8b8211326822c59a7,Spanish,13 or older,"no, only English or Spanish",no,2025-08-10_16h04.11.771,empathy_intonation_perc_control,2024.2.4,Win32,59.88023952,665fa1e8b8211326822c59a7,68817205a84113384fffdfe3,6898f9aba129496188814597,,,,,,,,,,,,,1,,,,,,,,,,,,,,,,,,,,,,,,,,,,,,,,,,,,,3,pulmones,,,,,399.0976,400.3933,1,1,0.762,,0,54,54,2,1,REAL,FAKE,,,,,,,,,,,,,,,,,
,,,,,,,,,665fa1e8b8211326822c59a7,Spanish,13 or older,"no, only English or Spanish",no,2025-08-10_16h04.11.771,empathy_intonation_perc_control,2024.2.4,Win32,59.88023952,665fa1e8b8211326822c59a7,68817205a84113384fffdfe3,6898f9aba129496188814597,,,,,,,,,,,,,0,,,,,,,,,,,,,,,,,,,,,,,,,,,,,,,,,,,,,72,pemición,,,,,400.3986,402.0092,0,1,1.079,,0,55,55,71,1,REAL,FAKE,,,,,,,,,,,,,,,,,
,,,,,,,,,665fa1e8b8211326822c59a7,Spanish,13 or older,"no, only English or Spanish",no,2025-08-10_16h04.11.771,empathy_intonation_perc_control,2024.2.4,Win32,59.88023952,665fa1e8b8211326822c59a7,68817205a84113384fffdfe3,6898f9aba129496188814597,,,,,,,,,,,,,0,,,,,,,,,,,,,,,,,,,,,,,,,,,,,,,,,,,,,10,antar,,,,,402.014,403.5249,0,1,0.9774,,0,56,56,9,1,REAL,FAKE,,,,,,,,,,,,,,,,,
,,,,,,,,,665fa1e8b8211326822c59a7,Spanish,13 or older,"no, only English or Spanish",no,2025-08-10_16h04.11.771,empathy_intonation_perc_control,2024.2.4,Win32,59.88023952,665fa1e8b8211326822c59a7,68817205a84113384fffdfe3,6898f9aba129496188814597,,,,,,,,,,,,,1,,,,,,,,,,,,,,,,,,,,,,,,,,,,,,,,,,,,,85,laúd,,,,,403.5308,405.1086,0,0,1.0455,,0,57,57,84,1,REAL,FAKE,,,,,,,,,,,,,,,,,
,,,,,,,,,665fa1e8b8211326822c59a7,Spanish,13 or older,"no, only English or Spanish",no,2025-08-10_16h04.11.771,empathy_intonation_perc_control,2024.2.4,Win32,59.88023952,665fa1e8b8211326822c59a7,68817205a84113384fffdfe3,6898f9aba129496188814597,,,,,,,,,,,,,1,,,,,,,,,,,,,,,,,,,,,,,,,,,,,,,,,,,,,37,granuja,,,,,405.1138,406.5246,1,1,0.8795,,0,58,58,36,1,REAL,FAKE,,,,,,,,,,,,,,,,,
,,,,,,,,,665fa1e8b8211326822c59a7,Spanish,13 or older,"no, only English or Spanish",no,2025-08-10_16h04.11.771,empathy_intonation_perc_control,2024.2.4,Win32,59.88023952,665fa1e8b8211326822c59a7,68817205a84113384fffdfe3,6898f9aba129496188814597,,,,,,,,,,,,,0,,,,,,,,,,,,,,,,,,,,,,,,,,,,,,,,,,,,,66,hacido,,,,,406.5314,407.8561,1,0,0.7925,,0,59,59,65,1,REAL,FAKE,,,,,,,,,,,,,,,,,
,,,,,,,,,665fa1e8b8211326822c59a7,Spanish,13 or older,"no, only English or Spanish",no,2025-08-10_16h04.11.771,empathy_intonation_perc_control,2024.2.4,Win32,59.88023952,665fa1e8b8211326822c59a7,68817205a84113384fffdfe3,6898f9aba129496188814597,,,,,,,,,,,,,0,,,,,,,,,,,,,,,,,,,,,,,,,,,,,,,,,,,,,17,floroso,,,,,407.8582,409.2734,1,0,0.8799,,0,60,60,16,1,REAL,FAKE,,,,,,,,,,,,,,,,,
,,,,,,,,,665fa1e8b8211326822c59a7,Spanish,13 or older,"no, only English or Spanish",no,2025-08-10_16h04.11.771,empathy_intonation_perc_control,2024.2.4,Win32,59.88023952,665fa1e8b8211326822c59a7,68817205a84113384fffdfe3,6898f9aba129496188814597,,,,,,,,,,,,,1,,,,,,,,,,,,,,,,,,,,,,,,,,,,,,,,,,,,,90,clavel,,,,,409.2781,410.5401,0,0,0.7323,,0,61,61,89,1,REAL,FAKE,,,,,,,,,,,,,,,,,
,,,,,,,,,665fa1e8b8211326822c59a7,Spanish,13 or older,"no, only English or Spanish",no,2025-08-10_16h04.11.771,empathy_intonation_perc_control,2024.2.4,Win32,59.88023952,665fa1e8b8211326822c59a7,68817205a84113384fffdfe3,6898f9aba129496188814597,,,,,,,,,,,,,1,,,,,,,,,,,,,,,,,,,,,,,,,,,,,,,,,,,,,9,hacha,,,,,410.5468,412.2882,1,1,1.2093,,0,62,62,8,1,REAL,FAKE,,,,,,,,,,,,,,,,,
,,,,,,,,,665fa1e8b8211326822c59a7,Spanish,13 or older,"no, only English or Spanish",no,2025-08-10_16h04.11.771,empathy_intonation_perc_control,2024.2.4,Win32,59.88023952,665fa1e8b8211326822c59a7,68817205a84113384fffdfe3,6898f9aba129496188814597,,,,,,,,,,,,,1,,,,,,,,,,,,,,,,,,,,,,,,,,,,,,,,,,,,,52,camisa,,,,,412.2906,413.4719,1,1,0.6464,,0,63,63,51,1,REAL,FAKE,,,,,,,,,,,,,,,,,
,,,,,,,,,665fa1e8b8211326822c59a7,Spanish,13 or older,"no, only English or Spanish",no,2025-08-10_16h04.11.771,empathy_intonation_perc_control,2024.2.4,Win32,59.88023952,665fa1e8b8211326822c59a7,68817205a84113384fffdfe3,6898f9aba129496188814597,,,,,,,,,,,,,1,,,,,,,,,,,,,,,,,,,,,,,,,,,,,,,,,,,,,26,secuestro,,,,,413.4755,414.7377,0,0,0.7322,,0,64,64,25,1,REAL,FAKE,,,,,,,,,,,,,,,,,
,,,,,,,,,665fa1e8b8211326822c59a7,Spanish,13 or older,"no, only English or Spanish",no,2025-08-10_16h04.11.771,empathy_intonation_perc_control,2024.2.4,Win32,59.88023952,665fa1e8b8211326822c59a7,68817205a84113384fffdfe3,6898f9aba129496188814597,,,,,,,,,,,,,0,,,,,,,,,,,,,,,,,,,,,,,,,,,,,,,,,,,,,82,empirador,,,,,414.7406,416.7705,1,0,1.4982,,0,65,65,81,1,REAL,FAKE,,,,,,,,,,,,,,,,,
,,,,,,,,,665fa1e8b8211326822c59a7,Spanish,13 or older,"no, only English or Spanish",no,2025-08-10_16h04.11.771,empathy_intonation_perc_control,2024.2.4,Win32,59.88023952,665fa1e8b8211326822c59a7,68817205a84113384fffdfe3,6898f9aba129496188814597,,,,,,,,,,,,,1,,,,,,,,,,,,,,,,,,,,,,,,,,,,,,,,,,,,,76,atar,,,,,416.7743,418.0201,0,0,0.7113,,0,66,66,75,1,REAL,FAKE,,,,,,,,,,,,,,,,,
,,,,,,,,,665fa1e8b8211326822c59a7,Spanish,13 or older,"no, only English or Spanish",no,2025-08-10_16h04.11.771,empathy_intonation_perc_control,2024.2.4,Win32,59.88023952,665fa1e8b8211326822c59a7,68817205a84113384fffdfe3,6898f9aba129496188814597,,,,,,,,,,,,,1,,,,,,,,,,,,,,,,,,,,,,,,,,,,,,,,,,,,,22,lacayo,,,,,418.0235,419.3706,0,0,0.8124,,0,67,67,21,1,REAL,FAKE,,,,,,,,,,,,,,,,,
,,,,,,,,,665fa1e8b8211326822c59a7,Spanish,13 or older,"no, only English or Spanish",no,2025-08-10_16h04.11.771,empathy_intonation_perc_control,2024.2.4,Win32,59.88023952,665fa1e8b8211326822c59a7,68817205a84113384fffdfe3,6898f9aba129496188814597,,,,,,,,,,,,,1,,,,,,,,,,,,,,,,,,,,,,,,,,,,,,,,,,,,,13,helar,,,,,419.3751,420.7204,1,1,0.8135,,0,68,68,12,1,REAL,FAKE,,,,,,,,,,,,,,,,,
,,,,,,,,,665fa1e8b8211326822c59a7,Spanish,13 or older,"no, only English or Spanish",no,2025-08-10_16h04.11.771,empathy_intonation_perc_control,2024.2.4,Win32,59.88023952,665fa1e8b8211326822c59a7,68817205a84113384fffdfe3,6898f9aba129496188814597,,,,,,,,,,,,,1,,,,,,,,,,,,,,,,,,,,,,,,,,,,,,,,,,,,,46,martillo,,,,,420.7262,422.0526,1,1,0.7953,,0,69,69,45,1,REAL,FAKE,,,,,,,,,,,,,,,,,
,,,,,,,,,665fa1e8b8211326822c59a7,Spanish,13 or older,"no, only English or Spanish",no,2025-08-10_16h04.11.771,empathy_intonation_perc_control,2024.2.4,Win32,59.88023952,665fa1e8b8211326822c59a7,68817205a84113384fffdfe3,6898f9aba129496188814597,,,,,,,,,,,,,1,,,,,,,,,,,,,,,,,,,,,,,,,,,,,,,,,,,,,83,guante,,,,,422.0568,423.3183,1,1,0.7325,,0,70,70,82,1,REAL,FAKE,,,,,,,,,,,,,,,,,
,,,,,,,,,665fa1e8b8211326822c59a7,Spanish,13 or older,"no, only English or Spanish",no,2025-08-10_16h04.11.771,empathy_intonation_perc_control,2024.2.4,Win32,59.88023952,665fa1e8b8211326822c59a7,68817205a84113384fffdfe3,6898f9aba129496188814597,,,,,,,,,,,,,0,,,,,,,,,,,,,,,,,,,,,,,,,,,,,,,,,,,,,42,cadallo,,,,,423.3233,424.719,0,1,0.8631,,0,71,71,41,1,REAL,FAKE,,,,,,,,,,,,,,,,,
,,,,,,,,,665fa1e8b8211326822c59a7,Spanish,13 or older,"no, only English or Spanish",no,2025-08-10_16h04.11.771,empathy_intonation_perc_control,2024.2.4,Win32,59.88023952,665fa1e8b8211326822c59a7,68817205a84113384fffdfe3,6898f9aba129496188814597,,,,,,,,,,,,,0,,,,,,,,,,,,,,,,,,,,,,,,,,,,,,,,,,,,,19,brecedad,,,,,424.7233,426.0503,0,1,0.7944,,0,72,72,18,1,REAL,FAKE,,,,,,,,,,,,,,,,,
,,,,,,,,,665fa1e8b8211326822c59a7,Spanish,13 or older,"no, only English or Spanish",no,2025-08-10_16h04.11.771,empathy_intonation_perc_control,2024.2.4,Win32,59.88023952,665fa1e8b8211326822c59a7,68817205a84113384fffdfe3,6898f9aba129496188814597,,,,,,,,,,,,,1,,,,,,,,,,,,,,,,,,,,,,,,,,,,,,,,,,,,,12,asesinato,,,,,426.0525,427.9002,1,1,1.3141,,0,73,73,11,1,REAL,FAKE,,,,,,,,,,,,,,,,,
,,,,,,,,,665fa1e8b8211326822c59a7,Spanish,13 or older,"no, only English or Spanish",no,2025-08-10_16h04.11.771,empathy_intonation_perc_control,2024.2.4,Win32,59.88023952,665fa1e8b8211326822c59a7,68817205a84113384fffdfe3,6898f9aba129496188814597,,,,,,,,,,,,,1,,,,,,,,,,,,,,,,,,,,,,,,,,,,,,,,,,,,,48,ladrón,,,,,427.9048,429.4497,1,1,1.0044,,0,74,74,47,1,REAL,FAKE,,,,,,,,,,,,,,,,,
,,,,,,,,,665fa1e8b8211326822c59a7,Spanish,13 or older,"no, only English or Spanish",no,2025-08-10_16h04.11.771,empathy_intonation_perc_control,2024.2.4,Win32,59.88023952,665fa1e8b8211326822c59a7,68817205a84113384fffdfe3,6898f9aba129496188814597,,,,,,,,,,,,,1,,,,,,,,,,,,,,,,,,,,,,,,,,,,,,,,,,,,,40,alfombra,,,,,429.4539,433.9367,0,0,3.9519,,0,75,75,39,1,REAL,FAKE,,,,,,,,,,,,,,,,,
,,,,,,,,,665fa1e8b8211326822c59a7,Spanish,13 or older,"no, only English or Spanish",no,2025-08-10_16h04.11.771,empathy_intonation_perc_control,2024.2.4,Win32,59.88023952,665fa1e8b8211326822c59a7,68817205a84113384fffdfe3,6898f9aba129496188814597,,,,,,,,,,,,,1,,,,,,,,,,,,,,,,,,,,,,,,,,,,,,,,,,,,,75,yacer,,,,,433.9394,435.9227,0,0,1.4475,,0,76,76,74,1,REAL,FAKE,,,,,,,,,,,,,,,,,
,,,,,,,,,665fa1e8b8211326822c59a7,Spanish,13 or older,"no, only English or Spanish",no,2025-08-10_16h04.11.771,empathy_intonation_perc_control,2024.2.4,Win32,59.88023952,665fa1e8b8211326822c59a7,68817205a84113384fffdfe3,6898f9aba129496188814597,,,,,,,,,,,,,0,,,,,,,,,,,,,,,,,,,,,,,,,,,,,,,,,,,,,4,batillón,,,,,435.9256,437.3489,1,0,0.8899,,0,77,77,3,1,REAL,FAKE,,,,,,,,,,,,,,,,,
,,,,,,,,,665fa1e8b8211326822c59a7,Spanish,13 or older,"no, only English or Spanish",no,2025-08-10_16h04.11.771,empathy_intonation_perc_control,2024.2.4,Win32,59.88023952,665fa1e8b8211326822c59a7,68817205a84113384fffdfe3,6898f9aba129496188814597,,,,,,,,,,,,,1,,,,,,,,,,,,,,,,,,,,,,,,,,,,,,,,,,,,,45,jilguero,,,,,437.3551,438.6795,0,0,0.7855,,0,78,78,44,1,REAL,FAKE,,,,,,,,,,,,,,,,,
,,,,,,,,,665fa1e8b8211326822c59a7,Spanish,13 or older,"no, only English or Spanish",no,2025-08-10_16h04.11.771,empathy_intonation_perc_control,2024.2.4,Win32,59.88023952,665fa1e8b8211326822c59a7,68817205a84113384fffdfe3,6898f9aba129496188814597,,,,,,,,,,,,,1,,,,,,,,,,,,,,,,,,,,,,,,,,,,,,,,,,,,,64,orgulloso,,,,,438.6828,439.9126,1,1,0.6978,,0,79,79,63,1,REAL,FAKE,,,,,,,,,,,,,,,,,
,,,,,,,,,665fa1e8b8211326822c59a7,Spanish,13 or older,"no, only English or Spanish",no,2025-08-10_16h04.11.771,empathy_intonation_perc_control,2024.2.4,Win32,59.88023952,665fa1e8b8211326822c59a7,68817205a84113384fffdfe3,6898f9aba129496188814597,,,,,,,,,,,,,0,,,,,,,,,,,,,,,,,,,,,,,,,,,,,,,,,,,,,30,alardio,,,,,439.9156,441.3286,0,1,0.874,,0,80,80,29,1,REAL,FAKE,,,,,,,,,,,,,,,,,
,,,,,,,,,665fa1e8b8211326822c59a7,Spanish,13 or older,"no, only English or Spanish",no,2025-08-10_16h04.11.771,empathy_intonation_perc_control,2024.2.4,Win32,59.88023952,665fa1e8b8211326822c59a7,68817205a84113384fffdfe3,6898f9aba129496188814597,,,,,,,,,,,,,1,,,,,,,,,,,,,,,,,,,,,,,,,,,,,,,,,,,,,6,tergiversar,,,,,441.3336,442.599,0,0,0.7218,,0,81,81,5,1,REAL,FAKE,,,,,,,,,,,,,,,,,
,,,,,,,,,665fa1e8b8211326822c59a7,Spanish,13 or older,"no, only English or Spanish",no,2025-08-10_16h04.11.771,empathy_intonation_perc_control,2024.2.4,Win32,59.88023952,665fa1e8b8211326822c59a7,68817205a84113384fffdfe3,6898f9aba129496188814597,,,,,,,,,,,,,1,,,,,,,,,,,,,,,,,,,,,,,,,,,,,,,,,,,,,61,seda,,,,,442.6042,443.9134,0,0,0.78,,0,82,82,60,1,REAL,FAKE,,,,,,,,,,,,,,,,,
,,,,,,,,,665fa1e8b8211326822c59a7,Spanish,13 or older,"no, only English or Spanish",no,2025-08-10_16h04.11.771,empathy_intonation_perc_control,2024.2.4,Win32,59.88023952,665fa1e8b8211326822c59a7,68817205a84113384fffdfe3,6898f9aba129496188814597,,,,,,,,,,,,,1,,,,,,,,,,,,,,,,,,,,,,,,,,,,,,,,,,,,,68,alegre,,,,,443.9214,445.6107,0,0,1.1637,,0,83,83,67,1,REAL,FAKE,,,,,,,,,,,,,,,,,
,,,,,,,,,665fa1e8b8211326822c59a7,Spanish,13 or older,"no, only English or Spanish",no,2025-08-10_16h04.11.771,empathy_intonation_perc_control,2024.2.4,Win32,59.88023952,665fa1e8b8211326822c59a7,68817205a84113384fffdfe3,6898f9aba129496188814597,,,,,,,,,,,,,0,,,,,,,,,,,,,,,,,,,,,,,,,,,,,,,,,,,,,53,vegada,,,,,445.6147,447.0764,0,1,0.9315,,0,84,84,52,1,REAL,FAKE,,,,,,,,,,,,,,,,,
,,,,,,,,,665fa1e8b8211326822c59a7,Spanish,13 or older,"no, only English or Spanish",no,2025-08-10_16h04.11.771,empathy_intonation_perc_control,2024.2.4,Win32,59.88023952,665fa1e8b8211326822c59a7,68817205a84113384fffdfe3,6898f9aba129496188814597,,,,,,,,,,,,,0,,,,,,,,,,,,,,,,,,,,,,,,,,,,,,,,,,,,,70,temblo,,,,,447.0784,448.2314,0,1,0.6255,,0,85,85,69,1,REAL,FAKE,,,,,,,,,,,,,,,,,
,,,,,,,,,665fa1e8b8211326822c59a7,Spanish,13 or older,"no, only English or Spanish",no,2025-08-10_16h04.11.771,empathy_intonation_perc_control,2024.2.4,Win32,59.88023952,665fa1e8b8211326822c59a7,68817205a84113384fffdfe3,6898f9aba129496188814597,,,,,,,,,,,,,0,,,,,,,,,,,,,,,,,,,,,,,,,,,,,,,,,,,,,92,click the 0 key.,,,,,448.2356,449.6771,0,1,0.9125,,0,86,86,91,1,REAL,FAKE,,,,,,,,,,,,,,,,,
,,,,,,,,,665fa1e8b8211326822c59a7,Spanish,13 or older,"no, only English or Spanish",no,2025-08-10_16h04.11.771,empathy_intonation_perc_control,2024.2.4,Win32,59.88023952,665fa1e8b8211326822c59a7,68817205a84113384fffdfe3,6898f9aba129496188814597,,,,,,,,,,,,,0,,,,,,,,,,,,,,,,,,,,,,,,,,,,,,,,,,,,,16,abracer,,,,,449.6822,451.1429,0,1,0.9307,,0,87,87,15,1,REAL,FAKE,,,,,,,,,,,,,,,,,
,,,,,,,,,665fa1e8b8211326822c59a7,Spanish,13 or older,"no, only English or Spanish",no,2025-08-10_16h04.11.771,empathy_intonation_perc_control,2024.2.4,Win32,59.88023952,665fa1e8b8211326822c59a7,68817205a84113384fffdfe3,6898f9aba129496188814597,,,,,,,,,,,,,1,,,,,,,,,,,,,,,,,,,,,,,,,,,,,,,,,,,,,78,frondoso,,,,,451.1492,452.3919,0,0,0.7144,,0,88,88,77,1,REAL,FAKE,,,,,,,,,,,,,,,,,
,,,,,,,,,665fa1e8b8211326822c59a7,Spanish,13 or older,"no, only English or Spanish",no,2025-08-10_16h04.11.771,empathy_intonation_perc_control,2024.2.4,Win32,59.88023952,665fa1e8b8211326822c59a7,68817205a84113384fffdfe3,6898f9aba129496188814597,,,,,,,,,,,,,1,,,,,,,,,,,,,,,,,,,,,,,,,,,,,,,,,,,,,11,cenefa,,,,,452.3956,453.8082,0,0,0.8772,,0,89,89,10,1,REAL,FAKE,,,,,,,,,,,,,,,,,
,,,,,,,,,665fa1e8b8211326822c59a7,Spanish,13 or older,"no, only English or Spanish",no,2025-08-10_16h04.11.771,empathy_intonation_perc_control,2024.2.4,Win32,59.88023952,665fa1e8b8211326822c59a7,68817205a84113384fffdfe3,6898f9aba129496188814597,,,,,,,,,,,,,1,,,,,,,,,,,,,,,,,,,,,,,,,,,,,,,,,,,,,62,flaco,,,,,453.8145,455.0744,1,1,0.7297,,0,90,90,61,1,REAL,FAKE,,,,,,,,,,,,,,,,,
,,,,,,,,,665fa1e8b8211326822c59a7,Spanish,13 or older,"no, only English or Spanish",no,2025-08-10_16h04.11.771,empathy_intonation_perc_control,2024.2.4,Win32,59.88023952,665fa1e8b8211326822c59a7,68817205a84113384fffdfe3,6898f9aba129496188814597,,,,,,,,,,,,,1,,,,,,,,,,,,,,,,,,,,,,,,,,,,,,,,,,,,,44,cuchara,,,,,455.079,459.0733,1,1,3.4623,,0,91,91,43,1,REAL,FAKE,,,,,,,,,,,,,,,,,
,,,,,,,,,665fa1e8b8211326822c59a7,Spanish,13 or older,"no, only English or Spanish",no,2025-08-10_16h04.11.771,empathy_intonation_perc_control,2024.2.4,Win32,59.88023952,665fa1e8b8211326822c59a7,68817205a84113384fffdfe3,6898f9aba129496188814597,,,,,,,,,,,,,,,,,,,,,,,,,,,,,,,,,,,,,,,,,,,,,,,,,,,,,,,,,,,,,,,,,,,,,459.0747,593.4377,,,,,,,,,,,,,,,
,,,,,,,,,665fa1e8b8211326822c59a7,Spanish,13 or older,"no, only English or Spanish",no,2025-08-10_16h04.11.771,empathy_intonation_perc_control,2024.2.4,Win32,59.88023952,665fa1e8b8211326822c59a7,68817205a84113384fffdfe3,6898f9aba129496188814597,,,,,,,,,,,,,,,,,,,,,,,,,,,1,,,,,,,,,,,,,,,,,,,,,,,,,,,,,,,,,,,,,,,,,,,,593.465,599.5253,strongly agree,0,0,0,0,1,I can easily tell if someone else wants to enter a conversation.,1,0,1,0,,
,,,,,,,,,665fa1e8b8211326822c59a7,Spanish,13 or older,"no, only English or Spanish",no,2025-08-10_16h04.11.771,empathy_intonation_perc_control,2024.2.4,Win32,59.88023952,665fa1e8b8211326822c59a7,68817205a84113384fffdfe3,6898f9aba129496188814597,,,,,,,,,,,,,,,,,,,,,,,,,,,2,,,,,,,,,,,,,,,,,,,,,,,,,,,,,,,,,,,,,,,,,,,,599.5316,603.7066,strongly disagree,0,1,1,1,1,I prefer animals to humans.,0,1,0,0,,
,,,,,,,,,665fa1e8b8211326822c59a7,Spanish,13 or older,"no, only English or Spanish",no,2025-08-10_16h04.11.771,empathy_intonation_perc_control,2024.2.4,Win32,59.88023952,665fa1e8b8211326822c59a7,68817205a84113384fffdfe3,6898f9aba129496188814597,,,,,,,,,,,,,,,,,,,,,,,,,,,3,,,,,,,,,,,,,,,,,,,,,,,,,,,,,,,,,,,,,,,,,,,,603.7126,609.3182,slightly disagree,0,2,2,2,1,I try to keep up with the current trends and fashions.,0,1,0,0,,
,,,,,,,,,665fa1e8b8211326822c59a7,Spanish,13 or older,"no, only English or Spanish",no,2025-08-10_16h04.11.771,empathy_intonation_perc_control,2024.2.4,Win32,59.88023952,665fa1e8b8211326822c59a7,68817205a84113384fffdfe3,6898f9aba129496188814597,,,,,,,,,,,,,,,,,,,,,,,,,,,4,,,,,,,,,,,,,,,,,,,,,,,,,,,,,,,,,,,,,,,,,,,,609.3282,616.2024,slightly agree,0,3,3,3,1,"I find it difficult to explain to others things that I understand easily,   when they don't understand it first time.",1,0,0,1,,
,,,,,,,,,665fa1e8b8211326822c59a7,Spanish,13 or older,"no, only English or Spanish",no,2025-08-10_16h04.11.771,empathy_intonation_perc_control,2024.2.4,Win32,59.88023952,665fa1e8b8211326822c59a7,68817205a84113384fffdfe3,6898f9aba129496188814597,,,,,,,,,,,,,,,,,,,,,,,,,,,5,,,,,,,,,,,,,,,,,,,,,,,,,,,,,,,,,,,,,,,,,,,,616.2057,619.4366,slightly disagree,0,4,4,4,1,I dream most nights.,0,1,0,0,,
,,,,,,,,,665fa1e8b8211326822c59a7,Spanish,13 or older,"no, only English or Spanish",no,2025-08-10_16h04.11.771,empathy_intonation_perc_control,2024.2.4,Win32,59.88023952,665fa1e8b8211326822c59a7,68817205a84113384fffdfe3,6898f9aba129496188814597,,,,,,,,,,,,,,,,,,,,,,,,,,,6,,,,,,,,,,,,,,,,,,,,,,,,,,,,,,,,,,,,,,,,,,,,619.439,624.6338,slightly agree,0,5,5,5,1,I really enjoy caring for other people.,1,0,1,0,,
,,,,,,,,,665fa1e8b8211326822c59a7,Spanish,13 or older,"no, only English or Spanish",no,2025-08-10_16h04.11.771,empathy_intonation_perc_control,2024.2.4,Win32,59.88023952,665fa1e8b8211326822c59a7,68817205a84113384fffdfe3,6898f9aba129496188814597,,,,,,,,,,,,,,,,,,,,,,,,,,,7,,,,,,,,,,,,,,,,,,,,,,,,,,,,,,,,,,,,,,,,,,,,624.6391,627.6333,slightly agree,0,6,6,6,1,I try to solve my own problems rather than discussing them with others.,0,1,0,0,,
,,,,,,,,,665fa1e8b8211326822c59a7,Spanish,13 or older,"no, only English or Spanish",no,2025-08-10_16h04.11.771,empathy_intonation_perc_control,2024.2.4,Win32,59.88023952,665fa1e8b8211326822c59a7,68817205a84113384fffdfe3,6898f9aba129496188814597,,,,,,,,,,,,,,,,,,,,,,,,,,,8,,,,,,,,,,,,,,,,,,,,,,,,,,,,,,,,,,,,,,,,,,,,627.6377,640.2442,slightly disagree,0,7,7,7,1,I find it hard to know what to do in a social situation.,1,0,0,1,,
,,,,,,,,,665fa1e8b8211326822c59a7,Spanish,13 or older,"no, only English or Spanish",no,2025-08-10_16h04.11.771,empathy_intonation_perc_control,2024.2.4,Win32,59.88023952,665fa1e8b8211326822c59a7,68817205a84113384fffdfe3,6898f9aba129496188814597,,,,,,,,,,,,,,,,,,,,,,,,,,,9,,,,,,,,,,,,,,,,,,,,,,,,,,,,,,,,,,,,,,,,,,,,640.2486,643.3352,slightly disagree,0,8,8,8,1,I am at my best first thing in the morning.,0,1,0,0,,
,,,,,,,,,665fa1e8b8211326822c59a7,Spanish,13 or older,"no, only English or Spanish",no,2025-08-10_16h04.11.771,empathy_intonation_perc_control,2024.2.4,Win32,59.88023952,665fa1e8b8211326822c59a7,68817205a84113384fffdfe3,6898f9aba129496188814597,,,,,,,,,,,,,,,,,,,,,,,,,,,10,,,,,,,,,,,,,,,,,,,,,,,,,,,,,,,,,,,,,,,,,,,,643.339,647.2255,slightly disagree,0,9,9,9,1,People often tell me that I went too far in driving my point home in a discussion.,1,0,0,1,,
,,,,,,,,,665fa1e8b8211326822c59a7,Spanish,13 or older,"no, only English or Spanish",no,2025-08-10_16h04.11.771,empathy_intonation_perc_control,2024.2.4,Win32,59.88023952,665fa1e8b8211326822c59a7,68817205a84113384fffdfe3,6898f9aba129496188814597,,,,,,,,,,,,,,,,,,,,,,,,,,,11,,,,,,,,,,,,,,,,,,,,,,,,,,,,,,,,,,,,,,,,,,,,647.229,651.4572,slightly disagree,0,10,10,10,1,It doesn't bother me too much if I am late meeting a friend.,1,0,0,1,,
,,,,,,,,,665fa1e8b8211326822c59a7,Spanish,13 or older,"no, only English or Spanish",no,2025-08-10_16h04.11.771,empathy_intonation_perc_control,2024.2.4,Win32,59.88023952,665fa1e8b8211326822c59a7,68817205a84113384fffdfe3,6898f9aba129496188814597,,,,,,,,,,,,,,,,,,,,,,,,,,,12,,,,,,,,,,,,,,,,,,,,,,,,,,,,,,,,,,,,,,,,,,,,651.4606,655.3362,strongly disagree,0,11,11,11,1,"Friendships and relationships are just too difficult, so I tend not to 
  bother with them.",1,0,0,1,,
,,,,,,,,,665fa1e8b8211326822c59a7,Spanish,13 or older,"no, only English or Spanish",no,2025-08-10_16h04.11.771,empathy_intonation_perc_control,2024.2.4,Win32,59.88023952,665fa1e8b8211326822c59a7,68817205a84113384fffdfe3,6898f9aba129496188814597,,,,,,,,,,,,,,,,,,,,,,,,,,,13,,,,,,,,,,,,,,,,,,,,,,,,,,,,,,,,,,,,,,,,,,,,655.3408,660.8561,slightly agree,0,12,12,12,1,"I would never break a law, no matter how minor.",0,1,0,0,,
,,,,,,,,,665fa1e8b8211326822c59a7,Spanish,13 or older,"no, only English or Spanish",no,2025-08-10_16h04.11.771,empathy_intonation_perc_control,2024.2.4,Win32,59.88023952,665fa1e8b8211326822c59a7,68817205a84113384fffdfe3,6898f9aba129496188814597,,,,,,,,,,,,,,,,,,,,,,,,,,,14,,,,,,,,,,,,,,,,,,,,,,,,,,,,,,,,,,,,,,,,,,,,660.8601,667.5663,slightly disagree,0,13,13,13,1,I often find it difficult to judge if something is rude or polite.,1,0,0,1,,
,,,,,,,,,665fa1e8b8211326822c59a7,Spanish,13 or older,"no, only English or Spanish",no,2025-08-10_16h04.11.771,empathy_intonation_perc_control,2024.2.4,Win32,59.88023952,665fa1e8b8211326822c59a7,68817205a84113384fffdfe3,6898f9aba129496188814597,,,,,,,,,,,,,,,,,,,,,,,,,,,15,,,,,,,,,,,,,,,,,,,,,,,,,,,,,,,,,,,,,,,,,,,,667.5767,675.4168,strongly disagree,0,14,14,14,1,"In a conversation, I tend to focus on my own thoughts rather than on what 
  my listener might be thinking.",1,0,0,1,,
,,,,,,,,,665fa1e8b8211326822c59a7,Spanish,13 or older,"no, only English or Spanish",no,2025-08-10_16h04.11.771,empathy_intonation_perc_control,2024.2.4,Win32,59.88023952,665fa1e8b8211326822c59a7,68817205a84113384fffdfe3,6898f9aba129496188814597,,,,,,,,,,,,,,,,,,,,,,,,,,,16,,,,,,,,,,,,,,,,,,,,,,,,,,,,,,,,,,,,,,,,,,,,675.4193,682.1899,slightly disagree,0,15,15,15,1,I prefer practical jokes to verbal humor.,0,1,0,0,,
,,,,,,,,,665fa1e8b8211326822c59a7,Spanish,13 or older,"no, only English or Spanish",no,2025-08-10_16h04.11.771,empathy_intonation_perc_control,2024.2.4,Win32,59.88023952,665fa1e8b8211326822c59a7,68817205a84113384fffdfe3,6898f9aba129496188814597,,,,,,,,,,,,,,,,,,,,,,,,,,,17,,,,,,,,,,,,,,,,,,,,,,,,,,,,,,,,,,,,,,,,,,,,682.1932,687.1636,slightly disagree,0,16,16,16,1,I live life for today rather than the future.,0,1,0,0,,
,,,,,,,,,665fa1e8b8211326822c59a7,Spanish,13 or older,"no, only English or Spanish",no,2025-08-10_16h04.11.771,empathy_intonation_perc_control,2024.2.4,Win32,59.88023952,665fa1e8b8211326822c59a7,68817205a84113384fffdfe3,6898f9aba129496188814597,,,,,,,,,,,,,,,,,,,,,,,,,,,18,,,,,,,,,,,,,,,,,,,,,,,,,,,,,,,,,,,,,,,,,,,,687.1662,690.5542,strongly disagree,0,17,17,17,1,"When I was a child, I enjoyed cutting up worms to see what would happen.",1,0,0,1,,
,,,,,,,,,665fa1e8b8211326822c59a7,Spanish,13 or older,"no, only English or Spanish",no,2025-08-10_16h04.11.771,empathy_intonation_perc_control,2024.2.4,Win32,59.88023952,665fa1e8b8211326822c59a7,68817205a84113384fffdfe3,6898f9aba129496188814597,,,,,,,,,,,,,,,,,,,,,,,,,,,19,,,,,,,,,,,,,,,,,,,,,,,,,,,,,,,,,,,,,,,,,,,,690.5555,695.1803,slightly agree,0,18,18,18,1,I can pick up quickly if someone says one thing but means another.,1,0,1,0,,
,,,,,,,,,665fa1e8b8211326822c59a7,Spanish,13 or older,"no, only English or Spanish",no,2025-08-10_16h04.11.771,empathy_intonation_perc_control,2024.2.4,Win32,59.88023952,665fa1e8b8211326822c59a7,68817205a84113384fffdfe3,6898f9aba129496188814597,,,,,,,,,,,,,,,,,,,,,,,,,,,20,,,,,,,,,,,,,,,,,,,,,,,,,,,,,,,,,,,,,,,,,,,,695.1826,699.4594,slightly agree,0,19,19,19,1,I tend to have very strong opinions about morality.,0,1,0,0,,
,,,,,,,,,665fa1e8b8211326822c59a7,Spanish,13 or older,"no, only English or Spanish",no,2025-08-10_16h04.11.771,empathy_intonation_perc_control,2024.2.4,Win32,59.88023952,665fa1e8b8211326822c59a7,68817205a84113384fffdfe3,6898f9aba129496188814597,,,,,,,,,,,,,,,,,,,,,,,,,,,21,,,,,,,,,,,,,,,,,,,,,,,,,,,,,,,,,,,,,,,,,,,,699.4634,702.7231,slightly disagree,0,20,20,20,1,It is hard for me to see why some things upset people so much.,1,0,0,1,,
,,,,,,,,,665fa1e8b8211326822c59a7,Spanish,13 or older,"no, only English or Spanish",no,2025-08-10_16h04.11.771,empathy_intonation_perc_control,2024.2.4,Win32,59.88023952,665fa1e8b8211326822c59a7,68817205a84113384fffdfe3,6898f9aba129496188814597,,,,,,,,,,,,,,,,,,,,,,,,,,,22,,,,,,,,,,,,,,,,,,,,,,,,,,,,,,,,,,,,,,,,,,,,702.7274,703.4997,slightly agree,0,21,21,21,1,I find it easy to put myself in somebody else's shoes.,1,0,1,0,,
,,,,,,,,,665fa1e8b8211326822c59a7,Spanish,13 or older,"no, only English or Spanish",no,2025-08-10_16h04.11.771,empathy_intonation_perc_control,2024.2.4,Win32,59.88023952,665fa1e8b8211326822c59a7,68817205a84113384fffdfe3,6898f9aba129496188814597,,,,,,,,,,,,,,,,,,,,,,,,,,,23,,,,,,,,,,,,,,,,,,,,,,,,,,,,,,,,,,,,,,,,,,,,703.5007,704.3422,slightly disagree,0,22,22,22,1,I think that good manners are the most important thing a parent can teach their child.,0,1,0,0,,
,,,,,,,,,665fa1e8b8211326822c59a7,Spanish,13 or older,"no, only English or Spanish",no,2025-08-10_16h04.11.771,empathy_intonation_perc_control,2024.2.4,Win32,59.88023952,665fa1e8b8211326822c59a7,68817205a84113384fffdfe3,6898f9aba129496188814597,,,,,,,,,,,,,,,,,,,,,,,,,,,24,,,,,,,,,,,,,,,,,,,,,,,,,,,,,,,,,,,,,,,,,,,,704.3431,704.9298,slightly agree,0,23,23,23,1,I like to do things on the spur of the moment.,0,1,0,0,,
,,,,,,,,,665fa1e8b8211326822c59a7,Spanish,13 or older,"no, only English or Spanish",no,2025-08-10_16h04.11.771,empathy_intonation_perc_control,2024.2.4,Win32,59.88023952,665fa1e8b8211326822c59a7,68817205a84113384fffdfe3,6898f9aba129496188814597,,,,,,,,,,,,,,,,,,,,,,,,,,,25,,,,,,,,,,,,,,,,,,,,,,,,,,,,,,,,,,,,,,,,,,,,704.9308,706.3653,slightly disagree,0,24,24,24,1,I am good at predicting how someone will feel.,1,0,1,0,,
