instructions_2afc.started,instructions_2afc.stopped,instructions_2afc_loop.thisRepN,instructions_2afc_loop.thisTrialN,instructions_2afc_loop.thisN,instructions_2afc_loop.thisIndex,instructions_2afc_loop.ran,instructions_text,continue_text,participant_id,"What variety of Spanish are you most familiar with? (e.g., Peruvian, Spanish, Mexican)",At what age did you begin learning Spanish?,Are you proficient in any languages other than English/Spanish?,"Are you familiar with Caribbean (e.g., Caribbean, Puerto Rican) or Galician Spanish?",date,expName,psychopyVersion,OS,frameRate,id,study_id,session,practice_2afc.started,practice_2afc.stopped,key_resp_2afc_practice.keys,key_resp_2afc_practice.corr,key_resp_2afc_practice.rt,key_resp_2afc_practice.duration,trials_2afc_practice_loop.thisRepN,trials_2afc_practice_loop.thisTrialN,trials_2afc_practice_loop.thisN,trials_2afc_practice_loop.thisIndex,trials_2afc_practice_loop.ran,path,correct_response,check_2afc.started,check_2afc.stopped,trial_2afc.started,trial_2afc.stopped,key_resp_2afc_trial.keys,key_resp_2afc_trial.corr,key_resp_2afc_trial.rt,key_resp_2afc_trial.duration,trials_2afc_loop.thisRepN,trials_2afc_loop.thisTrialN,trials_2afc_loop.thisN,trials_2afc_loop.thisIndex,trials_2afc_loop.ran,item_num,target,variety,instructions_lextale.started,instructions_lextale.stopped,instructions_lextale_loop.thisRepN,instructions_lextale_loop.thisTrialN,instructions_lextale_loop.thisN,instructions_lextale_loop.thisIndex,instructions_lextale_loop.ran,practice_lextale.started,practice_lextale.stopped,key_resp_lextale_practice.keys,key_resp_lextale_practice.corr,key_resp_lextale_practice.rt,key_resp_lextale_practice.duration,practice_feedback_lextale.started,practice_feedback_lextale.stopped,trials_lextale_practice_loop.thisRepN,trials_lextale_practice_loop.thisTrialN,trials_lextale_practice_loop.thisN,trials_lextale_practice_loop.thisIndex,trials_lextale_practice_loop.ran,stim,word,prac_button_real,prac_button_false,check_lextale.started,check_lextale.stopped,trial_lextale.started,trial_lextale.stopped,key_resp_lextale_trial.keys,key_resp_lextale_trial.corr,key_resp_lextale_trial.rt,key_resp_lextale_trial.duration,trials_lextale_loop.thisRepN,trials_lextale_loop.thisTrialN,trials_lextale_loop.thisN,trials_lextale_loop.thisIndex,trials_lextale_loop.ran,button_real,button_false,instructions_eq.started,instructions_eq.stopped,trial_eq.started,trial_eq.stopped,slider_eq_trial.response,trials_eq_loop.thisRepN,trials_eq_loop.thisTrialN,trials_eq_loop.thisN,trials_eq_loop.thisIndex,trials_eq_loop.ran,item,is_test_item,is_distractor,is_agree_score,is_disagree_score,end_exp.started,end_exp.stopped
0.0291,5.2966,0,0,0,0,1,"In the following task you are going to hear a series of utterances. 

  You will decide if the utterances sound like questions or not using your keyboard.", (press the spacebar to continue),666ee37c2c2d032408112ced,Spanish,13 or older,"no, only English or Spanish",no,2025-07-24_07h23.42.416,empathy_intonation_perc_control,2024.2.4,Win32,59.88023952,666ee37c2c2d032408112ced,68817205a84113384fffdfe3,6882178f4e58651d272a1472,,,,,,,,,,,,,,,,,,,,,,,,,,,,,,,,,,,,,,,,,,,,,,,,,,,,,,,,,,,,,,,,,,,,,,,,,,,,,,,,,,,,,
5.2996,11.96,0,1,1,1,1,"If you believe the utterance is a question, type '1' (for 'yes') and if you do not 
  believe it is a question type '0' (for 'no').

  Let's practice a bit...", (press the spacebar to continue),666ee37c2c2d032408112ced,Spanish,13 or older,"no, only English or Spanish",no,2025-07-24_07h23.42.416,empathy_intonation_perc_control,2024.2.4,Win32,59.88023952,666ee37c2c2d032408112ced,68817205a84113384fffdfe3,6882178f4e58651d272a1472,,,,,,,,,,,,,,,,,,,,,,,,,,,,,,,,,,,,,,,,,,,,,,,,,,,,,,,,,,,,,,,,,,,,,,,,,,,,,,,,,,,,,
,,,,,,,,,666ee37c2c2d032408112ced,Spanish,13 or older,"no, only English or Spanish",no,2025-07-24_07h23.42.416,empathy_intonation_perc_control,2024.2.4,Win32,59.88023952,666ee37c2c2d032408112ced,68817205a84113384fffdfe3,6882178f4e58651d272a1472,11.9778,17.8406,0,1,5.331,,0,0,0,5,1,./stim/wavs/andalusian_statement_filler_Alberto-nunca-se-afeita.wav,0,,,,,,,,,,,,,,,,,,,,,,,,,,,,,,,,,,,,,,,,,,,,,,,,,,,,,,,,,,,,,,,,,,,,,,,,
,,,,,,,,,666ee37c2c2d032408112ced,Spanish,13 or older,"no, only English or Spanish",no,2025-07-24_07h23.42.416,empathy_intonation_perc_control,2024.2.4,Win32,59.88023952,666ee37c2c2d032408112ced,68817205a84113384fffdfe3,6882178f4e58651d272a1472,17.8414,20.8725,0,1,2.5099,,0,1,1,7,1,./stim/wavs/puertorican_statement_filler_La-nina-pinta-con-su-amiga.wav,0,,,,,,,,,,,,,,,,,,,,,,,,,,,,,,,,,,,,,,,,,,,,,,,,,,,,,,,,,,,,,,,,,,,,,,,,
,,,,,,,,,666ee37c2c2d032408112ced,Spanish,13 or older,"no, only English or Spanish",no,2025-07-24_07h23.42.416,empathy_intonation_perc_control,2024.2.4,Win32,59.88023952,666ee37c2c2d032408112ced,68817205a84113384fffdfe3,6882178f4e58651d272a1472,20.8732,23.3546,1,1,1.9497,,0,2,2,0,1,./stim/wavs/castilian_question_filler_Mi-esposo-conoce-al-chico.wav,1,,,,,,,,,,,,,,,,,,,,,,,,,,,,,,,,,,,,,,,,,,,,,,,,,,,,,,,,,,,,,,,,,,,,,,,,
,,,,,,,,,666ee37c2c2d032408112ced,Spanish,13 or older,"no, only English or Spanish",no,2025-07-24_07h23.42.416,empathy_intonation_perc_control,2024.2.4,Win32,59.88023952,666ee37c2c2d032408112ced,68817205a84113384fffdfe3,6882178f4e58651d272a1472,23.3557,25.6533,1,1,1.7701,,0,3,3,3,1,./stim/wavs/mexican_question_filler_Felipe-no-tiene-contrasena.wav,1,,,,,,,,,,,,,,,,,,,,,,,,,,,,,,,,,,,,,,,,,,,,,,,,,,,,,,,,,,,,,,,,,,,,,,,,
,,,,,,,,,666ee37c2c2d032408112ced,Spanish,13 or older,"no, only English or Spanish",no,2025-07-24_07h23.42.416,empathy_intonation_perc_control,2024.2.4,Win32,59.88023952,666ee37c2c2d032408112ced,68817205a84113384fffdfe3,6882178f4e58651d272a1472,25.654,27.8024,1,1,1.6207,,0,4,4,1,1,./stim/wavs/argentine_question_filler_Mi-vecino-habla-mucho.wav,1,,,,,,,,,,,,,,,,,,,,,,,,,,,,,,,,,,,,,,,,,,,,,,,,,,,,,,,,,,,,,,,,,,,,,,,,
,,,,,,,,,666ee37c2c2d032408112ced,Spanish,13 or older,"no, only English or Spanish",no,2025-07-24_07h23.42.416,empathy_intonation_perc_control,2024.2.4,Win32,59.88023952,666ee37c2c2d032408112ced,68817205a84113384fffdfe3,6882178f4e58651d272a1472,27.8031,30.4513,0,1,2.1283,,0,5,5,6,1,./stim/wavs/peruvian_statement_filler_El-nino-habla-con-su-madre.wav,0,,,,,,,,,,,,,,,,,,,,,,,,,,,,,,,,,,,,,,,,,,,,,,,,,,,,,,,,,,,,,,,,,,,,,,,,
,,,,,,,,,666ee37c2c2d032408112ced,Spanish,13 or older,"no, only English or Spanish",no,2025-07-24_07h23.42.416,empathy_intonation_perc_control,2024.2.4,Win32,59.88023952,666ee37c2c2d032408112ced,68817205a84113384fffdfe3,6882178f4e58651d272a1472,30.452,32.9499,0,1,1.9783,,0,6,6,4,1,./stim/wavs/cuban_statement_filler_Cocinabas-por-la-noche.wav,0,,,,,,,,,,,,,,,,,,,,,,,,,,,,,,,,,,,,,,,,,,,,,,,,,,,,,,,,,,,,,,,,,,,,,,,,
,,,,,,,,,666ee37c2c2d032408112ced,Spanish,13 or older,"no, only English or Spanish",no,2025-07-24_07h23.42.416,empathy_intonation_perc_control,2024.2.4,Win32,59.88023952,666ee37c2c2d032408112ced,68817205a84113384fffdfe3,6882178f4e58651d272a1472,32.9505,35.6486,1,1,2.1673,,0,7,7,2,1,./stim/wavs/chilean_question_filler_Mi-padre-cantaba-bien.wav,1,,,,,,,,,,,,,,,,,,,,,,,,,,,,,,,,,,,,,,,,,,,,,,,,,,,,,,,,,,,,,,,,,,,,,,,,
,,,,,,,,,666ee37c2c2d032408112ced,Spanish,13 or older,"no, only English or Spanish",no,2025-07-24_07h23.42.416,empathy_intonation_perc_control,2024.2.4,Win32,59.88023952,666ee37c2c2d032408112ced,68817205a84113384fffdfe3,6882178f4e58651d272a1472,,,,,,,,,,,,,,35.6491,41.7796,,,,,,,,,,,,,,,,,,,,,,,,,,,,,,,,,,,,,,,,,,,,,,,,,,,,,,,,,,,,,,,,,,,,,,
,,,,,,,,,666ee37c2c2d032408112ced,Spanish,13 or older,"no, only English or Spanish",no,2025-07-24_07h23.42.416,empathy_intonation_perc_control,2024.2.4,Win32,59.88023952,666ee37c2c2d032408112ced,68817205a84113384fffdfe3,6882178f4e58651d272a1472,,,,,,,,,,,,./stim/wavs/mexican_match_declarative-broad-focus_Daniel-iba-a-Bolivia.wav,0,,,41.7913,44.0453,0,1,1.7342,,0,0,0,57,1,58,0,mexican,,,,,,,,,,,,,,,,,,,,,,,,,,,,,,,,,,,,,,,,,,,,,,,,,,,,,,,,
,,,,,,,,,666ee37c2c2d032408112ced,Spanish,13 or older,"no, only English or Spanish",no,2025-07-24_07h23.42.416,empathy_intonation_perc_control,2024.2.4,Win32,59.88023952,666ee37c2c2d032408112ced,68817205a84113384fffdfe3,6882178f4e58651d272a1472,,,,,,,,,,,,./stim/wavs/castilian_match_interrogative-total-yn_Marta-abre-el-regalo.wav,1,,,44.0459,46.2436,1,1,1.6775,,0,1,1,5,1,6,0,castilian,,,,,,,,,,,,,,,,,,,,,,,,,,,,,,,,,,,,,,,,,,,,,,,,,,,,,,,,
,,,,,,,,,666ee37c2c2d032408112ced,Spanish,13 or older,"no, only English or Spanish",no,2025-07-24_07h23.42.416,empathy_intonation_perc_control,2024.2.4,Win32,59.88023952,666ee37c2c2d032408112ced,68817205a84113384fffdfe3,6882178f4e58651d272a1472,,,,,,,,,,,,./stim/wavs/puertorican_mismatch_interrogative-total-yn_La-maestra-vive-en-Paris.wav,1,,,46.2446,49.8089,0,0,3.0369,,0,2,2,41,1,42,1,puertorican,,,,,,,,,,,,,,,,,,,,,,,,,,,,,,,,,,,,,,,,,,,,,,,,,,,,,,,,
,,,,,,,,,666ee37c2c2d032408112ced,Spanish,13 or older,"no, only English or Spanish",no,2025-07-24_07h23.42.416,empathy_intonation_perc_control,2024.2.4,Win32,59.88023952,666ee37c2c2d032408112ced,68817205a84113384fffdfe3,6882178f4e58651d272a1472,,,,,,,,,,,,./stim/wavs/mexican_mismatch_interrogative-total-yn_Mi-tia-odia-la-lluvia.wav,1,,,49.8099,51.9578,1,1,1.6218,,0,3,3,38,1,39,0,mexican,,,,,,,,,,,,,,,,,,,,,,,,,,,,,,,,,,,,,,,,,,,,,,,,,,,,,,,,
,,,,,,,,,666ee37c2c2d032408112ced,Spanish,13 or older,"no, only English or Spanish",no,2025-07-24_07h23.42.416,empathy_intonation_perc_control,2024.2.4,Win32,59.88023952,666ee37c2c2d032408112ced,68817205a84113384fffdfe3,6882178f4e58651d272a1472,,,,,,,,,,,,./stim/wavs/puertorican_match_interrogative-total-yn_Maria-bebe-el-vino.wav,1,,,51.9584,54.0236,1,1,1.5395,,0,4,4,23,1,24,1,puertorican,,,,,,,,,,,,,,,,,,,,,,,,,,,,,,,,,,,,,,,,,,,,,,,,,,,,,,,,
,,,,,,,,,666ee37c2c2d032408112ced,Spanish,13 or older,"no, only English or Spanish",no,2025-07-24_07h23.42.416,empathy_intonation_perc_control,2024.2.4,Win32,59.88023952,666ee37c2c2d032408112ced,68817205a84113384fffdfe3,6882178f4e58651d272a1472,,,,,,,,,,,,./stim/wavs/castilian_match_interrogative-total-yn_Maria-bebe-el-vino.wav,1,,,54.0247,56.2724,1,1,1.7242,,0,5,5,3,1,4,0,castilian,,,,,,,,,,,,,,,,,,,,,,,,,,,,,,,,,,,,,,,,,,,,,,,,,,,,,,,,
,,,,,,,,,666ee37c2c2d032408112ced,Spanish,13 or older,"no, only English or Spanish",no,2025-07-24_07h23.42.416,empathy_intonation_perc_control,2024.2.4,Win32,59.88023952,666ee37c2c2d032408112ced,68817205a84113384fffdfe3,6882178f4e58651d272a1472,,,,,,,,,,,,./stim/wavs/mexican_mismatch_interrogative-total-yn_El-hombre-mira-la-luna.wav,1,,,56.273,59.7213,0,0,2.919,,0,6,6,34,1,35,0,mexican,,,,,,,,,,,,,,,,,,,,,,,,,,,,,,,,,,,,,,,,,,,,,,,,,,,,,,,,
,,,,,,,,,666ee37c2c2d032408112ced,Spanish,13 or older,"no, only English or Spanish",no,2025-07-24_07h23.42.416,empathy_intonation_perc_control,2024.2.4,Win32,59.88023952,666ee37c2c2d032408112ced,68817205a84113384fffdfe3,6882178f4e58651d272a1472,,,,,,,,,,,,./stim/wavs/castilian_mismatch_interrogative-total-yn_La-nina-lava-el-plato.wav,1,,,59.7218,62.3197,1,1,2.0771,,0,7,7,25,1,26,0,castilian,,,,,,,,,,,,,,,,,,,,,,,,,,,,,,,,,,,,,,,,,,,,,,,,,,,,,,,,
,,,,,,,,,666ee37c2c2d032408112ced,Spanish,13 or older,"no, only English or Spanish",no,2025-07-24_07h23.42.416,empathy_intonation_perc_control,2024.2.4,Win32,59.88023952,666ee37c2c2d032408112ced,68817205a84113384fffdfe3,6882178f4e58651d272a1472,,,,,,,,,,,,./stim/wavs/mexican_mismatch_declarative-broad-focus_El-bebe-comia-muy-bien.wav,0,,,62.3203,65.9014,0,1,3.053,,0,8,8,78,1,79,0,mexican,,,,,,,,,,,,,,,,,,,,,,,,,,,,,,,,,,,,,,,,,,,,,,,,,,,,,,,,
,,,,,,,,,666ee37c2c2d032408112ced,Spanish,13 or older,"no, only English or Spanish",no,2025-07-24_07h23.42.416,empathy_intonation_perc_control,2024.2.4,Win32,59.88023952,666ee37c2c2d032408112ced,68817205a84113384fffdfe3,6882178f4e58651d272a1472,,,,,,,,,,,,./stim/wavs/cuban_mismatch_interrogative-total-yn_El-hombre-mira-la-luna.wav,1,,,65.9019,68.6001,0,0,2.1694,,0,9,9,29,1,30,1,cuban,,,,,,,,,,,,,,,,,,,,,,,,,,,,,,,,,,,,,,,,,,,,,,,,,,,,,,,,
,,,,,,,,,666ee37c2c2d032408112ced,Spanish,13 or older,"no, only English or Spanish",no,2025-07-24_07h23.42.416,empathy_intonation_perc_control,2024.2.4,Win32,59.88023952,666ee37c2c2d032408112ced,68817205a84113384fffdfe3,6882178f4e58651d272a1472,,,,,,,,,,,,./stim/wavs/castilian_match_declarative-broad-focus_Emilio-ama-la-marcha.wav,0,,,68.6007,71.0158,1,0,1.8913,,0,10,10,45,1,46,0,castilian,,,,,,,,,,,,,,,,,,,,,,,,,,,,,,,,,,,,,,,,,,,,,,,,,,,,,,,,
,,,,,,,,,666ee37c2c2d032408112ced,Spanish,13 or older,"no, only English or Spanish",no,2025-07-24_07h23.42.416,empathy_intonation_perc_control,2024.2.4,Win32,59.88023952,666ee37c2c2d032408112ced,68817205a84113384fffdfe3,6882178f4e58651d272a1472,,,,,,,,,,,,./stim/wavs/cuban_match_declarative-broad-focus_Manuela-vende-el-carro.wav,0,,,71.0162,73.7645,0,1,2.2174,,0,11,11,52,1,53,0,cuban,,,,,,,,,,,,,,,,,,,,,,,,,,,,,,,,,,,,,,,,,,,,,,,,,,,,,,,,
,,,,,,,,,666ee37c2c2d032408112ced,Spanish,13 or older,"no, only English or Spanish",no,2025-07-24_07h23.42.416,empathy_intonation_perc_control,2024.2.4,Win32,59.88023952,666ee37c2c2d032408112ced,68817205a84113384fffdfe3,6882178f4e58651d272a1472,,,,,,,,,,,,./stim/wavs/cuban_mismatch_declarative-broad-focus_Mi-novio-viene-del-lago.wav,0,,,73.7654,76.3633,0,1,2.0654,,0,12,12,76,1,77,0,cuban,,,,,,,,,,,,,,,,,,,,,,,,,,,,,,,,,,,,,,,,,,,,,,,,,,,,,,,,
,,,,,,,,,666ee37c2c2d032408112ced,Spanish,13 or older,"no, only English or Spanish",no,2025-07-24_07h23.42.416,empathy_intonation_perc_control,2024.2.4,Win32,59.88023952,666ee37c2c2d032408112ced,68817205a84113384fffdfe3,6882178f4e58651d272a1472,,,,,,,,,,,,./stim/wavs/cuban_match_interrogative-total-yn_Mariano-habla-del-tiempo.wav,1,,,76.364,78.7623,0,0,1.8754,,0,13,13,10,1,11,1,cuban,,,,,,,,,,,,,,,,,,,,,,,,,,,,,,,,,,,,,,,,,,,,,,,,,,,,,,,,
,,,,,,,,,666ee37c2c2d032408112ced,Spanish,13 or older,"no, only English or Spanish",no,2025-07-24_07h23.42.416,empathy_intonation_perc_control,2024.2.4,Win32,59.88023952,666ee37c2c2d032408112ced,68817205a84113384fffdfe3,6882178f4e58651d272a1472,,,,,,,,,,,,./stim/wavs/cuban_mismatch_declarative-broad-focus_El-bebe-comia-muy-bien.wav,0,,,78.763,80.9616,0,1,1.6783,,0,14,14,73,1,74,0,cuban,,,,,,,,,,,,,,,,,,,,,,,,,,,,,,,,,,,,,,,,,,,,,,,,,,,,,,,,
,,,,,,,,,666ee37c2c2d032408112ced,Spanish,13 or older,"no, only English or Spanish",no,2025-07-24_07h23.42.416,empathy_intonation_perc_control,2024.2.4,Win32,59.88023952,666ee37c2c2d032408112ced,68817205a84113384fffdfe3,6882178f4e58651d272a1472,,,,,,,,,,,,./stim/wavs/castilian_match_interrogative-total-yn_Mariano-habla-del-tiempo.wav,1,,,80.9622,83.6265,1,1,2.133,,0,15,15,4,1,5,0,castilian,,,,,,,,,,,,,,,,,,,,,,,,,,,,,,,,,,,,,,,,,,,,,,,,,,,,,,,,
,,,,,,,,,666ee37c2c2d032408112ced,Spanish,13 or older,"no, only English or Spanish",no,2025-07-24_07h23.42.416,empathy_intonation_perc_control,2024.2.4,Win32,59.88023952,666ee37c2c2d032408112ced,68817205a84113384fffdfe3,6882178f4e58651d272a1472,,,,,,,,,,,,./stim/wavs/puertorican_match_declarative-broad-focus_Maria-bebe-el-vino.wav,0,,,83.627,86.0256,0,1,1.8691,,0,16,16,67,1,68,0,puertorican,,,,,,,,,,,,,,,,,,,,,,,,,,,,,,,,,,,,,,,,,,,,,,,,,,,,,,,,
,,,,,,,,,666ee37c2c2d032408112ced,Spanish,13 or older,"no, only English or Spanish",no,2025-07-24_07h23.42.416,empathy_intonation_perc_control,2024.2.4,Win32,59.88023952,666ee37c2c2d032408112ced,68817205a84113384fffdfe3,6882178f4e58651d272a1472,,,,,,,,,,,,./stim/wavs/puertorican_match_declarative-broad-focus_David-leia-el-libro.wav,0,,,86.0261,88.0746,0,1,1.5216,,0,17,17,64,1,65,0,puertorican,,,,,,,,,,,,,,,,,,,,,,,,,,,,,,,,,,,,,,,,,,,,,,,,,,,,,,,,
,,,,,,,,,666ee37c2c2d032408112ced,Spanish,13 or older,"no, only English or Spanish",no,2025-07-24_07h23.42.416,empathy_intonation_perc_control,2024.2.4,Win32,59.88023952,666ee37c2c2d032408112ced,68817205a84113384fffdfe3,6882178f4e58651d272a1472,,,,,,,,,,,,./stim/wavs/puertorican_match_interrogative-total-yn_Ana-lleva-el-abrigo.wav,1,,,88.0752,90.1069,1,1,1.5081,,0,18,18,18,1,19,1,puertorican,,,,,,,,,,,,,,,,,,,,,,,,,,,,,,,,,,,,,,,,,,,,,,,,,,,,,,,,
,,,,,,,,,666ee37c2c2d032408112ced,Spanish,13 or older,"no, only English or Spanish",no,2025-07-24_07h23.42.416,empathy_intonation_perc_control,2024.2.4,Win32,59.88023952,666ee37c2c2d032408112ced,68817205a84113384fffdfe3,6882178f4e58651d272a1472,,,,,,,,,,,,./stim/wavs/cuban_mismatch_declarative-broad-focus_La-nina-lava-el-plato.wav,0,,,90.1073,92.2059,0,1,1.568,,0,19,19,75,1,76,0,cuban,,,,,,,,,,,,,,,,,,,,,,,,,,,,,,,,,,,,,,,,,,,,,,,,,,,,,,,,
,,,,,,,,,666ee37c2c2d032408112ced,Spanish,13 or older,"no, only English or Spanish",no,2025-07-24_07h23.42.416,empathy_intonation_perc_control,2024.2.4,Win32,59.88023952,666ee37c2c2d032408112ced,68817205a84113384fffdfe3,6882178f4e58651d272a1472,,,,,,,,,,,,./stim/wavs/cuban_mismatch_interrogative-total-yn_Mi-novio-viene-del-lago.wav,1,,,92.2064,94.4382,0,0,1.7011,,0,20,20,32,1,33,1,cuban,,,,,,,,,,,,,,,,,,,,,,,,,,,,,,,,,,,,,,,,,,,,,,,,,,,,,,,,
,,,,,,,,,666ee37c2c2d032408112ced,Spanish,13 or older,"no, only English or Spanish",no,2025-07-24_07h23.42.416,empathy_intonation_perc_control,2024.2.4,Win32,59.88023952,666ee37c2c2d032408112ced,68817205a84113384fffdfe3,6882178f4e58651d272a1472,,,,,,,,,,,,./stim/wavs/mexican_match_interrogative-total-yn_Marta-abre-el-regalo.wav,1,,,94.4387,96.7875,0,0,1.8192,,0,21,21,17,1,18,0,mexican,,,,,,,,,,,,,,,,,,,,,,,,,,,,,,,,,,,,,,,,,,,,,,,,,,,,,,,,
,,,,,,,,,666ee37c2c2d032408112ced,Spanish,13 or older,"no, only English or Spanish",no,2025-07-24_07h23.42.416,empathy_intonation_perc_control,2024.2.4,Win32,59.88023952,666ee37c2c2d032408112ced,68817205a84113384fffdfe3,6882178f4e58651d272a1472,,,,,,,,,,,,./stim/wavs/mexican_match_declarative-broad-focus_Marta-abre-el-regalo.wav,0,,,96.7882,98.6363,1,0,1.3171,,0,22,22,61,1,62,0,mexican,,,,,,,,,,,,,,,,,,,,,,,,,,,,,,,,,,,,,,,,,,,,,,,,,,,,,,,,
,,,,,,,,,666ee37c2c2d032408112ced,Spanish,13 or older,"no, only English or Spanish",no,2025-07-24_07h23.42.416,empathy_intonation_perc_control,2024.2.4,Win32,59.88023952,666ee37c2c2d032408112ced,68817205a84113384fffdfe3,6882178f4e58651d272a1472,,,,,,,,,,,,./stim/wavs/castilian_mismatch_interrogative-total-yn_Mi-novio-viene-del-lago.wav,1,,,98.6368,101.3184,1,1,2.1518,,0,23,23,27,1,28,0,castilian,,,,,,,,,,,,,,,,,,,,,,,,,,,,,,,,,,,,,,,,,,,,,,,,,,,,,,,,
,,,,,,,,,666ee37c2c2d032408112ced,Spanish,13 or older,"no, only English or Spanish",no,2025-07-24_07h23.42.416,empathy_intonation_perc_control,2024.2.4,Win32,59.88023952,666ee37c2c2d032408112ced,68817205a84113384fffdfe3,6882178f4e58651d272a1472,,,,,,,,,,,,./stim/wavs/castilian_match_declarative-broad-focus_Manuela-vende-el-carro.wav,0,,,101.3189,104.0673,0,1,2.2168,,0,24,24,46,1,47,0,castilian,,,,,,,,,,,,,,,,,,,,,,,,,,,,,,,,,,,,,,,,,,,,,,,,,,,,,,,,
,,,,,,,,,666ee37c2c2d032408112ced,Spanish,13 or older,"no, only English or Spanish",no,2025-07-24_07h23.42.416,empathy_intonation_perc_control,2024.2.4,Win32,59.88023952,666ee37c2c2d032408112ced,68817205a84113384fffdfe3,6882178f4e58651d272a1472,,,,,,,,,,,,./stim/wavs/puertorican_mismatch_interrogative-total-yn_El-nino-oye-el-rio.wav,1,,,104.068,106.5494,0,0,1.9582,,0,25,25,40,1,41,1,puertorican,,,,,,,,,,,,,,,,,,,,,,,,,,,,,,,,,,,,,,,,,,,,,,,,,,,,,,,,
,,,,,,,,,666ee37c2c2d032408112ced,Spanish,13 or older,"no, only English or Spanish",no,2025-07-24_07h23.42.416,empathy_intonation_perc_control,2024.2.4,Win32,59.88023952,666ee37c2c2d032408112ced,68817205a84113384fffdfe3,6882178f4e58651d272a1472,,,,,,,,,,,,./stim/wavs/castilian_mismatch_declarative-broad-focus_La-nina-lava-el-plato.wav,0,,,106.55,109.3812,0,1,2.305,,0,26,26,70,1,71,0,castilian,,,,,,,,,,,,,,,,,,,,,,,,,,,,,,,,,,,,,,,,,,,,,,,,,,,,,,,,
,,,,,,,,,666ee37c2c2d032408112ced,Spanish,13 or older,"no, only English or Spanish",no,2025-07-24_07h23.42.416,empathy_intonation_perc_control,2024.2.4,Win32,59.88023952,666ee37c2c2d032408112ced,68817205a84113384fffdfe3,6882178f4e58651d272a1472,,,,,,,,,,,,./stim/wavs/castilian_mismatch_interrogative-total-yn_Mi-madre-come-la-fruta.wav,1,,,109.3817,111.6136,1,1,1.7044,,0,27,27,26,1,27,0,castilian,,,,,,,,,,,,,,,,,,,,,,,,,,,,,,,,,,,,,,,,,,,,,,,,,,,,,,,,
,,,,,,,,,666ee37c2c2d032408112ced,Spanish,13 or older,"no, only English or Spanish",no,2025-07-24_07h23.42.416,empathy_intonation_perc_control,2024.2.4,Win32,59.88023952,666ee37c2c2d032408112ced,68817205a84113384fffdfe3,6882178f4e58651d272a1472,,,,,,,,,,,,./stim/wavs/cuban_mismatch_declarative-broad-focus_El-hombre-mira-la-luna.wav,0,,,111.6143,113.9793,0,1,1.8423,,0,28,28,74,1,75,0,cuban,,,,,,,,,,,,,,,,,,,,,,,,,,,,,,,,,,,,,,,,,,,,,,,,,,,,,,,,
,,,,,,,,,666ee37c2c2d032408112ced,Spanish,13 or older,"no, only English or Spanish",no,2025-07-24_07h23.42.416,empathy_intonation_perc_control,2024.2.4,Win32,59.88023952,666ee37c2c2d032408112ced,68817205a84113384fffdfe3,6882178f4e58651d272a1472,,,,,,,,,,,,./stim/wavs/puertorican_mismatch_declarative-broad-focus_La-maestra-vive-en-Paris.wav,0,,,113.9799,116.4614,0,1,1.9595,,0,29,29,86,1,87,0,puertorican,,,,,,,,,,,,,,,,,,,,,,,,,,,,,,,,,,,,,,,,,,,,,,,,,,,,,,,,
,,,,,,,,,666ee37c2c2d032408112ced,Spanish,13 or older,"no, only English or Spanish",no,2025-07-24_07h23.42.416,empathy_intonation_perc_control,2024.2.4,Win32,59.88023952,666ee37c2c2d032408112ced,68817205a84113384fffdfe3,6882178f4e58651d272a1472,,,,,,,,,,,,./stim/wavs/castilian_mismatch_interrogative-total-yn_La-maestra-vive-en-Paris.wav,1,,,116.4619,118.7438,1,1,1.7566,,0,30,30,24,1,25,0,castilian,,,,,,,,,,,,,,,,,,,,,,,,,,,,,,,,,,,,,,,,,,,,,,,,,,,,,,,,
,,,,,,,,,666ee37c2c2d032408112ced,Spanish,13 or older,"no, only English or Spanish",no,2025-07-24_07h23.42.416,empathy_intonation_perc_control,2024.2.4,Win32,59.88023952,666ee37c2c2d032408112ced,68817205a84113384fffdfe3,6882178f4e58651d272a1472,,,,,,,,,,,,./stim/wavs/puertorican_mismatch_declarative-broad-focus_La-nina-lava-el-plato.wav,0,,,118.7445,122.042,0,1,2.7768,,0,31,31,87,1,88,0,puertorican,,,,,,,,,,,,,,,,,,,,,,,,,,,,,,,,,,,,,,,,,,,,,,,,,,,,,,,,
,,,,,,,,,666ee37c2c2d032408112ced,Spanish,13 or older,"no, only English or Spanish",no,2025-07-24_07h23.42.416,empathy_intonation_perc_control,2024.2.4,Win32,59.88023952,666ee37c2c2d032408112ced,68817205a84113384fffdfe3,6882178f4e58651d272a1472,,,,,,,,,,,,./stim/wavs/puertorican_match_interrogative-total-yn_David-leia-el-libro.wav,1,,,122.0425,124.4576,0,0,1.8914,,0,32,32,20,1,21,1,puertorican,,,,,,,,,,,,,,,,,,,,,,,,,,,,,,,,,,,,,,,,,,,,,,,,,,,,,,,,
,,,,,,,,,666ee37c2c2d032408112ced,Spanish,13 or older,"no, only English or Spanish",no,2025-07-24_07h23.42.416,empathy_intonation_perc_control,2024.2.4,Win32,59.88023952,666ee37c2c2d032408112ced,68817205a84113384fffdfe3,6882178f4e58651d272a1472,,,,,,,,,,,,./stim/wavs/mexican_mismatch_declarative-broad-focus_Mi-novio-viene-del-lago.wav,0,,,124.4581,126.5067,0,1,1.5235,,0,33,33,81,1,82,0,mexican,,,,,,,,,,,,,,,,,,,,,,,,,,,,,,,,,,,,,,,,,,,,,,,,,,,,,,,,
,,,,,,,,,666ee37c2c2d032408112ced,Spanish,13 or older,"no, only English or Spanish",no,2025-07-24_07h23.42.416,empathy_intonation_perc_control,2024.2.4,Win32,59.88023952,666ee37c2c2d032408112ced,68817205a84113384fffdfe3,6882178f4e58651d272a1472,,,,,,,,,,,,./stim/wavs/castilian_match_interrogative-total-yn_Emilio-ama-la-marcha.wav,1,,,126.5072,128.6059,1,1,1.5731,,0,34,34,1,1,2,0,castilian,,,,,,,,,,,,,,,,,,,,,,,,,,,,,,,,,,,,,,,,,,,,,,,,,,,,,,,,
,,,,,,,,,666ee37c2c2d032408112ced,Spanish,13 or older,"no, only English or Spanish",no,2025-07-24_07h23.42.416,empathy_intonation_perc_control,2024.2.4,Win32,59.88023952,666ee37c2c2d032408112ced,68817205a84113384fffdfe3,6882178f4e58651d272a1472,,,,,,,,,,,,./stim/wavs/puertorican_match_interrogative-total-yn_Daniel-iba-a-Bolivia.wav,1,,,128.6063,131.0051,1,1,1.8675,,0,35,35,19,1,20,1,puertorican,,,,,,,,,,,,,,,,,,,,,,,,,,,,,,,,,,,,,,,,,,,,,,,,,,,,,,,,
,,,,,,,,,666ee37c2c2d032408112ced,Spanish,13 or older,"no, only English or Spanish",no,2025-07-24_07h23.42.416,empathy_intonation_perc_control,2024.2.4,Win32,59.88023952,666ee37c2c2d032408112ced,68817205a84113384fffdfe3,6882178f4e58651d272a1472,,,,,,,,,,,,./stim/wavs/castilian_mismatch_declarative-broad-focus_Mi-novio-viene-del-lago.wav,0,,,131.006,134.1202,1,0,2.5847,,0,36,36,71,1,72,0,castilian,,,,,,,,,,,,,,,,,,,,,,,,,,,,,,,,,,,,,,,,,,,,,,,,,,,,,,,,
,,,,,,,,,666ee37c2c2d032408112ced,Spanish,13 or older,"no, only English or Spanish",no,2025-07-24_07h23.42.416,empathy_intonation_perc_control,2024.2.4,Win32,59.88023952,666ee37c2c2d032408112ced,68817205a84113384fffdfe3,6882178f4e58651d272a1472,,,,,,,,,,,,./stim/wavs/puertorican_match_declarative-broad-focus_Manuela-vende-el-carro.wav,0,,,134.1207,136.3856,0,1,1.7354,,0,37,37,66,1,67,0,puertorican,,,,,,,,,,,,,,,,,,,,,,,,,,,,,,,,,,,,,,,,,,,,,,,,,,,,,,,,
,,,,,,,,,666ee37c2c2d032408112ced,Spanish,13 or older,"no, only English or Spanish",no,2025-07-24_07h23.42.416,empathy_intonation_perc_control,2024.2.4,Win32,59.88023952,666ee37c2c2d032408112ced,68817205a84113384fffdfe3,6882178f4e58651d272a1472,,,,,,,,,,,,./stim/wavs/mexican_match_declarative-broad-focus_Mariano-habla-del-tiempo.wav,0,,,136.3861,138.6677,0,1,1.7588,,0,38,38,60,1,61,0,mexican,,,,,,,,,,,,,,,,,,,,,,,,,,,,,,,,,,,,,,,,,,,,,,,,,,,,,,,,
,,,,,,,,,666ee37c2c2d032408112ced,Spanish,13 or older,"no, only English or Spanish",no,2025-07-24_07h23.42.416,empathy_intonation_perc_control,2024.2.4,Win32,59.88023952,666ee37c2c2d032408112ced,68817205a84113384fffdfe3,6882178f4e58651d272a1472,,,,,,,,,,,,./stim/wavs/cuban_mismatch_interrogative-total-yn_Mi-tia-odia-la-lluvia.wav,1,,,138.6684,140.8169,0,0,1.6217,,0,39,39,33,1,34,1,cuban,,,,,,,,,,,,,,,,,,,,,,,,,,,,,,,,,,,,,,,,,,,,,,,,,,,,,,,,
,,,,,,,,,666ee37c2c2d032408112ced,Spanish,13 or older,"no, only English or Spanish",no,2025-07-24_07h23.42.416,empathy_intonation_perc_control,2024.2.4,Win32,59.88023952,666ee37c2c2d032408112ced,68817205a84113384fffdfe3,6882178f4e58651d272a1472,,,,,,,,,,,,./stim/wavs/mexican_match_declarative-broad-focus_Ana-lleva-el-abrigo.wav,0,,,140.8173,143.1158,0,1,1.7734,,0,40,40,56,1,57,0,mexican,,,,,,,,,,,,,,,,,,,,,,,,,,,,,,,,,,,,,,,,,,,,,,,,,,,,,,,,
,,,,,,,,,666ee37c2c2d032408112ced,Spanish,13 or older,"no, only English or Spanish",no,2025-07-24_07h23.42.416,empathy_intonation_perc_control,2024.2.4,Win32,59.88023952,666ee37c2c2d032408112ced,68817205a84113384fffdfe3,6882178f4e58651d272a1472,,,,,,,,,,,,./stim/wavs/castilian_mismatch_declarative-broad-focus_La-maestra-vive-en-Paris.wav,0,,,143.1163,146.1313,0,1,2.4846,,0,41,41,69,1,70,0,castilian,,,,,,,,,,,,,,,,,,,,,,,,,,,,,,,,,,,,,,,,,,,,,,,,,,,,,,,,
,,,,,,,,,666ee37c2c2d032408112ced,Spanish,13 or older,"no, only English or Spanish",no,2025-07-24_07h23.42.416,empathy_intonation_perc_control,2024.2.4,Win32,59.88023952,666ee37c2c2d032408112ced,68817205a84113384fffdfe3,6882178f4e58651d272a1472,,,,,,,,,,,,./stim/wavs/cuban_match_interrogative-total-yn_Manuela-vende-el-carro.wav,1,,,146.1319,148.1968,0,0,1.5406,,0,42,42,8,1,9,1,cuban,,,,,,,,,,,,,,,,,,,,,,,,,,,,,,,,,,,,,,,,,,,,,,,,,,,,,,,,
,,,,,,,,,666ee37c2c2d032408112ced,Spanish,13 or older,"no, only English or Spanish",no,2025-07-24_07h23.42.416,empathy_intonation_perc_control,2024.2.4,Win32,59.88023952,666ee37c2c2d032408112ced,68817205a84113384fffdfe3,6882178f4e58651d272a1472,,,,,,,,,,,,./stim/wavs/puertorican_match_interrogative-total-yn_Manuela-vende-el-carro.wav,1,,,148.1974,150.2458,1,1,1.5163,,0,43,43,22,1,23,1,puertorican,,,,,,,,,,,,,,,,,,,,,,,,,,,,,,,,,,,,,,,,,,,,,,,,,,,,,,,,
,,,,,,,,,666ee37c2c2d032408112ced,Spanish,13 or older,"no, only English or Spanish",no,2025-07-24_07h23.42.416,empathy_intonation_perc_control,2024.2.4,Win32,59.88023952,666ee37c2c2d032408112ced,68817205a84113384fffdfe3,6882178f4e58651d272a1472,,,,,,,,,,,,./stim/wavs/mexican_mismatch_interrogative-total-yn_La-maestra-vive-en-Paris.wav,1,,,150.2465,152.9779,0,0,2.2081,,0,44,44,36,1,37,0,mexican,,,,,,,,,,,,,,,,,,,,,,,,,,,,,,,,,,,,,,,,,,,,,,,,,,,,,,,,
,,,,,,,,,666ee37c2c2d032408112ced,Spanish,13 or older,"no, only English or Spanish",no,2025-07-24_07h23.42.416,empathy_intonation_perc_control,2024.2.4,Win32,59.88023952,666ee37c2c2d032408112ced,68817205a84113384fffdfe3,6882178f4e58651d272a1472,,,,,,,,,,,,./stim/wavs/castilian_match_declarative-broad-focus_Mariano-habla-del-tiempo.wav,0,,,152.9785,155.6599,0,1,2.156,,0,45,45,48,1,49,0,castilian,,,,,,,,,,,,,,,,,,,,,,,,,,,,,,,,,,,,,,,,,,,,,,,,,,,,,,,,
,,,,,,,,,666ee37c2c2d032408112ced,Spanish,13 or older,"no, only English or Spanish",no,2025-07-24_07h23.42.416,empathy_intonation_perc_control,2024.2.4,Win32,59.88023952,666ee37c2c2d032408112ced,68817205a84113384fffdfe3,6882178f4e58651d272a1472,,,,,,,,,,,,./stim/wavs/cuban_match_interrogative-total-yn_Maria-bebe-el-vino.wav,1,,,155.6605,157.8588,0,0,1.6771,,0,46,46,9,1,10,1,cuban,,,,,,,,,,,,,,,,,,,,,,,,,,,,,,,,,,,,,,,,,,,,,,,,,,,,,,,,
,,,,,,,,,666ee37c2c2d032408112ced,Spanish,13 or older,"no, only English or Spanish",no,2025-07-24_07h23.42.416,empathy_intonation_perc_control,2024.2.4,Win32,59.88023952,666ee37c2c2d032408112ced,68817205a84113384fffdfe3,6882178f4e58651d272a1472,,,,,,,,,,,,./stim/wavs/puertorican_match_interrogative-total-yn_Emilio-ama-la-marcha.wav,1,,,157.8596,160.2582,0,0,1.879,,0,47,47,21,1,22,1,puertorican,,,,,,,,,,,,,,,,,,,,,,,,,,,,,,,,,,,,,,,,,,,,,,,,,,,,,,,,
,,,,,,,,,666ee37c2c2d032408112ced,Spanish,13 or older,"no, only English or Spanish",no,2025-07-24_07h23.42.416,empathy_intonation_perc_control,2024.2.4,Win32,59.88023952,666ee37c2c2d032408112ced,68817205a84113384fffdfe3,6882178f4e58651d272a1472,,,,,,,,,,,,./stim/wavs/castilian_match_declarative-broad-focus_Maria-bebe-el-vino.wav,0,,,160.2589,162.5901,0,1,1.8077,,0,48,48,47,1,48,0,castilian,,,,,,,,,,,,,,,,,,,,,,,,,,,,,,,,,,,,,,,,,,,,,,,,,,,,,,,,
,,,,,,,,,666ee37c2c2d032408112ced,Spanish,13 or older,"no, only English or Spanish",no,2025-07-24_07h23.42.416,empathy_intonation_perc_control,2024.2.4,Win32,59.88023952,666ee37c2c2d032408112ced,68817205a84113384fffdfe3,6882178f4e58651d272a1472,,,,,,,,,,,,./stim/wavs/mexican_match_interrogative-total-yn_Ana-lleva-el-abrigo.wav,1,,,162.5907,164.5727,1,1,1.4505,,0,49,49,12,1,13,0,mexican,,,,,,,,,,,,,,,,,,,,,,,,,,,,,,,,,,,,,,,,,,,,,,,,,,,,,,,,
,,,,,,,,,666ee37c2c2d032408112ced,Spanish,13 or older,"no, only English or Spanish",no,2025-07-24_07h23.42.416,empathy_intonation_perc_control,2024.2.4,Win32,59.88023952,666ee37c2c2d032408112ced,68817205a84113384fffdfe3,6882178f4e58651d272a1472,,,,,,,,,,,,./stim/wavs/puertorican_mismatch_interrogative-total-yn_La-nina-lava-el-plato.wav,1,,,164.5732,166.6216,0,0,1.5207,,0,50,50,42,1,43,1,puertorican,,,,,,,,,,,,,,,,,,,,,,,,,,,,,,,,,,,,,,,,,,,,,,,,,,,,,,,,
,,,,,,,,,666ee37c2c2d032408112ced,Spanish,13 or older,"no, only English or Spanish",no,2025-07-24_07h23.42.416,empathy_intonation_perc_control,2024.2.4,Win32,59.88023952,666ee37c2c2d032408112ced,68817205a84113384fffdfe3,6882178f4e58651d272a1472,,,,,,,,,,,,./stim/wavs/cuban_match_interrogative-total-yn_Ana-lleva-el-abrigo.wav,1,,,166.6221,169.1039,0,0,1.9587,,0,51,51,6,1,7,1,cuban,,,,,,,,,,,,,,,,,,,,,,,,,,,,,,,,,,,,,,,,,,,,,,,,,,,,,,,,
,,,,,,,,,666ee37c2c2d032408112ced,Spanish,13 or older,"no, only English or Spanish",no,2025-07-24_07h23.42.416,empathy_intonation_perc_control,2024.2.4,Win32,59.88023952,666ee37c2c2d032408112ced,68817205a84113384fffdfe3,6882178f4e58651d272a1472,,,,,,,,,,,,./stim/wavs/puertorican_match_declarative-broad-focus_Emilio-ama-la-marcha.wav,0,,,169.1049,171.4194,0,1,1.7914,,0,52,52,65,1,66,0,puertorican,,,,,,,,,,,,,,,,,,,,,,,,,,,,,,,,,,,,,,,,,,,,,,,,,,,,,,,,
,,,,,,,,,666ee37c2c2d032408112ced,Spanish,13 or older,"no, only English or Spanish",no,2025-07-24_07h23.42.416,empathy_intonation_perc_control,2024.2.4,Win32,59.88023952,666ee37c2c2d032408112ced,68817205a84113384fffdfe3,6882178f4e58651d272a1472,,,,,,,,,,,,./stim/wavs/puertorican_mismatch_interrogative-total-yn_El-hombre-mira-la-luna.wav,1,,,171.42,173.6362,0,0,1.6966,,0,53,53,39,1,40,1,puertorican,,,,,,,,,,,,,,,,,,,,,,,,,,,,,,,,,,,,,,,,,,,,,,,,,,,,,,,,
,,,,,,,,,666ee37c2c2d032408112ced,Spanish,13 or older,"no, only English or Spanish",no,2025-07-24_07h23.42.416,empathy_intonation_perc_control,2024.2.4,Win32,59.88023952,666ee37c2c2d032408112ced,68817205a84113384fffdfe3,6882178f4e58651d272a1472,,,,,,,,,,,,./stim/wavs/puertorican_mismatch_declarative-broad-focus_El-nino-oye-el-rio.wav,0,,,173.6366,176.0339,0,1,1.8677,,0,54,54,85,1,86,0,puertorican,,,,,,,,,,,,,,,,,,,,,,,,,,,,,,,,,,,,,,,,,,,,,,,,,,,,,,,,
,,,,,,,,,666ee37c2c2d032408112ced,Spanish,13 or older,"no, only English or Spanish",no,2025-07-24_07h23.42.416,empathy_intonation_perc_control,2024.2.4,Win32,59.88023952,666ee37c2c2d032408112ced,68817205a84113384fffdfe3,6882178f4e58651d272a1472,,,,,,,,,,,,./stim/wavs/mexican_mismatch_declarative-broad-focus_El-hombre-mira-la-luna.wav,0,,,176.0348,178.3662,0,1,1.8035,,0,55,55,79,1,80,0,mexican,,,,,,,,,,,,,,,,,,,,,,,,,,,,,,,,,,,,,,,,,,,,,,,,,,,,,,,,
,,,,,,,,,666ee37c2c2d032408112ced,Spanish,13 or older,"no, only English or Spanish",no,2025-07-24_07h23.42.416,empathy_intonation_perc_control,2024.2.4,Win32,59.88023952,666ee37c2c2d032408112ced,68817205a84113384fffdfe3,6882178f4e58651d272a1472,,,,,,,,,,,,./stim/wavs/cuban_match_declarative-broad-focus_Ana-lleva-el-abrigo.wav,0,,,178.3667,180.5152,0,1,1.6284,,0,56,56,50,1,51,0,cuban,,,,,,,,,,,,,,,,,,,,,,,,,,,,,,,,,,,,,,,,,,,,,,,,,,,,,,,,
,,,,,,,,,666ee37c2c2d032408112ced,Spanish,13 or older,"no, only English or Spanish",no,2025-07-24_07h23.42.416,empathy_intonation_perc_control,2024.2.4,Win32,59.88023952,666ee37c2c2d032408112ced,68817205a84113384fffdfe3,6882178f4e58651d272a1472,,,,,,,,,,,,./stim/wavs/castilian_match_interrogative-total-yn_David-leia-el-libro.wav,1,,,180.5159,183.0645,0,0,2.0204,,0,57,57,0,1,1,0,castilian,,,,,,,,,,,,,,,,,,,,,,,,,,,,,,,,,,,,,,,,,,,,,,,,,,,,,,,,
,,,,,,,,,666ee37c2c2d032408112ced,Spanish,13 or older,"no, only English or Spanish",no,2025-07-24_07h23.42.416,empathy_intonation_perc_control,2024.2.4,Win32,59.88023952,666ee37c2c2d032408112ced,68817205a84113384fffdfe3,6882178f4e58651d272a1472,,,,,,,,,,,,./stim/wavs/cuban_match_interrogative-total-yn_Marta-abre-el-regalo.wav,1,,,183.0653,185.1463,0,0,1.5555,,0,58,58,11,1,12,1,cuban,,,,,,,,,,,,,,,,,,,,,,,,,,,,,,,,,,,,,,,,,,,,,,,,,,,,,,,,
,,,,,,,,,666ee37c2c2d032408112ced,Spanish,13 or older,"no, only English or Spanish",no,2025-07-24_07h23.42.416,empathy_intonation_perc_control,2024.2.4,Win32,59.88023952,666ee37c2c2d032408112ced,68817205a84113384fffdfe3,6882178f4e58651d272a1472,,,,,,,,,,,,./stim/wavs/cuban_match_interrogative-total-yn_Daniel-iba-a-Bolivia.wav,1,,,185.1468,187.3955,0,0,1.7167,,0,59,59,7,1,8,1,cuban,,,,,,,,,,,,,,,,,,,,,,,,,,,,,,,,,,,,,,,,,,,,,,,,,,,,,,,,
,,,,,,,,,666ee37c2c2d032408112ced,Spanish,13 or older,"no, only English or Spanish",no,2025-07-24_07h23.42.416,empathy_intonation_perc_control,2024.2.4,Win32,59.88023952,666ee37c2c2d032408112ced,68817205a84113384fffdfe3,6882178f4e58651d272a1472,,,,,,,,,,,,./stim/wavs/castilian_match_declarative-broad-focus_Marta-abre-el-regalo.wav,0,,,187.3959,189.8275,0,1,1.9046,,0,60,60,49,1,50,0,castilian,,,,,,,,,,,,,,,,,,,,,,,,,,,,,,,,,,,,,,,,,,,,,,,,,,,,,,,,
,,,,,,,,,666ee37c2c2d032408112ced,Spanish,13 or older,"no, only English or Spanish",no,2025-07-24_07h23.42.416,empathy_intonation_perc_control,2024.2.4,Win32,59.88023952,666ee37c2c2d032408112ced,68817205a84113384fffdfe3,6882178f4e58651d272a1472,,,,,,,,,,,,./stim/wavs/puertorican_mismatch_declarative-broad-focus_El-bebe-comia-muy-bien.wav,0,,,189.8281,192.2096,0,1,1.8564,,0,61,61,83,1,84,0,puertorican,,,,,,,,,,,,,,,,,,,,,,,,,,,,,,,,,,,,,,,,,,,,,,,,,,,,,,,,
,,,,,,,,,666ee37c2c2d032408112ced,Spanish,13 or older,"no, only English or Spanish",no,2025-07-24_07h23.42.416,empathy_intonation_perc_control,2024.2.4,Win32,59.88023952,666ee37c2c2d032408112ced,68817205a84113384fffdfe3,6882178f4e58651d272a1472,,,,,,,,,,,,./stim/wavs/castilian_mismatch_declarative-broad-focus_Mi-tia-odia-la-lluvia.wav,0,,,192.2102,195.0084,0,1,2.2666,,0,62,62,72,1,73,0,castilian,,,,,,,,,,,,,,,,,,,,,,,,,,,,,,,,,,,,,,,,,,,,,,,,,,,,,,,,
,,,,,,,,,666ee37c2c2d032408112ced,Spanish,13 or older,"no, only English or Spanish",no,2025-07-24_07h23.42.416,empathy_intonation_perc_control,2024.2.4,Win32,59.88023952,666ee37c2c2d032408112ced,68817205a84113384fffdfe3,6882178f4e58651d272a1472,,,,,,,,,,,,./stim/wavs/castilian_match_declarative-broad-focus_David-leia-el-libro.wav,0,,,195.009,197.3573,0,1,1.8252,,0,63,63,44,1,45,0,castilian,,,,,,,,,,,,,,,,,,,,,,,,,,,,,,,,,,,,,,,,,,,,,,,,,,,,,,,,
,,,,,,,,,666ee37c2c2d032408112ced,Spanish,13 or older,"no, only English or Spanish",no,2025-07-24_07h23.42.416,empathy_intonation_perc_control,2024.2.4,Win32,59.88023952,666ee37c2c2d032408112ced,68817205a84113384fffdfe3,6882178f4e58651d272a1472,,,,,,,,,,,,./stim/wavs/mexican_match_declarative-broad-focus_David-leia-el-libro.wav,0,,,197.3579,199.4237,0,1,1.5461,,0,64,64,58,1,59,0,mexican,,,,,,,,,,,,,,,,,,,,,,,,,,,,,,,,,,,,,,,,,,,,,,,,,,,,,,,,
,,,,,,,,,666ee37c2c2d032408112ced,Spanish,13 or older,"no, only English or Spanish",no,2025-07-24_07h23.42.416,empathy_intonation_perc_control,2024.2.4,Win32,59.88023952,666ee37c2c2d032408112ced,68817205a84113384fffdfe3,6882178f4e58651d272a1472,,,,,,,,,,,,./stim/wavs/cuban_match_declarative-broad-focus_Daniel-iba-a-Bolivia.wav,0,,,199.4245,202.1386,0,1,2.1826,,0,65,65,51,1,52,0,cuban,,,,,,,,,,,,,,,,,,,,,,,,,,,,,,,,,,,,,,,,,,,,,,,,,,,,,,,,
,,,,,,,,,666ee37c2c2d032408112ced,Spanish,13 or older,"no, only English or Spanish",no,2025-07-24_07h23.42.416,empathy_intonation_perc_control,2024.2.4,Win32,59.88023952,666ee37c2c2d032408112ced,68817205a84113384fffdfe3,6882178f4e58651d272a1472,,,,,,,,,,,,./stim/wavs/mexican_match_declarative-broad-focus_Emilio-ama-la-marcha.wav,0,,,202.139,204.4874,0,1,1.8262,,0,66,66,59,1,60,0,mexican,,,,,,,,,,,,,,,,,,,,,,,,,,,,,,,,,,,,,,,,,,,,,,,,,,,,,,,,
,,,,,,,,,666ee37c2c2d032408112ced,Spanish,13 or older,"no, only English or Spanish",no,2025-07-24_07h23.42.416,empathy_intonation_perc_control,2024.2.4,Win32,59.88023952,666ee37c2c2d032408112ced,68817205a84113384fffdfe3,6882178f4e58651d272a1472,,,,,,,,,,,,./stim/wavs/castilian_mismatch_declarative-broad-focus_El-nino-oye-el-rio.wav,0,,,204.488,206.8863,0,1,1.8677,,0,67,67,68,1,69,0,castilian,,,,,,,,,,,,,,,,,,,,,,,,,,,,,,,,,,,,,,,,,,,,,,,,,,,,,,,,
,,,,,,,,,666ee37c2c2d032408112ced,Spanish,13 or older,"no, only English or Spanish",no,2025-07-24_07h23.42.416,empathy_intonation_perc_control,2024.2.4,Win32,59.88023952,666ee37c2c2d032408112ced,68817205a84113384fffdfe3,6882178f4e58651d272a1472,,,,,,,,,,,,./stim/wavs/cuban_mismatch_declarative-broad-focus_Mi-tia-odia-la-lluvia.wav,0,,,206.8867,209.1354,0,1,1.7166,,0,68,68,77,1,78,0,cuban,,,,,,,,,,,,,,,,,,,,,,,,,,,,,,,,,,,,,,,,,,,,,,,,,,,,,,,,
,,,,,,,,,666ee37c2c2d032408112ced,Spanish,13 or older,"no, only English or Spanish",no,2025-07-24_07h23.42.416,empathy_intonation_perc_control,2024.2.4,Win32,59.88023952,666ee37c2c2d032408112ced,68817205a84113384fffdfe3,6882178f4e58651d272a1472,,,,,,,,,,,,./stim/wavs/puertorican_mismatch_interrogative-total-yn_Mi-madre-come-la-fruta.wav,1,,,209.136,211.5204,0,0,1.8641,,0,69,69,43,1,44,1,puertorican,,,,,,,,,,,,,,,,,,,,,,,,,,,,,,,,,,,,,,,,,,,,,,,,,,,,,,,,
,,,,,,,,,666ee37c2c2d032408112ced,Spanish,13 or older,"no, only English or Spanish",no,2025-07-24_07h23.42.416,empathy_intonation_perc_control,2024.2.4,Win32,59.88023952,666ee37c2c2d032408112ced,68817205a84113384fffdfe3,6882178f4e58651d272a1472,,,,,,,,,,,,./stim/wavs/cuban_mismatch_interrogative-total-yn_Mi-madre-come-la-fruta.wav,1,,,211.5208,215.1,1,1,3.0467,,0,70,70,31,1,32,1,cuban,,,,,,,,,,,,,,,,,,,,,,,,,,,,,,,,,,,,,,,,,,,,,,,,,,,,,,,,
,,,,,,,,,666ee37c2c2d032408112ced,Spanish,13 or older,"no, only English or Spanish",no,2025-07-24_07h23.42.416,empathy_intonation_perc_control,2024.2.4,Win32,59.88023952,666ee37c2c2d032408112ced,68817205a84113384fffdfe3,6882178f4e58651d272a1472,,,,,,,,,,,,./stim/wavs/mexican_mismatch_declarative-broad-focus_Mi-tia-odia-la-lluvia.wav,0,,,215.1005,217.6315,0,1,1.9986,,0,71,71,82,1,83,0,mexican,,,,,,,,,,,,,,,,,,,,,,,,,,,,,,,,,,,,,,,,,,,,,,,,,,,,,,,,
,,,,,,,,,666ee37c2c2d032408112ced,Spanish,13 or older,"no, only English or Spanish",no,2025-07-24_07h23.42.416,empathy_intonation_perc_control,2024.2.4,Win32,59.88023952,666ee37c2c2d032408112ced,68817205a84113384fffdfe3,6882178f4e58651d272a1472,,,,,,,,,,,,./stim/wavs/mexican_match_interrogative-total-yn_Mariano-habla-del-tiempo.wav,1,,,217.6321,220.147,1,1,1.9897,,0,72,72,16,1,17,0,mexican,,,,,,,,,,,,,,,,,,,,,,,,,,,,,,,,,,,,,,,,,,,,,,,,,,,,,,,,
,,,,,,,,,666ee37c2c2d032408112ced,Spanish,13 or older,"no, only English or Spanish",no,2025-07-24_07h23.42.416,empathy_intonation_perc_control,2024.2.4,Win32,59.88023952,666ee37c2c2d032408112ced,68817205a84113384fffdfe3,6882178f4e58651d272a1472,,,,,,,,,,,,./stim/wavs/mexican_match_interrogative-total-yn_Emilio-ama-la-marcha.wav,1,,,220.1475,222.6459,1,1,1.966,,0,73,73,15,1,16,0,mexican,,,,,,,,,,,,,,,,,,,,,,,,,,,,,,,,,,,,,,,,,,,,,,,,,,,,,,,,
,,,,,,,,,666ee37c2c2d032408112ced,Spanish,13 or older,"no, only English or Spanish",no,2025-07-24_07h23.42.416,empathy_intonation_perc_control,2024.2.4,Win32,59.88023952,666ee37c2c2d032408112ced,68817205a84113384fffdfe3,6882178f4e58651d272a1472,,,,,,,,,,,,./stim/wavs/cuban_match_declarative-broad-focus_Mariano-habla-del-tiempo.wav,0,,,222.6466,224.9115,0,1,1.7377,,0,74,74,54,1,55,0,cuban,,,,,,,,,,,,,,,,,,,,,,,,,,,,,,,,,,,,,,,,,,,,,,,,,,,,,,,,
,,,,,,,,,666ee37c2c2d032408112ced,Spanish,13 or older,"no, only English or Spanish",no,2025-07-24_07h23.42.416,empathy_intonation_perc_control,2024.2.4,Win32,59.88023952,666ee37c2c2d032408112ced,68817205a84113384fffdfe3,6882178f4e58651d272a1472,,,,,,,,,,,,./stim/wavs/puertorican_match_declarative-broad-focus_Daniel-iba-a-Bolivia.wav,0,,,224.9123,227.227,0,1,1.7945,,0,75,75,63,1,64,0,puertorican,,,,,,,,,,,,,,,,,,,,,,,,,,,,,,,,,,,,,,,,,,,,,,,,,,,,,,,,
,,,,,,,,,666ee37c2c2d032408112ced,Spanish,13 or older,"no, only English or Spanish",no,2025-07-24_07h23.42.416,empathy_intonation_perc_control,2024.2.4,Win32,59.88023952,666ee37c2c2d032408112ced,68817205a84113384fffdfe3,6882178f4e58651d272a1472,,,,,,,,,,,,./stim/wavs/cuban_match_declarative-broad-focus_Marta-abre-el-regalo.wav,0,,,227.2274,229.5425,0,1,1.792,,0,76,76,55,1,56,0,cuban,,,,,,,,,,,,,,,,,,,,,,,,,,,,,,,,,,,,,,,,,,,,,,,,,,,,,,,,
,,,,,,,,,666ee37c2c2d032408112ced,Spanish,13 or older,"no, only English or Spanish",no,2025-07-24_07h23.42.416,empathy_intonation_perc_control,2024.2.4,Win32,59.88023952,666ee37c2c2d032408112ced,68817205a84113384fffdfe3,6882178f4e58651d272a1472,,,,,,,,,,,,./stim/wavs/cuban_match_declarative-broad-focus_Maria-bebe-el-vino.wav,0,,,229.5432,231.5584,0,1,1.4866,,0,77,77,53,1,54,0,cuban,,,,,,,,,,,,,,,,,,,,,,,,,,,,,,,,,,,,,,,,,,,,,,,,,,,,,,,,
,,,,,,,,,666ee37c2c2d032408112ced,Spanish,13 or older,"no, only English or Spanish",no,2025-07-24_07h23.42.416,empathy_intonation_perc_control,2024.2.4,Win32,59.88023952,666ee37c2c2d032408112ced,68817205a84113384fffdfe3,6882178f4e58651d272a1472,,,,,,,,,,,,./stim/wavs/puertorican_match_declarative-broad-focus_Ana-lleva-el-abrigo.wav,0,,,231.559,233.4573,0,1,1.3773,,0,78,78,62,1,63,0,puertorican,,,,,,,,,,,,,,,,,,,,,,,,,,,,,,,,,,,,,,,,,,,,,,,,,,,,,,,,
,,,,,,,,,666ee37c2c2d032408112ced,Spanish,13 or older,"no, only English or Spanish",no,2025-07-24_07h23.42.416,empathy_intonation_perc_control,2024.2.4,Win32,59.88023952,666ee37c2c2d032408112ced,68817205a84113384fffdfe3,6882178f4e58651d272a1472,,,,,,,,,,,,./stim/wavs/mexican_match_interrogative-total-yn_Daniel-iba-a-Bolivia.wav,1,,,233.4579,235.6232,1,1,1.6463,,0,79,79,13,1,14,0,mexican,,,,,,,,,,,,,,,,,,,,,,,,,,,,,,,,,,,,,,,,,,,,,,,,,,,,,,,,
,,,,,,,,,666ee37c2c2d032408112ced,Spanish,13 or older,"no, only English or Spanish",no,2025-07-24_07h23.42.416,empathy_intonation_perc_control,2024.2.4,Win32,59.88023952,666ee37c2c2d032408112ced,68817205a84113384fffdfe3,6882178f4e58651d272a1472,,,,,,,,,,,,./stim/wavs/mexican_match_interrogative-total-yn_David-leia-el-libro.wav,1,,,235.6237,237.9553,1,1,1.7853,,0,80,80,14,1,15,0,mexican,,,,,,,,,,,,,,,,,,,,,,,,,,,,,,,,,,,,,,,,,,,,,,,,,,,,,,,,
,,,,,,,,,666ee37c2c2d032408112ced,Spanish,13 or older,"no, only English or Spanish",no,2025-07-24_07h23.42.416,empathy_intonation_perc_control,2024.2.4,Win32,59.88023952,666ee37c2c2d032408112ced,68817205a84113384fffdfe3,6882178f4e58651d272a1472,,,,,,,,,,,,./stim/wavs/cuban_mismatch_interrogative-total-yn_El-nino-oye-el-rio.wav,1,,,237.9558,240.1257,0,0,1.6497,,0,81,81,30,1,31,1,cuban,,,,,,,,,,,,,,,,,,,,,,,,,,,,,,,,,,,,,,,,,,,,,,,,,,,,,,,,
,,,,,,,,,666ee37c2c2d032408112ced,Spanish,13 or older,"no, only English or Spanish",no,2025-07-24_07h23.42.416,empathy_intonation_perc_control,2024.2.4,Win32,59.88023952,666ee37c2c2d032408112ced,68817205a84113384fffdfe3,6882178f4e58651d272a1472,,,,,,,,,,,,./stim/wavs/mexican_mismatch_interrogative-total-yn_Mi-novio-viene-del-lago.wav,1,,,240.1262,242.1753,1,1,1.5329,,0,82,82,37,1,38,0,mexican,,,,,,,,,,,,,,,,,,,,,,,,,,,,,,,,,,,,,,,,,,,,,,,,,,,,,,,,
,,,,,,,,,666ee37c2c2d032408112ced,Spanish,13 or older,"no, only English or Spanish",no,2025-07-24_07h23.42.416,empathy_intonation_perc_control,2024.2.4,Win32,59.88023952,666ee37c2c2d032408112ced,68817205a84113384fffdfe3,6882178f4e58651d272a1472,,,,,,,,,,,,./stim/wavs/mexican_mismatch_declarative-broad-focus_La-maestra-vive-en-Paris.wav,0,,,242.1757,244.4024,0,1,1.7065,,0,83,83,80,1,81,0,mexican,,,,,,,,,,,,,,,,,,,,,,,,,,,,,,,,,,,,,,,,,,,,,,,,,,,,,,,,
,,,,,,,,,666ee37c2c2d032408112ced,Spanish,13 or older,"no, only English or Spanish",no,2025-07-24_07h23.42.416,empathy_intonation_perc_control,2024.2.4,Win32,59.88023952,666ee37c2c2d032408112ced,68817205a84113384fffdfe3,6882178f4e58651d272a1472,,,,,,,,,,,,./stim/wavs/castilian_mismatch_interrogative-total-yn_Mi-tia-odia-la-lluvia.wav,1,,,244.403,246.5352,1,1,1.6083,,0,84,84,28,1,29,0,castilian,,,,,,,,,,,,,,,,,,,,,,,,,,,,,,,,,,,,,,,,,,,,,,,,,,,,,,,,
,,,,,,,,,666ee37c2c2d032408112ced,Spanish,13 or older,"no, only English or Spanish",no,2025-07-24_07h23.42.416,empathy_intonation_perc_control,2024.2.4,Win32,59.88023952,666ee37c2c2d032408112ced,68817205a84113384fffdfe3,6882178f4e58651d272a1472,,,,,,,,,,,,./stim/wavs/castilian_match_interrogative-total-yn_Manuela-vende-el-carro.wav,1,,,246.5358,248.9336,1,1,1.8734,,0,85,85,2,1,3,0,castilian,,,,,,,,,,,,,,,,,,,,,,,,,,,,,,,,,,,,,,,,,,,,,,,,,,,,,,,,
,,,,,,,,,666ee37c2c2d032408112ced,Spanish,13 or older,"no, only English or Spanish",no,2025-07-24_07h23.42.416,empathy_intonation_perc_control,2024.2.4,Win32,59.88023952,666ee37c2c2d032408112ced,68817205a84113384fffdfe3,6882178f4e58651d272a1472,,,,,,,,,,,,./stim/wavs/mexican_mismatch_interrogative-total-yn_El-nino-oye-el-rio.wav,1,,,248.9341,251.1159,1,1,1.6613,,0,86,86,35,1,36,0,mexican,,,,,,,,,,,,,,,,,,,,,,,,,,,,,,,,,,,,,,,,,,,,,,,,,,,,,,,,
,,,,,,,,,666ee37c2c2d032408112ced,Spanish,13 or older,"no, only English or Spanish",no,2025-07-24_07h23.42.416,empathy_intonation_perc_control,2024.2.4,Win32,59.88023952,666ee37c2c2d032408112ced,68817205a84113384fffdfe3,6882178f4e58651d272a1472,,,,,,,,,,,,./stim/wavs/puertorican_mismatch_declarative-broad-focus_El-hombre-mira-la-luna.wav,0,,,251.1164,253.2028,0,1,1.5637,,0,87,87,84,1,85,0,puertorican,,,,,,,,,,,,,,,,,,,,,,,,,,,,,,,,,,,,,,,,,,,,,,,,,,,,,,,,
,,,,,,,"Great! Now we will move on. The next task consists of about 60 trials, in each of which you will see a string of letters. 
  
  Your task is to decide whether this is a real Spanish word or not.", (press the spacebar to continue),666ee37c2c2d032408112ced,Spanish,13 or older,"no, only English or Spanish",no,2025-07-24_07h23.42.416,empathy_intonation_perc_control,2024.2.4,Win32,59.88023952,666ee37c2c2d032408112ced,68817205a84113384fffdfe3,6882178f4e58651d272a1472,,,,,,,,,,,,,,,,,,,,,,,,,,,,,,253.208,259.0127,0,0,0,0,1,,,,,,,,,,,,,,,,,,,,,,,,,,,,,,,,,,,,,,,,,,,,,,,,,
,,,,,,,"If you think it is an existing Spanish word, you type '1' (for 'REAL'), and if you think it is not an existing Spanish word, you type '0' (for 'FAKE').", (press the spacebar to continue),666ee37c2c2d032408112ced,Spanish,13 or older,"no, only English or Spanish",no,2025-07-24_07h23.42.416,empathy_intonation_perc_control,2024.2.4,Win32,59.88023952,666ee37c2c2d032408112ced,68817205a84113384fffdfe3,6882178f4e58651d272a1472,,,,,,,,,,,,,,,,,,,,,,,,,,,,,,259.0153,262.944,0,1,1,1,1,,,,,,,,,,,,,,,,,,,,,,,,,,,,,,,,,,,,,,,,,,,,,,,,,
,,,,,,,"If you are sure that the word exists, even though you don’t know its exact meaning, you may still respond '1' (REAL). 
  
  But if you are not sure if it is an existing word, you should respond '0' (FAKE).
  
  Let's do a practice round...", (press the spacebar to continue),666ee37c2c2d032408112ced,Spanish,13 or older,"no, only English or Spanish",no,2025-07-24_07h23.42.416,empathy_intonation_perc_control,2024.2.4,Win32,59.88023952,666ee37c2c2d032408112ced,68817205a84113384fffdfe3,6882178f4e58651d272a1472,,,,,,,,,,,,,,,,,,,,,,,,,,,,,,262.9467,269.3459,0,2,2,2,1,,,,,,,,,,,,,,,,,,,,,,,,,,,,,,,,,,,,,,,,,,,,,,,,,
,,,,,,,,,666ee37c2c2d032408112ced,Spanish,13 or older,"no, only English or Spanish",no,2025-07-24_07h23.42.416,empathy_intonation_perc_control,2024.2.4,Win32,59.88023952,666ee37c2c2d032408112ced,68817205a84113384fffdfe3,6882178f4e58651d272a1472,,,,,,,,,,,,,0,,,,,,,,,,,,,,,,,,,,,,,,269.3503,271.6238,1,0,1.733,,271.6241,272.6233,0,0,0,0,1,0,depiste,REAL,FAKE,,,,,,,,,,,,,,,,,,,,,,,,,,,,,,,,
,,,,,,,,,666ee37c2c2d032408112ced,Spanish,13 or older,"no, only English or Spanish",no,2025-07-24_07h23.42.416,empathy_intonation_perc_control,2024.2.4,Win32,59.88023952,666ee37c2c2d032408112ced,68817205a84113384fffdfe3,6882178f4e58651d272a1472,,,,,,,,,,,,,1,,,,,,,,,,,,,,,,,,,,,,,,272.6265,274.2553,1,1,1.1048,,274.2565,275.2555,0,1,1,1,1,0,sí,REAL,FAKE,,,,,,,,,,,,,,,,,,,,,,,,,,,,,,,,
,,,,,,,,,666ee37c2c2d032408112ced,Spanish,13 or older,"no, only English or Spanish",no,2025-07-24_07h23.42.416,empathy_intonation_perc_control,2024.2.4,Win32,59.88023952,666ee37c2c2d032408112ced,68817205a84113384fffdfe3,6882178f4e58651d272a1472,,,,,,,,,,,,,0,,,,,,,,,,,,,,,,,,,,,,,,275.2576,277.3707,0,1,1.5696,,277.3707,278.3726,0,2,2,2,1,0,coné,REAL,FAKE,,,,,,,,,,,,,,,,,,,,,,,,,,,,,,,,
,,,,,,,,,666ee37c2c2d032408112ced,Spanish,13 or older,"no, only English or Spanish",no,2025-07-24_07h23.42.416,empathy_intonation_perc_control,2024.2.4,Win32,59.88023952,666ee37c2c2d032408112ced,68817205a84113384fffdfe3,6882178f4e58651d272a1472,,,,,,,,,,,,,0,,,,,,,,,,,,,,,,,,,,,,,,278.3737,280.0027,0,1,1.0868,,280.0028,281.0024,0,3,3,3,1,0,calpar,REAL,FAKE,,,,,,,,,,,,,,,,,,,,,,,,,,,,,,,,
,,,,,,,,,666ee37c2c2d032408112ced,Spanish,13 or older,"no, only English or Spanish",no,2025-07-24_07h23.42.416,empathy_intonation_perc_control,2024.2.4,Win32,59.88023952,666ee37c2c2d032408112ced,68817205a84113384fffdfe3,6882178f4e58651d272a1472,,,,,,,,,,,,,0,,,,,,,,,,,,,,,,,,,,,,,,281.0042,282.4517,0,1,0.9041,,282.4518,283.4511,0,4,4,4,1,0,joten,REAL,FAKE,,,,,,,,,,,,,,,,,,,,,,,,,,,,,,,,
,,,,,,,,,666ee37c2c2d032408112ced,Spanish,13 or older,"no, only English or Spanish",no,2025-07-24_07h23.42.416,empathy_intonation_perc_control,2024.2.4,Win32,59.88023952,666ee37c2c2d032408112ced,68817205a84113384fffdfe3,6882178f4e58651d272a1472,,,,,,,,,,,,,1,,,,,,,,,,,,,,,,,,,,,,,,283.4521,285.4002,0,0,1.4027,,285.4011,286.3998,0,5,5,5,1,0,sacapuntas,REAL,FAKE,,,,,,,,,,,,,,,,,,,,,,,,,,,,,,,,
,,,,,,,,,666ee37c2c2d032408112ced,Spanish,13 or older,"no, only English or Spanish",no,2025-07-24_07h23.42.416,empathy_intonation_perc_control,2024.2.4,Win32,59.88023952,666ee37c2c2d032408112ced,68817205a84113384fffdfe3,6882178f4e58651d272a1472,,,,,,,,,,,,,0,,,,,,,,,,,,,,,,,,,,,,,,286.4013,288.4489,0,1,1.4997,,288.45,289.4489,0,6,6,6,1,0,priba,REAL,FAKE,,,,,,,,,,,,,,,,,,,,,,,,,,,,,,,,
,,,,,,,,,666ee37c2c2d032408112ced,Spanish,13 or older,"no, only English or Spanish",no,2025-07-24_07h23.42.416,empathy_intonation_perc_control,2024.2.4,Win32,59.88023952,666ee37c2c2d032408112ced,68817205a84113384fffdfe3,6882178f4e58651d272a1472,,,,,,,,,,,,,0,,,,,,,,,,,,,,,,,,,,,,,,289.4503,293.3801,1,0,3.3822,,293.381,294.38,0,7,7,7,1,0,pelasula,REAL,FAKE,,,,,,,,,,,,,,,,,,,,,,,,,,,,,,,,
,,,,,,,,,666ee37c2c2d032408112ced,Spanish,13 or older,"no, only English or Spanish",no,2025-07-24_07h23.42.416,empathy_intonation_perc_control,2024.2.4,Win32,59.88023952,666ee37c2c2d032408112ced,68817205a84113384fffdfe3,6882178f4e58651d272a1472,,,,,,,,,,,,,1,,,,,,,,,,,,,,,,,,,,,,,,294.3814,297.4326,1,1,2.5157,,297.4331,298.4276,0,8,8,8,1,0,bien,REAL,FAKE,,,,,,,,,,,,,,,,,,,,,,,,,,,,,,,,
,,,,,,,,,666ee37c2c2d032408112ced,Spanish,13 or older,"no, only English or Spanish",no,2025-07-24_07h23.42.416,empathy_intonation_perc_control,2024.2.4,Win32,59.88023952,666ee37c2c2d032408112ced,68817205a84113384fffdfe3,6882178f4e58651d272a1472,,,,,,,,,,,,,1,,,,,,,,,,,,,,,,,,,,,,,,298.429,299.8768,1,1,0.903,,299.8769,300.8765,0,9,9,9,1,0,casa,REAL,FAKE,,,,,,,,,,,,,,,,,,,,,,,,,,,,,,,,
,,,,,,,,,666ee37c2c2d032408112ced,Spanish,13 or older,"no, only English or Spanish",no,2025-07-24_07h23.42.416,empathy_intonation_perc_control,2024.2.4,Win32,59.88023952,666ee37c2c2d032408112ced,68817205a84113384fffdfe3,6882178f4e58651d272a1472,,,,,,,,,,,,,0,,,,,,,,,,,,,,,,,,,,,,,,300.8779,302.6257,1,0,1.2166,,302.6271,303.6253,0,10,10,10,1,0,lejo,REAL,FAKE,,,,,,,,,,,,,,,,,,,,,,,,,,,,,,,,
,,,,,,,,,666ee37c2c2d032408112ced,Spanish,13 or older,"no, only English or Spanish",no,2025-07-24_07h23.42.416,empathy_intonation_perc_control,2024.2.4,Win32,59.88023952,666ee37c2c2d032408112ced,68817205a84113384fffdfe3,6882178f4e58651d272a1472,,,,,,,,,,,,,0,,,,,,,,,,,,,,,,,,,,,,,,303.6265,305.4077,0,1,1.2334,,305.4085,306.4072,0,11,11,11,1,0,pretantas,REAL,FAKE,,,,,,,,,,,,,,,,,,,,,,,,,,,,,,,,
,,,,,,,,,666ee37c2c2d032408112ced,Spanish,13 or older,"no, only English or Spanish",no,2025-07-24_07h23.42.416,empathy_intonation_perc_control,2024.2.4,Win32,59.88023952,666ee37c2c2d032408112ced,68817205a84113384fffdfe3,6882178f4e58651d272a1472,,,,,,,,,,,,,,,,,,,,,,,,,,,,,,,,,,,,,,,,,,,,,,,,,,,,,,306.4076,307.2739,,,,,,,,,,,,,,,,,,,,,,,,,,,,,,
,,,,,,,,,666ee37c2c2d032408112ced,Spanish,13 or older,"no, only English or Spanish",no,2025-07-24_07h23.42.416,empathy_intonation_perc_control,2024.2.4,Win32,59.88023952,666ee37c2c2d032408112ced,68817205a84113384fffdfe3,6882178f4e58651d272a1472,,,,,,,,,,,,,1,,,,,,,,,,,,,,,,,,,,,,,,,,,,,,,,,,,,,71,polvoriento,,,,,307.2833,310.0901,0,0,2.2657,,0,0,0,70,1,REAL,FAKE,,,,,,,,,,,,,,,,,
,,,,,,,,,666ee37c2c2d032408112ced,Spanish,13 or older,"no, only English or Spanish",no,2025-07-24_07h23.42.416,empathy_intonation_perc_control,2024.2.4,Win32,59.88023952,666ee37c2c2d032408112ced,68817205a84113384fffdfe3,6882178f4e58651d272a1472,,,,,,,,,,,,,1,,,,,,,,,,,,,,,,,,,,,,,,,,,,,,,,,,,,,38,estornudar,,,,,310.0911,312.2544,1,1,1.6239,,0,1,1,37,1,REAL,FAKE,,,,,,,,,,,,,,,,,
,,,,,,,,,666ee37c2c2d032408112ced,Spanish,13 or older,"no, only English or Spanish",no,2025-07-24_07h23.42.416,empathy_intonation_perc_control,2024.2.4,Win32,59.88023952,666ee37c2c2d032408112ced,68817205a84113384fffdfe3,6882178f4e58651d272a1472,,,,,,,,,,,,,0,,,,,,,,,,,,,,,,,,,,,,,,,,,,,,,,,,,,,79,tropaje,,,,,312.2554,314.1703,1,0,1.376,,0,2,2,78,1,REAL,FAKE,,,,,,,,,,,,,,,,,
,,,,,,,,,666ee37c2c2d032408112ced,Spanish,13 or older,"no, only English or Spanish",no,2025-07-24_07h23.42.416,empathy_intonation_perc_control,2024.2.4,Win32,59.88023952,666ee37c2c2d032408112ced,68817205a84113384fffdfe3,6882178f4e58651d272a1472,,,,,,,,,,,,,1,,,,,,,,,,,,,,,,,,,,,,,,,,,,,,,,,,,,,25,bisagra,,,,,314.1719,315.5195,0,0,0.8114,,0,3,3,24,1,REAL,FAKE,,,,,,,,,,,,,,,,,
,,,,,,,,,666ee37c2c2d032408112ced,Spanish,13 or older,"no, only English or Spanish",no,2025-07-24_07h23.42.416,empathy_intonation_perc_control,2024.2.4,Win32,59.88023952,666ee37c2c2d032408112ced,68817205a84113384fffdfe3,6882178f4e58651d272a1472,,,,,,,,,,,,,1,,,,,,,,,,,,,,,,,,,,,,,,,,,,,,,,,,,,,41,rebuscar,,,,,315.5207,319.9553,0,0,3.8984,,0,4,4,40,1,REAL,FAKE,,,,,,,,,,,,,,,,,
,,,,,,,,,666ee37c2c2d032408112ced,Spanish,13 or older,"no, only English or Spanish",no,2025-07-24_07h23.42.416,empathy_intonation_perc_control,2024.2.4,Win32,59.88023952,666ee37c2c2d032408112ced,68817205a84113384fffdfe3,6882178f4e58651d272a1472,,,,,,,,,,,,,1,,,,,,,,,,,,,,,,,,,,,,,,,,,,,,,,,,,,,34,aviso,,,,,319.9559,321.8667,0,0,1.3668,,0,5,5,33,1,REAL,FAKE,,,,,,,,,,,,,,,,,
,,,,,,,,,666ee37c2c2d032408112ced,Spanish,13 or older,"no, only English or Spanish",no,2025-07-24_07h23.42.416,empathy_intonation_perc_control,2024.2.4,Win32,59.88023952,666ee37c2c2d032408112ced,68817205a84113384fffdfe3,6882178f4e58651d272a1472,,,,,,,,,,,,,0,,,,,,,,,,,,,,,,,,,,,,,,,,,,,,,,,,,,,29,decar,,,,,321.8689,323.2663,0,1,0.8576,,0,6,6,28,1,REAL,FAKE,,,,,,,,,,,,,,,,,
,,,,,,,,,666ee37c2c2d032408112ced,Spanish,13 or older,"no, only English or Spanish",no,2025-07-24_07h23.42.416,empathy_intonation_perc_control,2024.2.4,Win32,59.88023952,666ee37c2c2d032408112ced,68817205a84113384fffdfe3,6882178f4e58651d272a1472,,,,,,,,,,,,,0,,,,,,,,,,,,,,,,,,,,,,,,,,,,,,,,,,,,,23,lampera,,,,,323.2683,324.6319,0,1,0.8164,,0,7,7,22,1,REAL,FAKE,,,,,,,,,,,,,,,,,
,,,,,,,,,666ee37c2c2d032408112ced,Spanish,13 or older,"no, only English or Spanish",no,2025-07-24_07h23.42.416,empathy_intonation_perc_control,2024.2.4,Win32,59.88023952,666ee37c2c2d032408112ced,68817205a84113384fffdfe3,6882178f4e58651d272a1472,,,,,,,,,,,,,1,,,,,,,,,,,,,,,,,,,,,,,,,,,,,,,,,,,,,43,canela,,,,,324.633,326.0819,1,1,0.9168,,0,8,8,42,1,REAL,FAKE,,,,,,,,,,,,,,,,,
,,,,,,,,,666ee37c2c2d032408112ced,Spanish,13 or older,"no, only English or Spanish",no,2025-07-24_07h23.42.416,empathy_intonation_perc_control,2024.2.4,Win32,59.88023952,666ee37c2c2d032408112ced,68817205a84113384fffdfe3,6882178f4e58651d272a1472,,,,,,,,,,,,,1,,,,,,,,,,,,,,,,,,,,,,,,,,,,,,,,,,,,,59,besar,,,,,326.0829,327.5308,1,1,0.9007,,0,9,9,58,1,REAL,FAKE,,,,,,,,,,,,,,,,,
,,,,,,,,,666ee37c2c2d032408112ced,Spanish,13 or older,"no, only English or Spanish",no,2025-07-24_07h23.42.416,empathy_intonation_perc_control,2024.2.4,Win32,59.88023952,666ee37c2c2d032408112ced,68817205a84113384fffdfe3,6882178f4e58651d272a1472,,,,,,,,,,,,,1,,,,,,,,,,,,,,,,,,,,,,,,,,,,,,,,,,,,,6,tergiversar,,,,,327.5319,329.1464,0,0,1.0778,,0,10,10,5,1,REAL,FAKE,,,,,,,,,,,,,,,,,
,,,,,,,,,666ee37c2c2d032408112ced,Spanish,13 or older,"no, only English or Spanish",no,2025-07-24_07h23.42.416,empathy_intonation_perc_control,2024.2.4,Win32,59.88023952,666ee37c2c2d032408112ced,68817205a84113384fffdfe3,6882178f4e58651d272a1472,,,,,,,,,,,,,1,,,,,,,,,,,,,,,,,,,,,,,,,,,,,,,,,,,,,88,acantilado,,,,,329.1476,331.5959,1,1,1.9007,,0,11,11,87,1,REAL,FAKE,,,,,,,,,,,,,,,,,
,,,,,,,,,666ee37c2c2d032408112ced,Spanish,13 or older,"no, only English or Spanish",no,2025-07-24_07h23.42.416,empathy_intonation_perc_control,2024.2.4,Win32,59.88023952,666ee37c2c2d032408112ced,68817205a84113384fffdfe3,6882178f4e58651d272a1472,,,,,,,,,,,,,1,,,,,,,,,,,,,,,,,,,,,,,,,,,,,,,,,,,,,83,guante,,,,,331.5971,333.0788,1,1,0.9331,,0,12,12,82,1,REAL,FAKE,,,,,,,,,,,,,,,,,
,,,,,,,,,666ee37c2c2d032408112ced,Spanish,13 or older,"no, only English or Spanish",no,2025-07-24_07h23.42.416,empathy_intonation_perc_control,2024.2.4,Win32,59.88023952,666ee37c2c2d032408112ced,68817205a84113384fffdfe3,6882178f4e58651d272a1472,,,,,,,,,,,,,1,,,,,,,,,,,,,,,,,,,,,,,,,,,,,,,,,,,,,13,helar,,,,,333.0799,334.2608,0,0,0.6431,,0,13,13,12,1,REAL,FAKE,,,,,,,,,,,,,,,,,
,,,,,,,,,666ee37c2c2d032408112ced,Spanish,13 or older,"no, only English or Spanish",no,2025-07-24_07h23.42.416,empathy_intonation_perc_control,2024.2.4,Win32,59.88023952,666ee37c2c2d032408112ced,68817205a84113384fffdfe3,6882178f4e58651d272a1472,,,,,,,,,,,,,1,,,,,,,,,,,,,,,,,,,,,,,,,,,,,,,,,,,,,39,torpe,,,,,334.2619,335.4985,0,0,0.7,,0,14,14,38,1,REAL,FAKE,,,,,,,,,,,,,,,,,
,,,,,,,,,666ee37c2c2d032408112ced,Spanish,13 or older,"no, only English or Spanish",no,2025-07-24_07h23.42.416,empathy_intonation_perc_control,2024.2.4,Win32,59.88023952,666ee37c2c2d032408112ced,68817205a84113384fffdfe3,6882178f4e58651d272a1472,,,,,,,,,,,,,0,,,,,,,,,,,,,,,,,,,,,,,,,,,,,,,,,,,,,53,vegada,,,,,335.4994,337.3598,0,1,1.3165,,0,15,15,52,1,REAL,FAKE,,,,,,,,,,,,,,,,,
,,,,,,,,,666ee37c2c2d032408112ced,Spanish,13 or older,"no, only English or Spanish",no,2025-07-24_07h23.42.416,empathy_intonation_perc_control,2024.2.4,Win32,59.88023952,666ee37c2c2d032408112ced,68817205a84113384fffdfe3,6882178f4e58651d272a1472,,,,,,,,,,,,,1,,,,,,,,,,,,,,,,,,,,,,,,,,,,,,,,,,,,,31,pandilla,,,,,337.3613,338.6591,1,1,0.7555,,0,16,16,30,1,REAL,FAKE,,,,,,,,,,,,,,,,,
,,,,,,,,,666ee37c2c2d032408112ced,Spanish,13 or older,"no, only English or Spanish",no,2025-07-24_07h23.42.416,empathy_intonation_perc_control,2024.2.4,Win32,59.88023952,666ee37c2c2d032408112ced,68817205a84113384fffdfe3,6882178f4e58651d272a1472,,,,,,,,,,,,,1,,,,,,,,,,,,,,,,,,,,,,,,,,,,,,,,,,,,,65,bizcocho,,,,,338.6607,340.4415,0,0,1.2332,,0,17,17,64,1,REAL,FAKE,,,,,,,,,,,,,,,,,
,,,,,,,,,666ee37c2c2d032408112ced,Spanish,13 or older,"no, only English or Spanish",no,2025-07-24_07h23.42.416,empathy_intonation_perc_control,2024.2.4,Win32,59.88023952,666ee37c2c2d032408112ced,68817205a84113384fffdfe3,6882178f4e58651d272a1472,,,,,,,,,,,,,0,,,,,,,,,,,,,,,,,,,,,,,,,,,,,,,,,,,,,30,alardio,,,,,340.4425,341.8743,0,1,0.8857,,0,18,18,29,1,REAL,FAKE,,,,,,,,,,,,,,,,,
,,,,,,,,,666ee37c2c2d032408112ced,Spanish,13 or older,"no, only English or Spanish",no,2025-07-24_07h23.42.416,empathy_intonation_perc_control,2024.2.4,Win32,59.88023952,666ee37c2c2d032408112ced,68817205a84113384fffdfe3,6882178f4e58651d272a1472,,,,,,,,,,,,,1,,,,,,,,,,,,,,,,,,,,,,,,,,,,,,,,,,,,,77,tiburón,,,,,341.8755,342.9928,0,0,0.5811,,0,19,19,76,1,REAL,FAKE,,,,,,,,,,,,,,,,,
,,,,,,,,,666ee37c2c2d032408112ced,Spanish,13 or older,"no, only English or Spanish",no,2025-07-24_07h23.42.416,empathy_intonation_perc_control,2024.2.4,Win32,59.88023952,666ee37c2c2d032408112ced,68817205a84113384fffdfe3,6882178f4e58651d272a1472,,,,,,,,,,,,,1,,,,,,,,,,,,,,,,,,,,,,,,,,,,,,,,,,,,,51,candado,,,,,342.9935,345.9224,0,0,2.3926,,0,20,20,50,1,REAL,FAKE,,,,,,,,,,,,,,,,,
,,,,,,,,,666ee37c2c2d032408112ced,Spanish,13 or older,"no, only English or Spanish",no,2025-07-24_07h23.42.416,empathy_intonation_perc_control,2024.2.4,Win32,59.88023952,666ee37c2c2d032408112ced,68817205a84113384fffdfe3,6882178f4e58651d272a1472,,,,,,,,,,,,,1,,,,,,,,,,,,,,,,,,,,,,,,,,,,,,,,,,,,,67,cabello,,,,,345.9235,347.4218,1,1,0.9532,,0,21,21,66,1,REAL,FAKE,,,,,,,,,,,,,,,,,
,,,,,,,,,666ee37c2c2d032408112ced,Spanish,13 or older,"no, only English or Spanish",no,2025-07-24_07h23.42.416,empathy_intonation_perc_control,2024.2.4,Win32,59.88023952,666ee37c2c2d032408112ced,68817205a84113384fffdfe3,6882178f4e58651d272a1472,,,,,,,,,,,,,0,,,,,,,,,,,,,,,,,,,,,,,,,,,,,,,,,,,,,70,temblo,,,,,347.4229,349.371,0,1,1.3997,,0,22,22,69,1,REAL,FAKE,,,,,,,,,,,,,,,,,
,,,,,,,,,666ee37c2c2d032408112ced,Spanish,13 or older,"no, only English or Spanish",no,2025-07-24_07h23.42.416,empathy_intonation_perc_control,2024.2.4,Win32,59.88023952,666ee37c2c2d032408112ced,68817205a84113384fffdfe3,6882178f4e58651d272a1472,,,,,,,,,,,,,0,,,,,,,,,,,,,,,,,,,,,,,,,,,,,,,,,,,,,50,flamida,,,,,349.373,351.1703,0,1,1.2619,,0,23,23,49,1,REAL,FAKE,,,,,,,,,,,,,,,,,
,,,,,,,,,666ee37c2c2d032408112ced,Spanish,13 or older,"no, only English or Spanish",no,2025-07-24_07h23.42.416,empathy_intonation_perc_control,2024.2.4,Win32,59.88023952,666ee37c2c2d032408112ced,68817205a84113384fffdfe3,6882178f4e58651d272a1472,,,,,,,,,,,,,1,,,,,,,,,,,,,,,,,,,,,,,,,,,,,,,,,,,,,85,laúd,,,,,351.1718,353.4853,1,1,1.776,,0,24,24,84,1,REAL,FAKE,,,,,,,,,,,,,,,,,
,,,,,,,,,666ee37c2c2d032408112ced,Spanish,13 or older,"no, only English or Spanish",no,2025-07-24_07h23.42.416,empathy_intonation_perc_control,2024.2.4,Win32,59.88023952,666ee37c2c2d032408112ced,68817205a84113384fffdfe3,6882178f4e58651d272a1472,,,,,,,,,,,,,1,,,,,,,,,,,,,,,,,,,,,,,,,,,,,,,,,,,,,5,zapato,,,,,353.4863,355.6683,1,1,1.6377,,0,25,25,4,1,REAL,FAKE,,,,,,,,,,,,,,,,,
,,,,,,,,,666ee37c2c2d032408112ced,Spanish,13 or older,"no, only English or Spanish",no,2025-07-24_07h23.42.416,empathy_intonation_perc_control,2024.2.4,Win32,59.88023952,666ee37c2c2d032408112ced,68817205a84113384fffdfe3,6882178f4e58651d272a1472,,,,,,,,,,,,,1,,,,,,,,,,,,,,,,,,,,,,,,,,,,,,,,,,,,,60,matar,,,,,355.6695,357.4836,1,1,1.2695,,0,26,26,59,1,REAL,FAKE,,,,,,,,,,,,,,,,,
,,,,,,,,,666ee37c2c2d032408112ced,Spanish,13 or older,"no, only English or Spanish",no,2025-07-24_07h23.42.416,empathy_intonation_perc_control,2024.2.4,Win32,59.88023952,666ee37c2c2d032408112ced,68817205a84113384fffdfe3,6882178f4e58651d272a1472,,,,,,,,,,,,,1,,,,,,,,,,,,,,,,,,,,,,,,,,,,,,,,,,,,,3,pulmones,,,,,357.4845,358.65,0,0,0.6169,,0,27,27,2,1,REAL,FAKE,,,,,,,,,,,,,,,,,
,,,,,,,,,666ee37c2c2d032408112ced,Spanish,13 or older,"no, only English or Spanish",no,2025-07-24_07h23.42.416,empathy_intonation_perc_control,2024.2.4,Win32,59.88023952,666ee37c2c2d032408112ced,68817205a84113384fffdfe3,6882178f4e58651d272a1472,,,,,,,,,,,,,1,,,,,,,,,,,,,,,,,,,,,,,,,,,,,,,,,,,,,64,orgulloso,,,,,358.6515,360.4823,0,0,1.2924,,0,28,28,63,1,REAL,FAKE,,,,,,,,,,,,,,,,,
,,,,,,,,,666ee37c2c2d032408112ced,Spanish,13 or older,"no, only English or Spanish",no,2025-07-24_07h23.42.416,empathy_intonation_perc_control,2024.2.4,Win32,59.88023952,666ee37c2c2d032408112ced,68817205a84113384fffdfe3,6882178f4e58651d272a1472,,,,,,,,,,,,,0,,,,,,,,,,,,,,,,,,,,,,,,,,,,,,,,,,,,,17,floroso,,,,,360.4834,361.7649,0,1,0.7408,,0,29,29,16,1,REAL,FAKE,,,,,,,,,,,,,,,,,
,,,,,,,,,666ee37c2c2d032408112ced,Spanish,13 or older,"no, only English or Spanish",no,2025-07-24_07h23.42.416,empathy_intonation_perc_control,2024.2.4,Win32,59.88023952,666ee37c2c2d032408112ced,68817205a84113384fffdfe3,6882178f4e58651d272a1472,,,,,,,,,,,,,1,,,,,,,,,,,,,,,,,,,,,,,,,,,,,,,,,,,,,73,hervidor,,,,,361.7661,363.2483,0,0,0.9374,,0,30,30,72,1,REAL,FAKE,,,,,,,,,,,,,,,,,
,,,,,,,,,666ee37c2c2d032408112ced,Spanish,13 or older,"no, only English or Spanish",no,2025-07-24_07h23.42.416,empathy_intonation_perc_control,2024.2.4,Win32,59.88023952,666ee37c2c2d032408112ced,68817205a84113384fffdfe3,6882178f4e58651d272a1472,,,,,,,,,,,,,1,,,,,,,,,,,,,,,,,,,,,,,,,,,,,,,,,,,,,90,clavel,,,,,363.25,364.5469,0,0,0.7518,,0,31,31,89,1,REAL,FAKE,,,,,,,,,,,,,,,,,
,,,,,,,,,666ee37c2c2d032408112ced,Spanish,13 or older,"no, only English or Spanish",no,2025-07-24_07h23.42.416,empathy_intonation_perc_control,2024.2.4,Win32,59.88023952,666ee37c2c2d032408112ced,68817205a84113384fffdfe3,6882178f4e58651d272a1472,,,,,,,,,,,,,0,,,,,,,,,,,,,,,,,,,,,,,,,,,,,,,,,,,,,10,antar,,,,,364.548,365.8971,0,1,0.8006,,0,32,32,9,1,REAL,FAKE,,,,,,,,,,,,,,,,,
,,,,,,,,,666ee37c2c2d032408112ced,Spanish,13 or older,"no, only English or Spanish",no,2025-07-24_07h23.42.416,empathy_intonation_perc_control,2024.2.4,Win32,59.88023952,666ee37c2c2d032408112ced,68817205a84113384fffdfe3,6882178f4e58651d272a1472,,,,,,,,,,,,,0,,,,,,,,,,,,,,,,,,,,,,,,,,,,,,,,,,,,,63,esposante,,,,,365.8988,367.7789,1,0,1.3521,,0,33,33,62,1,REAL,FAKE,,,,,,,,,,,,,,,,,
,,,,,,,,,666ee37c2c2d032408112ced,Spanish,13 or older,"no, only English or Spanish",no,2025-07-24_07h23.42.416,empathy_intonation_perc_control,2024.2.4,Win32,59.88023952,666ee37c2c2d032408112ced,68817205a84113384fffdfe3,6882178f4e58651d272a1472,,,,,,,,,,,,,1,,,,,,,,,,,,,,,,,,,,,,,,,,,,,,,,,,,,,40,alfombra,,,,,367.7807,369.1119,0,0,0.7836,,0,34,34,39,1,REAL,FAKE,,,,,,,,,,,,,,,,,
,,,,,,,,,666ee37c2c2d032408112ced,Spanish,13 or older,"no, only English or Spanish",no,2025-07-24_07h23.42.416,empathy_intonation_perc_control,2024.2.4,Win32,59.88023952,666ee37c2c2d032408112ced,68817205a84113384fffdfe3,6882178f4e58651d272a1472,,,,,,,,,,,,,0,,,,,,,,,,,,,,,,,,,,,,,,,,,,,,,,,,,,,8,cadeña,,,,,369.1134,371.8607,0,1,2.2006,,0,35,35,7,1,REAL,FAKE,,,,,,,,,,,,,,,,,
,,,,,,,,,666ee37c2c2d032408112ced,Spanish,13 or older,"no, only English or Spanish",no,2025-07-24_07h23.42.416,empathy_intonation_perc_control,2024.2.4,Win32,59.88023952,666ee37c2c2d032408112ced,68817205a84113384fffdfe3,6882178f4e58651d272a1472,,,,,,,,,,,,,1,,,,,,,,,,,,,,,,,,,,,,,,,,,,,,,,,,,,,37,granuja,,,,,371.8617,374.4593,1,1,2.0615,,0,36,36,36,1,REAL,FAKE,,,,,,,,,,,,,,,,,
,,,,,,,,,666ee37c2c2d032408112ced,Spanish,13 or older,"no, only English or Spanish",no,2025-07-24_07h23.42.416,empathy_intonation_perc_control,2024.2.4,Win32,59.88023952,666ee37c2c2d032408112ced,68817205a84113384fffdfe3,6882178f4e58651d272a1472,,,,,,,,,,,,,1,,,,,,,,,,,,,,,,,,,,,,,,,,,,,,,,,,,,,49,ganar,,,,,374.4603,376.1749,0,0,1.1771,,0,37,37,48,1,REAL,FAKE,,,,,,,,,,,,,,,,,
,,,,,,,,,666ee37c2c2d032408112ced,Spanish,13 or older,"no, only English or Spanish",no,2025-07-24_07h23.42.416,empathy_intonation_perc_control,2024.2.4,Win32,59.88023952,666ee37c2c2d032408112ced,68817205a84113384fffdfe3,6882178f4e58651d272a1472,,,,,,,,,,,,,1,,,,,,,,,,,,,,,,,,,,,,,,,,,,,,,,,,,,,7,pésimo,,,,,376.1759,377.8453,0,0,1.1496,,0,38,38,6,1,REAL,FAKE,,,,,,,,,,,,,,,,,
,,,,,,,,,666ee37c2c2d032408112ced,Spanish,13 or older,"no, only English or Spanish",no,2025-07-24_07h23.42.416,empathy_intonation_perc_control,2024.2.4,Win32,59.88023952,666ee37c2c2d032408112ced,68817205a84113384fffdfe3,6882178f4e58651d272a1472,,,,,,,,,,,,,0,,,,,,,,,,,,,,,,,,,,,,,,,,,,,,,,,,,,,16,abracer,,,,,377.8463,380.8727,0,1,2.4827,,0,39,39,15,1,REAL,FAKE,,,,,,,,,,,,,,,,,
,,,,,,,,,666ee37c2c2d032408112ced,Spanish,13 or older,"no, only English or Spanish",no,2025-07-24_07h23.42.416,empathy_intonation_perc_control,2024.2.4,Win32,59.88023952,666ee37c2c2d032408112ced,68817205a84113384fffdfe3,6882178f4e58651d272a1472,,,,,,,,,,,,,1,,,,,,,,,,,,,,,,,,,,,,,,,,,,,,,,,,,,,81,pozo,,,,,380.8737,382.2885,0,0,0.875,,0,40,40,80,1,REAL,FAKE,,,,,,,,,,,,,,,,,
,,,,,,,,,666ee37c2c2d032408112ced,Spanish,13 or older,"no, only English or Spanish",no,2025-07-24_07h23.42.416,empathy_intonation_perc_control,2024.2.4,Win32,59.88023952,666ee37c2c2d032408112ced,68817205a84113384fffdfe3,6882178f4e58651d272a1472,,,,,,,,,,,,,0,,,,,,,,,,,,,,,,,,,,,,,,,,,,,,,,,,,,,58,plaudir,,,,,382.2895,384.4256,0,1,1.6164,,0,41,41,57,1,REAL,FAKE,,,,,,,,,,,,,,,,,
,,,,,,,,,666ee37c2c2d032408112ced,Spanish,13 or older,"no, only English or Spanish",no,2025-07-24_07h23.42.416,empathy_intonation_perc_control,2024.2.4,Win32,59.88023952,666ee37c2c2d032408112ced,68817205a84113384fffdfe3,6882178f4e58651d272a1472,,,,,,,,,,,,,1,,,,,,,,,,,,,,,,,,,,,,,,,,,,,,,,,,,,,55,nevar,,,,,384.4265,387.6861,1,1,2.7256,,0,42,42,54,1,REAL,FAKE,,,,,,,,,,,,,,,,,
,,,,,,,,,666ee37c2c2d032408112ced,Spanish,13 or older,"no, only English or Spanish",no,2025-07-24_07h23.42.416,empathy_intonation_perc_control,2024.2.4,Win32,59.88023952,666ee37c2c2d032408112ced,68817205a84113384fffdfe3,6882178f4e58651d272a1472,,,,,,,,,,,,,1,,,,,,,,,,,,,,,,,,,,,,,,,,,,,,,,,,,,,24,látigo,,,,,387.6874,390.9348,0,0,2.7089,,0,43,43,23,1,REAL,FAKE,,,,,,,,,,,,,,,,,
,,,,,,,,,666ee37c2c2d032408112ced,Spanish,13 or older,"no, only English or Spanish",no,2025-07-24_07h23.42.416,empathy_intonation_perc_control,2024.2.4,Win32,59.88023952,666ee37c2c2d032408112ced,68817205a84113384fffdfe3,6882178f4e58651d272a1472,,,,,,,,,,,,,0,,,,,,,,,,,,,,,,,,,,,,,,,,,,,,,,,,,,,82,empirador,,,,,390.9359,392.4014,0,1,0.9217,,0,44,44,81,1,REAL,FAKE,,,,,,,,,,,,,,,,,
,,,,,,,,,666ee37c2c2d032408112ced,Spanish,13 or older,"no, only English or Spanish",no,2025-07-24_07h23.42.416,empathy_intonation_perc_control,2024.2.4,Win32,59.88023952,666ee37c2c2d032408112ced,68817205a84113384fffdfe3,6882178f4e58651d272a1472,,,,,,,,,,,,,0,,,,,,,,,,,,,,,,,,,,,,,,,,,,,,,,,,,,,92,click the 0 key.,,,,,392.4032,394.4332,0,1,1.4916,,0,45,45,91,1,REAL,FAKE,,,,,,,,,,,,,,,,,
,,,,,,,,,666ee37c2c2d032408112ced,Spanish,13 or older,"no, only English or Spanish",no,2025-07-24_07h23.42.416,empathy_intonation_perc_control,2024.2.4,Win32,59.88023952,666ee37c2c2d032408112ced,68817205a84113384fffdfe3,6882178f4e58651d272a1472,,,,,,,,,,,,,0,,,,,,,,,,,,,,,,,,,,,,,,,,,,,,,,,,,,,33,pauca,,,,,394.4343,396.4659,0,1,1.5,,0,46,46,32,1,REAL,FAKE,,,,,,,,,,,,,,,,,
,,,,,,,,,666ee37c2c2d032408112ced,Spanish,13 or older,"no, only English or Spanish",no,2025-07-24_07h23.42.416,empathy_intonation_perc_control,2024.2.4,Win32,59.88023952,666ee37c2c2d032408112ced,68817205a84113384fffdfe3,6882178f4e58651d272a1472,,,,,,,,,,,,,1,,,,,,,,,,,,,,,,,,,,,,,,,,,,,,,,,,,,,36,loro,,,,,396.4677,398.1318,1,1,1.1219,,0,47,47,35,1,REAL,FAKE,,,,,,,,,,,,,,,,,
,,,,,,,,,666ee37c2c2d032408112ced,Spanish,13 or older,"no, only English or Spanish",no,2025-07-24_07h23.42.416,empathy_intonation_perc_control,2024.2.4,Win32,59.88023952,666ee37c2c2d032408112ced,68817205a84113384fffdfe3,6882178f4e58651d272a1472,,,,,,,,,,,,,0,,,,,,,,,,,,,,,,,,,,,,,,,,,,,,,,,,,,,1,terzo,,,,,398.1331,399.2143,0,1,0.5397,,0,48,48,0,1,REAL,FAKE,,,,,,,,,,,,,,,,,
,,,,,,,,,666ee37c2c2d032408112ced,Spanish,13 or older,"no, only English or Spanish",no,2025-07-24_07h23.42.416,empathy_intonation_perc_control,2024.2.4,Win32,59.88023952,666ee37c2c2d032408112ced,68817205a84113384fffdfe3,6882178f4e58651d272a1472,,,,,,,,,,,,,1,,,,,,,,,,,,,,,,,,,,,,,,,,,,,,,,,,,,,62,flaco,,,,,399.2153,400.5138,1,1,0.7579,,0,49,49,61,1,REAL,FAKE,,,,,,,,,,,,,,,,,
,,,,,,,,,666ee37c2c2d032408112ced,Spanish,13 or older,"no, only English or Spanish",no,2025-07-24_07h23.42.416,empathy_intonation_perc_control,2024.2.4,Win32,59.88023952,666ee37c2c2d032408112ced,68817205a84113384fffdfe3,6882178f4e58651d272a1472,,,,,,,,,,,,,1,,,,,,,,,,,,,,,,,,,,,,,,,,,,,,,,,,,,,26,secuestro,,,,,400.5148,402.28,1,1,1.2288,,0,50,50,25,1,REAL,FAKE,,,,,,,,,,,,,,,,,
,,,,,,,,,666ee37c2c2d032408112ced,Spanish,13 or older,"no, only English or Spanish",no,2025-07-24_07h23.42.416,empathy_intonation_perc_control,2024.2.4,Win32,59.88023952,666ee37c2c2d032408112ced,68817205a84113384fffdfe3,6882178f4e58651d272a1472,,,,,,,,,,,,,1,,,,,,,,,,,,,,,,,,,,,,,,,,,,,,,,,,,,,22,lacayo,,,,,402.2811,403.4623,0,0,0.6386,,0,51,51,21,1,REAL,FAKE,,,,,,,,,,,,,,,,,
,,,,,,,,,666ee37c2c2d032408112ced,Spanish,13 or older,"no, only English or Spanish",no,2025-07-24_07h23.42.416,empathy_intonation_perc_control,2024.2.4,Win32,59.88023952,666ee37c2c2d032408112ced,68817205a84113384fffdfe3,6882178f4e58651d272a1472,,,,,,,,,,,,,1,,,,,,,,,,,,,,,,,,,,,,,,,,,,,,,,,,,,,75,yacer,,,,,403.4633,405.0332,0,0,1.0334,,0,52,52,74,1,REAL,FAKE,,,,,,,,,,,,,,,,,
,,,,,,,,,666ee37c2c2d032408112ced,Spanish,13 or older,"no, only English or Spanish",no,2025-07-24_07h23.42.416,empathy_intonation_perc_control,2024.2.4,Win32,59.88023952,666ee37c2c2d032408112ced,68817205a84113384fffdfe3,6882178f4e58651d272a1472,,,,,,,,,,,,,1,,,,,,,,,,,,,,,,,,,,,,,,,,,,,,,,,,,,,56,musgo,,,,,405.0341,406.5442,0,0,0.9736,,0,53,53,55,1,REAL,FAKE,,,,,,,,,,,,,,,,,
,,,,,,,,,666ee37c2c2d032408112ced,Spanish,13 or older,"no, only English or Spanish",no,2025-07-24_07h23.42.416,empathy_intonation_perc_control,2024.2.4,Win32,59.88023952,666ee37c2c2d032408112ced,68817205a84113384fffdfe3,6882178f4e58651d272a1472,,,,,,,,,,,,,1,,,,,,,,,,,,,,,,,,,,,,,,,,,,,,,,,,,,,9,hacha,,,,,406.5452,407.8603,1,1,0.795,,0,54,54,8,1,REAL,FAKE,,,,,,,,,,,,,,,,,
,,,,,,,,,666ee37c2c2d032408112ced,Spanish,13 or older,"no, only English or Spanish",no,2025-07-24_07h23.42.416,empathy_intonation_perc_control,2024.2.4,Win32,59.88023952,666ee37c2c2d032408112ced,68817205a84113384fffdfe3,6882178f4e58651d272a1472,,,,,,,,,,,,,1,,,,,,,,,,,,,,,,,,,,,,,,,,,,,,,,,,,,,20,ávido,,,,,407.8614,409.293,0,0,0.8837,,0,55,55,19,1,REAL,FAKE,,,,,,,,,,,,,,,,,
,,,,,,,,,666ee37c2c2d032408112ced,Spanish,13 or older,"no, only English or Spanish",no,2025-07-24_07h23.42.416,empathy_intonation_perc_control,2024.2.4,Win32,59.88023952,666ee37c2c2d032408112ced,68817205a84113384fffdfe3,6882178f4e58651d272a1472,,,,,,,,,,,,,1,,,,,,,,,,,,,,,,,,,,,,,,,,,,,,,,,,,,,45,jilguero,,,,,409.2941,410.4759,0,0,0.6334,,0,56,56,44,1,REAL,FAKE,,,,,,,,,,,,,,,,,
,,,,,,,,,666ee37c2c2d032408112ced,Spanish,13 or older,"no, only English or Spanish",no,2025-07-24_07h23.42.416,empathy_intonation_perc_control,2024.2.4,Win32,59.88023952,666ee37c2c2d032408112ced,68817205a84113384fffdfe3,6882178f4e58651d272a1472,,,,,,,,,,,,,1,,,,,,,,,,,,,,,,,,,,,,,,,,,,,,,,,,,,,61,seda,,,,,410.4774,413.0413,1,1,2.0154,,0,57,57,60,1,REAL,FAKE,,,,,,,,,,,,,,,,,
,,,,,,,,,666ee37c2c2d032408112ced,Spanish,13 or older,"no, only English or Spanish",no,2025-07-24_07h23.42.416,empathy_intonation_perc_control,2024.2.4,Win32,59.88023952,666ee37c2c2d032408112ced,68817205a84113384fffdfe3,6882178f4e58651d272a1472,,,,,,,,,,,,,0,,,,,,,,,,,,,,,,,,,,,,,,,,,,,,,,,,,,,74,cintro,,,,,413.0424,414.2075,0,1,0.617,,0,58,58,73,1,REAL,FAKE,,,,,,,,,,,,,,,,,
,,,,,,,,,666ee37c2c2d032408112ced,Spanish,13 or older,"no, only English or Spanish",no,2025-07-24_07h23.42.416,empathy_intonation_perc_control,2024.2.4,Win32,59.88023952,666ee37c2c2d032408112ced,68817205a84113384fffdfe3,6882178f4e58651d272a1472,,,,,,,,,,,,,1,,,,,,,,,,,,,,,,,,,,,,,,,,,,,,,,,,,,,28,merodear,,,,,414.2093,415.3401,0,0,0.5877,,0,59,59,27,1,REAL,FAKE,,,,,,,,,,,,,,,,,
,,,,,,,,,666ee37c2c2d032408112ced,Spanish,13 or older,"no, only English or Spanish",no,2025-07-24_07h23.42.416,empathy_intonation_perc_control,2024.2.4,Win32,59.88023952,666ee37c2c2d032408112ced,68817205a84113384fffdfe3,6882178f4e58651d272a1472,,,,,,,,,,,,,1,,,,,,,,,,,,,,,,,,,,,,,,,,,,,,,,,,,,,14,yunque,,,,,415.3411,416.64,0,0,0.7559,,0,60,60,13,1,REAL,FAKE,,,,,,,,,,,,,,,,,
,,,,,,,,,666ee37c2c2d032408112ced,Spanish,13 or older,"no, only English or Spanish",no,2025-07-24_07h23.42.416,empathy_intonation_perc_control,2024.2.4,Win32,59.88023952,666ee37c2c2d032408112ced,68817205a84113384fffdfe3,6882178f4e58651d272a1472,,,,,,,,,,,,,1,,,,,,,,,,,,,,,,,,,,,,,,,,,,,,,,,,,,,78,frondoso,,,,,416.6417,417.8059,0,0,0.6207,,0,61,61,77,1,REAL,FAKE,,,,,,,,,,,,,,,,,
,,,,,,,,,666ee37c2c2d032408112ced,Spanish,13 or older,"no, only English or Spanish",no,2025-07-24_07h23.42.416,empathy_intonation_perc_control,2024.2.4,Win32,59.88023952,666ee37c2c2d032408112ced,68817205a84113384fffdfe3,6882178f4e58651d272a1472,,,,,,,,,,,,,1,,,,,,,,,,,,,,,,,,,,,,,,,,,,,,,,,,,,,89,prisa,,,,,417.8075,419.305,0,0,0.9512,,0,62,62,88,1,REAL,FAKE,,,,,,,,,,,,,,,,,
,,,,,,,,,666ee37c2c2d032408112ced,Spanish,13 or older,"no, only English or Spanish",no,2025-07-24_07h23.42.416,empathy_intonation_perc_control,2024.2.4,Win32,59.88023952,666ee37c2c2d032408112ced,68817205a84113384fffdfe3,6882178f4e58651d272a1472,,,,,,,,,,,,,1,,,,,,,,,,,,,,,,,,,,,,,,,,,,,,,,,,,,,11,cenefa,,,,,419.306,420.4385,0,0,0.6063,,0,63,63,10,1,REAL,FAKE,,,,,,,,,,,,,,,,,
,,,,,,,,,666ee37c2c2d032408112ced,Spanish,13 or older,"no, only English or Spanish",no,2025-07-24_07h23.42.416,empathy_intonation_perc_control,2024.2.4,Win32,59.88023952,666ee37c2c2d032408112ced,68817205a84113384fffdfe3,6882178f4e58651d272a1472,,,,,,,,,,,,,0,,,,,,,,,,,,,,,,,,,,,,,,,,,,,,,,,,,,,87,grodo,,,,,420.4397,421.9207,0,1,0.9332,,0,64,64,86,1,REAL,FAKE,,,,,,,,,,,,,,,,,
,,,,,,,,,666ee37c2c2d032408112ced,Spanish,13 or older,"no, only English or Spanish",no,2025-07-24_07h23.42.416,empathy_intonation_perc_control,2024.2.4,Win32,59.88023952,666ee37c2c2d032408112ced,68817205a84113384fffdfe3,6882178f4e58651d272a1472,,,,,,,,,,,,,0,,,,,,,,,,,,,,,,,,,,,,,,,,,,,,,,,,,,,27,acutación,,,,,421.9223,423.0032,0,1,0.5406,,0,65,65,26,1,REAL,FAKE,,,,,,,,,,,,,,,,,
,,,,,,,,,666ee37c2c2d032408112ced,Spanish,13 or older,"no, only English or Spanish",no,2025-07-24_07h23.42.416,empathy_intonation_perc_control,2024.2.4,Win32,59.88023952,666ee37c2c2d032408112ced,68817205a84113384fffdfe3,6882178f4e58651d272a1472,,,,,,,,,,,,,1,,,,,,,,,,,,,,,,,,,,,,,,,,,,,,,,,,,,,57,tacaño,,,,,423.0043,424.3863,0,0,0.85,,0,66,66,56,1,REAL,FAKE,,,,,,,,,,,,,,,,,
,,,,,,,,,666ee37c2c2d032408112ced,Spanish,13 or older,"no, only English or Spanish",no,2025-07-24_07h23.42.416,empathy_intonation_perc_control,2024.2.4,Win32,59.88023952,666ee37c2c2d032408112ced,68817205a84113384fffdfe3,6882178f4e58651d272a1472,,,,,,,,,,,,,1,,,,,,,,,,,,,,,,,,,,,,,,,,,,,,,,,,,,,15,regar,,,,,424.3879,425.5402,0,0,0.6168,,0,67,67,14,1,REAL,FAKE,,,,,,,,,,,,,,,,,
,,,,,,,,,666ee37c2c2d032408112ced,Spanish,13 or older,"no, only English or Spanish",no,2025-07-24_07h23.42.416,empathy_intonation_perc_control,2024.2.4,Win32,59.88023952,666ee37c2c2d032408112ced,68817205a84113384fffdfe3,6882178f4e58651d272a1472,,,,,,,,,,,,,0,,,,,,,,,,,,,,,,,,,,,,,,,,,,,,,,,,,,,84,escuto,,,,,425.541,426.8184,0,1,0.7336,,0,68,68,83,1,REAL,FAKE,,,,,,,,,,,,,,,,,
,,,,,,,,,666ee37c2c2d032408112ced,Spanish,13 or older,"no, only English or Spanish",no,2025-07-24_07h23.42.416,empathy_intonation_perc_control,2024.2.4,Win32,59.88023952,666ee37c2c2d032408112ced,68817205a84113384fffdfe3,6882178f4e58651d272a1472,,,,,,,,,,,,,0,,,,,,,,,,,,,,,,,,,,,,,,,,,,,,,,,,,,,66,hacido,,,,,426.82,428.0512,1,0,0.6902,,0,69,69,65,1,REAL,FAKE,,,,,,,,,,,,,,,,,
,,,,,,,,,666ee37c2c2d032408112ced,Spanish,13 or older,"no, only English or Spanish",no,2025-07-24_07h23.42.416,empathy_intonation_perc_control,2024.2.4,Win32,59.88023952,666ee37c2c2d032408112ced,68817205a84113384fffdfe3,6882178f4e58651d272a1472,,,,,,,,,,,,,0,,,,,,,,,,,,,,,,,,,,,,,,,,,,,,,,,,,,,47,cartinar,,,,,428.0525,429.5176,0,1,0.9206,,0,70,70,46,1,REAL,FAKE,,,,,,,,,,,,,,,,,
,,,,,,,,,666ee37c2c2d032408112ced,Spanish,13 or older,"no, only English or Spanish",no,2025-07-24_07h23.42.416,empathy_intonation_perc_control,2024.2.4,Win32,59.88023952,666ee37c2c2d032408112ced,68817205a84113384fffdfe3,6882178f4e58651d272a1472,,,,,,,,,,,,,0,,,,,,,,,,,,,,,,,,,,,,,,,,,,,,,,,,,,,72,pemición,,,,,429.5192,432.7657,0,1,2.6995,,0,71,71,71,1,REAL,FAKE,,,,,,,,,,,,,,,,,
,,,,,,,,,666ee37c2c2d032408112ced,Spanish,13 or older,"no, only English or Spanish",no,2025-07-24_07h23.42.416,empathy_intonation_perc_control,2024.2.4,Win32,59.88023952,666ee37c2c2d032408112ced,68817205a84113384fffdfe3,6882178f4e58651d272a1472,,,,,,,,,,,,,0,,,,,,,,,,,,,,,,,,,,,,,,,,,,,,,,,,,,,35,rompido,,,,,432.7669,433.9149,0,1,0.6106,,0,72,72,34,1,REAL,FAKE,,,,,,,,,,,,,,,,,
,,,,,,,,,666ee37c2c2d032408112ced,Spanish,13 or older,"no, only English or Spanish",no,2025-07-24_07h23.42.416,empathy_intonation_perc_control,2024.2.4,Win32,59.88023952,666ee37c2c2d032408112ced,68817205a84113384fffdfe3,6882178f4e58651d272a1472,,,,,,,,,,,,,0,,,,,,,,,,,,,,,,,,,,,,,,,,,,,,,,,,,,,21,capillo,,,,,433.916,435.2643,0,1,0.8021,,0,73,73,20,1,REAL,FAKE,,,,,,,,,,,,,,,,,
,,,,,,,,,666ee37c2c2d032408112ced,Spanish,13 or older,"no, only English or Spanish",no,2025-07-24_07h23.42.416,empathy_intonation_perc_control,2024.2.4,Win32,59.88023952,666ee37c2c2d032408112ced,68817205a84113384fffdfe3,6882178f4e58651d272a1472,,,,,,,,,,,,,0,,,,,,,,,,,,,,,,,,,,,,,,,,,,,,,,,,,,,42,cadallo,,,,,435.2654,436.4806,0,1,0.6677,,0,74,74,41,1,REAL,FAKE,,,,,,,,,,,,,,,,,
,,,,,,,,,666ee37c2c2d032408112ced,Spanish,13 or older,"no, only English or Spanish",no,2025-07-24_07h23.42.416,empathy_intonation_perc_control,2024.2.4,Win32,59.88023952,666ee37c2c2d032408112ced,68817205a84113384fffdfe3,6882178f4e58651d272a1472,,,,,,,,,,,,,1,,,,,,,,,,,,,,,,,,,,,,,,,,,,,,,,,,,,,91,click the 1 key.,,,,,436.482,438.5461,1,1,1.5256,,0,75,75,90,1,REAL,FAKE,,,,,,,,,,,,,,,,,
,,,,,,,,,666ee37c2c2d032408112ced,Spanish,13 or older,"no, only English or Spanish",no,2025-07-24_07h23.42.416,empathy_intonation_perc_control,2024.2.4,Win32,59.88023952,666ee37c2c2d032408112ced,68817205a84113384fffdfe3,6882178f4e58651d272a1472,,,,,,,,,,,,,0,,,,,,,,,,,,,,,,,,,,,,,,,,,,,,,,,,,,,4,batillón,,,,,438.5471,440.6119,1,0,1.5169,,0,76,76,3,1,REAL,FAKE,,,,,,,,,,,,,,,,,
,,,,,,,,,666ee37c2c2d032408112ced,Spanish,13 or older,"no, only English or Spanish",no,2025-07-24_07h23.42.416,empathy_intonation_perc_control,2024.2.4,Win32,59.88023952,666ee37c2c2d032408112ced,68817205a84113384fffdfe3,6882178f4e58651d272a1472,,,,,,,,,,,,,1,,,,,,,,,,,,,,,,,,,,,,,,,,,,,,,,,,,,,12,asesinato,,,,,440.6132,442.3284,0,0,1.1669,,0,77,77,11,1,REAL,FAKE,,,,,,,,,,,,,,,,,
,,,,,,,,,666ee37c2c2d032408112ced,Spanish,13 or older,"no, only English or Spanish",no,2025-07-24_07h23.42.416,empathy_intonation_perc_control,2024.2.4,Win32,59.88023952,666ee37c2c2d032408112ced,68817205a84113384fffdfe3,6882178f4e58651d272a1472,,,,,,,,,,,,,0,,,,,,,,,,,,,,,,,,,,,,,,,,,,,,,,,,,,,18,arsa,,,,,442.3294,444.1435,0,1,1.269,,0,78,78,17,1,REAL,FAKE,,,,,,,,,,,,,,,,,
,,,,,,,,,666ee37c2c2d032408112ced,Spanish,13 or older,"no, only English or Spanish",no,2025-07-24_07h23.42.416,empathy_intonation_perc_control,2024.2.4,Win32,59.88023952,666ee37c2c2d032408112ced,68817205a84113384fffdfe3,6882178f4e58651d272a1472,,,,,,,,,,,,,0,,,,,,,,,,,,,,,,,,,,,,,,,,,,,,,,,,,,,19,brecedad,,,,,444.1446,445.3429,0,1,0.6496,,0,79,79,18,1,REAL,FAKE,,,,,,,,,,,,,,,,,
,,,,,,,,,666ee37c2c2d032408112ced,Spanish,13 or older,"no, only English or Spanish",no,2025-07-24_07h23.42.416,empathy_intonation_perc_control,2024.2.4,Win32,59.88023952,666ee37c2c2d032408112ced,68817205a84113384fffdfe3,6882178f4e58651d272a1472,,,,,,,,,,,,,1,,,,,,,,,,,,,,,,,,,,,,,,,,,,,,,,,,,,,69,engatusar,,,,,445.3439,447.3923,1,1,1.4998,,0,80,80,68,1,REAL,FAKE,,,,,,,,,,,,,,,,,
,,,,,,,,,666ee37c2c2d032408112ced,Spanish,13 or older,"no, only English or Spanish",no,2025-07-24_07h23.42.416,empathy_intonation_perc_control,2024.2.4,Win32,59.88023952,666ee37c2c2d032408112ced,68817205a84113384fffdfe3,6882178f4e58651d272a1472,,,,,,,,,,,,,1,,,,,,,,,,,,,,,,,,,,,,,,,,,,,,,,,,,,,54,fomentar,,,,,447.3935,448.5747,0,0,0.6449,,0,81,81,53,1,REAL,FAKE,,,,,,,,,,,,,,,,,
,,,,,,,,,666ee37c2c2d032408112ced,Spanish,13 or older,"no, only English or Spanish",no,2025-07-24_07h23.42.416,empathy_intonation_perc_control,2024.2.4,Win32,59.88023952,666ee37c2c2d032408112ced,68817205a84113384fffdfe3,6882178f4e58651d272a1472,,,,,,,,,,,,,1,,,,,,,,,,,,,,,,,,,,,,,,,,,,,,,,,,,,,46,martillo,,,,,448.5758,449.9407,0,0,0.8365,,0,82,82,45,1,REAL,FAKE,,,,,,,,,,,,,,,,,
,,,,,,,,,666ee37c2c2d032408112ced,Spanish,13 or older,"no, only English or Spanish",no,2025-07-24_07h23.42.416,empathy_intonation_perc_control,2024.2.4,Win32,59.88023952,666ee37c2c2d032408112ced,68817205a84113384fffdfe3,6882178f4e58651d272a1472,,,,,,,,,,,,,1,,,,,,,,,,,,,,,,,,,,,,,,,,,,,,,,,,,,,76,atar,,,,,449.9418,451.207,0,0,0.7196,,0,83,83,75,1,REAL,FAKE,,,,,,,,,,,,,,,,,
,,,,,,,,,666ee37c2c2d032408112ced,Spanish,13 or older,"no, only English or Spanish",no,2025-07-24_07h23.42.416,empathy_intonation_perc_control,2024.2.4,Win32,59.88023952,666ee37c2c2d032408112ced,68817205a84113384fffdfe3,6882178f4e58651d272a1472,,,,,,,,,,,,,1,,,,,,,,,,,,,,,,,,,,,,,,,,,,,,,,,,,,,86,barato,,,,,451.2081,452.4572,0,0,0.7034,,0,84,84,85,1,REAL,FAKE,,,,,,,,,,,,,,,,,
,,,,,,,,,666ee37c2c2d032408112ced,Spanish,13 or older,"no, only English or Spanish",no,2025-07-24_07h23.42.416,empathy_intonation_perc_control,2024.2.4,Win32,59.88023952,666ee37c2c2d032408112ced,68817205a84113384fffdfe3,6882178f4e58651d272a1472,,,,,,,,,,,,,1,,,,,,,,,,,,,,,,,,,,,,,,,,,,,,,,,,,,,80,hormiga,,,,,452.4584,454.7727,0,0,1.7667,,0,85,85,79,1,REAL,FAKE,,,,,,,,,,,,,,,,,
,,,,,,,,,666ee37c2c2d032408112ced,Spanish,13 or older,"no, only English or Spanish",no,2025-07-24_07h23.42.416,empathy_intonation_perc_control,2024.2.4,Win32,59.88023952,666ee37c2c2d032408112ced,68817205a84113384fffdfe3,6882178f4e58651d272a1472,,,,,,,,,,,,,1,,,,,,,,,,,,,,,,,,,,,,,,,,,,,,,,,,,,,68,alegre,,,,,454.7738,456.4381,1,1,1.1171,,0,86,86,67,1,REAL,FAKE,,,,,,,,,,,,,,,,,
,,,,,,,,,666ee37c2c2d032408112ced,Spanish,13 or older,"no, only English or Spanish",no,2025-07-24_07h23.42.416,empathy_intonation_perc_control,2024.2.4,Win32,59.88023952,666ee37c2c2d032408112ced,68817205a84113384fffdfe3,6882178f4e58651d272a1472,,,,,,,,,,,,,1,,,,,,,,,,,,,,,,,,,,,,,,,,,,,,,,,,,,,2,pellizcar,,,,,456.4394,457.4874,0,0,0.5103,,0,87,87,1,1,REAL,FAKE,,,,,,,,,,,,,,,,,
,,,,,,,,,666ee37c2c2d032408112ced,Spanish,13 or older,"no, only English or Spanish",no,2025-07-24_07h23.42.416,empathy_intonation_perc_control,2024.2.4,Win32,59.88023952,666ee37c2c2d032408112ced,68817205a84113384fffdfe3,6882178f4e58651d272a1472,,,,,,,,,,,,,1,,,,,,,,,,,,,,,,,,,,,,,,,,,,,,,,,,,,,48,ladrón,,,,,457.4884,459.0035,0,0,0.9704,,0,88,88,47,1,REAL,FAKE,,,,,,,,,,,,,,,,,
,,,,,,,,,666ee37c2c2d032408112ced,Spanish,13 or older,"no, only English or Spanish",no,2025-07-24_07h23.42.416,empathy_intonation_perc_control,2024.2.4,Win32,59.88023952,666ee37c2c2d032408112ced,68817205a84113384fffdfe3,6882178f4e58651d272a1472,,,,,,,,,,,,,1,,,,,,,,,,,,,,,,,,,,,,,,,,,,,,,,,,,,,44,cuchara,,,,,459.005,460.5027,1,1,0.95,,0,89,89,43,1,REAL,FAKE,,,,,,,,,,,,,,,,,
,,,,,,,,,666ee37c2c2d032408112ced,Spanish,13 or older,"no, only English or Spanish",no,2025-07-24_07h23.42.416,empathy_intonation_perc_control,2024.2.4,Win32,59.88023952,666ee37c2c2d032408112ced,68817205a84113384fffdfe3,6882178f4e58651d272a1472,,,,,,,,,,,,,1,,,,,,,,,,,,,,,,,,,,,,,,,,,,,,,,,,,,,52,camisa,,,,,460.5037,461.7521,1,1,0.7,,0,90,90,51,1,REAL,FAKE,,,,,,,,,,,,,,,,,
,,,,,,,,,666ee37c2c2d032408112ced,Spanish,13 or older,"no, only English or Spanish",no,2025-07-24_07h23.42.416,empathy_intonation_perc_control,2024.2.4,Win32,59.88023952,666ee37c2c2d032408112ced,68817205a84113384fffdfe3,6882178f4e58651d272a1472,,,,,,,,,,,,,0,,,,,,,,,,,,,,,,,,,,,,,,,,,,,,,,,,,,,32,fatacidad,,,,,461.7532,463.0016,0,1,0.7012,,0,91,91,31,1,REAL,FAKE,,,,,,,,,,,,,,,,,
,,,,,,,,,666ee37c2c2d032408112ced,Spanish,13 or older,"no, only English or Spanish",no,2025-07-24_07h23.42.416,empathy_intonation_perc_control,2024.2.4,Win32,59.88023952,666ee37c2c2d032408112ced,68817205a84113384fffdfe3,6882178f4e58651d272a1472,,,,,,,,,,,,,,,,,,,,,,,,,,,,,,,,,,,,,,,,,,,,,,,,,,,,,,,,,,,,,,,,,,,,,463.002,466.9173,,,,,,,,,,,,,,,
,,,,,,,,,666ee37c2c2d032408112ced,Spanish,13 or older,"no, only English or Spanish",no,2025-07-24_07h23.42.416,empathy_intonation_perc_control,2024.2.4,Win32,59.88023952,666ee37c2c2d032408112ced,68817205a84113384fffdfe3,6882178f4e58651d272a1472,,,,,,,,,,,,,,,,,,,,,,,,,,,1,,,,,,,,,,,,,,,,,,,,,,,,,,,,,,,,,,,,,,,,,,,,466.9279,471.969,slightly disagree,0,0,0,0,1,I can easily tell if someone else wants to enter a conversation.,1,0,1,0,,
,,,,,,,,,666ee37c2c2d032408112ced,Spanish,13 or older,"no, only English or Spanish",no,2025-07-24_07h23.42.416,empathy_intonation_perc_control,2024.2.4,Win32,59.88023952,666ee37c2c2d032408112ced,68817205a84113384fffdfe3,6882178f4e58651d272a1472,,,,,,,,,,,,,,,,,,,,,,,,,,,2,,,,,,,,,,,,,,,,,,,,,,,,,,,,,,,,,,,,,,,,,,,,471.9709,474.6966,slightly agree,0,1,1,1,1,I prefer animals to humans.,0,1,0,0,,
,,,,,,,,,666ee37c2c2d032408112ced,Spanish,13 or older,"no, only English or Spanish",no,2025-07-24_07h23.42.416,empathy_intonation_perc_control,2024.2.4,Win32,59.88023952,666ee37c2c2d032408112ced,68817205a84113384fffdfe3,6882178f4e58651d272a1472,,,,,,,,,,,,,,,,,,,,,,,,,,,3,,,,,,,,,,,,,,,,,,,,,,,,,,,,,,,,,,,,,,,,,,,,474.6989,476.7498,slightly agree,0,2,2,2,1,I try to keep up with the current trends and fashions.,0,1,0,0,,
,,,,,,,,,666ee37c2c2d032408112ced,Spanish,13 or older,"no, only English or Spanish",no,2025-07-24_07h23.42.416,empathy_intonation_perc_control,2024.2.4,Win32,59.88023952,666ee37c2c2d032408112ced,68817205a84113384fffdfe3,6882178f4e58651d272a1472,,,,,,,,,,,,,,,,,,,,,,,,,,,4,,,,,,,,,,,,,,,,,,,,,,,,,,,,,,,,,,,,,,,,,,,,476.7515,480.2103,slightly agree,0,3,3,3,1,"I find it difficult to explain to others things that I understand easily,   when they don't understand it first time.",1,0,0,1,,
,,,,,,,,,666ee37c2c2d032408112ced,Spanish,13 or older,"no, only English or Spanish",no,2025-07-24_07h23.42.416,empathy_intonation_perc_control,2024.2.4,Win32,59.88023952,666ee37c2c2d032408112ced,68817205a84113384fffdfe3,6882178f4e58651d272a1472,,,,,,,,,,,,,,,,,,,,,,,,,,,5,,,,,,,,,,,,,,,,,,,,,,,,,,,,,,,,,,,,,,,,,,,,480.2121,482.181,strongly agree,0,4,4,4,1,I dream most nights.,0,1,0,0,,
,,,,,,,,,666ee37c2c2d032408112ced,Spanish,13 or older,"no, only English or Spanish",no,2025-07-24_07h23.42.416,empathy_intonation_perc_control,2024.2.4,Win32,59.88023952,666ee37c2c2d032408112ced,68817205a84113384fffdfe3,6882178f4e58651d272a1472,,,,,,,,,,,,,,,,,,,,,,,,,,,6,,,,,,,,,,,,,,,,,,,,,,,,,,,,,,,,,,,,,,,,,,,,482.1823,483.91,strongly agree,0,5,5,5,1,I really enjoy caring for other people.,1,0,1,0,,
,,,,,,,,,666ee37c2c2d032408112ced,Spanish,13 or older,"no, only English or Spanish",no,2025-07-24_07h23.42.416,empathy_intonation_perc_control,2024.2.4,Win32,59.88023952,666ee37c2c2d032408112ced,68817205a84113384fffdfe3,6882178f4e58651d272a1472,,,,,,,,,,,,,,,,,,,,,,,,,,,7,,,,,,,,,,,,,,,,,,,,,,,,,,,,,,,,,,,,,,,,,,,,483.9114,485.5415,strongly agree,0,6,6,6,1,I try to solve my own problems rather than discussing them with others.,0,1,0,0,,
,,,,,,,,,666ee37c2c2d032408112ced,Spanish,13 or older,"no, only English or Spanish",no,2025-07-24_07h23.42.416,empathy_intonation_perc_control,2024.2.4,Win32,59.88023952,666ee37c2c2d032408112ced,68817205a84113384fffdfe3,6882178f4e58651d272a1472,,,,,,,,,,,,,,,,,,,,,,,,,,,8,,,,,,,,,,,,,,,,,,,,,,,,,,,,,,,,,,,,,,,,,,,,485.5433,491.0268,slightly agree,0,7,7,7,1,I find it hard to know what to do in a social situation.,1,0,0,1,,
,,,,,,,,,666ee37c2c2d032408112ced,Spanish,13 or older,"no, only English or Spanish",no,2025-07-24_07h23.42.416,empathy_intonation_perc_control,2024.2.4,Win32,59.88023952,666ee37c2c2d032408112ced,68817205a84113384fffdfe3,6882178f4e58651d272a1472,,,,,,,,,,,,,,,,,,,,,,,,,,,9,,,,,,,,,,,,,,,,,,,,,,,,,,,,,,,,,,,,,,,,,,,,491.0279,493.1544,slightly agree,0,8,8,8,1,I am at my best first thing in the morning.,0,1,0,0,,
,,,,,,,,,666ee37c2c2d032408112ced,Spanish,13 or older,"no, only English or Spanish",no,2025-07-24_07h23.42.416,empathy_intonation_perc_control,2024.2.4,Win32,59.88023952,666ee37c2c2d032408112ced,68817205a84113384fffdfe3,6882178f4e58651d272a1472,,,,,,,,,,,,,,,,,,,,,,,,,,,10,,,,,,,,,,,,,,,,,,,,,,,,,,,,,,,,,,,,,,,,,,,,493.1564,495.8868,slightly agree,0,9,9,9,1,People often tell me that I went too far in driving my point home in a discussion.,1,0,0,1,,
,,,,,,,,,666ee37c2c2d032408112ced,Spanish,13 or older,"no, only English or Spanish",no,2025-07-24_07h23.42.416,empathy_intonation_perc_control,2024.2.4,Win32,59.88023952,666ee37c2c2d032408112ced,68817205a84113384fffdfe3,6882178f4e58651d272a1472,,,,,,,,,,,,,,,,,,,,,,,,,,,11,,,,,,,,,,,,,,,,,,,,,,,,,,,,,,,,,,,,,,,,,,,,495.8882,499.2209,slightly disagree,0,10,10,10,1,It doesn't bother me too much if I am late meeting a friend.,1,0,0,1,,
,,,,,,,,,666ee37c2c2d032408112ced,Spanish,13 or older,"no, only English or Spanish",no,2025-07-24_07h23.42.416,empathy_intonation_perc_control,2024.2.4,Win32,59.88023952,666ee37c2c2d032408112ced,68817205a84113384fffdfe3,6882178f4e58651d272a1472,,,,,,,,,,,,,,,,,,,,,,,,,,,12,,,,,,,,,,,,,,,,,,,,,,,,,,,,,,,,,,,,,,,,,,,,499.2221,503.3709,strongly disagree,0,11,11,11,1,"Friendships and relationships are just too difficult, so I tend not to 
  bother with them.",1,0,0,1,,
,,,,,,,,,666ee37c2c2d032408112ced,Spanish,13 or older,"no, only English or Spanish",no,2025-07-24_07h23.42.416,empathy_intonation_perc_control,2024.2.4,Win32,59.88023952,666ee37c2c2d032408112ced,68817205a84113384fffdfe3,6882178f4e58651d272a1472,,,,,,,,,,,,,,,,,,,,,,,,,,,13,,,,,,,,,,,,,,,,,,,,,,,,,,,,,,,,,,,,,,,,,,,,503.3718,506.1989,strongly disagree,0,12,12,12,1,"I would never break a law, no matter how minor.",0,1,0,0,,
,,,,,,,,,666ee37c2c2d032408112ced,Spanish,13 or older,"no, only English or Spanish",no,2025-07-24_07h23.42.416,empathy_intonation_perc_control,2024.2.4,Win32,59.88023952,666ee37c2c2d032408112ced,68817205a84113384fffdfe3,6882178f4e58651d272a1472,,,,,,,,,,,,,,,,,,,,,,,,,,,14,,,,,,,,,,,,,,,,,,,,,,,,,,,,,,,,,,,,,,,,,,,,506.201,509.1136,slightly agree,0,13,13,13,1,I often find it difficult to judge if something is rude or polite.,1,0,0,1,,
,,,,,,,,,666ee37c2c2d032408112ced,Spanish,13 or older,"no, only English or Spanish",no,2025-07-24_07h23.42.416,empathy_intonation_perc_control,2024.2.4,Win32,59.88023952,666ee37c2c2d032408112ced,68817205a84113384fffdfe3,6882178f4e58651d272a1472,,,,,,,,,,,,,,,,,,,,,,,,,,,15,,,,,,,,,,,,,,,,,,,,,,,,,,,,,,,,,,,,,,,,,,,,509.1156,512.9118,slightly disagree,0,14,14,14,1,"In a conversation, I tend to focus on my own thoughts rather than on what 
  my listener might be thinking.",1,0,0,1,,
,,,,,,,,,666ee37c2c2d032408112ced,Spanish,13 or older,"no, only English or Spanish",no,2025-07-24_07h23.42.416,empathy_intonation_perc_control,2024.2.4,Win32,59.88023952,666ee37c2c2d032408112ced,68817205a84113384fffdfe3,6882178f4e58651d272a1472,,,,,,,,,,,,,,,,,,,,,,,,,,,16,,,,,,,,,,,,,,,,,,,,,,,,,,,,,,,,,,,,,,,,,,,,512.914,516.3935,strongly disagree,0,15,15,15,1,I prefer practical jokes to verbal humor.,0,1,0,0,,
,,,,,,,,,666ee37c2c2d032408112ced,Spanish,13 or older,"no, only English or Spanish",no,2025-07-24_07h23.42.416,empathy_intonation_perc_control,2024.2.4,Win32,59.88023952,666ee37c2c2d032408112ced,68817205a84113384fffdfe3,6882178f4e58651d272a1472,,,,,,,,,,,,,,,,,,,,,,,,,,,17,,,,,,,,,,,,,,,,,,,,,,,,,,,,,,,,,,,,,,,,,,,,516.3955,520.4086,slightly agree,0,16,16,16,1,I live life for today rather than the future.,0,1,0,0,,
,,,,,,,,,666ee37c2c2d032408112ced,Spanish,13 or older,"no, only English or Spanish",no,2025-07-24_07h23.42.416,empathy_intonation_perc_control,2024.2.4,Win32,59.88023952,666ee37c2c2d032408112ced,68817205a84113384fffdfe3,6882178f4e58651d272a1472,,,,,,,,,,,,,,,,,,,,,,,,,,,18,,,,,,,,,,,,,,,,,,,,,,,,,,,,,,,,,,,,,,,,,,,,520.4118,523.9902,strongly disagree,0,17,17,17,1,"When I was a child, I enjoyed cutting up worms to see what would happen.",1,0,0,1,,
,,,,,,,,,666ee37c2c2d032408112ced,Spanish,13 or older,"no, only English or Spanish",no,2025-07-24_07h23.42.416,empathy_intonation_perc_control,2024.2.4,Win32,59.88023952,666ee37c2c2d032408112ced,68817205a84113384fffdfe3,6882178f4e58651d272a1472,,,,,,,,,,,,,,,,,,,,,,,,,,,19,,,,,,,,,,,,,,,,,,,,,,,,,,,,,,,,,,,,,,,,,,,,523.9918,526.977,slightly agree,0,18,18,18,1,I can pick up quickly if someone says one thing but means another.,1,0,1,0,,
,,,,,,,,,666ee37c2c2d032408112ced,Spanish,13 or older,"no, only English or Spanish",no,2025-07-24_07h23.42.416,empathy_intonation_perc_control,2024.2.4,Win32,59.88023952,666ee37c2c2d032408112ced,68817205a84113384fffdfe3,6882178f4e58651d272a1472,,,,,,,,,,,,,,,,,,,,,,,,,,,20,,,,,,,,,,,,,,,,,,,,,,,,,,,,,,,,,,,,,,,,,,,,526.9787,530.4041,strongly agree,0,19,19,19,1,I tend to have very strong opinions about morality.,0,1,0,0,,
,,,,,,,,,666ee37c2c2d032408112ced,Spanish,13 or older,"no, only English or Spanish",no,2025-07-24_07h23.42.416,empathy_intonation_perc_control,2024.2.4,Win32,59.88023952,666ee37c2c2d032408112ced,68817205a84113384fffdfe3,6882178f4e58651d272a1472,,,,,,,,,,,,,,,,,,,,,,,,,,,21,,,,,,,,,,,,,,,,,,,,,,,,,,,,,,,,,,,,,,,,,,,,530.4057,533.7692,strongly disagree,0,20,20,20,1,It is hard for me to see why some things upset people so much.,1,0,0,1,,
,,,,,,,,,666ee37c2c2d032408112ced,Spanish,13 or older,"no, only English or Spanish",no,2025-07-24_07h23.42.416,empathy_intonation_perc_control,2024.2.4,Win32,59.88023952,666ee37c2c2d032408112ced,68817205a84113384fffdfe3,6882178f4e58651d272a1472,,,,,,,,,,,,,,,,,,,,,,,,,,,22,,,,,,,,,,,,,,,,,,,,,,,,,,,,,,,,,,,,,,,,,,,,533.7709,535.9512,strongly agree,0,21,21,21,1,I find it easy to put myself in somebody else's shoes.,1,0,1,0,,
,,,,,,,,,666ee37c2c2d032408112ced,Spanish,13 or older,"no, only English or Spanish",no,2025-07-24_07h23.42.416,empathy_intonation_perc_control,2024.2.4,Win32,59.88023952,666ee37c2c2d032408112ced,68817205a84113384fffdfe3,6882178f4e58651d272a1472,,,,,,,,,,,,,,,,,,,,,,,,,,,23,,,,,,,,,,,,,,,,,,,,,,,,,,,,,,,,,,,,,,,,,,,,535.953,540.2874,slightly disagree,0,22,22,22,1,I think that good manners are the most important thing a parent can teach their child.,0,1,0,0,,
,,,,,,,,,666ee37c2c2d032408112ced,Spanish,13 or older,"no, only English or Spanish",no,2025-07-24_07h23.42.416,empathy_intonation_perc_control,2024.2.4,Win32,59.88023952,666ee37c2c2d032408112ced,68817205a84113384fffdfe3,6882178f4e58651d272a1472,,,,,,,,,,,,,,,,,,,,,,,,,,,24,,,,,,,,,,,,,,,,,,,,,,,,,,,,,,,,,,,,,,,,,,,,540.2885,542.6314,slightly agree,0,23,23,23,1,I like to do things on the spur of the moment.,0,1,0,0,,
,,,,,,,,,666ee37c2c2d032408112ced,Spanish,13 or older,"no, only English or Spanish",no,2025-07-24_07h23.42.416,empathy_intonation_perc_control,2024.2.4,Win32,59.88023952,666ee37c2c2d032408112ced,68817205a84113384fffdfe3,6882178f4e58651d272a1472,,,,,,,,,,,,,,,,,,,,,,,,,,,25,,,,,,,,,,,,,,,,,,,,,,,,,,,,,,,,,,,,,,,,,,,,542.6335,544.9638,slightly agree,0,24,24,24,1,I am good at predicting how someone will feel.,1,0,1,0,,
