instructions_2afc.started,instructions_2afc.stopped,instructions_2afc_loop.thisRepN,instructions_2afc_loop.thisTrialN,instructions_2afc_loop.thisN,instructions_2afc_loop.thisIndex,instructions_2afc_loop.ran,instructions_text,continue_text,participant_id,"What variety of Spanish are you most familiar with? (e.g., Peruvian, Spanish, Mexican)",At what age did you begin learning Spanish?,Are you proficient in any languages other than English/Spanish?,"Are you familiar with Caribbean (e.g., Caribbean, Puerto Rican) or Galician Spanish?",date,expName,psychopyVersion,OS,frameRate,id,study_id,session,practice_2afc.started,practice_2afc.stopped,key_resp_2afc_practice.keys,key_resp_2afc_practice.corr,key_resp_2afc_practice.rt,key_resp_2afc_practice.duration,trials_2afc_practice_loop.thisRepN,trials_2afc_practice_loop.thisTrialN,trials_2afc_practice_loop.thisN,trials_2afc_practice_loop.thisIndex,trials_2afc_practice_loop.ran,path,correct_response,check_2afc.started,check_2afc.stopped,trial_2afc.started,trial_2afc.stopped,key_resp_2afc_trial.keys,key_resp_2afc_trial.corr,key_resp_2afc_trial.rt,key_resp_2afc_trial.duration,trials_2afc_loop.thisRepN,trials_2afc_loop.thisTrialN,trials_2afc_loop.thisN,trials_2afc_loop.thisIndex,trials_2afc_loop.ran,item_num,target,variety,instructions_lextale.started,instructions_lextale.stopped,instructions_lextale_loop.thisRepN,instructions_lextale_loop.thisTrialN,instructions_lextale_loop.thisN,instructions_lextale_loop.thisIndex,instructions_lextale_loop.ran,practice_lextale.started,practice_lextale.stopped,key_resp_lextale_practice.keys,key_resp_lextale_practice.corr,key_resp_lextale_practice.rt,key_resp_lextale_practice.duration,practice_feedback_lextale.started,practice_feedback_lextale.stopped,trials_lextale_practice_loop.thisRepN,trials_lextale_practice_loop.thisTrialN,trials_lextale_practice_loop.thisN,trials_lextale_practice_loop.thisIndex,trials_lextale_practice_loop.ran,stim,word,prac_button_real,prac_button_false,check_lextale.started,check_lextale.stopped,trial_lextale.started,trial_lextale.stopped,key_resp_lextale_trial.keys,key_resp_lextale_trial.corr,key_resp_lextale_trial.rt,key_resp_lextale_trial.duration,trials_lextale_loop.thisRepN,trials_lextale_loop.thisTrialN,trials_lextale_loop.thisN,trials_lextale_loop.thisIndex,trials_lextale_loop.ran,button_real,button_false,instructions_eq.started,instructions_eq.stopped,trial_eq.started,trial_eq.stopped,slider_eq_trial.response,trials_eq_loop.thisRepN,trials_eq_loop.thisTrialN,trials_eq_loop.thisN,trials_eq_loop.thisIndex,trials_eq_loop.ran,item,is_test_item,is_distractor,is_agree_score,is_disagree_score,end_exp.started,end_exp.stopped
0.0336,7.4592,0,0,0,0,1,"In the following task you are going to hear a series of utterances. 

  You will decide if the utterances sound like questions or not using your keyboard.", (press the spacebar to continue),667186a182a98857032a4dae,spanish,13 or older,"no, only English or Spanish",no,2025-07-24_11h34.23.848,empathy_intonation_perc_control,2024.2.4,MacIntel,62.89308176,667186a182a98857032a4dae,68817205a84113384fffdfe3,6882525107787cb43f0102b0,,,,,,,,,,,,,,,,,,,,,,,,,,,,,,,,,,,,,,,,,,,,,,,,,,,,,,,,,,,,,,,,,,,,,,,,,,,,,,,,,,,,,
7.4619,14.3424,0,1,1,1,1,"If you believe the utterance is a question, type '1' (for 'yes') and if you do not 
  believe it is a question type '0' (for 'no').

  Let's practice a bit...", (press the spacebar to continue),667186a182a98857032a4dae,spanish,13 or older,"no, only English or Spanish",no,2025-07-24_11h34.23.848,empathy_intonation_perc_control,2024.2.4,MacIntel,62.89308176,667186a182a98857032a4dae,68817205a84113384fffdfe3,6882525107787cb43f0102b0,,,,,,,,,,,,,,,,,,,,,,,,,,,,,,,,,,,,,,,,,,,,,,,,,,,,,,,,,,,,,,,,,,,,,,,,,,,,,,,,,,,,,
,,,,,,,,,667186a182a98857032a4dae,spanish,13 or older,"no, only English or Spanish",no,2025-07-24_11h34.23.848,empathy_intonation_perc_control,2024.2.4,MacIntel,62.89308176,667186a182a98857032a4dae,68817205a84113384fffdfe3,6882525107787cb43f0102b0,14.3538,16.3269,1,1,1.4537,,0,0,0,1,1,./stim/wavs/argentine_question_filler_Mi-vecino-habla-mucho.wav,1,,,,,,,,,,,,,,,,,,,,,,,,,,,,,,,,,,,,,,,,,,,,,,,,,,,,,,,,,,,,,,,,,,,,,,,,
,,,,,,,,,667186a182a98857032a4dae,spanish,13 or older,"no, only English or Spanish",no,2025-07-24_11h34.23.848,empathy_intonation_perc_control,2024.2.4,MacIntel,62.89308176,667186a182a98857032a4dae,68817205a84113384fffdfe3,6882525107787cb43f0102b0,16.3283,19.176,1,1,2.3242,,0,1,1,0,1,./stim/wavs/castilian_question_filler_Mi-esposo-conoce-al-chico.wav,1,,,,,,,,,,,,,,,,,,,,,,,,,,,,,,,,,,,,,,,,,,,,,,,,,,,,,,,,,,,,,,,,,,,,,,,,
,,,,,,,,,667186a182a98857032a4dae,spanish,13 or older,"no, only English or Spanish",no,2025-07-24_11h34.23.848,empathy_intonation_perc_control,2024.2.4,MacIntel,62.89308176,667186a182a98857032a4dae,68817205a84113384fffdfe3,6882525107787cb43f0102b0,19.1767,21.5258,1,1,1.8392,,0,2,2,3,1,./stim/wavs/mexican_question_filler_Felipe-no-tiene-contrasena.wav,1,,,,,,,,,,,,,,,,,,,,,,,,,,,,,,,,,,,,,,,,,,,,,,,,,,,,,,,,,,,,,,,,,,,,,,,,
,,,,,,,,,667186a182a98857032a4dae,spanish,13 or older,"no, only English or Spanish",no,2025-07-24_11h34.23.848,empathy_intonation_perc_control,2024.2.4,MacIntel,62.89308176,667186a182a98857032a4dae,68817205a84113384fffdfe3,6882525107787cb43f0102b0,21.5264,23.6775,0,0,1.6394,,0,3,3,2,1,./stim/wavs/chilean_question_filler_Mi-padre-cantaba-bien.wav,1,,,,,,,,,,,,,,,,,,,,,,,,,,,,,,,,,,,,,,,,,,,,,,,,,,,,,,,,,,,,,,,,,,,,,,,,
,,,,,,,,,667186a182a98857032a4dae,spanish,13 or older,"no, only English or Spanish",no,2025-07-24_11h34.23.848,empathy_intonation_perc_control,2024.2.4,MacIntel,62.89308176,667186a182a98857032a4dae,68817205a84113384fffdfe3,6882525107787cb43f0102b0,23.6784,25.8604,0,1,1.6555,,0,4,4,5,1,./stim/wavs/andalusian_statement_filler_Alberto-nunca-se-afeita.wav,0,,,,,,,,,,,,,,,,,,,,,,,,,,,,,,,,,,,,,,,,,,,,,,,,,,,,,,,,,,,,,,,,,,,,,,,,
,,,,,,,,,667186a182a98857032a4dae,spanish,13 or older,"no, only English or Spanish",no,2025-07-24_11h34.23.848,empathy_intonation_perc_control,2024.2.4,MacIntel,62.89308176,667186a182a98857032a4dae,68817205a84113384fffdfe3,6882525107787cb43f0102b0,25.861,28.1097,0,1,1.7242,,0,5,5,4,1,./stim/wavs/cuban_statement_filler_Cocinabas-por-la-noche.wav,0,,,,,,,,,,,,,,,,,,,,,,,,,,,,,,,,,,,,,,,,,,,,,,,,,,,,,,,,,,,,,,,,,,,,,,,,
,,,,,,,,,667186a182a98857032a4dae,spanish,13 or older,"no, only English or Spanish",no,2025-07-24_11h34.23.848,empathy_intonation_perc_control,2024.2.4,MacIntel,62.89308176,667186a182a98857032a4dae,68817205a84113384fffdfe3,6882525107787cb43f0102b0,28.1101,30.4776,0,1,1.8557,,0,6,6,7,1,./stim/wavs/puertorican_statement_filler_La-nina-pinta-con-su-amiga.wav,0,,,,,,,,,,,,,,,,,,,,,,,,,,,,,,,,,,,,,,,,,,,,,,,,,,,,,,,,,,,,,,,,,,,,,,,,
,,,,,,,,,667186a182a98857032a4dae,spanish,13 or older,"no, only English or Spanish",no,2025-07-24_11h34.23.848,empathy_intonation_perc_control,2024.2.4,MacIntel,62.89308176,667186a182a98857032a4dae,68817205a84113384fffdfe3,6882525107787cb43f0102b0,30.4782,33.6276,0,1,2.6188,,0,7,7,6,1,./stim/wavs/peruvian_statement_filler_El-nino-habla-con-su-madre.wav,0,,,,,,,,,,,,,,,,,,,,,,,,,,,,,,,,,,,,,,,,,,,,,,,,,,,,,,,,,,,,,,,,,,,,,,,,
,,,,,,,,,667186a182a98857032a4dae,spanish,13 or older,"no, only English or Spanish",no,2025-07-24_11h34.23.848,empathy_intonation_perc_control,2024.2.4,MacIntel,62.89308176,667186a182a98857032a4dae,68817205a84113384fffdfe3,6882525107787cb43f0102b0,,,,,,,,,,,,,,33.6278,39.5442,,,,,,,,,,,,,,,,,,,,,,,,,,,,,,,,,,,,,,,,,,,,,,,,,,,,,,,,,,,,,,,,,,,,,,
,,,,,,,,,667186a182a98857032a4dae,spanish,13 or older,"no, only English or Spanish",no,2025-07-24_11h34.23.848,empathy_intonation_perc_control,2024.2.4,MacIntel,62.89308176,667186a182a98857032a4dae,68817205a84113384fffdfe3,6882525107787cb43f0102b0,,,,,,,,,,,,./stim/wavs/puertorican_mismatch_interrogative-total-yn_La-nina-lava-el-plato.wav,1,,,39.5577,41.5621,1,1,1.4827,,0,0,0,42,1,43,1,puertorican,,,,,,,,,,,,,,,,,,,,,,,,,,,,,,,,,,,,,,,,,,,,,,,,,,,,,,,,
,,,,,,,,,667186a182a98857032a4dae,spanish,13 or older,"no, only English or Spanish",no,2025-07-24_11h34.23.848,empathy_intonation_perc_control,2024.2.4,MacIntel,62.89308176,667186a182a98857032a4dae,68817205a84113384fffdfe3,6882525107787cb43f0102b0,,,,,,,,,,,,./stim/wavs/cuban_mismatch_declarative-broad-focus_El-bebe-comia-muy-bien.wav,0,,,41.5629,43.4445,0,1,1.3605,,0,1,1,73,1,74,0,cuban,,,,,,,,,,,,,,,,,,,,,,,,,,,,,,,,,,,,,,,,,,,,,,,,,,,,,,,,
,,,,,,,,,667186a182a98857032a4dae,spanish,13 or older,"no, only English or Spanish",no,2025-07-24_11h34.23.848,empathy_intonation_perc_control,2024.2.4,MacIntel,62.89308176,667186a182a98857032a4dae,68817205a84113384fffdfe3,6882525107787cb43f0102b0,,,,,,,,,,,,./stim/wavs/cuban_match_declarative-broad-focus_Daniel-iba-a-Bolivia.wav,0,,,43.4451,45.7948,0,1,1.8227,,0,2,2,51,1,52,0,cuban,,,,,,,,,,,,,,,,,,,,,,,,,,,,,,,,,,,,,,,,,,,,,,,,,,,,,,,,
,,,,,,,,,667186a182a98857032a4dae,spanish,13 or older,"no, only English or Spanish",no,2025-07-24_11h34.23.848,empathy_intonation_perc_control,2024.2.4,MacIntel,62.89308176,667186a182a98857032a4dae,68817205a84113384fffdfe3,6882525107787cb43f0102b0,,,,,,,,,,,,./stim/wavs/mexican_mismatch_interrogative-total-yn_El-nino-oye-el-rio.wav,1,,,45.7953,47.7944,1,1,1.486,,0,3,3,35,1,36,0,mexican,,,,,,,,,,,,,,,,,,,,,,,,,,,,,,,,,,,,,,,,,,,,,,,,,,,,,,,,
,,,,,,,,,667186a182a98857032a4dae,spanish,13 or older,"no, only English or Spanish",no,2025-07-24_11h34.23.848,empathy_intonation_perc_control,2024.2.4,MacIntel,62.89308176,667186a182a98857032a4dae,68817205a84113384fffdfe3,6882525107787cb43f0102b0,,,,,,,,,,,,./stim/wavs/cuban_match_interrogative-total-yn_Daniel-iba-a-Bolivia.wav,1,,,47.7948,49.961,0,0,1.658,,0,4,4,7,1,8,1,cuban,,,,,,,,,,,,,,,,,,,,,,,,,,,,,,,,,,,,,,,,,,,,,,,,,,,,,,,,
,,,,,,,,,667186a182a98857032a4dae,spanish,13 or older,"no, only English or Spanish",no,2025-07-24_11h34.23.848,empathy_intonation_perc_control,2024.2.4,MacIntel,62.89308176,667186a182a98857032a4dae,68817205a84113384fffdfe3,6882525107787cb43f0102b0,,,,,,,,,,,,./stim/wavs/mexican_mismatch_declarative-broad-focus_El-bebe-comia-muy-bien.wav,0,,,49.9615,52.1446,0,1,1.6747,,0,5,5,78,1,79,0,mexican,,,,,,,,,,,,,,,,,,,,,,,,,,,,,,,,,,,,,,,,,,,,,,,,,,,,,,,,
,,,,,,,,,667186a182a98857032a4dae,spanish,13 or older,"no, only English or Spanish",no,2025-07-24_11h34.23.848,empathy_intonation_perc_control,2024.2.4,MacIntel,62.89308176,667186a182a98857032a4dae,68817205a84113384fffdfe3,6882525107787cb43f0102b0,,,,,,,,,,,,./stim/wavs/cuban_mismatch_interrogative-total-yn_El-hombre-mira-la-luna.wav,1,,,52.1451,54.5797,0,0,1.9282,,0,6,6,29,1,30,1,cuban,,,,,,,,,,,,,,,,,,,,,,,,,,,,,,,,,,,,,,,,,,,,,,,,,,,,,,,,
,,,,,,,,,667186a182a98857032a4dae,spanish,13 or older,"no, only English or Spanish",no,2025-07-24_11h34.23.848,empathy_intonation_perc_control,2024.2.4,MacIntel,62.89308176,667186a182a98857032a4dae,68817205a84113384fffdfe3,6882525107787cb43f0102b0,,,,,,,,,,,,./stim/wavs/cuban_match_declarative-broad-focus_Mariano-habla-del-tiempo.wav,0,,,54.5807,56.9952,0,1,1.8917,,0,7,7,54,1,55,0,cuban,,,,,,,,,,,,,,,,,,,,,,,,,,,,,,,,,,,,,,,,,,,,,,,,,,,,,,,,
,,,,,,,,,667186a182a98857032a4dae,spanish,13 or older,"no, only English or Spanish",no,2025-07-24_11h34.23.848,empathy_intonation_perc_control,2024.2.4,MacIntel,62.89308176,667186a182a98857032a4dae,68817205a84113384fffdfe3,6882525107787cb43f0102b0,,,,,,,,,,,,./stim/wavs/mexican_match_declarative-broad-focus_Daniel-iba-a-Bolivia.wav,0,,,56.9959,59.1451,0,1,1.6396,,0,8,8,57,1,58,0,mexican,,,,,,,,,,,,,,,,,,,,,,,,,,,,,,,,,,,,,,,,,,,,,,,,,,,,,,,,
,,,,,,,,,667186a182a98857032a4dae,spanish,13 or older,"no, only English or Spanish",no,2025-07-24_11h34.23.848,empathy_intonation_perc_control,2024.2.4,MacIntel,62.89308176,667186a182a98857032a4dae,68817205a84113384fffdfe3,6882525107787cb43f0102b0,,,,,,,,,,,,./stim/wavs/puertorican_mismatch_interrogative-total-yn_El-hombre-mira-la-luna.wav,1,,,59.1455,61.2129,1,1,1.5397,,0,9,9,39,1,40,1,puertorican,,,,,,,,,,,,,,,,,,,,,,,,,,,,,,,,,,,,,,,,,,,,,,,,,,,,,,,,
,,,,,,,,,667186a182a98857032a4dae,spanish,13 or older,"no, only English or Spanish",no,2025-07-24_11h34.23.848,empathy_intonation_perc_control,2024.2.4,MacIntel,62.89308176,667186a182a98857032a4dae,68817205a84113384fffdfe3,6882525107787cb43f0102b0,,,,,,,,,,,,./stim/wavs/puertorican_mismatch_declarative-broad-focus_El-hombre-mira-la-luna.wav,0,,,61.2132,63.5295,0,1,1.7898,,0,10,10,84,1,85,0,puertorican,,,,,,,,,,,,,,,,,,,,,,,,,,,,,,,,,,,,,,,,,,,,,,,,,,,,,,,,
,,,,,,,,,667186a182a98857032a4dae,spanish,13 or older,"no, only English or Spanish",no,2025-07-24_11h34.23.848,empathy_intonation_perc_control,2024.2.4,MacIntel,62.89308176,667186a182a98857032a4dae,68817205a84113384fffdfe3,6882525107787cb43f0102b0,,,,,,,,,,,,./stim/wavs/castilian_mismatch_interrogative-total-yn_Mi-novio-viene-del-lago.wav,1,,,63.53,65.9295,1,1,1.8776,,0,11,11,27,1,28,0,castilian,,,,,,,,,,,,,,,,,,,,,,,,,,,,,,,,,,,,,,,,,,,,,,,,,,,,,,,,
,,,,,,,,,667186a182a98857032a4dae,spanish,13 or older,"no, only English or Spanish",no,2025-07-24_11h34.23.848,empathy_intonation_perc_control,2024.2.4,MacIntel,62.89308176,667186a182a98857032a4dae,68817205a84113384fffdfe3,6882525107787cb43f0102b0,,,,,,,,,,,,./stim/wavs/castilian_match_declarative-broad-focus_David-leia-el-libro.wav,0,,,65.93,68.2293,0,1,1.7675,,0,12,12,44,1,45,0,castilian,,,,,,,,,,,,,,,,,,,,,,,,,,,,,,,,,,,,,,,,,,,,,,,,,,,,,,,,
,,,,,,,,,667186a182a98857032a4dae,spanish,13 or older,"no, only English or Spanish",no,2025-07-24_11h34.23.848,empathy_intonation_perc_control,2024.2.4,MacIntel,62.89308176,667186a182a98857032a4dae,68817205a84113384fffdfe3,6882525107787cb43f0102b0,,,,,,,,,,,,./stim/wavs/mexican_mismatch_interrogative-total-yn_Mi-novio-viene-del-lago.wav,1,,,68.2298,70.3467,1,1,1.6058,,0,13,13,37,1,38,0,mexican,,,,,,,,,,,,,,,,,,,,,,,,,,,,,,,,,,,,,,,,,,,,,,,,,,,,,,,,
,,,,,,,,,667186a182a98857032a4dae,spanish,13 or older,"no, only English or Spanish",no,2025-07-24_11h34.23.848,empathy_intonation_perc_control,2024.2.4,MacIntel,62.89308176,667186a182a98857032a4dae,68817205a84113384fffdfe3,6882525107787cb43f0102b0,,,,,,,,,,,,./stim/wavs/castilian_match_declarative-broad-focus_Emilio-ama-la-marcha.wav,0,,,70.3473,72.6466,0,1,1.7742,,0,14,14,45,1,46,0,castilian,,,,,,,,,,,,,,,,,,,,,,,,,,,,,,,,,,,,,,,,,,,,,,,,,,,,,,,,
,,,,,,,,,667186a182a98857032a4dae,spanish,13 or older,"no, only English or Spanish",no,2025-07-24_11h34.23.848,empathy_intonation_perc_control,2024.2.4,MacIntel,62.89308176,667186a182a98857032a4dae,68817205a84113384fffdfe3,6882525107787cb43f0102b0,,,,,,,,,,,,./stim/wavs/cuban_match_interrogative-total-yn_Ana-lleva-el-abrigo.wav,1,,,72.647,74.7462,0,0,1.5695,,0,15,15,6,1,7,1,cuban,,,,,,,,,,,,,,,,,,,,,,,,,,,,,,,,,,,,,,,,,,,,,,,,,,,,,,,,
,,,,,,,,,667186a182a98857032a4dae,spanish,13 or older,"no, only English or Spanish",no,2025-07-24_11h34.23.848,empathy_intonation_perc_control,2024.2.4,MacIntel,62.89308176,667186a182a98857032a4dae,68817205a84113384fffdfe3,6882525107787cb43f0102b0,,,,,,,,,,,,./stim/wavs/puertorican_match_declarative-broad-focus_Maria-bebe-el-vino.wav,0,,,74.7467,77.3309,1,0,2.0762,,0,16,16,67,1,68,0,puertorican,,,,,,,,,,,,,,,,,,,,,,,,,,,,,,,,,,,,,,,,,,,,,,,,,,,,,,,,
,,,,,,,,,667186a182a98857032a4dae,spanish,13 or older,"no, only English or Spanish",no,2025-07-24_11h34.23.848,empathy_intonation_perc_control,2024.2.4,MacIntel,62.89308176,667186a182a98857032a4dae,68817205a84113384fffdfe3,6882525107787cb43f0102b0,,,,,,,,,,,,./stim/wavs/mexican_mismatch_declarative-broad-focus_Mi-tia-odia-la-lluvia.wav,0,,,77.3314,79.3145,0,1,1.4572,,0,17,17,82,1,83,0,mexican,,,,,,,,,,,,,,,,,,,,,,,,,,,,,,,,,,,,,,,,,,,,,,,,,,,,,,,,
,,,,,,,,,667186a182a98857032a4dae,spanish,13 or older,"no, only English or Spanish",no,2025-07-24_11h34.23.848,empathy_intonation_perc_control,2024.2.4,MacIntel,62.89308176,667186a182a98857032a4dae,68817205a84113384fffdfe3,6882525107787cb43f0102b0,,,,,,,,,,,,./stim/wavs/cuban_match_declarative-broad-focus_Maria-bebe-el-vino.wav,0,,,79.315,81.4808,0,1,1.6424,,0,18,18,53,1,54,0,cuban,,,,,,,,,,,,,,,,,,,,,,,,,,,,,,,,,,,,,,,,,,,,,,,,,,,,,,,,
,,,,,,,,,667186a182a98857032a4dae,spanish,13 or older,"no, only English or Spanish",no,2025-07-24_11h34.23.848,empathy_intonation_perc_control,2024.2.4,MacIntel,62.89308176,667186a182a98857032a4dae,68817205a84113384fffdfe3,6882525107787cb43f0102b0,,,,,,,,,,,,./stim/wavs/puertorican_mismatch_declarative-broad-focus_La-nina-lava-el-plato.wav,0,,,81.4816,83.6805,0,1,1.6761,,0,19,19,87,1,88,0,puertorican,,,,,,,,,,,,,,,,,,,,,,,,,,,,,,,,,,,,,,,,,,,,,,,,,,,,,,,,
,,,,,,,,,667186a182a98857032a4dae,spanish,13 or older,"no, only English or Spanish",no,2025-07-24_11h34.23.848,empathy_intonation_perc_control,2024.2.4,MacIntel,62.89308176,667186a182a98857032a4dae,68817205a84113384fffdfe3,6882525107787cb43f0102b0,,,,,,,,,,,,./stim/wavs/puertorican_mismatch_interrogative-total-yn_La-maestra-vive-en-Paris.wav,1,,,83.6811,86.3641,0,0,2.175,,0,20,20,41,1,42,1,puertorican,,,,,,,,,,,,,,,,,,,,,,,,,,,,,,,,,,,,,,,,,,,,,,,,,,,,,,,,
,,,,,,,,,667186a182a98857032a4dae,spanish,13 or older,"no, only English or Spanish",no,2025-07-24_11h34.23.848,empathy_intonation_perc_control,2024.2.4,MacIntel,62.89308176,667186a182a98857032a4dae,68817205a84113384fffdfe3,6882525107787cb43f0102b0,,,,,,,,,,,,./stim/wavs/castilian_match_declarative-broad-focus_Manuela-vende-el-carro.wav,0,,,86.3645,88.6978,0,1,1.8,,0,21,21,46,1,47,0,castilian,,,,,,,,,,,,,,,,,,,,,,,,,,,,,,,,,,,,,,,,,,,,,,,,,,,,,,,,
,,,,,,,,,667186a182a98857032a4dae,spanish,13 or older,"no, only English or Spanish",no,2025-07-24_11h34.23.848,empathy_intonation_perc_control,2024.2.4,MacIntel,62.89308176,667186a182a98857032a4dae,68817205a84113384fffdfe3,6882525107787cb43f0102b0,,,,,,,,,,,,./stim/wavs/cuban_match_interrogative-total-yn_Maria-bebe-el-vino.wav,1,,,88.6981,90.7147,0,0,1.4933,,0,22,22,9,1,10,1,cuban,,,,,,,,,,,,,,,,,,,,,,,,,,,,,,,,,,,,,,,,,,,,,,,,,,,,,,,,
,,,,,,,,,667186a182a98857032a4dae,spanish,13 or older,"no, only English or Spanish",no,2025-07-24_11h34.23.848,empathy_intonation_perc_control,2024.2.4,MacIntel,62.89308176,667186a182a98857032a4dae,68817205a84113384fffdfe3,6882525107787cb43f0102b0,,,,,,,,,,,,./stim/wavs/castilian_match_declarative-broad-focus_Mariano-habla-del-tiempo.wav,0,,,90.7156,93.1641,0,1,1.9202,,0,23,23,48,1,49,0,castilian,,,,,,,,,,,,,,,,,,,,,,,,,,,,,,,,,,,,,,,,,,,,,,,,,,,,,,,,
,,,,,,,,,667186a182a98857032a4dae,spanish,13 or older,"no, only English or Spanish",no,2025-07-24_11h34.23.848,empathy_intonation_perc_control,2024.2.4,MacIntel,62.89308176,667186a182a98857032a4dae,68817205a84113384fffdfe3,6882525107787cb43f0102b0,,,,,,,,,,,,./stim/wavs/mexican_match_interrogative-total-yn_Ana-lleva-el-abrigo.wav,1,,,93.1645,95.115,1,1,1.4394,,0,24,24,12,1,13,0,mexican,,,,,,,,,,,,,,,,,,,,,,,,,,,,,,,,,,,,,,,,,,,,,,,,,,,,,,,,
,,,,,,,,,667186a182a98857032a4dae,spanish,13 or older,"no, only English or Spanish",no,2025-07-24_11h34.23.848,empathy_intonation_perc_control,2024.2.4,MacIntel,62.89308176,667186a182a98857032a4dae,68817205a84113384fffdfe3,6882525107787cb43f0102b0,,,,,,,,,,,,./stim/wavs/castilian_match_interrogative-total-yn_Manuela-vende-el-carro.wav,1,,,95.1155,98.0982,1,1,2.4538,,0,25,25,2,1,3,0,castilian,,,,,,,,,,,,,,,,,,,,,,,,,,,,,,,,,,,,,,,,,,,,,,,,,,,,,,,,
,,,,,,,,,667186a182a98857032a4dae,spanish,13 or older,"no, only English or Spanish",no,2025-07-24_11h34.23.848,empathy_intonation_perc_control,2024.2.4,MacIntel,62.89308176,667186a182a98857032a4dae,68817205a84113384fffdfe3,6882525107787cb43f0102b0,,,,,,,,,,,,./stim/wavs/puertorican_mismatch_declarative-broad-focus_El-nino-oye-el-rio.wav,0,,,98.0986,100.1652,0,1,1.5512,,0,26,26,85,1,86,0,puertorican,,,,,,,,,,,,,,,,,,,,,,,,,,,,,,,,,,,,,,,,,,,,,,,,,,,,,,,,
,,,,,,,,,667186a182a98857032a4dae,spanish,13 or older,"no, only English or Spanish",no,2025-07-24_11h34.23.848,empathy_intonation_perc_control,2024.2.4,MacIntel,62.89308176,667186a182a98857032a4dae,68817205a84113384fffdfe3,6882525107787cb43f0102b0,,,,,,,,,,,,./stim/wavs/castilian_mismatch_interrogative-total-yn_La-nina-lava-el-plato.wav,1,,,100.1659,102.2992,1,1,1.6225,,0,27,27,25,1,26,0,castilian,,,,,,,,,,,,,,,,,,,,,,,,,,,,,,,,,,,,,,,,,,,,,,,,,,,,,,,,
,,,,,,,,,667186a182a98857032a4dae,spanish,13 or older,"no, only English or Spanish",no,2025-07-24_11h34.23.848,empathy_intonation_perc_control,2024.2.4,MacIntel,62.89308176,667186a182a98857032a4dae,68817205a84113384fffdfe3,6882525107787cb43f0102b0,,,,,,,,,,,,./stim/wavs/mexican_match_declarative-broad-focus_Emilio-ama-la-marcha.wav,0,,,102.2997,104.4663,0,1,1.6328,,0,28,28,59,1,60,0,mexican,,,,,,,,,,,,,,,,,,,,,,,,,,,,,,,,,,,,,,,,,,,,,,,,,,,,,,,,
,,,,,,,,,667186a182a98857032a4dae,spanish,13 or older,"no, only English or Spanish",no,2025-07-24_11h34.23.848,empathy_intonation_perc_control,2024.2.4,MacIntel,62.89308176,667186a182a98857032a4dae,68817205a84113384fffdfe3,6882525107787cb43f0102b0,,,,,,,,,,,,./stim/wavs/mexican_mismatch_interrogative-total-yn_Mi-tia-odia-la-lluvia.wav,1,,,104.4669,106.4985,1,1,1.5064,,0,29,29,38,1,39,0,mexican,,,,,,,,,,,,,,,,,,,,,,,,,,,,,,,,,,,,,,,,,,,,,,,,,,,,,,,,
,,,,,,,,,667186a182a98857032a4dae,spanish,13 or older,"no, only English or Spanish",no,2025-07-24_11h34.23.848,empathy_intonation_perc_control,2024.2.4,MacIntel,62.89308176,667186a182a98857032a4dae,68817205a84113384fffdfe3,6882525107787cb43f0102b0,,,,,,,,,,,,./stim/wavs/puertorican_match_declarative-broad-focus_Manuela-vende-el-carro.wav,0,,,106.499,108.6832,0,1,1.6764,,0,30,30,66,1,67,0,puertorican,,,,,,,,,,,,,,,,,,,,,,,,,,,,,,,,,,,,,,,,,,,,,,,,,,,,,,,,
,,,,,,,,,667186a182a98857032a4dae,spanish,13 or older,"no, only English or Spanish",no,2025-07-24_11h34.23.848,empathy_intonation_perc_control,2024.2.4,MacIntel,62.89308176,667186a182a98857032a4dae,68817205a84113384fffdfe3,6882525107787cb43f0102b0,,,,,,,,,,,,./stim/wavs/mexican_match_declarative-broad-focus_Ana-lleva-el-abrigo.wav,0,,,108.6839,110.5831,0,1,1.3684,,0,31,31,56,1,57,0,mexican,,,,,,,,,,,,,,,,,,,,,,,,,,,,,,,,,,,,,,,,,,,,,,,,,,,,,,,,
,,,,,,,,,667186a182a98857032a4dae,spanish,13 or older,"no, only English or Spanish",no,2025-07-24_11h34.23.848,empathy_intonation_perc_control,2024.2.4,MacIntel,62.89308176,667186a182a98857032a4dae,68817205a84113384fffdfe3,6882525107787cb43f0102b0,,,,,,,,,,,,./stim/wavs/puertorican_mismatch_interrogative-total-yn_El-nino-oye-el-rio.wav,1,,,110.5842,112.899,1,1,1.7918,,0,32,32,40,1,41,1,puertorican,,,,,,,,,,,,,,,,,,,,,,,,,,,,,,,,,,,,,,,,,,,,,,,,,,,,,,,,
,,,,,,,,,667186a182a98857032a4dae,spanish,13 or older,"no, only English or Spanish",no,2025-07-24_11h34.23.848,empathy_intonation_perc_control,2024.2.4,MacIntel,62.89308176,667186a182a98857032a4dae,68817205a84113384fffdfe3,6882525107787cb43f0102b0,,,,,,,,,,,,./stim/wavs/castilian_match_interrogative-total-yn_Emilio-ama-la-marcha.wav,1,,,112.8995,114.983,1,1,1.5766,,0,33,33,1,1,2,0,castilian,,,,,,,,,,,,,,,,,,,,,,,,,,,,,,,,,,,,,,,,,,,,,,,,,,,,,,,,
,,,,,,,,,667186a182a98857032a4dae,spanish,13 or older,"no, only English or Spanish",no,2025-07-24_11h34.23.848,empathy_intonation_perc_control,2024.2.4,MacIntel,62.89308176,667186a182a98857032a4dae,68817205a84113384fffdfe3,6882525107787cb43f0102b0,,,,,,,,,,,,./stim/wavs/mexican_match_declarative-broad-focus_Marta-abre-el-regalo.wav,0,,,114.9838,116.9657,0,1,1.4562,,0,34,34,61,1,62,0,mexican,,,,,,,,,,,,,,,,,,,,,,,,,,,,,,,,,,,,,,,,,,,,,,,,,,,,,,,,
,,,,,,,,,667186a182a98857032a4dae,spanish,13 or older,"no, only English or Spanish",no,2025-07-24_11h34.23.848,empathy_intonation_perc_control,2024.2.4,MacIntel,62.89308176,667186a182a98857032a4dae,68817205a84113384fffdfe3,6882525107787cb43f0102b0,,,,,,,,,,,,./stim/wavs/mexican_match_interrogative-total-yn_David-leia-el-libro.wav,1,,,116.9662,118.9659,1,1,1.4915,,0,35,35,14,1,15,0,mexican,,,,,,,,,,,,,,,,,,,,,,,,,,,,,,,,,,,,,,,,,,,,,,,,,,,,,,,,
,,,,,,,,,667186a182a98857032a4dae,spanish,13 or older,"no, only English or Spanish",no,2025-07-24_11h34.23.848,empathy_intonation_perc_control,2024.2.4,MacIntel,62.89308176,667186a182a98857032a4dae,68817205a84113384fffdfe3,6882525107787cb43f0102b0,,,,,,,,,,,,./stim/wavs/cuban_mismatch_declarative-broad-focus_La-nina-lava-el-plato.wav,0,,,118.9663,120.9494,0,1,1.4765,,0,36,36,75,1,76,0,cuban,,,,,,,,,,,,,,,,,,,,,,,,,,,,,,,,,,,,,,,,,,,,,,,,,,,,,,,,
,,,,,,,,,667186a182a98857032a4dae,spanish,13 or older,"no, only English or Spanish",no,2025-07-24_11h34.23.848,empathy_intonation_perc_control,2024.2.4,MacIntel,62.89308176,667186a182a98857032a4dae,68817205a84113384fffdfe3,6882525107787cb43f0102b0,,,,,,,,,,,,./stim/wavs/cuban_match_declarative-broad-focus_Marta-abre-el-regalo.wav,0,,,120.9502,123.0336,0,1,1.562,,0,37,37,55,1,56,0,cuban,,,,,,,,,,,,,,,,,,,,,,,,,,,,,,,,,,,,,,,,,,,,,,,,,,,,,,,,
,,,,,,,,,667186a182a98857032a4dae,spanish,13 or older,"no, only English or Spanish",no,2025-07-24_11h34.23.848,empathy_intonation_perc_control,2024.2.4,MacIntel,62.89308176,667186a182a98857032a4dae,68817205a84113384fffdfe3,6882525107787cb43f0102b0,,,,,,,,,,,,./stim/wavs/puertorican_match_interrogative-total-yn_David-leia-el-libro.wav,1,,,123.0342,125.3832,1,1,1.8243,,0,38,38,20,1,21,1,puertorican,,,,,,,,,,,,,,,,,,,,,,,,,,,,,,,,,,,,,,,,,,,,,,,,,,,,,,,,
,,,,,,,,,667186a182a98857032a4dae,spanish,13 or older,"no, only English or Spanish",no,2025-07-24_11h34.23.848,empathy_intonation_perc_control,2024.2.4,MacIntel,62.89308176,667186a182a98857032a4dae,68817205a84113384fffdfe3,6882525107787cb43f0102b0,,,,,,,,,,,,./stim/wavs/cuban_mismatch_declarative-broad-focus_Mi-novio-viene-del-lago.wav,0,,,125.3837,128.1168,0,1,2.2227,,0,39,39,76,1,77,0,cuban,,,,,,,,,,,,,,,,,,,,,,,,,,,,,,,,,,,,,,,,,,,,,,,,,,,,,,,,
,,,,,,,,,667186a182a98857032a4dae,spanish,13 or older,"no, only English or Spanish",no,2025-07-24_11h34.23.848,empathy_intonation_perc_control,2024.2.4,MacIntel,62.89308176,667186a182a98857032a4dae,68817205a84113384fffdfe3,6882525107787cb43f0102b0,,,,,,,,,,,,./stim/wavs/puertorican_match_interrogative-total-yn_Manuela-vende-el-carro.wav,1,,,128.1173,130.2174,1,1,1.5898,,0,40,40,22,1,23,1,puertorican,,,,,,,,,,,,,,,,,,,,,,,,,,,,,,,,,,,,,,,,,,,,,,,,,,,,,,,,
,,,,,,,,,667186a182a98857032a4dae,spanish,13 or older,"no, only English or Spanish",no,2025-07-24_11h34.23.848,empathy_intonation_perc_control,2024.2.4,MacIntel,62.89308176,667186a182a98857032a4dae,68817205a84113384fffdfe3,6882525107787cb43f0102b0,,,,,,,,,,,,./stim/wavs/cuban_mismatch_interrogative-total-yn_Mi-madre-come-la-fruta.wav,1,,,130.2179,132.2678,0,0,1.5277,,0,41,41,31,1,32,1,cuban,,,,,,,,,,,,,,,,,,,,,,,,,,,,,,,,,,,,,,,,,,,,,,,,,,,,,,,,
,,,,,,,,,667186a182a98857032a4dae,spanish,13 or older,"no, only English or Spanish",no,2025-07-24_11h34.23.848,empathy_intonation_perc_control,2024.2.4,MacIntel,62.89308176,667186a182a98857032a4dae,68817205a84113384fffdfe3,6882525107787cb43f0102b0,,,,,,,,,,,,./stim/wavs/cuban_mismatch_interrogative-total-yn_Mi-tia-odia-la-lluvia.wav,1,,,132.2683,134.218,0,0,1.4167,,0,42,42,33,1,34,1,cuban,,,,,,,,,,,,,,,,,,,,,,,,,,,,,,,,,,,,,,,,,,,,,,,,,,,,,,,,
,,,,,,,,,667186a182a98857032a4dae,spanish,13 or older,"no, only English or Spanish",no,2025-07-24_11h34.23.848,empathy_intonation_perc_control,2024.2.4,MacIntel,62.89308176,667186a182a98857032a4dae,68817205a84113384fffdfe3,6882525107787cb43f0102b0,,,,,,,,,,,,./stim/wavs/puertorican_match_interrogative-total-yn_Emilio-ama-la-marcha.wav,1,,,134.2187,136.2514,1,1,1.505,,0,43,43,21,1,22,1,puertorican,,,,,,,,,,,,,,,,,,,,,,,,,,,,,,,,,,,,,,,,,,,,,,,,,,,,,,,,
,,,,,,,,,667186a182a98857032a4dae,spanish,13 or older,"no, only English or Spanish",no,2025-07-24_11h34.23.848,empathy_intonation_perc_control,2024.2.4,MacIntel,62.89308176,667186a182a98857032a4dae,68817205a84113384fffdfe3,6882525107787cb43f0102b0,,,,,,,,,,,,./stim/wavs/mexican_mismatch_interrogative-total-yn_La-maestra-vive-en-Paris.wav,1,,,136.2519,138.5015,1,1,1.7239,,0,44,44,36,1,37,0,mexican,,,,,,,,,,,,,,,,,,,,,,,,,,,,,,,,,,,,,,,,,,,,,,,,,,,,,,,,
,,,,,,,,,667186a182a98857032a4dae,spanish,13 or older,"no, only English or Spanish",no,2025-07-24_11h34.23.848,empathy_intonation_perc_control,2024.2.4,MacIntel,62.89308176,667186a182a98857032a4dae,68817205a84113384fffdfe3,6882525107787cb43f0102b0,,,,,,,,,,,,./stim/wavs/cuban_mismatch_interrogative-total-yn_Mi-novio-viene-del-lago.wav,1,,,138.502,140.6511,0,0,1.6237,,0,45,45,32,1,33,1,cuban,,,,,,,,,,,,,,,,,,,,,,,,,,,,,,,,,,,,,,,,,,,,,,,,,,,,,,,,
,,,,,,,,,667186a182a98857032a4dae,spanish,13 or older,"no, only English or Spanish",no,2025-07-24_11h34.23.848,empathy_intonation_perc_control,2024.2.4,MacIntel,62.89308176,667186a182a98857032a4dae,68817205a84113384fffdfe3,6882525107787cb43f0102b0,,,,,,,,,,,,./stim/wavs/cuban_match_declarative-broad-focus_Manuela-vende-el-carro.wav,0,,,140.6517,143.1185,0,1,1.9603,,0,46,46,52,1,53,0,cuban,,,,,,,,,,,,,,,,,,,,,,,,,,,,,,,,,,,,,,,,,,,,,,,,,,,,,,,,
,,,,,,,,,667186a182a98857032a4dae,spanish,13 or older,"no, only English or Spanish",no,2025-07-24_11h34.23.848,empathy_intonation_perc_control,2024.2.4,MacIntel,62.89308176,667186a182a98857032a4dae,68817205a84113384fffdfe3,6882525107787cb43f0102b0,,,,,,,,,,,,./stim/wavs/castilian_match_interrogative-total-yn_Mariano-habla-del-tiempo.wav,1,,,143.1192,145.4183,1,1,1.7705,,0,47,47,4,1,5,0,castilian,,,,,,,,,,,,,,,,,,,,,,,,,,,,,,,,,,,,,,,,,,,,,,,,,,,,,,,,
,,,,,,,,,667186a182a98857032a4dae,spanish,13 or older,"no, only English or Spanish",no,2025-07-24_11h34.23.848,empathy_intonation_perc_control,2024.2.4,MacIntel,62.89308176,667186a182a98857032a4dae,68817205a84113384fffdfe3,6882525107787cb43f0102b0,,,,,,,,,,,,./stim/wavs/cuban_match_interrogative-total-yn_Mariano-habla-del-tiempo.wav,1,,,145.4188,147.8178,0,0,1.8741,,0,48,48,10,1,11,1,cuban,,,,,,,,,,,,,,,,,,,,,,,,,,,,,,,,,,,,,,,,,,,,,,,,,,,,,,,,
,,,,,,,,,667186a182a98857032a4dae,spanish,13 or older,"no, only English or Spanish",no,2025-07-24_11h34.23.848,empathy_intonation_perc_control,2024.2.4,MacIntel,62.89308176,667186a182a98857032a4dae,68817205a84113384fffdfe3,6882525107787cb43f0102b0,,,,,,,,,,,,./stim/wavs/puertorican_match_declarative-broad-focus_David-leia-el-libro.wav,0,,,147.8182,149.8179,0,1,1.4867,,0,49,49,64,1,65,0,puertorican,,,,,,,,,,,,,,,,,,,,,,,,,,,,,,,,,,,,,,,,,,,,,,,,,,,,,,,,
,,,,,,,,,667186a182a98857032a4dae,spanish,13 or older,"no, only English or Spanish",no,2025-07-24_11h34.23.848,empathy_intonation_perc_control,2024.2.4,MacIntel,62.89308176,667186a182a98857032a4dae,68817205a84113384fffdfe3,6882525107787cb43f0102b0,,,,,,,,,,,,./stim/wavs/cuban_match_interrogative-total-yn_Manuela-vende-el-carro.wav,1,,,149.8185,151.818,0,0,1.4918,,0,50,50,8,1,9,1,cuban,,,,,,,,,,,,,,,,,,,,,,,,,,,,,,,,,,,,,,,,,,,,,,,,,,,,,,,,
,,,,,,,,,667186a182a98857032a4dae,spanish,13 or older,"no, only English or Spanish",no,2025-07-24_11h34.23.848,empathy_intonation_perc_control,2024.2.4,MacIntel,62.89308176,667186a182a98857032a4dae,68817205a84113384fffdfe3,6882525107787cb43f0102b0,,,,,,,,,,,,./stim/wavs/cuban_mismatch_interrogative-total-yn_El-nino-oye-el-rio.wav,1,,,151.8183,153.6859,0,0,1.3563,,0,51,51,30,1,31,1,cuban,,,,,,,,,,,,,,,,,,,,,,,,,,,,,,,,,,,,,,,,,,,,,,,,,,,,,,,,
,,,,,,,,,667186a182a98857032a4dae,spanish,13 or older,"no, only English or Spanish",no,2025-07-24_11h34.23.848,empathy_intonation_perc_control,2024.2.4,MacIntel,62.89308176,667186a182a98857032a4dae,68817205a84113384fffdfe3,6882525107787cb43f0102b0,,,,,,,,,,,,./stim/wavs/mexican_match_declarative-broad-focus_Mariano-habla-del-tiempo.wav,0,,,153.6862,155.8193,0,1,1.6053,,0,52,52,60,1,61,0,mexican,,,,,,,,,,,,,,,,,,,,,,,,,,,,,,,,,,,,,,,,,,,,,,,,,,,,,,,,
,,,,,,,,,667186a182a98857032a4dae,spanish,13 or older,"no, only English or Spanish",no,2025-07-24_11h34.23.848,empathy_intonation_perc_control,2024.2.4,MacIntel,62.89308176,667186a182a98857032a4dae,68817205a84113384fffdfe3,6882525107787cb43f0102b0,,,,,,,,,,,,./stim/wavs/mexican_mismatch_interrogative-total-yn_El-hombre-mira-la-luna.wav,1,,,155.8198,157.7525,1,1,1.4072,,0,53,53,34,1,35,0,mexican,,,,,,,,,,,,,,,,,,,,,,,,,,,,,,,,,,,,,,,,,,,,,,,,,,,,,,,,
,,,,,,,,,667186a182a98857032a4dae,spanish,13 or older,"no, only English or Spanish",no,2025-07-24_11h34.23.848,empathy_intonation_perc_control,2024.2.4,MacIntel,62.89308176,667186a182a98857032a4dae,68817205a84113384fffdfe3,6882525107787cb43f0102b0,,,,,,,,,,,,./stim/wavs/castilian_mismatch_interrogative-total-yn_Mi-tia-odia-la-lluvia.wav,1,,,157.7529,159.9857,1,1,1.71,,0,54,54,28,1,29,0,castilian,,,,,,,,,,,,,,,,,,,,,,,,,,,,,,,,,,,,,,,,,,,,,,,,,,,,,,,,
,,,,,,,,,667186a182a98857032a4dae,spanish,13 or older,"no, only English or Spanish",no,2025-07-24_11h34.23.848,empathy_intonation_perc_control,2024.2.4,MacIntel,62.89308176,667186a182a98857032a4dae,68817205a84113384fffdfe3,6882525107787cb43f0102b0,,,,,,,,,,,,./stim/wavs/mexican_match_interrogative-total-yn_Marta-abre-el-regalo.wav,1,,,159.9866,162.1524,1,1,1.6501,,0,55,55,17,1,18,0,mexican,,,,,,,,,,,,,,,,,,,,,,,,,,,,,,,,,,,,,,,,,,,,,,,,,,,,,,,,
,,,,,,,,,667186a182a98857032a4dae,spanish,13 or older,"no, only English or Spanish",no,2025-07-24_11h34.23.848,empathy_intonation_perc_control,2024.2.4,MacIntel,62.89308176,667186a182a98857032a4dae,68817205a84113384fffdfe3,6882525107787cb43f0102b0,,,,,,,,,,,,./stim/wavs/mexican_match_interrogative-total-yn_Mariano-habla-del-tiempo.wav,1,,,162.1529,164.3526,1,1,1.6813,,0,56,56,16,1,17,0,mexican,,,,,,,,,,,,,,,,,,,,,,,,,,,,,,,,,,,,,,,,,,,,,,,,,,,,,,,,
,,,,,,,,,667186a182a98857032a4dae,spanish,13 or older,"no, only English or Spanish",no,2025-07-24_11h34.23.848,empathy_intonation_perc_control,2024.2.4,MacIntel,62.89308176,667186a182a98857032a4dae,68817205a84113384fffdfe3,6882525107787cb43f0102b0,,,,,,,,,,,,./stim/wavs/castilian_match_interrogative-total-yn_Marta-abre-el-regalo.wav,1,,,164.3529,166.6535,1,1,1.7838,,0,57,57,5,1,6,0,castilian,,,,,,,,,,,,,,,,,,,,,,,,,,,,,,,,,,,,,,,,,,,,,,,,,,,,,,,,
,,,,,,,,,667186a182a98857032a4dae,spanish,13 or older,"no, only English or Spanish",no,2025-07-24_11h34.23.848,empathy_intonation_perc_control,2024.2.4,MacIntel,62.89308176,667186a182a98857032a4dae,68817205a84113384fffdfe3,6882525107787cb43f0102b0,,,,,,,,,,,,./stim/wavs/cuban_mismatch_declarative-broad-focus_El-hombre-mira-la-luna.wav,0,,,166.6541,168.5203,0,1,1.3423,,0,58,58,74,1,75,0,cuban,,,,,,,,,,,,,,,,,,,,,,,,,,,,,,,,,,,,,,,,,,,,,,,,,,,,,,,,
,,,,,,,,,667186a182a98857032a4dae,spanish,13 or older,"no, only English or Spanish",no,2025-07-24_11h34.23.848,empathy_intonation_perc_control,2024.2.4,MacIntel,62.89308176,667186a182a98857032a4dae,68817205a84113384fffdfe3,6882525107787cb43f0102b0,,,,,,,,,,,,./stim/wavs/mexican_mismatch_declarative-broad-focus_El-hombre-mira-la-luna.wav,0,,,168.5209,170.7194,0,1,1.6643,,0,59,59,79,1,80,0,mexican,,,,,,,,,,,,,,,,,,,,,,,,,,,,,,,,,,,,,,,,,,,,,,,,,,,,,,,,
,,,,,,,,,667186a182a98857032a4dae,spanish,13 or older,"no, only English or Spanish",no,2025-07-24_11h34.23.848,empathy_intonation_perc_control,2024.2.4,MacIntel,62.89308176,667186a182a98857032a4dae,68817205a84113384fffdfe3,6882525107787cb43f0102b0,,,,,,,,,,,,./stim/wavs/cuban_mismatch_declarative-broad-focus_Mi-tia-odia-la-lluvia.wav,0,,,170.7199,172.9039,0,1,1.6732,,0,60,60,77,1,78,0,cuban,,,,,,,,,,,,,,,,,,,,,,,,,,,,,,,,,,,,,,,,,,,,,,,,,,,,,,,,
,,,,,,,,,667186a182a98857032a4dae,spanish,13 or older,"no, only English or Spanish",no,2025-07-24_11h34.23.848,empathy_intonation_perc_control,2024.2.4,MacIntel,62.89308176,667186a182a98857032a4dae,68817205a84113384fffdfe3,6882525107787cb43f0102b0,,,,,,,,,,,,./stim/wavs/mexican_mismatch_declarative-broad-focus_La-maestra-vive-en-Paris.wav,0,,,172.9043,175.1035,0,1,1.6733,,0,61,61,80,1,81,0,mexican,,,,,,,,,,,,,,,,,,,,,,,,,,,,,,,,,,,,,,,,,,,,,,,,,,,,,,,,
,,,,,,,,,667186a182a98857032a4dae,spanish,13 or older,"no, only English or Spanish",no,2025-07-24_11h34.23.848,empathy_intonation_perc_control,2024.2.4,MacIntel,62.89308176,667186a182a98857032a4dae,68817205a84113384fffdfe3,6882525107787cb43f0102b0,,,,,,,,,,,,./stim/wavs/mexican_match_declarative-broad-focus_David-leia-el-libro.wav,0,,,175.1039,177.0043,0,1,1.3893,,0,62,62,58,1,59,0,mexican,,,,,,,,,,,,,,,,,,,,,,,,,,,,,,,,,,,,,,,,,,,,,,,,,,,,,,,,
,,,,,,,,,667186a182a98857032a4dae,spanish,13 or older,"no, only English or Spanish",no,2025-07-24_11h34.23.848,empathy_intonation_perc_control,2024.2.4,MacIntel,62.89308176,667186a182a98857032a4dae,68817205a84113384fffdfe3,6882525107787cb43f0102b0,,,,,,,,,,,,./stim/wavs/castilian_mismatch_declarative-broad-focus_El-nino-oye-el-rio.wav,0,,,177.0048,179.2374,0,1,1.7108,,0,63,63,68,1,69,0,castilian,,,,,,,,,,,,,,,,,,,,,,,,,,,,,,,,,,,,,,,,,,,,,,,,,,,,,,,,
,,,,,,,,,667186a182a98857032a4dae,spanish,13 or older,"no, only English or Spanish",no,2025-07-24_11h34.23.848,empathy_intonation_perc_control,2024.2.4,MacIntel,62.89308176,667186a182a98857032a4dae,68817205a84113384fffdfe3,6882525107787cb43f0102b0,,,,,,,,,,,,./stim/wavs/mexican_match_interrogative-total-yn_Emilio-ama-la-marcha.wav,1,,,179.2379,181.3535,1,1,1.5998,,0,64,64,15,1,16,0,mexican,,,,,,,,,,,,,,,,,,,,,,,,,,,,,,,,,,,,,,,,,,,,,,,,,,,,,,,,
,,,,,,,,,667186a182a98857032a4dae,spanish,13 or older,"no, only English or Spanish",no,2025-07-24_11h34.23.848,empathy_intonation_perc_control,2024.2.4,MacIntel,62.89308176,667186a182a98857032a4dae,68817205a84113384fffdfe3,6882525107787cb43f0102b0,,,,,,,,,,,,./stim/wavs/puertorican_match_declarative-broad-focus_Emilio-ama-la-marcha.wav,0,,,181.3538,183.3876,0,1,1.5242,,0,65,65,65,1,66,0,puertorican,,,,,,,,,,,,,,,,,,,,,,,,,,,,,,,,,,,,,,,,,,,,,,,,,,,,,,,,
,,,,,,,,,667186a182a98857032a4dae,spanish,13 or older,"no, only English or Spanish",no,2025-07-24_11h34.23.848,empathy_intonation_perc_control,2024.2.4,MacIntel,62.89308176,667186a182a98857032a4dae,68817205a84113384fffdfe3,6882525107787cb43f0102b0,,,,,,,,,,,,./stim/wavs/castilian_match_interrogative-total-yn_David-leia-el-libro.wav,1,,,183.388,185.4873,1,1,1.5663,,0,66,66,0,1,1,0,castilian,,,,,,,,,,,,,,,,,,,,,,,,,,,,,,,,,,,,,,,,,,,,,,,,,,,,,,,,
,,,,,,,,,667186a182a98857032a4dae,spanish,13 or older,"no, only English or Spanish",no,2025-07-24_11h34.23.848,empathy_intonation_perc_control,2024.2.4,MacIntel,62.89308176,667186a182a98857032a4dae,68817205a84113384fffdfe3,6882525107787cb43f0102b0,,,,,,,,,,,,./stim/wavs/puertorican_match_declarative-broad-focus_Daniel-iba-a-Bolivia.wav,0,,,185.4878,187.6051,0,1,1.6049,,0,67,67,63,1,64,0,puertorican,,,,,,,,,,,,,,,,,,,,,,,,,,,,,,,,,,,,,,,,,,,,,,,,,,,,,,,,
,,,,,,,,,667186a182a98857032a4dae,spanish,13 or older,"no, only English or Spanish",no,2025-07-24_11h34.23.848,empathy_intonation_perc_control,2024.2.4,MacIntel,62.89308176,667186a182a98857032a4dae,68817205a84113384fffdfe3,6882525107787cb43f0102b0,,,,,,,,,,,,./stim/wavs/puertorican_match_interrogative-total-yn_Ana-lleva-el-abrigo.wav,1,,,187.6056,189.9708,1,1,1.837,,0,68,68,18,1,19,1,puertorican,,,,,,,,,,,,,,,,,,,,,,,,,,,,,,,,,,,,,,,,,,,,,,,,,,,,,,,,
,,,,,,,,,667186a182a98857032a4dae,spanish,13 or older,"no, only English or Spanish",no,2025-07-24_11h34.23.848,empathy_intonation_perc_control,2024.2.4,MacIntel,62.89308176,667186a182a98857032a4dae,68817205a84113384fffdfe3,6882525107787cb43f0102b0,,,,,,,,,,,,./stim/wavs/cuban_match_declarative-broad-focus_Ana-lleva-el-abrigo.wav,0,,,189.9713,191.9383,0,1,1.4586,,0,69,69,50,1,51,0,cuban,,,,,,,,,,,,,,,,,,,,,,,,,,,,,,,,,,,,,,,,,,,,,,,,,,,,,,,,
,,,,,,,,,667186a182a98857032a4dae,spanish,13 or older,"no, only English or Spanish",no,2025-07-24_11h34.23.848,empathy_intonation_perc_control,2024.2.4,MacIntel,62.89308176,667186a182a98857032a4dae,68817205a84113384fffdfe3,6882525107787cb43f0102b0,,,,,,,,,,,,./stim/wavs/mexican_match_interrogative-total-yn_Daniel-iba-a-Bolivia.wav,1,,,191.9387,194.338,1,1,1.8694,,0,70,70,13,1,14,0,mexican,,,,,,,,,,,,,,,,,,,,,,,,,,,,,,,,,,,,,,,,,,,,,,,,,,,,,,,,
,,,,,,,,,667186a182a98857032a4dae,spanish,13 or older,"no, only English or Spanish",no,2025-07-24_11h34.23.848,empathy_intonation_perc_control,2024.2.4,MacIntel,62.89308176,667186a182a98857032a4dae,68817205a84113384fffdfe3,6882525107787cb43f0102b0,,,,,,,,,,,,./stim/wavs/puertorican_mismatch_declarative-broad-focus_La-maestra-vive-en-Paris.wav,0,,,194.3387,196.4378,0,1,1.5765,,0,71,71,86,1,87,0,puertorican,,,,,,,,,,,,,,,,,,,,,,,,,,,,,,,,,,,,,,,,,,,,,,,,,,,,,,,,
,,,,,,,,,667186a182a98857032a4dae,spanish,13 or older,"no, only English or Spanish",no,2025-07-24_11h34.23.848,empathy_intonation_perc_control,2024.2.4,MacIntel,62.89308176,667186a182a98857032a4dae,68817205a84113384fffdfe3,6882525107787cb43f0102b0,,,,,,,,,,,,./stim/wavs/castilian_match_declarative-broad-focus_Maria-bebe-el-vino.wav,0,,,196.4382,198.8226,0,1,1.8744,,0,72,72,47,1,48,0,castilian,,,,,,,,,,,,,,,,,,,,,,,,,,,,,,,,,,,,,,,,,,,,,,,,,,,,,,,,
,,,,,,,,,667186a182a98857032a4dae,spanish,13 or older,"no, only English or Spanish",no,2025-07-24_11h34.23.848,empathy_intonation_perc_control,2024.2.4,MacIntel,62.89308176,667186a182a98857032a4dae,68817205a84113384fffdfe3,6882525107787cb43f0102b0,,,,,,,,,,,,./stim/wavs/castilian_match_interrogative-total-yn_Maria-bebe-el-vino.wav,1,,,198.8231,200.7728,1,1,1.4159,,0,73,73,3,1,4,0,castilian,,,,,,,,,,,,,,,,,,,,,,,,,,,,,,,,,,,,,,,,,,,,,,,,,,,,,,,,
,,,,,,,,,667186a182a98857032a4dae,spanish,13 or older,"no, only English or Spanish",no,2025-07-24_11h34.23.848,empathy_intonation_perc_control,2024.2.4,MacIntel,62.89308176,667186a182a98857032a4dae,68817205a84113384fffdfe3,6882525107787cb43f0102b0,,,,,,,,,,,,./stim/wavs/puertorican_mismatch_interrogative-total-yn_Mi-madre-come-la-fruta.wav,1,,,200.7733,203.0558,0,0,1.7529,,0,74,74,43,1,44,1,puertorican,,,,,,,,,,,,,,,,,,,,,,,,,,,,,,,,,,,,,,,,,,,,,,,,,,,,,,,,
,,,,,,,,,667186a182a98857032a4dae,spanish,13 or older,"no, only English or Spanish",no,2025-07-24_11h34.23.848,empathy_intonation_perc_control,2024.2.4,MacIntel,62.89308176,667186a182a98857032a4dae,68817205a84113384fffdfe3,6882525107787cb43f0102b0,,,,,,,,,,,,./stim/wavs/castilian_mismatch_interrogative-total-yn_Mi-madre-come-la-fruta.wav,1,,,203.0564,205.3056,1,1,1.7166,,0,75,75,26,1,27,0,castilian,,,,,,,,,,,,,,,,,,,,,,,,,,,,,,,,,,,,,,,,,,,,,,,,,,,,,,,,
,,,,,,,,,667186a182a98857032a4dae,spanish,13 or older,"no, only English or Spanish",no,2025-07-24_11h34.23.848,empathy_intonation_perc_control,2024.2.4,MacIntel,62.89308176,667186a182a98857032a4dae,68817205a84113384fffdfe3,6882525107787cb43f0102b0,,,,,,,,,,,,./stim/wavs/castilian_mismatch_declarative-broad-focus_Mi-tia-odia-la-lluvia.wav,0,,,205.3063,207.5561,0,1,1.7239,,0,76,76,72,1,73,0,castilian,,,,,,,,,,,,,,,,,,,,,,,,,,,,,,,,,,,,,,,,,,,,,,,,,,,,,,,,
,,,,,,,,,667186a182a98857032a4dae,spanish,13 or older,"no, only English or Spanish",no,2025-07-24_11h34.23.848,empathy_intonation_perc_control,2024.2.4,MacIntel,62.89308176,667186a182a98857032a4dae,68817205a84113384fffdfe3,6882525107787cb43f0102b0,,,,,,,,,,,,./stim/wavs/mexican_mismatch_declarative-broad-focus_Mi-novio-viene-del-lago.wav,0,,,207.5566,209.8056,0,1,1.7227,,0,77,77,81,1,82,0,mexican,,,,,,,,,,,,,,,,,,,,,,,,,,,,,,,,,,,,,,,,,,,,,,,,,,,,,,,,
,,,,,,,,,667186a182a98857032a4dae,spanish,13 or older,"no, only English or Spanish",no,2025-07-24_11h34.23.848,empathy_intonation_perc_control,2024.2.4,MacIntel,62.89308176,667186a182a98857032a4dae,68817205a84113384fffdfe3,6882525107787cb43f0102b0,,,,,,,,,,,,./stim/wavs/puertorican_mismatch_declarative-broad-focus_El-bebe-comia-muy-bien.wav,0,,,209.806,212.123,0,1,1.8093,,0,78,78,83,1,84,0,puertorican,,,,,,,,,,,,,,,,,,,,,,,,,,,,,,,,,,,,,,,,,,,,,,,,,,,,,,,,
,,,,,,,,,667186a182a98857032a4dae,spanish,13 or older,"no, only English or Spanish",no,2025-07-24_11h34.23.848,empathy_intonation_perc_control,2024.2.4,MacIntel,62.89308176,667186a182a98857032a4dae,68817205a84113384fffdfe3,6882525107787cb43f0102b0,,,,,,,,,,,,./stim/wavs/cuban_match_interrogative-total-yn_Marta-abre-el-regalo.wav,1,,,212.1237,214.2395,0,0,1.5927,,0,79,79,11,1,12,1,cuban,,,,,,,,,,,,,,,,,,,,,,,,,,,,,,,,,,,,,,,,,,,,,,,,,,,,,,,,
,,,,,,,,,667186a182a98857032a4dae,spanish,13 or older,"no, only English or Spanish",no,2025-07-24_11h34.23.848,empathy_intonation_perc_control,2024.2.4,MacIntel,62.89308176,667186a182a98857032a4dae,68817205a84113384fffdfe3,6882525107787cb43f0102b0,,,,,,,,,,,,./stim/wavs/castilian_mismatch_declarative-broad-focus_La-nina-lava-el-plato.wav,0,,,214.24,216.6902,0,1,1.943,,0,80,80,70,1,71,0,castilian,,,,,,,,,,,,,,,,,,,,,,,,,,,,,,,,,,,,,,,,,,,,,,,,,,,,,,,,
,,,,,,,,,667186a182a98857032a4dae,spanish,13 or older,"no, only English or Spanish",no,2025-07-24_11h34.23.848,empathy_intonation_perc_control,2024.2.4,MacIntel,62.89308176,667186a182a98857032a4dae,68817205a84113384fffdfe3,6882525107787cb43f0102b0,,,,,,,,,,,,./stim/wavs/castilian_mismatch_interrogative-total-yn_La-maestra-vive-en-Paris.wav,1,,,216.6908,219.0896,1,1,1.8753,,0,81,81,24,1,25,0,castilian,,,,,,,,,,,,,,,,,,,,,,,,,,,,,,,,,,,,,,,,,,,,,,,,,,,,,,,,
,,,,,,,,,667186a182a98857032a4dae,spanish,13 or older,"no, only English or Spanish",no,2025-07-24_11h34.23.848,empathy_intonation_perc_control,2024.2.4,MacIntel,62.89308176,667186a182a98857032a4dae,68817205a84113384fffdfe3,6882525107787cb43f0102b0,,,,,,,,,,,,./stim/wavs/puertorican_match_interrogative-total-yn_Daniel-iba-a-Bolivia.wav,1,,,219.0905,221.4726,0,0,1.8735,,0,82,82,19,1,20,1,puertorican,,,,,,,,,,,,,,,,,,,,,,,,,,,,,,,,,,,,,,,,,,,,,,,,,,,,,,,,
,,,,,,,,,667186a182a98857032a4dae,spanish,13 or older,"no, only English or Spanish",no,2025-07-24_11h34.23.848,empathy_intonation_perc_control,2024.2.4,MacIntel,62.89308176,667186a182a98857032a4dae,68817205a84113384fffdfe3,6882525107787cb43f0102b0,,,,,,,,,,,,./stim/wavs/puertorican_match_declarative-broad-focus_Ana-lleva-el-abrigo.wav,0,,,221.4731,223.4071,0,1,1.4167,,0,83,83,62,1,63,0,puertorican,,,,,,,,,,,,,,,,,,,,,,,,,,,,,,,,,,,,,,,,,,,,,,,,,,,,,,,,
,,,,,,,,,667186a182a98857032a4dae,spanish,13 or older,"no, only English or Spanish",no,2025-07-24_11h34.23.848,empathy_intonation_perc_control,2024.2.4,MacIntel,62.89308176,667186a182a98857032a4dae,68817205a84113384fffdfe3,6882525107787cb43f0102b0,,,,,,,,,,,,./stim/wavs/castilian_mismatch_declarative-broad-focus_Mi-novio-viene-del-lago.wav,0,,,223.4075,225.8079,1,0,1.8694,,0,84,84,71,1,72,0,castilian,,,,,,,,,,,,,,,,,,,,,,,,,,,,,,,,,,,,,,,,,,,,,,,,,,,,,,,,
,,,,,,,,,667186a182a98857032a4dae,spanish,13 or older,"no, only English or Spanish",no,2025-07-24_11h34.23.848,empathy_intonation_perc_control,2024.2.4,MacIntel,62.89308176,667186a182a98857032a4dae,68817205a84113384fffdfe3,6882525107787cb43f0102b0,,,,,,,,,,,,./stim/wavs/puertorican_match_interrogative-total-yn_Maria-bebe-el-vino.wav,1,,,225.8085,228.1413,0,0,1.806,,0,85,85,23,1,24,1,puertorican,,,,,,,,,,,,,,,,,,,,,,,,,,,,,,,,,,,,,,,,,,,,,,,,,,,,,,,,
,,,,,,,,,667186a182a98857032a4dae,spanish,13 or older,"no, only English or Spanish",no,2025-07-24_11h34.23.848,empathy_intonation_perc_control,2024.2.4,MacIntel,62.89308176,667186a182a98857032a4dae,68817205a84113384fffdfe3,6882525107787cb43f0102b0,,,,,,,,,,,,./stim/wavs/castilian_mismatch_declarative-broad-focus_La-maestra-vive-en-Paris.wav,0,,,228.1418,230.7246,0,1,2.0537,,0,86,86,69,1,70,0,castilian,,,,,,,,,,,,,,,,,,,,,,,,,,,,,,,,,,,,,,,,,,,,,,,,,,,,,,,,
,,,,,,,,,667186a182a98857032a4dae,spanish,13 or older,"no, only English or Spanish",no,2025-07-24_11h34.23.848,empathy_intonation_perc_control,2024.2.4,MacIntel,62.89308176,667186a182a98857032a4dae,68817205a84113384fffdfe3,6882525107787cb43f0102b0,,,,,,,,,,,,./stim/wavs/castilian_match_declarative-broad-focus_Marta-abre-el-regalo.wav,0,,,230.725,232.925,0,1,1.6725,,0,87,87,49,1,50,0,castilian,,,,,,,,,,,,,,,,,,,,,,,,,,,,,,,,,,,,,,,,,,,,,,,,,,,,,,,,
,,,,,,,"Great! Now we will move on. The next task consists of about 60 trials, in each of which you will see a string of letters. 
  
  Your task is to decide whether this is a real Spanish word or not.", (press the spacebar to continue),667186a182a98857032a4dae,spanish,13 or older,"no, only English or Spanish",no,2025-07-24_11h34.23.848,empathy_intonation_perc_control,2024.2.4,MacIntel,62.89308176,667186a182a98857032a4dae,68817205a84113384fffdfe3,6882525107787cb43f0102b0,,,,,,,,,,,,,,,,,,,,,,,,,,,,,,232.933,242.1745,0,0,0,0,1,,,,,,,,,,,,,,,,,,,,,,,,,,,,,,,,,,,,,,,,,,,,,,,,,
,,,,,,,"If you think it is an existing Spanish word, you type '1' (for 'REAL'), and if you think it is not an existing Spanish word, you type '0' (for 'FAKE').", (press the spacebar to continue),667186a182a98857032a4dae,spanish,13 or older,"no, only English or Spanish",no,2025-07-24_11h34.23.848,empathy_intonation_perc_control,2024.2.4,MacIntel,62.89308176,667186a182a98857032a4dae,68817205a84113384fffdfe3,6882525107787cb43f0102b0,,,,,,,,,,,,,,,,,,,,,,,,,,,,,,242.1759,245.9416,0,1,1,1,1,,,,,,,,,,,,,,,,,,,,,,,,,,,,,,,,,,,,,,,,,,,,,,,,,
,,,,,,,"If you are sure that the word exists, even though you don’t know its exact meaning, you may still respond '1' (REAL). 
  
  But if you are not sure if it is an existing word, you should respond '0' (FAKE).
  
  Let's do a practice round...", (press the spacebar to continue),667186a182a98857032a4dae,spanish,13 or older,"no, only English or Spanish",no,2025-07-24_11h34.23.848,empathy_intonation_perc_control,2024.2.4,MacIntel,62.89308176,667186a182a98857032a4dae,68817205a84113384fffdfe3,6882525107787cb43f0102b0,,,,,,,,,,,,,,,,,,,,,,,,,,,,,,245.9444,253.7258,0,2,2,2,1,,,,,,,,,,,,,,,,,,,,,,,,,,,,,,,,,,,,,,,,,,,,,,,,,
,,,,,,,,,667186a182a98857032a4dae,spanish,13 or older,"no, only English or Spanish",no,2025-07-24_11h34.23.848,empathy_intonation_perc_control,2024.2.4,MacIntel,62.89308176,667186a182a98857032a4dae,68817205a84113384fffdfe3,6882525107787cb43f0102b0,,,,,,,,,,,,,0,,,,,,,,,,,,,,,,,,,,,,,,253.7312,256.1256,0,1,1.8632,,256.126,257.1268,0,0,0,0,1,0,depiste,REAL,FAKE,,,,,,,,,,,,,,,,,,,,,,,,,,,,,,,,
,,,,,,,,,667186a182a98857032a4dae,spanish,13 or older,"no, only English or Spanish",no,2025-07-24_11h34.23.848,empathy_intonation_perc_control,2024.2.4,MacIntel,62.89308176,667186a182a98857032a4dae,68817205a84113384fffdfe3,6882525107787cb43f0102b0,,,,,,,,,,,,,1,,,,,,,,,,,,,,,,,,,,,,,,257.1286,259.3598,1,1,1.7073,,259.3598,260.3601,0,1,1,1,1,0,sí,REAL,FAKE,,,,,,,,,,,,,,,,,,,,,,,,,,,,,,,,
,,,,,,,,,667186a182a98857032a4dae,spanish,13 or older,"no, only English or Spanish",no,2025-07-24_11h34.23.848,empathy_intonation_perc_control,2024.2.4,MacIntel,62.89308176,667186a182a98857032a4dae,68817205a84113384fffdfe3,6882525107787cb43f0102b0,,,,,,,,,,,,,0,,,,,,,,,,,,,,,,,,,,,,,,260.3613,262.4094,0,1,1.5206,,262.4095,263.4104,0,2,2,2,1,0,coné,REAL,FAKE,,,,,,,,,,,,,,,,,,,,,,,,,,,,,,,,
,,,,,,,,,667186a182a98857032a4dae,spanish,13 or older,"no, only English or Spanish",no,2025-07-24_11h34.23.848,empathy_intonation_perc_control,2024.2.4,MacIntel,62.89308176,667186a182a98857032a4dae,68817205a84113384fffdfe3,6882525107787cb43f0102b0,,,,,,,,,,,,,0,,,,,,,,,,,,,,,,,,,,,,,,263.4115,265.5098,0,1,1.571,,265.5098,266.5107,0,3,3,3,1,0,calpar,REAL,FAKE,,,,,,,,,,,,,,,,,,,,,,,,,,,,,,,,
,,,,,,,,,667186a182a98857032a4dae,spanish,13 or older,"no, only English or Spanish",no,2025-07-24_11h34.23.848,empathy_intonation_perc_control,2024.2.4,MacIntel,62.89308176,667186a182a98857032a4dae,68817205a84113384fffdfe3,6882525107787cb43f0102b0,,,,,,,,,,,,,0,,,,,,,,,,,,,,,,,,,,,,,,266.5119,268.1768,0,1,1.1386,,268.1768,269.1774,0,4,4,4,1,0,joten,REAL,FAKE,,,,,,,,,,,,,,,,,,,,,,,,,,,,,,,,
,,,,,,,,,667186a182a98857032a4dae,spanish,13 or older,"no, only English or Spanish",no,2025-07-24_11h34.23.848,empathy_intonation_perc_control,2024.2.4,MacIntel,62.89308176,667186a182a98857032a4dae,68817205a84113384fffdfe3,6882525107787cb43f0102b0,,,,,,,,,,,,,1,,,,,,,,,,,,,,,,,,,,,,,,269.1784,270.9763,1,1,1.2687,,270.9764,271.9776,0,5,5,5,1,0,sacapuntas,REAL,FAKE,,,,,,,,,,,,,,,,,,,,,,,,,,,,,,,,
,,,,,,,,,667186a182a98857032a4dae,spanish,13 or older,"no, only English or Spanish",no,2025-07-24_11h34.23.848,empathy_intonation_perc_control,2024.2.4,MacIntel,62.89308176,667186a182a98857032a4dae,68817205a84113384fffdfe3,6882525107787cb43f0102b0,,,,,,,,,,,,,0,,,,,,,,,,,,,,,,,,,,,,,,271.9787,273.627,1,0,1.1187,,273.6275,274.6278,0,6,6,6,1,0,priba,REAL,FAKE,,,,,,,,,,,,,,,,,,,,,,,,,,,,,,,,
,,,,,,,,,667186a182a98857032a4dae,spanish,13 or older,"no, only English or Spanish",no,2025-07-24_11h34.23.848,empathy_intonation_perc_control,2024.2.4,MacIntel,62.89308176,667186a182a98857032a4dae,68817205a84113384fffdfe3,6882525107787cb43f0102b0,,,,,,,,,,,,,0,,,,,,,,,,,,,,,,,,,,,,,,274.6289,276.0442,1,0,0.89,,276.0444,277.0445,0,7,7,7,1,0,pelasula,REAL,FAKE,,,,,,,,,,,,,,,,,,,,,,,,,,,,,,,,
,,,,,,,,,667186a182a98857032a4dae,spanish,13 or older,"no, only English or Spanish",no,2025-07-24_11h34.23.848,empathy_intonation_perc_control,2024.2.4,MacIntel,62.89308176,667186a182a98857032a4dae,68817205a84113384fffdfe3,6882525107787cb43f0102b0,,,,,,,,,,,,,1,,,,,,,,,,,,,,,,,,,,,,,,277.0456,278.3268,1,1,0.7526,,278.3273,279.3279,0,8,8,8,1,0,bien,REAL,FAKE,,,,,,,,,,,,,,,,,,,,,,,,,,,,,,,,
,,,,,,,,,667186a182a98857032a4dae,spanish,13 or older,"no, only English or Spanish",no,2025-07-24_11h34.23.848,empathy_intonation_perc_control,2024.2.4,MacIntel,62.89308176,667186a182a98857032a4dae,68817205a84113384fffdfe3,6882525107787cb43f0102b0,,,,,,,,,,,,,1,,,,,,,,,,,,,,,,,,,,,,,,279.3289,280.6613,1,1,0.796,,280.6613,281.6616,0,9,9,9,1,0,casa,REAL,FAKE,,,,,,,,,,,,,,,,,,,,,,,,,,,,,,,,
,,,,,,,,,667186a182a98857032a4dae,spanish,13 or older,"no, only English or Spanish",no,2025-07-24_11h34.23.848,empathy_intonation_perc_control,2024.2.4,MacIntel,62.89308176,667186a182a98857032a4dae,68817205a84113384fffdfe3,6882525107787cb43f0102b0,,,,,,,,,,,,,0,,,,,,,,,,,,,,,,,,,,,,,,281.6626,283.4948,1,0,1.3,,283.4952,284.494,0,10,10,10,1,0,lejo,REAL,FAKE,,,,,,,,,,,,,,,,,,,,,,,,,,,,,,,,
,,,,,,,,,667186a182a98857032a4dae,spanish,13 or older,"no, only English or Spanish",no,2025-07-24_11h34.23.848,empathy_intonation_perc_control,2024.2.4,MacIntel,62.89308176,667186a182a98857032a4dae,68817205a84113384fffdfe3,6882525107787cb43f0102b0,,,,,,,,,,,,,0,,,,,,,,,,,,,,,,,,,,,,,,284.4949,285.9943,0,1,0.9791,,285.995,286.9952,0,11,11,11,1,0,pretantas,REAL,FAKE,,,,,,,,,,,,,,,,,,,,,,,,,,,,,,,,
,,,,,,,,,667186a182a98857032a4dae,spanish,13 or older,"no, only English or Spanish",no,2025-07-24_11h34.23.848,empathy_intonation_perc_control,2024.2.4,MacIntel,62.89308176,667186a182a98857032a4dae,68817205a84113384fffdfe3,6882525107787cb43f0102b0,,,,,,,,,,,,,,,,,,,,,,,,,,,,,,,,,,,,,,,,,,,,,,,,,,,,,,286.9957,289.4286,,,,,,,,,,,,,,,,,,,,,,,,,,,,,,
,,,,,,,,,667186a182a98857032a4dae,spanish,13 or older,"no, only English or Spanish",no,2025-07-24_11h34.23.848,empathy_intonation_perc_control,2024.2.4,MacIntel,62.89308176,667186a182a98857032a4dae,68817205a84113384fffdfe3,6882525107787cb43f0102b0,,,,,,,,,,,,,0,,,,,,,,,,,,,,,,,,,,,,,,,,,,,,,,,,,,,82,empirador,,,,,289.437,291.2618,0,1,1.3059,,0,0,0,81,1,REAL,FAKE,,,,,,,,,,,,,,,,,
,,,,,,,,,667186a182a98857032a4dae,spanish,13 or older,"no, only English or Spanish",no,2025-07-24_11h34.23.848,empathy_intonation_perc_control,2024.2.4,MacIntel,62.89308176,667186a182a98857032a4dae,68817205a84113384fffdfe3,6882525107787cb43f0102b0,,,,,,,,,,,,,1,,,,,,,,,,,,,,,,,,,,,,,,,,,,,,,,,,,,,71,polvoriento,,,,,291.2632,293.5623,0,0,1.7655,,0,1,1,70,1,REAL,FAKE,,,,,,,,,,,,,,,,,
,,,,,,,,,667186a182a98857032a4dae,spanish,13 or older,"no, only English or Spanish",no,2025-07-24_11h34.23.848,empathy_intonation_perc_control,2024.2.4,MacIntel,62.89308176,667186a182a98857032a4dae,68817205a84113384fffdfe3,6882525107787cb43f0102b0,,,,,,,,,,,,,0,,,,,,,,,,,,,,,,,,,,,,,,,,,,,,,,,,,,,1,terzo,,,,,293.5633,295.0625,0,1,0.9628,,0,2,2,0,1,REAL,FAKE,,,,,,,,,,,,,,,,,
,,,,,,,,,667186a182a98857032a4dae,spanish,13 or older,"no, only English or Spanish",no,2025-07-24_11h34.23.848,empathy_intonation_perc_control,2024.2.4,MacIntel,62.89308176,667186a182a98857032a4dae,68817205a84113384fffdfe3,6882525107787cb43f0102b0,,,,,,,,,,,,,0,,,,,,,,,,,,,,,,,,,,,,,,,,,,,,,,,,,,,84,escuto,,,,,295.0635,297.229,1,0,1.638,,0,3,3,83,1,REAL,FAKE,,,,,,,,,,,,,,,,,
,,,,,,,,,667186a182a98857032a4dae,spanish,13 or older,"no, only English or Spanish",no,2025-07-24_11h34.23.848,empathy_intonation_perc_control,2024.2.4,MacIntel,62.89308176,667186a182a98857032a4dae,68817205a84113384fffdfe3,6882525107787cb43f0102b0,,,,,,,,,,,,,1,,,,,,,,,,,,,,,,,,,,,,,,,,,,,,,,,,,,,62,flaco,,,,,297.23,298.6124,1,1,0.8526,,0,4,4,61,1,REAL,FAKE,,,,,,,,,,,,,,,,,
,,,,,,,,,667186a182a98857032a4dae,spanish,13 or older,"no, only English or Spanish",no,2025-07-24_11h34.23.848,empathy_intonation_perc_control,2024.2.4,MacIntel,62.89308176,667186a182a98857032a4dae,68817205a84113384fffdfe3,6882525107787cb43f0102b0,,,,,,,,,,,,,1,,,,,,,,,,,,,,,,,,,,,,,,,,,,,,,,,,,,,14,yunque,,,,,298.6132,300.1116,0,0,0.9695,,0,5,5,13,1,REAL,FAKE,,,,,,,,,,,,,,,,,
,,,,,,,,,667186a182a98857032a4dae,spanish,13 or older,"no, only English or Spanish",no,2025-07-24_11h34.23.848,empathy_intonation_perc_control,2024.2.4,MacIntel,62.89308176,667186a182a98857032a4dae,68817205a84113384fffdfe3,6882525107787cb43f0102b0,,,,,,,,,,,,,1,,,,,,,,,,,,,,,,,,,,,,,,,,,,,,,,,,,,,48,ladrón,,,,,300.1124,301.5954,1,1,0.962,,0,6,6,47,1,REAL,FAKE,,,,,,,,,,,,,,,,,
,,,,,,,,,667186a182a98857032a4dae,spanish,13 or older,"no, only English or Spanish",no,2025-07-24_11h34.23.848,empathy_intonation_perc_control,2024.2.4,MacIntel,62.89308176,667186a182a98857032a4dae,68817205a84113384fffdfe3,6882525107787cb43f0102b0,,,,,,,,,,,,,1,,,,,,,,,,,,,,,,,,,,,,,,,,,,,,,,,,,,,67,cabello,,,,,301.5964,303.0628,1,1,0.9442,,0,7,7,66,1,REAL,FAKE,,,,,,,,,,,,,,,,,
,,,,,,,,,667186a182a98857032a4dae,spanish,13 or older,"no, only English or Spanish",no,2025-07-24_11h34.23.848,empathy_intonation_perc_control,2024.2.4,MacIntel,62.89308176,667186a182a98857032a4dae,68817205a84113384fffdfe3,6882525107787cb43f0102b0,,,,,,,,,,,,,1,,,,,,,,,,,,,,,,,,,,,,,,,,,,,,,,,,,,,51,candado,,,,,303.0635,305.0128,1,1,1.4228,,0,8,8,50,1,REAL,FAKE,,,,,,,,,,,,,,,,,
,,,,,,,,,667186a182a98857032a4dae,spanish,13 or older,"no, only English or Spanish",no,2025-07-24_11h34.23.848,empathy_intonation_perc_control,2024.2.4,MacIntel,62.89308176,667186a182a98857032a4dae,68817205a84113384fffdfe3,6882525107787cb43f0102b0,,,,,,,,,,,,,1,,,,,,,,,,,,,,,,,,,,,,,,,,,,,,,,,,,,,20,ávido,,,,,305.0141,306.3623,1,1,0.8273,,0,9,9,19,1,REAL,FAKE,,,,,,,,,,,,,,,,,
,,,,,,,,,667186a182a98857032a4dae,spanish,13 or older,"no, only English or Spanish",no,2025-07-24_11h34.23.848,empathy_intonation_perc_control,2024.2.4,MacIntel,62.89308176,667186a182a98857032a4dae,68817205a84113384fffdfe3,6882525107787cb43f0102b0,,,,,,,,,,,,,1,,,,,,,,,,,,,,,,,,,,,,,,,,,,,,,,,,,,,44,cuchara,,,,,306.363,308.0301,1,1,1.1571,,0,10,10,43,1,REAL,FAKE,,,,,,,,,,,,,,,,,
,,,,,,,,,667186a182a98857032a4dae,spanish,13 or older,"no, only English or Spanish",no,2025-07-24_11h34.23.848,empathy_intonation_perc_control,2024.2.4,MacIntel,62.89308176,667186a182a98857032a4dae,68817205a84113384fffdfe3,6882525107787cb43f0102b0,,,,,,,,,,,,,0,,,,,,,,,,,,,,,,,,,,,,,,,,,,,,,,,,,,,32,fatacidad,,,,,308.0311,309.5969,0,1,1.0325,,0,11,11,31,1,REAL,FAKE,,,,,,,,,,,,,,,,,
,,,,,,,,,667186a182a98857032a4dae,spanish,13 or older,"no, only English or Spanish",no,2025-07-24_11h34.23.848,empathy_intonation_perc_control,2024.2.4,MacIntel,62.89308176,667186a182a98857032a4dae,68817205a84113384fffdfe3,6882525107787cb43f0102b0,,,,,,,,,,,,,1,,,,,,,,,,,,,,,,,,,,,,,,,,,,,,,,,,,,,15,regar,,,,,309.598,313.0467,1,1,2.9211,,0,12,12,14,1,REAL,FAKE,,,,,,,,,,,,,,,,,
,,,,,,,,,667186a182a98857032a4dae,spanish,13 or older,"no, only English or Spanish",no,2025-07-24_11h34.23.848,empathy_intonation_perc_control,2024.2.4,MacIntel,62.89308176,667186a182a98857032a4dae,68817205a84113384fffdfe3,6882525107787cb43f0102b0,,,,,,,,,,,,,1,,,,,,,,,,,,,,,,,,,,,,,,,,,,,,,,,,,,,24,látigo,,,,,313.0474,314.8971,1,1,1.3198,,0,13,13,23,1,REAL,FAKE,,,,,,,,,,,,,,,,,
,,,,,,,,,667186a182a98857032a4dae,spanish,13 or older,"no, only English or Spanish",no,2025-07-24_11h34.23.848,empathy_intonation_perc_control,2024.2.4,MacIntel,62.89308176,667186a182a98857032a4dae,68817205a84113384fffdfe3,6882525107787cb43f0102b0,,,,,,,,,,,,,1,,,,,,,,,,,,,,,,,,,,,,,,,,,,,,,,,,,,,60,matar,,,,,314.8979,316.6639,1,1,1.2371,,0,14,14,59,1,REAL,FAKE,,,,,,,,,,,,,,,,,
,,,,,,,,,667186a182a98857032a4dae,spanish,13 or older,"no, only English or Spanish",no,2025-07-24_11h34.23.848,empathy_intonation_perc_control,2024.2.4,MacIntel,62.89308176,667186a182a98857032a4dae,68817205a84113384fffdfe3,6882525107787cb43f0102b0,,,,,,,,,,,,,1,,,,,,,,,,,,,,,,,,,,,,,,,,,,,,,,,,,,,26,secuestro,,,,,316.6645,319.8975,1,1,2.7014,,0,15,15,25,1,REAL,FAKE,,,,,,,,,,,,,,,,,
,,,,,,,,,667186a182a98857032a4dae,spanish,13 or older,"no, only English or Spanish",no,2025-07-24_11h34.23.848,empathy_intonation_perc_control,2024.2.4,MacIntel,62.89308176,667186a182a98857032a4dae,68817205a84113384fffdfe3,6882525107787cb43f0102b0,,,,,,,,,,,,,1,,,,,,,,,,,,,,,,,,,,,,,,,,,,,,,,,,,,,11,cenefa,,,,,319.8982,321.1305,0,0,0.6942,,0,16,16,10,1,REAL,FAKE,,,,,,,,,,,,,,,,,
,,,,,,,,,667186a182a98857032a4dae,spanish,13 or older,"no, only English or Spanish",no,2025-07-24_11h34.23.848,empathy_intonation_perc_control,2024.2.4,MacIntel,62.89308176,667186a182a98857032a4dae,68817205a84113384fffdfe3,6882525107787cb43f0102b0,,,,,,,,,,,,,1,,,,,,,,,,,,,,,,,,,,,,,,,,,,,,,,,,,,,81,pozo,,,,,321.1315,322.6634,0,0,1.0194,,0,17,17,80,1,REAL,FAKE,,,,,,,,,,,,,,,,,
,,,,,,,,,667186a182a98857032a4dae,spanish,13 or older,"no, only English or Spanish",no,2025-07-24_11h34.23.848,empathy_intonation_perc_control,2024.2.4,MacIntel,62.89308176,667186a182a98857032a4dae,68817205a84113384fffdfe3,6882525107787cb43f0102b0,,,,,,,,,,,,,1,,,,,,,,,,,,,,,,,,,,,,,,,,,,,,,,,,,,,39,torpe,,,,,322.6639,324.4638,1,1,1.2852,,0,18,18,38,1,REAL,FAKE,,,,,,,,,,,,,,,,,
,,,,,,,,,667186a182a98857032a4dae,spanish,13 or older,"no, only English or Spanish",no,2025-07-24_11h34.23.848,empathy_intonation_perc_control,2024.2.4,MacIntel,62.89308176,667186a182a98857032a4dae,68817205a84113384fffdfe3,6882525107787cb43f0102b0,,,,,,,,,,,,,1,,,,,,,,,,,,,,,,,,,,,,,,,,,,,,,,,,,,,89,prisa,,,,,324.4646,326.4144,1,1,1.4364,,0,19,19,88,1,REAL,FAKE,,,,,,,,,,,,,,,,,
,,,,,,,,,667186a182a98857032a4dae,spanish,13 or older,"no, only English or Spanish",no,2025-07-24_11h34.23.848,empathy_intonation_perc_control,2024.2.4,MacIntel,62.89308176,667186a182a98857032a4dae,68817205a84113384fffdfe3,6882525107787cb43f0102b0,,,,,,,,,,,,,1,,,,,,,,,,,,,,,,,,,,,,,,,,,,,,,,,,,,,12,asesinato,,,,,326.4152,328.2303,0,0,1.2858,,0,20,20,11,1,REAL,FAKE,,,,,,,,,,,,,,,,,
,,,,,,,,,667186a182a98857032a4dae,spanish,13 or older,"no, only English or Spanish",no,2025-07-24_11h34.23.848,empathy_intonation_perc_control,2024.2.4,MacIntel,62.89308176,667186a182a98857032a4dae,68817205a84113384fffdfe3,6882525107787cb43f0102b0,,,,,,,,,,,,,0,,,,,,,,,,,,,,,,,,,,,,,,,,,,,,,,,,,,,92,click the 0 key.,,,,,328.2312,330.7151,0,1,1.9555,,0,21,21,91,1,REAL,FAKE,,,,,,,,,,,,,,,,,
,,,,,,,,,667186a182a98857032a4dae,spanish,13 or older,"no, only English or Spanish",no,2025-07-24_11h34.23.848,empathy_intonation_perc_control,2024.2.4,MacIntel,62.89308176,667186a182a98857032a4dae,68817205a84113384fffdfe3,6882525107787cb43f0102b0,,,,,,,,,,,,,0,,,,,,,,,,,,,,,,,,,,,,,,,,,,,,,,,,,,,42,cadallo,,,,,330.716,332.9646,0,1,1.7125,,0,22,22,41,1,REAL,FAKE,,,,,,,,,,,,,,,,,
,,,,,,,,,667186a182a98857032a4dae,spanish,13 or older,"no, only English or Spanish",no,2025-07-24_11h34.23.848,empathy_intonation_perc_control,2024.2.4,MacIntel,62.89308176,667186a182a98857032a4dae,68817205a84113384fffdfe3,6882525107787cb43f0102b0,,,,,,,,,,,,,0,,,,,,,,,,,,,,,,,,,,,,,,,,,,,,,,,,,,,8,cadeña,,,,,332.9653,334.3474,1,0,0.8688,,0,23,23,7,1,REAL,FAKE,,,,,,,,,,,,,,,,,
,,,,,,,,,667186a182a98857032a4dae,spanish,13 or older,"no, only English or Spanish",no,2025-07-24_11h34.23.848,empathy_intonation_perc_control,2024.2.4,MacIntel,62.89308176,667186a182a98857032a4dae,68817205a84113384fffdfe3,6882525107787cb43f0102b0,,,,,,,,,,,,,1,,,,,,,,,,,,,,,,,,,,,,,,,,,,,,,,,,,,,3,pulmones,,,,,334.3483,336.3818,0,0,1.5198,,0,24,24,2,1,REAL,FAKE,,,,,,,,,,,,,,,,,
,,,,,,,,,667186a182a98857032a4dae,spanish,13 or older,"no, only English or Spanish",no,2025-07-24_11h34.23.848,empathy_intonation_perc_control,2024.2.4,MacIntel,62.89308176,667186a182a98857032a4dae,68817205a84113384fffdfe3,6882525107787cb43f0102b0,,,,,,,,,,,,,1,,,,,,,,,,,,,,,,,,,,,,,,,,,,,,,,,,,,,46,martillo,,,,,336.3825,338.1486,1,1,1.2361,,0,25,25,45,1,REAL,FAKE,,,,,,,,,,,,,,,,,
,,,,,,,,,667186a182a98857032a4dae,spanish,13 or older,"no, only English or Spanish",no,2025-07-24_11h34.23.848,empathy_intonation_perc_control,2024.2.4,MacIntel,62.89308176,667186a182a98857032a4dae,68817205a84113384fffdfe3,6882525107787cb43f0102b0,,,,,,,,,,,,,1,,,,,,,,,,,,,,,,,,,,,,,,,,,,,,,,,,,,,2,pellizcar,,,,,338.1494,340.6154,0,0,1.937,,0,26,26,1,1,REAL,FAKE,,,,,,,,,,,,,,,,,
,,,,,,,,,667186a182a98857032a4dae,spanish,13 or older,"no, only English or Spanish",no,2025-07-24_11h34.23.848,empathy_intonation_perc_control,2024.2.4,MacIntel,62.89308176,667186a182a98857032a4dae,68817205a84113384fffdfe3,6882525107787cb43f0102b0,,,,,,,,,,,,,0,,,,,,,,,,,,,,,,,,,,,,,,,,,,,,,,,,,,,4,batillón,,,,,340.6163,342.2657,1,0,1.1152,,0,27,27,3,1,REAL,FAKE,,,,,,,,,,,,,,,,,
,,,,,,,,,667186a182a98857032a4dae,spanish,13 or older,"no, only English or Spanish",no,2025-07-24_11h34.23.848,empathy_intonation_perc_control,2024.2.4,MacIntel,62.89308176,667186a182a98857032a4dae,68817205a84113384fffdfe3,6882525107787cb43f0102b0,,,,,,,,,,,,,0,,,,,,,,,,,,,,,,,,,,,,,,,,,,,,,,,,,,,17,floroso,,,,,342.2666,343.9822,1,0,1.188,,0,28,28,16,1,REAL,FAKE,,,,,,,,,,,,,,,,,
,,,,,,,,,667186a182a98857032a4dae,spanish,13 or older,"no, only English or Spanish",no,2025-07-24_11h34.23.848,empathy_intonation_perc_control,2024.2.4,MacIntel,62.89308176,667186a182a98857032a4dae,68817205a84113384fffdfe3,6882525107787cb43f0102b0,,,,,,,,,,,,,0,,,,,,,,,,,,,,,,,,,,,,,,,,,,,,,,,,,,,58,plaudir,,,,,343.9829,345.6148,0,1,1.121,,0,29,29,57,1,REAL,FAKE,,,,,,,,,,,,,,,,,
,,,,,,,,,667186a182a98857032a4dae,spanish,13 or older,"no, only English or Spanish",no,2025-07-24_11h34.23.848,empathy_intonation_perc_control,2024.2.4,MacIntel,62.89308176,667186a182a98857032a4dae,68817205a84113384fffdfe3,6882525107787cb43f0102b0,,,,,,,,,,,,,0,,,,,,,,,,,,,,,,,,,,,,,,,,,,,,,,,,,,,27,acutación,,,,,345.6159,348.9993,1,0,2.8727,,0,30,30,26,1,REAL,FAKE,,,,,,,,,,,,,,,,,
,,,,,,,,,667186a182a98857032a4dae,spanish,13 or older,"no, only English or Spanish",no,2025-07-24_11h34.23.848,empathy_intonation_perc_control,2024.2.4,MacIntel,62.89308176,667186a182a98857032a4dae,68817205a84113384fffdfe3,6882525107787cb43f0102b0,,,,,,,,,,,,,1,,,,,,,,,,,,,,,,,,,,,,,,,,,,,,,,,,,,,54,fomentar,,,,,349.0004,350.7329,0,0,1.2,,0,31,31,53,1,REAL,FAKE,,,,,,,,,,,,,,,,,
,,,,,,,,,667186a182a98857032a4dae,spanish,13 or older,"no, only English or Spanish",no,2025-07-24_11h34.23.848,empathy_intonation_perc_control,2024.2.4,MacIntel,62.89308176,667186a182a98857032a4dae,68817205a84113384fffdfe3,6882525107787cb43f0102b0,,,,,,,,,,,,,1,,,,,,,,,,,,,,,,,,,,,,,,,,,,,,,,,,,,,56,musgo,,,,,350.7338,351.9995,0,0,0.7366,,0,32,32,55,1,REAL,FAKE,,,,,,,,,,,,,,,,,
,,,,,,,,,667186a182a98857032a4dae,spanish,13 or older,"no, only English or Spanish",no,2025-07-24_11h34.23.848,empathy_intonation_perc_control,2024.2.4,MacIntel,62.89308176,667186a182a98857032a4dae,68817205a84113384fffdfe3,6882525107787cb43f0102b0,,,,,,,,,,,,,1,,,,,,,,,,,,,,,,,,,,,,,,,,,,,,,,,,,,,75,yacer,,,,,352.0003,353.2331,0,0,0.7021,,0,33,33,74,1,REAL,FAKE,,,,,,,,,,,,,,,,,
,,,,,,,,,667186a182a98857032a4dae,spanish,13 or older,"no, only English or Spanish",no,2025-07-24_11h34.23.848,empathy_intonation_perc_control,2024.2.4,MacIntel,62.89308176,667186a182a98857032a4dae,68817205a84113384fffdfe3,6882525107787cb43f0102b0,,,,,,,,,,,,,1,,,,,,,,,,,,,,,,,,,,,,,,,,,,,,,,,,,,,34,aviso,,,,,353.2339,355.45,1,1,1.6844,,0,34,34,33,1,REAL,FAKE,,,,,,,,,,,,,,,,,
,,,,,,,,,667186a182a98857032a4dae,spanish,13 or older,"no, only English or Spanish",no,2025-07-24_11h34.23.848,empathy_intonation_perc_control,2024.2.4,MacIntel,62.89308176,667186a182a98857032a4dae,68817205a84113384fffdfe3,6882525107787cb43f0102b0,,,,,,,,,,,,,0,,,,,,,,,,,,,,,,,,,,,,,,,,,,,,,,,,,,,16,abracer,,,,,355.4508,357.0665,0,1,1.0785,,0,35,35,15,1,REAL,FAKE,,,,,,,,,,,,,,,,,
,,,,,,,,,667186a182a98857032a4dae,spanish,13 or older,"no, only English or Spanish",no,2025-07-24_11h34.23.848,empathy_intonation_perc_control,2024.2.4,MacIntel,62.89308176,667186a182a98857032a4dae,68817205a84113384fffdfe3,6882525107787cb43f0102b0,,,,,,,,,,,,,1,,,,,,,,,,,,,,,,,,,,,,,,,,,,,,,,,,,,,86,barato,,,,,357.0675,358.6329,1,1,1.0299,,0,36,36,85,1,REAL,FAKE,,,,,,,,,,,,,,,,,
,,,,,,,,,667186a182a98857032a4dae,spanish,13 or older,"no, only English or Spanish",no,2025-07-24_11h34.23.848,empathy_intonation_perc_control,2024.2.4,MacIntel,62.89308176,667186a182a98857032a4dae,68817205a84113384fffdfe3,6882525107787cb43f0102b0,,,,,,,,,,,,,0,,,,,,,,,,,,,,,,,,,,,,,,,,,,,,,,,,,,,47,cartinar,,,,,358.634,360.3992,0,1,1.2334,,0,37,37,46,1,REAL,FAKE,,,,,,,,,,,,,,,,,
,,,,,,,,,667186a182a98857032a4dae,spanish,13 or older,"no, only English or Spanish",no,2025-07-24_11h34.23.848,empathy_intonation_perc_control,2024.2.4,MacIntel,62.89308176,667186a182a98857032a4dae,68817205a84113384fffdfe3,6882525107787cb43f0102b0,,,,,,,,,,,,,0,,,,,,,,,,,,,,,,,,,,,,,,,,,,,,,,,,,,,70,temblo,,,,,360.4002,362.5993,0,1,1.6864,,0,38,38,69,1,REAL,FAKE,,,,,,,,,,,,,,,,,
,,,,,,,,,667186a182a98857032a4dae,spanish,13 or older,"no, only English or Spanish",no,2025-07-24_11h34.23.848,empathy_intonation_perc_control,2024.2.4,MacIntel,62.89308176,667186a182a98857032a4dae,68817205a84113384fffdfe3,6882525107787cb43f0102b0,,,,,,,,,,,,,0,,,,,,,,,,,,,,,,,,,,,,,,,,,,,,,,,,,,,87,grodo,,,,,362.5999,363.7997,0,1,0.6866,,0,39,39,86,1,REAL,FAKE,,,,,,,,,,,,,,,,,
,,,,,,,,,667186a182a98857032a4dae,spanish,13 or older,"no, only English or Spanish",no,2025-07-24_11h34.23.848,empathy_intonation_perc_control,2024.2.4,MacIntel,62.89308176,667186a182a98857032a4dae,68817205a84113384fffdfe3,6882525107787cb43f0102b0,,,,,,,,,,,,,1,,,,,,,,,,,,,,,,,,,,,,,,,,,,,,,,,,,,,40,alfombra,,,,,363.8006,365.2174,0,0,0.8993,,0,40,40,39,1,REAL,FAKE,,,,,,,,,,,,,,,,,
,,,,,,,,,667186a182a98857032a4dae,spanish,13 or older,"no, only English or Spanish",no,2025-07-24_11h34.23.848,empathy_intonation_perc_control,2024.2.4,MacIntel,62.89308176,667186a182a98857032a4dae,68817205a84113384fffdfe3,6882525107787cb43f0102b0,,,,,,,,,,,,,1,,,,,,,,,,,,,,,,,,,,,,,,,,,,,,,,,,,,,83,guante,,,,,365.2184,366.9674,1,1,1.2194,,0,41,41,82,1,REAL,FAKE,,,,,,,,,,,,,,,,,
,,,,,,,,,667186a182a98857032a4dae,spanish,13 or older,"no, only English or Spanish",no,2025-07-24_11h34.23.848,empathy_intonation_perc_control,2024.2.4,MacIntel,62.89308176,667186a182a98857032a4dae,68817205a84113384fffdfe3,6882525107787cb43f0102b0,,,,,,,,,,,,,1,,,,,,,,,,,,,,,,,,,,,,,,,,,,,,,,,,,,,7,pésimo,,,,,366.9682,368.6999,0,0,1.2033,,0,42,42,6,1,REAL,FAKE,,,,,,,,,,,,,,,,,
,,,,,,,,,667186a182a98857032a4dae,spanish,13 or older,"no, only English or Spanish",no,2025-07-24_11h34.23.848,empathy_intonation_perc_control,2024.2.4,MacIntel,62.89308176,667186a182a98857032a4dae,68817205a84113384fffdfe3,6882525107787cb43f0102b0,,,,,,,,,,,,,1,,,,,,,,,,,,,,,,,,,,,,,,,,,,,,,,,,,,,22,lacayo,,,,,368.7007,370.067,0,0,0.8393,,0,43,43,21,1,REAL,FAKE,,,,,,,,,,,,,,,,,
,,,,,,,,,667186a182a98857032a4dae,spanish,13 or older,"no, only English or Spanish",no,2025-07-24_11h34.23.848,empathy_intonation_perc_control,2024.2.4,MacIntel,62.89308176,667186a182a98857032a4dae,68817205a84113384fffdfe3,6882525107787cb43f0102b0,,,,,,,,,,,,,1,,,,,,,,,,,,,,,,,,,,,,,,,,,,,,,,,,,,,38,estornudar,,,,,370.0679,371.7677,0,0,1.1856,,0,44,44,37,1,REAL,FAKE,,,,,,,,,,,,,,,,,
,,,,,,,,,667186a182a98857032a4dae,spanish,13 or older,"no, only English or Spanish",no,2025-07-24_11h34.23.848,empathy_intonation_perc_control,2024.2.4,MacIntel,62.89308176,667186a182a98857032a4dae,68817205a84113384fffdfe3,6882525107787cb43f0102b0,,,,,,,,,,,,,0,,,,,,,,,,,,,,,,,,,,,,,,,,,,,,,,,,,,,63,esposante,,,,,371.7683,373.4677,1,0,1.1624,,0,45,45,62,1,REAL,FAKE,,,,,,,,,,,,,,,,,
,,,,,,,,,667186a182a98857032a4dae,spanish,13 or older,"no, only English or Spanish",no,2025-07-24_11h34.23.848,empathy_intonation_perc_control,2024.2.4,MacIntel,62.89308176,667186a182a98857032a4dae,68817205a84113384fffdfe3,6882525107787cb43f0102b0,,,,,,,,,,,,,0,,,,,,,,,,,,,,,,,,,,,,,,,,,,,,,,,,,,,19,brecedad,,,,,373.4682,374.8679,0,1,0.8729,,0,46,46,18,1,REAL,FAKE,,,,,,,,,,,,,,,,,
,,,,,,,,,667186a182a98857032a4dae,spanish,13 or older,"no, only English or Spanish",no,2025-07-24_11h34.23.848,empathy_intonation_perc_control,2024.2.4,MacIntel,62.89308176,667186a182a98857032a4dae,68817205a84113384fffdfe3,6882525107787cb43f0102b0,,,,,,,,,,,,,1,,,,,,,,,,,,,,,,,,,,,,,,,,,,,,,,,,,,,28,merodear,,,,,374.869,376.5836,0,0,1.188,,0,47,47,27,1,REAL,FAKE,,,,,,,,,,,,,,,,,
,,,,,,,,,667186a182a98857032a4dae,spanish,13 or older,"no, only English or Spanish",no,2025-07-24_11h34.23.848,empathy_intonation_perc_control,2024.2.4,MacIntel,62.89308176,667186a182a98857032a4dae,68817205a84113384fffdfe3,6882525107787cb43f0102b0,,,,,,,,,,,,,1,,,,,,,,,,,,,,,,,,,,,,,,,,,,,,,,,,,,,55,nevar,,,,,376.5845,378.2849,1,1,1.1805,,0,48,48,54,1,REAL,FAKE,,,,,,,,,,,,,,,,,
,,,,,,,,,667186a182a98857032a4dae,spanish,13 or older,"no, only English or Spanish",no,2025-07-24_11h34.23.848,empathy_intonation_perc_control,2024.2.4,MacIntel,62.89308176,667186a182a98857032a4dae,68817205a84113384fffdfe3,6882525107787cb43f0102b0,,,,,,,,,,,,,0,,,,,,,,,,,,,,,,,,,,,,,,,,,,,,,,,,,,,53,vegada,,,,,378.2859,380.285,1,0,1.4669,,0,49,49,52,1,REAL,FAKE,,,,,,,,,,,,,,,,,
,,,,,,,,,667186a182a98857032a4dae,spanish,13 or older,"no, only English or Spanish",no,2025-07-24_11h34.23.848,empathy_intonation_perc_control,2024.2.4,MacIntel,62.89308176,667186a182a98857032a4dae,68817205a84113384fffdfe3,6882525107787cb43f0102b0,,,,,,,,,,,,,1,,,,,,,,,,,,,,,,,,,,,,,,,,,,,,,,,,,,,77,tiburón,,,,,380.2859,382.8181,1,1,2.0057,,0,50,50,76,1,REAL,FAKE,,,,,,,,,,,,,,,,,
,,,,,,,,,667186a182a98857032a4dae,spanish,13 or older,"no, only English or Spanish",no,2025-07-24_11h34.23.848,empathy_intonation_perc_control,2024.2.4,MacIntel,62.89308176,667186a182a98857032a4dae,68817205a84113384fffdfe3,6882525107787cb43f0102b0,,,,,,,,,,,,,0,,,,,,,,,,,,,,,,,,,,,,,,,,,,,,,,,,,,,18,arsa,,,,,382.8191,384.0018,0,1,0.6663,,0,51,51,17,1,REAL,FAKE,,,,,,,,,,,,,,,,,
,,,,,,,,,667186a182a98857032a4dae,spanish,13 or older,"no, only English or Spanish",no,2025-07-24_11h34.23.848,empathy_intonation_perc_control,2024.2.4,MacIntel,62.89308176,667186a182a98857032a4dae,68817205a84113384fffdfe3,6882525107787cb43f0102b0,,,,,,,,,,,,,1,,,,,,,,,,,,,,,,,,,,,,,,,,,,,,,,,,,,,36,loro,,,,,384.0024,385.4685,0,0,0.9392,,0,52,52,35,1,REAL,FAKE,,,,,,,,,,,,,,,,,
,,,,,,,,,667186a182a98857032a4dae,spanish,13 or older,"no, only English or Spanish",no,2025-07-24_11h34.23.848,empathy_intonation_perc_control,2024.2.4,MacIntel,62.89308176,667186a182a98857032a4dae,68817205a84113384fffdfe3,6882525107787cb43f0102b0,,,,,,,,,,,,,0,,,,,,,,,,,,,,,,,,,,,,,,,,,,,,,,,,,,,30,alardio,,,,,385.4694,387.1679,0,1,1.1659,,0,53,53,29,1,REAL,FAKE,,,,,,,,,,,,,,,,,
,,,,,,,,,667186a182a98857032a4dae,spanish,13 or older,"no, only English or Spanish",no,2025-07-24_11h34.23.848,empathy_intonation_perc_control,2024.2.4,MacIntel,62.89308176,667186a182a98857032a4dae,68817205a84113384fffdfe3,6882525107787cb43f0102b0,,,,,,,,,,,,,1,,,,,,,,,,,,,,,,,,,,,,,,,,,,,,,,,,,,,88,acantilado,,,,,387.1687,389.4185,0,0,1.7281,,0,54,54,87,1,REAL,FAKE,,,,,,,,,,,,,,,,,
,,,,,,,,,667186a182a98857032a4dae,spanish,13 or older,"no, only English or Spanish",no,2025-07-24_11h34.23.848,empathy_intonation_perc_control,2024.2.4,MacIntel,62.89308176,667186a182a98857032a4dae,68817205a84113384fffdfe3,6882525107787cb43f0102b0,,,,,,,,,,,,,1,,,,,,,,,,,,,,,,,,,,,,,,,,,,,,,,,,,,,73,hervidor,,,,,389.4195,391.6692,1,1,1.7298,,0,55,55,72,1,REAL,FAKE,,,,,,,,,,,,,,,,,
,,,,,,,,,667186a182a98857032a4dae,spanish,13 or older,"no, only English or Spanish",no,2025-07-24_11h34.23.848,empathy_intonation_perc_control,2024.2.4,MacIntel,62.89308176,667186a182a98857032a4dae,68817205a84113384fffdfe3,6882525107787cb43f0102b0,,,,,,,,,,,,,1,,,,,,,,,,,,,,,,,,,,,,,,,,,,,,,,,,,,,31,pandilla,,,,,391.6702,393.7526,1,1,1.5565,,0,56,56,30,1,REAL,FAKE,,,,,,,,,,,,,,,,,
,,,,,,,,,667186a182a98857032a4dae,spanish,13 or older,"no, only English or Spanish",no,2025-07-24_11h34.23.848,empathy_intonation_perc_control,2024.2.4,MacIntel,62.89308176,667186a182a98857032a4dae,68817205a84113384fffdfe3,6882525107787cb43f0102b0,,,,,,,,,,,,,0,,,,,,,,,,,,,,,,,,,,,,,,,,,,,,,,,,,,,79,tropaje,,,,,393.7535,395.6528,0,1,1.3633,,0,57,57,78,1,REAL,FAKE,,,,,,,,,,,,,,,,,
,,,,,,,,,667186a182a98857032a4dae,spanish,13 or older,"no, only English or Spanish",no,2025-07-24_11h34.23.848,empathy_intonation_perc_control,2024.2.4,MacIntel,62.89308176,667186a182a98857032a4dae,68817205a84113384fffdfe3,6882525107787cb43f0102b0,,,,,,,,,,,,,1,,,,,,,,,,,,,,,,,,,,,,,,,,,,,,,,,,,,,76,atar,,,,,395.6538,397.5522,0,0,1.3721,,0,58,58,75,1,REAL,FAKE,,,,,,,,,,,,,,,,,
,,,,,,,,,667186a182a98857032a4dae,spanish,13 or older,"no, only English or Spanish",no,2025-07-24_11h34.23.848,empathy_intonation_perc_control,2024.2.4,MacIntel,62.89308176,667186a182a98857032a4dae,68817205a84113384fffdfe3,6882525107787cb43f0102b0,,,,,,,,,,,,,1,,,,,,,,,,,,,,,,,,,,,,,,,,,,,,,,,,,,,49,ganar,,,,,397.5531,398.7864,0,0,0.7138,,0,59,59,48,1,REAL,FAKE,,,,,,,,,,,,,,,,,
,,,,,,,,,667186a182a98857032a4dae,spanish,13 or older,"no, only English or Spanish",no,2025-07-24_11h34.23.848,empathy_intonation_perc_control,2024.2.4,MacIntel,62.89308176,667186a182a98857032a4dae,68817205a84113384fffdfe3,6882525107787cb43f0102b0,,,,,,,,,,,,,1,,,,,,,,,,,,,,,,,,,,,,,,,,,,,,,,,,,,,85,laúd,,,,,398.7875,400.8196,1,1,1.5037,,0,60,60,84,1,REAL,FAKE,,,,,,,,,,,,,,,,,
,,,,,,,,,667186a182a98857032a4dae,spanish,13 or older,"no, only English or Spanish",no,2025-07-24_11h34.23.848,empathy_intonation_perc_control,2024.2.4,MacIntel,62.89308176,667186a182a98857032a4dae,68817205a84113384fffdfe3,6882525107787cb43f0102b0,,,,,,,,,,,,,0,,,,,,,,,,,,,,,,,,,,,,,,,,,,,,,,,,,,,50,flamida,,,,,400.8204,402.4026,0,1,1.0544,,0,61,61,49,1,REAL,FAKE,,,,,,,,,,,,,,,,,
,,,,,,,,,667186a182a98857032a4dae,spanish,13 or older,"no, only English or Spanish",no,2025-07-24_11h34.23.848,empathy_intonation_perc_control,2024.2.4,MacIntel,62.89308176,667186a182a98857032a4dae,68817205a84113384fffdfe3,6882525107787cb43f0102b0,,,,,,,,,,,,,1,,,,,,,,,,,,,,,,,,,,,,,,,,,,,,,,,,,,,57,tacaño,,,,,402.4034,404.0526,1,1,1.1223,,0,62,62,56,1,REAL,FAKE,,,,,,,,,,,,,,,,,
,,,,,,,,,667186a182a98857032a4dae,spanish,13 or older,"no, only English or Spanish",no,2025-07-24_11h34.23.848,empathy_intonation_perc_control,2024.2.4,MacIntel,62.89308176,667186a182a98857032a4dae,68817205a84113384fffdfe3,6882525107787cb43f0102b0,,,,,,,,,,,,,1,,,,,,,,,,,,,,,,,,,,,,,,,,,,,,,,,,,,,9,hacha,,,,,404.0534,405.3035,0,0,0.7281,,0,63,63,8,1,REAL,FAKE,,,,,,,,,,,,,,,,,
,,,,,,,,,667186a182a98857032a4dae,spanish,13 or older,"no, only English or Spanish",no,2025-07-24_11h34.23.848,empathy_intonation_perc_control,2024.2.4,MacIntel,62.89308176,667186a182a98857032a4dae,68817205a84113384fffdfe3,6882525107787cb43f0102b0,,,,,,,,,,,,,0,,,,,,,,,,,,,,,,,,,,,,,,,,,,,,,,,,,,,66,hacido,,,,,405.3045,406.9191,1,0,1.0886,,0,64,64,65,1,REAL,FAKE,,,,,,,,,,,,,,,,,
,,,,,,,,,667186a182a98857032a4dae,spanish,13 or older,"no, only English or Spanish",no,2025-07-24_11h34.23.848,empathy_intonation_perc_control,2024.2.4,MacIntel,62.89308176,667186a182a98857032a4dae,68817205a84113384fffdfe3,6882525107787cb43f0102b0,,,,,,,,,,,,,1,,,,,,,,,,,,,,,,,,,,,,,,,,,,,,,,,,,,,13,helar,,,,,406.9204,408.3199,0,0,0.8856,,0,65,65,12,1,REAL,FAKE,,,,,,,,,,,,,,,,,
,,,,,,,,,667186a182a98857032a4dae,spanish,13 or older,"no, only English or Spanish",no,2025-07-24_11h34.23.848,empathy_intonation_perc_control,2024.2.4,MacIntel,62.89308176,667186a182a98857032a4dae,68817205a84113384fffdfe3,6882525107787cb43f0102b0,,,,,,,,,,,,,1,,,,,,,,,,,,,,,,,,,,,,,,,,,,,,,,,,,,,45,jilguero,,,,,408.3208,409.9194,0,0,1.0712,,0,66,66,44,1,REAL,FAKE,,,,,,,,,,,,,,,,,
,,,,,,,,,667186a182a98857032a4dae,spanish,13 or older,"no, only English or Spanish",no,2025-07-24_11h34.23.848,empathy_intonation_perc_control,2024.2.4,MacIntel,62.89308176,667186a182a98857032a4dae,68817205a84113384fffdfe3,6882525107787cb43f0102b0,,,,,,,,,,,,,0,,,,,,,,,,,,,,,,,,,,,,,,,,,,,,,,,,,,,33,pauca,,,,,409.9204,411.1538,0,1,0.7117,,0,67,67,32,1,REAL,FAKE,,,,,,,,,,,,,,,,,
,,,,,,,,,667186a182a98857032a4dae,spanish,13 or older,"no, only English or Spanish",no,2025-07-24_11h34.23.848,empathy_intonation_perc_control,2024.2.4,MacIntel,62.89308176,667186a182a98857032a4dae,68817205a84113384fffdfe3,6882525107787cb43f0102b0,,,,,,,,,,,,,0,,,,,,,,,,,,,,,,,,,,,,,,,,,,,,,,,,,,,35,rompido,,,,,411.1548,412.8363,0,1,1.1526,,0,68,68,34,1,REAL,FAKE,,,,,,,,,,,,,,,,,
,,,,,,,,,667186a182a98857032a4dae,spanish,13 or older,"no, only English or Spanish",no,2025-07-24_11h34.23.848,empathy_intonation_perc_control,2024.2.4,MacIntel,62.89308176,667186a182a98857032a4dae,68817205a84113384fffdfe3,6882525107787cb43f0102b0,,,,,,,,,,,,,1,,,,,,,,,,,,,,,,,,,,,,,,,,,,,,,,,,,,,68,alegre,,,,,412.8369,414.3706,1,1,1.019,,0,69,69,67,1,REAL,FAKE,,,,,,,,,,,,,,,,,
,,,,,,,,,667186a182a98857032a4dae,spanish,13 or older,"no, only English or Spanish",no,2025-07-24_11h34.23.848,empathy_intonation_perc_control,2024.2.4,MacIntel,62.89308176,667186a182a98857032a4dae,68817205a84113384fffdfe3,6882525107787cb43f0102b0,,,,,,,,,,,,,0,,,,,,,,,,,,,,,,,,,,,,,,,,,,,,,,,,,,,29,decar,,,,,414.3714,415.8364,0,1,0.9366,,0,70,70,28,1,REAL,FAKE,,,,,,,,,,,,,,,,,
,,,,,,,,,667186a182a98857032a4dae,spanish,13 or older,"no, only English or Spanish",no,2025-07-24_11h34.23.848,empathy_intonation_perc_control,2024.2.4,MacIntel,62.89308176,667186a182a98857032a4dae,68817205a84113384fffdfe3,6882525107787cb43f0102b0,,,,,,,,,,,,,1,,,,,,,,,,,,,,,,,,,,,,,,,,,,,,,,,,,,,43,canela,,,,,415.8371,417.3371,1,1,0.9903,,0,71,71,42,1,REAL,FAKE,,,,,,,,,,,,,,,,,
,,,,,,,,,667186a182a98857032a4dae,spanish,13 or older,"no, only English or Spanish",no,2025-07-24_11h34.23.848,empathy_intonation_perc_control,2024.2.4,MacIntel,62.89308176,667186a182a98857032a4dae,68817205a84113384fffdfe3,6882525107787cb43f0102b0,,,,,,,,,,,,,1,,,,,,,,,,,,,,,,,,,,,,,,,,,,,,,,,,,,,41,rebuscar,,,,,417.3378,418.6868,0,0,0.8404,,0,72,72,40,1,REAL,FAKE,,,,,,,,,,,,,,,,,
,,,,,,,,,667186a182a98857032a4dae,spanish,13 or older,"no, only English or Spanish",no,2025-07-24_11h34.23.848,empathy_intonation_perc_control,2024.2.4,MacIntel,62.89308176,667186a182a98857032a4dae,68817205a84113384fffdfe3,6882525107787cb43f0102b0,,,,,,,,,,,,,1,,,,,,,,,,,,,,,,,,,,,,,,,,,,,,,,,,,,,37,granuja,,,,,418.6879,420.188,0,0,0.9902,,0,73,73,36,1,REAL,FAKE,,,,,,,,,,,,,,,,,
,,,,,,,,,667186a182a98857032a4dae,spanish,13 or older,"no, only English or Spanish",no,2025-07-24_11h34.23.848,empathy_intonation_perc_control,2024.2.4,MacIntel,62.89308176,667186a182a98857032a4dae,68817205a84113384fffdfe3,6882525107787cb43f0102b0,,,,,,,,,,,,,1,,,,,,,,,,,,,,,,,,,,,,,,,,,,,,,,,,,,,90,clavel,,,,,420.1893,421.4545,0,0,0.7367,,0,74,74,89,1,REAL,FAKE,,,,,,,,,,,,,,,,,
,,,,,,,,,667186a182a98857032a4dae,spanish,13 or older,"no, only English or Spanish",no,2025-07-24_11h34.23.848,empathy_intonation_perc_control,2024.2.4,MacIntel,62.89308176,667186a182a98857032a4dae,68817205a84113384fffdfe3,6882525107787cb43f0102b0,,,,,,,,,,,,,0,,,,,,,,,,,,,,,,,,,,,,,,,,,,,,,,,,,,,72,pemición,,,,,421.4552,423.3537,1,0,1.3719,,0,75,75,71,1,REAL,FAKE,,,,,,,,,,,,,,,,,
,,,,,,,,,667186a182a98857032a4dae,spanish,13 or older,"no, only English or Spanish",no,2025-07-24_11h34.23.848,empathy_intonation_perc_control,2024.2.4,MacIntel,62.89308176,667186a182a98857032a4dae,68817205a84113384fffdfe3,6882525107787cb43f0102b0,,,,,,,,,,,,,1,,,,,,,,,,,,,,,,,,,,,,,,,,,,,,,,,,,,,78,frondoso,,,,,423.3545,424.6881,0,0,0.8132,,0,76,76,77,1,REAL,FAKE,,,,,,,,,,,,,,,,,
,,,,,,,,,667186a182a98857032a4dae,spanish,13 or older,"no, only English or Spanish",no,2025-07-24_11h34.23.848,empathy_intonation_perc_control,2024.2.4,MacIntel,62.89308176,667186a182a98857032a4dae,68817205a84113384fffdfe3,6882525107787cb43f0102b0,,,,,,,,,,,,,1,,,,,,,,,,,,,,,,,,,,,,,,,,,,,,,,,,,,,52,camisa,,,,,424.6891,426.0716,0,0,0.845,,0,77,77,51,1,REAL,FAKE,,,,,,,,,,,,,,,,,
,,,,,,,,,667186a182a98857032a4dae,spanish,13 or older,"no, only English or Spanish",no,2025-07-24_11h34.23.848,empathy_intonation_perc_control,2024.2.4,MacIntel,62.89308176,667186a182a98857032a4dae,68817205a84113384fffdfe3,6882525107787cb43f0102b0,,,,,,,,,,,,,0,,,,,,,,,,,,,,,,,,,,,,,,,,,,,,,,,,,,,23,lampera,,,,,426.0726,428.0709,1,0,1.4697,,0,78,78,22,1,REAL,FAKE,,,,,,,,,,,,,,,,,
,,,,,,,,,667186a182a98857032a4dae,spanish,13 or older,"no, only English or Spanish",no,2025-07-24_11h34.23.848,empathy_intonation_perc_control,2024.2.4,MacIntel,62.89308176,667186a182a98857032a4dae,68817205a84113384fffdfe3,6882525107787cb43f0102b0,,,,,,,,,,,,,1,,,,,,,,,,,,,,,,,,,,,,,,,,,,,,,,,,,,,91,click the 1 key.,,,,,428.0718,429.6715,1,1,1.0857,,0,79,79,90,1,REAL,FAKE,,,,,,,,,,,,,,,,,
,,,,,,,,,667186a182a98857032a4dae,spanish,13 or older,"no, only English or Spanish",no,2025-07-24_11h34.23.848,empathy_intonation_perc_control,2024.2.4,MacIntel,62.89308176,667186a182a98857032a4dae,68817205a84113384fffdfe3,6882525107787cb43f0102b0,,,,,,,,,,,,,1,,,,,,,,,,,,,,,,,,,,,,,,,,,,,,,,,,,,,6,tergiversar,,,,,429.6726,431.2553,0,0,1.0457,,0,80,80,5,1,REAL,FAKE,,,,,,,,,,,,,,,,,
,,,,,,,,,667186a182a98857032a4dae,spanish,13 or older,"no, only English or Spanish",no,2025-07-24_11h34.23.848,empathy_intonation_perc_control,2024.2.4,MacIntel,62.89308176,667186a182a98857032a4dae,68817205a84113384fffdfe3,6882525107787cb43f0102b0,,,,,,,,,,,,,1,,,,,,,,,,,,,,,,,,,,,,,,,,,,,,,,,,,,,69,engatusar,,,,,431.2563,432.5708,0,0,0.7858,,0,81,81,68,1,REAL,FAKE,,,,,,,,,,,,,,,,,
,,,,,,,,,667186a182a98857032a4dae,spanish,13 or older,"no, only English or Spanish",no,2025-07-24_11h34.23.848,empathy_intonation_perc_control,2024.2.4,MacIntel,62.89308176,667186a182a98857032a4dae,68817205a84113384fffdfe3,6882525107787cb43f0102b0,,,,,,,,,,,,,1,,,,,,,,,,,,,,,,,,,,,,,,,,,,,,,,,,,,,64,orgulloso,,,,,432.5714,434.9222,0,0,1.8402,,0,82,82,63,1,REAL,FAKE,,,,,,,,,,,,,,,,,
,,,,,,,,,667186a182a98857032a4dae,spanish,13 or older,"no, only English or Spanish",no,2025-07-24_11h34.23.848,empathy_intonation_perc_control,2024.2.4,MacIntel,62.89308176,667186a182a98857032a4dae,68817205a84113384fffdfe3,6882525107787cb43f0102b0,,,,,,,,,,,,,0,,,,,,,,,,,,,,,,,,,,,,,,,,,,,,,,,,,,,74,cintro,,,,,434.9236,436.2222,1,0,0.7657,,0,83,83,73,1,REAL,FAKE,,,,,,,,,,,,,,,,,
,,,,,,,,,667186a182a98857032a4dae,spanish,13 or older,"no, only English or Spanish",no,2025-07-24_11h34.23.848,empathy_intonation_perc_control,2024.2.4,MacIntel,62.89308176,667186a182a98857032a4dae,68817205a84113384fffdfe3,6882525107787cb43f0102b0,,,,,,,,,,,,,0,,,,,,,,,,,,,,,,,,,,,,,,,,,,,,,,,,,,,21,capillo,,,,,436.2231,438.172,0,1,1.4198,,0,84,84,20,1,REAL,FAKE,,,,,,,,,,,,,,,,,
,,,,,,,,,667186a182a98857032a4dae,spanish,13 or older,"no, only English or Spanish",no,2025-07-24_11h34.23.848,empathy_intonation_perc_control,2024.2.4,MacIntel,62.89308176,667186a182a98857032a4dae,68817205a84113384fffdfe3,6882525107787cb43f0102b0,,,,,,,,,,,,,0,,,,,,,,,,,,,,,,,,,,,,,,,,,,,,,,,,,,,10,antar,,,,,438.1728,439.9725,1,0,1.2628,,0,85,85,9,1,REAL,FAKE,,,,,,,,,,,,,,,,,
,,,,,,,,,667186a182a98857032a4dae,spanish,13 or older,"no, only English or Spanish",no,2025-07-24_11h34.23.848,empathy_intonation_perc_control,2024.2.4,MacIntel,62.89308176,667186a182a98857032a4dae,68817205a84113384fffdfe3,6882525107787cb43f0102b0,,,,,,,,,,,,,1,,,,,,,,,,,,,,,,,,,,,,,,,,,,,,,,,,,,,80,hormiga,,,,,439.9736,441.1226,0,0,0.6163,,0,86,86,79,1,REAL,FAKE,,,,,,,,,,,,,,,,,
,,,,,,,,,667186a182a98857032a4dae,spanish,13 or older,"no, only English or Spanish",no,2025-07-24_11h34.23.848,empathy_intonation_perc_control,2024.2.4,MacIntel,62.89308176,667186a182a98857032a4dae,68817205a84113384fffdfe3,6882525107787cb43f0102b0,,,,,,,,,,,,,1,,,,,,,,,,,,,,,,,,,,,,,,,,,,,,,,,,,,,5,zapato,,,,,441.1236,442.8727,0,0,1.2184,,0,87,87,4,1,REAL,FAKE,,,,,,,,,,,,,,,,,
,,,,,,,,,667186a182a98857032a4dae,spanish,13 or older,"no, only English or Spanish",no,2025-07-24_11h34.23.848,empathy_intonation_perc_control,2024.2.4,MacIntel,62.89308176,667186a182a98857032a4dae,68817205a84113384fffdfe3,6882525107787cb43f0102b0,,,,,,,,,,,,,1,,,,,,,,,,,,,,,,,,,,,,,,,,,,,,,,,,,,,61,seda,,,,,442.8734,444.2394,0,0,0.835,,0,88,88,60,1,REAL,FAKE,,,,,,,,,,,,,,,,,
,,,,,,,,,667186a182a98857032a4dae,spanish,13 or older,"no, only English or Spanish",no,2025-07-24_11h34.23.848,empathy_intonation_perc_control,2024.2.4,MacIntel,62.89308176,667186a182a98857032a4dae,68817205a84113384fffdfe3,6882525107787cb43f0102b0,,,,,,,,,,,,,1,,,,,,,,,,,,,,,,,,,,,,,,,,,,,,,,,,,,,25,bisagra,,,,,444.2402,445.7389,0,0,0.9723,,0,89,89,24,1,REAL,FAKE,,,,,,,,,,,,,,,,,
,,,,,,,,,667186a182a98857032a4dae,spanish,13 or older,"no, only English or Spanish",no,2025-07-24_11h34.23.848,empathy_intonation_perc_control,2024.2.4,MacIntel,62.89308176,667186a182a98857032a4dae,68817205a84113384fffdfe3,6882525107787cb43f0102b0,,,,,,,,,,,,,1,,,,,,,,,,,,,,,,,,,,,,,,,,,,,,,,,,,,,59,besar,,,,,445.7398,447.4895,0,0,1.2349,,0,90,90,58,1,REAL,FAKE,,,,,,,,,,,,,,,,,
,,,,,,,,,667186a182a98857032a4dae,spanish,13 or older,"no, only English or Spanish",no,2025-07-24_11h34.23.848,empathy_intonation_perc_control,2024.2.4,MacIntel,62.89308176,667186a182a98857032a4dae,68817205a84113384fffdfe3,6882525107787cb43f0102b0,,,,,,,,,,,,,1,,,,,,,,,,,,,,,,,,,,,,,,,,,,,,,,,,,,,65,bizcocho,,,,,447.4904,448.8898,0,0,0.8623,,0,91,91,64,1,REAL,FAKE,,,,,,,,,,,,,,,,,
,,,,,,,,,667186a182a98857032a4dae,spanish,13 or older,"no, only English or Spanish",no,2025-07-24_11h34.23.848,empathy_intonation_perc_control,2024.2.4,MacIntel,62.89308176,667186a182a98857032a4dae,68817205a84113384fffdfe3,6882525107787cb43f0102b0,,,,,,,,,,,,,,,,,,,,,,,,,,,,,,,,,,,,,,,,,,,,,,,,,,,,,,,,,,,,,,,,,,,,,448.8902,461.1077,,,,,,,,,,,,,,,
,,,,,,,,,667186a182a98857032a4dae,spanish,13 or older,"no, only English or Spanish",no,2025-07-24_11h34.23.848,empathy_intonation_perc_control,2024.2.4,MacIntel,62.89308176,667186a182a98857032a4dae,68817205a84113384fffdfe3,6882525107787cb43f0102b0,,,,,,,,,,,,,,,,,,,,,,,,,,,1,,,,,,,,,,,,,,,,,,,,,,,,,,,,,,,,,,,,,,,,,,,,461.1199,467.457,slightly agree,0,0,0,0,1,I can easily tell if someone else wants to enter a conversation.,1,0,1,0,,
,,,,,,,,,667186a182a98857032a4dae,spanish,13 or older,"no, only English or Spanish",no,2025-07-24_11h34.23.848,empathy_intonation_perc_control,2024.2.4,MacIntel,62.89308176,667186a182a98857032a4dae,68817205a84113384fffdfe3,6882525107787cb43f0102b0,,,,,,,,,,,,,,,,,,,,,,,,,,,2,,,,,,,,,,,,,,,,,,,,,,,,,,,,,,,,,,,,,,,,,,,,467.4597,470.5905,slightly disagree,0,1,1,1,1,I prefer animals to humans.,0,1,0,0,,
,,,,,,,,,667186a182a98857032a4dae,spanish,13 or older,"no, only English or Spanish",no,2025-07-24_11h34.23.848,empathy_intonation_perc_control,2024.2.4,MacIntel,62.89308176,667186a182a98857032a4dae,68817205a84113384fffdfe3,6882525107787cb43f0102b0,,,,,,,,,,,,,,,,,,,,,,,,,,,3,,,,,,,,,,,,,,,,,,,,,,,,,,,,,,,,,,,,,,,,,,,,470.5921,474.3405,slightly disagree,0,2,2,2,1,I try to keep up with the current trends and fashions.,0,1,0,0,,
,,,,,,,,,667186a182a98857032a4dae,spanish,13 or older,"no, only English or Spanish",no,2025-07-24_11h34.23.848,empathy_intonation_perc_control,2024.2.4,MacIntel,62.89308176,667186a182a98857032a4dae,68817205a84113384fffdfe3,6882525107787cb43f0102b0,,,,,,,,,,,,,,,,,,,,,,,,,,,4,,,,,,,,,,,,,,,,,,,,,,,,,,,,,,,,,,,,,,,,,,,,474.3426,481.0247,strongly agree,0,3,3,3,1,"I find it difficult to explain to others things that I understand easily,   when they don't understand it first time.",1,0,0,1,,
,,,,,,,,,667186a182a98857032a4dae,spanish,13 or older,"no, only English or Spanish",no,2025-07-24_11h34.23.848,empathy_intonation_perc_control,2024.2.4,MacIntel,62.89308176,667186a182a98857032a4dae,68817205a84113384fffdfe3,6882525107787cb43f0102b0,,,,,,,,,,,,,,,,,,,,,,,,,,,5,,,,,,,,,,,,,,,,,,,,,,,,,,,,,,,,,,,,,,,,,,,,481.0261,484.1744,slightly agree,0,4,4,4,1,I dream most nights.,0,1,0,0,,
,,,,,,,,,667186a182a98857032a4dae,spanish,13 or older,"no, only English or Spanish",no,2025-07-24_11h34.23.848,empathy_intonation_perc_control,2024.2.4,MacIntel,62.89308176,667186a182a98857032a4dae,68817205a84113384fffdfe3,6882525107787cb43f0102b0,,,,,,,,,,,,,,,,,,,,,,,,,,,6,,,,,,,,,,,,,,,,,,,,,,,,,,,,,,,,,,,,,,,,,,,,484.176,487.558,strongly agree,0,5,5,5,1,I really enjoy caring for other people.,1,0,1,0,,
,,,,,,,,,667186a182a98857032a4dae,spanish,13 or older,"no, only English or Spanish",no,2025-07-24_11h34.23.848,empathy_intonation_perc_control,2024.2.4,MacIntel,62.89308176,667186a182a98857032a4dae,68817205a84113384fffdfe3,6882525107787cb43f0102b0,,,,,,,,,,,,,,,,,,,,,,,,,,,7,,,,,,,,,,,,,,,,,,,,,,,,,,,,,,,,,,,,,,,,,,,,487.5599,490.3084,strongly agree,0,6,6,6,1,I try to solve my own problems rather than discussing them with others.,0,1,0,0,,
,,,,,,,,,667186a182a98857032a4dae,spanish,13 or older,"no, only English or Spanish",no,2025-07-24_11h34.23.848,empathy_intonation_perc_control,2024.2.4,MacIntel,62.89308176,667186a182a98857032a4dae,68817205a84113384fffdfe3,6882525107787cb43f0102b0,,,,,,,,,,,,,,,,,,,,,,,,,,,8,,,,,,,,,,,,,,,,,,,,,,,,,,,,,,,,,,,,,,,,,,,,490.3106,494.3586,slightly agree,0,7,7,7,1,I find it hard to know what to do in a social situation.,1,0,0,1,,
,,,,,,,,,667186a182a98857032a4dae,spanish,13 or older,"no, only English or Spanish",no,2025-07-24_11h34.23.848,empathy_intonation_perc_control,2024.2.4,MacIntel,62.89308176,667186a182a98857032a4dae,68817205a84113384fffdfe3,6882525107787cb43f0102b0,,,,,,,,,,,,,,,,,,,,,,,,,,,9,,,,,,,,,,,,,,,,,,,,,,,,,,,,,,,,,,,,,,,,,,,,494.3607,499.8933,strongly disagree,0,8,8,8,1,I am at my best first thing in the morning.,0,1,0,0,,
,,,,,,,,,667186a182a98857032a4dae,spanish,13 or older,"no, only English or Spanish",no,2025-07-24_11h34.23.848,empathy_intonation_perc_control,2024.2.4,MacIntel,62.89308176,667186a182a98857032a4dae,68817205a84113384fffdfe3,6882525107787cb43f0102b0,,,,,,,,,,,,,,,,,,,,,,,,,,,10,,,,,,,,,,,,,,,,,,,,,,,,,,,,,,,,,,,,,,,,,,,,499.8954,504.2258,slightly disagree,0,9,9,9,1,People often tell me that I went too far in driving my point home in a discussion.,1,0,0,1,,
,,,,,,,,,667186a182a98857032a4dae,spanish,13 or older,"no, only English or Spanish",no,2025-07-24_11h34.23.848,empathy_intonation_perc_control,2024.2.4,MacIntel,62.89308176,667186a182a98857032a4dae,68817205a84113384fffdfe3,6882525107787cb43f0102b0,,,,,,,,,,,,,,,,,,,,,,,,,,,11,,,,,,,,,,,,,,,,,,,,,,,,,,,,,,,,,,,,,,,,,,,,504.2277,509.8765,slightly disagree,0,10,10,10,1,It doesn't bother me too much if I am late meeting a friend.,1,0,0,1,,
,,,,,,,,,667186a182a98857032a4dae,spanish,13 or older,"no, only English or Spanish",no,2025-07-24_11h34.23.848,empathy_intonation_perc_control,2024.2.4,MacIntel,62.89308176,667186a182a98857032a4dae,68817205a84113384fffdfe3,6882525107787cb43f0102b0,,,,,,,,,,,,,,,,,,,,,,,,,,,12,,,,,,,,,,,,,,,,,,,,,,,,,,,,,,,,,,,,,,,,,,,,509.879,513.9612,slightly disagree,0,11,11,11,1,"Friendships and relationships are just too difficult, so I tend not to 
  bother with them.",1,0,0,1,,
,,,,,,,,,667186a182a98857032a4dae,spanish,13 or older,"no, only English or Spanish",no,2025-07-24_11h34.23.848,empathy_intonation_perc_control,2024.2.4,MacIntel,62.89308176,667186a182a98857032a4dae,68817205a84113384fffdfe3,6882525107787cb43f0102b0,,,,,,,,,,,,,,,,,,,,,,,,,,,13,,,,,,,,,,,,,,,,,,,,,,,,,,,,,,,,,,,,,,,,,,,,513.963,518.0945,slightly agree,0,12,12,12,1,"I would never break a law, no matter how minor.",0,1,0,0,,
,,,,,,,,,667186a182a98857032a4dae,spanish,13 or older,"no, only English or Spanish",no,2025-07-24_11h34.23.848,empathy_intonation_perc_control,2024.2.4,MacIntel,62.89308176,667186a182a98857032a4dae,68817205a84113384fffdfe3,6882525107787cb43f0102b0,,,,,,,,,,,,,,,,,,,,,,,,,,,14,,,,,,,,,,,,,,,,,,,,,,,,,,,,,,,,,,,,,,,,,,,,518.0963,524.4117,strongly disagree,0,13,13,13,1,I often find it difficult to judge if something is rude or polite.,1,0,0,1,,
,,,,,,,,,667186a182a98857032a4dae,spanish,13 or older,"no, only English or Spanish",no,2025-07-24_11h34.23.848,empathy_intonation_perc_control,2024.2.4,MacIntel,62.89308176,667186a182a98857032a4dae,68817205a84113384fffdfe3,6882525107787cb43f0102b0,,,,,,,,,,,,,,,,,,,,,,,,,,,15,,,,,,,,,,,,,,,,,,,,,,,,,,,,,,,,,,,,,,,,,,,,524.4141,529.4287,slightly agree,0,14,14,14,1,"In a conversation, I tend to focus on my own thoughts rather than on what 
  my listener might be thinking.",1,0,0,1,,
,,,,,,,,,667186a182a98857032a4dae,spanish,13 or older,"no, only English or Spanish",no,2025-07-24_11h34.23.848,empathy_intonation_perc_control,2024.2.4,MacIntel,62.89308176,667186a182a98857032a4dae,68817205a84113384fffdfe3,6882525107787cb43f0102b0,,,,,,,,,,,,,,,,,,,,,,,,,,,16,,,,,,,,,,,,,,,,,,,,,,,,,,,,,,,,,,,,,,,,,,,,529.4303,534.9617,slightly disagree,0,15,15,15,1,I prefer practical jokes to verbal humor.,0,1,0,0,,
,,,,,,,,,667186a182a98857032a4dae,spanish,13 or older,"no, only English or Spanish",no,2025-07-24_11h34.23.848,empathy_intonation_perc_control,2024.2.4,MacIntel,62.89308176,667186a182a98857032a4dae,68817205a84113384fffdfe3,6882525107787cb43f0102b0,,,,,,,,,,,,,,,,,,,,,,,,,,,17,,,,,,,,,,,,,,,,,,,,,,,,,,,,,,,,,,,,,,,,,,,,534.9633,539.5129,slightly agree,0,16,16,16,1,I live life for today rather than the future.,0,1,0,0,,
,,,,,,,,,667186a182a98857032a4dae,spanish,13 or older,"no, only English or Spanish",no,2025-07-24_11h34.23.848,empathy_intonation_perc_control,2024.2.4,MacIntel,62.89308176,667186a182a98857032a4dae,68817205a84113384fffdfe3,6882525107787cb43f0102b0,,,,,,,,,,,,,,,,,,,,,,,,,,,18,,,,,,,,,,,,,,,,,,,,,,,,,,,,,,,,,,,,,,,,,,,,539.5152,543.4629,strongly disagree,0,17,17,17,1,"When I was a child, I enjoyed cutting up worms to see what would happen.",1,0,0,1,,
,,,,,,,,,667186a182a98857032a4dae,spanish,13 or older,"no, only English or Spanish",no,2025-07-24_11h34.23.848,empathy_intonation_perc_control,2024.2.4,MacIntel,62.89308176,667186a182a98857032a4dae,68817205a84113384fffdfe3,6882525107787cb43f0102b0,,,,,,,,,,,,,,,,,,,,,,,,,,,19,,,,,,,,,,,,,,,,,,,,,,,,,,,,,,,,,,,,,,,,,,,,543.4651,550.213,slightly agree,0,18,18,18,1,I can pick up quickly if someone says one thing but means another.,1,0,1,0,,
,,,,,,,,,667186a182a98857032a4dae,spanish,13 or older,"no, only English or Spanish",no,2025-07-24_11h34.23.848,empathy_intonation_perc_control,2024.2.4,MacIntel,62.89308176,667186a182a98857032a4dae,68817205a84113384fffdfe3,6882525107787cb43f0102b0,,,,,,,,,,,,,,,,,,,,,,,,,,,20,,,,,,,,,,,,,,,,,,,,,,,,,,,,,,,,,,,,,,,,,,,,550.2151,557.8294,slightly agree,0,19,19,19,1,I tend to have very strong opinions about morality.,0,1,0,0,,
,,,,,,,,,667186a182a98857032a4dae,spanish,13 or older,"no, only English or Spanish",no,2025-07-24_11h34.23.848,empathy_intonation_perc_control,2024.2.4,MacIntel,62.89308176,667186a182a98857032a4dae,68817205a84113384fffdfe3,6882525107787cb43f0102b0,,,,,,,,,,,,,,,,,,,,,,,,,,,21,,,,,,,,,,,,,,,,,,,,,,,,,,,,,,,,,,,,,,,,,,,,557.8306,562.3799,slightly agree,0,20,20,20,1,It is hard for me to see why some things upset people so much.,1,0,0,1,,
,,,,,,,,,667186a182a98857032a4dae,spanish,13 or older,"no, only English or Spanish",no,2025-07-24_11h34.23.848,empathy_intonation_perc_control,2024.2.4,MacIntel,62.89308176,667186a182a98857032a4dae,68817205a84113384fffdfe3,6882525107787cb43f0102b0,,,,,,,,,,,,,,,,,,,,,,,,,,,22,,,,,,,,,,,,,,,,,,,,,,,,,,,,,,,,,,,,,,,,,,,,562.3817,565.2978,slightly agree,0,21,21,21,1,I find it easy to put myself in somebody else's shoes.,1,0,1,0,,
,,,,,,,,,667186a182a98857032a4dae,spanish,13 or older,"no, only English or Spanish",no,2025-07-24_11h34.23.848,empathy_intonation_perc_control,2024.2.4,MacIntel,62.89308176,667186a182a98857032a4dae,68817205a84113384fffdfe3,6882525107787cb43f0102b0,,,,,,,,,,,,,,,,,,,,,,,,,,,23,,,,,,,,,,,,,,,,,,,,,,,,,,,,,,,,,,,,,,,,,,,,565.2999,570.7144,slightly agree,0,22,22,22,1,I think that good manners are the most important thing a parent can teach their child.,0,1,0,0,,
