instructions_2afc.started,instructions_2afc.stopped,instructions_2afc_loop.thisRepN,instructions_2afc_loop.thisTrialN,instructions_2afc_loop.thisN,instructions_2afc_loop.thisIndex,instructions_2afc_loop.ran,instructions_text,continue_text,participant_id,"What variety of Spanish are you most familiar with? (e.g., Peruvian, Spanish, Mexican)",At what age did you begin learning Spanish?,Are you proficient in any languages other than English/Spanish?,"Are you familiar with Caribbean (e.g., Caribbean, Puerto Rican) or Galician Spanish?",date,expName,psychopyVersion,OS,frameRate,id,study_id,session,practice_2afc.started,practice_2afc.stopped,key_resp_2afc_practice.keys,key_resp_2afc_practice.corr,key_resp_2afc_practice.rt,key_resp_2afc_practice.duration,trials_2afc_practice_loop.thisRepN,trials_2afc_practice_loop.thisTrialN,trials_2afc_practice_loop.thisN,trials_2afc_practice_loop.thisIndex,trials_2afc_practice_loop.ran,path,correct_response,check_2afc.started,check_2afc.stopped,trial_2afc.started,trial_2afc.stopped,key_resp_2afc_trial.keys,key_resp_2afc_trial.corr,key_resp_2afc_trial.rt,key_resp_2afc_trial.duration,trials_2afc_loop.thisRepN,trials_2afc_loop.thisTrialN,trials_2afc_loop.thisN,trials_2afc_loop.thisIndex,trials_2afc_loop.ran,item_num,target,variety,instructions_lextale.started,instructions_lextale.stopped,instructions_lextale_loop.thisRepN,instructions_lextale_loop.thisTrialN,instructions_lextale_loop.thisN,instructions_lextale_loop.thisIndex,instructions_lextale_loop.ran,practice_lextale.started,practice_lextale.stopped,key_resp_lextale_practice.keys,key_resp_lextale_practice.corr,key_resp_lextale_practice.rt,key_resp_lextale_practice.duration,practice_feedback_lextale.started,practice_feedback_lextale.stopped,trials_lextale_practice_loop.thisRepN,trials_lextale_practice_loop.thisTrialN,trials_lextale_practice_loop.thisN,trials_lextale_practice_loop.thisIndex,trials_lextale_practice_loop.ran,stim,word,prac_button_real,prac_button_false,check_lextale.started,check_lextale.stopped,trial_lextale.started,trial_lextale.stopped,key_resp_lextale_trial.keys,key_resp_lextale_trial.corr,key_resp_lextale_trial.rt,key_resp_lextale_trial.duration,trials_lextale_loop.thisRepN,trials_lextale_loop.thisTrialN,trials_lextale_loop.thisN,trials_lextale_loop.thisIndex,trials_lextale_loop.ran,button_real,button_false,instructions_eq.started,instructions_eq.stopped,trial_eq.started,trial_eq.stopped,slider_eq_trial.response,trials_eq_loop.thisRepN,trials_eq_loop.thisTrialN,trials_eq_loop.thisN,trials_eq_loop.thisIndex,trials_eq_loop.ran,item,is_test_item,is_distractor,is_agree_score,is_disagree_score,end_exp.started,end_exp.stopped
0.0208,6.871,0,0,0,0,1,"In the following task you are going to hear a series of utterances. 

  You will decide if the utterances sound like questions or not using your keyboard.", (press the spacebar to continue),6672f795fac6ecd66d7b987f,Mexican,13 or older,"no, only English or Spanish",no,2025-07-23_21h19.45.503,empathy_intonation_perc_control,2024.2.4,Win32,59.88023952,6672f795fac6ecd66d7b987f,68817205a84113384fffdfe3,688187d314c4ebace79b4454,,,,,,,,,,,,,,,,,,,,,,,,,,,,,,,,,,,,,,,,,,,,,,,,,,,,,,,,,,,,,,,,,,,,,,,,,,,,,,,,,,,,,
6.8734,17.2861,0,1,1,1,1,"If you believe the utterance is a question, type '1' (for 'yes') and if you do not 
  believe it is a question type '0' (for 'no').

  Let's practice a bit...", (press the spacebar to continue),6672f795fac6ecd66d7b987f,Mexican,13 or older,"no, only English or Spanish",no,2025-07-23_21h19.45.503,empathy_intonation_perc_control,2024.2.4,Win32,59.88023952,6672f795fac6ecd66d7b987f,68817205a84113384fffdfe3,688187d314c4ebace79b4454,,,,,,,,,,,,,,,,,,,,,,,,,,,,,,,,,,,,,,,,,,,,,,,,,,,,,,,,,,,,,,,,,,,,,,,,,,,,,,,,,,,,,
,,,,,,,,,6672f795fac6ecd66d7b987f,Mexican,13 or older,"no, only English or Spanish",no,2025-07-23_21h19.45.503,empathy_intonation_perc_control,2024.2.4,Win32,59.88023952,6672f795fac6ecd66d7b987f,68817205a84113384fffdfe3,688187d314c4ebace79b4454,17.2999,20.4361,1,1,2.6149,,0,0,0,2,1,./stim/wavs/chilean_question_filler_Mi-padre-cantaba-bien.wav,1,,,,,,,,,,,,,,,,,,,,,,,,,,,,,,,,,,,,,,,,,,,,,,,,,,,,,,,,,,,,,,,,,,,,,,,,
,,,,,,,,,6672f795fac6ecd66d7b987f,Mexican,13 or older,"no, only English or Spanish",no,2025-07-23_21h19.45.503,empathy_intonation_perc_control,2024.2.4,Win32,59.88023952,6672f795fac6ecd66d7b987f,68817205a84113384fffdfe3,688187d314c4ebace79b4454,20.4372,23.1685,0,0,2.1997,,0,1,1,3,1,./stim/wavs/mexican_question_filler_Felipe-no-tiene-contrasena.wav,1,,,,,,,,,,,,,,,,,,,,,,,,,,,,,,,,,,,,,,,,,,,,,,,,,,,,,,,,,,,,,,,,,,,,,,,,
,,,,,,,,,6672f795fac6ecd66d7b987f,Mexican,13 or older,"no, only English or Spanish",no,2025-07-23_21h19.45.503,empathy_intonation_perc_control,2024.2.4,Win32,59.88023952,6672f795fac6ecd66d7b987f,68817205a84113384fffdfe3,688187d314c4ebace79b4454,23.1694,26.6678,0,0,2.9659,,0,2,2,1,1,./stim/wavs/argentine_question_filler_Mi-vecino-habla-mucho.wav,1,,,,,,,,,,,,,,,,,,,,,,,,,,,,,,,,,,,,,,,,,,,,,,,,,,,,,,,,,,,,,,,,,,,,,,,,
,,,,,,,,,6672f795fac6ecd66d7b987f,Mexican,13 or older,"no, only English or Spanish",no,2025-07-23_21h19.45.503,empathy_intonation_perc_control,2024.2.4,Win32,59.88023952,6672f795fac6ecd66d7b987f,68817205a84113384fffdfe3,688187d314c4ebace79b4454,26.6687,31.6839,0,1,4.4831,,0,3,3,6,1,./stim/wavs/peruvian_statement_filler_El-nino-habla-con-su-madre.wav,0,,,,,,,,,,,,,,,,,,,,,,,,,,,,,,,,,,,,,,,,,,,,,,,,,,,,,,,,,,,,,,,,,,,,,,,,
,,,,,,,,,6672f795fac6ecd66d7b987f,Mexican,13 or older,"no, only English or Spanish",no,2025-07-23_21h19.45.503,empathy_intonation_perc_control,2024.2.4,Win32,59.88023952,6672f795fac6ecd66d7b987f,68817205a84113384fffdfe3,688187d314c4ebace79b4454,31.6848,33.9836,1,0,1.7636,,0,4,4,5,1,./stim/wavs/andalusian_statement_filler_Alberto-nunca-se-afeita.wav,0,,,,,,,,,,,,,,,,,,,,,,,,,,,,,,,,,,,,,,,,,,,,,,,,,,,,,,,,,,,,,,,,,,,,,,,,
,,,,,,,,,6672f795fac6ecd66d7b987f,Mexican,13 or older,"no, only English or Spanish",no,2025-07-23_21h19.45.503,empathy_intonation_perc_control,2024.2.4,Win32,59.88023952,6672f795fac6ecd66d7b987f,68817205a84113384fffdfe3,688187d314c4ebace79b4454,33.9845,36.8838,1,0,2.3678,,0,5,5,4,1,./stim/wavs/cuban_statement_filler_Cocinabas-por-la-noche.wav,0,,,,,,,,,,,,,,,,,,,,,,,,,,,,,,,,,,,,,,,,,,,,,,,,,,,,,,,,,,,,,,,,,,,,,,,,
,,,,,,,,,6672f795fac6ecd66d7b987f,Mexican,13 or older,"no, only English or Spanish",no,2025-07-23_21h19.45.503,empathy_intonation_perc_control,2024.2.4,Win32,59.88023952,6672f795fac6ecd66d7b987f,68817205a84113384fffdfe3,688187d314c4ebace79b4454,36.8845,39.4331,1,1,2.0169,,0,6,6,0,1,./stim/wavs/castilian_question_filler_Mi-esposo-conoce-al-chico.wav,1,,,,,,,,,,,,,,,,,,,,,,,,,,,,,,,,,,,,,,,,,,,,,,,,,,,,,,,,,,,,,,,,,,,,,,,,
,,,,,,,,,6672f795fac6ecd66d7b987f,Mexican,13 or older,"no, only English or Spanish",no,2025-07-23_21h19.45.503,empathy_intonation_perc_control,2024.2.4,Win32,59.88023952,6672f795fac6ecd66d7b987f,68817205a84113384fffdfe3,688187d314c4ebace79b4454,39.4338,41.8496,0,1,1.8833,,0,7,7,7,1,./stim/wavs/puertorican_statement_filler_La-nina-pinta-con-su-amiga.wav,0,,,,,,,,,,,,,,,,,,,,,,,,,,,,,,,,,,,,,,,,,,,,,,,,,,,,,,,,,,,,,,,,,,,,,,,,
,,,,,,,,,6672f795fac6ecd66d7b987f,Mexican,13 or older,"no, only English or Spanish",no,2025-07-23_21h19.45.503,empathy_intonation_perc_control,2024.2.4,Win32,59.88023952,6672f795fac6ecd66d7b987f,68817205a84113384fffdfe3,688187d314c4ebace79b4454,,,,,,,,,,,,,,41.8504,45.466,,,,,,,,,,,,,,,,,,,,,,,,,,,,,,,,,,,,,,,,,,,,,,,,,,,,,,,,,,,,,,,,,,,,,,
,,,,,,,,,6672f795fac6ecd66d7b987f,Mexican,13 or older,"no, only English or Spanish",no,2025-07-23_21h19.45.503,empathy_intonation_perc_control,2024.2.4,Win32,59.88023952,6672f795fac6ecd66d7b987f,68817205a84113384fffdfe3,688187d314c4ebace79b4454,,,,,,,,,,,,./stim/wavs/castilian_mismatch_declarative-broad-focus_Mi-tia-odia-la-lluvia.wav,0,,,45.4857,48.3493,1,0,2.3328,,0,0,0,72,1,73,0,castilian,,,,,,,,,,,,,,,,,,,,,,,,,,,,,,,,,,,,,,,,,,,,,,,,,,,,,,,,
,,,,,,,,,6672f795fac6ecd66d7b987f,Mexican,13 or older,"no, only English or Spanish",no,2025-07-23_21h19.45.503,empathy_intonation_perc_control,2024.2.4,Win32,59.88023952,6672f795fac6ecd66d7b987f,68817205a84113384fffdfe3,688187d314c4ebace79b4454,,,,,,,,,,,,./stim/wavs/cuban_match_declarative-broad-focus_Mariano-habla-del-tiempo.wav,0,,,48.3503,50.9484,0,1,2.0687,,0,1,1,54,1,55,0,cuban,,,,,,,,,,,,,,,,,,,,,,,,,,,,,,,,,,,,,,,,,,,,,,,,,,,,,,,,
,,,,,,,,,6672f795fac6ecd66d7b987f,Mexican,13 or older,"no, only English or Spanish",no,2025-07-23_21h19.45.503,empathy_intonation_perc_control,2024.2.4,Win32,59.88023952,6672f795fac6ecd66d7b987f,68817205a84113384fffdfe3,688187d314c4ebace79b4454,,,,,,,,,,,,./stim/wavs/castilian_match_declarative-broad-focus_Marta-abre-el-regalo.wav,0,,,50.9492,53.7481,0,1,2.2665,,0,2,2,49,1,50,0,castilian,,,,,,,,,,,,,,,,,,,,,,,,,,,,,,,,,,,,,,,,,,,,,,,,,,,,,,,,
,,,,,,,,,6672f795fac6ecd66d7b987f,Mexican,13 or older,"no, only English or Spanish",no,2025-07-23_21h19.45.503,empathy_intonation_perc_control,2024.2.4,Win32,59.88023952,6672f795fac6ecd66d7b987f,68817205a84113384fffdfe3,688187d314c4ebace79b4454,,,,,,,,,,,,./stim/wavs/mexican_match_interrogative-total-yn_Daniel-iba-a-Bolivia.wav,1,,,53.749,56.3144,1,1,2.033,,0,3,3,13,1,14,0,mexican,,,,,,,,,,,,,,,,,,,,,,,,,,,,,,,,,,,,,,,,,,,,,,,,,,,,,,,,
,,,,,,,,,6672f795fac6ecd66d7b987f,Mexican,13 or older,"no, only English or Spanish",no,2025-07-23_21h19.45.503,empathy_intonation_perc_control,2024.2.4,Win32,59.88023952,6672f795fac6ecd66d7b987f,68817205a84113384fffdfe3,688187d314c4ebace79b4454,,,,,,,,,,,,./stim/wavs/cuban_match_declarative-broad-focus_Manuela-vende-el-carro.wav,0,,,56.3151,59.3307,0,1,2.4834,,0,4,4,52,1,53,0,cuban,,,,,,,,,,,,,,,,,,,,,,,,,,,,,,,,,,,,,,,,,,,,,,,,,,,,,,,,
,,,,,,,,,6672f795fac6ecd66d7b987f,Mexican,13 or older,"no, only English or Spanish",no,2025-07-23_21h19.45.503,empathy_intonation_perc_control,2024.2.4,Win32,59.88023952,6672f795fac6ecd66d7b987f,68817205a84113384fffdfe3,688187d314c4ebace79b4454,,,,,,,,,,,,./stim/wavs/puertorican_match_declarative-broad-focus_Emilio-ama-la-marcha.wav,0,,,59.3313,62.1469,0,1,2.2835,,0,5,5,65,1,66,0,puertorican,,,,,,,,,,,,,,,,,,,,,,,,,,,,,,,,,,,,,,,,,,,,,,,,,,,,,,,,
,,,,,,,,,6672f795fac6ecd66d7b987f,Mexican,13 or older,"no, only English or Spanish",no,2025-07-23_21h19.45.503,empathy_intonation_perc_control,2024.2.4,Win32,59.88023952,6672f795fac6ecd66d7b987f,68817205a84113384fffdfe3,688187d314c4ebace79b4454,,,,,,,,,,,,./stim/wavs/mexican_mismatch_declarative-broad-focus_Mi-novio-viene-del-lago.wav,0,,,62.1476,64.5135,1,0,1.8371,,0,6,6,81,1,82,0,mexican,,,,,,,,,,,,,,,,,,,,,,,,,,,,,,,,,,,,,,,,,,,,,,,,,,,,,,,,
,,,,,,,,,6672f795fac6ecd66d7b987f,Mexican,13 or older,"no, only English or Spanish",no,2025-07-23_21h19.45.503,empathy_intonation_perc_control,2024.2.4,Win32,59.88023952,6672f795fac6ecd66d7b987f,68817205a84113384fffdfe3,688187d314c4ebace79b4454,,,,,,,,,,,,./stim/wavs/castilian_match_declarative-broad-focus_Manuela-vende-el-carro.wav,0,,,64.5142,67.3298,0,1,2.2833,,0,7,7,46,1,47,0,castilian,,,,,,,,,,,,,,,,,,,,,,,,,,,,,,,,,,,,,,,,,,,,,,,,,,,,,,,,
,,,,,,,,,6672f795fac6ecd66d7b987f,Mexican,13 or older,"no, only English or Spanish",no,2025-07-23_21h19.45.503,empathy_intonation_perc_control,2024.2.4,Win32,59.88023952,6672f795fac6ecd66d7b987f,68817205a84113384fffdfe3,688187d314c4ebace79b4454,,,,,,,,,,,,./stim/wavs/mexican_mismatch_interrogative-total-yn_El-hombre-mira-la-luna.wav,1,,,67.3308,69.9293,1,1,2.0669,,0,8,8,34,1,35,0,mexican,,,,,,,,,,,,,,,,,,,,,,,,,,,,,,,,,,,,,,,,,,,,,,,,,,,,,,,,
,,,,,,,,,6672f795fac6ecd66d7b987f,Mexican,13 or older,"no, only English or Spanish",no,2025-07-23_21h19.45.503,empathy_intonation_perc_control,2024.2.4,Win32,59.88023952,6672f795fac6ecd66d7b987f,68817205a84113384fffdfe3,688187d314c4ebace79b4454,,,,,,,,,,,,./stim/wavs/puertorican_mismatch_interrogative-total-yn_Mi-madre-come-la-fruta.wav,1,,,69.9301,72.4456,0,0,1.9827,,0,9,9,43,1,44,1,puertorican,,,,,,,,,,,,,,,,,,,,,,,,,,,,,,,,,,,,,,,,,,,,,,,,,,,,,,,,
,,,,,,,,,6672f795fac6ecd66d7b987f,Mexican,13 or older,"no, only English or Spanish",no,2025-07-23_21h19.45.503,empathy_intonation_perc_control,2024.2.4,Win32,59.88023952,6672f795fac6ecd66d7b987f,68817205a84113384fffdfe3,688187d314c4ebace79b4454,,,,,,,,,,,,./stim/wavs/castilian_mismatch_declarative-broad-focus_El-nino-oye-el-rio.wav,0,,,72.4463,75.2286,1,0,2.2498,,0,10,10,68,1,69,0,castilian,,,,,,,,,,,,,,,,,,,,,,,,,,,,,,,,,,,,,,,,,,,,,,,,,,,,,,,,
,,,,,,,,,6672f795fac6ecd66d7b987f,Mexican,13 or older,"no, only English or Spanish",no,2025-07-23_21h19.45.503,empathy_intonation_perc_control,2024.2.4,Win32,59.88023952,6672f795fac6ecd66d7b987f,68817205a84113384fffdfe3,688187d314c4ebace79b4454,,,,,,,,,,,,./stim/wavs/mexican_mismatch_interrogative-total-yn_Mi-novio-viene-del-lago.wav,1,,,75.2293,77.5949,1,1,1.8333,,0,11,11,37,1,38,0,mexican,,,,,,,,,,,,,,,,,,,,,,,,,,,,,,,,,,,,,,,,,,,,,,,,,,,,,,,,
,,,,,,,,,6672f795fac6ecd66d7b987f,Mexican,13 or older,"no, only English or Spanish",no,2025-07-23_21h19.45.503,empathy_intonation_perc_control,2024.2.4,Win32,59.88023952,6672f795fac6ecd66d7b987f,68817205a84113384fffdfe3,688187d314c4ebace79b4454,,,,,,,,,,,,./stim/wavs/mexican_match_declarative-broad-focus_Daniel-iba-a-Bolivia.wav,0,,,77.5958,79.8612,1,0,1.7367,,0,12,12,57,1,58,0,mexican,,,,,,,,,,,,,,,,,,,,,,,,,,,,,,,,,,,,,,,,,,,,,,,,,,,,,,,,
,,,,,,,,,6672f795fac6ecd66d7b987f,Mexican,13 or older,"no, only English or Spanish",no,2025-07-23_21h19.45.503,empathy_intonation_perc_control,2024.2.4,Win32,59.88023952,6672f795fac6ecd66d7b987f,68817205a84113384fffdfe3,688187d314c4ebace79b4454,,,,,,,,,,,,./stim/wavs/castilian_match_interrogative-total-yn_Maria-bebe-el-vino.wav,1,,,79.8622,82.2776,1,1,1.8882,,0,13,13,3,1,4,0,castilian,,,,,,,,,,,,,,,,,,,,,,,,,,,,,,,,,,,,,,,,,,,,,,,,,,,,,,,,
,,,,,,,,,6672f795fac6ecd66d7b987f,Mexican,13 or older,"no, only English or Spanish",no,2025-07-23_21h19.45.503,empathy_intonation_perc_control,2024.2.4,Win32,59.88023952,6672f795fac6ecd66d7b987f,68817205a84113384fffdfe3,688187d314c4ebace79b4454,,,,,,,,,,,,./stim/wavs/puertorican_mismatch_declarative-broad-focus_El-hombre-mira-la-luna.wav,0,,,82.278,84.4776,0,1,1.6836,,0,14,14,84,1,85,0,puertorican,,,,,,,,,,,,,,,,,,,,,,,,,,,,,,,,,,,,,,,,,,,,,,,,,,,,,,,,
,,,,,,,,,6672f795fac6ecd66d7b987f,Mexican,13 or older,"no, only English or Spanish",no,2025-07-23_21h19.45.503,empathy_intonation_perc_control,2024.2.4,Win32,59.88023952,6672f795fac6ecd66d7b987f,68817205a84113384fffdfe3,688187d314c4ebace79b4454,,,,,,,,,,,,./stim/wavs/cuban_mismatch_interrogative-total-yn_Mi-madre-come-la-fruta.wav,1,,,84.4784,87.0442,1,1,2.0339,,0,15,15,31,1,32,1,cuban,,,,,,,,,,,,,,,,,,,,,,,,,,,,,,,,,,,,,,,,,,,,,,,,,,,,,,,,
,,,,,,,,,6672f795fac6ecd66d7b987f,Mexican,13 or older,"no, only English or Spanish",no,2025-07-23_21h19.45.503,empathy_intonation_perc_control,2024.2.4,Win32,59.88023952,6672f795fac6ecd66d7b987f,68817205a84113384fffdfe3,688187d314c4ebace79b4454,,,,,,,,,,,,./stim/wavs/cuban_match_interrogative-total-yn_Mariano-habla-del-tiempo.wav,1,,,87.0453,89.7102,0,0,2.1355,,0,16,16,10,1,11,1,cuban,,,,,,,,,,,,,,,,,,,,,,,,,,,,,,,,,,,,,,,,,,,,,,,,,,,,,,,,
,,,,,,,,,6672f795fac6ecd66d7b987f,Mexican,13 or older,"no, only English or Spanish",no,2025-07-23_21h19.45.503,empathy_intonation_perc_control,2024.2.4,Win32,59.88023952,6672f795fac6ecd66d7b987f,68817205a84113384fffdfe3,688187d314c4ebace79b4454,,,,,,,,,,,,./stim/wavs/mexican_match_declarative-broad-focus_David-leia-el-libro.wav,0,,,89.7108,92.1599,0,1,1.9181,,0,17,17,58,1,59,0,mexican,,,,,,,,,,,,,,,,,,,,,,,,,,,,,,,,,,,,,,,,,,,,,,,,,,,,,,,,
,,,,,,,,,6672f795fac6ecd66d7b987f,Mexican,13 or older,"no, only English or Spanish",no,2025-07-23_21h19.45.503,empathy_intonation_perc_control,2024.2.4,Win32,59.88023952,6672f795fac6ecd66d7b987f,68817205a84113384fffdfe3,688187d314c4ebace79b4454,,,,,,,,,,,,./stim/wavs/mexican_match_declarative-broad-focus_Marta-abre-el-regalo.wav,0,,,92.1609,94.4932,0,1,1.7999,,0,18,18,61,1,62,0,mexican,,,,,,,,,,,,,,,,,,,,,,,,,,,,,,,,,,,,,,,,,,,,,,,,,,,,,,,,
,,,,,,,,,6672f795fac6ecd66d7b987f,Mexican,13 or older,"no, only English or Spanish",no,2025-07-23_21h19.45.503,empathy_intonation_perc_control,2024.2.4,Win32,59.88023952,6672f795fac6ecd66d7b987f,68817205a84113384fffdfe3,688187d314c4ebace79b4454,,,,,,,,,,,,./stim/wavs/puertorican_mismatch_interrogative-total-yn_El-nino-oye-el-rio.wav,1,,,94.494,96.9098,1,1,1.8876,,0,19,19,40,1,41,1,puertorican,,,,,,,,,,,,,,,,,,,,,,,,,,,,,,,,,,,,,,,,,,,,,,,,,,,,,,,,
,,,,,,,,,6672f795fac6ecd66d7b987f,Mexican,13 or older,"no, only English or Spanish",no,2025-07-23_21h19.45.503,empathy_intonation_perc_control,2024.2.4,Win32,59.88023952,6672f795fac6ecd66d7b987f,68817205a84113384fffdfe3,688187d314c4ebace79b4454,,,,,,,,,,,,./stim/wavs/castilian_match_declarative-broad-focus_Emilio-ama-la-marcha.wav,0,,,96.9104,99.8257,0,1,2.3835,,0,20,20,45,1,46,0,castilian,,,,,,,,,,,,,,,,,,,,,,,,,,,,,,,,,,,,,,,,,,,,,,,,,,,,,,,,
,,,,,,,,,6672f795fac6ecd66d7b987f,Mexican,13 or older,"no, only English or Spanish",no,2025-07-23_21h19.45.503,empathy_intonation_perc_control,2024.2.4,Win32,59.88023952,6672f795fac6ecd66d7b987f,68817205a84113384fffdfe3,688187d314c4ebace79b4454,,,,,,,,,,,,./stim/wavs/cuban_mismatch_interrogative-total-yn_El-hombre-mira-la-luna.wav,1,,,99.8265,101.9551,1,1,1.5997,,0,21,21,29,1,30,1,cuban,,,,,,,,,,,,,,,,,,,,,,,,,,,,,,,,,,,,,,,,,,,,,,,,,,,,,,,,
,,,,,,,,,6672f795fac6ecd66d7b987f,Mexican,13 or older,"no, only English or Spanish",no,2025-07-23_21h19.45.503,empathy_intonation_perc_control,2024.2.4,Win32,59.88023952,6672f795fac6ecd66d7b987f,68817205a84113384fffdfe3,688187d314c4ebace79b4454,,,,,,,,,,,,./stim/wavs/cuban_match_declarative-broad-focus_Marta-abre-el-regalo.wav,0,,,101.9555,104.5753,0,1,2.0999,,0,22,22,55,1,56,0,cuban,,,,,,,,,,,,,,,,,,,,,,,,,,,,,,,,,,,,,,,,,,,,,,,,,,,,,,,,
,,,,,,,,,6672f795fac6ecd66d7b987f,Mexican,13 or older,"no, only English or Spanish",no,2025-07-23_21h19.45.503,empathy_intonation_perc_control,2024.2.4,Win32,59.88023952,6672f795fac6ecd66d7b987f,68817205a84113384fffdfe3,688187d314c4ebace79b4454,,,,,,,,,,,,./stim/wavs/castilian_match_interrogative-total-yn_Marta-abre-el-regalo.wav,1,,,104.5761,107.1248,1,1,2.0166,,0,23,23,5,1,6,0,castilian,,,,,,,,,,,,,,,,,,,,,,,,,,,,,,,,,,,,,,,,,,,,,,,,,,,,,,,,
,,,,,,,,,6672f795fac6ecd66d7b987f,Mexican,13 or older,"no, only English or Spanish",no,2025-07-23_21h19.45.503,empathy_intonation_perc_control,2024.2.4,Win32,59.88023952,6672f795fac6ecd66d7b987f,68817205a84113384fffdfe3,688187d314c4ebace79b4454,,,,,,,,,,,,./stim/wavs/puertorican_match_declarative-broad-focus_Manuela-vende-el-carro.wav,0,,,107.1259,109.4579,0,1,1.7998,,0,24,24,66,1,67,0,puertorican,,,,,,,,,,,,,,,,,,,,,,,,,,,,,,,,,,,,,,,,,,,,,,,,,,,,,,,,
,,,,,,,,,6672f795fac6ecd66d7b987f,Mexican,13 or older,"no, only English or Spanish",no,2025-07-23_21h19.45.503,empathy_intonation_perc_control,2024.2.4,Win32,59.88023952,6672f795fac6ecd66d7b987f,68817205a84113384fffdfe3,688187d314c4ebace79b4454,,,,,,,,,,,,./stim/wavs/puertorican_mismatch_declarative-broad-focus_La-maestra-vive-en-Paris.wav,0,,,109.4586,112.22,0,1,2.2327,,0,25,25,86,1,87,0,puertorican,,,,,,,,,,,,,,,,,,,,,,,,,,,,,,,,,,,,,,,,,,,,,,,,,,,,,,,,
,,,,,,,,,6672f795fac6ecd66d7b987f,Mexican,13 or older,"no, only English or Spanish",no,2025-07-23_21h19.45.503,empathy_intonation_perc_control,2024.2.4,Win32,59.88023952,6672f795fac6ecd66d7b987f,68817205a84113384fffdfe3,688187d314c4ebace79b4454,,,,,,,,,,,,./stim/wavs/puertorican_mismatch_declarative-broad-focus_La-nina-lava-el-plato.wav,0,,,112.2203,114.7573,0,1,2.0168,,0,26,26,87,1,88,0,puertorican,,,,,,,,,,,,,,,,,,,,,,,,,,,,,,,,,,,,,,,,,,,,,,,,,,,,,,,,
,,,,,,,,,6672f795fac6ecd66d7b987f,Mexican,13 or older,"no, only English or Spanish",no,2025-07-23_21h19.45.503,empathy_intonation_perc_control,2024.2.4,Win32,59.88023952,6672f795fac6ecd66d7b987f,68817205a84113384fffdfe3,688187d314c4ebace79b4454,,,,,,,,,,,,./stim/wavs/cuban_match_interrogative-total-yn_Manuela-vende-el-carro.wav,1,,,114.7581,116.8404,0,0,1.5497,,0,27,27,8,1,9,1,cuban,,,,,,,,,,,,,,,,,,,,,,,,,,,,,,,,,,,,,,,,,,,,,,,,,,,,,,,,
,,,,,,,,,6672f795fac6ecd66d7b987f,Mexican,13 or older,"no, only English or Spanish",no,2025-07-23_21h19.45.503,empathy_intonation_perc_control,2024.2.4,Win32,59.88023952,6672f795fac6ecd66d7b987f,68817205a84113384fffdfe3,688187d314c4ebace79b4454,,,,,,,,,,,,./stim/wavs/mexican_mismatch_declarative-broad-focus_El-hombre-mira-la-luna.wav,0,,,116.8412,119.3567,0,1,1.9833,,0,28,28,79,1,80,0,mexican,,,,,,,,,,,,,,,,,,,,,,,,,,,,,,,,,,,,,,,,,,,,,,,,,,,,,,,,
,,,,,,,,,6672f795fac6ecd66d7b987f,Mexican,13 or older,"no, only English or Spanish",no,2025-07-23_21h19.45.503,empathy_intonation_perc_control,2024.2.4,Win32,59.88023952,6672f795fac6ecd66d7b987f,68817205a84113384fffdfe3,688187d314c4ebace79b4454,,,,,,,,,,,,./stim/wavs/cuban_mismatch_interrogative-total-yn_Mi-novio-viene-del-lago.wav,1,,,119.3573,121.5566,1,1,1.6705,,0,29,29,32,1,33,1,cuban,,,,,,,,,,,,,,,,,,,,,,,,,,,,,,,,,,,,,,,,,,,,,,,,,,,,,,,,
,,,,,,,,,6672f795fac6ecd66d7b987f,Mexican,13 or older,"no, only English or Spanish",no,2025-07-23_21h19.45.503,empathy_intonation_perc_control,2024.2.4,Win32,59.88023952,6672f795fac6ecd66d7b987f,68817205a84113384fffdfe3,688187d314c4ebace79b4454,,,,,,,,,,,,./stim/wavs/puertorican_match_declarative-broad-focus_David-leia-el-libro.wav,0,,,121.5576,123.9229,0,1,1.8334,,0,30,30,64,1,65,0,puertorican,,,,,,,,,,,,,,,,,,,,,,,,,,,,,,,,,,,,,,,,,,,,,,,,,,,,,,,,
,,,,,,,,,6672f795fac6ecd66d7b987f,Mexican,13 or older,"no, only English or Spanish",no,2025-07-23_21h19.45.503,empathy_intonation_perc_control,2024.2.4,Win32,59.88023952,6672f795fac6ecd66d7b987f,68817205a84113384fffdfe3,688187d314c4ebace79b4454,,,,,,,,,,,,./stim/wavs/castilian_match_interrogative-total-yn_David-leia-el-libro.wav,1,,,123.9239,126.2059,1,1,1.7498,,0,31,31,0,1,1,0,castilian,,,,,,,,,,,,,,,,,,,,,,,,,,,,,,,,,,,,,,,,,,,,,,,,,,,,,,,,
,,,,,,,,,6672f795fac6ecd66d7b987f,Mexican,13 or older,"no, only English or Spanish",no,2025-07-23_21h19.45.503,empathy_intonation_perc_control,2024.2.4,Win32,59.88023952,6672f795fac6ecd66d7b987f,68817205a84113384fffdfe3,688187d314c4ebace79b4454,,,,,,,,,,,,./stim/wavs/puertorican_match_declarative-broad-focus_Ana-lleva-el-abrigo.wav,0,,,126.2064,128.5056,0,1,1.7672,,0,32,32,62,1,63,0,puertorican,,,,,,,,,,,,,,,,,,,,,,,,,,,,,,,,,,,,,,,,,,,,,,,,,,,,,,,,
,,,,,,,,,6672f795fac6ecd66d7b987f,Mexican,13 or older,"no, only English or Spanish",no,2025-07-23_21h19.45.503,empathy_intonation_perc_control,2024.2.4,Win32,59.88023952,6672f795fac6ecd66d7b987f,68817205a84113384fffdfe3,688187d314c4ebace79b4454,,,,,,,,,,,,./stim/wavs/cuban_match_interrogative-total-yn_Ana-lleva-el-abrigo.wav,1,,,128.5062,130.5055,1,1,1.4647,,0,33,33,6,1,7,1,cuban,,,,,,,,,,,,,,,,,,,,,,,,,,,,,,,,,,,,,,,,,,,,,,,,,,,,,,,,
,,,,,,,,,6672f795fac6ecd66d7b987f,Mexican,13 or older,"no, only English or Spanish",no,2025-07-23_21h19.45.503,empathy_intonation_perc_control,2024.2.4,Win32,59.88023952,6672f795fac6ecd66d7b987f,68817205a84113384fffdfe3,688187d314c4ebace79b4454,,,,,,,,,,,,./stim/wavs/cuban_mismatch_declarative-broad-focus_Mi-tia-odia-la-lluvia.wav,0,,,130.5062,133.8383,0,1,2.7994,,0,34,34,77,1,78,0,cuban,,,,,,,,,,,,,,,,,,,,,,,,,,,,,,,,,,,,,,,,,,,,,,,,,,,,,,,,
,,,,,,,,,6672f795fac6ecd66d7b987f,Mexican,13 or older,"no, only English or Spanish",no,2025-07-23_21h19.45.503,empathy_intonation_perc_control,2024.2.4,Win32,59.88023952,6672f795fac6ecd66d7b987f,68817205a84113384fffdfe3,688187d314c4ebace79b4454,,,,,,,,,,,,./stim/wavs/puertorican_match_interrogative-total-yn_Emilio-ama-la-marcha.wav,1,,,133.839,136.0046,1,1,1.6327,,0,35,35,21,1,22,1,puertorican,,,,,,,,,,,,,,,,,,,,,,,,,,,,,,,,,,,,,,,,,,,,,,,,,,,,,,,,
,,,,,,,,,6672f795fac6ecd66d7b987f,Mexican,13 or older,"no, only English or Spanish",no,2025-07-23_21h19.45.503,empathy_intonation_perc_control,2024.2.4,Win32,59.88023952,6672f795fac6ecd66d7b987f,68817205a84113384fffdfe3,688187d314c4ebace79b4454,,,,,,,,,,,,./stim/wavs/castilian_match_interrogative-total-yn_Manuela-vende-el-carro.wav,1,,,136.0054,138.4044,1,1,1.8689,,0,36,36,2,1,3,0,castilian,,,,,,,,,,,,,,,,,,,,,,,,,,,,,,,,,,,,,,,,,,,,,,,,,,,,,,,,
,,,,,,,,,6672f795fac6ecd66d7b987f,Mexican,13 or older,"no, only English or Spanish",no,2025-07-23_21h19.45.503,empathy_intonation_perc_control,2024.2.4,Win32,59.88023952,6672f795fac6ecd66d7b987f,68817205a84113384fffdfe3,688187d314c4ebace79b4454,,,,,,,,,,,,./stim/wavs/castilian_match_declarative-broad-focus_Maria-bebe-el-vino.wav,0,,,138.4053,140.7873,0,1,1.8534,,0,37,37,47,1,48,0,castilian,,,,,,,,,,,,,,,,,,,,,,,,,,,,,,,,,,,,,,,,,,,,,,,,,,,,,,,,
,,,,,,,,,6672f795fac6ecd66d7b987f,Mexican,13 or older,"no, only English or Spanish",no,2025-07-23_21h19.45.503,empathy_intonation_perc_control,2024.2.4,Win32,59.88023952,6672f795fac6ecd66d7b987f,68817205a84113384fffdfe3,688187d314c4ebace79b4454,,,,,,,,,,,,./stim/wavs/castilian_mismatch_declarative-broad-focus_La-nina-lava-el-plato.wav,0,,,140.7882,143.3872,0,1,2.0639,,0,38,38,70,1,71,0,castilian,,,,,,,,,,,,,,,,,,,,,,,,,,,,,,,,,,,,,,,,,,,,,,,,,,,,,,,,
,,,,,,,,,6672f795fac6ecd66d7b987f,Mexican,13 or older,"no, only English or Spanish",no,2025-07-23_21h19.45.503,empathy_intonation_perc_control,2024.2.4,Win32,59.88023952,6672f795fac6ecd66d7b987f,68817205a84113384fffdfe3,688187d314c4ebace79b4454,,,,,,,,,,,,./stim/wavs/cuban_match_interrogative-total-yn_Daniel-iba-a-Bolivia.wav,1,,,143.3879,145.9201,1,1,1.9866,,0,39,39,7,1,8,1,cuban,,,,,,,,,,,,,,,,,,,,,,,,,,,,,,,,,,,,,,,,,,,,,,,,,,,,,,,,
,,,,,,,,,6672f795fac6ecd66d7b987f,Mexican,13 or older,"no, only English or Spanish",no,2025-07-23_21h19.45.503,empathy_intonation_perc_control,2024.2.4,Win32,59.88023952,6672f795fac6ecd66d7b987f,68817205a84113384fffdfe3,688187d314c4ebace79b4454,,,,,,,,,,,,./stim/wavs/castilian_match_interrogative-total-yn_Mariano-habla-del-tiempo.wav,1,,,145.9208,148.4699,1,1,2.017,,0,40,40,4,1,5,0,castilian,,,,,,,,,,,,,,,,,,,,,,,,,,,,,,,,,,,,,,,,,,,,,,,,,,,,,,,,
,,,,,,,,,6672f795fac6ecd66d7b987f,Mexican,13 or older,"no, only English or Spanish",no,2025-07-23_21h19.45.503,empathy_intonation_perc_control,2024.2.4,Win32,59.88023952,6672f795fac6ecd66d7b987f,68817205a84113384fffdfe3,688187d314c4ebace79b4454,,,,,,,,,,,,./stim/wavs/castilian_mismatch_interrogative-total-yn_La-maestra-vive-en-Paris.wav,1,,,148.4707,151.1694,1,1,2.1666,,0,41,41,24,1,25,0,castilian,,,,,,,,,,,,,,,,,,,,,,,,,,,,,,,,,,,,,,,,,,,,,,,,,,,,,,,,
,,,,,,,,,6672f795fac6ecd66d7b987f,Mexican,13 or older,"no, only English or Spanish",no,2025-07-23_21h19.45.503,empathy_intonation_perc_control,2024.2.4,Win32,59.88023952,6672f795fac6ecd66d7b987f,68817205a84113384fffdfe3,688187d314c4ebace79b4454,,,,,,,,,,,,./stim/wavs/cuban_mismatch_declarative-broad-focus_El-bebe-comia-muy-bien.wav,0,,,151.1704,153.2692,0,1,1.5669,,0,42,42,73,1,74,0,cuban,,,,,,,,,,,,,,,,,,,,,,,,,,,,,,,,,,,,,,,,,,,,,,,,,,,,,,,,
,,,,,,,,,6672f795fac6ecd66d7b987f,Mexican,13 or older,"no, only English or Spanish",no,2025-07-23_21h19.45.503,empathy_intonation_perc_control,2024.2.4,Win32,59.88023952,6672f795fac6ecd66d7b987f,68817205a84113384fffdfe3,688187d314c4ebace79b4454,,,,,,,,,,,,./stim/wavs/cuban_match_declarative-broad-focus_Daniel-iba-a-Bolivia.wav,0,,,153.27,156.1354,1,0,2.3349,,0,43,43,51,1,52,0,cuban,,,,,,,,,,,,,,,,,,,,,,,,,,,,,,,,,,,,,,,,,,,,,,,,,,,,,,,,
,,,,,,,,,6672f795fac6ecd66d7b987f,Mexican,13 or older,"no, only English or Spanish",no,2025-07-23_21h19.45.503,empathy_intonation_perc_control,2024.2.4,Win32,59.88023952,6672f795fac6ecd66d7b987f,68817205a84113384fffdfe3,688187d314c4ebace79b4454,,,,,,,,,,,,./stim/wavs/cuban_match_declarative-broad-focus_Maria-bebe-el-vino.wav,0,,,156.1361,159.6853,0,1,3.0187,,0,44,44,53,1,54,0,cuban,,,,,,,,,,,,,,,,,,,,,,,,,,,,,,,,,,,,,,,,,,,,,,,,,,,,,,,,
,,,,,,,,,6672f795fac6ecd66d7b987f,Mexican,13 or older,"no, only English or Spanish",no,2025-07-23_21h19.45.503,empathy_intonation_perc_control,2024.2.4,Win32,59.88023952,6672f795fac6ecd66d7b987f,68817205a84113384fffdfe3,688187d314c4ebace79b4454,,,,,,,,,,,,./stim/wavs/castilian_mismatch_declarative-broad-focus_La-maestra-vive-en-Paris.wav,0,,,159.6862,163.7845,1,0,3.5664,,0,45,45,69,1,70,0,castilian,,,,,,,,,,,,,,,,,,,,,,,,,,,,,,,,,,,,,,,,,,,,,,,,,,,,,,,,
,,,,,,,,,6672f795fac6ecd66d7b987f,Mexican,13 or older,"no, only English or Spanish",no,2025-07-23_21h19.45.503,empathy_intonation_perc_control,2024.2.4,Win32,59.88023952,6672f795fac6ecd66d7b987f,68817205a84113384fffdfe3,688187d314c4ebace79b4454,,,,,,,,,,,,./stim/wavs/mexican_mismatch_declarative-broad-focus_El-bebe-comia-muy-bien.wav,0,,,163.7853,174.3668,1,0,10.0487,,0,46,46,78,1,79,0,mexican,,,,,,,,,,,,,,,,,,,,,,,,,,,,,,,,,,,,,,,,,,,,,,,,,,,,,,,,
,,,,,,,,,6672f795fac6ecd66d7b987f,Mexican,13 or older,"no, only English or Spanish",no,2025-07-23_21h19.45.503,empathy_intonation_perc_control,2024.2.4,Win32,59.88023952,6672f795fac6ecd66d7b987f,68817205a84113384fffdfe3,688187d314c4ebace79b4454,,,,,,,,,,,,./stim/wavs/cuban_mismatch_declarative-broad-focus_La-nina-lava-el-plato.wav,0,,,174.3677,176.6997,0,1,1.7988,,0,47,47,75,1,76,0,cuban,,,,,,,,,,,,,,,,,,,,,,,,,,,,,,,,,,,,,,,,,,,,,,,,,,,,,,,,
,,,,,,,,,6672f795fac6ecd66d7b987f,Mexican,13 or older,"no, only English or Spanish",no,2025-07-23_21h19.45.503,empathy_intonation_perc_control,2024.2.4,Win32,59.88023952,6672f795fac6ecd66d7b987f,68817205a84113384fffdfe3,688187d314c4ebace79b4454,,,,,,,,,,,,./stim/wavs/castilian_match_interrogative-total-yn_Emilio-ama-la-marcha.wav,1,,,176.7007,179.816,1,1,2.5847,,0,48,48,1,1,2,0,castilian,,,,,,,,,,,,,,,,,,,,,,,,,,,,,,,,,,,,,,,,,,,,,,,,,,,,,,,,
,,,,,,,,,6672f795fac6ecd66d7b987f,Mexican,13 or older,"no, only English or Spanish",no,2025-07-23_21h19.45.503,empathy_intonation_perc_control,2024.2.4,Win32,59.88023952,6672f795fac6ecd66d7b987f,68817205a84113384fffdfe3,688187d314c4ebace79b4454,,,,,,,,,,,,./stim/wavs/cuban_mismatch_declarative-broad-focus_Mi-novio-viene-del-lago.wav,0,,,179.8167,182.1657,0,1,1.817,,0,49,49,76,1,77,0,cuban,,,,,,,,,,,,,,,,,,,,,,,,,,,,,,,,,,,,,,,,,,,,,,,,,,,,,,,,
,,,,,,,,,6672f795fac6ecd66d7b987f,Mexican,13 or older,"no, only English or Spanish",no,2025-07-23_21h19.45.503,empathy_intonation_perc_control,2024.2.4,Win32,59.88023952,6672f795fac6ecd66d7b987f,68817205a84113384fffdfe3,688187d314c4ebace79b4454,,,,,,,,,,,,./stim/wavs/puertorican_mismatch_declarative-broad-focus_El-nino-oye-el-rio.wav,0,,,182.1664,184.4323,0,1,1.7333,,0,50,50,85,1,86,0,puertorican,,,,,,,,,,,,,,,,,,,,,,,,,,,,,,,,,,,,,,,,,,,,,,,,,,,,,,,,
,,,,,,,,,6672f795fac6ecd66d7b987f,Mexican,13 or older,"no, only English or Spanish",no,2025-07-23_21h19.45.503,empathy_intonation_perc_control,2024.2.4,Win32,59.88023952,6672f795fac6ecd66d7b987f,68817205a84113384fffdfe3,688187d314c4ebace79b4454,,,,,,,,,,,,./stim/wavs/mexican_mismatch_declarative-broad-focus_Mi-tia-odia-la-lluvia.wav,0,,,184.4332,186.9985,1,0,2.0334,,0,51,51,82,1,83,0,mexican,,,,,,,,,,,,,,,,,,,,,,,,,,,,,,,,,,,,,,,,,,,,,,,,,,,,,,,,
,,,,,,,,,6672f795fac6ecd66d7b987f,Mexican,13 or older,"no, only English or Spanish",no,2025-07-23_21h19.45.503,empathy_intonation_perc_control,2024.2.4,Win32,59.88023952,6672f795fac6ecd66d7b987f,68817205a84113384fffdfe3,688187d314c4ebace79b4454,,,,,,,,,,,,./stim/wavs/puertorican_match_interrogative-total-yn_David-leia-el-libro.wav,1,,,186.9995,189.5647,0,0,2.0316,,0,52,52,20,1,21,1,puertorican,,,,,,,,,,,,,,,,,,,,,,,,,,,,,,,,,,,,,,,,,,,,,,,,,,,,,,,,
,,,,,,,,,6672f795fac6ecd66d7b987f,Mexican,13 or older,"no, only English or Spanish",no,2025-07-23_21h19.45.503,empathy_intonation_perc_control,2024.2.4,Win32,59.88023952,6672f795fac6ecd66d7b987f,68817205a84113384fffdfe3,688187d314c4ebace79b4454,,,,,,,,,,,,./stim/wavs/puertorican_mismatch_interrogative-total-yn_La-maestra-vive-en-Paris.wav,1,,,189.5654,191.8644,1,1,1.7672,,0,53,53,41,1,42,1,puertorican,,,,,,,,,,,,,,,,,,,,,,,,,,,,,,,,,,,,,,,,,,,,,,,,,,,,,,,,
,,,,,,,,,6672f795fac6ecd66d7b987f,Mexican,13 or older,"no, only English or Spanish",no,2025-07-23_21h19.45.503,empathy_intonation_perc_control,2024.2.4,Win32,59.88023952,6672f795fac6ecd66d7b987f,68817205a84113384fffdfe3,688187d314c4ebace79b4454,,,,,,,,,,,,./stim/wavs/castilian_mismatch_interrogative-total-yn_Mi-tia-odia-la-lluvia.wav,1,,,191.8654,194.131,1,1,1.7366,,0,54,54,28,1,29,0,castilian,,,,,,,,,,,,,,,,,,,,,,,,,,,,,,,,,,,,,,,,,,,,,,,,,,,,,,,,
,,,,,,,,,6672f795fac6ecd66d7b987f,Mexican,13 or older,"no, only English or Spanish",no,2025-07-23_21h19.45.503,empathy_intonation_perc_control,2024.2.4,Win32,59.88023952,6672f795fac6ecd66d7b987f,68817205a84113384fffdfe3,688187d314c4ebace79b4454,,,,,,,,,,,,./stim/wavs/mexican_match_interrogative-total-yn_David-leia-el-libro.wav,1,,,194.132,196.397,1,1,1.7337,,0,55,55,14,1,15,0,mexican,,,,,,,,,,,,,,,,,,,,,,,,,,,,,,,,,,,,,,,,,,,,,,,,,,,,,,,,
,,,,,,,,,6672f795fac6ecd66d7b987f,Mexican,13 or older,"no, only English or Spanish",no,2025-07-23_21h19.45.503,empathy_intonation_perc_control,2024.2.4,Win32,59.88023952,6672f795fac6ecd66d7b987f,68817205a84113384fffdfe3,688187d314c4ebace79b4454,,,,,,,,,,,,./stim/wavs/mexican_match_declarative-broad-focus_Ana-lleva-el-abrigo.wav,0,,,196.3975,198.6471,1,0,1.7181,,0,56,56,56,1,57,0,mexican,,,,,,,,,,,,,,,,,,,,,,,,,,,,,,,,,,,,,,,,,,,,,,,,,,,,,,,,
,,,,,,,,,6672f795fac6ecd66d7b987f,Mexican,13 or older,"no, only English or Spanish",no,2025-07-23_21h19.45.503,empathy_intonation_perc_control,2024.2.4,Win32,59.88023952,6672f795fac6ecd66d7b987f,68817205a84113384fffdfe3,688187d314c4ebace79b4454,,,,,,,,,,,,./stim/wavs/puertorican_match_interrogative-total-yn_Ana-lleva-el-abrigo.wav,1,,,198.6478,200.8134,1,1,1.6335,,0,57,57,18,1,19,1,puertorican,,,,,,,,,,,,,,,,,,,,,,,,,,,,,,,,,,,,,,,,,,,,,,,,,,,,,,,,
,,,,,,,,,6672f795fac6ecd66d7b987f,Mexican,13 or older,"no, only English or Spanish",no,2025-07-23_21h19.45.503,empathy_intonation_perc_control,2024.2.4,Win32,59.88023952,6672f795fac6ecd66d7b987f,68817205a84113384fffdfe3,688187d314c4ebace79b4454,,,,,,,,,,,,./stim/wavs/puertorican_mismatch_declarative-broad-focus_El-bebe-comia-muy-bien.wav,0,,,200.8144,202.7964,0,1,1.4478,,0,58,58,83,1,84,0,puertorican,,,,,,,,,,,,,,,,,,,,,,,,,,,,,,,,,,,,,,,,,,,,,,,,,,,,,,,,
,,,,,,,,,6672f795fac6ecd66d7b987f,Mexican,13 or older,"no, only English or Spanish",no,2025-07-23_21h19.45.503,empathy_intonation_perc_control,2024.2.4,Win32,59.88023952,6672f795fac6ecd66d7b987f,68817205a84113384fffdfe3,688187d314c4ebace79b4454,,,,,,,,,,,,./stim/wavs/puertorican_match_interrogative-total-yn_Daniel-iba-a-Bolivia.wav,1,,,202.797,205.1293,0,0,1.8016,,0,59,59,19,1,20,1,puertorican,,,,,,,,,,,,,,,,,,,,,,,,,,,,,,,,,,,,,,,,,,,,,,,,,,,,,,,,
,,,,,,,,,6672f795fac6ecd66d7b987f,Mexican,13 or older,"no, only English or Spanish",no,2025-07-23_21h19.45.503,empathy_intonation_perc_control,2024.2.4,Win32,59.88023952,6672f795fac6ecd66d7b987f,68817205a84113384fffdfe3,688187d314c4ebace79b4454,,,,,,,,,,,,./stim/wavs/cuban_mismatch_declarative-broad-focus_El-hombre-mira-la-luna.wav,0,,,205.1299,207.0461,0,1,1.3825,,0,60,60,74,1,75,0,cuban,,,,,,,,,,,,,,,,,,,,,,,,,,,,,,,,,,,,,,,,,,,,,,,,,,,,,,,,
,,,,,,,,,6672f795fac6ecd66d7b987f,Mexican,13 or older,"no, only English or Spanish",no,2025-07-23_21h19.45.503,empathy_intonation_perc_control,2024.2.4,Win32,59.88023952,6672f795fac6ecd66d7b987f,68817205a84113384fffdfe3,688187d314c4ebace79b4454,,,,,,,,,,,,./stim/wavs/mexican_match_declarative-broad-focus_Mariano-habla-del-tiempo.wav,0,,,207.0469,209.2454,0,1,1.6667,,0,61,61,60,1,61,0,mexican,,,,,,,,,,,,,,,,,,,,,,,,,,,,,,,,,,,,,,,,,,,,,,,,,,,,,,,,
,,,,,,,,,6672f795fac6ecd66d7b987f,Mexican,13 or older,"no, only English or Spanish",no,2025-07-23_21h19.45.503,empathy_intonation_perc_control,2024.2.4,Win32,59.88023952,6672f795fac6ecd66d7b987f,68817205a84113384fffdfe3,688187d314c4ebace79b4454,,,,,,,,,,,,./stim/wavs/castilian_mismatch_interrogative-total-yn_Mi-madre-come-la-fruta.wav,1,,,209.2459,211.5957,1,1,1.8188,,0,62,62,26,1,27,0,castilian,,,,,,,,,,,,,,,,,,,,,,,,,,,,,,,,,,,,,,,,,,,,,,,,,,,,,,,,
,,,,,,,,,6672f795fac6ecd66d7b987f,Mexican,13 or older,"no, only English or Spanish",no,2025-07-23_21h19.45.503,empathy_intonation_perc_control,2024.2.4,Win32,59.88023952,6672f795fac6ecd66d7b987f,68817205a84113384fffdfe3,688187d314c4ebace79b4454,,,,,,,,,,,,./stim/wavs/castilian_match_declarative-broad-focus_David-leia-el-libro.wav,0,,,211.5967,213.9949,0,1,1.8647,,0,63,63,44,1,45,0,castilian,,,,,,,,,,,,,,,,,,,,,,,,,,,,,,,,,,,,,,,,,,,,,,,,,,,,,,,,
,,,,,,,,,6672f795fac6ecd66d7b987f,Mexican,13 or older,"no, only English or Spanish",no,2025-07-23_21h19.45.503,empathy_intonation_perc_control,2024.2.4,Win32,59.88023952,6672f795fac6ecd66d7b987f,68817205a84113384fffdfe3,688187d314c4ebace79b4454,,,,,,,,,,,,./stim/wavs/mexican_match_interrogative-total-yn_Marta-abre-el-regalo.wav,1,,,213.9954,216.1115,1,1,1.5869,,0,64,64,17,1,18,0,mexican,,,,,,,,,,,,,,,,,,,,,,,,,,,,,,,,,,,,,,,,,,,,,,,,,,,,,,,,
,,,,,,,,,6672f795fac6ecd66d7b987f,Mexican,13 or older,"no, only English or Spanish",no,2025-07-23_21h19.45.503,empathy_intonation_perc_control,2024.2.4,Win32,59.88023952,6672f795fac6ecd66d7b987f,68817205a84113384fffdfe3,688187d314c4ebace79b4454,,,,,,,,,,,,./stim/wavs/puertorican_match_interrogative-total-yn_Manuela-vende-el-carro.wav,1,,,216.1121,218.6947,0,0,2.05,,0,65,65,22,1,23,1,puertorican,,,,,,,,,,,,,,,,,,,,,,,,,,,,,,,,,,,,,,,,,,,,,,,,,,,,,,,,
,,,,,,,,,6672f795fac6ecd66d7b987f,Mexican,13 or older,"no, only English or Spanish",no,2025-07-23_21h19.45.503,empathy_intonation_perc_control,2024.2.4,Win32,59.88023952,6672f795fac6ecd66d7b987f,68817205a84113384fffdfe3,688187d314c4ebace79b4454,,,,,,,,,,,,./stim/wavs/mexican_match_interrogative-total-yn_Emilio-ama-la-marcha.wav,1,,,218.6954,220.9443,1,1,1.715,,0,66,66,15,1,16,0,mexican,,,,,,,,,,,,,,,,,,,,,,,,,,,,,,,,,,,,,,,,,,,,,,,,,,,,,,,,
,,,,,,,,,6672f795fac6ecd66d7b987f,Mexican,13 or older,"no, only English or Spanish",no,2025-07-23_21h19.45.503,empathy_intonation_perc_control,2024.2.4,Win32,59.88023952,6672f795fac6ecd66d7b987f,68817205a84113384fffdfe3,688187d314c4ebace79b4454,,,,,,,,,,,,./stim/wavs/cuban_match_interrogative-total-yn_Maria-bebe-el-vino.wav,1,,,220.9451,223.9774,1,1,2.5021,,0,67,67,9,1,10,1,cuban,,,,,,,,,,,,,,,,,,,,,,,,,,,,,,,,,,,,,,,,,,,,,,,,,,,,,,,,
,,,,,,,,,6672f795fac6ecd66d7b987f,Mexican,13 or older,"no, only English or Spanish",no,2025-07-23_21h19.45.503,empathy_intonation_perc_control,2024.2.4,Win32,59.88023952,6672f795fac6ecd66d7b987f,68817205a84113384fffdfe3,688187d314c4ebace79b4454,,,,,,,,,,,,./stim/wavs/puertorican_match_interrogative-total-yn_Maria-bebe-el-vino.wav,1,,,223.9781,226.2272,0,0,1.7168,,0,68,68,23,1,24,1,puertorican,,,,,,,,,,,,,,,,,,,,,,,,,,,,,,,,,,,,,,,,,,,,,,,,,,,,,,,,
,,,,,,,,,6672f795fac6ecd66d7b987f,Mexican,13 or older,"no, only English or Spanish",no,2025-07-23_21h19.45.503,empathy_intonation_perc_control,2024.2.4,Win32,59.88023952,6672f795fac6ecd66d7b987f,68817205a84113384fffdfe3,688187d314c4ebace79b4454,,,,,,,,,,,,./stim/wavs/puertorican_mismatch_interrogative-total-yn_El-hombre-mira-la-luna.wav,1,,,226.2283,228.5274,0,0,1.7706,,0,69,69,39,1,40,1,puertorican,,,,,,,,,,,,,,,,,,,,,,,,,,,,,,,,,,,,,,,,,,,,,,,,,,,,,,,,
,,,,,,,,,6672f795fac6ecd66d7b987f,Mexican,13 or older,"no, only English or Spanish",no,2025-07-23_21h19.45.503,empathy_intonation_perc_control,2024.2.4,Win32,59.88023952,6672f795fac6ecd66d7b987f,68817205a84113384fffdfe3,688187d314c4ebace79b4454,,,,,,,,,,,,./stim/wavs/cuban_mismatch_interrogative-total-yn_El-nino-oye-el-rio.wav,1,,,228.5283,231.9761,0,0,2.9176,,0,70,70,30,1,31,1,cuban,,,,,,,,,,,,,,,,,,,,,,,,,,,,,,,,,,,,,,,,,,,,,,,,,,,,,,,,
,,,,,,,,,6672f795fac6ecd66d7b987f,Mexican,13 or older,"no, only English or Spanish",no,2025-07-23_21h19.45.503,empathy_intonation_perc_control,2024.2.4,Win32,59.88023952,6672f795fac6ecd66d7b987f,68817205a84113384fffdfe3,688187d314c4ebace79b4454,,,,,,,,,,,,./stim/wavs/cuban_mismatch_interrogative-total-yn_Mi-tia-odia-la-lluvia.wav,1,,,231.9767,235.1594,0,0,2.6504,,0,71,71,33,1,34,1,cuban,,,,,,,,,,,,,,,,,,,,,,,,,,,,,,,,,,,,,,,,,,,,,,,,,,,,,,,,
,,,,,,,,,6672f795fac6ecd66d7b987f,Mexican,13 or older,"no, only English or Spanish",no,2025-07-23_21h19.45.503,empathy_intonation_perc_control,2024.2.4,Win32,59.88023952,6672f795fac6ecd66d7b987f,68817205a84113384fffdfe3,688187d314c4ebace79b4454,,,,,,,,,,,,./stim/wavs/puertorican_match_declarative-broad-focus_Daniel-iba-a-Bolivia.wav,0,,,235.1599,238.1089,1,0,2.4164,,0,72,72,63,1,64,0,puertorican,,,,,,,,,,,,,,,,,,,,,,,,,,,,,,,,,,,,,,,,,,,,,,,,,,,,,,,,
,,,,,,,,,6672f795fac6ecd66d7b987f,Mexican,13 or older,"no, only English or Spanish",no,2025-07-23_21h19.45.503,empathy_intonation_perc_control,2024.2.4,Win32,59.88023952,6672f795fac6ecd66d7b987f,68817205a84113384fffdfe3,688187d314c4ebace79b4454,,,,,,,,,,,,./stim/wavs/puertorican_match_declarative-broad-focus_Maria-bebe-el-vino.wav,0,,,238.1096,240.2927,1,0,1.6537,,0,73,73,67,1,68,0,puertorican,,,,,,,,,,,,,,,,,,,,,,,,,,,,,,,,,,,,,,,,,,,,,,,,,,,,,,,,
,,,,,,,,,6672f795fac6ecd66d7b987f,Mexican,13 or older,"no, only English or Spanish",no,2025-07-23_21h19.45.503,empathy_intonation_perc_control,2024.2.4,Win32,59.88023952,6672f795fac6ecd66d7b987f,68817205a84113384fffdfe3,688187d314c4ebace79b4454,,,,,,,,,,,,./stim/wavs/cuban_match_declarative-broad-focus_Ana-lleva-el-abrigo.wav,0,,,240.2938,243.1039,0,1,2.2827,,0,74,74,50,1,51,0,cuban,,,,,,,,,,,,,,,,,,,,,,,,,,,,,,,,,,,,,,,,,,,,,,,,,,,,,,,,
,,,,,,,,,6672f795fac6ecd66d7b987f,Mexican,13 or older,"no, only English or Spanish",no,2025-07-23_21h19.45.503,empathy_intonation_perc_control,2024.2.4,Win32,59.88023952,6672f795fac6ecd66d7b987f,68817205a84113384fffdfe3,688187d314c4ebace79b4454,,,,,,,,,,,,./stim/wavs/castilian_mismatch_interrogative-total-yn_La-nina-lava-el-plato.wav,1,,,243.1042,245.3748,1,1,1.75,,0,75,75,25,1,26,0,castilian,,,,,,,,,,,,,,,,,,,,,,,,,,,,,,,,,,,,,,,,,,,,,,,,,,,,,,,,
,,,,,,,,,6672f795fac6ecd66d7b987f,Mexican,13 or older,"no, only English or Spanish",no,2025-07-23_21h19.45.503,empathy_intonation_perc_control,2024.2.4,Win32,59.88023952,6672f795fac6ecd66d7b987f,68817205a84113384fffdfe3,688187d314c4ebace79b4454,,,,,,,,,,,,./stim/wavs/castilian_match_declarative-broad-focus_Mariano-habla-del-tiempo.wav,0,,,245.3754,247.8078,0,1,1.9,,0,76,76,48,1,49,0,castilian,,,,,,,,,,,,,,,,,,,,,,,,,,,,,,,,,,,,,,,,,,,,,,,,,,,,,,,,
,,,,,,,,,6672f795fac6ecd66d7b987f,Mexican,13 or older,"no, only English or Spanish",no,2025-07-23_21h19.45.503,empathy_intonation_perc_control,2024.2.4,Win32,59.88023952,6672f795fac6ecd66d7b987f,68817205a84113384fffdfe3,688187d314c4ebace79b4454,,,,,,,,,,,,./stim/wavs/mexican_match_declarative-broad-focus_Emilio-ama-la-marcha.wav,0,,,247.8086,250.2741,1,0,1.9331,,0,77,77,59,1,60,0,mexican,,,,,,,,,,,,,,,,,,,,,,,,,,,,,,,,,,,,,,,,,,,,,,,,,,,,,,,,
,,,,,,,,,6672f795fac6ecd66d7b987f,Mexican,13 or older,"no, only English or Spanish",no,2025-07-23_21h19.45.503,empathy_intonation_perc_control,2024.2.4,Win32,59.88023952,6672f795fac6ecd66d7b987f,68817205a84113384fffdfe3,688187d314c4ebace79b4454,,,,,,,,,,,,./stim/wavs/mexican_match_interrogative-total-yn_Mariano-habla-del-tiempo.wav,1,,,250.2749,252.9905,1,1,2.1833,,0,78,78,16,1,17,0,mexican,,,,,,,,,,,,,,,,,,,,,,,,,,,,,,,,,,,,,,,,,,,,,,,,,,,,,,,,
,,,,,,,,,6672f795fac6ecd66d7b987f,Mexican,13 or older,"no, only English or Spanish",no,2025-07-23_21h19.45.503,empathy_intonation_perc_control,2024.2.4,Win32,59.88023952,6672f795fac6ecd66d7b987f,68817205a84113384fffdfe3,688187d314c4ebace79b4454,,,,,,,,,,,,./stim/wavs/mexican_mismatch_interrogative-total-yn_Mi-tia-odia-la-lluvia.wav,1,,,252.9913,255.2901,1,1,1.7663,,0,79,79,38,1,39,0,mexican,,,,,,,,,,,,,,,,,,,,,,,,,,,,,,,,,,,,,,,,,,,,,,,,,,,,,,,,
,,,,,,,,,6672f795fac6ecd66d7b987f,Mexican,13 or older,"no, only English or Spanish",no,2025-07-23_21h19.45.503,empathy_intonation_perc_control,2024.2.4,Win32,59.88023952,6672f795fac6ecd66d7b987f,68817205a84113384fffdfe3,688187d314c4ebace79b4454,,,,,,,,,,,,./stim/wavs/castilian_mismatch_declarative-broad-focus_Mi-novio-viene-del-lago.wav,0,,,255.2908,257.6564,0,1,1.8342,,0,80,80,71,1,72,0,castilian,,,,,,,,,,,,,,,,,,,,,,,,,,,,,,,,,,,,,,,,,,,,,,,,,,,,,,,,
,,,,,,,,,6672f795fac6ecd66d7b987f,Mexican,13 or older,"no, only English or Spanish",no,2025-07-23_21h19.45.503,empathy_intonation_perc_control,2024.2.4,Win32,59.88023952,6672f795fac6ecd66d7b987f,68817205a84113384fffdfe3,688187d314c4ebace79b4454,,,,,,,,,,,,./stim/wavs/cuban_match_interrogative-total-yn_Marta-abre-el-regalo.wav,1,,,257.657,260.0062,1,1,1.8162,,0,81,81,11,1,12,1,cuban,,,,,,,,,,,,,,,,,,,,,,,,,,,,,,,,,,,,,,,,,,,,,,,,,,,,,,,,
,,,,,,,,,6672f795fac6ecd66d7b987f,Mexican,13 or older,"no, only English or Spanish",no,2025-07-23_21h19.45.503,empathy_intonation_perc_control,2024.2.4,Win32,59.88023952,6672f795fac6ecd66d7b987f,68817205a84113384fffdfe3,688187d314c4ebace79b4454,,,,,,,,,,,,./stim/wavs/mexican_mismatch_interrogative-total-yn_El-nino-oye-el-rio.wav,1,,,260.0069,262.3225,1,1,1.7834,,0,82,82,35,1,36,0,mexican,,,,,,,,,,,,,,,,,,,,,,,,,,,,,,,,,,,,,,,,,,,,,,,,,,,,,,,,
,,,,,,,,,6672f795fac6ecd66d7b987f,Mexican,13 or older,"no, only English or Spanish",no,2025-07-23_21h19.45.503,empathy_intonation_perc_control,2024.2.4,Win32,59.88023952,6672f795fac6ecd66d7b987f,68817205a84113384fffdfe3,688187d314c4ebace79b4454,,,,,,,,,,,,./stim/wavs/mexican_mismatch_interrogative-total-yn_La-maestra-vive-en-Paris.wav,1,,,262.3231,265.0888,1,1,2.2362,,0,83,83,36,1,37,0,mexican,,,,,,,,,,,,,,,,,,,,,,,,,,,,,,,,,,,,,,,,,,,,,,,,,,,,,,,,
,,,,,,,,,6672f795fac6ecd66d7b987f,Mexican,13 or older,"no, only English or Spanish",no,2025-07-23_21h19.45.503,empathy_intonation_perc_control,2024.2.4,Win32,59.88023952,6672f795fac6ecd66d7b987f,68817205a84113384fffdfe3,688187d314c4ebace79b4454,,,,,,,,,,,,./stim/wavs/mexican_match_interrogative-total-yn_Ana-lleva-el-abrigo.wav,1,,,265.0895,267.5219,1,1,1.8999,,0,84,84,12,1,13,0,mexican,,,,,,,,,,,,,,,,,,,,,,,,,,,,,,,,,,,,,,,,,,,,,,,,,,,,,,,,
,,,,,,,,,6672f795fac6ecd66d7b987f,Mexican,13 or older,"no, only English or Spanish",no,2025-07-23_21h19.45.503,empathy_intonation_perc_control,2024.2.4,Win32,59.88023952,6672f795fac6ecd66d7b987f,68817205a84113384fffdfe3,688187d314c4ebace79b4454,,,,,,,,,,,,./stim/wavs/puertorican_mismatch_interrogative-total-yn_La-nina-lava-el-plato.wav,1,,,267.5227,269.505,0,0,1.45,,0,85,85,42,1,43,1,puertorican,,,,,,,,,,,,,,,,,,,,,,,,,,,,,,,,,,,,,,,,,,,,,,,,,,,,,,,,
,,,,,,,,,6672f795fac6ecd66d7b987f,Mexican,13 or older,"no, only English or Spanish",no,2025-07-23_21h19.45.503,empathy_intonation_perc_control,2024.2.4,Win32,59.88023952,6672f795fac6ecd66d7b987f,68817205a84113384fffdfe3,688187d314c4ebace79b4454,,,,,,,,,,,,./stim/wavs/mexican_mismatch_declarative-broad-focus_La-maestra-vive-en-Paris.wav,0,,,269.5055,271.6382,0,1,1.6015,,0,86,86,80,1,81,0,mexican,,,,,,,,,,,,,,,,,,,,,,,,,,,,,,,,,,,,,,,,,,,,,,,,,,,,,,,,
,,,,,,,,,6672f795fac6ecd66d7b987f,Mexican,13 or older,"no, only English or Spanish",no,2025-07-23_21h19.45.503,empathy_intonation_perc_control,2024.2.4,Win32,59.88023952,6672f795fac6ecd66d7b987f,68817205a84113384fffdfe3,688187d314c4ebace79b4454,,,,,,,,,,,,./stim/wavs/castilian_mismatch_interrogative-total-yn_Mi-novio-viene-del-lago.wav,1,,,271.6392,274.1341,1,1,1.9666,,0,87,87,27,1,28,0,castilian,,,,,,,,,,,,,,,,,,,,,,,,,,,,,,,,,,,,,,,,,,,,,,,,,,,,,,,,
,,,,,,,"Great! Now we will move on. The next task consists of about 60 trials, in each of which you will see a string of letters. 
  
  Your task is to decide whether this is a real Spanish word or not.", (press the spacebar to continue),6672f795fac6ecd66d7b987f,Mexican,13 or older,"no, only English or Spanish",no,2025-07-23_21h19.45.503,empathy_intonation_perc_control,2024.2.4,Win32,59.88023952,6672f795fac6ecd66d7b987f,68817205a84113384fffdfe3,688187d314c4ebace79b4454,,,,,,,,,,,,,,,,,,,,,,,,,,,,,,274.1406,279.0213,0,0,0,0,1,,,,,,,,,,,,,,,,,,,,,,,,,,,,,,,,,,,,,,,,,,,,,,,,,
,,,,,,,"If you think it is an existing Spanish word, you type '1' (for 'REAL'), and if you think it is not an existing Spanish word, you type '0' (for 'FAKE').", (press the spacebar to continue),6672f795fac6ecd66d7b987f,Mexican,13 or older,"no, only English or Spanish",no,2025-07-23_21h19.45.503,empathy_intonation_perc_control,2024.2.4,Win32,59.88023952,6672f795fac6ecd66d7b987f,68817205a84113384fffdfe3,688187d314c4ebace79b4454,,,,,,,,,,,,,,,,,,,,,,,,,,,,,,279.0236,281.154,0,1,1,1,1,,,,,,,,,,,,,,,,,,,,,,,,,,,,,,,,,,,,,,,,,,,,,,,,,
,,,,,,,"If you are sure that the word exists, even though you don’t know its exact meaning, you may still respond '1' (REAL). 
  
  But if you are not sure if it is an existing word, you should respond '0' (FAKE).
  
  Let's do a practice round...", (press the spacebar to continue),6672f795fac6ecd66d7b987f,Mexican,13 or older,"no, only English or Spanish",no,2025-07-23_21h19.45.503,empathy_intonation_perc_control,2024.2.4,Win32,59.88023952,6672f795fac6ecd66d7b987f,68817205a84113384fffdfe3,688187d314c4ebace79b4454,,,,,,,,,,,,,,,,,,,,,,,,,,,,,,281.1575,286.0032,0,2,2,2,1,,,,,,,,,,,,,,,,,,,,,,,,,,,,,,,,,,,,,,,,,,,,,,,,,
,,,,,,,,,6672f795fac6ecd66d7b987f,Mexican,13 or older,"no, only English or Spanish",no,2025-07-23_21h19.45.503,empathy_intonation_perc_control,2024.2.4,Win32,59.88023952,6672f795fac6ecd66d7b987f,68817205a84113384fffdfe3,688187d314c4ebace79b4454,,,,,,,,,,,,,0,,,,,,,,,,,,,,,,,,,,,,,,286.0113,288.1198,1,0,1.5678,,288.1201,289.1196,0,0,0,0,1,0,depiste,REAL,FAKE,,,,,,,,,,,,,,,,,,,,,,,,,,,,,,,,
,,,,,,,,,6672f795fac6ecd66d7b987f,Mexican,13 or older,"no, only English or Spanish",no,2025-07-23_21h19.45.503,empathy_intonation_perc_control,2024.2.4,Win32,59.88023952,6672f795fac6ecd66d7b987f,68817205a84113384fffdfe3,688187d314c4ebace79b4454,,,,,,,,,,,,,1,,,,,,,,,,,,,,,,,,,,,,,,289.1214,290.5359,1,1,0.8671,,290.5375,291.5357,0,1,1,1,1,0,sí,REAL,FAKE,,,,,,,,,,,,,,,,,,,,,,,,,,,,,,,,
,,,,,,,,,6672f795fac6ecd66d7b987f,Mexican,13 or older,"no, only English or Spanish",no,2025-07-23_21h19.45.503,empathy_intonation_perc_control,2024.2.4,Win32,59.88023952,6672f795fac6ecd66d7b987f,68817205a84113384fffdfe3,688187d314c4ebace79b4454,,,,,,,,,,,,,0,,,,,,,,,,,,,,,,,,,,,,,,291.5373,293.3188,0,1,1.2338,,293.3189,294.3186,0,2,2,2,1,0,coné,REAL,FAKE,,,,,,,,,,,,,,,,,,,,,,,,,,,,,,,,
,,,,,,,,,6672f795fac6ecd66d7b987f,Mexican,13 or older,"no, only English or Spanish",no,2025-07-23_21h19.45.503,empathy_intonation_perc_control,2024.2.4,Win32,59.88023952,6672f795fac6ecd66d7b987f,68817205a84113384fffdfe3,688187d314c4ebace79b4454,,,,,,,,,,,,,0,,,,,,,,,,,,,,,,,,,,,,,,294.3202,295.952,0,1,1.0835,,295.9521,296.9518,0,3,3,3,1,0,calpar,REAL,FAKE,,,,,,,,,,,,,,,,,,,,,,,,,,,,,,,,
,,,,,,,,,6672f795fac6ecd66d7b987f,Mexican,13 or older,"no, only English or Spanish",no,2025-07-23_21h19.45.503,empathy_intonation_perc_control,2024.2.4,Win32,59.88023952,6672f795fac6ecd66d7b987f,68817205a84113384fffdfe3,688187d314c4ebace79b4454,,,,,,,,,,,,,0,,,,,,,,,,,,,,,,,,,,,,,,296.9535,298.4681,0,1,0.9651,,298.4681,299.4683,0,4,4,4,1,0,joten,REAL,FAKE,,,,,,,,,,,,,,,,,,,,,,,,,,,,,,,,
,,,,,,,,,6672f795fac6ecd66d7b987f,Mexican,13 or older,"no, only English or Spanish",no,2025-07-23_21h19.45.503,empathy_intonation_perc_control,2024.2.4,Win32,59.88023952,6672f795fac6ecd66d7b987f,68817205a84113384fffdfe3,688187d314c4ebace79b4454,,,,,,,,,,,,,1,,,,,,,,,,,,,,,,,,,,,,,,299.4697,301.6848,1,1,1.6687,,301.6849,302.6846,0,5,5,5,1,0,sacapuntas,REAL,FAKE,,,,,,,,,,,,,,,,,,,,,,,,,,,,,,,,
,,,,,,,,,6672f795fac6ecd66d7b987f,Mexican,13 or older,"no, only English or Spanish",no,2025-07-23_21h19.45.503,empathy_intonation_perc_control,2024.2.4,Win32,59.88023952,6672f795fac6ecd66d7b987f,68817205a84113384fffdfe3,688187d314c4ebace79b4454,,,,,,,,,,,,,0,,,,,,,,,,,,,,,,,,,,,,,,302.6866,304.0509,1,0,0.8176,,304.0518,305.051,0,6,6,6,1,0,priba,REAL,FAKE,,,,,,,,,,,,,,,,,,,,,,,,,,,,,,,,
,,,,,,,,,6672f795fac6ecd66d7b987f,Mexican,13 or older,"no, only English or Spanish",no,2025-07-23_21h19.45.503,empathy_intonation_perc_control,2024.2.4,Win32,59.88023952,6672f795fac6ecd66d7b987f,68817205a84113384fffdfe3,688187d314c4ebace79b4454,,,,,,,,,,,,,0,,,,,,,,,,,,,,,,,,,,,,,,305.0524,306.3837,1,0,0.7851,,306.384,307.3842,0,7,7,7,1,0,pelasula,REAL,FAKE,,,,,,,,,,,,,,,,,,,,,,,,,,,,,,,,
,,,,,,,,,6672f795fac6ecd66d7b987f,Mexican,13 or older,"no, only English or Spanish",no,2025-07-23_21h19.45.503,empathy_intonation_perc_control,2024.2.4,Win32,59.88023952,6672f795fac6ecd66d7b987f,68817205a84113384fffdfe3,688187d314c4ebace79b4454,,,,,,,,,,,,,1,,,,,,,,,,,,,,,,,,,,,,,,307.3858,308.8002,1,1,0.8668,,308.8011,309.8003,0,8,8,8,1,0,bien,REAL,FAKE,,,,,,,,,,,,,,,,,,,,,,,,,,,,,,,,
,,,,,,,,,6672f795fac6ecd66d7b987f,Mexican,13 or older,"no, only English or Spanish",no,2025-07-23_21h19.45.503,empathy_intonation_perc_control,2024.2.4,Win32,59.88023952,6672f795fac6ecd66d7b987f,68817205a84113384fffdfe3,688187d314c4ebace79b4454,,,,,,,,,,,,,1,,,,,,,,,,,,,,,,,,,,,,,,309.8019,311.0335,1,1,0.6836,,311.0335,312.0332,0,9,9,9,1,0,casa,REAL,FAKE,,,,,,,,,,,,,,,,,,,,,,,,,,,,,,,,
,,,,,,,,,6672f795fac6ecd66d7b987f,Mexican,13 or older,"no, only English or Spanish",no,2025-07-23_21h19.45.503,empathy_intonation_perc_control,2024.2.4,Win32,59.88023952,6672f795fac6ecd66d7b987f,68817205a84113384fffdfe3,688187d314c4ebace79b4454,,,,,,,,,,,,,0,,,,,,,,,,,,,,,,,,,,,,,,312.0348,313.483,1,0,0.9009,,313.4841,314.483,0,10,10,10,1,0,lejo,REAL,FAKE,,,,,,,,,,,,,,,,,,,,,,,,,,,,,,,,
,,,,,,,,,6672f795fac6ecd66d7b987f,Mexican,13 or older,"no, only English or Spanish",no,2025-07-23_21h19.45.503,empathy_intonation_perc_control,2024.2.4,Win32,59.88023952,6672f795fac6ecd66d7b987f,68817205a84113384fffdfe3,688187d314c4ebace79b4454,,,,,,,,,,,,,0,,,,,,,,,,,,,,,,,,,,,,,,314.4842,315.8325,1,0,0.7999,,315.8326,316.8327,0,11,11,11,1,0,pretantas,REAL,FAKE,,,,,,,,,,,,,,,,,,,,,,,,,,,,,,,,
,,,,,,,,,6672f795fac6ecd66d7b987f,Mexican,13 or older,"no, only English or Spanish",no,2025-07-23_21h19.45.503,empathy_intonation_perc_control,2024.2.4,Win32,59.88023952,6672f795fac6ecd66d7b987f,68817205a84113384fffdfe3,688187d314c4ebace79b4454,,,,,,,,,,,,,,,,,,,,,,,,,,,,,,,,,,,,,,,,,,,,,,,,,,,,,,316.8331,317.9163,,,,,,,,,,,,,,,,,,,,,,,,,,,,,,
,,,,,,,,,6672f795fac6ecd66d7b987f,Mexican,13 or older,"no, only English or Spanish",no,2025-07-23_21h19.45.503,empathy_intonation_perc_control,2024.2.4,Win32,59.88023952,6672f795fac6ecd66d7b987f,68817205a84113384fffdfe3,688187d314c4ebace79b4454,,,,,,,,,,,,,1,,,,,,,,,,,,,,,,,,,,,,,,,,,,,,,,,,,,,57,tacaño,,,,,317.935,319.2163,1,1,0.7344,,0,0,0,56,1,REAL,FAKE,,,,,,,,,,,,,,,,,
,,,,,,,,,6672f795fac6ecd66d7b987f,Mexican,13 or older,"no, only English or Spanish",no,2025-07-23_21h19.45.503,empathy_intonation_perc_control,2024.2.4,Win32,59.88023952,6672f795fac6ecd66d7b987f,68817205a84113384fffdfe3,688187d314c4ebace79b4454,,,,,,,,,,,,,1,,,,,,,,,,,,,,,,,,,,,,,,,,,,,,,,,,,,,22,lacayo,,,,,319.2178,320.749,0,0,0.9841,,0,1,1,21,1,REAL,FAKE,,,,,,,,,,,,,,,,,
,,,,,,,,,6672f795fac6ecd66d7b987f,Mexican,13 or older,"no, only English or Spanish",no,2025-07-23_21h19.45.503,empathy_intonation_perc_control,2024.2.4,Win32,59.88023952,6672f795fac6ecd66d7b987f,68817205a84113384fffdfe3,688187d314c4ebace79b4454,,,,,,,,,,,,,0,,,,,,,,,,,,,,,,,,,,,,,,,,,,,,,,,,,,,16,abracer,,,,,320.7505,322.0989,1,0,0.8008,,0,2,2,15,1,REAL,FAKE,,,,,,,,,,,,,,,,,
,,,,,,,,,6672f795fac6ecd66d7b987f,Mexican,13 or older,"no, only English or Spanish",no,2025-07-23_21h19.45.503,empathy_intonation_perc_control,2024.2.4,Win32,59.88023952,6672f795fac6ecd66d7b987f,68817205a84113384fffdfe3,688187d314c4ebace79b4454,,,,,,,,,,,,,0,,,,,,,,,,,,,,,,,,,,,,,,,,,,,,,,,,,,,53,vegada,,,,,322.1015,323.7325,1,0,1.0872,,0,3,3,52,1,REAL,FAKE,,,,,,,,,,,,,,,,,
,,,,,,,,,6672f795fac6ecd66d7b987f,Mexican,13 or older,"no, only English or Spanish",no,2025-07-23_21h19.45.503,empathy_intonation_perc_control,2024.2.4,Win32,59.88023952,6672f795fac6ecd66d7b987f,68817205a84113384fffdfe3,688187d314c4ebace79b4454,,,,,,,,,,,,,1,,,,,,,,,,,,,,,,,,,,,,,,,,,,,,,,,,,,,88,acantilado,,,,,323.734,325.3649,1,1,1.0846,,0,4,4,87,1,REAL,FAKE,,,,,,,,,,,,,,,,,
,,,,,,,,,6672f795fac6ecd66d7b987f,Mexican,13 or older,"no, only English or Spanish",no,2025-07-23_21h19.45.503,empathy_intonation_perc_control,2024.2.4,Win32,59.88023952,6672f795fac6ecd66d7b987f,68817205a84113384fffdfe3,688187d314c4ebace79b4454,,,,,,,,,,,,,0,,,,,,,,,,,,,,,,,,,,,,,,,,,,,,,,,,,,,74,cintro,,,,,325.3666,326.7652,1,0,0.851,,0,5,5,73,1,REAL,FAKE,,,,,,,,,,,,,,,,,
,,,,,,,,,6672f795fac6ecd66d7b987f,Mexican,13 or older,"no, only English or Spanish",no,2025-07-23_21h19.45.503,empathy_intonation_perc_control,2024.2.4,Win32,59.88023952,6672f795fac6ecd66d7b987f,68817205a84113384fffdfe3,688187d314c4ebace79b4454,,,,,,,,,,,,,1,,,,,,,,,,,,,,,,,,,,,,,,,,,,,,,,,,,,,83,guante,,,,,326.7671,328.5648,1,1,1.251,,0,6,6,82,1,REAL,FAKE,,,,,,,,,,,,,,,,,
,,,,,,,,,6672f795fac6ecd66d7b987f,Mexican,13 or older,"no, only English or Spanish",no,2025-07-23_21h19.45.503,empathy_intonation_perc_control,2024.2.4,Win32,59.88023952,6672f795fac6ecd66d7b987f,68817205a84113384fffdfe3,688187d314c4ebace79b4454,,,,,,,,,,,,,1,,,,,,,,,,,,,,,,,,,,,,,,,,,,,,,,,,,,,48,ladrón,,,,,328.5672,330.3311,0,0,1.2167,,0,7,7,47,1,REAL,FAKE,,,,,,,,,,,,,,,,,
,,,,,,,,,6672f795fac6ecd66d7b987f,Mexican,13 or older,"no, only English or Spanish",no,2025-07-23_21h19.45.503,empathy_intonation_perc_control,2024.2.4,Win32,59.88023952,6672f795fac6ecd66d7b987f,68817205a84113384fffdfe3,688187d314c4ebace79b4454,,,,,,,,,,,,,1,,,,,,,,,,,,,,,,,,,,,,,,,,,,,,,,,,,,,73,hervidor,,,,,330.3324,331.6975,0,0,0.8171,,0,8,8,72,1,REAL,FAKE,,,,,,,,,,,,,,,,,
,,,,,,,,,6672f795fac6ecd66d7b987f,Mexican,13 or older,"no, only English or Spanish",no,2025-07-23_21h19.45.503,empathy_intonation_perc_control,2024.2.4,Win32,59.88023952,6672f795fac6ecd66d7b987f,68817205a84113384fffdfe3,688187d314c4ebace79b4454,,,,,,,,,,,,,1,,,,,,,,,,,,,,,,,,,,,,,,,,,,,,,,,,,,,46,martillo,,,,,331.699,333.8806,0,0,1.6333,,0,9,9,45,1,REAL,FAKE,,,,,,,,,,,,,,,,,
,,,,,,,,,6672f795fac6ecd66d7b987f,Mexican,13 or older,"no, only English or Spanish",no,2025-07-23_21h19.45.503,empathy_intonation_perc_control,2024.2.4,Win32,59.88023952,6672f795fac6ecd66d7b987f,68817205a84113384fffdfe3,688187d314c4ebace79b4454,,,,,,,,,,,,,0,,,,,,,,,,,,,,,,,,,,,,,,,,,,,,,,,,,,,1,terzo,,,,,333.8824,335.314,0,1,0.8877,,0,10,10,0,1,REAL,FAKE,,,,,,,,,,,,,,,,,
,,,,,,,,,6672f795fac6ecd66d7b987f,Mexican,13 or older,"no, only English or Spanish",no,2025-07-23_21h19.45.503,empathy_intonation_perc_control,2024.2.4,Win32,59.88023952,6672f795fac6ecd66d7b987f,68817205a84113384fffdfe3,688187d314c4ebace79b4454,,,,,,,,,,,,,1,,,,,,,,,,,,,,,,,,,,,,,,,,,,,,,,,,,,,25,bisagra,,,,,335.3152,336.4803,1,1,0.6174,,0,11,11,24,1,REAL,FAKE,,,,,,,,,,,,,,,,,
,,,,,,,,,6672f795fac6ecd66d7b987f,Mexican,13 or older,"no, only English or Spanish",no,2025-07-23_21h19.45.503,empathy_intonation_perc_control,2024.2.4,Win32,59.88023952,6672f795fac6ecd66d7b987f,68817205a84113384fffdfe3,688187d314c4ebace79b4454,,,,,,,,,,,,,1,,,,,,,,,,,,,,,,,,,,,,,,,,,,,,,,,,,,,86,barato,,,,,336.4819,337.6134,1,1,0.5838,,0,12,12,85,1,REAL,FAKE,,,,,,,,,,,,,,,,,
,,,,,,,,,6672f795fac6ecd66d7b987f,Mexican,13 or older,"no, only English or Spanish",no,2025-07-23_21h19.45.503,empathy_intonation_perc_control,2024.2.4,Win32,59.88023952,6672f795fac6ecd66d7b987f,68817205a84113384fffdfe3,688187d314c4ebace79b4454,,,,,,,,,,,,,1,,,,,,,,,,,,,,,,,,,,,,,,,,,,,,,,,,,,,54,fomentar,,,,,337.615,339.5965,0,0,1.4336,,0,13,13,53,1,REAL,FAKE,,,,,,,,,,,,,,,,,
,,,,,,,,,6672f795fac6ecd66d7b987f,Mexican,13 or older,"no, only English or Spanish",no,2025-07-23_21h19.45.503,empathy_intonation_perc_control,2024.2.4,Win32,59.88023952,6672f795fac6ecd66d7b987f,68817205a84113384fffdfe3,688187d314c4ebace79b4454,,,,,,,,,,,,,1,,,,,,,,,,,,,,,,,,,,,,,,,,,,,,,,,,,,,5,zapato,,,,,339.5978,340.8296,1,1,0.6876,,0,14,14,4,1,REAL,FAKE,,,,,,,,,,,,,,,,,
,,,,,,,,,6672f795fac6ecd66d7b987f,Mexican,13 or older,"no, only English or Spanish",no,2025-07-23_21h19.45.503,empathy_intonation_perc_control,2024.2.4,Win32,59.88023952,6672f795fac6ecd66d7b987f,68817205a84113384fffdfe3,688187d314c4ebace79b4454,,,,,,,,,,,,,0,,,,,,,,,,,,,,,,,,,,,,,,,,,,,,,,,,,,,10,antar,,,,,340.8306,342.2798,1,0,0.9172,,0,15,15,9,1,REAL,FAKE,,,,,,,,,,,,,,,,,
,,,,,,,,,6672f795fac6ecd66d7b987f,Mexican,13 or older,"no, only English or Spanish",no,2025-07-23_21h19.45.503,empathy_intonation_perc_control,2024.2.4,Win32,59.88023952,6672f795fac6ecd66d7b987f,68817205a84113384fffdfe3,688187d314c4ebace79b4454,,,,,,,,,,,,,0,,,,,,,,,,,,,,,,,,,,,,,,,,,,,,,,,,,,,84,escuto,,,,,342.2809,343.996,0,1,1.1716,,0,16,16,83,1,REAL,FAKE,,,,,,,,,,,,,,,,,
,,,,,,,,,6672f795fac6ecd66d7b987f,Mexican,13 or older,"no, only English or Spanish",no,2025-07-23_21h19.45.503,empathy_intonation_perc_control,2024.2.4,Win32,59.88023952,6672f795fac6ecd66d7b987f,68817205a84113384fffdfe3,688187d314c4ebace79b4454,,,,,,,,,,,,,1,,,,,,,,,,,,,,,,,,,,,,,,,,,,,,,,,,,,,28,merodear,,,,,343.9973,345.8622,0,0,1.3154,,0,17,17,27,1,REAL,FAKE,,,,,,,,,,,,,,,,,
,,,,,,,,,6672f795fac6ecd66d7b987f,Mexican,13 or older,"no, only English or Spanish",no,2025-07-23_21h19.45.503,empathy_intonation_perc_control,2024.2.4,Win32,59.88023952,6672f795fac6ecd66d7b987f,68817205a84113384fffdfe3,688187d314c4ebace79b4454,,,,,,,,,,,,,1,,,,,,,,,,,,,,,,,,,,,,,,,,,,,,,,,,,,,37,granuja,,,,,345.8637,347.5625,1,1,1.1503,,0,18,18,36,1,REAL,FAKE,,,,,,,,,,,,,,,,,
,,,,,,,,,6672f795fac6ecd66d7b987f,Mexican,13 or older,"no, only English or Spanish",no,2025-07-23_21h19.45.503,empathy_intonation_perc_control,2024.2.4,Win32,59.88023952,6672f795fac6ecd66d7b987f,68817205a84113384fffdfe3,688187d314c4ebace79b4454,,,,,,,,,,,,,1,,,,,,,,,,,,,,,,,,,,,,,,,,,,,,,,,,,,,20,ávido,,,,,347.5641,348.8289,1,1,0.7178,,0,19,19,19,1,REAL,FAKE,,,,,,,,,,,,,,,,,
,,,,,,,,,6672f795fac6ecd66d7b987f,Mexican,13 or older,"no, only English or Spanish",no,2025-07-23_21h19.45.503,empathy_intonation_perc_control,2024.2.4,Win32,59.88023952,6672f795fac6ecd66d7b987f,68817205a84113384fffdfe3,688187d314c4ebace79b4454,,,,,,,,,,,,,1,,,,,,,,,,,,,,,,,,,,,,,,,,,,,,,,,,,,,15,regar,,,,,348.8301,350.7783,0,0,1.4014,,0,20,20,14,1,REAL,FAKE,,,,,,,,,,,,,,,,,
,,,,,,,,,6672f795fac6ecd66d7b987f,Mexican,13 or older,"no, only English or Spanish",no,2025-07-23_21h19.45.503,empathy_intonation_perc_control,2024.2.4,Win32,59.88023952,6672f795fac6ecd66d7b987f,68817205a84113384fffdfe3,688187d314c4ebace79b4454,,,,,,,,,,,,,1,,,,,,,,,,,,,,,,,,,,,,,,,,,,,,,,,,,,,51,candado,,,,,350.7797,352.3451,0,0,1.0169,,0,21,21,50,1,REAL,FAKE,,,,,,,,,,,,,,,,,
,,,,,,,,,6672f795fac6ecd66d7b987f,Mexican,13 or older,"no, only English or Spanish",no,2025-07-23_21h19.45.503,empathy_intonation_perc_control,2024.2.4,Win32,59.88023952,6672f795fac6ecd66d7b987f,68817205a84113384fffdfe3,688187d314c4ebace79b4454,,,,,,,,,,,,,1,,,,,,,,,,,,,,,,,,,,,,,,,,,,,,,,,,,,,78,frondoso,,,,,352.3465,353.9948,0,0,1.1004,,0,22,22,77,1,REAL,FAKE,,,,,,,,,,,,,,,,,
,,,,,,,,,6672f795fac6ecd66d7b987f,Mexican,13 or older,"no, only English or Spanish",no,2025-07-23_21h19.45.503,empathy_intonation_perc_control,2024.2.4,Win32,59.88023952,6672f795fac6ecd66d7b987f,68817205a84113384fffdfe3,688187d314c4ebace79b4454,,,,,,,,,,,,,1,,,,,,,,,,,,,,,,,,,,,,,,,,,,,,,,,,,,,13,helar,,,,,353.9962,355.5945,1,1,1.0504,,0,23,23,12,1,REAL,FAKE,,,,,,,,,,,,,,,,,
,,,,,,,,,6672f795fac6ecd66d7b987f,Mexican,13 or older,"no, only English or Spanish",no,2025-07-23_21h19.45.503,empathy_intonation_perc_control,2024.2.4,Win32,59.88023952,6672f795fac6ecd66d7b987f,68817205a84113384fffdfe3,688187d314c4ebace79b4454,,,,,,,,,,,,,0,,,,,,,,,,,,,,,,,,,,,,,,,,,,,,,,,,,,,19,brecedad,,,,,355.5958,357.0443,0,1,0.9032,,0,24,24,18,1,REAL,FAKE,,,,,,,,,,,,,,,,,
,,,,,,,,,6672f795fac6ecd66d7b987f,Mexican,13 or older,"no, only English or Spanish",no,2025-07-23_21h19.45.503,empathy_intonation_perc_control,2024.2.4,Win32,59.88023952,6672f795fac6ecd66d7b987f,68817205a84113384fffdfe3,688187d314c4ebace79b4454,,,,,,,,,,,,,0,,,,,,,,,,,,,,,,,,,,,,,,,,,,,,,,,,,,,30,alardio,,,,,357.0456,359.2276,0,1,1.6338,,0,25,25,29,1,REAL,FAKE,,,,,,,,,,,,,,,,,
,,,,,,,,,6672f795fac6ecd66d7b987f,Mexican,13 or older,"no, only English or Spanish",no,2025-07-23_21h19.45.503,empathy_intonation_perc_control,2024.2.4,Win32,59.88023952,6672f795fac6ecd66d7b987f,68817205a84113384fffdfe3,688187d314c4ebace79b4454,,,,,,,,,,,,,1,,,,,,,,,,,,,,,,,,,,,,,,,,,,,,,,,,,,,39,torpe,,,,,359.2288,360.5941,0,0,0.8174,,0,26,26,38,1,REAL,FAKE,,,,,,,,,,,,,,,,,
,,,,,,,,,6672f795fac6ecd66d7b987f,Mexican,13 or older,"no, only English or Spanish",no,2025-07-23_21h19.45.503,empathy_intonation_perc_control,2024.2.4,Win32,59.88023952,6672f795fac6ecd66d7b987f,68817205a84113384fffdfe3,688187d314c4ebace79b4454,,,,,,,,,,,,,1,,,,,,,,,,,,,,,,,,,,,,,,,,,,,,,,,,,,,55,nevar,,,,,360.5957,361.877,1,1,0.734,,0,27,27,54,1,REAL,FAKE,,,,,,,,,,,,,,,,,
,,,,,,,,,6672f795fac6ecd66d7b987f,Mexican,13 or older,"no, only English or Spanish",no,2025-07-23_21h19.45.503,empathy_intonation_perc_control,2024.2.4,Win32,59.88023952,6672f795fac6ecd66d7b987f,68817205a84113384fffdfe3,688187d314c4ebace79b4454,,,,,,,,,,,,,1,,,,,,,,,,,,,,,,,,,,,,,,,,,,,,,,,,,,,26,secuestro,,,,,361.8782,363.7937,1,1,1.371,,0,28,28,25,1,REAL,FAKE,,,,,,,,,,,,,,,,,
,,,,,,,,,6672f795fac6ecd66d7b987f,Mexican,13 or older,"no, only English or Spanish",no,2025-07-23_21h19.45.503,empathy_intonation_perc_control,2024.2.4,Win32,59.88023952,6672f795fac6ecd66d7b987f,68817205a84113384fffdfe3,688187d314c4ebace79b4454,,,,,,,,,,,,,1,,,,,,,,,,,,,,,,,,,,,,,,,,,,,,,,,,,,,77,tiburón,,,,,363.795,365.4265,0,0,1.0836,,0,29,29,76,1,REAL,FAKE,,,,,,,,,,,,,,,,,
,,,,,,,,,6672f795fac6ecd66d7b987f,Mexican,13 or older,"no, only English or Spanish",no,2025-07-23_21h19.45.503,empathy_intonation_perc_control,2024.2.4,Win32,59.88023952,6672f795fac6ecd66d7b987f,68817205a84113384fffdfe3,688187d314c4ebace79b4454,,,,,,,,,,,,,1,,,,,,,,,,,,,,,,,,,,,,,,,,,,,,,,,,,,,41,rebuscar,,,,,365.4276,367.0601,0,0,1.0891,,0,30,30,40,1,REAL,FAKE,,,,,,,,,,,,,,,,,
,,,,,,,,,6672f795fac6ecd66d7b987f,Mexican,13 or older,"no, only English or Spanish",no,2025-07-23_21h19.45.503,empathy_intonation_perc_control,2024.2.4,Win32,59.88023952,6672f795fac6ecd66d7b987f,68817205a84113384fffdfe3,688187d314c4ebace79b4454,,,,,,,,,,,,,1,,,,,,,,,,,,,,,,,,,,,,,,,,,,,,,,,,,,,91,click the 1 key.,,,,,367.0623,368.9431,1,1,1.3329,,0,31,31,90,1,REAL,FAKE,,,,,,,,,,,,,,,,,
,,,,,,,,,6672f795fac6ecd66d7b987f,Mexican,13 or older,"no, only English or Spanish",no,2025-07-23_21h19.45.503,empathy_intonation_perc_control,2024.2.4,Win32,59.88023952,6672f795fac6ecd66d7b987f,68817205a84113384fffdfe3,688187d314c4ebace79b4454,,,,,,,,,,,,,1,,,,,,,,,,,,,,,,,,,,,,,,,,,,,,,,,,,,,36,loro,,,,,368.9444,372.6094,1,1,3.1168,,0,32,32,35,1,REAL,FAKE,,,,,,,,,,,,,,,,,
,,,,,,,,,6672f795fac6ecd66d7b987f,Mexican,13 or older,"no, only English or Spanish",no,2025-07-23_21h19.45.503,empathy_intonation_perc_control,2024.2.4,Win32,59.88023952,6672f795fac6ecd66d7b987f,68817205a84113384fffdfe3,688187d314c4ebace79b4454,,,,,,,,,,,,,1,,,,,,,,,,,,,,,,,,,,,,,,,,,,,,,,,,,,,67,cabello,,,,,372.6107,374.509,0,0,1.3503,,0,33,33,66,1,REAL,FAKE,,,,,,,,,,,,,,,,,
,,,,,,,,,6672f795fac6ecd66d7b987f,Mexican,13 or older,"no, only English or Spanish",no,2025-07-23_21h19.45.503,empathy_intonation_perc_control,2024.2.4,Win32,59.88023952,6672f795fac6ecd66d7b987f,68817205a84113384fffdfe3,688187d314c4ebace79b4454,,,,,,,,,,,,,1,,,,,,,,,,,,,,,,,,,,,,,,,,,,,,,,,,,,,85,laúd,,,,,374.5104,376.1754,1,1,1.1174,,0,34,34,84,1,REAL,FAKE,,,,,,,,,,,,,,,,,
,,,,,,,,,6672f795fac6ecd66d7b987f,Mexican,13 or older,"no, only English or Spanish",no,2025-07-23_21h19.45.503,empathy_intonation_perc_control,2024.2.4,Win32,59.88023952,6672f795fac6ecd66d7b987f,68817205a84113384fffdfe3,688187d314c4ebace79b4454,,,,,,,,,,,,,1,,,,,,,,,,,,,,,,,,,,,,,,,,,,,,,,,,,,,31,pandilla,,,,,376.1769,378.0918,0,0,1.3679,,0,35,35,30,1,REAL,FAKE,,,,,,,,,,,,,,,,,
,,,,,,,,,6672f795fac6ecd66d7b987f,Mexican,13 or older,"no, only English or Spanish",no,2025-07-23_21h19.45.503,empathy_intonation_perc_control,2024.2.4,Win32,59.88023952,6672f795fac6ecd66d7b987f,68817205a84113384fffdfe3,688187d314c4ebace79b4454,,,,,,,,,,,,,0,,,,,,,,,,,,,,,,,,,,,,,,,,,,,,,,,,,,,47,cartinar,,,,,378.0932,380.1251,0,1,1.4842,,0,36,36,46,1,REAL,FAKE,,,,,,,,,,,,,,,,,
,,,,,,,,,6672f795fac6ecd66d7b987f,Mexican,13 or older,"no, only English or Spanish",no,2025-07-23_21h19.45.503,empathy_intonation_perc_control,2024.2.4,Win32,59.88023952,6672f795fac6ecd66d7b987f,68817205a84113384fffdfe3,688187d314c4ebace79b4454,,,,,,,,,,,,,1,,,,,,,,,,,,,,,,,,,,,,,,,,,,,,,,,,,,,89,prisa,,,,,380.1267,381.8083,1,1,1.1338,,0,37,37,88,1,REAL,FAKE,,,,,,,,,,,,,,,,,
,,,,,,,,,6672f795fac6ecd66d7b987f,Mexican,13 or older,"no, only English or Spanish",no,2025-07-23_21h19.45.503,empathy_intonation_perc_control,2024.2.4,Win32,59.88023952,6672f795fac6ecd66d7b987f,68817205a84113384fffdfe3,688187d314c4ebace79b4454,,,,,,,,,,,,,1,,,,,,,,,,,,,,,,,,,,,,,,,,,,,,,,,,,,,38,estornudar,,,,,381.8099,383.508,0,0,1.1514,,0,38,38,37,1,REAL,FAKE,,,,,,,,,,,,,,,,,
,,,,,,,,,6672f795fac6ecd66d7b987f,Mexican,13 or older,"no, only English or Spanish",no,2025-07-23_21h19.45.503,empathy_intonation_perc_control,2024.2.4,Win32,59.88023952,6672f795fac6ecd66d7b987f,68817205a84113384fffdfe3,688187d314c4ebace79b4454,,,,,,,,,,,,,1,,,,,,,,,,,,,,,,,,,,,,,,,,,,,,,,,,,,,75,yacer,,,,,383.5093,384.9076,0,0,0.8503,,0,39,39,74,1,REAL,FAKE,,,,,,,,,,,,,,,,,
,,,,,,,,,6672f795fac6ecd66d7b987f,Mexican,13 or older,"no, only English or Spanish",no,2025-07-23_21h19.45.503,empathy_intonation_perc_control,2024.2.4,Win32,59.88023952,6672f795fac6ecd66d7b987f,68817205a84113384fffdfe3,688187d314c4ebace79b4454,,,,,,,,,,,,,1,,,,,,,,,,,,,,,,,,,,,,,,,,,,,,,,,,,,,43,canela,,,,,384.909,386.4741,1,1,1.02,,0,40,40,42,1,REAL,FAKE,,,,,,,,,,,,,,,,,
,,,,,,,,,6672f795fac6ecd66d7b987f,Mexican,13 or older,"no, only English or Spanish",no,2025-07-23_21h19.45.503,empathy_intonation_perc_control,2024.2.4,Win32,59.88023952,6672f795fac6ecd66d7b987f,68817205a84113384fffdfe3,688187d314c4ebace79b4454,,,,,,,,,,,,,1,,,,,,,,,,,,,,,,,,,,,,,,,,,,,,,,,,,,,65,bizcocho,,,,,386.4756,387.8408,0,0,0.817,,0,41,41,64,1,REAL,FAKE,,,,,,,,,,,,,,,,,
,,,,,,,,,6672f795fac6ecd66d7b987f,Mexican,13 or older,"no, only English or Spanish",no,2025-07-23_21h19.45.503,empathy_intonation_perc_control,2024.2.4,Win32,59.88023952,6672f795fac6ecd66d7b987f,68817205a84113384fffdfe3,688187d314c4ebace79b4454,,,,,,,,,,,,,1,,,,,,,,,,,,,,,,,,,,,,,,,,,,,,,,,,,,,80,hormiga,,,,,387.8421,390.2404,0,0,1.8499,,0,42,42,79,1,REAL,FAKE,,,,,,,,,,,,,,,,,
,,,,,,,,,6672f795fac6ecd66d7b987f,Mexican,13 or older,"no, only English or Spanish",no,2025-07-23_21h19.45.503,empathy_intonation_perc_control,2024.2.4,Win32,59.88023952,6672f795fac6ecd66d7b987f,68817205a84113384fffdfe3,688187d314c4ebace79b4454,,,,,,,,,,,,,1,,,,,,,,,,,,,,,,,,,,,,,,,,,,,,,,,,,,,59,besar,,,,,390.2417,391.3737,1,1,0.5837,,0,43,43,58,1,REAL,FAKE,,,,,,,,,,,,,,,,,
,,,,,,,,,6672f795fac6ecd66d7b987f,Mexican,13 or older,"no, only English or Spanish",no,2025-07-23_21h19.45.503,empathy_intonation_perc_control,2024.2.4,Win32,59.88023952,6672f795fac6ecd66d7b987f,68817205a84113384fffdfe3,688187d314c4ebace79b4454,,,,,,,,,,,,,1,,,,,,,,,,,,,,,,,,,,,,,,,,,,,,,,,,,,,2,pellizcar,,,,,391.3753,392.89,0,0,0.9667,,0,44,44,1,1,REAL,FAKE,,,,,,,,,,,,,,,,,
,,,,,,,,,6672f795fac6ecd66d7b987f,Mexican,13 or older,"no, only English or Spanish",no,2025-07-23_21h19.45.503,empathy_intonation_perc_control,2024.2.4,Win32,59.88023952,6672f795fac6ecd66d7b987f,68817205a84113384fffdfe3,688187d314c4ebace79b4454,,,,,,,,,,,,,0,,,,,,,,,,,,,,,,,,,,,,,,,,,,,,,,,,,,,58,plaudir,,,,,392.8915,394.2566,0,1,0.8187,,0,45,45,57,1,REAL,FAKE,,,,,,,,,,,,,,,,,
,,,,,,,,,6672f795fac6ecd66d7b987f,Mexican,13 or older,"no, only English or Spanish",no,2025-07-23_21h19.45.503,empathy_intonation_perc_control,2024.2.4,Win32,59.88023952,6672f795fac6ecd66d7b987f,68817205a84113384fffdfe3,688187d314c4ebace79b4454,,,,,,,,,,,,,1,,,,,,,,,,,,,,,,,,,,,,,,,,,,,,,,,,,,,61,seda,,,,,394.2582,395.7563,1,1,0.9505,,0,46,46,60,1,REAL,FAKE,,,,,,,,,,,,,,,,,
,,,,,,,,,6672f795fac6ecd66d7b987f,Mexican,13 or older,"no, only English or Spanish",no,2025-07-23_21h19.45.503,empathy_intonation_perc_control,2024.2.4,Win32,59.88023952,6672f795fac6ecd66d7b987f,68817205a84113384fffdfe3,688187d314c4ebace79b4454,,,,,,,,,,,,,1,,,,,,,,,,,,,,,,,,,,,,,,,,,,,,,,,,,,,76,atar,,,,,395.7577,397.9895,0,0,1.684,,0,47,47,75,1,REAL,FAKE,,,,,,,,,,,,,,,,,
,,,,,,,,,6672f795fac6ecd66d7b987f,Mexican,13 or older,"no, only English or Spanish",no,2025-07-23_21h19.45.503,empathy_intonation_perc_control,2024.2.4,Win32,59.88023952,6672f795fac6ecd66d7b987f,68817205a84113384fffdfe3,688187d314c4ebace79b4454,,,,,,,,,,,,,0,,,,,,,,,,,,,,,,,,,,,,,,,,,,,,,,,,,,,33,pauca,,,,,397.9906,400.3724,1,0,1.8336,,0,48,48,32,1,REAL,FAKE,,,,,,,,,,,,,,,,,
,,,,,,,,,6672f795fac6ecd66d7b987f,Mexican,13 or older,"no, only English or Spanish",no,2025-07-23_21h19.45.503,empathy_intonation_perc_control,2024.2.4,Win32,59.88023952,6672f795fac6ecd66d7b987f,68817205a84113384fffdfe3,688187d314c4ebace79b4454,,,,,,,,,,,,,1,,,,,,,,,,,,,,,,,,,,,,,,,,,,,,,,,,,,,40,alfombra,,,,,400.3736,401.7889,0,0,0.8688,,0,49,49,39,1,REAL,FAKE,,,,,,,,,,,,,,,,,
,,,,,,,,,6672f795fac6ecd66d7b987f,Mexican,13 or older,"no, only English or Spanish",no,2025-07-23_21h19.45.503,empathy_intonation_perc_control,2024.2.4,Win32,59.88023952,6672f795fac6ecd66d7b987f,68817205a84113384fffdfe3,688187d314c4ebace79b4454,,,,,,,,,,,,,1,,,,,,,,,,,,,,,,,,,,,,,,,,,,,,,,,,,,,56,musgo,,,,,401.7906,403.2553,1,1,0.9163,,0,50,50,55,1,REAL,FAKE,,,,,,,,,,,,,,,,,
,,,,,,,,,6672f795fac6ecd66d7b987f,Mexican,13 or older,"no, only English or Spanish",no,2025-07-23_21h19.45.503,empathy_intonation_perc_control,2024.2.4,Win32,59.88023952,6672f795fac6ecd66d7b987f,68817205a84113384fffdfe3,688187d314c4ebace79b4454,,,,,,,,,,,,,0,,,,,,,,,,,,,,,,,,,,,,,,,,,,,,,,,,,,,79,tropaje,,,,,403.2567,404.7551,0,1,0.9499,,0,51,51,78,1,REAL,FAKE,,,,,,,,,,,,,,,,,
,,,,,,,,,6672f795fac6ecd66d7b987f,Mexican,13 or older,"no, only English or Spanish",no,2025-07-23_21h19.45.503,empathy_intonation_perc_control,2024.2.4,Win32,59.88023952,6672f795fac6ecd66d7b987f,68817205a84113384fffdfe3,688187d314c4ebace79b4454,,,,,,,,,,,,,0,,,,,,,,,,,,,,,,,,,,,,,,,,,,,,,,,,,,,50,flamida,,,,,404.7563,406.6215,0,1,1.3168,,0,52,52,49,1,REAL,FAKE,,,,,,,,,,,,,,,,,
,,,,,,,,,6672f795fac6ecd66d7b987f,Mexican,13 or older,"no, only English or Spanish",no,2025-07-23_21h19.45.503,empathy_intonation_perc_control,2024.2.4,Win32,59.88023952,6672f795fac6ecd66d7b987f,68817205a84113384fffdfe3,688187d314c4ebace79b4454,,,,,,,,,,,,,1,,,,,,,,,,,,,,,,,,,,,,,,,,,,,,,,,,,,,62,flaco,,,,,406.6228,407.7219,1,1,0.5477,,0,53,53,61,1,REAL,FAKE,,,,,,,,,,,,,,,,,
,,,,,,,,,6672f795fac6ecd66d7b987f,Mexican,13 or older,"no, only English or Spanish",no,2025-07-23_21h19.45.503,empathy_intonation_perc_control,2024.2.4,Win32,59.88023952,6672f795fac6ecd66d7b987f,68817205a84113384fffdfe3,688187d314c4ebace79b4454,,,,,,,,,,,,,1,,,,,,,,,,,,,,,,,,,,,,,,,,,,,,,,,,,,,71,polvoriento,,,,,407.723,409.6881,0,0,1.4172,,0,54,54,70,1,REAL,FAKE,,,,,,,,,,,,,,,,,
,,,,,,,,,6672f795fac6ecd66d7b987f,Mexican,13 or older,"no, only English or Spanish",no,2025-07-23_21h19.45.503,empathy_intonation_perc_control,2024.2.4,Win32,59.88023952,6672f795fac6ecd66d7b987f,68817205a84113384fffdfe3,688187d314c4ebace79b4454,,,,,,,,,,,,,0,,,,,,,,,,,,,,,,,,,,,,,,,,,,,,,,,,,,,35,rompido,,,,,409.6894,411.171,1,0,0.9356,,0,55,55,34,1,REAL,FAKE,,,,,,,,,,,,,,,,,
,,,,,,,,,6672f795fac6ecd66d7b987f,Mexican,13 or older,"no, only English or Spanish",no,2025-07-23_21h19.45.503,empathy_intonation_perc_control,2024.2.4,Win32,59.88023952,6672f795fac6ecd66d7b987f,68817205a84113384fffdfe3,688187d314c4ebace79b4454,,,,,,,,,,,,,1,,,,,,,,,,,,,,,,,,,,,,,,,,,,,,,,,,,,,12,asesinato,,,,,411.1723,413.0376,0,0,1.317,,0,56,56,11,1,REAL,FAKE,,,,,,,,,,,,,,,,,
,,,,,,,,,6672f795fac6ecd66d7b987f,Mexican,13 or older,"no, only English or Spanish",no,2025-07-23_21h19.45.503,empathy_intonation_perc_control,2024.2.4,Win32,59.88023952,6672f795fac6ecd66d7b987f,68817205a84113384fffdfe3,688187d314c4ebace79b4454,,,,,,,,,,,,,1,,,,,,,,,,,,,,,,,,,,,,,,,,,,,,,,,,,,,68,alegre,,,,,413.0388,414.2708,1,1,0.6839,,0,57,57,67,1,REAL,FAKE,,,,,,,,,,,,,,,,,
,,,,,,,,,6672f795fac6ecd66d7b987f,Mexican,13 or older,"no, only English or Spanish",no,2025-07-23_21h19.45.503,empathy_intonation_perc_control,2024.2.4,Win32,59.88023952,6672f795fac6ecd66d7b987f,68817205a84113384fffdfe3,688187d314c4ebace79b4454,,,,,,,,,,,,,0,,,,,,,,,,,,,,,,,,,,,,,,,,,,,,,,,,,,,21,capillo,,,,,414.2723,416.1207,1,0,1.3001,,0,58,58,20,1,REAL,FAKE,,,,,,,,,,,,,,,,,
,,,,,,,,,6672f795fac6ecd66d7b987f,Mexican,13 or older,"no, only English or Spanish",no,2025-07-23_21h19.45.503,empathy_intonation_perc_control,2024.2.4,Win32,59.88023952,6672f795fac6ecd66d7b987f,68817205a84113384fffdfe3,688187d314c4ebace79b4454,,,,,,,,,,,,,0,,,,,,,,,,,,,,,,,,,,,,,,,,,,,,,,,,,,,92,click the 0 key.,,,,,416.1224,417.7704,0,1,1.1006,,0,59,59,91,1,REAL,FAKE,,,,,,,,,,,,,,,,,
,,,,,,,,,6672f795fac6ecd66d7b987f,Mexican,13 or older,"no, only English or Spanish",no,2025-07-23_21h19.45.503,empathy_intonation_perc_control,2024.2.4,Win32,59.88023952,6672f795fac6ecd66d7b987f,68817205a84113384fffdfe3,688187d314c4ebace79b4454,,,,,,,,,,,,,0,,,,,,,,,,,,,,,,,,,,,,,,,,,,,,,,,,,,,82,empirador,,,,,417.7719,419.8869,1,0,1.5675,,0,60,60,81,1,REAL,FAKE,,,,,,,,,,,,,,,,,
,,,,,,,,,6672f795fac6ecd66d7b987f,Mexican,13 or older,"no, only English or Spanish",no,2025-07-23_21h19.45.503,empathy_intonation_perc_control,2024.2.4,Win32,59.88023952,6672f795fac6ecd66d7b987f,68817205a84113384fffdfe3,688187d314c4ebace79b4454,,,,,,,,,,,,,0,,,,,,,,,,,,,,,,,,,,,,,,,,,,,,,,,,,,,87,grodo,,,,,419.8882,421.5866,0,1,1.1515,,0,61,61,86,1,REAL,FAKE,,,,,,,,,,,,,,,,,
,,,,,,,,,6672f795fac6ecd66d7b987f,Mexican,13 or older,"no, only English or Spanish",no,2025-07-23_21h19.45.503,empathy_intonation_perc_control,2024.2.4,Win32,59.88023952,6672f795fac6ecd66d7b987f,68817205a84113384fffdfe3,688187d314c4ebace79b4454,,,,,,,,,,,,,0,,,,,,,,,,,,,,,,,,,,,,,,,,,,,,,,,,,,,27,acutación,,,,,421.5881,423.753,0,1,1.6168,,0,62,62,26,1,REAL,FAKE,,,,,,,,,,,,,,,,,
,,,,,,,,,6672f795fac6ecd66d7b987f,Mexican,13 or older,"no, only English or Spanish",no,2025-07-23_21h19.45.503,empathy_intonation_perc_control,2024.2.4,Win32,59.88023952,6672f795fac6ecd66d7b987f,68817205a84113384fffdfe3,688187d314c4ebace79b4454,,,,,,,,,,,,,1,,,,,,,,,,,,,,,,,,,,,,,,,,,,,,,,,,,,,11,cenefa,,,,,423.7542,425.0528,0,0,0.7504,,0,63,63,10,1,REAL,FAKE,,,,,,,,,,,,,,,,,
,,,,,,,,,6672f795fac6ecd66d7b987f,Mexican,13 or older,"no, only English or Spanish",no,2025-07-23_21h19.45.503,empathy_intonation_perc_control,2024.2.4,Win32,59.88023952,6672f795fac6ecd66d7b987f,68817205a84113384fffdfe3,688187d314c4ebace79b4454,,,,,,,,,,,,,0,,,,,,,,,,,,,,,,,,,,,,,,,,,,,,,,,,,,,23,lampera,,,,,425.0539,426.6857,1,0,1.0814,,0,64,64,22,1,REAL,FAKE,,,,,,,,,,,,,,,,,
,,,,,,,,,6672f795fac6ecd66d7b987f,Mexican,13 or older,"no, only English or Spanish",no,2025-07-23_21h19.45.503,empathy_intonation_perc_control,2024.2.4,Win32,59.88023952,6672f795fac6ecd66d7b987f,68817205a84113384fffdfe3,688187d314c4ebace79b4454,,,,,,,,,,,,,1,,,,,,,,,,,,,,,,,,,,,,,,,,,,,,,,,,,,,81,pozo,,,,,426.6868,428.1028,1,1,0.8842,,0,65,65,80,1,REAL,FAKE,,,,,,,,,,,,,,,,,
,,,,,,,,,6672f795fac6ecd66d7b987f,Mexican,13 or older,"no, only English or Spanish",no,2025-07-23_21h19.45.503,empathy_intonation_perc_control,2024.2.4,Win32,59.88023952,6672f795fac6ecd66d7b987f,68817205a84113384fffdfe3,688187d314c4ebace79b4454,,,,,,,,,,,,,1,,,,,,,,,,,,,,,,,,,,,,,,,,,,,,,,,,,,,64,orgulloso,,,,,428.1046,429.3523,0,0,0.7014,,0,66,66,63,1,REAL,FAKE,,,,,,,,,,,,,,,,,
,,,,,,,,,6672f795fac6ecd66d7b987f,Mexican,13 or older,"no, only English or Spanish",no,2025-07-23_21h19.45.503,empathy_intonation_perc_control,2024.2.4,Win32,59.88023952,6672f795fac6ecd66d7b987f,68817205a84113384fffdfe3,688187d314c4ebace79b4454,,,,,,,,,,,,,1,,,,,,,,,,,,,,,,,,,,,,,,,,,,,,,,,,,,,52,camisa,,,,,429.3537,430.6355,1,1,0.7345,,0,67,67,51,1,REAL,FAKE,,,,,,,,,,,,,,,,,
,,,,,,,,,6672f795fac6ecd66d7b987f,Mexican,13 or older,"no, only English or Spanish",no,2025-07-23_21h19.45.503,empathy_intonation_perc_control,2024.2.4,Win32,59.88023952,6672f795fac6ecd66d7b987f,68817205a84113384fffdfe3,688187d314c4ebace79b4454,,,,,,,,,,,,,0,,,,,,,,,,,,,,,,,,,,,,,,,,,,,,,,,,,,,17,floroso,,,,,430.6369,432.1189,0,1,0.932,,0,68,68,16,1,REAL,FAKE,,,,,,,,,,,,,,,,,
,,,,,,,,,6672f795fac6ecd66d7b987f,Mexican,13 or older,"no, only English or Spanish",no,2025-07-23_21h19.45.503,empathy_intonation_perc_control,2024.2.4,Win32,59.88023952,6672f795fac6ecd66d7b987f,68817205a84113384fffdfe3,688187d314c4ebace79b4454,,,,,,,,,,,,,0,,,,,,,,,,,,,,,,,,,,,,,,,,,,,,,,,,,,,70,temblo,,,,,432.1202,434.4018,1,0,1.7342,,0,69,69,69,1,REAL,FAKE,,,,,,,,,,,,,,,,,
,,,,,,,,,6672f795fac6ecd66d7b987f,Mexican,13 or older,"no, only English or Spanish",no,2025-07-23_21h19.45.503,empathy_intonation_perc_control,2024.2.4,Win32,59.88023952,6672f795fac6ecd66d7b987f,68817205a84113384fffdfe3,688187d314c4ebace79b4454,,,,,,,,,,,,,1,,,,,,,,,,,,,,,,,,,,,,,,,,,,,,,,,,,,,3,pulmones,,,,,434.403,436.2517,0,0,1.3013,,0,70,70,2,1,REAL,FAKE,,,,,,,,,,,,,,,,,
,,,,,,,,,6672f795fac6ecd66d7b987f,Mexican,13 or older,"no, only English or Spanish",no,2025-07-23_21h19.45.503,empathy_intonation_perc_control,2024.2.4,Win32,59.88023952,6672f795fac6ecd66d7b987f,68817205a84113384fffdfe3,688187d314c4ebace79b4454,,,,,,,,,,,,,1,,,,,,,,,,,,,,,,,,,,,,,,,,,,,,,,,,,,,44,cuchara,,,,,436.2534,437.7181,0,0,0.9176,,0,71,71,43,1,REAL,FAKE,,,,,,,,,,,,,,,,,
,,,,,,,,,6672f795fac6ecd66d7b987f,Mexican,13 or older,"no, only English or Spanish",no,2025-07-23_21h19.45.503,empathy_intonation_perc_control,2024.2.4,Win32,59.88023952,6672f795fac6ecd66d7b987f,68817205a84113384fffdfe3,688187d314c4ebace79b4454,,,,,,,,,,,,,0,,,,,,,,,,,,,,,,,,,,,,,,,,,,,,,,,,,,,4,batillón,,,,,437.7194,439.3845,1,0,1.117,,0,72,72,3,1,REAL,FAKE,,,,,,,,,,,,,,,,,
,,,,,,,,,6672f795fac6ecd66d7b987f,Mexican,13 or older,"no, only English or Spanish",no,2025-07-23_21h19.45.503,empathy_intonation_perc_control,2024.2.4,Win32,59.88023952,6672f795fac6ecd66d7b987f,68817205a84113384fffdfe3,688187d314c4ebace79b4454,,,,,,,,,,,,,1,,,,,,,,,,,,,,,,,,,,,,,,,,,,,,,,,,,,,69,engatusar,,,,,439.386,440.7674,0,0,0.8337,,0,73,73,68,1,REAL,FAKE,,,,,,,,,,,,,,,,,
,,,,,,,,,6672f795fac6ecd66d7b987f,Mexican,13 or older,"no, only English or Spanish",no,2025-07-23_21h19.45.503,empathy_intonation_perc_control,2024.2.4,Win32,59.88023952,6672f795fac6ecd66d7b987f,68817205a84113384fffdfe3,688187d314c4ebace79b4454,,,,,,,,,,,,,0,,,,,,,,,,,,,,,,,,,,,,,,,,,,,,,,,,,,,18,arsa,,,,,440.7687,442.301,0,1,0.9843,,0,74,74,17,1,REAL,FAKE,,,,,,,,,,,,,,,,,
,,,,,,,,,6672f795fac6ecd66d7b987f,Mexican,13 or older,"no, only English or Spanish",no,2025-07-23_21h19.45.503,empathy_intonation_perc_control,2024.2.4,Win32,59.88023952,6672f795fac6ecd66d7b987f,68817205a84113384fffdfe3,688187d314c4ebace79b4454,,,,,,,,,,,,,0,,,,,,,,,,,,,,,,,,,,,,,,,,,,,,,,,,,,,63,esposante,,,,,442.3024,443.8006,0,1,0.9504,,0,75,75,62,1,REAL,FAKE,,,,,,,,,,,,,,,,,
,,,,,,,,,6672f795fac6ecd66d7b987f,Mexican,13 or older,"no, only English or Spanish",no,2025-07-23_21h19.45.503,empathy_intonation_perc_control,2024.2.4,Win32,59.88023952,6672f795fac6ecd66d7b987f,68817205a84113384fffdfe3,688187d314c4ebace79b4454,,,,,,,,,,,,,0,,,,,,,,,,,,,,,,,,,,,,,,,,,,,,,,,,,,,29,decar,,,,,443.8024,445.1505,1,0,0.8008,,0,76,76,28,1,REAL,FAKE,,,,,,,,,,,,,,,,,
,,,,,,,,,6672f795fac6ecd66d7b987f,Mexican,13 or older,"no, only English or Spanish",no,2025-07-23_21h19.45.503,empathy_intonation_perc_control,2024.2.4,Win32,59.88023952,6672f795fac6ecd66d7b987f,68817205a84113384fffdfe3,688187d314c4ebace79b4454,,,,,,,,,,,,,1,,,,,,,,,,,,,,,,,,,,,,,,,,,,,,,,,,,,,9,hacha,,,,,445.1522,447.7833,1,1,2.0865,,0,77,77,8,1,REAL,FAKE,,,,,,,,,,,,,,,,,
,,,,,,,,,6672f795fac6ecd66d7b987f,Mexican,13 or older,"no, only English or Spanish",no,2025-07-23_21h19.45.503,empathy_intonation_perc_control,2024.2.4,Win32,59.88023952,6672f795fac6ecd66d7b987f,68817205a84113384fffdfe3,688187d314c4ebace79b4454,,,,,,,,,,,,,1,,,,,,,,,,,,,,,,,,,,,,,,,,,,,,,,,,,,,6,tergiversar,,,,,447.7847,449.0167,0,0,0.6852,,0,78,78,5,1,REAL,FAKE,,,,,,,,,,,,,,,,,
,,,,,,,,,6672f795fac6ecd66d7b987f,Mexican,13 or older,"no, only English or Spanish",no,2025-07-23_21h19.45.503,empathy_intonation_perc_control,2024.2.4,Win32,59.88023952,6672f795fac6ecd66d7b987f,68817205a84113384fffdfe3,688187d314c4ebace79b4454,,,,,,,,,,,,,1,,,,,,,,,,,,,,,,,,,,,,,,,,,,,,,,,,,,,49,ganar,,,,,449.0181,450.4996,0,0,0.9334,,0,79,79,48,1,REAL,FAKE,,,,,,,,,,,,,,,,,
,,,,,,,,,6672f795fac6ecd66d7b987f,Mexican,13 or older,"no, only English or Spanish",no,2025-07-23_21h19.45.503,empathy_intonation_perc_control,2024.2.4,Win32,59.88023952,6672f795fac6ecd66d7b987f,68817205a84113384fffdfe3,688187d314c4ebace79b4454,,,,,,,,,,,,,0,,,,,,,,,,,,,,,,,,,,,,,,,,,,,,,,,,,,,72,pemición,,,,,450.5007,451.966,0,1,0.932,,0,80,80,71,1,REAL,FAKE,,,,,,,,,,,,,,,,,
,,,,,,,,,6672f795fac6ecd66d7b987f,Mexican,13 or older,"no, only English or Spanish",no,2025-07-23_21h19.45.503,empathy_intonation_perc_control,2024.2.4,Win32,59.88023952,6672f795fac6ecd66d7b987f,68817205a84113384fffdfe3,688187d314c4ebace79b4454,,,,,,,,,,,,,1,,,,,,,,,,,,,,,,,,,,,,,,,,,,,,,,,,,,,34,aviso,,,,,451.9671,453.1658,1,1,0.6507,,0,81,81,33,1,REAL,FAKE,,,,,,,,,,,,,,,,,
,,,,,,,,,6672f795fac6ecd66d7b987f,Mexican,13 or older,"no, only English or Spanish",no,2025-07-23_21h19.45.503,empathy_intonation_perc_control,2024.2.4,Win32,59.88023952,6672f795fac6ecd66d7b987f,68817205a84113384fffdfe3,688187d314c4ebace79b4454,,,,,,,,,,,,,1,,,,,,,,,,,,,,,,,,,,,,,,,,,,,,,,,,,,,24,látigo,,,,,453.1671,454.5157,0,0,0.8014,,0,82,82,23,1,REAL,FAKE,,,,,,,,,,,,,,,,,
,,,,,,,,,6672f795fac6ecd66d7b987f,Mexican,13 or older,"no, only English or Spanish",no,2025-07-23_21h19.45.503,empathy_intonation_perc_control,2024.2.4,Win32,59.88023952,6672f795fac6ecd66d7b987f,68817205a84113384fffdfe3,688187d314c4ebace79b4454,,,,,,,,,,,,,0,,,,,,,,,,,,,,,,,,,,,,,,,,,,,,,,,,,,,32,fatacidad,,,,,454.5179,455.6989,0,1,0.6338,,0,83,83,31,1,REAL,FAKE,,,,,,,,,,,,,,,,,
,,,,,,,,,6672f795fac6ecd66d7b987f,Mexican,13 or older,"no, only English or Spanish",no,2025-07-23_21h19.45.503,empathy_intonation_perc_control,2024.2.4,Win32,59.88023952,6672f795fac6ecd66d7b987f,68817205a84113384fffdfe3,688187d314c4ebace79b4454,,,,,,,,,,,,,1,,,,,,,,,,,,,,,,,,,,,,,,,,,,,,,,,,,,,90,clavel,,,,,455.7005,457.0155,0,0,0.7694,,0,84,84,89,1,REAL,FAKE,,,,,,,,,,,,,,,,,
,,,,,,,,,6672f795fac6ecd66d7b987f,Mexican,13 or older,"no, only English or Spanish",no,2025-07-23_21h19.45.503,empathy_intonation_perc_control,2024.2.4,Win32,59.88023952,6672f795fac6ecd66d7b987f,68817205a84113384fffdfe3,688187d314c4ebace79b4454,,,,,,,,,,,,,0,,,,,,,,,,,,,,,,,,,,,,,,,,,,,,,,,,,,,8,cadeña,,,,,457.0167,458.3656,1,0,0.8009,,0,85,85,7,1,REAL,FAKE,,,,,,,,,,,,,,,,,
,,,,,,,,,6672f795fac6ecd66d7b987f,Mexican,13 or older,"no, only English or Spanish",no,2025-07-23_21h19.45.503,empathy_intonation_perc_control,2024.2.4,Win32,59.88023952,6672f795fac6ecd66d7b987f,68817205a84113384fffdfe3,688187d314c4ebace79b4454,,,,,,,,,,,,,1,,,,,,,,,,,,,,,,,,,,,,,,,,,,,,,,,,,,,7,pésimo,,,,,458.3669,460.1823,1,1,1.2648,,0,86,86,6,1,REAL,FAKE,,,,,,,,,,,,,,,,,
,,,,,,,,,6672f795fac6ecd66d7b987f,Mexican,13 or older,"no, only English or Spanish",no,2025-07-23_21h19.45.503,empathy_intonation_perc_control,2024.2.4,Win32,59.88023952,6672f795fac6ecd66d7b987f,68817205a84113384fffdfe3,688187d314c4ebace79b4454,,,,,,,,,,,,,0,,,,,,,,,,,,,,,,,,,,,,,,,,,,,,,,,,,,,42,cadallo,,,,,460.1836,461.8986,0,1,1.1697,,0,87,87,41,1,REAL,FAKE,,,,,,,,,,,,,,,,,
,,,,,,,,,6672f795fac6ecd66d7b987f,Mexican,13 or older,"no, only English or Spanish",no,2025-07-23_21h19.45.503,empathy_intonation_perc_control,2024.2.4,Win32,59.88023952,6672f795fac6ecd66d7b987f,68817205a84113384fffdfe3,688187d314c4ebace79b4454,,,,,,,,,,,,,0,,,,,,,,,,,,,,,,,,,,,,,,,,,,,,,,,,,,,66,hacido,,,,,461.9003,463.3983,1,0,0.9505,,0,88,88,65,1,REAL,FAKE,,,,,,,,,,,,,,,,,
,,,,,,,,,6672f795fac6ecd66d7b987f,Mexican,13 or older,"no, only English or Spanish",no,2025-07-23_21h19.45.503,empathy_intonation_perc_control,2024.2.4,Win32,59.88023952,6672f795fac6ecd66d7b987f,68817205a84113384fffdfe3,688187d314c4ebace79b4454,,,,,,,,,,,,,1,,,,,,,,,,,,,,,,,,,,,,,,,,,,,,,,,,,,,14,yunque,,,,,463.3997,464.715,0,0,0.7677,,0,89,89,13,1,REAL,FAKE,,,,,,,,,,,,,,,,,
,,,,,,,,,6672f795fac6ecd66d7b987f,Mexican,13 or older,"no, only English or Spanish",no,2025-07-23_21h19.45.503,empathy_intonation_perc_control,2024.2.4,Win32,59.88023952,6672f795fac6ecd66d7b987f,68817205a84113384fffdfe3,688187d314c4ebace79b4454,,,,,,,,,,,,,1,,,,,,,,,,,,,,,,,,,,,,,,,,,,,,,,,,,,,60,matar,,,,,464.7164,466.4309,1,1,1.1684,,0,90,90,59,1,REAL,FAKE,,,,,,,,,,,,,,,,,
,,,,,,,,,6672f795fac6ecd66d7b987f,Mexican,13 or older,"no, only English or Spanish",no,2025-07-23_21h19.45.503,empathy_intonation_perc_control,2024.2.4,Win32,59.88023952,6672f795fac6ecd66d7b987f,68817205a84113384fffdfe3,688187d314c4ebace79b4454,,,,,,,,,,,,,1,,,,,,,,,,,,,,,,,,,,,,,,,,,,,,,,,,,,,45,jilguero,,,,,466.433,467.6644,0,0,0.6842,,0,91,91,44,1,REAL,FAKE,,,,,,,,,,,,,,,,,
,,,,,,,,,6672f795fac6ecd66d7b987f,Mexican,13 or older,"no, only English or Spanish",no,2025-07-23_21h19.45.503,empathy_intonation_perc_control,2024.2.4,Win32,59.88023952,6672f795fac6ecd66d7b987f,68817205a84113384fffdfe3,688187d314c4ebace79b4454,,,,,,,,,,,,,,,,,,,,,,,,,,,,,,,,,,,,,,,,,,,,,,,,,,,,,,,,,,,,,,,,,,,,,467.6652,471.1143,,,,,,,,,,,,,,,
,,,,,,,,,6672f795fac6ecd66d7b987f,Mexican,13 or older,"no, only English or Spanish",no,2025-07-23_21h19.45.503,empathy_intonation_perc_control,2024.2.4,Win32,59.88023952,6672f795fac6ecd66d7b987f,68817205a84113384fffdfe3,688187d314c4ebace79b4454,,,,,,,,,,,,,,,,,,,,,,,,,,,1,,,,,,,,,,,,,,,,,,,,,,,,,,,,,,,,,,,,,,,,,,,,471.1324,477.18,slightly agree,0,0,0,0,1,I can easily tell if someone else wants to enter a conversation.,1,0,1,0,,
,,,,,,,,,6672f795fac6ecd66d7b987f,Mexican,13 or older,"no, only English or Spanish",no,2025-07-23_21h19.45.503,empathy_intonation_perc_control,2024.2.4,Win32,59.88023952,6672f795fac6ecd66d7b987f,68817205a84113384fffdfe3,688187d314c4ebace79b4454,,,,,,,,,,,,,,,,,,,,,,,,,,,2,,,,,,,,,,,,,,,,,,,,,,,,,,,,,,,,,,,,,,,,,,,,477.1821,484.6957,slightly disagree,0,1,1,1,1,I prefer animals to humans.,0,1,0,0,,
,,,,,,,,,6672f795fac6ecd66d7b987f,Mexican,13 or older,"no, only English or Spanish",no,2025-07-23_21h19.45.503,empathy_intonation_perc_control,2024.2.4,Win32,59.88023952,6672f795fac6ecd66d7b987f,68817205a84113384fffdfe3,688187d314c4ebace79b4454,,,,,,,,,,,,,,,,,,,,,,,,,,,3,,,,,,,,,,,,,,,,,,,,,,,,,,,,,,,,,,,,,,,,,,,,484.6984,486.7788,slightly agree,0,2,2,2,1,I try to keep up with the current trends and fashions.,0,1,0,0,,
,,,,,,,,,6672f795fac6ecd66d7b987f,Mexican,13 or older,"no, only English or Spanish",no,2025-07-23_21h19.45.503,empathy_intonation_perc_control,2024.2.4,Win32,59.88023952,6672f795fac6ecd66d7b987f,68817205a84113384fffdfe3,688187d314c4ebace79b4454,,,,,,,,,,,,,,,,,,,,,,,,,,,4,,,,,,,,,,,,,,,,,,,,,,,,,,,,,,,,,,,,,,,,,,,,486.781,490.3613,strongly agree,0,3,3,3,1,"I find it difficult to explain to others things that I understand easily,   when they don't understand it first time.",1,0,0,1,,
,,,,,,,,,6672f795fac6ecd66d7b987f,Mexican,13 or older,"no, only English or Spanish",no,2025-07-23_21h19.45.503,empathy_intonation_perc_control,2024.2.4,Win32,59.88023952,6672f795fac6ecd66d7b987f,68817205a84113384fffdfe3,688187d314c4ebace79b4454,,,,,,,,,,,,,,,,,,,,,,,,,,,5,,,,,,,,,,,,,,,,,,,,,,,,,,,,,,,,,,,,,,,,,,,,490.3629,493.5789,strongly disagree,0,4,4,4,1,I dream most nights.,0,1,0,0,,
,,,,,,,,,6672f795fac6ecd66d7b987f,Mexican,13 or older,"no, only English or Spanish",no,2025-07-23_21h19.45.503,empathy_intonation_perc_control,2024.2.4,Win32,59.88023952,6672f795fac6ecd66d7b987f,68817205a84113384fffdfe3,688187d314c4ebace79b4454,,,,,,,,,,,,,,,,,,,,,,,,,,,6,,,,,,,,,,,,,,,,,,,,,,,,,,,,,,,,,,,,,,,,,,,,493.5806,496.6106,slightly agree,0,5,5,5,1,I really enjoy caring for other people.,1,0,1,0,,
,,,,,,,,,6672f795fac6ecd66d7b987f,Mexican,13 or older,"no, only English or Spanish",no,2025-07-23_21h19.45.503,empathy_intonation_perc_control,2024.2.4,Win32,59.88023952,6672f795fac6ecd66d7b987f,68817205a84113384fffdfe3,688187d314c4ebace79b4454,,,,,,,,,,,,,,,,,,,,,,,,,,,7,,,,,,,,,,,,,,,,,,,,,,,,,,,,,,,,,,,,,,,,,,,,496.6126,499.2437,strongly agree,0,6,6,6,1,I try to solve my own problems rather than discussing them with others.,0,1,0,0,,
,,,,,,,,,6672f795fac6ecd66d7b987f,Mexican,13 or older,"no, only English or Spanish",no,2025-07-23_21h19.45.503,empathy_intonation_perc_control,2024.2.4,Win32,59.88023952,6672f795fac6ecd66d7b987f,68817205a84113384fffdfe3,688187d314c4ebace79b4454,,,,,,,,,,,,,,,,,,,,,,,,,,,8,,,,,,,,,,,,,,,,,,,,,,,,,,,,,,,,,,,,,,,,,,,,499.2454,501.7433,slightly agree,0,7,7,7,1,I find it hard to know what to do in a social situation.,1,0,0,1,,
,,,,,,,,,6672f795fac6ecd66d7b987f,Mexican,13 or older,"no, only English or Spanish",no,2025-07-23_21h19.45.503,empathy_intonation_perc_control,2024.2.4,Win32,59.88023952,6672f795fac6ecd66d7b987f,68817205a84113384fffdfe3,688187d314c4ebace79b4454,,,,,,,,,,,,,,,,,,,,,,,,,,,9,,,,,,,,,,,,,,,,,,,,,,,,,,,,,,,,,,,,,,,,,,,,501.7453,504.2263,slightly disagree,0,8,8,8,1,I am at my best first thing in the morning.,0,1,0,0,,
,,,,,,,,,6672f795fac6ecd66d7b987f,Mexican,13 or older,"no, only English or Spanish",no,2025-07-23_21h19.45.503,empathy_intonation_perc_control,2024.2.4,Win32,59.88023952,6672f795fac6ecd66d7b987f,68817205a84113384fffdfe3,688187d314c4ebace79b4454,,,,,,,,,,,,,,,,,,,,,,,,,,,10,,,,,,,,,,,,,,,,,,,,,,,,,,,,,,,,,,,,,,,,,,,,504.2286,507.4268,slightly agree,0,9,9,9,1,People often tell me that I went too far in driving my point home in a discussion.,1,0,0,1,,
,,,,,,,,,6672f795fac6ecd66d7b987f,Mexican,13 or older,"no, only English or Spanish",no,2025-07-23_21h19.45.503,empathy_intonation_perc_control,2024.2.4,Win32,59.88023952,6672f795fac6ecd66d7b987f,68817205a84113384fffdfe3,688187d314c4ebace79b4454,,,,,,,,,,,,,,,,,,,,,,,,,,,11,,,,,,,,,,,,,,,,,,,,,,,,,,,,,,,,,,,,,,,,,,,,507.4288,510.4094,slightly agree,0,10,10,10,1,It doesn't bother me too much if I am late meeting a friend.,1,0,0,1,,
,,,,,,,,,6672f795fac6ecd66d7b987f,Mexican,13 or older,"no, only English or Spanish",no,2025-07-23_21h19.45.503,empathy_intonation_perc_control,2024.2.4,Win32,59.88023952,6672f795fac6ecd66d7b987f,68817205a84113384fffdfe3,688187d314c4ebace79b4454,,,,,,,,,,,,,,,,,,,,,,,,,,,12,,,,,,,,,,,,,,,,,,,,,,,,,,,,,,,,,,,,,,,,,,,,510.4119,513.6585,strongly disagree,0,11,11,11,1,"Friendships and relationships are just too difficult, so I tend not to 
  bother with them.",1,0,0,1,,
,,,,,,,,,6672f795fac6ecd66d7b987f,Mexican,13 or older,"no, only English or Spanish",no,2025-07-23_21h19.45.503,empathy_intonation_perc_control,2024.2.4,Win32,59.88023952,6672f795fac6ecd66d7b987f,68817205a84113384fffdfe3,688187d314c4ebace79b4454,,,,,,,,,,,,,,,,,,,,,,,,,,,13,,,,,,,,,,,,,,,,,,,,,,,,,,,,,,,,,,,,,,,,,,,,513.6603,517.0084,slightly disagree,0,12,12,12,1,"I would never break a law, no matter how minor.",0,1,0,0,,
,,,,,,,,,6672f795fac6ecd66d7b987f,Mexican,13 or older,"no, only English or Spanish",no,2025-07-23_21h19.45.503,empathy_intonation_perc_control,2024.2.4,Win32,59.88023952,6672f795fac6ecd66d7b987f,68817205a84113384fffdfe3,688187d314c4ebace79b4454,,,,,,,,,,,,,,,,,,,,,,,,,,,14,,,,,,,,,,,,,,,,,,,,,,,,,,,,,,,,,,,,,,,,,,,,517.0103,519.8912,slightly agree,0,13,13,13,1,I often find it difficult to judge if something is rude or polite.,1,0,0,1,,
,,,,,,,,,6672f795fac6ecd66d7b987f,Mexican,13 or older,"no, only English or Spanish",no,2025-07-23_21h19.45.503,empathy_intonation_perc_control,2024.2.4,Win32,59.88023952,6672f795fac6ecd66d7b987f,68817205a84113384fffdfe3,688187d314c4ebace79b4454,,,,,,,,,,,,,,,,,,,,,,,,,,,15,,,,,,,,,,,,,,,,,,,,,,,,,,,,,,,,,,,,,,,,,,,,519.8932,523.5073,strongly agree,0,14,14,14,1,"In a conversation, I tend to focus on my own thoughts rather than on what 
  my listener might be thinking.",1,0,0,1,,
,,,,,,,,,6672f795fac6ecd66d7b987f,Mexican,13 or older,"no, only English or Spanish",no,2025-07-23_21h19.45.503,empathy_intonation_perc_control,2024.2.4,Win32,59.88023952,6672f795fac6ecd66d7b987f,68817205a84113384fffdfe3,688187d314c4ebace79b4454,,,,,,,,,,,,,,,,,,,,,,,,,,,16,,,,,,,,,,,,,,,,,,,,,,,,,,,,,,,,,,,,,,,,,,,,523.509,528.2403,strongly agree,0,15,15,15,1,I prefer practical jokes to verbal humor.,0,1,0,0,,
,,,,,,,,,6672f795fac6ecd66d7b987f,Mexican,13 or older,"no, only English or Spanish",no,2025-07-23_21h19.45.503,empathy_intonation_perc_control,2024.2.4,Win32,59.88023952,6672f795fac6ecd66d7b987f,68817205a84113384fffdfe3,688187d314c4ebace79b4454,,,,,,,,,,,,,,,,,,,,,,,,,,,17,,,,,,,,,,,,,,,,,,,,,,,,,,,,,,,,,,,,,,,,,,,,528.2424,531.9902,strongly agree,0,16,16,16,1,I live life for today rather than the future.,0,1,0,0,,
,,,,,,,,,6672f795fac6ecd66d7b987f,Mexican,13 or older,"no, only English or Spanish",no,2025-07-23_21h19.45.503,empathy_intonation_perc_control,2024.2.4,Win32,59.88023952,6672f795fac6ecd66d7b987f,68817205a84113384fffdfe3,688187d314c4ebace79b4454,,,,,,,,,,,,,,,,,,,,,,,,,,,18,,,,,,,,,,,,,,,,,,,,,,,,,,,,,,,,,,,,,,,,,,,,531.9928,535.873,strongly disagree,0,17,17,17,1,"When I was a child, I enjoyed cutting up worms to see what would happen.",1,0,0,1,,
,,,,,,,,,6672f795fac6ecd66d7b987f,Mexican,13 or older,"no, only English or Spanish",no,2025-07-23_21h19.45.503,empathy_intonation_perc_control,2024.2.4,Win32,59.88023952,6672f795fac6ecd66d7b987f,68817205a84113384fffdfe3,688187d314c4ebace79b4454,,,,,,,,,,,,,,,,,,,,,,,,,,,19,,,,,,,,,,,,,,,,,,,,,,,,,,,,,,,,,,,,,,,,,,,,535.8747,538.5558,slightly agree,0,18,18,18,1,I can pick up quickly if someone says one thing but means another.,1,0,1,0,,
,,,,,,,,,6672f795fac6ecd66d7b987f,Mexican,13 or older,"no, only English or Spanish",no,2025-07-23_21h19.45.503,empathy_intonation_perc_control,2024.2.4,Win32,59.88023952,6672f795fac6ecd66d7b987f,68817205a84113384fffdfe3,688187d314c4ebace79b4454,,,,,,,,,,,,,,,,,,,,,,,,,,,20,,,,,,,,,,,,,,,,,,,,,,,,,,,,,,,,,,,,,,,,,,,,538.5578,542.0885,slightly disagree,0,19,19,19,1,I tend to have very strong opinions about morality.,0,1,0,0,,
,,,,,,,,,6672f795fac6ecd66d7b987f,Mexican,13 or older,"no, only English or Spanish",no,2025-07-23_21h19.45.503,empathy_intonation_perc_control,2024.2.4,Win32,59.88023952,6672f795fac6ecd66d7b987f,68817205a84113384fffdfe3,688187d314c4ebace79b4454,,,,,,,,,,,,,,,,,,,,,,,,,,,21,,,,,,,,,,,,,,,,,,,,,,,,,,,,,,,,,,,,,,,,,,,,542.0903,545.4384,slightly agree,0,20,20,20,1,It is hard for me to see why some things upset people so much.,1,0,0,1,,
,,,,,,,,,6672f795fac6ecd66d7b987f,Mexican,13 or older,"no, only English or Spanish",no,2025-07-23_21h19.45.503,empathy_intonation_perc_control,2024.2.4,Win32,59.88023952,6672f795fac6ecd66d7b987f,68817205a84113384fffdfe3,688187d314c4ebace79b4454,,,,,,,,,,,,,,,,,,,,,,,,,,,22,,,,,,,,,,,,,,,,,,,,,,,,,,,,,,,,,,,,,,,,,,,,545.4396,547.4213,slightly agree,0,21,21,21,1,I find it easy to put myself in somebody else's shoes.,1,0,1,0,,
,,,,,,,,,6672f795fac6ecd66d7b987f,Mexican,13 or older,"no, only English or Spanish",no,2025-07-23_21h19.45.503,empathy_intonation_perc_control,2024.2.4,Win32,59.88023952,6672f795fac6ecd66d7b987f,68817205a84113384fffdfe3,688187d314c4ebace79b4454,,,,,,,,,,,,,,,,,,,,,,,,,,,23,,,,,,,,,,,,,,,,,,,,,,,,,,,,,,,,,,,,,,,,,,,,547.4223,553.221,strongly agree,0,22,22,22,1,I think that good manners are the most important thing a parent can teach their child.,0,1,0,0,,
,,,,,,,,,6672f795fac6ecd66d7b987f,Mexican,13 or older,"no, only English or Spanish",no,2025-07-23_21h19.45.503,empathy_intonation_perc_control,2024.2.4,Win32,59.88023952,6672f795fac6ecd66d7b987f,68817205a84113384fffdfe3,688187d314c4ebace79b4454,,,,,,,,,,,,,,,,,,,,,,,,,,,24,,,,,,,,,,,,,,,,,,,,,,,,,,,,,,,,,,,,,,,,,,,,553.2234,555.3535,slightly agree,0,23,23,23,1,I like to do things on the spur of the moment.,0,1,0,0,,
,,,,,,,,,6672f795fac6ecd66d7b987f,Mexican,13 or older,"no, only English or Spanish",no,2025-07-23_21h19.45.503,empathy_intonation_perc_control,2024.2.4,Win32,59.88023952,6672f795fac6ecd66d7b987f,68817205a84113384fffdfe3,688187d314c4ebace79b4454,,,,,,,,,,,,,,,,,,,,,,,,,,,25,,,,,,,,,,,,,,,,,,,,,,,,,,,,,,,,,,,,,,,,,,,,555.3551,558.6534,slightly disagree,0,24,24,24,1,I am good at predicting how someone will feel.,1,0,1,0,,
