instructions_2afc.started,instructions_2afc.stopped,instructions_2afc_loop.thisRepN,instructions_2afc_loop.thisTrialN,instructions_2afc_loop.thisN,instructions_2afc_loop.thisIndex,instructions_2afc_loop.ran,instructions_text,continue_text,participant_id,"What variety of Spanish are you most familiar with? (e.g., Peruvian, Spanish, Mexican)",At what age did you begin learning Spanish?,Are you proficient in any languages other than English/Spanish?,"Are you familiar with Caribbean (e.g., Caribbean, Puerto Rican) or Galician Spanish?",date,expName,psychopyVersion,OS,frameRate,id,study_id,session,practice_2afc.started,practice_2afc.stopped,key_resp_2afc_practice.keys,key_resp_2afc_practice.corr,key_resp_2afc_practice.rt,key_resp_2afc_practice.duration,trials_2afc_practice_loop.thisRepN,trials_2afc_practice_loop.thisTrialN,trials_2afc_practice_loop.thisN,trials_2afc_practice_loop.thisIndex,trials_2afc_practice_loop.ran,path,correct_response,check_2afc.started,check_2afc.stopped,trial_2afc.started,trial_2afc.stopped,key_resp_2afc_trial.keys,key_resp_2afc_trial.corr,key_resp_2afc_trial.rt,key_resp_2afc_trial.duration,trials_2afc_loop.thisRepN,trials_2afc_loop.thisTrialN,trials_2afc_loop.thisN,trials_2afc_loop.thisIndex,trials_2afc_loop.ran,item_num,target,variety,instructions_lextale.started,instructions_lextale.stopped,instructions_lextale_loop.thisRepN,instructions_lextale_loop.thisTrialN,instructions_lextale_loop.thisN,instructions_lextale_loop.thisIndex,instructions_lextale_loop.ran,practice_lextale.started,practice_lextale.stopped,key_resp_lextale_practice.keys,key_resp_lextale_practice.corr,key_resp_lextale_practice.rt,key_resp_lextale_practice.duration,practice_feedback_lextale.started,practice_feedback_lextale.stopped,trials_lextale_practice_loop.thisRepN,trials_lextale_practice_loop.thisTrialN,trials_lextale_practice_loop.thisN,trials_lextale_practice_loop.thisIndex,trials_lextale_practice_loop.ran,stim,word,prac_button_real,prac_button_false,check_lextale.started,check_lextale.stopped,trial_lextale.started,trial_lextale.stopped,key_resp_lextale_trial.keys,key_resp_lextale_trial.corr,key_resp_lextale_trial.rt,key_resp_lextale_trial.duration,trials_lextale_loop.thisRepN,trials_lextale_loop.thisTrialN,trials_lextale_loop.thisN,trials_lextale_loop.thisIndex,trials_lextale_loop.ran,button_real,button_false,instructions_eq.started,instructions_eq.stopped,trial_eq.started,trial_eq.stopped,slider_eq_trial.response,trials_eq_loop.thisRepN,trials_eq_loop.thisTrialN,trials_eq_loop.thisN,trials_eq_loop.thisIndex,trials_eq_loop.ran,item,is_test_item,is_distractor,is_agree_score,is_disagree_score,end_exp.started,end_exp.stopped
0.01,3.39,0,0,0,0,1,"In the following task you are going to hear a series of utterances. 

  You will decide if the utterances sound like questions or not using your keyboard.", (press the spacebar to continue),6679e88eb948e8a4b08a39fb,Puerto Rican,younger than 13,"no, only English or Spanish",yes,2025-08-13_17h59.35.627,empathy_intonation_perc_control,2024.2.4,Win32,60.0240096,6679e88eb948e8a4b08a39fb,68817205a84113384fffdfe3,689d0a36bdbb9ec0d6d19299,,,,,,,,,,,,,,,,,,,,,,,,,,,,,,,,,,,,,,,,,,,,,,,,,,,,,,,,,,,,,,,,,,,,,,,,,,,,,,,,,,,,,
3.392,8.926,0,1,1,1,1,"If you believe the utterance is a question, type '1' (for 'yes') and if you do not 
  believe it is a question type '0' (for 'no').

  Let's practice a bit...", (press the spacebar to continue),6679e88eb948e8a4b08a39fb,Puerto Rican,younger than 13,"no, only English or Spanish",yes,2025-08-13_17h59.35.627,empathy_intonation_perc_control,2024.2.4,Win32,60.0240096,6679e88eb948e8a4b08a39fb,68817205a84113384fffdfe3,689d0a36bdbb9ec0d6d19299,,,,,,,,,,,,,,,,,,,,,,,,,,,,,,,,,,,,,,,,,,,,,,,,,,,,,,,,,,,,,,,,,,,,,,,,,,,,,,,,,,,,,
,,,,,,,,,6679e88eb948e8a4b08a39fb,Puerto Rican,younger than 13,"no, only English or Spanish",yes,2025-08-13_17h59.35.627,empathy_intonation_perc_control,2024.2.4,Win32,60.0240096,6679e88eb948e8a4b08a39fb,68817205a84113384fffdfe3,689d0a36bdbb9ec0d6d19299,8.951,12.102,1,1,2.633,,0,0,0,3,1,./stim/wavs/mexican_question_filler_Felipe-no-tiene-contrasena.wav,1,,,,,,,,,,,,,,,,,,,,,,,,,,,,,,,,,,,,,,,,,,,,,,,,,,,,,,,,,,,,,,,,,,,,,,,,
,,,,,,,,,6679e88eb948e8a4b08a39fb,Puerto Rican,younger than 13,"no, only English or Spanish",yes,2025-08-13_17h59.35.627,empathy_intonation_perc_control,2024.2.4,Win32,60.0240096,6679e88eb948e8a4b08a39fb,68817205a84113384fffdfe3,689d0a36bdbb9ec0d6d19299,12.106,14.489,0,0,1.863,,0,1,1,1,1,./stim/wavs/argentine_question_filler_Mi-vecino-habla-mucho.wav,1,,,,,,,,,,,,,,,,,,,,,,,,,,,,,,,,,,,,,,,,,,,,,,,,,,,,,,,,,,,,,,,,,,,,,,,,
,,,,,,,,,6679e88eb948e8a4b08a39fb,Puerto Rican,younger than 13,"no, only English or Spanish",yes,2025-08-13_17h59.35.627,empathy_intonation_perc_control,2024.2.4,Win32,60.0240096,6679e88eb948e8a4b08a39fb,68817205a84113384fffdfe3,689d0a36bdbb9ec0d6d19299,14.491,19.151,1,1,4.145,,0,2,2,0,1,./stim/wavs/castilian_question_filler_Mi-esposo-conoce-al-chico.wav,1,,,,,,,,,,,,,,,,,,,,,,,,,,,,,,,,,,,,,,,,,,,,,,,,,,,,,,,,,,,,,,,,,,,,,,,,
,,,,,,,,,6679e88eb948e8a4b08a39fb,Puerto Rican,younger than 13,"no, only English or Spanish",yes,2025-08-13_17h59.35.627,empathy_intonation_perc_control,2024.2.4,Win32,60.0240096,6679e88eb948e8a4b08a39fb,68817205a84113384fffdfe3,689d0a36bdbb9ec0d6d19299,19.154,21.63,0,1,1.948,,0,3,3,7,1,./stim/wavs/puertorican_statement_filler_La-nina-pinta-con-su-amiga.wav,0,,,,,,,,,,,,,,,,,,,,,,,,,,,,,,,,,,,,,,,,,,,,,,,,,,,,,,,,,,,,,,,,,,,,,,,,
,,,,,,,,,6679e88eb948e8a4b08a39fb,Puerto Rican,younger than 13,"no, only English or Spanish",yes,2025-08-13_17h59.35.627,empathy_intonation_perc_control,2024.2.4,Win32,60.0240096,6679e88eb948e8a4b08a39fb,68817205a84113384fffdfe3,689d0a36bdbb9ec0d6d19299,21.632,25.282,0,0,3.13,,0,4,4,2,1,./stim/wavs/chilean_question_filler_Mi-padre-cantaba-bien.wav,1,,,,,,,,,,,,,,,,,,,,,,,,,,,,,,,,,,,,,,,,,,,,,,,,,,,,,,,,,,,,,,,,,,,,,,,,
,,,,,,,,,6679e88eb948e8a4b08a39fb,Puerto Rican,younger than 13,"no, only English or Spanish",yes,2025-08-13_17h59.35.627,empathy_intonation_perc_control,2024.2.4,Win32,60.0240096,6679e88eb948e8a4b08a39fb,68817205a84113384fffdfe3,689d0a36bdbb9ec0d6d19299,25.284,28.254,0,1,2.447,,0,5,5,6,1,./stim/wavs/peruvian_statement_filler_El-nino-habla-con-su-madre.wav,0,,,,,,,,,,,,,,,,,,,,,,,,,,,,,,,,,,,,,,,,,,,,,,,,,,,,,,,,,,,,,,,,,,,,,,,,
,,,,,,,,,6679e88eb948e8a4b08a39fb,Puerto Rican,younger than 13,"no, only English or Spanish",yes,2025-08-13_17h59.35.627,empathy_intonation_perc_control,2024.2.4,Win32,60.0240096,6679e88eb948e8a4b08a39fb,68817205a84113384fffdfe3,689d0a36bdbb9ec0d6d19299,28.256,30.998,0,1,2.229,,0,6,6,5,1,./stim/wavs/andalusian_statement_filler_Alberto-nunca-se-afeita.wav,0,,,,,,,,,,,,,,,,,,,,,,,,,,,,,,,,,,,,,,,,,,,,,,,,,,,,,,,,,,,,,,,,,,,,,,,,
,,,,,,,,,6679e88eb948e8a4b08a39fb,Puerto Rican,younger than 13,"no, only English or Spanish",yes,2025-08-13_17h59.35.627,empathy_intonation_perc_control,2024.2.4,Win32,60.0240096,6679e88eb948e8a4b08a39fb,68817205a84113384fffdfe3,689d0a36bdbb9ec0d6d19299,31.002,33.52,0,1,2.001,,0,7,7,4,1,./stim/wavs/cuban_statement_filler_Cocinabas-por-la-noche.wav,0,,,,,,,,,,,,,,,,,,,,,,,,,,,,,,,,,,,,,,,,,,,,,,,,,,,,,,,,,,,,,,,,,,,,,,,,
,,,,,,,,,6679e88eb948e8a4b08a39fb,Puerto Rican,younger than 13,"no, only English or Spanish",yes,2025-08-13_17h59.35.627,empathy_intonation_perc_control,2024.2.4,Win32,60.0240096,6679e88eb948e8a4b08a39fb,68817205a84113384fffdfe3,689d0a36bdbb9ec0d6d19299,,,,,,,,,,,,,,33.521,36.434,,,,,,,,,,,,,,,,,,,,,,,,,,,,,,,,,,,,,,,,,,,,,,,,,,,,,,,,,,,,,,,,,,,,,,
,,,,,,,,,6679e88eb948e8a4b08a39fb,Puerto Rican,younger than 13,"no, only English or Spanish",yes,2025-08-13_17h59.35.627,empathy_intonation_perc_control,2024.2.4,Win32,60.0240096,6679e88eb948e8a4b08a39fb,68817205a84113384fffdfe3,689d0a36bdbb9ec0d6d19299,,,,,,,,,,,,./stim/wavs/puertorican_match_interrogative-total-yn_Emilio-ama-la-marcha.wav,1,,,36.464,39.037,0,0,2.052,,0,0,0,21,1,22,1,puertorican,,,,,,,,,,,,,,,,,,,,,,,,,,,,,,,,,,,,,,,,,,,,,,,,,,,,,,,,
,,,,,,,,,6679e88eb948e8a4b08a39fb,Puerto Rican,younger than 13,"no, only English or Spanish",yes,2025-08-13_17h59.35.627,empathy_intonation_perc_control,2024.2.4,Win32,60.0240096,6679e88eb948e8a4b08a39fb,68817205a84113384fffdfe3,689d0a36bdbb9ec0d6d19299,,,,,,,,,,,,./stim/wavs/castilian_match_interrogative-total-yn_Marta-abre-el-regalo.wav,1,,,39.041,41.807,1,1,2.247,,0,1,1,5,1,6,0,castilian,,,,,,,,,,,,,,,,,,,,,,,,,,,,,,,,,,,,,,,,,,,,,,,,,,,,,,,,
,,,,,,,,,6679e88eb948e8a4b08a39fb,Puerto Rican,younger than 13,"no, only English or Spanish",yes,2025-08-13_17h59.35.627,empathy_intonation_perc_control,2024.2.4,Win32,60.0240096,6679e88eb948e8a4b08a39fb,68817205a84113384fffdfe3,689d0a36bdbb9ec0d6d19299,,,,,,,,,,,,./stim/wavs/castilian_mismatch_declarative-broad-focus_La-nina-lava-el-plato.wav,0,,,41.808,44.167,1,0,1.839,,0,2,2,70,1,71,0,castilian,,,,,,,,,,,,,,,,,,,,,,,,,,,,,,,,,,,,,,,,,,,,,,,,,,,,,,,,
,,,,,,,,,6679e88eb948e8a4b08a39fb,Puerto Rican,younger than 13,"no, only English or Spanish",yes,2025-08-13_17h59.35.627,empathy_intonation_perc_control,2024.2.4,Win32,60.0240096,6679e88eb948e8a4b08a39fb,68817205a84113384fffdfe3,689d0a36bdbb9ec0d6d19299,,,,,,,,,,,,./stim/wavs/puertorican_mismatch_declarative-broad-focus_La-nina-lava-el-plato.wav,0,,,44.169,46.985,0,1,2.294,,0,3,3,87,1,88,0,puertorican,,,,,,,,,,,,,,,,,,,,,,,,,,,,,,,,,,,,,,,,,,,,,,,,,,,,,,,,
,,,,,,,,,6679e88eb948e8a4b08a39fb,Puerto Rican,younger than 13,"no, only English or Spanish",yes,2025-08-13_17h59.35.627,empathy_intonation_perc_control,2024.2.4,Win32,60.0240096,6679e88eb948e8a4b08a39fb,68817205a84113384fffdfe3,689d0a36bdbb9ec0d6d19299,,,,,,,,,,,,./stim/wavs/mexican_match_declarative-broad-focus_Ana-lleva-el-abrigo.wav,0,,,46.986,49.182,0,1,1.673,,0,4,4,56,1,57,0,mexican,,,,,,,,,,,,,,,,,,,,,,,,,,,,,,,,,,,,,,,,,,,,,,,,,,,,,,,,
,,,,,,,,,6679e88eb948e8a4b08a39fb,Puerto Rican,younger than 13,"no, only English or Spanish",yes,2025-08-13_17h59.35.627,empathy_intonation_perc_control,2024.2.4,Win32,60.0240096,6679e88eb948e8a4b08a39fb,68817205a84113384fffdfe3,689d0a36bdbb9ec0d6d19299,,,,,,,,,,,,./stim/wavs/cuban_match_interrogative-total-yn_Maria-bebe-el-vino.wav,1,,,49.184,51.496,0,0,1.79,,0,5,5,9,1,10,1,cuban,,,,,,,,,,,,,,,,,,,,,,,,,,,,,,,,,,,,,,,,,,,,,,,,,,,,,,,,
,,,,,,,,,6679e88eb948e8a4b08a39fb,Puerto Rican,younger than 13,"no, only English or Spanish",yes,2025-08-13_17h59.35.627,empathy_intonation_perc_control,2024.2.4,Win32,60.0240096,6679e88eb948e8a4b08a39fb,68817205a84113384fffdfe3,689d0a36bdbb9ec0d6d19299,,,,,,,,,,,,./stim/wavs/cuban_mismatch_interrogative-total-yn_Mi-madre-come-la-fruta.wav,1,,,51.498,53.966,0,0,1.941,,0,6,6,31,1,32,1,cuban,,,,,,,,,,,,,,,,,,,,,,,,,,,,,,,,,,,,,,,,,,,,,,,,,,,,,,,,
,,,,,,,,,6679e88eb948e8a4b08a39fb,Puerto Rican,younger than 13,"no, only English or Spanish",yes,2025-08-13_17h59.35.627,empathy_intonation_perc_control,2024.2.4,Win32,60.0240096,6679e88eb948e8a4b08a39fb,68817205a84113384fffdfe3,689d0a36bdbb9ec0d6d19299,,,,,,,,,,,,./stim/wavs/castilian_match_interrogative-total-yn_Maria-bebe-el-vino.wav,1,,,53.969,56.622,1,1,2.128,,0,7,7,3,1,4,0,castilian,,,,,,,,,,,,,,,,,,,,,,,,,,,,,,,,,,,,,,,,,,,,,,,,,,,,,,,,
,,,,,,,,,6679e88eb948e8a4b08a39fb,Puerto Rican,younger than 13,"no, only English or Spanish",yes,2025-08-13_17h59.35.627,empathy_intonation_perc_control,2024.2.4,Win32,60.0240096,6679e88eb948e8a4b08a39fb,68817205a84113384fffdfe3,689d0a36bdbb9ec0d6d19299,,,,,,,,,,,,./stim/wavs/cuban_match_declarative-broad-focus_Mariano-habla-del-tiempo.wav,0,,,56.624,59.206,0,1,2.063,,0,8,8,54,1,55,0,cuban,,,,,,,,,,,,,,,,,,,,,,,,,,,,,,,,,,,,,,,,,,,,,,,,,,,,,,,,
,,,,,,,,,6679e88eb948e8a4b08a39fb,Puerto Rican,younger than 13,"no, only English or Spanish",yes,2025-08-13_17h59.35.627,empathy_intonation_perc_control,2024.2.4,Win32,60.0240096,6679e88eb948e8a4b08a39fb,68817205a84113384fffdfe3,689d0a36bdbb9ec0d6d19299,,,,,,,,,,,,./stim/wavs/puertorican_match_declarative-broad-focus_Maria-bebe-el-vino.wav,0,,,59.212,61.513,0,1,1.781,,0,9,9,67,1,68,0,puertorican,,,,,,,,,,,,,,,,,,,,,,,,,,,,,,,,,,,,,,,,,,,,,,,,,,,,,,,,
,,,,,,,,,6679e88eb948e8a4b08a39fb,Puerto Rican,younger than 13,"no, only English or Spanish",yes,2025-08-13_17h59.35.627,empathy_intonation_perc_control,2024.2.4,Win32,60.0240096,6679e88eb948e8a4b08a39fb,68817205a84113384fffdfe3,689d0a36bdbb9ec0d6d19299,,,,,,,,,,,,./stim/wavs/mexican_mismatch_interrogative-total-yn_Mi-novio-viene-del-lago.wav,1,,,61.515,64.105,0,0,2.067,,0,10,10,37,1,38,0,mexican,,,,,,,,,,,,,,,,,,,,,,,,,,,,,,,,,,,,,,,,,,,,,,,,,,,,,,,,
,,,,,,,,,6679e88eb948e8a4b08a39fb,Puerto Rican,younger than 13,"no, only English or Spanish",yes,2025-08-13_17h59.35.627,empathy_intonation_perc_control,2024.2.4,Win32,60.0240096,6679e88eb948e8a4b08a39fb,68817205a84113384fffdfe3,689d0a36bdbb9ec0d6d19299,,,,,,,,,,,,./stim/wavs/castilian_match_interrogative-total-yn_Manuela-vende-el-carro.wav,1,,,64.107,66.638,1,1,2.003,,0,11,11,2,1,3,0,castilian,,,,,,,,,,,,,,,,,,,,,,,,,,,,,,,,,,,,,,,,,,,,,,,,,,,,,,,,
,,,,,,,,,6679e88eb948e8a4b08a39fb,Puerto Rican,younger than 13,"no, only English or Spanish",yes,2025-08-13_17h59.35.627,empathy_intonation_perc_control,2024.2.4,Win32,60.0240096,6679e88eb948e8a4b08a39fb,68817205a84113384fffdfe3,689d0a36bdbb9ec0d6d19299,,,,,,,,,,,,./stim/wavs/cuban_match_declarative-broad-focus_Ana-lleva-el-abrigo.wav,0,,,66.641,68.827,1,0,1.669,,0,12,12,50,1,51,0,cuban,,,,,,,,,,,,,,,,,,,,,,,,,,,,,,,,,,,,,,,,,,,,,,,,,,,,,,,,
,,,,,,,,,6679e88eb948e8a4b08a39fb,Puerto Rican,younger than 13,"no, only English or Spanish",yes,2025-08-13_17h59.35.627,empathy_intonation_perc_control,2024.2.4,Win32,60.0240096,6679e88eb948e8a4b08a39fb,68817205a84113384fffdfe3,689d0a36bdbb9ec0d6d19299,,,,,,,,,,,,./stim/wavs/cuban_match_declarative-broad-focus_Manuela-vende-el-carro.wav,0,,,68.83,71.236,0,1,1.888,,0,13,13,52,1,53,0,cuban,,,,,,,,,,,,,,,,,,,,,,,,,,,,,,,,,,,,,,,,,,,,,,,,,,,,,,,,
,,,,,,,,,6679e88eb948e8a4b08a39fb,Puerto Rican,younger than 13,"no, only English or Spanish",yes,2025-08-13_17h59.35.627,empathy_intonation_perc_control,2024.2.4,Win32,60.0240096,6679e88eb948e8a4b08a39fb,68817205a84113384fffdfe3,689d0a36bdbb9ec0d6d19299,,,,,,,,,,,,./stim/wavs/puertorican_match_declarative-broad-focus_Ana-lleva-el-abrigo.wav,0,,,71.238,73.282,0,1,1.495,,0,14,14,62,1,63,0,puertorican,,,,,,,,,,,,,,,,,,,,,,,,,,,,,,,,,,,,,,,,,,,,,,,,,,,,,,,,
,,,,,,,,,6679e88eb948e8a4b08a39fb,Puerto Rican,younger than 13,"no, only English or Spanish",yes,2025-08-13_17h59.35.627,empathy_intonation_perc_control,2024.2.4,Win32,60.0240096,6679e88eb948e8a4b08a39fb,68817205a84113384fffdfe3,689d0a36bdbb9ec0d6d19299,,,,,,,,,,,,./stim/wavs/puertorican_match_interrogative-total-yn_Ana-lleva-el-abrigo.wav,1,,,73.283,75.498,1,1,1.689,,0,15,15,18,1,19,1,puertorican,,,,,,,,,,,,,,,,,,,,,,,,,,,,,,,,,,,,,,,,,,,,,,,,,,,,,,,,
,,,,,,,,,6679e88eb948e8a4b08a39fb,Puerto Rican,younger than 13,"no, only English or Spanish",yes,2025-08-13_17h59.35.627,empathy_intonation_perc_control,2024.2.4,Win32,60.0240096,6679e88eb948e8a4b08a39fb,68817205a84113384fffdfe3,689d0a36bdbb9ec0d6d19299,,,,,,,,,,,,./stim/wavs/castilian_mismatch_declarative-broad-focus_Mi-tia-odia-la-lluvia.wav,0,,,75.499,78.223,0,1,2.207,,0,16,16,72,1,73,0,castilian,,,,,,,,,,,,,,,,,,,,,,,,,,,,,,,,,,,,,,,,,,,,,,,,,,,,,,,,
,,,,,,,,,6679e88eb948e8a4b08a39fb,Puerto Rican,younger than 13,"no, only English or Spanish",yes,2025-08-13_17h59.35.627,empathy_intonation_perc_control,2024.2.4,Win32,60.0240096,6679e88eb948e8a4b08a39fb,68817205a84113384fffdfe3,689d0a36bdbb9ec0d6d19299,,,,,,,,,,,,./stim/wavs/castilian_mismatch_interrogative-total-yn_La-nina-lava-el-plato.wav,1,,,78.224,81.554,1,1,2.817,,0,17,17,25,1,26,0,castilian,,,,,,,,,,,,,,,,,,,,,,,,,,,,,,,,,,,,,,,,,,,,,,,,,,,,,,,,
,,,,,,,,,6679e88eb948e8a4b08a39fb,Puerto Rican,younger than 13,"no, only English or Spanish",yes,2025-08-13_17h59.35.627,empathy_intonation_perc_control,2024.2.4,Win32,60.0240096,6679e88eb948e8a4b08a39fb,68817205a84113384fffdfe3,689d0a36bdbb9ec0d6d19299,,,,,,,,,,,,./stim/wavs/mexican_match_interrogative-total-yn_Emilio-ama-la-marcha.wav,1,,,81.556,83.943,1,1,1.859,,0,18,18,15,1,16,0,mexican,,,,,,,,,,,,,,,,,,,,,,,,,,,,,,,,,,,,,,,,,,,,,,,,,,,,,,,,
,,,,,,,,,6679e88eb948e8a4b08a39fb,Puerto Rican,younger than 13,"no, only English or Spanish",yes,2025-08-13_17h59.35.627,empathy_intonation_perc_control,2024.2.4,Win32,60.0240096,6679e88eb948e8a4b08a39fb,68817205a84113384fffdfe3,689d0a36bdbb9ec0d6d19299,,,,,,,,,,,,./stim/wavs/puertorican_match_declarative-broad-focus_Daniel-iba-a-Bolivia.wav,0,,,83.946,86.124,0,1,1.659,,0,19,19,63,1,64,0,puertorican,,,,,,,,,,,,,,,,,,,,,,,,,,,,,,,,,,,,,,,,,,,,,,,,,,,,,,,,
,,,,,,,,,6679e88eb948e8a4b08a39fb,Puerto Rican,younger than 13,"no, only English or Spanish",yes,2025-08-13_17h59.35.627,empathy_intonation_perc_control,2024.2.4,Win32,60.0240096,6679e88eb948e8a4b08a39fb,68817205a84113384fffdfe3,689d0a36bdbb9ec0d6d19299,,,,,,,,,,,,./stim/wavs/cuban_mismatch_interrogative-total-yn_Mi-novio-viene-del-lago.wav,1,,,86.125,88.309,1,1,1.671,,0,20,20,32,1,33,1,cuban,,,,,,,,,,,,,,,,,,,,,,,,,,,,,,,,,,,,,,,,,,,,,,,,,,,,,,,,
,,,,,,,,,6679e88eb948e8a4b08a39fb,Puerto Rican,younger than 13,"no, only English or Spanish",yes,2025-08-13_17h59.35.627,empathy_intonation_perc_control,2024.2.4,Win32,60.0240096,6679e88eb948e8a4b08a39fb,68817205a84113384fffdfe3,689d0a36bdbb9ec0d6d19299,,,,,,,,,,,,./stim/wavs/castilian_match_declarative-broad-focus_David-leia-el-libro.wav,0,,,88.31,90.625,1,0,1.801,,0,21,21,44,1,45,0,castilian,,,,,,,,,,,,,,,,,,,,,,,,,,,,,,,,,,,,,,,,,,,,,,,,,,,,,,,,
,,,,,,,,,6679e88eb948e8a4b08a39fb,Puerto Rican,younger than 13,"no, only English or Spanish",yes,2025-08-13_17h59.35.627,empathy_intonation_perc_control,2024.2.4,Win32,60.0240096,6679e88eb948e8a4b08a39fb,68817205a84113384fffdfe3,689d0a36bdbb9ec0d6d19299,,,,,,,,,,,,./stim/wavs/cuban_mismatch_interrogative-total-yn_El-hombre-mira-la-luna.wav,1,,,90.627,92.756,1,1,1.61,,0,22,22,29,1,30,1,cuban,,,,,,,,,,,,,,,,,,,,,,,,,,,,,,,,,,,,,,,,,,,,,,,,,,,,,,,,
,,,,,,,,,6679e88eb948e8a4b08a39fb,Puerto Rican,younger than 13,"no, only English or Spanish",yes,2025-08-13_17h59.35.627,empathy_intonation_perc_control,2024.2.4,Win32,60.0240096,6679e88eb948e8a4b08a39fb,68817205a84113384fffdfe3,689d0a36bdbb9ec0d6d19299,,,,,,,,,,,,./stim/wavs/castilian_match_interrogative-total-yn_Emilio-ama-la-marcha.wav,1,,,92.763,95.305,0,0,2.019,,0,23,23,1,1,2,0,castilian,,,,,,,,,,,,,,,,,,,,,,,,,,,,,,,,,,,,,,,,,,,,,,,,,,,,,,,,
,,,,,,,,,6679e88eb948e8a4b08a39fb,Puerto Rican,younger than 13,"no, only English or Spanish",yes,2025-08-13_17h59.35.627,empathy_intonation_perc_control,2024.2.4,Win32,60.0240096,6679e88eb948e8a4b08a39fb,68817205a84113384fffdfe3,689d0a36bdbb9ec0d6d19299,,,,,,,,,,,,./stim/wavs/mexican_mismatch_interrogative-total-yn_El-hombre-mira-la-luna.wav,1,,,95.306,97.551,1,1,1.726,,0,24,24,34,1,35,0,mexican,,,,,,,,,,,,,,,,,,,,,,,,,,,,,,,,,,,,,,,,,,,,,,,,,,,,,,,,
,,,,,,,,,6679e88eb948e8a4b08a39fb,Puerto Rican,younger than 13,"no, only English or Spanish",yes,2025-08-13_17h59.35.627,empathy_intonation_perc_control,2024.2.4,Win32,60.0240096,6679e88eb948e8a4b08a39fb,68817205a84113384fffdfe3,689d0a36bdbb9ec0d6d19299,,,,,,,,,,,,./stim/wavs/mexican_mismatch_declarative-broad-focus_La-maestra-vive-en-Paris.wav,0,,,97.553,99.886,0,1,1.817,,0,25,25,80,1,81,0,mexican,,,,,,,,,,,,,,,,,,,,,,,,,,,,,,,,,,,,,,,,,,,,,,,,,,,,,,,,
,,,,,,,,,6679e88eb948e8a4b08a39fb,Puerto Rican,younger than 13,"no, only English or Spanish",yes,2025-08-13_17h59.35.627,empathy_intonation_perc_control,2024.2.4,Win32,60.0240096,6679e88eb948e8a4b08a39fb,68817205a84113384fffdfe3,689d0a36bdbb9ec0d6d19299,,,,,,,,,,,,./stim/wavs/cuban_match_interrogative-total-yn_Manuela-vende-el-carro.wav,1,,,99.888,102.375,0,0,1.972,,0,26,26,8,1,9,1,cuban,,,,,,,,,,,,,,,,,,,,,,,,,,,,,,,,,,,,,,,,,,,,,,,,,,,,,,,,
,,,,,,,,,6679e88eb948e8a4b08a39fb,Puerto Rican,younger than 13,"no, only English or Spanish",yes,2025-08-13_17h59.35.627,empathy_intonation_perc_control,2024.2.4,Win32,60.0240096,6679e88eb948e8a4b08a39fb,68817205a84113384fffdfe3,689d0a36bdbb9ec0d6d19299,,,,,,,,,,,,./stim/wavs/puertorican_mismatch_interrogative-total-yn_El-nino-oye-el-rio.wav,1,,,102.377,104.461,1,1,1.572,,0,27,27,40,1,41,1,puertorican,,,,,,,,,,,,,,,,,,,,,,,,,,,,,,,,,,,,,,,,,,,,,,,,,,,,,,,,
,,,,,,,,,6679e88eb948e8a4b08a39fb,Puerto Rican,younger than 13,"no, only English or Spanish",yes,2025-08-13_17h59.35.627,empathy_intonation_perc_control,2024.2.4,Win32,60.0240096,6679e88eb948e8a4b08a39fb,68817205a84113384fffdfe3,689d0a36bdbb9ec0d6d19299,,,,,,,,,,,,./stim/wavs/puertorican_mismatch_interrogative-total-yn_El-hombre-mira-la-luna.wav,1,,,104.462,106.542,1,1,1.555,,0,28,28,39,1,40,1,puertorican,,,,,,,,,,,,,,,,,,,,,,,,,,,,,,,,,,,,,,,,,,,,,,,,,,,,,,,,
,,,,,,,,,6679e88eb948e8a4b08a39fb,Puerto Rican,younger than 13,"no, only English or Spanish",yes,2025-08-13_17h59.35.627,empathy_intonation_perc_control,2024.2.4,Win32,60.0240096,6679e88eb948e8a4b08a39fb,68817205a84113384fffdfe3,689d0a36bdbb9ec0d6d19299,,,,,,,,,,,,./stim/wavs/cuban_match_interrogative-total-yn_Daniel-iba-a-Bolivia.wav,1,,,106.544,108.714,0,0,1.658,,0,29,29,7,1,8,1,cuban,,,,,,,,,,,,,,,,,,,,,,,,,,,,,,,,,,,,,,,,,,,,,,,,,,,,,,,,
,,,,,,,,,6679e88eb948e8a4b08a39fb,Puerto Rican,younger than 13,"no, only English or Spanish",yes,2025-08-13_17h59.35.627,empathy_intonation_perc_control,2024.2.4,Win32,60.0240096,6679e88eb948e8a4b08a39fb,68817205a84113384fffdfe3,689d0a36bdbb9ec0d6d19299,,,,,,,,,,,,./stim/wavs/mexican_match_interrogative-total-yn_Daniel-iba-a-Bolivia.wav,1,,,108.716,111.476,1,1,2.238,,0,30,30,13,1,14,0,mexican,,,,,,,,,,,,,,,,,,,,,,,,,,,,,,,,,,,,,,,,,,,,,,,,,,,,,,,,
,,,,,,,,,6679e88eb948e8a4b08a39fb,Puerto Rican,younger than 13,"no, only English or Spanish",yes,2025-08-13_17h59.35.627,empathy_intonation_perc_control,2024.2.4,Win32,60.0240096,6679e88eb948e8a4b08a39fb,68817205a84113384fffdfe3,689d0a36bdbb9ec0d6d19299,,,,,,,,,,,,./stim/wavs/puertorican_match_declarative-broad-focus_Emilio-ama-la-marcha.wav,0,,,111.479,113.821,0,1,1.819,,0,31,31,65,1,66,0,puertorican,,,,,,,,,,,,,,,,,,,,,,,,,,,,,,,,,,,,,,,,,,,,,,,,,,,,,,,,
,,,,,,,,,6679e88eb948e8a4b08a39fb,Puerto Rican,younger than 13,"no, only English or Spanish",yes,2025-08-13_17h59.35.627,empathy_intonation_perc_control,2024.2.4,Win32,60.0240096,6679e88eb948e8a4b08a39fb,68817205a84113384fffdfe3,689d0a36bdbb9ec0d6d19299,,,,,,,,,,,,./stim/wavs/puertorican_match_interrogative-total-yn_David-leia-el-libro.wav,1,,,113.823,115.948,0,0,1.609,,0,32,32,20,1,21,1,puertorican,,,,,,,,,,,,,,,,,,,,,,,,,,,,,,,,,,,,,,,,,,,,,,,,,,,,,,,,
,,,,,,,,,6679e88eb948e8a4b08a39fb,Puerto Rican,younger than 13,"no, only English or Spanish",yes,2025-08-13_17h59.35.627,empathy_intonation_perc_control,2024.2.4,Win32,60.0240096,6679e88eb948e8a4b08a39fb,68817205a84113384fffdfe3,689d0a36bdbb9ec0d6d19299,,,,,,,,,,,,./stim/wavs/mexican_match_declarative-broad-focus_Mariano-habla-del-tiempo.wav,0,,,115.951,118.306,0,1,1.836,,0,33,33,60,1,61,0,mexican,,,,,,,,,,,,,,,,,,,,,,,,,,,,,,,,,,,,,,,,,,,,,,,,,,,,,,,,
,,,,,,,,,6679e88eb948e8a4b08a39fb,Puerto Rican,younger than 13,"no, only English or Spanish",yes,2025-08-13_17h59.35.627,empathy_intonation_perc_control,2024.2.4,Win32,60.0240096,6679e88eb948e8a4b08a39fb,68817205a84113384fffdfe3,689d0a36bdbb9ec0d6d19299,,,,,,,,,,,,./stim/wavs/cuban_match_declarative-broad-focus_Maria-bebe-el-vino.wav,0,,,118.307,120.593,0,1,1.768,,0,34,34,53,1,54,0,cuban,,,,,,,,,,,,,,,,,,,,,,,,,,,,,,,,,,,,,,,,,,,,,,,,,,,,,,,,
,,,,,,,,,6679e88eb948e8a4b08a39fb,Puerto Rican,younger than 13,"no, only English or Spanish",yes,2025-08-13_17h59.35.627,empathy_intonation_perc_control,2024.2.4,Win32,60.0240096,6679e88eb948e8a4b08a39fb,68817205a84113384fffdfe3,689d0a36bdbb9ec0d6d19299,,,,,,,,,,,,./stim/wavs/puertorican_mismatch_declarative-broad-focus_El-nino-oye-el-rio.wav,0,,,120.596,122.685,0,1,1.57,,0,35,35,85,1,86,0,puertorican,,,,,,,,,,,,,,,,,,,,,,,,,,,,,,,,,,,,,,,,,,,,,,,,,,,,,,,,
,,,,,,,,,6679e88eb948e8a4b08a39fb,Puerto Rican,younger than 13,"no, only English or Spanish",yes,2025-08-13_17h59.35.627,empathy_intonation_perc_control,2024.2.4,Win32,60.0240096,6679e88eb948e8a4b08a39fb,68817205a84113384fffdfe3,689d0a36bdbb9ec0d6d19299,,,,,,,,,,,,./stim/wavs/puertorican_match_interrogative-total-yn_Manuela-vende-el-carro.wav,1,,,122.686,124.603,1,1,1.392,,0,36,36,22,1,23,1,puertorican,,,,,,,,,,,,,,,,,,,,,,,,,,,,,,,,,,,,,,,,,,,,,,,,,,,,,,,,
,,,,,,,,,6679e88eb948e8a4b08a39fb,Puerto Rican,younger than 13,"no, only English or Spanish",yes,2025-08-13_17h59.35.627,empathy_intonation_perc_control,2024.2.4,Win32,60.0240096,6679e88eb948e8a4b08a39fb,68817205a84113384fffdfe3,689d0a36bdbb9ec0d6d19299,,,,,,,,,,,,./stim/wavs/puertorican_mismatch_declarative-broad-focus_El-hombre-mira-la-luna.wav,0,,,124.611,126.651,1,0,1.52,,0,37,37,84,1,85,0,puertorican,,,,,,,,,,,,,,,,,,,,,,,,,,,,,,,,,,,,,,,,,,,,,,,,,,,,,,,,
,,,,,,,,,6679e88eb948e8a4b08a39fb,Puerto Rican,younger than 13,"no, only English or Spanish",yes,2025-08-13_17h59.35.627,empathy_intonation_perc_control,2024.2.4,Win32,60.0240096,6679e88eb948e8a4b08a39fb,68817205a84113384fffdfe3,689d0a36bdbb9ec0d6d19299,,,,,,,,,,,,./stim/wavs/mexican_mismatch_interrogative-total-yn_El-nino-oye-el-rio.wav,1,,,126.653,129.015,1,1,1.835,,0,38,38,35,1,36,0,mexican,,,,,,,,,,,,,,,,,,,,,,,,,,,,,,,,,,,,,,,,,,,,,,,,,,,,,,,,
,,,,,,,,,6679e88eb948e8a4b08a39fb,Puerto Rican,younger than 13,"no, only English or Spanish",yes,2025-08-13_17h59.35.627,empathy_intonation_perc_control,2024.2.4,Win32,60.0240096,6679e88eb948e8a4b08a39fb,68817205a84113384fffdfe3,689d0a36bdbb9ec0d6d19299,,,,,,,,,,,,./stim/wavs/castilian_match_interrogative-total-yn_David-leia-el-libro.wav,1,,,129.016,131.511,1,1,1.966,,0,39,39,0,1,1,0,castilian,,,,,,,,,,,,,,,,,,,,,,,,,,,,,,,,,,,,,,,,,,,,,,,,,,,,,,,,
,,,,,,,,,6679e88eb948e8a4b08a39fb,Puerto Rican,younger than 13,"no, only English or Spanish",yes,2025-08-13_17h59.35.627,empathy_intonation_perc_control,2024.2.4,Win32,60.0240096,6679e88eb948e8a4b08a39fb,68817205a84113384fffdfe3,689d0a36bdbb9ec0d6d19299,,,,,,,,,,,,./stim/wavs/mexican_match_declarative-broad-focus_Emilio-ama-la-marcha.wav,0,,,131.513,133.992,1,0,1.963,,0,40,40,59,1,60,0,mexican,,,,,,,,,,,,,,,,,,,,,,,,,,,,,,,,,,,,,,,,,,,,,,,,,,,,,,,,
,,,,,,,,,6679e88eb948e8a4b08a39fb,Puerto Rican,younger than 13,"no, only English or Spanish",yes,2025-08-13_17h59.35.627,empathy_intonation_perc_control,2024.2.4,Win32,60.0240096,6679e88eb948e8a4b08a39fb,68817205a84113384fffdfe3,689d0a36bdbb9ec0d6d19299,,,,,,,,,,,,./stim/wavs/cuban_match_interrogative-total-yn_Ana-lleva-el-abrigo.wav,1,,,133.993,135.923,1,1,1.419,,0,41,41,6,1,7,1,cuban,,,,,,,,,,,,,,,,,,,,,,,,,,,,,,,,,,,,,,,,,,,,,,,,,,,,,,,,
,,,,,,,,,6679e88eb948e8a4b08a39fb,Puerto Rican,younger than 13,"no, only English or Spanish",yes,2025-08-13_17h59.35.627,empathy_intonation_perc_control,2024.2.4,Win32,60.0240096,6679e88eb948e8a4b08a39fb,68817205a84113384fffdfe3,689d0a36bdbb9ec0d6d19299,,,,,,,,,,,,./stim/wavs/mexican_match_declarative-broad-focus_Daniel-iba-a-Bolivia.wav,0,,,135.925,137.916,0,1,1.477,,0,42,42,57,1,58,0,mexican,,,,,,,,,,,,,,,,,,,,,,,,,,,,,,,,,,,,,,,,,,,,,,,,,,,,,,,,
,,,,,,,,,6679e88eb948e8a4b08a39fb,Puerto Rican,younger than 13,"no, only English or Spanish",yes,2025-08-13_17h59.35.627,empathy_intonation_perc_control,2024.2.4,Win32,60.0240096,6679e88eb948e8a4b08a39fb,68817205a84113384fffdfe3,689d0a36bdbb9ec0d6d19299,,,,,,,,,,,,./stim/wavs/cuban_match_interrogative-total-yn_Mariano-habla-del-tiempo.wav,1,,,137.917,140.303,0,0,1.872,,0,43,43,10,1,11,1,cuban,,,,,,,,,,,,,,,,,,,,,,,,,,,,,,,,,,,,,,,,,,,,,,,,,,,,,,,,
,,,,,,,,,6679e88eb948e8a4b08a39fb,Puerto Rican,younger than 13,"no, only English or Spanish",yes,2025-08-13_17h59.35.627,empathy_intonation_perc_control,2024.2.4,Win32,60.0240096,6679e88eb948e8a4b08a39fb,68817205a84113384fffdfe3,689d0a36bdbb9ec0d6d19299,,,,,,,,,,,,./stim/wavs/cuban_mismatch_declarative-broad-focus_Mi-novio-viene-del-lago.wav,0,,,140.305,142.543,0,1,1.721,,0,44,44,76,1,77,0,cuban,,,,,,,,,,,,,,,,,,,,,,,,,,,,,,,,,,,,,,,,,,,,,,,,,,,,,,,,
,,,,,,,,,6679e88eb948e8a4b08a39fb,Puerto Rican,younger than 13,"no, only English or Spanish",yes,2025-08-13_17h59.35.627,empathy_intonation_perc_control,2024.2.4,Win32,60.0240096,6679e88eb948e8a4b08a39fb,68817205a84113384fffdfe3,689d0a36bdbb9ec0d6d19299,,,,,,,,,,,,./stim/wavs/mexican_mismatch_interrogative-total-yn_Mi-tia-odia-la-lluvia.wav,1,,,142.545,144.893,1,1,1.833,,0,45,45,38,1,39,0,mexican,,,,,,,,,,,,,,,,,,,,,,,,,,,,,,,,,,,,,,,,,,,,,,,,,,,,,,,,
,,,,,,,,,6679e88eb948e8a4b08a39fb,Puerto Rican,younger than 13,"no, only English or Spanish",yes,2025-08-13_17h59.35.627,empathy_intonation_perc_control,2024.2.4,Win32,60.0240096,6679e88eb948e8a4b08a39fb,68817205a84113384fffdfe3,689d0a36bdbb9ec0d6d19299,,,,,,,,,,,,./stim/wavs/mexican_mismatch_declarative-broad-focus_Mi-novio-viene-del-lago.wav,0,,,144.895,147.312,1,0,1.893,,0,46,46,81,1,82,0,mexican,,,,,,,,,,,,,,,,,,,,,,,,,,,,,,,,,,,,,,,,,,,,,,,,,,,,,,,,
,,,,,,,,,6679e88eb948e8a4b08a39fb,Puerto Rican,younger than 13,"no, only English or Spanish",yes,2025-08-13_17h59.35.627,empathy_intonation_perc_control,2024.2.4,Win32,60.0240096,6679e88eb948e8a4b08a39fb,68817205a84113384fffdfe3,689d0a36bdbb9ec0d6d19299,,,,,,,,,,,,./stim/wavs/cuban_match_declarative-broad-focus_Daniel-iba-a-Bolivia.wav,0,,,147.314,150.278,0,1,2.444,,0,47,47,51,1,52,0,cuban,,,,,,,,,,,,,,,,,,,,,,,,,,,,,,,,,,,,,,,,,,,,,,,,,,,,,,,,
,,,,,,,,,6679e88eb948e8a4b08a39fb,Puerto Rican,younger than 13,"no, only English or Spanish",yes,2025-08-13_17h59.35.627,empathy_intonation_perc_control,2024.2.4,Win32,60.0240096,6679e88eb948e8a4b08a39fb,68817205a84113384fffdfe3,689d0a36bdbb9ec0d6d19299,,,,,,,,,,,,./stim/wavs/mexican_mismatch_declarative-broad-focus_El-hombre-mira-la-luna.wav,0,,,150.281,152.775,0,1,1.965,,0,48,48,79,1,80,0,mexican,,,,,,,,,,,,,,,,,,,,,,,,,,,,,,,,,,,,,,,,,,,,,,,,,,,,,,,,
,,,,,,,,,6679e88eb948e8a4b08a39fb,Puerto Rican,younger than 13,"no, only English or Spanish",yes,2025-08-13_17h59.35.627,empathy_intonation_perc_control,2024.2.4,Win32,60.0240096,6679e88eb948e8a4b08a39fb,68817205a84113384fffdfe3,689d0a36bdbb9ec0d6d19299,,,,,,,,,,,,./stim/wavs/mexican_match_interrogative-total-yn_Marta-abre-el-regalo.wav,1,,,152.776,155.05,1,1,1.748,,0,49,49,17,1,18,0,mexican,,,,,,,,,,,,,,,,,,,,,,,,,,,,,,,,,,,,,,,,,,,,,,,,,,,,,,,,
,,,,,,,,,6679e88eb948e8a4b08a39fb,Puerto Rican,younger than 13,"no, only English or Spanish",yes,2025-08-13_17h59.35.627,empathy_intonation_perc_control,2024.2.4,Win32,60.0240096,6679e88eb948e8a4b08a39fb,68817205a84113384fffdfe3,689d0a36bdbb9ec0d6d19299,,,,,,,,,,,,./stim/wavs/castilian_mismatch_interrogative-total-yn_Mi-novio-viene-del-lago.wav,1,,,155.055,158.716,1,1,3.131,,0,50,50,27,1,28,0,castilian,,,,,,,,,,,,,,,,,,,,,,,,,,,,,,,,,,,,,,,,,,,,,,,,,,,,,,,,
,,,,,,,,,6679e88eb948e8a4b08a39fb,Puerto Rican,younger than 13,"no, only English or Spanish",yes,2025-08-13_17h59.35.627,empathy_intonation_perc_control,2024.2.4,Win32,60.0240096,6679e88eb948e8a4b08a39fb,68817205a84113384fffdfe3,689d0a36bdbb9ec0d6d19299,,,,,,,,,,,,./stim/wavs/cuban_match_declarative-broad-focus_Marta-abre-el-regalo.wav,0,,,158.718,160.955,1,0,1.715,,0,51,51,55,1,56,0,cuban,,,,,,,,,,,,,,,,,,,,,,,,,,,,,,,,,,,,,,,,,,,,,,,,,,,,,,,,
,,,,,,,,,6679e88eb948e8a4b08a39fb,Puerto Rican,younger than 13,"no, only English or Spanish",yes,2025-08-13_17h59.35.627,empathy_intonation_perc_control,2024.2.4,Win32,60.0240096,6679e88eb948e8a4b08a39fb,68817205a84113384fffdfe3,689d0a36bdbb9ec0d6d19299,,,,,,,,,,,,./stim/wavs/puertorican_match_declarative-broad-focus_David-leia-el-libro.wav,0,,,160.957,165.929,0,1,4.451,,0,52,52,64,1,65,0,puertorican,,,,,,,,,,,,,,,,,,,,,,,,,,,,,,,,,,,,,,,,,,,,,,,,,,,,,,,,
,,,,,,,,,6679e88eb948e8a4b08a39fb,Puerto Rican,younger than 13,"no, only English or Spanish",yes,2025-08-13_17h59.35.627,empathy_intonation_perc_control,2024.2.4,Win32,60.0240096,6679e88eb948e8a4b08a39fb,68817205a84113384fffdfe3,689d0a36bdbb9ec0d6d19299,,,,,,,,,,,,./stim/wavs/cuban_match_interrogative-total-yn_Marta-abre-el-regalo.wav,1,,,165.93,170.754,1,1,4.299,,0,53,53,11,1,12,1,cuban,,,,,,,,,,,,,,,,,,,,,,,,,,,,,,,,,,,,,,,,,,,,,,,,,,,,,,,,
,,,,,,,,,6679e88eb948e8a4b08a39fb,Puerto Rican,younger than 13,"no, only English or Spanish",yes,2025-08-13_17h59.35.627,empathy_intonation_perc_control,2024.2.4,Win32,60.0240096,6679e88eb948e8a4b08a39fb,68817205a84113384fffdfe3,689d0a36bdbb9ec0d6d19299,,,,,,,,,,,,./stim/wavs/puertorican_match_declarative-broad-focus_Manuela-vende-el-carro.wav,0,,,170.757,174.123,1,0,2.847,,0,54,54,66,1,67,0,puertorican,,,,,,,,,,,,,,,,,,,,,,,,,,,,,,,,,,,,,,,,,,,,,,,,,,,,,,,,
,,,,,,,,,6679e88eb948e8a4b08a39fb,Puerto Rican,younger than 13,"no, only English or Spanish",yes,2025-08-13_17h59.35.627,empathy_intonation_perc_control,2024.2.4,Win32,60.0240096,6679e88eb948e8a4b08a39fb,68817205a84113384fffdfe3,689d0a36bdbb9ec0d6d19299,,,,,,,,,,,,./stim/wavs/puertorican_mismatch_interrogative-total-yn_Mi-madre-come-la-fruta.wav,1,,,174.125,176.379,1,1,1.732,,0,55,55,43,1,44,1,puertorican,,,,,,,,,,,,,,,,,,,,,,,,,,,,,,,,,,,,,,,,,,,,,,,,,,,,,,,,
,,,,,,,,,6679e88eb948e8a4b08a39fb,Puerto Rican,younger than 13,"no, only English or Spanish",yes,2025-08-13_17h59.35.627,empathy_intonation_perc_control,2024.2.4,Win32,60.0240096,6679e88eb948e8a4b08a39fb,68817205a84113384fffdfe3,689d0a36bdbb9ec0d6d19299,,,,,,,,,,,,./stim/wavs/castilian_mismatch_interrogative-total-yn_La-maestra-vive-en-Paris.wav,1,,,176.381,182.45,0,0,5.556,,0,56,56,24,1,25,0,castilian,,,,,,,,,,,,,,,,,,,,,,,,,,,,,,,,,,,,,,,,,,,,,,,,,,,,,,,,
,,,,,,,,,6679e88eb948e8a4b08a39fb,Puerto Rican,younger than 13,"no, only English or Spanish",yes,2025-08-13_17h59.35.627,empathy_intonation_perc_control,2024.2.4,Win32,60.0240096,6679e88eb948e8a4b08a39fb,68817205a84113384fffdfe3,689d0a36bdbb9ec0d6d19299,,,,,,,,,,,,./stim/wavs/castilian_match_declarative-broad-focus_Mariano-habla-del-tiempo.wav,0,,,182.453,185.079,1,0,2.11,,0,57,57,48,1,49,0,castilian,,,,,,,,,,,,,,,,,,,,,,,,,,,,,,,,,,,,,,,,,,,,,,,,,,,,,,,,
,,,,,,,,,6679e88eb948e8a4b08a39fb,Puerto Rican,younger than 13,"no, only English or Spanish",yes,2025-08-13_17h59.35.627,empathy_intonation_perc_control,2024.2.4,Win32,60.0240096,6679e88eb948e8a4b08a39fb,68817205a84113384fffdfe3,689d0a36bdbb9ec0d6d19299,,,,,,,,,,,,./stim/wavs/castilian_mismatch_declarative-broad-focus_La-maestra-vive-en-Paris.wav,0,,,185.082,187.999,0,1,2.399,,0,58,58,69,1,70,0,castilian,,,,,,,,,,,,,,,,,,,,,,,,,,,,,,,,,,,,,,,,,,,,,,,,,,,,,,,,
,,,,,,,,,6679e88eb948e8a4b08a39fb,Puerto Rican,younger than 13,"no, only English or Spanish",yes,2025-08-13_17h59.35.627,empathy_intonation_perc_control,2024.2.4,Win32,60.0240096,6679e88eb948e8a4b08a39fb,68817205a84113384fffdfe3,689d0a36bdbb9ec0d6d19299,,,,,,,,,,,,./stim/wavs/mexican_mismatch_declarative-broad-focus_Mi-tia-odia-la-lluvia.wav,0,,,188.006,190.495,0,1,1.967,,0,59,59,82,1,83,0,mexican,,,,,,,,,,,,,,,,,,,,,,,,,,,,,,,,,,,,,,,,,,,,,,,,,,,,,,,,
,,,,,,,,,6679e88eb948e8a4b08a39fb,Puerto Rican,younger than 13,"no, only English or Spanish",yes,2025-08-13_17h59.35.627,empathy_intonation_perc_control,2024.2.4,Win32,60.0240096,6679e88eb948e8a4b08a39fb,68817205a84113384fffdfe3,689d0a36bdbb9ec0d6d19299,,,,,,,,,,,,./stim/wavs/puertorican_mismatch_declarative-broad-focus_La-maestra-vive-en-Paris.wav,0,,,190.496,192.945,0,1,1.931,,0,60,60,86,1,87,0,puertorican,,,,,,,,,,,,,,,,,,,,,,,,,,,,,,,,,,,,,,,,,,,,,,,,,,,,,,,,
,,,,,,,,,6679e88eb948e8a4b08a39fb,Puerto Rican,younger than 13,"no, only English or Spanish",yes,2025-08-13_17h59.35.627,empathy_intonation_perc_control,2024.2.4,Win32,60.0240096,6679e88eb948e8a4b08a39fb,68817205a84113384fffdfe3,689d0a36bdbb9ec0d6d19299,,,,,,,,,,,,./stim/wavs/mexican_match_interrogative-total-yn_Ana-lleva-el-abrigo.wav,1,,,192.947,195.014,1,1,1.552,,0,61,61,12,1,13,0,mexican,,,,,,,,,,,,,,,,,,,,,,,,,,,,,,,,,,,,,,,,,,,,,,,,,,,,,,,,
,,,,,,,,,6679e88eb948e8a4b08a39fb,Puerto Rican,younger than 13,"no, only English or Spanish",yes,2025-08-13_17h59.35.627,empathy_intonation_perc_control,2024.2.4,Win32,60.0240096,6679e88eb948e8a4b08a39fb,68817205a84113384fffdfe3,689d0a36bdbb9ec0d6d19299,,,,,,,,,,,,./stim/wavs/puertorican_mismatch_interrogative-total-yn_La-maestra-vive-en-Paris.wav,1,,,195.017,197.322,1,1,1.784,,0,62,62,41,1,42,1,puertorican,,,,,,,,,,,,,,,,,,,,,,,,,,,,,,,,,,,,,,,,,,,,,,,,,,,,,,,,
,,,,,,,,,6679e88eb948e8a4b08a39fb,Puerto Rican,younger than 13,"no, only English or Spanish",yes,2025-08-13_17h59.35.627,empathy_intonation_perc_control,2024.2.4,Win32,60.0240096,6679e88eb948e8a4b08a39fb,68817205a84113384fffdfe3,689d0a36bdbb9ec0d6d19299,,,,,,,,,,,,./stim/wavs/cuban_mismatch_declarative-broad-focus_La-nina-lava-el-plato.wav,0,,,197.324,212.793,0,1,14.951,,0,63,63,75,1,76,0,cuban,,,,,,,,,,,,,,,,,,,,,,,,,,,,,,,,,,,,,,,,,,,,,,,,,,,,,,,,
,,,,,,,,,6679e88eb948e8a4b08a39fb,Puerto Rican,younger than 13,"no, only English or Spanish",yes,2025-08-13_17h59.35.627,empathy_intonation_perc_control,2024.2.4,Win32,60.0240096,6679e88eb948e8a4b08a39fb,68817205a84113384fffdfe3,689d0a36bdbb9ec0d6d19299,,,,,,,,,,,,./stim/wavs/castilian_match_declarative-broad-focus_Maria-bebe-el-vino.wav,0,,,212.796,217.901,1,0,4.583,,0,64,64,47,1,48,0,castilian,,,,,,,,,,,,,,,,,,,,,,,,,,,,,,,,,,,,,,,,,,,,,,,,,,,,,,,,
,,,,,,,,,6679e88eb948e8a4b08a39fb,Puerto Rican,younger than 13,"no, only English or Spanish",yes,2025-08-13_17h59.35.627,empathy_intonation_perc_control,2024.2.4,Win32,60.0240096,6679e88eb948e8a4b08a39fb,68817205a84113384fffdfe3,689d0a36bdbb9ec0d6d19299,,,,,,,,,,,,./stim/wavs/mexican_match_declarative-broad-focus_Marta-abre-el-regalo.wav,0,,,217.903,229.384,1,0,10.958,,0,65,65,61,1,62,0,mexican,,,,,,,,,,,,,,,,,,,,,,,,,,,,,,,,,,,,,,,,,,,,,,,,,,,,,,,,
,,,,,,,,,6679e88eb948e8a4b08a39fb,Puerto Rican,younger than 13,"no, only English or Spanish",yes,2025-08-13_17h59.35.627,empathy_intonation_perc_control,2024.2.4,Win32,60.0240096,6679e88eb948e8a4b08a39fb,68817205a84113384fffdfe3,689d0a36bdbb9ec0d6d19299,,,,,,,,,,,,./stim/wavs/mexican_mismatch_interrogative-total-yn_La-maestra-vive-en-Paris.wav,1,,,229.393,232.793,1,1,2.873,,0,66,66,36,1,37,0,mexican,,,,,,,,,,,,,,,,,,,,,,,,,,,,,,,,,,,,,,,,,,,,,,,,,,,,,,,,
,,,,,,,,,6679e88eb948e8a4b08a39fb,Puerto Rican,younger than 13,"no, only English or Spanish",yes,2025-08-13_17h59.35.627,empathy_intonation_perc_control,2024.2.4,Win32,60.0240096,6679e88eb948e8a4b08a39fb,68817205a84113384fffdfe3,689d0a36bdbb9ec0d6d19299,,,,,,,,,,,,./stim/wavs/castilian_mismatch_interrogative-total-yn_Mi-madre-come-la-fruta.wav,1,,,232.794,235.737,1,1,2.421,,0,67,67,26,1,27,0,castilian,,,,,,,,,,,,,,,,,,,,,,,,,,,,,,,,,,,,,,,,,,,,,,,,,,,,,,,,
,,,,,,,,,6679e88eb948e8a4b08a39fb,Puerto Rican,younger than 13,"no, only English or Spanish",yes,2025-08-13_17h59.35.627,empathy_intonation_perc_control,2024.2.4,Win32,60.0240096,6679e88eb948e8a4b08a39fb,68817205a84113384fffdfe3,689d0a36bdbb9ec0d6d19299,,,,,,,,,,,,./stim/wavs/mexican_match_interrogative-total-yn_David-leia-el-libro.wav,1,,,235.741,239.759,1,1,3.504,,0,68,68,14,1,15,0,mexican,,,,,,,,,,,,,,,,,,,,,,,,,,,,,,,,,,,,,,,,,,,,,,,,,,,,,,,,
,,,,,,,,,6679e88eb948e8a4b08a39fb,Puerto Rican,younger than 13,"no, only English or Spanish",yes,2025-08-13_17h59.35.627,empathy_intonation_perc_control,2024.2.4,Win32,60.0240096,6679e88eb948e8a4b08a39fb,68817205a84113384fffdfe3,689d0a36bdbb9ec0d6d19299,,,,,,,,,,,,./stim/wavs/castilian_match_declarative-broad-focus_Manuela-vende-el-carro.wav,0,,,239.763,244.547,1,0,4.271,,0,69,69,46,1,47,0,castilian,,,,,,,,,,,,,,,,,,,,,,,,,,,,,,,,,,,,,,,,,,,,,,,,,,,,,,,,
,,,,,,,,,6679e88eb948e8a4b08a39fb,Puerto Rican,younger than 13,"no, only English or Spanish",yes,2025-08-13_17h59.35.627,empathy_intonation_perc_control,2024.2.4,Win32,60.0240096,6679e88eb948e8a4b08a39fb,68817205a84113384fffdfe3,689d0a36bdbb9ec0d6d19299,,,,,,,,,,,,./stim/wavs/castilian_mismatch_interrogative-total-yn_Mi-tia-odia-la-lluvia.wav,1,,,244.549,248.352,0,0,3.289,,0,70,70,28,1,29,0,castilian,,,,,,,,,,,,,,,,,,,,,,,,,,,,,,,,,,,,,,,,,,,,,,,,,,,,,,,,
,,,,,,,,,6679e88eb948e8a4b08a39fb,Puerto Rican,younger than 13,"no, only English or Spanish",yes,2025-08-13_17h59.35.627,empathy_intonation_perc_control,2024.2.4,Win32,60.0240096,6679e88eb948e8a4b08a39fb,68817205a84113384fffdfe3,689d0a36bdbb9ec0d6d19299,,,,,,,,,,,,./stim/wavs/castilian_match_declarative-broad-focus_Emilio-ama-la-marcha.wav,0,,,248.354,251.872,0,1,2.99,,0,71,71,45,1,46,0,castilian,,,,,,,,,,,,,,,,,,,,,,,,,,,,,,,,,,,,,,,,,,,,,,,,,,,,,,,,
,,,,,,,,,6679e88eb948e8a4b08a39fb,Puerto Rican,younger than 13,"no, only English or Spanish",yes,2025-08-13_17h59.35.627,empathy_intonation_perc_control,2024.2.4,Win32,60.0240096,6679e88eb948e8a4b08a39fb,68817205a84113384fffdfe3,689d0a36bdbb9ec0d6d19299,,,,,,,,,,,,./stim/wavs/puertorican_match_interrogative-total-yn_Maria-bebe-el-vino.wav,1,,,251.877,258.025,0,0,5.638,,0,72,72,23,1,24,1,puertorican,,,,,,,,,,,,,,,,,,,,,,,,,,,,,,,,,,,,,,,,,,,,,,,,,,,,,,,,
,,,,,,,,,6679e88eb948e8a4b08a39fb,Puerto Rican,younger than 13,"no, only English or Spanish",yes,2025-08-13_17h59.35.627,empathy_intonation_perc_control,2024.2.4,Win32,60.0240096,6679e88eb948e8a4b08a39fb,68817205a84113384fffdfe3,689d0a36bdbb9ec0d6d19299,,,,,,,,,,,,./stim/wavs/cuban_mismatch_declarative-broad-focus_Mi-tia-odia-la-lluvia.wav,0,,,258.028,260.272,1,0,1.725,,0,73,73,77,1,78,0,cuban,,,,,,,,,,,,,,,,,,,,,,,,,,,,,,,,,,,,,,,,,,,,,,,,,,,,,,,,
,,,,,,,,,6679e88eb948e8a4b08a39fb,Puerto Rican,younger than 13,"no, only English or Spanish",yes,2025-08-13_17h59.35.627,empathy_intonation_perc_control,2024.2.4,Win32,60.0240096,6679e88eb948e8a4b08a39fb,68817205a84113384fffdfe3,689d0a36bdbb9ec0d6d19299,,,,,,,,,,,,./stim/wavs/mexican_mismatch_declarative-broad-focus_El-bebe-comia-muy-bien.wav,0,,,260.275,262.472,1,0,1.684,,0,74,74,78,1,79,0,mexican,,,,,,,,,,,,,,,,,,,,,,,,,,,,,,,,,,,,,,,,,,,,,,,,,,,,,,,,
,,,,,,,,,6679e88eb948e8a4b08a39fb,Puerto Rican,younger than 13,"no, only English or Spanish",yes,2025-08-13_17h59.35.627,empathy_intonation_perc_control,2024.2.4,Win32,60.0240096,6679e88eb948e8a4b08a39fb,68817205a84113384fffdfe3,689d0a36bdbb9ec0d6d19299,,,,,,,,,,,,./stim/wavs/cuban_mismatch_interrogative-total-yn_El-nino-oye-el-rio.wav,1,,,262.476,264.428,1,1,1.419,,0,75,75,30,1,31,1,cuban,,,,,,,,,,,,,,,,,,,,,,,,,,,,,,,,,,,,,,,,,,,,,,,,,,,,,,,,
,,,,,,,,,6679e88eb948e8a4b08a39fb,Puerto Rican,younger than 13,"no, only English or Spanish",yes,2025-08-13_17h59.35.627,empathy_intonation_perc_control,2024.2.4,Win32,60.0240096,6679e88eb948e8a4b08a39fb,68817205a84113384fffdfe3,689d0a36bdbb9ec0d6d19299,,,,,,,,,,,,./stim/wavs/puertorican_mismatch_interrogative-total-yn_La-nina-lava-el-plato.wav,1,,,264.431,266.379,0,0,1.426,,0,76,76,42,1,43,1,puertorican,,,,,,,,,,,,,,,,,,,,,,,,,,,,,,,,,,,,,,,,,,,,,,,,,,,,,,,,
,,,,,,,,,6679e88eb948e8a4b08a39fb,Puerto Rican,younger than 13,"no, only English or Spanish",yes,2025-08-13_17h59.35.627,empathy_intonation_perc_control,2024.2.4,Win32,60.0240096,6679e88eb948e8a4b08a39fb,68817205a84113384fffdfe3,689d0a36bdbb9ec0d6d19299,,,,,,,,,,,,./stim/wavs/puertorican_match_interrogative-total-yn_Daniel-iba-a-Bolivia.wav,1,,,266.383,268.806,0,0,1.907,,0,77,77,19,1,20,1,puertorican,,,,,,,,,,,,,,,,,,,,,,,,,,,,,,,,,,,,,,,,,,,,,,,,,,,,,,,,
,,,,,,,,,6679e88eb948e8a4b08a39fb,Puerto Rican,younger than 13,"no, only English or Spanish",yes,2025-08-13_17h59.35.627,empathy_intonation_perc_control,2024.2.4,Win32,60.0240096,6679e88eb948e8a4b08a39fb,68817205a84113384fffdfe3,689d0a36bdbb9ec0d6d19299,,,,,,,,,,,,./stim/wavs/puertorican_mismatch_declarative-broad-focus_El-bebe-comia-muy-bien.wav,0,,,268.808,271.348,0,1,2.028,,0,78,78,83,1,84,0,puertorican,,,,,,,,,,,,,,,,,,,,,,,,,,,,,,,,,,,,,,,,,,,,,,,,,,,,,,,,
,,,,,,,,,6679e88eb948e8a4b08a39fb,Puerto Rican,younger than 13,"no, only English or Spanish",yes,2025-08-13_17h59.35.627,empathy_intonation_perc_control,2024.2.4,Win32,60.0240096,6679e88eb948e8a4b08a39fb,68817205a84113384fffdfe3,689d0a36bdbb9ec0d6d19299,,,,,,,,,,,,./stim/wavs/castilian_match_interrogative-total-yn_Mariano-habla-del-tiempo.wav,1,,,271.349,273.842,1,1,1.976,,0,79,79,4,1,5,0,castilian,,,,,,,,,,,,,,,,,,,,,,,,,,,,,,,,,,,,,,,,,,,,,,,,,,,,,,,,
,,,,,,,,,6679e88eb948e8a4b08a39fb,Puerto Rican,younger than 13,"no, only English or Spanish",yes,2025-08-13_17h59.35.627,empathy_intonation_perc_control,2024.2.4,Win32,60.0240096,6679e88eb948e8a4b08a39fb,68817205a84113384fffdfe3,689d0a36bdbb9ec0d6d19299,,,,,,,,,,,,./stim/wavs/cuban_mismatch_declarative-broad-focus_El-hombre-mira-la-luna.wav,0,,,273.843,280.543,0,1,6.186,,0,80,80,74,1,75,0,cuban,,,,,,,,,,,,,,,,,,,,,,,,,,,,,,,,,,,,,,,,,,,,,,,,,,,,,,,,
,,,,,,,,,6679e88eb948e8a4b08a39fb,Puerto Rican,younger than 13,"no, only English or Spanish",yes,2025-08-13_17h59.35.627,empathy_intonation_perc_control,2024.2.4,Win32,60.0240096,6679e88eb948e8a4b08a39fb,68817205a84113384fffdfe3,689d0a36bdbb9ec0d6d19299,,,,,,,,,,,,./stim/wavs/mexican_match_interrogative-total-yn_Mariano-habla-del-tiempo.wav,1,,,280.545,290.415,1,1,9.353,,0,81,81,16,1,17,0,mexican,,,,,,,,,,,,,,,,,,,,,,,,,,,,,,,,,,,,,,,,,,,,,,,,,,,,,,,,
,,,,,,,,,6679e88eb948e8a4b08a39fb,Puerto Rican,younger than 13,"no, only English or Spanish",yes,2025-08-13_17h59.35.627,empathy_intonation_perc_control,2024.2.4,Win32,60.0240096,6679e88eb948e8a4b08a39fb,68817205a84113384fffdfe3,689d0a36bdbb9ec0d6d19299,,,,,,,,,,,,./stim/wavs/mexican_match_declarative-broad-focus_David-leia-el-libro.wav,0,,,290.426,297.567,0,1,6.617,,0,82,82,58,1,59,0,mexican,,,,,,,,,,,,,,,,,,,,,,,,,,,,,,,,,,,,,,,,,,,,,,,,,,,,,,,,
,,,,,,,,,6679e88eb948e8a4b08a39fb,Puerto Rican,younger than 13,"no, only English or Spanish",yes,2025-08-13_17h59.35.627,empathy_intonation_perc_control,2024.2.4,Win32,60.0240096,6679e88eb948e8a4b08a39fb,68817205a84113384fffdfe3,689d0a36bdbb9ec0d6d19299,,,,,,,,,,,,./stim/wavs/castilian_mismatch_declarative-broad-focus_Mi-novio-viene-del-lago.wav,0,,,297.568,315.279,0,1,17.197,,0,83,83,71,1,72,0,castilian,,,,,,,,,,,,,,,,,,,,,,,,,,,,,,,,,,,,,,,,,,,,,,,,,,,,,,,,
,,,,,,,,,6679e88eb948e8a4b08a39fb,Puerto Rican,younger than 13,"no, only English or Spanish",yes,2025-08-13_17h59.35.627,empathy_intonation_perc_control,2024.2.4,Win32,60.0240096,6679e88eb948e8a4b08a39fb,68817205a84113384fffdfe3,689d0a36bdbb9ec0d6d19299,,,,,,,,,,,,./stim/wavs/castilian_mismatch_declarative-broad-focus_El-nino-oye-el-rio.wav,0,,,315.281,317.966,1,0,2.155,,0,84,84,68,1,69,0,castilian,,,,,,,,,,,,,,,,,,,,,,,,,,,,,,,,,,,,,,,,,,,,,,,,,,,,,,,,
,,,,,,,,,6679e88eb948e8a4b08a39fb,Puerto Rican,younger than 13,"no, only English or Spanish",yes,2025-08-13_17h59.35.627,empathy_intonation_perc_control,2024.2.4,Win32,60.0240096,6679e88eb948e8a4b08a39fb,68817205a84113384fffdfe3,689d0a36bdbb9ec0d6d19299,,,,,,,,,,,,./stim/wavs/castilian_match_declarative-broad-focus_Marta-abre-el-regalo.wav,0,,,317.975,320.134,0,1,1.635,,0,85,85,49,1,50,0,castilian,,,,,,,,,,,,,,,,,,,,,,,,,,,,,,,,,,,,,,,,,,,,,,,,,,,,,,,,
,,,,,,,,,6679e88eb948e8a4b08a39fb,Puerto Rican,younger than 13,"no, only English or Spanish",yes,2025-08-13_17h59.35.627,empathy_intonation_perc_control,2024.2.4,Win32,60.0240096,6679e88eb948e8a4b08a39fb,68817205a84113384fffdfe3,689d0a36bdbb9ec0d6d19299,,,,,,,,,,,,./stim/wavs/cuban_mismatch_declarative-broad-focus_El-bebe-comia-muy-bien.wav,0,,,320.136,322.948,0,1,2.29,,0,86,86,73,1,74,0,cuban,,,,,,,,,,,,,,,,,,,,,,,,,,,,,,,,,,,,,,,,,,,,,,,,,,,,,,,,
,,,,,,,,,6679e88eb948e8a4b08a39fb,Puerto Rican,younger than 13,"no, only English or Spanish",yes,2025-08-13_17h59.35.627,empathy_intonation_perc_control,2024.2.4,Win32,60.0240096,6679e88eb948e8a4b08a39fb,68817205a84113384fffdfe3,689d0a36bdbb9ec0d6d19299,,,,,,,,,,,,./stim/wavs/cuban_mismatch_interrogative-total-yn_Mi-tia-odia-la-lluvia.wav,1,,,322.953,325.551,0,0,2.078,,0,87,87,33,1,34,1,cuban,,,,,,,,,,,,,,,,,,,,,,,,,,,,,,,,,,,,,,,,,,,,,,,,,,,,,,,,
,,,,,,,"Great! Now we will move on. The next task consists of about 60 trials, in each of which you will see a string of letters. 
  
  Your task is to decide whether this is a real Spanish word or not.", (press the spacebar to continue),6679e88eb948e8a4b08a39fb,Puerto Rican,younger than 13,"no, only English or Spanish",yes,2025-08-13_17h59.35.627,empathy_intonation_perc_control,2024.2.4,Win32,60.0240096,6679e88eb948e8a4b08a39fb,68817205a84113384fffdfe3,689d0a36bdbb9ec0d6d19299,,,,,,,,,,,,,,,,,,,,,,,,,,,,,,325.588,368.248,0,0,0,0,1,,,,,,,,,,,,,,,,,,,,,,,,,,,,,,,,,,,,,,,,,,,,,,,,,
,,,,,,,"If you think it is an existing Spanish word, you type '1' (for 'REAL'), and if you think it is not an existing Spanish word, you type '0' (for 'FAKE').", (press the spacebar to continue),6679e88eb948e8a4b08a39fb,Puerto Rican,younger than 13,"no, only English or Spanish",yes,2025-08-13_17h59.35.627,empathy_intonation_perc_control,2024.2.4,Win32,60.0240096,6679e88eb948e8a4b08a39fb,68817205a84113384fffdfe3,689d0a36bdbb9ec0d6d19299,,,,,,,,,,,,,,,,,,,,,,,,,,,,,,368.254,371.39,0,1,1,1,1,,,,,,,,,,,,,,,,,,,,,,,,,,,,,,,,,,,,,,,,,,,,,,,,,
,,,,,,,"If you are sure that the word exists, even though you don’t know its exact meaning, you may still respond '1' (REAL). 
  
  But if you are not sure if it is an existing word, you should respond '0' (FAKE).
  
  Let's do a practice round...", (press the spacebar to continue),6679e88eb948e8a4b08a39fb,Puerto Rican,younger than 13,"no, only English or Spanish",yes,2025-08-13_17h59.35.627,empathy_intonation_perc_control,2024.2.4,Win32,60.0240096,6679e88eb948e8a4b08a39fb,68817205a84113384fffdfe3,689d0a36bdbb9ec0d6d19299,,,,,,,,,,,,,,,,,,,,,,,,,,,,,,371.395,374.709,0,2,2,2,1,,,,,,,,,,,,,,,,,,,,,,,,,,,,,,,,,,,,,,,,,,,,,,,,,
,,,,,,,,,6679e88eb948e8a4b08a39fb,Puerto Rican,younger than 13,"no, only English or Spanish",yes,2025-08-13_17h59.35.627,empathy_intonation_perc_control,2024.2.4,Win32,60.0240096,6679e88eb948e8a4b08a39fb,68817205a84113384fffdfe3,689d0a36bdbb9ec0d6d19299,,,,,,,,,,,,,0,,,,,,,,,,,,,,,,,,,,,,,,374.74,380.016,1,0,4.747,,380.017,381.015,0,0,0,0,1,0,depiste,REAL,FAKE,,,,,,,,,,,,,,,,,,,,,,,,,,,,,,,,
,,,,,,,,,6679e88eb948e8a4b08a39fb,Puerto Rican,younger than 13,"no, only English or Spanish",yes,2025-08-13_17h59.35.627,empathy_intonation_perc_control,2024.2.4,Win32,60.0240096,6679e88eb948e8a4b08a39fb,68817205a84113384fffdfe3,689d0a36bdbb9ec0d6d19299,,,,,,,,,,,,,1,,,,,,,,,,,,,,,,,,,,,,,,381.018,382.948,1,1,1.411,,382.949,383.941,0,1,1,1,1,0,sí,REAL,FAKE,,,,,,,,,,,,,,,,,,,,,,,,,,,,,,,,
,,,,,,,,,6679e88eb948e8a4b08a39fb,Puerto Rican,younger than 13,"no, only English or Spanish",yes,2025-08-13_17h59.35.627,empathy_intonation_perc_control,2024.2.4,Win32,60.0240096,6679e88eb948e8a4b08a39fb,68817205a84113384fffdfe3,689d0a36bdbb9ec0d6d19299,,,,,,,,,,,,,0,,,,,,,,,,,,,,,,,,,,,,,,383.944,385.319,1,0,0.85,,385.322,386.325,0,2,2,2,1,0,coné,REAL,FAKE,,,,,,,,,,,,,,,,,,,,,,,,,,,,,,,,
,,,,,,,,,6679e88eb948e8a4b08a39fb,Puerto Rican,younger than 13,"no, only English or Spanish",yes,2025-08-13_17h59.35.627,empathy_intonation_perc_control,2024.2.4,Win32,60.0240096,6679e88eb948e8a4b08a39fb,68817205a84113384fffdfe3,689d0a36bdbb9ec0d6d19299,,,,,,,,,,,,,0,,,,,,,,,,,,,,,,,,,,,,,,386.328,387.825,0,1,0.969,,387.827,388.825,0,3,3,3,1,0,calpar,REAL,FAKE,,,,,,,,,,,,,,,,,,,,,,,,,,,,,,,,
,,,,,,,,,6679e88eb948e8a4b08a39fb,Puerto Rican,younger than 13,"no, only English or Spanish",yes,2025-08-13_17h59.35.627,empathy_intonation_perc_control,2024.2.4,Win32,60.0240096,6679e88eb948e8a4b08a39fb,68817205a84113384fffdfe3,689d0a36bdbb9ec0d6d19299,,,,,,,,,,,,,0,,,,,,,,,,,,,,,,,,,,,,,,388.827,389.956,0,1,0.59,,389.957,390.946,0,4,4,4,1,0,joten,REAL,FAKE,,,,,,,,,,,,,,,,,,,,,,,,,,,,,,,,
,,,,,,,,,6679e88eb948e8a4b08a39fb,Puerto Rican,younger than 13,"no, only English or Spanish",yes,2025-08-13_17h59.35.627,empathy_intonation_perc_control,2024.2.4,Win32,60.0240096,6679e88eb948e8a4b08a39fb,68817205a84113384fffdfe3,689d0a36bdbb9ec0d6d19299,,,,,,,,,,,,,1,,,,,,,,,,,,,,,,,,,,,,,,390.948,392.217,0,0,0.733,,392.219,393.206,0,5,5,5,1,0,sacapuntas,REAL,FAKE,,,,,,,,,,,,,,,,,,,,,,,,,,,,,,,,
,,,,,,,,,6679e88eb948e8a4b08a39fb,Puerto Rican,younger than 13,"no, only English or Spanish",yes,2025-08-13_17h59.35.627,empathy_intonation_perc_control,2024.2.4,Win32,60.0240096,6679e88eb948e8a4b08a39fb,68817205a84113384fffdfe3,689d0a36bdbb9ec0d6d19299,,,,,,,,,,,,,0,,,,,,,,,,,,,,,,,,,,,,,,393.21,394.522,1,0,0.782,,394.522,395.513,0,6,6,6,1,0,priba,REAL,FAKE,,,,,,,,,,,,,,,,,,,,,,,,,,,,,,,,
,,,,,,,,,6679e88eb948e8a4b08a39fb,Puerto Rican,younger than 13,"no, only English or Spanish",yes,2025-08-13_17h59.35.627,empathy_intonation_perc_control,2024.2.4,Win32,60.0240096,6679e88eb948e8a4b08a39fb,68817205a84113384fffdfe3,689d0a36bdbb9ec0d6d19299,,,,,,,,,,,,,0,,,,,,,,,,,,,,,,,,,,,,,,395.515,397.079,1,0,1.025,,397.079,398.078,0,7,7,7,1,0,pelasula,REAL,FAKE,,,,,,,,,,,,,,,,,,,,,,,,,,,,,,,,
,,,,,,,,,6679e88eb948e8a4b08a39fb,Puerto Rican,younger than 13,"no, only English or Spanish",yes,2025-08-13_17h59.35.627,empathy_intonation_perc_control,2024.2.4,Win32,60.0240096,6679e88eb948e8a4b08a39fb,68817205a84113384fffdfe3,689d0a36bdbb9ec0d6d19299,,,,,,,,,,,,,1,,,,,,,,,,,,,,,,,,,,,,,,398.088,399.477,1,1,0.864,,399.48,400.476,0,8,8,8,1,0,bien,REAL,FAKE,,,,,,,,,,,,,,,,,,,,,,,,,,,,,,,,
,,,,,,,,,6679e88eb948e8a4b08a39fb,Puerto Rican,younger than 13,"no, only English or Spanish",yes,2025-08-13_17h59.35.627,empathy_intonation_perc_control,2024.2.4,Win32,60.0240096,6679e88eb948e8a4b08a39fb,68817205a84113384fffdfe3,689d0a36bdbb9ec0d6d19299,,,,,,,,,,,,,1,,,,,,,,,,,,,,,,,,,,,,,,400.479,401.705,1,1,0.704,,401.705,402.701,0,9,9,9,1,0,casa,REAL,FAKE,,,,,,,,,,,,,,,,,,,,,,,,,,,,,,,,
,,,,,,,,,6679e88eb948e8a4b08a39fb,Puerto Rican,younger than 13,"no, only English or Spanish",yes,2025-08-13_17h59.35.627,empathy_intonation_perc_control,2024.2.4,Win32,60.0240096,6679e88eb948e8a4b08a39fb,68817205a84113384fffdfe3,689d0a36bdbb9ec0d6d19299,,,,,,,,,,,,,0,,,,,,,,,,,,,,,,,,,,,,,,402.703,403.9,1,0,0.681,,403.902,404.892,0,10,10,10,1,0,lejo,REAL,FAKE,,,,,,,,,,,,,,,,,,,,,,,,,,,,,,,,
,,,,,,,,,6679e88eb948e8a4b08a39fb,Puerto Rican,younger than 13,"no, only English or Spanish",yes,2025-08-13_17h59.35.627,empathy_intonation_perc_control,2024.2.4,Win32,60.0240096,6679e88eb948e8a4b08a39fb,68817205a84113384fffdfe3,689d0a36bdbb9ec0d6d19299,,,,,,,,,,,,,0,,,,,,,,,,,,,,,,,,,,,,,,404.894,406.289,1,0,0.873,,406.289,407.292,0,11,11,11,1,0,pretantas,REAL,FAKE,,,,,,,,,,,,,,,,,,,,,,,,,,,,,,,,
,,,,,,,,,6679e88eb948e8a4b08a39fb,Puerto Rican,younger than 13,"no, only English or Spanish",yes,2025-08-13_17h59.35.627,empathy_intonation_perc_control,2024.2.4,Win32,60.0240096,6679e88eb948e8a4b08a39fb,68817205a84113384fffdfe3,689d0a36bdbb9ec0d6d19299,,,,,,,,,,,,,,,,,,,,,,,,,,,,,,,,,,,,,,,,,,,,,,,,,,,,,,407.292,408.776,,,,,,,,,,,,,,,,,,,,,,,,,,,,,,
,,,,,,,,,6679e88eb948e8a4b08a39fb,Puerto Rican,younger than 13,"no, only English or Spanish",yes,2025-08-13_17h59.35.627,empathy_intonation_perc_control,2024.2.4,Win32,60.0240096,6679e88eb948e8a4b08a39fb,68817205a84113384fffdfe3,689d0a36bdbb9ec0d6d19299,,,,,,,,,,,,,0,,,,,,,,,,,,,,,,,,,,,,,,,,,,,,,,,,,,,30,alardio,,,,,408.804,410.458,0,1,1.128,,0,0,0,29,1,REAL,FAKE,,,,,,,,,,,,,,,,,
,,,,,,,,,6679e88eb948e8a4b08a39fb,Puerto Rican,younger than 13,"no, only English or Spanish",yes,2025-08-13_17h59.35.627,empathy_intonation_perc_control,2024.2.4,Win32,60.0240096,6679e88eb948e8a4b08a39fb,68817205a84113384fffdfe3,689d0a36bdbb9ec0d6d19299,,,,,,,,,,,,,1,,,,,,,,,,,,,,,,,,,,,,,,,,,,,,,,,,,,,39,torpe,,,,,410.46,411.745,0,0,0.761,,0,1,1,38,1,REAL,FAKE,,,,,,,,,,,,,,,,,
,,,,,,,,,6679e88eb948e8a4b08a39fb,Puerto Rican,younger than 13,"no, only English or Spanish",yes,2025-08-13_17h59.35.627,empathy_intonation_perc_control,2024.2.4,Win32,60.0240096,6679e88eb948e8a4b08a39fb,68817205a84113384fffdfe3,689d0a36bdbb9ec0d6d19299,,,,,,,,,,,,,1,,,,,,,,,,,,,,,,,,,,,,,,,,,,,,,,,,,,,14,yunque,,,,,411.749,413.007,1,1,0.723,,0,2,2,13,1,REAL,FAKE,,,,,,,,,,,,,,,,,
,,,,,,,,,6679e88eb948e8a4b08a39fb,Puerto Rican,younger than 13,"no, only English or Spanish",yes,2025-08-13_17h59.35.627,empathy_intonation_perc_control,2024.2.4,Win32,60.0240096,6679e88eb948e8a4b08a39fb,68817205a84113384fffdfe3,689d0a36bdbb9ec0d6d19299,,,,,,,,,,,,,1,,,,,,,,,,,,,,,,,,,,,,,,,,,,,,,,,,,,,91,click the 1 key.,,,,,413.011,415.464,1,1,1.917,,0,3,3,90,1,REAL,FAKE,,,,,,,,,,,,,,,,,
,,,,,,,,,6679e88eb948e8a4b08a39fb,Puerto Rican,younger than 13,"no, only English or Spanish",yes,2025-08-13_17h59.35.627,empathy_intonation_perc_control,2024.2.4,Win32,60.0240096,6679e88eb948e8a4b08a39fb,68817205a84113384fffdfe3,689d0a36bdbb9ec0d6d19299,,,,,,,,,,,,,1,,,,,,,,,,,,,,,,,,,,,,,,,,,,,,,,,,,,,90,clavel,,,,,415.466,416.916,0,0,0.919,,0,4,4,89,1,REAL,FAKE,,,,,,,,,,,,,,,,,
,,,,,,,,,6679e88eb948e8a4b08a39fb,Puerto Rican,younger than 13,"no, only English or Spanish",yes,2025-08-13_17h59.35.627,empathy_intonation_perc_control,2024.2.4,Win32,60.0240096,6679e88eb948e8a4b08a39fb,68817205a84113384fffdfe3,689d0a36bdbb9ec0d6d19299,,,,,,,,,,,,,0,,,,,,,,,,,,,,,,,,,,,,,,,,,,,,,,,,,,,74,cintro,,,,,416.919,418.415,1,0,0.971,,0,5,5,73,1,REAL,FAKE,,,,,,,,,,,,,,,,,
,,,,,,,,,6679e88eb948e8a4b08a39fb,Puerto Rican,younger than 13,"no, only English or Spanish",yes,2025-08-13_17h59.35.627,empathy_intonation_perc_control,2024.2.4,Win32,60.0240096,6679e88eb948e8a4b08a39fb,68817205a84113384fffdfe3,689d0a36bdbb9ec0d6d19299,,,,,,,,,,,,,0,,,,,,,,,,,,,,,,,,,,,,,,,,,,,,,,,,,,,47,cartinar,,,,,418.418,419.937,1,0,0.987,,0,6,6,46,1,REAL,FAKE,,,,,,,,,,,,,,,,,
,,,,,,,,,6679e88eb948e8a4b08a39fb,Puerto Rican,younger than 13,"no, only English or Spanish",yes,2025-08-13_17h59.35.627,empathy_intonation_perc_control,2024.2.4,Win32,60.0240096,6679e88eb948e8a4b08a39fb,68817205a84113384fffdfe3,689d0a36bdbb9ec0d6d19299,,,,,,,,,,,,,1,,,,,,,,,,,,,,,,,,,,,,,,,,,,,,,,,,,,,26,secuestro,,,,,419.939,421.198,0,0,0.723,,0,7,7,25,1,REAL,FAKE,,,,,,,,,,,,,,,,,
,,,,,,,,,6679e88eb948e8a4b08a39fb,Puerto Rican,younger than 13,"no, only English or Spanish",yes,2025-08-13_17h59.35.627,empathy_intonation_perc_control,2024.2.4,Win32,60.0240096,6679e88eb948e8a4b08a39fb,68817205a84113384fffdfe3,689d0a36bdbb9ec0d6d19299,,,,,,,,,,,,,0,,,,,,,,,,,,,,,,,,,,,,,,,,,,,,,,,,,,,58,plaudir,,,,,421.201,422.613,0,1,0.883,,0,8,8,57,1,REAL,FAKE,,,,,,,,,,,,,,,,,
,,,,,,,,,6679e88eb948e8a4b08a39fb,Puerto Rican,younger than 13,"no, only English or Spanish",yes,2025-08-13_17h59.35.627,empathy_intonation_perc_control,2024.2.4,Win32,60.0240096,6679e88eb948e8a4b08a39fb,68817205a84113384fffdfe3,689d0a36bdbb9ec0d6d19299,,,,,,,,,,,,,0,,,,,,,,,,,,,,,,,,,,,,,,,,,,,,,,,,,,,82,empirador,,,,,422.616,423.89,1,0,0.743,,0,9,9,81,1,REAL,FAKE,,,,,,,,,,,,,,,,,
,,,,,,,,,6679e88eb948e8a4b08a39fb,Puerto Rican,younger than 13,"no, only English or Spanish",yes,2025-08-13_17h59.35.627,empathy_intonation_perc_control,2024.2.4,Win32,60.0240096,6679e88eb948e8a4b08a39fb,68817205a84113384fffdfe3,689d0a36bdbb9ec0d6d19299,,,,,,,,,,,,,1,,,,,,,,,,,,,,,,,,,,,,,,,,,,,,,,,,,,,64,orgulloso,,,,,423.892,426.12,0,0,1.695,,0,10,10,63,1,REAL,FAKE,,,,,,,,,,,,,,,,,
,,,,,,,,,6679e88eb948e8a4b08a39fb,Puerto Rican,younger than 13,"no, only English or Spanish",yes,2025-08-13_17h59.35.627,empathy_intonation_perc_control,2024.2.4,Win32,60.0240096,6679e88eb948e8a4b08a39fb,68817205a84113384fffdfe3,689d0a36bdbb9ec0d6d19299,,,,,,,,,,,,,1,,,,,,,,,,,,,,,,,,,,,,,,,,,,,,,,,,,,,43,canela,,,,,426.122,427.535,1,1,0.886,,0,11,11,42,1,REAL,FAKE,,,,,,,,,,,,,,,,,
,,,,,,,,,6679e88eb948e8a4b08a39fb,Puerto Rican,younger than 13,"no, only English or Spanish",yes,2025-08-13_17h59.35.627,empathy_intonation_perc_control,2024.2.4,Win32,60.0240096,6679e88eb948e8a4b08a39fb,68817205a84113384fffdfe3,689d0a36bdbb9ec0d6d19299,,,,,,,,,,,,,0,,,,,,,,,,,,,,,,,,,,,,,,,,,,,,,,,,,,,16,abracer,,,,,427.541,429.298,0,1,1.225,,0,12,12,15,1,REAL,FAKE,,,,,,,,,,,,,,,,,
,,,,,,,,,6679e88eb948e8a4b08a39fb,Puerto Rican,younger than 13,"no, only English or Spanish",yes,2025-08-13_17h59.35.627,empathy_intonation_perc_control,2024.2.4,Win32,60.0240096,6679e88eb948e8a4b08a39fb,68817205a84113384fffdfe3,689d0a36bdbb9ec0d6d19299,,,,,,,,,,,,,1,,,,,,,,,,,,,,,,,,,,,,,,,,,,,,,,,,,,,88,acantilado,,,,,429.301,430.939,1,1,1.09,,0,13,13,87,1,REAL,FAKE,,,,,,,,,,,,,,,,,
,,,,,,,,,6679e88eb948e8a4b08a39fb,Puerto Rican,younger than 13,"no, only English or Spanish",yes,2025-08-13_17h59.35.627,empathy_intonation_perc_control,2024.2.4,Win32,60.0240096,6679e88eb948e8a4b08a39fb,68817205a84113384fffdfe3,689d0a36bdbb9ec0d6d19299,,,,,,,,,,,,,1,,,,,,,,,,,,,,,,,,,,,,,,,,,,,,,,,,,,,60,matar,,,,,430.942,432.645,0,0,1.174,,0,14,14,59,1,REAL,FAKE,,,,,,,,,,,,,,,,,
,,,,,,,,,6679e88eb948e8a4b08a39fb,Puerto Rican,younger than 13,"no, only English or Spanish",yes,2025-08-13_17h59.35.627,empathy_intonation_perc_control,2024.2.4,Win32,60.0240096,6679e88eb948e8a4b08a39fb,68817205a84113384fffdfe3,689d0a36bdbb9ec0d6d19299,,,,,,,,,,,,,0,,,,,,,,,,,,,,,,,,,,,,,,,,,,,,,,,,,,,84,escuto,,,,,432.649,436.518,1,0,3.33,,0,15,15,83,1,REAL,FAKE,,,,,,,,,,,,,,,,,
,,,,,,,,,6679e88eb948e8a4b08a39fb,Puerto Rican,younger than 13,"no, only English or Spanish",yes,2025-08-13_17h59.35.627,empathy_intonation_perc_control,2024.2.4,Win32,60.0240096,6679e88eb948e8a4b08a39fb,68817205a84113384fffdfe3,689d0a36bdbb9ec0d6d19299,,,,,,,,,,,,,0,,,,,,,,,,,,,,,,,,,,,,,,,,,,,,,,,,,,,42,cadallo,,,,,436.52,437.957,1,0,0.911,,0,16,16,41,1,REAL,FAKE,,,,,,,,,,,,,,,,,
,,,,,,,,,6679e88eb948e8a4b08a39fb,Puerto Rican,younger than 13,"no, only English or Spanish",yes,2025-08-13_17h59.35.627,empathy_intonation_perc_control,2024.2.4,Win32,60.0240096,6679e88eb948e8a4b08a39fb,68817205a84113384fffdfe3,689d0a36bdbb9ec0d6d19299,,,,,,,,,,,,,1,,,,,,,,,,,,,,,,,,,,,,,,,,,,,,,,,,,,,12,asesinato,,,,,437.959,439.924,0,0,1.426,,0,17,17,11,1,REAL,FAKE,,,,,,,,,,,,,,,,,
,,,,,,,,,6679e88eb948e8a4b08a39fb,Puerto Rican,younger than 13,"no, only English or Spanish",yes,2025-08-13_17h59.35.627,empathy_intonation_perc_control,2024.2.4,Win32,60.0240096,6679e88eb948e8a4b08a39fb,68817205a84113384fffdfe3,689d0a36bdbb9ec0d6d19299,,,,,,,,,,,,,1,,,,,,,,,,,,,,,,,,,,,,,,,,,,,,,,,,,,,45,jilguero,,,,,439.926,443.597,0,0,3.134,,0,18,18,44,1,REAL,FAKE,,,,,,,,,,,,,,,,,
,,,,,,,,,6679e88eb948e8a4b08a39fb,Puerto Rican,younger than 13,"no, only English or Spanish",yes,2025-08-13_17h59.35.627,empathy_intonation_perc_control,2024.2.4,Win32,60.0240096,6679e88eb948e8a4b08a39fb,68817205a84113384fffdfe3,689d0a36bdbb9ec0d6d19299,,,,,,,,,,,,,0,,,,,,,,,,,,,,,,,,,,,,,,,,,,,,,,,,,,,21,capillo,,,,,443.6,446.529,1,0,2.403,,0,19,19,20,1,REAL,FAKE,,,,,,,,,,,,,,,,,
,,,,,,,,,6679e88eb948e8a4b08a39fb,Puerto Rican,younger than 13,"no, only English or Spanish",yes,2025-08-13_17h59.35.627,empathy_intonation_perc_control,2024.2.4,Win32,60.0240096,6679e88eb948e8a4b08a39fb,68817205a84113384fffdfe3,689d0a36bdbb9ec0d6d19299,,,,,,,,,,,,,1,,,,,,,,,,,,,,,,,,,,,,,,,,,,,,,,,,,,,24,látigo,,,,,446.531,448.561,0,0,1.496,,0,20,20,23,1,REAL,FAKE,,,,,,,,,,,,,,,,,
,,,,,,,,,6679e88eb948e8a4b08a39fb,Puerto Rican,younger than 13,"no, only English or Spanish",yes,2025-08-13_17h59.35.627,empathy_intonation_perc_control,2024.2.4,Win32,60.0240096,6679e88eb948e8a4b08a39fb,68817205a84113384fffdfe3,689d0a36bdbb9ec0d6d19299,,,,,,,,,,,,,1,,,,,,,,,,,,,,,,,,,,,,,,,,,,,,,,,,,,,28,merodear,,,,,448.563,450.278,0,0,1.189,,0,21,21,27,1,REAL,FAKE,,,,,,,,,,,,,,,,,
,,,,,,,,,6679e88eb948e8a4b08a39fb,Puerto Rican,younger than 13,"no, only English or Spanish",yes,2025-08-13_17h59.35.627,empathy_intonation_perc_control,2024.2.4,Win32,60.0240096,6679e88eb948e8a4b08a39fb,68817205a84113384fffdfe3,689d0a36bdbb9ec0d6d19299,,,,,,,,,,,,,1,,,,,,,,,,,,,,,,,,,,,,,,,,,,,,,,,,,,,81,pozo,,,,,450.281,452.844,0,0,2.021,,0,22,22,80,1,REAL,FAKE,,,,,,,,,,,,,,,,,
,,,,,,,,,6679e88eb948e8a4b08a39fb,Puerto Rican,younger than 13,"no, only English or Spanish",yes,2025-08-13_17h59.35.627,empathy_intonation_perc_control,2024.2.4,Win32,60.0240096,6679e88eb948e8a4b08a39fb,68817205a84113384fffdfe3,689d0a36bdbb9ec0d6d19299,,,,,,,,,,,,,0,,,,,,,,,,,,,,,,,,,,,,,,,,,,,,,,,,,,,18,arsa,,,,,452.846,454.242,0,1,0.87,,0,23,23,17,1,REAL,FAKE,,,,,,,,,,,,,,,,,
,,,,,,,,,6679e88eb948e8a4b08a39fb,Puerto Rican,younger than 13,"no, only English or Spanish",yes,2025-08-13_17h59.35.627,empathy_intonation_perc_control,2024.2.4,Win32,60.0240096,6679e88eb948e8a4b08a39fb,68817205a84113384fffdfe3,689d0a36bdbb9ec0d6d19299,,,,,,,,,,,,,0,,,,,,,,,,,,,,,,,,,,,,,,,,,,,,,,,,,,,19,brecedad,,,,,454.245,457.852,1,0,3.083,,0,24,24,18,1,REAL,FAKE,,,,,,,,,,,,,,,,,
,,,,,,,,,6679e88eb948e8a4b08a39fb,Puerto Rican,younger than 13,"no, only English or Spanish",yes,2025-08-13_17h59.35.627,empathy_intonation_perc_control,2024.2.4,Win32,60.0240096,6679e88eb948e8a4b08a39fb,68817205a84113384fffdfe3,689d0a36bdbb9ec0d6d19299,,,,,,,,,,,,,1,,,,,,,,,,,,,,,,,,,,,,,,,,,,,,,,,,,,,2,pellizcar,,,,,457.854,459.568,0,0,1.187,,0,25,25,1,1,REAL,FAKE,,,,,,,,,,,,,,,,,
,,,,,,,,,6679e88eb948e8a4b08a39fb,Puerto Rican,younger than 13,"no, only English or Spanish",yes,2025-08-13_17h59.35.627,empathy_intonation_perc_control,2024.2.4,Win32,60.0240096,6679e88eb948e8a4b08a39fb,68817205a84113384fffdfe3,689d0a36bdbb9ec0d6d19299,,,,,,,,,,,,,1,,,,,,,,,,,,,,,,,,,,,,,,,,,,,,,,,,,,,65,bizcocho,,,,,459.571,460.785,0,0,0.688,,0,26,26,64,1,REAL,FAKE,,,,,,,,,,,,,,,,,
,,,,,,,,,6679e88eb948e8a4b08a39fb,Puerto Rican,younger than 13,"no, only English or Spanish",yes,2025-08-13_17h59.35.627,empathy_intonation_perc_control,2024.2.4,Win32,60.0240096,6679e88eb948e8a4b08a39fb,68817205a84113384fffdfe3,689d0a36bdbb9ec0d6d19299,,,,,,,,,,,,,1,,,,,,,,,,,,,,,,,,,,,,,,,,,,,,,,,,,,,69,engatusar,,,,,460.786,462.179,0,0,0.869,,0,27,27,68,1,REAL,FAKE,,,,,,,,,,,,,,,,,
,,,,,,,,,6679e88eb948e8a4b08a39fb,Puerto Rican,younger than 13,"no, only English or Spanish",yes,2025-08-13_17h59.35.627,empathy_intonation_perc_control,2024.2.4,Win32,60.0240096,6679e88eb948e8a4b08a39fb,68817205a84113384fffdfe3,689d0a36bdbb9ec0d6d19299,,,,,,,,,,,,,1,,,,,,,,,,,,,,,,,,,,,,,,,,,,,,,,,,,,,68,alegre,,,,,462.181,463.627,0,0,0.916,,0,28,28,67,1,REAL,FAKE,,,,,,,,,,,,,,,,,
,,,,,,,,,6679e88eb948e8a4b08a39fb,Puerto Rican,younger than 13,"no, only English or Spanish",yes,2025-08-13_17h59.35.627,empathy_intonation_perc_control,2024.2.4,Win32,60.0240096,6679e88eb948e8a4b08a39fb,68817205a84113384fffdfe3,689d0a36bdbb9ec0d6d19299,,,,,,,,,,,,,1,,,,,,,,,,,,,,,,,,,,,,,,,,,,,,,,,,,,,7,pésimo,,,,,463.637,465.036,0,0,0.875,,0,29,29,6,1,REAL,FAKE,,,,,,,,,,,,,,,,,
,,,,,,,,,6679e88eb948e8a4b08a39fb,Puerto Rican,younger than 13,"no, only English or Spanish",yes,2025-08-13_17h59.35.627,empathy_intonation_perc_control,2024.2.4,Win32,60.0240096,6679e88eb948e8a4b08a39fb,68817205a84113384fffdfe3,689d0a36bdbb9ec0d6d19299,,,,,,,,,,,,,0,,,,,,,,,,,,,,,,,,,,,,,,,,,,,,,,,,,,,53,vegada,,,,,465.04,467.253,1,0,1.684,,0,30,30,52,1,REAL,FAKE,,,,,,,,,,,,,,,,,
,,,,,,,,,6679e88eb948e8a4b08a39fb,Puerto Rican,younger than 13,"no, only English or Spanish",yes,2025-08-13_17h59.35.627,empathy_intonation_perc_control,2024.2.4,Win32,60.0240096,6679e88eb948e8a4b08a39fb,68817205a84113384fffdfe3,689d0a36bdbb9ec0d6d19299,,,,,,,,,,,,,1,,,,,,,,,,,,,,,,,,,,,,,,,,,,,,,,,,,,,11,cenefa,,,,,467.258,468.625,1,1,0.843,,0,31,31,10,1,REAL,FAKE,,,,,,,,,,,,,,,,,
,,,,,,,,,6679e88eb948e8a4b08a39fb,Puerto Rican,younger than 13,"no, only English or Spanish",yes,2025-08-13_17h59.35.627,empathy_intonation_perc_control,2024.2.4,Win32,60.0240096,6679e88eb948e8a4b08a39fb,68817205a84113384fffdfe3,689d0a36bdbb9ec0d6d19299,,,,,,,,,,,,,1,,,,,,,,,,,,,,,,,,,,,,,,,,,,,,,,,,,,,22,lacayo,,,,,468.628,469.581,0,0,0.43,,0,32,32,21,1,REAL,FAKE,,,,,,,,,,,,,,,,,
,,,,,,,,,6679e88eb948e8a4b08a39fb,Puerto Rican,younger than 13,"no, only English or Spanish",yes,2025-08-13_17h59.35.627,empathy_intonation_perc_control,2024.2.4,Win32,60.0240096,6679e88eb948e8a4b08a39fb,68817205a84113384fffdfe3,689d0a36bdbb9ec0d6d19299,,,,,,,,,,,,,0,,,,,,,,,,,,,,,,,,,,,,,,,,,,,,,,,,,,,1,terzo,,,,,469.583,470.614,0,1,0.507,,0,33,33,0,1,REAL,FAKE,,,,,,,,,,,,,,,,,
,,,,,,,,,6679e88eb948e8a4b08a39fb,Puerto Rican,younger than 13,"no, only English or Spanish",yes,2025-08-13_17h59.35.627,empathy_intonation_perc_control,2024.2.4,Win32,60.0240096,6679e88eb948e8a4b08a39fb,68817205a84113384fffdfe3,689d0a36bdbb9ec0d6d19299,,,,,,,,,,,,,1,,,,,,,,,,,,,,,,,,,,,,,,,,,,,,,,,,,,,15,regar,,,,,470.616,471.784,0,0,0.644,,0,34,34,14,1,REAL,FAKE,,,,,,,,,,,,,,,,,
,,,,,,,,,6679e88eb948e8a4b08a39fb,Puerto Rican,younger than 13,"no, only English or Spanish",yes,2025-08-13_17h59.35.627,empathy_intonation_perc_control,2024.2.4,Win32,60.0240096,6679e88eb948e8a4b08a39fb,68817205a84113384fffdfe3,689d0a36bdbb9ec0d6d19299,,,,,,,,,,,,,1,,,,,,,,,,,,,,,,,,,,,,,,,,,,,,,,,,,,,25,bisagra,,,,,471.787,473.157,0,0,0.83,,0,35,35,24,1,REAL,FAKE,,,,,,,,,,,,,,,,,
,,,,,,,,,6679e88eb948e8a4b08a39fb,Puerto Rican,younger than 13,"no, only English or Spanish",yes,2025-08-13_17h59.35.627,empathy_intonation_perc_control,2024.2.4,Win32,60.0240096,6679e88eb948e8a4b08a39fb,68817205a84113384fffdfe3,689d0a36bdbb9ec0d6d19299,,,,,,,,,,,,,1,,,,,,,,,,,,,,,,,,,,,,,,,,,,,,,,,,,,,67,cabello,,,,,473.158,475.038,1,1,1.341,,0,36,36,66,1,REAL,FAKE,,,,,,,,,,,,,,,,,
,,,,,,,,,6679e88eb948e8a4b08a39fb,Puerto Rican,younger than 13,"no, only English or Spanish",yes,2025-08-13_17h59.35.627,empathy_intonation_perc_control,2024.2.4,Win32,60.0240096,6679e88eb948e8a4b08a39fb,68817205a84113384fffdfe3,689d0a36bdbb9ec0d6d19299,,,,,,,,,,,,,1,,,,,,,,,,,,,,,,,,,,,,,,,,,,,,,,,,,,,34,aviso,,,,,475.04,476.299,0,0,0.728,,0,37,37,33,1,REAL,FAKE,,,,,,,,,,,,,,,,,
,,,,,,,,,6679e88eb948e8a4b08a39fb,Puerto Rican,younger than 13,"no, only English or Spanish",yes,2025-08-13_17h59.35.627,empathy_intonation_perc_control,2024.2.4,Win32,60.0240096,6679e88eb948e8a4b08a39fb,68817205a84113384fffdfe3,689d0a36bdbb9ec0d6d19299,,,,,,,,,,,,,1,,,,,,,,,,,,,,,,,,,,,,,,,,,,,,,,,,,,,54,fomentar,,,,,476.302,478.598,0,0,1.766,,0,38,38,53,1,REAL,FAKE,,,,,,,,,,,,,,,,,
,,,,,,,,,6679e88eb948e8a4b08a39fb,Puerto Rican,younger than 13,"no, only English or Spanish",yes,2025-08-13_17h59.35.627,empathy_intonation_perc_control,2024.2.4,Win32,60.0240096,6679e88eb948e8a4b08a39fb,68817205a84113384fffdfe3,689d0a36bdbb9ec0d6d19299,,,,,,,,,,,,,1,,,,,,,,,,,,,,,,,,,,,,,,,,,,,,,,,,,,,20,ávido,,,,,478.6,480.497,1,1,1.366,,0,39,39,19,1,REAL,FAKE,,,,,,,,,,,,,,,,,
,,,,,,,,,6679e88eb948e8a4b08a39fb,Puerto Rican,younger than 13,"no, only English or Spanish",yes,2025-08-13_17h59.35.627,empathy_intonation_perc_control,2024.2.4,Win32,60.0240096,6679e88eb948e8a4b08a39fb,68817205a84113384fffdfe3,689d0a36bdbb9ec0d6d19299,,,,,,,,,,,,,1,,,,,,,,,,,,,,,,,,,,,,,,,,,,,,,,,,,,,76,atar,,,,,480.499,481.738,1,1,0.697,,0,40,40,75,1,REAL,FAKE,,,,,,,,,,,,,,,,,
,,,,,,,,,6679e88eb948e8a4b08a39fb,Puerto Rican,younger than 13,"no, only English or Spanish",yes,2025-08-13_17h59.35.627,empathy_intonation_perc_control,2024.2.4,Win32,60.0240096,6679e88eb948e8a4b08a39fb,68817205a84113384fffdfe3,689d0a36bdbb9ec0d6d19299,,,,,,,,,,,,,0,,,,,,,,,,,,,,,,,,,,,,,,,,,,,,,,,,,,,23,lampera,,,,,481.74,482.961,1,0,0.693,,0,41,41,22,1,REAL,FAKE,,,,,,,,,,,,,,,,,
,,,,,,,,,6679e88eb948e8a4b08a39fb,Puerto Rican,younger than 13,"no, only English or Spanish",yes,2025-08-13_17h59.35.627,empathy_intonation_perc_control,2024.2.4,Win32,60.0240096,6679e88eb948e8a4b08a39fb,68817205a84113384fffdfe3,689d0a36bdbb9ec0d6d19299,,,,,,,,,,,,,1,,,,,,,,,,,,,,,,,,,,,,,,,,,,,,,,,,,,,86,barato,,,,,482.964,484.25,1,1,0.754,,0,42,42,85,1,REAL,FAKE,,,,,,,,,,,,,,,,,
,,,,,,,,,6679e88eb948e8a4b08a39fb,Puerto Rican,younger than 13,"no, only English or Spanish",yes,2025-08-13_17h59.35.627,empathy_intonation_perc_control,2024.2.4,Win32,60.0240096,6679e88eb948e8a4b08a39fb,68817205a84113384fffdfe3,689d0a36bdbb9ec0d6d19299,,,,,,,,,,,,,1,,,,,,,,,,,,,,,,,,,,,,,,,,,,,,,,,,,,,36,loro,,,,,484.252,485.543,0,0,0.761,,0,43,43,35,1,REAL,FAKE,,,,,,,,,,,,,,,,,
,,,,,,,,,6679e88eb948e8a4b08a39fb,Puerto Rican,younger than 13,"no, only English or Spanish",yes,2025-08-13_17h59.35.627,empathy_intonation_perc_control,2024.2.4,Win32,60.0240096,6679e88eb948e8a4b08a39fb,68817205a84113384fffdfe3,689d0a36bdbb9ec0d6d19299,,,,,,,,,,,,,1,,,,,,,,,,,,,,,,,,,,,,,,,,,,,,,,,,,,,38,estornudar,,,,,485.545,486.719,0,0,0.633,,0,44,44,37,1,REAL,FAKE,,,,,,,,,,,,,,,,,
,,,,,,,,,6679e88eb948e8a4b08a39fb,Puerto Rican,younger than 13,"no, only English or Spanish",yes,2025-08-13_17h59.35.627,empathy_intonation_perc_control,2024.2.4,Win32,60.0240096,6679e88eb948e8a4b08a39fb,68817205a84113384fffdfe3,689d0a36bdbb9ec0d6d19299,,,,,,,,,,,,,1,,,,,,,,,,,,,,,,,,,,,,,,,,,,,,,,,,,,,48,ladrón,,,,,486.72,487.753,0,0,0.499,,0,45,45,47,1,REAL,FAKE,,,,,,,,,,,,,,,,,
,,,,,,,,,6679e88eb948e8a4b08a39fb,Puerto Rican,younger than 13,"no, only English or Spanish",yes,2025-08-13_17h59.35.627,empathy_intonation_perc_control,2024.2.4,Win32,60.0240096,6679e88eb948e8a4b08a39fb,68817205a84113384fffdfe3,689d0a36bdbb9ec0d6d19299,,,,,,,,,,,,,1,,,,,,,,,,,,,,,,,,,,,,,,,,,,,,,,,,,,,56,musgo,,,,,487.755,488.922,0,0,0.634,,0,46,46,55,1,REAL,FAKE,,,,,,,,,,,,,,,,,
,,,,,,,,,6679e88eb948e8a4b08a39fb,Puerto Rican,younger than 13,"no, only English or Spanish",yes,2025-08-13_17h59.35.627,empathy_intonation_perc_control,2024.2.4,Win32,60.0240096,6679e88eb948e8a4b08a39fb,68817205a84113384fffdfe3,689d0a36bdbb9ec0d6d19299,,,,,,,,,,,,,1,,,,,,,,,,,,,,,,,,,,,,,,,,,,,,,,,,,,,80,hormiga,,,,,488.925,489.826,0,0,0.372,,0,47,47,79,1,REAL,FAKE,,,,,,,,,,,,,,,,,
,,,,,,,,,6679e88eb948e8a4b08a39fb,Puerto Rican,younger than 13,"no, only English or Spanish",yes,2025-08-13_17h59.35.627,empathy_intonation_perc_control,2024.2.4,Win32,60.0240096,6679e88eb948e8a4b08a39fb,68817205a84113384fffdfe3,689d0a36bdbb9ec0d6d19299,,,,,,,,,,,,,1,,,,,,,,,,,,,,,,,,,,,,,,,,,,,,,,,,,,,31,pandilla,,,,,489.829,490.695,0,0,0.337,,0,48,48,30,1,REAL,FAKE,,,,,,,,,,,,,,,,,
,,,,,,,,,6679e88eb948e8a4b08a39fb,Puerto Rican,younger than 13,"no, only English or Spanish",yes,2025-08-13_17h59.35.627,empathy_intonation_perc_control,2024.2.4,Win32,60.0240096,6679e88eb948e8a4b08a39fb,68817205a84113384fffdfe3,689d0a36bdbb9ec0d6d19299,,,,,,,,,,,,,0,,,,,,,,,,,,,,,,,,,,,,,,,,,,,,,,,,,,,50,flamida,,,,,490.697,492.106,1,0,0.873,,0,49,49,49,1,REAL,FAKE,,,,,,,,,,,,,,,,,
,,,,,,,,,6679e88eb948e8a4b08a39fb,Puerto Rican,younger than 13,"no, only English or Spanish",yes,2025-08-13_17h59.35.627,empathy_intonation_perc_control,2024.2.4,Win32,60.0240096,6679e88eb948e8a4b08a39fb,68817205a84113384fffdfe3,689d0a36bdbb9ec0d6d19299,,,,,,,,,,,,,0,,,,,,,,,,,,,,,,,,,,,,,,,,,,,,,,,,,,,92,click the 0 key.,,,,,492.108,493.6,0,1,0.959,,0,50,50,91,1,REAL,FAKE,,,,,,,,,,,,,,,,,
,,,,,,,,,6679e88eb948e8a4b08a39fb,Puerto Rican,younger than 13,"no, only English or Spanish",yes,2025-08-13_17h59.35.627,empathy_intonation_perc_control,2024.2.4,Win32,60.0240096,6679e88eb948e8a4b08a39fb,68817205a84113384fffdfe3,689d0a36bdbb9ec0d6d19299,,,,,,,,,,,,,1,,,,,,,,,,,,,,,,,,,,,,,,,,,,,,,,,,,,,3,pulmones,,,,,493.603,495.22,0,0,1.07,,0,51,51,2,1,REAL,FAKE,,,,,,,,,,,,,,,,,
,,,,,,,,,6679e88eb948e8a4b08a39fb,Puerto Rican,younger than 13,"no, only English or Spanish",yes,2025-08-13_17h59.35.627,empathy_intonation_perc_control,2024.2.4,Win32,60.0240096,6679e88eb948e8a4b08a39fb,68817205a84113384fffdfe3,689d0a36bdbb9ec0d6d19299,,,,,,,,,,,,,1,,,,,,,,,,,,,,,,,,,,,,,,,,,,,,,,,,,,,61,seda,,,,,495.222,496.531,0,0,0.778,,0,52,52,60,1,REAL,FAKE,,,,,,,,,,,,,,,,,
,,,,,,,,,6679e88eb948e8a4b08a39fb,Puerto Rican,younger than 13,"no, only English or Spanish",yes,2025-08-13_17h59.35.627,empathy_intonation_perc_control,2024.2.4,Win32,60.0240096,6679e88eb948e8a4b08a39fb,68817205a84113384fffdfe3,689d0a36bdbb9ec0d6d19299,,,,,,,,,,,,,0,,,,,,,,,,,,,,,,,,,,,,,,,,,,,,,,,,,,,4,batillón,,,,,496.533,498.599,1,0,1.536,,0,53,53,3,1,REAL,FAKE,,,,,,,,,,,,,,,,,
,,,,,,,,,6679e88eb948e8a4b08a39fb,Puerto Rican,younger than 13,"no, only English or Spanish",yes,2025-08-13_17h59.35.627,empathy_intonation_perc_control,2024.2.4,Win32,60.0240096,6679e88eb948e8a4b08a39fb,68817205a84113384fffdfe3,689d0a36bdbb9ec0d6d19299,,,,,,,,,,,,,1,,,,,,,,,,,,,,,,,,,,,,,,,,,,,,,,,,,,,59,besar,,,,,498.607,499.79,1,1,0.657,,0,54,54,58,1,REAL,FAKE,,,,,,,,,,,,,,,,,
,,,,,,,,,6679e88eb948e8a4b08a39fb,Puerto Rican,younger than 13,"no, only English or Spanish",yes,2025-08-13_17h59.35.627,empathy_intonation_perc_control,2024.2.4,Win32,60.0240096,6679e88eb948e8a4b08a39fb,68817205a84113384fffdfe3,689d0a36bdbb9ec0d6d19299,,,,,,,,,,,,,0,,,,,,,,,,,,,,,,,,,,,,,,,,,,,,,,,,,,,63,esposante,,,,,499.793,500.96,0,1,0.634,,0,55,55,62,1,REAL,FAKE,,,,,,,,,,,,,,,,,
,,,,,,,,,6679e88eb948e8a4b08a39fb,Puerto Rican,younger than 13,"no, only English or Spanish",yes,2025-08-13_17h59.35.627,empathy_intonation_perc_control,2024.2.4,Win32,60.0240096,6679e88eb948e8a4b08a39fb,68817205a84113384fffdfe3,689d0a36bdbb9ec0d6d19299,,,,,,,,,,,,,0,,,,,,,,,,,,,,,,,,,,,,,,,,,,,,,,,,,,,33,pauca,,,,,500.964,504.755,0,1,3.257,,0,56,56,32,1,REAL,FAKE,,,,,,,,,,,,,,,,,
,,,,,,,,,6679e88eb948e8a4b08a39fb,Puerto Rican,younger than 13,"no, only English or Spanish",yes,2025-08-13_17h59.35.627,empathy_intonation_perc_control,2024.2.4,Win32,60.0240096,6679e88eb948e8a4b08a39fb,68817205a84113384fffdfe3,689d0a36bdbb9ec0d6d19299,,,,,,,,,,,,,1,,,,,,,,,,,,,,,,,,,,,,,,,,,,,,,,,,,,,44,cuchara,,,,,504.759,514.802,0,0,9.519,,0,57,57,43,1,REAL,FAKE,,,,,,,,,,,,,,,,,
,,,,,,,,,6679e88eb948e8a4b08a39fb,Puerto Rican,younger than 13,"no, only English or Spanish",yes,2025-08-13_17h59.35.627,empathy_intonation_perc_control,2024.2.4,Win32,60.0240096,6679e88eb948e8a4b08a39fb,68817205a84113384fffdfe3,689d0a36bdbb9ec0d6d19299,,,,,,,,,,,,,1,,,,,,,,,,,,,,,,,,,,,,,,,,,,,,,,,,,,,62,flaco,,,,,514.805,520.195,0,0,4.865,,0,58,58,61,1,REAL,FAKE,,,,,,,,,,,,,,,,,
,,,,,,,,,6679e88eb948e8a4b08a39fb,Puerto Rican,younger than 13,"no, only English or Spanish",yes,2025-08-13_17h59.35.627,empathy_intonation_perc_control,2024.2.4,Win32,60.0240096,6679e88eb948e8a4b08a39fb,68817205a84113384fffdfe3,689d0a36bdbb9ec0d6d19299,,,,,,,,,,,,,0,,,,,,,,,,,,,,,,,,,,,,,,,,,,,,,,,,,,,8,cadeña,,,,,520.201,521.819,0,1,1.088,,0,59,59,7,1,REAL,FAKE,,,,,,,,,,,,,,,,,
,,,,,,,,,6679e88eb948e8a4b08a39fb,Puerto Rican,younger than 13,"no, only English or Spanish",yes,2025-08-13_17h59.35.627,empathy_intonation_perc_control,2024.2.4,Win32,60.0240096,6679e88eb948e8a4b08a39fb,68817205a84113384fffdfe3,689d0a36bdbb9ec0d6d19299,,,,,,,,,,,,,1,,,,,,,,,,,,,,,,,,,,,,,,,,,,,,,,,,,,,49,ganar,,,,,521.823,526.405,0,0,4.055,,0,60,60,48,1,REAL,FAKE,,,,,,,,,,,,,,,,,
,,,,,,,,,6679e88eb948e8a4b08a39fb,Puerto Rican,younger than 13,"no, only English or Spanish",yes,2025-08-13_17h59.35.627,empathy_intonation_perc_control,2024.2.4,Win32,60.0240096,6679e88eb948e8a4b08a39fb,68817205a84113384fffdfe3,689d0a36bdbb9ec0d6d19299,,,,,,,,,,,,,1,,,,,,,,,,,,,,,,,,,,,,,,,,,,,,,,,,,,,71,polvoriento,,,,,526.407,527.543,0,0,0.595,,0,61,61,70,1,REAL,FAKE,,,,,,,,,,,,,,,,,
,,,,,,,,,6679e88eb948e8a4b08a39fb,Puerto Rican,younger than 13,"no, only English or Spanish",yes,2025-08-13_17h59.35.627,empathy_intonation_perc_control,2024.2.4,Win32,60.0240096,6679e88eb948e8a4b08a39fb,68817205a84113384fffdfe3,689d0a36bdbb9ec0d6d19299,,,,,,,,,,,,,1,,,,,,,,,,,,,,,,,,,,,,,,,,,,,,,,,,,,,13,helar,,,,,527.549,528.73,1,1,0.65,,0,62,62,12,1,REAL,FAKE,,,,,,,,,,,,,,,,,
,,,,,,,,,6679e88eb948e8a4b08a39fb,Puerto Rican,younger than 13,"no, only English or Spanish",yes,2025-08-13_17h59.35.627,empathy_intonation_perc_control,2024.2.4,Win32,60.0240096,6679e88eb948e8a4b08a39fb,68817205a84113384fffdfe3,689d0a36bdbb9ec0d6d19299,,,,,,,,,,,,,0,,,,,,,,,,,,,,,,,,,,,,,,,,,,,,,,,,,,,87,grodo,,,,,528.732,530.268,1,0,1.009,,0,63,63,86,1,REAL,FAKE,,,,,,,,,,,,,,,,,
,,,,,,,,,6679e88eb948e8a4b08a39fb,Puerto Rican,younger than 13,"no, only English or Spanish",yes,2025-08-13_17h59.35.627,empathy_intonation_perc_control,2024.2.4,Win32,60.0240096,6679e88eb948e8a4b08a39fb,68817205a84113384fffdfe3,689d0a36bdbb9ec0d6d19299,,,,,,,,,,,,,1,,,,,,,,,,,,,,,,,,,,,,,,,,,,,,,,,,,,,75,yacer,,,,,530.271,531.892,0,0,1.087,,0,64,64,74,1,REAL,FAKE,,,,,,,,,,,,,,,,,
,,,,,,,,,6679e88eb948e8a4b08a39fb,Puerto Rican,younger than 13,"no, only English or Spanish",yes,2025-08-13_17h59.35.627,empathy_intonation_perc_control,2024.2.4,Win32,60.0240096,6679e88eb948e8a4b08a39fb,68817205a84113384fffdfe3,689d0a36bdbb9ec0d6d19299,,,,,,,,,,,,,1,,,,,,,,,,,,,,,,,,,,,,,,,,,,,,,,,,,,,46,martillo,,,,,531.894,533.072,0,0,0.641,,0,65,65,45,1,REAL,FAKE,,,,,,,,,,,,,,,,,
,,,,,,,,,6679e88eb948e8a4b08a39fb,Puerto Rican,younger than 13,"no, only English or Spanish",yes,2025-08-13_17h59.35.627,empathy_intonation_perc_control,2024.2.4,Win32,60.0240096,6679e88eb948e8a4b08a39fb,68817205a84113384fffdfe3,689d0a36bdbb9ec0d6d19299,,,,,,,,,,,,,0,,,,,,,,,,,,,,,,,,,,,,,,,,,,,,,,,,,,,29,decar,,,,,533.078,534.963,0,1,1.352,,0,66,66,28,1,REAL,FAKE,,,,,,,,,,,,,,,,,
,,,,,,,,,6679e88eb948e8a4b08a39fb,Puerto Rican,younger than 13,"no, only English or Spanish",yes,2025-08-13_17h59.35.627,empathy_intonation_perc_control,2024.2.4,Win32,60.0240096,6679e88eb948e8a4b08a39fb,68817205a84113384fffdfe3,689d0a36bdbb9ec0d6d19299,,,,,,,,,,,,,1,,,,,,,,,,,,,,,,,,,,,,,,,,,,,,,,,,,,,40,alfombra,,,,,534.965,537.338,0,0,1.839,,0,67,67,39,1,REAL,FAKE,,,,,,,,,,,,,,,,,
,,,,,,,,,6679e88eb948e8a4b08a39fb,Puerto Rican,younger than 13,"no, only English or Spanish",yes,2025-08-13_17h59.35.627,empathy_intonation_perc_control,2024.2.4,Win32,60.0240096,6679e88eb948e8a4b08a39fb,68817205a84113384fffdfe3,689d0a36bdbb9ec0d6d19299,,,,,,,,,,,,,1,,,,,,,,,,,,,,,,,,,,,,,,,,,,,,,,,,,,,57,tacaño,,,,,537.34,539.464,0,0,1.586,,0,68,68,56,1,REAL,FAKE,,,,,,,,,,,,,,,,,
,,,,,,,,,6679e88eb948e8a4b08a39fb,Puerto Rican,younger than 13,"no, only English or Spanish",yes,2025-08-13_17h59.35.627,empathy_intonation_perc_control,2024.2.4,Win32,60.0240096,6679e88eb948e8a4b08a39fb,68817205a84113384fffdfe3,689d0a36bdbb9ec0d6d19299,,,,,,,,,,,,,0,,,,,,,,,,,,,,,,,,,,,,,,,,,,,,,,,,,,,17,floroso,,,,,539.469,541,0,1,0.998,,0,69,69,16,1,REAL,FAKE,,,,,,,,,,,,,,,,,
,,,,,,,,,6679e88eb948e8a4b08a39fb,Puerto Rican,younger than 13,"no, only English or Spanish",yes,2025-08-13_17h59.35.627,empathy_intonation_perc_control,2024.2.4,Win32,60.0240096,6679e88eb948e8a4b08a39fb,68817205a84113384fffdfe3,689d0a36bdbb9ec0d6d19299,,,,,,,,,,,,,1,,,,,,,,,,,,,,,,,,,,,,,,,,,,,,,,,,,,,37,granuja,,,,,541.003,542.863,0,0,1.31,,0,70,70,36,1,REAL,FAKE,,,,,,,,,,,,,,,,,
,,,,,,,,,6679e88eb948e8a4b08a39fb,Puerto Rican,younger than 13,"no, only English or Spanish",yes,2025-08-13_17h59.35.627,empathy_intonation_perc_control,2024.2.4,Win32,60.0240096,6679e88eb948e8a4b08a39fb,68817205a84113384fffdfe3,689d0a36bdbb9ec0d6d19299,,,,,,,,,,,,,1,,,,,,,,,,,,,,,,,,,,,,,,,,,,,,,,,,,,,83,guante,,,,,542.865,557.775,0,0,14.374,,0,71,71,82,1,REAL,FAKE,,,,,,,,,,,,,,,,,
,,,,,,,,,6679e88eb948e8a4b08a39fb,Puerto Rican,younger than 13,"no, only English or Spanish",yes,2025-08-13_17h59.35.627,empathy_intonation_perc_control,2024.2.4,Win32,60.0240096,6679e88eb948e8a4b08a39fb,68817205a84113384fffdfe3,689d0a36bdbb9ec0d6d19299,,,,,,,,,,,,,1,,,,,,,,,,,,,,,,,,,,,,,,,,,,,,,,,,,,,9,hacha,,,,,557.777,559.227,0,0,0.913,,0,72,72,8,1,REAL,FAKE,,,,,,,,,,,,,,,,,
,,,,,,,,,6679e88eb948e8a4b08a39fb,Puerto Rican,younger than 13,"no, only English or Spanish",yes,2025-08-13_17h59.35.627,empathy_intonation_perc_control,2024.2.4,Win32,60.0240096,6679e88eb948e8a4b08a39fb,68817205a84113384fffdfe3,689d0a36bdbb9ec0d6d19299,,,,,,,,,,,,,0,,,,,,,,,,,,,,,,,,,,,,,,,,,,,,,,,,,,,79,tropaje,,,,,559.231,560.615,0,1,0.853,,0,73,73,78,1,REAL,FAKE,,,,,,,,,,,,,,,,,
,,,,,,,,,6679e88eb948e8a4b08a39fb,Puerto Rican,younger than 13,"no, only English or Spanish",yes,2025-08-13_17h59.35.627,empathy_intonation_perc_control,2024.2.4,Win32,60.0240096,6679e88eb948e8a4b08a39fb,68817205a84113384fffdfe3,689d0a36bdbb9ec0d6d19299,,,,,,,,,,,,,1,,,,,,,,,,,,,,,,,,,,,,,,,,,,,,,,,,,,,89,prisa,,,,,560.618,562.346,1,1,1.2,,0,74,74,88,1,REAL,FAKE,,,,,,,,,,,,,,,,,
,,,,,,,,,6679e88eb948e8a4b08a39fb,Puerto Rican,younger than 13,"no, only English or Spanish",yes,2025-08-13_17h59.35.627,empathy_intonation_perc_control,2024.2.4,Win32,60.0240096,6679e88eb948e8a4b08a39fb,68817205a84113384fffdfe3,689d0a36bdbb9ec0d6d19299,,,,,,,,,,,,,0,,,,,,,,,,,,,,,,,,,,,,,,,,,,,,,,,,,,,10,antar,,,,,562.348,563.618,1,0,0.733,,0,75,75,9,1,REAL,FAKE,,,,,,,,,,,,,,,,,
,,,,,,,,,6679e88eb948e8a4b08a39fb,Puerto Rican,younger than 13,"no, only English or Spanish",yes,2025-08-13_17h59.35.627,empathy_intonation_perc_control,2024.2.4,Win32,60.0240096,6679e88eb948e8a4b08a39fb,68817205a84113384fffdfe3,689d0a36bdbb9ec0d6d19299,,,,,,,,,,,,,1,,,,,,,,,,,,,,,,,,,,,,,,,,,,,,,,,,,,,51,candado,,,,,563.631,565.083,0,0,0.921,,0,76,76,50,1,REAL,FAKE,,,,,,,,,,,,,,,,,
,,,,,,,,,6679e88eb948e8a4b08a39fb,Puerto Rican,younger than 13,"no, only English or Spanish",yes,2025-08-13_17h59.35.627,empathy_intonation_perc_control,2024.2.4,Win32,60.0240096,6679e88eb948e8a4b08a39fb,68817205a84113384fffdfe3,689d0a36bdbb9ec0d6d19299,,,,,,,,,,,,,1,,,,,,,,,,,,,,,,,,,,,,,,,,,,,,,,,,,,,78,frondoso,,,,,565.087,567.137,0,0,1.527,,0,77,77,77,1,REAL,FAKE,,,,,,,,,,,,,,,,,
,,,,,,,,,6679e88eb948e8a4b08a39fb,Puerto Rican,younger than 13,"no, only English or Spanish",yes,2025-08-13_17h59.35.627,empathy_intonation_perc_control,2024.2.4,Win32,60.0240096,6679e88eb948e8a4b08a39fb,68817205a84113384fffdfe3,689d0a36bdbb9ec0d6d19299,,,,,,,,,,,,,0,,,,,,,,,,,,,,,,,,,,,,,,,,,,,,,,,,,,,70,temblo,,,,,567.14,568.501,0,1,0.83,,0,78,78,69,1,REAL,FAKE,,,,,,,,,,,,,,,,,
,,,,,,,,,6679e88eb948e8a4b08a39fb,Puerto Rican,younger than 13,"no, only English or Spanish",yes,2025-08-13_17h59.35.627,empathy_intonation_perc_control,2024.2.4,Win32,60.0240096,6679e88eb948e8a4b08a39fb,68817205a84113384fffdfe3,689d0a36bdbb9ec0d6d19299,,,,,,,,,,,,,0,,,,,,,,,,,,,,,,,,,,,,,,,,,,,,,,,,,,,32,fatacidad,,,,,568.504,569.945,0,1,0.912,,0,79,79,31,1,REAL,FAKE,,,,,,,,,,,,,,,,,
,,,,,,,,,6679e88eb948e8a4b08a39fb,Puerto Rican,younger than 13,"no, only English or Spanish",yes,2025-08-13_17h59.35.627,empathy_intonation_perc_control,2024.2.4,Win32,60.0240096,6679e88eb948e8a4b08a39fb,68817205a84113384fffdfe3,689d0a36bdbb9ec0d6d19299,,,,,,,,,,,,,0,,,,,,,,,,,,,,,,,,,,,,,,,,,,,,,,,,,,,72,pemición,,,,,569.947,572.602,1,0,2.122,,0,80,80,71,1,REAL,FAKE,,,,,,,,,,,,,,,,,
,,,,,,,,,6679e88eb948e8a4b08a39fb,Puerto Rican,younger than 13,"no, only English or Spanish",yes,2025-08-13_17h59.35.627,empathy_intonation_perc_control,2024.2.4,Win32,60.0240096,6679e88eb948e8a4b08a39fb,68817205a84113384fffdfe3,689d0a36bdbb9ec0d6d19299,,,,,,,,,,,,,1,,,,,,,,,,,,,,,,,,,,,,,,,,,,,,,,,,,,,55,nevar,,,,,572.604,573.871,1,1,0.737,,0,81,81,54,1,REAL,FAKE,,,,,,,,,,,,,,,,,
,,,,,,,,,6679e88eb948e8a4b08a39fb,Puerto Rican,younger than 13,"no, only English or Spanish",yes,2025-08-13_17h59.35.627,empathy_intonation_perc_control,2024.2.4,Win32,60.0240096,6679e88eb948e8a4b08a39fb,68817205a84113384fffdfe3,689d0a36bdbb9ec0d6d19299,,,,,,,,,,,,,0,,,,,,,,,,,,,,,,,,,,,,,,,,,,,,,,,,,,,27,acutación,,,,,573.873,575.341,0,1,0.941,,0,82,82,26,1,REAL,FAKE,,,,,,,,,,,,,,,,,
,,,,,,,,,6679e88eb948e8a4b08a39fb,Puerto Rican,younger than 13,"no, only English or Spanish",yes,2025-08-13_17h59.35.627,empathy_intonation_perc_control,2024.2.4,Win32,60.0240096,6679e88eb948e8a4b08a39fb,68817205a84113384fffdfe3,689d0a36bdbb9ec0d6d19299,,,,,,,,,,,,,1,,,,,,,,,,,,,,,,,,,,,,,,,,,,,,,,,,,,,73,hervidor,,,,,575.343,576.677,0,0,0.816,,0,83,83,72,1,REAL,FAKE,,,,,,,,,,,,,,,,,
,,,,,,,,,6679e88eb948e8a4b08a39fb,Puerto Rican,younger than 13,"no, only English or Spanish",yes,2025-08-13_17h59.35.627,empathy_intonation_perc_control,2024.2.4,Win32,60.0240096,6679e88eb948e8a4b08a39fb,68817205a84113384fffdfe3,689d0a36bdbb9ec0d6d19299,,,,,,,,,,,,,0,,,,,,,,,,,,,,,,,,,,,,,,,,,,,,,,,,,,,35,rompido,,,,,576.679,577.967,0,1,0.758,,0,84,84,34,1,REAL,FAKE,,,,,,,,,,,,,,,,,
,,,,,,,,,6679e88eb948e8a4b08a39fb,Puerto Rican,younger than 13,"no, only English or Spanish",yes,2025-08-13_17h59.35.627,empathy_intonation_perc_control,2024.2.4,Win32,60.0240096,6679e88eb948e8a4b08a39fb,68817205a84113384fffdfe3,689d0a36bdbb9ec0d6d19299,,,,,,,,,,,,,1,,,,,,,,,,,,,,,,,,,,,,,,,,,,,,,,,,,,,52,camisa,,,,,577.968,579.421,0,0,0.927,,0,85,85,51,1,REAL,FAKE,,,,,,,,,,,,,,,,,
,,,,,,,,,6679e88eb948e8a4b08a39fb,Puerto Rican,younger than 13,"no, only English or Spanish",yes,2025-08-13_17h59.35.627,empathy_intonation_perc_control,2024.2.4,Win32,60.0240096,6679e88eb948e8a4b08a39fb,68817205a84113384fffdfe3,689d0a36bdbb9ec0d6d19299,,,,,,,,,,,,,1,,,,,,,,,,,,,,,,,,,,,,,,,,,,,,,,,,,,,41,rebuscar,,,,,579.424,580.993,0,0,1.044,,0,86,86,40,1,REAL,FAKE,,,,,,,,,,,,,,,,,
,,,,,,,,,6679e88eb948e8a4b08a39fb,Puerto Rican,younger than 13,"no, only English or Spanish",yes,2025-08-13_17h59.35.627,empathy_intonation_perc_control,2024.2.4,Win32,60.0240096,6679e88eb948e8a4b08a39fb,68817205a84113384fffdfe3,689d0a36bdbb9ec0d6d19299,,,,,,,,,,,,,1,,,,,,,,,,,,,,,,,,,,,,,,,,,,,,,,,,,,,85,laúd,,,,,580.995,582.407,0,0,0.875,,0,87,87,84,1,REAL,FAKE,,,,,,,,,,,,,,,,,
,,,,,,,,,6679e88eb948e8a4b08a39fb,Puerto Rican,younger than 13,"no, only English or Spanish",yes,2025-08-13_17h59.35.627,empathy_intonation_perc_control,2024.2.4,Win32,60.0240096,6679e88eb948e8a4b08a39fb,68817205a84113384fffdfe3,689d0a36bdbb9ec0d6d19299,,,,,,,,,,,,,1,,,,,,,,,,,,,,,,,,,,,,,,,,,,,,,,,,,,,5,zapato,,,,,582.409,583.505,0,0,0.567,,0,88,88,4,1,REAL,FAKE,,,,,,,,,,,,,,,,,
,,,,,,,,,6679e88eb948e8a4b08a39fb,Puerto Rican,younger than 13,"no, only English or Spanish",yes,2025-08-13_17h59.35.627,empathy_intonation_perc_control,2024.2.4,Win32,60.0240096,6679e88eb948e8a4b08a39fb,68817205a84113384fffdfe3,689d0a36bdbb9ec0d6d19299,,,,,,,,,,,,,1,,,,,,,,,,,,,,,,,,,,,,,,,,,,,,,,,,,,,6,tergiversar,,,,,583.508,584.676,0,0,0.644,,0,89,89,5,1,REAL,FAKE,,,,,,,,,,,,,,,,,
,,,,,,,,,6679e88eb948e8a4b08a39fb,Puerto Rican,younger than 13,"no, only English or Spanish",yes,2025-08-13_17h59.35.627,empathy_intonation_perc_control,2024.2.4,Win32,60.0240096,6679e88eb948e8a4b08a39fb,68817205a84113384fffdfe3,689d0a36bdbb9ec0d6d19299,,,,,,,,,,,,,1,,,,,,,,,,,,,,,,,,,,,,,,,,,,,,,,,,,,,77,tiburón,,,,,584.679,585.848,1,1,0.637,,0,90,90,76,1,REAL,FAKE,,,,,,,,,,,,,,,,,
,,,,,,,,,6679e88eb948e8a4b08a39fb,Puerto Rican,younger than 13,"no, only English or Spanish",yes,2025-08-13_17h59.35.627,empathy_intonation_perc_control,2024.2.4,Win32,60.0240096,6679e88eb948e8a4b08a39fb,68817205a84113384fffdfe3,689d0a36bdbb9ec0d6d19299,,,,,,,,,,,,,0,,,,,,,,,,,,,,,,,,,,,,,,,,,,,,,,,,,,,66,hacido,,,,,585.851,587.054,1,0,0.677,,0,91,91,65,1,REAL,FAKE,,,,,,,,,,,,,,,,,
,,,,,,,,,6679e88eb948e8a4b08a39fb,Puerto Rican,younger than 13,"no, only English or Spanish",yes,2025-08-13_17h59.35.627,empathy_intonation_perc_control,2024.2.4,Win32,60.0240096,6679e88eb948e8a4b08a39fb,68817205a84113384fffdfe3,689d0a36bdbb9ec0d6d19299,,,,,,,,,,,,,,,,,,,,,,,,,,,,,,,,,,,,,,,,,,,,,,,,,,,,,,,,,,,,,,,,,,,,,587.054,592.269,,,,,,,,,,,,,,,
,,,,,,,,,6679e88eb948e8a4b08a39fb,Puerto Rican,younger than 13,"no, only English or Spanish",yes,2025-08-13_17h59.35.627,empathy_intonation_perc_control,2024.2.4,Win32,60.0240096,6679e88eb948e8a4b08a39fb,68817205a84113384fffdfe3,689d0a36bdbb9ec0d6d19299,,,,,,,,,,,,,,,,,,,,,,,,,,,1,,,,,,,,,,,,,,,,,,,,,,,,,,,,,,,,,,,,,,,,,,,,592.308,597.333,slightly agree,0,0,0,0,1,I can easily tell if someone else wants to enter a conversation.,1,0,1,0,,
,,,,,,,,,6679e88eb948e8a4b08a39fb,Puerto Rican,younger than 13,"no, only English or Spanish",yes,2025-08-13_17h59.35.627,empathy_intonation_perc_control,2024.2.4,Win32,60.0240096,6679e88eb948e8a4b08a39fb,68817205a84113384fffdfe3,689d0a36bdbb9ec0d6d19299,,,,,,,,,,,,,,,,,,,,,,,,,,,2,,,,,,,,,,,,,,,,,,,,,,,,,,,,,,,,,,,,,,,,,,,,597.336,600.381,strongly disagree,0,1,1,1,1,I prefer animals to humans.,0,1,0,0,,
,,,,,,,,,6679e88eb948e8a4b08a39fb,Puerto Rican,younger than 13,"no, only English or Spanish",yes,2025-08-13_17h59.35.627,empathy_intonation_perc_control,2024.2.4,Win32,60.0240096,6679e88eb948e8a4b08a39fb,68817205a84113384fffdfe3,689d0a36bdbb9ec0d6d19299,,,,,,,,,,,,,,,,,,,,,,,,,,,3,,,,,,,,,,,,,,,,,,,,,,,,,,,,,,,,,,,,,,,,,,,,600.386,602.952,slightly agree,0,2,2,2,1,I try to keep up with the current trends and fashions.,0,1,0,0,,
,,,,,,,,,6679e88eb948e8a4b08a39fb,Puerto Rican,younger than 13,"no, only English or Spanish",yes,2025-08-13_17h59.35.627,empathy_intonation_perc_control,2024.2.4,Win32,60.0240096,6679e88eb948e8a4b08a39fb,68817205a84113384fffdfe3,689d0a36bdbb9ec0d6d19299,,,,,,,,,,,,,,,,,,,,,,,,,,,4,,,,,,,,,,,,,,,,,,,,,,,,,,,,,,,,,,,,,,,,,,,,602.955,608.55,slightly disagree,0,3,3,3,1,"I find it difficult to explain to others things that I understand easily,   when they don't understand it first time.",1,0,0,1,,
,,,,,,,,,6679e88eb948e8a4b08a39fb,Puerto Rican,younger than 13,"no, only English or Spanish",yes,2025-08-13_17h59.35.627,empathy_intonation_perc_control,2024.2.4,Win32,60.0240096,6679e88eb948e8a4b08a39fb,68817205a84113384fffdfe3,689d0a36bdbb9ec0d6d19299,,,,,,,,,,,,,,,,,,,,,,,,,,,5,,,,,,,,,,,,,,,,,,,,,,,,,,,,,,,,,,,,,,,,,,,,608.553,610.515,slightly disagree,0,4,4,4,1,I dream most nights.,0,1,0,0,,
,,,,,,,,,6679e88eb948e8a4b08a39fb,Puerto Rican,younger than 13,"no, only English or Spanish",yes,2025-08-13_17h59.35.627,empathy_intonation_perc_control,2024.2.4,Win32,60.0240096,6679e88eb948e8a4b08a39fb,68817205a84113384fffdfe3,689d0a36bdbb9ec0d6d19299,,,,,,,,,,,,,,,,,,,,,,,,,,,6,,,,,,,,,,,,,,,,,,,,,,,,,,,,,,,,,,,,,,,,,,,,610.518,612.726,slightly agree,0,5,5,5,1,I really enjoy caring for other people.,1,0,1,0,,
,,,,,,,,,6679e88eb948e8a4b08a39fb,Puerto Rican,younger than 13,"no, only English or Spanish",yes,2025-08-13_17h59.35.627,empathy_intonation_perc_control,2024.2.4,Win32,60.0240096,6679e88eb948e8a4b08a39fb,68817205a84113384fffdfe3,689d0a36bdbb9ec0d6d19299,,,,,,,,,,,,,,,,,,,,,,,,,,,7,,,,,,,,,,,,,,,,,,,,,,,,,,,,,,,,,,,,,,,,,,,,612.731,615.557,slightly agree,0,6,6,6,1,I try to solve my own problems rather than discussing them with others.,0,1,0,0,,
,,,,,,,,,6679e88eb948e8a4b08a39fb,Puerto Rican,younger than 13,"no, only English or Spanish",yes,2025-08-13_17h59.35.627,empathy_intonation_perc_control,2024.2.4,Win32,60.0240096,6679e88eb948e8a4b08a39fb,68817205a84113384fffdfe3,689d0a36bdbb9ec0d6d19299,,,,,,,,,,,,,,,,,,,,,,,,,,,8,,,,,,,,,,,,,,,,,,,,,,,,,,,,,,,,,,,,,,,,,,,,615.559,621.283,slightly disagree,0,7,7,7,1,I find it hard to know what to do in a social situation.,1,0,0,1,,
,,,,,,,,,6679e88eb948e8a4b08a39fb,Puerto Rican,younger than 13,"no, only English or Spanish",yes,2025-08-13_17h59.35.627,empathy_intonation_perc_control,2024.2.4,Win32,60.0240096,6679e88eb948e8a4b08a39fb,68817205a84113384fffdfe3,689d0a36bdbb9ec0d6d19299,,,,,,,,,,,,,,,,,,,,,,,,,,,9,,,,,,,,,,,,,,,,,,,,,,,,,,,,,,,,,,,,,,,,,,,,621.286,625.761,strongly agree,0,8,8,8,1,I am at my best first thing in the morning.,0,1,0,0,,
,,,,,,,,,6679e88eb948e8a4b08a39fb,Puerto Rican,younger than 13,"no, only English or Spanish",yes,2025-08-13_17h59.35.627,empathy_intonation_perc_control,2024.2.4,Win32,60.0240096,6679e88eb948e8a4b08a39fb,68817205a84113384fffdfe3,689d0a36bdbb9ec0d6d19299,,,,,,,,,,,,,,,,,,,,,,,,,,,10,,,,,,,,,,,,,,,,,,,,,,,,,,,,,,,,,,,,,,,,,,,,625.764,628.898,strongly disagree,0,9,9,9,1,People often tell me that I went too far in driving my point home in a discussion.,1,0,0,1,,
,,,,,,,,,6679e88eb948e8a4b08a39fb,Puerto Rican,younger than 13,"no, only English or Spanish",yes,2025-08-13_17h59.35.627,empathy_intonation_perc_control,2024.2.4,Win32,60.0240096,6679e88eb948e8a4b08a39fb,68817205a84113384fffdfe3,689d0a36bdbb9ec0d6d19299,,,,,,,,,,,,,,,,,,,,,,,,,,,11,,,,,,,,,,,,,,,,,,,,,,,,,,,,,,,,,,,,,,,,,,,,628.903,637.873,slightly disagree,0,10,10,10,1,It doesn't bother me too much if I am late meeting a friend.,1,0,0,1,,
,,,,,,,,,6679e88eb948e8a4b08a39fb,Puerto Rican,younger than 13,"no, only English or Spanish",yes,2025-08-13_17h59.35.627,empathy_intonation_perc_control,2024.2.4,Win32,60.0240096,6679e88eb948e8a4b08a39fb,68817205a84113384fffdfe3,689d0a36bdbb9ec0d6d19299,,,,,,,,,,,,,,,,,,,,,,,,,,,12,,,,,,,,,,,,,,,,,,,,,,,,,,,,,,,,,,,,,,,,,,,,637.876,641.536,slightly disagree,0,11,11,11,1,"Friendships and relationships are just too difficult, so I tend not to 
  bother with them.",1,0,0,1,,
,,,,,,,,,6679e88eb948e8a4b08a39fb,Puerto Rican,younger than 13,"no, only English or Spanish",yes,2025-08-13_17h59.35.627,empathy_intonation_perc_control,2024.2.4,Win32,60.0240096,6679e88eb948e8a4b08a39fb,68817205a84113384fffdfe3,689d0a36bdbb9ec0d6d19299,,,,,,,,,,,,,,,,,,,,,,,,,,,13,,,,,,,,,,,,,,,,,,,,,,,,,,,,,,,,,,,,,,,,,,,,641.54,645.174,slightly agree,0,12,12,12,1,"I would never break a law, no matter how minor.",0,1,0,0,,
,,,,,,,,,6679e88eb948e8a4b08a39fb,Puerto Rican,younger than 13,"no, only English or Spanish",yes,2025-08-13_17h59.35.627,empathy_intonation_perc_control,2024.2.4,Win32,60.0240096,6679e88eb948e8a4b08a39fb,68817205a84113384fffdfe3,689d0a36bdbb9ec0d6d19299,,,,,,,,,,,,,,,,,,,,,,,,,,,14,,,,,,,,,,,,,,,,,,,,,,,,,,,,,,,,,,,,,,,,,,,,645.176,650.123,strongly disagree,0,13,13,13,1,I often find it difficult to judge if something is rude or polite.,1,0,0,1,,
,,,,,,,,,6679e88eb948e8a4b08a39fb,Puerto Rican,younger than 13,"no, only English or Spanish",yes,2025-08-13_17h59.35.627,empathy_intonation_perc_control,2024.2.4,Win32,60.0240096,6679e88eb948e8a4b08a39fb,68817205a84113384fffdfe3,689d0a36bdbb9ec0d6d19299,,,,,,,,,,,,,,,,,,,,,,,,,,,15,,,,,,,,,,,,,,,,,,,,,,,,,,,,,,,,,,,,,,,,,,,,650.126,675.049,slightly disagree,0,14,14,14,1,"In a conversation, I tend to focus on my own thoughts rather than on what 
  my listener might be thinking.",1,0,0,1,,
,,,,,,,,,6679e88eb948e8a4b08a39fb,Puerto Rican,younger than 13,"no, only English or Spanish",yes,2025-08-13_17h59.35.627,empathy_intonation_perc_control,2024.2.4,Win32,60.0240096,6679e88eb948e8a4b08a39fb,68817205a84113384fffdfe3,689d0a36bdbb9ec0d6d19299,,,,,,,,,,,,,,,,,,,,,,,,,,,16,,,,,,,,,,,,,,,,,,,,,,,,,,,,,,,,,,,,,,,,,,,,675.056,681.064,strongly disagree,0,15,15,15,1,I prefer practical jokes to verbal humor.,0,1,0,0,,
,,,,,,,,,6679e88eb948e8a4b08a39fb,Puerto Rican,younger than 13,"no, only English or Spanish",yes,2025-08-13_17h59.35.627,empathy_intonation_perc_control,2024.2.4,Win32,60.0240096,6679e88eb948e8a4b08a39fb,68817205a84113384fffdfe3,689d0a36bdbb9ec0d6d19299,,,,,,,,,,,,,,,,,,,,,,,,,,,17,,,,,,,,,,,,,,,,,,,,,,,,,,,,,,,,,,,,,,,,,,,,681.07,683.508,slightly disagree,0,16,16,16,1,I live life for today rather than the future.,0,1,0,0,,
,,,,,,,,,6679e88eb948e8a4b08a39fb,Puerto Rican,younger than 13,"no, only English or Spanish",yes,2025-08-13_17h59.35.627,empathy_intonation_perc_control,2024.2.4,Win32,60.0240096,6679e88eb948e8a4b08a39fb,68817205a84113384fffdfe3,689d0a36bdbb9ec0d6d19299,,,,,,,,,,,,,,,,,,,,,,,,,,,18,,,,,,,,,,,,,,,,,,,,,,,,,,,,,,,,,,,,,,,,,,,,683.513,687.172,strongly disagree,0,17,17,17,1,"When I was a child, I enjoyed cutting up worms to see what would happen.",1,0,0,1,,
,,,,,,,,,6679e88eb948e8a4b08a39fb,Puerto Rican,younger than 13,"no, only English or Spanish",yes,2025-08-13_17h59.35.627,empathy_intonation_perc_control,2024.2.4,Win32,60.0240096,6679e88eb948e8a4b08a39fb,68817205a84113384fffdfe3,689d0a36bdbb9ec0d6d19299,,,,,,,,,,,,,,,,,,,,,,,,,,,19,,,,,,,,,,,,,,,,,,,,,,,,,,,,,,,,,,,,,,,,,,,,687.178,696.84,slightly agree,0,18,18,18,1,I can pick up quickly if someone says one thing but means another.,1,0,1,0,,
,,,,,,,,,6679e88eb948e8a4b08a39fb,Puerto Rican,younger than 13,"no, only English or Spanish",yes,2025-08-13_17h59.35.627,empathy_intonation_perc_control,2024.2.4,Win32,60.0240096,6679e88eb948e8a4b08a39fb,68817205a84113384fffdfe3,689d0a36bdbb9ec0d6d19299,,,,,,,,,,,,,,,,,,,,,,,,,,,20,,,,,,,,,,,,,,,,,,,,,,,,,,,,,,,,,,,,,,,,,,,,696.847,703.852,slightly agree,0,19,19,19,1,I tend to have very strong opinions about morality.,0,1,0,0,,
,,,,,,,,,6679e88eb948e8a4b08a39fb,Puerto Rican,younger than 13,"no, only English or Spanish",yes,2025-08-13_17h59.35.627,empathy_intonation_perc_control,2024.2.4,Win32,60.0240096,6679e88eb948e8a4b08a39fb,68817205a84113384fffdfe3,689d0a36bdbb9ec0d6d19299,,,,,,,,,,,,,,,,,,,,,,,,,,,21,,,,,,,,,,,,,,,,,,,,,,,,,,,,,,,,,,,,,,,,,,,,703.855,706.443,slightly disagree,0,20,20,20,1,It is hard for me to see why some things upset people so much.,1,0,0,1,,
,,,,,,,,,6679e88eb948e8a4b08a39fb,Puerto Rican,younger than 13,"no, only English or Spanish",yes,2025-08-13_17h59.35.627,empathy_intonation_perc_control,2024.2.4,Win32,60.0240096,6679e88eb948e8a4b08a39fb,68817205a84113384fffdfe3,689d0a36bdbb9ec0d6d19299,,,,,,,,,,,,,,,,,,,,,,,,,,,22,,,,,,,,,,,,,,,,,,,,,,,,,,,,,,,,,,,,,,,,,,,,706.448,711.395,slightly agree,0,21,21,21,1,I find it easy to put myself in somebody else's shoes.,1,0,1,0,,
