instructions_2afc.started,instructions_2afc.stopped,instructions_2afc_loop.thisRepN,instructions_2afc_loop.thisTrialN,instructions_2afc_loop.thisN,instructions_2afc_loop.thisIndex,instructions_2afc_loop.ran,instructions_text,continue_text,participant_id,"What variety of Spanish are you most familiar with? (e.g., Peruvian, Spanish, Mexican)",At what age did you begin learning Spanish?,Are you proficient in any languages other than English/Spanish?,"Are you familiar with Caribbean (e.g., Caribbean, Puerto Rican) or Galician Spanish?",date,expName,psychopyVersion,OS,frameRate,id,study_id,session,practice_2afc.started,practice_2afc.stopped,key_resp_2afc_practice.keys,key_resp_2afc_practice.corr,key_resp_2afc_practice.rt,key_resp_2afc_practice.duration,trials_2afc_practice_loop.thisRepN,trials_2afc_practice_loop.thisTrialN,trials_2afc_practice_loop.thisN,trials_2afc_practice_loop.thisIndex,trials_2afc_practice_loop.ran,path,correct_response,check_2afc.started,check_2afc.stopped,trial_2afc.started,trial_2afc.stopped,key_resp_2afc_trial.keys,key_resp_2afc_trial.corr,key_resp_2afc_trial.rt,key_resp_2afc_trial.duration,trials_2afc_loop.thisRepN,trials_2afc_loop.thisTrialN,trials_2afc_loop.thisN,trials_2afc_loop.thisIndex,trials_2afc_loop.ran,item_num,target,variety,instructions_lextale.started,instructions_lextale.stopped,instructions_lextale_loop.thisRepN,instructions_lextale_loop.thisTrialN,instructions_lextale_loop.thisN,instructions_lextale_loop.thisIndex,instructions_lextale_loop.ran,practice_lextale.started,practice_lextale.stopped,key_resp_lextale_practice.keys,key_resp_lextale_practice.corr,key_resp_lextale_practice.rt,key_resp_lextale_practice.duration,practice_feedback_lextale.started,practice_feedback_lextale.stopped,trials_lextale_practice_loop.thisRepN,trials_lextale_practice_loop.thisTrialN,trials_lextale_practice_loop.thisN,trials_lextale_practice_loop.thisIndex,trials_lextale_practice_loop.ran,stim,word,prac_button_real,prac_button_false,check_lextale.started,check_lextale.stopped,trial_lextale.started,trial_lextale.stopped,key_resp_lextale_trial.keys,key_resp_lextale_trial.corr,key_resp_lextale_trial.rt,key_resp_lextale_trial.duration,trials_lextale_loop.thisRepN,trials_lextale_loop.thisTrialN,trials_lextale_loop.thisN,trials_lextale_loop.thisIndex,trials_lextale_loop.ran,button_real,button_false,instructions_eq.started,instructions_eq.stopped,trial_eq.started,trial_eq.stopped,slider_eq_trial.response,trials_eq_loop.thisRepN,trials_eq_loop.thisTrialN,trials_eq_loop.thisN,trials_eq_loop.thisIndex,trials_eq_loop.ran,item,is_test_item,is_distractor,is_agree_score,is_disagree_score,end_exp.started,end_exp.stopped
0.015,6.01,0,0,0,0,1,"In the following task you are going to hear a series of utterances. 

  You will decide if the utterances sound like questions or not using your keyboard.", (press the spacebar to continue),667f1755b464b48413d1f6ea,,13 or older,"no, only English or Spanish",no,2025-08-12_15h51.07.220,empathy_intonation_perc_control,2024.2.4,Win32,60.0240096,667f1755b464b48413d1f6ea,68817205a84113384fffdfe3,689b9b07787abb9fee8d2d7c,,,,,,,,,,,,,,,,,,,,,,,,,,,,,,,,,,,,,,,,,,,,,,,,,,,,,,,,,,,,,,,,,,,,,,,,,,,,,,,,,,,,,
6.01,15.082,0,1,1,1,1,"If you believe the utterance is a question, type '1' (for 'yes') and if you do not 
  believe it is a question type '0' (for 'no').

  Let's practice a bit...", (press the spacebar to continue),667f1755b464b48413d1f6ea,,13 or older,"no, only English or Spanish",no,2025-08-12_15h51.07.220,empathy_intonation_perc_control,2024.2.4,Win32,60.0240096,667f1755b464b48413d1f6ea,68817205a84113384fffdfe3,689b9b07787abb9fee8d2d7c,,,,,,,,,,,,,,,,,,,,,,,,,,,,,,,,,,,,,,,,,,,,,,,,,,,,,,,,,,,,,,,,,,,,,,,,,,,,,,,,,,,,,
,,,,,,,,,667f1755b464b48413d1f6ea,,13 or older,"no, only English or Spanish",no,2025-08-12_15h51.07.220,empathy_intonation_perc_control,2024.2.4,Win32,60.0240096,667f1755b464b48413d1f6ea,68817205a84113384fffdfe3,689b9b07787abb9fee8d2d7c,15.094,22.661,0,1,7.047,,0,0,0,7,1,./stim/wavs/puertorican_statement_filler_La-nina-pinta-con-su-amiga.wav,0,,,,,,,,,,,,,,,,,,,,,,,,,,,,,,,,,,,,,,,,,,,,,,,,,,,,,,,,,,,,,,,,,,,,,,,,
,,,,,,,,,667f1755b464b48413d1f6ea,,13 or older,"no, only English or Spanish",no,2025-08-12_15h51.07.220,empathy_intonation_perc_control,2024.2.4,Win32,60.0240096,667f1755b464b48413d1f6ea,68817205a84113384fffdfe3,689b9b07787abb9fee8d2d7c,22.665,28.825,1,0,5.632,,0,1,1,5,1,./stim/wavs/andalusian_statement_filler_Alberto-nunca-se-afeita.wav,0,,,,,,,,,,,,,,,,,,,,,,,,,,,,,,,,,,,,,,,,,,,,,,,,,,,,,,,,,,,,,,,,,,,,,,,,
,,,,,,,,,667f1755b464b48413d1f6ea,,13 or older,"no, only English or Spanish",no,2025-08-12_15h51.07.220,empathy_intonation_perc_control,2024.2.4,Win32,60.0240096,667f1755b464b48413d1f6ea,68817205a84113384fffdfe3,689b9b07787abb9fee8d2d7c,28.83,34.038,1,0,4.682,,0,2,2,4,1,./stim/wavs/cuban_statement_filler_Cocinabas-por-la-noche.wav,0,,,,,,,,,,,,,,,,,,,,,,,,,,,,,,,,,,,,,,,,,,,,,,,,,,,,,,,,,,,,,,,,,,,,,,,,
,,,,,,,,,667f1755b464b48413d1f6ea,,13 or older,"no, only English or Spanish",no,2025-08-12_15h51.07.220,empathy_intonation_perc_control,2024.2.4,Win32,60.0240096,667f1755b464b48413d1f6ea,68817205a84113384fffdfe3,689b9b07787abb9fee8d2d7c,34.043,49.431,0,1,14.859,,0,3,3,6,1,./stim/wavs/peruvian_statement_filler_El-nino-habla-con-su-madre.wav,0,,,,,,,,,,,,,,,,,,,,,,,,,,,,,,,,,,,,,,,,,,,,,,,,,,,,,,,,,,,,,,,,,,,,,,,,
,,,,,,,,,667f1755b464b48413d1f6ea,,13 or older,"no, only English or Spanish",no,2025-08-12_15h51.07.220,empathy_intonation_perc_control,2024.2.4,Win32,60.0240096,667f1755b464b48413d1f6ea,68817205a84113384fffdfe3,689b9b07787abb9fee8d2d7c,49.436,54.961,1,1,4.999,,0,4,4,1,1,./stim/wavs/argentine_question_filler_Mi-vecino-habla-mucho.wav,1,,,,,,,,,,,,,,,,,,,,,,,,,,,,,,,,,,,,,,,,,,,,,,,,,,,,,,,,,,,,,,,,,,,,,,,,
,,,,,,,,,667f1755b464b48413d1f6ea,,13 or older,"no, only English or Spanish",no,2025-08-12_15h51.07.220,empathy_intonation_perc_control,2024.2.4,Win32,60.0240096,667f1755b464b48413d1f6ea,68817205a84113384fffdfe3,689b9b07787abb9fee8d2d7c,54.965,59.377,1,1,3.883,,0,5,5,3,1,./stim/wavs/mexican_question_filler_Felipe-no-tiene-contrasena.wav,1,,,,,,,,,,,,,,,,,,,,,,,,,,,,,,,,,,,,,,,,,,,,,,,,,,,,,,,,,,,,,,,,,,,,,,,,
,,,,,,,,,667f1755b464b48413d1f6ea,,13 or older,"no, only English or Spanish",no,2025-08-12_15h51.07.220,empathy_intonation_perc_control,2024.2.4,Win32,60.0240096,667f1755b464b48413d1f6ea,68817205a84113384fffdfe3,689b9b07787abb9fee8d2d7c,59.381,61.691,0,0,1.784,,0,6,6,2,1,./stim/wavs/chilean_question_filler_Mi-padre-cantaba-bien.wav,1,,,,,,,,,,,,,,,,,,,,,,,,,,,,,,,,,,,,,,,,,,,,,,,,,,,,,,,,,,,,,,,,,,,,,,,,
,,,,,,,,,667f1755b464b48413d1f6ea,,13 or older,"no, only English or Spanish",no,2025-08-12_15h51.07.220,empathy_intonation_perc_control,2024.2.4,Win32,60.0240096,667f1755b464b48413d1f6ea,68817205a84113384fffdfe3,689b9b07787abb9fee8d2d7c,61.694,66.239,1,1,4.017,,0,7,7,0,1,./stim/wavs/castilian_question_filler_Mi-esposo-conoce-al-chico.wav,1,,,,,,,,,,,,,,,,,,,,,,,,,,,,,,,,,,,,,,,,,,,,,,,,,,,,,,,,,,,,,,,,,,,,,,,,
,,,,,,,,,667f1755b464b48413d1f6ea,,13 or older,"no, only English or Spanish",no,2025-08-12_15h51.07.220,empathy_intonation_perc_control,2024.2.4,Win32,60.0240096,667f1755b464b48413d1f6ea,68817205a84113384fffdfe3,689b9b07787abb9fee8d2d7c,,,,,,,,,,,,,,66.239,74.101,,,,,,,,,,,,,,,,,,,,,,,,,,,,,,,,,,,,,,,,,,,,,,,,,,,,,,,,,,,,,,,,,,,,,,
,,,,,,,,,667f1755b464b48413d1f6ea,,13 or older,"no, only English or Spanish",no,2025-08-12_15h51.07.220,empathy_intonation_perc_control,2024.2.4,Win32,60.0240096,667f1755b464b48413d1f6ea,68817205a84113384fffdfe3,689b9b07787abb9fee8d2d7c,,,,,,,,,,,,./stim/wavs/mexican_match_declarative-broad-focus_Emilio-ama-la-marcha.wav,0,,,74.13,76.933,0,1,2.285,,0,0,0,59,1,60,0,mexican,,,,,,,,,,,,,,,,,,,,,,,,,,,,,,,,,,,,,,,,,,,,,,,,,,,,,,,,
,,,,,,,,,667f1755b464b48413d1f6ea,,13 or older,"no, only English or Spanish",no,2025-08-12_15h51.07.220,empathy_intonation_perc_control,2024.2.4,Win32,60.0240096,667f1755b464b48413d1f6ea,68817205a84113384fffdfe3,689b9b07787abb9fee8d2d7c,,,,,,,,,,,,./stim/wavs/puertorican_match_interrogative-total-yn_David-leia-el-libro.wav,1,,,76.936,82.297,0,0,4.831,,0,1,1,20,1,21,1,puertorican,,,,,,,,,,,,,,,,,,,,,,,,,,,,,,,,,,,,,,,,,,,,,,,,,,,,,,,,
,,,,,,,,,667f1755b464b48413d1f6ea,,13 or older,"no, only English or Spanish",no,2025-08-12_15h51.07.220,empathy_intonation_perc_control,2024.2.4,Win32,60.0240096,667f1755b464b48413d1f6ea,68817205a84113384fffdfe3,689b9b07787abb9fee8d2d7c,,,,,,,,,,,,./stim/wavs/puertorican_match_declarative-broad-focus_Manuela-vende-el-carro.wav,0,,,82.298,85.712,0,1,2.882,,0,2,2,66,1,67,0,puertorican,,,,,,,,,,,,,,,,,,,,,,,,,,,,,,,,,,,,,,,,,,,,,,,,,,,,,,,,
,,,,,,,,,667f1755b464b48413d1f6ea,,13 or older,"no, only English or Spanish",no,2025-08-12_15h51.07.220,empathy_intonation_perc_control,2024.2.4,Win32,60.0240096,667f1755b464b48413d1f6ea,68817205a84113384fffdfe3,689b9b07787abb9fee8d2d7c,,,,,,,,,,,,./stim/wavs/mexican_match_interrogative-total-yn_Ana-lleva-el-abrigo.wav,1,,,85.714,88.794,1,1,2.55,,0,3,3,12,1,13,0,mexican,,,,,,,,,,,,,,,,,,,,,,,,,,,,,,,,,,,,,,,,,,,,,,,,,,,,,,,,
,,,,,,,,,667f1755b464b48413d1f6ea,,13 or older,"no, only English or Spanish",no,2025-08-12_15h51.07.220,empathy_intonation_perc_control,2024.2.4,Win32,60.0240096,667f1755b464b48413d1f6ea,68817205a84113384fffdfe3,689b9b07787abb9fee8d2d7c,,,,,,,,,,,,./stim/wavs/cuban_match_declarative-broad-focus_Mariano-habla-del-tiempo.wav,0,,,88.796,95.441,0,1,6.115,,0,4,4,54,1,55,0,cuban,,,,,,,,,,,,,,,,,,,,,,,,,,,,,,,,,,,,,,,,,,,,,,,,,,,,,,,,
,,,,,,,,,667f1755b464b48413d1f6ea,,13 or older,"no, only English or Spanish",no,2025-08-12_15h51.07.220,empathy_intonation_perc_control,2024.2.4,Win32,60.0240096,667f1755b464b48413d1f6ea,68817205a84113384fffdfe3,689b9b07787abb9fee8d2d7c,,,,,,,,,,,,./stim/wavs/castilian_match_declarative-broad-focus_Mariano-habla-del-tiempo.wav,0,,,95.446,98.405,0,1,2.434,,0,5,5,48,1,49,0,castilian,,,,,,,,,,,,,,,,,,,,,,,,,,,,,,,,,,,,,,,,,,,,,,,,,,,,,,,,
,,,,,,,,,667f1755b464b48413d1f6ea,,13 or older,"no, only English or Spanish",no,2025-08-12_15h51.07.220,empathy_intonation_perc_control,2024.2.4,Win32,60.0240096,667f1755b464b48413d1f6ea,68817205a84113384fffdfe3,689b9b07787abb9fee8d2d7c,,,,,,,,,,,,./stim/wavs/castilian_match_declarative-broad-focus_David-leia-el-libro.wav,0,,,98.408,102.02,0,1,3.083,,0,6,6,44,1,45,0,castilian,,,,,,,,,,,,,,,,,,,,,,,,,,,,,,,,,,,,,,,,,,,,,,,,,,,,,,,,
,,,,,,,,,667f1755b464b48413d1f6ea,,13 or older,"no, only English or Spanish",no,2025-08-12_15h51.07.220,empathy_intonation_perc_control,2024.2.4,Win32,60.0240096,667f1755b464b48413d1f6ea,68817205a84113384fffdfe3,689b9b07787abb9fee8d2d7c,,,,,,,,,,,,./stim/wavs/cuban_mismatch_interrogative-total-yn_El-hombre-mira-la-luna.wav,1,,,102.023,105.568,1,1,3.016,,0,7,7,29,1,30,1,cuban,,,,,,,,,,,,,,,,,,,,,,,,,,,,,,,,,,,,,,,,,,,,,,,,,,,,,,,,
,,,,,,,,,667f1755b464b48413d1f6ea,,13 or older,"no, only English or Spanish",no,2025-08-12_15h51.07.220,empathy_intonation_perc_control,2024.2.4,Win32,60.0240096,667f1755b464b48413d1f6ea,68817205a84113384fffdfe3,689b9b07787abb9fee8d2d7c,,,,,,,,,,,,./stim/wavs/puertorican_mismatch_declarative-broad-focus_El-hombre-mira-la-luna.wav,0,,,105.57,108.5,1,0,2.401,,0,8,8,84,1,85,0,puertorican,,,,,,,,,,,,,,,,,,,,,,,,,,,,,,,,,,,,,,,,,,,,,,,,,,,,,,,,
,,,,,,,,,667f1755b464b48413d1f6ea,,13 or older,"no, only English or Spanish",no,2025-08-12_15h51.07.220,empathy_intonation_perc_control,2024.2.4,Win32,60.0240096,667f1755b464b48413d1f6ea,68817205a84113384fffdfe3,689b9b07787abb9fee8d2d7c,,,,,,,,,,,,./stim/wavs/cuban_mismatch_interrogative-total-yn_Mi-novio-viene-del-lago.wav,1,,,108.502,112.631,0,0,3.599,,0,9,9,32,1,33,1,cuban,,,,,,,,,,,,,,,,,,,,,,,,,,,,,,,,,,,,,,,,,,,,,,,,,,,,,,,,
,,,,,,,,,667f1755b464b48413d1f6ea,,13 or older,"no, only English or Spanish",no,2025-08-12_15h51.07.220,empathy_intonation_perc_control,2024.2.4,Win32,60.0240096,667f1755b464b48413d1f6ea,68817205a84113384fffdfe3,689b9b07787abb9fee8d2d7c,,,,,,,,,,,,./stim/wavs/cuban_match_interrogative-total-yn_Maria-bebe-el-vino.wav,1,,,112.633,116.162,0,0,3,,0,10,10,9,1,10,1,cuban,,,,,,,,,,,,,,,,,,,,,,,,,,,,,,,,,,,,,,,,,,,,,,,,,,,,,,,,
,,,,,,,,,667f1755b464b48413d1f6ea,,13 or older,"no, only English or Spanish",no,2025-08-12_15h51.07.220,empathy_intonation_perc_control,2024.2.4,Win32,60.0240096,667f1755b464b48413d1f6ea,68817205a84113384fffdfe3,689b9b07787abb9fee8d2d7c,,,,,,,,,,,,./stim/wavs/castilian_mismatch_interrogative-total-yn_Mi-madre-come-la-fruta.wav,1,,,116.165,119.543,1,1,2.85,,0,11,11,26,1,27,0,castilian,,,,,,,,,,,,,,,,,,,,,,,,,,,,,,,,,,,,,,,,,,,,,,,,,,,,,,,,
,,,,,,,,,667f1755b464b48413d1f6ea,,13 or older,"no, only English or Spanish",no,2025-08-12_15h51.07.220,empathy_intonation_perc_control,2024.2.4,Win32,60.0240096,667f1755b464b48413d1f6ea,68817205a84113384fffdfe3,689b9b07787abb9fee8d2d7c,,,,,,,,,,,,./stim/wavs/mexican_mismatch_declarative-broad-focus_El-bebe-comia-muy-bien.wav,0,,,119.545,121.593,0,1,1.518,,0,12,12,78,1,79,0,mexican,,,,,,,,,,,,,,,,,,,,,,,,,,,,,,,,,,,,,,,,,,,,,,,,,,,,,,,,
,,,,,,,,,667f1755b464b48413d1f6ea,,13 or older,"no, only English or Spanish",no,2025-08-12_15h51.07.220,empathy_intonation_perc_control,2024.2.4,Win32,60.0240096,667f1755b464b48413d1f6ea,68817205a84113384fffdfe3,689b9b07787abb9fee8d2d7c,,,,,,,,,,,,./stim/wavs/cuban_match_declarative-broad-focus_Ana-lleva-el-abrigo.wav,0,,,121.595,124.192,1,0,2.068,,0,13,13,50,1,51,0,cuban,,,,,,,,,,,,,,,,,,,,,,,,,,,,,,,,,,,,,,,,,,,,,,,,,,,,,,,,
,,,,,,,,,667f1755b464b48413d1f6ea,,13 or older,"no, only English or Spanish",no,2025-08-12_15h51.07.220,empathy_intonation_perc_control,2024.2.4,Win32,60.0240096,667f1755b464b48413d1f6ea,68817205a84113384fffdfe3,689b9b07787abb9fee8d2d7c,,,,,,,,,,,,./stim/wavs/cuban_mismatch_declarative-broad-focus_La-nina-lava-el-plato.wav,0,,,124.193,126.807,0,1,2.084,,0,14,14,75,1,76,0,cuban,,,,,,,,,,,,,,,,,,,,,,,,,,,,,,,,,,,,,,,,,,,,,,,,,,,,,,,,
,,,,,,,,,667f1755b464b48413d1f6ea,,13 or older,"no, only English or Spanish",no,2025-08-12_15h51.07.220,empathy_intonation_perc_control,2024.2.4,Win32,60.0240096,667f1755b464b48413d1f6ea,68817205a84113384fffdfe3,689b9b07787abb9fee8d2d7c,,,,,,,,,,,,./stim/wavs/mexican_match_interrogative-total-yn_Emilio-ama-la-marcha.wav,1,,,126.808,133.172,0,0,5.834,,0,15,15,15,1,16,0,mexican,,,,,,,,,,,,,,,,,,,,,,,,,,,,,,,,,,,,,,,,,,,,,,,,,,,,,,,,
,,,,,,,,,667f1755b464b48413d1f6ea,,13 or older,"no, only English or Spanish",no,2025-08-12_15h51.07.220,empathy_intonation_perc_control,2024.2.4,Win32,60.0240096,667f1755b464b48413d1f6ea,68817205a84113384fffdfe3,689b9b07787abb9fee8d2d7c,,,,,,,,,,,,./stim/wavs/puertorican_match_interrogative-total-yn_Maria-bebe-el-vino.wav,1,,,133.176,137.734,1,1,4.034,,0,16,16,23,1,24,1,puertorican,,,,,,,,,,,,,,,,,,,,,,,,,,,,,,,,,,,,,,,,,,,,,,,,,,,,,,,,
,,,,,,,,,667f1755b464b48413d1f6ea,,13 or older,"no, only English or Spanish",no,2025-08-12_15h51.07.220,empathy_intonation_perc_control,2024.2.4,Win32,60.0240096,667f1755b464b48413d1f6ea,68817205a84113384fffdfe3,689b9b07787abb9fee8d2d7c,,,,,,,,,,,,./stim/wavs/cuban_match_declarative-broad-focus_Marta-abre-el-regalo.wav,0,,,137.737,142.732,1,0,4.466,,0,17,17,55,1,56,0,cuban,,,,,,,,,,,,,,,,,,,,,,,,,,,,,,,,,,,,,,,,,,,,,,,,,,,,,,,,
,,,,,,,,,667f1755b464b48413d1f6ea,,13 or older,"no, only English or Spanish",no,2025-08-12_15h51.07.220,empathy_intonation_perc_control,2024.2.4,Win32,60.0240096,667f1755b464b48413d1f6ea,68817205a84113384fffdfe3,689b9b07787abb9fee8d2d7c,,,,,,,,,,,,./stim/wavs/castilian_mismatch_declarative-broad-focus_La-nina-lava-el-plato.wav,0,,,142.736,152.111,0,1,8.85,,0,18,18,70,1,71,0,castilian,,,,,,,,,,,,,,,,,,,,,,,,,,,,,,,,,,,,,,,,,,,,,,,,,,,,,,,,
,,,,,,,,,667f1755b464b48413d1f6ea,,13 or older,"no, only English or Spanish",no,2025-08-12_15h51.07.220,empathy_intonation_perc_control,2024.2.4,Win32,60.0240096,667f1755b464b48413d1f6ea,68817205a84113384fffdfe3,689b9b07787abb9fee8d2d7c,,,,,,,,,,,,./stim/wavs/castilian_match_declarative-broad-focus_Marta-abre-el-regalo.wav,0,,,152.114,156.492,0,1,3.848,,0,19,19,49,1,50,0,castilian,,,,,,,,,,,,,,,,,,,,,,,,,,,,,,,,,,,,,,,,,,,,,,,,,,,,,,,,
,,,,,,,,,667f1755b464b48413d1f6ea,,13 or older,"no, only English or Spanish",no,2025-08-12_15h51.07.220,empathy_intonation_perc_control,2024.2.4,Win32,60.0240096,667f1755b464b48413d1f6ea,68817205a84113384fffdfe3,689b9b07787abb9fee8d2d7c,,,,,,,,,,,,./stim/wavs/cuban_mismatch_declarative-broad-focus_Mi-novio-viene-del-lago.wav,0,,,156.494,161.325,0,1,4.299,,0,20,20,76,1,77,0,cuban,,,,,,,,,,,,,,,,,,,,,,,,,,,,,,,,,,,,,,,,,,,,,,,,,,,,,,,,
,,,,,,,,,667f1755b464b48413d1f6ea,,13 or older,"no, only English or Spanish",no,2025-08-12_15h51.07.220,empathy_intonation_perc_control,2024.2.4,Win32,60.0240096,667f1755b464b48413d1f6ea,68817205a84113384fffdfe3,689b9b07787abb9fee8d2d7c,,,,,,,,,,,,./stim/wavs/mexican_mismatch_declarative-broad-focus_La-maestra-vive-en-Paris.wav,0,,,161.328,166.254,0,1,4.399,,0,21,21,80,1,81,0,mexican,,,,,,,,,,,,,,,,,,,,,,,,,,,,,,,,,,,,,,,,,,,,,,,,,,,,,,,,
,,,,,,,,,667f1755b464b48413d1f6ea,,13 or older,"no, only English or Spanish",no,2025-08-12_15h51.07.220,empathy_intonation_perc_control,2024.2.4,Win32,60.0240096,667f1755b464b48413d1f6ea,68817205a84113384fffdfe3,689b9b07787abb9fee8d2d7c,,,,,,,,,,,,./stim/wavs/mexican_mismatch_interrogative-total-yn_El-hombre-mira-la-luna.wav,1,,,166.257,170.5,1,1,3.716,,0,22,22,34,1,35,0,mexican,,,,,,,,,,,,,,,,,,,,,,,,,,,,,,,,,,,,,,,,,,,,,,,,,,,,,,,,
,,,,,,,,,667f1755b464b48413d1f6ea,,13 or older,"no, only English or Spanish",no,2025-08-12_15h51.07.220,empathy_intonation_perc_control,2024.2.4,Win32,60.0240096,667f1755b464b48413d1f6ea,68817205a84113384fffdfe3,689b9b07787abb9fee8d2d7c,,,,,,,,,,,,./stim/wavs/mexican_mismatch_interrogative-total-yn_Mi-tia-odia-la-lluvia.wav,1,,,170.504,177.197,1,1,6.164,,0,23,23,38,1,39,0,mexican,,,,,,,,,,,,,,,,,,,,,,,,,,,,,,,,,,,,,,,,,,,,,,,,,,,,,,,,
,,,,,,,,,667f1755b464b48413d1f6ea,,13 or older,"no, only English or Spanish",no,2025-08-12_15h51.07.220,empathy_intonation_perc_control,2024.2.4,Win32,60.0240096,667f1755b464b48413d1f6ea,68817205a84113384fffdfe3,689b9b07787abb9fee8d2d7c,,,,,,,,,,,,./stim/wavs/puertorican_match_interrogative-total-yn_Daniel-iba-a-Bolivia.wav,1,,,177.2,180.046,1,1,2.317,,0,24,24,19,1,20,1,puertorican,,,,,,,,,,,,,,,,,,,,,,,,,,,,,,,,,,,,,,,,,,,,,,,,,,,,,,,,
,,,,,,,,,667f1755b464b48413d1f6ea,,13 or older,"no, only English or Spanish",no,2025-08-12_15h51.07.220,empathy_intonation_perc_control,2024.2.4,Win32,60.0240096,667f1755b464b48413d1f6ea,68817205a84113384fffdfe3,689b9b07787abb9fee8d2d7c,,,,,,,,,,,,./stim/wavs/mexican_match_interrogative-total-yn_Daniel-iba-a-Bolivia.wav,1,,,180.047,182.994,1,1,2.417,,0,25,25,13,1,14,0,mexican,,,,,,,,,,,,,,,,,,,,,,,,,,,,,,,,,,,,,,,,,,,,,,,,,,,,,,,,
,,,,,,,,,667f1755b464b48413d1f6ea,,13 or older,"no, only English or Spanish",no,2025-08-12_15h51.07.220,empathy_intonation_perc_control,2024.2.4,Win32,60.0240096,667f1755b464b48413d1f6ea,68817205a84113384fffdfe3,689b9b07787abb9fee8d2d7c,,,,,,,,,,,,./stim/wavs/castilian_match_interrogative-total-yn_David-leia-el-libro.wav,1,,,182.996,185.559,1,1,2.034,,0,26,26,0,1,1,0,castilian,,,,,,,,,,,,,,,,,,,,,,,,,,,,,,,,,,,,,,,,,,,,,,,,,,,,,,,,
,,,,,,,,,667f1755b464b48413d1f6ea,,13 or older,"no, only English or Spanish",no,2025-08-12_15h51.07.220,empathy_intonation_perc_control,2024.2.4,Win32,60.0240096,667f1755b464b48413d1f6ea,68817205a84113384fffdfe3,689b9b07787abb9fee8d2d7c,,,,,,,,,,,,./stim/wavs/puertorican_match_interrogative-total-yn_Manuela-vende-el-carro.wav,1,,,185.561,188.641,0,0,2.549,,0,27,27,22,1,23,1,puertorican,,,,,,,,,,,,,,,,,,,,,,,,,,,,,,,,,,,,,,,,,,,,,,,,,,,,,,,,
,,,,,,,,,667f1755b464b48413d1f6ea,,13 or older,"no, only English or Spanish",no,2025-08-12_15h51.07.220,empathy_intonation_perc_control,2024.2.4,Win32,60.0240096,667f1755b464b48413d1f6ea,68817205a84113384fffdfe3,689b9b07787abb9fee8d2d7c,,,,,,,,,,,,./stim/wavs/cuban_match_interrogative-total-yn_Ana-lleva-el-abrigo.wav,1,,,188.643,191.523,0,0,2.35,,0,28,28,6,1,7,1,cuban,,,,,,,,,,,,,,,,,,,,,,,,,,,,,,,,,,,,,,,,,,,,,,,,,,,,,,,,
,,,,,,,,,667f1755b464b48413d1f6ea,,13 or older,"no, only English or Spanish",no,2025-08-12_15h51.07.220,empathy_intonation_perc_control,2024.2.4,Win32,60.0240096,667f1755b464b48413d1f6ea,68817205a84113384fffdfe3,689b9b07787abb9fee8d2d7c,,,,,,,,,,,,./stim/wavs/castilian_mismatch_declarative-broad-focus_La-maestra-vive-en-Paris.wav,0,,,191.525,194.074,0,1,2.035,,0,29,29,69,1,70,0,castilian,,,,,,,,,,,,,,,,,,,,,,,,,,,,,,,,,,,,,,,,,,,,,,,,,,,,,,,,
,,,,,,,,,667f1755b464b48413d1f6ea,,13 or older,"no, only English or Spanish",no,2025-08-12_15h51.07.220,empathy_intonation_perc_control,2024.2.4,Win32,60.0240096,667f1755b464b48413d1f6ea,68817205a84113384fffdfe3,689b9b07787abb9fee8d2d7c,,,,,,,,,,,,./stim/wavs/cuban_match_interrogative-total-yn_Manuela-vende-el-carro.wav,1,,,194.077,196.571,0,0,1.968,,0,30,30,8,1,9,1,cuban,,,,,,,,,,,,,,,,,,,,,,,,,,,,,,,,,,,,,,,,,,,,,,,,,,,,,,,,
,,,,,,,,,667f1755b464b48413d1f6ea,,13 or older,"no, only English or Spanish",no,2025-08-12_15h51.07.220,empathy_intonation_perc_control,2024.2.4,Win32,60.0240096,667f1755b464b48413d1f6ea,68817205a84113384fffdfe3,689b9b07787abb9fee8d2d7c,,,,,,,,,,,,./stim/wavs/puertorican_mismatch_interrogative-total-yn_El-hombre-mira-la-luna.wav,1,,,196.573,198.769,1,1,1.668,,0,31,31,39,1,40,1,puertorican,,,,,,,,,,,,,,,,,,,,,,,,,,,,,,,,,,,,,,,,,,,,,,,,,,,,,,,,
,,,,,,,,,667f1755b464b48413d1f6ea,,13 or older,"no, only English or Spanish",no,2025-08-12_15h51.07.220,empathy_intonation_perc_control,2024.2.4,Win32,60.0240096,667f1755b464b48413d1f6ea,68817205a84113384fffdfe3,689b9b07787abb9fee8d2d7c,,,,,,,,,,,,./stim/wavs/puertorican_match_declarative-broad-focus_David-leia-el-libro.wav,0,,,198.772,201.117,0,1,1.819,,0,32,32,64,1,65,0,puertorican,,,,,,,,,,,,,,,,,,,,,,,,,,,,,,,,,,,,,,,,,,,,,,,,,,,,,,,,
,,,,,,,,,667f1755b464b48413d1f6ea,,13 or older,"no, only English or Spanish",no,2025-08-12_15h51.07.220,empathy_intonation_perc_control,2024.2.4,Win32,60.0240096,667f1755b464b48413d1f6ea,68817205a84113384fffdfe3,689b9b07787abb9fee8d2d7c,,,,,,,,,,,,./stim/wavs/cuban_mismatch_interrogative-total-yn_Mi-madre-come-la-fruta.wav,1,,,201.12,203.183,1,1,1.534,,0,33,33,31,1,32,1,cuban,,,,,,,,,,,,,,,,,,,,,,,,,,,,,,,,,,,,,,,,,,,,,,,,,,,,,,,,
,,,,,,,,,667f1755b464b48413d1f6ea,,13 or older,"no, only English or Spanish",no,2025-08-12_15h51.07.220,empathy_intonation_perc_control,2024.2.4,Win32,60.0240096,667f1755b464b48413d1f6ea,68817205a84113384fffdfe3,689b9b07787abb9fee8d2d7c,,,,,,,,,,,,./stim/wavs/cuban_mismatch_declarative-broad-focus_El-hombre-mira-la-luna.wav,0,,,203.186,205.499,0,1,1.787,,0,34,34,74,1,75,0,cuban,,,,,,,,,,,,,,,,,,,,,,,,,,,,,,,,,,,,,,,,,,,,,,,,,,,,,,,,
,,,,,,,,,667f1755b464b48413d1f6ea,,13 or older,"no, only English or Spanish",no,2025-08-12_15h51.07.220,empathy_intonation_perc_control,2024.2.4,Win32,60.0240096,667f1755b464b48413d1f6ea,68817205a84113384fffdfe3,689b9b07787abb9fee8d2d7c,,,,,,,,,,,,./stim/wavs/puertorican_mismatch_declarative-broad-focus_El-nino-oye-el-rio.wav,0,,,205.501,207.681,1,0,1.651,,0,35,35,85,1,86,0,puertorican,,,,,,,,,,,,,,,,,,,,,,,,,,,,,,,,,,,,,,,,,,,,,,,,,,,,,,,,
,,,,,,,,,667f1755b464b48413d1f6ea,,13 or older,"no, only English or Spanish",no,2025-08-12_15h51.07.220,empathy_intonation_perc_control,2024.2.4,Win32,60.0240096,667f1755b464b48413d1f6ea,68817205a84113384fffdfe3,689b9b07787abb9fee8d2d7c,,,,,,,,,,,,./stim/wavs/mexican_mismatch_declarative-broad-focus_Mi-tia-odia-la-lluvia.wav,0,,,207.682,209.78,1,0,1.567,,0,36,36,82,1,83,0,mexican,,,,,,,,,,,,,,,,,,,,,,,,,,,,,,,,,,,,,,,,,,,,,,,,,,,,,,,,
,,,,,,,,,667f1755b464b48413d1f6ea,,13 or older,"no, only English or Spanish",no,2025-08-12_15h51.07.220,empathy_intonation_perc_control,2024.2.4,Win32,60.0240096,667f1755b464b48413d1f6ea,68817205a84113384fffdfe3,689b9b07787abb9fee8d2d7c,,,,,,,,,,,,./stim/wavs/puertorican_mismatch_declarative-broad-focus_La-nina-lava-el-plato.wav,0,,,209.782,213.578,1,0,3.267,,0,37,37,87,1,88,0,puertorican,,,,,,,,,,,,,,,,,,,,,,,,,,,,,,,,,,,,,,,,,,,,,,,,,,,,,,,,
,,,,,,,,,667f1755b464b48413d1f6ea,,13 or older,"no, only English or Spanish",no,2025-08-12_15h51.07.220,empathy_intonation_perc_control,2024.2.4,Win32,60.0240096,667f1755b464b48413d1f6ea,68817205a84113384fffdfe3,689b9b07787abb9fee8d2d7c,,,,,,,,,,,,./stim/wavs/mexican_match_interrogative-total-yn_Mariano-habla-del-tiempo.wav,1,,,213.579,216.294,1,1,2.183,,0,38,38,16,1,17,0,mexican,,,,,,,,,,,,,,,,,,,,,,,,,,,,,,,,,,,,,,,,,,,,,,,,,,,,,,,,
,,,,,,,,,667f1755b464b48413d1f6ea,,13 or older,"no, only English or Spanish",no,2025-08-12_15h51.07.220,empathy_intonation_perc_control,2024.2.4,Win32,60.0240096,667f1755b464b48413d1f6ea,68817205a84113384fffdfe3,689b9b07787abb9fee8d2d7c,,,,,,,,,,,,./stim/wavs/mexican_match_interrogative-total-yn_Marta-abre-el-regalo.wav,1,,,216.295,218.726,1,1,1.902,,0,39,39,17,1,18,0,mexican,,,,,,,,,,,,,,,,,,,,,,,,,,,,,,,,,,,,,,,,,,,,,,,,,,,,,,,,
,,,,,,,,,667f1755b464b48413d1f6ea,,13 or older,"no, only English or Spanish",no,2025-08-12_15h51.07.220,empathy_intonation_perc_control,2024.2.4,Win32,60.0240096,667f1755b464b48413d1f6ea,68817205a84113384fffdfe3,689b9b07787abb9fee8d2d7c,,,,,,,,,,,,./stim/wavs/cuban_match_declarative-broad-focus_Manuela-vende-el-carro.wav,0,,,218.727,221.824,0,1,2.569,,0,40,40,52,1,53,0,cuban,,,,,,,,,,,,,,,,,,,,,,,,,,,,,,,,,,,,,,,,,,,,,,,,,,,,,,,,
,,,,,,,,,667f1755b464b48413d1f6ea,,13 or older,"no, only English or Spanish",no,2025-08-12_15h51.07.220,empathy_intonation_perc_control,2024.2.4,Win32,60.0240096,667f1755b464b48413d1f6ea,68817205a84113384fffdfe3,689b9b07787abb9fee8d2d7c,,,,,,,,,,,,./stim/wavs/castilian_mismatch_interrogative-total-yn_Mi-novio-viene-del-lago.wav,1,,,221.826,224.473,1,1,2.119,,0,41,41,27,1,28,0,castilian,,,,,,,,,,,,,,,,,,,,,,,,,,,,,,,,,,,,,,,,,,,,,,,,,,,,,,,,
,,,,,,,,,667f1755b464b48413d1f6ea,,13 or older,"no, only English or Spanish",no,2025-08-12_15h51.07.220,empathy_intonation_perc_control,2024.2.4,Win32,60.0240096,667f1755b464b48413d1f6ea,68817205a84113384fffdfe3,689b9b07787abb9fee8d2d7c,,,,,,,,,,,,./stim/wavs/castilian_match_declarative-broad-focus_Maria-bebe-el-vino.wav,0,,,224.475,227.271,0,1,2.266,,0,42,42,47,1,48,0,castilian,,,,,,,,,,,,,,,,,,,,,,,,,,,,,,,,,,,,,,,,,,,,,,,,,,,,,,,,
,,,,,,,,,667f1755b464b48413d1f6ea,,13 or older,"no, only English or Spanish",no,2025-08-12_15h51.07.220,empathy_intonation_perc_control,2024.2.4,Win32,60.0240096,667f1755b464b48413d1f6ea,68817205a84113384fffdfe3,689b9b07787abb9fee8d2d7c,,,,,,,,,,,,./stim/wavs/castilian_mismatch_interrogative-total-yn_La-maestra-vive-en-Paris.wav,1,,,227.272,231.105,1,1,3.3,,0,43,43,24,1,25,0,castilian,,,,,,,,,,,,,,,,,,,,,,,,,,,,,,,,,,,,,,,,,,,,,,,,,,,,,,,,
,,,,,,,,,667f1755b464b48413d1f6ea,,13 or older,"no, only English or Spanish",no,2025-08-12_15h51.07.220,empathy_intonation_perc_control,2024.2.4,Win32,60.0240096,667f1755b464b48413d1f6ea,68817205a84113384fffdfe3,689b9b07787abb9fee8d2d7c,,,,,,,,,,,,./stim/wavs/mexican_mismatch_interrogative-total-yn_Mi-novio-viene-del-lago.wav,1,,,231.108,233.603,1,1,1.968,,0,44,44,37,1,38,0,mexican,,,,,,,,,,,,,,,,,,,,,,,,,,,,,,,,,,,,,,,,,,,,,,,,,,,,,,,,
,,,,,,,,,667f1755b464b48413d1f6ea,,13 or older,"no, only English or Spanish",no,2025-08-12_15h51.07.220,empathy_intonation_perc_control,2024.2.4,Win32,60.0240096,667f1755b464b48413d1f6ea,68817205a84113384fffdfe3,689b9b07787abb9fee8d2d7c,,,,,,,,,,,,./stim/wavs/puertorican_mismatch_declarative-broad-focus_El-bebe-comia-muy-bien.wav,0,,,233.606,235.785,0,1,1.653,,0,45,45,83,1,84,0,puertorican,,,,,,,,,,,,,,,,,,,,,,,,,,,,,,,,,,,,,,,,,,,,,,,,,,,,,,,,
,,,,,,,,,667f1755b464b48413d1f6ea,,13 or older,"no, only English or Spanish",no,2025-08-12_15h51.07.220,empathy_intonation_perc_control,2024.2.4,Win32,60.0240096,667f1755b464b48413d1f6ea,68817205a84113384fffdfe3,689b9b07787abb9fee8d2d7c,,,,,,,,,,,,./stim/wavs/puertorican_mismatch_interrogative-total-yn_La-maestra-vive-en-Paris.wav,1,,,235.788,238.331,0,0,2.017,,0,46,46,41,1,42,1,puertorican,,,,,,,,,,,,,,,,,,,,,,,,,,,,,,,,,,,,,,,,,,,,,,,,,,,,,,,,
,,,,,,,,,667f1755b464b48413d1f6ea,,13 or older,"no, only English or Spanish",no,2025-08-12_15h51.07.220,empathy_intonation_perc_control,2024.2.4,Win32,60.0240096,667f1755b464b48413d1f6ea,68817205a84113384fffdfe3,689b9b07787abb9fee8d2d7c,,,,,,,,,,,,./stim/wavs/cuban_match_interrogative-total-yn_Mariano-habla-del-tiempo.wav,1,,,238.336,240.481,0,0,1.616,,0,47,47,10,1,11,1,cuban,,,,,,,,,,,,,,,,,,,,,,,,,,,,,,,,,,,,,,,,,,,,,,,,,,,,,,,,
,,,,,,,,,667f1755b464b48413d1f6ea,,13 or older,"no, only English or Spanish",no,2025-08-12_15h51.07.220,empathy_intonation_perc_control,2024.2.4,Win32,60.0240096,667f1755b464b48413d1f6ea,68817205a84113384fffdfe3,689b9b07787abb9fee8d2d7c,,,,,,,,,,,,./stim/wavs/puertorican_match_declarative-broad-focus_Maria-bebe-el-vino.wav,0,,,240.483,242.73,0,1,1.719,,0,48,48,67,1,68,0,puertorican,,,,,,,,,,,,,,,,,,,,,,,,,,,,,,,,,,,,,,,,,,,,,,,,,,,,,,,,
,,,,,,,,,667f1755b464b48413d1f6ea,,13 or older,"no, only English or Spanish",no,2025-08-12_15h51.07.220,empathy_intonation_perc_control,2024.2.4,Win32,60.0240096,667f1755b464b48413d1f6ea,68817205a84113384fffdfe3,689b9b07787abb9fee8d2d7c,,,,,,,,,,,,./stim/wavs/castilian_match_declarative-broad-focus_Emilio-ama-la-marcha.wav,0,,,242.731,245.295,0,1,2.033,,0,49,49,45,1,46,0,castilian,,,,,,,,,,,,,,,,,,,,,,,,,,,,,,,,,,,,,,,,,,,,,,,,,,,,,,,,
,,,,,,,,,667f1755b464b48413d1f6ea,,13 or older,"no, only English or Spanish",no,2025-08-12_15h51.07.220,empathy_intonation_perc_control,2024.2.4,Win32,60.0240096,667f1755b464b48413d1f6ea,68817205a84113384fffdfe3,689b9b07787abb9fee8d2d7c,,,,,,,,,,,,./stim/wavs/castilian_mismatch_declarative-broad-focus_Mi-novio-viene-del-lago.wav,0,,,245.295,247.577,1,0,1.752,,0,50,50,71,1,72,0,castilian,,,,,,,,,,,,,,,,,,,,,,,,,,,,,,,,,,,,,,,,,,,,,,,,,,,,,,,,
,,,,,,,,,667f1755b464b48413d1f6ea,,13 or older,"no, only English or Spanish",no,2025-08-12_15h51.07.220,empathy_intonation_perc_control,2024.2.4,Win32,60.0240096,667f1755b464b48413d1f6ea,68817205a84113384fffdfe3,689b9b07787abb9fee8d2d7c,,,,,,,,,,,,./stim/wavs/mexican_match_declarative-broad-focus_Ana-lleva-el-abrigo.wav,0,,,247.579,249.893,0,1,1.783,,0,51,51,56,1,57,0,mexican,,,,,,,,,,,,,,,,,,,,,,,,,,,,,,,,,,,,,,,,,,,,,,,,,,,,,,,,
,,,,,,,,,667f1755b464b48413d1f6ea,,13 or older,"no, only English or Spanish",no,2025-08-12_15h51.07.220,empathy_intonation_perc_control,2024.2.4,Win32,60.0240096,667f1755b464b48413d1f6ea,68817205a84113384fffdfe3,689b9b07787abb9fee8d2d7c,,,,,,,,,,,,./stim/wavs/puertorican_mismatch_declarative-broad-focus_La-maestra-vive-en-Paris.wav,0,,,249.895,252.241,0,1,1.818,,0,52,52,86,1,87,0,puertorican,,,,,,,,,,,,,,,,,,,,,,,,,,,,,,,,,,,,,,,,,,,,,,,,,,,,,,,,
,,,,,,,,,667f1755b464b48413d1f6ea,,13 or older,"no, only English or Spanish",no,2025-08-12_15h51.07.220,empathy_intonation_perc_control,2024.2.4,Win32,60.0240096,667f1755b464b48413d1f6ea,68817205a84113384fffdfe3,689b9b07787abb9fee8d2d7c,,,,,,,,,,,,./stim/wavs/cuban_mismatch_declarative-broad-focus_El-bebe-comia-muy-bien.wav,0,,,252.243,254.19,0,1,1.418,,0,53,53,73,1,74,0,cuban,,,,,,,,,,,,,,,,,,,,,,,,,,,,,,,,,,,,,,,,,,,,,,,,,,,,,,,,
,,,,,,,,,667f1755b464b48413d1f6ea,,13 or older,"no, only English or Spanish",no,2025-08-12_15h51.07.220,empathy_intonation_perc_control,2024.2.4,Win32,60.0240096,667f1755b464b48413d1f6ea,68817205a84113384fffdfe3,689b9b07787abb9fee8d2d7c,,,,,,,,,,,,./stim/wavs/mexican_match_declarative-broad-focus_Mariano-habla-del-tiempo.wav,0,,,254.192,256.572,0,1,1.85,,0,54,54,60,1,61,0,mexican,,,,,,,,,,,,,,,,,,,,,,,,,,,,,,,,,,,,,,,,,,,,,,,,,,,,,,,,
,,,,,,,,,667f1755b464b48413d1f6ea,,13 or older,"no, only English or Spanish",no,2025-08-12_15h51.07.220,empathy_intonation_perc_control,2024.2.4,Win32,60.0240096,667f1755b464b48413d1f6ea,68817205a84113384fffdfe3,689b9b07787abb9fee8d2d7c,,,,,,,,,,,,./stim/wavs/castilian_match_interrogative-total-yn_Marta-abre-el-regalo.wav,1,,,256.574,259.004,1,1,1.899,,0,55,55,5,1,6,0,castilian,,,,,,,,,,,,,,,,,,,,,,,,,,,,,,,,,,,,,,,,,,,,,,,,,,,,,,,,
,,,,,,,,,667f1755b464b48413d1f6ea,,13 or older,"no, only English or Spanish",no,2025-08-12_15h51.07.220,empathy_intonation_perc_control,2024.2.4,Win32,60.0240096,667f1755b464b48413d1f6ea,68817205a84113384fffdfe3,689b9b07787abb9fee8d2d7c,,,,,,,,,,,,./stim/wavs/castilian_mismatch_declarative-broad-focus_Mi-tia-odia-la-lluvia.wav,0,,,259.005,261.354,0,1,1.817,,0,56,56,72,1,73,0,castilian,,,,,,,,,,,,,,,,,,,,,,,,,,,,,,,,,,,,,,,,,,,,,,,,,,,,,,,,
,,,,,,,,,667f1755b464b48413d1f6ea,,13 or older,"no, only English or Spanish",no,2025-08-12_15h51.07.220,empathy_intonation_perc_control,2024.2.4,Win32,60.0240096,667f1755b464b48413d1f6ea,68817205a84113384fffdfe3,689b9b07787abb9fee8d2d7c,,,,,,,,,,,,./stim/wavs/cuban_match_declarative-broad-focus_Daniel-iba-a-Bolivia.wav,0,,,261.355,264.255,1,0,2.366,,0,57,57,51,1,52,0,cuban,,,,,,,,,,,,,,,,,,,,,,,,,,,,,,,,,,,,,,,,,,,,,,,,,,,,,,,,
,,,,,,,,,667f1755b464b48413d1f6ea,,13 or older,"no, only English or Spanish",no,2025-08-12_15h51.07.220,empathy_intonation_perc_control,2024.2.4,Win32,60.0240096,667f1755b464b48413d1f6ea,68817205a84113384fffdfe3,689b9b07787abb9fee8d2d7c,,,,,,,,,,,,./stim/wavs/puertorican_mismatch_interrogative-total-yn_El-nino-oye-el-rio.wav,1,,,264.256,266.204,1,1,1.416,,0,58,58,40,1,41,1,puertorican,,,,,,,,,,,,,,,,,,,,,,,,,,,,,,,,,,,,,,,,,,,,,,,,,,,,,,,,
,,,,,,,,,667f1755b464b48413d1f6ea,,13 or older,"no, only English or Spanish",no,2025-08-12_15h51.07.220,empathy_intonation_perc_control,2024.2.4,Win32,60.0240096,667f1755b464b48413d1f6ea,68817205a84113384fffdfe3,689b9b07787abb9fee8d2d7c,,,,,,,,,,,,./stim/wavs/puertorican_match_declarative-broad-focus_Emilio-ama-la-marcha.wav,0,,,266.207,268.699,0,1,1.966,,0,59,59,65,1,66,0,puertorican,,,,,,,,,,,,,,,,,,,,,,,,,,,,,,,,,,,,,,,,,,,,,,,,,,,,,,,,
,,,,,,,,,667f1755b464b48413d1f6ea,,13 or older,"no, only English or Spanish",no,2025-08-12_15h51.07.220,empathy_intonation_perc_control,2024.2.4,Win32,60.0240096,667f1755b464b48413d1f6ea,68817205a84113384fffdfe3,689b9b07787abb9fee8d2d7c,,,,,,,,,,,,./stim/wavs/mexican_mismatch_declarative-broad-focus_Mi-novio-viene-del-lago.wav,0,,,268.701,270.915,0,1,1.683,,0,60,60,81,1,82,0,mexican,,,,,,,,,,,,,,,,,,,,,,,,,,,,,,,,,,,,,,,,,,,,,,,,,,,,,,,,
,,,,,,,,,667f1755b464b48413d1f6ea,,13 or older,"no, only English or Spanish",no,2025-08-12_15h51.07.220,empathy_intonation_perc_control,2024.2.4,Win32,60.0240096,667f1755b464b48413d1f6ea,68817205a84113384fffdfe3,689b9b07787abb9fee8d2d7c,,,,,,,,,,,,./stim/wavs/castilian_mismatch_interrogative-total-yn_Mi-tia-odia-la-lluvia.wav,1,,,270.917,273.63,1,1,2.184,,0,61,61,28,1,29,0,castilian,,,,,,,,,,,,,,,,,,,,,,,,,,,,,,,,,,,,,,,,,,,,,,,,,,,,,,,,
,,,,,,,,,667f1755b464b48413d1f6ea,,13 or older,"no, only English or Spanish",no,2025-08-12_15h51.07.220,empathy_intonation_perc_control,2024.2.4,Win32,60.0240096,667f1755b464b48413d1f6ea,68817205a84113384fffdfe3,689b9b07787abb9fee8d2d7c,,,,,,,,,,,,./stim/wavs/castilian_match_interrogative-total-yn_Mariano-habla-del-tiempo.wav,1,,,273.632,276.779,1,1,2.618,,0,62,62,4,1,5,0,castilian,,,,,,,,,,,,,,,,,,,,,,,,,,,,,,,,,,,,,,,,,,,,,,,,,,,,,,,,
,,,,,,,,,667f1755b464b48413d1f6ea,,13 or older,"no, only English or Spanish",no,2025-08-12_15h51.07.220,empathy_intonation_perc_control,2024.2.4,Win32,60.0240096,667f1755b464b48413d1f6ea,68817205a84113384fffdfe3,689b9b07787abb9fee8d2d7c,,,,,,,,,,,,./stim/wavs/mexican_mismatch_interrogative-total-yn_El-nino-oye-el-rio.wav,1,,,276.781,278.827,1,1,1.518,,0,63,63,35,1,36,0,mexican,,,,,,,,,,,,,,,,,,,,,,,,,,,,,,,,,,,,,,,,,,,,,,,,,,,,,,,,
,,,,,,,,,667f1755b464b48413d1f6ea,,13 or older,"no, only English or Spanish",no,2025-08-12_15h51.07.220,empathy_intonation_perc_control,2024.2.4,Win32,60.0240096,667f1755b464b48413d1f6ea,68817205a84113384fffdfe3,689b9b07787abb9fee8d2d7c,,,,,,,,,,,,./stim/wavs/castilian_match_interrogative-total-yn_Maria-bebe-el-vino.wav,1,,,278.828,281.226,1,1,1.869,,0,64,64,3,1,4,0,castilian,,,,,,,,,,,,,,,,,,,,,,,,,,,,,,,,,,,,,,,,,,,,,,,,,,,,,,,,
,,,,,,,,,667f1755b464b48413d1f6ea,,13 or older,"no, only English or Spanish",no,2025-08-12_15h51.07.220,empathy_intonation_perc_control,2024.2.4,Win32,60.0240096,667f1755b464b48413d1f6ea,68817205a84113384fffdfe3,689b9b07787abb9fee8d2d7c,,,,,,,,,,,,./stim/wavs/castilian_match_declarative-broad-focus_Manuela-vende-el-carro.wav,0,,,281.227,283.891,0,1,2.15,,0,65,65,46,1,47,0,castilian,,,,,,,,,,,,,,,,,,,,,,,,,,,,,,,,,,,,,,,,,,,,,,,,,,,,,,,,
,,,,,,,,,667f1755b464b48413d1f6ea,,13 or older,"no, only English or Spanish",no,2025-08-12_15h51.07.220,empathy_intonation_perc_control,2024.2.4,Win32,60.0240096,667f1755b464b48413d1f6ea,68817205a84113384fffdfe3,689b9b07787abb9fee8d2d7c,,,,,,,,,,,,./stim/wavs/puertorican_match_interrogative-total-yn_Emilio-ama-la-marcha.wav,1,,,283.893,286.64,0,0,2.216,,0,66,66,21,1,22,1,puertorican,,,,,,,,,,,,,,,,,,,,,,,,,,,,,,,,,,,,,,,,,,,,,,,,,,,,,,,,
,,,,,,,,,667f1755b464b48413d1f6ea,,13 or older,"no, only English or Spanish",no,2025-08-12_15h51.07.220,empathy_intonation_perc_control,2024.2.4,Win32,60.0240096,667f1755b464b48413d1f6ea,68817205a84113384fffdfe3,689b9b07787abb9fee8d2d7c,,,,,,,,,,,,./stim/wavs/cuban_mismatch_interrogative-total-yn_El-nino-oye-el-rio.wav,1,,,286.642,288.805,1,1,1.635,,0,67,67,30,1,31,1,cuban,,,,,,,,,,,,,,,,,,,,,,,,,,,,,,,,,,,,,,,,,,,,,,,,,,,,,,,,
,,,,,,,,,667f1755b464b48413d1f6ea,,13 or older,"no, only English or Spanish",no,2025-08-12_15h51.07.220,empathy_intonation_perc_control,2024.2.4,Win32,60.0240096,667f1755b464b48413d1f6ea,68817205a84113384fffdfe3,689b9b07787abb9fee8d2d7c,,,,,,,,,,,,./stim/wavs/castilian_match_interrogative-total-yn_Manuela-vende-el-carro.wav,1,,,288.806,292.837,1,1,3.501,,0,68,68,2,1,3,0,castilian,,,,,,,,,,,,,,,,,,,,,,,,,,,,,,,,,,,,,,,,,,,,,,,,,,,,,,,,
,,,,,,,,,667f1755b464b48413d1f6ea,,13 or older,"no, only English or Spanish",no,2025-08-12_15h51.07.220,empathy_intonation_perc_control,2024.2.4,Win32,60.0240096,667f1755b464b48413d1f6ea,68817205a84113384fffdfe3,689b9b07787abb9fee8d2d7c,,,,,,,,,,,,./stim/wavs/cuban_mismatch_interrogative-total-yn_Mi-tia-odia-la-lluvia.wav,1,,,292.838,296.002,1,1,2.634,,0,69,69,33,1,34,1,cuban,,,,,,,,,,,,,,,,,,,,,,,,,,,,,,,,,,,,,,,,,,,,,,,,,,,,,,,,
,,,,,,,,,667f1755b464b48413d1f6ea,,13 or older,"no, only English or Spanish",no,2025-08-12_15h51.07.220,empathy_intonation_perc_control,2024.2.4,Win32,60.0240096,667f1755b464b48413d1f6ea,68817205a84113384fffdfe3,689b9b07787abb9fee8d2d7c,,,,,,,,,,,,./stim/wavs/cuban_mismatch_declarative-broad-focus_Mi-tia-odia-la-lluvia.wav,0,,,296.003,298.534,1,0,2.002,,0,70,70,77,1,78,0,cuban,,,,,,,,,,,,,,,,,,,,,,,,,,,,,,,,,,,,,,,,,,,,,,,,,,,,,,,,
,,,,,,,,,667f1755b464b48413d1f6ea,,13 or older,"no, only English or Spanish",no,2025-08-12_15h51.07.220,empathy_intonation_perc_control,2024.2.4,Win32,60.0240096,667f1755b464b48413d1f6ea,68817205a84113384fffdfe3,689b9b07787abb9fee8d2d7c,,,,,,,,,,,,./stim/wavs/puertorican_mismatch_interrogative-total-yn_La-nina-lava-el-plato.wav,1,,,298.535,301.035,1,1,1.968,,0,71,71,42,1,43,1,puertorican,,,,,,,,,,,,,,,,,,,,,,,,,,,,,,,,,,,,,,,,,,,,,,,,,,,,,,,,
,,,,,,,,,667f1755b464b48413d1f6ea,,13 or older,"no, only English or Spanish",no,2025-08-12_15h51.07.220,empathy_intonation_perc_control,2024.2.4,Win32,60.0240096,667f1755b464b48413d1f6ea,68817205a84113384fffdfe3,689b9b07787abb9fee8d2d7c,,,,,,,,,,,,./stim/wavs/mexican_mismatch_declarative-broad-focus_El-hombre-mira-la-luna.wav,0,,,301.04,303.248,0,1,1.684,,0,72,72,79,1,80,0,mexican,,,,,,,,,,,,,,,,,,,,,,,,,,,,,,,,,,,,,,,,,,,,,,,,,,,,,,,,
,,,,,,,,,667f1755b464b48413d1f6ea,,13 or older,"no, only English or Spanish",no,2025-08-12_15h51.07.220,empathy_intonation_perc_control,2024.2.4,Win32,60.0240096,667f1755b464b48413d1f6ea,68817205a84113384fffdfe3,689b9b07787abb9fee8d2d7c,,,,,,,,,,,,./stim/wavs/puertorican_mismatch_interrogative-total-yn_Mi-madre-come-la-fruta.wav,1,,,303.25,305.264,0,0,1.484,,0,73,73,43,1,44,1,puertorican,,,,,,,,,,,,,,,,,,,,,,,,,,,,,,,,,,,,,,,,,,,,,,,,,,,,,,,,
,,,,,,,,,667f1755b464b48413d1f6ea,,13 or older,"no, only English or Spanish",no,2025-08-12_15h51.07.220,empathy_intonation_perc_control,2024.2.4,Win32,60.0240096,667f1755b464b48413d1f6ea,68817205a84113384fffdfe3,689b9b07787abb9fee8d2d7c,,,,,,,,,,,,./stim/wavs/puertorican_match_interrogative-total-yn_Ana-lleva-el-abrigo.wav,1,,,305.266,307.479,0,0,1.684,,0,74,74,18,1,19,1,puertorican,,,,,,,,,,,,,,,,,,,,,,,,,,,,,,,,,,,,,,,,,,,,,,,,,,,,,,,,
,,,,,,,,,667f1755b464b48413d1f6ea,,13 or older,"no, only English or Spanish",no,2025-08-12_15h51.07.220,empathy_intonation_perc_control,2024.2.4,Win32,60.0240096,667f1755b464b48413d1f6ea,68817205a84113384fffdfe3,689b9b07787abb9fee8d2d7c,,,,,,,,,,,,./stim/wavs/mexican_match_declarative-broad-focus_Marta-abre-el-regalo.wav,0,,,307.482,309.428,0,1,1.418,,0,75,75,61,1,62,0,mexican,,,,,,,,,,,,,,,,,,,,,,,,,,,,,,,,,,,,,,,,,,,,,,,,,,,,,,,,
,,,,,,,,,667f1755b464b48413d1f6ea,,13 or older,"no, only English or Spanish",no,2025-08-12_15h51.07.220,empathy_intonation_perc_control,2024.2.4,Win32,60.0240096,667f1755b464b48413d1f6ea,68817205a84113384fffdfe3,689b9b07787abb9fee8d2d7c,,,,,,,,,,,,./stim/wavs/puertorican_match_declarative-broad-focus_Ana-lleva-el-abrigo.wav,0,,,309.43,311.844,0,1,1.884,,0,76,76,62,1,63,0,puertorican,,,,,,,,,,,,,,,,,,,,,,,,,,,,,,,,,,,,,,,,,,,,,,,,,,,,,,,,
,,,,,,,,,667f1755b464b48413d1f6ea,,13 or older,"no, only English or Spanish",no,2025-08-12_15h51.07.220,empathy_intonation_perc_control,2024.2.4,Win32,60.0240096,667f1755b464b48413d1f6ea,68817205a84113384fffdfe3,689b9b07787abb9fee8d2d7c,,,,,,,,,,,,./stim/wavs/mexican_match_declarative-broad-focus_David-leia-el-libro.wav,0,,,311.845,313.826,0,1,1.451,,0,77,77,58,1,59,0,mexican,,,,,,,,,,,,,,,,,,,,,,,,,,,,,,,,,,,,,,,,,,,,,,,,,,,,,,,,
,,,,,,,,,667f1755b464b48413d1f6ea,,13 or older,"no, only English or Spanish",no,2025-08-12_15h51.07.220,empathy_intonation_perc_control,2024.2.4,Win32,60.0240096,667f1755b464b48413d1f6ea,68817205a84113384fffdfe3,689b9b07787abb9fee8d2d7c,,,,,,,,,,,,./stim/wavs/cuban_match_declarative-broad-focus_Maria-bebe-el-vino.wav,0,,,313.827,315.825,0,1,1.466,,0,78,78,53,1,54,0,cuban,,,,,,,,,,,,,,,,,,,,,,,,,,,,,,,,,,,,,,,,,,,,,,,,,,,,,,,,
,,,,,,,,,667f1755b464b48413d1f6ea,,13 or older,"no, only English or Spanish",no,2025-08-12_15h51.07.220,empathy_intonation_perc_control,2024.2.4,Win32,60.0240096,667f1755b464b48413d1f6ea,68817205a84113384fffdfe3,689b9b07787abb9fee8d2d7c,,,,,,,,,,,,./stim/wavs/castilian_match_interrogative-total-yn_Emilio-ama-la-marcha.wav,1,,,315.826,317.765,1,1,1.41,,0,79,79,1,1,2,0,castilian,,,,,,,,,,,,,,,,,,,,,,,,,,,,,,,,,,,,,,,,,,,,,,,,,,,,,,,,
,,,,,,,,,667f1755b464b48413d1f6ea,,13 or older,"no, only English or Spanish",no,2025-08-12_15h51.07.220,empathy_intonation_perc_control,2024.2.4,Win32,60.0240096,667f1755b464b48413d1f6ea,68817205a84113384fffdfe3,689b9b07787abb9fee8d2d7c,,,,,,,,,,,,./stim/wavs/mexican_match_declarative-broad-focus_Daniel-iba-a-Bolivia.wav,0,,,317.765,319.922,1,0,1.634,,0,80,80,57,1,58,0,mexican,,,,,,,,,,,,,,,,,,,,,,,,,,,,,,,,,,,,,,,,,,,,,,,,,,,,,,,,
,,,,,,,,,667f1755b464b48413d1f6ea,,13 or older,"no, only English or Spanish",no,2025-08-12_15h51.07.220,empathy_intonation_perc_control,2024.2.4,Win32,60.0240096,667f1755b464b48413d1f6ea,68817205a84113384fffdfe3,689b9b07787abb9fee8d2d7c,,,,,,,,,,,,./stim/wavs/cuban_match_interrogative-total-yn_Daniel-iba-a-Bolivia.wav,1,,,319.925,322.388,1,1,1.935,,0,81,81,7,1,8,1,cuban,,,,,,,,,,,,,,,,,,,,,,,,,,,,,,,,,,,,,,,,,,,,,,,,,,,,,,,,
,,,,,,,,,667f1755b464b48413d1f6ea,,13 or older,"no, only English or Spanish",no,2025-08-12_15h51.07.220,empathy_intonation_perc_control,2024.2.4,Win32,60.0240096,667f1755b464b48413d1f6ea,68817205a84113384fffdfe3,689b9b07787abb9fee8d2d7c,,,,,,,,,,,,./stim/wavs/cuban_match_interrogative-total-yn_Marta-abre-el-regalo.wav,1,,,322.389,325.553,0,0,2.632,,0,82,82,11,1,12,1,cuban,,,,,,,,,,,,,,,,,,,,,,,,,,,,,,,,,,,,,,,,,,,,,,,,,,,,,,,,
,,,,,,,,,667f1755b464b48413d1f6ea,,13 or older,"no, only English or Spanish",no,2025-08-12_15h51.07.220,empathy_intonation_perc_control,2024.2.4,Win32,60.0240096,667f1755b464b48413d1f6ea,68817205a84113384fffdfe3,689b9b07787abb9fee8d2d7c,,,,,,,,,,,,./stim/wavs/mexican_match_interrogative-total-yn_David-leia-el-libro.wav,1,,,325.555,328.035,1,1,1.951,,0,83,83,14,1,15,0,mexican,,,,,,,,,,,,,,,,,,,,,,,,,,,,,,,,,,,,,,,,,,,,,,,,,,,,,,,,
,,,,,,,,,667f1755b464b48413d1f6ea,,13 or older,"no, only English or Spanish",no,2025-08-12_15h51.07.220,empathy_intonation_perc_control,2024.2.4,Win32,60.0240096,667f1755b464b48413d1f6ea,68817205a84113384fffdfe3,689b9b07787abb9fee8d2d7c,,,,,,,,,,,,./stim/wavs/castilian_mismatch_interrogative-total-yn_La-nina-lava-el-plato.wav,1,,,328.037,330.501,1,1,1.932,,0,84,84,25,1,26,0,castilian,,,,,,,,,,,,,,,,,,,,,,,,,,,,,,,,,,,,,,,,,,,,,,,,,,,,,,,,
,,,,,,,,,667f1755b464b48413d1f6ea,,13 or older,"no, only English or Spanish",no,2025-08-12_15h51.07.220,empathy_intonation_perc_control,2024.2.4,Win32,60.0240096,667f1755b464b48413d1f6ea,68817205a84113384fffdfe3,689b9b07787abb9fee8d2d7c,,,,,,,,,,,,./stim/wavs/puertorican_match_declarative-broad-focus_Daniel-iba-a-Bolivia.wav,0,,,330.502,332.782,0,1,1.75,,0,85,85,63,1,64,0,puertorican,,,,,,,,,,,,,,,,,,,,,,,,,,,,,,,,,,,,,,,,,,,,,,,,,,,,,,,,
,,,,,,,,,667f1755b464b48413d1f6ea,,13 or older,"no, only English or Spanish",no,2025-08-12_15h51.07.220,empathy_intonation_perc_control,2024.2.4,Win32,60.0240096,667f1755b464b48413d1f6ea,68817205a84113384fffdfe3,689b9b07787abb9fee8d2d7c,,,,,,,,,,,,./stim/wavs/mexican_mismatch_interrogative-total-yn_La-maestra-vive-en-Paris.wav,1,,,332.784,336.131,1,1,2.816,,0,86,86,36,1,37,0,mexican,,,,,,,,,,,,,,,,,,,,,,,,,,,,,,,,,,,,,,,,,,,,,,,,,,,,,,,,
,,,,,,,,,667f1755b464b48413d1f6ea,,13 or older,"no, only English or Spanish",no,2025-08-12_15h51.07.220,empathy_intonation_perc_control,2024.2.4,Win32,60.0240096,667f1755b464b48413d1f6ea,68817205a84113384fffdfe3,689b9b07787abb9fee8d2d7c,,,,,,,,,,,,./stim/wavs/castilian_mismatch_declarative-broad-focus_El-nino-oye-el-rio.wav,0,,,336.132,338.215,0,1,1.551,,0,87,87,68,1,69,0,castilian,,,,,,,,,,,,,,,,,,,,,,,,,,,,,,,,,,,,,,,,,,,,,,,,,,,,,,,,
,,,,,,,"Great! Now we will move on. The next task consists of about 60 trials, in each of which you will see a string of letters. 
  
  Your task is to decide whether this is a real Spanish word or not.", (press the spacebar to continue),667f1755b464b48413d1f6ea,,13 or older,"no, only English or Spanish",no,2025-08-12_15h51.07.220,empathy_intonation_perc_control,2024.2.4,Win32,60.0240096,667f1755b464b48413d1f6ea,68817205a84113384fffdfe3,689b9b07787abb9fee8d2d7c,,,,,,,,,,,,,,,,,,,,,,,,,,,,,,338.235,343.611,0,0,0,0,1,,,,,,,,,,,,,,,,,,,,,,,,,,,,,,,,,,,,,,,,,,,,,,,,,
,,,,,,,"If you think it is an existing Spanish word, you type '1' (for 'REAL'), and if you think it is not an existing Spanish word, you type '0' (for 'FAKE').", (press the spacebar to continue),667f1755b464b48413d1f6ea,,13 or older,"no, only English or Spanish",no,2025-08-12_15h51.07.220,empathy_intonation_perc_control,2024.2.4,Win32,60.0240096,667f1755b464b48413d1f6ea,68817205a84113384fffdfe3,689b9b07787abb9fee8d2d7c,,,,,,,,,,,,,,,,,,,,,,,,,,,,,,343.617,346.209,0,1,1,1,1,,,,,,,,,,,,,,,,,,,,,,,,,,,,,,,,,,,,,,,,,,,,,,,,,
,,,,,,,"If you are sure that the word exists, even though you don’t know its exact meaning, you may still respond '1' (REAL). 
  
  But if you are not sure if it is an existing word, you should respond '0' (FAKE).
  
  Let's do a practice round...", (press the spacebar to continue),667f1755b464b48413d1f6ea,,13 or older,"no, only English or Spanish",no,2025-08-12_15h51.07.220,empathy_intonation_perc_control,2024.2.4,Win32,60.0240096,667f1755b464b48413d1f6ea,68817205a84113384fffdfe3,689b9b07787abb9fee8d2d7c,,,,,,,,,,,,,,,,,,,,,,,,,,,,,,346.213,348.407,0,2,2,2,1,,,,,,,,,,,,,,,,,,,,,,,,,,,,,,,,,,,,,,,,,,,,,,,,,
,,,,,,,,,667f1755b464b48413d1f6ea,,13 or older,"no, only English or Spanish",no,2025-08-12_15h51.07.220,empathy_intonation_perc_control,2024.2.4,Win32,60.0240096,667f1755b464b48413d1f6ea,68817205a84113384fffdfe3,689b9b07787abb9fee8d2d7c,,,,,,,,,,,,,0,,,,,,,,,,,,,,,,,,,,,,,,348.417,351.093,0,1,2.151,,351.094,352.089,0,0,0,0,1,0,depiste,REAL,FAKE,,,,,,,,,,,,,,,,,,,,,,,,,,,,,,,,
,,,,,,,,,667f1755b464b48413d1f6ea,,13 or older,"no, only English or Spanish",no,2025-08-12_15h51.07.220,empathy_intonation_perc_control,2024.2.4,Win32,60.0240096,667f1755b464b48413d1f6ea,68817205a84113384fffdfe3,689b9b07787abb9fee8d2d7c,,,,,,,,,,,,,1,,,,,,,,,,,,,,,,,,,,,,,,352.093,353.788,1,1,1.169,,353.788,354.788,0,1,1,1,1,0,sí,REAL,FAKE,,,,,,,,,,,,,,,,,,,,,,,,,,,,,,,,
,,,,,,,,,667f1755b464b48413d1f6ea,,13 or older,"no, only English or Spanish",no,2025-08-12_15h51.07.220,empathy_intonation_perc_control,2024.2.4,Win32,60.0240096,667f1755b464b48413d1f6ea,68817205a84113384fffdfe3,689b9b07787abb9fee8d2d7c,,,,,,,,,,,,,0,,,,,,,,,,,,,,,,,,,,,,,,354.792,357.303,0,1,1.983,,357.304,358.303,0,2,2,2,1,0,coné,REAL,FAKE,,,,,,,,,,,,,,,,,,,,,,,,,,,,,,,,
,,,,,,,,,667f1755b464b48413d1f6ea,,13 or older,"no, only English or Spanish",no,2025-08-12_15h51.07.220,empathy_intonation_perc_control,2024.2.4,Win32,60.0240096,667f1755b464b48413d1f6ea,68817205a84113384fffdfe3,689b9b07787abb9fee8d2d7c,,,,,,,,,,,,,0,,,,,,,,,,,,,,,,,,,,,,,,358.306,359.769,0,1,0.918,,359.769,360.768,0,3,3,3,1,0,calpar,REAL,FAKE,,,,,,,,,,,,,,,,,,,,,,,,,,,,,,,,
,,,,,,,,,667f1755b464b48413d1f6ea,,13 or older,"no, only English or Spanish",no,2025-08-12_15h51.07.220,empathy_intonation_perc_control,2024.2.4,Win32,60.0240096,667f1755b464b48413d1f6ea,68817205a84113384fffdfe3,689b9b07787abb9fee8d2d7c,,,,,,,,,,,,,0,,,,,,,,,,,,,,,,,,,,,,,,360.771,362.101,0,1,0.786,,362.101,363.1,0,4,4,4,1,0,joten,REAL,FAKE,,,,,,,,,,,,,,,,,,,,,,,,,,,,,,,,
,,,,,,,,,667f1755b464b48413d1f6ea,,13 or older,"no, only English or Spanish",no,2025-08-12_15h51.07.220,empathy_intonation_perc_control,2024.2.4,Win32,60.0240096,667f1755b464b48413d1f6ea,68817205a84113384fffdfe3,689b9b07787abb9fee8d2d7c,,,,,,,,,,,,,1,,,,,,,,,,,,,,,,,,,,,,,,363.104,364.749,0,0,1.101,,364.751,365.748,0,5,5,5,1,0,sacapuntas,REAL,FAKE,,,,,,,,,,,,,,,,,,,,,,,,,,,,,,,,
,,,,,,,,,667f1755b464b48413d1f6ea,,13 or older,"no, only English or Spanish",no,2025-08-12_15h51.07.220,empathy_intonation_perc_control,2024.2.4,Win32,60.0240096,667f1755b464b48413d1f6ea,68817205a84113384fffdfe3,689b9b07787abb9fee8d2d7c,,,,,,,,,,,,,0,,,,,,,,,,,,,,,,,,,,,,,,365.75,367.531,1,0,1.235,,367.531,368.53,0,6,6,6,1,0,priba,REAL,FAKE,,,,,,,,,,,,,,,,,,,,,,,,,,,,,,,,
,,,,,,,,,667f1755b464b48413d1f6ea,,13 or older,"no, only English or Spanish",no,2025-08-12_15h51.07.220,empathy_intonation_perc_control,2024.2.4,Win32,60.0240096,667f1755b464b48413d1f6ea,68817205a84113384fffdfe3,689b9b07787abb9fee8d2d7c,,,,,,,,,,,,,0,,,,,,,,,,,,,,,,,,,,,,,,368.534,370.248,0,1,1.169,,370.252,371.246,0,7,7,7,1,0,pelasula,REAL,FAKE,,,,,,,,,,,,,,,,,,,,,,,,,,,,,,,,
,,,,,,,,,667f1755b464b48413d1f6ea,,13 or older,"no, only English or Spanish",no,2025-08-12_15h51.07.220,empathy_intonation_perc_control,2024.2.4,Win32,60.0240096,667f1755b464b48413d1f6ea,68817205a84113384fffdfe3,689b9b07787abb9fee8d2d7c,,,,,,,,,,,,,1,,,,,,,,,,,,,,,,,,,,,,,,371.251,372.561,1,1,0.771,,372.562,373.561,0,8,8,8,1,0,bien,REAL,FAKE,,,,,,,,,,,,,,,,,,,,,,,,,,,,,,,,
,,,,,,,,,667f1755b464b48413d1f6ea,,13 or older,"no, only English or Spanish",no,2025-08-12_15h51.07.220,empathy_intonation_perc_control,2024.2.4,Win32,60.0240096,667f1755b464b48413d1f6ea,68817205a84113384fffdfe3,689b9b07787abb9fee8d2d7c,,,,,,,,,,,,,1,,,,,,,,,,,,,,,,,,,,,,,,373.565,374.927,1,1,0.818,,374.927,375.926,0,9,9,9,1,0,casa,REAL,FAKE,,,,,,,,,,,,,,,,,,,,,,,,,,,,,,,,
,,,,,,,,,667f1755b464b48413d1f6ea,,13 or older,"no, only English or Spanish",no,2025-08-12_15h51.07.220,empathy_intonation_perc_control,2024.2.4,Win32,60.0240096,667f1755b464b48413d1f6ea,68817205a84113384fffdfe3,689b9b07787abb9fee8d2d7c,,,,,,,,,,,,,0,,,,,,,,,,,,,,,,,,,,,,,,375.932,377.493,1,0,1.017,,377.495,378.492,0,10,10,10,1,0,lejo,REAL,FAKE,,,,,,,,,,,,,,,,,,,,,,,,,,,,,,,,
,,,,,,,,,667f1755b464b48413d1f6ea,,13 or older,"no, only English or Spanish",no,2025-08-12_15h51.07.220,empathy_intonation_perc_control,2024.2.4,Win32,60.0240096,667f1755b464b48413d1f6ea,68817205a84113384fffdfe3,689b9b07787abb9fee8d2d7c,,,,,,,,,,,,,0,,,,,,,,,,,,,,,,,,,,,,,,378.496,380.374,1,0,1.34,,380.374,381.374,0,11,11,11,1,0,pretantas,REAL,FAKE,,,,,,,,,,,,,,,,,,,,,,,,,,,,,,,,
,,,,,,,,,667f1755b464b48413d1f6ea,,13 or older,"no, only English or Spanish",no,2025-08-12_15h51.07.220,empathy_intonation_perc_control,2024.2.4,Win32,60.0240096,667f1755b464b48413d1f6ea,68817205a84113384fffdfe3,689b9b07787abb9fee8d2d7c,,,,,,,,,,,,,,,,,,,,,,,,,,,,,,,,,,,,,,,,,,,,,,,,,,,,,,381.374,382.723,,,,,,,,,,,,,,,,,,,,,,,,,,,,,,
,,,,,,,,,667f1755b464b48413d1f6ea,,13 or older,"no, only English or Spanish",no,2025-08-12_15h51.07.220,empathy_intonation_perc_control,2024.2.4,Win32,60.0240096,667f1755b464b48413d1f6ea,68817205a84113384fffdfe3,689b9b07787abb9fee8d2d7c,,,,,,,,,,,,,0,,,,,,,,,,,,,,,,,,,,,,,,,,,,,,,,,,,,,53,vegada,,,,,382.751,384.739,1,0,1.453,,0,0,0,52,1,REAL,FAKE,,,,,,,,,,,,,,,,,
,,,,,,,,,667f1755b464b48413d1f6ea,,13 or older,"no, only English or Spanish",no,2025-08-12_15h51.07.220,empathy_intonation_perc_control,2024.2.4,Win32,60.0240096,667f1755b464b48413d1f6ea,68817205a84113384fffdfe3,689b9b07787abb9fee8d2d7c,,,,,,,,,,,,,1,,,,,,,,,,,,,,,,,,,,,,,,,,,,,,,,,,,,,41,rebuscar,,,,,384.742,386.421,1,1,1.135,,0,1,1,40,1,REAL,FAKE,,,,,,,,,,,,,,,,,
,,,,,,,,,667f1755b464b48413d1f6ea,,13 or older,"no, only English or Spanish",no,2025-08-12_15h51.07.220,empathy_intonation_perc_control,2024.2.4,Win32,60.0240096,667f1755b464b48413d1f6ea,68817205a84113384fffdfe3,689b9b07787abb9fee8d2d7c,,,,,,,,,,,,,0,,,,,,,,,,,,,,,,,,,,,,,,,,,,,,,,,,,,,21,capillo,,,,,386.425,388.171,0,1,1.198,,0,2,2,20,1,REAL,FAKE,,,,,,,,,,,,,,,,,
,,,,,,,,,667f1755b464b48413d1f6ea,,13 or older,"no, only English or Spanish",no,2025-08-12_15h51.07.220,empathy_intonation_perc_control,2024.2.4,Win32,60.0240096,667f1755b464b48413d1f6ea,68817205a84113384fffdfe3,689b9b07787abb9fee8d2d7c,,,,,,,,,,,,,1,,,,,,,,,,,,,,,,,,,,,,,,,,,,,,,,,,,,,91,click the 1 key.,,,,,388.174,390.086,1,1,1.371,,0,3,3,90,1,REAL,FAKE,,,,,,,,,,,,,,,,,
,,,,,,,,,667f1755b464b48413d1f6ea,,13 or older,"no, only English or Spanish",no,2025-08-12_15h51.07.220,empathy_intonation_perc_control,2024.2.4,Win32,60.0240096,667f1755b464b48413d1f6ea,68817205a84113384fffdfe3,689b9b07787abb9fee8d2d7c,,,,,,,,,,,,,1,,,,,,,,,,,,,,,,,,,,,,,,,,,,,,,,,,,,,26,secuestro,,,,,390.089,391.568,0,0,0.935,,0,4,4,25,1,REAL,FAKE,,,,,,,,,,,,,,,,,
,,,,,,,,,667f1755b464b48413d1f6ea,,13 or older,"no, only English or Spanish",no,2025-08-12_15h51.07.220,empathy_intonation_perc_control,2024.2.4,Win32,60.0240096,667f1755b464b48413d1f6ea,68817205a84113384fffdfe3,689b9b07787abb9fee8d2d7c,,,,,,,,,,,,,0,,,,,,,,,,,,,,,,,,,,,,,,,,,,,,,,,,,,,29,decar,,,,,391.57,393.468,0,1,1.367,,0,5,5,28,1,REAL,FAKE,,,,,,,,,,,,,,,,,
,,,,,,,,,667f1755b464b48413d1f6ea,,13 or older,"no, only English or Spanish",no,2025-08-12_15h51.07.220,empathy_intonation_perc_control,2024.2.4,Win32,60.0240096,667f1755b464b48413d1f6ea,68817205a84113384fffdfe3,689b9b07787abb9fee8d2d7c,,,,,,,,,,,,,1,,,,,,,,,,,,,,,,,,,,,,,,,,,,,,,,,,,,,54,fomentar,,,,,393.47,395.233,1,1,1.221,,0,6,6,53,1,REAL,FAKE,,,,,,,,,,,,,,,,,
,,,,,,,,,667f1755b464b48413d1f6ea,,13 or older,"no, only English or Spanish",no,2025-08-12_15h51.07.220,empathy_intonation_perc_control,2024.2.4,Win32,60.0240096,667f1755b464b48413d1f6ea,68817205a84113384fffdfe3,689b9b07787abb9fee8d2d7c,,,,,,,,,,,,,0,,,,,,,,,,,,,,,,,,,,,,,,,,,,,,,,,,,,,47,cartinar,,,,,395.236,396.783,1,0,1.006,,0,7,7,46,1,REAL,FAKE,,,,,,,,,,,,,,,,,
,,,,,,,,,667f1755b464b48413d1f6ea,,13 or older,"no, only English or Spanish",no,2025-08-12_15h51.07.220,empathy_intonation_perc_control,2024.2.4,Win32,60.0240096,667f1755b464b48413d1f6ea,68817205a84113384fffdfe3,689b9b07787abb9fee8d2d7c,,,,,,,,,,,,,0,,,,,,,,,,,,,,,,,,,,,,,,,,,,,,,,,,,,,58,plaudir,,,,,396.785,398.165,0,1,0.838,,0,8,8,57,1,REAL,FAKE,,,,,,,,,,,,,,,,,
,,,,,,,,,667f1755b464b48413d1f6ea,,13 or older,"no, only English or Spanish",no,2025-08-12_15h51.07.220,empathy_intonation_perc_control,2024.2.4,Win32,60.0240096,667f1755b464b48413d1f6ea,68817205a84113384fffdfe3,689b9b07787abb9fee8d2d7c,,,,,,,,,,,,,1,,,,,,,,,,,,,,,,,,,,,,,,,,,,,,,,,,,,,14,yunque,,,,,398.168,399.398,0,0,0.691,,0,9,9,13,1,REAL,FAKE,,,,,,,,,,,,,,,,,
,,,,,,,,,667f1755b464b48413d1f6ea,,13 or older,"no, only English or Spanish",no,2025-08-12_15h51.07.220,empathy_intonation_perc_control,2024.2.4,Win32,60.0240096,667f1755b464b48413d1f6ea,68817205a84113384fffdfe3,689b9b07787abb9fee8d2d7c,,,,,,,,,,,,,1,,,,,,,,,,,,,,,,,,,,,,,,,,,,,,,,,,,,,40,alfombra,,,,,399.4,400.631,0,0,0.688,,0,10,10,39,1,REAL,FAKE,,,,,,,,,,,,,,,,,
,,,,,,,,,667f1755b464b48413d1f6ea,,13 or older,"no, only English or Spanish",no,2025-08-12_15h51.07.220,empathy_intonation_perc_control,2024.2.4,Win32,60.0240096,667f1755b464b48413d1f6ea,68817205a84113384fffdfe3,689b9b07787abb9fee8d2d7c,,,,,,,,,,,,,0,,,,,,,,,,,,,,,,,,,,,,,,,,,,,,,,,,,,,10,antar,,,,,400.634,402.047,1,0,0.889,,0,11,11,9,1,REAL,FAKE,,,,,,,,,,,,,,,,,
,,,,,,,,,667f1755b464b48413d1f6ea,,13 or older,"no, only English or Spanish",no,2025-08-12_15h51.07.220,empathy_intonation_perc_control,2024.2.4,Win32,60.0240096,667f1755b464b48413d1f6ea,68817205a84113384fffdfe3,689b9b07787abb9fee8d2d7c,,,,,,,,,,,,,0,,,,,,,,,,,,,,,,,,,,,,,,,,,,,,,,,,,,,4,batillón,,,,,402.052,403.629,1,0,1.049,,0,12,12,3,1,REAL,FAKE,,,,,,,,,,,,,,,,,
,,,,,,,,,667f1755b464b48413d1f6ea,,13 or older,"no, only English or Spanish",no,2025-08-12_15h51.07.220,empathy_intonation_perc_control,2024.2.4,Win32,60.0240096,667f1755b464b48413d1f6ea,68817205a84113384fffdfe3,689b9b07787abb9fee8d2d7c,,,,,,,,,,,,,1,,,,,,,,,,,,,,,,,,,,,,,,,,,,,,,,,,,,,67,cabello,,,,,403.633,404.828,1,1,0.665,,0,13,13,66,1,REAL,FAKE,,,,,,,,,,,,,,,,,
,,,,,,,,,667f1755b464b48413d1f6ea,,13 or older,"no, only English or Spanish",no,2025-08-12_15h51.07.220,empathy_intonation_perc_control,2024.2.4,Win32,60.0240096,667f1755b464b48413d1f6ea,68817205a84113384fffdfe3,689b9b07787abb9fee8d2d7c,,,,,,,,,,,,,1,,,,,,,,,,,,,,,,,,,,,,,,,,,,,,,,,,,,,89,prisa,,,,,404.832,406.161,0,0,0.786,,0,14,14,88,1,REAL,FAKE,,,,,,,,,,,,,,,,,
,,,,,,,,,667f1755b464b48413d1f6ea,,13 or older,"no, only English or Spanish",no,2025-08-12_15h51.07.220,empathy_intonation_perc_control,2024.2.4,Win32,60.0240096,667f1755b464b48413d1f6ea,68817205a84113384fffdfe3,689b9b07787abb9fee8d2d7c,,,,,,,,,,,,,0,,,,,,,,,,,,,,,,,,,,,,,,,,,,,,,,,,,,,79,tropaje,,,,,406.165,407.493,0,1,0.788,,0,15,15,78,1,REAL,FAKE,,,,,,,,,,,,,,,,,
,,,,,,,,,667f1755b464b48413d1f6ea,,13 or older,"no, only English or Spanish",no,2025-08-12_15h51.07.220,empathy_intonation_perc_control,2024.2.4,Win32,60.0240096,667f1755b464b48413d1f6ea,68817205a84113384fffdfe3,689b9b07787abb9fee8d2d7c,,,,,,,,,,,,,0,,,,,,,,,,,,,,,,,,,,,,,,,,,,,,,,,,,,,17,floroso,,,,,407.495,408.71,0,1,0.685,,0,16,16,16,1,REAL,FAKE,,,,,,,,,,,,,,,,,
,,,,,,,,,667f1755b464b48413d1f6ea,,13 or older,"no, only English or Spanish",no,2025-08-12_15h51.07.220,empathy_intonation_perc_control,2024.2.4,Win32,60.0240096,667f1755b464b48413d1f6ea,68817205a84113384fffdfe3,689b9b07787abb9fee8d2d7c,,,,,,,,,,,,,1,,,,,,,,,,,,,,,,,,,,,,,,,,,,,,,,,,,,,64,orgulloso,,,,,408.713,410.142,1,1,0.899,,0,17,17,63,1,REAL,FAKE,,,,,,,,,,,,,,,,,
,,,,,,,,,667f1755b464b48413d1f6ea,,13 or older,"no, only English or Spanish",no,2025-08-12_15h51.07.220,empathy_intonation_perc_control,2024.2.4,Win32,60.0240096,667f1755b464b48413d1f6ea,68817205a84113384fffdfe3,689b9b07787abb9fee8d2d7c,,,,,,,,,,,,,1,,,,,,,,,,,,,,,,,,,,,,,,,,,,,,,,,,,,,78,frondoso,,,,,410.145,411.341,0,0,0.655,,0,18,18,77,1,REAL,FAKE,,,,,,,,,,,,,,,,,
,,,,,,,,,667f1755b464b48413d1f6ea,,13 or older,"no, only English or Spanish",no,2025-08-12_15h51.07.220,empathy_intonation_perc_control,2024.2.4,Win32,60.0240096,667f1755b464b48413d1f6ea,68817205a84113384fffdfe3,689b9b07787abb9fee8d2d7c,,,,,,,,,,,,,1,,,,,,,,,,,,,,,,,,,,,,,,,,,,,,,,,,,,,65,bizcocho,,,,,411.344,412.658,0,0,0.773,,0,19,19,64,1,REAL,FAKE,,,,,,,,,,,,,,,,,
,,,,,,,,,667f1755b464b48413d1f6ea,,13 or older,"no, only English or Spanish",no,2025-08-12_15h51.07.220,empathy_intonation_perc_control,2024.2.4,Win32,60.0240096,667f1755b464b48413d1f6ea,68817205a84113384fffdfe3,689b9b07787abb9fee8d2d7c,,,,,,,,,,,,,1,,,,,,,,,,,,,,,,,,,,,,,,,,,,,,,,,,,,,56,musgo,,,,,412.66,413.973,0,0,0.769,,0,20,20,55,1,REAL,FAKE,,,,,,,,,,,,,,,,,
,,,,,,,,,667f1755b464b48413d1f6ea,,13 or older,"no, only English or Spanish",no,2025-08-12_15h51.07.220,empathy_intonation_perc_control,2024.2.4,Win32,60.0240096,667f1755b464b48413d1f6ea,68817205a84113384fffdfe3,689b9b07787abb9fee8d2d7c,,,,,,,,,,,,,1,,,,,,,,,,,,,,,,,,,,,,,,,,,,,,,,,,,,,6,tergiversar,,,,,413.977,415.205,0,0,0.69,,0,21,21,5,1,REAL,FAKE,,,,,,,,,,,,,,,,,
,,,,,,,,,667f1755b464b48413d1f6ea,,13 or older,"no, only English or Spanish",no,2025-08-12_15h51.07.220,empathy_intonation_perc_control,2024.2.4,Win32,60.0240096,667f1755b464b48413d1f6ea,68817205a84113384fffdfe3,689b9b07787abb9fee8d2d7c,,,,,,,,,,,,,0,,,,,,,,,,,,,,,,,,,,,,,,,,,,,,,,,,,,,42,cadallo,,,,,415.209,416.755,0,1,1.013,,0,22,22,41,1,REAL,FAKE,,,,,,,,,,,,,,,,,
,,,,,,,,,667f1755b464b48413d1f6ea,,13 or older,"no, only English or Spanish",no,2025-08-12_15h51.07.220,empathy_intonation_perc_control,2024.2.4,Win32,60.0240096,667f1755b464b48413d1f6ea,68817205a84113384fffdfe3,689b9b07787abb9fee8d2d7c,,,,,,,,,,,,,1,,,,,,,,,,,,,,,,,,,,,,,,,,,,,,,,,,,,,85,laúd,,,,,416.757,418.737,0,0,1.467,,0,23,23,84,1,REAL,FAKE,,,,,,,,,,,,,,,,,
,,,,,,,,,667f1755b464b48413d1f6ea,,13 or older,"no, only English or Spanish",no,2025-08-12_15h51.07.220,empathy_intonation_perc_control,2024.2.4,Win32,60.0240096,667f1755b464b48413d1f6ea,68817205a84113384fffdfe3,689b9b07787abb9fee8d2d7c,,,,,,,,,,,,,0,,,,,,,,,,,,,,,,,,,,,,,,,,,,,,,,,,,,,70,temblo,,,,,418.74,420.354,0,1,1.082,,0,24,24,69,1,REAL,FAKE,,,,,,,,,,,,,,,,,
,,,,,,,,,667f1755b464b48413d1f6ea,,13 or older,"no, only English or Spanish",no,2025-08-12_15h51.07.220,empathy_intonation_perc_control,2024.2.4,Win32,60.0240096,667f1755b464b48413d1f6ea,68817205a84113384fffdfe3,689b9b07787abb9fee8d2d7c,,,,,,,,,,,,,1,,,,,,,,,,,,,,,,,,,,,,,,,,,,,,,,,,,,,9,hacha,,,,,420.357,421.653,1,1,0.752,,0,25,25,8,1,REAL,FAKE,,,,,,,,,,,,,,,,,
,,,,,,,,,667f1755b464b48413d1f6ea,,13 or older,"no, only English or Spanish",no,2025-08-12_15h51.07.220,empathy_intonation_perc_control,2024.2.4,Win32,60.0240096,667f1755b464b48413d1f6ea,68817205a84113384fffdfe3,689b9b07787abb9fee8d2d7c,,,,,,,,,,,,,0,,,,,,,,,,,,,,,,,,,,,,,,,,,,,,,,,,,,,82,empirador,,,,,421.656,423.418,0,1,1.217,,0,26,26,81,1,REAL,FAKE,,,,,,,,,,,,,,,,,
,,,,,,,,,667f1755b464b48413d1f6ea,,13 or older,"no, only English or Spanish",no,2025-08-12_15h51.07.220,empathy_intonation_perc_control,2024.2.4,Win32,60.0240096,667f1755b464b48413d1f6ea,68817205a84113384fffdfe3,689b9b07787abb9fee8d2d7c,,,,,,,,,,,,,1,,,,,,,,,,,,,,,,,,,,,,,,,,,,,,,,,,,,,73,hervidor,,,,,423.421,424.601,0,0,0.649,,0,27,27,72,1,REAL,FAKE,,,,,,,,,,,,,,,,,
,,,,,,,,,667f1755b464b48413d1f6ea,,13 or older,"no, only English or Spanish",no,2025-08-12_15h51.07.220,empathy_intonation_perc_control,2024.2.4,Win32,60.0240096,667f1755b464b48413d1f6ea,68817205a84113384fffdfe3,689b9b07787abb9fee8d2d7c,,,,,,,,,,,,,1,,,,,,,,,,,,,,,,,,,,,,,,,,,,,,,,,,,,,7,pésimo,,,,,424.605,425.953,0,0,0.802,,0,28,28,6,1,REAL,FAKE,,,,,,,,,,,,,,,,,
,,,,,,,,,667f1755b464b48413d1f6ea,,13 or older,"no, only English or Spanish",no,2025-08-12_15h51.07.220,empathy_intonation_perc_control,2024.2.4,Win32,60.0240096,667f1755b464b48413d1f6ea,68817205a84113384fffdfe3,689b9b07787abb9fee8d2d7c,,,,,,,,,,,,,1,,,,,,,,,,,,,,,,,,,,,,,,,,,,,,,,,,,,,28,merodear,,,,,425.955,427.401,0,0,0.907,,0,29,29,27,1,REAL,FAKE,,,,,,,,,,,,,,,,,
,,,,,,,,,667f1755b464b48413d1f6ea,,13 or older,"no, only English or Spanish",no,2025-08-12_15h51.07.220,empathy_intonation_perc_control,2024.2.4,Win32,60.0240096,667f1755b464b48413d1f6ea,68817205a84113384fffdfe3,689b9b07787abb9fee8d2d7c,,,,,,,,,,,,,1,,,,,,,,,,,,,,,,,,,,,,,,,,,,,,,,,,,,,76,atar,,,,,427.404,428.549,0,0,0.603,,0,30,30,75,1,REAL,FAKE,,,,,,,,,,,,,,,,,
,,,,,,,,,667f1755b464b48413d1f6ea,,13 or older,"no, only English or Spanish",no,2025-08-12_15h51.07.220,empathy_intonation_perc_control,2024.2.4,Win32,60.0240096,667f1755b464b48413d1f6ea,68817205a84113384fffdfe3,689b9b07787abb9fee8d2d7c,,,,,,,,,,,,,1,,,,,,,,,,,,,,,,,,,,,,,,,,,,,,,,,,,,,60,matar,,,,,428.551,429.815,1,1,0.719,,0,31,31,59,1,REAL,FAKE,,,,,,,,,,,,,,,,,
,,,,,,,,,667f1755b464b48413d1f6ea,,13 or older,"no, only English or Spanish",no,2025-08-12_15h51.07.220,empathy_intonation_perc_control,2024.2.4,Win32,60.0240096,667f1755b464b48413d1f6ea,68817205a84113384fffdfe3,689b9b07787abb9fee8d2d7c,,,,,,,,,,,,,1,,,,,,,,,,,,,,,,,,,,,,,,,,,,,,,,,,,,,22,lacayo,,,,,429.817,431.015,0,0,0.663,,0,32,32,21,1,REAL,FAKE,,,,,,,,,,,,,,,,,
,,,,,,,,,667f1755b464b48413d1f6ea,,13 or older,"no, only English or Spanish",no,2025-08-12_15h51.07.220,empathy_intonation_perc_control,2024.2.4,Win32,60.0240096,667f1755b464b48413d1f6ea,68817205a84113384fffdfe3,689b9b07787abb9fee8d2d7c,,,,,,,,,,,,,0,,,,,,,,,,,,,,,,,,,,,,,,,,,,,,,,,,,,,92,click the 0 key.,,,,,431.017,432.214,0,1,0.652,,0,33,33,91,1,REAL,FAKE,,,,,,,,,,,,,,,,,
,,,,,,,,,667f1755b464b48413d1f6ea,,13 or older,"no, only English or Spanish",no,2025-08-12_15h51.07.220,empathy_intonation_perc_control,2024.2.4,Win32,60.0240096,667f1755b464b48413d1f6ea,68817205a84113384fffdfe3,689b9b07787abb9fee8d2d7c,,,,,,,,,,,,,1,,,,,,,,,,,,,,,,,,,,,,,,,,,,,,,,,,,,,12,asesinato,,,,,432.216,433.466,0,0,0.71,,0,34,34,11,1,REAL,FAKE,,,,,,,,,,,,,,,,,
,,,,,,,,,667f1755b464b48413d1f6ea,,13 or older,"no, only English or Spanish",no,2025-08-12_15h51.07.220,empathy_intonation_perc_control,2024.2.4,Win32,60.0240096,667f1755b464b48413d1f6ea,68817205a84113384fffdfe3,689b9b07787abb9fee8d2d7c,,,,,,,,,,,,,1,,,,,,,,,,,,,,,,,,,,,,,,,,,,,,,,,,,,,51,candado,,,,,433.467,435.495,1,1,1.478,,0,35,35,50,1,REAL,FAKE,,,,,,,,,,,,,,,,,
,,,,,,,,,667f1755b464b48413d1f6ea,,13 or older,"no, only English or Spanish",no,2025-08-12_15h51.07.220,empathy_intonation_perc_control,2024.2.4,Win32,60.0240096,667f1755b464b48413d1f6ea,68817205a84113384fffdfe3,689b9b07787abb9fee8d2d7c,,,,,,,,,,,,,1,,,,,,,,,,,,,,,,,,,,,,,,,,,,,,,,,,,,,36,loro,,,,,435.498,437.18,0,0,1.147,,0,36,36,35,1,REAL,FAKE,,,,,,,,,,,,,,,,,
,,,,,,,,,667f1755b464b48413d1f6ea,,13 or older,"no, only English or Spanish",no,2025-08-12_15h51.07.220,empathy_intonation_perc_control,2024.2.4,Win32,60.0240096,667f1755b464b48413d1f6ea,68817205a84113384fffdfe3,689b9b07787abb9fee8d2d7c,,,,,,,,,,,,,1,,,,,,,,,,,,,,,,,,,,,,,,,,,,,,,,,,,,,43,canela,,,,,437.187,438.727,1,1,1.016,,0,37,37,42,1,REAL,FAKE,,,,,,,,,,,,,,,,,
,,,,,,,,,667f1755b464b48413d1f6ea,,13 or older,"no, only English or Spanish",no,2025-08-12_15h51.07.220,empathy_intonation_perc_control,2024.2.4,Win32,60.0240096,667f1755b464b48413d1f6ea,68817205a84113384fffdfe3,689b9b07787abb9fee8d2d7c,,,,,,,,,,,,,1,,,,,,,,,,,,,,,,,,,,,,,,,,,,,,,,,,,,,61,seda,,,,,438.731,440.043,0,0,0.788,,0,38,38,60,1,REAL,FAKE,,,,,,,,,,,,,,,,,
,,,,,,,,,667f1755b464b48413d1f6ea,,13 or older,"no, only English or Spanish",no,2025-08-12_15h51.07.220,empathy_intonation_perc_control,2024.2.4,Win32,60.0240096,667f1755b464b48413d1f6ea,68817205a84113384fffdfe3,689b9b07787abb9fee8d2d7c,,,,,,,,,,,,,1,,,,,,,,,,,,,,,,,,,,,,,,,,,,,,,,,,,,,55,nevar,,,,,440.047,441.609,0,0,1.017,,0,39,39,54,1,REAL,FAKE,,,,,,,,,,,,,,,,,
,,,,,,,,,667f1755b464b48413d1f6ea,,13 or older,"no, only English or Spanish",no,2025-08-12_15h51.07.220,empathy_intonation_perc_control,2024.2.4,Win32,60.0240096,667f1755b464b48413d1f6ea,68817205a84113384fffdfe3,689b9b07787abb9fee8d2d7c,,,,,,,,,,,,,1,,,,,,,,,,,,,,,,,,,,,,,,,,,,,,,,,,,,,90,clavel,,,,,441.615,442.959,1,1,0.804,,0,40,40,89,1,REAL,FAKE,,,,,,,,,,,,,,,,,
,,,,,,,,,667f1755b464b48413d1f6ea,,13 or older,"no, only English or Spanish",no,2025-08-12_15h51.07.220,empathy_intonation_perc_control,2024.2.4,Win32,60.0240096,667f1755b464b48413d1f6ea,68817205a84113384fffdfe3,689b9b07787abb9fee8d2d7c,,,,,,,,,,,,,1,,,,,,,,,,,,,,,,,,,,,,,,,,,,,,,,,,,,,52,camisa,,,,,442.962,444.141,1,1,0.634,,0,41,41,51,1,REAL,FAKE,,,,,,,,,,,,,,,,,
,,,,,,,,,667f1755b464b48413d1f6ea,,13 or older,"no, only English or Spanish",no,2025-08-12_15h51.07.220,empathy_intonation_perc_control,2024.2.4,Win32,60.0240096,667f1755b464b48413d1f6ea,68817205a84113384fffdfe3,689b9b07787abb9fee8d2d7c,,,,,,,,,,,,,1,,,,,,,,,,,,,,,,,,,,,,,,,,,,,,,,,,,,,80,hormiga,,,,,444.145,445.524,0,0,0.853,,0,42,42,79,1,REAL,FAKE,,,,,,,,,,,,,,,,,
,,,,,,,,,667f1755b464b48413d1f6ea,,13 or older,"no, only English or Spanish",no,2025-08-12_15h51.07.220,empathy_intonation_perc_control,2024.2.4,Win32,60.0240096,667f1755b464b48413d1f6ea,68817205a84113384fffdfe3,689b9b07787abb9fee8d2d7c,,,,,,,,,,,,,1,,,,,,,,,,,,,,,,,,,,,,,,,,,,,,,,,,,,,11,cenefa,,,,,445.527,446.806,0,0,0.748,,0,43,43,10,1,REAL,FAKE,,,,,,,,,,,,,,,,,
,,,,,,,,,667f1755b464b48413d1f6ea,,13 or older,"no, only English or Spanish",no,2025-08-12_15h51.07.220,empathy_intonation_perc_control,2024.2.4,Win32,60.0240096,667f1755b464b48413d1f6ea,68817205a84113384fffdfe3,689b9b07787abb9fee8d2d7c,,,,,,,,,,,,,0,,,,,,,,,,,,,,,,,,,,,,,,,,,,,,,,,,,,,27,acutación,,,,,446.809,448.738,1,0,1.388,,0,44,44,26,1,REAL,FAKE,,,,,,,,,,,,,,,,,
,,,,,,,,,667f1755b464b48413d1f6ea,,13 or older,"no, only English or Spanish",no,2025-08-12_15h51.07.220,empathy_intonation_perc_control,2024.2.4,Win32,60.0240096,667f1755b464b48413d1f6ea,68817205a84113384fffdfe3,689b9b07787abb9fee8d2d7c,,,,,,,,,,,,,1,,,,,,,,,,,,,,,,,,,,,,,,,,,,,,,,,,,,,69,engatusar,,,,,448.74,449.904,0,0,0.642,,0,45,45,68,1,REAL,FAKE,,,,,,,,,,,,,,,,,
,,,,,,,,,667f1755b464b48413d1f6ea,,13 or older,"no, only English or Spanish",no,2025-08-12_15h51.07.220,empathy_intonation_perc_control,2024.2.4,Win32,60.0240096,667f1755b464b48413d1f6ea,68817205a84113384fffdfe3,689b9b07787abb9fee8d2d7c,,,,,,,,,,,,,1,,,,,,,,,,,,,,,,,,,,,,,,,,,,,,,,,,,,,25,bisagra,,,,,449.906,451.154,0,0,0.723,,0,46,46,24,1,REAL,FAKE,,,,,,,,,,,,,,,,,
,,,,,,,,,667f1755b464b48413d1f6ea,,13 or older,"no, only English or Spanish",no,2025-08-12_15h51.07.220,empathy_intonation_perc_control,2024.2.4,Win32,60.0240096,667f1755b464b48413d1f6ea,68817205a84113384fffdfe3,689b9b07787abb9fee8d2d7c,,,,,,,,,,,,,0,,,,,,,,,,,,,,,,,,,,,,,,,,,,,,,,,,,,,87,grodo,,,,,451.157,452.47,0,1,0.782,,0,47,47,86,1,REAL,FAKE,,,,,,,,,,,,,,,,,
,,,,,,,,,667f1755b464b48413d1f6ea,,13 or older,"no, only English or Spanish",no,2025-08-12_15h51.07.220,empathy_intonation_perc_control,2024.2.4,Win32,60.0240096,667f1755b464b48413d1f6ea,68817205a84113384fffdfe3,689b9b07787abb9fee8d2d7c,,,,,,,,,,,,,0,,,,,,,,,,,,,,,,,,,,,,,,,,,,,,,,,,,,,33,pauca,,,,,452.473,453.736,0,1,0.724,,0,48,48,32,1,REAL,FAKE,,,,,,,,,,,,,,,,,
,,,,,,,,,667f1755b464b48413d1f6ea,,13 or older,"no, only English or Spanish",no,2025-08-12_15h51.07.220,empathy_intonation_perc_control,2024.2.4,Win32,60.0240096,667f1755b464b48413d1f6ea,68817205a84113384fffdfe3,689b9b07787abb9fee8d2d7c,,,,,,,,,,,,,0,,,,,,,,,,,,,,,,,,,,,,,,,,,,,,,,,,,,,72,pemición,,,,,453.739,454.952,0,1,0.67,,0,49,49,71,1,REAL,FAKE,,,,,,,,,,,,,,,,,
,,,,,,,,,667f1755b464b48413d1f6ea,,13 or older,"no, only English or Spanish",no,2025-08-12_15h51.07.220,empathy_intonation_perc_control,2024.2.4,Win32,60.0240096,667f1755b464b48413d1f6ea,68817205a84113384fffdfe3,689b9b07787abb9fee8d2d7c,,,,,,,,,,,,,0,,,,,,,,,,,,,,,,,,,,,,,,,,,,,,,,,,,,,35,rompido,,,,,454.956,457.051,1,0,1.566,,0,50,50,34,1,REAL,FAKE,,,,,,,,,,,,,,,,,
,,,,,,,,,667f1755b464b48413d1f6ea,,13 or older,"no, only English or Spanish",no,2025-08-12_15h51.07.220,empathy_intonation_perc_control,2024.2.4,Win32,60.0240096,667f1755b464b48413d1f6ea,68817205a84113384fffdfe3,689b9b07787abb9fee8d2d7c,,,,,,,,,,,,,0,,,,,,,,,,,,,,,,,,,,,,,,,,,,,,,,,,,,,30,alardio,,,,,457.054,458.134,0,1,0.533,,0,51,51,29,1,REAL,FAKE,,,,,,,,,,,,,,,,,
,,,,,,,,,667f1755b464b48413d1f6ea,,13 or older,"no, only English or Spanish",no,2025-08-12_15h51.07.220,empathy_intonation_perc_control,2024.2.4,Win32,60.0240096,667f1755b464b48413d1f6ea,68817205a84113384fffdfe3,689b9b07787abb9fee8d2d7c,,,,,,,,,,,,,1,,,,,,,,,,,,,,,,,,,,,,,,,,,,,,,,,,,,,15,regar,,,,,458.136,459.25,1,1,0.571,,0,52,52,14,1,REAL,FAKE,,,,,,,,,,,,,,,,,
,,,,,,,,,667f1755b464b48413d1f6ea,,13 or older,"no, only English or Spanish",no,2025-08-12_15h51.07.220,empathy_intonation_perc_control,2024.2.4,Win32,60.0240096,667f1755b464b48413d1f6ea,68817205a84113384fffdfe3,689b9b07787abb9fee8d2d7c,,,,,,,,,,,,,1,,,,,,,,,,,,,,,,,,,,,,,,,,,,,,,,,,,,,83,guante,,,,,459.252,460.415,1,1,0.633,,0,53,53,82,1,REAL,FAKE,,,,,,,,,,,,,,,,,
,,,,,,,,,667f1755b464b48413d1f6ea,,13 or older,"no, only English or Spanish",no,2025-08-12_15h51.07.220,empathy_intonation_perc_control,2024.2.4,Win32,60.0240096,667f1755b464b48413d1f6ea,68817205a84113384fffdfe3,689b9b07787abb9fee8d2d7c,,,,,,,,,,,,,1,,,,,,,,,,,,,,,,,,,,,,,,,,,,,,,,,,,,,37,granuja,,,,,460.417,462.098,0,0,1.134,,0,54,54,36,1,REAL,FAKE,,,,,,,,,,,,,,,,,
,,,,,,,,,667f1755b464b48413d1f6ea,,13 or older,"no, only English or Spanish",no,2025-08-12_15h51.07.220,empathy_intonation_perc_control,2024.2.4,Win32,60.0240096,667f1755b464b48413d1f6ea,68817205a84113384fffdfe3,689b9b07787abb9fee8d2d7c,,,,,,,,,,,,,1,,,,,,,,,,,,,,,,,,,,,,,,,,,,,,,,,,,,,59,besar,,,,,462.1,463.531,1,1,0.904,,0,55,55,58,1,REAL,FAKE,,,,,,,,,,,,,,,,,
,,,,,,,,,667f1755b464b48413d1f6ea,,13 or older,"no, only English or Spanish",no,2025-08-12_15h51.07.220,empathy_intonation_perc_control,2024.2.4,Win32,60.0240096,667f1755b464b48413d1f6ea,68817205a84113384fffdfe3,689b9b07787abb9fee8d2d7c,,,,,,,,,,,,,0,,,,,,,,,,,,,,,,,,,,,,,,,,,,,,,,,,,,,66,hacido,,,,,463.534,464.763,1,0,0.709,,0,56,56,65,1,REAL,FAKE,,,,,,,,,,,,,,,,,
,,,,,,,,,667f1755b464b48413d1f6ea,,13 or older,"no, only English or Spanish",no,2025-08-12_15h51.07.220,empathy_intonation_perc_control,2024.2.4,Win32,60.0240096,667f1755b464b48413d1f6ea,68817205a84113384fffdfe3,689b9b07787abb9fee8d2d7c,,,,,,,,,,,,,1,,,,,,,,,,,,,,,,,,,,,,,,,,,,,,,,,,,,,68,alegre,,,,,464.766,465.948,1,1,0.655,,0,57,57,67,1,REAL,FAKE,,,,,,,,,,,,,,,,,
,,,,,,,,,667f1755b464b48413d1f6ea,,13 or older,"no, only English or Spanish",no,2025-08-12_15h51.07.220,empathy_intonation_perc_control,2024.2.4,Win32,60.0240096,667f1755b464b48413d1f6ea,68817205a84113384fffdfe3,689b9b07787abb9fee8d2d7c,,,,,,,,,,,,,1,,,,,,,,,,,,,,,,,,,,,,,,,,,,,,,,,,,,,34,aviso,,,,,465.95,467.395,0,0,0.904,,0,58,58,33,1,REAL,FAKE,,,,,,,,,,,,,,,,,
,,,,,,,,,667f1755b464b48413d1f6ea,,13 or older,"no, only English or Spanish",no,2025-08-12_15h51.07.220,empathy_intonation_perc_control,2024.2.4,Win32,60.0240096,667f1755b464b48413d1f6ea,68817205a84113384fffdfe3,689b9b07787abb9fee8d2d7c,,,,,,,,,,,,,0,,,,,,,,,,,,,,,,,,,,,,,,,,,,,,,,,,,,,84,escuto,,,,,467.398,468.696,1,0,0.772,,0,59,59,83,1,REAL,FAKE,,,,,,,,,,,,,,,,,
,,,,,,,,,667f1755b464b48413d1f6ea,,13 or older,"no, only English or Spanish",no,2025-08-12_15h51.07.220,empathy_intonation_perc_control,2024.2.4,Win32,60.0240096,667f1755b464b48413d1f6ea,68817205a84113384fffdfe3,689b9b07787abb9fee8d2d7c,,,,,,,,,,,,,1,,,,,,,,,,,,,,,,,,,,,,,,,,,,,,,,,,,,,2,pellizcar,,,,,468.702,469.877,0,0,0.646,,0,60,60,1,1,REAL,FAKE,,,,,,,,,,,,,,,,,
,,,,,,,,,667f1755b464b48413d1f6ea,,13 or older,"no, only English or Spanish",no,2025-08-12_15h51.07.220,empathy_intonation_perc_control,2024.2.4,Win32,60.0240096,667f1755b464b48413d1f6ea,68817205a84113384fffdfe3,689b9b07787abb9fee8d2d7c,,,,,,,,,,,,,1,,,,,,,,,,,,,,,,,,,,,,,,,,,,,,,,,,,,,13,helar,,,,,469.881,471.127,1,1,0.706,,0,61,61,12,1,REAL,FAKE,,,,,,,,,,,,,,,,,
,,,,,,,,,667f1755b464b48413d1f6ea,,13 or older,"no, only English or Spanish",no,2025-08-12_15h51.07.220,empathy_intonation_perc_control,2024.2.4,Win32,60.0240096,667f1755b464b48413d1f6ea,68817205a84113384fffdfe3,689b9b07787abb9fee8d2d7c,,,,,,,,,,,,,1,,,,,,,,,,,,,,,,,,,,,,,,,,,,,,,,,,,,,57,tacaño,,,,,471.13,472.959,1,1,1.277,,0,62,62,56,1,REAL,FAKE,,,,,,,,,,,,,,,,,
,,,,,,,,,667f1755b464b48413d1f6ea,,13 or older,"no, only English or Spanish",no,2025-08-12_15h51.07.220,empathy_intonation_perc_control,2024.2.4,Win32,60.0240096,667f1755b464b48413d1f6ea,68817205a84113384fffdfe3,689b9b07787abb9fee8d2d7c,,,,,,,,,,,,,1,,,,,,,,,,,,,,,,,,,,,,,,,,,,,,,,,,,,,39,torpe,,,,,472.964,474.292,0,0,0.793,,0,63,63,38,1,REAL,FAKE,,,,,,,,,,,,,,,,,
,,,,,,,,,667f1755b464b48413d1f6ea,,13 or older,"no, only English or Spanish",no,2025-08-12_15h51.07.220,empathy_intonation_perc_control,2024.2.4,Win32,60.0240096,667f1755b464b48413d1f6ea,68817205a84113384fffdfe3,689b9b07787abb9fee8d2d7c,,,,,,,,,,,,,0,,,,,,,,,,,,,,,,,,,,,,,,,,,,,,,,,,,,,74,cintro,,,,,474.295,475.725,1,0,0.884,,0,64,64,73,1,REAL,FAKE,,,,,,,,,,,,,,,,,
,,,,,,,,,667f1755b464b48413d1f6ea,,13 or older,"no, only English or Spanish",no,2025-08-12_15h51.07.220,empathy_intonation_perc_control,2024.2.4,Win32,60.0240096,667f1755b464b48413d1f6ea,68817205a84113384fffdfe3,689b9b07787abb9fee8d2d7c,,,,,,,,,,,,,1,,,,,,,,,,,,,,,,,,,,,,,,,,,,,,,,,,,,,45,jilguero,,,,,475.728,476.907,0,0,0.642,,0,65,65,44,1,REAL,FAKE,,,,,,,,,,,,,,,,,
,,,,,,,,,667f1755b464b48413d1f6ea,,13 or older,"no, only English or Spanish",no,2025-08-12_15h51.07.220,empathy_intonation_perc_control,2024.2.4,Win32,60.0240096,667f1755b464b48413d1f6ea,68817205a84113384fffdfe3,689b9b07787abb9fee8d2d7c,,,,,,,,,,,,,0,,,,,,,,,,,,,,,,,,,,,,,,,,,,,,,,,,,,,1,terzo,,,,,476.909,478.19,0,1,0.748,,0,66,66,0,1,REAL,FAKE,,,,,,,,,,,,,,,,,
,,,,,,,,,667f1755b464b48413d1f6ea,,13 or older,"no, only English or Spanish",no,2025-08-12_15h51.07.220,empathy_intonation_perc_control,2024.2.4,Win32,60.0240096,667f1755b464b48413d1f6ea,68817205a84113384fffdfe3,689b9b07787abb9fee8d2d7c,,,,,,,,,,,,,1,,,,,,,,,,,,,,,,,,,,,,,,,,,,,,,,,,,,,48,ladrón,,,,,478.193,479.425,0,0,0.69,,0,67,67,47,1,REAL,FAKE,,,,,,,,,,,,,,,,,
,,,,,,,,,667f1755b464b48413d1f6ea,,13 or older,"no, only English or Spanish",no,2025-08-12_15h51.07.220,empathy_intonation_perc_control,2024.2.4,Win32,60.0240096,667f1755b464b48413d1f6ea,68817205a84113384fffdfe3,689b9b07787abb9fee8d2d7c,,,,,,,,,,,,,1,,,,,,,,,,,,,,,,,,,,,,,,,,,,,,,,,,,,,38,estornudar,,,,,479.427,480.472,0,0,0.501,,0,68,68,37,1,REAL,FAKE,,,,,,,,,,,,,,,,,
,,,,,,,,,667f1755b464b48413d1f6ea,,13 or older,"no, only English or Spanish",no,2025-08-12_15h51.07.220,empathy_intonation_perc_control,2024.2.4,Win32,60.0240096,667f1755b464b48413d1f6ea,68817205a84113384fffdfe3,689b9b07787abb9fee8d2d7c,,,,,,,,,,,,,0,,,,,,,,,,,,,,,,,,,,,,,,,,,,,,,,,,,,,50,flamida,,,,,480.476,481.921,0,1,0.916,,0,69,69,49,1,REAL,FAKE,,,,,,,,,,,,,,,,,
,,,,,,,,,667f1755b464b48413d1f6ea,,13 or older,"no, only English or Spanish",no,2025-08-12_15h51.07.220,empathy_intonation_perc_control,2024.2.4,Win32,60.0240096,667f1755b464b48413d1f6ea,68817205a84113384fffdfe3,689b9b07787abb9fee8d2d7c,,,,,,,,,,,,,1,,,,,,,,,,,,,,,,,,,,,,,,,,,,,,,,,,,,,77,tiburón,,,,,481.925,483.686,0,0,1.218,,0,70,70,76,1,REAL,FAKE,,,,,,,,,,,,,,,,,
,,,,,,,,,667f1755b464b48413d1f6ea,,13 or older,"no, only English or Spanish",no,2025-08-12_15h51.07.220,empathy_intonation_perc_control,2024.2.4,Win32,60.0240096,667f1755b464b48413d1f6ea,68817205a84113384fffdfe3,689b9b07787abb9fee8d2d7c,,,,,,,,,,,,,0,,,,,,,,,,,,,,,,,,,,,,,,,,,,,,,,,,,,,23,lampera,,,,,483.689,484.836,1,0,0.63,,0,71,71,22,1,REAL,FAKE,,,,,,,,,,,,,,,,,
,,,,,,,,,667f1755b464b48413d1f6ea,,13 or older,"no, only English or Spanish",no,2025-08-12_15h51.07.220,empathy_intonation_perc_control,2024.2.4,Win32,60.0240096,667f1755b464b48413d1f6ea,68817205a84113384fffdfe3,689b9b07787abb9fee8d2d7c,,,,,,,,,,,,,1,,,,,,,,,,,,,,,,,,,,,,,,,,,,,,,,,,,,,46,martillo,,,,,484.839,485.736,1,1,0.37,,0,72,72,45,1,REAL,FAKE,,,,,,,,,,,,,,,,,
,,,,,,,,,667f1755b464b48413d1f6ea,,13 or older,"no, only English or Spanish",no,2025-08-12_15h51.07.220,empathy_intonation_perc_control,2024.2.4,Win32,60.0240096,667f1755b464b48413d1f6ea,68817205a84113384fffdfe3,689b9b07787abb9fee8d2d7c,,,,,,,,,,,,,1,,,,,,,,,,,,,,,,,,,,,,,,,,,,,,,,,,,,,49,ganar,,,,,485.739,486.769,1,1,0.5,,0,73,73,48,1,REAL,FAKE,,,,,,,,,,,,,,,,,
,,,,,,,,,667f1755b464b48413d1f6ea,,13 or older,"no, only English or Spanish",no,2025-08-12_15h51.07.220,empathy_intonation_perc_control,2024.2.4,Win32,60.0240096,667f1755b464b48413d1f6ea,68817205a84113384fffdfe3,689b9b07787abb9fee8d2d7c,,,,,,,,,,,,,1,,,,,,,,,,,,,,,,,,,,,,,,,,,,,,,,,,,,,81,pozo,,,,,486.771,488.134,1,1,0.819,,0,74,74,80,1,REAL,FAKE,,,,,,,,,,,,,,,,,
,,,,,,,,,667f1755b464b48413d1f6ea,,13 or older,"no, only English or Spanish",no,2025-08-12_15h51.07.220,empathy_intonation_perc_control,2024.2.4,Win32,60.0240096,667f1755b464b48413d1f6ea,68817205a84113384fffdfe3,689b9b07787abb9fee8d2d7c,,,,,,,,,,,,,1,,,,,,,,,,,,,,,,,,,,,,,,,,,,,,,,,,,,,75,yacer,,,,,488.136,489.251,1,1,0.6,,0,75,75,74,1,REAL,FAKE,,,,,,,,,,,,,,,,,
,,,,,,,,,667f1755b464b48413d1f6ea,,13 or older,"no, only English or Spanish",no,2025-08-12_15h51.07.220,empathy_intonation_perc_control,2024.2.4,Win32,60.0240096,667f1755b464b48413d1f6ea,68817205a84113384fffdfe3,689b9b07787abb9fee8d2d7c,,,,,,,,,,,,,0,,,,,,,,,,,,,,,,,,,,,,,,,,,,,,,,,,,,,18,arsa,,,,,489.253,490.5,1,0,0.733,,0,76,76,17,1,REAL,FAKE,,,,,,,,,,,,,,,,,
,,,,,,,,,667f1755b464b48413d1f6ea,,13 or older,"no, only English or Spanish",no,2025-08-12_15h51.07.220,empathy_intonation_perc_control,2024.2.4,Win32,60.0240096,667f1755b464b48413d1f6ea,68817205a84113384fffdfe3,689b9b07787abb9fee8d2d7c,,,,,,,,,,,,,1,,,,,,,,,,,,,,,,,,,,,,,,,,,,,,,,,,,,,5,zapato,,,,,490.503,491.786,1,1,0.751,,0,77,77,4,1,REAL,FAKE,,,,,,,,,,,,,,,,,
,,,,,,,,,667f1755b464b48413d1f6ea,,13 or older,"no, only English or Spanish",no,2025-08-12_15h51.07.220,empathy_intonation_perc_control,2024.2.4,Win32,60.0240096,667f1755b464b48413d1f6ea,68817205a84113384fffdfe3,689b9b07787abb9fee8d2d7c,,,,,,,,,,,,,1,,,,,,,,,,,,,,,,,,,,,,,,,,,,,,,,,,,,,24,látigo,,,,,491.787,493.049,1,1,0.721,,0,78,78,23,1,REAL,FAKE,,,,,,,,,,,,,,,,,
,,,,,,,,,667f1755b464b48413d1f6ea,,13 or older,"no, only English or Spanish",no,2025-08-12_15h51.07.220,empathy_intonation_perc_control,2024.2.4,Win32,60.0240096,667f1755b464b48413d1f6ea,68817205a84113384fffdfe3,689b9b07787abb9fee8d2d7c,,,,,,,,,,,,,0,,,,,,,,,,,,,,,,,,,,,,,,,,,,,,,,,,,,,63,esposante,,,,,493.053,494.364,0,1,0.783,,0,79,79,62,1,REAL,FAKE,,,,,,,,,,,,,,,,,
,,,,,,,,,667f1755b464b48413d1f6ea,,13 or older,"no, only English or Spanish",no,2025-08-12_15h51.07.220,empathy_intonation_perc_control,2024.2.4,Win32,60.0240096,667f1755b464b48413d1f6ea,68817205a84113384fffdfe3,689b9b07787abb9fee8d2d7c,,,,,,,,,,,,,1,,,,,,,,,,,,,,,,,,,,,,,,,,,,,,,,,,,,,3,pulmones,,,,,494.366,495.48,0,0,0.576,,0,80,80,2,1,REAL,FAKE,,,,,,,,,,,,,,,,,
,,,,,,,,,667f1755b464b48413d1f6ea,,13 or older,"no, only English or Spanish",no,2025-08-12_15h51.07.220,empathy_intonation_perc_control,2024.2.4,Win32,60.0240096,667f1755b464b48413d1f6ea,68817205a84113384fffdfe3,689b9b07787abb9fee8d2d7c,,,,,,,,,,,,,0,,,,,,,,,,,,,,,,,,,,,,,,,,,,,,,,,,,,,8,cadeña,,,,,495.483,496.78,0,1,0.753,,0,81,81,7,1,REAL,FAKE,,,,,,,,,,,,,,,,,
,,,,,,,,,667f1755b464b48413d1f6ea,,13 or older,"no, only English or Spanish",no,2025-08-12_15h51.07.220,empathy_intonation_perc_control,2024.2.4,Win32,60.0240096,667f1755b464b48413d1f6ea,68817205a84113384fffdfe3,689b9b07787abb9fee8d2d7c,,,,,,,,,,,,,1,,,,,,,,,,,,,,,,,,,,,,,,,,,,,,,,,,,,,44,cuchara,,,,,496.783,497.965,1,1,0.641,,0,82,82,43,1,REAL,FAKE,,,,,,,,,,,,,,,,,
,,,,,,,,,667f1755b464b48413d1f6ea,,13 or older,"no, only English or Spanish",no,2025-08-12_15h51.07.220,empathy_intonation_perc_control,2024.2.4,Win32,60.0240096,667f1755b464b48413d1f6ea,68817205a84113384fffdfe3,689b9b07787abb9fee8d2d7c,,,,,,,,,,,,,1,,,,,,,,,,,,,,,,,,,,,,,,,,,,,,,,,,,,,71,polvoriento,,,,,497.967,499.096,0,0,0.591,,0,83,83,70,1,REAL,FAKE,,,,,,,,,,,,,,,,,
,,,,,,,,,667f1755b464b48413d1f6ea,,13 or older,"no, only English or Spanish",no,2025-08-12_15h51.07.220,empathy_intonation_perc_control,2024.2.4,Win32,60.0240096,667f1755b464b48413d1f6ea,68817205a84113384fffdfe3,689b9b07787abb9fee8d2d7c,,,,,,,,,,,,,0,,,,,,,,,,,,,,,,,,,,,,,,,,,,,,,,,,,,,16,abracer,,,,,499.099,500.346,0,1,0.706,,0,84,84,15,1,REAL,FAKE,,,,,,,,,,,,,,,,,
,,,,,,,,,667f1755b464b48413d1f6ea,,13 or older,"no, only English or Spanish",no,2025-08-12_15h51.07.220,empathy_intonation_perc_control,2024.2.4,Win32,60.0240096,667f1755b464b48413d1f6ea,68817205a84113384fffdfe3,689b9b07787abb9fee8d2d7c,,,,,,,,,,,,,1,,,,,,,,,,,,,,,,,,,,,,,,,,,,,,,,,,,,,31,pandilla,,,,,500.351,501.727,0,0,0.848,,0,85,85,30,1,REAL,FAKE,,,,,,,,,,,,,,,,,
,,,,,,,,,667f1755b464b48413d1f6ea,,13 or older,"no, only English or Spanish",no,2025-08-12_15h51.07.220,empathy_intonation_perc_control,2024.2.4,Win32,60.0240096,667f1755b464b48413d1f6ea,68817205a84113384fffdfe3,689b9b07787abb9fee8d2d7c,,,,,,,,,,,,,1,,,,,,,,,,,,,,,,,,,,,,,,,,,,,,,,,,,,,88,acantilado,,,,,501.731,502.81,0,0,0.535,,0,86,86,87,1,REAL,FAKE,,,,,,,,,,,,,,,,,
,,,,,,,,,667f1755b464b48413d1f6ea,,13 or older,"no, only English or Spanish",no,2025-08-12_15h51.07.220,empathy_intonation_perc_control,2024.2.4,Win32,60.0240096,667f1755b464b48413d1f6ea,68817205a84113384fffdfe3,689b9b07787abb9fee8d2d7c,,,,,,,,,,,,,1,,,,,,,,,,,,,,,,,,,,,,,,,,,,,,,,,,,,,62,flaco,,,,,502.815,503.893,1,1,0.538,,0,87,87,61,1,REAL,FAKE,,,,,,,,,,,,,,,,,
,,,,,,,,,667f1755b464b48413d1f6ea,,13 or older,"no, only English or Spanish",no,2025-08-12_15h51.07.220,empathy_intonation_perc_control,2024.2.4,Win32,60.0240096,667f1755b464b48413d1f6ea,68817205a84113384fffdfe3,689b9b07787abb9fee8d2d7c,,,,,,,,,,,,,1,,,,,,,,,,,,,,,,,,,,,,,,,,,,,,,,,,,,,86,barato,,,,,503.897,505.259,1,1,0.818,,0,88,88,85,1,REAL,FAKE,,,,,,,,,,,,,,,,,
,,,,,,,,,667f1755b464b48413d1f6ea,,13 or older,"no, only English or Spanish",no,2025-08-12_15h51.07.220,empathy_intonation_perc_control,2024.2.4,Win32,60.0240096,667f1755b464b48413d1f6ea,68817205a84113384fffdfe3,689b9b07787abb9fee8d2d7c,,,,,,,,,,,,,0,,,,,,,,,,,,,,,,,,,,,,,,,,,,,,,,,,,,,32,fatacidad,,,,,505.262,506.475,0,1,0.66,,0,89,89,31,1,REAL,FAKE,,,,,,,,,,,,,,,,,
,,,,,,,,,667f1755b464b48413d1f6ea,,13 or older,"no, only English or Spanish",no,2025-08-12_15h51.07.220,empathy_intonation_perc_control,2024.2.4,Win32,60.0240096,667f1755b464b48413d1f6ea,68817205a84113384fffdfe3,689b9b07787abb9fee8d2d7c,,,,,,,,,,,,,0,,,,,,,,,,,,,,,,,,,,,,,,,,,,,,,,,,,,,19,brecedad,,,,,506.477,507.725,0,1,0.703,,0,90,90,18,1,REAL,FAKE,,,,,,,,,,,,,,,,,
,,,,,,,,,667f1755b464b48413d1f6ea,,13 or older,"no, only English or Spanish",no,2025-08-12_15h51.07.220,empathy_intonation_perc_control,2024.2.4,Win32,60.0240096,667f1755b464b48413d1f6ea,68817205a84113384fffdfe3,689b9b07787abb9fee8d2d7c,,,,,,,,,,,,,1,,,,,,,,,,,,,,,,,,,,,,,,,,,,,,,,,,,,,20,ávido,,,,,507.729,508.873,1,1,0.613,,0,91,91,19,1,REAL,FAKE,,,,,,,,,,,,,,,,,
,,,,,,,,,667f1755b464b48413d1f6ea,,13 or older,"no, only English or Spanish",no,2025-08-12_15h51.07.220,empathy_intonation_perc_control,2024.2.4,Win32,60.0240096,667f1755b464b48413d1f6ea,68817205a84113384fffdfe3,689b9b07787abb9fee8d2d7c,,,,,,,,,,,,,,,,,,,,,,,,,,,,,,,,,,,,,,,,,,,,,,,,,,,,,,,,,,,,,,,,,,,,,508.874,513.654,,,,,,,,,,,,,,,
,,,,,,,,,667f1755b464b48413d1f6ea,,13 or older,"no, only English or Spanish",no,2025-08-12_15h51.07.220,empathy_intonation_perc_control,2024.2.4,Win32,60.0240096,667f1755b464b48413d1f6ea,68817205a84113384fffdfe3,689b9b07787abb9fee8d2d7c,,,,,,,,,,,,,,,,,,,,,,,,,,,1,,,,,,,,,,,,,,,,,,,,,,,,,,,,,,,,,,,,,,,,,,,,513.681,518.369,slightly disagree,0,0,0,0,1,I can easily tell if someone else wants to enter a conversation.,1,0,1,0,,
,,,,,,,,,667f1755b464b48413d1f6ea,,13 or older,"no, only English or Spanish",no,2025-08-12_15h51.07.220,empathy_intonation_perc_control,2024.2.4,Win32,60.0240096,667f1755b464b48413d1f6ea,68817205a84113384fffdfe3,689b9b07787abb9fee8d2d7c,,,,,,,,,,,,,,,,,,,,,,,,,,,2,,,,,,,,,,,,,,,,,,,,,,,,,,,,,,,,,,,,,,,,,,,,518.372,522.717,slightly disagree,0,1,1,1,1,I prefer animals to humans.,0,1,0,0,,
,,,,,,,,,667f1755b464b48413d1f6ea,,13 or older,"no, only English or Spanish",no,2025-08-12_15h51.07.220,empathy_intonation_perc_control,2024.2.4,Win32,60.0240096,667f1755b464b48413d1f6ea,68817205a84113384fffdfe3,689b9b07787abb9fee8d2d7c,,,,,,,,,,,,,,,,,,,,,,,,,,,3,,,,,,,,,,,,,,,,,,,,,,,,,,,,,,,,,,,,,,,,,,,,522.719,525.815,strongly disagree,0,2,2,2,1,I try to keep up with the current trends and fashions.,0,1,0,0,,
,,,,,,,,,667f1755b464b48413d1f6ea,,13 or older,"no, only English or Spanish",no,2025-08-12_15h51.07.220,empathy_intonation_perc_control,2024.2.4,Win32,60.0240096,667f1755b464b48413d1f6ea,68817205a84113384fffdfe3,689b9b07787abb9fee8d2d7c,,,,,,,,,,,,,,,,,,,,,,,,,,,4,,,,,,,,,,,,,,,,,,,,,,,,,,,,,,,,,,,,,,,,,,,,525.82,531.045,strongly disagree,0,3,3,3,1,"I find it difficult to explain to others things that I understand easily,   when they don't understand it first time.",1,0,0,1,,
,,,,,,,,,667f1755b464b48413d1f6ea,,13 or older,"no, only English or Spanish",no,2025-08-12_15h51.07.220,empathy_intonation_perc_control,2024.2.4,Win32,60.0240096,667f1755b464b48413d1f6ea,68817205a84113384fffdfe3,689b9b07787abb9fee8d2d7c,,,,,,,,,,,,,,,,,,,,,,,,,,,5,,,,,,,,,,,,,,,,,,,,,,,,,,,,,,,,,,,,,,,,,,,,531.048,534.846,strongly disagree,0,4,4,4,1,I dream most nights.,0,1,0,0,,
,,,,,,,,,667f1755b464b48413d1f6ea,,13 or older,"no, only English or Spanish",no,2025-08-12_15h51.07.220,empathy_intonation_perc_control,2024.2.4,Win32,60.0240096,667f1755b464b48413d1f6ea,68817205a84113384fffdfe3,689b9b07787abb9fee8d2d7c,,,,,,,,,,,,,,,,,,,,,,,,,,,6,,,,,,,,,,,,,,,,,,,,,,,,,,,,,,,,,,,,,,,,,,,,534.848,537.345,strongly agree,0,5,5,5,1,I really enjoy caring for other people.,1,0,1,0,,
,,,,,,,,,667f1755b464b48413d1f6ea,,13 or older,"no, only English or Spanish",no,2025-08-12_15h51.07.220,empathy_intonation_perc_control,2024.2.4,Win32,60.0240096,667f1755b464b48413d1f6ea,68817205a84113384fffdfe3,689b9b07787abb9fee8d2d7c,,,,,,,,,,,,,,,,,,,,,,,,,,,7,,,,,,,,,,,,,,,,,,,,,,,,,,,,,,,,,,,,,,,,,,,,537.349,539.957,slightly disagree,0,6,6,6,1,I try to solve my own problems rather than discussing them with others.,0,1,0,0,,
,,,,,,,,,667f1755b464b48413d1f6ea,,13 or older,"no, only English or Spanish",no,2025-08-12_15h51.07.220,empathy_intonation_perc_control,2024.2.4,Win32,60.0240096,667f1755b464b48413d1f6ea,68817205a84113384fffdfe3,689b9b07787abb9fee8d2d7c,,,,,,,,,,,,,,,,,,,,,,,,,,,8,,,,,,,,,,,,,,,,,,,,,,,,,,,,,,,,,,,,,,,,,,,,539.961,544.556,strongly disagree,0,7,7,7,1,I find it hard to know what to do in a social situation.,1,0,0,1,,
,,,,,,,,,667f1755b464b48413d1f6ea,,13 or older,"no, only English or Spanish",no,2025-08-12_15h51.07.220,empathy_intonation_perc_control,2024.2.4,Win32,60.0240096,667f1755b464b48413d1f6ea,68817205a84113384fffdfe3,689b9b07787abb9fee8d2d7c,,,,,,,,,,,,,,,,,,,,,,,,,,,9,,,,,,,,,,,,,,,,,,,,,,,,,,,,,,,,,,,,,,,,,,,,544.559,546.738,slightly agree,0,8,8,8,1,I am at my best first thing in the morning.,0,1,0,0,,
,,,,,,,,,667f1755b464b48413d1f6ea,,13 or older,"no, only English or Spanish",no,2025-08-12_15h51.07.220,empathy_intonation_perc_control,2024.2.4,Win32,60.0240096,667f1755b464b48413d1f6ea,68817205a84113384fffdfe3,689b9b07787abb9fee8d2d7c,,,,,,,,,,,,,,,,,,,,,,,,,,,10,,,,,,,,,,,,,,,,,,,,,,,,,,,,,,,,,,,,,,,,,,,,546.741,550.319,strongly disagree,0,9,9,9,1,People often tell me that I went too far in driving my point home in a discussion.,1,0,0,1,,
,,,,,,,,,667f1755b464b48413d1f6ea,,13 or older,"no, only English or Spanish",no,2025-08-12_15h51.07.220,empathy_intonation_perc_control,2024.2.4,Win32,60.0240096,667f1755b464b48413d1f6ea,68817205a84113384fffdfe3,689b9b07787abb9fee8d2d7c,,,,,,,,,,,,,,,,,,,,,,,,,,,11,,,,,,,,,,,,,,,,,,,,,,,,,,,,,,,,,,,,,,,,,,,,550.322,553.517,slightly agree,0,10,10,10,1,It doesn't bother me too much if I am late meeting a friend.,1,0,0,1,,
,,,,,,,,,667f1755b464b48413d1f6ea,,13 or older,"no, only English or Spanish",no,2025-08-12_15h51.07.220,empathy_intonation_perc_control,2024.2.4,Win32,60.0240096,667f1755b464b48413d1f6ea,68817205a84113384fffdfe3,689b9b07787abb9fee8d2d7c,,,,,,,,,,,,,,,,,,,,,,,,,,,12,,,,,,,,,,,,,,,,,,,,,,,,,,,,,,,,,,,,,,,,,,,,553.52,558.591,slightly disagree,0,11,11,11,1,"Friendships and relationships are just too difficult, so I tend not to 
  bother with them.",1,0,0,1,,
,,,,,,,,,667f1755b464b48413d1f6ea,,13 or older,"no, only English or Spanish",no,2025-08-12_15h51.07.220,empathy_intonation_perc_control,2024.2.4,Win32,60.0240096,667f1755b464b48413d1f6ea,68817205a84113384fffdfe3,689b9b07787abb9fee8d2d7c,,,,,,,,,,,,,,,,,,,,,,,,,,,13,,,,,,,,,,,,,,,,,,,,,,,,,,,,,,,,,,,,,,,,,,,,558.593,561.646,strongly agree,0,12,12,12,1,"I would never break a law, no matter how minor.",0,1,0,0,,
,,,,,,,,,667f1755b464b48413d1f6ea,,13 or older,"no, only English or Spanish",no,2025-08-12_15h51.07.220,empathy_intonation_perc_control,2024.2.4,Win32,60.0240096,667f1755b464b48413d1f6ea,68817205a84113384fffdfe3,689b9b07787abb9fee8d2d7c,,,,,,,,,,,,,,,,,,,,,,,,,,,14,,,,,,,,,,,,,,,,,,,,,,,,,,,,,,,,,,,,,,,,,,,,561.65,569.375,slightly disagree,0,13,13,13,1,I often find it difficult to judge if something is rude or polite.,1,0,0,1,,
,,,,,,,,,667f1755b464b48413d1f6ea,,13 or older,"no, only English or Spanish",no,2025-08-12_15h51.07.220,empathy_intonation_perc_control,2024.2.4,Win32,60.0240096,667f1755b464b48413d1f6ea,68817205a84113384fffdfe3,689b9b07787abb9fee8d2d7c,,,,,,,,,,,,,,,,,,,,,,,,,,,15,,,,,,,,,,,,,,,,,,,,,,,,,,,,,,,,,,,,,,,,,,,,569.378,571.845,slightly disagree,0,14,14,14,1,"In a conversation, I tend to focus on my own thoughts rather than on what 
  my listener might be thinking.",1,0,0,1,,
,,,,,,,,,667f1755b464b48413d1f6ea,,13 or older,"no, only English or Spanish",no,2025-08-12_15h51.07.220,empathy_intonation_perc_control,2024.2.4,Win32,60.0240096,667f1755b464b48413d1f6ea,68817205a84113384fffdfe3,689b9b07787abb9fee8d2d7c,,,,,,,,,,,,,,,,,,,,,,,,,,,16,,,,,,,,,,,,,,,,,,,,,,,,,,,,,,,,,,,,,,,,,,,,571.848,573.624,slightly disagree,0,15,15,15,1,I prefer practical jokes to verbal humor.,0,1,0,0,,
,,,,,,,,,667f1755b464b48413d1f6ea,,13 or older,"no, only English or Spanish",no,2025-08-12_15h51.07.220,empathy_intonation_perc_control,2024.2.4,Win32,60.0240096,667f1755b464b48413d1f6ea,68817205a84113384fffdfe3,689b9b07787abb9fee8d2d7c,,,,,,,,,,,,,,,,,,,,,,,,,,,17,,,,,,,,,,,,,,,,,,,,,,,,,,,,,,,,,,,,,,,,,,,,573.627,576.124,slightly agree,0,16,16,16,1,I live life for today rather than the future.,0,1,0,0,,
,,,,,,,,,667f1755b464b48413d1f6ea,,13 or older,"no, only English or Spanish",no,2025-08-12_15h51.07.220,empathy_intonation_perc_control,2024.2.4,Win32,60.0240096,667f1755b464b48413d1f6ea,68817205a84113384fffdfe3,689b9b07787abb9fee8d2d7c,,,,,,,,,,,,,,,,,,,,,,,,,,,18,,,,,,,,,,,,,,,,,,,,,,,,,,,,,,,,,,,,,,,,,,,,576.126,579.104,strongly disagree,0,17,17,17,1,"When I was a child, I enjoyed cutting up worms to see what would happen.",1,0,0,1,,
,,,,,,,,,667f1755b464b48413d1f6ea,,13 or older,"no, only English or Spanish",no,2025-08-12_15h51.07.220,empathy_intonation_perc_control,2024.2.4,Win32,60.0240096,667f1755b464b48413d1f6ea,68817205a84113384fffdfe3,689b9b07787abb9fee8d2d7c,,,,,,,,,,,,,,,,,,,,,,,,,,,19,,,,,,,,,,,,,,,,,,,,,,,,,,,,,,,,,,,,,,,,,,,,579.108,583.585,slightly agree,0,18,18,18,1,I can pick up quickly if someone says one thing but means another.,1,0,1,0,,
,,,,,,,,,667f1755b464b48413d1f6ea,,13 or older,"no, only English or Spanish",no,2025-08-12_15h51.07.220,empathy_intonation_perc_control,2024.2.4,Win32,60.0240096,667f1755b464b48413d1f6ea,68817205a84113384fffdfe3,689b9b07787abb9fee8d2d7c,,,,,,,,,,,,,,,,,,,,,,,,,,,20,,,,,,,,,,,,,,,,,,,,,,,,,,,,,,,,,,,,,,,,,,,,583.588,586.9,slightly disagree,0,19,19,19,1,I tend to have very strong opinions about morality.,0,1,0,0,,
,,,,,,,,,667f1755b464b48413d1f6ea,,13 or older,"no, only English or Spanish",no,2025-08-12_15h51.07.220,empathy_intonation_perc_control,2024.2.4,Win32,60.0240096,667f1755b464b48413d1f6ea,68817205a84113384fffdfe3,689b9b07787abb9fee8d2d7c,,,,,,,,,,,,,,,,,,,,,,,,,,,21,,,,,,,,,,,,,,,,,,,,,,,,,,,,,,,,,,,,,,,,,,,,586.904,589.133,slightly disagree,0,20,20,20,1,It is hard for me to see why some things upset people so much.,1,0,0,1,,
,,,,,,,,,667f1755b464b48413d1f6ea,,13 or older,"no, only English or Spanish",no,2025-08-12_15h51.07.220,empathy_intonation_perc_control,2024.2.4,Win32,60.0240096,667f1755b464b48413d1f6ea,68817205a84113384fffdfe3,689b9b07787abb9fee8d2d7c,,,,,,,,,,,,,,,,,,,,,,,,,,,22,,,,,,,,,,,,,,,,,,,,,,,,,,,,,,,,,,,,,,,,,,,,589.136,591.164,slightly agree,0,21,21,21,1,I find it easy to put myself in somebody else's shoes.,1,0,1,0,,
,,,,,,,,,667f1755b464b48413d1f6ea,,13 or older,"no, only English or Spanish",no,2025-08-12_15h51.07.220,empathy_intonation_perc_control,2024.2.4,Win32,60.0240096,667f1755b464b48413d1f6ea,68817205a84113384fffdfe3,689b9b07787abb9fee8d2d7c,,,,,,,,,,,,,,,,,,,,,,,,,,,23,,,,,,,,,,,,,,,,,,,,,,,,,,,,,,,,,,,,,,,,,,,,591.167,594.346,slightly disagree,0,22,22,22,1,I think that good manners are the most important thing a parent can teach their child.,0,1,0,0,,
,,,,,,,,,667f1755b464b48413d1f6ea,,13 or older,"no, only English or Spanish",no,2025-08-12_15h51.07.220,empathy_intonation_perc_control,2024.2.4,Win32,60.0240096,667f1755b464b48413d1f6ea,68817205a84113384fffdfe3,689b9b07787abb9fee8d2d7c,,,,,,,,,,,,,,,,,,,,,,,,,,,24,,,,,,,,,,,,,,,,,,,,,,,,,,,,,,,,,,,,,,,,,,,,594.348,596.194,slightly disagree,0,23,23,23,1,I like to do things on the spur of the moment.,0,1,0,0,,
,,,,,,,,,667f1755b464b48413d1f6ea,,13 or older,"no, only English or Spanish",no,2025-08-12_15h51.07.220,empathy_intonation_perc_control,2024.2.4,Win32,60.0240096,667f1755b464b48413d1f6ea,68817205a84113384fffdfe3,689b9b07787abb9fee8d2d7c,,,,,,,,,,,,,,,,,,,,,,,,,,,25,,,,,,,,,,,,,,,,,,,,,,,,,,,,,,,,,,,,,,,,,,,,596.197,597.678,slightly disagree,0,24,24,24,1,I am good at predicting how someone will feel.,1,0,1,0,,
,,,,,,,,,667f1755b464b48413d1f6ea,,13 or older,"no, only English or Spanish",no,2025-08-12_15h51.07.220,empathy_intonation_perc_control,2024.2.4,Win32,60.0240096,667f1755b464b48413d1f6ea,68817205a84113384fffdfe3,689b9b07787abb9fee8d2d7c,,,,,,,,,,,,,,,,,,,,,,,,,,,26,,,,,,,,,,,,,,,,,,,,,,,,,,,,,,,,,,,,,,,,,,,,597.681,599.426,slightly disagree,0,25,25,25,1,I am quick to spot when someone in a group is feeling awkward or uncomfortable.,1,0,1,0,,
,,,,,,,,,667f1755b464b48413d1f6ea,,13 or older,"no, only English or Spanish",no,2025-08-12_15h51.07.220,empathy_intonation_perc_control,2024.2.4,Win32,60.0240096,667f1755b464b48413d1f6ea,68817205a84113384fffdfe3,689b9b07787abb9fee8d2d7c,,,,,,,,,,,,,,,,,,,,,,,,,,,27,,,,,,,,,,,,,,,,,,,,,,,,,,,,,,,,,,,,,,,,,,,,599.431,603.377,strongly disagree,0,26,26,26,1,"If I say something that someone else is offended by, I think that that's their problem, not mine.",1,0,0,1,,
,,,,,,,,,667f1755b464b48413d1f6ea,,13 or older,"no, only English or Spanish",no,2025-08-12_15h51.07.220,empathy_intonation_perc_control,2024.2.4,Win32,60.0240096,667f1755b464b48413d1f6ea,68817205a84113384fffdfe3,689b9b07787abb9fee8d2d7c,,,,,,,,,,,,,,,,,,,,,,,,,,,28,,,,,,,,,,,,,,,,,,,,,,,,,,,,,,,,,,,,,,,,,,,,603.381,607.059,slightly disagree,0,27,27,27,1,"If anyone asked me if I liked their haircut, I would reply truthfully, even if I didn't like it.",1,0,0,1,,
,,,,,,,,,667f1755b464b48413d1f6ea,,13 or older,"no, only English or Spanish",no,2025-08-12_15h51.07.220,empathy_intonation_perc_control,2024.2.4,Win32,60.0240096,667f1755b464b48413d1f6ea,68817205a84113384fffdfe3,689b9b07787abb9fee8d2d7c,,,,,,,,,,,,,,,,,,,,,,,,,,,29,,,,,,,,,,,,,,,,,,,,,,,,,,,,,,,,,,,,,,,,,,,,607.061,611.97,slightly disagree,0,28,28,28,1,I can't always see why someone should have felt offended by a remark.,1,0,0,1,,
,,,,,,,,,667f1755b464b48413d1f6ea,,13 or older,"no, only English or Spanish",no,2025-08-12_15h51.07.220,empathy_intonation_perc_control,2024.2.4,Win32,60.0240096,667f1755b464b48413d1f6ea,68817205a84113384fffdfe3,689b9b07787abb9fee8d2d7c,,,,,,,,,,,,,,,,,,,,,,,,,,,30,,,,,,,,,,,,,,,,,,,,,,,,,,,,,,,,,,,,,,,,,,,,611.974,613.886,slightly disagree,0,29,29,29,1,People often tell me that I am very unpredictable.,0,1,0,0,,
