instructions_2afc.started,instructions_2afc.stopped,instructions_2afc_loop.thisRepN,instructions_2afc_loop.thisTrialN,instructions_2afc_loop.thisN,instructions_2afc_loop.thisIndex,instructions_2afc_loop.ran,instructions_text,continue_text,participant_id,"What variety of Spanish are you most familiar with? (e.g., Peruvian, Spanish, Mexican)",At what age did you begin learning Spanish?,Are you proficient in any languages other than English/Spanish?,"Are you familiar with Caribbean (e.g., Caribbean, Puerto Rican) or Galician Spanish?",date,expName,psychopyVersion,OS,frameRate,id,study_id,session,practice_2afc.started,practice_2afc.stopped,key_resp_2afc_practice.keys,key_resp_2afc_practice.corr,key_resp_2afc_practice.rt,key_resp_2afc_practice.duration,trials_2afc_practice_loop.thisRepN,trials_2afc_practice_loop.thisTrialN,trials_2afc_practice_loop.thisN,trials_2afc_practice_loop.thisIndex,trials_2afc_practice_loop.ran,path,correct_response,check_2afc.started,check_2afc.stopped,trial_2afc.started,trial_2afc.stopped,key_resp_2afc_trial.keys,key_resp_2afc_trial.corr,key_resp_2afc_trial.rt,key_resp_2afc_trial.duration,trials_2afc_loop.thisRepN,trials_2afc_loop.thisTrialN,trials_2afc_loop.thisN,trials_2afc_loop.thisIndex,trials_2afc_loop.ran,item_num,target,variety,instructions_lextale.started,instructions_lextale.stopped,instructions_lextale_loop.thisRepN,instructions_lextale_loop.thisTrialN,instructions_lextale_loop.thisN,instructions_lextale_loop.thisIndex,instructions_lextale_loop.ran,practice_lextale.started,practice_lextale.stopped,key_resp_lextale_practice.keys,key_resp_lextale_practice.corr,key_resp_lextale_practice.rt,key_resp_lextale_practice.duration,practice_feedback_lextale.started,practice_feedback_lextale.stopped,trials_lextale_practice_loop.thisRepN,trials_lextale_practice_loop.thisTrialN,trials_lextale_practice_loop.thisN,trials_lextale_practice_loop.thisIndex,trials_lextale_practice_loop.ran,stim,word,prac_button_real,prac_button_false,check_lextale.started,check_lextale.stopped,trial_lextale.started,trial_lextale.stopped,key_resp_lextale_trial.keys,key_resp_lextale_trial.corr,key_resp_lextale_trial.rt,key_resp_lextale_trial.duration,trials_lextale_loop.thisRepN,trials_lextale_loop.thisTrialN,trials_lextale_loop.thisN,trials_lextale_loop.thisIndex,trials_lextale_loop.ran,button_real,button_false,instructions_eq.started,instructions_eq.stopped,trial_eq.started,trial_eq.stopped,slider_eq_trial.response,trials_eq_loop.thisRepN,trials_eq_loop.thisTrialN,trials_eq_loop.thisN,trials_eq_loop.thisIndex,trials_eq_loop.ran,item,is_test_item,is_distractor,is_agree_score,is_disagree_score,end_exp.started,end_exp.stopped
0.007,4.724,0,0,0,0,1,"In the following task you are going to hear a series of utterances. 

  You will decide if the utterances sound like questions or not using your keyboard.", (press the spacebar to continue),6685c283c7d2e84750290782,mexican,13 or older,"no, only English or Spanish",no,2025-08-12_15h32.06.043,empathy_intonation_perc_control,2024.2.4,MacIntel,58.82352941,6685c283c7d2e84750290782,68817205a84113384fffdfe3,689b9693c64c585cb1547334,,,,,,,,,,,,,,,,,,,,,,,,,,,,,,,,,,,,,,,,,,,,,,,,,,,,,,,,,,,,,,,,,,,,,,,,,,,,,,,,,,,,,
4.725,9.264,0,1,1,1,1,"If you believe the utterance is a question, type '1' (for 'yes') and if you do not 
  believe it is a question type '0' (for 'no').

  Let's practice a bit...", (press the spacebar to continue),6685c283c7d2e84750290782,mexican,13 or older,"no, only English or Spanish",no,2025-08-12_15h32.06.043,empathy_intonation_perc_control,2024.2.4,MacIntel,58.82352941,6685c283c7d2e84750290782,68817205a84113384fffdfe3,689b9693c64c585cb1547334,,,,,,,,,,,,,,,,,,,,,,,,,,,,,,,,,,,,,,,,,,,,,,,,,,,,,,,,,,,,,,,,,,,,,,,,,,,,,,,,,,,,,
,,,,,,,,,6685c283c7d2e84750290782,mexican,13 or older,"no, only English or Spanish",no,2025-08-12_15h32.06.043,empathy_intonation_perc_control,2024.2.4,MacIntel,58.82352941,6685c283c7d2e84750290782,68817205a84113384fffdfe3,689b9693c64c585cb1547334,9.274,12.429,1,1,2.628,,0,0,0,0,1,./stim/wavs/castilian_question_filler_Mi-esposo-conoce-al-chico.wav,1,,,,,,,,,,,,,,,,,,,,,,,,,,,,,,,,,,,,,,,,,,,,,,,,,,,,,,,,,,,,,,,,,,,,,,,,
,,,,,,,,,6685c283c7d2e84750290782,mexican,13 or older,"no, only English or Spanish",no,2025-08-12_15h32.06.043,empathy_intonation_perc_control,2024.2.4,MacIntel,58.82352941,6685c283c7d2e84750290782,68817205a84113384fffdfe3,689b9693c64c585cb1547334,12.43,14.741,1,1,1.793,,0,1,1,1,1,./stim/wavs/argentine_question_filler_Mi-vecino-habla-mucho.wav,1,,,,,,,,,,,,,,,,,,,,,,,,,,,,,,,,,,,,,,,,,,,,,,,,,,,,,,,,,,,,,,,,,,,,,,,,
,,,,,,,,,6685c283c7d2e84750290782,mexican,13 or older,"no, only English or Spanish",no,2025-08-12_15h32.06.043,empathy_intonation_perc_control,2024.2.4,MacIntel,58.82352941,6685c283c7d2e84750290782,68817205a84113384fffdfe3,689b9693c64c585cb1547334,14.742,17.415,0,1,2.166,,0,2,2,7,1,./stim/wavs/puertorican_statement_filler_La-nina-pinta-con-su-amiga.wav,0,,,,,,,,,,,,,,,,,,,,,,,,,,,,,,,,,,,,,,,,,,,,,,,,,,,,,,,,,,,,,,,,,,,,,,,,
,,,,,,,,,6685c283c7d2e84750290782,mexican,13 or older,"no, only English or Spanish",no,2025-08-12_15h32.06.043,empathy_intonation_perc_control,2024.2.4,MacIntel,58.82352941,6685c283c7d2e84750290782,68817205a84113384fffdfe3,689b9693c64c585cb1547334,17.415,20.125,1,1,2.198,,0,3,3,3,1,./stim/wavs/mexican_question_filler_Felipe-no-tiene-contrasena.wav,1,,,,,,,,,,,,,,,,,,,,,,,,,,,,,,,,,,,,,,,,,,,,,,,,,,,,,,,,,,,,,,,,,,,,,,,,
,,,,,,,,,6685c283c7d2e84750290782,mexican,13 or older,"no, only English or Spanish",no,2025-08-12_15h32.06.043,empathy_intonation_perc_control,2024.2.4,MacIntel,58.82352941,6685c283c7d2e84750290782,68817205a84113384fffdfe3,689b9693c64c585cb1547334,20.126,23.212,0,0,2.569,,0,4,4,2,1,./stim/wavs/chilean_question_filler_Mi-padre-cantaba-bien.wav,1,,,,,,,,,,,,,,,,,,,,,,,,,,,,,,,,,,,,,,,,,,,,,,,,,,,,,,,,,,,,,,,,,,,,,,,,
,,,,,,,,,6685c283c7d2e84750290782,mexican,13 or older,"no, only English or Spanish",no,2025-08-12_15h32.06.043,empathy_intonation_perc_control,2024.2.4,MacIntel,58.82352941,6685c283c7d2e84750290782,68817205a84113384fffdfe3,689b9693c64c585cb1547334,23.213,25.731,0,1,1.998,,0,5,5,4,1,./stim/wavs/cuban_statement_filler_Cocinabas-por-la-noche.wav,0,,,,,,,,,,,,,,,,,,,,,,,,,,,,,,,,,,,,,,,,,,,,,,,,,,,,,,,,,,,,,,,,,,,,,,,,
,,,,,,,,,6685c283c7d2e84750290782,mexican,13 or older,"no, only English or Spanish",no,2025-08-12_15h32.06.043,empathy_intonation_perc_control,2024.2.4,MacIntel,58.82352941,6685c283c7d2e84750290782,68817205a84113384fffdfe3,689b9693c64c585cb1547334,25.732,28.779,0,1,2.532,,0,6,6,6,1,./stim/wavs/peruvian_statement_filler_El-nino-habla-con-su-madre.wav,0,,,,,,,,,,,,,,,,,,,,,,,,,,,,,,,,,,,,,,,,,,,,,,,,,,,,,,,,,,,,,,,,,,,,,,,,
,,,,,,,,,6685c283c7d2e84750290782,mexican,13 or older,"no, only English or Spanish",no,2025-08-12_15h32.06.043,empathy_intonation_perc_control,2024.2.4,MacIntel,58.82352941,6685c283c7d2e84750290782,68817205a84113384fffdfe3,689b9693c64c585cb1547334,28.78,31.356,0,1,2.068,,0,7,7,5,1,./stim/wavs/andalusian_statement_filler_Alberto-nunca-se-afeita.wav,0,,,,,,,,,,,,,,,,,,,,,,,,,,,,,,,,,,,,,,,,,,,,,,,,,,,,,,,,,,,,,,,,,,,,,,,,
,,,,,,,,,6685c283c7d2e84750290782,mexican,13 or older,"no, only English or Spanish",no,2025-08-12_15h32.06.043,empathy_intonation_perc_control,2024.2.4,MacIntel,58.82352941,6685c283c7d2e84750290782,68817205a84113384fffdfe3,689b9693c64c585cb1547334,,,,,,,,,,,,,,31.357,34.159,,,,,,,,,,,,,,,,,,,,,,,,,,,,,,,,,,,,,,,,,,,,,,,,,,,,,,,,,,,,,,,,,,,,,,
,,,,,,,,,6685c283c7d2e84750290782,mexican,13 or older,"no, only English or Spanish",no,2025-08-12_15h32.06.043,empathy_intonation_perc_control,2024.2.4,MacIntel,58.82352941,6685c283c7d2e84750290782,68817205a84113384fffdfe3,689b9693c64c585cb1547334,,,,,,,,,,,,./stim/wavs/castilian_match_declarative-broad-focus_Mariano-habla-del-tiempo.wav,0,,,34.17,37.149,0,1,2.467,,0,0,0,48,1,49,0,castilian,,,,,,,,,,,,,,,,,,,,,,,,,,,,,,,,,,,,,,,,,,,,,,,,,,,,,,,,
,,,,,,,,,6685c283c7d2e84750290782,mexican,13 or older,"no, only English or Spanish",no,2025-08-12_15h32.06.043,empathy_intonation_perc_control,2024.2.4,MacIntel,58.82352941,6685c283c7d2e84750290782,68817205a84113384fffdfe3,689b9693c64c585cb1547334,,,,,,,,,,,,./stim/wavs/cuban_match_interrogative-total-yn_Manuela-vende-el-carro.wav,1,,,37.15,39.581,0,0,1.917,,0,1,1,8,1,9,1,cuban,,,,,,,,,,,,,,,,,,,,,,,,,,,,,,,,,,,,,,,,,,,,,,,,,,,,,,,,
,,,,,,,,,6685c283c7d2e84750290782,mexican,13 or older,"no, only English or Spanish",no,2025-08-12_15h32.06.043,empathy_intonation_perc_control,2024.2.4,MacIntel,58.82352941,6685c283c7d2e84750290782,68817205a84113384fffdfe3,689b9693c64c585cb1547334,,,,,,,,,,,,./stim/wavs/mexican_mismatch_interrogative-total-yn_El-nino-oye-el-rio.wav,1,,,39.582,41.907,1,1,1.812,,0,2,2,35,1,36,0,mexican,,,,,,,,,,,,,,,,,,,,,,,,,,,,,,,,,,,,,,,,,,,,,,,,,,,,,,,,
,,,,,,,,,6685c283c7d2e84750290782,mexican,13 or older,"no, only English or Spanish",no,2025-08-12_15h32.06.043,empathy_intonation_perc_control,2024.2.4,MacIntel,58.82352941,6685c283c7d2e84750290782,68817205a84113384fffdfe3,689b9693c64c585cb1547334,,,,,,,,,,,,./stim/wavs/puertorican_mismatch_declarative-broad-focus_La-maestra-vive-en-Paris.wav,0,,,41.908,44.366,0,1,1.935,,0,3,3,86,1,87,0,puertorican,,,,,,,,,,,,,,,,,,,,,,,,,,,,,,,,,,,,,,,,,,,,,,,,,,,,,,,,
,,,,,,,,,6685c283c7d2e84750290782,mexican,13 or older,"no, only English or Spanish",no,2025-08-12_15h32.06.043,empathy_intonation_perc_control,2024.2.4,MacIntel,58.82352941,6685c283c7d2e84750290782,68817205a84113384fffdfe3,689b9693c64c585cb1547334,,,,,,,,,,,,./stim/wavs/puertorican_match_declarative-broad-focus_Maria-bebe-el-vino.wav,0,,,44.367,46.522,1,0,1.632,,0,4,4,67,1,68,0,puertorican,,,,,,,,,,,,,,,,,,,,,,,,,,,,,,,,,,,,,,,,,,,,,,,,,,,,,,,,
,,,,,,,,,6685c283c7d2e84750290782,mexican,13 or older,"no, only English or Spanish",no,2025-08-12_15h32.06.043,empathy_intonation_perc_control,2024.2.4,MacIntel,58.82352941,6685c283c7d2e84750290782,68817205a84113384fffdfe3,689b9693c64c585cb1547334,,,,,,,,,,,,./stim/wavs/cuban_mismatch_declarative-broad-focus_Mi-tia-odia-la-lluvia.wav,0,,,46.522,49.172,0,1,2.139,,0,5,5,77,1,78,0,cuban,,,,,,,,,,,,,,,,,,,,,,,,,,,,,,,,,,,,,,,,,,,,,,,,,,,,,,,,
,,,,,,,,,6685c283c7d2e84750290782,mexican,13 or older,"no, only English or Spanish",no,2025-08-12_15h32.06.043,empathy_intonation_perc_control,2024.2.4,MacIntel,58.82352941,6685c283c7d2e84750290782,68817205a84113384fffdfe3,689b9693c64c585cb1547334,,,,,,,,,,,,./stim/wavs/mexican_mismatch_declarative-broad-focus_El-bebe-comia-muy-bien.wav,0,,,49.173,51.459,1,0,1.773,,0,6,6,78,1,79,0,mexican,,,,,,,,,,,,,,,,,,,,,,,,,,,,,,,,,,,,,,,,,,,,,,,,,,,,,,,,
,,,,,,,,,6685c283c7d2e84750290782,mexican,13 or older,"no, only English or Spanish",no,2025-08-12_15h32.06.043,empathy_intonation_perc_control,2024.2.4,MacIntel,58.82352941,6685c283c7d2e84750290782,68817205a84113384fffdfe3,689b9693c64c585cb1547334,,,,,,,,,,,,./stim/wavs/mexican_mismatch_interrogative-total-yn_Mi-tia-odia-la-lluvia.wav,1,,,51.46,53.64,1,1,1.667,,0,7,7,38,1,39,0,mexican,,,,,,,,,,,,,,,,,,,,,,,,,,,,,,,,,,,,,,,,,,,,,,,,,,,,,,,,
,,,,,,,,,6685c283c7d2e84750290782,mexican,13 or older,"no, only English or Spanish",no,2025-08-12_15h32.06.043,empathy_intonation_perc_control,2024.2.4,MacIntel,58.82352941,6685c283c7d2e84750290782,68817205a84113384fffdfe3,689b9693c64c585cb1547334,,,,,,,,,,,,./stim/wavs/castilian_mismatch_interrogative-total-yn_Mi-tia-odia-la-lluvia.wav,1,,,53.641,55.977,1,1,1.827,,0,8,8,28,1,29,0,castilian,,,,,,,,,,,,,,,,,,,,,,,,,,,,,,,,,,,,,,,,,,,,,,,,,,,,,,,,
,,,,,,,,,6685c283c7d2e84750290782,mexican,13 or older,"no, only English or Spanish",no,2025-08-12_15h32.06.043,empathy_intonation_perc_control,2024.2.4,MacIntel,58.82352941,6685c283c7d2e84750290782,68817205a84113384fffdfe3,689b9693c64c585cb1547334,,,,,,,,,,,,./stim/wavs/mexican_match_declarative-broad-focus_David-leia-el-libro.wav,0,,,55.977,58.594,0,1,2.093,,0,9,9,58,1,59,0,mexican,,,,,,,,,,,,,,,,,,,,,,,,,,,,,,,,,,,,,,,,,,,,,,,,,,,,,,,,
,,,,,,,,,6685c283c7d2e84750290782,mexican,13 or older,"no, only English or Spanish",no,2025-08-12_15h32.06.043,empathy_intonation_perc_control,2024.2.4,MacIntel,58.82352941,6685c283c7d2e84750290782,68817205a84113384fffdfe3,689b9693c64c585cb1547334,,,,,,,,,,,,./stim/wavs/cuban_mismatch_interrogative-total-yn_El-nino-oye-el-rio.wav,1,,,58.595,60.888,0,0,1.783,,0,10,10,30,1,31,1,cuban,,,,,,,,,,,,,,,,,,,,,,,,,,,,,,,,,,,,,,,,,,,,,,,,,,,,,,,,
,,,,,,,,,6685c283c7d2e84750290782,mexican,13 or older,"no, only English or Spanish",no,2025-08-12_15h32.06.043,empathy_intonation_perc_control,2024.2.4,MacIntel,58.82352941,6685c283c7d2e84750290782,68817205a84113384fffdfe3,689b9693c64c585cb1547334,,,,,,,,,,,,./stim/wavs/puertorican_mismatch_interrogative-total-yn_Mi-madre-come-la-fruta.wav,1,,,60.889,63.131,0,0,1.729,,0,11,11,43,1,44,1,puertorican,,,,,,,,,,,,,,,,,,,,,,,,,,,,,,,,,,,,,,,,,,,,,,,,,,,,,,,,
,,,,,,,,,6685c283c7d2e84750290782,mexican,13 or older,"no, only English or Spanish",no,2025-08-12_15h32.06.043,empathy_intonation_perc_control,2024.2.4,MacIntel,58.82352941,6685c283c7d2e84750290782,68817205a84113384fffdfe3,689b9693c64c585cb1547334,,,,,,,,,,,,./stim/wavs/castilian_match_declarative-broad-focus_Marta-abre-el-regalo.wav,0,,,63.132,65.417,0,1,1.771,,0,12,12,49,1,50,0,castilian,,,,,,,,,,,,,,,,,,,,,,,,,,,,,,,,,,,,,,,,,,,,,,,,,,,,,,,,
,,,,,,,,,6685c283c7d2e84750290782,mexican,13 or older,"no, only English or Spanish",no,2025-08-12_15h32.06.043,empathy_intonation_perc_control,2024.2.4,MacIntel,58.82352941,6685c283c7d2e84750290782,68817205a84113384fffdfe3,689b9693c64c585cb1547334,,,,,,,,,,,,./stim/wavs/castilian_match_declarative-broad-focus_Emilio-ama-la-marcha.wav,0,,,65.418,67.917,0,1,1.977,,0,13,13,45,1,46,0,castilian,,,,,,,,,,,,,,,,,,,,,,,,,,,,,,,,,,,,,,,,,,,,,,,,,,,,,,,,
,,,,,,,,,6685c283c7d2e84750290782,mexican,13 or older,"no, only English or Spanish",no,2025-08-12_15h32.06.043,empathy_intonation_perc_control,2024.2.4,MacIntel,58.82352941,6685c283c7d2e84750290782,68817205a84113384fffdfe3,689b9693c64c585cb1547334,,,,,,,,,,,,./stim/wavs/castilian_mismatch_interrogative-total-yn_La-maestra-vive-en-Paris.wav,1,,,67.918,70.509,1,1,2.079,,0,14,14,24,1,25,0,castilian,,,,,,,,,,,,,,,,,,,,,,,,,,,,,,,,,,,,,,,,,,,,,,,,,,,,,,,,
,,,,,,,,,6685c283c7d2e84750290782,mexican,13 or older,"no, only English or Spanish",no,2025-08-12_15h32.06.043,empathy_intonation_perc_control,2024.2.4,MacIntel,58.82352941,6685c283c7d2e84750290782,68817205a84113384fffdfe3,689b9693c64c585cb1547334,,,,,,,,,,,,./stim/wavs/mexican_mismatch_interrogative-total-yn_La-maestra-vive-en-Paris.wav,1,,,70.51,72.886,1,1,1.856,,0,15,15,36,1,37,0,mexican,,,,,,,,,,,,,,,,,,,,,,,,,,,,,,,,,,,,,,,,,,,,,,,,,,,,,,,,
,,,,,,,,,6685c283c7d2e84750290782,mexican,13 or older,"no, only English or Spanish",no,2025-08-12_15h32.06.043,empathy_intonation_perc_control,2024.2.4,MacIntel,58.82352941,6685c283c7d2e84750290782,68817205a84113384fffdfe3,689b9693c64c585cb1547334,,,,,,,,,,,,./stim/wavs/castilian_mismatch_declarative-broad-focus_Mi-tia-odia-la-lluvia.wav,0,,,72.887,75.707,0,1,2.305,,0,16,16,72,1,73,0,castilian,,,,,,,,,,,,,,,,,,,,,,,,,,,,,,,,,,,,,,,,,,,,,,,,,,,,,,,,
,,,,,,,,,6685c283c7d2e84750290782,mexican,13 or older,"no, only English or Spanish",no,2025-08-12_15h32.06.043,empathy_intonation_perc_control,2024.2.4,MacIntel,58.82352941,6685c283c7d2e84750290782,68817205a84113384fffdfe3,689b9693c64c585cb1547334,,,,,,,,,,,,./stim/wavs/cuban_match_declarative-broad-focus_Maria-bebe-el-vino.wav,0,,,75.707,78.41,0,1,2.175,,0,17,17,53,1,54,0,cuban,,,,,,,,,,,,,,,,,,,,,,,,,,,,,,,,,,,,,,,,,,,,,,,,,,,,,,,,
,,,,,,,,,6685c283c7d2e84750290782,mexican,13 or older,"no, only English or Spanish",no,2025-08-12_15h32.06.043,empathy_intonation_perc_control,2024.2.4,MacIntel,58.82352941,6685c283c7d2e84750290782,68817205a84113384fffdfe3,689b9693c64c585cb1547334,,,,,,,,,,,,./stim/wavs/mexican_mismatch_interrogative-total-yn_Mi-novio-viene-del-lago.wav,1,,,78.411,80.806,1,1,1.877,,0,18,18,37,1,38,0,mexican,,,,,,,,,,,,,,,,,,,,,,,,,,,,,,,,,,,,,,,,,,,,,,,,,,,,,,,,
,,,,,,,,,6685c283c7d2e84750290782,mexican,13 or older,"no, only English or Spanish",no,2025-08-12_15h32.06.043,empathy_intonation_perc_control,2024.2.4,MacIntel,58.82352941,6685c283c7d2e84750290782,68817205a84113384fffdfe3,689b9693c64c585cb1547334,,,,,,,,,,,,./stim/wavs/mexican_mismatch_declarative-broad-focus_Mi-tia-odia-la-lluvia.wav,0,,,80.807,83.501,0,1,2.184,,0,19,19,82,1,83,0,mexican,,,,,,,,,,,,,,,,,,,,,,,,,,,,,,,,,,,,,,,,,,,,,,,,,,,,,,,,
,,,,,,,,,6685c283c7d2e84750290782,mexican,13 or older,"no, only English or Spanish",no,2025-08-12_15h32.06.043,empathy_intonation_perc_control,2024.2.4,MacIntel,58.82352941,6685c283c7d2e84750290782,68817205a84113384fffdfe3,689b9693c64c585cb1547334,,,,,,,,,,,,./stim/wavs/cuban_mismatch_interrogative-total-yn_Mi-tia-odia-la-lluvia.wav,1,,,83.502,85.963,0,0,1.944,,0,20,20,33,1,34,1,cuban,,,,,,,,,,,,,,,,,,,,,,,,,,,,,,,,,,,,,,,,,,,,,,,,,,,,,,,,
,,,,,,,,,6685c283c7d2e84750290782,mexican,13 or older,"no, only English or Spanish",no,2025-08-12_15h32.06.043,empathy_intonation_perc_control,2024.2.4,MacIntel,58.82352941,6685c283c7d2e84750290782,68817205a84113384fffdfe3,689b9693c64c585cb1547334,,,,,,,,,,,,./stim/wavs/mexican_mismatch_declarative-broad-focus_La-maestra-vive-en-Paris.wav,0,,,85.964,89.239,0,1,2.765,,0,21,21,80,1,81,0,mexican,,,,,,,,,,,,,,,,,,,,,,,,,,,,,,,,,,,,,,,,,,,,,,,,,,,,,,,,
,,,,,,,,,6685c283c7d2e84750290782,mexican,13 or older,"no, only English or Spanish",no,2025-08-12_15h32.06.043,empathy_intonation_perc_control,2024.2.4,MacIntel,58.82352941,6685c283c7d2e84750290782,68817205a84113384fffdfe3,689b9693c64c585cb1547334,,,,,,,,,,,,./stim/wavs/castilian_mismatch_interrogative-total-yn_Mi-novio-viene-del-lago.wav,1,,,89.24,91.835,1,1,2.082,,0,22,22,27,1,28,0,castilian,,,,,,,,,,,,,,,,,,,,,,,,,,,,,,,,,,,,,,,,,,,,,,,,,,,,,,,,
,,,,,,,,,6685c283c7d2e84750290782,mexican,13 or older,"no, only English or Spanish",no,2025-08-12_15h32.06.043,empathy_intonation_perc_control,2024.2.4,MacIntel,58.82352941,6685c283c7d2e84750290782,68817205a84113384fffdfe3,689b9693c64c585cb1547334,,,,,,,,,,,,./stim/wavs/mexican_mismatch_declarative-broad-focus_El-hombre-mira-la-luna.wav,0,,,91.837,94.238,0,1,1.884,,0,23,23,79,1,80,0,mexican,,,,,,,,,,,,,,,,,,,,,,,,,,,,,,,,,,,,,,,,,,,,,,,,,,,,,,,,
,,,,,,,,,6685c283c7d2e84750290782,mexican,13 or older,"no, only English or Spanish",no,2025-08-12_15h32.06.043,empathy_intonation_perc_control,2024.2.4,MacIntel,58.82352941,6685c283c7d2e84750290782,68817205a84113384fffdfe3,689b9693c64c585cb1547334,,,,,,,,,,,,./stim/wavs/puertorican_match_interrogative-total-yn_David-leia-el-libro.wav,1,,,94.239,96.301,0,0,1.534,,0,24,24,20,1,21,1,puertorican,,,,,,,,,,,,,,,,,,,,,,,,,,,,,,,,,,,,,,,,,,,,,,,,,,,,,,,,
,,,,,,,,,6685c283c7d2e84750290782,mexican,13 or older,"no, only English or Spanish",no,2025-08-12_15h32.06.043,empathy_intonation_perc_control,2024.2.4,MacIntel,58.82352941,6685c283c7d2e84750290782,68817205a84113384fffdfe3,689b9693c64c585cb1547334,,,,,,,,,,,,./stim/wavs/cuban_match_declarative-broad-focus_Daniel-iba-a-Bolivia.wav,0,,,96.301,99.369,0,1,2.555,,0,25,25,51,1,52,0,cuban,,,,,,,,,,,,,,,,,,,,,,,,,,,,,,,,,,,,,,,,,,,,,,,,,,,,,,,,
,,,,,,,,,6685c283c7d2e84750290782,mexican,13 or older,"no, only English or Spanish",no,2025-08-12_15h32.06.043,empathy_intonation_perc_control,2024.2.4,MacIntel,58.82352941,6685c283c7d2e84750290782,68817205a84113384fffdfe3,689b9693c64c585cb1547334,,,,,,,,,,,,./stim/wavs/cuban_match_declarative-broad-focus_Mariano-habla-del-tiempo.wav,0,,,99.37,101.792,0,1,1.909,,0,26,26,54,1,55,0,cuban,,,,,,,,,,,,,,,,,,,,,,,,,,,,,,,,,,,,,,,,,,,,,,,,,,,,,,,,
,,,,,,,,,6685c283c7d2e84750290782,mexican,13 or older,"no, only English or Spanish",no,2025-08-12_15h32.06.043,empathy_intonation_perc_control,2024.2.4,MacIntel,58.82352941,6685c283c7d2e84750290782,68817205a84113384fffdfe3,689b9693c64c585cb1547334,,,,,,,,,,,,./stim/wavs/castilian_mismatch_interrogative-total-yn_La-nina-lava-el-plato.wav,1,,,101.793,104.225,1,1,1.917,,0,27,27,25,1,26,0,castilian,,,,,,,,,,,,,,,,,,,,,,,,,,,,,,,,,,,,,,,,,,,,,,,,,,,,,,,,
,,,,,,,,,6685c283c7d2e84750290782,mexican,13 or older,"no, only English or Spanish",no,2025-08-12_15h32.06.043,empathy_intonation_perc_control,2024.2.4,MacIntel,58.82352941,6685c283c7d2e84750290782,68817205a84113384fffdfe3,689b9693c64c585cb1547334,,,,,,,,,,,,./stim/wavs/mexican_match_interrogative-total-yn_David-leia-el-libro.wav,1,,,104.226,106.633,1,1,1.901,,0,28,28,14,1,15,0,mexican,,,,,,,,,,,,,,,,,,,,,,,,,,,,,,,,,,,,,,,,,,,,,,,,,,,,,,,,
,,,,,,,,,6685c283c7d2e84750290782,mexican,13 or older,"no, only English or Spanish",no,2025-08-12_15h32.06.043,empathy_intonation_perc_control,2024.2.4,MacIntel,58.82352941,6685c283c7d2e84750290782,68817205a84113384fffdfe3,689b9693c64c585cb1547334,,,,,,,,,,,,./stim/wavs/puertorican_match_interrogative-total-yn_Ana-lleva-el-abrigo.wav,1,,,106.634,108.728,0,0,1.573,,0,29,29,18,1,19,1,puertorican,,,,,,,,,,,,,,,,,,,,,,,,,,,,,,,,,,,,,,,,,,,,,,,,,,,,,,,,
,,,,,,,,,6685c283c7d2e84750290782,mexican,13 or older,"no, only English or Spanish",no,2025-08-12_15h32.06.043,empathy_intonation_perc_control,2024.2.4,MacIntel,58.82352941,6685c283c7d2e84750290782,68817205a84113384fffdfe3,689b9693c64c585cb1547334,,,,,,,,,,,,./stim/wavs/puertorican_match_interrogative-total-yn_Emilio-ama-la-marcha.wav,1,,,108.729,110.813,0,0,1.569,,0,30,30,21,1,22,1,puertorican,,,,,,,,,,,,,,,,,,,,,,,,,,,,,,,,,,,,,,,,,,,,,,,,,,,,,,,,
,,,,,,,,,6685c283c7d2e84750290782,mexican,13 or older,"no, only English or Spanish",no,2025-08-12_15h32.06.043,empathy_intonation_perc_control,2024.2.4,MacIntel,58.82352941,6685c283c7d2e84750290782,68817205a84113384fffdfe3,689b9693c64c585cb1547334,,,,,,,,,,,,./stim/wavs/castilian_match_interrogative-total-yn_Marta-abre-el-regalo.wav,1,,,110.814,113.191,1,1,1.857,,0,31,31,5,1,6,0,castilian,,,,,,,,,,,,,,,,,,,,,,,,,,,,,,,,,,,,,,,,,,,,,,,,,,,,,,,,
,,,,,,,,,6685c283c7d2e84750290782,mexican,13 or older,"no, only English or Spanish",no,2025-08-12_15h32.06.043,empathy_intonation_perc_control,2024.2.4,MacIntel,58.82352941,6685c283c7d2e84750290782,68817205a84113384fffdfe3,689b9693c64c585cb1547334,,,,,,,,,,,,./stim/wavs/cuban_match_interrogative-total-yn_Mariano-habla-del-tiempo.wav,1,,,113.192,115.799,0,0,2.095,,0,32,32,10,1,11,1,cuban,,,,,,,,,,,,,,,,,,,,,,,,,,,,,,,,,,,,,,,,,,,,,,,,,,,,,,,,
,,,,,,,,,6685c283c7d2e84750290782,mexican,13 or older,"no, only English or Spanish",no,2025-08-12_15h32.06.043,empathy_intonation_perc_control,2024.2.4,MacIntel,58.82352941,6685c283c7d2e84750290782,68817205a84113384fffdfe3,689b9693c64c585cb1547334,,,,,,,,,,,,./stim/wavs/mexican_mismatch_interrogative-total-yn_El-hombre-mira-la-luna.wav,1,,,115.8,118.315,0,0,2.002,,0,33,33,34,1,35,0,mexican,,,,,,,,,,,,,,,,,,,,,,,,,,,,,,,,,,,,,,,,,,,,,,,,,,,,,,,,
,,,,,,,,,6685c283c7d2e84750290782,mexican,13 or older,"no, only English or Spanish",no,2025-08-12_15h32.06.043,empathy_intonation_perc_control,2024.2.4,MacIntel,58.82352941,6685c283c7d2e84750290782,68817205a84113384fffdfe3,689b9693c64c585cb1547334,,,,,,,,,,,,./stim/wavs/puertorican_mismatch_declarative-broad-focus_La-nina-lava-el-plato.wav,0,,,118.315,120.496,0,1,1.675,,0,34,34,87,1,88,0,puertorican,,,,,,,,,,,,,,,,,,,,,,,,,,,,,,,,,,,,,,,,,,,,,,,,,,,,,,,,
,,,,,,,,,6685c283c7d2e84750290782,mexican,13 or older,"no, only English or Spanish",no,2025-08-12_15h32.06.043,empathy_intonation_perc_control,2024.2.4,MacIntel,58.82352941,6685c283c7d2e84750290782,68817205a84113384fffdfe3,689b9693c64c585cb1547334,,,,,,,,,,,,./stim/wavs/cuban_mismatch_declarative-broad-focus_El-bebe-comia-muy-bien.wav,0,,,120.497,122.652,0,1,1.642,,0,35,35,73,1,74,0,cuban,,,,,,,,,,,,,,,,,,,,,,,,,,,,,,,,,,,,,,,,,,,,,,,,,,,,,,,,
,,,,,,,,,6685c283c7d2e84750290782,mexican,13 or older,"no, only English or Spanish",no,2025-08-12_15h32.06.043,empathy_intonation_perc_control,2024.2.4,MacIntel,58.82352941,6685c283c7d2e84750290782,68817205a84113384fffdfe3,689b9693c64c585cb1547334,,,,,,,,,,,,./stim/wavs/puertorican_mismatch_interrogative-total-yn_El-hombre-mira-la-luna.wav,1,,,122.653,125.783,0,0,2.61,,0,36,36,39,1,40,1,puertorican,,,,,,,,,,,,,,,,,,,,,,,,,,,,,,,,,,,,,,,,,,,,,,,,,,,,,,,,
,,,,,,,,,6685c283c7d2e84750290782,mexican,13 or older,"no, only English or Spanish",no,2025-08-12_15h32.06.043,empathy_intonation_perc_control,2024.2.4,MacIntel,58.82352941,6685c283c7d2e84750290782,68817205a84113384fffdfe3,689b9693c64c585cb1547334,,,,,,,,,,,,./stim/wavs/cuban_mismatch_declarative-broad-focus_El-hombre-mira-la-luna.wav,0,,,125.783,127.77,0,1,1.47,,0,37,37,74,1,75,0,cuban,,,,,,,,,,,,,,,,,,,,,,,,,,,,,,,,,,,,,,,,,,,,,,,,,,,,,,,,
,,,,,,,,,6685c283c7d2e84750290782,mexican,13 or older,"no, only English or Spanish",no,2025-08-12_15h32.06.043,empathy_intonation_perc_control,2024.2.4,MacIntel,58.82352941,6685c283c7d2e84750290782,68817205a84113384fffdfe3,689b9693c64c585cb1547334,,,,,,,,,,,,./stim/wavs/mexican_match_declarative-broad-focus_Daniel-iba-a-Bolivia.wav,0,,,127.77,129.922,0,1,1.646,,0,38,38,57,1,58,0,mexican,,,,,,,,,,,,,,,,,,,,,,,,,,,,,,,,,,,,,,,,,,,,,,,,,,,,,,,,
,,,,,,,,,6685c283c7d2e84750290782,mexican,13 or older,"no, only English or Spanish",no,2025-08-12_15h32.06.043,empathy_intonation_perc_control,2024.2.4,MacIntel,58.82352941,6685c283c7d2e84750290782,68817205a84113384fffdfe3,689b9693c64c585cb1547334,,,,,,,,,,,,./stim/wavs/cuban_match_interrogative-total-yn_Ana-lleva-el-abrigo.wav,1,,,129.922,132.144,0,0,1.714,,0,39,39,6,1,7,1,cuban,,,,,,,,,,,,,,,,,,,,,,,,,,,,,,,,,,,,,,,,,,,,,,,,,,,,,,,,
,,,,,,,,,6685c283c7d2e84750290782,mexican,13 or older,"no, only English or Spanish",no,2025-08-12_15h32.06.043,empathy_intonation_perc_control,2024.2.4,MacIntel,58.82352941,6685c283c7d2e84750290782,68817205a84113384fffdfe3,689b9693c64c585cb1547334,,,,,,,,,,,,./stim/wavs/puertorican_mismatch_interrogative-total-yn_El-nino-oye-el-rio.wav,1,,,132.145,134.227,0,0,1.56,,0,40,40,40,1,41,1,puertorican,,,,,,,,,,,,,,,,,,,,,,,,,,,,,,,,,,,,,,,,,,,,,,,,,,,,,,,,
,,,,,,,,,6685c283c7d2e84750290782,mexican,13 or older,"no, only English or Spanish",no,2025-08-12_15h32.06.043,empathy_intonation_perc_control,2024.2.4,MacIntel,58.82352941,6685c283c7d2e84750290782,68817205a84113384fffdfe3,689b9693c64c585cb1547334,,,,,,,,,,,,./stim/wavs/puertorican_match_declarative-broad-focus_Ana-lleva-el-abrigo.wav,0,,,134.227,136.304,0,1,1.552,,0,41,41,62,1,63,0,puertorican,,,,,,,,,,,,,,,,,,,,,,,,,,,,,,,,,,,,,,,,,,,,,,,,,,,,,,,,
,,,,,,,,,6685c283c7d2e84750290782,mexican,13 or older,"no, only English or Spanish",no,2025-08-12_15h32.06.043,empathy_intonation_perc_control,2024.2.4,MacIntel,58.82352941,6685c283c7d2e84750290782,68817205a84113384fffdfe3,689b9693c64c585cb1547334,,,,,,,,,,,,./stim/wavs/castilian_mismatch_declarative-broad-focus_La-nina-lava-el-plato.wav,0,,,136.305,138.739,0,1,1.923,,0,42,42,70,1,71,0,castilian,,,,,,,,,,,,,,,,,,,,,,,,,,,,,,,,,,,,,,,,,,,,,,,,,,,,,,,,
,,,,,,,,,6685c283c7d2e84750290782,mexican,13 or older,"no, only English or Spanish",no,2025-08-12_15h32.06.043,empathy_intonation_perc_control,2024.2.4,MacIntel,58.82352941,6685c283c7d2e84750290782,68817205a84113384fffdfe3,689b9693c64c585cb1547334,,,,,,,,,,,,./stim/wavs/castilian_match_interrogative-total-yn_Emilio-ama-la-marcha.wav,1,,,138.74,141.134,1,1,1.884,,0,43,43,1,1,2,0,castilian,,,,,,,,,,,,,,,,,,,,,,,,,,,,,,,,,,,,,,,,,,,,,,,,,,,,,,,,
,,,,,,,,,6685c283c7d2e84750290782,mexican,13 or older,"no, only English or Spanish",no,2025-08-12_15h32.06.043,empathy_intonation_perc_control,2024.2.4,MacIntel,58.82352941,6685c283c7d2e84750290782,68817205a84113384fffdfe3,689b9693c64c585cb1547334,,,,,,,,,,,,./stim/wavs/puertorican_mismatch_declarative-broad-focus_El-hombre-mira-la-luna.wav,0,,,141.134,143.294,0,1,1.651,,0,44,44,84,1,85,0,puertorican,,,,,,,,,,,,,,,,,,,,,,,,,,,,,,,,,,,,,,,,,,,,,,,,,,,,,,,,
,,,,,,,,,6685c283c7d2e84750290782,mexican,13 or older,"no, only English or Spanish",no,2025-08-12_15h32.06.043,empathy_intonation_perc_control,2024.2.4,MacIntel,58.82352941,6685c283c7d2e84750290782,68817205a84113384fffdfe3,689b9693c64c585cb1547334,,,,,,,,,,,,./stim/wavs/castilian_mismatch_declarative-broad-focus_El-nino-oye-el-rio.wav,0,,,143.295,145.573,0,1,1.761,,0,45,45,68,1,69,0,castilian,,,,,,,,,,,,,,,,,,,,,,,,,,,,,,,,,,,,,,,,,,,,,,,,,,,,,,,,
,,,,,,,,,6685c283c7d2e84750290782,mexican,13 or older,"no, only English or Spanish",no,2025-08-12_15h32.06.043,empathy_intonation_perc_control,2024.2.4,MacIntel,58.82352941,6685c283c7d2e84750290782,68817205a84113384fffdfe3,689b9693c64c585cb1547334,,,,,,,,,,,,./stim/wavs/mexican_match_interrogative-total-yn_Mariano-habla-del-tiempo.wav,1,,,145.574,147.919,1,1,1.835,,0,46,46,16,1,17,0,mexican,,,,,,,,,,,,,,,,,,,,,,,,,,,,,,,,,,,,,,,,,,,,,,,,,,,,,,,,
,,,,,,,,,6685c283c7d2e84750290782,mexican,13 or older,"no, only English or Spanish",no,2025-08-12_15h32.06.043,empathy_intonation_perc_control,2024.2.4,MacIntel,58.82352941,6685c283c7d2e84750290782,68817205a84113384fffdfe3,689b9693c64c585cb1547334,,,,,,,,,,,,./stim/wavs/castilian_match_declarative-broad-focus_Maria-bebe-el-vino.wav,0,,,147.92,150.132,0,1,1.698,,0,47,47,47,1,48,0,castilian,,,,,,,,,,,,,,,,,,,,,,,,,,,,,,,,,,,,,,,,,,,,,,,,,,,,,,,,
,,,,,,,,,6685c283c7d2e84750290782,mexican,13 or older,"no, only English or Spanish",no,2025-08-12_15h32.06.043,empathy_intonation_perc_control,2024.2.4,MacIntel,58.82352941,6685c283c7d2e84750290782,68817205a84113384fffdfe3,689b9693c64c585cb1547334,,,,,,,,,,,,./stim/wavs/cuban_match_interrogative-total-yn_Maria-bebe-el-vino.wav,1,,,150.133,152.683,0,0,2.032,,0,48,48,9,1,10,1,cuban,,,,,,,,,,,,,,,,,,,,,,,,,,,,,,,,,,,,,,,,,,,,,,,,,,,,,,,,
,,,,,,,,,6685c283c7d2e84750290782,mexican,13 or older,"no, only English or Spanish",no,2025-08-12_15h32.06.043,empathy_intonation_perc_control,2024.2.4,MacIntel,58.82352941,6685c283c7d2e84750290782,68817205a84113384fffdfe3,689b9693c64c585cb1547334,,,,,,,,,,,,./stim/wavs/castilian_mismatch_interrogative-total-yn_Mi-madre-come-la-fruta.wav,1,,,152.684,155.076,1,1,1.87,,0,49,49,26,1,27,0,castilian,,,,,,,,,,,,,,,,,,,,,,,,,,,,,,,,,,,,,,,,,,,,,,,,,,,,,,,,
,,,,,,,,,6685c283c7d2e84750290782,mexican,13 or older,"no, only English or Spanish",no,2025-08-12_15h32.06.043,empathy_intonation_perc_control,2024.2.4,MacIntel,58.82352941,6685c283c7d2e84750290782,68817205a84113384fffdfe3,689b9693c64c585cb1547334,,,,,,,,,,,,./stim/wavs/puertorican_match_declarative-broad-focus_Manuela-vende-el-carro.wav,0,,,155.077,157.26,0,1,1.675,,0,50,50,66,1,67,0,puertorican,,,,,,,,,,,,,,,,,,,,,,,,,,,,,,,,,,,,,,,,,,,,,,,,,,,,,,,,
,,,,,,,,,6685c283c7d2e84750290782,mexican,13 or older,"no, only English or Spanish",no,2025-08-12_15h32.06.043,empathy_intonation_perc_control,2024.2.4,MacIntel,58.82352941,6685c283c7d2e84750290782,68817205a84113384fffdfe3,689b9693c64c585cb1547334,,,,,,,,,,,,./stim/wavs/castilian_match_interrogative-total-yn_Manuela-vende-el-carro.wav,1,,,157.26,160.984,1,1,3.205,,0,51,51,2,1,3,0,castilian,,,,,,,,,,,,,,,,,,,,,,,,,,,,,,,,,,,,,,,,,,,,,,,,,,,,,,,,
,,,,,,,,,6685c283c7d2e84750290782,mexican,13 or older,"no, only English or Spanish",no,2025-08-12_15h32.06.043,empathy_intonation_perc_control,2024.2.4,MacIntel,58.82352941,6685c283c7d2e84750290782,68817205a84113384fffdfe3,689b9693c64c585cb1547334,,,,,,,,,,,,./stim/wavs/cuban_match_interrogative-total-yn_Marta-abre-el-regalo.wav,1,,,160.985,163.594,0,0,2.097,,0,52,52,11,1,12,1,cuban,,,,,,,,,,,,,,,,,,,,,,,,,,,,,,,,,,,,,,,,,,,,,,,,,,,,,,,,
,,,,,,,,,6685c283c7d2e84750290782,mexican,13 or older,"no, only English or Spanish",no,2025-08-12_15h32.06.043,empathy_intonation_perc_control,2024.2.4,MacIntel,58.82352941,6685c283c7d2e84750290782,68817205a84113384fffdfe3,689b9693c64c585cb1547334,,,,,,,,,,,,./stim/wavs/castilian_mismatch_declarative-broad-focus_La-maestra-vive-en-Paris.wav,0,,,163.595,166.112,0,1,2.004,,0,53,53,69,1,70,0,castilian,,,,,,,,,,,,,,,,,,,,,,,,,,,,,,,,,,,,,,,,,,,,,,,,,,,,,,,,
,,,,,,,,,6685c283c7d2e84750290782,mexican,13 or older,"no, only English or Spanish",no,2025-08-12_15h32.06.043,empathy_intonation_perc_control,2024.2.4,MacIntel,58.82352941,6685c283c7d2e84750290782,68817205a84113384fffdfe3,689b9693c64c585cb1547334,,,,,,,,,,,,./stim/wavs/castilian_match_declarative-broad-focus_David-leia-el-libro.wav,0,,,166.112,168.724,0,1,2.096,,0,54,54,44,1,45,0,castilian,,,,,,,,,,,,,,,,,,,,,,,,,,,,,,,,,,,,,,,,,,,,,,,,,,,,,,,,
,,,,,,,,,6685c283c7d2e84750290782,mexican,13 or older,"no, only English or Spanish",no,2025-08-12_15h32.06.043,empathy_intonation_perc_control,2024.2.4,MacIntel,58.82352941,6685c283c7d2e84750290782,68817205a84113384fffdfe3,689b9693c64c585cb1547334,,,,,,,,,,,,./stim/wavs/castilian_match_interrogative-total-yn_Maria-bebe-el-vino.wav,1,,,168.725,170.881,1,1,1.64,,0,55,55,3,1,4,0,castilian,,,,,,,,,,,,,,,,,,,,,,,,,,,,,,,,,,,,,,,,,,,,,,,,,,,,,,,,
,,,,,,,,,6685c283c7d2e84750290782,mexican,13 or older,"no, only English or Spanish",no,2025-08-12_15h32.06.043,empathy_intonation_perc_control,2024.2.4,MacIntel,58.82352941,6685c283c7d2e84750290782,68817205a84113384fffdfe3,689b9693c64c585cb1547334,,,,,,,,,,,,./stim/wavs/puertorican_match_interrogative-total-yn_Maria-bebe-el-vino.wav,1,,,170.882,172.806,1,1,1.402,,0,56,56,23,1,24,1,puertorican,,,,,,,,,,,,,,,,,,,,,,,,,,,,,,,,,,,,,,,,,,,,,,,,,,,,,,,,
,,,,,,,,,6685c283c7d2e84750290782,mexican,13 or older,"no, only English or Spanish",no,2025-08-12_15h32.06.043,empathy_intonation_perc_control,2024.2.4,MacIntel,58.82352941,6685c283c7d2e84750290782,68817205a84113384fffdfe3,689b9693c64c585cb1547334,,,,,,,,,,,,./stim/wavs/cuban_mismatch_declarative-broad-focus_La-nina-lava-el-plato.wav,0,,,172.807,174.975,0,1,1.657,,0,57,57,75,1,76,0,cuban,,,,,,,,,,,,,,,,,,,,,,,,,,,,,,,,,,,,,,,,,,,,,,,,,,,,,,,,
,,,,,,,,,6685c283c7d2e84750290782,mexican,13 or older,"no, only English or Spanish",no,2025-08-12_15h32.06.043,empathy_intonation_perc_control,2024.2.4,MacIntel,58.82352941,6685c283c7d2e84750290782,68817205a84113384fffdfe3,689b9693c64c585cb1547334,,,,,,,,,,,,./stim/wavs/cuban_match_declarative-broad-focus_Ana-lleva-el-abrigo.wav,0,,,174.976,177.391,0,1,1.892,,0,58,58,50,1,51,0,cuban,,,,,,,,,,,,,,,,,,,,,,,,,,,,,,,,,,,,,,,,,,,,,,,,,,,,,,,,
,,,,,,,,,6685c283c7d2e84750290782,mexican,13 or older,"no, only English or Spanish",no,2025-08-12_15h32.06.043,empathy_intonation_perc_control,2024.2.4,MacIntel,58.82352941,6685c283c7d2e84750290782,68817205a84113384fffdfe3,689b9693c64c585cb1547334,,,,,,,,,,,,./stim/wavs/puertorican_match_interrogative-total-yn_Manuela-vende-el-carro.wav,1,,,177.391,179.655,0,0,1.753,,0,59,59,22,1,23,1,puertorican,,,,,,,,,,,,,,,,,,,,,,,,,,,,,,,,,,,,,,,,,,,,,,,,,,,,,,,,
,,,,,,,,,6685c283c7d2e84750290782,mexican,13 or older,"no, only English or Spanish",no,2025-08-12_15h32.06.043,empathy_intonation_perc_control,2024.2.4,MacIntel,58.82352941,6685c283c7d2e84750290782,68817205a84113384fffdfe3,689b9693c64c585cb1547334,,,,,,,,,,,,./stim/wavs/puertorican_mismatch_interrogative-total-yn_La-nina-lava-el-plato.wav,1,,,179.656,182.082,0,0,1.918,,0,60,60,42,1,43,1,puertorican,,,,,,,,,,,,,,,,,,,,,,,,,,,,,,,,,,,,,,,,,,,,,,,,,,,,,,,,
,,,,,,,,,6685c283c7d2e84750290782,mexican,13 or older,"no, only English or Spanish",no,2025-08-12_15h32.06.043,empathy_intonation_perc_control,2024.2.4,MacIntel,58.82352941,6685c283c7d2e84750290782,68817205a84113384fffdfe3,689b9693c64c585cb1547334,,,,,,,,,,,,./stim/wavs/cuban_mismatch_declarative-broad-focus_Mi-novio-viene-del-lago.wav,0,,,182.083,184.693,0,1,2.087,,0,61,61,76,1,77,0,cuban,,,,,,,,,,,,,,,,,,,,,,,,,,,,,,,,,,,,,,,,,,,,,,,,,,,,,,,,
,,,,,,,,,6685c283c7d2e84750290782,mexican,13 or older,"no, only English or Spanish",no,2025-08-12_15h32.06.043,empathy_intonation_perc_control,2024.2.4,MacIntel,58.82352941,6685c283c7d2e84750290782,68817205a84113384fffdfe3,689b9693c64c585cb1547334,,,,,,,,,,,,./stim/wavs/cuban_match_declarative-broad-focus_Marta-abre-el-regalo.wav,0,,,184.694,187.469,0,1,2.249,,0,62,62,55,1,56,0,cuban,,,,,,,,,,,,,,,,,,,,,,,,,,,,,,,,,,,,,,,,,,,,,,,,,,,,,,,,
,,,,,,,,,6685c283c7d2e84750290782,mexican,13 or older,"no, only English or Spanish",no,2025-08-12_15h32.06.043,empathy_intonation_perc_control,2024.2.4,MacIntel,58.82352941,6685c283c7d2e84750290782,68817205a84113384fffdfe3,689b9693c64c585cb1547334,,,,,,,,,,,,./stim/wavs/mexican_match_interrogative-total-yn_Ana-lleva-el-abrigo.wav,1,,,187.47,189.583,1,1,1.601,,0,63,63,12,1,13,0,mexican,,,,,,,,,,,,,,,,,,,,,,,,,,,,,,,,,,,,,,,,,,,,,,,,,,,,,,,,
,,,,,,,,,6685c283c7d2e84750290782,mexican,13 or older,"no, only English or Spanish",no,2025-08-12_15h32.06.043,empathy_intonation_perc_control,2024.2.4,MacIntel,58.82352941,6685c283c7d2e84750290782,68817205a84113384fffdfe3,689b9693c64c585cb1547334,,,,,,,,,,,,./stim/wavs/puertorican_match_declarative-broad-focus_David-leia-el-libro.wav,0,,,189.583,191.682,0,1,1.566,,0,64,64,64,1,65,0,puertorican,,,,,,,,,,,,,,,,,,,,,,,,,,,,,,,,,,,,,,,,,,,,,,,,,,,,,,,,
,,,,,,,,,6685c283c7d2e84750290782,mexican,13 or older,"no, only English or Spanish",no,2025-08-12_15h32.06.043,empathy_intonation_perc_control,2024.2.4,MacIntel,58.82352941,6685c283c7d2e84750290782,68817205a84113384fffdfe3,689b9693c64c585cb1547334,,,,,,,,,,,,./stim/wavs/puertorican_match_declarative-broad-focus_Daniel-iba-a-Bolivia.wav,0,,,191.683,194.153,0,1,1.964,,0,65,65,63,1,64,0,puertorican,,,,,,,,,,,,,,,,,,,,,,,,,,,,,,,,,,,,,,,,,,,,,,,,,,,,,,,,
,,,,,,,,,6685c283c7d2e84750290782,mexican,13 or older,"no, only English or Spanish",no,2025-08-12_15h32.06.043,empathy_intonation_perc_control,2024.2.4,MacIntel,58.82352941,6685c283c7d2e84750290782,68817205a84113384fffdfe3,689b9693c64c585cb1547334,,,,,,,,,,,,./stim/wavs/puertorican_match_declarative-broad-focus_Emilio-ama-la-marcha.wav,0,,,194.153,196.481,0,1,1.803,,0,66,66,65,1,66,0,puertorican,,,,,,,,,,,,,,,,,,,,,,,,,,,,,,,,,,,,,,,,,,,,,,,,,,,,,,,,
,,,,,,,,,6685c283c7d2e84750290782,mexican,13 or older,"no, only English or Spanish",no,2025-08-12_15h32.06.043,empathy_intonation_perc_control,2024.2.4,MacIntel,58.82352941,6685c283c7d2e84750290782,68817205a84113384fffdfe3,689b9693c64c585cb1547334,,,,,,,,,,,,./stim/wavs/mexican_match_interrogative-total-yn_Marta-abre-el-regalo.wav,1,,,196.482,198.864,1,1,1.868,,0,67,67,17,1,18,0,mexican,,,,,,,,,,,,,,,,,,,,,,,,,,,,,,,,,,,,,,,,,,,,,,,,,,,,,,,,
,,,,,,,,,6685c283c7d2e84750290782,mexican,13 or older,"no, only English or Spanish",no,2025-08-12_15h32.06.043,empathy_intonation_perc_control,2024.2.4,MacIntel,58.82352941,6685c283c7d2e84750290782,68817205a84113384fffdfe3,689b9693c64c585cb1547334,,,,,,,,,,,,./stim/wavs/cuban_match_declarative-broad-focus_Manuela-vende-el-carro.wav,0,,,198.865,201.281,0,1,1.902,,0,68,68,52,1,53,0,cuban,,,,,,,,,,,,,,,,,,,,,,,,,,,,,,,,,,,,,,,,,,,,,,,,,,,,,,,,
,,,,,,,,,6685c283c7d2e84750290782,mexican,13 or older,"no, only English or Spanish",no,2025-08-12_15h32.06.043,empathy_intonation_perc_control,2024.2.4,MacIntel,58.82352941,6685c283c7d2e84750290782,68817205a84113384fffdfe3,689b9693c64c585cb1547334,,,,,,,,,,,,./stim/wavs/cuban_mismatch_interrogative-total-yn_Mi-madre-come-la-fruta.wav,1,,,201.281,203.585,0,0,1.784,,0,69,69,31,1,32,1,cuban,,,,,,,,,,,,,,,,,,,,,,,,,,,,,,,,,,,,,,,,,,,,,,,,,,,,,,,,
,,,,,,,,,6685c283c7d2e84750290782,mexican,13 or older,"no, only English or Spanish",no,2025-08-12_15h32.06.043,empathy_intonation_perc_control,2024.2.4,MacIntel,58.82352941,6685c283c7d2e84750290782,68817205a84113384fffdfe3,689b9693c64c585cb1547334,,,,,,,,,,,,./stim/wavs/puertorican_match_interrogative-total-yn_Daniel-iba-a-Bolivia.wav,1,,,203.585,205.815,0,0,1.707,,0,70,70,19,1,20,1,puertorican,,,,,,,,,,,,,,,,,,,,,,,,,,,,,,,,,,,,,,,,,,,,,,,,,,,,,,,,
,,,,,,,,,6685c283c7d2e84750290782,mexican,13 or older,"no, only English or Spanish",no,2025-08-12_15h32.06.043,empathy_intonation_perc_control,2024.2.4,MacIntel,58.82352941,6685c283c7d2e84750290782,68817205a84113384fffdfe3,689b9693c64c585cb1547334,,,,,,,,,,,,./stim/wavs/mexican_match_declarative-broad-focus_Emilio-ama-la-marcha.wav,0,,,205.816,208.142,0,1,1.807,,0,71,71,59,1,60,0,mexican,,,,,,,,,,,,,,,,,,,,,,,,,,,,,,,,,,,,,,,,,,,,,,,,,,,,,,,,
,,,,,,,,,6685c283c7d2e84750290782,mexican,13 or older,"no, only English or Spanish",no,2025-08-12_15h32.06.043,empathy_intonation_perc_control,2024.2.4,MacIntel,58.82352941,6685c283c7d2e84750290782,68817205a84113384fffdfe3,689b9693c64c585cb1547334,,,,,,,,,,,,./stim/wavs/puertorican_mismatch_declarative-broad-focus_El-nino-oye-el-rio.wav,0,,,208.143,210.323,0,1,1.668,,0,72,72,85,1,86,0,puertorican,,,,,,,,,,,,,,,,,,,,,,,,,,,,,,,,,,,,,,,,,,,,,,,,,,,,,,,,
,,,,,,,,,6685c283c7d2e84750290782,mexican,13 or older,"no, only English or Spanish",no,2025-08-12_15h32.06.043,empathy_intonation_perc_control,2024.2.4,MacIntel,58.82352941,6685c283c7d2e84750290782,68817205a84113384fffdfe3,689b9693c64c585cb1547334,,,,,,,,,,,,./stim/wavs/puertorican_mismatch_declarative-broad-focus_El-bebe-comia-muy-bien.wav,0,,,210.323,212.45,0,1,1.601,,0,73,73,83,1,84,0,puertorican,,,,,,,,,,,,,,,,,,,,,,,,,,,,,,,,,,,,,,,,,,,,,,,,,,,,,,,,
,,,,,,,,,6685c283c7d2e84750290782,mexican,13 or older,"no, only English or Spanish",no,2025-08-12_15h32.06.043,empathy_intonation_perc_control,2024.2.4,MacIntel,58.82352941,6685c283c7d2e84750290782,68817205a84113384fffdfe3,689b9693c64c585cb1547334,,,,,,,,,,,,./stim/wavs/mexican_match_declarative-broad-focus_Ana-lleva-el-abrigo.wav,0,,,212.451,214.68,0,1,1.712,,0,74,74,56,1,57,0,mexican,,,,,,,,,,,,,,,,,,,,,,,,,,,,,,,,,,,,,,,,,,,,,,,,,,,,,,,,
,,,,,,,,,6685c283c7d2e84750290782,mexican,13 or older,"no, only English or Spanish",no,2025-08-12_15h32.06.043,empathy_intonation_perc_control,2024.2.4,MacIntel,58.82352941,6685c283c7d2e84750290782,68817205a84113384fffdfe3,689b9693c64c585cb1547334,,,,,,,,,,,,./stim/wavs/cuban_match_interrogative-total-yn_Daniel-iba-a-Bolivia.wav,1,,,214.681,218.102,0,0,2.907,,0,75,75,7,1,8,1,cuban,,,,,,,,,,,,,,,,,,,,,,,,,,,,,,,,,,,,,,,,,,,,,,,,,,,,,,,,
,,,,,,,,,6685c283c7d2e84750290782,mexican,13 or older,"no, only English or Spanish",no,2025-08-12_15h32.06.043,empathy_intonation_perc_control,2024.2.4,MacIntel,58.82352941,6685c283c7d2e84750290782,68817205a84113384fffdfe3,689b9693c64c585cb1547334,,,,,,,,,,,,./stim/wavs/castilian_match_interrogative-total-yn_Mariano-habla-del-tiempo.wav,1,,,218.103,220.581,1,1,1.966,,0,76,76,4,1,5,0,castilian,,,,,,,,,,,,,,,,,,,,,,,,,,,,,,,,,,,,,,,,,,,,,,,,,,,,,,,,
,,,,,,,,,6685c283c7d2e84750290782,mexican,13 or older,"no, only English or Spanish",no,2025-08-12_15h32.06.043,empathy_intonation_perc_control,2024.2.4,MacIntel,58.82352941,6685c283c7d2e84750290782,68817205a84113384fffdfe3,689b9693c64c585cb1547334,,,,,,,,,,,,./stim/wavs/mexican_match_declarative-broad-focus_Marta-abre-el-regalo.wav,0,,,220.582,222.958,0,1,1.865,,0,77,77,61,1,62,0,mexican,,,,,,,,,,,,,,,,,,,,,,,,,,,,,,,,,,,,,,,,,,,,,,,,,,,,,,,,
,,,,,,,,,6685c283c7d2e84750290782,mexican,13 or older,"no, only English or Spanish",no,2025-08-12_15h32.06.043,empathy_intonation_perc_control,2024.2.4,MacIntel,58.82352941,6685c283c7d2e84750290782,68817205a84113384fffdfe3,689b9693c64c585cb1547334,,,,,,,,,,,,./stim/wavs/castilian_match_interrogative-total-yn_David-leia-el-libro.wav,1,,,222.958,225.248,1,1,1.769,,0,78,78,0,1,1,0,castilian,,,,,,,,,,,,,,,,,,,,,,,,,,,,,,,,,,,,,,,,,,,,,,,,,,,,,,,,
,,,,,,,,,6685c283c7d2e84750290782,mexican,13 or older,"no, only English or Spanish",no,2025-08-12_15h32.06.043,empathy_intonation_perc_control,2024.2.4,MacIntel,58.82352941,6685c283c7d2e84750290782,68817205a84113384fffdfe3,689b9693c64c585cb1547334,,,,,,,,,,,,./stim/wavs/mexican_match_interrogative-total-yn_Daniel-iba-a-Bolivia.wav,1,,,225.249,227.825,1,1,2.06,,0,79,79,13,1,14,0,mexican,,,,,,,,,,,,,,,,,,,,,,,,,,,,,,,,,,,,,,,,,,,,,,,,,,,,,,,,
,,,,,,,,,6685c283c7d2e84750290782,mexican,13 or older,"no, only English or Spanish",no,2025-08-12_15h32.06.043,empathy_intonation_perc_control,2024.2.4,MacIntel,58.82352941,6685c283c7d2e84750290782,68817205a84113384fffdfe3,689b9693c64c585cb1547334,,,,,,,,,,,,./stim/wavs/castilian_match_declarative-broad-focus_Manuela-vende-el-carro.wav,0,,,227.826,230.306,0,1,1.96,,0,80,80,46,1,47,0,castilian,,,,,,,,,,,,,,,,,,,,,,,,,,,,,,,,,,,,,,,,,,,,,,,,,,,,,,,,
,,,,,,,,,6685c283c7d2e84750290782,mexican,13 or older,"no, only English or Spanish",no,2025-08-12_15h32.06.043,empathy_intonation_perc_control,2024.2.4,MacIntel,58.82352941,6685c283c7d2e84750290782,68817205a84113384fffdfe3,689b9693c64c585cb1547334,,,,,,,,,,,,./stim/wavs/mexican_match_interrogative-total-yn_Emilio-ama-la-marcha.wav,1,,,230.307,232.698,1,1,1.86,,0,81,81,15,1,16,0,mexican,,,,,,,,,,,,,,,,,,,,,,,,,,,,,,,,,,,,,,,,,,,,,,,,,,,,,,,,
,,,,,,,,,6685c283c7d2e84750290782,mexican,13 or older,"no, only English or Spanish",no,2025-08-12_15h32.06.043,empathy_intonation_perc_control,2024.2.4,MacIntel,58.82352941,6685c283c7d2e84750290782,68817205a84113384fffdfe3,689b9693c64c585cb1547334,,,,,,,,,,,,./stim/wavs/cuban_mismatch_interrogative-total-yn_El-hombre-mira-la-luna.wav,1,,,232.699,234.826,0,0,1.606,,0,82,82,29,1,30,1,cuban,,,,,,,,,,,,,,,,,,,,,,,,,,,,,,,,,,,,,,,,,,,,,,,,,,,,,,,,
,,,,,,,,,6685c283c7d2e84750290782,mexican,13 or older,"no, only English or Spanish",no,2025-08-12_15h32.06.043,empathy_intonation_perc_control,2024.2.4,MacIntel,58.82352941,6685c283c7d2e84750290782,68817205a84113384fffdfe3,689b9693c64c585cb1547334,,,,,,,,,,,,./stim/wavs/puertorican_mismatch_interrogative-total-yn_La-maestra-vive-en-Paris.wav,1,,,234.827,237.209,0,0,1.865,,0,83,83,41,1,42,1,puertorican,,,,,,,,,,,,,,,,,,,,,,,,,,,,,,,,,,,,,,,,,,,,,,,,,,,,,,,,
,,,,,,,,,6685c283c7d2e84750290782,mexican,13 or older,"no, only English or Spanish",no,2025-08-12_15h32.06.043,empathy_intonation_perc_control,2024.2.4,MacIntel,58.82352941,6685c283c7d2e84750290782,68817205a84113384fffdfe3,689b9693c64c585cb1547334,,,,,,,,,,,,./stim/wavs/mexican_mismatch_declarative-broad-focus_Mi-novio-viene-del-lago.wav,0,,,237.21,239.254,0,1,1.533,,0,84,84,81,1,82,0,mexican,,,,,,,,,,,,,,,,,,,,,,,,,,,,,,,,,,,,,,,,,,,,,,,,,,,,,,,,
,,,,,,,,,6685c283c7d2e84750290782,mexican,13 or older,"no, only English or Spanish",no,2025-08-12_15h32.06.043,empathy_intonation_perc_control,2024.2.4,MacIntel,58.82352941,6685c283c7d2e84750290782,68817205a84113384fffdfe3,689b9693c64c585cb1547334,,,,,,,,,,,,./stim/wavs/castilian_mismatch_declarative-broad-focus_Mi-novio-viene-del-lago.wav,0,,,239.255,241.558,0,1,1.78,,0,85,85,71,1,72,0,castilian,,,,,,,,,,,,,,,,,,,,,,,,,,,,,,,,,,,,,,,,,,,,,,,,,,,,,,,,
,,,,,,,,,6685c283c7d2e84750290782,mexican,13 or older,"no, only English or Spanish",no,2025-08-12_15h32.06.043,empathy_intonation_perc_control,2024.2.4,MacIntel,58.82352941,6685c283c7d2e84750290782,68817205a84113384fffdfe3,689b9693c64c585cb1547334,,,,,,,,,,,,./stim/wavs/mexican_match_declarative-broad-focus_Mariano-habla-del-tiempo.wav,0,,,241.559,244.092,0,1,2.016,,0,86,86,60,1,61,0,mexican,,,,,,,,,,,,,,,,,,,,,,,,,,,,,,,,,,,,,,,,,,,,,,,,,,,,,,,,
,,,,,,,,,6685c283c7d2e84750290782,mexican,13 or older,"no, only English or Spanish",no,2025-08-12_15h32.06.043,empathy_intonation_perc_control,2024.2.4,MacIntel,58.82352941,6685c283c7d2e84750290782,68817205a84113384fffdfe3,689b9693c64c585cb1547334,,,,,,,,,,,,./stim/wavs/cuban_mismatch_interrogative-total-yn_Mi-novio-viene-del-lago.wav,1,,,244.093,246.268,0,0,1.648,,0,87,87,32,1,33,1,cuban,,,,,,,,,,,,,,,,,,,,,,,,,,,,,,,,,,,,,,,,,,,,,,,,,,,,,,,,
,,,,,,,"Great! Now we will move on. The next task consists of about 60 trials, in each of which you will see a string of letters. 
  
  Your task is to decide whether this is a real Spanish word or not.", (press the spacebar to continue),6685c283c7d2e84750290782,mexican,13 or older,"no, only English or Spanish",no,2025-08-12_15h32.06.043,empathy_intonation_perc_control,2024.2.4,MacIntel,58.82352941,6685c283c7d2e84750290782,68817205a84113384fffdfe3,689b9693c64c585cb1547334,,,,,,,,,,,,,,,,,,,,,,,,,,,,,,246.276,250.268,0,0,0,0,1,,,,,,,,,,,,,,,,,,,,,,,,,,,,,,,,,,,,,,,,,,,,,,,,,
,,,,,,,"If you think it is an existing Spanish word, you type '1' (for 'REAL'), and if you think it is not an existing Spanish word, you type '0' (for 'FAKE').", (press the spacebar to continue),6685c283c7d2e84750290782,mexican,13 or older,"no, only English or Spanish",no,2025-08-12_15h32.06.043,empathy_intonation_perc_control,2024.2.4,MacIntel,58.82352941,6685c283c7d2e84750290782,68817205a84113384fffdfe3,689b9693c64c585cb1547334,,,,,,,,,,,,,,,,,,,,,,,,,,,,,,250.27,252.694,0,1,1,1,1,,,,,,,,,,,,,,,,,,,,,,,,,,,,,,,,,,,,,,,,,,,,,,,,,
,,,,,,,"If you are sure that the word exists, even though you don’t know its exact meaning, you may still respond '1' (REAL). 
  
  But if you are not sure if it is an existing word, you should respond '0' (FAKE).
  
  Let's do a practice round...", (press the spacebar to continue),6685c283c7d2e84750290782,mexican,13 or older,"no, only English or Spanish",no,2025-08-12_15h32.06.043,empathy_intonation_perc_control,2024.2.4,MacIntel,58.82352941,6685c283c7d2e84750290782,68817205a84113384fffdfe3,689b9693c64c585cb1547334,,,,,,,,,,,,,,,,,,,,,,,,,,,,,,252.696,257.443,0,2,2,2,1,,,,,,,,,,,,,,,,,,,,,,,,,,,,,,,,,,,,,,,,,,,,,,,,,
,,,,,,,,,6685c283c7d2e84750290782,mexican,13 or older,"no, only English or Spanish",no,2025-08-12_15h32.06.043,empathy_intonation_perc_control,2024.2.4,MacIntel,58.82352941,6685c283c7d2e84750290782,68817205a84113384fffdfe3,689b9693c64c585cb1547334,,,,,,,,,,,,,0,,,,,,,,,,,,,,,,,,,,,,,,257.449,261.826,0,1,3.86,,261.83,262.822,0,0,0,0,1,0,depiste,REAL,FAKE,,,,,,,,,,,,,,,,,,,,,,,,,,,,,,,,
,,,,,,,,,6685c283c7d2e84750290782,mexican,13 or older,"no, only English or Spanish",no,2025-08-12_15h32.06.043,empathy_intonation_perc_control,2024.2.4,MacIntel,58.82352941,6685c283c7d2e84750290782,68817205a84113384fffdfe3,689b9693c64c585cb1547334,,,,,,,,,,,,,1,,,,,,,,,,,,,,,,,,,,,,,,262.824,264.278,1,1,0.931,,264.278,265.281,0,1,1,1,1,0,sí,REAL,FAKE,,,,,,,,,,,,,,,,,,,,,,,,,,,,,,,,
,,,,,,,,,6685c283c7d2e84750290782,mexican,13 or older,"no, only English or Spanish",no,2025-08-12_15h32.06.043,empathy_intonation_perc_control,2024.2.4,MacIntel,58.82352941,6685c283c7d2e84750290782,68817205a84113384fffdfe3,689b9693c64c585cb1547334,,,,,,,,,,,,,0,,,,,,,,,,,,,,,,,,,,,,,,265.283,266.613,1,0,0.804,,266.614,267.61,0,2,2,2,1,0,coné,REAL,FAKE,,,,,,,,,,,,,,,,,,,,,,,,,,,,,,,,
,,,,,,,,,6685c283c7d2e84750290782,mexican,13 or older,"no, only English or Spanish",no,2025-08-12_15h32.06.043,empathy_intonation_perc_control,2024.2.4,MacIntel,58.82352941,6685c283c7d2e84750290782,68817205a84113384fffdfe3,689b9693c64c585cb1547334,,,,,,,,,,,,,0,,,,,,,,,,,,,,,,,,,,,,,,267.611,269.213,1,0,1.081,,269.213,270.204,0,3,3,3,1,0,calpar,REAL,FAKE,,,,,,,,,,,,,,,,,,,,,,,,,,,,,,,,
,,,,,,,,,6685c283c7d2e84750290782,mexican,13 or older,"no, only English or Spanish",no,2025-08-12_15h32.06.043,empathy_intonation_perc_control,2024.2.4,MacIntel,58.82352941,6685c283c7d2e84750290782,68817205a84113384fffdfe3,689b9693c64c585cb1547334,,,,,,,,,,,,,0,,,,,,,,,,,,,,,,,,,,,,,,270.206,271.638,0,1,0.898,,271.639,272.635,0,4,4,4,1,0,joten,REAL,FAKE,,,,,,,,,,,,,,,,,,,,,,,,,,,,,,,,
,,,,,,,,,6685c283c7d2e84750290782,mexican,13 or older,"no, only English or Spanish",no,2025-08-12_15h32.06.043,empathy_intonation_perc_control,2024.2.4,MacIntel,58.82352941,6685c283c7d2e84750290782,68817205a84113384fffdfe3,689b9693c64c585cb1547334,,,,,,,,,,,,,1,,,,,,,,,,,,,,,,,,,,,,,,272.637,274.192,1,1,1.036,,274.192,275.186,0,5,5,5,1,0,sacapuntas,REAL,FAKE,,,,,,,,,,,,,,,,,,,,,,,,,,,,,,,,
,,,,,,,,,6685c283c7d2e84750290782,mexican,13 or older,"no, only English or Spanish",no,2025-08-12_15h32.06.043,empathy_intonation_perc_control,2024.2.4,MacIntel,58.82352941,6685c283c7d2e84750290782,68817205a84113384fffdfe3,689b9693c64c585cb1547334,,,,,,,,,,,,,0,,,,,,,,,,,,,,,,,,,,,,,,275.187,276.847,1,0,1.133,,276.848,277.841,0,6,6,6,1,0,priba,REAL,FAKE,,,,,,,,,,,,,,,,,,,,,,,,,,,,,,,,
,,,,,,,,,6685c283c7d2e84750290782,mexican,13 or older,"no, only English or Spanish",no,2025-08-12_15h32.06.043,empathy_intonation_perc_control,2024.2.4,MacIntel,58.82352941,6685c283c7d2e84750290782,68817205a84113384fffdfe3,689b9693c64c585cb1547334,,,,,,,,,,,,,0,,,,,,,,,,,,,,,,,,,,,,,,277.843,279.399,0,1,1.023,,279.4,280.396,0,7,7,7,1,0,pelasula,REAL,FAKE,,,,,,,,,,,,,,,,,,,,,,,,,,,,,,,,
,,,,,,,,,6685c283c7d2e84750290782,mexican,13 or older,"no, only English or Spanish",no,2025-08-12_15h32.06.043,empathy_intonation_perc_control,2024.2.4,MacIntel,58.82352941,6685c283c7d2e84750290782,68817205a84113384fffdfe3,689b9693c64c585cb1547334,,,,,,,,,,,,,1,,,,,,,,,,,,,,,,,,,,,,,,280.397,281.65,1,1,0.729,,281.65,282.654,0,8,8,8,1,0,bien,REAL,FAKE,,,,,,,,,,,,,,,,,,,,,,,,,,,,,,,,
,,,,,,,,,6685c283c7d2e84750290782,mexican,13 or older,"no, only English or Spanish",no,2025-08-12_15h32.06.043,empathy_intonation_perc_control,2024.2.4,MacIntel,58.82352941,6685c283c7d2e84750290782,68817205a84113384fffdfe3,689b9693c64c585cb1547334,,,,,,,,,,,,,1,,,,,,,,,,,,,,,,,,,,,,,,282.656,283.861,1,1,0.68,,283.861,284.859,0,9,9,9,1,0,casa,REAL,FAKE,,,,,,,,,,,,,,,,,,,,,,,,,,,,,,,,
,,,,,,,,,6685c283c7d2e84750290782,mexican,13 or older,"no, only English or Spanish",no,2025-08-12_15h32.06.043,empathy_intonation_perc_control,2024.2.4,MacIntel,58.82352941,6685c283c7d2e84750290782,68817205a84113384fffdfe3,689b9693c64c585cb1547334,,,,,,,,,,,,,0,,,,,,,,,,,,,,,,,,,,,,,,284.86,286.222,0,1,0.842,,286.222,287.214,0,10,10,10,1,0,lejo,REAL,FAKE,,,,,,,,,,,,,,,,,,,,,,,,,,,,,,,,
,,,,,,,,,6685c283c7d2e84750290782,mexican,13 or older,"no, only English or Spanish",no,2025-08-12_15h32.06.043,empathy_intonation_perc_control,2024.2.4,MacIntel,58.82352941,6685c283c7d2e84750290782,68817205a84113384fffdfe3,689b9693c64c585cb1547334,,,,,,,,,,,,,0,,,,,,,,,,,,,,,,,,,,,,,,287.215,289.069,0,1,1.322,,289.069,290.063,0,11,11,11,1,0,pretantas,REAL,FAKE,,,,,,,,,,,,,,,,,,,,,,,,,,,,,,,,
,,,,,,,,,6685c283c7d2e84750290782,mexican,13 or older,"no, only English or Spanish",no,2025-08-12_15h32.06.043,empathy_intonation_perc_control,2024.2.4,MacIntel,58.82352941,6685c283c7d2e84750290782,68817205a84113384fffdfe3,689b9693c64c585cb1547334,,,,,,,,,,,,,,,,,,,,,,,,,,,,,,,,,,,,,,,,,,,,,,,,,,,,,,290.064,291.135,,,,,,,,,,,,,,,,,,,,,,,,,,,,,,
,,,,,,,,,6685c283c7d2e84750290782,mexican,13 or older,"no, only English or Spanish",no,2025-08-12_15h32.06.043,empathy_intonation_perc_control,2024.2.4,MacIntel,58.82352941,6685c283c7d2e84750290782,68817205a84113384fffdfe3,689b9693c64c585cb1547334,,,,,,,,,,,,,1,,,,,,,,,,,,,,,,,,,,,,,,,,,,,,,,,,,,,51,candado,,,,,291.144,292.67,1,1,0.992,,0,0,0,50,1,REAL,FAKE,,,,,,,,,,,,,,,,,
,,,,,,,,,6685c283c7d2e84750290782,mexican,13 or older,"no, only English or Spanish",no,2025-08-12_15h32.06.043,empathy_intonation_perc_control,2024.2.4,MacIntel,58.82352941,6685c283c7d2e84750290782,68817205a84113384fffdfe3,689b9693c64c585cb1547334,,,,,,,,,,,,,0,,,,,,,,,,,,,,,,,,,,,,,,,,,,,,,,,,,,,53,vegada,,,,,292.672,295.977,0,1,2.788,,0,1,1,52,1,REAL,FAKE,,,,,,,,,,,,,,,,,
,,,,,,,,,6685c283c7d2e84750290782,mexican,13 or older,"no, only English or Spanish",no,2025-08-12_15h32.06.043,empathy_intonation_perc_control,2024.2.4,MacIntel,58.82352941,6685c283c7d2e84750290782,68817205a84113384fffdfe3,689b9693c64c585cb1547334,,,,,,,,,,,,,1,,,,,,,,,,,,,,,,,,,,,,,,,,,,,,,,,,,,,85,laúd,,,,,295.979,297.391,1,1,0.883,,0,2,2,84,1,REAL,FAKE,,,,,,,,,,,,,,,,,
,,,,,,,,,6685c283c7d2e84750290782,mexican,13 or older,"no, only English or Spanish",no,2025-08-12_15h32.06.043,empathy_intonation_perc_control,2024.2.4,MacIntel,58.82352941,6685c283c7d2e84750290782,68817205a84113384fffdfe3,689b9693c64c585cb1547334,,,,,,,,,,,,,1,,,,,,,,,,,,,,,,,,,,,,,,,,,,,,,,,,,,,91,click the 1 key.,,,,,297.393,299.528,1,1,1.605,,0,3,3,90,1,REAL,FAKE,,,,,,,,,,,,,,,,,
,,,,,,,,,6685c283c7d2e84750290782,mexican,13 or older,"no, only English or Spanish",no,2025-08-12_15h32.06.043,empathy_intonation_perc_control,2024.2.4,MacIntel,58.82352941,6685c283c7d2e84750290782,68817205a84113384fffdfe3,689b9693c64c585cb1547334,,,,,,,,,,,,,0,,,,,,,,,,,,,,,,,,,,,,,,,,,,,,,,,,,,,74,cintro,,,,,299.53,302.021,0,1,1.96,,0,4,4,73,1,REAL,FAKE,,,,,,,,,,,,,,,,,
,,,,,,,,,6685c283c7d2e84750290782,mexican,13 or older,"no, only English or Spanish",no,2025-08-12_15h32.06.043,empathy_intonation_perc_control,2024.2.4,MacIntel,58.82352941,6685c283c7d2e84750290782,68817205a84113384fffdfe3,689b9693c64c585cb1547334,,,,,,,,,,,,,0,,,,,,,,,,,,,,,,,,,,,,,,,,,,,,,,,,,,,58,plaudir,,,,,302.023,304.567,1,0,2.024,,0,5,5,57,1,REAL,FAKE,,,,,,,,,,,,,,,,,
,,,,,,,,,6685c283c7d2e84750290782,mexican,13 or older,"no, only English or Spanish",no,2025-08-12_15h32.06.043,empathy_intonation_perc_control,2024.2.4,MacIntel,58.82352941,6685c283c7d2e84750290782,68817205a84113384fffdfe3,689b9693c64c585cb1547334,,,,,,,,,,,,,1,,,,,,,,,,,,,,,,,,,,,,,,,,,,,,,,,,,,,28,merodear,,,,,304.569,306.213,0,0,1.124,,0,6,6,27,1,REAL,FAKE,,,,,,,,,,,,,,,,,
,,,,,,,,,6685c283c7d2e84750290782,mexican,13 or older,"no, only English or Spanish",no,2025-08-12_15h32.06.043,empathy_intonation_perc_control,2024.2.4,MacIntel,58.82352941,6685c283c7d2e84750290782,68817205a84113384fffdfe3,689b9693c64c585cb1547334,,,,,,,,,,,,,1,,,,,,,,,,,,,,,,,,,,,,,,,,,,,,,,,,,,,49,ganar,,,,,306.215,309.472,0,0,2.744,,0,7,7,48,1,REAL,FAKE,,,,,,,,,,,,,,,,,
,,,,,,,,,6685c283c7d2e84750290782,mexican,13 or older,"no, only English or Spanish",no,2025-08-12_15h32.06.043,empathy_intonation_perc_control,2024.2.4,MacIntel,58.82352941,6685c283c7d2e84750290782,68817205a84113384fffdfe3,689b9693c64c585cb1547334,,,,,,,,,,,,,1,,,,,,,,,,,,,,,,,,,,,,,,,,,,,,,,,,,,,83,guante,,,,,309.473,311.215,1,1,1.208,,0,8,8,82,1,REAL,FAKE,,,,,,,,,,,,,,,,,
,,,,,,,,,6685c283c7d2e84750290782,mexican,13 or older,"no, only English or Spanish",no,2025-08-12_15h32.06.043,empathy_intonation_perc_control,2024.2.4,MacIntel,58.82352941,6685c283c7d2e84750290782,68817205a84113384fffdfe3,689b9693c64c585cb1547334,,,,,,,,,,,,,1,,,,,,,,,,,,,,,,,,,,,,,,,,,,,,,,,,,,,59,besar,,,,,311.216,313.738,0,0,2.005,,0,9,9,58,1,REAL,FAKE,,,,,,,,,,,,,,,,,
,,,,,,,,,6685c283c7d2e84750290782,mexican,13 or older,"no, only English or Spanish",no,2025-08-12_15h32.06.043,empathy_intonation_perc_control,2024.2.4,MacIntel,58.82352941,6685c283c7d2e84750290782,68817205a84113384fffdfe3,689b9693c64c585cb1547334,,,,,,,,,,,,,0,,,,,,,,,,,,,,,,,,,,,,,,,,,,,,,,,,,,,18,arsa,,,,,313.739,315.639,0,1,1.371,,0,10,10,17,1,REAL,FAKE,,,,,,,,,,,,,,,,,
,,,,,,,,,6685c283c7d2e84750290782,mexican,13 or older,"no, only English or Spanish",no,2025-08-12_15h32.06.043,empathy_intonation_perc_control,2024.2.4,MacIntel,58.82352941,6685c283c7d2e84750290782,68817205a84113384fffdfe3,689b9693c64c585cb1547334,,,,,,,,,,,,,1,,,,,,,,,,,,,,,,,,,,,,,,,,,,,,,,,,,,,52,camisa,,,,,315.641,317.635,1,1,1.464,,0,11,11,51,1,REAL,FAKE,,,,,,,,,,,,,,,,,
,,,,,,,,,6685c283c7d2e84750290782,mexican,13 or older,"no, only English or Spanish",no,2025-08-12_15h32.06.043,empathy_intonation_perc_control,2024.2.4,MacIntel,58.82352941,6685c283c7d2e84750290782,68817205a84113384fffdfe3,689b9693c64c585cb1547334,,,,,,,,,,,,,0,,,,,,,,,,,,,,,,,,,,,,,,,,,,,,,,,,,,,32,fatacidad,,,,,317.637,320.996,0,1,2.827,,0,12,12,31,1,REAL,FAKE,,,,,,,,,,,,,,,,,
,,,,,,,,,6685c283c7d2e84750290782,mexican,13 or older,"no, only English or Spanish",no,2025-08-12_15h32.06.043,empathy_intonation_perc_control,2024.2.4,MacIntel,58.82352941,6685c283c7d2e84750290782,68817205a84113384fffdfe3,689b9693c64c585cb1547334,,,,,,,,,,,,,1,,,,,,,,,,,,,,,,,,,,,,,,,,,,,,,,,,,,,2,pellizcar,,,,,320.998,322.955,0,0,1.441,,0,13,13,1,1,REAL,FAKE,,,,,,,,,,,,,,,,,
,,,,,,,,,6685c283c7d2e84750290782,mexican,13 or older,"no, only English or Spanish",no,2025-08-12_15h32.06.043,empathy_intonation_perc_control,2024.2.4,MacIntel,58.82352941,6685c283c7d2e84750290782,68817205a84113384fffdfe3,689b9693c64c585cb1547334,,,,,,,,,,,,,1,,,,,,,,,,,,,,,,,,,,,,,,,,,,,,,,,,,,,26,secuestro,,,,,322.957,324.529,1,1,1.035,,0,14,14,25,1,REAL,FAKE,,,,,,,,,,,,,,,,,
,,,,,,,,,6685c283c7d2e84750290782,mexican,13 or older,"no, only English or Spanish",no,2025-08-12_15h32.06.043,empathy_intonation_perc_control,2024.2.4,MacIntel,58.82352941,6685c283c7d2e84750290782,68817205a84113384fffdfe3,689b9693c64c585cb1547334,,,,,,,,,,,,,1,,,,,,,,,,,,,,,,,,,,,,,,,,,,,,,,,,,,,41,rebuscar,,,,,324.53,327.424,0,0,2.369,,0,15,15,40,1,REAL,FAKE,,,,,,,,,,,,,,,,,
,,,,,,,,,6685c283c7d2e84750290782,mexican,13 or older,"no, only English or Spanish",no,2025-08-12_15h32.06.043,empathy_intonation_perc_control,2024.2.4,MacIntel,58.82352941,6685c283c7d2e84750290782,68817205a84113384fffdfe3,689b9693c64c585cb1547334,,,,,,,,,,,,,1,,,,,,,,,,,,,,,,,,,,,,,,,,,,,,,,,,,,,5,zapato,,,,,327.426,328.828,1,1,0.885,,0,16,16,4,1,REAL,FAKE,,,,,,,,,,,,,,,,,
,,,,,,,,,6685c283c7d2e84750290782,mexican,13 or older,"no, only English or Spanish",no,2025-08-12_15h32.06.043,empathy_intonation_perc_control,2024.2.4,MacIntel,58.82352941,6685c283c7d2e84750290782,68817205a84113384fffdfe3,689b9693c64c585cb1547334,,,,,,,,,,,,,0,,,,,,,,,,,,,,,,,,,,,,,,,,,,,,,,,,,,,92,click the 0 key.,,,,,328.83,330.42,0,1,1.053,,0,17,17,91,1,REAL,FAKE,,,,,,,,,,,,,,,,,
,,,,,,,,,6685c283c7d2e84750290782,mexican,13 or older,"no, only English or Spanish",no,2025-08-12_15h32.06.043,empathy_intonation_perc_control,2024.2.4,MacIntel,58.82352941,6685c283c7d2e84750290782,68817205a84113384fffdfe3,689b9693c64c585cb1547334,,,,,,,,,,,,,1,,,,,,,,,,,,,,,,,,,,,,,,,,,,,,,,,,,,,75,yacer,,,,,330.421,332.621,1,1,1.671,,0,18,18,74,1,REAL,FAKE,,,,,,,,,,,,,,,,,
,,,,,,,,,6685c283c7d2e84750290782,mexican,13 or older,"no, only English or Spanish",no,2025-08-12_15h32.06.043,empathy_intonation_perc_control,2024.2.4,MacIntel,58.82352941,6685c283c7d2e84750290782,68817205a84113384fffdfe3,689b9693c64c585cb1547334,,,,,,,,,,,,,1,,,,,,,,,,,,,,,,,,,,,,,,,,,,,,,,,,,,,88,acantilado,,,,,332.622,334.538,0,0,1.384,,0,19,19,87,1,REAL,FAKE,,,,,,,,,,,,,,,,,
,,,,,,,,,6685c283c7d2e84750290782,mexican,13 or older,"no, only English or Spanish",no,2025-08-12_15h32.06.043,empathy_intonation_perc_control,2024.2.4,MacIntel,58.82352941,6685c283c7d2e84750290782,68817205a84113384fffdfe3,689b9693c64c585cb1547334,,,,,,,,,,,,,1,,,,,,,,,,,,,,,,,,,,,,,,,,,,,,,,,,,,,43,canela,,,,,334.539,336.772,1,1,1.713,,0,20,20,42,1,REAL,FAKE,,,,,,,,,,,,,,,,,
,,,,,,,,,6685c283c7d2e84750290782,mexican,13 or older,"no, only English or Spanish",no,2025-08-12_15h32.06.043,empathy_intonation_perc_control,2024.2.4,MacIntel,58.82352941,6685c283c7d2e84750290782,68817205a84113384fffdfe3,689b9693c64c585cb1547334,,,,,,,,,,,,,1,,,,,,,,,,,,,,,,,,,,,,,,,,,,,,,,,,,,,40,alfombra,,,,,336.774,339.068,0,0,1.758,,0,21,21,39,1,REAL,FAKE,,,,,,,,,,,,,,,,,
,,,,,,,,,6685c283c7d2e84750290782,mexican,13 or older,"no, only English or Spanish",no,2025-08-12_15h32.06.043,empathy_intonation_perc_control,2024.2.4,MacIntel,58.82352941,6685c283c7d2e84750290782,68817205a84113384fffdfe3,689b9693c64c585cb1547334,,,,,,,,,,,,,0,,,,,,,,,,,,,,,,,,,,,,,,,,,,,,,,,,,,,87,grodo,,,,,339.07,341.788,1,0,2.193,,0,22,22,86,1,REAL,FAKE,,,,,,,,,,,,,,,,,
,,,,,,,,,6685c283c7d2e84750290782,mexican,13 or older,"no, only English or Spanish",no,2025-08-12_15h32.06.043,empathy_intonation_perc_control,2024.2.4,MacIntel,58.82352941,6685c283c7d2e84750290782,68817205a84113384fffdfe3,689b9693c64c585cb1547334,,,,,,,,,,,,,1,,,,,,,,,,,,,,,,,,,,,,,,,,,,,,,,,,,,,64,orgulloso,,,,,341.789,343.259,0,0,0.943,,0,23,23,63,1,REAL,FAKE,,,,,,,,,,,,,,,,,
,,,,,,,,,6685c283c7d2e84750290782,mexican,13 or older,"no, only English or Spanish",no,2025-08-12_15h32.06.043,empathy_intonation_perc_control,2024.2.4,MacIntel,58.82352941,6685c283c7d2e84750290782,68817205a84113384fffdfe3,689b9693c64c585cb1547334,,,,,,,,,,,,,1,,,,,,,,,,,,,,,,,,,,,,,,,,,,,,,,,,,,,7,pésimo,,,,,343.26,345.361,1,1,1.568,,0,24,24,6,1,REAL,FAKE,,,,,,,,,,,,,,,,,
,,,,,,,,,6685c283c7d2e84750290782,mexican,13 or older,"no, only English or Spanish",no,2025-08-12_15h32.06.043,empathy_intonation_perc_control,2024.2.4,MacIntel,58.82352941,6685c283c7d2e84750290782,68817205a84113384fffdfe3,689b9693c64c585cb1547334,,,,,,,,,,,,,1,,,,,,,,,,,,,,,,,,,,,,,,,,,,,,,,,,,,,71,polvoriento,,,,,345.362,347.237,0,0,1.348,,0,25,25,70,1,REAL,FAKE,,,,,,,,,,,,,,,,,
,,,,,,,,,6685c283c7d2e84750290782,mexican,13 or older,"no, only English or Spanish",no,2025-08-12_15h32.06.043,empathy_intonation_perc_control,2024.2.4,MacIntel,58.82352941,6685c283c7d2e84750290782,68817205a84113384fffdfe3,689b9693c64c585cb1547334,,,,,,,,,,,,,1,,,,,,,,,,,,,,,,,,,,,,,,,,,,,,,,,,,,,20,ávido,,,,,347.239,348.649,1,1,0.878,,0,26,26,19,1,REAL,FAKE,,,,,,,,,,,,,,,,,
,,,,,,,,,6685c283c7d2e84750290782,mexican,13 or older,"no, only English or Spanish",no,2025-08-12_15h32.06.043,empathy_intonation_perc_control,2024.2.4,MacIntel,58.82352941,6685c283c7d2e84750290782,68817205a84113384fffdfe3,689b9693c64c585cb1547334,,,,,,,,,,,,,0,,,,,,,,,,,,,,,,,,,,,,,,,,,,,,,,,,,,,29,decar,,,,,348.65,349.846,1,0,0.675,,0,27,27,28,1,REAL,FAKE,,,,,,,,,,,,,,,,,
,,,,,,,,,6685c283c7d2e84750290782,mexican,13 or older,"no, only English or Spanish",no,2025-08-12_15h32.06.043,empathy_intonation_perc_control,2024.2.4,MacIntel,58.82352941,6685c283c7d2e84750290782,68817205a84113384fffdfe3,689b9693c64c585cb1547334,,,,,,,,,,,,,1,,,,,,,,,,,,,,,,,,,,,,,,,,,,,,,,,,,,,73,hervidor,,,,,349.847,351.208,0,0,0.843,,0,28,28,72,1,REAL,FAKE,,,,,,,,,,,,,,,,,
,,,,,,,,,6685c283c7d2e84750290782,mexican,13 or older,"no, only English or Spanish",no,2025-08-12_15h32.06.043,empathy_intonation_perc_control,2024.2.4,MacIntel,58.82352941,6685c283c7d2e84750290782,68817205a84113384fffdfe3,689b9693c64c585cb1547334,,,,,,,,,,,,,1,,,,,,,,,,,,,,,,,,,,,,,,,,,,,,,,,,,,,46,martillo,,,,,351.209,352.543,0,0,0.801,,0,29,29,45,1,REAL,FAKE,,,,,,,,,,,,,,,,,
,,,,,,,,,6685c283c7d2e84750290782,mexican,13 or older,"no, only English or Spanish",no,2025-08-12_15h32.06.043,empathy_intonation_perc_control,2024.2.4,MacIntel,58.82352941,6685c283c7d2e84750290782,68817205a84113384fffdfe3,689b9693c64c585cb1547334,,,,,,,,,,,,,1,,,,,,,,,,,,,,,,,,,,,,,,,,,,,,,,,,,,,76,atar,,,,,352.544,353.954,1,1,0.885,,0,30,30,75,1,REAL,FAKE,,,,,,,,,,,,,,,,,
,,,,,,,,,6685c283c7d2e84750290782,mexican,13 or older,"no, only English or Spanish",no,2025-08-12_15h32.06.043,empathy_intonation_perc_control,2024.2.4,MacIntel,58.82352941,6685c283c7d2e84750290782,68817205a84113384fffdfe3,689b9693c64c585cb1547334,,,,,,,,,,,,,0,,,,,,,,,,,,,,,,,,,,,,,,,,,,,,,,,,,,,50,flamida,,,,,353.955,355.475,0,1,1.002,,0,31,31,49,1,REAL,FAKE,,,,,,,,,,,,,,,,,
,,,,,,,,,6685c283c7d2e84750290782,mexican,13 or older,"no, only English or Spanish",no,2025-08-12_15h32.06.043,empathy_intonation_perc_control,2024.2.4,MacIntel,58.82352941,6685c283c7d2e84750290782,68817205a84113384fffdfe3,689b9693c64c585cb1547334,,,,,,,,,,,,,1,,,,,,,,,,,,,,,,,,,,,,,,,,,,,,,,,,,,,9,hacha,,,,,355.476,356.74,0,0,0.746,,0,32,32,8,1,REAL,FAKE,,,,,,,,,,,,,,,,,
,,,,,,,,,6685c283c7d2e84750290782,mexican,13 or older,"no, only English or Spanish",no,2025-08-12_15h32.06.043,empathy_intonation_perc_control,2024.2.4,MacIntel,58.82352941,6685c283c7d2e84750290782,68817205a84113384fffdfe3,689b9693c64c585cb1547334,,,,,,,,,,,,,0,,,,,,,,,,,,,,,,,,,,,,,,,,,,,,,,,,,,,1,terzo,,,,,356.742,358.343,0,1,1.072,,0,33,33,0,1,REAL,FAKE,,,,,,,,,,,,,,,,,
,,,,,,,,,6685c283c7d2e84750290782,mexican,13 or older,"no, only English or Spanish",no,2025-08-12_15h32.06.043,empathy_intonation_perc_control,2024.2.4,MacIntel,58.82352941,6685c283c7d2e84750290782,68817205a84113384fffdfe3,689b9693c64c585cb1547334,,,,,,,,,,,,,1,,,,,,,,,,,,,,,,,,,,,,,,,,,,,,,,,,,,,25,bisagra,,,,,358.344,360.008,0,0,1.129,,0,34,34,24,1,REAL,FAKE,,,,,,,,,,,,,,,,,
,,,,,,,,,6685c283c7d2e84750290782,mexican,13 or older,"no, only English or Spanish",no,2025-08-12_15h32.06.043,empathy_intonation_perc_control,2024.2.4,MacIntel,58.82352941,6685c283c7d2e84750290782,68817205a84113384fffdfe3,689b9693c64c585cb1547334,,,,,,,,,,,,,0,,,,,,,,,,,,,,,,,,,,,,,,,,,,,,,,,,,,,16,abracer,,,,,360.01,361.269,1,0,0.739,,0,35,35,15,1,REAL,FAKE,,,,,,,,,,,,,,,,,
,,,,,,,,,6685c283c7d2e84750290782,mexican,13 or older,"no, only English or Spanish",no,2025-08-12_15h32.06.043,empathy_intonation_perc_control,2024.2.4,MacIntel,58.82352941,6685c283c7d2e84750290782,68817205a84113384fffdfe3,689b9693c64c585cb1547334,,,,,,,,,,,,,1,,,,,,,,,,,,,,,,,,,,,,,,,,,,,,,,,,,,,78,frondoso,,,,,361.27,364.201,0,0,2.408,,0,36,36,77,1,REAL,FAKE,,,,,,,,,,,,,,,,,
,,,,,,,,,6685c283c7d2e84750290782,mexican,13 or older,"no, only English or Spanish",no,2025-08-12_15h32.06.043,empathy_intonation_perc_control,2024.2.4,MacIntel,58.82352941,6685c283c7d2e84750290782,68817205a84113384fffdfe3,689b9693c64c585cb1547334,,,,,,,,,,,,,1,,,,,,,,,,,,,,,,,,,,,,,,,,,,,,,,,,,,,48,ladrón,,,,,364.203,365.682,0,0,0.948,,0,37,37,47,1,REAL,FAKE,,,,,,,,,,,,,,,,,
,,,,,,,,,6685c283c7d2e84750290782,mexican,13 or older,"no, only English or Spanish",no,2025-08-12_15h32.06.043,empathy_intonation_perc_control,2024.2.4,MacIntel,58.82352941,6685c283c7d2e84750290782,68817205a84113384fffdfe3,689b9693c64c585cb1547334,,,,,,,,,,,,,0,,,,,,,,,,,,,,,,,,,,,,,,,,,,,,,,,,,,,70,temblo,,,,,365.683,367.02,1,0,0.815,,0,38,38,69,1,REAL,FAKE,,,,,,,,,,,,,,,,,
,,,,,,,,,6685c283c7d2e84750290782,mexican,13 or older,"no, only English or Spanish",no,2025-08-12_15h32.06.043,empathy_intonation_perc_control,2024.2.4,MacIntel,58.82352941,6685c283c7d2e84750290782,68817205a84113384fffdfe3,689b9693c64c585cb1547334,,,,,,,,,,,,,1,,,,,,,,,,,,,,,,,,,,,,,,,,,,,,,,,,,,,55,nevar,,,,,367.021,368.303,1,1,0.766,,0,39,39,54,1,REAL,FAKE,,,,,,,,,,,,,,,,,
,,,,,,,,,6685c283c7d2e84750290782,mexican,13 or older,"no, only English or Spanish",no,2025-08-12_15h32.06.043,empathy_intonation_perc_control,2024.2.4,MacIntel,58.82352941,6685c283c7d2e84750290782,68817205a84113384fffdfe3,689b9693c64c585cb1547334,,,,,,,,,,,,,0,,,,,,,,,,,,,,,,,,,,,,,,,,,,,,,,,,,,,10,antar,,,,,368.304,369.434,0,1,0.612,,0,40,40,9,1,REAL,FAKE,,,,,,,,,,,,,,,,,
,,,,,,,,,6685c283c7d2e84750290782,mexican,13 or older,"no, only English or Spanish",no,2025-08-12_15h32.06.043,empathy_intonation_perc_control,2024.2.4,MacIntel,58.82352941,6685c283c7d2e84750290782,68817205a84113384fffdfe3,689b9693c64c585cb1547334,,,,,,,,,,,,,0,,,,,,,,,,,,,,,,,,,,,,,,,,,,,,,,,,,,,8,cadeña,,,,,369.435,371.167,1,0,1.223,,0,41,41,7,1,REAL,FAKE,,,,,,,,,,,,,,,,,
,,,,,,,,,6685c283c7d2e84750290782,mexican,13 or older,"no, only English or Spanish",no,2025-08-12_15h32.06.043,empathy_intonation_perc_control,2024.2.4,MacIntel,58.82352941,6685c283c7d2e84750290782,68817205a84113384fffdfe3,689b9693c64c585cb1547334,,,,,,,,,,,,,0,,,,,,,,,,,,,,,,,,,,,,,,,,,,,,,,,,,,,4,batillón,,,,,371.168,372.63,0,1,0.932,,0,42,42,3,1,REAL,FAKE,,,,,,,,,,,,,,,,,
,,,,,,,,,6685c283c7d2e84750290782,mexican,13 or older,"no, only English or Spanish",no,2025-08-12_15h32.06.043,empathy_intonation_perc_control,2024.2.4,MacIntel,58.82352941,6685c283c7d2e84750290782,68817205a84113384fffdfe3,689b9693c64c585cb1547334,,,,,,,,,,,,,1,,,,,,,,,,,,,,,,,,,,,,,,,,,,,,,,,,,,,22,lacayo,,,,,372.631,373.902,0,0,0.743,,0,43,43,21,1,REAL,FAKE,,,,,,,,,,,,,,,,,
,,,,,,,,,6685c283c7d2e84750290782,mexican,13 or older,"no, only English or Spanish",no,2025-08-12_15h32.06.043,empathy_intonation_perc_control,2024.2.4,MacIntel,58.82352941,6685c283c7d2e84750290782,68817205a84113384fffdfe3,689b9693c64c585cb1547334,,,,,,,,,,,,,0,,,,,,,,,,,,,,,,,,,,,,,,,,,,,,,,,,,,,21,capillo,,,,,373.903,375.004,0,1,0.579,,0,44,44,20,1,REAL,FAKE,,,,,,,,,,,,,,,,,
,,,,,,,,,6685c283c7d2e84750290782,mexican,13 or older,"no, only English or Spanish",no,2025-08-12_15h32.06.043,empathy_intonation_perc_control,2024.2.4,MacIntel,58.82352941,6685c283c7d2e84750290782,68817205a84113384fffdfe3,689b9693c64c585cb1547334,,,,,,,,,,,,,1,,,,,,,,,,,,,,,,,,,,,,,,,,,,,,,,,,,,,14,yunque,,,,,375.005,376.133,0,0,0.604,,0,45,45,13,1,REAL,FAKE,,,,,,,,,,,,,,,,,
,,,,,,,,,6685c283c7d2e84750290782,mexican,13 or older,"no, only English or Spanish",no,2025-08-12_15h32.06.043,empathy_intonation_perc_control,2024.2.4,MacIntel,58.82352941,6685c283c7d2e84750290782,68817205a84113384fffdfe3,689b9693c64c585cb1547334,,,,,,,,,,,,,1,,,,,,,,,,,,,,,,,,,,,,,,,,,,,,,,,,,,,81,pozo,,,,,376.134,378.117,0,0,1.472,,0,46,46,80,1,REAL,FAKE,,,,,,,,,,,,,,,,,
,,,,,,,,,6685c283c7d2e84750290782,mexican,13 or older,"no, only English or Spanish",no,2025-08-12_15h32.06.043,empathy_intonation_perc_control,2024.2.4,MacIntel,58.82352941,6685c283c7d2e84750290782,68817205a84113384fffdfe3,689b9693c64c585cb1547334,,,,,,,,,,,,,0,,,,,,,,,,,,,,,,,,,,,,,,,,,,,,,,,,,,,27,acutación,,,,,378.119,379.521,1,0,0.869,,0,47,47,26,1,REAL,FAKE,,,,,,,,,,,,,,,,,
,,,,,,,,,6685c283c7d2e84750290782,mexican,13 or older,"no, only English or Spanish",no,2025-08-12_15h32.06.043,empathy_intonation_perc_control,2024.2.4,MacIntel,58.82352941,6685c283c7d2e84750290782,68817205a84113384fffdfe3,689b9693c64c585cb1547334,,,,,,,,,,,,,0,,,,,,,,,,,,,,,,,,,,,,,,,,,,,,,,,,,,,35,rompido,,,,,379.522,380.888,1,0,0.837,,0,48,48,34,1,REAL,FAKE,,,,,,,,,,,,,,,,,
,,,,,,,,,6685c283c7d2e84750290782,mexican,13 or older,"no, only English or Spanish",no,2025-08-12_15h32.06.043,empathy_intonation_perc_control,2024.2.4,MacIntel,58.82352941,6685c283c7d2e84750290782,68817205a84113384fffdfe3,689b9693c64c585cb1547334,,,,,,,,,,,,,0,,,,,,,,,,,,,,,,,,,,,,,,,,,,,,,,,,,,,19,brecedad,,,,,380.889,382.508,0,1,1.087,,0,49,49,18,1,REAL,FAKE,,,,,,,,,,,,,,,,,
,,,,,,,,,6685c283c7d2e84750290782,mexican,13 or older,"no, only English or Spanish",no,2025-08-12_15h32.06.043,empathy_intonation_perc_control,2024.2.4,MacIntel,58.82352941,6685c283c7d2e84750290782,68817205a84113384fffdfe3,689b9693c64c585cb1547334,,,,,,,,,,,,,1,,,,,,,,,,,,,,,,,,,,,,,,,,,,,,,,,,,,,68,alegre,,,,,382.509,384.119,1,1,1.094,,0,50,50,67,1,REAL,FAKE,,,,,,,,,,,,,,,,,
,,,,,,,,,6685c283c7d2e84750290782,mexican,13 or older,"no, only English or Spanish",no,2025-08-12_15h32.06.043,empathy_intonation_perc_control,2024.2.4,MacIntel,58.82352941,6685c283c7d2e84750290782,68817205a84113384fffdfe3,689b9693c64c585cb1547334,,,,,,,,,,,,,0,,,,,,,,,,,,,,,,,,,,,,,,,,,,,,,,,,,,,47,cartinar,,,,,384.12,385.663,1,0,1.021,,0,51,51,46,1,REAL,FAKE,,,,,,,,,,,,,,,,,
,,,,,,,,,6685c283c7d2e84750290782,mexican,13 or older,"no, only English or Spanish",no,2025-08-12_15h32.06.043,empathy_intonation_perc_control,2024.2.4,MacIntel,58.82352941,6685c283c7d2e84750290782,68817205a84113384fffdfe3,689b9693c64c585cb1547334,,,,,,,,,,,,,1,,,,,,,,,,,,,,,,,,,,,,,,,,,,,,,,,,,,,38,estornudar,,,,,385.665,387.405,0,0,1.214,,0,52,52,37,1,REAL,FAKE,,,,,,,,,,,,,,,,,
,,,,,,,,,6685c283c7d2e84750290782,mexican,13 or older,"no, only English or Spanish",no,2025-08-12_15h32.06.043,empathy_intonation_perc_control,2024.2.4,MacIntel,58.82352941,6685c283c7d2e84750290782,68817205a84113384fffdfe3,689b9693c64c585cb1547334,,,,,,,,,,,,,1,,,,,,,,,,,,,,,,,,,,,,,,,,,,,,,,,,,,,65,bizcocho,,,,,387.406,388.817,0,0,0.887,,0,53,53,64,1,REAL,FAKE,,,,,,,,,,,,,,,,,
,,,,,,,,,6685c283c7d2e84750290782,mexican,13 or older,"no, only English or Spanish",no,2025-08-12_15h32.06.043,empathy_intonation_perc_control,2024.2.4,MacIntel,58.82352941,6685c283c7d2e84750290782,68817205a84113384fffdfe3,689b9693c64c585cb1547334,,,,,,,,,,,,,1,,,,,,,,,,,,,,,,,,,,,,,,,,,,,,,,,,,,,31,pandilla,,,,,388.818,391.711,0,0,2.356,,0,54,54,30,1,REAL,FAKE,,,,,,,,,,,,,,,,,
,,,,,,,,,6685c283c7d2e84750290782,mexican,13 or older,"no, only English or Spanish",no,2025-08-12_15h32.06.043,empathy_intonation_perc_control,2024.2.4,MacIntel,58.82352941,6685c283c7d2e84750290782,68817205a84113384fffdfe3,689b9693c64c585cb1547334,,,,,,,,,,,,,1,,,,,,,,,,,,,,,,,,,,,,,,,,,,,,,,,,,,,37,granuja,,,,,391.713,394.371,0,0,2.132,,0,55,55,36,1,REAL,FAKE,,,,,,,,,,,,,,,,,
,,,,,,,,,6685c283c7d2e84750290782,mexican,13 or older,"no, only English or Spanish",no,2025-08-12_15h32.06.043,empathy_intonation_perc_control,2024.2.4,MacIntel,58.82352941,6685c283c7d2e84750290782,68817205a84113384fffdfe3,689b9693c64c585cb1547334,,,,,,,,,,,,,1,,,,,,,,,,,,,,,,,,,,,,,,,,,,,,,,,,,,,3,pulmones,,,,,394.373,396.147,0,0,1.242,,0,56,56,2,1,REAL,FAKE,,,,,,,,,,,,,,,,,
,,,,,,,,,6685c283c7d2e84750290782,mexican,13 or older,"no, only English or Spanish",no,2025-08-12_15h32.06.043,empathy_intonation_perc_control,2024.2.4,MacIntel,58.82352941,6685c283c7d2e84750290782,68817205a84113384fffdfe3,689b9693c64c585cb1547334,,,,,,,,,,,,,1,,,,,,,,,,,,,,,,,,,,,,,,,,,,,,,,,,,,,11,cenefa,,,,,396.148,397.49,0,0,0.822,,0,57,57,10,1,REAL,FAKE,,,,,,,,,,,,,,,,,
,,,,,,,,,6685c283c7d2e84750290782,mexican,13 or older,"no, only English or Spanish",no,2025-08-12_15h32.06.043,empathy_intonation_perc_control,2024.2.4,MacIntel,58.82352941,6685c283c7d2e84750290782,68817205a84113384fffdfe3,689b9693c64c585cb1547334,,,,,,,,,,,,,1,,,,,,,,,,,,,,,,,,,,,,,,,,,,,,,,,,,,,57,tacaño,,,,,397.491,399.189,0,0,1.175,,0,58,58,56,1,REAL,FAKE,,,,,,,,,,,,,,,,,
,,,,,,,,,6685c283c7d2e84750290782,mexican,13 or older,"no, only English or Spanish",no,2025-08-12_15h32.06.043,empathy_intonation_perc_control,2024.2.4,MacIntel,58.82352941,6685c283c7d2e84750290782,68817205a84113384fffdfe3,689b9693c64c585cb1547334,,,,,,,,,,,,,1,,,,,,,,,,,,,,,,,,,,,,,,,,,,,,,,,,,,,69,engatusar,,,,,399.19,401.002,1,1,1.289,,0,59,59,68,1,REAL,FAKE,,,,,,,,,,,,,,,,,
,,,,,,,,,6685c283c7d2e84750290782,mexican,13 or older,"no, only English or Spanish",no,2025-08-12_15h32.06.043,empathy_intonation_perc_control,2024.2.4,MacIntel,58.82352941,6685c283c7d2e84750290782,68817205a84113384fffdfe3,689b9693c64c585cb1547334,,,,,,,,,,,,,1,,,,,,,,,,,,,,,,,,,,,,,,,,,,,,,,,,,,,45,jilguero,,,,,401.002,403.007,0,0,1.476,,0,60,60,44,1,REAL,FAKE,,,,,,,,,,,,,,,,,
,,,,,,,,,6685c283c7d2e84750290782,mexican,13 or older,"no, only English or Spanish",no,2025-08-12_15h32.06.043,empathy_intonation_perc_control,2024.2.4,MacIntel,58.82352941,6685c283c7d2e84750290782,68817205a84113384fffdfe3,689b9693c64c585cb1547334,,,,,,,,,,,,,1,,,,,,,,,,,,,,,,,,,,,,,,,,,,,,,,,,,,,24,látigo,,,,,403.008,404.75,1,1,1.208,,0,61,61,23,1,REAL,FAKE,,,,,,,,,,,,,,,,,
,,,,,,,,,6685c283c7d2e84750290782,mexican,13 or older,"no, only English or Spanish",no,2025-08-12_15h32.06.043,empathy_intonation_perc_control,2024.2.4,MacIntel,58.82352941,6685c283c7d2e84750290782,68817205a84113384fffdfe3,689b9693c64c585cb1547334,,,,,,,,,,,,,0,,,,,,,,,,,,,,,,,,,,,,,,,,,,,,,,,,,,,66,hacido,,,,,404.752,406.028,0,1,0.756,,0,62,62,65,1,REAL,FAKE,,,,,,,,,,,,,,,,,
,,,,,,,,,6685c283c7d2e84750290782,mexican,13 or older,"no, only English or Spanish",no,2025-08-12_15h32.06.043,empathy_intonation_perc_control,2024.2.4,MacIntel,58.82352941,6685c283c7d2e84750290782,68817205a84113384fffdfe3,689b9693c64c585cb1547334,,,,,,,,,,,,,1,,,,,,,,,,,,,,,,,,,,,,,,,,,,,,,,,,,,,86,barato,,,,,406.029,407.443,0,0,0.882,,0,63,63,85,1,REAL,FAKE,,,,,,,,,,,,,,,,,
,,,,,,,,,6685c283c7d2e84750290782,mexican,13 or older,"no, only English or Spanish",no,2025-08-12_15h32.06.043,empathy_intonation_perc_control,2024.2.4,MacIntel,58.82352941,6685c283c7d2e84750290782,68817205a84113384fffdfe3,689b9693c64c585cb1547334,,,,,,,,,,,,,0,,,,,,,,,,,,,,,,,,,,,,,,,,,,,,,,,,,,,23,lampera,,,,,407.445,409.655,1,0,1.686,,0,64,64,22,1,REAL,FAKE,,,,,,,,,,,,,,,,,
,,,,,,,,,6685c283c7d2e84750290782,mexican,13 or older,"no, only English or Spanish",no,2025-08-12_15h32.06.043,empathy_intonation_perc_control,2024.2.4,MacIntel,58.82352941,6685c283c7d2e84750290782,68817205a84113384fffdfe3,689b9693c64c585cb1547334,,,,,,,,,,,,,1,,,,,,,,,,,,,,,,,,,,,,,,,,,,,,,,,,,,,89,prisa,,,,,409.656,410.973,1,1,0.78,,0,65,65,88,1,REAL,FAKE,,,,,,,,,,,,,,,,,
,,,,,,,,,6685c283c7d2e84750290782,mexican,13 or older,"no, only English or Spanish",no,2025-08-12_15h32.06.043,empathy_intonation_perc_control,2024.2.4,MacIntel,58.82352941,6685c283c7d2e84750290782,68817205a84113384fffdfe3,689b9693c64c585cb1547334,,,,,,,,,,,,,1,,,,,,,,,,,,,,,,,,,,,,,,,,,,,,,,,,,,,80,hormiga,,,,,410.974,412.496,0,0,0.993,,0,66,66,79,1,REAL,FAKE,,,,,,,,,,,,,,,,,
,,,,,,,,,6685c283c7d2e84750290782,mexican,13 or older,"no, only English or Spanish",no,2025-08-12_15h32.06.043,empathy_intonation_perc_control,2024.2.4,MacIntel,58.82352941,6685c283c7d2e84750290782,68817205a84113384fffdfe3,689b9693c64c585cb1547334,,,,,,,,,,,,,0,,,,,,,,,,,,,,,,,,,,,,,,,,,,,,,,,,,,,30,alardio,,,,,412.498,413.687,0,1,0.661,,0,67,67,29,1,REAL,FAKE,,,,,,,,,,,,,,,,,
,,,,,,,,,6685c283c7d2e84750290782,mexican,13 or older,"no, only English or Spanish",no,2025-08-12_15h32.06.043,empathy_intonation_perc_control,2024.2.4,MacIntel,58.82352941,6685c283c7d2e84750290782,68817205a84113384fffdfe3,689b9693c64c585cb1547334,,,,,,,,,,,,,1,,,,,,,,,,,,,,,,,,,,,,,,,,,,,,,,,,,,,61,seda,,,,,413.688,415.266,1,1,1.051,,0,68,68,60,1,REAL,FAKE,,,,,,,,,,,,,,,,,
,,,,,,,,,6685c283c7d2e84750290782,mexican,13 or older,"no, only English or Spanish",no,2025-08-12_15h32.06.043,empathy_intonation_perc_control,2024.2.4,MacIntel,58.82352941,6685c283c7d2e84750290782,68817205a84113384fffdfe3,689b9693c64c585cb1547334,,,,,,,,,,,,,1,,,,,,,,,,,,,,,,,,,,,,,,,,,,,,,,,,,,,34,aviso,,,,,415.267,416.807,1,1,1.007,,0,69,69,33,1,REAL,FAKE,,,,,,,,,,,,,,,,,
,,,,,,,,,6685c283c7d2e84750290782,mexican,13 or older,"no, only English or Spanish",no,2025-08-12_15h32.06.043,empathy_intonation_perc_control,2024.2.4,MacIntel,58.82352941,6685c283c7d2e84750290782,68817205a84113384fffdfe3,689b9693c64c585cb1547334,,,,,,,,,,,,,1,,,,,,,,,,,,,,,,,,,,,,,,,,,,,,,,,,,,,13,helar,,,,,416.808,418.019,0,0,0.679,,0,70,70,12,1,REAL,FAKE,,,,,,,,,,,,,,,,,
,,,,,,,,,6685c283c7d2e84750290782,mexican,13 or older,"no, only English or Spanish",no,2025-08-12_15h32.06.043,empathy_intonation_perc_control,2024.2.4,MacIntel,58.82352941,6685c283c7d2e84750290782,68817205a84113384fffdfe3,689b9693c64c585cb1547334,,,,,,,,,,,,,1,,,,,,,,,,,,,,,,,,,,,,,,,,,,,,,,,,,,,54,fomentar,,,,,418.021,419.28,0,0,0.718,,0,71,71,53,1,REAL,FAKE,,,,,,,,,,,,,,,,,
,,,,,,,,,6685c283c7d2e84750290782,mexican,13 or older,"no, only English or Spanish",no,2025-08-12_15h32.06.043,empathy_intonation_perc_control,2024.2.4,MacIntel,58.82352941,6685c283c7d2e84750290782,68817205a84113384fffdfe3,689b9693c64c585cb1547334,,,,,,,,,,,,,1,,,,,,,,,,,,,,,,,,,,,,,,,,,,,,,,,,,,,67,cabello,,,,,419.281,420.807,1,1,1.009,,0,72,72,66,1,REAL,FAKE,,,,,,,,,,,,,,,,,
,,,,,,,,,6685c283c7d2e84750290782,mexican,13 or older,"no, only English or Spanish",no,2025-08-12_15h32.06.043,empathy_intonation_perc_control,2024.2.4,MacIntel,58.82352941,6685c283c7d2e84750290782,68817205a84113384fffdfe3,689b9693c64c585cb1547334,,,,,,,,,,,,,1,,,,,,,,,,,,,,,,,,,,,,,,,,,,,,,,,,,,,77,tiburón,,,,,420.808,422.335,0,0,1.003,,0,73,73,76,1,REAL,FAKE,,,,,,,,,,,,,,,,,
,,,,,,,,,6685c283c7d2e84750290782,mexican,13 or older,"no, only English or Spanish",no,2025-08-12_15h32.06.043,empathy_intonation_perc_control,2024.2.4,MacIntel,58.82352941,6685c283c7d2e84750290782,68817205a84113384fffdfe3,689b9693c64c585cb1547334,,,,,,,,,,,,,1,,,,,,,,,,,,,,,,,,,,,,,,,,,,,,,,,,,,,6,tergiversar,,,,,422.336,423.588,0,0,0.733,,0,74,74,5,1,REAL,FAKE,,,,,,,,,,,,,,,,,
,,,,,,,,,6685c283c7d2e84750290782,mexican,13 or older,"no, only English or Spanish",no,2025-08-12_15h32.06.043,empathy_intonation_perc_control,2024.2.4,MacIntel,58.82352941,6685c283c7d2e84750290782,68817205a84113384fffdfe3,689b9693c64c585cb1547334,,,,,,,,,,,,,0,,,,,,,,,,,,,,,,,,,,,,,,,,,,,,,,,,,,,82,empirador,,,,,423.59,425.033,1,0,0.913,,0,75,75,81,1,REAL,FAKE,,,,,,,,,,,,,,,,,
,,,,,,,,,6685c283c7d2e84750290782,mexican,13 or older,"no, only English or Spanish",no,2025-08-12_15h32.06.043,empathy_intonation_perc_control,2024.2.4,MacIntel,58.82352941,6685c283c7d2e84750290782,68817205a84113384fffdfe3,689b9693c64c585cb1547334,,,,,,,,,,,,,1,,,,,,,,,,,,,,,,,,,,,,,,,,,,,,,,,,,,,12,asesinato,,,,,425.035,426.473,0,0,0.912,,0,76,76,11,1,REAL,FAKE,,,,,,,,,,,,,,,,,
,,,,,,,,,6685c283c7d2e84750290782,mexican,13 or older,"no, only English or Spanish",no,2025-08-12_15h32.06.043,empathy_intonation_perc_control,2024.2.4,MacIntel,58.82352941,6685c283c7d2e84750290782,68817205a84113384fffdfe3,689b9693c64c585cb1547334,,,,,,,,,,,,,0,,,,,,,,,,,,,,,,,,,,,,,,,,,,,,,,,,,,,33,pauca,,,,,426.474,427.748,0,1,0.759,,0,77,77,32,1,REAL,FAKE,,,,,,,,,,,,,,,,,
,,,,,,,,,6685c283c7d2e84750290782,mexican,13 or older,"no, only English or Spanish",no,2025-08-12_15h32.06.043,empathy_intonation_perc_control,2024.2.4,MacIntel,58.82352941,6685c283c7d2e84750290782,68817205a84113384fffdfe3,689b9693c64c585cb1547334,,,,,,,,,,,,,0,,,,,,,,,,,,,,,,,,,,,,,,,,,,,,,,,,,,,79,tropaje,,,,,427.749,429.028,0,1,0.744,,0,78,78,78,1,REAL,FAKE,,,,,,,,,,,,,,,,,
,,,,,,,,,6685c283c7d2e84750290782,mexican,13 or older,"no, only English or Spanish",no,2025-08-12_15h32.06.043,empathy_intonation_perc_control,2024.2.4,MacIntel,58.82352941,6685c283c7d2e84750290782,68817205a84113384fffdfe3,689b9693c64c585cb1547334,,,,,,,,,,,,,0,,,,,,,,,,,,,,,,,,,,,,,,,,,,,,,,,,,,,17,floroso,,,,,429.029,430.333,0,1,0.767,,0,79,79,16,1,REAL,FAKE,,,,,,,,,,,,,,,,,
,,,,,,,,,6685c283c7d2e84750290782,mexican,13 or older,"no, only English or Spanish",no,2025-08-12_15h32.06.043,empathy_intonation_perc_control,2024.2.4,MacIntel,58.82352941,6685c283c7d2e84750290782,68817205a84113384fffdfe3,689b9693c64c585cb1547334,,,,,,,,,,,,,1,,,,,,,,,,,,,,,,,,,,,,,,,,,,,,,,,,,,,36,loro,,,,,430.334,431.796,0,0,0.946,,0,80,80,35,1,REAL,FAKE,,,,,,,,,,,,,,,,,
,,,,,,,,,6685c283c7d2e84750290782,mexican,13 or older,"no, only English or Spanish",no,2025-08-12_15h32.06.043,empathy_intonation_perc_control,2024.2.4,MacIntel,58.82352941,6685c283c7d2e84750290782,68817205a84113384fffdfe3,689b9693c64c585cb1547334,,,,,,,,,,,,,1,,,,,,,,,,,,,,,,,,,,,,,,,,,,,,,,,,,,,62,flaco,,,,,431.798,433.245,0,0,0.922,,0,81,81,61,1,REAL,FAKE,,,,,,,,,,,,,,,,,
,,,,,,,,,6685c283c7d2e84750290782,mexican,13 or older,"no, only English or Spanish",no,2025-08-12_15h32.06.043,empathy_intonation_perc_control,2024.2.4,MacIntel,58.82352941,6685c283c7d2e84750290782,68817205a84113384fffdfe3,689b9693c64c585cb1547334,,,,,,,,,,,,,0,,,,,,,,,,,,,,,,,,,,,,,,,,,,,,,,,,,,,63,esposante,,,,,433.247,434.43,1,0,0.649,,0,82,82,62,1,REAL,FAKE,,,,,,,,,,,,,,,,,
,,,,,,,,,6685c283c7d2e84750290782,mexican,13 or older,"no, only English or Spanish",no,2025-08-12_15h32.06.043,empathy_intonation_perc_control,2024.2.4,MacIntel,58.82352941,6685c283c7d2e84750290782,68817205a84113384fffdfe3,689b9693c64c585cb1547334,,,,,,,,,,,,,1,,,,,,,,,,,,,,,,,,,,,,,,,,,,,,,,,,,,,44,cuchara,,,,,434.431,436.929,1,1,1.974,,0,83,83,43,1,REAL,FAKE,,,,,,,,,,,,,,,,,
,,,,,,,,,6685c283c7d2e84750290782,mexican,13 or older,"no, only English or Spanish",no,2025-08-12_15h32.06.043,empathy_intonation_perc_control,2024.2.4,MacIntel,58.82352941,6685c283c7d2e84750290782,68817205a84113384fffdfe3,689b9693c64c585cb1547334,,,,,,,,,,,,,1,,,,,,,,,,,,,,,,,,,,,,,,,,,,,,,,,,,,,90,clavel,,,,,436.931,438.247,1,1,0.781,,0,84,84,89,1,REAL,FAKE,,,,,,,,,,,,,,,,,
,,,,,,,,,6685c283c7d2e84750290782,mexican,13 or older,"no, only English or Spanish",no,2025-08-12_15h32.06.043,empathy_intonation_perc_control,2024.2.4,MacIntel,58.82352941,6685c283c7d2e84750290782,68817205a84113384fffdfe3,689b9693c64c585cb1547334,,,,,,,,,,,,,0,,,,,,,,,,,,,,,,,,,,,,,,,,,,,,,,,,,,,72,pemición,,,,,438.248,440.515,1,0,1.749,,0,85,85,71,1,REAL,FAKE,,,,,,,,,,,,,,,,,
,,,,,,,,,6685c283c7d2e84750290782,mexican,13 or older,"no, only English or Spanish",no,2025-08-12_15h32.06.043,empathy_intonation_perc_control,2024.2.4,MacIntel,58.82352941,6685c283c7d2e84750290782,68817205a84113384fffdfe3,689b9693c64c585cb1547334,,,,,,,,,,,,,1,,,,,,,,,,,,,,,,,,,,,,,,,,,,,,,,,,,,,56,musgo,,,,,440.516,441.759,0,0,0.714,,0,86,86,55,1,REAL,FAKE,,,,,,,,,,,,,,,,,
,,,,,,,,,6685c283c7d2e84750290782,mexican,13 or older,"no, only English or Spanish",no,2025-08-12_15h32.06.043,empathy_intonation_perc_control,2024.2.4,MacIntel,58.82352941,6685c283c7d2e84750290782,68817205a84113384fffdfe3,689b9693c64c585cb1547334,,,,,,,,,,,,,0,,,,,,,,,,,,,,,,,,,,,,,,,,,,,,,,,,,,,84,escuto,,,,,441.76,443.346,0,1,1.061,,0,87,87,83,1,REAL,FAKE,,,,,,,,,,,,,,,,,
,,,,,,,,,6685c283c7d2e84750290782,mexican,13 or older,"no, only English or Spanish",no,2025-08-12_15h32.06.043,empathy_intonation_perc_control,2024.2.4,MacIntel,58.82352941,6685c283c7d2e84750290782,68817205a84113384fffdfe3,689b9693c64c585cb1547334,,,,,,,,,,,,,1,,,,,,,,,,,,,,,,,,,,,,,,,,,,,,,,,,,,,39,torpe,,,,,443.347,444.784,0,0,0.918,,0,88,88,38,1,REAL,FAKE,,,,,,,,,,,,,,,,,
,,,,,,,,,6685c283c7d2e84750290782,mexican,13 or older,"no, only English or Spanish",no,2025-08-12_15h32.06.043,empathy_intonation_perc_control,2024.2.4,MacIntel,58.82352941,6685c283c7d2e84750290782,68817205a84113384fffdfe3,689b9693c64c585cb1547334,,,,,,,,,,,,,1,,,,,,,,,,,,,,,,,,,,,,,,,,,,,,,,,,,,,60,matar,,,,,444.786,446.156,1,1,0.844,,0,89,89,59,1,REAL,FAKE,,,,,,,,,,,,,,,,,
,,,,,,,,,6685c283c7d2e84750290782,mexican,13 or older,"no, only English or Spanish",no,2025-08-12_15h32.06.043,empathy_intonation_perc_control,2024.2.4,MacIntel,58.82352941,6685c283c7d2e84750290782,68817205a84113384fffdfe3,689b9693c64c585cb1547334,,,,,,,,,,,,,0,,,,,,,,,,,,,,,,,,,,,,,,,,,,,,,,,,,,,42,cadallo,,,,,446.157,447.422,0,1,0.749,,0,90,90,41,1,REAL,FAKE,,,,,,,,,,,,,,,,,
,,,,,,,,,6685c283c7d2e84750290782,mexican,13 or older,"no, only English or Spanish",no,2025-08-12_15h32.06.043,empathy_intonation_perc_control,2024.2.4,MacIntel,58.82352941,6685c283c7d2e84750290782,68817205a84113384fffdfe3,689b9693c64c585cb1547334,,,,,,,,,,,,,1,,,,,,,,,,,,,,,,,,,,,,,,,,,,,,,,,,,,,15,regar,,,,,447.424,448.723,0,0,0.772,,0,91,91,14,1,REAL,FAKE,,,,,,,,,,,,,,,,,
,,,,,,,,,6685c283c7d2e84750290782,mexican,13 or older,"no, only English or Spanish",no,2025-08-12_15h32.06.043,empathy_intonation_perc_control,2024.2.4,MacIntel,58.82352941,6685c283c7d2e84750290782,68817205a84113384fffdfe3,689b9693c64c585cb1547334,,,,,,,,,,,,,,,,,,,,,,,,,,,,,,,,,,,,,,,,,,,,,,,,,,,,,,,,,,,,,,,,,,,,,448.725,458.099,,,,,,,,,,,,,,,
,,,,,,,,,6685c283c7d2e84750290782,mexican,13 or older,"no, only English or Spanish",no,2025-08-12_15h32.06.043,empathy_intonation_perc_control,2024.2.4,MacIntel,58.82352941,6685c283c7d2e84750290782,68817205a84113384fffdfe3,689b9693c64c585cb1547334,,,,,,,,,,,,,,,,,,,,,,,,,,,1,,,,,,,,,,,,,,,,,,,,,,,,,,,,,,,,,,,,,,,,,,,,458.108,463.2,slightly agree,0,0,0,0,1,I can easily tell if someone else wants to enter a conversation.,1,0,1,0,,
,,,,,,,,,6685c283c7d2e84750290782,mexican,13 or older,"no, only English or Spanish",no,2025-08-12_15h32.06.043,empathy_intonation_perc_control,2024.2.4,MacIntel,58.82352941,6685c283c7d2e84750290782,68817205a84113384fffdfe3,689b9693c64c585cb1547334,,,,,,,,,,,,,,,,,,,,,,,,,,,2,,,,,,,,,,,,,,,,,,,,,,,,,,,,,,,,,,,,,,,,,,,,463.202,466.3,strongly agree,0,1,1,1,1,I prefer animals to humans.,0,1,0,0,,
,,,,,,,,,6685c283c7d2e84750290782,mexican,13 or older,"no, only English or Spanish",no,2025-08-12_15h32.06.043,empathy_intonation_perc_control,2024.2.4,MacIntel,58.82352941,6685c283c7d2e84750290782,68817205a84113384fffdfe3,689b9693c64c585cb1547334,,,,,,,,,,,,,,,,,,,,,,,,,,,3,,,,,,,,,,,,,,,,,,,,,,,,,,,,,,,,,,,,,,,,,,,,466.301,469.017,strongly disagree,0,2,2,2,1,I try to keep up with the current trends and fashions.,0,1,0,0,,
,,,,,,,,,6685c283c7d2e84750290782,mexican,13 or older,"no, only English or Spanish",no,2025-08-12_15h32.06.043,empathy_intonation_perc_control,2024.2.4,MacIntel,58.82352941,6685c283c7d2e84750290782,68817205a84113384fffdfe3,689b9693c64c585cb1547334,,,,,,,,,,,,,,,,,,,,,,,,,,,4,,,,,,,,,,,,,,,,,,,,,,,,,,,,,,,,,,,,,,,,,,,,469.018,476.2,strongly agree,0,3,3,3,1,"I find it difficult to explain to others things that I understand easily,   when they don't understand it first time.",1,0,0,1,,
,,,,,,,,,6685c283c7d2e84750290782,mexican,13 or older,"no, only English or Spanish",no,2025-08-12_15h32.06.043,empathy_intonation_perc_control,2024.2.4,MacIntel,58.82352941,6685c283c7d2e84750290782,68817205a84113384fffdfe3,689b9693c64c585cb1547334,,,,,,,,,,,,,,,,,,,,,,,,,,,5,,,,,,,,,,,,,,,,,,,,,,,,,,,,,,,,,,,,,,,,,,,,476.201,478.25,slightly agree,0,4,4,4,1,I dream most nights.,0,1,0,0,,
,,,,,,,,,6685c283c7d2e84750290782,mexican,13 or older,"no, only English or Spanish",no,2025-08-12_15h32.06.043,empathy_intonation_perc_control,2024.2.4,MacIntel,58.82352941,6685c283c7d2e84750290782,68817205a84113384fffdfe3,689b9693c64c585cb1547334,,,,,,,,,,,,,,,,,,,,,,,,,,,6,,,,,,,,,,,,,,,,,,,,,,,,,,,,,,,,,,,,,,,,,,,,478.251,481.383,slightly agree,0,5,5,5,1,I really enjoy caring for other people.,1,0,1,0,,
,,,,,,,,,6685c283c7d2e84750290782,mexican,13 or older,"no, only English or Spanish",no,2025-08-12_15h32.06.043,empathy_intonation_perc_control,2024.2.4,MacIntel,58.82352941,6685c283c7d2e84750290782,68817205a84113384fffdfe3,689b9693c64c585cb1547334,,,,,,,,,,,,,,,,,,,,,,,,,,,7,,,,,,,,,,,,,,,,,,,,,,,,,,,,,,,,,,,,,,,,,,,,481.384,483.766,strongly agree,0,6,6,6,1,I try to solve my own problems rather than discussing them with others.,0,1,0,0,,
,,,,,,,,,6685c283c7d2e84750290782,mexican,13 or older,"no, only English or Spanish",no,2025-08-12_15h32.06.043,empathy_intonation_perc_control,2024.2.4,MacIntel,58.82352941,6685c283c7d2e84750290782,68817205a84113384fffdfe3,689b9693c64c585cb1547334,,,,,,,,,,,,,,,,,,,,,,,,,,,8,,,,,,,,,,,,,,,,,,,,,,,,,,,,,,,,,,,,,,,,,,,,483.768,488.199,strongly agree,0,7,7,7,1,I find it hard to know what to do in a social situation.,1,0,0,1,,
,,,,,,,,,6685c283c7d2e84750290782,mexican,13 or older,"no, only English or Spanish",no,2025-08-12_15h32.06.043,empathy_intonation_perc_control,2024.2.4,MacIntel,58.82352941,6685c283c7d2e84750290782,68817205a84113384fffdfe3,689b9693c64c585cb1547334,,,,,,,,,,,,,,,,,,,,,,,,,,,9,,,,,,,,,,,,,,,,,,,,,,,,,,,,,,,,,,,,,,,,,,,,488.2,491.699,slightly agree,0,8,8,8,1,I am at my best first thing in the morning.,0,1,0,0,,
,,,,,,,,,6685c283c7d2e84750290782,mexican,13 or older,"no, only English or Spanish",no,2025-08-12_15h32.06.043,empathy_intonation_perc_control,2024.2.4,MacIntel,58.82352941,6685c283c7d2e84750290782,68817205a84113384fffdfe3,689b9693c64c585cb1547334,,,,,,,,,,,,,,,,,,,,,,,,,,,10,,,,,,,,,,,,,,,,,,,,,,,,,,,,,,,,,,,,,,,,,,,,491.701,495.734,slightly disagree,0,9,9,9,1,People often tell me that I went too far in driving my point home in a discussion.,1,0,0,1,,
,,,,,,,,,6685c283c7d2e84750290782,mexican,13 or older,"no, only English or Spanish",no,2025-08-12_15h32.06.043,empathy_intonation_perc_control,2024.2.4,MacIntel,58.82352941,6685c283c7d2e84750290782,68817205a84113384fffdfe3,689b9693c64c585cb1547334,,,,,,,,,,,,,,,,,,,,,,,,,,,11,,,,,,,,,,,,,,,,,,,,,,,,,,,,,,,,,,,,,,,,,,,,495.736,500.017,strongly disagree,0,10,10,10,1,It doesn't bother me too much if I am late meeting a friend.,1,0,0,1,,
,,,,,,,,,6685c283c7d2e84750290782,mexican,13 or older,"no, only English or Spanish",no,2025-08-12_15h32.06.043,empathy_intonation_perc_control,2024.2.4,MacIntel,58.82352941,6685c283c7d2e84750290782,68817205a84113384fffdfe3,689b9693c64c585cb1547334,,,,,,,,,,,,,,,,,,,,,,,,,,,12,,,,,,,,,,,,,,,,,,,,,,,,,,,,,,,,,,,,,,,,,,,,500.019,503.362,slightly disagree,0,11,11,11,1,"Friendships and relationships are just too difficult, so I tend not to 
  bother with them.",1,0,0,1,,
,,,,,,,,,6685c283c7d2e84750290782,mexican,13 or older,"no, only English or Spanish",no,2025-08-12_15h32.06.043,empathy_intonation_perc_control,2024.2.4,MacIntel,58.82352941,6685c283c7d2e84750290782,68817205a84113384fffdfe3,689b9693c64c585cb1547334,,,,,,,,,,,,,,,,,,,,,,,,,,,13,,,,,,,,,,,,,,,,,,,,,,,,,,,,,,,,,,,,,,,,,,,,503.363,505.946,slightly agree,0,12,12,12,1,"I would never break a law, no matter how minor.",0,1,0,0,,
,,,,,,,,,6685c283c7d2e84750290782,mexican,13 or older,"no, only English or Spanish",no,2025-08-12_15h32.06.043,empathy_intonation_perc_control,2024.2.4,MacIntel,58.82352941,6685c283c7d2e84750290782,68817205a84113384fffdfe3,689b9693c64c585cb1547334,,,,,,,,,,,,,,,,,,,,,,,,,,,14,,,,,,,,,,,,,,,,,,,,,,,,,,,,,,,,,,,,,,,,,,,,505.947,509.778,slightly agree,0,13,13,13,1,I often find it difficult to judge if something is rude or polite.,1,0,0,1,,
,,,,,,,,,6685c283c7d2e84750290782,mexican,13 or older,"no, only English or Spanish",no,2025-08-12_15h32.06.043,empathy_intonation_perc_control,2024.2.4,MacIntel,58.82352941,6685c283c7d2e84750290782,68817205a84113384fffdfe3,689b9693c64c585cb1547334,,,,,,,,,,,,,,,,,,,,,,,,,,,15,,,,,,,,,,,,,,,,,,,,,,,,,,,,,,,,,,,,,,,,,,,,509.78,514.892,slightly agree,0,14,14,14,1,"In a conversation, I tend to focus on my own thoughts rather than on what 
  my listener might be thinking.",1,0,0,1,,
,,,,,,,,,6685c283c7d2e84750290782,mexican,13 or older,"no, only English or Spanish",no,2025-08-12_15h32.06.043,empathy_intonation_perc_control,2024.2.4,MacIntel,58.82352941,6685c283c7d2e84750290782,68817205a84113384fffdfe3,689b9693c64c585cb1547334,,,,,,,,,,,,,,,,,,,,,,,,,,,16,,,,,,,,,,,,,,,,,,,,,,,,,,,,,,,,,,,,,,,,,,,,514.893,519.424,slightly disagree,0,15,15,15,1,I prefer practical jokes to verbal humor.,0,1,0,0,,
,,,,,,,,,6685c283c7d2e84750290782,mexican,13 or older,"no, only English or Spanish",no,2025-08-12_15h32.06.043,empathy_intonation_perc_control,2024.2.4,MacIntel,58.82352941,6685c283c7d2e84750290782,68817205a84113384fffdfe3,689b9693c64c585cb1547334,,,,,,,,,,,,,,,,,,,,,,,,,,,17,,,,,,,,,,,,,,,,,,,,,,,,,,,,,,,,,,,,,,,,,,,,519.426,522.141,slightly agree,0,16,16,16,1,I live life for today rather than the future.,0,1,0,0,,
,,,,,,,,,6685c283c7d2e84750290782,mexican,13 or older,"no, only English or Spanish",no,2025-08-12_15h32.06.043,empathy_intonation_perc_control,2024.2.4,MacIntel,58.82352941,6685c283c7d2e84750290782,68817205a84113384fffdfe3,689b9693c64c585cb1547334,,,,,,,,,,,,,,,,,,,,,,,,,,,18,,,,,,,,,,,,,,,,,,,,,,,,,,,,,,,,,,,,,,,,,,,,522.142,526.674,strongly disagree,0,17,17,17,1,"When I was a child, I enjoyed cutting up worms to see what would happen.",1,0,0,1,,
,,,,,,,,,6685c283c7d2e84750290782,mexican,13 or older,"no, only English or Spanish",no,2025-08-12_15h32.06.043,empathy_intonation_perc_control,2024.2.4,MacIntel,58.82352941,6685c283c7d2e84750290782,68817205a84113384fffdfe3,689b9693c64c585cb1547334,,,,,,,,,,,,,,,,,,,,,,,,,,,19,,,,,,,,,,,,,,,,,,,,,,,,,,,,,,,,,,,,,,,,,,,,526.676,532.474,strongly agree,0,18,18,18,1,I can pick up quickly if someone says one thing but means another.,1,0,1,0,,
,,,,,,,,,6685c283c7d2e84750290782,mexican,13 or older,"no, only English or Spanish",no,2025-08-12_15h32.06.043,empathy_intonation_perc_control,2024.2.4,MacIntel,58.82352941,6685c283c7d2e84750290782,68817205a84113384fffdfe3,689b9693c64c585cb1547334,,,,,,,,,,,,,,,,,,,,,,,,,,,20,,,,,,,,,,,,,,,,,,,,,,,,,,,,,,,,,,,,,,,,,,,,532.475,535.724,strongly agree,0,19,19,19,1,I tend to have very strong opinions about morality.,0,1,0,0,,
,,,,,,,,,6685c283c7d2e84750290782,mexican,13 or older,"no, only English or Spanish",no,2025-08-12_15h32.06.043,empathy_intonation_perc_control,2024.2.4,MacIntel,58.82352941,6685c283c7d2e84750290782,68817205a84113384fffdfe3,689b9693c64c585cb1547334,,,,,,,,,,,,,,,,,,,,,,,,,,,21,,,,,,,,,,,,,,,,,,,,,,,,,,,,,,,,,,,,,,,,,,,,535.726,539.174,strongly disagree,0,20,20,20,1,It is hard for me to see why some things upset people so much.,1,0,0,1,,
,,,,,,,,,6685c283c7d2e84750290782,mexican,13 or older,"no, only English or Spanish",no,2025-08-12_15h32.06.043,empathy_intonation_perc_control,2024.2.4,MacIntel,58.82352941,6685c283c7d2e84750290782,68817205a84113384fffdfe3,689b9693c64c585cb1547334,,,,,,,,,,,,,,,,,,,,,,,,,,,22,,,,,,,,,,,,,,,,,,,,,,,,,,,,,,,,,,,,,,,,,,,,539.175,541.59,strongly agree,0,21,21,21,1,I find it easy to put myself in somebody else's shoes.,1,0,1,0,,
,,,,,,,,,6685c283c7d2e84750290782,mexican,13 or older,"no, only English or Spanish",no,2025-08-12_15h32.06.043,empathy_intonation_perc_control,2024.2.4,MacIntel,58.82352941,6685c283c7d2e84750290782,68817205a84113384fffdfe3,689b9693c64c585cb1547334,,,,,,,,,,,,,,,,,,,,,,,,,,,23,,,,,,,,,,,,,,,,,,,,,,,,,,,,,,,,,,,,,,,,,,,,541.592,545.208,slightly agree,0,22,22,22,1,I think that good manners are the most important thing a parent can teach their child.,0,1,0,0,,
,,,,,,,,,6685c283c7d2e84750290782,mexican,13 or older,"no, only English or Spanish",no,2025-08-12_15h32.06.043,empathy_intonation_perc_control,2024.2.4,MacIntel,58.82352941,6685c283c7d2e84750290782,68817205a84113384fffdfe3,689b9693c64c585cb1547334,,,,,,,,,,,,,,,,,,,,,,,,,,,24,,,,,,,,,,,,,,,,,,,,,,,,,,,,,,,,,,,,,,,,,,,,545.21,547.658,slightly disagree,0,23,23,23,1,I like to do things on the spur of the moment.,0,1,0,0,,
,,,,,,,,,6685c283c7d2e84750290782,mexican,13 or older,"no, only English or Spanish",no,2025-08-12_15h32.06.043,empathy_intonation_perc_control,2024.2.4,MacIntel,58.82352941,6685c283c7d2e84750290782,68817205a84113384fffdfe3,689b9693c64c585cb1547334,,,,,,,,,,,,,,,,,,,,,,,,,,,25,,,,,,,,,,,,,,,,,,,,,,,,,,,,,,,,,,,,,,,,,,,,547.66,550.841,strongly agree,0,24,24,24,1,I am good at predicting how someone will feel.,1,0,1,0,,
