instructions_2afc.started,instructions_2afc.stopped,instructions_2afc_loop.thisRepN,instructions_2afc_loop.thisTrialN,instructions_2afc_loop.thisN,instructions_2afc_loop.thisIndex,instructions_2afc_loop.ran,instructions_text,continue_text,participant_id,"What variety of Spanish are you most familiar with? (e.g., Peruvian, Spanish, Mexican)",At what age did you begin learning Spanish?,Are you proficient in any languages other than English/Spanish?,"Are you familiar with Caribbean (e.g., Caribbean, Puerto Rican) or Galician Spanish?",date,expName,psychopyVersion,OS,frameRate,id,study_id,session,practice_2afc.started,practice_2afc.stopped,key_resp_2afc_practice.keys,key_resp_2afc_practice.corr,key_resp_2afc_practice.rt,key_resp_2afc_practice.duration,trials_2afc_practice_loop.thisRepN,trials_2afc_practice_loop.thisTrialN,trials_2afc_practice_loop.thisN,trials_2afc_practice_loop.thisIndex,trials_2afc_practice_loop.ran,path,correct_response,check_2afc.started,check_2afc.stopped,trial_2afc.started,trial_2afc.stopped,key_resp_2afc_trial.keys,key_resp_2afc_trial.corr,key_resp_2afc_trial.rt,key_resp_2afc_trial.duration,trials_2afc_loop.thisRepN,trials_2afc_loop.thisTrialN,trials_2afc_loop.thisN,trials_2afc_loop.thisIndex,trials_2afc_loop.ran,item_num,target,variety,instructions_lextale.started,instructions_lextale.stopped,instructions_lextale_loop.thisRepN,instructions_lextale_loop.thisTrialN,instructions_lextale_loop.thisN,instructions_lextale_loop.thisIndex,instructions_lextale_loop.ran,practice_lextale.started,practice_lextale.stopped,key_resp_lextale_practice.keys,key_resp_lextale_practice.corr,key_resp_lextale_practice.rt,key_resp_lextale_practice.duration,practice_feedback_lextale.started,practice_feedback_lextale.stopped,trials_lextale_practice_loop.thisRepN,trials_lextale_practice_loop.thisTrialN,trials_lextale_practice_loop.thisN,trials_lextale_practice_loop.thisIndex,trials_lextale_practice_loop.ran,stim,word,prac_button_real,prac_button_false,check_lextale.started,check_lextale.stopped,trial_lextale.started,trial_lextale.stopped,key_resp_lextale_trial.keys,key_resp_lextale_trial.corr,key_resp_lextale_trial.rt,key_resp_lextale_trial.duration,trials_lextale_loop.thisRepN,trials_lextale_loop.thisTrialN,trials_lextale_loop.thisN,trials_lextale_loop.thisIndex,trials_lextale_loop.ran,button_real,button_false,instructions_eq.started,instructions_eq.stopped,trial_eq.started,trial_eq.stopped,slider_eq_trial.response,trials_eq_loop.thisRepN,trials_eq_loop.thisTrialN,trials_eq_loop.thisN,trials_eq_loop.thisIndex,trials_eq_loop.ran,item,is_test_item,is_distractor,is_agree_score,is_disagree_score,end_exp.started,end_exp.stopped
0.0077,15.3962,0,0,0,0,1,"In the following task you are going to hear a series of utterances. 

  You will decide if the utterances sound like questions or not using your keyboard.", (press the spacebar to continue),6695a62c614f900eb86de512,Spanish,13 or older,"no, only English or Spanish",no,2025-07-23_20h35.18.028,empathy_intonation_perc_control,2024.2.4,MacIntel,112.3595506,6695a62c614f900eb86de512,68817205a84113384fffdfe3,68817f9d84c4d75bc1fc03fc,,,,,,,,,,,,,,,,,,,,,,,,,,,,,,,,,,,,,,,,,,,,,,,,,,,,,,,,,,,,,,,,,,,,,,,,,,,,,,,,,,,,,
15.3979,22.9219,0,1,1,1,1,"If you believe the utterance is a question, type '1' (for 'yes') and if you do not 
  believe it is a question type '0' (for 'no').

  Let's practice a bit...", (press the spacebar to continue),6695a62c614f900eb86de512,Spanish,13 or older,"no, only English or Spanish",no,2025-07-23_20h35.18.028,empathy_intonation_perc_control,2024.2.4,MacIntel,112.3595506,6695a62c614f900eb86de512,68817205a84113384fffdfe3,68817f9d84c4d75bc1fc03fc,,,,,,,,,,,,,,,,,,,,,,,,,,,,,,,,,,,,,,,,,,,,,,,,,,,,,,,,,,,,,,,,,,,,,,,,,,,,,,,,,,,,,
,,,,,,,,,6695a62c614f900eb86de512,Spanish,13 or older,"no, only English or Spanish",no,2025-07-23_20h35.18.028,empathy_intonation_perc_control,2024.2.4,MacIntel,112.3595506,6695a62c614f900eb86de512,68817205a84113384fffdfe3,68817f9d84c4d75bc1fc03fc,22.9321,26.5126,1,1,3.068,,0,0,0,1,1,./stim/wavs/argentine_question_filler_Mi-vecino-habla-mucho.wav,1,,,,,,,,,,,,,,,,,,,,,,,,,,,,,,,,,,,,,,,,,,,,,,,,,,,,,,,,,,,,,,,,,,,,,,,,
,,,,,,,,,6695a62c614f900eb86de512,Spanish,13 or older,"no, only English or Spanish",no,2025-07-23_20h35.18.028,empathy_intonation_perc_control,2024.2.4,MacIntel,112.3595506,6695a62c614f900eb86de512,68817205a84113384fffdfe3,68817f9d84c4d75bc1fc03fc,26.5136,29.3707,1,1,2.3436,,0,1,1,0,1,./stim/wavs/castilian_question_filler_Mi-esposo-conoce-al-chico.wav,1,,,,,,,,,,,,,,,,,,,,,,,,,,,,,,,,,,,,,,,,,,,,,,,,,,,,,,,,,,,,,,,,,,,,,,,,
,,,,,,,,,6695a62c614f900eb86de512,Spanish,13 or older,"no, only English or Spanish",no,2025-07-23_20h35.18.028,empathy_intonation_perc_control,2024.2.4,MacIntel,112.3595506,6695a62c614f900eb86de512,68817205a84113384fffdfe3,68817f9d84c4d75bc1fc03fc,29.3712,31.6539,0,1,1.7664,,0,2,2,4,1,./stim/wavs/cuban_statement_filler_Cocinabas-por-la-noche.wav,0,,,,,,,,,,,,,,,,,,,,,,,,,,,,,,,,,,,,,,,,,,,,,,,,,,,,,,,,,,,,,,,,,,,,,,,,
,,,,,,,,,6695a62c614f900eb86de512,Spanish,13 or older,"no, only English or Spanish",no,2025-07-23_20h35.18.028,empathy_intonation_perc_control,2024.2.4,MacIntel,112.3595506,6695a62c614f900eb86de512,68817205a84113384fffdfe3,68817f9d84c4d75bc1fc03fc,31.6545,34.2039,1,1,2.0303,,0,3,3,3,1,./stim/wavs/mexican_question_filler_Felipe-no-tiene-contrasena.wav,1,,,,,,,,,,,,,,,,,,,,,,,,,,,,,,,,,,,,,,,,,,,,,,,,,,,,,,,,,,,,,,,,,,,,,,,,
,,,,,,,,,6695a62c614f900eb86de512,Spanish,13 or older,"no, only English or Spanish",no,2025-07-23_20h35.18.028,empathy_intonation_perc_control,2024.2.4,MacIntel,112.3595506,6695a62c614f900eb86de512,68817205a84113384fffdfe3,68817f9d84c4d75bc1fc03fc,34.2043,36.4551,0,1,1.7327,,0,4,4,7,1,./stim/wavs/puertorican_statement_filler_La-nina-pinta-con-su-amiga.wav,0,,,,,,,,,,,,,,,,,,,,,,,,,,,,,,,,,,,,,,,,,,,,,,,,,,,,,,,,,,,,,,,,,,,,,,,,
,,,,,,,,,6695a62c614f900eb86de512,Spanish,13 or older,"no, only English or Spanish",no,2025-07-23_20h35.18.028,empathy_intonation_perc_control,2024.2.4,MacIntel,112.3595506,6695a62c614f900eb86de512,68817205a84113384fffdfe3,68817f9d84c4d75bc1fc03fc,36.4569,39.0463,0,1,2.0795,,0,5,5,6,1,./stim/wavs/peruvian_statement_filler_El-nino-habla-con-su-madre.wav,0,,,,,,,,,,,,,,,,,,,,,,,,,,,,,,,,,,,,,,,,,,,,,,,,,,,,,,,,,,,,,,,,,,,,,,,,
,,,,,,,,,6695a62c614f900eb86de512,Spanish,13 or older,"no, only English or Spanish",no,2025-07-23_20h35.18.028,empathy_intonation_perc_control,2024.2.4,MacIntel,112.3595506,6695a62c614f900eb86de512,68817205a84113384fffdfe3,68817f9d84c4d75bc1fc03fc,39.0468,41.0039,0,0,1.4393,,0,6,6,2,1,./stim/wavs/chilean_question_filler_Mi-padre-cantaba-bien.wav,1,,,,,,,,,,,,,,,,,,,,,,,,,,,,,,,,,,,,,,,,,,,,,,,,,,,,,,,,,,,,,,,,,,,,,,,,
,,,,,,,,,6695a62c614f900eb86de512,Spanish,13 or older,"no, only English or Spanish",no,2025-07-23_20h35.18.028,empathy_intonation_perc_control,2024.2.4,MacIntel,112.3595506,6695a62c614f900eb86de512,68817205a84113384fffdfe3,68817f9d84c4d75bc1fc03fc,41.0044,43.4455,0,1,1.9277,,0,7,7,5,1,./stim/wavs/andalusian_statement_filler_Alberto-nunca-se-afeita.wav,0,,,,,,,,,,,,,,,,,,,,,,,,,,,,,,,,,,,,,,,,,,,,,,,,,,,,,,,,,,,,,,,,,,,,,,,,
,,,,,,,,,6695a62c614f900eb86de512,Spanish,13 or older,"no, only English or Spanish",no,2025-07-23_20h35.18.028,empathy_intonation_perc_control,2024.2.4,MacIntel,112.3595506,6695a62c614f900eb86de512,68817205a84113384fffdfe3,68817f9d84c4d75bc1fc03fc,,,,,,,,,,,,,,43.4458,49.6876,,,,,,,,,,,,,,,,,,,,,,,,,,,,,,,,,,,,,,,,,,,,,,,,,,,,,,,,,,,,,,,,,,,,,,
,,,,,,,,,6695a62c614f900eb86de512,Spanish,13 or older,"no, only English or Spanish",no,2025-07-23_20h35.18.028,empathy_intonation_perc_control,2024.2.4,MacIntel,112.3595506,6695a62c614f900eb86de512,68817205a84113384fffdfe3,68817f9d84c4d75bc1fc03fc,,,,,,,,,,,,./stim/wavs/cuban_match_declarative-broad-focus_Ana-lleva-el-abrigo.wav,0,,,49.6964,51.8873,0,1,1.6733,,0,0,0,50,1,51,0,cuban,,,,,,,,,,,,,,,,,,,,,,,,,,,,,,,,,,,,,,,,,,,,,,,,,,,,,,,,
,,,,,,,,,6695a62c614f900eb86de512,Spanish,13 or older,"no, only English or Spanish",no,2025-07-23_20h35.18.028,empathy_intonation_perc_control,2024.2.4,MacIntel,112.3595506,6695a62c614f900eb86de512,68817205a84113384fffdfe3,68817f9d84c4d75bc1fc03fc,,,,,,,,,,,,./stim/wavs/puertorican_match_interrogative-total-yn_Ana-lleva-el-abrigo.wav,1,,,51.8877,53.8951,0,0,1.4952,,0,1,1,18,1,19,1,puertorican,,,,,,,,,,,,,,,,,,,,,,,,,,,,,,,,,,,,,,,,,,,,,,,,,,,,,,,,
,,,,,,,,,6695a62c614f900eb86de512,Spanish,13 or older,"no, only English or Spanish",no,2025-07-23_20h35.18.028,empathy_intonation_perc_control,2024.2.4,MacIntel,112.3595506,6695a62c614f900eb86de512,68817205a84113384fffdfe3,68817f9d84c4d75bc1fc03fc,,,,,,,,,,,,./stim/wavs/mexican_mismatch_declarative-broad-focus_El-bebe-comia-muy-bien.wav,0,,,53.8956,55.9705,0,1,1.5627,,0,2,2,78,1,79,0,mexican,,,,,,,,,,,,,,,,,,,,,,,,,,,,,,,,,,,,,,,,,,,,,,,,,,,,,,,,
,,,,,,,,,6695a62c614f900eb86de512,Spanish,13 or older,"no, only English or Spanish",no,2025-07-23_20h35.18.028,empathy_intonation_perc_control,2024.2.4,MacIntel,112.3595506,6695a62c614f900eb86de512,68817205a84113384fffdfe3,68817f9d84c4d75bc1fc03fc,,,,,,,,,,,,./stim/wavs/castilian_match_interrogative-total-yn_Mariano-habla-del-tiempo.wav,1,,,55.971,58.4363,1,1,1.9522,,0,3,3,4,1,5,0,castilian,,,,,,,,,,,,,,,,,,,,,,,,,,,,,,,,,,,,,,,,,,,,,,,,,,,,,,,,
,,,,,,,,,6695a62c614f900eb86de512,Spanish,13 or older,"no, only English or Spanish",no,2025-07-23_20h35.18.028,empathy_intonation_perc_control,2024.2.4,MacIntel,112.3595506,6695a62c614f900eb86de512,68817205a84113384fffdfe3,68817f9d84c4d75bc1fc03fc,,,,,,,,,,,,./stim/wavs/mexican_match_interrogative-total-yn_Daniel-iba-a-Bolivia.wav,1,,,58.4368,60.7219,1,1,1.7815,,0,4,4,13,1,14,0,mexican,,,,,,,,,,,,,,,,,,,,,,,,,,,,,,,,,,,,,,,,,,,,,,,,,,,,,,,,
,,,,,,,,,6695a62c614f900eb86de512,Spanish,13 or older,"no, only English or Spanish",no,2025-07-23_20h35.18.028,empathy_intonation_perc_control,2024.2.4,MacIntel,112.3595506,6695a62c614f900eb86de512,68817205a84113384fffdfe3,68817f9d84c4d75bc1fc03fc,,,,,,,,,,,,./stim/wavs/mexican_mismatch_interrogative-total-yn_Mi-novio-viene-del-lago.wav,1,,,60.7224,62.9121,1,1,1.6757,,0,5,5,37,1,38,0,mexican,,,,,,,,,,,,,,,,,,,,,,,,,,,,,,,,,,,,,,,,,,,,,,,,,,,,,,,,
,,,,,,,,,6695a62c614f900eb86de512,Spanish,13 or older,"no, only English or Spanish",no,2025-07-23_20h35.18.028,empathy_intonation_perc_control,2024.2.4,MacIntel,112.3595506,6695a62c614f900eb86de512,68817205a84113384fffdfe3,68817f9d84c4d75bc1fc03fc,,,,,,,,,,,,./stim/wavs/mexican_match_declarative-broad-focus_Daniel-iba-a-Bolivia.wav,0,,,62.9125,64.9206,0,1,1.4972,,0,6,6,57,1,58,0,mexican,,,,,,,,,,,,,,,,,,,,,,,,,,,,,,,,,,,,,,,,,,,,,,,,,,,,,,,,
,,,,,,,,,6695a62c614f900eb86de512,Spanish,13 or older,"no, only English or Spanish",no,2025-07-23_20h35.18.028,empathy_intonation_perc_control,2024.2.4,MacIntel,112.3595506,6695a62c614f900eb86de512,68817205a84113384fffdfe3,68817f9d84c4d75bc1fc03fc,,,,,,,,,,,,./stim/wavs/cuban_match_declarative-broad-focus_Manuela-vende-el-carro.wav,0,,,64.9212,67.0948,0,1,1.6598,,0,7,7,52,1,53,0,cuban,,,,,,,,,,,,,,,,,,,,,,,,,,,,,,,,,,,,,,,,,,,,,,,,,,,,,,,,
,,,,,,,,,6695a62c614f900eb86de512,Spanish,13 or older,"no, only English or Spanish",no,2025-07-23_20h35.18.028,empathy_intonation_perc_control,2024.2.4,MacIntel,112.3595506,6695a62c614f900eb86de512,68817205a84113384fffdfe3,68817f9d84c4d75bc1fc03fc,,,,,,,,,,,,./stim/wavs/mexican_match_declarative-broad-focus_Emilio-ama-la-marcha.wav,0,,,67.0952,69.2371,0,1,1.6239,,0,8,8,59,1,60,0,mexican,,,,,,,,,,,,,,,,,,,,,,,,,,,,,,,,,,,,,,,,,,,,,,,,,,,,,,,,
,,,,,,,,,6695a62c614f900eb86de512,Spanish,13 or older,"no, only English or Spanish",no,2025-07-23_20h35.18.028,empathy_intonation_perc_control,2024.2.4,MacIntel,112.3595506,6695a62c614f900eb86de512,68817205a84113384fffdfe3,68817f9d84c4d75bc1fc03fc,,,,,,,,,,,,./stim/wavs/cuban_mismatch_interrogative-total-yn_El-hombre-mira-la-luna.wav,1,,,69.2376,71.1285,0,0,1.3758,,0,9,9,29,1,30,1,cuban,,,,,,,,,,,,,,,,,,,,,,,,,,,,,,,,,,,,,,,,,,,,,,,,,,,,,,,,
,,,,,,,,,6695a62c614f900eb86de512,Spanish,13 or older,"no, only English or Spanish",no,2025-07-23_20h35.18.028,empathy_intonation_perc_control,2024.2.4,MacIntel,112.3595506,6695a62c614f900eb86de512,68817205a84113384fffdfe3,68817f9d84c4d75bc1fc03fc,,,,,,,,,,,,./stim/wavs/castilian_match_declarative-broad-focus_Emilio-ama-la-marcha.wav,0,,,71.129,73.3038,0,1,1.6582,,0,10,10,45,1,46,0,castilian,,,,,,,,,,,,,,,,,,,,,,,,,,,,,,,,,,,,,,,,,,,,,,,,,,,,,,,,
,,,,,,,,,6695a62c614f900eb86de512,Spanish,13 or older,"no, only English or Spanish",no,2025-07-23_20h35.18.028,empathy_intonation_perc_control,2024.2.4,MacIntel,112.3595506,6695a62c614f900eb86de512,68817205a84113384fffdfe3,68817f9d84c4d75bc1fc03fc,,,,,,,,,,,,./stim/wavs/castilian_mismatch_interrogative-total-yn_Mi-madre-come-la-fruta.wav,1,,,73.3042,75.4955,1,1,1.6731,,0,11,11,26,1,27,0,castilian,,,,,,,,,,,,,,,,,,,,,,,,,,,,,,,,,,,,,,,,,,,,,,,,,,,,,,,,
,,,,,,,,,6695a62c614f900eb86de512,Spanish,13 or older,"no, only English or Spanish",no,2025-07-23_20h35.18.028,empathy_intonation_perc_control,2024.2.4,MacIntel,112.3595506,6695a62c614f900eb86de512,68817205a84113384fffdfe3,68817f9d84c4d75bc1fc03fc,,,,,,,,,,,,./stim/wavs/mexican_match_declarative-broad-focus_Mariano-habla-del-tiempo.wav,0,,,75.496,77.4875,0,1,1.4733,,0,12,12,60,1,61,0,mexican,,,,,,,,,,,,,,,,,,,,,,,,,,,,,,,,,,,,,,,,,,,,,,,,,,,,,,,,
,,,,,,,,,6695a62c614f900eb86de512,Spanish,13 or older,"no, only English or Spanish",no,2025-07-23_20h35.18.028,empathy_intonation_perc_control,2024.2.4,MacIntel,112.3595506,6695a62c614f900eb86de512,68817205a84113384fffdfe3,68817f9d84c4d75bc1fc03fc,,,,,,,,,,,,./stim/wavs/castilian_mismatch_interrogative-total-yn_Mi-tia-odia-la-lluvia.wav,1,,,77.4882,79.6197,1,1,1.6145,,0,13,13,28,1,29,0,castilian,,,,,,,,,,,,,,,,,,,,,,,,,,,,,,,,,,,,,,,,,,,,,,,,,,,,,,,,
,,,,,,,,,6695a62c614f900eb86de512,Spanish,13 or older,"no, only English or Spanish",no,2025-07-23_20h35.18.028,empathy_intonation_perc_control,2024.2.4,MacIntel,112.3595506,6695a62c614f900eb86de512,68817205a84113384fffdfe3,68817f9d84c4d75bc1fc03fc,,,,,,,,,,,,./stim/wavs/cuban_match_declarative-broad-focus_Marta-abre-el-regalo.wav,0,,,79.62,82.0118,0,1,1.8841,,0,14,14,55,1,56,0,cuban,,,,,,,,,,,,,,,,,,,,,,,,,,,,,,,,,,,,,,,,,,,,,,,,,,,,,,,,
,,,,,,,,,6695a62c614f900eb86de512,Spanish,13 or older,"no, only English or Spanish",no,2025-07-23_20h35.18.028,empathy_intonation_perc_control,2024.2.4,MacIntel,112.3595506,6695a62c614f900eb86de512,68817205a84113384fffdfe3,68817f9d84c4d75bc1fc03fc,,,,,,,,,,,,./stim/wavs/puertorican_mismatch_declarative-broad-focus_El-bebe-comia-muy-bien.wav,0,,,82.0123,84.0534,0,1,1.5278,,0,15,15,83,1,84,0,puertorican,,,,,,,,,,,,,,,,,,,,,,,,,,,,,,,,,,,,,,,,,,,,,,,,,,,,,,,,
,,,,,,,,,6695a62c614f900eb86de512,Spanish,13 or older,"no, only English or Spanish",no,2025-07-23_20h35.18.028,empathy_intonation_perc_control,2024.2.4,MacIntel,112.3595506,6695a62c614f900eb86de512,68817205a84113384fffdfe3,68817f9d84c4d75bc1fc03fc,,,,,,,,,,,,./stim/wavs/mexican_match_interrogative-total-yn_Ana-lleva-el-abrigo.wav,1,,,84.0538,85.9452,1,1,1.3765,,0,16,16,12,1,13,0,mexican,,,,,,,,,,,,,,,,,,,,,,,,,,,,,,,,,,,,,,,,,,,,,,,,,,,,,,,,
,,,,,,,,,6695a62c614f900eb86de512,Spanish,13 or older,"no, only English or Spanish",no,2025-07-23_20h35.18.028,empathy_intonation_perc_control,2024.2.4,MacIntel,112.3595506,6695a62c614f900eb86de512,68817205a84113384fffdfe3,68817f9d84c4d75bc1fc03fc,,,,,,,,,,,,./stim/wavs/cuban_mismatch_interrogative-total-yn_Mi-madre-come-la-fruta.wav,1,,,85.9458,87.9866,0,0,1.5313,,0,17,17,31,1,32,1,cuban,,,,,,,,,,,,,,,,,,,,,,,,,,,,,,,,,,,,,,,,,,,,,,,,,,,,,,,,
,,,,,,,,,6695a62c614f900eb86de512,Spanish,13 or older,"no, only English or Spanish",no,2025-07-23_20h35.18.028,empathy_intonation_perc_control,2024.2.4,MacIntel,112.3595506,6695a62c614f900eb86de512,68817205a84113384fffdfe3,68817f9d84c4d75bc1fc03fc,,,,,,,,,,,,./stim/wavs/mexican_mismatch_interrogative-total-yn_Mi-tia-odia-la-lluvia.wav,1,,,87.987,89.9371,1,1,1.447,,0,18,18,38,1,39,0,mexican,,,,,,,,,,,,,,,,,,,,,,,,,,,,,,,,,,,,,,,,,,,,,,,,,,,,,,,,
,,,,,,,,,6695a62c614f900eb86de512,Spanish,13 or older,"no, only English or Spanish",no,2025-07-23_20h35.18.028,empathy_intonation_perc_control,2024.2.4,MacIntel,112.3595506,6695a62c614f900eb86de512,68817205a84113384fffdfe3,68817f9d84c4d75bc1fc03fc,,,,,,,,,,,,./stim/wavs/castilian_match_interrogative-total-yn_David-leia-el-libro.wav,1,,,89.9376,92.2786,1,1,1.8303,,0,19,19,0,1,1,0,castilian,,,,,,,,,,,,,,,,,,,,,,,,,,,,,,,,,,,,,,,,,,,,,,,,,,,,,,,,
,,,,,,,,,6695a62c614f900eb86de512,Spanish,13 or older,"no, only English or Spanish",no,2025-07-23_20h35.18.028,empathy_intonation_perc_control,2024.2.4,MacIntel,112.3595506,6695a62c614f900eb86de512,68817205a84113384fffdfe3,68817f9d84c4d75bc1fc03fc,,,,,,,,,,,,./stim/wavs/cuban_mismatch_declarative-broad-focus_La-nina-lava-el-plato.wav,0,,,92.2791,94.2789,0,1,1.4832,,0,20,20,75,1,76,0,cuban,,,,,,,,,,,,,,,,,,,,,,,,,,,,,,,,,,,,,,,,,,,,,,,,,,,,,,,,
,,,,,,,,,6695a62c614f900eb86de512,Spanish,13 or older,"no, only English or Spanish",no,2025-07-23_20h35.18.028,empathy_intonation_perc_control,2024.2.4,MacIntel,112.3595506,6695a62c614f900eb86de512,68817205a84113384fffdfe3,68817f9d84c4d75bc1fc03fc,,,,,,,,,,,,./stim/wavs/puertorican_match_declarative-broad-focus_Emilio-ama-la-marcha.wav,0,,,94.2793,96.4296,0,1,1.6376,,0,21,21,65,1,66,0,puertorican,,,,,,,,,,,,,,,,,,,,,,,,,,,,,,,,,,,,,,,,,,,,,,,,,,,,,,,,
,,,,,,,,,6695a62c614f900eb86de512,Spanish,13 or older,"no, only English or Spanish",no,2025-07-23_20h35.18.028,empathy_intonation_perc_control,2024.2.4,MacIntel,112.3595506,6695a62c614f900eb86de512,68817205a84113384fffdfe3,68817f9d84c4d75bc1fc03fc,,,,,,,,,,,,./stim/wavs/cuban_match_interrogative-total-yn_Daniel-iba-a-Bolivia.wav,1,,,96.4301,98.5028,0,0,1.5613,,0,22,22,7,1,8,1,cuban,,,,,,,,,,,,,,,,,,,,,,,,,,,,,,,,,,,,,,,,,,,,,,,,,,,,,,,,
,,,,,,,,,6695a62c614f900eb86de512,Spanish,13 or older,"no, only English or Spanish",no,2025-07-23_20h35.18.028,empathy_intonation_perc_control,2024.2.4,MacIntel,112.3595506,6695a62c614f900eb86de512,68817205a84113384fffdfe3,68817f9d84c4d75bc1fc03fc,,,,,,,,,,,,./stim/wavs/castilian_match_interrogative-total-yn_Marta-abre-el-regalo.wav,1,,,98.5031,100.6283,1,1,1.6163,,0,23,23,5,1,6,0,castilian,,,,,,,,,,,,,,,,,,,,,,,,,,,,,,,,,,,,,,,,,,,,,,,,,,,,,,,,
,,,,,,,,,6695a62c614f900eb86de512,Spanish,13 or older,"no, only English or Spanish",no,2025-07-23_20h35.18.028,empathy_intonation_perc_control,2024.2.4,MacIntel,112.3595506,6695a62c614f900eb86de512,68817205a84113384fffdfe3,68817f9d84c4d75bc1fc03fc,,,,,,,,,,,,./stim/wavs/castilian_match_declarative-broad-focus_Marta-abre-el-regalo.wav,0,,,100.6287,102.8121,0,1,1.6632,,0,24,24,49,1,50,0,castilian,,,,,,,,,,,,,,,,,,,,,,,,,,,,,,,,,,,,,,,,,,,,,,,,,,,,,,,,
,,,,,,,,,6695a62c614f900eb86de512,Spanish,13 or older,"no, only English or Spanish",no,2025-07-23_20h35.18.028,empathy_intonation_perc_control,2024.2.4,MacIntel,112.3595506,6695a62c614f900eb86de512,68817205a84113384fffdfe3,68817f9d84c4d75bc1fc03fc,,,,,,,,,,,,./stim/wavs/puertorican_match_declarative-broad-focus_Daniel-iba-a-Bolivia.wav,0,,,102.8126,104.712,0,1,1.3832,,0,25,25,63,1,64,0,puertorican,,,,,,,,,,,,,,,,,,,,,,,,,,,,,,,,,,,,,,,,,,,,,,,,,,,,,,,,
,,,,,,,,,6695a62c614f900eb86de512,Spanish,13 or older,"no, only English or Spanish",no,2025-07-23_20h35.18.028,empathy_intonation_perc_control,2024.2.4,MacIntel,112.3595506,6695a62c614f900eb86de512,68817205a84113384fffdfe3,68817f9d84c4d75bc1fc03fc,,,,,,,,,,,,./stim/wavs/mexican_mismatch_declarative-broad-focus_Mi-novio-viene-del-lago.wav,0,,,104.7127,106.612,0,1,1.3929,,0,26,26,81,1,82,0,mexican,,,,,,,,,,,,,,,,,,,,,,,,,,,,,,,,,,,,,,,,,,,,,,,,,,,,,,,,
,,,,,,,,,6695a62c614f900eb86de512,Spanish,13 or older,"no, only English or Spanish",no,2025-07-23_20h35.18.028,empathy_intonation_perc_control,2024.2.4,MacIntel,112.3595506,6695a62c614f900eb86de512,68817205a84113384fffdfe3,68817f9d84c4d75bc1fc03fc,,,,,,,,,,,,./stim/wavs/castilian_mismatch_interrogative-total-yn_La-maestra-vive-en-Paris.wav,1,,,106.6126,109.1542,1,1,2.0219,,0,27,27,24,1,25,0,castilian,,,,,,,,,,,,,,,,,,,,,,,,,,,,,,,,,,,,,,,,,,,,,,,,,,,,,,,,
,,,,,,,,,6695a62c614f900eb86de512,Spanish,13 or older,"no, only English or Spanish",no,2025-07-23_20h35.18.028,empathy_intonation_perc_control,2024.2.4,MacIntel,112.3595506,6695a62c614f900eb86de512,68817205a84113384fffdfe3,68817f9d84c4d75bc1fc03fc,,,,,,,,,,,,./stim/wavs/mexican_mismatch_interrogative-total-yn_El-nino-oye-el-rio.wav,1,,,109.1554,111.2704,1,1,1.6009,,0,28,28,35,1,36,0,mexican,,,,,,,,,,,,,,,,,,,,,,,,,,,,,,,,,,,,,,,,,,,,,,,,,,,,,,,,
,,,,,,,,,6695a62c614f900eb86de512,Spanish,13 or older,"no, only English or Spanish",no,2025-07-23_20h35.18.028,empathy_intonation_perc_control,2024.2.4,MacIntel,112.3595506,6695a62c614f900eb86de512,68817205a84113384fffdfe3,68817f9d84c4d75bc1fc03fc,,,,,,,,,,,,./stim/wavs/mexican_mismatch_interrogative-total-yn_La-maestra-vive-en-Paris.wav,1,,,111.2708,113.5204,1,1,1.7416,,0,29,29,36,1,37,0,mexican,,,,,,,,,,,,,,,,,,,,,,,,,,,,,,,,,,,,,,,,,,,,,,,,,,,,,,,,
,,,,,,,,,6695a62c614f900eb86de512,Spanish,13 or older,"no, only English or Spanish",no,2025-07-23_20h35.18.028,empathy_intonation_perc_control,2024.2.4,MacIntel,112.3595506,6695a62c614f900eb86de512,68817205a84113384fffdfe3,68817f9d84c4d75bc1fc03fc,,,,,,,,,,,,./stim/wavs/mexican_mismatch_declarative-broad-focus_Mi-tia-odia-la-lluvia.wav,0,,,113.5209,115.5126,0,1,1.4813,,0,30,30,82,1,83,0,mexican,,,,,,,,,,,,,,,,,,,,,,,,,,,,,,,,,,,,,,,,,,,,,,,,,,,,,,,,
,,,,,,,,,6695a62c614f900eb86de512,Spanish,13 or older,"no, only English or Spanish",no,2025-07-23_20h35.18.028,empathy_intonation_perc_control,2024.2.4,MacIntel,112.3595506,6695a62c614f900eb86de512,68817205a84113384fffdfe3,68817f9d84c4d75bc1fc03fc,,,,,,,,,,,,./stim/wavs/puertorican_match_interrogative-total-yn_Maria-bebe-el-vino.wav,1,,,115.5132,117.3788,0,0,1.3513,,0,31,31,23,1,24,1,puertorican,,,,,,,,,,,,,,,,,,,,,,,,,,,,,,,,,,,,,,,,,,,,,,,,,,,,,,,,
,,,,,,,,,6695a62c614f900eb86de512,Spanish,13 or older,"no, only English or Spanish",no,2025-07-23_20h35.18.028,empathy_intonation_perc_control,2024.2.4,MacIntel,112.3595506,6695a62c614f900eb86de512,68817205a84113384fffdfe3,68817f9d84c4d75bc1fc03fc,,,,,,,,,,,,./stim/wavs/cuban_mismatch_interrogative-total-yn_Mi-tia-odia-la-lluvia.wav,1,,,117.3793,119.587,0,0,1.6912,,0,32,32,33,1,34,1,cuban,,,,,,,,,,,,,,,,,,,,,,,,,,,,,,,,,,,,,,,,,,,,,,,,,,,,,,,,
,,,,,,,,,6695a62c614f900eb86de512,Spanish,13 or older,"no, only English or Spanish",no,2025-07-23_20h35.18.028,empathy_intonation_perc_control,2024.2.4,MacIntel,112.3595506,6695a62c614f900eb86de512,68817205a84113384fffdfe3,68817f9d84c4d75bc1fc03fc,,,,,,,,,,,,./stim/wavs/castilian_mismatch_declarative-broad-focus_Mi-tia-odia-la-lluvia.wav,0,,,119.5875,121.8703,0,1,1.764,,0,33,33,72,1,73,0,castilian,,,,,,,,,,,,,,,,,,,,,,,,,,,,,,,,,,,,,,,,,,,,,,,,,,,,,,,,
,,,,,,,,,6695a62c614f900eb86de512,Spanish,13 or older,"no, only English or Spanish",no,2025-07-23_20h35.18.028,empathy_intonation_perc_control,2024.2.4,MacIntel,112.3595506,6695a62c614f900eb86de512,68817205a84113384fffdfe3,68817f9d84c4d75bc1fc03fc,,,,,,,,,,,,./stim/wavs/cuban_match_interrogative-total-yn_Marta-abre-el-regalo.wav,1,,,121.8708,123.9611,0,0,1.5766,,0,34,34,11,1,12,1,cuban,,,,,,,,,,,,,,,,,,,,,,,,,,,,,,,,,,,,,,,,,,,,,,,,,,,,,,,,
,,,,,,,,,6695a62c614f900eb86de512,Spanish,13 or older,"no, only English or Spanish",no,2025-07-23_20h35.18.028,empathy_intonation_perc_control,2024.2.4,MacIntel,112.3595506,6695a62c614f900eb86de512,68817205a84113384fffdfe3,68817f9d84c4d75bc1fc03fc,,,,,,,,,,,,./stim/wavs/puertorican_mismatch_interrogative-total-yn_La-maestra-vive-en-Paris.wav,1,,,123.9617,126.1954,0,0,1.7231,,0,35,35,41,1,42,1,puertorican,,,,,,,,,,,,,,,,,,,,,,,,,,,,,,,,,,,,,,,,,,,,,,,,,,,,,,,,
,,,,,,,,,6695a62c614f900eb86de512,Spanish,13 or older,"no, only English or Spanish",no,2025-07-23_20h35.18.028,empathy_intonation_perc_control,2024.2.4,MacIntel,112.3595506,6695a62c614f900eb86de512,68817205a84113384fffdfe3,68817f9d84c4d75bc1fc03fc,,,,,,,,,,,,./stim/wavs/castilian_match_declarative-broad-focus_David-leia-el-libro.wav,0,,,126.1957,128.5451,0,1,1.8354,,0,36,36,44,1,45,0,castilian,,,,,,,,,,,,,,,,,,,,,,,,,,,,,,,,,,,,,,,,,,,,,,,,,,,,,,,,
,,,,,,,,,6695a62c614f900eb86de512,Spanish,13 or older,"no, only English or Spanish",no,2025-07-23_20h35.18.028,empathy_intonation_perc_control,2024.2.4,MacIntel,112.3595506,6695a62c614f900eb86de512,68817205a84113384fffdfe3,68817f9d84c4d75bc1fc03fc,,,,,,,,,,,,./stim/wavs/castilian_mismatch_declarative-broad-focus_La-nina-lava-el-plato.wav,0,,,128.5456,130.7471,1,0,1.6906,,0,37,37,70,1,71,0,castilian,,,,,,,,,,,,,,,,,,,,,,,,,,,,,,,,,,,,,,,,,,,,,,,,,,,,,,,,
,,,,,,,,,6695a62c614f900eb86de512,Spanish,13 or older,"no, only English or Spanish",no,2025-07-23_20h35.18.028,empathy_intonation_perc_control,2024.2.4,MacIntel,112.3595506,6695a62c614f900eb86de512,68817205a84113384fffdfe3,68817f9d84c4d75bc1fc03fc,,,,,,,,,,,,./stim/wavs/cuban_match_interrogative-total-yn_Mariano-habla-del-tiempo.wav,1,,,130.7474,132.8195,0,0,1.5569,,0,38,38,10,1,11,1,cuban,,,,,,,,,,,,,,,,,,,,,,,,,,,,,,,,,,,,,,,,,,,,,,,,,,,,,,,,
,,,,,,,,,6695a62c614f900eb86de512,Spanish,13 or older,"no, only English or Spanish",no,2025-07-23_20h35.18.028,empathy_intonation_perc_control,2024.2.4,MacIntel,112.3595506,6695a62c614f900eb86de512,68817205a84113384fffdfe3,68817f9d84c4d75bc1fc03fc,,,,,,,,,,,,./stim/wavs/cuban_match_interrogative-total-yn_Ana-lleva-el-abrigo.wav,1,,,132.8199,134.7537,0,0,1.43,,0,39,39,6,1,7,1,cuban,,,,,,,,,,,,,,,,,,,,,,,,,,,,,,,,,,,,,,,,,,,,,,,,,,,,,,,,
,,,,,,,,,6695a62c614f900eb86de512,Spanish,13 or older,"no, only English or Spanish",no,2025-07-23_20h35.18.028,empathy_intonation_perc_control,2024.2.4,MacIntel,112.3595506,6695a62c614f900eb86de512,68817205a84113384fffdfe3,68817f9d84c4d75bc1fc03fc,,,,,,,,,,,,./stim/wavs/puertorican_mismatch_interrogative-total-yn_La-nina-lava-el-plato.wav,1,,,134.754,136.687,0,0,1.4147,,0,40,40,42,1,43,1,puertorican,,,,,,,,,,,,,,,,,,,,,,,,,,,,,,,,,,,,,,,,,,,,,,,,,,,,,,,,
,,,,,,,,,6695a62c614f900eb86de512,Spanish,13 or older,"no, only English or Spanish",no,2025-07-23_20h35.18.028,empathy_intonation_perc_control,2024.2.4,MacIntel,112.3595506,6695a62c614f900eb86de512,68817205a84113384fffdfe3,68817f9d84c4d75bc1fc03fc,,,,,,,,,,,,./stim/wavs/castilian_match_interrogative-total-yn_Manuela-vende-el-carro.wav,1,,,136.6873,138.8536,1,1,1.6541,,0,41,41,2,1,3,0,castilian,,,,,,,,,,,,,,,,,,,,,,,,,,,,,,,,,,,,,,,,,,,,,,,,,,,,,,,,
,,,,,,,,,6695a62c614f900eb86de512,Spanish,13 or older,"no, only English or Spanish",no,2025-07-23_20h35.18.028,empathy_intonation_perc_control,2024.2.4,MacIntel,112.3595506,6695a62c614f900eb86de512,68817205a84113384fffdfe3,68817f9d84c4d75bc1fc03fc,,,,,,,,,,,,./stim/wavs/castilian_mismatch_interrogative-total-yn_Mi-novio-viene-del-lago.wav,1,,,138.854,141.0951,1,1,1.7252,,0,42,42,27,1,28,0,castilian,,,,,,,,,,,,,,,,,,,,,,,,,,,,,,,,,,,,,,,,,,,,,,,,,,,,,,,,
,,,,,,,,,6695a62c614f900eb86de512,Spanish,13 or older,"no, only English or Spanish",no,2025-07-23_20h35.18.028,empathy_intonation_perc_control,2024.2.4,MacIntel,112.3595506,6695a62c614f900eb86de512,68817205a84113384fffdfe3,68817f9d84c4d75bc1fc03fc,,,,,,,,,,,,./stim/wavs/castilian_match_declarative-broad-focus_Manuela-vende-el-carro.wav,0,,,141.0955,143.5369,0,1,1.9347,,0,43,43,46,1,47,0,castilian,,,,,,,,,,,,,,,,,,,,,,,,,,,,,,,,,,,,,,,,,,,,,,,,,,,,,,,,
,,,,,,,,,6695a62c614f900eb86de512,Spanish,13 or older,"no, only English or Spanish",no,2025-07-23_20h35.18.028,empathy_intonation_perc_control,2024.2.4,MacIntel,112.3595506,6695a62c614f900eb86de512,68817205a84113384fffdfe3,68817f9d84c4d75bc1fc03fc,,,,,,,,,,,,./stim/wavs/castilian_mismatch_declarative-broad-focus_Mi-novio-viene-del-lago.wav,0,,,143.5373,145.9206,0,1,1.8709,,0,44,44,71,1,72,0,castilian,,,,,,,,,,,,,,,,,,,,,,,,,,,,,,,,,,,,,,,,,,,,,,,,,,,,,,,,
,,,,,,,,,6695a62c614f900eb86de512,Spanish,13 or older,"no, only English or Spanish",no,2025-07-23_20h35.18.028,empathy_intonation_perc_control,2024.2.4,MacIntel,112.3595506,6695a62c614f900eb86de512,68817205a84113384fffdfe3,68817f9d84c4d75bc1fc03fc,,,,,,,,,,,,./stim/wavs/puertorican_mismatch_interrogative-total-yn_El-nino-oye-el-rio.wav,1,,,145.9213,148.1786,0,0,1.7419,,0,45,45,40,1,41,1,puertorican,,,,,,,,,,,,,,,,,,,,,,,,,,,,,,,,,,,,,,,,,,,,,,,,,,,,,,,,
,,,,,,,,,6695a62c614f900eb86de512,Spanish,13 or older,"no, only English or Spanish",no,2025-07-23_20h35.18.028,empathy_intonation_perc_control,2024.2.4,MacIntel,112.3595506,6695a62c614f900eb86de512,68817205a84113384fffdfe3,68817f9d84c4d75bc1fc03fc,,,,,,,,,,,,./stim/wavs/mexican_mismatch_interrogative-total-yn_El-hombre-mira-la-luna.wav,1,,,148.1792,150.1789,1,1,1.4865,,0,46,46,34,1,35,0,mexican,,,,,,,,,,,,,,,,,,,,,,,,,,,,,,,,,,,,,,,,,,,,,,,,,,,,,,,,
,,,,,,,,,6695a62c614f900eb86de512,Spanish,13 or older,"no, only English or Spanish",no,2025-07-23_20h35.18.028,empathy_intonation_perc_control,2024.2.4,MacIntel,112.3595506,6695a62c614f900eb86de512,68817205a84113384fffdfe3,68817f9d84c4d75bc1fc03fc,,,,,,,,,,,,./stim/wavs/puertorican_match_declarative-broad-focus_David-leia-el-libro.wav,0,,,150.1793,152.0871,0,1,1.3923,,0,47,47,64,1,65,0,puertorican,,,,,,,,,,,,,,,,,,,,,,,,,,,,,,,,,,,,,,,,,,,,,,,,,,,,,,,,
,,,,,,,,,6695a62c614f900eb86de512,Spanish,13 or older,"no, only English or Spanish",no,2025-07-23_20h35.18.028,empathy_intonation_perc_control,2024.2.4,MacIntel,112.3595506,6695a62c614f900eb86de512,68817205a84113384fffdfe3,68817f9d84c4d75bc1fc03fc,,,,,,,,,,,,./stim/wavs/mexican_match_interrogative-total-yn_David-leia-el-libro.wav,1,,,152.0875,154.2279,1,1,1.6243,,0,48,48,14,1,15,0,mexican,,,,,,,,,,,,,,,,,,,,,,,,,,,,,,,,,,,,,,,,,,,,,,,,,,,,,,,,
,,,,,,,,,6695a62c614f900eb86de512,Spanish,13 or older,"no, only English or Spanish",no,2025-07-23_20h35.18.028,empathy_intonation_perc_control,2024.2.4,MacIntel,112.3595506,6695a62c614f900eb86de512,68817205a84113384fffdfe3,68817f9d84c4d75bc1fc03fc,,,,,,,,,,,,./stim/wavs/puertorican_mismatch_interrogative-total-yn_Mi-madre-come-la-fruta.wav,1,,,154.2283,156.5777,0,0,1.84,,0,49,49,43,1,44,1,puertorican,,,,,,,,,,,,,,,,,,,,,,,,,,,,,,,,,,,,,,,,,,,,,,,,,,,,,,,,
,,,,,,,,,6695a62c614f900eb86de512,Spanish,13 or older,"no, only English or Spanish",no,2025-07-23_20h35.18.028,empathy_intonation_perc_control,2024.2.4,MacIntel,112.3595506,6695a62c614f900eb86de512,68817205a84113384fffdfe3,68817f9d84c4d75bc1fc03fc,,,,,,,,,,,,./stim/wavs/castilian_mismatch_interrogative-total-yn_La-nina-lava-el-plato.wav,1,,,156.5782,158.7451,1,1,1.6561,,0,50,50,25,1,26,0,castilian,,,,,,,,,,,,,,,,,,,,,,,,,,,,,,,,,,,,,,,,,,,,,,,,,,,,,,,,
,,,,,,,,,6695a62c614f900eb86de512,Spanish,13 or older,"no, only English or Spanish",no,2025-07-23_20h35.18.028,empathy_intonation_perc_control,2024.2.4,MacIntel,112.3595506,6695a62c614f900eb86de512,68817205a84113384fffdfe3,68817f9d84c4d75bc1fc03fc,,,,,,,,,,,,./stim/wavs/castilian_match_interrogative-total-yn_Maria-bebe-el-vino.wav,1,,,158.7454,161.0363,1,1,1.7742,,0,51,51,3,1,4,0,castilian,,,,,,,,,,,,,,,,,,,,,,,,,,,,,,,,,,,,,,,,,,,,,,,,,,,,,,,,
,,,,,,,,,6695a62c614f900eb86de512,Spanish,13 or older,"no, only English or Spanish",no,2025-07-23_20h35.18.028,empathy_intonation_perc_control,2024.2.4,MacIntel,112.3595506,6695a62c614f900eb86de512,68817205a84113384fffdfe3,68817f9d84c4d75bc1fc03fc,,,,,,,,,,,,./stim/wavs/cuban_match_interrogative-total-yn_Manuela-vende-el-carro.wav,1,,,161.0367,162.9204,0,0,1.3771,,0,52,52,8,1,9,1,cuban,,,,,,,,,,,,,,,,,,,,,,,,,,,,,,,,,,,,,,,,,,,,,,,,,,,,,,,,
,,,,,,,,,6695a62c614f900eb86de512,Spanish,13 or older,"no, only English or Spanish",no,2025-07-23_20h35.18.028,empathy_intonation_perc_control,2024.2.4,MacIntel,112.3595506,6695a62c614f900eb86de512,68817205a84113384fffdfe3,68817f9d84c4d75bc1fc03fc,,,,,,,,,,,,./stim/wavs/puertorican_mismatch_interrogative-total-yn_El-hombre-mira-la-luna.wav,1,,,162.9209,165.0533,0,0,1.6185,,0,53,53,39,1,40,1,puertorican,,,,,,,,,,,,,,,,,,,,,,,,,,,,,,,,,,,,,,,,,,,,,,,,,,,,,,,,
,,,,,,,,,6695a62c614f900eb86de512,Spanish,13 or older,"no, only English or Spanish",no,2025-07-23_20h35.18.028,empathy_intonation_perc_control,2024.2.4,MacIntel,112.3595506,6695a62c614f900eb86de512,68817205a84113384fffdfe3,68817f9d84c4d75bc1fc03fc,,,,,,,,,,,,./stim/wavs/castilian_match_declarative-broad-focus_Mariano-habla-del-tiempo.wav,0,,,165.0537,167.5202,0,1,1.9488,,0,54,54,48,1,49,0,castilian,,,,,,,,,,,,,,,,,,,,,,,,,,,,,,,,,,,,,,,,,,,,,,,,,,,,,,,,
,,,,,,,,,6695a62c614f900eb86de512,Spanish,13 or older,"no, only English or Spanish",no,2025-07-23_20h35.18.028,empathy_intonation_perc_control,2024.2.4,MacIntel,112.3595506,6695a62c614f900eb86de512,68817205a84113384fffdfe3,68817f9d84c4d75bc1fc03fc,,,,,,,,,,,,./stim/wavs/mexican_match_declarative-broad-focus_Ana-lleva-el-abrigo.wav,0,,,167.521,169.3699,0,1,1.333,,0,55,55,56,1,57,0,mexican,,,,,,,,,,,,,,,,,,,,,,,,,,,,,,,,,,,,,,,,,,,,,,,,,,,,,,,,
,,,,,,,,,6695a62c614f900eb86de512,Spanish,13 or older,"no, only English or Spanish",no,2025-07-23_20h35.18.028,empathy_intonation_perc_control,2024.2.4,MacIntel,112.3595506,6695a62c614f900eb86de512,68817205a84113384fffdfe3,68817f9d84c4d75bc1fc03fc,,,,,,,,,,,,./stim/wavs/cuban_mismatch_declarative-broad-focus_Mi-tia-odia-la-lluvia.wav,0,,,169.3702,171.7204,0,1,1.8391,,0,56,56,77,1,78,0,cuban,,,,,,,,,,,,,,,,,,,,,,,,,,,,,,,,,,,,,,,,,,,,,,,,,,,,,,,,
,,,,,,,,,6695a62c614f900eb86de512,Spanish,13 or older,"no, only English or Spanish",no,2025-07-23_20h35.18.028,empathy_intonation_perc_control,2024.2.4,MacIntel,112.3595506,6695a62c614f900eb86de512,68817205a84113384fffdfe3,68817f9d84c4d75bc1fc03fc,,,,,,,,,,,,./stim/wavs/puertorican_match_interrogative-total-yn_Manuela-vende-el-carro.wav,1,,,171.7208,173.737,0,0,1.4979,,0,57,57,22,1,23,1,puertorican,,,,,,,,,,,,,,,,,,,,,,,,,,,,,,,,,,,,,,,,,,,,,,,,,,,,,,,,
,,,,,,,,,6695a62c614f900eb86de512,Spanish,13 or older,"no, only English or Spanish",no,2025-07-23_20h35.18.028,empathy_intonation_perc_control,2024.2.4,MacIntel,112.3595506,6695a62c614f900eb86de512,68817205a84113384fffdfe3,68817f9d84c4d75bc1fc03fc,,,,,,,,,,,,./stim/wavs/castilian_mismatch_declarative-broad-focus_El-nino-oye-el-rio.wav,0,,,173.7375,175.9526,0,1,1.7016,,0,58,58,68,1,69,0,castilian,,,,,,,,,,,,,,,,,,,,,,,,,,,,,,,,,,,,,,,,,,,,,,,,,,,,,,,,
,,,,,,,,,6695a62c614f900eb86de512,Spanish,13 or older,"no, only English or Spanish",no,2025-07-23_20h35.18.028,empathy_intonation_perc_control,2024.2.4,MacIntel,112.3595506,6695a62c614f900eb86de512,68817205a84113384fffdfe3,68817f9d84c4d75bc1fc03fc,,,,,,,,,,,,./stim/wavs/cuban_match_declarative-broad-focus_Mariano-habla-del-tiempo.wav,0,,,175.9531,178.3697,0,1,1.9083,,0,59,59,54,1,55,0,cuban,,,,,,,,,,,,,,,,,,,,,,,,,,,,,,,,,,,,,,,,,,,,,,,,,,,,,,,,
,,,,,,,,,6695a62c614f900eb86de512,Spanish,13 or older,"no, only English or Spanish",no,2025-07-23_20h35.18.028,empathy_intonation_perc_control,2024.2.4,MacIntel,112.3595506,6695a62c614f900eb86de512,68817205a84113384fffdfe3,68817f9d84c4d75bc1fc03fc,,,,,,,,,,,,./stim/wavs/cuban_mismatch_interrogative-total-yn_El-nino-oye-el-rio.wav,1,,,178.3702,180.5204,0,0,1.6426,,0,60,60,30,1,31,1,cuban,,,,,,,,,,,,,,,,,,,,,,,,,,,,,,,,,,,,,,,,,,,,,,,,,,,,,,,,
,,,,,,,,,6695a62c614f900eb86de512,Spanish,13 or older,"no, only English or Spanish",no,2025-07-23_20h35.18.028,empathy_intonation_perc_control,2024.2.4,MacIntel,112.3595506,6695a62c614f900eb86de512,68817205a84113384fffdfe3,68817f9d84c4d75bc1fc03fc,,,,,,,,,,,,./stim/wavs/puertorican_match_interrogative-total-yn_Daniel-iba-a-Bolivia.wav,1,,,180.5208,182.4785,0,0,1.4433,,0,61,61,19,1,20,1,puertorican,,,,,,,,,,,,,,,,,,,,,,,,,,,,,,,,,,,,,,,,,,,,,,,,,,,,,,,,
,,,,,,,,,6695a62c614f900eb86de512,Spanish,13 or older,"no, only English or Spanish",no,2025-07-23_20h35.18.028,empathy_intonation_perc_control,2024.2.4,MacIntel,112.3595506,6695a62c614f900eb86de512,68817205a84113384fffdfe3,68817f9d84c4d75bc1fc03fc,,,,,,,,,,,,./stim/wavs/cuban_mismatch_declarative-broad-focus_El-hombre-mira-la-luna.wav,0,,,182.479,184.5702,0,1,1.5737,,0,62,62,74,1,75,0,cuban,,,,,,,,,,,,,,,,,,,,,,,,,,,,,,,,,,,,,,,,,,,,,,,,,,,,,,,,
,,,,,,,,,6695a62c614f900eb86de512,Spanish,13 or older,"no, only English or Spanish",no,2025-07-23_20h35.18.028,empathy_intonation_perc_control,2024.2.4,MacIntel,112.3595506,6695a62c614f900eb86de512,68817205a84113384fffdfe3,68817f9d84c4d75bc1fc03fc,,,,,,,,,,,,./stim/wavs/puertorican_match_interrogative-total-yn_Emilio-ama-la-marcha.wav,1,,,184.5706,186.7449,0,0,1.6624,,0,63,63,21,1,22,1,puertorican,,,,,,,,,,,,,,,,,,,,,,,,,,,,,,,,,,,,,,,,,,,,,,,,,,,,,,,,
,,,,,,,,,6695a62c614f900eb86de512,Spanish,13 or older,"no, only English or Spanish",no,2025-07-23_20h35.18.028,empathy_intonation_perc_control,2024.2.4,MacIntel,112.3595506,6695a62c614f900eb86de512,68817205a84113384fffdfe3,68817f9d84c4d75bc1fc03fc,,,,,,,,,,,,./stim/wavs/mexican_match_interrogative-total-yn_Emilio-ama-la-marcha.wav,1,,,186.7454,188.8866,1,1,1.6276,,0,64,64,15,1,16,0,mexican,,,,,,,,,,,,,,,,,,,,,,,,,,,,,,,,,,,,,,,,,,,,,,,,,,,,,,,,
,,,,,,,,,6695a62c614f900eb86de512,Spanish,13 or older,"no, only English or Spanish",no,2025-07-23_20h35.18.028,empathy_intonation_perc_control,2024.2.4,MacIntel,112.3595506,6695a62c614f900eb86de512,68817205a84113384fffdfe3,68817f9d84c4d75bc1fc03fc,,,,,,,,,,,,./stim/wavs/puertorican_match_interrogative-total-yn_David-leia-el-libro.wav,1,,,188.887,190.6952,0,0,1.2993,,0,65,65,20,1,21,1,puertorican,,,,,,,,,,,,,,,,,,,,,,,,,,,,,,,,,,,,,,,,,,,,,,,,,,,,,,,,
,,,,,,,,,6695a62c614f900eb86de512,Spanish,13 or older,"no, only English or Spanish",no,2025-07-23_20h35.18.028,empathy_intonation_perc_control,2024.2.4,MacIntel,112.3595506,6695a62c614f900eb86de512,68817205a84113384fffdfe3,68817f9d84c4d75bc1fc03fc,,,,,,,,,,,,./stim/wavs/mexican_match_interrogative-total-yn_Marta-abre-el-regalo.wav,1,,,190.6958,192.6282,1,1,1.4186,,0,66,66,17,1,18,0,mexican,,,,,,,,,,,,,,,,,,,,,,,,,,,,,,,,,,,,,,,,,,,,,,,,,,,,,,,,
,,,,,,,,,6695a62c614f900eb86de512,Spanish,13 or older,"no, only English or Spanish",no,2025-07-23_20h35.18.028,empathy_intonation_perc_control,2024.2.4,MacIntel,112.3595506,6695a62c614f900eb86de512,68817205a84113384fffdfe3,68817f9d84c4d75bc1fc03fc,,,,,,,,,,,,./stim/wavs/puertorican_mismatch_declarative-broad-focus_La-maestra-vive-en-Paris.wav,0,,,192.6289,195.0704,0,1,1.9231,,0,67,67,86,1,87,0,puertorican,,,,,,,,,,,,,,,,,,,,,,,,,,,,,,,,,,,,,,,,,,,,,,,,,,,,,,,,
,,,,,,,,,6695a62c614f900eb86de512,Spanish,13 or older,"no, only English or Spanish",no,2025-07-23_20h35.18.028,empathy_intonation_perc_control,2024.2.4,MacIntel,112.3595506,6695a62c614f900eb86de512,68817205a84113384fffdfe3,68817f9d84c4d75bc1fc03fc,,,,,,,,,,,,./stim/wavs/castilian_mismatch_declarative-broad-focus_La-maestra-vive-en-Paris.wav,0,,,195.0707,197.38,0,1,1.8043,,0,68,68,69,1,70,0,castilian,,,,,,,,,,,,,,,,,,,,,,,,,,,,,,,,,,,,,,,,,,,,,,,,,,,,,,,,
,,,,,,,,,6695a62c614f900eb86de512,Spanish,13 or older,"no, only English or Spanish",no,2025-07-23_20h35.18.028,empathy_intonation_perc_control,2024.2.4,MacIntel,112.3595506,6695a62c614f900eb86de512,68817205a84113384fffdfe3,68817f9d84c4d75bc1fc03fc,,,,,,,,,,,,./stim/wavs/mexican_match_interrogative-total-yn_Mariano-habla-del-tiempo.wav,1,,,197.3805,199.4789,1,1,1.5846,,0,69,69,16,1,17,0,mexican,,,,,,,,,,,,,,,,,,,,,,,,,,,,,,,,,,,,,,,,,,,,,,,,,,,,,,,,
,,,,,,,,,6695a62c614f900eb86de512,Spanish,13 or older,"no, only English or Spanish",no,2025-07-23_20h35.18.028,empathy_intonation_perc_control,2024.2.4,MacIntel,112.3595506,6695a62c614f900eb86de512,68817205a84113384fffdfe3,68817f9d84c4d75bc1fc03fc,,,,,,,,,,,,./stim/wavs/castilian_match_interrogative-total-yn_Emilio-ama-la-marcha.wav,1,,,199.4794,201.9135,1,1,1.9221,,0,70,70,1,1,2,0,castilian,,,,,,,,,,,,,,,,,,,,,,,,,,,,,,,,,,,,,,,,,,,,,,,,,,,,,,,,
,,,,,,,,,6695a62c614f900eb86de512,Spanish,13 or older,"no, only English or Spanish",no,2025-07-23_20h35.18.028,empathy_intonation_perc_control,2024.2.4,MacIntel,112.3595506,6695a62c614f900eb86de512,68817205a84113384fffdfe3,68817f9d84c4d75bc1fc03fc,,,,,,,,,,,,./stim/wavs/puertorican_mismatch_declarative-broad-focus_El-nino-oye-el-rio.wav,0,,,201.914,204.295,0,1,1.8642,,0,71,71,85,1,86,0,puertorican,,,,,,,,,,,,,,,,,,,,,,,,,,,,,,,,,,,,,,,,,,,,,,,,,,,,,,,,
,,,,,,,,,6695a62c614f900eb86de512,Spanish,13 or older,"no, only English or Spanish",no,2025-07-23_20h35.18.028,empathy_intonation_perc_control,2024.2.4,MacIntel,112.3595506,6695a62c614f900eb86de512,68817205a84113384fffdfe3,68817f9d84c4d75bc1fc03fc,,,,,,,,,,,,./stim/wavs/puertorican_match_declarative-broad-focus_Maria-bebe-el-vino.wav,0,,,204.2953,206.2365,0,1,1.4349,,0,72,72,67,1,68,0,puertorican,,,,,,,,,,,,,,,,,,,,,,,,,,,,,,,,,,,,,,,,,,,,,,,,,,,,,,,,
,,,,,,,,,6695a62c614f900eb86de512,Spanish,13 or older,"no, only English or Spanish",no,2025-07-23_20h35.18.028,empathy_intonation_perc_control,2024.2.4,MacIntel,112.3595506,6695a62c614f900eb86de512,68817205a84113384fffdfe3,68817f9d84c4d75bc1fc03fc,,,,,,,,,,,,./stim/wavs/cuban_mismatch_interrogative-total-yn_Mi-novio-viene-del-lago.wav,1,,,206.2369,208.311,0,0,1.5579,,0,73,73,32,1,33,1,cuban,,,,,,,,,,,,,,,,,,,,,,,,,,,,,,,,,,,,,,,,,,,,,,,,,,,,,,,,
,,,,,,,,,6695a62c614f900eb86de512,Spanish,13 or older,"no, only English or Spanish",no,2025-07-23_20h35.18.028,empathy_intonation_perc_control,2024.2.4,MacIntel,112.3595506,6695a62c614f900eb86de512,68817205a84113384fffdfe3,68817f9d84c4d75bc1fc03fc,,,,,,,,,,,,./stim/wavs/mexican_mismatch_declarative-broad-focus_La-maestra-vive-en-Paris.wav,0,,,208.3116,210.3951,0,1,1.5755,,0,74,74,80,1,81,0,mexican,,,,,,,,,,,,,,,,,,,,,,,,,,,,,,,,,,,,,,,,,,,,,,,,,,,,,,,,
,,,,,,,,,6695a62c614f900eb86de512,Spanish,13 or older,"no, only English or Spanish",no,2025-07-23_20h35.18.028,empathy_intonation_perc_control,2024.2.4,MacIntel,112.3595506,6695a62c614f900eb86de512,68817205a84113384fffdfe3,68817f9d84c4d75bc1fc03fc,,,,,,,,,,,,./stim/wavs/cuban_mismatch_declarative-broad-focus_Mi-novio-viene-del-lago.wav,0,,,210.3956,212.5942,0,1,1.6851,,0,75,75,76,1,77,0,cuban,,,,,,,,,,,,,,,,,,,,,,,,,,,,,,,,,,,,,,,,,,,,,,,,,,,,,,,,
,,,,,,,,,6695a62c614f900eb86de512,Spanish,13 or older,"no, only English or Spanish",no,2025-07-23_20h35.18.028,empathy_intonation_perc_control,2024.2.4,MacIntel,112.3595506,6695a62c614f900eb86de512,68817205a84113384fffdfe3,68817f9d84c4d75bc1fc03fc,,,,,,,,,,,,./stim/wavs/cuban_match_declarative-broad-focus_Maria-bebe-el-vino.wav,0,,,212.5947,214.8364,0,1,1.7305,,0,76,76,53,1,54,0,cuban,,,,,,,,,,,,,,,,,,,,,,,,,,,,,,,,,,,,,,,,,,,,,,,,,,,,,,,,
,,,,,,,,,6695a62c614f900eb86de512,Spanish,13 or older,"no, only English or Spanish",no,2025-07-23_20h35.18.028,empathy_intonation_perc_control,2024.2.4,MacIntel,112.3595506,6695a62c614f900eb86de512,68817205a84113384fffdfe3,68817f9d84c4d75bc1fc03fc,,,,,,,,,,,,./stim/wavs/puertorican_mismatch_declarative-broad-focus_El-hombre-mira-la-luna.wav,0,,,214.8369,216.7119,0,1,1.3699,,0,77,77,84,1,85,0,puertorican,,,,,,,,,,,,,,,,,,,,,,,,,,,,,,,,,,,,,,,,,,,,,,,,,,,,,,,,
,,,,,,,,,6695a62c614f900eb86de512,Spanish,13 or older,"no, only English or Spanish",no,2025-07-23_20h35.18.028,empathy_intonation_perc_control,2024.2.4,MacIntel,112.3595506,6695a62c614f900eb86de512,68817205a84113384fffdfe3,68817f9d84c4d75bc1fc03fc,,,,,,,,,,,,./stim/wavs/cuban_match_declarative-broad-focus_Daniel-iba-a-Bolivia.wav,0,,,216.7122,218.9776,0,1,1.7474,,0,78,78,51,1,52,0,cuban,,,,,,,,,,,,,,,,,,,,,,,,,,,,,,,,,,,,,,,,,,,,,,,,,,,,,,,,
,,,,,,,,,6695a62c614f900eb86de512,Spanish,13 or older,"no, only English or Spanish",no,2025-07-23_20h35.18.028,empathy_intonation_perc_control,2024.2.4,MacIntel,112.3595506,6695a62c614f900eb86de512,68817205a84113384fffdfe3,68817f9d84c4d75bc1fc03fc,,,,,,,,,,,,./stim/wavs/puertorican_match_declarative-broad-focus_Manuela-vende-el-carro.wav,0,,,218.978,221.1794,0,1,1.6899,,0,79,79,66,1,67,0,puertorican,,,,,,,,,,,,,,,,,,,,,,,,,,,,,,,,,,,,,,,,,,,,,,,,,,,,,,,,
,,,,,,,,,6695a62c614f900eb86de512,Spanish,13 or older,"no, only English or Spanish",no,2025-07-23_20h35.18.028,empathy_intonation_perc_control,2024.2.4,MacIntel,112.3595506,6695a62c614f900eb86de512,68817205a84113384fffdfe3,68817f9d84c4d75bc1fc03fc,,,,,,,,,,,,./stim/wavs/puertorican_match_declarative-broad-focus_Ana-lleva-el-abrigo.wav,0,,,221.1799,223.2694,0,1,1.5725,,0,80,80,62,1,63,0,puertorican,,,,,,,,,,,,,,,,,,,,,,,,,,,,,,,,,,,,,,,,,,,,,,,,,,,,,,,,
,,,,,,,,,6695a62c614f900eb86de512,Spanish,13 or older,"no, only English or Spanish",no,2025-07-23_20h35.18.028,empathy_intonation_perc_control,2024.2.4,MacIntel,112.3595506,6695a62c614f900eb86de512,68817205a84113384fffdfe3,68817f9d84c4d75bc1fc03fc,,,,,,,,,,,,./stim/wavs/mexican_mismatch_declarative-broad-focus_El-hombre-mira-la-luna.wav,0,,,223.2701,225.4061,0,1,1.6307,,0,81,81,79,1,80,0,mexican,,,,,,,,,,,,,,,,,,,,,,,,,,,,,,,,,,,,,,,,,,,,,,,,,,,,,,,,
,,,,,,,,,6695a62c614f900eb86de512,Spanish,13 or older,"no, only English or Spanish",no,2025-07-23_20h35.18.028,empathy_intonation_perc_control,2024.2.4,MacIntel,112.3595506,6695a62c614f900eb86de512,68817205a84113384fffdfe3,68817f9d84c4d75bc1fc03fc,,,,,,,,,,,,./stim/wavs/mexican_match_declarative-broad-focus_David-leia-el-libro.wav,0,,,225.4064,227.2945,0,1,1.3729,,0,82,82,58,1,59,0,mexican,,,,,,,,,,,,,,,,,,,,,,,,,,,,,,,,,,,,,,,,,,,,,,,,,,,,,,,,
,,,,,,,,,6695a62c614f900eb86de512,Spanish,13 or older,"no, only English or Spanish",no,2025-07-23_20h35.18.028,empathy_intonation_perc_control,2024.2.4,MacIntel,112.3595506,6695a62c614f900eb86de512,68817205a84113384fffdfe3,68817f9d84c4d75bc1fc03fc,,,,,,,,,,,,./stim/wavs/mexican_match_declarative-broad-focus_Marta-abre-el-regalo.wav,0,,,227.2949,229.1448,0,1,1.3384,,0,83,83,61,1,62,0,mexican,,,,,,,,,,,,,,,,,,,,,,,,,,,,,,,,,,,,,,,,,,,,,,,,,,,,,,,,
,,,,,,,,,6695a62c614f900eb86de512,Spanish,13 or older,"no, only English or Spanish",no,2025-07-23_20h35.18.028,empathy_intonation_perc_control,2024.2.4,MacIntel,112.3595506,6695a62c614f900eb86de512,68817205a84113384fffdfe3,68817f9d84c4d75bc1fc03fc,,,,,,,,,,,,./stim/wavs/castilian_match_declarative-broad-focus_Maria-bebe-el-vino.wav,0,,,229.1452,231.2117,0,1,1.5486,,0,84,84,47,1,48,0,castilian,,,,,,,,,,,,,,,,,,,,,,,,,,,,,,,,,,,,,,,,,,,,,,,,,,,,,,,,
,,,,,,,,,6695a62c614f900eb86de512,Spanish,13 or older,"no, only English or Spanish",no,2025-07-23_20h35.18.028,empathy_intonation_perc_control,2024.2.4,MacIntel,112.3595506,6695a62c614f900eb86de512,68817205a84113384fffdfe3,68817f9d84c4d75bc1fc03fc,,,,,,,,,,,,./stim/wavs/cuban_mismatch_declarative-broad-focus_El-bebe-comia-muy-bien.wav,0,,,231.2122,233.4366,0,1,1.7163,,0,85,85,73,1,74,0,cuban,,,,,,,,,,,,,,,,,,,,,,,,,,,,,,,,,,,,,,,,,,,,,,,,,,,,,,,,
,,,,,,,,,6695a62c614f900eb86de512,Spanish,13 or older,"no, only English or Spanish",no,2025-07-23_20h35.18.028,empathy_intonation_perc_control,2024.2.4,MacIntel,112.3595506,6695a62c614f900eb86de512,68817205a84113384fffdfe3,68817f9d84c4d75bc1fc03fc,,,,,,,,,,,,./stim/wavs/puertorican_mismatch_declarative-broad-focus_La-nina-lava-el-plato.wav,0,,,233.4371,235.4703,0,1,1.5209,,0,86,86,87,1,88,0,puertorican,,,,,,,,,,,,,,,,,,,,,,,,,,,,,,,,,,,,,,,,,,,,,,,,,,,,,,,,
,,,,,,,,,6695a62c614f900eb86de512,Spanish,13 or older,"no, only English or Spanish",no,2025-07-23_20h35.18.028,empathy_intonation_perc_control,2024.2.4,MacIntel,112.3595506,6695a62c614f900eb86de512,68817205a84113384fffdfe3,68817f9d84c4d75bc1fc03fc,,,,,,,,,,,,./stim/wavs/cuban_match_interrogative-total-yn_Maria-bebe-el-vino.wav,1,,,235.4708,237.6865,0,0,1.6981,,0,87,87,9,1,10,1,cuban,,,,,,,,,,,,,,,,,,,,,,,,,,,,,,,,,,,,,,,,,,,,,,,,,,,,,,,,
,,,,,,,"Great! Now we will move on. The next task consists of about 60 trials, in each of which you will see a string of letters. 
  
  Your task is to decide whether this is a real Spanish word or not.", (press the spacebar to continue),6695a62c614f900eb86de512,Spanish,13 or older,"no, only English or Spanish",no,2025-07-23_20h35.18.028,empathy_intonation_perc_control,2024.2.4,MacIntel,112.3595506,6695a62c614f900eb86de512,68817205a84113384fffdfe3,68817f9d84c4d75bc1fc03fc,,,,,,,,,,,,,,,,,,,,,,,,,,,,,,237.6908,252.4703,0,0,0,0,1,,,,,,,,,,,,,,,,,,,,,,,,,,,,,,,,,,,,,,,,,,,,,,,,,
,,,,,,,"If you think it is an existing Spanish word, you type '1' (for 'REAL'), and if you think it is not an existing Spanish word, you type '0' (for 'FAKE').", (press the spacebar to continue),6695a62c614f900eb86de512,Spanish,13 or older,"no, only English or Spanish",no,2025-07-23_20h35.18.028,empathy_intonation_perc_control,2024.2.4,MacIntel,112.3595506,6695a62c614f900eb86de512,68817205a84113384fffdfe3,68817f9d84c4d75bc1fc03fc,,,,,,,,,,,,,,,,,,,,,,,,,,,,,,252.4714,256.1878,0,1,1,1,1,,,,,,,,,,,,,,,,,,,,,,,,,,,,,,,,,,,,,,,,,,,,,,,,,
,,,,,,,"If you are sure that the word exists, even though you don’t know its exact meaning, you may still respond '1' (REAL). 
  
  But if you are not sure if it is an existing word, you should respond '0' (FAKE).
  
  Let's do a practice round...", (press the spacebar to continue),6695a62c614f900eb86de512,Spanish,13 or older,"no, only English or Spanish",no,2025-07-23_20h35.18.028,empathy_intonation_perc_control,2024.2.4,MacIntel,112.3595506,6695a62c614f900eb86de512,68817205a84113384fffdfe3,68817f9d84c4d75bc1fc03fc,,,,,,,,,,,,,,,,,,,,,,,,,,,,,,256.1892,258.57,0,2,2,2,1,,,,,,,,,,,,,,,,,,,,,,,,,,,,,,,,,,,,,,,,,,,,,,,,,
,,,,,,,,,6695a62c614f900eb86de512,Spanish,13 or older,"no, only English or Spanish",no,2025-07-23_20h35.18.028,empathy_intonation_perc_control,2024.2.4,MacIntel,112.3595506,6695a62c614f900eb86de512,68817205a84113384fffdfe3,68817f9d84c4d75bc1fc03fc,,,,,,,,,,,,,0,,,,,,,,,,,,,,,,,,,,,,,,258.5742,260.7955,1,0,1.7037,,260.7958,261.7952,0,0,0,0,1,0,depiste,REAL,FAKE,,,,,,,,,,,,,,,,,,,,,,,,,,,,,,,,
,,,,,,,,,6695a62c614f900eb86de512,Spanish,13 or older,"no, only English or Spanish",no,2025-07-23_20h35.18.028,empathy_intonation_perc_control,2024.2.4,MacIntel,112.3595506,6695a62c614f900eb86de512,68817205a84113384fffdfe3,68817f9d84c4d75bc1fc03fc,,,,,,,,,,,,,1,,,,,,,,,,,,,,,,,,,,,,,,261.7963,263.3784,1,1,1.0695,,263.379,264.3773,0,1,1,1,1,0,sí,REAL,FAKE,,,,,,,,,,,,,,,,,,,,,,,,,,,,,,,,
,,,,,,,,,6695a62c614f900eb86de512,Spanish,13 or older,"no, only English or Spanish",no,2025-07-23_20h35.18.028,empathy_intonation_perc_control,2024.2.4,MacIntel,112.3595506,6695a62c614f900eb86de512,68817205a84113384fffdfe3,68817f9d84c4d75bc1fc03fc,,,,,,,,,,,,,0,,,,,,,,,,,,,,,,,,,,,,,,264.3782,265.8408,1,0,0.9419,,265.8414,266.8401,0,2,2,2,1,0,coné,REAL,FAKE,,,,,,,,,,,,,,,,,,,,,,,,,,,,,,,,
,,,,,,,,,6695a62c614f900eb86de512,Spanish,13 or older,"no, only English or Spanish",no,2025-07-23_20h35.18.028,empathy_intonation_perc_control,2024.2.4,MacIntel,112.3595506,6695a62c614f900eb86de512,68817205a84113384fffdfe3,68817f9d84c4d75bc1fc03fc,,,,,,,,,,,,,0,,,,,,,,,,,,,,,,,,,,,,,,266.8418,269.0366,1,0,1.6858,,269.0367,270.0364,0,3,3,3,1,0,calpar,REAL,FAKE,,,,,,,,,,,,,,,,,,,,,,,,,,,,,,,,
,,,,,,,,,6695a62c614f900eb86de512,Spanish,13 or older,"no, only English or Spanish",no,2025-07-23_20h35.18.028,empathy_intonation_perc_control,2024.2.4,MacIntel,112.3595506,6695a62c614f900eb86de512,68817205a84113384fffdfe3,68817f9d84c4d75bc1fc03fc,,,,,,,,,,,,,0,,,,,,,,,,,,,,,,,,,,,,,,270.0374,271.5529,0,1,0.9941,,271.5536,272.5539,0,4,4,4,1,0,joten,REAL,FAKE,,,,,,,,,,,,,,,,,,,,,,,,,,,,,,,,
,,,,,,,,,6695a62c614f900eb86de512,Spanish,13 or older,"no, only English or Spanish",no,2025-07-23_20h35.18.028,empathy_intonation_perc_control,2024.2.4,MacIntel,112.3595506,6695a62c614f900eb86de512,68817205a84113384fffdfe3,68817f9d84c4d75bc1fc03fc,,,,,,,,,,,,,1,,,,,,,,,,,,,,,,,,,,,,,,272.5561,274.6371,1,1,1.5606,,274.6373,275.637,0,5,5,5,1,0,sacapuntas,REAL,FAKE,,,,,,,,,,,,,,,,,,,,,,,,,,,,,,,,
,,,,,,,,,6695a62c614f900eb86de512,Spanish,13 or older,"no, only English or Spanish",no,2025-07-23_20h35.18.028,empathy_intonation_perc_control,2024.2.4,MacIntel,112.3595506,6695a62c614f900eb86de512,68817205a84113384fffdfe3,68817f9d84c4d75bc1fc03fc,,,,,,,,,,,,,0,,,,,,,,,,,,,,,,,,,,,,,,275.6394,277.1359,0,1,0.9754,,277.136,278.1364,0,6,6,6,1,0,priba,REAL,FAKE,,,,,,,,,,,,,,,,,,,,,,,,,,,,,,,,
,,,,,,,,,6695a62c614f900eb86de512,Spanish,13 or older,"no, only English or Spanish",no,2025-07-23_20h35.18.028,empathy_intonation_perc_control,2024.2.4,MacIntel,112.3595506,6695a62c614f900eb86de512,68817205a84113384fffdfe3,68817f9d84c4d75bc1fc03fc,,,,,,,,,,,,,0,,,,,,,,,,,,,,,,,,,,,,,,278.1386,279.9445,1,0,1.2858,,279.9452,280.9456,0,7,7,7,1,0,pelasula,REAL,FAKE,,,,,,,,,,,,,,,,,,,,,,,,,,,,,,,,
,,,,,,,,,6695a62c614f900eb86de512,Spanish,13 or older,"no, only English or Spanish",no,2025-07-23_20h35.18.028,empathy_intonation_perc_control,2024.2.4,MacIntel,112.3595506,6695a62c614f900eb86de512,68817205a84113384fffdfe3,68817f9d84c4d75bc1fc03fc,,,,,,,,,,,,,1,,,,,,,,,,,,,,,,,,,,,,,,280.9478,282.6029,1,1,1.1389,,282.6035,283.6026,0,8,8,8,1,0,bien,REAL,FAKE,,,,,,,,,,,,,,,,,,,,,,,,,,,,,,,,
,,,,,,,,,6695a62c614f900eb86de512,Spanish,13 or older,"no, only English or Spanish",no,2025-07-23_20h35.18.028,empathy_intonation_perc_control,2024.2.4,MacIntel,112.3595506,6695a62c614f900eb86de512,68817205a84113384fffdfe3,68817f9d84c4d75bc1fc03fc,,,,,,,,,,,,,1,,,,,,,,,,,,,,,,,,,,,,,,283.6037,284.9115,1,1,0.784,,284.9116,285.9115,0,9,9,9,1,0,casa,REAL,FAKE,,,,,,,,,,,,,,,,,,,,,,,,,,,,,,,,
,,,,,,,,,6695a62c614f900eb86de512,Spanish,13 or older,"no, only English or Spanish",no,2025-07-23_20h35.18.028,empathy_intonation_perc_control,2024.2.4,MacIntel,112.3595506,6695a62c614f900eb86de512,68817205a84113384fffdfe3,68817f9d84c4d75bc1fc03fc,,,,,,,,,,,,,0,,,,,,,,,,,,,,,,,,,,,,,,285.9122,287.5532,1,0,1.1256,,287.5538,288.5537,0,10,10,10,1,0,lejo,REAL,FAKE,,,,,,,,,,,,,,,,,,,,,,,,,,,,,,,,
,,,,,,,,,6695a62c614f900eb86de512,Spanish,13 or older,"no, only English or Spanish",no,2025-07-23_20h35.18.028,empathy_intonation_perc_control,2024.2.4,MacIntel,112.3595506,6695a62c614f900eb86de512,68817205a84113384fffdfe3,68817f9d84c4d75bc1fc03fc,,,,,,,,,,,,,0,,,,,,,,,,,,,,,,,,,,,,,,288.556,290.1784,1,0,1.1008,,290.1785,291.1785,0,11,11,11,1,0,pretantas,REAL,FAKE,,,,,,,,,,,,,,,,,,,,,,,,,,,,,,,,
,,,,,,,,,6695a62c614f900eb86de512,Spanish,13 or older,"no, only English or Spanish",no,2025-07-23_20h35.18.028,empathy_intonation_perc_control,2024.2.4,MacIntel,112.3595506,6695a62c614f900eb86de512,68817205a84113384fffdfe3,68817f9d84c4d75bc1fc03fc,,,,,,,,,,,,,,,,,,,,,,,,,,,,,,,,,,,,,,,,,,,,,,,,,,,,,,291.1792,293.0702,,,,,,,,,,,,,,,,,,,,,,,,,,,,,,
,,,,,,,,,6695a62c614f900eb86de512,Spanish,13 or older,"no, only English or Spanish",no,2025-07-23_20h35.18.028,empathy_intonation_perc_control,2024.2.4,MacIntel,112.3595506,6695a62c614f900eb86de512,68817205a84113384fffdfe3,68817f9d84c4d75bc1fc03fc,,,,,,,,,,,,,1,,,,,,,,,,,,,,,,,,,,,,,,,,,,,,,,,,,,,90,clavel,,,,,293.0802,294.7451,0,0,1.142,,0,0,0,89,1,REAL,FAKE,,,,,,,,,,,,,,,,,
,,,,,,,,,6695a62c614f900eb86de512,Spanish,13 or older,"no, only English or Spanish",no,2025-07-23_20h35.18.028,empathy_intonation_perc_control,2024.2.4,MacIntel,112.3595506,6695a62c614f900eb86de512,68817205a84113384fffdfe3,68817f9d84c4d75bc1fc03fc,,,,,,,,,,,,,1,,,,,,,,,,,,,,,,,,,,,,,,,,,,,,,,,,,,,40,alfombra,,,,,294.7462,296.1366,1,1,0.8658,,0,1,1,39,1,REAL,FAKE,,,,,,,,,,,,,,,,,
,,,,,,,,,6695a62c614f900eb86de512,Spanish,13 or older,"no, only English or Spanish",no,2025-07-23_20h35.18.028,empathy_intonation_perc_control,2024.2.4,MacIntel,112.3595506,6695a62c614f900eb86de512,68817205a84113384fffdfe3,68817f9d84c4d75bc1fc03fc,,,,,,,,,,,,,1,,,,,,,,,,,,,,,,,,,,,,,,,,,,,,,,,,,,,41,rebuscar,,,,,296.1375,297.7698,0,0,1.1127,,0,2,2,40,1,REAL,FAKE,,,,,,,,,,,,,,,,,
,,,,,,,,,6695a62c614f900eb86de512,Spanish,13 or older,"no, only English or Spanish",no,2025-07-23_20h35.18.028,empathy_intonation_perc_control,2024.2.4,MacIntel,112.3595506,6695a62c614f900eb86de512,68817205a84113384fffdfe3,68817f9d84c4d75bc1fc03fc,,,,,,,,,,,,,1,,,,,,,,,,,,,,,,,,,,,,,,,,,,,,,,,,,,,60,matar,,,,,297.7706,299.345,0,0,1.0529,,0,3,3,59,1,REAL,FAKE,,,,,,,,,,,,,,,,,
,,,,,,,,,6695a62c614f900eb86de512,Spanish,13 or older,"no, only English or Spanish",no,2025-07-23_20h35.18.028,empathy_intonation_perc_control,2024.2.4,MacIntel,112.3595506,6695a62c614f900eb86de512,68817205a84113384fffdfe3,68817f9d84c4d75bc1fc03fc,,,,,,,,,,,,,1,,,,,,,,,,,,,,,,,,,,,,,,,,,,,,,,,,,,,15,regar,,,,,299.3457,300.6863,1,1,0.8286,,0,4,4,14,1,REAL,FAKE,,,,,,,,,,,,,,,,,
,,,,,,,,,6695a62c614f900eb86de512,Spanish,13 or older,"no, only English or Spanish",no,2025-07-23_20h35.18.028,empathy_intonation_perc_control,2024.2.4,MacIntel,112.3595506,6695a62c614f900eb86de512,68817205a84113384fffdfe3,68817f9d84c4d75bc1fc03fc,,,,,,,,,,,,,1,,,,,,,,,,,,,,,,,,,,,,,,,,,,,,,,,,,,,61,seda,,,,,300.6872,301.7951,1,1,0.5975,,0,5,5,60,1,REAL,FAKE,,,,,,,,,,,,,,,,,
,,,,,,,,,6695a62c614f900eb86de512,Spanish,13 or older,"no, only English or Spanish",no,2025-07-23_20h35.18.028,empathy_intonation_perc_control,2024.2.4,MacIntel,112.3595506,6695a62c614f900eb86de512,68817205a84113384fffdfe3,68817f9d84c4d75bc1fc03fc,,,,,,,,,,,,,1,,,,,,,,,,,,,,,,,,,,,,,,,,,,,,,,,,,,,80,hormiga,,,,,301.7961,303.5026,0,0,1.1863,,0,6,6,79,1,REAL,FAKE,,,,,,,,,,,,,,,,,
,,,,,,,,,6695a62c614f900eb86de512,Spanish,13 or older,"no, only English or Spanish",no,2025-07-23_20h35.18.028,empathy_intonation_perc_control,2024.2.4,MacIntel,112.3595506,6695a62c614f900eb86de512,68817205a84113384fffdfe3,68817f9d84c4d75bc1fc03fc,,,,,,,,,,,,,0,,,,,,,,,,,,,,,,,,,,,,,,,,,,,,,,,,,,,63,esposante,,,,,303.5035,305.0204,1,0,1.0025,,0,7,7,62,1,REAL,FAKE,,,,,,,,,,,,,,,,,
,,,,,,,,,6695a62c614f900eb86de512,Spanish,13 or older,"no, only English or Spanish",no,2025-07-23_20h35.18.028,empathy_intonation_perc_control,2024.2.4,MacIntel,112.3595506,6695a62c614f900eb86de512,68817205a84113384fffdfe3,68817f9d84c4d75bc1fc03fc,,,,,,,,,,,,,1,,,,,,,,,,,,,,,,,,,,,,,,,,,,,,,,,,,,,55,nevar,,,,,305.0224,306.4026,0,0,0.8601,,0,8,8,54,1,REAL,FAKE,,,,,,,,,,,,,,,,,
,,,,,,,,,6695a62c614f900eb86de512,Spanish,13 or older,"no, only English or Spanish",no,2025-07-23_20h35.18.028,empathy_intonation_perc_control,2024.2.4,MacIntel,112.3595506,6695a62c614f900eb86de512,68817205a84113384fffdfe3,68817f9d84c4d75bc1fc03fc,,,,,,,,,,,,,0,,,,,,,,,,,,,,,,,,,,,,,,,,,,,,,,,,,,,47,cartinar,,,,,306.4034,308.6533,0,1,1.7297,,0,9,9,46,1,REAL,FAKE,,,,,,,,,,,,,,,,,
,,,,,,,,,6695a62c614f900eb86de512,Spanish,13 or older,"no, only English or Spanish",no,2025-07-23_20h35.18.028,empathy_intonation_perc_control,2024.2.4,MacIntel,112.3595506,6695a62c614f900eb86de512,68817205a84113384fffdfe3,68817f9d84c4d75bc1fc03fc,,,,,,,,,,,,,1,,,,,,,,,,,,,,,,,,,,,,,,,,,,,,,,,,,,,54,fomentar,,,,,308.6541,310.3533,1,1,1.1778,,0,10,10,53,1,REAL,FAKE,,,,,,,,,,,,,,,,,
,,,,,,,,,6695a62c614f900eb86de512,Spanish,13 or older,"no, only English or Spanish",no,2025-07-23_20h35.18.028,empathy_intonation_perc_control,2024.2.4,MacIntel,112.3595506,6695a62c614f900eb86de512,68817205a84113384fffdfe3,68817f9d84c4d75bc1fc03fc,,,,,,,,,,,,,0,,,,,,,,,,,,,,,,,,,,,,,,,,,,,,,,,,,,,30,alardio,,,,,310.3544,311.8117,1,0,0.9428,,0,11,11,29,1,REAL,FAKE,,,,,,,,,,,,,,,,,
,,,,,,,,,6695a62c614f900eb86de512,Spanish,13 or older,"no, only English or Spanish",no,2025-07-23_20h35.18.028,empathy_intonation_perc_control,2024.2.4,MacIntel,112.3595506,6695a62c614f900eb86de512,68817205a84113384fffdfe3,68817f9d84c4d75bc1fc03fc,,,,,,,,,,,,,0,,,,,,,,,,,,,,,,,,,,,,,,,,,,,,,,,,,,,10,antar,,,,,311.8127,313.4282,1,0,1.0921,,0,12,12,9,1,REAL,FAKE,,,,,,,,,,,,,,,,,
,,,,,,,,,6695a62c614f900eb86de512,Spanish,13 or older,"no, only English or Spanish",no,2025-07-23_20h35.18.028,empathy_intonation_perc_control,2024.2.4,MacIntel,112.3595506,6695a62c614f900eb86de512,68817205a84113384fffdfe3,68817f9d84c4d75bc1fc03fc,,,,,,,,,,,,,1,,,,,,,,,,,,,,,,,,,,,,,,,,,,,,,,,,,,,45,jilguero,,,,,313.429,315.5366,0,0,1.5847,,0,13,13,44,1,REAL,FAKE,,,,,,,,,,,,,,,,,
,,,,,,,,,6695a62c614f900eb86de512,Spanish,13 or older,"no, only English or Spanish",no,2025-07-23_20h35.18.028,empathy_intonation_perc_control,2024.2.4,MacIntel,112.3595506,6695a62c614f900eb86de512,68817205a84113384fffdfe3,68817f9d84c4d75bc1fc03fc,,,,,,,,,,,,,1,,,,,,,,,,,,,,,,,,,,,,,,,,,,,,,,,,,,,76,atar,,,,,315.5377,316.9533,1,1,0.895,,0,14,14,75,1,REAL,FAKE,,,,,,,,,,,,,,,,,
,,,,,,,,,6695a62c614f900eb86de512,Spanish,13 or older,"no, only English or Spanish",no,2025-07-23_20h35.18.028,empathy_intonation_perc_control,2024.2.4,MacIntel,112.3595506,6695a62c614f900eb86de512,68817205a84113384fffdfe3,68817f9d84c4d75bc1fc03fc,,,,,,,,,,,,,1,,,,,,,,,,,,,,,,,,,,,,,,,,,,,,,,,,,,,85,laúd,,,,,316.9543,318.4784,1,1,1.0035,,0,15,15,84,1,REAL,FAKE,,,,,,,,,,,,,,,,,
,,,,,,,,,6695a62c614f900eb86de512,Spanish,13 or older,"no, only English or Spanish",no,2025-07-23_20h35.18.028,empathy_intonation_perc_control,2024.2.4,MacIntel,112.3595506,6695a62c614f900eb86de512,68817205a84113384fffdfe3,68817f9d84c4d75bc1fc03fc,,,,,,,,,,,,,1,,,,,,,,,,,,,,,,,,,,,,,,,,,,,,,,,,,,,26,secuestro,,,,,318.4794,319.7862,1,1,0.793,,0,16,16,25,1,REAL,FAKE,,,,,,,,,,,,,,,,,
,,,,,,,,,6695a62c614f900eb86de512,Spanish,13 or older,"no, only English or Spanish",no,2025-07-23_20h35.18.028,empathy_intonation_perc_control,2024.2.4,MacIntel,112.3595506,6695a62c614f900eb86de512,68817205a84113384fffdfe3,68817f9d84c4d75bc1fc03fc,,,,,,,,,,,,,1,,,,,,,,,,,,,,,,,,,,,,,,,,,,,,,,,,,,,14,yunque,,,,,319.7873,321.0699,0,0,0.7706,,0,17,17,13,1,REAL,FAKE,,,,,,,,,,,,,,,,,
,,,,,,,,,6695a62c614f900eb86de512,Spanish,13 or older,"no, only English or Spanish",no,2025-07-23_20h35.18.028,empathy_intonation_perc_control,2024.2.4,MacIntel,112.3595506,6695a62c614f900eb86de512,68817205a84113384fffdfe3,68817f9d84c4d75bc1fc03fc,,,,,,,,,,,,,1,,,,,,,,,,,,,,,,,,,,,,,,,,,,,,,,,,,,,69,engatusar,,,,,321.0709,322.9024,0,0,1.311,,0,18,18,68,1,REAL,FAKE,,,,,,,,,,,,,,,,,
,,,,,,,,,6695a62c614f900eb86de512,Spanish,13 or older,"no, only English or Spanish",no,2025-07-23_20h35.18.028,empathy_intonation_perc_control,2024.2.4,MacIntel,112.3595506,6695a62c614f900eb86de512,68817205a84113384fffdfe3,68817f9d84c4d75bc1fc03fc,,,,,,,,,,,,,1,,,,,,,,,,,,,,,,,,,,,,,,,,,,,,,,,,,,,78,frondoso,,,,,322.9034,324.4033,0,0,0.9863,,0,19,19,77,1,REAL,FAKE,,,,,,,,,,,,,,,,,
,,,,,,,,,6695a62c614f900eb86de512,Spanish,13 or older,"no, only English or Spanish",no,2025-07-23_20h35.18.028,empathy_intonation_perc_control,2024.2.4,MacIntel,112.3595506,6695a62c614f900eb86de512,68817205a84113384fffdfe3,68817f9d84c4d75bc1fc03fc,,,,,,,,,,,,,0,,,,,,,,,,,,,,,,,,,,,,,,,,,,,,,,,,,,,1,terzo,,,,,324.4043,325.8193,1,0,0.8957,,0,20,20,0,1,REAL,FAKE,,,,,,,,,,,,,,,,,
,,,,,,,,,6695a62c614f900eb86de512,Spanish,13 or older,"no, only English or Spanish",no,2025-07-23_20h35.18.028,empathy_intonation_perc_control,2024.2.4,MacIntel,112.3595506,6695a62c614f900eb86de512,68817205a84113384fffdfe3,68817f9d84c4d75bc1fc03fc,,,,,,,,,,,,,1,,,,,,,,,,,,,,,,,,,,,,,,,,,,,,,,,,,,,48,ladrón,,,,,325.8202,327.4866,1,1,1.1457,,0,21,21,47,1,REAL,FAKE,,,,,,,,,,,,,,,,,
,,,,,,,,,6695a62c614f900eb86de512,Spanish,13 or older,"no, only English or Spanish",no,2025-07-23_20h35.18.028,empathy_intonation_perc_control,2024.2.4,MacIntel,112.3595506,6695a62c614f900eb86de512,68817205a84113384fffdfe3,68817f9d84c4d75bc1fc03fc,,,,,,,,,,,,,0,,,,,,,,,,,,,,,,,,,,,,,,,,,,,,,,,,,,,35,rompido,,,,,327.4876,330.0864,0,1,2.0767,,0,22,22,34,1,REAL,FAKE,,,,,,,,,,,,,,,,,
,,,,,,,,,6695a62c614f900eb86de512,Spanish,13 or older,"no, only English or Spanish",no,2025-07-23_20h35.18.028,empathy_intonation_perc_control,2024.2.4,MacIntel,112.3595506,6695a62c614f900eb86de512,68817205a84113384fffdfe3,68817f9d84c4d75bc1fc03fc,,,,,,,,,,,,,1,,,,,,,,,,,,,,,,,,,,,,,,,,,,,,,,,,,,,37,granuja,,,,,330.0874,331.7606,0,0,1.1567,,0,23,23,36,1,REAL,FAKE,,,,,,,,,,,,,,,,,
,,,,,,,,,6695a62c614f900eb86de512,Spanish,13 or older,"no, only English or Spanish",no,2025-07-23_20h35.18.028,empathy_intonation_perc_control,2024.2.4,MacIntel,112.3595506,6695a62c614f900eb86de512,68817205a84113384fffdfe3,68817f9d84c4d75bc1fc03fc,,,,,,,,,,,,,0,,,,,,,,,,,,,,,,,,,,,,,,,,,,,,,,,,,,,53,vegada,,,,,331.7615,333.486,1,0,1.2125,,0,24,24,52,1,REAL,FAKE,,,,,,,,,,,,,,,,,
,,,,,,,,,6695a62c614f900eb86de512,Spanish,13 or older,"no, only English or Spanish",no,2025-07-23_20h35.18.028,empathy_intonation_perc_control,2024.2.4,MacIntel,112.3595506,6695a62c614f900eb86de512,68817205a84113384fffdfe3,68817f9d84c4d75bc1fc03fc,,,,,,,,,,,,,1,,,,,,,,,,,,,,,,,,,,,,,,,,,,,,,,,,,,,51,candado,,,,,333.4869,335.0034,1,1,1.0017,,0,25,25,50,1,REAL,FAKE,,,,,,,,,,,,,,,,,
,,,,,,,,,6695a62c614f900eb86de512,Spanish,13 or older,"no, only English or Spanish",no,2025-07-23_20h35.18.028,empathy_intonation_perc_control,2024.2.4,MacIntel,112.3595506,6695a62c614f900eb86de512,68817205a84113384fffdfe3,68817f9d84c4d75bc1fc03fc,,,,,,,,,,,,,1,,,,,,,,,,,,,,,,,,,,,,,,,,,,,,,,,,,,,46,martillo,,,,,335.0045,336.2778,1,1,0.7524,,0,26,26,45,1,REAL,FAKE,,,,,,,,,,,,,,,,,
,,,,,,,,,6695a62c614f900eb86de512,Spanish,13 or older,"no, only English or Spanish",no,2025-07-23_20h35.18.028,empathy_intonation_perc_control,2024.2.4,MacIntel,112.3595506,6695a62c614f900eb86de512,68817205a84113384fffdfe3,68817f9d84c4d75bc1fc03fc,,,,,,,,,,,,,0,,,,,,,,,,,,,,,,,,,,,,,,,,,,,,,,,,,,,19,brecedad,,,,,336.2788,338.0947,1,0,1.2934,,0,27,27,18,1,REAL,FAKE,,,,,,,,,,,,,,,,,
,,,,,,,,,6695a62c614f900eb86de512,Spanish,13 or older,"no, only English or Spanish",no,2025-07-23_20h35.18.028,empathy_intonation_perc_control,2024.2.4,MacIntel,112.3595506,6695a62c614f900eb86de512,68817205a84113384fffdfe3,68817f9d84c4d75bc1fc03fc,,,,,,,,,,,,,1,,,,,,,,,,,,,,,,,,,,,,,,,,,,,,,,,,,,,64,orgulloso,,,,,338.0957,339.8532,0,0,1.2372,,0,28,28,63,1,REAL,FAKE,,,,,,,,,,,,,,,,,
,,,,,,,,,6695a62c614f900eb86de512,Spanish,13 or older,"no, only English or Spanish",no,2025-07-23_20h35.18.028,empathy_intonation_perc_control,2024.2.4,MacIntel,112.3595506,6695a62c614f900eb86de512,68817205a84113384fffdfe3,68817f9d84c4d75bc1fc03fc,,,,,,,,,,,,,0,,,,,,,,,,,,,,,,,,,,,,,,,,,,,,,,,,,,,32,fatacidad,,,,,339.8539,341.7605,0,1,1.3883,,0,29,29,31,1,REAL,FAKE,,,,,,,,,,,,,,,,,
,,,,,,,,,6695a62c614f900eb86de512,Spanish,13 or older,"no, only English or Spanish",no,2025-07-23_20h35.18.028,empathy_intonation_perc_control,2024.2.4,MacIntel,112.3595506,6695a62c614f900eb86de512,68817205a84113384fffdfe3,68817f9d84c4d75bc1fc03fc,,,,,,,,,,,,,1,,,,,,,,,,,,,,,,,,,,,,,,,,,,,,,,,,,,,13,helar,,,,,341.7612,343.4607,0,0,1.1931,,0,30,30,12,1,REAL,FAKE,,,,,,,,,,,,,,,,,
,,,,,,,,,6695a62c614f900eb86de512,Spanish,13 or older,"no, only English or Spanish",no,2025-07-23_20h35.18.028,empathy_intonation_perc_control,2024.2.4,MacIntel,112.3595506,6695a62c614f900eb86de512,68817205a84113384fffdfe3,68817f9d84c4d75bc1fc03fc,,,,,,,,,,,,,1,,,,,,,,,,,,,,,,,,,,,,,,,,,,,,,,,,,,,83,guante,,,,,343.4619,344.7206,0,0,0.7373,,0,31,31,82,1,REAL,FAKE,,,,,,,,,,,,,,,,,
,,,,,,,,,6695a62c614f900eb86de512,Spanish,13 or older,"no, only English or Spanish",no,2025-07-23_20h35.18.028,empathy_intonation_perc_control,2024.2.4,MacIntel,112.3595506,6695a62c614f900eb86de512,68817205a84113384fffdfe3,68817f9d84c4d75bc1fc03fc,,,,,,,,,,,,,1,,,,,,,,,,,,,,,,,,,,,,,,,,,,,,,,,,,,,6,tergiversar,,,,,344.7223,346.1781,0,0,0.9362,,0,32,32,5,1,REAL,FAKE,,,,,,,,,,,,,,,,,
,,,,,,,,,6695a62c614f900eb86de512,Spanish,13 or older,"no, only English or Spanish",no,2025-07-23_20h35.18.028,empathy_intonation_perc_control,2024.2.4,MacIntel,112.3595506,6695a62c614f900eb86de512,68817205a84113384fffdfe3,68817f9d84c4d75bc1fc03fc,,,,,,,,,,,,,0,,,,,,,,,,,,,,,,,,,,,,,,,,,,,,,,,,,,,92,click the 0 key.,,,,,346.1793,349.2956,0,1,2.5918,,0,33,33,91,1,REAL,FAKE,,,,,,,,,,,,,,,,,
,,,,,,,,,6695a62c614f900eb86de512,Spanish,13 or older,"no, only English or Spanish",no,2025-07-23_20h35.18.028,empathy_intonation_perc_control,2024.2.4,MacIntel,112.3595506,6695a62c614f900eb86de512,68817205a84113384fffdfe3,68817f9d84c4d75bc1fc03fc,,,,,,,,,,,,,1,,,,,,,,,,,,,,,,,,,,,,,,,,,,,,,,,,,,,71,polvoriento,,,,,349.2977,351.1451,1,1,1.3271,,0,34,34,70,1,REAL,FAKE,,,,,,,,,,,,,,,,,
,,,,,,,,,6695a62c614f900eb86de512,Spanish,13 or older,"no, only English or Spanish",no,2025-07-23_20h35.18.028,empathy_intonation_perc_control,2024.2.4,MacIntel,112.3595506,6695a62c614f900eb86de512,68817205a84113384fffdfe3,68817f9d84c4d75bc1fc03fc,,,,,,,,,,,,,1,,,,,,,,,,,,,,,,,,,,,,,,,,,,,,,,,,,,,36,loro,,,,,351.1468,352.2781,1,1,0.6096,,0,35,35,35,1,REAL,FAKE,,,,,,,,,,,,,,,,,
,,,,,,,,,6695a62c614f900eb86de512,Spanish,13 or older,"no, only English or Spanish",no,2025-07-23_20h35.18.028,empathy_intonation_perc_control,2024.2.4,MacIntel,112.3595506,6695a62c614f900eb86de512,68817205a84113384fffdfe3,68817f9d84c4d75bc1fc03fc,,,,,,,,,,,,,1,,,,,,,,,,,,,,,,,,,,,,,,,,,,,,,,,,,,,81,pozo,,,,,352.2787,353.6372,1,1,0.8414,,0,36,36,80,1,REAL,FAKE,,,,,,,,,,,,,,,,,
,,,,,,,,,6695a62c614f900eb86de512,Spanish,13 or older,"no, only English or Spanish",no,2025-07-23_20h35.18.028,empathy_intonation_perc_control,2024.2.4,MacIntel,112.3595506,6695a62c614f900eb86de512,68817205a84113384fffdfe3,68817f9d84c4d75bc1fc03fc,,,,,,,,,,,,,0,,,,,,,,,,,,,,,,,,,,,,,,,,,,,,,,,,,,,84,escuto,,,,,353.6383,355.1104,1,0,0.9514,,0,37,37,83,1,REAL,FAKE,,,,,,,,,,,,,,,,,
,,,,,,,,,6695a62c614f900eb86de512,Spanish,13 or older,"no, only English or Spanish",no,2025-07-23_20h35.18.028,empathy_intonation_perc_control,2024.2.4,MacIntel,112.3595506,6695a62c614f900eb86de512,68817205a84113384fffdfe3,68817f9d84c4d75bc1fc03fc,,,,,,,,,,,,,0,,,,,,,,,,,,,,,,,,,,,,,,,,,,,,,,,,,,,79,tropaje,,,,,355.1114,357.3355,0,1,1.7109,,0,38,38,78,1,REAL,FAKE,,,,,,,,,,,,,,,,,
,,,,,,,,,6695a62c614f900eb86de512,Spanish,13 or older,"no, only English or Spanish",no,2025-07-23_20h35.18.028,empathy_intonation_perc_control,2024.2.4,MacIntel,112.3595506,6695a62c614f900eb86de512,68817205a84113384fffdfe3,68817f9d84c4d75bc1fc03fc,,,,,,,,,,,,,0,,,,,,,,,,,,,,,,,,,,,,,,,,,,,,,,,,,,,72,pemición,,,,,357.3364,359.0614,0,1,1.2094,,0,39,39,71,1,REAL,FAKE,,,,,,,,,,,,,,,,,
,,,,,,,,,6695a62c614f900eb86de512,Spanish,13 or older,"no, only English or Spanish",no,2025-07-23_20h35.18.028,empathy_intonation_perc_control,2024.2.4,MacIntel,112.3595506,6695a62c614f900eb86de512,68817205a84113384fffdfe3,68817f9d84c4d75bc1fc03fc,,,,,,,,,,,,,0,,,,,,,,,,,,,,,,,,,,,,,,,,,,,,,,,,,,,21,capillo,,,,,359.0621,360.3281,1,0,0.7431,,0,40,40,20,1,REAL,FAKE,,,,,,,,,,,,,,,,,
,,,,,,,,,6695a62c614f900eb86de512,Spanish,13 or older,"no, only English or Spanish",no,2025-07-23_20h35.18.028,empathy_intonation_perc_control,2024.2.4,MacIntel,112.3595506,6695a62c614f900eb86de512,68817205a84113384fffdfe3,68817f9d84c4d75bc1fc03fc,,,,,,,,,,,,,1,,,,,,,,,,,,,,,,,,,,,,,,,,,,,,,,,,,,,31,pandilla,,,,,360.3292,361.8031,1,1,0.9539,,0,41,41,30,1,REAL,FAKE,,,,,,,,,,,,,,,,,
,,,,,,,,,6695a62c614f900eb86de512,Spanish,13 or older,"no, only English or Spanish",no,2025-07-23_20h35.18.028,empathy_intonation_perc_control,2024.2.4,MacIntel,112.3595506,6695a62c614f900eb86de512,68817205a84113384fffdfe3,68817f9d84c4d75bc1fc03fc,,,,,,,,,,,,,1,,,,,,,,,,,,,,,,,,,,,,,,,,,,,,,,,,,,,49,ganar,,,,,361.804,363.3949,0,0,1.0653,,0,42,42,48,1,REAL,FAKE,,,,,,,,,,,,,,,,,
,,,,,,,,,6695a62c614f900eb86de512,Spanish,13 or older,"no, only English or Spanish",no,2025-07-23_20h35.18.028,empathy_intonation_perc_control,2024.2.4,MacIntel,112.3595506,6695a62c614f900eb86de512,68817205a84113384fffdfe3,68817f9d84c4d75bc1fc03fc,,,,,,,,,,,,,1,,,,,,,,,,,,,,,,,,,,,,,,,,,,,,,,,,,,,67,cabello,,,,,363.3958,365.128,1,1,1.2119,,0,43,43,66,1,REAL,FAKE,,,,,,,,,,,,,,,,,
,,,,,,,,,6695a62c614f900eb86de512,Spanish,13 or older,"no, only English or Spanish",no,2025-07-23_20h35.18.028,empathy_intonation_perc_control,2024.2.4,MacIntel,112.3595506,6695a62c614f900eb86de512,68817205a84113384fffdfe3,68817f9d84c4d75bc1fc03fc,,,,,,,,,,,,,0,,,,,,,,,,,,,,,,,,,,,,,,,,,,,,,,,,,,,8,cadeña,,,,,365.1291,366.5445,1,0,0.8938,,0,44,44,7,1,REAL,FAKE,,,,,,,,,,,,,,,,,
,,,,,,,,,6695a62c614f900eb86de512,Spanish,13 or older,"no, only English or Spanish",no,2025-07-23_20h35.18.028,empathy_intonation_perc_control,2024.2.4,MacIntel,112.3595506,6695a62c614f900eb86de512,68817205a84113384fffdfe3,68817f9d84c4d75bc1fc03fc,,,,,,,,,,,,,0,,,,,,,,,,,,,,,,,,,,,,,,,,,,,,,,,,,,,70,temblo,,,,,366.5455,368.1281,0,1,1.0566,,0,45,45,69,1,REAL,FAKE,,,,,,,,,,,,,,,,,
,,,,,,,,,6695a62c614f900eb86de512,Spanish,13 or older,"no, only English or Spanish",no,2025-07-23_20h35.18.028,empathy_intonation_perc_control,2024.2.4,MacIntel,112.3595506,6695a62c614f900eb86de512,68817205a84113384fffdfe3,68817f9d84c4d75bc1fc03fc,,,,,,,,,,,,,0,,,,,,,,,,,,,,,,,,,,,,,,,,,,,,,,,,,,,27,acutación,,,,,368.1289,369.7941,0,1,1.1423,,0,46,46,26,1,REAL,FAKE,,,,,,,,,,,,,,,,,
,,,,,,,,,6695a62c614f900eb86de512,Spanish,13 or older,"no, only English or Spanish",no,2025-07-23_20h35.18.028,empathy_intonation_perc_control,2024.2.4,MacIntel,112.3595506,6695a62c614f900eb86de512,68817205a84113384fffdfe3,68817f9d84c4d75bc1fc03fc,,,,,,,,,,,,,0,,,,,,,,,,,,,,,,,,,,,,,,,,,,,,,,,,,,,42,cadallo,,,,,369.795,370.9782,1,0,0.6606,,0,47,47,41,1,REAL,FAKE,,,,,,,,,,,,,,,,,
,,,,,,,,,6695a62c614f900eb86de512,Spanish,13 or older,"no, only English or Spanish",no,2025-07-23_20h35.18.028,empathy_intonation_perc_control,2024.2.4,MacIntel,112.3595506,6695a62c614f900eb86de512,68817205a84113384fffdfe3,68817f9d84c4d75bc1fc03fc,,,,,,,,,,,,,1,,,,,,,,,,,,,,,,,,,,,,,,,,,,,,,,,,,,,56,musgo,,,,,370.9794,372.5283,1,1,1.0247,,0,48,48,55,1,REAL,FAKE,,,,,,,,,,,,,,,,,
,,,,,,,,,6695a62c614f900eb86de512,Spanish,13 or older,"no, only English or Spanish",no,2025-07-23_20h35.18.028,empathy_intonation_perc_control,2024.2.4,MacIntel,112.3595506,6695a62c614f900eb86de512,68817205a84113384fffdfe3,68817f9d84c4d75bc1fc03fc,,,,,,,,,,,,,0,,,,,,,,,,,,,,,,,,,,,,,,,,,,,,,,,,,,,66,hacido,,,,,372.5296,374.0358,1,0,0.9865,,0,49,49,65,1,REAL,FAKE,,,,,,,,,,,,,,,,,
,,,,,,,,,6695a62c614f900eb86de512,Spanish,13 or older,"no, only English or Spanish",no,2025-07-23_20h35.18.028,empathy_intonation_perc_control,2024.2.4,MacIntel,112.3595506,6695a62c614f900eb86de512,68817205a84113384fffdfe3,68817f9d84c4d75bc1fc03fc,,,,,,,,,,,,,1,,,,,,,,,,,,,,,,,,,,,,,,,,,,,,,,,,,,,44,cuchara,,,,,374.0368,375.4192,0,0,0.8685,,0,50,50,43,1,REAL,FAKE,,,,,,,,,,,,,,,,,
,,,,,,,,,6695a62c614f900eb86de512,Spanish,13 or older,"no, only English or Spanish",no,2025-07-23_20h35.18.028,empathy_intonation_perc_control,2024.2.4,MacIntel,112.3595506,6695a62c614f900eb86de512,68817205a84113384fffdfe3,68817f9d84c4d75bc1fc03fc,,,,,,,,,,,,,1,,,,,,,,,,,,,,,,,,,,,,,,,,,,,,,,,,,,,12,asesinato,,,,,375.42,377.1363,0,0,1.1957,,0,51,51,11,1,REAL,FAKE,,,,,,,,,,,,,,,,,
,,,,,,,,,6695a62c614f900eb86de512,Spanish,13 or older,"no, only English or Spanish",no,2025-07-23_20h35.18.028,empathy_intonation_perc_control,2024.2.4,MacIntel,112.3595506,6695a62c614f900eb86de512,68817205a84113384fffdfe3,68817f9d84c4d75bc1fc03fc,,,,,,,,,,,,,1,,,,,,,,,,,,,,,,,,,,,,,,,,,,,,,,,,,,,22,lacayo,,,,,377.1372,378.773,0,0,1.1209,,0,52,52,21,1,REAL,FAKE,,,,,,,,,,,,,,,,,
,,,,,,,,,6695a62c614f900eb86de512,Spanish,13 or older,"no, only English or Spanish",no,2025-07-23_20h35.18.028,empathy_intonation_perc_control,2024.2.4,MacIntel,112.3595506,6695a62c614f900eb86de512,68817205a84113384fffdfe3,68817f9d84c4d75bc1fc03fc,,,,,,,,,,,,,1,,,,,,,,,,,,,,,,,,,,,,,,,,,,,,,,,,,,,34,aviso,,,,,378.7739,380.0482,1,1,0.7532,,0,53,53,33,1,REAL,FAKE,,,,,,,,,,,,,,,,,
,,,,,,,,,6695a62c614f900eb86de512,Spanish,13 or older,"no, only English or Spanish",no,2025-07-23_20h35.18.028,empathy_intonation_perc_control,2024.2.4,MacIntel,112.3595506,6695a62c614f900eb86de512,68817205a84113384fffdfe3,68817f9d84c4d75bc1fc03fc,,,,,,,,,,,,,1,,,,,,,,,,,,,,,,,,,,,,,,,,,,,,,,,,,,,68,alegre,,,,,380.049,381.6564,1,1,1.097,,0,54,54,67,1,REAL,FAKE,,,,,,,,,,,,,,,,,
,,,,,,,,,6695a62c614f900eb86de512,Spanish,13 or older,"no, only English or Spanish",no,2025-07-23_20h35.18.028,empathy_intonation_perc_control,2024.2.4,MacIntel,112.3595506,6695a62c614f900eb86de512,68817205a84113384fffdfe3,68817f9d84c4d75bc1fc03fc,,,,,,,,,,,,,1,,,,,,,,,,,,,,,,,,,,,,,,,,,,,,,,,,,,,9,hacha,,,,,381.6574,383.2904,1,1,1.1092,,0,55,55,8,1,REAL,FAKE,,,,,,,,,,,,,,,,,
,,,,,,,,,6695a62c614f900eb86de512,Spanish,13 or older,"no, only English or Spanish",no,2025-07-23_20h35.18.028,empathy_intonation_perc_control,2024.2.4,MacIntel,112.3595506,6695a62c614f900eb86de512,68817205a84113384fffdfe3,68817f9d84c4d75bc1fc03fc,,,,,,,,,,,,,0,,,,,,,,,,,,,,,,,,,,,,,,,,,,,,,,,,,,,16,abracer,,,,,383.2911,384.9157,0,1,1.102,,0,56,56,15,1,REAL,FAKE,,,,,,,,,,,,,,,,,
,,,,,,,,,6695a62c614f900eb86de512,Spanish,13 or older,"no, only English or Spanish",no,2025-07-23_20h35.18.028,empathy_intonation_perc_control,2024.2.4,MacIntel,112.3595506,6695a62c614f900eb86de512,68817205a84113384fffdfe3,68817f9d84c4d75bc1fc03fc,,,,,,,,,,,,,0,,,,,,,,,,,,,,,,,,,,,,,,,,,,,,,,,,,,,82,empirador,,,,,384.9168,386.8567,1,0,1.4203,,0,57,57,81,1,REAL,FAKE,,,,,,,,,,,,,,,,,
,,,,,,,,,6695a62c614f900eb86de512,Spanish,13 or older,"no, only English or Spanish",no,2025-07-23_20h35.18.028,empathy_intonation_perc_control,2024.2.4,MacIntel,112.3595506,6695a62c614f900eb86de512,68817205a84113384fffdfe3,68817f9d84c4d75bc1fc03fc,,,,,,,,,,,,,0,,,,,,,,,,,,,,,,,,,,,,,,,,,,,,,,,,,,,58,plaudir,,,,,386.8578,388.3654,1,0,0.9848,,0,58,58,57,1,REAL,FAKE,,,,,,,,,,,,,,,,,
,,,,,,,,,6695a62c614f900eb86de512,Spanish,13 or older,"no, only English or Spanish",no,2025-07-23_20h35.18.028,empathy_intonation_perc_control,2024.2.4,MacIntel,112.3595506,6695a62c614f900eb86de512,68817205a84113384fffdfe3,68817f9d84c4d75bc1fc03fc,,,,,,,,,,,,,1,,,,,,,,,,,,,,,,,,,,,,,,,,,,,,,,,,,,,57,tacaño,,,,,388.3666,389.9847,1,1,1.0986,,0,59,59,56,1,REAL,FAKE,,,,,,,,,,,,,,,,,
,,,,,,,,,6695a62c614f900eb86de512,Spanish,13 or older,"no, only English or Spanish",no,2025-07-23_20h35.18.028,empathy_intonation_perc_control,2024.2.4,MacIntel,112.3595506,6695a62c614f900eb86de512,68817205a84113384fffdfe3,68817f9d84c4d75bc1fc03fc,,,,,,,,,,,,,1,,,,,,,,,,,,,,,,,,,,,,,,,,,,,,,,,,,,,91,click the 1 key.,,,,,389.9854,392.0072,1,1,1.502,,0,60,60,90,1,REAL,FAKE,,,,,,,,,,,,,,,,,
,,,,,,,,,6695a62c614f900eb86de512,Spanish,13 or older,"no, only English or Spanish",no,2025-07-23_20h35.18.028,empathy_intonation_perc_control,2024.2.4,MacIntel,112.3595506,6695a62c614f900eb86de512,68817205a84113384fffdfe3,68817f9d84c4d75bc1fc03fc,,,,,,,,,,,,,1,,,,,,,,,,,,,,,,,,,,,,,,,,,,,,,,,,,,,20,ávido,,,,,392.0082,393.6737,1,1,1.1415,,0,61,61,19,1,REAL,FAKE,,,,,,,,,,,,,,,,,
,,,,,,,,,6695a62c614f900eb86de512,Spanish,13 or older,"no, only English or Spanish",no,2025-07-23_20h35.18.028,empathy_intonation_perc_control,2024.2.4,MacIntel,112.3595506,6695a62c614f900eb86de512,68817205a84113384fffdfe3,68817f9d84c4d75bc1fc03fc,,,,,,,,,,,,,1,,,,,,,,,,,,,,,,,,,,,,,,,,,,,,,,,,,,,89,prisa,,,,,393.6744,395.1813,0,0,0.9891,,0,62,62,88,1,REAL,FAKE,,,,,,,,,,,,,,,,,
,,,,,,,,,6695a62c614f900eb86de512,Spanish,13 or older,"no, only English or Spanish",no,2025-07-23_20h35.18.028,empathy_intonation_perc_control,2024.2.4,MacIntel,112.3595506,6695a62c614f900eb86de512,68817205a84113384fffdfe3,68817f9d84c4d75bc1fc03fc,,,,,,,,,,,,,1,,,,,,,,,,,,,,,,,,,,,,,,,,,,,,,,,,,,,43,canela,,,,,395.1822,396.8322,1,1,1.1375,,0,63,63,42,1,REAL,FAKE,,,,,,,,,,,,,,,,,
,,,,,,,,,6695a62c614f900eb86de512,Spanish,13 or older,"no, only English or Spanish",no,2025-07-23_20h35.18.028,empathy_intonation_perc_control,2024.2.4,MacIntel,112.3595506,6695a62c614f900eb86de512,68817205a84113384fffdfe3,68817f9d84c4d75bc1fc03fc,,,,,,,,,,,,,0,,,,,,,,,,,,,,,,,,,,,,,,,,,,,,,,,,,,,33,pauca,,,,,396.8329,398.7239,0,1,1.376,,0,64,64,32,1,REAL,FAKE,,,,,,,,,,,,,,,,,
,,,,,,,,,6695a62c614f900eb86de512,Spanish,13 or older,"no, only English or Spanish",no,2025-07-23_20h35.18.028,empathy_intonation_perc_control,2024.2.4,MacIntel,112.3595506,6695a62c614f900eb86de512,68817205a84113384fffdfe3,68817f9d84c4d75bc1fc03fc,,,,,,,,,,,,,1,,,,,,,,,,,,,,,,,,,,,,,,,,,,,,,,,,,,,7,pésimo,,,,,398.7247,400.3573,0,0,1.109,,0,65,65,6,1,REAL,FAKE,,,,,,,,,,,,,,,,,
,,,,,,,,,6695a62c614f900eb86de512,Spanish,13 or older,"no, only English or Spanish",no,2025-07-23_20h35.18.028,empathy_intonation_perc_control,2024.2.4,MacIntel,112.3595506,6695a62c614f900eb86de512,68817205a84113384fffdfe3,68817f9d84c4d75bc1fc03fc,,,,,,,,,,,,,0,,,,,,,,,,,,,,,,,,,,,,,,,,,,,,,,,,,,,50,flamida,,,,,400.3587,401.6486,1,0,0.7739,,0,66,66,49,1,REAL,FAKE,,,,,,,,,,,,,,,,,
,,,,,,,,,6695a62c614f900eb86de512,Spanish,13 or older,"no, only English or Spanish",no,2025-07-23_20h35.18.028,empathy_intonation_perc_control,2024.2.4,MacIntel,112.3595506,6695a62c614f900eb86de512,68817205a84113384fffdfe3,68817f9d84c4d75bc1fc03fc,,,,,,,,,,,,,1,,,,,,,,,,,,,,,,,,,,,,,,,,,,,,,,,,,,,88,acantilado,,,,,401.6498,403.2404,0,0,1.0682,,0,67,67,87,1,REAL,FAKE,,,,,,,,,,,,,,,,,
,,,,,,,,,6695a62c614f900eb86de512,Spanish,13 or older,"no, only English or Spanish",no,2025-07-23_20h35.18.028,empathy_intonation_perc_control,2024.2.4,MacIntel,112.3595506,6695a62c614f900eb86de512,68817205a84113384fffdfe3,68817f9d84c4d75bc1fc03fc,,,,,,,,,,,,,1,,,,,,,,,,,,,,,,,,,,,,,,,,,,,,,,,,,,,59,besar,,,,,403.2412,404.6318,0,0,0.8735,,0,68,68,58,1,REAL,FAKE,,,,,,,,,,,,,,,,,
,,,,,,,,,6695a62c614f900eb86de512,Spanish,13 or older,"no, only English or Spanish",no,2025-07-23_20h35.18.028,empathy_intonation_perc_control,2024.2.4,MacIntel,112.3595506,6695a62c614f900eb86de512,68817205a84113384fffdfe3,68817f9d84c4d75bc1fc03fc,,,,,,,,,,,,,0,,,,,,,,,,,,,,,,,,,,,,,,,,,,,,,,,,,,,29,decar,,,,,404.6327,406.4489,1,0,1.2909,,0,69,69,28,1,REAL,FAKE,,,,,,,,,,,,,,,,,
,,,,,,,,,6695a62c614f900eb86de512,Spanish,13 or older,"no, only English or Spanish",no,2025-07-23_20h35.18.028,empathy_intonation_perc_control,2024.2.4,MacIntel,112.3595506,6695a62c614f900eb86de512,68817205a84113384fffdfe3,68817f9d84c4d75bc1fc03fc,,,,,,,,,,,,,0,,,,,,,,,,,,,,,,,,,,,,,,,,,,,,,,,,,,,18,arsa,,,,,406.4496,408.2404,0,1,1.2673,,0,70,70,17,1,REAL,FAKE,,,,,,,,,,,,,,,,,
,,,,,,,,,6695a62c614f900eb86de512,Spanish,13 or older,"no, only English or Spanish",no,2025-07-23_20h35.18.028,empathy_intonation_perc_control,2024.2.4,MacIntel,112.3595506,6695a62c614f900eb86de512,68817205a84113384fffdfe3,68817f9d84c4d75bc1fc03fc,,,,,,,,,,,,,0,,,,,,,,,,,,,,,,,,,,,,,,,,,,,,,,,,,,,74,cintro,,,,,408.2412,410.0237,0,1,1.2613,,0,71,71,73,1,REAL,FAKE,,,,,,,,,,,,,,,,,
,,,,,,,,,6695a62c614f900eb86de512,Spanish,13 or older,"no, only English or Spanish",no,2025-07-23_20h35.18.028,empathy_intonation_perc_control,2024.2.4,MacIntel,112.3595506,6695a62c614f900eb86de512,68817205a84113384fffdfe3,68817f9d84c4d75bc1fc03fc,,,,,,,,,,,,,1,,,,,,,,,,,,,,,,,,,,,,,,,,,,,,,,,,,,,75,yacer,,,,,410.0247,411.3325,1,1,0.7874,,0,72,72,74,1,REAL,FAKE,,,,,,,,,,,,,,,,,
,,,,,,,,,6695a62c614f900eb86de512,Spanish,13 or older,"no, only English or Spanish",no,2025-07-23_20h35.18.028,empathy_intonation_perc_control,2024.2.4,MacIntel,112.3595506,6695a62c614f900eb86de512,68817205a84113384fffdfe3,68817f9d84c4d75bc1fc03fc,,,,,,,,,,,,,0,,,,,,,,,,,,,,,,,,,,,,,,,,,,,,,,,,,,,4,batillón,,,,,411.3343,412.6899,1,0,0.8363,,0,73,73,3,1,REAL,FAKE,,,,,,,,,,,,,,,,,
,,,,,,,,,6695a62c614f900eb86de512,Spanish,13 or older,"no, only English or Spanish",no,2025-07-23_20h35.18.028,empathy_intonation_perc_control,2024.2.4,MacIntel,112.3595506,6695a62c614f900eb86de512,68817205a84113384fffdfe3,68817f9d84c4d75bc1fc03fc,,,,,,,,,,,,,1,,,,,,,,,,,,,,,,,,,,,,,,,,,,,,,,,,,,,11,cenefa,,,,,412.6909,414.3564,0,0,1.1529,,0,74,74,10,1,REAL,FAKE,,,,,,,,,,,,,,,,,
,,,,,,,,,6695a62c614f900eb86de512,Spanish,13 or older,"no, only English or Spanish",no,2025-07-23_20h35.18.028,empathy_intonation_perc_control,2024.2.4,MacIntel,112.3595506,6695a62c614f900eb86de512,68817205a84113384fffdfe3,68817f9d84c4d75bc1fc03fc,,,,,,,,,,,,,1,,,,,,,,,,,,,,,,,,,,,,,,,,,,,,,,,,,,,5,zapato,,,,,414.3575,415.7571,1,1,0.893,,0,75,75,4,1,REAL,FAKE,,,,,,,,,,,,,,,,,
,,,,,,,,,6695a62c614f900eb86de512,Spanish,13 or older,"no, only English or Spanish",no,2025-07-23_20h35.18.028,empathy_intonation_perc_control,2024.2.4,MacIntel,112.3595506,6695a62c614f900eb86de512,68817205a84113384fffdfe3,68817f9d84c4d75bc1fc03fc,,,,,,,,,,,,,1,,,,,,,,,,,,,,,,,,,,,,,,,,,,,,,,,,,,,86,barato,,,,,415.7581,417.407,1,1,1.124,,0,76,76,85,1,REAL,FAKE,,,,,,,,,,,,,,,,,
,,,,,,,,,6695a62c614f900eb86de512,Spanish,13 or older,"no, only English or Spanish",no,2025-07-23_20h35.18.028,empathy_intonation_perc_control,2024.2.4,MacIntel,112.3595506,6695a62c614f900eb86de512,68817205a84113384fffdfe3,68817f9d84c4d75bc1fc03fc,,,,,,,,,,,,,1,,,,,,,,,,,,,,,,,,,,,,,,,,,,,,,,,,,,,73,hervidor,,,,,417.4077,418.7478,0,0,0.8178,,0,77,77,72,1,REAL,FAKE,,,,,,,,,,,,,,,,,
,,,,,,,,,6695a62c614f900eb86de512,Spanish,13 or older,"no, only English or Spanish",no,2025-07-23_20h35.18.028,empathy_intonation_perc_control,2024.2.4,MacIntel,112.3595506,6695a62c614f900eb86de512,68817205a84113384fffdfe3,68817f9d84c4d75bc1fc03fc,,,,,,,,,,,,,1,,,,,,,,,,,,,,,,,,,,,,,,,,,,,,,,,,,,,52,camisa,,,,,418.7489,420.248,1,1,0.9878,,0,78,78,51,1,REAL,FAKE,,,,,,,,,,,,,,,,,
,,,,,,,,,6695a62c614f900eb86de512,Spanish,13 or older,"no, only English or Spanish",no,2025-07-23_20h35.18.028,empathy_intonation_perc_control,2024.2.4,MacIntel,112.3595506,6695a62c614f900eb86de512,68817205a84113384fffdfe3,68817f9d84c4d75bc1fc03fc,,,,,,,,,,,,,1,,,,,,,,,,,,,,,,,,,,,,,,,,,,,,,,,,,,,25,bisagra,,,,,420.2488,421.5485,0,0,0.7851,,0,79,79,24,1,REAL,FAKE,,,,,,,,,,,,,,,,,
,,,,,,,,,6695a62c614f900eb86de512,Spanish,13 or older,"no, only English or Spanish",no,2025-07-23_20h35.18.028,empathy_intonation_perc_control,2024.2.4,MacIntel,112.3595506,6695a62c614f900eb86de512,68817205a84113384fffdfe3,68817f9d84c4d75bc1fc03fc,,,,,,,,,,,,,1,,,,,,,,,,,,,,,,,,,,,,,,,,,,,,,,,,,,,24,látigo,,,,,421.5492,422.7237,1,1,0.6593,,0,80,80,23,1,REAL,FAKE,,,,,,,,,,,,,,,,,
,,,,,,,,,6695a62c614f900eb86de512,Spanish,13 or older,"no, only English or Spanish",no,2025-07-23_20h35.18.028,empathy_intonation_perc_control,2024.2.4,MacIntel,112.3595506,6695a62c614f900eb86de512,68817205a84113384fffdfe3,68817f9d84c4d75bc1fc03fc,,,,,,,,,,,,,1,,,,,,,,,,,,,,,,,,,,,,,,,,,,,,,,,,,,,28,merodear,,,,,422.7248,424.4368,0,0,1.189,,0,81,81,27,1,REAL,FAKE,,,,,,,,,,,,,,,,,
,,,,,,,,,6695a62c614f900eb86de512,Spanish,13 or older,"no, only English or Spanish",no,2025-07-23_20h35.18.028,empathy_intonation_perc_control,2024.2.4,MacIntel,112.3595506,6695a62c614f900eb86de512,68817205a84113384fffdfe3,68817f9d84c4d75bc1fc03fc,,,,,,,,,,,,,0,,,,,,,,,,,,,,,,,,,,,,,,,,,,,,,,,,,,,23,lampera,,,,,424.4388,425.8354,1,0,0.8787,,0,82,82,22,1,REAL,FAKE,,,,,,,,,,,,,,,,,
,,,,,,,,,6695a62c614f900eb86de512,Spanish,13 or older,"no, only English or Spanish",no,2025-07-23_20h35.18.028,empathy_intonation_perc_control,2024.2.4,MacIntel,112.3595506,6695a62c614f900eb86de512,68817205a84113384fffdfe3,68817f9d84c4d75bc1fc03fc,,,,,,,,,,,,,1,,,,,,,,,,,,,,,,,,,,,,,,,,,,,,,,,,,,,38,estornudar,,,,,425.8363,427.1866,0,0,0.8337,,0,83,83,37,1,REAL,FAKE,,,,,,,,,,,,,,,,,
,,,,,,,,,6695a62c614f900eb86de512,Spanish,13 or older,"no, only English or Spanish",no,2025-07-23_20h35.18.028,empathy_intonation_perc_control,2024.2.4,MacIntel,112.3595506,6695a62c614f900eb86de512,68817205a84113384fffdfe3,68817f9d84c4d75bc1fc03fc,,,,,,,,,,,,,1,,,,,,,,,,,,,,,,,,,,,,,,,,,,,,,,,,,,,2,pellizcar,,,,,427.1884,428.3522,1,1,0.6475,,0,84,84,1,1,REAL,FAKE,,,,,,,,,,,,,,,,,
,,,,,,,,,6695a62c614f900eb86de512,Spanish,13 or older,"no, only English or Spanish",no,2025-07-23_20h35.18.028,empathy_intonation_perc_control,2024.2.4,MacIntel,112.3595506,6695a62c614f900eb86de512,68817205a84113384fffdfe3,68817f9d84c4d75bc1fc03fc,,,,,,,,,,,,,0,,,,,,,,,,,,,,,,,,,,,,,,,,,,,,,,,,,,,17,floroso,,,,,428.3531,429.7111,0,1,0.8507,,0,85,85,16,1,REAL,FAKE,,,,,,,,,,,,,,,,,
,,,,,,,,,6695a62c614f900eb86de512,Spanish,13 or older,"no, only English or Spanish",no,2025-07-23_20h35.18.028,empathy_intonation_perc_control,2024.2.4,MacIntel,112.3595506,6695a62c614f900eb86de512,68817205a84113384fffdfe3,68817f9d84c4d75bc1fc03fc,,,,,,,,,,,,,1,,,,,,,,,,,,,,,,,,,,,,,,,,,,,,,,,,,,,3,pulmones,,,,,429.712,431.0943,1,1,0.8581,,0,86,86,2,1,REAL,FAKE,,,,,,,,,,,,,,,,,
,,,,,,,,,6695a62c614f900eb86de512,Spanish,13 or older,"no, only English or Spanish",no,2025-07-23_20h35.18.028,empathy_intonation_perc_control,2024.2.4,MacIntel,112.3595506,6695a62c614f900eb86de512,68817205a84113384fffdfe3,68817f9d84c4d75bc1fc03fc,,,,,,,,,,,,,1,,,,,,,,,,,,,,,,,,,,,,,,,,,,,,,,,,,,,62,flaco,,,,,431.0951,432.7821,1,1,1.1655,,0,87,87,61,1,REAL,FAKE,,,,,,,,,,,,,,,,,
,,,,,,,,,6695a62c614f900eb86de512,Spanish,13 or older,"no, only English or Spanish",no,2025-07-23_20h35.18.028,empathy_intonation_perc_control,2024.2.4,MacIntel,112.3595506,6695a62c614f900eb86de512,68817205a84113384fffdfe3,68817f9d84c4d75bc1fc03fc,,,,,,,,,,,,,0,,,,,,,,,,,,,,,,,,,,,,,,,,,,,,,,,,,,,87,grodo,,,,,432.783,434.2478,1,0,0.948,,0,88,88,86,1,REAL,FAKE,,,,,,,,,,,,,,,,,
,,,,,,,,,6695a62c614f900eb86de512,Spanish,13 or older,"no, only English or Spanish",no,2025-07-23_20h35.18.028,empathy_intonation_perc_control,2024.2.4,MacIntel,112.3595506,6695a62c614f900eb86de512,68817205a84113384fffdfe3,68817f9d84c4d75bc1fc03fc,,,,,,,,,,,,,1,,,,,,,,,,,,,,,,,,,,,,,,,,,,,,,,,,,,,39,torpe,,,,,434.2489,436.8734,1,1,2.1026,,0,89,89,38,1,REAL,FAKE,,,,,,,,,,,,,,,,,
,,,,,,,,,6695a62c614f900eb86de512,Spanish,13 or older,"no, only English or Spanish",no,2025-07-23_20h35.18.028,empathy_intonation_perc_control,2024.2.4,MacIntel,112.3595506,6695a62c614f900eb86de512,68817205a84113384fffdfe3,68817f9d84c4d75bc1fc03fc,,,,,,,,,,,,,1,,,,,,,,,,,,,,,,,,,,,,,,,,,,,,,,,,,,,65,bizcocho,,,,,436.8745,438.066,0,0,0.6729,,0,90,90,64,1,REAL,FAKE,,,,,,,,,,,,,,,,,
,,,,,,,,,6695a62c614f900eb86de512,Spanish,13 or older,"no, only English or Spanish",no,2025-07-23_20h35.18.028,empathy_intonation_perc_control,2024.2.4,MacIntel,112.3595506,6695a62c614f900eb86de512,68817205a84113384fffdfe3,68817f9d84c4d75bc1fc03fc,,,,,,,,,,,,,1,,,,,,,,,,,,,,,,,,,,,,,,,,,,,,,,,,,,,77,tiburón,,,,,438.0673,439.4237,0,0,0.8381,,0,91,91,76,1,REAL,FAKE,,,,,,,,,,,,,,,,,
,,,,,,,,,6695a62c614f900eb86de512,Spanish,13 or older,"no, only English or Spanish",no,2025-07-23_20h35.18.028,empathy_intonation_perc_control,2024.2.4,MacIntel,112.3595506,6695a62c614f900eb86de512,68817205a84113384fffdfe3,68817f9d84c4d75bc1fc03fc,,,,,,,,,,,,,,,,,,,,,,,,,,,,,,,,,,,,,,,,,,,,,,,,,,,,,,,,,,,,,,,,,,,,,439.424,446.8658,,,,,,,,,,,,,,,
,,,,,,,,,6695a62c614f900eb86de512,Spanish,13 or older,"no, only English or Spanish",no,2025-07-23_20h35.18.028,empathy_intonation_perc_control,2024.2.4,MacIntel,112.3595506,6695a62c614f900eb86de512,68817205a84113384fffdfe3,68817f9d84c4d75bc1fc03fc,,,,,,,,,,,,,,,,,,,,,,,,,,,1,,,,,,,,,,,,,,,,,,,,,,,,,,,,,,,,,,,,,,,,,,,,446.8712,452.0863,slightly agree,0,0,0,0,1,I can easily tell if someone else wants to enter a conversation.,1,0,1,0,,
,,,,,,,,,6695a62c614f900eb86de512,Spanish,13 or older,"no, only English or Spanish",no,2025-07-23_20h35.18.028,empathy_intonation_perc_control,2024.2.4,MacIntel,112.3595506,6695a62c614f900eb86de512,68817205a84113384fffdfe3,68817f9d84c4d75bc1fc03fc,,,,,,,,,,,,,,,,,,,,,,,,,,,2,,,,,,,,,,,,,,,,,,,,,,,,,,,,,,,,,,,,,,,,,,,,452.087,455.0291,strongly disagree,0,1,1,1,1,I prefer animals to humans.,0,1,0,0,,
,,,,,,,,,6695a62c614f900eb86de512,Spanish,13 or older,"no, only English or Spanish",no,2025-07-23_20h35.18.028,empathy_intonation_perc_control,2024.2.4,MacIntel,112.3595506,6695a62c614f900eb86de512,68817205a84113384fffdfe3,68817f9d84c4d75bc1fc03fc,,,,,,,,,,,,,,,,,,,,,,,,,,,3,,,,,,,,,,,,,,,,,,,,,,,,,,,,,,,,,,,,,,,,,,,,455.0302,458.0936,slightly disagree,0,2,2,2,1,I try to keep up with the current trends and fashions.,0,1,0,0,,
,,,,,,,,,6695a62c614f900eb86de512,Spanish,13 or older,"no, only English or Spanish",no,2025-07-23_20h35.18.028,empathy_intonation_perc_control,2024.2.4,MacIntel,112.3595506,6695a62c614f900eb86de512,68817205a84113384fffdfe3,68817f9d84c4d75bc1fc03fc,,,,,,,,,,,,,,,,,,,,,,,,,,,4,,,,,,,,,,,,,,,,,,,,,,,,,,,,,,,,,,,,,,,,,,,,458.0948,464.1362,slightly agree,0,3,3,3,1,"I find it difficult to explain to others things that I understand easily,   when they don't understand it first time.",1,0,0,1,,
,,,,,,,,,6695a62c614f900eb86de512,Spanish,13 or older,"no, only English or Spanish",no,2025-07-23_20h35.18.028,empathy_intonation_perc_control,2024.2.4,MacIntel,112.3595506,6695a62c614f900eb86de512,68817205a84113384fffdfe3,68817f9d84c4d75bc1fc03fc,,,,,,,,,,,,,,,,,,,,,,,,,,,5,,,,,,,,,,,,,,,,,,,,,,,,,,,,,,,,,,,,,,,,,,,,464.1375,466.4957,slightly disagree,0,4,4,4,1,I dream most nights.,0,1,0,0,,
,,,,,,,,,6695a62c614f900eb86de512,Spanish,13 or older,"no, only English or Spanish",no,2025-07-23_20h35.18.028,empathy_intonation_perc_control,2024.2.4,MacIntel,112.3595506,6695a62c614f900eb86de512,68817205a84113384fffdfe3,68817f9d84c4d75bc1fc03fc,,,,,,,,,,,,,,,,,,,,,,,,,,,6,,,,,,,,,,,,,,,,,,,,,,,,,,,,,,,,,,,,,,,,,,,,466.4965,468.8696,slightly agree,0,5,5,5,1,I really enjoy caring for other people.,1,0,1,0,,
,,,,,,,,,6695a62c614f900eb86de512,Spanish,13 or older,"no, only English or Spanish",no,2025-07-23_20h35.18.028,empathy_intonation_perc_control,2024.2.4,MacIntel,112.3595506,6695a62c614f900eb86de512,68817205a84113384fffdfe3,68817f9d84c4d75bc1fc03fc,,,,,,,,,,,,,,,,,,,,,,,,,,,7,,,,,,,,,,,,,,,,,,,,,,,,,,,,,,,,,,,,,,,,,,,,468.8704,473.4112,slightly agree,0,6,6,6,1,I try to solve my own problems rather than discussing them with others.,0,1,0,0,,
,,,,,,,,,6695a62c614f900eb86de512,Spanish,13 or older,"no, only English or Spanish",no,2025-07-23_20h35.18.028,empathy_intonation_perc_control,2024.2.4,MacIntel,112.3595506,6695a62c614f900eb86de512,68817205a84113384fffdfe3,68817f9d84c4d75bc1fc03fc,,,,,,,,,,,,,,,,,,,,,,,,,,,8,,,,,,,,,,,,,,,,,,,,,,,,,,,,,,,,,,,,,,,,,,,,473.4123,475.0199,slightly agree,0,7,7,7,1,I find it hard to know what to do in a social situation.,1,0,0,1,,
,,,,,,,,,6695a62c614f900eb86de512,Spanish,13 or older,"no, only English or Spanish",no,2025-07-23_20h35.18.028,empathy_intonation_perc_control,2024.2.4,MacIntel,112.3595506,6695a62c614f900eb86de512,68817205a84113384fffdfe3,68817f9d84c4d75bc1fc03fc,,,,,,,,,,,,,,,,,,,,,,,,,,,9,,,,,,,,,,,,,,,,,,,,,,,,,,,,,,,,,,,,,,,,,,,,475.0223,478.4195,slightly disagree,0,8,8,8,1,I am at my best first thing in the morning.,0,1,0,0,,
,,,,,,,,,6695a62c614f900eb86de512,Spanish,13 or older,"no, only English or Spanish",no,2025-07-23_20h35.18.028,empathy_intonation_perc_control,2024.2.4,MacIntel,112.3595506,6695a62c614f900eb86de512,68817205a84113384fffdfe3,68817f9d84c4d75bc1fc03fc,,,,,,,,,,,,,,,,,,,,,,,,,,,10,,,,,,,,,,,,,,,,,,,,,,,,,,,,,,,,,,,,,,,,,,,,478.421,481.8117,slightly agree,0,9,9,9,1,People often tell me that I went too far in driving my point home in a discussion.,1,0,0,1,,
,,,,,,,,,6695a62c614f900eb86de512,Spanish,13 or older,"no, only English or Spanish",no,2025-07-23_20h35.18.028,empathy_intonation_perc_control,2024.2.4,MacIntel,112.3595506,6695a62c614f900eb86de512,68817205a84113384fffdfe3,68817f9d84c4d75bc1fc03fc,,,,,,,,,,,,,,,,,,,,,,,,,,,11,,,,,,,,,,,,,,,,,,,,,,,,,,,,,,,,,,,,,,,,,,,,481.8128,483.8108,slightly disagree,0,10,10,10,1,It doesn't bother me too much if I am late meeting a friend.,1,0,0,1,,
,,,,,,,,,6695a62c614f900eb86de512,Spanish,13 or older,"no, only English or Spanish",no,2025-07-23_20h35.18.028,empathy_intonation_perc_control,2024.2.4,MacIntel,112.3595506,6695a62c614f900eb86de512,68817205a84113384fffdfe3,68817f9d84c4d75bc1fc03fc,,,,,,,,,,,,,,,,,,,,,,,,,,,12,,,,,,,,,,,,,,,,,,,,,,,,,,,,,,,,,,,,,,,,,,,,483.8121,487.1609,slightly disagree,0,11,11,11,1,"Friendships and relationships are just too difficult, so I tend not to 
  bother with them.",1,0,0,1,,
,,,,,,,,,6695a62c614f900eb86de512,Spanish,13 or older,"no, only English or Spanish",no,2025-07-23_20h35.18.028,empathy_intonation_perc_control,2024.2.4,MacIntel,112.3595506,6695a62c614f900eb86de512,68817205a84113384fffdfe3,68817f9d84c4d75bc1fc03fc,,,,,,,,,,,,,,,,,,,,,,,,,,,13,,,,,,,,,,,,,,,,,,,,,,,,,,,,,,,,,,,,,,,,,,,,487.162,491.0194,slightly agree,0,12,12,12,1,"I would never break a law, no matter how minor.",0,1,0,0,,
,,,,,,,,,6695a62c614f900eb86de512,Spanish,13 or older,"no, only English or Spanish",no,2025-07-23_20h35.18.028,empathy_intonation_perc_control,2024.2.4,MacIntel,112.3595506,6695a62c614f900eb86de512,68817205a84113384fffdfe3,68817f9d84c4d75bc1fc03fc,,,,,,,,,,,,,,,,,,,,,,,,,,,14,,,,,,,,,,,,,,,,,,,,,,,,,,,,,,,,,,,,,,,,,,,,491.0205,495.8861,slightly disagree,0,13,13,13,1,I often find it difficult to judge if something is rude or polite.,1,0,0,1,,
,,,,,,,,,6695a62c614f900eb86de512,Spanish,13 or older,"no, only English or Spanish",no,2025-07-23_20h35.18.028,empathy_intonation_perc_control,2024.2.4,MacIntel,112.3595506,6695a62c614f900eb86de512,68817205a84113384fffdfe3,68817f9d84c4d75bc1fc03fc,,,,,,,,,,,,,,,,,,,,,,,,,,,15,,,,,,,,,,,,,,,,,,,,,,,,,,,,,,,,,,,,,,,,,,,,495.8871,499.5531,slightly disagree,0,14,14,14,1,"In a conversation, I tend to focus on my own thoughts rather than on what 
  my listener might be thinking.",1,0,0,1,,
,,,,,,,,,6695a62c614f900eb86de512,Spanish,13 or older,"no, only English or Spanish",no,2025-07-23_20h35.18.028,empathy_intonation_perc_control,2024.2.4,MacIntel,112.3595506,6695a62c614f900eb86de512,68817205a84113384fffdfe3,68817f9d84c4d75bc1fc03fc,,,,,,,,,,,,,,,,,,,,,,,,,,,16,,,,,,,,,,,,,,,,,,,,,,,,,,,,,,,,,,,,,,,,,,,,499.5539,502.3151,slightly disagree,0,15,15,15,1,I prefer practical jokes to verbal humor.,0,1,0,0,,
,,,,,,,,,6695a62c614f900eb86de512,Spanish,13 or older,"no, only English or Spanish",no,2025-07-23_20h35.18.028,empathy_intonation_perc_control,2024.2.4,MacIntel,112.3595506,6695a62c614f900eb86de512,68817205a84113384fffdfe3,68817f9d84c4d75bc1fc03fc,,,,,,,,,,,,,,,,,,,,,,,,,,,17,,,,,,,,,,,,,,,,,,,,,,,,,,,,,,,,,,,,,,,,,,,,502.3162,507.8903,slightly agree,0,16,16,16,1,I live life for today rather than the future.,0,1,0,0,,
,,,,,,,,,6695a62c614f900eb86de512,Spanish,13 or older,"no, only English or Spanish",no,2025-07-23_20h35.18.028,empathy_intonation_perc_control,2024.2.4,MacIntel,112.3595506,6695a62c614f900eb86de512,68817205a84113384fffdfe3,68817f9d84c4d75bc1fc03fc,,,,,,,,,,,,,,,,,,,,,,,,,,,18,,,,,,,,,,,,,,,,,,,,,,,,,,,,,,,,,,,,,,,,,,,,507.8915,512.5568,slightly disagree,0,17,17,17,1,"When I was a child, I enjoyed cutting up worms to see what would happen.",1,0,0,1,,
,,,,,,,,,6695a62c614f900eb86de512,Spanish,13 or older,"no, only English or Spanish",no,2025-07-23_20h35.18.028,empathy_intonation_perc_control,2024.2.4,MacIntel,112.3595506,6695a62c614f900eb86de512,68817205a84113384fffdfe3,68817f9d84c4d75bc1fc03fc,,,,,,,,,,,,,,,,,,,,,,,,,,,19,,,,,,,,,,,,,,,,,,,,,,,,,,,,,,,,,,,,,,,,,,,,512.559,515.436,slightly disagree,0,18,18,18,1,I can pick up quickly if someone says one thing but means another.,1,0,1,0,,
,,,,,,,,,6695a62c614f900eb86de512,Spanish,13 or older,"no, only English or Spanish",no,2025-07-23_20h35.18.028,empathy_intonation_perc_control,2024.2.4,MacIntel,112.3595506,6695a62c614f900eb86de512,68817205a84113384fffdfe3,68817f9d84c4d75bc1fc03fc,,,,,,,,,,,,,,,,,,,,,,,,,,,20,,,,,,,,,,,,,,,,,,,,,,,,,,,,,,,,,,,,,,,,,,,,515.4373,518.1198,slightly disagree,0,19,19,19,1,I tend to have very strong opinions about morality.,0,1,0,0,,
,,,,,,,,,6695a62c614f900eb86de512,Spanish,13 or older,"no, only English or Spanish",no,2025-07-23_20h35.18.028,empathy_intonation_perc_control,2024.2.4,MacIntel,112.3595506,6695a62c614f900eb86de512,68817205a84113384fffdfe3,68817f9d84c4d75bc1fc03fc,,,,,,,,,,,,,,,,,,,,,,,,,,,21,,,,,,,,,,,,,,,,,,,,,,,,,,,,,,,,,,,,,,,,,,,,518.1213,520.1186,slightly agree,0,20,20,20,1,It is hard for me to see why some things upset people so much.,1,0,0,1,,
,,,,,,,,,6695a62c614f900eb86de512,Spanish,13 or older,"no, only English or Spanish",no,2025-07-23_20h35.18.028,empathy_intonation_perc_control,2024.2.4,MacIntel,112.3595506,6695a62c614f900eb86de512,68817205a84113384fffdfe3,68817f9d84c4d75bc1fc03fc,,,,,,,,,,,,,,,,,,,,,,,,,,,22,,,,,,,,,,,,,,,,,,,,,,,,,,,,,,,,,,,,,,,,,,,,520.1197,522.5945,slightly agree,0,21,21,21,1,I find it easy to put myself in somebody else's shoes.,1,0,1,0,,
,,,,,,,,,6695a62c614f900eb86de512,Spanish,13 or older,"no, only English or Spanish",no,2025-07-23_20h35.18.028,empathy_intonation_perc_control,2024.2.4,MacIntel,112.3595506,6695a62c614f900eb86de512,68817205a84113384fffdfe3,68817f9d84c4d75bc1fc03fc,,,,,,,,,,,,,,,,,,,,,,,,,,,23,,,,,,,,,,,,,,,,,,,,,,,,,,,,,,,,,,,,,,,,,,,,522.5953,525.4113,slightly agree,0,22,22,22,1,I think that good manners are the most important thing a parent can teach their child.,0,1,0,0,,
