instructions_2afc.started,instructions_2afc.stopped,instructions_2afc_loop.thisRepN,instructions_2afc_loop.thisTrialN,instructions_2afc_loop.thisN,instructions_2afc_loop.thisIndex,instructions_2afc_loop.ran,instructions_text,continue_text,participant_id,"What variety of Spanish are you most familiar with? (e.g., Peruvian, Spanish, Mexican)",At what age did you begin learning Spanish?,Are you proficient in any languages other than English/Spanish?,"Are you familiar with Caribbean (e.g., Caribbean, Puerto Rican) or Galician Spanish?",date,expName,psychopyVersion,OS,frameRate,id,study_id,session,practice_2afc.started,practice_2afc.stopped,key_resp_2afc_practice.keys,key_resp_2afc_practice.corr,key_resp_2afc_practice.rt,key_resp_2afc_practice.duration,trials_2afc_practice_loop.thisRepN,trials_2afc_practice_loop.thisTrialN,trials_2afc_practice_loop.thisN,trials_2afc_practice_loop.thisIndex,trials_2afc_practice_loop.ran,path,correct_response,check_2afc.started,check_2afc.stopped,trial_2afc.started,trial_2afc.stopped,key_resp_2afc_trial.keys,key_resp_2afc_trial.corr,key_resp_2afc_trial.rt,key_resp_2afc_trial.duration,trials_2afc_loop.thisRepN,trials_2afc_loop.thisTrialN,trials_2afc_loop.thisN,trials_2afc_loop.thisIndex,trials_2afc_loop.ran,item_num,target,variety,instructions_lextale.started,instructions_lextale.stopped,instructions_lextale_loop.thisRepN,instructions_lextale_loop.thisTrialN,instructions_lextale_loop.thisN,instructions_lextale_loop.thisIndex,instructions_lextale_loop.ran,practice_lextale.started,practice_lextale.stopped,key_resp_lextale_practice.keys,key_resp_lextale_practice.corr,key_resp_lextale_practice.rt,key_resp_lextale_practice.duration,practice_feedback_lextale.started,practice_feedback_lextale.stopped,trials_lextale_practice_loop.thisRepN,trials_lextale_practice_loop.thisTrialN,trials_lextale_practice_loop.thisN,trials_lextale_practice_loop.thisIndex,trials_lextale_practice_loop.ran,stim,word,prac_button_real,prac_button_false,check_lextale.started,check_lextale.stopped,trial_lextale.started,trial_lextale.stopped,key_resp_lextale_trial.keys,key_resp_lextale_trial.corr,key_resp_lextale_trial.rt,key_resp_lextale_trial.duration,trials_lextale_loop.thisRepN,trials_lextale_loop.thisTrialN,trials_lextale_loop.thisN,trials_lextale_loop.thisIndex,trials_lextale_loop.ran,button_real,button_false,instructions_eq.started,instructions_eq.stopped,trial_eq.started,trial_eq.stopped,slider_eq_trial.response,trials_eq_loop.thisRepN,trials_eq_loop.thisTrialN,trials_eq_loop.thisN,trials_eq_loop.thisIndex,trials_eq_loop.ran,item,is_test_item,is_distractor,is_agree_score,is_disagree_score,end_exp.started,end_exp.stopped
0.0126,2.0572,0,0,0,0,1,"In the following task you are going to hear a series of utterances. 

  You will decide if the utterances sound like questions or not using your keyboard.", (press the spacebar to continue),669e7b8d49d69303f41baed1,spanish,13 or older,"no, only English or Spanish",yes,2025-08-12_14h42.32.179,empathy_intonation_perc_control,2024.2.4,Win32,59.88023952,669e7b8d49d69303f41baed1,68817205a84113384fffdfe3,689b8afe70fca76d4d448898,,,,,,,,,,,,,,,,,,,,,,,,,,,,,,,,,,,,,,,,,,,,,,,,,,,,,,,,,,,,,,,,,,,,,,,,,,,,,,,,,,,,,
2.0588,7.1281,0,1,1,1,1,"If you believe the utterance is a question, type '1' (for 'yes') and if you do not 
  believe it is a question type '0' (for 'no').

  Let's practice a bit...", (press the spacebar to continue),669e7b8d49d69303f41baed1,spanish,13 or older,"no, only English or Spanish",yes,2025-08-12_14h42.32.179,empathy_intonation_perc_control,2024.2.4,Win32,59.88023952,669e7b8d49d69303f41baed1,68817205a84113384fffdfe3,689b8afe70fca76d4d448898,,,,,,,,,,,,,,,,,,,,,,,,,,,,,,,,,,,,,,,,,,,,,,,,,,,,,,,,,,,,,,,,,,,,,,,,,,,,,,,,,,,,,
,,,,,,,,,669e7b8d49d69303f41baed1,spanish,13 or older,"no, only English or Spanish",yes,2025-08-12_14h42.32.179,empathy_intonation_perc_control,2024.2.4,Win32,59.88023952,669e7b8d49d69303f41baed1,68817205a84113384fffdfe3,689b8afe70fca76d4d448898,7.136,10.6309,0,1,2.9748,,0,0,0,5,1,./stim/wavs/andalusian_statement_filler_Alberto-nunca-se-afeita.wav,0,,,,,,,,,,,,,,,,,,,,,,,,,,,,,,,,,,,,,,,,,,,,,,,,,,,,,,,,,,,,,,,,,,,,,,,,
,,,,,,,,,669e7b8d49d69303f41baed1,spanish,13 or older,"no, only English or Spanish",yes,2025-08-12_14h42.32.179,empathy_intonation_perc_control,2024.2.4,Win32,59.88023952,669e7b8d49d69303f41baed1,68817205a84113384fffdfe3,689b8afe70fca76d4d448898,10.6317,16.519,1,0,5.3579,,0,1,1,4,1,./stim/wavs/cuban_statement_filler_Cocinabas-por-la-noche.wav,0,,,,,,,,,,,,,,,,,,,,,,,,,,,,,,,,,,,,,,,,,,,,,,,,,,,,,,,,,,,,,,,,,,,,,,,,
,,,,,,,,,669e7b8d49d69303f41baed1,spanish,13 or older,"no, only English or Spanish",yes,2025-08-12_14h42.32.179,empathy_intonation_perc_control,2024.2.4,Win32,59.88023952,669e7b8d49d69303f41baed1,68817205a84113384fffdfe3,689b8afe70fca76d4d448898,16.5196,20.7391,0,0,3.6859,,0,2,2,1,1,./stim/wavs/argentine_question_filler_Mi-vecino-habla-mucho.wav,1,,,,,,,,,,,,,,,,,,,,,,,,,,,,,,,,,,,,,,,,,,,,,,,,,,,,,,,,,,,,,,,,,,,,,,,,
,,,,,,,,,669e7b8d49d69303f41baed1,spanish,13 or older,"no, only English or Spanish",yes,2025-08-12_14h42.32.179,empathy_intonation_perc_control,2024.2.4,Win32,59.88023952,669e7b8d49d69303f41baed1,68817205a84113384fffdfe3,689b8afe70fca76d4d448898,20.7395,24.9925,1,0,3.7396,,0,3,3,7,1,./stim/wavs/puertorican_statement_filler_La-nina-pinta-con-su-amiga.wav,0,,,,,,,,,,,,,,,,,,,,,,,,,,,,,,,,,,,,,,,,,,,,,,,,,,,,,,,,,,,,,,,,,,,,,,,,
,,,,,,,,,669e7b8d49d69303f41baed1,spanish,13 or older,"no, only English or Spanish",yes,2025-08-12_14h42.32.179,empathy_intonation_perc_control,2024.2.4,Win32,59.88023952,669e7b8d49d69303f41baed1,68817205a84113384fffdfe3,689b8afe70fca76d4d448898,24.9929,29.0959,1,1,3.5828,,0,4,4,0,1,./stim/wavs/castilian_question_filler_Mi-esposo-conoce-al-chico.wav,1,,,,,,,,,,,,,,,,,,,,,,,,,,,,,,,,,,,,,,,,,,,,,,,,,,,,,,,,,,,,,,,,,,,,,,,,
,,,,,,,,,669e7b8d49d69303f41baed1,spanish,13 or older,"no, only English or Spanish",yes,2025-08-12_14h42.32.179,empathy_intonation_perc_control,2024.2.4,Win32,59.88023952,669e7b8d49d69303f41baed1,68817205a84113384fffdfe3,689b8afe70fca76d4d448898,29.0963,32.1983,0,1,2.5931,,0,5,5,6,1,./stim/wavs/peruvian_statement_filler_El-nino-habla-con-su-madre.wav,0,,,,,,,,,,,,,,,,,,,,,,,,,,,,,,,,,,,,,,,,,,,,,,,,,,,,,,,,,,,,,,,,,,,,,,,,
,,,,,,,,,669e7b8d49d69303f41baed1,spanish,13 or older,"no, only English or Spanish",yes,2025-08-12_14h42.32.179,empathy_intonation_perc_control,2024.2.4,Win32,59.88023952,669e7b8d49d69303f41baed1,68817205a84113384fffdfe3,689b8afe70fca76d4d448898,32.1986,34.517,1,1,1.8019,,0,6,6,3,1,./stim/wavs/mexican_question_filler_Felipe-no-tiene-contrasena.wav,1,,,,,,,,,,,,,,,,,,,,,,,,,,,,,,,,,,,,,,,,,,,,,,,,,,,,,,,,,,,,,,,,,,,,,,,,
,,,,,,,,,669e7b8d49d69303f41baed1,spanish,13 or older,"no, only English or Spanish",yes,2025-08-12_14h42.32.179,empathy_intonation_perc_control,2024.2.4,Win32,59.88023952,669e7b8d49d69303f41baed1,68817205a84113384fffdfe3,689b8afe70fca76d4d448898,34.5174,38.8537,0,0,3.817,,0,7,7,2,1,./stim/wavs/chilean_question_filler_Mi-padre-cantaba-bien.wav,1,,,,,,,,,,,,,,,,,,,,,,,,,,,,,,,,,,,,,,,,,,,,,,,,,,,,,,,,,,,,,,,,,,,,,,,,
,,,,,,,,,669e7b8d49d69303f41baed1,spanish,13 or older,"no, only English or Spanish",yes,2025-08-12_14h42.32.179,empathy_intonation_perc_control,2024.2.4,Win32,59.88023952,669e7b8d49d69303f41baed1,68817205a84113384fffdfe3,689b8afe70fca76d4d448898,,,,,,,,,,,,,,38.8539,44.0416,,,,,,,,,,,,,,,,,,,,,,,,,,,,,,,,,,,,,,,,,,,,,,,,,,,,,,,,,,,,,,,,,,,,,,
,,,,,,,,,669e7b8d49d69303f41baed1,spanish,13 or older,"no, only English or Spanish",yes,2025-08-12_14h42.32.179,empathy_intonation_perc_control,2024.2.4,Win32,59.88023952,669e7b8d49d69303f41baed1,68817205a84113384fffdfe3,689b8afe70fca76d4d448898,,,,,,,,,,,,./stim/wavs/puertorican_match_interrogative-total-yn_Daniel-iba-a-Bolivia.wav,1,,,44.0525,47.0441,0,0,2.4665,,0,0,0,19,1,20,1,puertorican,,,,,,,,,,,,,,,,,,,,,,,,,,,,,,,,,,,,,,,,,,,,,,,,,,,,,,,,
,,,,,,,,,669e7b8d49d69303f41baed1,spanish,13 or older,"no, only English or Spanish",yes,2025-08-12_14h42.32.179,empathy_intonation_perc_control,2024.2.4,Win32,59.88023952,669e7b8d49d69303f41baed1,68817205a84113384fffdfe3,689b8afe70fca76d4d448898,,,,,,,,,,,,./stim/wavs/cuban_mismatch_interrogative-total-yn_El-nino-oye-el-rio.wav,1,,,47.0446,49.4793,0,0,1.9138,,0,1,1,30,1,31,1,cuban,,,,,,,,,,,,,,,,,,,,,,,,,,,,,,,,,,,,,,,,,,,,,,,,,,,,,,,,
,,,,,,,,,669e7b8d49d69303f41baed1,spanish,13 or older,"no, only English or Spanish",yes,2025-08-12_14h42.32.179,empathy_intonation_perc_control,2024.2.4,Win32,59.88023952,669e7b8d49d69303f41baed1,68817205a84113384fffdfe3,689b8afe70fca76d4d448898,,,,,,,,,,,,./stim/wavs/castilian_mismatch_interrogative-total-yn_Mi-novio-viene-del-lago.wav,1,,,49.4795,51.7977,1,1,1.8077,,0,2,2,27,1,28,0,castilian,,,,,,,,,,,,,,,,,,,,,,,,,,,,,,,,,,,,,,,,,,,,,,,,,,,,,,,,
,,,,,,,,,669e7b8d49d69303f41baed1,spanish,13 or older,"no, only English or Spanish",yes,2025-08-12_14h42.32.179,empathy_intonation_perc_control,2024.2.4,Win32,59.88023952,669e7b8d49d69303f41baed1,68817205a84113384fffdfe3,689b8afe70fca76d4d448898,,,,,,,,,,,,./stim/wavs/mexican_match_declarative-broad-focus_David-leia-el-libro.wav,0,,,51.798,54.0663,0,1,1.757,,0,3,3,58,1,59,0,mexican,,,,,,,,,,,,,,,,,,,,,,,,,,,,,,,,,,,,,,,,,,,,,,,,,,,,,,,,
,,,,,,,,,669e7b8d49d69303f41baed1,spanish,13 or older,"no, only English or Spanish",yes,2025-08-12_14h42.32.179,empathy_intonation_perc_control,2024.2.4,Win32,59.88023952,669e7b8d49d69303f41baed1,68817205a84113384fffdfe3,689b8afe70fca76d4d448898,,,,,,,,,,,,./stim/wavs/mexican_mismatch_declarative-broad-focus_El-hombre-mira-la-luna.wav,0,,,54.0666,56.3682,0,1,1.7969,,0,4,4,79,1,80,0,mexican,,,,,,,,,,,,,,,,,,,,,,,,,,,,,,,,,,,,,,,,,,,,,,,,,,,,,,,,
,,,,,,,,,669e7b8d49d69303f41baed1,spanish,13 or older,"no, only English or Spanish",yes,2025-08-12_14h42.32.179,empathy_intonation_perc_control,2024.2.4,Win32,59.88023952,669e7b8d49d69303f41baed1,68817205a84113384fffdfe3,689b8afe70fca76d4d448898,,,,,,,,,,,,./stim/wavs/castilian_mismatch_declarative-broad-focus_La-nina-lava-el-plato.wav,0,,,56.3685,58.8369,0,1,1.9501,,0,5,5,70,1,71,0,castilian,,,,,,,,,,,,,,,,,,,,,,,,,,,,,,,,,,,,,,,,,,,,,,,,,,,,,,,,
,,,,,,,,,669e7b8d49d69303f41baed1,spanish,13 or older,"no, only English or Spanish",yes,2025-08-12_14h42.32.179,empathy_intonation_perc_control,2024.2.4,Win32,59.88023952,669e7b8d49d69303f41baed1,68817205a84113384fffdfe3,689b8afe70fca76d4d448898,,,,,,,,,,,,./stim/wavs/castilian_mismatch_declarative-broad-focus_El-nino-oye-el-rio.wav,0,,,58.8373,61.6225,0,1,2.2738,,0,6,6,68,1,69,0,castilian,,,,,,,,,,,,,,,,,,,,,,,,,,,,,,,,,,,,,,,,,,,,,,,,,,,,,,,,
,,,,,,,,,669e7b8d49d69303f41baed1,spanish,13 or older,"no, only English or Spanish",yes,2025-08-12_14h42.32.179,empathy_intonation_perc_control,2024.2.4,Win32,59.88023952,669e7b8d49d69303f41baed1,68817205a84113384fffdfe3,689b8afe70fca76d4d448898,,,,,,,,,,,,./stim/wavs/puertorican_match_interrogative-total-yn_Maria-bebe-el-vino.wav,1,,,61.6227,63.7409,1,1,1.6067,0.0005,0,7,7,23,1,24,1,puertorican,,,,,,,,,,,,,,,,,,,,,,,,,,,,,,,,,,,,,,,,,,,,,,,,,,,,,,,,
,,,,,,,,,669e7b8d49d69303f41baed1,spanish,13 or older,"no, only English or Spanish",yes,2025-08-12_14h42.32.179,empathy_intonation_perc_control,2024.2.4,Win32,59.88023952,669e7b8d49d69303f41baed1,68817205a84113384fffdfe3,689b8afe70fca76d4d448898,,,,,,,,,,,,./stim/wavs/mexican_match_interrogative-total-yn_Marta-abre-el-regalo.wav,1,,,63.7414,66.1429,1,1,1.8956,,0,8,8,17,1,18,0,mexican,,,,,,,,,,,,,,,,,,,,,,,,,,,,,,,,,,,,,,,,,,,,,,,,,,,,,,,,
,,,,,,,,,669e7b8d49d69303f41baed1,spanish,13 or older,"no, only English or Spanish",yes,2025-08-12_14h42.32.179,empathy_intonation_perc_control,2024.2.4,Win32,59.88023952,669e7b8d49d69303f41baed1,68817205a84113384fffdfe3,689b8afe70fca76d4d448898,,,,,,,,,,,,./stim/wavs/puertorican_mismatch_declarative-broad-focus_El-bebe-comia-muy-bien.wav,0,,,66.1434,68.9785,0,1,2.3021,,0,9,9,83,1,84,0,puertorican,,,,,,,,,,,,,,,,,,,,,,,,,,,,,,,,,,,,,,,,,,,,,,,,,,,,,,,,
,,,,,,,,,669e7b8d49d69303f41baed1,spanish,13 or older,"no, only English or Spanish",yes,2025-08-12_14h42.32.179,empathy_intonation_perc_control,2024.2.4,Win32,59.88023952,669e7b8d49d69303f41baed1,68817205a84113384fffdfe3,689b8afe70fca76d4d448898,,,,,,,,,,,,./stim/wavs/cuban_match_declarative-broad-focus_Marta-abre-el-regalo.wav,0,,,68.979,71.464,0,1,1.9663,,0,10,10,55,1,56,0,cuban,,,,,,,,,,,,,,,,,,,,,,,,,,,,,,,,,,,,,,,,,,,,,,,,,,,,,,,,
,,,,,,,,,669e7b8d49d69303f41baed1,spanish,13 or older,"no, only English or Spanish",yes,2025-08-12_14h42.32.179,empathy_intonation_perc_control,2024.2.4,Win32,59.88023952,669e7b8d49d69303f41baed1,68817205a84113384fffdfe3,689b8afe70fca76d4d448898,,,,,,,,,,,,./stim/wavs/puertorican_match_declarative-broad-focus_David-leia-el-libro.wav,0,,,71.4645,73.8324,0,1,1.848,,0,11,11,64,1,65,0,puertorican,,,,,,,,,,,,,,,,,,,,,,,,,,,,,,,,,,,,,,,,,,,,,,,,,,,,,,,,
,,,,,,,,,669e7b8d49d69303f41baed1,spanish,13 or older,"no, only English or Spanish",yes,2025-08-12_14h42.32.179,empathy_intonation_perc_control,2024.2.4,Win32,59.88023952,669e7b8d49d69303f41baed1,68817205a84113384fffdfe3,689b8afe70fca76d4d448898,,,,,,,,,,,,./stim/wavs/puertorican_mismatch_interrogative-total-yn_La-nina-lava-el-plato.wav,1,,,73.8326,76.7014,1,1,2.3636,,0,12,12,42,1,43,1,puertorican,,,,,,,,,,,,,,,,,,,,,,,,,,,,,,,,,,,,,,,,,,,,,,,,,,,,,,,,
,,,,,,,,,669e7b8d49d69303f41baed1,spanish,13 or older,"no, only English or Spanish",yes,2025-08-12_14h42.32.179,empathy_intonation_perc_control,2024.2.4,Win32,59.88023952,669e7b8d49d69303f41baed1,68817205a84113384fffdfe3,689b8afe70fca76d4d448898,,,,,,,,,,,,./stim/wavs/puertorican_mismatch_interrogative-total-yn_El-hombre-mira-la-luna.wav,1,,,76.7019,78.8533,1,1,1.6476,,0,13,13,39,1,40,1,puertorican,,,,,,,,,,,,,,,,,,,,,,,,,,,,,,,,,,,,,,,,,,,,,,,,,,,,,,,,
,,,,,,,,,669e7b8d49d69303f41baed1,spanish,13 or older,"no, only English or Spanish",yes,2025-08-12_14h42.32.179,empathy_intonation_perc_control,2024.2.4,Win32,59.88023952,669e7b8d49d69303f41baed1,68817205a84113384fffdfe3,689b8afe70fca76d4d448898,,,,,,,,,,,,./stim/wavs/puertorican_mismatch_declarative-broad-focus_La-maestra-vive-en-Paris.wav,0,,,78.8537,81.6555,0,1,2.2816,,0,14,14,86,1,87,0,puertorican,,,,,,,,,,,,,,,,,,,,,,,,,,,,,,,,,,,,,,,,,,,,,,,,,,,,,,,,
,,,,,,,,,669e7b8d49d69303f41baed1,spanish,13 or older,"no, only English or Spanish",yes,2025-08-12_14h42.32.179,empathy_intonation_perc_control,2024.2.4,Win32,59.88023952,669e7b8d49d69303f41baed1,68817205a84113384fffdfe3,689b8afe70fca76d4d448898,,,,,,,,,,,,./stim/wavs/puertorican_match_declarative-broad-focus_Daniel-iba-a-Bolivia.wav,0,,,81.6558,84.1909,0,1,2.0318,,0,15,15,63,1,64,0,puertorican,,,,,,,,,,,,,,,,,,,,,,,,,,,,,,,,,,,,,,,,,,,,,,,,,,,,,,,,
,,,,,,,,,669e7b8d49d69303f41baed1,spanish,13 or older,"no, only English or Spanish",yes,2025-08-12_14h42.32.179,empathy_intonation_perc_control,2024.2.4,Win32,59.88023952,669e7b8d49d69303f41baed1,68817205a84113384fffdfe3,689b8afe70fca76d4d448898,,,,,,,,,,,,./stim/wavs/puertorican_mismatch_declarative-broad-focus_La-nina-lava-el-plato.wav,0,,,84.1912,87.8438,1,0,3.1437,,0,16,16,87,1,88,0,puertorican,,,,,,,,,,,,,,,,,,,,,,,,,,,,,,,,,,,,,,,,,,,,,,,,,,,,,,,,
,,,,,,,,,669e7b8d49d69303f41baed1,spanish,13 or older,"no, only English or Spanish",yes,2025-08-12_14h42.32.179,empathy_intonation_perc_control,2024.2.4,Win32,59.88023952,669e7b8d49d69303f41baed1,68817205a84113384fffdfe3,689b8afe70fca76d4d448898,,,,,,,,,,,,./stim/wavs/castilian_match_interrogative-total-yn_Manuela-vende-el-carro.wav,1,,,87.8442,92.8315,1,1,4.4777,,0,17,17,2,1,3,0,castilian,,,,,,,,,,,,,,,,,,,,,,,,,,,,,,,,,,,,,,,,,,,,,,,,,,,,,,,,
,,,,,,,,,669e7b8d49d69303f41baed1,spanish,13 or older,"no, only English or Spanish",yes,2025-08-12_14h42.32.179,empathy_intonation_perc_control,2024.2.4,Win32,59.88023952,669e7b8d49d69303f41baed1,68817205a84113384fffdfe3,689b8afe70fca76d4d448898,,,,,,,,,,,,./stim/wavs/cuban_mismatch_declarative-broad-focus_El-bebe-comia-muy-bien.wav,0,,,92.8317,95.5336,0,1,2.1909,,0,18,18,73,1,74,0,cuban,,,,,,,,,,,,,,,,,,,,,,,,,,,,,,,,,,,,,,,,,,,,,,,,,,,,,,,,
,,,,,,,,,669e7b8d49d69303f41baed1,spanish,13 or older,"no, only English or Spanish",yes,2025-08-12_14h42.32.179,empathy_intonation_perc_control,2024.2.4,Win32,59.88023952,669e7b8d49d69303f41baed1,68817205a84113384fffdfe3,689b8afe70fca76d4d448898,,,,,,,,,,,,./stim/wavs/mexican_match_interrogative-total-yn_Emilio-ama-la-marcha.wav,1,,,95.534,97.6369,1,1,1.6013,,0,19,19,15,1,16,0,mexican,,,,,,,,,,,,,,,,,,,,,,,,,,,,,,,,,,,,,,,,,,,,,,,,,,,,,,,,
,,,,,,,,,669e7b8d49d69303f41baed1,spanish,13 or older,"no, only English or Spanish",yes,2025-08-12_14h42.32.179,empathy_intonation_perc_control,2024.2.4,Win32,59.88023952,669e7b8d49d69303f41baed1,68817205a84113384fffdfe3,689b8afe70fca76d4d448898,,,,,,,,,,,,./stim/wavs/cuban_mismatch_declarative-broad-focus_Mi-novio-viene-del-lago.wav,0,,,97.6372,100.0372,0,1,1.8806,,0,20,20,76,1,77,0,cuban,,,,,,,,,,,,,,,,,,,,,,,,,,,,,,,,,,,,,,,,,,,,,,,,,,,,,,,,
,,,,,,,,,669e7b8d49d69303f41baed1,spanish,13 or older,"no, only English or Spanish",yes,2025-08-12_14h42.32.179,empathy_intonation_perc_control,2024.2.4,Win32,59.88023952,669e7b8d49d69303f41baed1,68817205a84113384fffdfe3,689b8afe70fca76d4d448898,,,,,,,,,,,,./stim/wavs/castilian_match_interrogative-total-yn_David-leia-el-libro.wav,1,,,100.0376,102.8229,1,1,2.2685,,0,21,21,0,1,1,0,castilian,,,,,,,,,,,,,,,,,,,,,,,,,,,,,,,,,,,,,,,,,,,,,,,,,,,,,,,,
,,,,,,,,,669e7b8d49d69303f41baed1,spanish,13 or older,"no, only English or Spanish",yes,2025-08-12_14h42.32.179,empathy_intonation_perc_control,2024.2.4,Win32,59.88023952,669e7b8d49d69303f41baed1,68817205a84113384fffdfe3,689b8afe70fca76d4d448898,,,,,,,,,,,,./stim/wavs/cuban_match_declarative-broad-focus_Mariano-habla-del-tiempo.wav,0,,,102.8234,105.0914,0,1,1.7464,,0,22,22,54,1,55,0,cuban,,,,,,,,,,,,,,,,,,,,,,,,,,,,,,,,,,,,,,,,,,,,,,,,,,,,,,,,
,,,,,,,,,669e7b8d49d69303f41baed1,spanish,13 or older,"no, only English or Spanish",yes,2025-08-12_14h42.32.179,empathy_intonation_perc_control,2024.2.4,Win32,59.88023952,669e7b8d49d69303f41baed1,68817205a84113384fffdfe3,689b8afe70fca76d4d448898,,,,,,,,,,,,./stim/wavs/mexican_mismatch_interrogative-total-yn_El-nino-oye-el-rio.wav,1,,,105.0918,107.5601,1,1,1.9632,,0,23,23,35,1,36,0,mexican,,,,,,,,,,,,,,,,,,,,,,,,,,,,,,,,,,,,,,,,,,,,,,,,,,,,,,,,
,,,,,,,,,669e7b8d49d69303f41baed1,spanish,13 or older,"no, only English or Spanish",yes,2025-08-12_14h42.32.179,empathy_intonation_perc_control,2024.2.4,Win32,59.88023952,669e7b8d49d69303f41baed1,68817205a84113384fffdfe3,689b8afe70fca76d4d448898,,,,,,,,,,,,./stim/wavs/mexican_match_interrogative-total-yn_Ana-lleva-el-abrigo.wav,1,,,107.5604,109.9954,1,1,1.9259,,0,24,24,12,1,13,0,mexican,,,,,,,,,,,,,,,,,,,,,,,,,,,,,,,,,,,,,,,,,,,,,,,,,,,,,,,,
,,,,,,,,,669e7b8d49d69303f41baed1,spanish,13 or older,"no, only English or Spanish",yes,2025-08-12_14h42.32.179,empathy_intonation_perc_control,2024.2.4,Win32,59.88023952,669e7b8d49d69303f41baed1,68817205a84113384fffdfe3,689b8afe70fca76d4d448898,,,,,,,,,,,,./stim/wavs/cuban_match_interrogative-total-yn_Maria-bebe-el-vino.wav,1,,,109.9957,112.1971,1,1,1.6992,,0,25,25,9,1,10,1,cuban,,,,,,,,,,,,,,,,,,,,,,,,,,,,,,,,,,,,,,,,,,,,,,,,,,,,,,,,
,,,,,,,,,669e7b8d49d69303f41baed1,spanish,13 or older,"no, only English or Spanish",yes,2025-08-12_14h42.32.179,empathy_intonation_perc_control,2024.2.4,Win32,59.88023952,669e7b8d49d69303f41baed1,68817205a84113384fffdfe3,689b8afe70fca76d4d448898,,,,,,,,,,,,./stim/wavs/cuban_mismatch_interrogative-total-yn_El-hombre-mira-la-luna.wav,1,,,112.1974,114.4823,0,0,1.7767,,0,26,26,29,1,30,1,cuban,,,,,,,,,,,,,,,,,,,,,,,,,,,,,,,,,,,,,,,,,,,,,,,,,,,,,,,,
,,,,,,,,,669e7b8d49d69303f41baed1,spanish,13 or older,"no, only English or Spanish",yes,2025-08-12_14h42.32.179,empathy_intonation_perc_control,2024.2.4,Win32,59.88023952,669e7b8d49d69303f41baed1,68817205a84113384fffdfe3,689b8afe70fca76d4d448898,,,,,,,,,,,,./stim/wavs/mexican_mismatch_declarative-broad-focus_El-bebe-comia-muy-bien.wav,0,,,114.4827,116.9853,0,1,1.9943,,0,27,27,78,1,79,0,mexican,,,,,,,,,,,,,,,,,,,,,,,,,,,,,,,,,,,,,,,,,,,,,,,,,,,,,,,,
,,,,,,,,,669e7b8d49d69303f41baed1,spanish,13 or older,"no, only English or Spanish",yes,2025-08-12_14h42.32.179,empathy_intonation_perc_control,2024.2.4,Win32,59.88023952,669e7b8d49d69303f41baed1,68817205a84113384fffdfe3,689b8afe70fca76d4d448898,,,,,,,,,,,,./stim/wavs/castilian_mismatch_declarative-broad-focus_Mi-tia-odia-la-lluvia.wav,0,,,116.9856,119.1697,0,1,1.6538,,0,28,28,72,1,73,0,castilian,,,,,,,,,,,,,,,,,,,,,,,,,,,,,,,,,,,,,,,,,,,,,,,,,,,,,,,,
,,,,,,,,,669e7b8d49d69303f41baed1,spanish,13 or older,"no, only English or Spanish",yes,2025-08-12_14h42.32.179,empathy_intonation_perc_control,2024.2.4,Win32,59.88023952,669e7b8d49d69303f41baed1,68817205a84113384fffdfe3,689b8afe70fca76d4d448898,,,,,,,,,,,,./stim/wavs/castilian_match_declarative-broad-focus_Marta-abre-el-regalo.wav,0,,,119.17,121.438,0,1,1.7549,,0,29,29,49,1,50,0,castilian,,,,,,,,,,,,,,,,,,,,,,,,,,,,,,,,,,,,,,,,,,,,,,,,,,,,,,,,
,,,,,,,,,669e7b8d49d69303f41baed1,spanish,13 or older,"no, only English or Spanish",yes,2025-08-12_14h42.32.179,empathy_intonation_perc_control,2024.2.4,Win32,59.88023952,669e7b8d49d69303f41baed1,68817205a84113384fffdfe3,689b8afe70fca76d4d448898,,,,,,,,,,,,./stim/wavs/mexican_match_declarative-broad-focus_Ana-lleva-el-abrigo.wav,0,,,121.4384,123.5064,0,1,1.5535,,0,30,30,56,1,57,0,mexican,,,,,,,,,,,,,,,,,,,,,,,,,,,,,,,,,,,,,,,,,,,,,,,,,,,,,,,,
,,,,,,,,,669e7b8d49d69303f41baed1,spanish,13 or older,"no, only English or Spanish",yes,2025-08-12_14h42.32.179,empathy_intonation_perc_control,2024.2.4,Win32,59.88023952,669e7b8d49d69303f41baed1,68817205a84113384fffdfe3,689b8afe70fca76d4d448898,,,,,,,,,,,,./stim/wavs/mexican_match_interrogative-total-yn_Mariano-habla-del-tiempo.wav,1,,,123.5067,126.092,1,1,2.0699,,0,31,31,16,1,17,0,mexican,,,,,,,,,,,,,,,,,,,,,,,,,,,,,,,,,,,,,,,,,,,,,,,,,,,,,,,,
,,,,,,,,,669e7b8d49d69303f41baed1,spanish,13 or older,"no, only English or Spanish",yes,2025-08-12_14h42.32.179,empathy_intonation_perc_control,2024.2.4,Win32,59.88023952,669e7b8d49d69303f41baed1,68817205a84113384fffdfe3,689b8afe70fca76d4d448898,,,,,,,,,,,,./stim/wavs/puertorican_match_declarative-broad-focus_Ana-lleva-el-abrigo.wav,0,,,126.0924,128.1935,0,1,1.5857,,0,32,32,62,1,63,0,puertorican,,,,,,,,,,,,,,,,,,,,,,,,,,,,,,,,,,,,,,,,,,,,,,,,,,,,,,,,
,,,,,,,,,669e7b8d49d69303f41baed1,spanish,13 or older,"no, only English or Spanish",yes,2025-08-12_14h42.32.179,empathy_intonation_perc_control,2024.2.4,Win32,59.88023952,669e7b8d49d69303f41baed1,68817205a84113384fffdfe3,689b8afe70fca76d4d448898,,,,,,,,,,,,./stim/wavs/mexican_match_declarative-broad-focus_Mariano-habla-del-tiempo.wav,0,,,128.1939,130.8961,0,1,2.1818,,0,33,33,60,1,61,0,mexican,,,,,,,,,,,,,,,,,,,,,,,,,,,,,,,,,,,,,,,,,,,,,,,,,,,,,,,,
,,,,,,,,,669e7b8d49d69303f41baed1,spanish,13 or older,"no, only English or Spanish",yes,2025-08-12_14h42.32.179,empathy_intonation_perc_control,2024.2.4,Win32,59.88023952,669e7b8d49d69303f41baed1,68817205a84113384fffdfe3,689b8afe70fca76d4d448898,,,,,,,,,,,,./stim/wavs/puertorican_match_declarative-broad-focus_Maria-bebe-el-vino.wav,0,,,130.8965,133.1144,0,1,1.6956,,0,34,34,67,1,68,0,puertorican,,,,,,,,,,,,,,,,,,,,,,,,,,,,,,,,,,,,,,,,,,,,,,,,,,,,,,,,
,,,,,,,,,669e7b8d49d69303f41baed1,spanish,13 or older,"no, only English or Spanish",yes,2025-08-12_14h42.32.179,empathy_intonation_perc_control,2024.2.4,Win32,59.88023952,669e7b8d49d69303f41baed1,68817205a84113384fffdfe3,689b8afe70fca76d4d448898,,,,,,,,,,,,./stim/wavs/castilian_match_declarative-broad-focus_Manuela-vende-el-carro.wav,0,,,133.1147,135.9834,0,1,2.3466,,0,35,35,46,1,47,0,castilian,,,,,,,,,,,,,,,,,,,,,,,,,,,,,,,,,,,,,,,,,,,,,,,,,,,,,,,,
,,,,,,,,,669e7b8d49d69303f41baed1,spanish,13 or older,"no, only English or Spanish",yes,2025-08-12_14h42.32.179,empathy_intonation_perc_control,2024.2.4,Win32,59.88023952,669e7b8d49d69303f41baed1,68817205a84113384fffdfe3,689b8afe70fca76d4d448898,,,,,,,,,,,,./stim/wavs/mexican_match_interrogative-total-yn_Daniel-iba-a-Bolivia.wav,1,,,135.984,138.9022,1,1,2.3982,,0,36,36,13,1,14,0,mexican,,,,,,,,,,,,,,,,,,,,,,,,,,,,,,,,,,,,,,,,,,,,,,,,,,,,,,,,
,,,,,,,,,669e7b8d49d69303f41baed1,spanish,13 or older,"no, only English or Spanish",yes,2025-08-12_14h42.32.179,empathy_intonation_perc_control,2024.2.4,Win32,59.88023952,669e7b8d49d69303f41baed1,68817205a84113384fffdfe3,689b8afe70fca76d4d448898,,,,,,,,,,,,./stim/wavs/mexican_mismatch_interrogative-total-yn_La-maestra-vive-en-Paris.wav,1,,,138.9025,141.8213,1,1,2.4161,,0,37,37,36,1,37,0,mexican,,,,,,,,,,,,,,,,,,,,,,,,,,,,,,,,,,,,,,,,,,,,,,,,,,,,,,,,
,,,,,,,,,669e7b8d49d69303f41baed1,spanish,13 or older,"no, only English or Spanish",yes,2025-08-12_14h42.32.179,empathy_intonation_perc_control,2024.2.4,Win32,59.88023952,669e7b8d49d69303f41baed1,68817205a84113384fffdfe3,689b8afe70fca76d4d448898,,,,,,,,,,,,./stim/wavs/puertorican_match_declarative-broad-focus_Emilio-ama-la-marcha.wav,0,,,141.8217,143.873,0,1,1.5448,,0,38,38,65,1,66,0,puertorican,,,,,,,,,,,,,,,,,,,,,,,,,,,,,,,,,,,,,,,,,,,,,,,,,,,,,,,,
,,,,,,,,,669e7b8d49d69303f41baed1,spanish,13 or older,"no, only English or Spanish",yes,2025-08-12_14h42.32.179,empathy_intonation_perc_control,2024.2.4,Win32,59.88023952,669e7b8d49d69303f41baed1,68817205a84113384fffdfe3,689b8afe70fca76d4d448898,,,,,,,,,,,,./stim/wavs/cuban_mismatch_interrogative-total-yn_Mi-novio-viene-del-lago.wav,1,,,143.8734,146.0917,0,0,1.7117,,0,39,39,32,1,33,1,cuban,,,,,,,,,,,,,,,,,,,,,,,,,,,,,,,,,,,,,,,,,,,,,,,,,,,,,,,,
,,,,,,,,,669e7b8d49d69303f41baed1,spanish,13 or older,"no, only English or Spanish",yes,2025-08-12_14h42.32.179,empathy_intonation_perc_control,2024.2.4,Win32,59.88023952,669e7b8d49d69303f41baed1,68817205a84113384fffdfe3,689b8afe70fca76d4d448898,,,,,,,,,,,,./stim/wavs/puertorican_match_interrogative-total-yn_Manuela-vende-el-carro.wav,1,,,146.0921,148.2933,0,0,1.6731,,0,40,40,22,1,23,1,puertorican,,,,,,,,,,,,,,,,,,,,,,,,,,,,,,,,,,,,,,,,,,,,,,,,,,,,,,,,
,,,,,,,,,669e7b8d49d69303f41baed1,spanish,13 or older,"no, only English or Spanish",yes,2025-08-12_14h42.32.179,empathy_intonation_perc_control,2024.2.4,Win32,59.88023952,669e7b8d49d69303f41baed1,68817205a84113384fffdfe3,689b8afe70fca76d4d448898,,,,,,,,,,,,./stim/wavs/puertorican_match_interrogative-total-yn_Ana-lleva-el-abrigo.wav,1,,,148.2936,150.4285,0,0,1.6322,,0,41,41,18,1,19,1,puertorican,,,,,,,,,,,,,,,,,,,,,,,,,,,,,,,,,,,,,,,,,,,,,,,,,,,,,,,,
,,,,,,,,,669e7b8d49d69303f41baed1,spanish,13 or older,"no, only English or Spanish",yes,2025-08-12_14h42.32.179,empathy_intonation_perc_control,2024.2.4,Win32,59.88023952,669e7b8d49d69303f41baed1,68817205a84113384fffdfe3,689b8afe70fca76d4d448898,,,,,,,,,,,,./stim/wavs/castilian_match_interrogative-total-yn_Emilio-ama-la-marcha.wav,1,,,150.4289,152.5471,1,1,1.5897,,0,42,42,1,1,2,0,castilian,,,,,,,,,,,,,,,,,,,,,,,,,,,,,,,,,,,,,,,,,,,,,,,,,,,,,,,,
,,,,,,,,,669e7b8d49d69303f41baed1,spanish,13 or older,"no, only English or Spanish",yes,2025-08-12_14h42.32.179,empathy_intonation_perc_control,2024.2.4,Win32,59.88023952,669e7b8d49d69303f41baed1,68817205a84113384fffdfe3,689b8afe70fca76d4d448898,,,,,,,,,,,,./stim/wavs/puertorican_mismatch_interrogative-total-yn_La-maestra-vive-en-Paris.wav,1,,,152.5476,154.7988,0,0,1.7189,,0,43,43,41,1,42,1,puertorican,,,,,,,,,,,,,,,,,,,,,,,,,,,,,,,,,,,,,,,,,,,,,,,,,,,,,,,,
,,,,,,,,,669e7b8d49d69303f41baed1,spanish,13 or older,"no, only English or Spanish",yes,2025-08-12_14h42.32.179,empathy_intonation_perc_control,2024.2.4,Win32,59.88023952,669e7b8d49d69303f41baed1,68817205a84113384fffdfe3,689b8afe70fca76d4d448898,,,,,,,,,,,,./stim/wavs/cuban_match_declarative-broad-focus_Ana-lleva-el-abrigo.wav,0,,,154.799,156.6502,0,1,1.335,,0,44,44,50,1,51,0,cuban,,,,,,,,,,,,,,,,,,,,,,,,,,,,,,,,,,,,,,,,,,,,,,,,,,,,,,,,
,,,,,,,,,669e7b8d49d69303f41baed1,spanish,13 or older,"no, only English or Spanish",yes,2025-08-12_14h42.32.179,empathy_intonation_perc_control,2024.2.4,Win32,59.88023952,669e7b8d49d69303f41baed1,68817205a84113384fffdfe3,689b8afe70fca76d4d448898,,,,,,,,,,,,./stim/wavs/puertorican_mismatch_declarative-broad-focus_El-hombre-mira-la-luna.wav,0,,,156.6506,158.852,0,1,1.6909,,0,45,45,84,1,85,0,puertorican,,,,,,,,,,,,,,,,,,,,,,,,,,,,,,,,,,,,,,,,,,,,,,,,,,,,,,,,
,,,,,,,,,669e7b8d49d69303f41baed1,spanish,13 or older,"no, only English or Spanish",yes,2025-08-12_14h42.32.179,empathy_intonation_perc_control,2024.2.4,Win32,59.88023952,669e7b8d49d69303f41baed1,68817205a84113384fffdfe3,689b8afe70fca76d4d448898,,,,,,,,,,,,./stim/wavs/castilian_match_interrogative-total-yn_Mariano-habla-del-tiempo.wav,1,,,158.8523,160.8538,1,1,1.4738,,0,46,46,4,1,5,0,castilian,,,,,,,,,,,,,,,,,,,,,,,,,,,,,,,,,,,,,,,,,,,,,,,,,,,,,,,,
,,,,,,,,,669e7b8d49d69303f41baed1,spanish,13 or older,"no, only English or Spanish",yes,2025-08-12_14h42.32.179,empathy_intonation_perc_control,2024.2.4,Win32,59.88023952,669e7b8d49d69303f41baed1,68817205a84113384fffdfe3,689b8afe70fca76d4d448898,,,,,,,,,,,,./stim/wavs/puertorican_match_declarative-broad-focus_Manuela-vende-el-carro.wav,0,,,160.8543,163.3057,0,1,1.9265,,0,47,47,66,1,67,0,puertorican,,,,,,,,,,,,,,,,,,,,,,,,,,,,,,,,,,,,,,,,,,,,,,,,,,,,,,,,
,,,,,,,,,669e7b8d49d69303f41baed1,spanish,13 or older,"no, only English or Spanish",yes,2025-08-12_14h42.32.179,empathy_intonation_perc_control,2024.2.4,Win32,59.88023952,669e7b8d49d69303f41baed1,68817205a84113384fffdfe3,689b8afe70fca76d4d448898,,,,,,,,,,,,./stim/wavs/cuban_mismatch_declarative-broad-focus_Mi-tia-odia-la-lluvia.wav,0,,,163.3061,165.7579,0,1,1.9386,0.0092,0,48,48,77,1,78,0,cuban,,,,,,,,,,,,,,,,,,,,,,,,,,,,,,,,,,,,,,,,,,,,,,,,,,,,,,,,
,,,,,,,,,669e7b8d49d69303f41baed1,spanish,13 or older,"no, only English or Spanish",yes,2025-08-12_14h42.32.179,empathy_intonation_perc_control,2024.2.4,Win32,59.88023952,669e7b8d49d69303f41baed1,68817205a84113384fffdfe3,689b8afe70fca76d4d448898,,,,,,,,,,,,./stim/wavs/castilian_mismatch_interrogative-total-yn_Mi-madre-come-la-fruta.wav,1,,,165.7582,168.1097,1,1,1.8304,,0,49,49,26,1,27,0,castilian,,,,,,,,,,,,,,,,,,,,,,,,,,,,,,,,,,,,,,,,,,,,,,,,,,,,,,,,
,,,,,,,,,669e7b8d49d69303f41baed1,spanish,13 or older,"no, only English or Spanish",yes,2025-08-12_14h42.32.179,empathy_intonation_perc_control,2024.2.4,Win32,59.88023952,669e7b8d49d69303f41baed1,68817205a84113384fffdfe3,689b8afe70fca76d4d448898,,,,,,,,,,,,./stim/wavs/castilian_mismatch_declarative-broad-focus_La-maestra-vive-en-Paris.wav,0,,,168.1102,170.8618,0,1,2.2318,,0,50,50,69,1,70,0,castilian,,,,,,,,,,,,,,,,,,,,,,,,,,,,,,,,,,,,,,,,,,,,,,,,,,,,,,,,
,,,,,,,,,669e7b8d49d69303f41baed1,spanish,13 or older,"no, only English or Spanish",yes,2025-08-12_14h42.32.179,empathy_intonation_perc_control,2024.2.4,Win32,59.88023952,669e7b8d49d69303f41baed1,68817205a84113384fffdfe3,689b8afe70fca76d4d448898,,,,,,,,,,,,./stim/wavs/cuban_mismatch_interrogative-total-yn_Mi-tia-odia-la-lluvia.wav,1,,,170.862,173.364,0,0,1.9854,,0,51,51,33,1,34,1,cuban,,,,,,,,,,,,,,,,,,,,,,,,,,,,,,,,,,,,,,,,,,,,,,,,,,,,,,,,
,,,,,,,,,669e7b8d49d69303f41baed1,spanish,13 or older,"no, only English or Spanish",yes,2025-08-12_14h42.32.179,empathy_intonation_perc_control,2024.2.4,Win32,59.88023952,669e7b8d49d69303f41baed1,68817205a84113384fffdfe3,689b8afe70fca76d4d448898,,,,,,,,,,,,./stim/wavs/cuban_match_declarative-broad-focus_Manuela-vende-el-carro.wav,0,,,173.3643,176.5997,0,1,2.7293,,0,52,52,52,1,53,0,cuban,,,,,,,,,,,,,,,,,,,,,,,,,,,,,,,,,,,,,,,,,,,,,,,,,,,,,,,,
,,,,,,,,,669e7b8d49d69303f41baed1,spanish,13 or older,"no, only English or Spanish",yes,2025-08-12_14h42.32.179,empathy_intonation_perc_control,2024.2.4,Win32,59.88023952,669e7b8d49d69303f41baed1,68817205a84113384fffdfe3,689b8afe70fca76d4d448898,,,,,,,,,,,,./stim/wavs/cuban_match_declarative-broad-focus_Maria-bebe-el-vino.wav,0,,,176.6001,179.7859,0,1,2.6773,,0,53,53,53,1,54,0,cuban,,,,,,,,,,,,,,,,,,,,,,,,,,,,,,,,,,,,,,,,,,,,,,,,,,,,,,,,
,,,,,,,,,669e7b8d49d69303f41baed1,spanish,13 or older,"no, only English or Spanish",yes,2025-08-12_14h42.32.179,empathy_intonation_perc_control,2024.2.4,Win32,59.88023952,669e7b8d49d69303f41baed1,68817205a84113384fffdfe3,689b8afe70fca76d4d448898,,,,,,,,,,,,./stim/wavs/cuban_match_interrogative-total-yn_Marta-abre-el-regalo.wav,1,,,179.7861,182.1545,0,0,1.8569,,0,54,54,11,1,12,1,cuban,,,,,,,,,,,,,,,,,,,,,,,,,,,,,,,,,,,,,,,,,,,,,,,,,,,,,,,,
,,,,,,,,,669e7b8d49d69303f41baed1,spanish,13 or older,"no, only English or Spanish",yes,2025-08-12_14h42.32.179,empathy_intonation_perc_control,2024.2.4,Win32,59.88023952,669e7b8d49d69303f41baed1,68817205a84113384fffdfe3,689b8afe70fca76d4d448898,,,,,,,,,,,,./stim/wavs/cuban_mismatch_declarative-broad-focus_El-hombre-mira-la-luna.wav,0,,,182.1548,185.8574,0,1,3.1946,,0,55,55,74,1,75,0,cuban,,,,,,,,,,,,,,,,,,,,,,,,,,,,,,,,,,,,,,,,,,,,,,,,,,,,,,,,
,,,,,,,,,669e7b8d49d69303f41baed1,spanish,13 or older,"no, only English or Spanish",yes,2025-08-12_14h42.32.179,empathy_intonation_perc_control,2024.2.4,Win32,59.88023952,669e7b8d49d69303f41baed1,68817205a84113384fffdfe3,689b8afe70fca76d4d448898,,,,,,,,,,,,./stim/wavs/castilian_mismatch_interrogative-total-yn_Mi-tia-odia-la-lluvia.wav,1,,,185.8579,188.1425,1,1,1.7799,,0,56,56,28,1,29,0,castilian,,,,,,,,,,,,,,,,,,,,,,,,,,,,,,,,,,,,,,,,,,,,,,,,,,,,,,,,
,,,,,,,,,669e7b8d49d69303f41baed1,spanish,13 or older,"no, only English or Spanish",yes,2025-08-12_14h42.32.179,empathy_intonation_perc_control,2024.2.4,Win32,59.88023952,669e7b8d49d69303f41baed1,68817205a84113384fffdfe3,689b8afe70fca76d4d448898,,,,,,,,,,,,./stim/wavs/mexican_mismatch_declarative-broad-focus_La-maestra-vive-en-Paris.wav,0,,,188.1429,190.8784,0,1,2.2219,,0,57,57,80,1,81,0,mexican,,,,,,,,,,,,,,,,,,,,,,,,,,,,,,,,,,,,,,,,,,,,,,,,,,,,,,,,
,,,,,,,,,669e7b8d49d69303f41baed1,spanish,13 or older,"no, only English or Spanish",yes,2025-08-12_14h42.32.179,empathy_intonation_perc_control,2024.2.4,Win32,59.88023952,669e7b8d49d69303f41baed1,68817205a84113384fffdfe3,689b8afe70fca76d4d448898,,,,,,,,,,,,./stim/wavs/castilian_mismatch_interrogative-total-yn_La-maestra-vive-en-Paris.wav,1,,,190.8788,193.497,1,1,2.0942,,0,58,58,24,1,25,0,castilian,,,,,,,,,,,,,,,,,,,,,,,,,,,,,,,,,,,,,,,,,,,,,,,,,,,,,,,,
,,,,,,,,,669e7b8d49d69303f41baed1,spanish,13 or older,"no, only English or Spanish",yes,2025-08-12_14h42.32.179,empathy_intonation_perc_control,2024.2.4,Win32,59.88023952,669e7b8d49d69303f41baed1,68817205a84113384fffdfe3,689b8afe70fca76d4d448898,,,,,,,,,,,,./stim/wavs/castilian_match_declarative-broad-focus_Mariano-habla-del-tiempo.wav,0,,,193.4973,196.2996,0,1,2.2923,,0,59,59,48,1,49,0,castilian,,,,,,,,,,,,,,,,,,,,,,,,,,,,,,,,,,,,,,,,,,,,,,,,,,,,,,,,
,,,,,,,,,669e7b8d49d69303f41baed1,spanish,13 or older,"no, only English or Spanish",yes,2025-08-12_14h42.32.179,empathy_intonation_perc_control,2024.2.4,Win32,59.88023952,669e7b8d49d69303f41baed1,68817205a84113384fffdfe3,689b8afe70fca76d4d448898,,,,,,,,,,,,./stim/wavs/mexican_mismatch_interrogative-total-yn_Mi-tia-odia-la-lluvia.wav,1,,,196.3002,198.6678,0,0,1.8478,,0,60,60,38,1,39,0,mexican,,,,,,,,,,,,,,,,,,,,,,,,,,,,,,,,,,,,,,,,,,,,,,,,,,,,,,,,
,,,,,,,,,669e7b8d49d69303f41baed1,spanish,13 or older,"no, only English or Spanish",yes,2025-08-12_14h42.32.179,empathy_intonation_perc_control,2024.2.4,Win32,59.88023952,669e7b8d49d69303f41baed1,68817205a84113384fffdfe3,689b8afe70fca76d4d448898,,,,,,,,,,,,./stim/wavs/cuban_match_interrogative-total-yn_Ana-lleva-el-abrigo.wav,1,,,198.6682,201.1198,0,0,1.944,,0,61,61,6,1,7,1,cuban,,,,,,,,,,,,,,,,,,,,,,,,,,,,,,,,,,,,,,,,,,,,,,,,,,,,,,,,
,,,,,,,,,669e7b8d49d69303f41baed1,spanish,13 or older,"no, only English or Spanish",yes,2025-08-12_14h42.32.179,empathy_intonation_perc_control,2024.2.4,Win32,59.88023952,669e7b8d49d69303f41baed1,68817205a84113384fffdfe3,689b8afe70fca76d4d448898,,,,,,,,,,,,./stim/wavs/cuban_mismatch_declarative-broad-focus_La-nina-lava-el-plato.wav,0,,,201.1201,204.7729,1,0,3.1214,,0,62,62,75,1,76,0,cuban,,,,,,,,,,,,,,,,,,,,,,,,,,,,,,,,,,,,,,,,,,,,,,,,,,,,,,,,
,,,,,,,,,669e7b8d49d69303f41baed1,spanish,13 or older,"no, only English or Spanish",yes,2025-08-12_14h42.32.179,empathy_intonation_perc_control,2024.2.4,Win32,59.88023952,669e7b8d49d69303f41baed1,68817205a84113384fffdfe3,689b8afe70fca76d4d448898,,,,,,,,,,,,./stim/wavs/cuban_match_interrogative-total-yn_Manuela-vende-el-carro.wav,1,,,204.7733,207.6252,0,0,2.3445,,0,63,63,8,1,9,1,cuban,,,,,,,,,,,,,,,,,,,,,,,,,,,,,,,,,,,,,,,,,,,,,,,,,,,,,,,,
,,,,,,,,,669e7b8d49d69303f41baed1,spanish,13 or older,"no, only English or Spanish",yes,2025-08-12_14h42.32.179,empathy_intonation_perc_control,2024.2.4,Win32,59.88023952,669e7b8d49d69303f41baed1,68817205a84113384fffdfe3,689b8afe70fca76d4d448898,,,,,,,,,,,,./stim/wavs/puertorican_mismatch_interrogative-total-yn_Mi-madre-come-la-fruta.wav,1,,,207.6255,210.094,0,0,1.9579,,0,64,64,43,1,44,1,puertorican,,,,,,,,,,,,,,,,,,,,,,,,,,,,,,,,,,,,,,,,,,,,,,,,,,,,,,,,
,,,,,,,,,669e7b8d49d69303f41baed1,spanish,13 or older,"no, only English or Spanish",yes,2025-08-12_14h42.32.179,empathy_intonation_perc_control,2024.2.4,Win32,59.88023952,669e7b8d49d69303f41baed1,68817205a84113384fffdfe3,689b8afe70fca76d4d448898,,,,,,,,,,,,./stim/wavs/mexican_mismatch_interrogative-total-yn_El-hombre-mira-la-luna.wav,1,,,210.0944,212.2623,0,0,1.6578,,0,65,65,34,1,35,0,mexican,,,,,,,,,,,,,,,,,,,,,,,,,,,,,,,,,,,,,,,,,,,,,,,,,,,,,,,,
,,,,,,,,,669e7b8d49d69303f41baed1,spanish,13 or older,"no, only English or Spanish",yes,2025-08-12_14h42.32.179,empathy_intonation_perc_control,2024.2.4,Win32,59.88023952,669e7b8d49d69303f41baed1,68817205a84113384fffdfe3,689b8afe70fca76d4d448898,,,,,,,,,,,,./stim/wavs/puertorican_mismatch_interrogative-total-yn_El-nino-oye-el-rio.wav,1,,,212.2627,214.7145,0,0,1.9427,,0,66,66,40,1,41,1,puertorican,,,,,,,,,,,,,,,,,,,,,,,,,,,,,,,,,,,,,,,,,,,,,,,,,,,,,,,,
,,,,,,,,,669e7b8d49d69303f41baed1,spanish,13 or older,"no, only English or Spanish",yes,2025-08-12_14h42.32.179,empathy_intonation_perc_control,2024.2.4,Win32,59.88023952,669e7b8d49d69303f41baed1,68817205a84113384fffdfe3,689b8afe70fca76d4d448898,,,,,,,,,,,,./stim/wavs/cuban_match_declarative-broad-focus_Daniel-iba-a-Bolivia.wav,0,,,214.7148,217.2331,0,1,2.0023,,0,67,67,51,1,52,0,cuban,,,,,,,,,,,,,,,,,,,,,,,,,,,,,,,,,,,,,,,,,,,,,,,,,,,,,,,,
,,,,,,,,,669e7b8d49d69303f41baed1,spanish,13 or older,"no, only English or Spanish",yes,2025-08-12_14h42.32.179,empathy_intonation_perc_control,2024.2.4,Win32,59.88023952,669e7b8d49d69303f41baed1,68817205a84113384fffdfe3,689b8afe70fca76d4d448898,,,,,,,,,,,,./stim/wavs/castilian_match_declarative-broad-focus_David-leia-el-libro.wav,0,,,217.2336,219.5016,0,1,1.7612,,0,68,68,44,1,45,0,castilian,,,,,,,,,,,,,,,,,,,,,,,,,,,,,,,,,,,,,,,,,,,,,,,,,,,,,,,,
,,,,,,,,,669e7b8d49d69303f41baed1,spanish,13 or older,"no, only English or Spanish",yes,2025-08-12_14h42.32.179,empathy_intonation_perc_control,2024.2.4,Win32,59.88023952,669e7b8d49d69303f41baed1,68817205a84113384fffdfe3,689b8afe70fca76d4d448898,,,,,,,,,,,,./stim/wavs/mexican_match_interrogative-total-yn_David-leia-el-libro.wav,1,,,219.5019,221.9038,1,1,1.8954,,0,69,69,14,1,15,0,mexican,,,,,,,,,,,,,,,,,,,,,,,,,,,,,,,,,,,,,,,,,,,,,,,,,,,,,,,,
,,,,,,,,,669e7b8d49d69303f41baed1,spanish,13 or older,"no, only English or Spanish",yes,2025-08-12_14h42.32.179,empathy_intonation_perc_control,2024.2.4,Win32,59.88023952,669e7b8d49d69303f41baed1,68817205a84113384fffdfe3,689b8afe70fca76d4d448898,,,,,,,,,,,,./stim/wavs/mexican_match_declarative-broad-focus_Emilio-ama-la-marcha.wav,0,,,221.9042,224.2556,0,1,1.8285,,0,70,70,59,1,60,0,mexican,,,,,,,,,,,,,,,,,,,,,,,,,,,,,,,,,,,,,,,,,,,,,,,,,,,,,,,,
,,,,,,,,,669e7b8d49d69303f41baed1,spanish,13 or older,"no, only English or Spanish",yes,2025-08-12_14h42.32.179,empathy_intonation_perc_control,2024.2.4,Win32,59.88023952,669e7b8d49d69303f41baed1,68817205a84113384fffdfe3,689b8afe70fca76d4d448898,,,,,,,,,,,,./stim/wavs/castilian_match_declarative-broad-focus_Maria-bebe-el-vino.wav,0,,,224.256,226.4741,0,1,1.7092,,0,71,71,47,1,48,0,castilian,,,,,,,,,,,,,,,,,,,,,,,,,,,,,,,,,,,,,,,,,,,,,,,,,,,,,,,,
,,,,,,,,,669e7b8d49d69303f41baed1,spanish,13 or older,"no, only English or Spanish",yes,2025-08-12_14h42.32.179,empathy_intonation_perc_control,2024.2.4,Win32,59.88023952,669e7b8d49d69303f41baed1,68817205a84113384fffdfe3,689b8afe70fca76d4d448898,,,,,,,,,,,,./stim/wavs/mexican_mismatch_declarative-broad-focus_Mi-novio-viene-del-lago.wav,0,,,226.4743,228.5591,0,1,1.5791,,0,72,72,81,1,82,0,mexican,,,,,,,,,,,,,,,,,,,,,,,,,,,,,,,,,,,,,,,,,,,,,,,,,,,,,,,,
,,,,,,,,,669e7b8d49d69303f41baed1,spanish,13 or older,"no, only English or Spanish",yes,2025-08-12_14h42.32.179,empathy_intonation_perc_control,2024.2.4,Win32,59.88023952,669e7b8d49d69303f41baed1,68817205a84113384fffdfe3,689b8afe70fca76d4d448898,,,,,,,,,,,,./stim/wavs/castilian_mismatch_interrogative-total-yn_La-nina-lava-el-plato.wav,1,,,228.5598,230.7275,1,1,1.6451,,0,73,73,25,1,26,0,castilian,,,,,,,,,,,,,,,,,,,,,,,,,,,,,,,,,,,,,,,,,,,,,,,,,,,,,,,,
,,,,,,,,,669e7b8d49d69303f41baed1,spanish,13 or older,"no, only English or Spanish",yes,2025-08-12_14h42.32.179,empathy_intonation_perc_control,2024.2.4,Win32,59.88023952,669e7b8d49d69303f41baed1,68817205a84113384fffdfe3,689b8afe70fca76d4d448898,,,,,,,,,,,,./stim/wavs/cuban_match_interrogative-total-yn_Daniel-iba-a-Bolivia.wav,1,,,230.7279,234.0302,1,1,2.7749,,0,74,74,7,1,8,1,cuban,,,,,,,,,,,,,,,,,,,,,,,,,,,,,,,,,,,,,,,,,,,,,,,,,,,,,,,,
,,,,,,,,,669e7b8d49d69303f41baed1,spanish,13 or older,"no, only English or Spanish",yes,2025-08-12_14h42.32.179,empathy_intonation_perc_control,2024.2.4,Win32,59.88023952,669e7b8d49d69303f41baed1,68817205a84113384fffdfe3,689b8afe70fca76d4d448898,,,,,,,,,,,,./stim/wavs/cuban_match_interrogative-total-yn_Mariano-habla-del-tiempo.wav,1,,,234.0307,236.232,0,0,1.6919,,0,75,75,10,1,11,1,cuban,,,,,,,,,,,,,,,,,,,,,,,,,,,,,,,,,,,,,,,,,,,,,,,,,,,,,,,,
,,,,,,,,,669e7b8d49d69303f41baed1,spanish,13 or older,"no, only English or Spanish",yes,2025-08-12_14h42.32.179,empathy_intonation_perc_control,2024.2.4,Win32,59.88023952,669e7b8d49d69303f41baed1,68817205a84113384fffdfe3,689b8afe70fca76d4d448898,,,,,,,,,,,,./stim/wavs/cuban_mismatch_interrogative-total-yn_Mi-madre-come-la-fruta.wav,1,,,236.2323,238.485,0,0,1.7478,,0,76,76,31,1,32,1,cuban,,,,,,,,,,,,,,,,,,,,,,,,,,,,,,,,,,,,,,,,,,,,,,,,,,,,,,,,
,,,,,,,,,669e7b8d49d69303f41baed1,spanish,13 or older,"no, only English or Spanish",yes,2025-08-12_14h42.32.179,empathy_intonation_perc_control,2024.2.4,Win32,59.88023952,669e7b8d49d69303f41baed1,68817205a84113384fffdfe3,689b8afe70fca76d4d448898,,,,,,,,,,,,./stim/wavs/mexican_mismatch_declarative-broad-focus_Mi-tia-odia-la-lluvia.wav,0,,,238.4854,240.7856,0,1,1.7822,,0,77,77,82,1,83,0,mexican,,,,,,,,,,,,,,,,,,,,,,,,,,,,,,,,,,,,,,,,,,,,,,,,,,,,,,,,
,,,,,,,,,669e7b8d49d69303f41baed1,spanish,13 or older,"no, only English or Spanish",yes,2025-08-12_14h42.32.179,empathy_intonation_perc_control,2024.2.4,Win32,59.88023952,669e7b8d49d69303f41baed1,68817205a84113384fffdfe3,689b8afe70fca76d4d448898,,,,,,,,,,,,./stim/wavs/mexican_match_declarative-broad-focus_Marta-abre-el-regalo.wav,0,,,240.786,242.854,0,1,1.5631,,0,78,78,61,1,62,0,mexican,,,,,,,,,,,,,,,,,,,,,,,,,,,,,,,,,,,,,,,,,,,,,,,,,,,,,,,,
,,,,,,,,,669e7b8d49d69303f41baed1,spanish,13 or older,"no, only English or Spanish",yes,2025-08-12_14h42.32.179,empathy_intonation_perc_control,2024.2.4,Win32,59.88023952,669e7b8d49d69303f41baed1,68817205a84113384fffdfe3,689b8afe70fca76d4d448898,,,,,,,,,,,,./stim/wavs/puertorican_mismatch_declarative-broad-focus_El-nino-oye-el-rio.wav,0,,,242.8542,245.4229,0,1,2.055,,0,79,79,85,1,86,0,puertorican,,,,,,,,,,,,,,,,,,,,,,,,,,,,,,,,,,,,,,,,,,,,,,,,,,,,,,,,
,,,,,,,,,669e7b8d49d69303f41baed1,spanish,13 or older,"no, only English or Spanish",yes,2025-08-12_14h42.32.179,empathy_intonation_perc_control,2024.2.4,Win32,59.88023952,669e7b8d49d69303f41baed1,68817205a84113384fffdfe3,689b8afe70fca76d4d448898,,,,,,,,,,,,./stim/wavs/puertorican_match_interrogative-total-yn_Emilio-ama-la-marcha.wav,1,,,245.4234,247.5078,1,1,1.5649,,0,80,80,21,1,22,1,puertorican,,,,,,,,,,,,,,,,,,,,,,,,,,,,,,,,,,,,,,,,,,,,,,,,,,,,,,,,
,,,,,,,,,669e7b8d49d69303f41baed1,spanish,13 or older,"no, only English or Spanish",yes,2025-08-12_14h42.32.179,empathy_intonation_perc_control,2024.2.4,Win32,59.88023952,669e7b8d49d69303f41baed1,68817205a84113384fffdfe3,689b8afe70fca76d4d448898,,,,,,,,,,,,./stim/wavs/castilian_mismatch_declarative-broad-focus_Mi-novio-viene-del-lago.wav,0,,,247.508,249.8932,1,0,1.8769,,0,81,81,71,1,72,0,castilian,,,,,,,,,,,,,,,,,,,,,,,,,,,,,,,,,,,,,,,,,,,,,,,,,,,,,,,,
,,,,,,,,,669e7b8d49d69303f41baed1,spanish,13 or older,"no, only English or Spanish",yes,2025-08-12_14h42.32.179,empathy_intonation_perc_control,2024.2.4,Win32,59.88023952,669e7b8d49d69303f41baed1,68817205a84113384fffdfe3,689b8afe70fca76d4d448898,,,,,,,,,,,,./stim/wavs/mexican_mismatch_interrogative-total-yn_Mi-novio-viene-del-lago.wav,1,,,249.8937,252.2618,1,1,1.8635,,0,82,82,37,1,38,0,mexican,,,,,,,,,,,,,,,,,,,,,,,,,,,,,,,,,,,,,,,,,,,,,,,,,,,,,,,,
,,,,,,,,,669e7b8d49d69303f41baed1,spanish,13 or older,"no, only English or Spanish",yes,2025-08-12_14h42.32.179,empathy_intonation_perc_control,2024.2.4,Win32,59.88023952,669e7b8d49d69303f41baed1,68817205a84113384fffdfe3,689b8afe70fca76d4d448898,,,,,,,,,,,,./stim/wavs/castilian_match_interrogative-total-yn_Marta-abre-el-regalo.wav,1,,,252.2621,255.0307,1,1,2.2546,,0,83,83,5,1,6,0,castilian,,,,,,,,,,,,,,,,,,,,,,,,,,,,,,,,,,,,,,,,,,,,,,,,,,,,,,,,
,,,,,,,,,669e7b8d49d69303f41baed1,spanish,13 or older,"no, only English or Spanish",yes,2025-08-12_14h42.32.179,empathy_intonation_perc_control,2024.2.4,Win32,59.88023952,669e7b8d49d69303f41baed1,68817205a84113384fffdfe3,689b8afe70fca76d4d448898,,,,,,,,,,,,./stim/wavs/mexican_match_declarative-broad-focus_Daniel-iba-a-Bolivia.wav,0,,,255.0312,257.5329,0,1,1.9688,,0,84,84,57,1,58,0,mexican,,,,,,,,,,,,,,,,,,,,,,,,,,,,,,,,,,,,,,,,,,,,,,,,,,,,,,,,
,,,,,,,,,669e7b8d49d69303f41baed1,spanish,13 or older,"no, only English or Spanish",yes,2025-08-12_14h42.32.179,empathy_intonation_perc_control,2024.2.4,Win32,59.88023952,669e7b8d49d69303f41baed1,68817205a84113384fffdfe3,689b8afe70fca76d4d448898,,,,,,,,,,,,./stim/wavs/castilian_match_interrogative-total-yn_Maria-bebe-el-vino.wav,1,,,257.5332,260.0515,1,1,1.9991,,0,85,85,3,1,4,0,castilian,,,,,,,,,,,,,,,,,,,,,,,,,,,,,,,,,,,,,,,,,,,,,,,,,,,,,,,,
,,,,,,,,,669e7b8d49d69303f41baed1,spanish,13 or older,"no, only English or Spanish",yes,2025-08-12_14h42.32.179,empathy_intonation_perc_control,2024.2.4,Win32,59.88023952,669e7b8d49d69303f41baed1,68817205a84113384fffdfe3,689b8afe70fca76d4d448898,,,,,,,,,,,,./stim/wavs/castilian_match_declarative-broad-focus_Emilio-ama-la-marcha.wav,0,,,260.0518,262.053,1,0,1.4804,,0,86,86,45,1,46,0,castilian,,,,,,,,,,,,,,,,,,,,,,,,,,,,,,,,,,,,,,,,,,,,,,,,,,,,,,,,
,,,,,,,,,669e7b8d49d69303f41baed1,spanish,13 or older,"no, only English or Spanish",yes,2025-08-12_14h42.32.179,empathy_intonation_perc_control,2024.2.4,Win32,59.88023952,669e7b8d49d69303f41baed1,68817205a84113384fffdfe3,689b8afe70fca76d4d448898,,,,,,,,,,,,./stim/wavs/puertorican_match_interrogative-total-yn_David-leia-el-libro.wav,1,,,262.0534,263.9713,1,1,1.4155,,0,87,87,20,1,21,1,puertorican,,,,,,,,,,,,,,,,,,,,,,,,,,,,,,,,,,,,,,,,,,,,,,,,,,,,,,,,
,,,,,,,"Great! Now we will move on. The next task consists of about 60 trials, in each of which you will see a string of letters. 
  
  Your task is to decide whether this is a real Spanish word or not.", (press the spacebar to continue),669e7b8d49d69303f41baed1,spanish,13 or older,"no, only English or Spanish",yes,2025-08-12_14h42.32.179,empathy_intonation_perc_control,2024.2.4,Win32,59.88023952,669e7b8d49d69303f41baed1,68817205a84113384fffdfe3,689b8afe70fca76d4d448898,,,,,,,,,,,,,,,,,,,,,,,,,,,,,,263.9792,270.4768,0,0,0,0,1,,,,,,,,,,,,,,,,,,,,,,,,,,,,,,,,,,,,,,,,,,,,,,,,,
,,,,,,,"If you think it is an existing Spanish word, you type '1' (for 'REAL'), and if you think it is not an existing Spanish word, you type '0' (for 'FAKE').", (press the spacebar to continue),669e7b8d49d69303f41baed1,spanish,13 or older,"no, only English or Spanish",yes,2025-08-12_14h42.32.179,empathy_intonation_perc_control,2024.2.4,Win32,59.88023952,669e7b8d49d69303f41baed1,68817205a84113384fffdfe3,689b8afe70fca76d4d448898,,,,,,,,,,,,,,,,,,,,,,,,,,,,,,270.4786,273.1791,0,1,1,1,1,,,,,,,,,,,,,,,,,,,,,,,,,,,,,,,,,,,,,,,,,,,,,,,,,
,,,,,,,"If you are sure that the word exists, even though you don’t know its exact meaning, you may still respond '1' (REAL). 
  
  But if you are not sure if it is an existing word, you should respond '0' (FAKE).
  
  Let's do a practice round...", (press the spacebar to continue),669e7b8d49d69303f41baed1,spanish,13 or older,"no, only English or Spanish",yes,2025-08-12_14h42.32.179,empathy_intonation_perc_control,2024.2.4,Win32,59.88023952,669e7b8d49d69303f41baed1,68817205a84113384fffdfe3,689b8afe70fca76d4d448898,,,,,,,,,,,,,,,,,,,,,,,,,,,,,,273.1804,275.1139,0,2,2,2,1,,,,,,,,,,,,,,,,,,,,,,,,,,,,,,,,,,,,,,,,,,,,,,,,,
,,,,,,,,,669e7b8d49d69303f41baed1,spanish,13 or older,"no, only English or Spanish",yes,2025-08-12_14h42.32.179,empathy_intonation_perc_control,2024.2.4,Win32,59.88023952,669e7b8d49d69303f41baed1,68817205a84113384fffdfe3,689b8afe70fca76d4d448898,,,,,,,,,,,,,0,,,,,,,,,,,,,,,,,,,,,,,,275.1177,277.2659,0,1,1.6149,,277.266,278.2666,0,0,0,0,1,0,depiste,REAL,FAKE,,,,,,,,,,,,,,,,,,,,,,,,,,,,,,,,
,,,,,,,,,669e7b8d49d69303f41baed1,spanish,13 or older,"no, only English or Spanish",yes,2025-08-12_14h42.32.179,empathy_intonation_perc_control,2024.2.4,Win32,59.88023952,669e7b8d49d69303f41baed1,68817205a84113384fffdfe3,689b8afe70fca76d4d448898,,,,,,,,,,,,,1,,,,,,,,,,,,,,,,,,,,,,,,278.2676,279.4508,1,1,0.6486,,279.4508,280.4515,0,1,1,1,1,0,sí,REAL,FAKE,,,,,,,,,,,,,,,,,,,,,,,,,,,,,,,,
,,,,,,,,,669e7b8d49d69303f41baed1,spanish,13 or older,"no, only English or Spanish",yes,2025-08-12_14h42.32.179,empathy_intonation_perc_control,2024.2.4,Win32,59.88023952,669e7b8d49d69303f41baed1,68817205a84113384fffdfe3,689b8afe70fca76d4d448898,,,,,,,,,,,,,0,,,,,,,,,,,,,,,,,,,,,,,,280.4524,281.8526,1,0,0.8943,,281.8534,282.8535,0,2,2,2,1,0,coné,REAL,FAKE,,,,,,,,,,,,,,,,,,,,,,,,,,,,,,,,
,,,,,,,,,669e7b8d49d69303f41baed1,spanish,13 or older,"no, only English or Spanish",yes,2025-08-12_14h42.32.179,empathy_intonation_perc_control,2024.2.4,Win32,59.88023952,669e7b8d49d69303f41baed1,68817205a84113384fffdfe3,689b8afe70fca76d4d448898,,,,,,,,,,,,,0,,,,,,,,,,,,,,,,,,,,,,,,282.8541,284.8886,1,0,1.5207,,284.8887,285.8893,0,3,3,3,1,0,calpar,REAL,FAKE,,,,,,,,,,,,,,,,,,,,,,,,,,,,,,,,
,,,,,,,,,669e7b8d49d69303f41baed1,spanish,13 or older,"no, only English or Spanish",yes,2025-08-12_14h42.32.179,empathy_intonation_perc_control,2024.2.4,Win32,59.88023952,669e7b8d49d69303f41baed1,68817205a84113384fffdfe3,689b8afe70fca76d4d448898,,,,,,,,,,,,,0,,,,,,,,,,,,,,,,,,,,,,,,285.89,286.9734,0,1,0.5751,,286.9738,287.9743,0,4,4,4,1,0,joten,REAL,FAKE,,,,,,,,,,,,,,,,,,,,,,,,,,,,,,,,
,,,,,,,,,669e7b8d49d69303f41baed1,spanish,13 or older,"no, only English or Spanish",yes,2025-08-12_14h42.32.179,empathy_intonation_perc_control,2024.2.4,Win32,59.88023952,669e7b8d49d69303f41baed1,68817205a84113384fffdfe3,689b8afe70fca76d4d448898,,,,,,,,,,,,,1,,,,,,,,,,,,,,,,,,,,,,,,287.975,289.6591,0,0,1.1715,,289.6597,290.6598,0,5,5,5,1,0,sacapuntas,REAL,FAKE,,,,,,,,,,,,,,,,,,,,,,,,,,,,,,,,
,,,,,,,,,669e7b8d49d69303f41baed1,spanish,13 or older,"no, only English or Spanish",yes,2025-08-12_14h42.32.179,empathy_intonation_perc_control,2024.2.4,Win32,59.88023952,669e7b8d49d69303f41baed1,68817205a84113384fffdfe3,689b8afe70fca76d4d448898,,,,,,,,,,,,,0,,,,,,,,,,,,,,,,,,,,,,,,290.6605,291.8108,1,0,0.6382,,291.8109,292.8116,0,6,6,6,1,0,priba,REAL,FAKE,,,,,,,,,,,,,,,,,,,,,,,,,,,,,,,,
,,,,,,,,,669e7b8d49d69303f41baed1,spanish,13 or older,"no, only English or Spanish",yes,2025-08-12_14h42.32.179,empathy_intonation_perc_control,2024.2.4,Win32,59.88023952,669e7b8d49d69303f41baed1,68817205a84113384fffdfe3,689b8afe70fca76d4d448898,,,,,,,,,,,,,0,,,,,,,,,,,,,,,,,,,,,,,,292.8124,293.8959,1,0,0.5744,,293.8959,294.8966,0,7,7,7,1,0,pelasula,REAL,FAKE,,,,,,,,,,,,,,,,,,,,,,,,,,,,,,,,
,,,,,,,,,669e7b8d49d69303f41baed1,spanish,13 or older,"no, only English or Spanish",yes,2025-08-12_14h42.32.179,empathy_intonation_perc_control,2024.2.4,Win32,59.88023952,669e7b8d49d69303f41baed1,68817205a84113384fffdfe3,689b8afe70fca76d4d448898,,,,,,,,,,,,,1,,,,,,,,,,,,,,,,,,,,,,,,294.8972,295.9975,1,1,0.5906,,295.998,296.9983,0,8,8,8,1,0,bien,REAL,FAKE,,,,,,,,,,,,,,,,,,,,,,,,,,,,,,,,
,,,,,,,,,669e7b8d49d69303f41baed1,spanish,13 or older,"no, only English or Spanish",yes,2025-08-12_14h42.32.179,empathy_intonation_perc_control,2024.2.4,Win32,59.88023952,669e7b8d49d69303f41baed1,68817205a84113384fffdfe3,689b8afe70fca76d4d448898,,,,,,,,,,,,,1,,,,,,,,,,,,,,,,,,,,,,,,296.9991,298.2495,1,1,0.7323,,298.2495,299.2503,0,9,9,9,1,0,casa,REAL,FAKE,,,,,,,,,,,,,,,,,,,,,,,,,,,,,,,,
,,,,,,,,,669e7b8d49d69303f41baed1,spanish,13 or older,"no, only English or Spanish",yes,2025-08-12_14h42.32.179,empathy_intonation_perc_control,2024.2.4,Win32,59.88023952,669e7b8d49d69303f41baed1,68817205a84113384fffdfe3,689b8afe70fca76d4d448898,,,,,,,,,,,,,0,,,,,,,,,,,,,,,,,,,,,,,,299.2509,300.8348,1,0,1.0478,,300.8353,301.8356,0,10,10,10,1,0,lejo,REAL,FAKE,,,,,,,,,,,,,,,,,,,,,,,,,,,,,,,,
,,,,,,,,,669e7b8d49d69303f41baed1,spanish,13 or older,"no, only English or Spanish",yes,2025-08-12_14h42.32.179,empathy_intonation_perc_control,2024.2.4,Win32,59.88023952,669e7b8d49d69303f41baed1,68817205a84113384fffdfe3,689b8afe70fca76d4d448898,,,,,,,,,,,,,0,,,,,,,,,,,,,,,,,,,,,,,,301.8362,303.3535,1,0,1.0065,,303.3536,304.3543,0,11,11,11,1,0,pretantas,REAL,FAKE,,,,,,,,,,,,,,,,,,,,,,,,,,,,,,,,
,,,,,,,,,669e7b8d49d69303f41baed1,spanish,13 or older,"no, only English or Spanish",yes,2025-08-12_14h42.32.179,empathy_intonation_perc_control,2024.2.4,Win32,59.88023952,669e7b8d49d69303f41baed1,68817205a84113384fffdfe3,689b8afe70fca76d4d448898,,,,,,,,,,,,,,,,,,,,,,,,,,,,,,,,,,,,,,,,,,,,,,,,,,,,,,304.3545,305.7222,,,,,,,,,,,,,,,,,,,,,,,,,,,,,,
,,,,,,,,,669e7b8d49d69303f41baed1,spanish,13 or older,"no, only English or Spanish",yes,2025-08-12_14h42.32.179,empathy_intonation_perc_control,2024.2.4,Win32,59.88023952,669e7b8d49d69303f41baed1,68817205a84113384fffdfe3,689b8afe70fca76d4d448898,,,,,,,,,,,,,0,,,,,,,,,,,,,,,,,,,,,,,,,,,,,,,,,,,,,18,arsa,,,,,305.7333,307.1736,1,0,0.9191,,0,0,0,17,1,REAL,FAKE,,,,,,,,,,,,,,,,,
,,,,,,,,,669e7b8d49d69303f41baed1,spanish,13 or older,"no, only English or Spanish",yes,2025-08-12_14h42.32.179,empathy_intonation_perc_control,2024.2.4,Win32,59.88023952,669e7b8d49d69303f41baed1,68817205a84113384fffdfe3,689b8afe70fca76d4d448898,,,,,,,,,,,,,0,,,,,,,,,,,,,,,,,,,,,,,,,,,,,,,,,,,,,84,escuto,,,,,307.1743,308.8582,0,1,1.155,,0,1,1,83,1,REAL,FAKE,,,,,,,,,,,,,,,,,
,,,,,,,,,669e7b8d49d69303f41baed1,spanish,13 or older,"no, only English or Spanish",yes,2025-08-12_14h42.32.179,empathy_intonation_perc_control,2024.2.4,Win32,59.88023952,669e7b8d49d69303f41baed1,68817205a84113384fffdfe3,689b8afe70fca76d4d448898,,,,,,,,,,,,,0,,,,,,,,,,,,,,,,,,,,,,,,,,,,,,,,,,,,,4,batillón,,,,,308.859,310.1591,1,0,0.7742,,0,2,2,3,1,REAL,FAKE,,,,,,,,,,,,,,,,,
,,,,,,,,,669e7b8d49d69303f41baed1,spanish,13 or older,"no, only English or Spanish",yes,2025-08-12_14h42.32.179,empathy_intonation_perc_control,2024.2.4,Win32,59.88023952,669e7b8d49d69303f41baed1,68817205a84113384fffdfe3,689b8afe70fca76d4d448898,,,,,,,,,,,,,1,,,,,,,,,,,,,,,,,,,,,,,,,,,,,,,,,,,,,40,alfombra,,,,,310.1601,311.5102,0,0,0.8297,,0,3,3,39,1,REAL,FAKE,,,,,,,,,,,,,,,,,
,,,,,,,,,669e7b8d49d69303f41baed1,spanish,13 or older,"no, only English or Spanish",yes,2025-08-12_14h42.32.179,empathy_intonation_perc_control,2024.2.4,Win32,59.88023952,669e7b8d49d69303f41baed1,68817205a84113384fffdfe3,689b8afe70fca76d4d448898,,,,,,,,,,,,,1,,,,,,,,,,,,,,,,,,,,,,,,,,,,,,,,,,,,,51,candado,,,,,311.5108,312.6278,1,1,0.6001,,0,4,4,50,1,REAL,FAKE,,,,,,,,,,,,,,,,,
,,,,,,,,,669e7b8d49d69303f41baed1,spanish,13 or older,"no, only English or Spanish",yes,2025-08-12_14h42.32.179,empathy_intonation_perc_control,2024.2.4,Win32,59.88023952,669e7b8d49d69303f41baed1,68817205a84113384fffdfe3,689b8afe70fca76d4d448898,,,,,,,,,,,,,1,,,,,,,,,,,,,,,,,,,,,,,,,,,,,,,,,,,,,55,nevar,,,,,312.6288,313.8621,1,1,0.723,,0,5,5,54,1,REAL,FAKE,,,,,,,,,,,,,,,,,
,,,,,,,,,669e7b8d49d69303f41baed1,spanish,13 or older,"no, only English or Spanish",yes,2025-08-12_14h42.32.179,empathy_intonation_perc_control,2024.2.4,Win32,59.88023952,669e7b8d49d69303f41baed1,68817205a84113384fffdfe3,689b8afe70fca76d4d448898,,,,,,,,,,,,,0,,,,,,,,,,,,,,,,,,,,,,,,,,,,,,,,,,,,,27,acutación,,,,,313.8631,315.28,1,0,0.889,,0,6,6,26,1,REAL,FAKE,,,,,,,,,,,,,,,,,
,,,,,,,,,669e7b8d49d69303f41baed1,spanish,13 or older,"no, only English or Spanish",yes,2025-08-12_14h42.32.179,empathy_intonation_perc_control,2024.2.4,Win32,59.88023952,669e7b8d49d69303f41baed1,68817205a84113384fffdfe3,689b8afe70fca76d4d448898,,,,,,,,,,,,,0,,,,,,,,,,,,,,,,,,,,,,,,,,,,,,,,,,,,,82,empirador,,,,,315.2805,316.681,1,0,0.8888,,0,7,7,81,1,REAL,FAKE,,,,,,,,,,,,,,,,,
,,,,,,,,,669e7b8d49d69303f41baed1,spanish,13 or older,"no, only English or Spanish",yes,2025-08-12_14h42.32.179,empathy_intonation_perc_control,2024.2.4,Win32,59.88023952,669e7b8d49d69303f41baed1,68817205a84113384fffdfe3,689b8afe70fca76d4d448898,,,,,,,,,,,,,0,,,,,,,,,,,,,,,,,,,,,,,,,,,,,,,,,,,,,72,pemición,,,,,316.6817,317.9154,0,1,0.728,,0,8,8,71,1,REAL,FAKE,,,,,,,,,,,,,,,,,
,,,,,,,,,669e7b8d49d69303f41baed1,spanish,13 or older,"no, only English or Spanish",yes,2025-08-12_14h42.32.179,empathy_intonation_perc_control,2024.2.4,Win32,59.88023952,669e7b8d49d69303f41baed1,68817205a84113384fffdfe3,689b8afe70fca76d4d448898,,,,,,,,,,,,,1,,,,,,,,,,,,,,,,,,,,,,,,,,,,,,,,,,,,,24,látigo,,,,,317.9163,319.0163,1,1,0.5914,,0,9,9,23,1,REAL,FAKE,,,,,,,,,,,,,,,,,
,,,,,,,,,669e7b8d49d69303f41baed1,spanish,13 or older,"no, only English or Spanish",yes,2025-08-12_14h42.32.179,empathy_intonation_perc_control,2024.2.4,Win32,59.88023952,669e7b8d49d69303f41baed1,68817205a84113384fffdfe3,689b8afe70fca76d4d448898,,,,,,,,,,,,,0,,,,,,,,,,,,,,,,,,,,,,,,,,,,,,,,,,,,,32,fatacidad,,,,,319.017,320.5008,1,0,0.97,,0,10,10,31,1,REAL,FAKE,,,,,,,,,,,,,,,,,
,,,,,,,,,669e7b8d49d69303f41baed1,spanish,13 or older,"no, only English or Spanish",yes,2025-08-12_14h42.32.179,empathy_intonation_perc_control,2024.2.4,Win32,59.88023952,669e7b8d49d69303f41baed1,68817205a84113384fffdfe3,689b8afe70fca76d4d448898,,,,,,,,,,,,,1,,,,,,,,,,,,,,,,,,,,,,,,,,,,,,,,,,,,,5,zapato,,,,,320.5017,322.002,1,1,0.9974,,0,11,11,4,1,REAL,FAKE,,,,,,,,,,,,,,,,,
,,,,,,,,,669e7b8d49d69303f41baed1,spanish,13 or older,"no, only English or Spanish",yes,2025-08-12_14h42.32.179,empathy_intonation_perc_control,2024.2.4,Win32,59.88023952,669e7b8d49d69303f41baed1,68817205a84113384fffdfe3,689b8afe70fca76d4d448898,,,,,,,,,,,,,1,,,,,,,,,,,,,,,,,,,,,,,,,,,,,,,,,,,,,15,regar,,,,,322.0026,323.0697,1,1,0.5513,,0,12,12,14,1,REAL,FAKE,,,,,,,,,,,,,,,,,
,,,,,,,,,669e7b8d49d69303f41baed1,spanish,13 or older,"no, only English or Spanish",yes,2025-08-12_14h42.32.179,empathy_intonation_perc_control,2024.2.4,Win32,59.88023952,669e7b8d49d69303f41baed1,68817205a84113384fffdfe3,689b8afe70fca76d4d448898,,,,,,,,,,,,,1,,,,,,,,,,,,,,,,,,,,,,,,,,,,,,,,,,,,,3,pulmones,,,,,323.0703,324.2373,0,0,0.6579,,0,13,13,2,1,REAL,FAKE,,,,,,,,,,,,,,,,,
,,,,,,,,,669e7b8d49d69303f41baed1,spanish,13 or older,"no, only English or Spanish",yes,2025-08-12_14h42.32.179,empathy_intonation_perc_control,2024.2.4,Win32,59.88023952,669e7b8d49d69303f41baed1,68817205a84113384fffdfe3,689b8afe70fca76d4d448898,,,,,,,,,,,,,1,,,,,,,,,,,,,,,,,,,,,,,,,,,,,,,,,,,,,89,prisa,,,,,324.238,325.2714,1,1,0.5245,,0,14,14,88,1,REAL,FAKE,,,,,,,,,,,,,,,,,
,,,,,,,,,669e7b8d49d69303f41baed1,spanish,13 or older,"no, only English or Spanish",yes,2025-08-12_14h42.32.179,empathy_intonation_perc_control,2024.2.4,Win32,59.88023952,669e7b8d49d69303f41baed1,68817205a84113384fffdfe3,689b8afe70fca76d4d448898,,,,,,,,,,,,,1,,,,,,,,,,,,,,,,,,,,,,,,,,,,,,,,,,,,,80,hormiga,,,,,325.272,326.4724,1,1,0.686,,0,15,15,79,1,REAL,FAKE,,,,,,,,,,,,,,,,,
,,,,,,,,,669e7b8d49d69303f41baed1,spanish,13 or older,"no, only English or Spanish",yes,2025-08-12_14h42.32.179,empathy_intonation_perc_control,2024.2.4,Win32,59.88023952,669e7b8d49d69303f41baed1,68817205a84113384fffdfe3,689b8afe70fca76d4d448898,,,,,,,,,,,,,1,,,,,,,,,,,,,,,,,,,,,,,,,,,,,,,,,,,,,2,pellizcar,,,,,326.4732,328.9746,0,0,1.9683,,0,16,16,1,1,REAL,FAKE,,,,,,,,,,,,,,,,,
,,,,,,,,,669e7b8d49d69303f41baed1,spanish,13 or older,"no, only English or Spanish",yes,2025-08-12_14h42.32.179,empathy_intonation_perc_control,2024.2.4,Win32,59.88023952,669e7b8d49d69303f41baed1,68817205a84113384fffdfe3,689b8afe70fca76d4d448898,,,,,,,,,,,,,1,,,,,,,,,,,,,,,,,,,,,,,,,,,,,,,,,,,,,13,helar,,,,,328.9752,330.0754,0,0,0.5812,,0,17,17,12,1,REAL,FAKE,,,,,,,,,,,,,,,,,
,,,,,,,,,669e7b8d49d69303f41baed1,spanish,13 or older,"no, only English or Spanish",yes,2025-08-12_14h42.32.179,empathy_intonation_perc_control,2024.2.4,Win32,59.88023952,669e7b8d49d69303f41baed1,68817205a84113384fffdfe3,689b8afe70fca76d4d448898,,,,,,,,,,,,,1,,,,,,,,,,,,,,,,,,,,,,,,,,,,,,,,,,,,,38,estornudar,,,,,330.0762,331.0262,1,1,0.4268,,0,18,18,37,1,REAL,FAKE,,,,,,,,,,,,,,,,,
,,,,,,,,,669e7b8d49d69303f41baed1,spanish,13 or older,"no, only English or Spanish",yes,2025-08-12_14h42.32.179,empathy_intonation_perc_control,2024.2.4,Win32,59.88023952,669e7b8d49d69303f41baed1,68817205a84113384fffdfe3,689b8afe70fca76d4d448898,,,,,,,,,,,,,1,,,,,,,,,,,,,,,,,,,,,,,,,,,,,,,,,,,,,34,aviso,,,,,331.0268,332.0603,1,1,0.5217,,0,19,19,33,1,REAL,FAKE,,,,,,,,,,,,,,,,,
,,,,,,,,,669e7b8d49d69303f41baed1,spanish,13 or older,"no, only English or Spanish",yes,2025-08-12_14h42.32.179,empathy_intonation_perc_control,2024.2.4,Win32,59.88023952,669e7b8d49d69303f41baed1,68817205a84113384fffdfe3,689b8afe70fca76d4d448898,,,,,,,,,,,,,0,,,,,,,,,,,,,,,,,,,,,,,,,,,,,,,,,,,,,30,alardio,,,,,332.0609,333.1281,0,1,0.5477,,0,20,20,29,1,REAL,FAKE,,,,,,,,,,,,,,,,,
,,,,,,,,,669e7b8d49d69303f41baed1,spanish,13 or older,"no, only English or Spanish",yes,2025-08-12_14h42.32.179,empathy_intonation_perc_control,2024.2.4,Win32,59.88023952,669e7b8d49d69303f41baed1,68817205a84113384fffdfe3,689b8afe70fca76d4d448898,,,,,,,,,,,,,0,,,,,,,,,,,,,,,,,,,,,,,,,,,,,,,,,,,,,58,plaudir,,,,,333.1287,334.0286,0,1,0.3628,,0,21,21,57,1,REAL,FAKE,,,,,,,,,,,,,,,,,
,,,,,,,,,669e7b8d49d69303f41baed1,spanish,13 or older,"no, only English or Spanish",yes,2025-08-12_14h42.32.179,empathy_intonation_perc_control,2024.2.4,Win32,59.88023952,669e7b8d49d69303f41baed1,68817205a84113384fffdfe3,689b8afe70fca76d4d448898,,,,,,,,,,,,,1,,,,,,,,,,,,,,,,,,,,,,,,,,,,,,,,,,,,,57,tacaño,,,,,334.0294,335.9135,0,0,1.3634,,0,22,22,56,1,REAL,FAKE,,,,,,,,,,,,,,,,,
,,,,,,,,,669e7b8d49d69303f41baed1,spanish,13 or older,"no, only English or Spanish",yes,2025-08-12_14h42.32.179,empathy_intonation_perc_control,2024.2.4,Win32,59.88023952,669e7b8d49d69303f41baed1,68817205a84113384fffdfe3,689b8afe70fca76d4d448898,,,,,,,,,,,,,1,,,,,,,,,,,,,,,,,,,,,,,,,,,,,,,,,,,,,45,jilguero,,,,,335.9141,337.0644,0,0,0.6322,,0,23,23,44,1,REAL,FAKE,,,,,,,,,,,,,,,,,
,,,,,,,,,669e7b8d49d69303f41baed1,spanish,13 or older,"no, only English or Spanish",yes,2025-08-12_14h42.32.179,empathy_intonation_perc_control,2024.2.4,Win32,59.88023952,669e7b8d49d69303f41baed1,68817205a84113384fffdfe3,689b8afe70fca76d4d448898,,,,,,,,,,,,,1,,,,,,,,,,,,,,,,,,,,,,,,,,,,,,,,,,,,,28,merodear,,,,,337.065,343.0693,0,0,5.4946,,0,24,24,27,1,REAL,FAKE,,,,,,,,,,,,,,,,,
,,,,,,,,,669e7b8d49d69303f41baed1,spanish,13 or older,"no, only English or Spanish",yes,2025-08-12_14h42.32.179,empathy_intonation_perc_control,2024.2.4,Win32,59.88023952,669e7b8d49d69303f41baed1,68817205a84113384fffdfe3,689b8afe70fca76d4d448898,,,,,,,,,,,,,1,,,,,,,,,,,,,,,,,,,,,,,,,,,,,,,,,,,,,88,acantilado,,,,,343.0702,344.337,0,0,0.754,,0,25,25,87,1,REAL,FAKE,,,,,,,,,,,,,,,,,
,,,,,,,,,669e7b8d49d69303f41baed1,spanish,13 or older,"no, only English or Spanish",yes,2025-08-12_14h42.32.179,empathy_intonation_perc_control,2024.2.4,Win32,59.88023952,669e7b8d49d69303f41baed1,68817205a84113384fffdfe3,689b8afe70fca76d4d448898,,,,,,,,,,,,,1,,,,,,,,,,,,,,,,,,,,,,,,,,,,,,,,,,,,,7,pésimo,,,,,344.3377,345.5548,0,0,0.704,,0,26,26,6,1,REAL,FAKE,,,,,,,,,,,,,,,,,
,,,,,,,,,669e7b8d49d69303f41baed1,spanish,13 or older,"no, only English or Spanish",yes,2025-08-12_14h42.32.179,empathy_intonation_perc_control,2024.2.4,Win32,59.88023952,669e7b8d49d69303f41baed1,68817205a84113384fffdfe3,689b8afe70fca76d4d448898,,,,,,,,,,,,,0,,,,,,,,,,,,,,,,,,,,,,,,,,,,,,,,,,,,,1,terzo,,,,,345.5555,346.5557,1,0,0.4698,,0,27,27,0,1,REAL,FAKE,,,,,,,,,,,,,,,,,
,,,,,,,,,669e7b8d49d69303f41baed1,spanish,13 or older,"no, only English or Spanish",yes,2025-08-12_14h42.32.179,empathy_intonation_perc_control,2024.2.4,Win32,59.88023952,669e7b8d49d69303f41baed1,68817205a84113384fffdfe3,689b8afe70fca76d4d448898,,,,,,,,,,,,,1,,,,,,,,,,,,,,,,,,,,,,,,,,,,,,,,,,,,,83,guante,,,,,346.5564,347.5396,1,1,0.4609,,0,28,28,82,1,REAL,FAKE,,,,,,,,,,,,,,,,,
,,,,,,,,,669e7b8d49d69303f41baed1,spanish,13 or older,"no, only English or Spanish",yes,2025-08-12_14h42.32.179,empathy_intonation_perc_control,2024.2.4,Win32,59.88023952,669e7b8d49d69303f41baed1,68817205a84113384fffdfe3,689b8afe70fca76d4d448898,,,,,,,,,,,,,0,,,,,,,,,,,,,,,,,,,,,,,,,,,,,,,,,,,,,21,capillo,,,,,347.5402,348.6239,1,0,0.5665,,0,29,29,20,1,REAL,FAKE,,,,,,,,,,,,,,,,,
,,,,,,,,,669e7b8d49d69303f41baed1,spanish,13 or older,"no, only English or Spanish",yes,2025-08-12_14h42.32.179,empathy_intonation_perc_control,2024.2.4,Win32,59.88023952,669e7b8d49d69303f41baed1,68817205a84113384fffdfe3,689b8afe70fca76d4d448898,,,,,,,,,,,,,1,,,,,,,,,,,,,,,,,,,,,,,,,,,,,,,,,,,,,25,bisagra,,,,,348.6247,349.5914,0,0,0.4413,,0,30,30,24,1,REAL,FAKE,,,,,,,,,,,,,,,,,
,,,,,,,,,669e7b8d49d69303f41baed1,spanish,13 or older,"no, only English or Spanish",yes,2025-08-12_14h42.32.179,empathy_intonation_perc_control,2024.2.4,Win32,59.88023952,669e7b8d49d69303f41baed1,68817205a84113384fffdfe3,689b8afe70fca76d4d448898,,,,,,,,,,,,,1,,,,,,,,,,,,,,,,,,,,,,,,,,,,,,,,,,,,,75,yacer,,,,,349.5924,350.5088,1,1,0.3963,,0,31,31,74,1,REAL,FAKE,,,,,,,,,,,,,,,,,
,,,,,,,,,669e7b8d49d69303f41baed1,spanish,13 or older,"no, only English or Spanish",yes,2025-08-12_14h42.32.179,empathy_intonation_perc_control,2024.2.4,Win32,59.88023952,669e7b8d49d69303f41baed1,68817205a84113384fffdfe3,689b8afe70fca76d4d448898,,,,,,,,,,,,,1,,,,,,,,,,,,,,,,,,,,,,,,,,,,,,,,,,,,,86,barato,,,,,350.5096,351.8598,1,1,0.8218,,0,32,32,85,1,REAL,FAKE,,,,,,,,,,,,,,,,,
,,,,,,,,,669e7b8d49d69303f41baed1,spanish,13 or older,"no, only English or Spanish",yes,2025-08-12_14h42.32.179,empathy_intonation_perc_control,2024.2.4,Win32,59.88023952,669e7b8d49d69303f41baed1,68817205a84113384fffdfe3,689b8afe70fca76d4d448898,,,,,,,,,,,,,1,,,,,,,,,,,,,,,,,,,,,,,,,,,,,,,,,,,,,12,asesinato,,,,,351.8603,353.0943,0,0,0.7217,,0,33,33,11,1,REAL,FAKE,,,,,,,,,,,,,,,,,
,,,,,,,,,669e7b8d49d69303f41baed1,spanish,13 or older,"no, only English or Spanish",yes,2025-08-12_14h42.32.179,empathy_intonation_perc_control,2024.2.4,Win32,59.88023952,669e7b8d49d69303f41baed1,68817205a84113384fffdfe3,689b8afe70fca76d4d448898,,,,,,,,,,,,,0,,,,,,,,,,,,,,,,,,,,,,,,,,,,,,,,,,,,,17,floroso,,,,,353.095,354.9459,1,0,1.3194,,0,34,34,16,1,REAL,FAKE,,,,,,,,,,,,,,,,,
,,,,,,,,,669e7b8d49d69303f41baed1,spanish,13 or older,"no, only English or Spanish",yes,2025-08-12_14h42.32.179,empathy_intonation_perc_control,2024.2.4,Win32,59.88023952,669e7b8d49d69303f41baed1,68817205a84113384fffdfe3,689b8afe70fca76d4d448898,,,,,,,,,,,,,0,,,,,,,,,,,,,,,,,,,,,,,,,,,,,,,,,,,,,63,esposante,,,,,354.9464,356.1468,1,0,0.6928,,0,35,35,62,1,REAL,FAKE,,,,,,,,,,,,,,,,,
,,,,,,,,,669e7b8d49d69303f41baed1,spanish,13 or older,"no, only English or Spanish",yes,2025-08-12_14h42.32.179,empathy_intonation_perc_control,2024.2.4,Win32,59.88023952,669e7b8d49d69303f41baed1,68817205a84113384fffdfe3,689b8afe70fca76d4d448898,,,,,,,,,,,,,1,,,,,,,,,,,,,,,,,,,,,,,,,,,,,,,,,,,,,59,besar,,,,,356.1476,357.4144,1,1,0.7575,,0,36,36,58,1,REAL,FAKE,,,,,,,,,,,,,,,,,
,,,,,,,,,669e7b8d49d69303f41baed1,spanish,13 or older,"no, only English or Spanish",yes,2025-08-12_14h42.32.179,empathy_intonation_perc_control,2024.2.4,Win32,59.88023952,669e7b8d49d69303f41baed1,68817205a84113384fffdfe3,689b8afe70fca76d4d448898,,,,,,,,,,,,,1,,,,,,,,,,,,,,,,,,,,,,,,,,,,,,,,,,,,,69,engatusar,,,,,357.4149,359.2493,0,0,1.3078,,0,37,37,68,1,REAL,FAKE,,,,,,,,,,,,,,,,,
,,,,,,,,,669e7b8d49d69303f41baed1,spanish,13 or older,"no, only English or Spanish",yes,2025-08-12_14h42.32.179,empathy_intonation_perc_control,2024.2.4,Win32,59.88023952,669e7b8d49d69303f41baed1,68817205a84113384fffdfe3,689b8afe70fca76d4d448898,,,,,,,,,,,,,1,,,,,,,,,,,,,,,,,,,,,,,,,,,,,,,,,,,,,48,ladrón,,,,,359.2498,360.2834,0,0,0.5181,,0,38,38,47,1,REAL,FAKE,,,,,,,,,,,,,,,,,
,,,,,,,,,669e7b8d49d69303f41baed1,spanish,13 or older,"no, only English or Spanish",yes,2025-08-12_14h42.32.179,empathy_intonation_perc_control,2024.2.4,Win32,59.88023952,669e7b8d49d69303f41baed1,68817205a84113384fffdfe3,689b8afe70fca76d4d448898,,,,,,,,,,,,,1,,,,,,,,,,,,,,,,,,,,,,,,,,,,,,,,,,,,,39,torpe,,,,,360.2842,361.2341,1,1,0.4303,,0,39,39,38,1,REAL,FAKE,,,,,,,,,,,,,,,,,
,,,,,,,,,669e7b8d49d69303f41baed1,spanish,13 or older,"no, only English or Spanish",yes,2025-08-12_14h42.32.179,empathy_intonation_perc_control,2024.2.4,Win32,59.88023952,669e7b8d49d69303f41baed1,68817205a84113384fffdfe3,689b8afe70fca76d4d448898,,,,,,,,,,,,,1,,,,,,,,,,,,,,,,,,,,,,,,,,,,,,,,,,,,,67,cabello,,,,,361.2348,361.9515,0,0,0.1987,,0,40,40,66,1,REAL,FAKE,,,,,,,,,,,,,,,,,
,,,,,,,,,669e7b8d49d69303f41baed1,spanish,13 or older,"no, only English or Spanish",yes,2025-08-12_14h42.32.179,empathy_intonation_perc_control,2024.2.4,Win32,59.88023952,669e7b8d49d69303f41baed1,68817205a84113384fffdfe3,689b8afe70fca76d4d448898,,,,,,,,,,,,,1,,,,,,,,,,,,,,,,,,,,,,,,,,,,,,,,,,,,,62,flaco,,,,,361.9522,362.6354,0,0,0.1779,,0,41,41,61,1,REAL,FAKE,,,,,,,,,,,,,,,,,
,,,,,,,,,669e7b8d49d69303f41baed1,spanish,13 or older,"no, only English or Spanish",yes,2025-08-12_14h42.32.179,empathy_intonation_perc_control,2024.2.4,Win32,59.88023952,669e7b8d49d69303f41baed1,68817205a84113384fffdfe3,689b8afe70fca76d4d448898,,,,,,,,,,,,,1,,,,,,,,,,,,,,,,,,,,,,,,,,,,,,,,,,,,,31,pandilla,,,,,362.6359,363.1525,1,1,0.0003,,0,42,42,30,1,REAL,FAKE,,,,,,,,,,,,,,,,,
,,,,,,,,,669e7b8d49d69303f41baed1,spanish,13 or older,"no, only English or Spanish",yes,2025-08-12_14h42.32.179,empathy_intonation_perc_control,2024.2.4,Win32,59.88023952,669e7b8d49d69303f41baed1,68817205a84113384fffdfe3,689b8afe70fca76d4d448898,,,,,,,,,,,,,0,,,,,,,,,,,,,,,,,,,,,,,,,,,,,,,,,,,,,8,cadeña,,,,,363.153,365.7047,1,0,2.0443,,0,43,43,7,1,REAL,FAKE,,,,,,,,,,,,,,,,,
,,,,,,,,,669e7b8d49d69303f41baed1,spanish,13 or older,"no, only English or Spanish",yes,2025-08-12_14h42.32.179,empathy_intonation_perc_control,2024.2.4,Win32,59.88023952,669e7b8d49d69303f41baed1,68817205a84113384fffdfe3,689b8afe70fca76d4d448898,,,,,,,,,,,,,1,,,,,,,,,,,,,,,,,,,,,,,,,,,,,,,,,,,,,56,musgo,,,,,365.7055,366.6219,1,1,0.3813,,0,44,44,55,1,REAL,FAKE,,,,,,,,,,,,,,,,,
,,,,,,,,,669e7b8d49d69303f41baed1,spanish,13 or older,"no, only English or Spanish",yes,2025-08-12_14h42.32.179,empathy_intonation_perc_control,2024.2.4,Win32,59.88023952,669e7b8d49d69303f41baed1,68817205a84113384fffdfe3,689b8afe70fca76d4d448898,,,,,,,,,,,,,1,,,,,,,,,,,,,,,,,,,,,,,,,,,,,,,,,,,,,49,ganar,,,,,366.6225,368.6736,1,1,1.5337,,0,45,45,48,1,REAL,FAKE,,,,,,,,,,,,,,,,,
,,,,,,,,,669e7b8d49d69303f41baed1,spanish,13 or older,"no, only English or Spanish",yes,2025-08-12_14h42.32.179,empathy_intonation_perc_control,2024.2.4,Win32,59.88023952,669e7b8d49d69303f41baed1,68817205a84113384fffdfe3,689b8afe70fca76d4d448898,,,,,,,,,,,,,1,,,,,,,,,,,,,,,,,,,,,,,,,,,,,,,,,,,,,73,hervidor,,,,,368.6744,370.2583,0,0,1.0648,,0,46,46,72,1,REAL,FAKE,,,,,,,,,,,,,,,,,
,,,,,,,,,669e7b8d49d69303f41baed1,spanish,13 or older,"no, only English or Spanish",yes,2025-08-12_14h42.32.179,empathy_intonation_perc_control,2024.2.4,Win32,59.88023952,669e7b8d49d69303f41baed1,68817205a84113384fffdfe3,689b8afe70fca76d4d448898,,,,,,,,,,,,,0,,,,,,,,,,,,,,,,,,,,,,,,,,,,,,,,,,,,,87,grodo,,,,,370.2591,372.0097,0,1,1.2167,,0,47,47,86,1,REAL,FAKE,,,,,,,,,,,,,,,,,
,,,,,,,,,669e7b8d49d69303f41baed1,spanish,13 or older,"no, only English or Spanish",yes,2025-08-12_14h42.32.179,empathy_intonation_perc_control,2024.2.4,Win32,59.88023952,669e7b8d49d69303f41baed1,68817205a84113384fffdfe3,689b8afe70fca76d4d448898,,,,,,,,,,,,,0,,,,,,,,,,,,,,,,,,,,,,,,,,,,,,,,,,,,,23,lampera,,,,,372.0104,373.0438,1,0,0.5158,,0,48,48,22,1,REAL,FAKE,,,,,,,,,,,,,,,,,
,,,,,,,,,669e7b8d49d69303f41baed1,spanish,13 or older,"no, only English or Spanish",yes,2025-08-12_14h42.32.179,empathy_intonation_perc_control,2024.2.4,Win32,59.88023952,669e7b8d49d69303f41baed1,68817205a84113384fffdfe3,689b8afe70fca76d4d448898,,,,,,,,,,,,,1,,,,,,,,,,,,,,,,,,,,,,,,,,,,,,,,,,,,,43,canela,,,,,373.0446,374.0282,1,1,0.4634,,0,49,49,42,1,REAL,FAKE,,,,,,,,,,,,,,,,,
,,,,,,,,,669e7b8d49d69303f41baed1,spanish,13 or older,"no, only English or Spanish",yes,2025-08-12_14h42.32.179,empathy_intonation_perc_control,2024.2.4,Win32,59.88023952,669e7b8d49d69303f41baed1,68817205a84113384fffdfe3,689b8afe70fca76d4d448898,,,,,,,,,,,,,0,,,,,,,,,,,,,,,,,,,,,,,,,,,,,,,,,,,,,47,cartinar,,,,,374.0291,375.3125,0,1,0.7508,,0,50,50,46,1,REAL,FAKE,,,,,,,,,,,,,,,,,
,,,,,,,,,669e7b8d49d69303f41baed1,spanish,13 or older,"no, only English or Spanish",yes,2025-08-12_14h42.32.179,empathy_intonation_perc_control,2024.2.4,Win32,59.88023952,669e7b8d49d69303f41baed1,68817205a84113384fffdfe3,689b8afe70fca76d4d448898,,,,,,,,,,,,,1,,,,,,,,,,,,,,,,,,,,,,,,,,,,,,,,,,,,,26,secuestro,,,,,375.3132,376.9304,0,0,1.103,,0,51,51,25,1,REAL,FAKE,,,,,,,,,,,,,,,,,
,,,,,,,,,669e7b8d49d69303f41baed1,spanish,13 or older,"no, only English or Spanish",yes,2025-08-12_14h42.32.179,empathy_intonation_perc_control,2024.2.4,Win32,59.88023952,669e7b8d49d69303f41baed1,68817205a84113384fffdfe3,689b8afe70fca76d4d448898,,,,,,,,,,,,,1,,,,,,,,,,,,,,,,,,,,,,,,,,,,,,,,,,,,,85,laúd,,,,,376.9313,378.899,0,0,1.455,,0,52,52,84,1,REAL,FAKE,,,,,,,,,,,,,,,,,
,,,,,,,,,669e7b8d49d69303f41baed1,spanish,13 or older,"no, only English or Spanish",yes,2025-08-12_14h42.32.179,empathy_intonation_perc_control,2024.2.4,Win32,59.88023952,669e7b8d49d69303f41baed1,68817205a84113384fffdfe3,689b8afe70fca76d4d448898,,,,,,,,,,,,,0,,,,,,,,,,,,,,,,,,,,,,,,,,,,,,,,,,,,,19,brecedad,,,,,378.9,380.2165,1,0,0.7902,,0,53,53,18,1,REAL,FAKE,,,,,,,,,,,,,,,,,
,,,,,,,,,669e7b8d49d69303f41baed1,spanish,13 or older,"no, only English or Spanish",yes,2025-08-12_14h42.32.179,empathy_intonation_perc_control,2024.2.4,Win32,59.88023952,669e7b8d49d69303f41baed1,68817205a84113384fffdfe3,689b8afe70fca76d4d448898,,,,,,,,,,,,,1,,,,,,,,,,,,,,,,,,,,,,,,,,,,,,,,,,,,,9,hacha,,,,,380.2172,383.4189,0,0,2.6969,,0,54,54,8,1,REAL,FAKE,,,,,,,,,,,,,,,,,
,,,,,,,,,669e7b8d49d69303f41baed1,spanish,13 or older,"no, only English or Spanish",yes,2025-08-12_14h42.32.179,empathy_intonation_perc_control,2024.2.4,Win32,59.88023952,669e7b8d49d69303f41baed1,68817205a84113384fffdfe3,689b8afe70fca76d4d448898,,,,,,,,,,,,,1,,,,,,,,,,,,,,,,,,,,,,,,,,,,,,,,,,,,,6,tergiversar,,,,,383.4196,384.3198,0,0,0.3709,,0,55,55,5,1,REAL,FAKE,,,,,,,,,,,,,,,,,
,,,,,,,,,669e7b8d49d69303f41baed1,spanish,13 or older,"no, only English or Spanish",yes,2025-08-12_14h42.32.179,empathy_intonation_perc_control,2024.2.4,Win32,59.88023952,669e7b8d49d69303f41baed1,68817205a84113384fffdfe3,689b8afe70fca76d4d448898,,,,,,,,,,,,,1,,,,,,,,,,,,,,,,,,,,,,,,,,,,,,,,,,,,,46,martillo,,,,,384.3204,385.0202,1,1,0.1812,,0,56,56,45,1,REAL,FAKE,,,,,,,,,,,,,,,,,
,,,,,,,,,669e7b8d49d69303f41baed1,spanish,13 or older,"no, only English or Spanish",yes,2025-08-12_14h42.32.179,empathy_intonation_perc_control,2024.2.4,Win32,59.88023952,669e7b8d49d69303f41baed1,68817205a84113384fffdfe3,689b8afe70fca76d4d448898,,,,,,,,,,,,,0,,,,,,,,,,,,,,,,,,,,,,,,,,,,,,,,,,,,,10,antar,,,,,385.0207,385.6375,0,1,0.0975,,0,57,57,9,1,REAL,FAKE,,,,,,,,,,,,,,,,,
,,,,,,,,,669e7b8d49d69303f41baed1,spanish,13 or older,"no, only English or Spanish",yes,2025-08-12_14h42.32.179,empathy_intonation_perc_control,2024.2.4,Win32,59.88023952,669e7b8d49d69303f41baed1,68817205a84113384fffdfe3,689b8afe70fca76d4d448898,,,,,,,,,,,,,1,,,,,,,,,,,,,,,,,,,,,,,,,,,,,,,,,,,,,54,fomentar,,,,,385.6384,386.2213,0,0,0.0562,,0,58,58,53,1,REAL,FAKE,,,,,,,,,,,,,,,,,
,,,,,,,,,669e7b8d49d69303f41baed1,spanish,13 or older,"no, only English or Spanish",yes,2025-08-12_14h42.32.179,empathy_intonation_perc_control,2024.2.4,Win32,59.88023952,669e7b8d49d69303f41baed1,68817205a84113384fffdfe3,689b8afe70fca76d4d448898,,,,,,,,,,,,,1,,,,,,,,,,,,,,,,,,,,,,,,,,,,,,,,,,,,,65,bizcocho,,,,,386.2219,386.8553,1,1,0.1131,,0,59,59,64,1,REAL,FAKE,,,,,,,,,,,,,,,,,
,,,,,,,,,669e7b8d49d69303f41baed1,spanish,13 or older,"no, only English or Spanish",yes,2025-08-12_14h42.32.179,empathy_intonation_perc_control,2024.2.4,Win32,59.88023952,669e7b8d49d69303f41baed1,68817205a84113384fffdfe3,689b8afe70fca76d4d448898,,,,,,,,,,,,,1,,,,,,,,,,,,,,,,,,,,,,,,,,,,,,,,,,,,,37,granuja,,,,,386.8559,388.3069,1,1,0.9136,,0,60,60,36,1,REAL,FAKE,,,,,,,,,,,,,,,,,
,,,,,,,,,669e7b8d49d69303f41baed1,spanish,13 or older,"no, only English or Spanish",yes,2025-08-12_14h42.32.179,empathy_intonation_perc_control,2024.2.4,Win32,59.88023952,669e7b8d49d69303f41baed1,68817205a84113384fffdfe3,689b8afe70fca76d4d448898,,,,,,,,,,,,,1,,,,,,,,,,,,,,,,,,,,,,,,,,,,,,,,,,,,,68,alegre,,,,,388.3077,389.4573,1,1,0.6274,,0,61,61,67,1,REAL,FAKE,,,,,,,,,,,,,,,,,
,,,,,,,,,669e7b8d49d69303f41baed1,spanish,13 or older,"no, only English or Spanish",yes,2025-08-12_14h42.32.179,empathy_intonation_perc_control,2024.2.4,Win32,59.88023952,669e7b8d49d69303f41baed1,68817205a84113384fffdfe3,689b8afe70fca76d4d448898,,,,,,,,,,,,,0,,,,,,,,,,,,,,,,,,,,,,,,,,,,,,,,,,,,,42,cadallo,,,,,389.4582,390.8084,0,1,0.8093,,0,62,62,41,1,REAL,FAKE,,,,,,,,,,,,,,,,,
,,,,,,,,,669e7b8d49d69303f41baed1,spanish,13 or older,"no, only English or Spanish",yes,2025-08-12_14h42.32.179,empathy_intonation_perc_control,2024.2.4,Win32,59.88023952,669e7b8d49d69303f41baed1,68817205a84113384fffdfe3,689b8afe70fca76d4d448898,,,,,,,,,,,,,1,,,,,,,,,,,,,,,,,,,,,,,,,,,,,,,,,,,,,71,polvoriento,,,,,390.809,391.7425,0,0,0.4114,,0,63,63,70,1,REAL,FAKE,,,,,,,,,,,,,,,,,
,,,,,,,,,669e7b8d49d69303f41baed1,spanish,13 or older,"no, only English or Spanish",yes,2025-08-12_14h42.32.179,empathy_intonation_perc_control,2024.2.4,Win32,59.88023952,669e7b8d49d69303f41baed1,68817205a84113384fffdfe3,689b8afe70fca76d4d448898,,,,,,,,,,,,,1,,,,,,,,,,,,,,,,,,,,,,,,,,,,,,,,,,,,,76,atar,,,,,391.7431,392.5933,1,1,0.3406,,0,64,64,75,1,REAL,FAKE,,,,,,,,,,,,,,,,,
,,,,,,,,,669e7b8d49d69303f41baed1,spanish,13 or older,"no, only English or Spanish",yes,2025-08-12_14h42.32.179,empathy_intonation_perc_control,2024.2.4,Win32,59.88023952,669e7b8d49d69303f41baed1,68817205a84113384fffdfe3,689b8afe70fca76d4d448898,,,,,,,,,,,,,1,,,,,,,,,,,,,,,,,,,,,,,,,,,,,,,,,,,,,22,lacayo,,,,,392.5941,393.5108,0,0,0.3962,,0,65,65,21,1,REAL,FAKE,,,,,,,,,,,,,,,,,
,,,,,,,,,669e7b8d49d69303f41baed1,spanish,13 or older,"no, only English or Spanish",yes,2025-08-12_14h42.32.179,empathy_intonation_perc_control,2024.2.4,Win32,59.88023952,669e7b8d49d69303f41baed1,68817205a84113384fffdfe3,689b8afe70fca76d4d448898,,,,,,,,,,,,,0,,,,,,,,,,,,,,,,,,,,,,,,,,,,,,,,,,,,,79,tropaje,,,,,393.5117,394.3612,0,1,0.3179,,0,66,66,78,1,REAL,FAKE,,,,,,,,,,,,,,,,,
,,,,,,,,,669e7b8d49d69303f41baed1,spanish,13 or older,"no, only English or Spanish",yes,2025-08-12_14h42.32.179,empathy_intonation_perc_control,2024.2.4,Win32,59.88023952,669e7b8d49d69303f41baed1,68817205a84113384fffdfe3,689b8afe70fca76d4d448898,,,,,,,,,,,,,1,,,,,,,,,,,,,,,,,,,,,,,,,,,,,,,,,,,,,36,loro,,,,,394.3618,395.3288,1,1,0.4529,,0,67,67,35,1,REAL,FAKE,,,,,,,,,,,,,,,,,
,,,,,,,,,669e7b8d49d69303f41baed1,spanish,13 or older,"no, only English or Spanish",yes,2025-08-12_14h42.32.179,empathy_intonation_perc_control,2024.2.4,Win32,59.88023952,669e7b8d49d69303f41baed1,68817205a84113384fffdfe3,689b8afe70fca76d4d448898,,,,,,,,,,,,,1,,,,,,,,,,,,,,,,,,,,,,,,,,,,,,,,,,,,,20,ávido,,,,,395.3296,396.0962,0,0,0.2351,,0,68,68,19,1,REAL,FAKE,,,,,,,,,,,,,,,,,
,,,,,,,,,669e7b8d49d69303f41baed1,spanish,13 or older,"no, only English or Spanish",yes,2025-08-12_14h42.32.179,empathy_intonation_perc_control,2024.2.4,Win32,59.88023952,669e7b8d49d69303f41baed1,68817205a84113384fffdfe3,689b8afe70fca76d4d448898,,,,,,,,,,,,,1,,,,,,,,,,,,,,,,,,,,,,,,,,,,,,,,,,,,,41,rebuscar,,,,,396.0968,396.7966,0,0,0.1843,,0,69,69,40,1,REAL,FAKE,,,,,,,,,,,,,,,,,
,,,,,,,,,669e7b8d49d69303f41baed1,spanish,13 or older,"no, only English or Spanish",yes,2025-08-12_14h42.32.179,empathy_intonation_perc_control,2024.2.4,Win32,59.88023952,669e7b8d49d69303f41baed1,68817205a84113384fffdfe3,689b8afe70fca76d4d448898,,,,,,,,,,,,,1,,,,,,,,,,,,,,,,,,,,,,,,,,,,,,,,,,,,,61,seda,,,,,396.7974,397.3304,1,1,0.0201,,0,70,70,60,1,REAL,FAKE,,,,,,,,,,,,,,,,,
,,,,,,,,,669e7b8d49d69303f41baed1,spanish,13 or older,"no, only English or Spanish",yes,2025-08-12_14h42.32.179,empathy_intonation_perc_control,2024.2.4,Win32,59.88023952,669e7b8d49d69303f41baed1,68817205a84113384fffdfe3,689b8afe70fca76d4d448898,,,,,,,,,,,,,0,,,,,,,,,,,,,,,,,,,,,,,,,,,,,,,,,,,,,53,vegada,,,,,397.3312,398.2313,1,0,0.3637,,0,71,71,52,1,REAL,FAKE,,,,,,,,,,,,,,,,,
,,,,,,,,,669e7b8d49d69303f41baed1,spanish,13 or older,"no, only English or Spanish",yes,2025-08-12_14h42.32.179,empathy_intonation_perc_control,2024.2.4,Win32,59.88023952,669e7b8d49d69303f41baed1,68817205a84113384fffdfe3,689b8afe70fca76d4d448898,,,,,,,,,,,,,1,,,,,,,,,,,,,,,,,,,,,,,,,,,,,,,,,,,,,90,clavel,,,,,398.232,399.0651,0,0,0.3025,,0,72,72,89,1,REAL,FAKE,,,,,,,,,,,,,,,,,
,,,,,,,,,669e7b8d49d69303f41baed1,spanish,13 or older,"no, only English or Spanish",yes,2025-08-12_14h42.32.179,empathy_intonation_perc_control,2024.2.4,Win32,59.88023952,669e7b8d49d69303f41baed1,68817205a84113384fffdfe3,689b8afe70fca76d4d448898,,,,,,,,,,,,,1,,,,,,,,,,,,,,,,,,,,,,,,,,,,,,,,,,,,,64,orgulloso,,,,,399.0659,402.0025,0,0,2.4336,,0,73,73,63,1,REAL,FAKE,,,,,,,,,,,,,,,,,
,,,,,,,,,669e7b8d49d69303f41baed1,spanish,13 or older,"no, only English or Spanish",yes,2025-08-12_14h42.32.179,empathy_intonation_perc_control,2024.2.4,Win32,59.88023952,669e7b8d49d69303f41baed1,68817205a84113384fffdfe3,689b8afe70fca76d4d448898,,,,,,,,,,,,,1,,,,,,,,,,,,,,,,,,,,,,,,,,,,,,,,,,,,,77,tiburón,,,,,402.003,408.2394,0,0,5.6907,,0,74,74,76,1,REAL,FAKE,,,,,,,,,,,,,,,,,
,,,,,,,,,669e7b8d49d69303f41baed1,spanish,13 or older,"no, only English or Spanish",yes,2025-08-12_14h42.32.179,empathy_intonation_perc_control,2024.2.4,Win32,59.88023952,669e7b8d49d69303f41baed1,68817205a84113384fffdfe3,689b8afe70fca76d4d448898,,,,,,,,,,,,,1,,,,,,,,,,,,,,,,,,,,,,,,,,,,,,,,,,,,,81,pozo,,,,,408.2398,409.3736,1,1,0.6072,,0,75,75,80,1,REAL,FAKE,,,,,,,,,,,,,,,,,
,,,,,,,,,669e7b8d49d69303f41baed1,spanish,13 or older,"no, only English or Spanish",yes,2025-08-12_14h42.32.179,empathy_intonation_perc_control,2024.2.4,Win32,59.88023952,669e7b8d49d69303f41baed1,68817205a84113384fffdfe3,689b8afe70fca76d4d448898,,,,,,,,,,,,,1,,,,,,,,,,,,,,,,,,,,,,,,,,,,,,,,,,,,,91,click the 1 key.,,,,,409.3745,411.8422,1,1,1.9434,,0,76,76,90,1,REAL,FAKE,,,,,,,,,,,,,,,,,
,,,,,,,,,669e7b8d49d69303f41baed1,spanish,13 or older,"no, only English or Spanish",yes,2025-08-12_14h42.32.179,empathy_intonation_perc_control,2024.2.4,Win32,59.88023952,669e7b8d49d69303f41baed1,68817205a84113384fffdfe3,689b8afe70fca76d4d448898,,,,,,,,,,,,,0,,,,,,,,,,,,,,,,,,,,,,,,,,,,,,,,,,,,,50,flamida,,,,,411.8429,413.3435,1,0,0.979,,0,77,77,49,1,REAL,FAKE,,,,,,,,,,,,,,,,,
,,,,,,,,,669e7b8d49d69303f41baed1,spanish,13 or older,"no, only English or Spanish",yes,2025-08-12_14h42.32.179,empathy_intonation_perc_control,2024.2.4,Win32,59.88023952,669e7b8d49d69303f41baed1,68817205a84113384fffdfe3,689b8afe70fca76d4d448898,,,,,,,,,,,,,0,,,,,,,,,,,,,,,,,,,,,,,,,,,,,,,,,,,,,70,temblo,,,,,413.3441,415.2952,1,0,1.4355,,0,78,78,69,1,REAL,FAKE,,,,,,,,,,,,,,,,,
,,,,,,,,,669e7b8d49d69303f41baed1,spanish,13 or older,"no, only English or Spanish",yes,2025-08-12_14h42.32.179,empathy_intonation_perc_control,2024.2.4,Win32,59.88023952,669e7b8d49d69303f41baed1,68817205a84113384fffdfe3,689b8afe70fca76d4d448898,,,,,,,,,,,,,0,,,,,,,,,,,,,,,,,,,,,,,,,,,,,,,,,,,,,74,cintro,,,,,415.2957,416.4961,0,1,0.6891,,0,79,79,73,1,REAL,FAKE,,,,,,,,,,,,,,,,,
,,,,,,,,,669e7b8d49d69303f41baed1,spanish,13 or older,"no, only English or Spanish",yes,2025-08-12_14h42.32.179,empathy_intonation_perc_control,2024.2.4,Win32,59.88023952,669e7b8d49d69303f41baed1,68817205a84113384fffdfe3,689b8afe70fca76d4d448898,,,,,,,,,,,,,1,,,,,,,,,,,,,,,,,,,,,,,,,,,,,,,,,,,,,60,matar,,,,,416.4967,418.2641,0,0,1.257,,0,80,80,59,1,REAL,FAKE,,,,,,,,,,,,,,,,,
,,,,,,,,,669e7b8d49d69303f41baed1,spanish,13 or older,"no, only English or Spanish",yes,2025-08-12_14h42.32.179,empathy_intonation_perc_control,2024.2.4,Win32,59.88023952,669e7b8d49d69303f41baed1,68817205a84113384fffdfe3,689b8afe70fca76d4d448898,,,,,,,,,,,,,1,,,,,,,,,,,,,,,,,,,,,,,,,,,,,,,,,,,,,11,cenefa,,,,,418.2649,419.0483,1,1,0.2664,,0,81,81,10,1,REAL,FAKE,,,,,,,,,,,,,,,,,
,,,,,,,,,669e7b8d49d69303f41baed1,spanish,13 or older,"no, only English or Spanish",yes,2025-08-12_14h42.32.179,empathy_intonation_perc_control,2024.2.4,Win32,59.88023952,669e7b8d49d69303f41baed1,68817205a84113384fffdfe3,689b8afe70fca76d4d448898,,,,,,,,,,,,,1,,,,,,,,,,,,,,,,,,,,,,,,,,,,,,,,,,,,,78,frondoso,,,,,419.0493,419.7654,1,1,0.1887,,0,82,82,77,1,REAL,FAKE,,,,,,,,,,,,,,,,,
,,,,,,,,,669e7b8d49d69303f41baed1,spanish,13 or older,"no, only English or Spanish",yes,2025-08-12_14h42.32.179,empathy_intonation_perc_control,2024.2.4,Win32,59.88023952,669e7b8d49d69303f41baed1,68817205a84113384fffdfe3,689b8afe70fca76d4d448898,,,,,,,,,,,,,0,,,,,,,,,,,,,,,,,,,,,,,,,,,,,,,,,,,,,16,abracer,,,,,419.7661,420.2825,0,1,0.011,,0,83,83,15,1,REAL,FAKE,,,,,,,,,,,,,,,,,
,,,,,,,,,669e7b8d49d69303f41baed1,spanish,13 or older,"no, only English or Spanish",yes,2025-08-12_14h42.32.179,empathy_intonation_perc_control,2024.2.4,Win32,59.88023952,669e7b8d49d69303f41baed1,68817205a84113384fffdfe3,689b8afe70fca76d4d448898,,,,,,,,,,,,,1,,,,,,,,,,,,,,,,,,,,,,,,,,,,,,,,,,,,,52,camisa,,,,,420.2829,421.1165,0,0,0.3278,,0,84,84,51,1,REAL,FAKE,,,,,,,,,,,,,,,,,
,,,,,,,,,669e7b8d49d69303f41baed1,spanish,13 or older,"no, only English or Spanish",yes,2025-08-12_14h42.32.179,empathy_intonation_perc_control,2024.2.4,Win32,59.88023952,669e7b8d49d69303f41baed1,68817205a84113384fffdfe3,689b8afe70fca76d4d448898,,,,,,,,,,,,,0,,,,,,,,,,,,,,,,,,,,,,,,,,,,,,,,,,,,,92,click the 0 key.,,,,,421.1173,422.1681,0,1,0.5409,,0,85,85,91,1,REAL,FAKE,,,,,,,,,,,,,,,,,
,,,,,,,,,669e7b8d49d69303f41baed1,spanish,13 or older,"no, only English or Spanish",yes,2025-08-12_14h42.32.179,empathy_intonation_perc_control,2024.2.4,Win32,59.88023952,669e7b8d49d69303f41baed1,68817205a84113384fffdfe3,689b8afe70fca76d4d448898,,,,,,,,,,,,,0,,,,,,,,,,,,,,,,,,,,,,,,,,,,,,,,,,,,,66,hacido,,,,,422.1691,423.3517,1,0,0.6573,,0,86,86,65,1,REAL,FAKE,,,,,,,,,,,,,,,,,
,,,,,,,,,669e7b8d49d69303f41baed1,spanish,13 or older,"no, only English or Spanish",yes,2025-08-12_14h42.32.179,empathy_intonation_perc_control,2024.2.4,Win32,59.88023952,669e7b8d49d69303f41baed1,68817205a84113384fffdfe3,689b8afe70fca76d4d448898,,,,,,,,,,,,,1,,,,,,,,,,,,,,,,,,,,,,,,,,,,,,,,,,,,,14,yunque,,,,,423.3525,424.3358,0,0,0.4625,,0,87,87,13,1,REAL,FAKE,,,,,,,,,,,,,,,,,
,,,,,,,,,669e7b8d49d69303f41baed1,spanish,13 or older,"no, only English or Spanish",yes,2025-08-12_14h42.32.179,empathy_intonation_perc_control,2024.2.4,Win32,59.88023952,669e7b8d49d69303f41baed1,68817205a84113384fffdfe3,689b8afe70fca76d4d448898,,,,,,,,,,,,,1,,,,,,,,,,,,,,,,,,,,,,,,,,,,,,,,,,,,,44,cuchara,,,,,424.3363,425.4369,0,0,0.5941,,0,88,88,43,1,REAL,FAKE,,,,,,,,,,,,,,,,,
,,,,,,,,,669e7b8d49d69303f41baed1,spanish,13 or older,"no, only English or Spanish",yes,2025-08-12_14h42.32.179,empathy_intonation_perc_control,2024.2.4,Win32,59.88023952,669e7b8d49d69303f41baed1,68817205a84113384fffdfe3,689b8afe70fca76d4d448898,,,,,,,,,,,,,0,,,,,,,,,,,,,,,,,,,,,,,,,,,,,,,,,,,,,35,rompido,,,,,425.4376,426.4709,0,1,0.5081,,0,89,89,34,1,REAL,FAKE,,,,,,,,,,,,,,,,,
,,,,,,,,,669e7b8d49d69303f41baed1,spanish,13 or older,"no, only English or Spanish",yes,2025-08-12_14h42.32.179,empathy_intonation_perc_control,2024.2.4,Win32,59.88023952,669e7b8d49d69303f41baed1,68817205a84113384fffdfe3,689b8afe70fca76d4d448898,,,,,,,,,,,,,0,,,,,,,,,,,,,,,,,,,,,,,,,,,,,,,,,,,,,29,decar,,,,,426.4716,427.5051,1,0,0.5227,,0,90,90,28,1,REAL,FAKE,,,,,,,,,,,,,,,,,
,,,,,,,,,669e7b8d49d69303f41baed1,spanish,13 or older,"no, only English or Spanish",yes,2025-08-12_14h42.32.179,empathy_intonation_perc_control,2024.2.4,Win32,59.88023952,669e7b8d49d69303f41baed1,68817205a84113384fffdfe3,689b8afe70fca76d4d448898,,,,,,,,,,,,,0,,,,,,,,,,,,,,,,,,,,,,,,,,,,,,,,,,,,,33,pauca,,,,,427.5056,428.4393,0,1,0.4237,,0,91,91,32,1,REAL,FAKE,,,,,,,,,,,,,,,,,
,,,,,,,,,669e7b8d49d69303f41baed1,spanish,13 or older,"no, only English or Spanish",yes,2025-08-12_14h42.32.179,empathy_intonation_perc_control,2024.2.4,Win32,59.88023952,669e7b8d49d69303f41baed1,68817205a84113384fffdfe3,689b8afe70fca76d4d448898,,,,,,,,,,,,,,,,,,,,,,,,,,,,,,,,,,,,,,,,,,,,,,,,,,,,,,,,,,,,,,,,,,,,,428.4395,432.576,,,,,,,,,,,,,,,
,,,,,,,,,669e7b8d49d69303f41baed1,spanish,13 or older,"no, only English or Spanish",yes,2025-08-12_14h42.32.179,empathy_intonation_perc_control,2024.2.4,Win32,59.88023952,669e7b8d49d69303f41baed1,68817205a84113384fffdfe3,689b8afe70fca76d4d448898,,,,,,,,,,,,,,,,,,,,,,,,,,,1,,,,,,,,,,,,,,,,,,,,,,,,,,,,,,,,,,,,,,,,,,,,432.585,439.4983,strongly agree,0,0,0,0,1,I can easily tell if someone else wants to enter a conversation.,1,0,1,0,,
,,,,,,,,,669e7b8d49d69303f41baed1,spanish,13 or older,"no, only English or Spanish",yes,2025-08-12_14h42.32.179,empathy_intonation_perc_control,2024.2.4,Win32,59.88023952,669e7b8d49d69303f41baed1,68817205a84113384fffdfe3,689b8afe70fca76d4d448898,,,,,,,,,,,,,,,,,,,,,,,,,,,2,,,,,,,,,,,,,,,,,,,,,,,,,,,,,,,,,,,,,,,,,,,,439.4996,441.2997,slightly agree,0,1,1,1,1,I prefer animals to humans.,0,1,0,0,,
,,,,,,,,,669e7b8d49d69303f41baed1,spanish,13 or older,"no, only English or Spanish",yes,2025-08-12_14h42.32.179,empathy_intonation_perc_control,2024.2.4,Win32,59.88023952,669e7b8d49d69303f41baed1,68817205a84113384fffdfe3,689b8afe70fca76d4d448898,,,,,,,,,,,,,,,,,,,,,,,,,,,3,,,,,,,,,,,,,,,,,,,,,,,,,,,,,,,,,,,,,,,,,,,,441.3007,442.4007,slightly agree,0,2,2,2,1,I try to keep up with the current trends and fashions.,0,1,0,0,,
,,,,,,,,,669e7b8d49d69303f41baed1,spanish,13 or older,"no, only English or Spanish",yes,2025-08-12_14h42.32.179,empathy_intonation_perc_control,2024.2.4,Win32,59.88023952,669e7b8d49d69303f41baed1,68817205a84113384fffdfe3,689b8afe70fca76d4d448898,,,,,,,,,,,,,,,,,,,,,,,,,,,4,,,,,,,,,,,,,,,,,,,,,,,,,,,,,,,,,,,,,,,,,,,,442.4017,444.3522,slightly agree,0,3,3,3,1,"I find it difficult to explain to others things that I understand easily,   when they don't understand it first time.",1,0,0,1,,
,,,,,,,,,669e7b8d49d69303f41baed1,spanish,13 or older,"no, only English or Spanish",yes,2025-08-12_14h42.32.179,empathy_intonation_perc_control,2024.2.4,Win32,59.88023952,669e7b8d49d69303f41baed1,68817205a84113384fffdfe3,689b8afe70fca76d4d448898,,,,,,,,,,,,,,,,,,,,,,,,,,,5,,,,,,,,,,,,,,,,,,,,,,,,,,,,,,,,,,,,,,,,,,,,444.3529,445.1863,slightly agree,0,4,4,4,1,I dream most nights.,0,1,0,0,,
,,,,,,,,,669e7b8d49d69303f41baed1,spanish,13 or older,"no, only English or Spanish",yes,2025-08-12_14h42.32.179,empathy_intonation_perc_control,2024.2.4,Win32,59.88023952,669e7b8d49d69303f41baed1,68817205a84113384fffdfe3,689b8afe70fca76d4d448898,,,,,,,,,,,,,,,,,,,,,,,,,,,6,,,,,,,,,,,,,,,,,,,,,,,,,,,,,,,,,,,,,,,,,,,,445.1871,445.9369,slightly agree,0,5,5,5,1,I really enjoy caring for other people.,1,0,1,0,,
,,,,,,,,,669e7b8d49d69303f41baed1,spanish,13 or older,"no, only English or Spanish",yes,2025-08-12_14h42.32.179,empathy_intonation_perc_control,2024.2.4,Win32,59.88023952,669e7b8d49d69303f41baed1,68817205a84113384fffdfe3,689b8afe70fca76d4d448898,,,,,,,,,,,,,,,,,,,,,,,,,,,7,,,,,,,,,,,,,,,,,,,,,,,,,,,,,,,,,,,,,,,,,,,,445.9379,447.0878,strongly agree,0,6,6,6,1,I try to solve my own problems rather than discussing them with others.,0,1,0,0,,
,,,,,,,,,669e7b8d49d69303f41baed1,spanish,13 or older,"no, only English or Spanish",yes,2025-08-12_14h42.32.179,empathy_intonation_perc_control,2024.2.4,Win32,59.88023952,669e7b8d49d69303f41baed1,68817205a84113384fffdfe3,689b8afe70fca76d4d448898,,,,,,,,,,,,,,,,,,,,,,,,,,,8,,,,,,,,,,,,,,,,,,,,,,,,,,,,,,,,,,,,,,,,,,,,447.0888,447.8218,strongly agree,0,7,7,7,1,I find it hard to know what to do in a social situation.,1,0,0,1,,
,,,,,,,,,669e7b8d49d69303f41baed1,spanish,13 or older,"no, only English or Spanish",yes,2025-08-12_14h42.32.179,empathy_intonation_perc_control,2024.2.4,Win32,59.88023952,669e7b8d49d69303f41baed1,68817205a84113384fffdfe3,689b8afe70fca76d4d448898,,,,,,,,,,,,,,,,,,,,,,,,,,,9,,,,,,,,,,,,,,,,,,,,,,,,,,,,,,,,,,,,,,,,,,,,447.8225,448.6223,slightly agree,0,8,8,8,1,I am at my best first thing in the morning.,0,1,0,0,,
,,,,,,,,,669e7b8d49d69303f41baed1,spanish,13 or older,"no, only English or Spanish",yes,2025-08-12_14h42.32.179,empathy_intonation_perc_control,2024.2.4,Win32,59.88023952,669e7b8d49d69303f41baed1,68817205a84113384fffdfe3,689b8afe70fca76d4d448898,,,,,,,,,,,,,,,,,,,,,,,,,,,10,,,,,,,,,,,,,,,,,,,,,,,,,,,,,,,,,,,,,,,,,,,,448.6235,449.6066,slightly agree,0,9,9,9,1,People often tell me that I went too far in driving my point home in a discussion.,1,0,0,1,,
,,,,,,,,,669e7b8d49d69303f41baed1,spanish,13 or older,"no, only English or Spanish",yes,2025-08-12_14h42.32.179,empathy_intonation_perc_control,2024.2.4,Win32,59.88023952,669e7b8d49d69303f41baed1,68817205a84113384fffdfe3,689b8afe70fca76d4d448898,,,,,,,,,,,,,,,,,,,,,,,,,,,11,,,,,,,,,,,,,,,,,,,,,,,,,,,,,,,,,,,,,,,,,,,,449.6074,450.107,slightly agree,0,10,10,10,1,It doesn't bother me too much if I am late meeting a friend.,1,0,0,1,,
,,,,,,,,,669e7b8d49d69303f41baed1,spanish,13 or older,"no, only English or Spanish",yes,2025-08-12_14h42.32.179,empathy_intonation_perc_control,2024.2.4,Win32,59.88023952,669e7b8d49d69303f41baed1,68817205a84113384fffdfe3,689b8afe70fca76d4d448898,,,,,,,,,,,,,,,,,,,,,,,,,,,12,,,,,,,,,,,,,,,,,,,,,,,,,,,,,,,,,,,,,,,,,,,,450.1081,460.2819,slightly agree,0,11,11,11,1,"Friendships and relationships are just too difficult, so I tend not to 
  bother with them.",1,0,0,1,,
,,,,,,,,,669e7b8d49d69303f41baed1,spanish,13 or older,"no, only English or Spanish",yes,2025-08-12_14h42.32.179,empathy_intonation_perc_control,2024.2.4,Win32,59.88023952,669e7b8d49d69303f41baed1,68817205a84113384fffdfe3,689b8afe70fca76d4d448898,,,,,,,,,,,,,,,,,,,,,,,,,,,13,,,,,,,,,,,,,,,,,,,,,,,,,,,,,,,,,,,,,,,,,,,,460.2826,461.3328,slightly agree,0,12,12,12,1,"I would never break a law, no matter how minor.",0,1,0,0,,
,,,,,,,,,669e7b8d49d69303f41baed1,spanish,13 or older,"no, only English or Spanish",yes,2025-08-12_14h42.32.179,empathy_intonation_perc_control,2024.2.4,Win32,59.88023952,669e7b8d49d69303f41baed1,68817205a84113384fffdfe3,689b8afe70fca76d4d448898,,,,,,,,,,,,,,,,,,,,,,,,,,,14,,,,,,,,,,,,,,,,,,,,,,,,,,,,,,,,,,,,,,,,,,,,461.3335,462.2168,strongly agree,0,13,13,13,1,I often find it difficult to judge if something is rude or polite.,1,0,0,1,,
,,,,,,,,,669e7b8d49d69303f41baed1,spanish,13 or older,"no, only English or Spanish",yes,2025-08-12_14h42.32.179,empathy_intonation_perc_control,2024.2.4,Win32,59.88023952,669e7b8d49d69303f41baed1,68817205a84113384fffdfe3,689b8afe70fca76d4d448898,,,,,,,,,,,,,,,,,,,,,,,,,,,15,,,,,,,,,,,,,,,,,,,,,,,,,,,,,,,,,,,,,,,,,,,,462.2177,463.4011,strongly agree,0,14,14,14,1,"In a conversation, I tend to focus on my own thoughts rather than on what 
  my listener might be thinking.",1,0,0,1,,
,,,,,,,,,669e7b8d49d69303f41baed1,spanish,13 or older,"no, only English or Spanish",yes,2025-08-12_14h42.32.179,empathy_intonation_perc_control,2024.2.4,Win32,59.88023952,669e7b8d49d69303f41baed1,68817205a84113384fffdfe3,689b8afe70fca76d4d448898,,,,,,,,,,,,,,,,,,,,,,,,,,,16,,,,,,,,,,,,,,,,,,,,,,,,,,,,,,,,,,,,,,,,,,,,463.4017,464.5189,slightly disagree,0,15,15,15,1,I prefer practical jokes to verbal humor.,0,1,0,0,,
,,,,,,,,,669e7b8d49d69303f41baed1,spanish,13 or older,"no, only English or Spanish",yes,2025-08-12_14h42.32.179,empathy_intonation_perc_control,2024.2.4,Win32,59.88023952,669e7b8d49d69303f41baed1,68817205a84113384fffdfe3,689b8afe70fca76d4d448898,,,,,,,,,,,,,,,,,,,,,,,,,,,17,,,,,,,,,,,,,,,,,,,,,,,,,,,,,,,,,,,,,,,,,,,,464.5197,465.3361,slightly agree,0,16,16,16,1,I live life for today rather than the future.,0,1,0,0,,
,,,,,,,,,669e7b8d49d69303f41baed1,spanish,13 or older,"no, only English or Spanish",yes,2025-08-12_14h42.32.179,empathy_intonation_perc_control,2024.2.4,Win32,59.88023952,669e7b8d49d69303f41baed1,68817205a84113384fffdfe3,689b8afe70fca76d4d448898,,,,,,,,,,,,,,,,,,,,,,,,,,,18,,,,,,,,,,,,,,,,,,,,,,,,,,,,,,,,,,,,,,,,,,,,465.3371,466.0366,slightly agree,0,17,17,17,1,"When I was a child, I enjoyed cutting up worms to see what would happen.",1,0,0,1,,
,,,,,,,,,669e7b8d49d69303f41baed1,spanish,13 or older,"no, only English or Spanish",yes,2025-08-12_14h42.32.179,empathy_intonation_perc_control,2024.2.4,Win32,59.88023952,669e7b8d49d69303f41baed1,68817205a84113384fffdfe3,689b8afe70fca76d4d448898,,,,,,,,,,,,,,,,,,,,,,,,,,,19,,,,,,,,,,,,,,,,,,,,,,,,,,,,,,,,,,,,,,,,,,,,466.0372,466.5707,slightly agree,0,18,18,18,1,I can pick up quickly if someone says one thing but means another.,1,0,1,0,,
,,,,,,,,,669e7b8d49d69303f41baed1,spanish,13 or older,"no, only English or Spanish",yes,2025-08-12_14h42.32.179,empathy_intonation_perc_control,2024.2.4,Win32,59.88023952,669e7b8d49d69303f41baed1,68817205a84113384fffdfe3,689b8afe70fca76d4d448898,,,,,,,,,,,,,,,,,,,,,,,,,,,20,,,,,,,,,,,,,,,,,,,,,,,,,,,,,,,,,,,,,,,,,,,,466.5714,467.1542,slightly agree,0,19,19,19,1,I tend to have very strong opinions about morality.,0,1,0,0,,
,,,,,,,,,669e7b8d49d69303f41baed1,spanish,13 or older,"no, only English or Spanish",yes,2025-08-12_14h42.32.179,empathy_intonation_perc_control,2024.2.4,Win32,59.88023952,669e7b8d49d69303f41baed1,68817205a84113384fffdfe3,689b8afe70fca76d4d448898,,,,,,,,,,,,,,,,,,,,,,,,,,,21,,,,,,,,,,,,,,,,,,,,,,,,,,,,,,,,,,,,,,,,,,,,467.1549,470.6404,slightly disagree,0,20,20,20,1,It is hard for me to see why some things upset people so much.,1,0,0,1,,
,,,,,,,,,669e7b8d49d69303f41baed1,spanish,13 or older,"no, only English or Spanish",yes,2025-08-12_14h42.32.179,empathy_intonation_perc_control,2024.2.4,Win32,59.88023952,669e7b8d49d69303f41baed1,68817205a84113384fffdfe3,689b8afe70fca76d4d448898,,,,,,,,,,,,,,,,,,,,,,,,,,,22,,,,,,,,,,,,,,,,,,,,,,,,,,,,,,,,,,,,,,,,,,,,470.6411,471.7413,slightly disagree,0,21,21,21,1,I find it easy to put myself in somebody else's shoes.,1,0,1,0,,
,,,,,,,,,669e7b8d49d69303f41baed1,spanish,13 or older,"no, only English or Spanish",yes,2025-08-12_14h42.32.179,empathy_intonation_perc_control,2024.2.4,Win32,59.88023952,669e7b8d49d69303f41baed1,68817205a84113384fffdfe3,689b8afe70fca76d4d448898,,,,,,,,,,,,,,,,,,,,,,,,,,,23,,,,,,,,,,,,,,,,,,,,,,,,,,,,,,,,,,,,,,,,,,,,471.742,472.6256,slightly agree,0,22,22,22,1,I think that good manners are the most important thing a parent can teach their child.,0,1,0,0,,
,,,,,,,,,669e7b8d49d69303f41baed1,spanish,13 or older,"no, only English or Spanish",yes,2025-08-12_14h42.32.179,empathy_intonation_perc_control,2024.2.4,Win32,59.88023952,669e7b8d49d69303f41baed1,68817205a84113384fffdfe3,689b8afe70fca76d4d448898,,,,,,,,,,,,,,,,,,,,,,,,,,,24,,,,,,,,,,,,,,,,,,,,,,,,,,,,,,,,,,,,,,,,,,,,472.6264,473.2925,slightly agree,0,23,23,23,1,I like to do things on the spur of the moment.,0,1,0,0,,
