instructions_2afc.started,instructions_2afc.stopped,instructions_2afc_loop.thisRepN,instructions_2afc_loop.thisTrialN,instructions_2afc_loop.thisN,instructions_2afc_loop.thisIndex,instructions_2afc_loop.ran,instructions_text,continue_text,participant_id,"What variety of Spanish are you most familiar with? (e.g., Peruvian, Spanish, Mexican)",At what age did you begin learning Spanish?,Are you proficient in any languages other than English/Spanish?,"Are you familiar with Caribbean (e.g., Caribbean, Puerto Rican) or Galician Spanish?",date,expName,psychopyVersion,OS,frameRate,id,study_id,session,practice_2afc.started,practice_2afc.stopped,key_resp_2afc_practice.keys,key_resp_2afc_practice.corr,key_resp_2afc_practice.rt,key_resp_2afc_practice.duration,trials_2afc_practice_loop.thisRepN,trials_2afc_practice_loop.thisTrialN,trials_2afc_practice_loop.thisN,trials_2afc_practice_loop.thisIndex,trials_2afc_practice_loop.ran,path,correct_response,check_2afc.started,check_2afc.stopped,trial_2afc.started,trial_2afc.stopped,key_resp_2afc_trial.keys,key_resp_2afc_trial.corr,key_resp_2afc_trial.rt,key_resp_2afc_trial.duration,trials_2afc_loop.thisRepN,trials_2afc_loop.thisTrialN,trials_2afc_loop.thisN,trials_2afc_loop.thisIndex,trials_2afc_loop.ran,item_num,target,variety,instructions_lextale.started,instructions_lextale.stopped,instructions_lextale_loop.thisRepN,instructions_lextale_loop.thisTrialN,instructions_lextale_loop.thisN,instructions_lextale_loop.thisIndex,instructions_lextale_loop.ran,practice_lextale.started,practice_lextale.stopped,key_resp_lextale_practice.keys,key_resp_lextale_practice.corr,key_resp_lextale_practice.rt,key_resp_lextale_practice.duration,practice_feedback_lextale.started,practice_feedback_lextale.stopped,trials_lextale_practice_loop.thisRepN,trials_lextale_practice_loop.thisTrialN,trials_lextale_practice_loop.thisN,trials_lextale_practice_loop.thisIndex,trials_lextale_practice_loop.ran,stim,word,prac_button_real,prac_button_false,check_lextale.started,check_lextale.stopped,trial_lextale.started,trial_lextale.stopped,key_resp_lextale_trial.keys,key_resp_lextale_trial.corr,key_resp_lextale_trial.rt,key_resp_lextale_trial.duration,trials_lextale_loop.thisRepN,trials_lextale_loop.thisTrialN,trials_lextale_loop.thisN,trials_lextale_loop.thisIndex,trials_lextale_loop.ran,button_real,button_false,instructions_eq.started,instructions_eq.stopped,trial_eq.started,trial_eq.stopped,slider_eq_trial.response,trials_eq_loop.thisRepN,trials_eq_loop.thisTrialN,trials_eq_loop.thisN,trials_eq_loop.thisIndex,trials_eq_loop.ran,item,is_test_item,is_distractor,is_agree_score,is_disagree_score,end_exp.started,end_exp.stopped
0.006,9.65,0,0,0,0,1,"In the following task you are going to hear a series of utterances. 

  You will decide if the utterances sound like questions or not using your keyboard.", (press the spacebar to continue),66ad3561c1e5c019916365fb,i use to learn some but not sure which variety it is ,13 or older,click here to respond,no,2025-07-24_10h00.40.951,empathy_intonation_perc_control,2024.2.4,Linux x86_64,62.5,66ad3561c1e5c019916365fb,68817205a84113384fffdfe3,68823b5f4701074242532288,,,,,,,,,,,,,,,,,,,,,,,,,,,,,,,,,,,,,,,,,,,,,,,,,,,,,,,,,,,,,,,,,,,,,,,,,,,,,,,,,,,,,
9.651,38.86,0,1,1,1,1,"If you believe the utterance is a question, type '1' (for 'yes') and if you do not 
  believe it is a question type '0' (for 'no').

  Let's practice a bit...", (press the spacebar to continue),66ad3561c1e5c019916365fb,i use to learn some but not sure which variety it is ,13 or older,click here to respond,no,2025-07-24_10h00.40.951,empathy_intonation_perc_control,2024.2.4,Linux x86_64,62.5,66ad3561c1e5c019916365fb,68817205a84113384fffdfe3,68823b5f4701074242532288,,,,,,,,,,,,,,,,,,,,,,,,,,,,,,,,,,,,,,,,,,,,,,,,,,,,,,,,,,,,,,,,,,,,,,,,,,,,,,,,,,,,,
,,,,,,,,,66ad3561c1e5c019916365fb,i use to learn some but not sure which variety it is ,13 or older,click here to respond,no,2025-07-24_10h00.40.951,empathy_intonation_perc_control,2024.2.4,Linux x86_64,62.5,66ad3561c1e5c019916365fb,68817205a84113384fffdfe3,68823b5f4701074242532288,38.877,45.246,1,1,5.859,,0,0,0,2,1,./stim/wavs/chilean_question_filler_Mi-padre-cantaba-bien.wav,1,,,,,,,,,,,,,,,,,,,,,,,,,,,,,,,,,,,,,,,,,,,,,,,,,,,,,,,,,,,,,,,,,,,,,,,,
,,,,,,,,,66ad3561c1e5c019916365fb,i use to learn some but not sure which variety it is ,13 or older,click here to respond,no,2025-07-24_10h00.40.951,empathy_intonation_perc_control,2024.2.4,Linux x86_64,62.5,66ad3561c1e5c019916365fb,68817205a84113384fffdfe3,68823b5f4701074242532288,45.247,48.758,1,0,3.001,,0,1,1,5,1,./stim/wavs/andalusian_statement_filler_Alberto-nunca-se-afeita.wav,0,,,,,,,,,,,,,,,,,,,,,,,,,,,,,,,,,,,,,,,,,,,,,,,,,,,,,,,,,,,,,,,,,,,,,,,,
,,,,,,,,,66ad3561c1e5c019916365fb,i use to learn some but not sure which variety it is ,13 or older,click here to respond,no,2025-07-24_10h00.40.951,empathy_intonation_perc_control,2024.2.4,Linux x86_64,62.5,66ad3561c1e5c019916365fb,68817205a84113384fffdfe3,68823b5f4701074242532288,48.759,53.305,1,1,4.029,,0,2,2,1,1,./stim/wavs/argentine_question_filler_Mi-vecino-habla-mucho.wav,1,,,,,,,,,,,,,,,,,,,,,,,,,,,,,,,,,,,,,,,,,,,,,,,,,,,,,,,,,,,,,,,,,,,,,,,,
,,,,,,,,,66ad3561c1e5c019916365fb,i use to learn some but not sure which variety it is ,13 or older,click here to respond,no,2025-07-24_10h00.40.951,empathy_intonation_perc_control,2024.2.4,Linux x86_64,62.5,66ad3561c1e5c019916365fb,68817205a84113384fffdfe3,68823b5f4701074242532288,53.307,55.629,0,1,1.807,,0,3,3,7,1,./stim/wavs/puertorican_statement_filler_La-nina-pinta-con-su-amiga.wav,0,,,,,,,,,,,,,,,,,,,,,,,,,,,,,,,,,,,,,,,,,,,,,,,,,,,,,,,,,,,,,,,,,,,,,,,,
,,,,,,,,,66ad3561c1e5c019916365fb,i use to learn some but not sure which variety it is ,13 or older,click here to respond,no,2025-07-24_10h00.40.951,empathy_intonation_perc_control,2024.2.4,Linux x86_64,62.5,66ad3561c1e5c019916365fb,68817205a84113384fffdfe3,68823b5f4701074242532288,55.634,57.804,0,0,1.651,,0,4,4,3,1,./stim/wavs/mexican_question_filler_Felipe-no-tiene-contrasena.wav,1,,,,,,,,,,,,,,,,,,,,,,,,,,,,,,,,,,,,,,,,,,,,,,,,,,,,,,,,,,,,,,,,,,,,,,,,
,,,,,,,,,66ad3561c1e5c019916365fb,i use to learn some but not sure which variety it is ,13 or older,click here to respond,no,2025-07-24_10h00.40.951,empathy_intonation_perc_control,2024.2.4,Linux x86_64,62.5,66ad3561c1e5c019916365fb,68817205a84113384fffdfe3,68823b5f4701074242532288,57.805,60.894,1,1,2.56,,0,5,5,0,1,./stim/wavs/castilian_question_filler_Mi-esposo-conoce-al-chico.wav,1,,,,,,,,,,,,,,,,,,,,,,,,,,,,,,,,,,,,,,,,,,,,,,,,,,,,,,,,,,,,,,,,,,,,,,,,
,,,,,,,,,66ad3561c1e5c019916365fb,i use to learn some but not sure which variety it is ,13 or older,click here to respond,no,2025-07-24_10h00.40.951,empathy_intonation_perc_control,2024.2.4,Linux x86_64,62.5,66ad3561c1e5c019916365fb,68817205a84113384fffdfe3,68823b5f4701074242532288,60.895,63.04,0,1,1.634,,0,6,6,4,1,./stim/wavs/cuban_statement_filler_Cocinabas-por-la-noche.wav,0,,,,,,,,,,,,,,,,,,,,,,,,,,,,,,,,,,,,,,,,,,,,,,,,,,,,,,,,,,,,,,,,,,,,,,,,
,,,,,,,,,66ad3561c1e5c019916365fb,i use to learn some but not sure which variety it is ,13 or older,click here to respond,no,2025-07-24_10h00.40.951,empathy_intonation_perc_control,2024.2.4,Linux x86_64,62.5,66ad3561c1e5c019916365fb,68817205a84113384fffdfe3,68823b5f4701074242532288,63.042,65.844,0,1,2.285,,0,7,7,6,1,./stim/wavs/peruvian_statement_filler_El-nino-habla-con-su-madre.wav,0,,,,,,,,,,,,,,,,,,,,,,,,,,,,,,,,,,,,,,,,,,,,,,,,,,,,,,,,,,,,,,,,,,,,,,,,
,,,,,,,,,66ad3561c1e5c019916365fb,i use to learn some but not sure which variety it is ,13 or older,click here to respond,no,2025-07-24_10h00.40.951,empathy_intonation_perc_control,2024.2.4,Linux x86_64,62.5,66ad3561c1e5c019916365fb,68817205a84113384fffdfe3,68823b5f4701074242532288,,,,,,,,,,,,,,65.845,68.184,,,,,,,,,,,,,,,,,,,,,,,,,,,,,,,,,,,,,,,,,,,,,,,,,,,,,,,,,,,,,,,,,,,,,,
,,,,,,,,,66ad3561c1e5c019916365fb,i use to learn some but not sure which variety it is ,13 or older,click here to respond,no,2025-07-24_10h00.40.951,empathy_intonation_perc_control,2024.2.4,Linux x86_64,62.5,66ad3561c1e5c019916365fb,68817205a84113384fffdfe3,68823b5f4701074242532288,,,,,,,,,,,,./stim/wavs/castilian_mismatch_declarative-broad-focus_Mi-novio-viene-del-lago.wav,0,,,68.204,71.095,0,1,2.36,,0,0,0,71,1,72,0,castilian,,,,,,,,,,,,,,,,,,,,,,,,,,,,,,,,,,,,,,,,,,,,,,,,,,,,,,,,
,,,,,,,,,66ad3561c1e5c019916365fb,i use to learn some but not sure which variety it is ,13 or older,click here to respond,no,2025-07-24_10h00.40.951,empathy_intonation_perc_control,2024.2.4,Linux x86_64,62.5,66ad3561c1e5c019916365fb,68817205a84113384fffdfe3,68823b5f4701074242532288,,,,,,,,,,,,./stim/wavs/cuban_mismatch_declarative-broad-focus_Mi-tia-odia-la-lluvia.wav,0,,,71.097,73.787,0,1,2.183,,0,1,1,77,1,78,0,cuban,,,,,,,,,,,,,,,,,,,,,,,,,,,,,,,,,,,,,,,,,,,,,,,,,,,,,,,,
,,,,,,,,,66ad3561c1e5c019916365fb,i use to learn some but not sure which variety it is ,13 or older,click here to respond,no,2025-07-24_10h00.40.951,empathy_intonation_perc_control,2024.2.4,Linux x86_64,62.5,66ad3561c1e5c019916365fb,68817205a84113384fffdfe3,68823b5f4701074242532288,,,,,,,,,,,,./stim/wavs/mexican_match_interrogative-total-yn_Daniel-iba-a-Bolivia.wav,1,,,73.788,76.695,1,1,2.391,,0,2,2,13,1,14,0,mexican,,,,,,,,,,,,,,,,,,,,,,,,,,,,,,,,,,,,,,,,,,,,,,,,,,,,,,,,
,,,,,,,,,66ad3561c1e5c019916365fb,i use to learn some but not sure which variety it is ,13 or older,click here to respond,no,2025-07-24_10h00.40.951,empathy_intonation_perc_control,2024.2.4,Linux x86_64,62.5,66ad3561c1e5c019916365fb,68817205a84113384fffdfe3,68823b5f4701074242532288,,,,,,,,,,,,./stim/wavs/cuban_mismatch_declarative-broad-focus_La-nina-lava-el-plato.wav,0,,,76.696,79.137,0,1,1.929,,0,3,3,75,1,76,0,cuban,,,,,,,,,,,,,,,,,,,,,,,,,,,,,,,,,,,,,,,,,,,,,,,,,,,,,,,,
,,,,,,,,,66ad3561c1e5c019916365fb,i use to learn some but not sure which variety it is ,13 or older,click here to respond,no,2025-07-24_10h00.40.951,empathy_intonation_perc_control,2024.2.4,Linux x86_64,62.5,66ad3561c1e5c019916365fb,68817205a84113384fffdfe3,68823b5f4701074242532288,,,,,,,,,,,,./stim/wavs/cuban_match_interrogative-total-yn_Mariano-habla-del-tiempo.wav,1,,,79.138,82.328,0,0,2.674,,0,4,4,10,1,11,1,cuban,,,,,,,,,,,,,,,,,,,,,,,,,,,,,,,,,,,,,,,,,,,,,,,,,,,,,,,,
,,,,,,,,,66ad3561c1e5c019916365fb,i use to learn some but not sure which variety it is ,13 or older,click here to respond,no,2025-07-24_10h00.40.951,empathy_intonation_perc_control,2024.2.4,Linux x86_64,62.5,66ad3561c1e5c019916365fb,68817205a84113384fffdfe3,68823b5f4701074242532288,,,,,,,,,,,,./stim/wavs/puertorican_match_interrogative-total-yn_Maria-bebe-el-vino.wav,1,,,82.329,84.903,0,0,2.063,,0,5,5,23,1,24,1,puertorican,,,,,,,,,,,,,,,,,,,,,,,,,,,,,,,,,,,,,,,,,,,,,,,,,,,,,,,,
,,,,,,,,,66ad3561c1e5c019916365fb,i use to learn some but not sure which variety it is ,13 or older,click here to respond,no,2025-07-24_10h00.40.951,empathy_intonation_perc_control,2024.2.4,Linux x86_64,62.5,66ad3561c1e5c019916365fb,68817205a84113384fffdfe3,68823b5f4701074242532288,,,,,,,,,,,,./stim/wavs/castilian_match_declarative-broad-focus_David-leia-el-libro.wav,0,,,84.904,87.311,0,1,1.896,,0,6,6,44,1,45,0,castilian,,,,,,,,,,,,,,,,,,,,,,,,,,,,,,,,,,,,,,,,,,,,,,,,,,,,,,,,
,,,,,,,,,66ad3561c1e5c019916365fb,i use to learn some but not sure which variety it is ,13 or older,click here to respond,no,2025-07-24_10h00.40.951,empathy_intonation_perc_control,2024.2.4,Linux x86_64,62.5,66ad3561c1e5c019916365fb,68817205a84113384fffdfe3,68823b5f4701074242532288,,,,,,,,,,,,./stim/wavs/castilian_mismatch_declarative-broad-focus_La-maestra-vive-en-Paris.wav,0,,,87.312,90.021,0,1,2.198,,0,7,7,69,1,70,0,castilian,,,,,,,,,,,,,,,,,,,,,,,,,,,,,,,,,,,,,,,,,,,,,,,,,,,,,,,,
,,,,,,,,,66ad3561c1e5c019916365fb,i use to learn some but not sure which variety it is ,13 or older,click here to respond,no,2025-07-24_10h00.40.951,empathy_intonation_perc_control,2024.2.4,Linux x86_64,62.5,66ad3561c1e5c019916365fb,68817205a84113384fffdfe3,68823b5f4701074242532288,,,,,,,,,,,,./stim/wavs/puertorican_mismatch_interrogative-total-yn_La-maestra-vive-en-Paris.wav,1,,,90.022,92.764,1,1,2.218,,0,8,8,41,1,42,1,puertorican,,,,,,,,,,,,,,,,,,,,,,,,,,,,,,,,,,,,,,,,,,,,,,,,,,,,,,,,
,,,,,,,,,66ad3561c1e5c019916365fb,i use to learn some but not sure which variety it is ,13 or older,click here to respond,no,2025-07-24_10h00.40.951,empathy_intonation_perc_control,2024.2.4,Linux x86_64,62.5,66ad3561c1e5c019916365fb,68817205a84113384fffdfe3,68823b5f4701074242532288,,,,,,,,,,,,./stim/wavs/cuban_match_interrogative-total-yn_Manuela-vende-el-carro.wav,1,,,92.765,94.836,1,1,1.543,,0,9,9,8,1,9,1,cuban,,,,,,,,,,,,,,,,,,,,,,,,,,,,,,,,,,,,,,,,,,,,,,,,,,,,,,,,
,,,,,,,,,66ad3561c1e5c019916365fb,i use to learn some but not sure which variety it is ,13 or older,click here to respond,no,2025-07-24_10h00.40.951,empathy_intonation_perc_control,2024.2.4,Linux x86_64,62.5,66ad3561c1e5c019916365fb,68817205a84113384fffdfe3,68823b5f4701074242532288,,,,,,,,,,,,./stim/wavs/cuban_match_interrogative-total-yn_Marta-abre-el-regalo.wav,1,,,94.837,97.225,0,0,1.86,,0,10,10,11,1,12,1,cuban,,,,,,,,,,,,,,,,,,,,,,,,,,,,,,,,,,,,,,,,,,,,,,,,,,,,,,,,
,,,,,,,,,66ad3561c1e5c019916365fb,i use to learn some but not sure which variety it is ,13 or older,click here to respond,no,2025-07-24_10h00.40.951,empathy_intonation_perc_control,2024.2.4,Linux x86_64,62.5,66ad3561c1e5c019916365fb,68817205a84113384fffdfe3,68823b5f4701074242532288,,,,,,,,,,,,./stim/wavs/puertorican_match_declarative-broad-focus_David-leia-el-libro.wav,0,,,97.226,99.248,0,1,1.504,,0,11,11,64,1,65,0,puertorican,,,,,,,,,,,,,,,,,,,,,,,,,,,,,,,,,,,,,,,,,,,,,,,,,,,,,,,,
,,,,,,,,,66ad3561c1e5c019916365fb,i use to learn some but not sure which variety it is ,13 or older,click here to respond,no,2025-07-24_10h00.40.951,empathy_intonation_perc_control,2024.2.4,Linux x86_64,62.5,66ad3561c1e5c019916365fb,68817205a84113384fffdfe3,68823b5f4701074242532288,,,,,,,,,,,,./stim/wavs/castilian_match_interrogative-total-yn_Emilio-ama-la-marcha.wav,1,,,99.249,101.607,1,1,1.843,,0,12,12,1,1,2,0,castilian,,,,,,,,,,,,,,,,,,,,,,,,,,,,,,,,,,,,,,,,,,,,,,,,,,,,,,,,
,,,,,,,,,66ad3561c1e5c019916365fb,i use to learn some but not sure which variety it is ,13 or older,click here to respond,no,2025-07-24_10h00.40.951,empathy_intonation_perc_control,2024.2.4,Linux x86_64,62.5,66ad3561c1e5c019916365fb,68817205a84113384fffdfe3,68823b5f4701074242532288,,,,,,,,,,,,./stim/wavs/castilian_match_declarative-broad-focus_Marta-abre-el-regalo.wav,0,,,101.609,104.466,1,0,2.343,,0,13,13,49,1,50,0,castilian,,,,,,,,,,,,,,,,,,,,,,,,,,,,,,,,,,,,,,,,,,,,,,,,,,,,,,,,
,,,,,,,,,66ad3561c1e5c019916365fb,i use to learn some but not sure which variety it is ,13 or older,click here to respond,no,2025-07-24_10h00.40.951,empathy_intonation_perc_control,2024.2.4,Linux x86_64,62.5,66ad3561c1e5c019916365fb,68817205a84113384fffdfe3,68823b5f4701074242532288,,,,,,,,,,,,./stim/wavs/mexican_match_declarative-broad-focus_David-leia-el-libro.wav,0,,,104.467,106.387,0,1,1.404,,0,14,14,58,1,59,0,mexican,,,,,,,,,,,,,,,,,,,,,,,,,,,,,,,,,,,,,,,,,,,,,,,,,,,,,,,,
,,,,,,,,,66ad3561c1e5c019916365fb,i use to learn some but not sure which variety it is ,13 or older,click here to respond,no,2025-07-24_10h00.40.951,empathy_intonation_perc_control,2024.2.4,Linux x86_64,62.5,66ad3561c1e5c019916365fb,68817205a84113384fffdfe3,68823b5f4701074242532288,,,,,,,,,,,,./stim/wavs/castilian_match_declarative-broad-focus_Emilio-ama-la-marcha.wav,0,,,106.388,108.864,0,1,1.958,,0,15,15,45,1,46,0,castilian,,,,,,,,,,,,,,,,,,,,,,,,,,,,,,,,,,,,,,,,,,,,,,,,,,,,,,,,
,,,,,,,,,66ad3561c1e5c019916365fb,i use to learn some but not sure which variety it is ,13 or older,click here to respond,no,2025-07-24_10h00.40.951,empathy_intonation_perc_control,2024.2.4,Linux x86_64,62.5,66ad3561c1e5c019916365fb,68817205a84113384fffdfe3,68823b5f4701074242532288,,,,,,,,,,,,./stim/wavs/mexican_mismatch_interrogative-total-yn_Mi-tia-odia-la-lluvia.wav,1,,,108.865,111.188,1,1,1.815,,0,16,16,38,1,39,0,mexican,,,,,,,,,,,,,,,,,,,,,,,,,,,,,,,,,,,,,,,,,,,,,,,,,,,,,,,,
,,,,,,,,,66ad3561c1e5c019916365fb,i use to learn some but not sure which variety it is ,13 or older,click here to respond,no,2025-07-24_10h00.40.951,empathy_intonation_perc_control,2024.2.4,Linux x86_64,62.5,66ad3561c1e5c019916365fb,68817205a84113384fffdfe3,68823b5f4701074242532288,,,,,,,,,,,,./stim/wavs/castilian_match_interrogative-total-yn_Maria-bebe-el-vino.wav,1,,,111.189,113.897,1,1,2.179,,0,17,17,3,1,4,0,castilian,,,,,,,,,,,,,,,,,,,,,,,,,,,,,,,,,,,,,,,,,,,,,,,,,,,,,,,,
,,,,,,,,,66ad3561c1e5c019916365fb,i use to learn some but not sure which variety it is ,13 or older,click here to respond,no,2025-07-24_10h00.40.951,empathy_intonation_perc_control,2024.2.4,Linux x86_64,62.5,66ad3561c1e5c019916365fb,68817205a84113384fffdfe3,68823b5f4701074242532288,,,,,,,,,,,,./stim/wavs/puertorican_match_declarative-broad-focus_Emilio-ama-la-marcha.wav,0,,,113.898,115.884,0,1,1.458,,0,18,18,65,1,66,0,puertorican,,,,,,,,,,,,,,,,,,,,,,,,,,,,,,,,,,,,,,,,,,,,,,,,,,,,,,,,
,,,,,,,,,66ad3561c1e5c019916365fb,i use to learn some but not sure which variety it is ,13 or older,click here to respond,no,2025-07-24_10h00.40.951,empathy_intonation_perc_control,2024.2.4,Linux x86_64,62.5,66ad3561c1e5c019916365fb,68817205a84113384fffdfe3,68823b5f4701074242532288,,,,,,,,,,,,./stim/wavs/cuban_match_declarative-broad-focus_Daniel-iba-a-Bolivia.wav,0,,,115.886,118.076,0,1,1.681,,0,19,19,51,1,52,0,cuban,,,,,,,,,,,,,,,,,,,,,,,,,,,,,,,,,,,,,,,,,,,,,,,,,,,,,,,,
,,,,,,,,,66ad3561c1e5c019916365fb,i use to learn some but not sure which variety it is ,13 or older,click here to respond,no,2025-07-24_10h00.40.951,empathy_intonation_perc_control,2024.2.4,Linux x86_64,62.5,66ad3561c1e5c019916365fb,68817205a84113384fffdfe3,68823b5f4701074242532288,,,,,,,,,,,,./stim/wavs/castilian_mismatch_interrogative-total-yn_La-maestra-vive-en-Paris.wav,1,,,118.077,120.566,1,1,1.972,,0,20,20,24,1,25,0,castilian,,,,,,,,,,,,,,,,,,,,,,,,,,,,,,,,,,,,,,,,,,,,,,,,,,,,,,,,
,,,,,,,,,66ad3561c1e5c019916365fb,i use to learn some but not sure which variety it is ,13 or older,click here to respond,no,2025-07-24_10h00.40.951,empathy_intonation_perc_control,2024.2.4,Linux x86_64,62.5,66ad3561c1e5c019916365fb,68817205a84113384fffdfe3,68823b5f4701074242532288,,,,,,,,,,,,./stim/wavs/cuban_match_declarative-broad-focus_Manuela-vende-el-carro.wav,0,,,120.571,122.921,0,1,1.825,,0,21,21,52,1,53,0,cuban,,,,,,,,,,,,,,,,,,,,,,,,,,,,,,,,,,,,,,,,,,,,,,,,,,,,,,,,
,,,,,,,,,66ad3561c1e5c019916365fb,i use to learn some but not sure which variety it is ,13 or older,click here to respond,no,2025-07-24_10h00.40.951,empathy_intonation_perc_control,2024.2.4,Linux x86_64,62.5,66ad3561c1e5c019916365fb,68817205a84113384fffdfe3,68823b5f4701074242532288,,,,,,,,,,,,./stim/wavs/cuban_mismatch_interrogative-total-yn_Mi-tia-odia-la-lluvia.wav,1,,,122.922,124.931,0,0,1.501,,0,22,22,33,1,34,1,cuban,,,,,,,,,,,,,,,,,,,,,,,,,,,,,,,,,,,,,,,,,,,,,,,,,,,,,,,,
,,,,,,,,,66ad3561c1e5c019916365fb,i use to learn some but not sure which variety it is ,13 or older,click here to respond,no,2025-07-24_10h00.40.951,empathy_intonation_perc_control,2024.2.4,Linux x86_64,62.5,66ad3561c1e5c019916365fb,68817205a84113384fffdfe3,68823b5f4701074242532288,,,,,,,,,,,,./stim/wavs/puertorican_match_declarative-broad-focus_Ana-lleva-el-abrigo.wav,0,,,124.932,126.838,0,1,1.396,,0,23,23,62,1,63,0,puertorican,,,,,,,,,,,,,,,,,,,,,,,,,,,,,,,,,,,,,,,,,,,,,,,,,,,,,,,,
,,,,,,,,,66ad3561c1e5c019916365fb,i use to learn some but not sure which variety it is ,13 or older,click here to respond,no,2025-07-24_10h00.40.951,empathy_intonation_perc_control,2024.2.4,Linux x86_64,62.5,66ad3561c1e5c019916365fb,68817205a84113384fffdfe3,68823b5f4701074242532288,,,,,,,,,,,,./stim/wavs/mexican_match_declarative-broad-focus_Emilio-ama-la-marcha.wav,0,,,126.839,129.294,1,0,1.925,,0,24,24,59,1,60,0,mexican,,,,,,,,,,,,,,,,,,,,,,,,,,,,,,,,,,,,,,,,,,,,,,,,,,,,,,,,
,,,,,,,,,66ad3561c1e5c019916365fb,i use to learn some but not sure which variety it is ,13 or older,click here to respond,no,2025-07-24_10h00.40.951,empathy_intonation_perc_control,2024.2.4,Linux x86_64,62.5,66ad3561c1e5c019916365fb,68817205a84113384fffdfe3,68823b5f4701074242532288,,,,,,,,,,,,./stim/wavs/cuban_mismatch_interrogative-total-yn_Mi-novio-viene-del-lago.wav,1,,,129.294,131.815,1,1,2.003,,0,25,25,32,1,33,1,cuban,,,,,,,,,,,,,,,,,,,,,,,,,,,,,,,,,,,,,,,,,,,,,,,,,,,,,,,,
,,,,,,,,,66ad3561c1e5c019916365fb,i use to learn some but not sure which variety it is ,13 or older,click here to respond,no,2025-07-24_10h00.40.951,empathy_intonation_perc_control,2024.2.4,Linux x86_64,62.5,66ad3561c1e5c019916365fb,68817205a84113384fffdfe3,68823b5f4701074242532288,,,,,,,,,,,,./stim/wavs/puertorican_match_interrogative-total-yn_David-leia-el-libro.wav,1,,,131.816,133.74,1,1,1.415,,0,26,26,20,1,21,1,puertorican,,,,,,,,,,,,,,,,,,,,,,,,,,,,,,,,,,,,,,,,,,,,,,,,,,,,,,,,
,,,,,,,,,66ad3561c1e5c019916365fb,i use to learn some but not sure which variety it is ,13 or older,click here to respond,no,2025-07-24_10h00.40.951,empathy_intonation_perc_control,2024.2.4,Linux x86_64,62.5,66ad3561c1e5c019916365fb,68817205a84113384fffdfe3,68823b5f4701074242532288,,,,,,,,,,,,./stim/wavs/puertorican_match_declarative-broad-focus_Daniel-iba-a-Bolivia.wav,0,,,133.741,135.779,1,0,1.522,,0,27,27,63,1,64,0,puertorican,,,,,,,,,,,,,,,,,,,,,,,,,,,,,,,,,,,,,,,,,,,,,,,,,,,,,,,,
,,,,,,,,,66ad3561c1e5c019916365fb,i use to learn some but not sure which variety it is ,13 or older,click here to respond,no,2025-07-24_10h00.40.951,empathy_intonation_perc_control,2024.2.4,Linux x86_64,62.5,66ad3561c1e5c019916365fb,68817205a84113384fffdfe3,68823b5f4701074242532288,,,,,,,,,,,,./stim/wavs/puertorican_match_interrogative-total-yn_Emilio-ama-la-marcha.wav,1,,,135.78,138.021,1,1,1.724,,0,28,28,21,1,22,1,puertorican,,,,,,,,,,,,,,,,,,,,,,,,,,,,,,,,,,,,,,,,,,,,,,,,,,,,,,,,
,,,,,,,,,66ad3561c1e5c019916365fb,i use to learn some but not sure which variety it is ,13 or older,click here to respond,no,2025-07-24_10h00.40.951,empathy_intonation_perc_control,2024.2.4,Linux x86_64,62.5,66ad3561c1e5c019916365fb,68817205a84113384fffdfe3,68823b5f4701074242532288,,,,,,,,,,,,./stim/wavs/puertorican_mismatch_interrogative-total-yn_El-nino-oye-el-rio.wav,1,,,138.022,140.495,0,0,1.962,,0,29,29,40,1,41,1,puertorican,,,,,,,,,,,,,,,,,,,,,,,,,,,,,,,,,,,,,,,,,,,,,,,,,,,,,,,,
,,,,,,,,,66ad3561c1e5c019916365fb,i use to learn some but not sure which variety it is ,13 or older,click here to respond,no,2025-07-24_10h00.40.951,empathy_intonation_perc_control,2024.2.4,Linux x86_64,62.5,66ad3561c1e5c019916365fb,68817205a84113384fffdfe3,68823b5f4701074242532288,,,,,,,,,,,,./stim/wavs/mexican_mismatch_interrogative-total-yn_El-hombre-mira-la-luna.wav,1,,,140.496,143.072,1,1,2.059,,0,30,30,34,1,35,0,mexican,,,,,,,,,,,,,,,,,,,,,,,,,,,,,,,,,,,,,,,,,,,,,,,,,,,,,,,,
,,,,,,,,,66ad3561c1e5c019916365fb,i use to learn some but not sure which variety it is ,13 or older,click here to respond,no,2025-07-24_10h00.40.951,empathy_intonation_perc_control,2024.2.4,Linux x86_64,62.5,66ad3561c1e5c019916365fb,68817205a84113384fffdfe3,68823b5f4701074242532288,,,,,,,,,,,,./stim/wavs/mexican_mismatch_declarative-broad-focus_El-hombre-mira-la-luna.wav,0,,,143.073,145.577,1,0,1.999,,0,31,31,79,1,80,0,mexican,,,,,,,,,,,,,,,,,,,,,,,,,,,,,,,,,,,,,,,,,,,,,,,,,,,,,,,,
,,,,,,,,,66ad3561c1e5c019916365fb,i use to learn some but not sure which variety it is ,13 or older,click here to respond,no,2025-07-24_10h00.40.951,empathy_intonation_perc_control,2024.2.4,Linux x86_64,62.5,66ad3561c1e5c019916365fb,68817205a84113384fffdfe3,68823b5f4701074242532288,,,,,,,,,,,,./stim/wavs/puertorican_mismatch_declarative-broad-focus_La-nina-lava-el-plato.wav,0,,,145.579,148.703,0,1,2.613,,0,32,32,87,1,88,0,puertorican,,,,,,,,,,,,,,,,,,,,,,,,,,,,,,,,,,,,,,,,,,,,,,,,,,,,,,,,
,,,,,,,,,66ad3561c1e5c019916365fb,i use to learn some but not sure which variety it is ,13 or older,click here to respond,no,2025-07-24_10h00.40.951,empathy_intonation_perc_control,2024.2.4,Linux x86_64,62.5,66ad3561c1e5c019916365fb,68817205a84113384fffdfe3,68823b5f4701074242532288,,,,,,,,,,,,./stim/wavs/castilian_mismatch_declarative-broad-focus_El-nino-oye-el-rio.wav,0,,,148.705,151.082,0,1,1.871,,0,33,33,68,1,69,0,castilian,,,,,,,,,,,,,,,,,,,,,,,,,,,,,,,,,,,,,,,,,,,,,,,,,,,,,,,,
,,,,,,,,,66ad3561c1e5c019916365fb,i use to learn some but not sure which variety it is ,13 or older,click here to respond,no,2025-07-24_10h00.40.951,empathy_intonation_perc_control,2024.2.4,Linux x86_64,62.5,66ad3561c1e5c019916365fb,68817205a84113384fffdfe3,68823b5f4701074242532288,,,,,,,,,,,,./stim/wavs/puertorican_mismatch_declarative-broad-focus_La-maestra-vive-en-Paris.wav,0,,,151.086,154.305,0,1,2.694,,0,34,34,86,1,87,0,puertorican,,,,,,,,,,,,,,,,,,,,,,,,,,,,,,,,,,,,,,,,,,,,,,,,,,,,,,,,
,,,,,,,,,66ad3561c1e5c019916365fb,i use to learn some but not sure which variety it is ,13 or older,click here to respond,no,2025-07-24_10h00.40.951,empathy_intonation_perc_control,2024.2.4,Linux x86_64,62.5,66ad3561c1e5c019916365fb,68817205a84113384fffdfe3,68823b5f4701074242532288,,,,,,,,,,,,./stim/wavs/mexican_mismatch_declarative-broad-focus_El-bebe-comia-muy-bien.wav,0,,,154.306,156.664,1,0,1.838,,0,35,35,78,1,79,0,mexican,,,,,,,,,,,,,,,,,,,,,,,,,,,,,,,,,,,,,,,,,,,,,,,,,,,,,,,,
,,,,,,,,,66ad3561c1e5c019916365fb,i use to learn some but not sure which variety it is ,13 or older,click here to respond,no,2025-07-24_10h00.40.951,empathy_intonation_perc_control,2024.2.4,Linux x86_64,62.5,66ad3561c1e5c019916365fb,68817205a84113384fffdfe3,68823b5f4701074242532288,,,,,,,,,,,,./stim/wavs/puertorican_mismatch_declarative-broad-focus_El-bebe-comia-muy-bien.wav,0,,,156.665,158.938,1,0,1.749,,0,36,36,83,1,84,0,puertorican,,,,,,,,,,,,,,,,,,,,,,,,,,,,,,,,,,,,,,,,,,,,,,,,,,,,,,,,
,,,,,,,,,66ad3561c1e5c019916365fb,i use to learn some but not sure which variety it is ,13 or older,click here to respond,no,2025-07-24_10h00.40.951,empathy_intonation_perc_control,2024.2.4,Linux x86_64,62.5,66ad3561c1e5c019916365fb,68817205a84113384fffdfe3,68823b5f4701074242532288,,,,,,,,,,,,./stim/wavs/cuban_mismatch_declarative-broad-focus_El-bebe-comia-muy-bien.wav,0,,,158.94,162.247,0,1,2.787,,0,37,37,73,1,74,0,cuban,,,,,,,,,,,,,,,,,,,,,,,,,,,,,,,,,,,,,,,,,,,,,,,,,,,,,,,,
,,,,,,,,,66ad3561c1e5c019916365fb,i use to learn some but not sure which variety it is ,13 or older,click here to respond,no,2025-07-24_10h00.40.951,empathy_intonation_perc_control,2024.2.4,Linux x86_64,62.5,66ad3561c1e5c019916365fb,68817205a84113384fffdfe3,68823b5f4701074242532288,,,,,,,,,,,,./stim/wavs/castilian_mismatch_declarative-broad-focus_Mi-tia-odia-la-lluvia.wav,0,,,162.248,166.409,1,0,3.64,,0,38,38,72,1,73,0,castilian,,,,,,,,,,,,,,,,,,,,,,,,,,,,,,,,,,,,,,,,,,,,,,,,,,,,,,,,
,,,,,,,,,66ad3561c1e5c019916365fb,i use to learn some but not sure which variety it is ,13 or older,click here to respond,no,2025-07-24_10h00.40.951,empathy_intonation_perc_control,2024.2.4,Linux x86_64,62.5,66ad3561c1e5c019916365fb,68817205a84113384fffdfe3,68823b5f4701074242532288,,,,,,,,,,,,./stim/wavs/castilian_match_interrogative-total-yn_Mariano-habla-del-tiempo.wav,1,,,166.411,169.488,1,1,2.564,,0,39,39,4,1,5,0,castilian,,,,,,,,,,,,,,,,,,,,,,,,,,,,,,,,,,,,,,,,,,,,,,,,,,,,,,,,
,,,,,,,,,66ad3561c1e5c019916365fb,i use to learn some but not sure which variety it is ,13 or older,click here to respond,no,2025-07-24_10h00.40.951,empathy_intonation_perc_control,2024.2.4,Linux x86_64,62.5,66ad3561c1e5c019916365fb,68817205a84113384fffdfe3,68823b5f4701074242532288,,,,,,,,,,,,./stim/wavs/castilian_match_interrogative-total-yn_Manuela-vende-el-carro.wav,1,,,169.489,172.763,1,1,2.741,,0,40,40,2,1,3,0,castilian,,,,,,,,,,,,,,,,,,,,,,,,,,,,,,,,,,,,,,,,,,,,,,,,,,,,,,,,
,,,,,,,,,66ad3561c1e5c019916365fb,i use to learn some but not sure which variety it is ,13 or older,click here to respond,no,2025-07-24_10h00.40.951,empathy_intonation_perc_control,2024.2.4,Linux x86_64,62.5,66ad3561c1e5c019916365fb,68817205a84113384fffdfe3,68823b5f4701074242532288,,,,,,,,,,,,./stim/wavs/cuban_mismatch_declarative-broad-focus_El-hombre-mira-la-luna.wav,0,,,172.764,174.802,0,1,1.523,,0,41,41,74,1,75,0,cuban,,,,,,,,,,,,,,,,,,,,,,,,,,,,,,,,,,,,,,,,,,,,,,,,,,,,,,,,
,,,,,,,,,66ad3561c1e5c019916365fb,i use to learn some but not sure which variety it is ,13 or older,click here to respond,no,2025-07-24_10h00.40.951,empathy_intonation_perc_control,2024.2.4,Linux x86_64,62.5,66ad3561c1e5c019916365fb,68817205a84113384fffdfe3,68823b5f4701074242532288,,,,,,,,,,,,./stim/wavs/castilian_match_declarative-broad-focus_Maria-bebe-el-vino.wav,0,,,174.803,177.246,1,0,1.931,,0,42,42,47,1,48,0,castilian,,,,,,,,,,,,,,,,,,,,,,,,,,,,,,,,,,,,,,,,,,,,,,,,,,,,,,,,
,,,,,,,,,66ad3561c1e5c019916365fb,i use to learn some but not sure which variety it is ,13 or older,click here to respond,no,2025-07-24_10h00.40.951,empathy_intonation_perc_control,2024.2.4,Linux x86_64,62.5,66ad3561c1e5c019916365fb,68817205a84113384fffdfe3,68823b5f4701074242532288,,,,,,,,,,,,./stim/wavs/cuban_match_interrogative-total-yn_Daniel-iba-a-Bolivia.wav,1,,,177.247,181.041,0,0,3.28,,0,43,43,7,1,8,1,cuban,,,,,,,,,,,,,,,,,,,,,,,,,,,,,,,,,,,,,,,,,,,,,,,,,,,,,,,,
,,,,,,,,,66ad3561c1e5c019916365fb,i use to learn some but not sure which variety it is ,13 or older,click here to respond,no,2025-07-24_10h00.40.951,empathy_intonation_perc_control,2024.2.4,Linux x86_64,62.5,66ad3561c1e5c019916365fb,68817205a84113384fffdfe3,68823b5f4701074242532288,,,,,,,,,,,,./stim/wavs/cuban_match_declarative-broad-focus_Maria-bebe-el-vino.wav,0,,,181.042,182.927,0,1,1.379,,0,44,44,53,1,54,0,cuban,,,,,,,,,,,,,,,,,,,,,,,,,,,,,,,,,,,,,,,,,,,,,,,,,,,,,,,,
,,,,,,,,,66ad3561c1e5c019916365fb,i use to learn some but not sure which variety it is ,13 or older,click here to respond,no,2025-07-24_10h00.40.951,empathy_intonation_perc_control,2024.2.4,Linux x86_64,62.5,66ad3561c1e5c019916365fb,68817205a84113384fffdfe3,68823b5f4701074242532288,,,,,,,,,,,,./stim/wavs/mexican_match_interrogative-total-yn_Ana-lleva-el-abrigo.wav,1,,,182.928,184.886,1,1,1.439,,0,45,45,12,1,13,0,mexican,,,,,,,,,,,,,,,,,,,,,,,,,,,,,,,,,,,,,,,,,,,,,,,,,,,,,,,,
,,,,,,,,,66ad3561c1e5c019916365fb,i use to learn some but not sure which variety it is ,13 or older,click here to respond,no,2025-07-24_10h00.40.951,empathy_intonation_perc_control,2024.2.4,Linux x86_64,62.5,66ad3561c1e5c019916365fb,68817205a84113384fffdfe3,68823b5f4701074242532288,,,,,,,,,,,,./stim/wavs/cuban_mismatch_interrogative-total-yn_El-hombre-mira-la-luna.wav,1,,,184.89,187.257,0,0,1.847,,0,46,46,29,1,30,1,cuban,,,,,,,,,,,,,,,,,,,,,,,,,,,,,,,,,,,,,,,,,,,,,,,,,,,,,,,,
,,,,,,,,,66ad3561c1e5c019916365fb,i use to learn some but not sure which variety it is ,13 or older,click here to respond,no,2025-07-24_10h00.40.951,empathy_intonation_perc_control,2024.2.4,Linux x86_64,62.5,66ad3561c1e5c019916365fb,68817205a84113384fffdfe3,68823b5f4701074242532288,,,,,,,,,,,,./stim/wavs/mexican_match_declarative-broad-focus_Mariano-habla-del-tiempo.wav,0,,,187.258,189.665,0,1,1.901,,0,47,47,60,1,61,0,mexican,,,,,,,,,,,,,,,,,,,,,,,,,,,,,,,,,,,,,,,,,,,,,,,,,,,,,,,,
,,,,,,,,,66ad3561c1e5c019916365fb,i use to learn some but not sure which variety it is ,13 or older,click here to respond,no,2025-07-24_10h00.40.951,empathy_intonation_perc_control,2024.2.4,Linux x86_64,62.5,66ad3561c1e5c019916365fb,68817205a84113384fffdfe3,68823b5f4701074242532288,,,,,,,,,,,,./stim/wavs/mexican_match_declarative-broad-focus_Marta-abre-el-regalo.wav,0,,,189.668,192.242,0,1,2.065,,0,48,48,61,1,62,0,mexican,,,,,,,,,,,,,,,,,,,,,,,,,,,,,,,,,,,,,,,,,,,,,,,,,,,,,,,,
,,,,,,,,,66ad3561c1e5c019916365fb,i use to learn some but not sure which variety it is ,13 or older,click here to respond,no,2025-07-24_10h00.40.951,empathy_intonation_perc_control,2024.2.4,Linux x86_64,62.5,66ad3561c1e5c019916365fb,68817205a84113384fffdfe3,68823b5f4701074242532288,,,,,,,,,,,,./stim/wavs/mexican_match_interrogative-total-yn_Marta-abre-el-regalo.wav,1,,,192.243,194.801,1,1,2.052,,0,49,49,17,1,18,0,mexican,,,,,,,,,,,,,,,,,,,,,,,,,,,,,,,,,,,,,,,,,,,,,,,,,,,,,,,,
,,,,,,,,,66ad3561c1e5c019916365fb,i use to learn some but not sure which variety it is ,13 or older,click here to respond,no,2025-07-24_10h00.40.951,empathy_intonation_perc_control,2024.2.4,Linux x86_64,62.5,66ad3561c1e5c019916365fb,68817205a84113384fffdfe3,68823b5f4701074242532288,,,,,,,,,,,,./stim/wavs/mexican_mismatch_interrogative-total-yn_La-maestra-vive-en-Paris.wav,1,,,194.802,197.056,1,1,1.747,,0,50,50,36,1,37,0,mexican,,,,,,,,,,,,,,,,,,,,,,,,,,,,,,,,,,,,,,,,,,,,,,,,,,,,,,,,
,,,,,,,,,66ad3561c1e5c019916365fb,i use to learn some but not sure which variety it is ,13 or older,click here to respond,no,2025-07-24_10h00.40.951,empathy_intonation_perc_control,2024.2.4,Linux x86_64,62.5,66ad3561c1e5c019916365fb,68817205a84113384fffdfe3,68823b5f4701074242532288,,,,,,,,,,,,./stim/wavs/puertorican_match_interrogative-total-yn_Manuela-vende-el-carro.wav,1,,,197.057,199.948,1,1,2.382,,0,51,51,22,1,23,1,puertorican,,,,,,,,,,,,,,,,,,,,,,,,,,,,,,,,,,,,,,,,,,,,,,,,,,,,,,,,
,,,,,,,,,66ad3561c1e5c019916365fb,i use to learn some but not sure which variety it is ,13 or older,click here to respond,no,2025-07-24_10h00.40.951,empathy_intonation_perc_control,2024.2.4,Linux x86_64,62.5,66ad3561c1e5c019916365fb,68817205a84113384fffdfe3,68823b5f4701074242532288,,,,,,,,,,,,./stim/wavs/mexican_match_interrogative-total-yn_Mariano-habla-del-tiempo.wav,1,,,199.95,202.575,1,1,2.112,,0,52,52,16,1,17,0,mexican,,,,,,,,,,,,,,,,,,,,,,,,,,,,,,,,,,,,,,,,,,,,,,,,,,,,,,,,
,,,,,,,,,66ad3561c1e5c019916365fb,i use to learn some but not sure which variety it is ,13 or older,click here to respond,no,2025-07-24_10h00.40.951,empathy_intonation_perc_control,2024.2.4,Linux x86_64,62.5,66ad3561c1e5c019916365fb,68817205a84113384fffdfe3,68823b5f4701074242532288,,,,,,,,,,,,./stim/wavs/mexican_mismatch_declarative-broad-focus_Mi-novio-viene-del-lago.wav,0,,,202.575,205.431,0,1,2.342,,0,53,53,81,1,82,0,mexican,,,,,,,,,,,,,,,,,,,,,,,,,,,,,,,,,,,,,,,,,,,,,,,,,,,,,,,,
,,,,,,,,,66ad3561c1e5c019916365fb,i use to learn some but not sure which variety it is ,13 or older,click here to respond,no,2025-07-24_10h00.40.951,empathy_intonation_perc_control,2024.2.4,Linux x86_64,62.5,66ad3561c1e5c019916365fb,68817205a84113384fffdfe3,68823b5f4701074242532288,,,,,,,,,,,,./stim/wavs/puertorican_mismatch_interrogative-total-yn_El-hombre-mira-la-luna.wav,1,,,205.432,207.809,0,0,1.862,,0,54,54,39,1,40,1,puertorican,,,,,,,,,,,,,,,,,,,,,,,,,,,,,,,,,,,,,,,,,,,,,,,,,,,,,,,,
,,,,,,,,,66ad3561c1e5c019916365fb,i use to learn some but not sure which variety it is ,13 or older,click here to respond,no,2025-07-24_10h00.40.951,empathy_intonation_perc_control,2024.2.4,Linux x86_64,62.5,66ad3561c1e5c019916365fb,68817205a84113384fffdfe3,68823b5f4701074242532288,,,,,,,,,,,,./stim/wavs/mexican_match_declarative-broad-focus_Daniel-iba-a-Bolivia.wav,0,,,207.81,210.515,0,1,2.189,,0,55,55,57,1,58,0,mexican,,,,,,,,,,,,,,,,,,,,,,,,,,,,,,,,,,,,,,,,,,,,,,,,,,,,,,,,
,,,,,,,,,66ad3561c1e5c019916365fb,i use to learn some but not sure which variety it is ,13 or older,click here to respond,no,2025-07-24_10h00.40.951,empathy_intonation_perc_control,2024.2.4,Linux x86_64,62.5,66ad3561c1e5c019916365fb,68817205a84113384fffdfe3,68823b5f4701074242532288,,,,,,,,,,,,./stim/wavs/mexican_mismatch_interrogative-total-yn_Mi-novio-viene-del-lago.wav,1,,,210.516,212.955,1,1,1.93,,0,56,56,37,1,38,0,mexican,,,,,,,,,,,,,,,,,,,,,,,,,,,,,,,,,,,,,,,,,,,,,,,,,,,,,,,,
,,,,,,,,,66ad3561c1e5c019916365fb,i use to learn some but not sure which variety it is ,13 or older,click here to respond,no,2025-07-24_10h00.40.951,empathy_intonation_perc_control,2024.2.4,Linux x86_64,62.5,66ad3561c1e5c019916365fb,68817205a84113384fffdfe3,68823b5f4701074242532288,,,,,,,,,,,,./stim/wavs/mexican_mismatch_interrogative-total-yn_El-nino-oye-el-rio.wav,1,,,212.957,215.03,1,1,1.556,,0,57,57,35,1,36,0,mexican,,,,,,,,,,,,,,,,,,,,,,,,,,,,,,,,,,,,,,,,,,,,,,,,,,,,,,,,
,,,,,,,,,66ad3561c1e5c019916365fb,i use to learn some but not sure which variety it is ,13 or older,click here to respond,no,2025-07-24_10h00.40.951,empathy_intonation_perc_control,2024.2.4,Linux x86_64,62.5,66ad3561c1e5c019916365fb,68817205a84113384fffdfe3,68823b5f4701074242532288,,,,,,,,,,,,./stim/wavs/mexican_match_declarative-broad-focus_Ana-lleva-el-abrigo.wav,0,,,215.032,217.622,0,1,2.072,,0,58,58,56,1,57,0,mexican,,,,,,,,,,,,,,,,,,,,,,,,,,,,,,,,,,,,,,,,,,,,,,,,,,,,,,,,
,,,,,,,,,66ad3561c1e5c019916365fb,i use to learn some but not sure which variety it is ,13 or older,click here to respond,no,2025-07-24_10h00.40.951,empathy_intonation_perc_control,2024.2.4,Linux x86_64,62.5,66ad3561c1e5c019916365fb,68817205a84113384fffdfe3,68823b5f4701074242532288,,,,,,,,,,,,./stim/wavs/castilian_match_interrogative-total-yn_Marta-abre-el-regalo.wav,1,,,217.629,219.98,1,1,1.83,,0,59,59,5,1,6,0,castilian,,,,,,,,,,,,,,,,,,,,,,,,,,,,,,,,,,,,,,,,,,,,,,,,,,,,,,,,
,,,,,,,,,66ad3561c1e5c019916365fb,i use to learn some but not sure which variety it is ,13 or older,click here to respond,no,2025-07-24_10h00.40.951,empathy_intonation_perc_control,2024.2.4,Linux x86_64,62.5,66ad3561c1e5c019916365fb,68817205a84113384fffdfe3,68823b5f4701074242532288,,,,,,,,,,,,./stim/wavs/castilian_match_declarative-broad-focus_Mariano-habla-del-tiempo.wav,0,,,219.982,222.72,0,1,2.216,,0,60,60,48,1,49,0,castilian,,,,,,,,,,,,,,,,,,,,,,,,,,,,,,,,,,,,,,,,,,,,,,,,,,,,,,,,
,,,,,,,,,66ad3561c1e5c019916365fb,i use to learn some but not sure which variety it is ,13 or older,click here to respond,no,2025-07-24_10h00.40.951,empathy_intonation_perc_control,2024.2.4,Linux x86_64,62.5,66ad3561c1e5c019916365fb,68817205a84113384fffdfe3,68823b5f4701074242532288,,,,,,,,,,,,./stim/wavs/cuban_match_interrogative-total-yn_Ana-lleva-el-abrigo.wav,1,,,222.722,225.414,0,0,2.187,,0,61,61,6,1,7,1,cuban,,,,,,,,,,,,,,,,,,,,,,,,,,,,,,,,,,,,,,,,,,,,,,,,,,,,,,,,
,,,,,,,,,66ad3561c1e5c019916365fb,i use to learn some but not sure which variety it is ,13 or older,click here to respond,no,2025-07-24_10h00.40.951,empathy_intonation_perc_control,2024.2.4,Linux x86_64,62.5,66ad3561c1e5c019916365fb,68817205a84113384fffdfe3,68823b5f4701074242532288,,,,,,,,,,,,./stim/wavs/castilian_mismatch_interrogative-total-yn_Mi-tia-odia-la-lluvia.wav,1,,,225.416,228.036,1,1,2.091,,0,62,62,28,1,29,0,castilian,,,,,,,,,,,,,,,,,,,,,,,,,,,,,,,,,,,,,,,,,,,,,,,,,,,,,,,,
,,,,,,,,,66ad3561c1e5c019916365fb,i use to learn some but not sure which variety it is ,13 or older,click here to respond,no,2025-07-24_10h00.40.951,empathy_intonation_perc_control,2024.2.4,Linux x86_64,62.5,66ad3561c1e5c019916365fb,68817205a84113384fffdfe3,68823b5f4701074242532288,,,,,,,,,,,,./stim/wavs/mexican_mismatch_declarative-broad-focus_La-maestra-vive-en-Paris.wav,0,,,228.038,230.278,0,1,1.726,,0,63,63,80,1,81,0,mexican,,,,,,,,,,,,,,,,,,,,,,,,,,,,,,,,,,,,,,,,,,,,,,,,,,,,,,,,
,,,,,,,,,66ad3561c1e5c019916365fb,i use to learn some but not sure which variety it is ,13 or older,click here to respond,no,2025-07-24_10h00.40.951,empathy_intonation_perc_control,2024.2.4,Linux x86_64,62.5,66ad3561c1e5c019916365fb,68817205a84113384fffdfe3,68823b5f4701074242532288,,,,,,,,,,,,./stim/wavs/mexican_match_interrogative-total-yn_Emilio-ama-la-marcha.wav,1,,,230.28,232.653,1,1,1.841,,0,64,64,15,1,16,0,mexican,,,,,,,,,,,,,,,,,,,,,,,,,,,,,,,,,,,,,,,,,,,,,,,,,,,,,,,,
,,,,,,,,,66ad3561c1e5c019916365fb,i use to learn some but not sure which variety it is ,13 or older,click here to respond,no,2025-07-24_10h00.40.951,empathy_intonation_perc_control,2024.2.4,Linux x86_64,62.5,66ad3561c1e5c019916365fb,68817205a84113384fffdfe3,68823b5f4701074242532288,,,,,,,,,,,,./stim/wavs/puertorican_match_interrogative-total-yn_Ana-lleva-el-abrigo.wav,1,,,232.654,235.008,0,0,1.838,,0,65,65,18,1,19,1,puertorican,,,,,,,,,,,,,,,,,,,,,,,,,,,,,,,,,,,,,,,,,,,,,,,,,,,,,,,,
,,,,,,,,,66ad3561c1e5c019916365fb,i use to learn some but not sure which variety it is ,13 or older,click here to respond,no,2025-07-24_10h00.40.951,empathy_intonation_perc_control,2024.2.4,Linux x86_64,62.5,66ad3561c1e5c019916365fb,68817205a84113384fffdfe3,68823b5f4701074242532288,,,,,,,,,,,,./stim/wavs/castilian_mismatch_interrogative-total-yn_Mi-novio-viene-del-lago.wav,1,,,235.011,237.317,1,1,1.791,,0,66,66,27,1,28,0,castilian,,,,,,,,,,,,,,,,,,,,,,,,,,,,,,,,,,,,,,,,,,,,,,,,,,,,,,,,
,,,,,,,,,66ad3561c1e5c019916365fb,i use to learn some but not sure which variety it is ,13 or older,click here to respond,no,2025-07-24_10h00.40.951,empathy_intonation_perc_control,2024.2.4,Linux x86_64,62.5,66ad3561c1e5c019916365fb,68817205a84113384fffdfe3,68823b5f4701074242532288,,,,,,,,,,,,./stim/wavs/cuban_match_interrogative-total-yn_Maria-bebe-el-vino.wav,1,,,237.318,239.324,0,0,1.494,,0,67,67,9,1,10,1,cuban,,,,,,,,,,,,,,,,,,,,,,,,,,,,,,,,,,,,,,,,,,,,,,,,,,,,,,,,
,,,,,,,,,66ad3561c1e5c019916365fb,i use to learn some but not sure which variety it is ,13 or older,click here to respond,no,2025-07-24_10h00.40.951,empathy_intonation_perc_control,2024.2.4,Linux x86_64,62.5,66ad3561c1e5c019916365fb,68817205a84113384fffdfe3,68823b5f4701074242532288,,,,,,,,,,,,./stim/wavs/puertorican_mismatch_declarative-broad-focus_El-hombre-mira-la-luna.wav,0,,,239.325,241.581,0,1,1.724,,0,68,68,84,1,85,0,puertorican,,,,,,,,,,,,,,,,,,,,,,,,,,,,,,,,,,,,,,,,,,,,,,,,,,,,,,,,
,,,,,,,,,66ad3561c1e5c019916365fb,i use to learn some but not sure which variety it is ,13 or older,click here to respond,no,2025-07-24_10h00.40.951,empathy_intonation_perc_control,2024.2.4,Linux x86_64,62.5,66ad3561c1e5c019916365fb,68817205a84113384fffdfe3,68823b5f4701074242532288,,,,,,,,,,,,./stim/wavs/puertorican_mismatch_interrogative-total-yn_La-nina-lava-el-plato.wav,1,,,241.583,243.886,0,0,1.798,,0,69,69,42,1,43,1,puertorican,,,,,,,,,,,,,,,,,,,,,,,,,,,,,,,,,,,,,,,,,,,,,,,,,,,,,,,,
,,,,,,,,,66ad3561c1e5c019916365fb,i use to learn some but not sure which variety it is ,13 or older,click here to respond,no,2025-07-24_10h00.40.951,empathy_intonation_perc_control,2024.2.4,Linux x86_64,62.5,66ad3561c1e5c019916365fb,68817205a84113384fffdfe3,68823b5f4701074242532288,,,,,,,,,,,,./stim/wavs/castilian_mismatch_declarative-broad-focus_La-nina-lava-el-plato.wav,0,,,243.888,246.614,0,1,2.21,,0,70,70,70,1,71,0,castilian,,,,,,,,,,,,,,,,,,,,,,,,,,,,,,,,,,,,,,,,,,,,,,,,,,,,,,,,
,,,,,,,,,66ad3561c1e5c019916365fb,i use to learn some but not sure which variety it is ,13 or older,click here to respond,no,2025-07-24_10h00.40.951,empathy_intonation_perc_control,2024.2.4,Linux x86_64,62.5,66ad3561c1e5c019916365fb,68817205a84113384fffdfe3,68823b5f4701074242532288,,,,,,,,,,,,./stim/wavs/cuban_match_declarative-broad-focus_Ana-lleva-el-abrigo.wav,0,,,246.615,248.737,0,1,1.601,,0,71,71,50,1,51,0,cuban,,,,,,,,,,,,,,,,,,,,,,,,,,,,,,,,,,,,,,,,,,,,,,,,,,,,,,,,
,,,,,,,,,66ad3561c1e5c019916365fb,i use to learn some but not sure which variety it is ,13 or older,click here to respond,no,2025-07-24_10h00.40.951,empathy_intonation_perc_control,2024.2.4,Linux x86_64,62.5,66ad3561c1e5c019916365fb,68817205a84113384fffdfe3,68823b5f4701074242532288,,,,,,,,,,,,./stim/wavs/puertorican_match_interrogative-total-yn_Daniel-iba-a-Bolivia.wav,1,,,248.739,251.045,0,0,1.791,,0,72,72,19,1,20,1,puertorican,,,,,,,,,,,,,,,,,,,,,,,,,,,,,,,,,,,,,,,,,,,,,,,,,,,,,,,,
,,,,,,,,,66ad3561c1e5c019916365fb,i use to learn some but not sure which variety it is ,13 or older,click here to respond,no,2025-07-24_10h00.40.951,empathy_intonation_perc_control,2024.2.4,Linux x86_64,62.5,66ad3561c1e5c019916365fb,68817205a84113384fffdfe3,68823b5f4701074242532288,,,,,,,,,,,,./stim/wavs/cuban_match_declarative-broad-focus_Marta-abre-el-regalo.wav,0,,,251.046,253.136,0,1,1.57,,0,73,73,55,1,56,0,cuban,,,,,,,,,,,,,,,,,,,,,,,,,,,,,,,,,,,,,,,,,,,,,,,,,,,,,,,,
,,,,,,,,,66ad3561c1e5c019916365fb,i use to learn some but not sure which variety it is ,13 or older,click here to respond,no,2025-07-24_10h00.40.951,empathy_intonation_perc_control,2024.2.4,Linux x86_64,62.5,66ad3561c1e5c019916365fb,68817205a84113384fffdfe3,68823b5f4701074242532288,,,,,,,,,,,,./stim/wavs/cuban_mismatch_interrogative-total-yn_Mi-madre-come-la-fruta.wav,1,,,253.142,255.259,0,0,1.601,,0,74,74,31,1,32,1,cuban,,,,,,,,,,,,,,,,,,,,,,,,,,,,,,,,,,,,,,,,,,,,,,,,,,,,,,,,
,,,,,,,,,66ad3561c1e5c019916365fb,i use to learn some but not sure which variety it is ,13 or older,click here to respond,no,2025-07-24_10h00.40.951,empathy_intonation_perc_control,2024.2.4,Linux x86_64,62.5,66ad3561c1e5c019916365fb,68817205a84113384fffdfe3,68823b5f4701074242532288,,,,,,,,,,,,./stim/wavs/puertorican_mismatch_interrogative-total-yn_Mi-madre-come-la-fruta.wav,1,,,255.261,257.197,0,0,1.406,,0,75,75,43,1,44,1,puertorican,,,,,,,,,,,,,,,,,,,,,,,,,,,,,,,,,,,,,,,,,,,,,,,,,,,,,,,,
,,,,,,,,,66ad3561c1e5c019916365fb,i use to learn some but not sure which variety it is ,13 or older,click here to respond,no,2025-07-24_10h00.40.951,empathy_intonation_perc_control,2024.2.4,Linux x86_64,62.5,66ad3561c1e5c019916365fb,68817205a84113384fffdfe3,68823b5f4701074242532288,,,,,,,,,,,,./stim/wavs/mexican_match_interrogative-total-yn_David-leia-el-libro.wav,1,,,257.199,259.121,1,1,1.396,,0,76,76,14,1,15,0,mexican,,,,,,,,,,,,,,,,,,,,,,,,,,,,,,,,,,,,,,,,,,,,,,,,,,,,,,,,
,,,,,,,,,66ad3561c1e5c019916365fb,i use to learn some but not sure which variety it is ,13 or older,click here to respond,no,2025-07-24_10h00.40.951,empathy_intonation_perc_control,2024.2.4,Linux x86_64,62.5,66ad3561c1e5c019916365fb,68817205a84113384fffdfe3,68823b5f4701074242532288,,,,,,,,,,,,./stim/wavs/castilian_match_interrogative-total-yn_David-leia-el-libro.wav,1,,,259.123,261.224,1,1,1.58,,0,77,77,0,1,1,0,castilian,,,,,,,,,,,,,,,,,,,,,,,,,,,,,,,,,,,,,,,,,,,,,,,,,,,,,,,,
,,,,,,,,,66ad3561c1e5c019916365fb,i use to learn some but not sure which variety it is ,13 or older,click here to respond,no,2025-07-24_10h00.40.951,empathy_intonation_perc_control,2024.2.4,Linux x86_64,62.5,66ad3561c1e5c019916365fb,68817205a84113384fffdfe3,68823b5f4701074242532288,,,,,,,,,,,,./stim/wavs/mexican_mismatch_declarative-broad-focus_Mi-tia-odia-la-lluvia.wav,0,,,261.225,263.316,0,1,1.58,,0,78,78,82,1,83,0,mexican,,,,,,,,,,,,,,,,,,,,,,,,,,,,,,,,,,,,,,,,,,,,,,,,,,,,,,,,
,,,,,,,,,66ad3561c1e5c019916365fb,i use to learn some but not sure which variety it is ,13 or older,click here to respond,no,2025-07-24_10h00.40.951,empathy_intonation_perc_control,2024.2.4,Linux x86_64,62.5,66ad3561c1e5c019916365fb,68817205a84113384fffdfe3,68823b5f4701074242532288,,,,,,,,,,,,./stim/wavs/puertorican_match_declarative-broad-focus_Maria-bebe-el-vino.wav,0,,,263.318,265.138,0,1,1.296,,0,79,79,67,1,68,0,puertorican,,,,,,,,,,,,,,,,,,,,,,,,,,,,,,,,,,,,,,,,,,,,,,,,,,,,,,,,
,,,,,,,,,66ad3561c1e5c019916365fb,i use to learn some but not sure which variety it is ,13 or older,click here to respond,no,2025-07-24_10h00.40.951,empathy_intonation_perc_control,2024.2.4,Linux x86_64,62.5,66ad3561c1e5c019916365fb,68817205a84113384fffdfe3,68823b5f4701074242532288,,,,,,,,,,,,./stim/wavs/cuban_mismatch_declarative-broad-focus_Mi-novio-viene-del-lago.wav,0,,,265.139,267.581,0,1,1.922,,0,80,80,76,1,77,0,cuban,,,,,,,,,,,,,,,,,,,,,,,,,,,,,,,,,,,,,,,,,,,,,,,,,,,,,,,,
,,,,,,,,,66ad3561c1e5c019916365fb,i use to learn some but not sure which variety it is ,13 or older,click here to respond,no,2025-07-24_10h00.40.951,empathy_intonation_perc_control,2024.2.4,Linux x86_64,62.5,66ad3561c1e5c019916365fb,68817205a84113384fffdfe3,68823b5f4701074242532288,,,,,,,,,,,,./stim/wavs/castilian_mismatch_interrogative-total-yn_La-nina-lava-el-plato.wav,1,,,267.582,269.668,1,1,1.559,,0,81,81,25,1,26,0,castilian,,,,,,,,,,,,,,,,,,,,,,,,,,,,,,,,,,,,,,,,,,,,,,,,,,,,,,,,
,,,,,,,,,66ad3561c1e5c019916365fb,i use to learn some but not sure which variety it is ,13 or older,click here to respond,no,2025-07-24_10h00.40.951,empathy_intonation_perc_control,2024.2.4,Linux x86_64,62.5,66ad3561c1e5c019916365fb,68817205a84113384fffdfe3,68823b5f4701074242532288,,,,,,,,,,,,./stim/wavs/cuban_match_declarative-broad-focus_Mariano-habla-del-tiempo.wav,0,,,269.67,271.777,0,1,1.592,,0,82,82,54,1,55,0,cuban,,,,,,,,,,,,,,,,,,,,,,,,,,,,,,,,,,,,,,,,,,,,,,,,,,,,,,,,
,,,,,,,,,66ad3561c1e5c019916365fb,i use to learn some but not sure which variety it is ,13 or older,click here to respond,no,2025-07-24_10h00.40.951,empathy_intonation_perc_control,2024.2.4,Linux x86_64,62.5,66ad3561c1e5c019916365fb,68817205a84113384fffdfe3,68823b5f4701074242532288,,,,,,,,,,,,./stim/wavs/castilian_match_declarative-broad-focus_Manuela-vende-el-carro.wav,0,,,271.778,274,1,0,1.714,,0,83,83,46,1,47,0,castilian,,,,,,,,,,,,,,,,,,,,,,,,,,,,,,,,,,,,,,,,,,,,,,,,,,,,,,,,
,,,,,,,,,66ad3561c1e5c019916365fb,i use to learn some but not sure which variety it is ,13 or older,click here to respond,no,2025-07-24_10h00.40.951,empathy_intonation_perc_control,2024.2.4,Linux x86_64,62.5,66ad3561c1e5c019916365fb,68817205a84113384fffdfe3,68823b5f4701074242532288,,,,,,,,,,,,./stim/wavs/castilian_mismatch_interrogative-total-yn_Mi-madre-come-la-fruta.wav,1,,,274.001,276.191,1,1,1.685,,0,84,84,26,1,27,0,castilian,,,,,,,,,,,,,,,,,,,,,,,,,,,,,,,,,,,,,,,,,,,,,,,,,,,,,,,,
,,,,,,,,,66ad3561c1e5c019916365fb,i use to learn some but not sure which variety it is ,13 or older,click here to respond,no,2025-07-24_10h00.40.951,empathy_intonation_perc_control,2024.2.4,Linux x86_64,62.5,66ad3561c1e5c019916365fb,68817205a84113384fffdfe3,68823b5f4701074242532288,,,,,,,,,,,,./stim/wavs/cuban_mismatch_interrogative-total-yn_El-nino-oye-el-rio.wav,1,,,276.193,278.614,0,0,1.91,,0,85,85,30,1,31,1,cuban,,,,,,,,,,,,,,,,,,,,,,,,,,,,,,,,,,,,,,,,,,,,,,,,,,,,,,,,
,,,,,,,,,66ad3561c1e5c019916365fb,i use to learn some but not sure which variety it is ,13 or older,click here to respond,no,2025-07-24_10h00.40.951,empathy_intonation_perc_control,2024.2.4,Linux x86_64,62.5,66ad3561c1e5c019916365fb,68817205a84113384fffdfe3,68823b5f4701074242532288,,,,,,,,,,,,./stim/wavs/puertorican_match_declarative-broad-focus_Manuela-vende-el-carro.wav,0,,,278.616,280.873,0,1,1.735,,0,86,86,66,1,67,0,puertorican,,,,,,,,,,,,,,,,,,,,,,,,,,,,,,,,,,,,,,,,,,,,,,,,,,,,,,,,
,,,,,,,,,66ad3561c1e5c019916365fb,i use to learn some but not sure which variety it is ,13 or older,click here to respond,no,2025-07-24_10h00.40.951,empathy_intonation_perc_control,2024.2.4,Linux x86_64,62.5,66ad3561c1e5c019916365fb,68817205a84113384fffdfe3,68823b5f4701074242532288,,,,,,,,,,,,./stim/wavs/puertorican_mismatch_declarative-broad-focus_El-nino-oye-el-rio.wav,0,,,280.874,283.06,0,1,1.657,,0,87,87,85,1,86,0,puertorican,,,,,,,,,,,,,,,,,,,,,,,,,,,,,,,,,,,,,,,,,,,,,,,,,,,,,,,,
,,,,,,,"Great! Now we will move on. The next task consists of about 60 trials, in each of which you will see a string of letters. 
  
  Your task is to decide whether this is a real Spanish word or not.", (press the spacebar to continue),66ad3561c1e5c019916365fb,i use to learn some but not sure which variety it is ,13 or older,click here to respond,no,2025-07-24_10h00.40.951,empathy_intonation_perc_control,2024.2.4,Linux x86_64,62.5,66ad3561c1e5c019916365fb,68817205a84113384fffdfe3,68823b5f4701074242532288,,,,,,,,,,,,,,,,,,,,,,,,,,,,,,283.07,289.4,0,0,0,0,1,,,,,,,,,,,,,,,,,,,,,,,,,,,,,,,,,,,,,,,,,,,,,,,,,
,,,,,,,"If you think it is an existing Spanish word, you type '1' (for 'REAL'), and if you think it is not an existing Spanish word, you type '0' (for 'FAKE').", (press the spacebar to continue),66ad3561c1e5c019916365fb,i use to learn some but not sure which variety it is ,13 or older,click here to respond,no,2025-07-24_10h00.40.951,empathy_intonation_perc_control,2024.2.4,Linux x86_64,62.5,66ad3561c1e5c019916365fb,68817205a84113384fffdfe3,68823b5f4701074242532288,,,,,,,,,,,,,,,,,,,,,,,,,,,,,,289.409,294.262,0,1,1,1,1,,,,,,,,,,,,,,,,,,,,,,,,,,,,,,,,,,,,,,,,,,,,,,,,,
,,,,,,,"If you are sure that the word exists, even though you don’t know its exact meaning, you may still respond '1' (REAL). 
  
  But if you are not sure if it is an existing word, you should respond '0' (FAKE).
  
  Let's do a practice round...", (press the spacebar to continue),66ad3561c1e5c019916365fb,i use to learn some but not sure which variety it is ,13 or older,click here to respond,no,2025-07-24_10h00.40.951,empathy_intonation_perc_control,2024.2.4,Linux x86_64,62.5,66ad3561c1e5c019916365fb,68817205a84113384fffdfe3,68823b5f4701074242532288,,,,,,,,,,,,,,,,,,,,,,,,,,,,,,294.266,297.072,0,2,2,2,1,,,,,,,,,,,,,,,,,,,,,,,,,,,,,,,,,,,,,,,,,,,,,,,,,
,,,,,,,,,66ad3561c1e5c019916365fb,i use to learn some but not sure which variety it is ,13 or older,click here to respond,no,2025-07-24_10h00.40.951,empathy_intonation_perc_control,2024.2.4,Linux x86_64,62.5,66ad3561c1e5c019916365fb,68817205a84113384fffdfe3,68823b5f4701074242532288,,,,,,,,,,,,,0,,,,,,,,,,,,,,,,,,,,,,,,297.087,300.031,0,1,2.425,,300.031,301.034,0,0,0,0,1,0,depiste,REAL,FAKE,,,,,,,,,,,,,,,,,,,,,,,,,,,,,,,,
,,,,,,,,,66ad3561c1e5c019916365fb,i use to learn some but not sure which variety it is ,13 or older,click here to respond,no,2025-07-24_10h00.40.951,empathy_intonation_perc_control,2024.2.4,Linux x86_64,62.5,66ad3561c1e5c019916365fb,68817205a84113384fffdfe3,68823b5f4701074242532288,,,,,,,,,,,,,1,,,,,,,,,,,,,,,,,,,,,,,,301.036,302.672,1,1,1.115,,302.673,303.676,0,1,1,1,1,0,sí,REAL,FAKE,,,,,,,,,,,,,,,,,,,,,,,,,,,,,,,,
,,,,,,,,,66ad3561c1e5c019916365fb,i use to learn some but not sure which variety it is ,13 or older,click here to respond,no,2025-07-24_10h00.40.951,empathy_intonation_perc_control,2024.2.4,Linux x86_64,62.5,66ad3561c1e5c019916365fb,68817205a84113384fffdfe3,68823b5f4701074242532288,,,,,,,,,,,,,0,,,,,,,,,,,,,,,,,,,,,,,,303.678,306.136,0,1,1.935,,306.137,307.138,0,2,2,2,1,0,coné,REAL,FAKE,,,,,,,,,,,,,,,,,,,,,,,,,,,,,,,,
,,,,,,,,,66ad3561c1e5c019916365fb,i use to learn some but not sure which variety it is ,13 or older,click here to respond,no,2025-07-24_10h00.40.951,empathy_intonation_perc_control,2024.2.4,Linux x86_64,62.5,66ad3561c1e5c019916365fb,68817205a84113384fffdfe3,68823b5f4701074242532288,,,,,,,,,,,,,0,,,,,,,,,,,,,,,,,,,,,,,,307.14,308.728,0,1,1.068,,308.728,309.731,0,3,3,3,1,0,calpar,REAL,FAKE,,,,,,,,,,,,,,,,,,,,,,,,,,,,,,,,
,,,,,,,,,66ad3561c1e5c019916365fb,i use to learn some but not sure which variety it is ,13 or older,click here to respond,no,2025-07-24_10h00.40.951,empathy_intonation_perc_control,2024.2.4,Linux x86_64,62.5,66ad3561c1e5c019916365fb,68817205a84113384fffdfe3,68823b5f4701074242532288,,,,,,,,,,,,,0,,,,,,,,,,,,,,,,,,,,,,,,309.732,311.215,0,1,0.969,,311.215,312.219,0,4,4,4,1,0,joten,REAL,FAKE,,,,,,,,,,,,,,,,,,,,,,,,,,,,,,,,
,,,,,,,,,66ad3561c1e5c019916365fb,i use to learn some but not sure which variety it is ,13 or older,click here to respond,no,2025-07-24_10h00.40.951,empathy_intonation_perc_control,2024.2.4,Linux x86_64,62.5,66ad3561c1e5c019916365fb,68817205a84113384fffdfe3,68823b5f4701074242532288,,,,,,,,,,,,,1,,,,,,,,,,,,,,,,,,,,,,,,312.221,314.778,1,1,2.032,,314.778,315.778,0,5,5,5,1,0,sacapuntas,REAL,FAKE,,,,,,,,,,,,,,,,,,,,,,,,,,,,,,,,
,,,,,,,,,66ad3561c1e5c019916365fb,i use to learn some but not sure which variety it is ,13 or older,click here to respond,no,2025-07-24_10h00.40.951,empathy_intonation_perc_control,2024.2.4,Linux x86_64,62.5,66ad3561c1e5c019916365fb,68817205a84113384fffdfe3,68823b5f4701074242532288,,,,,,,,,,,,,0,,,,,,,,,,,,,,,,,,,,,,,,315.78,317.502,1,0,1.209,,317.504,318.49,0,6,6,6,1,0,priba,REAL,FAKE,,,,,,,,,,,,,,,,,,,,,,,,,,,,,,,,
,,,,,,,,,66ad3561c1e5c019916365fb,i use to learn some but not sure which variety it is ,13 or older,click here to respond,no,2025-07-24_10h00.40.951,empathy_intonation_perc_control,2024.2.4,Linux x86_64,62.5,66ad3561c1e5c019916365fb,68817205a84113384fffdfe3,68823b5f4701074242532288,,,,,,,,,,,,,0,,,,,,,,,,,,,,,,,,,,,,,,318.493,320.282,1,0,1.276,,320.282,321.284,0,7,7,7,1,0,pelasula,REAL,FAKE,,,,,,,,,,,,,,,,,,,,,,,,,,,,,,,,
,,,,,,,,,66ad3561c1e5c019916365fb,i use to learn some but not sure which variety it is ,13 or older,click here to respond,no,2025-07-24_10h00.40.951,empathy_intonation_perc_control,2024.2.4,Linux x86_64,62.5,66ad3561c1e5c019916365fb,68817205a84113384fffdfe3,68823b5f4701074242532288,,,,,,,,,,,,,1,,,,,,,,,,,,,,,,,,,,,,,,321.291,322.756,1,1,0.932,,322.757,323.758,0,8,8,8,1,0,bien,REAL,FAKE,,,,,,,,,,,,,,,,,,,,,,,,,,,,,,,,
,,,,,,,,,66ad3561c1e5c019916365fb,i use to learn some but not sure which variety it is ,13 or older,click here to respond,no,2025-07-24_10h00.40.951,empathy_intonation_perc_control,2024.2.4,Linux x86_64,62.5,66ad3561c1e5c019916365fb,68817205a84113384fffdfe3,68823b5f4701074242532288,,,,,,,,,,,,,1,,,,,,,,,,,,,,,,,,,,,,,,323.759,325.227,1,1,0.931,,325.227,326.231,0,9,9,9,1,0,casa,REAL,FAKE,,,,,,,,,,,,,,,,,,,,,,,,,,,,,,,,
,,,,,,,,,66ad3561c1e5c019916365fb,i use to learn some but not sure which variety it is ,13 or older,click here to respond,no,2025-07-24_10h00.40.951,empathy_intonation_perc_control,2024.2.4,Linux x86_64,62.5,66ad3561c1e5c019916365fb,68817205a84113384fffdfe3,68823b5f4701074242532288,,,,,,,,,,,,,0,,,,,,,,,,,,,,,,,,,,,,,,326.233,328.193,1,0,1.438,,328.194,329.189,0,10,10,10,1,0,lejo,REAL,FAKE,,,,,,,,,,,,,,,,,,,,,,,,,,,,,,,,
,,,,,,,,,66ad3561c1e5c019916365fb,i use to learn some but not sure which variety it is ,13 or older,click here to respond,no,2025-07-24_10h00.40.951,empathy_intonation_perc_control,2024.2.4,Linux x86_64,62.5,66ad3561c1e5c019916365fb,68817205a84113384fffdfe3,68823b5f4701074242532288,,,,,,,,,,,,,0,,,,,,,,,,,,,,,,,,,,,,,,329.19,331.196,0,1,1.481,,331.197,332.2,0,11,11,11,1,0,pretantas,REAL,FAKE,,,,,,,,,,,,,,,,,,,,,,,,,,,,,,,,
,,,,,,,,,66ad3561c1e5c019916365fb,i use to learn some but not sure which variety it is ,13 or older,click here to respond,no,2025-07-24_10h00.40.951,empathy_intonation_perc_control,2024.2.4,Linux x86_64,62.5,66ad3561c1e5c019916365fb,68817205a84113384fffdfe3,68823b5f4701074242532288,,,,,,,,,,,,,,,,,,,,,,,,,,,,,,,,,,,,,,,,,,,,,,,,,,,,,,332.2,333.535,,,,,,,,,,,,,,,,,,,,,,,,,,,,,,
,,,,,,,,,66ad3561c1e5c019916365fb,i use to learn some but not sure which variety it is ,13 or older,click here to respond,no,2025-07-24_10h00.40.951,empathy_intonation_perc_control,2024.2.4,Linux x86_64,62.5,66ad3561c1e5c019916365fb,68817205a84113384fffdfe3,68823b5f4701074242532288,,,,,,,,,,,,,1,,,,,,,,,,,,,,,,,,,,,,,,,,,,,,,,,,,,,75,yacer,,,,,333.56,335.158,0,0,1.074,,0,0,0,74,1,REAL,FAKE,,,,,,,,,,,,,,,,,
,,,,,,,,,66ad3561c1e5c019916365fb,i use to learn some but not sure which variety it is ,13 or older,click here to respond,no,2025-07-24_10h00.40.951,empathy_intonation_perc_control,2024.2.4,Linux x86_64,62.5,66ad3561c1e5c019916365fb,68817205a84113384fffdfe3,68823b5f4701074242532288,,,,,,,,,,,,,1,,,,,,,,,,,,,,,,,,,,,,,,,,,,,,,,,,,,,37,granuja,,,,,335.16,336.752,0,0,1.062,,0,1,1,36,1,REAL,FAKE,,,,,,,,,,,,,,,,,
,,,,,,,,,66ad3561c1e5c019916365fb,i use to learn some but not sure which variety it is ,13 or older,click here to respond,no,2025-07-24_10h00.40.951,empathy_intonation_perc_control,2024.2.4,Linux x86_64,62.5,66ad3561c1e5c019916365fb,68817205a84113384fffdfe3,68823b5f4701074242532288,,,,,,,,,,,,,0,,,,,,,,,,,,,,,,,,,,,,,,,,,,,,,,,,,,,32,fatacidad,,,,,336.754,338.469,1,0,1.179,,0,2,2,31,1,REAL,FAKE,,,,,,,,,,,,,,,,,
,,,,,,,,,66ad3561c1e5c019916365fb,i use to learn some but not sure which variety it is ,13 or older,click here to respond,no,2025-07-24_10h00.40.951,empathy_intonation_perc_control,2024.2.4,Linux x86_64,62.5,66ad3561c1e5c019916365fb,68817205a84113384fffdfe3,68823b5f4701074242532288,,,,,,,,,,,,,1,,,,,,,,,,,,,,,,,,,,,,,,,,,,,,,,,,,,,45,jilguero,,,,,338.47,339.958,1,1,0.975,,0,3,3,44,1,REAL,FAKE,,,,,,,,,,,,,,,,,
,,,,,,,,,66ad3561c1e5c019916365fb,i use to learn some but not sure which variety it is ,13 or older,click here to respond,no,2025-07-24_10h00.40.951,empathy_intonation_perc_control,2024.2.4,Linux x86_64,62.5,66ad3561c1e5c019916365fb,68817205a84113384fffdfe3,68823b5f4701074242532288,,,,,,,,,,,,,1,,,,,,,,,,,,,,,,,,,,,,,,,,,,,,,,,,,,,14,yunque,,,,,339.96,341.411,0,0,0.929,,0,4,4,13,1,REAL,FAKE,,,,,,,,,,,,,,,,,
,,,,,,,,,66ad3561c1e5c019916365fb,i use to learn some but not sure which variety it is ,13 or older,click here to respond,no,2025-07-24_10h00.40.951,empathy_intonation_perc_control,2024.2.4,Linux x86_64,62.5,66ad3561c1e5c019916365fb,68817205a84113384fffdfe3,68823b5f4701074242532288,,,,,,,,,,,,,0,,,,,,,,,,,,,,,,,,,,,,,,,,,,,,,,,,,,,79,tropaje,,,,,341.413,342.733,0,1,0.808,,0,5,5,78,1,REAL,FAKE,,,,,,,,,,,,,,,,,
,,,,,,,,,66ad3561c1e5c019916365fb,i use to learn some but not sure which variety it is ,13 or older,click here to respond,no,2025-07-24_10h00.40.951,empathy_intonation_perc_control,2024.2.4,Linux x86_64,62.5,66ad3561c1e5c019916365fb,68817205a84113384fffdfe3,68823b5f4701074242532288,,,,,,,,,,,,,1,,,,,,,,,,,,,,,,,,,,,,,,,,,,,,,,,,,,,78,frondoso,,,,,342.735,344.12,0,0,0.866,,0,6,6,77,1,REAL,FAKE,,,,,,,,,,,,,,,,,
,,,,,,,,,66ad3561c1e5c019916365fb,i use to learn some but not sure which variety it is ,13 or older,click here to respond,no,2025-07-24_10h00.40.951,empathy_intonation_perc_control,2024.2.4,Linux x86_64,62.5,66ad3561c1e5c019916365fb,68817205a84113384fffdfe3,68823b5f4701074242532288,,,,,,,,,,,,,1,,,,,,,,,,,,,,,,,,,,,,,,,,,,,,,,,,,,,67,cabello,,,,,344.122,345.422,1,1,0.779,,0,7,7,66,1,REAL,FAKE,,,,,,,,,,,,,,,,,
,,,,,,,,,66ad3561c1e5c019916365fb,i use to learn some but not sure which variety it is ,13 or older,click here to respond,no,2025-07-24_10h00.40.951,empathy_intonation_perc_control,2024.2.4,Linux x86_64,62.5,66ad3561c1e5c019916365fb,68817205a84113384fffdfe3,68823b5f4701074242532288,,,,,,,,,,,,,1,,,,,,,,,,,,,,,,,,,,,,,,,,,,,,,,,,,,,49,ganar,,,,,345.424,346.978,0,0,1.038,,0,8,8,48,1,REAL,FAKE,,,,,,,,,,,,,,,,,
,,,,,,,,,66ad3561c1e5c019916365fb,i use to learn some but not sure which variety it is ,13 or older,click here to respond,no,2025-07-24_10h00.40.951,empathy_intonation_perc_control,2024.2.4,Linux x86_64,62.5,66ad3561c1e5c019916365fb,68817205a84113384fffdfe3,68823b5f4701074242532288,,,,,,,,,,,,,1,,,,,,,,,,,,,,,,,,,,,,,,,,,,,,,,,,,,,44,cuchara,,,,,346.98,348.467,1,1,0.962,,0,9,9,43,1,REAL,FAKE,,,,,,,,,,,,,,,,,
,,,,,,,,,66ad3561c1e5c019916365fb,i use to learn some but not sure which variety it is ,13 or older,click here to respond,no,2025-07-24_10h00.40.951,empathy_intonation_perc_control,2024.2.4,Linux x86_64,62.5,66ad3561c1e5c019916365fb,68817205a84113384fffdfe3,68823b5f4701074242532288,,,,,,,,,,,,,1,,,,,,,,,,,,,,,,,,,,,,,,,,,,,,,,,,,,,77,tiburón,,,,,348.47,350.357,1,1,1.368,,0,10,10,76,1,REAL,FAKE,,,,,,,,,,,,,,,,,
,,,,,,,,,66ad3561c1e5c019916365fb,i use to learn some but not sure which variety it is ,13 or older,click here to respond,no,2025-07-24_10h00.40.951,empathy_intonation_perc_control,2024.2.4,Linux x86_64,62.5,66ad3561c1e5c019916365fb,68817205a84113384fffdfe3,68823b5f4701074242532288,,,,,,,,,,,,,1,,,,,,,,,,,,,,,,,,,,,,,,,,,,,,,,,,,,,12,asesinato,,,,,350.366,352.196,1,1,1.298,,0,11,11,11,1,REAL,FAKE,,,,,,,,,,,,,,,,,
,,,,,,,,,66ad3561c1e5c019916365fb,i use to learn some but not sure which variety it is ,13 or older,click here to respond,no,2025-07-24_10h00.40.951,empathy_intonation_perc_control,2024.2.4,Linux x86_64,62.5,66ad3561c1e5c019916365fb,68817205a84113384fffdfe3,68823b5f4701074242532288,,,,,,,,,,,,,0,,,,,,,,,,,,,,,,,,,,,,,,,,,,,,,,,,,,,17,floroso,,,,,352.198,354.183,0,1,1.463,,0,12,12,16,1,REAL,FAKE,,,,,,,,,,,,,,,,,
,,,,,,,,,66ad3561c1e5c019916365fb,i use to learn some but not sure which variety it is ,13 or older,click here to respond,no,2025-07-24_10h00.40.951,empathy_intonation_perc_control,2024.2.4,Linux x86_64,62.5,66ad3561c1e5c019916365fb,68817205a84113384fffdfe3,68823b5f4701074242532288,,,,,,,,,,,,,1,,,,,,,,,,,,,,,,,,,,,,,,,,,,,,,,,,,,,59,besar,,,,,354.185,355.689,0,0,0.981,,0,13,13,58,1,REAL,FAKE,,,,,,,,,,,,,,,,,
,,,,,,,,,66ad3561c1e5c019916365fb,i use to learn some but not sure which variety it is ,13 or older,click here to respond,no,2025-07-24_10h00.40.951,empathy_intonation_perc_control,2024.2.4,Linux x86_64,62.5,66ad3561c1e5c019916365fb,68817205a84113384fffdfe3,68823b5f4701074242532288,,,,,,,,,,,,,0,,,,,,,,,,,,,,,,,,,,,,,,,,,,,,,,,,,,,33,pauca,,,,,355.692,357.596,0,1,1.384,,0,14,14,32,1,REAL,FAKE,,,,,,,,,,,,,,,,,
,,,,,,,,,66ad3561c1e5c019916365fb,i use to learn some but not sure which variety it is ,13 or older,click here to respond,no,2025-07-24_10h00.40.951,empathy_intonation_perc_control,2024.2.4,Linux x86_64,62.5,66ad3561c1e5c019916365fb,68817205a84113384fffdfe3,68823b5f4701074242532288,,,,,,,,,,,,,1,,,,,,,,,,,,,,,,,,,,,,,,,,,,,,,,,,,,,13,helar,,,,,357.598,359.019,0,0,0.899,,0,15,15,12,1,REAL,FAKE,,,,,,,,,,,,,,,,,
,,,,,,,,,66ad3561c1e5c019916365fb,i use to learn some but not sure which variety it is ,13 or older,click here to respond,no,2025-07-24_10h00.40.951,empathy_intonation_perc_control,2024.2.4,Linux x86_64,62.5,66ad3561c1e5c019916365fb,68817205a84113384fffdfe3,68823b5f4701074242532288,,,,,,,,,,,,,1,,,,,,,,,,,,,,,,,,,,,,,,,,,,,,,,,,,,,52,camisa,,,,,359.022,360.407,1,1,0.855,,0,16,16,51,1,REAL,FAKE,,,,,,,,,,,,,,,,,
,,,,,,,,,66ad3561c1e5c019916365fb,i use to learn some but not sure which variety it is ,13 or older,click here to respond,no,2025-07-24_10h00.40.951,empathy_intonation_perc_control,2024.2.4,Linux x86_64,62.5,66ad3561c1e5c019916365fb,68817205a84113384fffdfe3,68823b5f4701074242532288,,,,,,,,,,,,,1,,,,,,,,,,,,,,,,,,,,,,,,,,,,,,,,,,,,,25,bisagra,,,,,360.408,362.012,0,0,1.084,,0,17,17,24,1,REAL,FAKE,,,,,,,,,,,,,,,,,
,,,,,,,,,66ad3561c1e5c019916365fb,i use to learn some but not sure which variety it is ,13 or older,click here to respond,no,2025-07-24_10h00.40.951,empathy_intonation_perc_control,2024.2.4,Linux x86_64,62.5,66ad3561c1e5c019916365fb,68817205a84113384fffdfe3,68823b5f4701074242532288,,,,,,,,,,,,,0,,,,,,,,,,,,,,,,,,,,,,,,,,,,,,,,,,,,,4,batillón,,,,,362.013,363.364,1,0,0.827,,0,18,18,3,1,REAL,FAKE,,,,,,,,,,,,,,,,,
,,,,,,,,,66ad3561c1e5c019916365fb,i use to learn some but not sure which variety it is ,13 or older,click here to respond,no,2025-07-24_10h00.40.951,empathy_intonation_perc_control,2024.2.4,Linux x86_64,62.5,66ad3561c1e5c019916365fb,68817205a84113384fffdfe3,68823b5f4701074242532288,,,,,,,,,,,,,0,,,,,,,,,,,,,,,,,,,,,,,,,,,,,,,,,,,,,50,flamida,,,,,363.366,364.853,1,0,0.976,,0,19,19,49,1,REAL,FAKE,,,,,,,,,,,,,,,,,
,,,,,,,,,66ad3561c1e5c019916365fb,i use to learn some but not sure which variety it is ,13 or older,click here to respond,no,2025-07-24_10h00.40.951,empathy_intonation_perc_control,2024.2.4,Linux x86_64,62.5,66ad3561c1e5c019916365fb,68817205a84113384fffdfe3,68823b5f4701074242532288,,,,,,,,,,,,,1,,,,,,,,,,,,,,,,,,,,,,,,,,,,,,,,,,,,,54,fomentar,,,,,364.855,366.823,0,0,1.448,,0,20,20,53,1,REAL,FAKE,,,,,,,,,,,,,,,,,
,,,,,,,,,66ad3561c1e5c019916365fb,i use to learn some but not sure which variety it is ,13 or older,click here to respond,no,2025-07-24_10h00.40.951,empathy_intonation_perc_control,2024.2.4,Linux x86_64,62.5,66ad3561c1e5c019916365fb,68817205a84113384fffdfe3,68823b5f4701074242532288,,,,,,,,,,,,,1,,,,,,,,,,,,,,,,,,,,,,,,,,,,,,,,,,,,,43,canela,,,,,366.825,368.079,1,1,0.739,,0,21,21,42,1,REAL,FAKE,,,,,,,,,,,,,,,,,
,,,,,,,,,66ad3561c1e5c019916365fb,i use to learn some but not sure which variety it is ,13 or older,click here to respond,no,2025-07-24_10h00.40.951,empathy_intonation_perc_control,2024.2.4,Linux x86_64,62.5,66ad3561c1e5c019916365fb,68817205a84113384fffdfe3,68823b5f4701074242532288,,,,,,,,,,,,,1,,,,,,,,,,,,,,,,,,,,,,,,,,,,,,,,,,,,,7,pésimo,,,,,368.081,369.719,1,1,1.121,,0,22,22,6,1,REAL,FAKE,,,,,,,,,,,,,,,,,
,,,,,,,,,66ad3561c1e5c019916365fb,i use to learn some but not sure which variety it is ,13 or older,click here to respond,no,2025-07-24_10h00.40.951,empathy_intonation_perc_control,2024.2.4,Linux x86_64,62.5,66ad3561c1e5c019916365fb,68817205a84113384fffdfe3,68823b5f4701074242532288,,,,,,,,,,,,,0,,,,,,,,,,,,,,,,,,,,,,,,,,,,,,,,,,,,,23,lampera,,,,,369.721,371.337,1,0,1.099,,0,23,23,22,1,REAL,FAKE,,,,,,,,,,,,,,,,,
,,,,,,,,,66ad3561c1e5c019916365fb,i use to learn some but not sure which variety it is ,13 or older,click here to respond,no,2025-07-24_10h00.40.951,empathy_intonation_perc_control,2024.2.4,Linux x86_64,62.5,66ad3561c1e5c019916365fb,68817205a84113384fffdfe3,68823b5f4701074242532288,,,,,,,,,,,,,1,,,,,,,,,,,,,,,,,,,,,,,,,,,,,,,,,,,,,51,candado,,,,,371.338,373.127,1,1,1.267,,0,24,24,50,1,REAL,FAKE,,,,,,,,,,,,,,,,,
,,,,,,,,,66ad3561c1e5c019916365fb,i use to learn some but not sure which variety it is ,13 or older,click here to respond,no,2025-07-24_10h00.40.951,empathy_intonation_perc_control,2024.2.4,Linux x86_64,62.5,66ad3561c1e5c019916365fb,68817205a84113384fffdfe3,68823b5f4701074242532288,,,,,,,,,,,,,1,,,,,,,,,,,,,,,,,,,,,,,,,,,,,,,,,,,,,90,clavel,,,,,373.129,374.467,0,0,0.82,,0,25,25,89,1,REAL,FAKE,,,,,,,,,,,,,,,,,
,,,,,,,,,66ad3561c1e5c019916365fb,i use to learn some but not sure which variety it is ,13 or older,click here to respond,no,2025-07-24_10h00.40.951,empathy_intonation_perc_control,2024.2.4,Linux x86_64,62.5,66ad3561c1e5c019916365fb,68817205a84113384fffdfe3,68823b5f4701074242532288,,,,,,,,,,,,,1,,,,,,,,,,,,,,,,,,,,,,,,,,,,,,,,,,,,,80,hormiga,,,,,374.468,376.672,0,0,1.688,,0,26,26,79,1,REAL,FAKE,,,,,,,,,,,,,,,,,
,,,,,,,,,66ad3561c1e5c019916365fb,i use to learn some but not sure which variety it is ,13 or older,click here to respond,no,2025-07-24_10h00.40.951,empathy_intonation_perc_control,2024.2.4,Linux x86_64,62.5,66ad3561c1e5c019916365fb,68817205a84113384fffdfe3,68823b5f4701074242532288,,,,,,,,,,,,,1,,,,,,,,,,,,,,,,,,,,,,,,,,,,,,,,,,,,,55,nevar,,,,,376.674,378.58,0,0,1.387,,0,27,27,54,1,REAL,FAKE,,,,,,,,,,,,,,,,,
,,,,,,,,,66ad3561c1e5c019916365fb,i use to learn some but not sure which variety it is ,13 or older,click here to respond,no,2025-07-24_10h00.40.951,empathy_intonation_perc_control,2024.2.4,Linux x86_64,62.5,66ad3561c1e5c019916365fb,68817205a84113384fffdfe3,68823b5f4701074242532288,,,,,,,,,,,,,1,,,,,,,,,,,,,,,,,,,,,,,,,,,,,,,,,,,,,91,click the 1 key.,,,,,378.582,380.836,1,1,1.733,,0,28,28,90,1,REAL,FAKE,,,,,,,,,,,,,,,,,
,,,,,,,,,66ad3561c1e5c019916365fb,i use to learn some but not sure which variety it is ,13 or older,click here to respond,no,2025-07-24_10h00.40.951,empathy_intonation_perc_control,2024.2.4,Linux x86_64,62.5,66ad3561c1e5c019916365fb,68817205a84113384fffdfe3,68823b5f4701074242532288,,,,,,,,,,,,,1,,,,,,,,,,,,,,,,,,,,,,,,,,,,,,,,,,,,,40,alfombra,,,,,380.842,384.43,1,1,3.062,,0,29,29,39,1,REAL,FAKE,,,,,,,,,,,,,,,,,
,,,,,,,,,66ad3561c1e5c019916365fb,i use to learn some but not sure which variety it is ,13 or older,click here to respond,no,2025-07-24_10h00.40.951,empathy_intonation_perc_control,2024.2.4,Linux x86_64,62.5,66ad3561c1e5c019916365fb,68817205a84113384fffdfe3,68823b5f4701074242532288,,,,,,,,,,,,,1,,,,,,,,,,,,,,,,,,,,,,,,,,,,,,,,,,,,,85,laúd,,,,,384.432,385.969,1,1,1.016,,0,30,30,84,1,REAL,FAKE,,,,,,,,,,,,,,,,,
,,,,,,,,,66ad3561c1e5c019916365fb,i use to learn some but not sure which variety it is ,13 or older,click here to respond,no,2025-07-24_10h00.40.951,empathy_intonation_perc_control,2024.2.4,Linux x86_64,62.5,66ad3561c1e5c019916365fb,68817205a84113384fffdfe3,68823b5f4701074242532288,,,,,,,,,,,,,1,,,,,,,,,,,,,,,,,,,,,,,,,,,,,,,,,,,,,61,seda,,,,,385.971,387.258,1,1,0.769,,0,31,31,60,1,REAL,FAKE,,,,,,,,,,,,,,,,,
,,,,,,,,,66ad3561c1e5c019916365fb,i use to learn some but not sure which variety it is ,13 or older,click here to respond,no,2025-07-24_10h00.40.951,empathy_intonation_perc_control,2024.2.4,Linux x86_64,62.5,66ad3561c1e5c019916365fb,68817205a84113384fffdfe3,68823b5f4701074242532288,,,,,,,,,,,,,1,,,,,,,,,,,,,,,,,,,,,,,,,,,,,,,,,,,,,76,atar,,,,,387.261,388.692,0,0,0.903,,0,32,32,75,1,REAL,FAKE,,,,,,,,,,,,,,,,,
,,,,,,,,,66ad3561c1e5c019916365fb,i use to learn some but not sure which variety it is ,13 or older,click here to respond,no,2025-07-24_10h00.40.951,empathy_intonation_perc_control,2024.2.4,Linux x86_64,62.5,66ad3561c1e5c019916365fb,68817205a84113384fffdfe3,68823b5f4701074242532288,,,,,,,,,,,,,1,,,,,,,,,,,,,,,,,,,,,,,,,,,,,,,,,,,,,62,flaco,,,,,388.693,390.483,0,0,1.264,,0,33,33,61,1,REAL,FAKE,,,,,,,,,,,,,,,,,
,,,,,,,,,66ad3561c1e5c019916365fb,i use to learn some but not sure which variety it is ,13 or older,click here to respond,no,2025-07-24_10h00.40.951,empathy_intonation_perc_control,2024.2.4,Linux x86_64,62.5,66ad3561c1e5c019916365fb,68817205a84113384fffdfe3,68823b5f4701074242532288,,,,,,,,,,,,,1,,,,,,,,,,,,,,,,,,,,,,,,,,,,,,,,,,,,,34,aviso,,,,,390.484,392.638,0,0,1.633,,0,34,34,33,1,REAL,FAKE,,,,,,,,,,,,,,,,,
,,,,,,,,,66ad3561c1e5c019916365fb,i use to learn some but not sure which variety it is ,13 or older,click here to respond,no,2025-07-24_10h00.40.951,empathy_intonation_perc_control,2024.2.4,Linux x86_64,62.5,66ad3561c1e5c019916365fb,68817205a84113384fffdfe3,68823b5f4701074242532288,,,,,,,,,,,,,0,,,,,,,,,,,,,,,,,,,,,,,,,,,,,,,,,,,,,27,acutación,,,,,392.64,394.43,1,0,1.27,,0,35,35,26,1,REAL,FAKE,,,,,,,,,,,,,,,,,
,,,,,,,,,66ad3561c1e5c019916365fb,i use to learn some but not sure which variety it is ,13 or older,click here to respond,no,2025-07-24_10h00.40.951,empathy_intonation_perc_control,2024.2.4,Linux x86_64,62.5,66ad3561c1e5c019916365fb,68817205a84113384fffdfe3,68823b5f4701074242532288,,,,,,,,,,,,,0,,,,,,,,,,,,,,,,,,,,,,,,,,,,,,,,,,,,,58,plaudir,,,,,394.431,395.75,0,1,0.805,,0,36,36,57,1,REAL,FAKE,,,,,,,,,,,,,,,,,
,,,,,,,,,66ad3561c1e5c019916365fb,i use to learn some but not sure which variety it is ,13 or older,click here to respond,no,2025-07-24_10h00.40.951,empathy_intonation_perc_control,2024.2.4,Linux x86_64,62.5,66ad3561c1e5c019916365fb,68817205a84113384fffdfe3,68823b5f4701074242532288,,,,,,,,,,,,,0,,,,,,,,,,,,,,,,,,,,,,,,,,,,,,,,,,,,,29,decar,,,,,395.753,397.538,1,0,1.261,,0,37,37,28,1,REAL,FAKE,,,,,,,,,,,,,,,,,
,,,,,,,,,66ad3561c1e5c019916365fb,i use to learn some but not sure which variety it is ,13 or older,click here to respond,no,2025-07-24_10h00.40.951,empathy_intonation_perc_control,2024.2.4,Linux x86_64,62.5,66ad3561c1e5c019916365fb,68817205a84113384fffdfe3,68823b5f4701074242532288,,,,,,,,,,,,,0,,,,,,,,,,,,,,,,,,,,,,,,,,,,,,,,,,,,,82,empirador,,,,,397.539,399.127,1,0,1.076,,0,38,38,81,1,REAL,FAKE,,,,,,,,,,,,,,,,,
,,,,,,,,,66ad3561c1e5c019916365fb,i use to learn some but not sure which variety it is ,13 or older,click here to respond,no,2025-07-24_10h00.40.951,empathy_intonation_perc_control,2024.2.4,Linux x86_64,62.5,66ad3561c1e5c019916365fb,68817205a84113384fffdfe3,68823b5f4701074242532288,,,,,,,,,,,,,1,,,,,,,,,,,,,,,,,,,,,,,,,,,,,,,,,,,,,71,polvoriento,,,,,399.13,401.048,1,1,1.382,,0,39,39,70,1,REAL,FAKE,,,,,,,,,,,,,,,,,
,,,,,,,,,66ad3561c1e5c019916365fb,i use to learn some but not sure which variety it is ,13 or older,click here to respond,no,2025-07-24_10h00.40.951,empathy_intonation_perc_control,2024.2.4,Linux x86_64,62.5,66ad3561c1e5c019916365fb,68817205a84113384fffdfe3,68823b5f4701074242532288,,,,,,,,,,,,,1,,,,,,,,,,,,,,,,,,,,,,,,,,,,,,,,,,,,,36,loro,,,,,401.05,402.27,0,0,0.697,,0,40,40,35,1,REAL,FAKE,,,,,,,,,,,,,,,,,
,,,,,,,,,66ad3561c1e5c019916365fb,i use to learn some but not sure which variety it is ,13 or older,click here to respond,no,2025-07-24_10h00.40.951,empathy_intonation_perc_control,2024.2.4,Linux x86_64,62.5,66ad3561c1e5c019916365fb,68817205a84113384fffdfe3,68823b5f4701074242532288,,,,,,,,,,,,,1,,,,,,,,,,,,,,,,,,,,,,,,,,,,,,,,,,,,,22,lacayo,,,,,402.272,404.462,0,0,1.671,,0,41,41,21,1,REAL,FAKE,,,,,,,,,,,,,,,,,
,,,,,,,,,66ad3561c1e5c019916365fb,i use to learn some but not sure which variety it is ,13 or older,click here to respond,no,2025-07-24_10h00.40.951,empathy_intonation_perc_control,2024.2.4,Linux x86_64,62.5,66ad3561c1e5c019916365fb,68817205a84113384fffdfe3,68823b5f4701074242532288,,,,,,,,,,,,,1,,,,,,,,,,,,,,,,,,,,,,,,,,,,,,,,,,,,,46,martillo,,,,,404.465,405.798,1,1,0.823,,0,42,42,45,1,REAL,FAKE,,,,,,,,,,,,,,,,,
,,,,,,,,,66ad3561c1e5c019916365fb,i use to learn some but not sure which variety it is ,13 or older,click here to respond,no,2025-07-24_10h00.40.951,empathy_intonation_perc_control,2024.2.4,Linux x86_64,62.5,66ad3561c1e5c019916365fb,68817205a84113384fffdfe3,68823b5f4701074242532288,,,,,,,,,,,,,0,,,,,,,,,,,,,,,,,,,,,,,,,,,,,,,,,,,,,18,arsa,,,,,405.799,407.303,0,1,0.985,,0,43,43,17,1,REAL,FAKE,,,,,,,,,,,,,,,,,
,,,,,,,,,66ad3561c1e5c019916365fb,i use to learn some but not sure which variety it is ,13 or older,click here to respond,no,2025-07-24_10h00.40.951,empathy_intonation_perc_control,2024.2.4,Linux x86_64,62.5,66ad3561c1e5c019916365fb,68817205a84113384fffdfe3,68823b5f4701074242532288,,,,,,,,,,,,,1,,,,,,,,,,,,,,,,,,,,,,,,,,,,,,,,,,,,,2,pellizcar,,,,,407.304,409.211,0,0,1.386,,0,44,44,1,1,REAL,FAKE,,,,,,,,,,,,,,,,,
,,,,,,,,,66ad3561c1e5c019916365fb,i use to learn some but not sure which variety it is ,13 or older,click here to respond,no,2025-07-24_10h00.40.951,empathy_intonation_perc_control,2024.2.4,Linux x86_64,62.5,66ad3561c1e5c019916365fb,68817205a84113384fffdfe3,68823b5f4701074242532288,,,,,,,,,,,,,1,,,,,,,,,,,,,,,,,,,,,,,,,,,,,,,,,,,,,57,tacaño,,,,,409.213,411.3,0,0,1.555,,0,45,45,56,1,REAL,FAKE,,,,,,,,,,,,,,,,,
,,,,,,,,,66ad3561c1e5c019916365fb,i use to learn some but not sure which variety it is ,13 or older,click here to respond,no,2025-07-24_10h00.40.951,empathy_intonation_perc_control,2024.2.4,Linux x86_64,62.5,66ad3561c1e5c019916365fb,68817205a84113384fffdfe3,68823b5f4701074242532288,,,,,,,,,,,,,0,,,,,,,,,,,,,,,,,,,,,,,,,,,,,,,,,,,,,42,cadallo,,,,,411.301,412.537,1,0,0.699,,0,46,46,41,1,REAL,FAKE,,,,,,,,,,,,,,,,,
,,,,,,,,,66ad3561c1e5c019916365fb,i use to learn some but not sure which variety it is ,13 or older,click here to respond,no,2025-07-24_10h00.40.951,empathy_intonation_perc_control,2024.2.4,Linux x86_64,62.5,66ad3561c1e5c019916365fb,68817205a84113384fffdfe3,68823b5f4701074242532288,,,,,,,,,,,,,1,,,,,,,,,,,,,,,,,,,,,,,,,,,,,,,,,,,,,81,pozo,,,,,412.538,413.972,0,0,0.914,,0,47,47,80,1,REAL,FAKE,,,,,,,,,,,,,,,,,
,,,,,,,,,66ad3561c1e5c019916365fb,i use to learn some but not sure which variety it is ,13 or older,click here to respond,no,2025-07-24_10h00.40.951,empathy_intonation_perc_control,2024.2.4,Linux x86_64,62.5,66ad3561c1e5c019916365fb,68817205a84113384fffdfe3,68823b5f4701074242532288,,,,,,,,,,,,,0,,,,,,,,,,,,,,,,,,,,,,,,,,,,,,,,,,,,,47,cartinar,,,,,413.974,415.414,0,1,0.916,,0,48,48,46,1,REAL,FAKE,,,,,,,,,,,,,,,,,
,,,,,,,,,66ad3561c1e5c019916365fb,i use to learn some but not sure which variety it is ,13 or older,click here to respond,no,2025-07-24_10h00.40.951,empathy_intonation_perc_control,2024.2.4,Linux x86_64,62.5,66ad3561c1e5c019916365fb,68817205a84113384fffdfe3,68823b5f4701074242532288,,,,,,,,,,,,,1,,,,,,,,,,,,,,,,,,,,,,,,,,,,,,,,,,,,,24,látigo,,,,,415.421,417.118,1,1,1.171,,0,49,49,23,1,REAL,FAKE,,,,,,,,,,,,,,,,,
,,,,,,,,,66ad3561c1e5c019916365fb,i use to learn some but not sure which variety it is ,13 or older,click here to respond,no,2025-07-24_10h00.40.951,empathy_intonation_perc_control,2024.2.4,Linux x86_64,62.5,66ad3561c1e5c019916365fb,68817205a84113384fffdfe3,68823b5f4701074242532288,,,,,,,,,,,,,1,,,,,,,,,,,,,,,,,,,,,,,,,,,,,,,,,,,,,60,matar,,,,,417.12,418.519,0,0,0.875,,0,50,50,59,1,REAL,FAKE,,,,,,,,,,,,,,,,,
,,,,,,,,,66ad3561c1e5c019916365fb,i use to learn some but not sure which variety it is ,13 or older,click here to respond,no,2025-07-24_10h00.40.951,empathy_intonation_perc_control,2024.2.4,Linux x86_64,62.5,66ad3561c1e5c019916365fb,68817205a84113384fffdfe3,68823b5f4701074242532288,,,,,,,,,,,,,0,,,,,,,,,,,,,,,,,,,,,,,,,,,,,,,,,,,,,16,abracer,,,,,418.521,419.925,0,1,0.885,,0,51,51,15,1,REAL,FAKE,,,,,,,,,,,,,,,,,
,,,,,,,,,66ad3561c1e5c019916365fb,i use to learn some but not sure which variety it is ,13 or older,click here to respond,no,2025-07-24_10h00.40.951,empathy_intonation_perc_control,2024.2.4,Linux x86_64,62.5,66ad3561c1e5c019916365fb,68817205a84113384fffdfe3,68823b5f4701074242532288,,,,,,,,,,,,,1,,,,,,,,,,,,,,,,,,,,,,,,,,,,,,,,,,,,,6,tergiversar,,,,,419.928,422.432,0,0,1.989,,0,52,52,5,1,REAL,FAKE,,,,,,,,,,,,,,,,,
,,,,,,,,,66ad3561c1e5c019916365fb,i use to learn some but not sure which variety it is ,13 or older,click here to respond,no,2025-07-24_10h00.40.951,empathy_intonation_perc_control,2024.2.4,Linux x86_64,62.5,66ad3561c1e5c019916365fb,68817205a84113384fffdfe3,68823b5f4701074242532288,,,,,,,,,,,,,1,,,,,,,,,,,,,,,,,,,,,,,,,,,,,,,,,,,,,9,hacha,,,,,422.435,423.821,0,0,0.859,,0,53,53,8,1,REAL,FAKE,,,,,,,,,,,,,,,,,
,,,,,,,,,66ad3561c1e5c019916365fb,i use to learn some but not sure which variety it is ,13 or older,click here to respond,no,2025-07-24_10h00.40.951,empathy_intonation_perc_control,2024.2.4,Linux x86_64,62.5,66ad3561c1e5c019916365fb,68817205a84113384fffdfe3,68823b5f4701074242532288,,,,,,,,,,,,,1,,,,,,,,,,,,,,,,,,,,,,,,,,,,,,,,,,,,,65,bizcocho,,,,,423.824,425.645,1,1,1.282,,0,54,54,64,1,REAL,FAKE,,,,,,,,,,,,,,,,,
,,,,,,,,,66ad3561c1e5c019916365fb,i use to learn some but not sure which variety it is ,13 or older,click here to respond,no,2025-07-24_10h00.40.951,empathy_intonation_perc_control,2024.2.4,Linux x86_64,62.5,66ad3561c1e5c019916365fb,68817205a84113384fffdfe3,68823b5f4701074242532288,,,,,,,,,,,,,0,,,,,,,,,,,,,,,,,,,,,,,,,,,,,,,,,,,,,8,cadeña,,,,,425.646,426.878,1,0,0.71,,0,55,55,7,1,REAL,FAKE,,,,,,,,,,,,,,,,,
,,,,,,,,,66ad3561c1e5c019916365fb,i use to learn some but not sure which variety it is ,13 or older,click here to respond,no,2025-07-24_10h00.40.951,empathy_intonation_perc_control,2024.2.4,Linux x86_64,62.5,66ad3561c1e5c019916365fb,68817205a84113384fffdfe3,68823b5f4701074242532288,,,,,,,,,,,,,1,,,,,,,,,,,,,,,,,,,,,,,,,,,,,,,,,,,,,68,alegre,,,,,426.879,428.336,0,0,0.937,,0,56,56,67,1,REAL,FAKE,,,,,,,,,,,,,,,,,
,,,,,,,,,66ad3561c1e5c019916365fb,i use to learn some but not sure which variety it is ,13 or older,click here to respond,no,2025-07-24_10h00.40.951,empathy_intonation_perc_control,2024.2.4,Linux x86_64,62.5,66ad3561c1e5c019916365fb,68817205a84113384fffdfe3,68823b5f4701074242532288,,,,,,,,,,,,,0,,,,,,,,,,,,,,,,,,,,,,,,,,,,,,,,,,,,,35,rompido,,,,,428.338,429.556,0,1,0.698,,0,57,57,34,1,REAL,FAKE,,,,,,,,,,,,,,,,,
,,,,,,,,,66ad3561c1e5c019916365fb,i use to learn some but not sure which variety it is ,13 or older,click here to respond,no,2025-07-24_10h00.40.951,empathy_intonation_perc_control,2024.2.4,Linux x86_64,62.5,66ad3561c1e5c019916365fb,68817205a84113384fffdfe3,68823b5f4701074242532288,,,,,,,,,,,,,1,,,,,,,,,,,,,,,,,,,,,,,,,,,,,,,,,,,,,3,pulmones,,,,,429.558,432.416,0,0,2.335,,0,58,58,2,1,REAL,FAKE,,,,,,,,,,,,,,,,,
,,,,,,,,,66ad3561c1e5c019916365fb,i use to learn some but not sure which variety it is ,13 or older,click here to respond,no,2025-07-24_10h00.40.951,empathy_intonation_perc_control,2024.2.4,Linux x86_64,62.5,66ad3561c1e5c019916365fb,68817205a84113384fffdfe3,68823b5f4701074242532288,,,,,,,,,,,,,1,,,,,,,,,,,,,,,,,,,,,,,,,,,,,,,,,,,,,89,prisa,,,,,432.418,433.838,0,0,0.898,,0,59,59,88,1,REAL,FAKE,,,,,,,,,,,,,,,,,
,,,,,,,,,66ad3561c1e5c019916365fb,i use to learn some but not sure which variety it is ,13 or older,click here to respond,no,2025-07-24_10h00.40.951,empathy_intonation_perc_control,2024.2.4,Linux x86_64,62.5,66ad3561c1e5c019916365fb,68817205a84113384fffdfe3,68823b5f4701074242532288,,,,,,,,,,,,,1,,,,,,,,,,,,,,,,,,,,,,,,,,,,,,,,,,,,,39,torpe,,,,,433.84,435.157,0,0,0.796,,0,60,60,38,1,REAL,FAKE,,,,,,,,,,,,,,,,,
,,,,,,,,,66ad3561c1e5c019916365fb,i use to learn some but not sure which variety it is ,13 or older,click here to respond,no,2025-07-24_10h00.40.951,empathy_intonation_perc_control,2024.2.4,Linux x86_64,62.5,66ad3561c1e5c019916365fb,68817205a84113384fffdfe3,68823b5f4701074242532288,,,,,,,,,,,,,1,,,,,,,,,,,,,,,,,,,,,,,,,,,,,,,,,,,,,73,hervidor,,,,,435.159,436.376,0,0,0.679,,0,61,61,72,1,REAL,FAKE,,,,,,,,,,,,,,,,,
,,,,,,,,,66ad3561c1e5c019916365fb,i use to learn some but not sure which variety it is ,13 or older,click here to respond,no,2025-07-24_10h00.40.951,empathy_intonation_perc_control,2024.2.4,Linux x86_64,62.5,66ad3561c1e5c019916365fb,68817205a84113384fffdfe3,68823b5f4701074242532288,,,,,,,,,,,,,1,,,,,,,,,,,,,,,,,,,,,,,,,,,,,,,,,,,,,20,ávido,,,,,436.378,437.781,1,1,0.892,,0,62,62,19,1,REAL,FAKE,,,,,,,,,,,,,,,,,
,,,,,,,,,66ad3561c1e5c019916365fb,i use to learn some but not sure which variety it is ,13 or older,click here to respond,no,2025-07-24_10h00.40.951,empathy_intonation_perc_control,2024.2.4,Linux x86_64,62.5,66ad3561c1e5c019916365fb,68817205a84113384fffdfe3,68823b5f4701074242532288,,,,,,,,,,,,,1,,,,,,,,,,,,,,,,,,,,,,,,,,,,,,,,,,,,,5,zapato,,,,,437.783,439.287,0,0,0.983,,0,63,63,4,1,REAL,FAKE,,,,,,,,,,,,,,,,,
,,,,,,,,,66ad3561c1e5c019916365fb,i use to learn some but not sure which variety it is ,13 or older,click here to respond,no,2025-07-24_10h00.40.951,empathy_intonation_perc_control,2024.2.4,Linux x86_64,62.5,66ad3561c1e5c019916365fb,68817205a84113384fffdfe3,68823b5f4701074242532288,,,,,,,,,,,,,0,,,,,,,,,,,,,,,,,,,,,,,,,,,,,,,,,,,,,74,cintro,,,,,439.288,441.059,1,0,1.252,,0,64,64,73,1,REAL,FAKE,,,,,,,,,,,,,,,,,
,,,,,,,,,66ad3561c1e5c019916365fb,i use to learn some but not sure which variety it is ,13 or older,click here to respond,no,2025-07-24_10h00.40.951,empathy_intonation_perc_control,2024.2.4,Linux x86_64,62.5,66ad3561c1e5c019916365fb,68817205a84113384fffdfe3,68823b5f4701074242532288,,,,,,,,,,,,,1,,,,,,,,,,,,,,,,,,,,,,,,,,,,,,,,,,,,,64,orgulloso,,,,,441.061,442.397,0,0,0.815,,0,65,65,63,1,REAL,FAKE,,,,,,,,,,,,,,,,,
,,,,,,,,,66ad3561c1e5c019916365fb,i use to learn some but not sure which variety it is ,13 or older,click here to respond,no,2025-07-24_10h00.40.951,empathy_intonation_perc_control,2024.2.4,Linux x86_64,62.5,66ad3561c1e5c019916365fb,68817205a84113384fffdfe3,68823b5f4701074242532288,,,,,,,,,,,,,1,,,,,,,,,,,,,,,,,,,,,,,,,,,,,,,,,,,,,28,merodear,,,,,442.401,443.866,0,0,0.945,,0,66,66,27,1,REAL,FAKE,,,,,,,,,,,,,,,,,
,,,,,,,,,66ad3561c1e5c019916365fb,i use to learn some but not sure which variety it is ,13 or older,click here to respond,no,2025-07-24_10h00.40.951,empathy_intonation_perc_control,2024.2.4,Linux x86_64,62.5,66ad3561c1e5c019916365fb,68817205a84113384fffdfe3,68823b5f4701074242532288,,,,,,,,,,,,,0,,,,,,,,,,,,,,,,,,,,,,,,,,,,,,,,,,,,,53,vegada,,,,,443.867,445.105,0,1,0.714,,0,67,67,52,1,REAL,FAKE,,,,,,,,,,,,,,,,,
,,,,,,,,,66ad3561c1e5c019916365fb,i use to learn some but not sure which variety it is ,13 or older,click here to respond,no,2025-07-24_10h00.40.951,empathy_intonation_perc_control,2024.2.4,Linux x86_64,62.5,66ad3561c1e5c019916365fb,68817205a84113384fffdfe3,68823b5f4701074242532288,,,,,,,,,,,,,1,,,,,,,,,,,,,,,,,,,,,,,,,,,,,,,,,,,,,83,guante,,,,,445.108,446.928,0,0,1.308,,0,68,68,82,1,REAL,FAKE,,,,,,,,,,,,,,,,,
,,,,,,,,,66ad3561c1e5c019916365fb,i use to learn some but not sure which variety it is ,13 or older,click here to respond,no,2025-07-24_10h00.40.951,empathy_intonation_perc_control,2024.2.4,Linux x86_64,62.5,66ad3561c1e5c019916365fb,68817205a84113384fffdfe3,68823b5f4701074242532288,,,,,,,,,,,,,1,,,,,,,,,,,,,,,,,,,,,,,,,,,,,,,,,,,,,86,barato,,,,,446.93,448.532,0,0,1.077,,0,69,69,85,1,REAL,FAKE,,,,,,,,,,,,,,,,,
,,,,,,,,,66ad3561c1e5c019916365fb,i use to learn some but not sure which variety it is ,13 or older,click here to respond,no,2025-07-24_10h00.40.951,empathy_intonation_perc_control,2024.2.4,Linux x86_64,62.5,66ad3561c1e5c019916365fb,68817205a84113384fffdfe3,68823b5f4701074242532288,,,,,,,,,,,,,0,,,,,,,,,,,,,,,,,,,,,,,,,,,,,,,,,,,,,72,pemición,,,,,448.533,449.754,1,0,0.703,,0,70,70,71,1,REAL,FAKE,,,,,,,,,,,,,,,,,
,,,,,,,,,66ad3561c1e5c019916365fb,i use to learn some but not sure which variety it is ,13 or older,click here to respond,no,2025-07-24_10h00.40.951,empathy_intonation_perc_control,2024.2.4,Linux x86_64,62.5,66ad3561c1e5c019916365fb,68817205a84113384fffdfe3,68823b5f4701074242532288,,,,,,,,,,,,,0,,,,,,,,,,,,,,,,,,,,,,,,,,,,,,,,,,,,,19,brecedad,,,,,449.76,451.511,0,1,1.219,,0,71,71,18,1,REAL,FAKE,,,,,,,,,,,,,,,,,
,,,,,,,,,66ad3561c1e5c019916365fb,i use to learn some but not sure which variety it is ,13 or older,click here to respond,no,2025-07-24_10h00.40.951,empathy_intonation_perc_control,2024.2.4,Linux x86_64,62.5,66ad3561c1e5c019916365fb,68817205a84113384fffdfe3,68823b5f4701074242532288,,,,,,,,,,,,,1,,,,,,,,,,,,,,,,,,,,,,,,,,,,,,,,,,,,,41,rebuscar,,,,,451.513,452.777,0,0,0.746,,0,72,72,40,1,REAL,FAKE,,,,,,,,,,,,,,,,,
,,,,,,,,,66ad3561c1e5c019916365fb,i use to learn some but not sure which variety it is ,13 or older,click here to respond,no,2025-07-24_10h00.40.951,empathy_intonation_perc_control,2024.2.4,Linux x86_64,62.5,66ad3561c1e5c019916365fb,68817205a84113384fffdfe3,68823b5f4701074242532288,,,,,,,,,,,,,1,,,,,,,,,,,,,,,,,,,,,,,,,,,,,,,,,,,,,11,cenefa,,,,,452.778,454.669,0,0,1.374,,0,73,73,10,1,REAL,FAKE,,,,,,,,,,,,,,,,,
,,,,,,,,,66ad3561c1e5c019916365fb,i use to learn some but not sure which variety it is ,13 or older,click here to respond,no,2025-07-24_10h00.40.951,empathy_intonation_perc_control,2024.2.4,Linux x86_64,62.5,66ad3561c1e5c019916365fb,68817205a84113384fffdfe3,68823b5f4701074242532288,,,,,,,,,,,,,0,,,,,,,,,,,,,,,,,,,,,,,,,,,,,,,,,,,,,84,escuto,,,,,454.671,456.224,0,1,1.038,,0,74,74,83,1,REAL,FAKE,,,,,,,,,,,,,,,,,
,,,,,,,,,66ad3561c1e5c019916365fb,i use to learn some but not sure which variety it is ,13 or older,click here to respond,no,2025-07-24_10h00.40.951,empathy_intonation_perc_control,2024.2.4,Linux x86_64,62.5,66ad3561c1e5c019916365fb,68817205a84113384fffdfe3,68823b5f4701074242532288,,,,,,,,,,,,,0,,,,,,,,,,,,,,,,,,,,,,,,,,,,,,,,,,,,,66,hacido,,,,,456.226,458.598,1,0,1.845,,0,75,75,65,1,REAL,FAKE,,,,,,,,,,,,,,,,,
,,,,,,,,,66ad3561c1e5c019916365fb,i use to learn some but not sure which variety it is ,13 or older,click here to respond,no,2025-07-24_10h00.40.951,empathy_intonation_perc_control,2024.2.4,Linux x86_64,62.5,66ad3561c1e5c019916365fb,68817205a84113384fffdfe3,68823b5f4701074242532288,,,,,,,,,,,,,1,,,,,,,,,,,,,,,,,,,,,,,,,,,,,,,,,,,,,88,acantilado,,,,,458.6,460.272,1,1,1.146,,0,76,76,87,1,REAL,FAKE,,,,,,,,,,,,,,,,,
,,,,,,,,,66ad3561c1e5c019916365fb,i use to learn some but not sure which variety it is ,13 or older,click here to respond,no,2025-07-24_10h00.40.951,empathy_intonation_perc_control,2024.2.4,Linux x86_64,62.5,66ad3561c1e5c019916365fb,68817205a84113384fffdfe3,68823b5f4701074242532288,,,,,,,,,,,,,0,,,,,,,,,,,,,,,,,,,,,,,,,,,,,,,,,,,,,92,click the 0 key.,,,,,460.273,462.125,0,1,1.336,,0,77,77,91,1,REAL,FAKE,,,,,,,,,,,,,,,,,
,,,,,,,,,66ad3561c1e5c019916365fb,i use to learn some but not sure which variety it is ,13 or older,click here to respond,no,2025-07-24_10h00.40.951,empathy_intonation_perc_control,2024.2.4,Linux x86_64,62.5,66ad3561c1e5c019916365fb,68817205a84113384fffdfe3,68823b5f4701074242532288,,,,,,,,,,,,,1,,,,,,,,,,,,,,,,,,,,,,,,,,,,,,,,,,,,,38,estornudar,,,,,462.127,463.648,0,0,0.995,,0,78,78,37,1,REAL,FAKE,,,,,,,,,,,,,,,,,
,,,,,,,,,66ad3561c1e5c019916365fb,i use to learn some but not sure which variety it is ,13 or older,click here to respond,no,2025-07-24_10h00.40.951,empathy_intonation_perc_control,2024.2.4,Linux x86_64,62.5,66ad3561c1e5c019916365fb,68817205a84113384fffdfe3,68823b5f4701074242532288,,,,,,,,,,,,,0,,,,,,,,,,,,,,,,,,,,,,,,,,,,,,,,,,,,,87,grodo,,,,,463.65,465.269,0,1,1.096,,0,79,79,86,1,REAL,FAKE,,,,,,,,,,,,,,,,,
,,,,,,,,,66ad3561c1e5c019916365fb,i use to learn some but not sure which variety it is ,13 or older,click here to respond,no,2025-07-24_10h00.40.951,empathy_intonation_perc_control,2024.2.4,Linux x86_64,62.5,66ad3561c1e5c019916365fb,68817205a84113384fffdfe3,68823b5f4701074242532288,,,,,,,,,,,,,0,,,,,,,,,,,,,,,,,,,,,,,,,,,,,,,,,,,,,10,antar,,,,,465.269,467.042,1,0,1.253,,0,80,80,9,1,REAL,FAKE,,,,,,,,,,,,,,,,,
,,,,,,,,,66ad3561c1e5c019916365fb,i use to learn some but not sure which variety it is ,13 or older,click here to respond,no,2025-07-24_10h00.40.951,empathy_intonation_perc_control,2024.2.4,Linux x86_64,62.5,66ad3561c1e5c019916365fb,68817205a84113384fffdfe3,68823b5f4701074242532288,,,,,,,,,,,,,1,,,,,,,,,,,,,,,,,,,,,,,,,,,,,,,,,,,,,56,musgo,,,,,467.044,468.564,0,0,1.009,,0,81,81,55,1,REAL,FAKE,,,,,,,,,,,,,,,,,
,,,,,,,,,66ad3561c1e5c019916365fb,i use to learn some but not sure which variety it is ,13 or older,click here to respond,no,2025-07-24_10h00.40.951,empathy_intonation_perc_control,2024.2.4,Linux x86_64,62.5,66ad3561c1e5c019916365fb,68817205a84113384fffdfe3,68823b5f4701074242532288,,,,,,,,,,,,,0,,,,,,,,,,,,,,,,,,,,,,,,,,,,,,,,,,,,,21,capillo,,,,,468.566,469.781,1,0,0.702,,0,82,82,20,1,REAL,FAKE,,,,,,,,,,,,,,,,,
,,,,,,,,,66ad3561c1e5c019916365fb,i use to learn some but not sure which variety it is ,13 or older,click here to respond,no,2025-07-24_10h00.40.951,empathy_intonation_perc_control,2024.2.4,Linux x86_64,62.5,66ad3561c1e5c019916365fb,68817205a84113384fffdfe3,68823b5f4701074242532288,,,,,,,,,,,,,0,,,,,,,,,,,,,,,,,,,,,,,,,,,,,,,,,,,,,70,temblo,,,,,469.782,471.371,0,1,1.062,,0,83,83,69,1,REAL,FAKE,,,,,,,,,,,,,,,,,
,,,,,,,,,66ad3561c1e5c019916365fb,i use to learn some but not sure which variety it is ,13 or older,click here to respond,no,2025-07-24_10h00.40.951,empathy_intonation_perc_control,2024.2.4,Linux x86_64,62.5,66ad3561c1e5c019916365fb,68817205a84113384fffdfe3,68823b5f4701074242532288,,,,,,,,,,,,,0,,,,,,,,,,,,,,,,,,,,,,,,,,,,,,,,,,,,,63,esposante,,,,,471.373,472.993,1,0,1.104,,0,84,84,62,1,REAL,FAKE,,,,,,,,,,,,,,,,,
,,,,,,,,,66ad3561c1e5c019916365fb,i use to learn some but not sure which variety it is ,13 or older,click here to respond,no,2025-07-24_10h00.40.951,empathy_intonation_perc_control,2024.2.4,Linux x86_64,62.5,66ad3561c1e5c019916365fb,68817205a84113384fffdfe3,68823b5f4701074242532288,,,,,,,,,,,,,0,,,,,,,,,,,,,,,,,,,,,,,,,,,,,,,,,,,,,1,terzo,,,,,472.995,474.514,0,1,1,,0,85,85,0,1,REAL,FAKE,,,,,,,,,,,,,,,,,
,,,,,,,,,66ad3561c1e5c019916365fb,i use to learn some but not sure which variety it is ,13 or older,click here to respond,no,2025-07-24_10h00.40.951,empathy_intonation_perc_control,2024.2.4,Linux x86_64,62.5,66ad3561c1e5c019916365fb,68817205a84113384fffdfe3,68823b5f4701074242532288,,,,,,,,,,,,,0,,,,,,,,,,,,,,,,,,,,,,,,,,,,,,,,,,,,,30,alardio,,,,,474.515,476.088,0,1,1.042,,0,86,86,29,1,REAL,FAKE,,,,,,,,,,,,,,,,,
,,,,,,,,,66ad3561c1e5c019916365fb,i use to learn some but not sure which variety it is ,13 or older,click here to respond,no,2025-07-24_10h00.40.951,empathy_intonation_perc_control,2024.2.4,Linux x86_64,62.5,66ad3561c1e5c019916365fb,68817205a84113384fffdfe3,68823b5f4701074242532288,,,,,,,,,,,,,1,,,,,,,,,,,,,,,,,,,,,,,,,,,,,,,,,,,,,31,pandilla,,,,,476.089,477.642,1,1,1.037,,0,87,87,30,1,REAL,FAKE,,,,,,,,,,,,,,,,,
,,,,,,,,,66ad3561c1e5c019916365fb,i use to learn some but not sure which variety it is ,13 or older,click here to respond,no,2025-07-24_10h00.40.951,empathy_intonation_perc_control,2024.2.4,Linux x86_64,62.5,66ad3561c1e5c019916365fb,68817205a84113384fffdfe3,68823b5f4701074242532288,,,,,,,,,,,,,1,,,,,,,,,,,,,,,,,,,,,,,,,,,,,,,,,,,,,15,regar,,,,,477.644,478.928,0,0,0.748,,0,88,88,14,1,REAL,FAKE,,,,,,,,,,,,,,,,,
,,,,,,,,,66ad3561c1e5c019916365fb,i use to learn some but not sure which variety it is ,13 or older,click here to respond,no,2025-07-24_10h00.40.951,empathy_intonation_perc_control,2024.2.4,Linux x86_64,62.5,66ad3561c1e5c019916365fb,68817205a84113384fffdfe3,68823b5f4701074242532288,,,,,,,,,,,,,1,,,,,,,,,,,,,,,,,,,,,,,,,,,,,,,,,,,,,26,secuestro,,,,,478.929,480.282,0,0,0.833,,0,89,89,25,1,REAL,FAKE,,,,,,,,,,,,,,,,,
,,,,,,,,,66ad3561c1e5c019916365fb,i use to learn some but not sure which variety it is ,13 or older,click here to respond,no,2025-07-24_10h00.40.951,empathy_intonation_perc_control,2024.2.4,Linux x86_64,62.5,66ad3561c1e5c019916365fb,68817205a84113384fffdfe3,68823b5f4701074242532288,,,,,,,,,,,,,1,,,,,,,,,,,,,,,,,,,,,,,,,,,,,,,,,,,,,69,engatusar,,,,,480.284,481.84,0,0,1.03,,0,90,90,68,1,REAL,FAKE,,,,,,,,,,,,,,,,,
,,,,,,,,,66ad3561c1e5c019916365fb,i use to learn some but not sure which variety it is ,13 or older,click here to respond,no,2025-07-24_10h00.40.951,empathy_intonation_perc_control,2024.2.4,Linux x86_64,62.5,66ad3561c1e5c019916365fb,68817205a84113384fffdfe3,68823b5f4701074242532288,,,,,,,,,,,,,1,,,,,,,,,,,,,,,,,,,,,,,,,,,,,,,,,,,,,48,ladrón,,,,,481.841,483.009,1,1,0.631,,0,91,91,47,1,REAL,FAKE,,,,,,,,,,,,,,,,,
,,,,,,,,,66ad3561c1e5c019916365fb,i use to learn some but not sure which variety it is ,13 or older,click here to respond,no,2025-07-24_10h00.40.951,empathy_intonation_perc_control,2024.2.4,Linux x86_64,62.5,66ad3561c1e5c019916365fb,68817205a84113384fffdfe3,68823b5f4701074242532288,,,,,,,,,,,,,,,,,,,,,,,,,,,,,,,,,,,,,,,,,,,,,,,,,,,,,,,,,,,,,,,,,,,,,483.01,492.052,,,,,,,,,,,,,,,
,,,,,,,,,66ad3561c1e5c019916365fb,i use to learn some but not sure which variety it is ,13 or older,click here to respond,no,2025-07-24_10h00.40.951,empathy_intonation_perc_control,2024.2.4,Linux x86_64,62.5,66ad3561c1e5c019916365fb,68817205a84113384fffdfe3,68823b5f4701074242532288,,,,,,,,,,,,,,,,,,,,,,,,,,,1,,,,,,,,,,,,,,,,,,,,,,,,,,,,,,,,,,,,,,,,,,,,492.069,498.342,slightly agree,0,0,0,0,1,I can easily tell if someone else wants to enter a conversation.,1,0,1,0,,
,,,,,,,,,66ad3561c1e5c019916365fb,i use to learn some but not sure which variety it is ,13 or older,click here to respond,no,2025-07-24_10h00.40.951,empathy_intonation_perc_control,2024.2.4,Linux x86_64,62.5,66ad3561c1e5c019916365fb,68817205a84113384fffdfe3,68823b5f4701074242532288,,,,,,,,,,,,,,,,,,,,,,,,,,,2,,,,,,,,,,,,,,,,,,,,,,,,,,,,,,,,,,,,,,,,,,,,498.346,501.283,strongly disagree,0,1,1,1,1,I prefer animals to humans.,0,1,0,0,,
,,,,,,,,,66ad3561c1e5c019916365fb,i use to learn some but not sure which variety it is ,13 or older,click here to respond,no,2025-07-24_10h00.40.951,empathy_intonation_perc_control,2024.2.4,Linux x86_64,62.5,66ad3561c1e5c019916365fb,68817205a84113384fffdfe3,68823b5f4701074242532288,,,,,,,,,,,,,,,,,,,,,,,,,,,3,,,,,,,,,,,,,,,,,,,,,,,,,,,,,,,,,,,,,,,,,,,,501.284,504.141,slightly disagree,0,2,2,2,1,I try to keep up with the current trends and fashions.,0,1,0,0,,
,,,,,,,,,66ad3561c1e5c019916365fb,i use to learn some but not sure which variety it is ,13 or older,click here to respond,no,2025-07-24_10h00.40.951,empathy_intonation_perc_control,2024.2.4,Linux x86_64,62.5,66ad3561c1e5c019916365fb,68817205a84113384fffdfe3,68823b5f4701074242532288,,,,,,,,,,,,,,,,,,,,,,,,,,,4,,,,,,,,,,,,,,,,,,,,,,,,,,,,,,,,,,,,,,,,,,,,504.144,510.028,slightly agree,0,3,3,3,1,"I find it difficult to explain to others things that I understand easily,   when they don't understand it first time.",1,0,0,1,,
,,,,,,,,,66ad3561c1e5c019916365fb,i use to learn some but not sure which variety it is ,13 or older,click here to respond,no,2025-07-24_10h00.40.951,empathy_intonation_perc_control,2024.2.4,Linux x86_64,62.5,66ad3561c1e5c019916365fb,68817205a84113384fffdfe3,68823b5f4701074242532288,,,,,,,,,,,,,,,,,,,,,,,,,,,5,,,,,,,,,,,,,,,,,,,,,,,,,,,,,,,,,,,,,,,,,,,,510.029,513.555,slightly disagree,0,4,4,4,1,I dream most nights.,0,1,0,0,,
,,,,,,,,,66ad3561c1e5c019916365fb,i use to learn some but not sure which variety it is ,13 or older,click here to respond,no,2025-07-24_10h00.40.951,empathy_intonation_perc_control,2024.2.4,Linux x86_64,62.5,66ad3561c1e5c019916365fb,68817205a84113384fffdfe3,68823b5f4701074242532288,,,,,,,,,,,,,,,,,,,,,,,,,,,6,,,,,,,,,,,,,,,,,,,,,,,,,,,,,,,,,,,,,,,,,,,,513.558,516.545,strongly agree,0,5,5,5,1,I really enjoy caring for other people.,1,0,1,0,,
,,,,,,,,,66ad3561c1e5c019916365fb,i use to learn some but not sure which variety it is ,13 or older,click here to respond,no,2025-07-24_10h00.40.951,empathy_intonation_perc_control,2024.2.4,Linux x86_64,62.5,66ad3561c1e5c019916365fb,68817205a84113384fffdfe3,68823b5f4701074242532288,,,,,,,,,,,,,,,,,,,,,,,,,,,7,,,,,,,,,,,,,,,,,,,,,,,,,,,,,,,,,,,,,,,,,,,,516.548,520.527,slightly agree,0,6,6,6,1,I try to solve my own problems rather than discussing them with others.,0,1,0,0,,
