instructions_2afc.started,instructions_2afc.stopped,instructions_2afc_loop.thisRepN,instructions_2afc_loop.thisTrialN,instructions_2afc_loop.thisN,instructions_2afc_loop.thisIndex,instructions_2afc_loop.ran,instructions_text,continue_text,participant_id,"What variety of Spanish are you most familiar with? (e.g., Peruvian, Spanish, Mexican)",At what age did you begin learning Spanish?,Are you proficient in any languages other than English/Spanish?,"Are you familiar with Caribbean (e.g., Caribbean, Puerto Rican) or Galician Spanish?",date,expName,psychopyVersion,OS,frameRate,id,study_id,session,practice_2afc.started,practice_2afc.stopped,key_resp_2afc_practice.keys,key_resp_2afc_practice.corr,key_resp_2afc_practice.rt,key_resp_2afc_practice.duration,trials_2afc_practice_loop.thisRepN,trials_2afc_practice_loop.thisTrialN,trials_2afc_practice_loop.thisN,trials_2afc_practice_loop.thisIndex,trials_2afc_practice_loop.ran,path,correct_response,check_2afc.started,check_2afc.stopped,trial_2afc.started,trial_2afc.stopped,key_resp_2afc_trial.keys,key_resp_2afc_trial.corr,key_resp_2afc_trial.rt,key_resp_2afc_trial.duration,trials_2afc_loop.thisRepN,trials_2afc_loop.thisTrialN,trials_2afc_loop.thisN,trials_2afc_loop.thisIndex,trials_2afc_loop.ran,item_num,target,variety,instructions_lextale.started,instructions_lextale.stopped,instructions_lextale_loop.thisRepN,instructions_lextale_loop.thisTrialN,instructions_lextale_loop.thisN,instructions_lextale_loop.thisIndex,instructions_lextale_loop.ran,practice_lextale.started,practice_lextale.stopped,key_resp_lextale_practice.keys,key_resp_lextale_practice.corr,key_resp_lextale_practice.rt,key_resp_lextale_practice.duration,practice_feedback_lextale.started,practice_feedback_lextale.stopped,trials_lextale_practice_loop.thisRepN,trials_lextale_practice_loop.thisTrialN,trials_lextale_practice_loop.thisN,trials_lextale_practice_loop.thisIndex,trials_lextale_practice_loop.ran,stim,word,prac_button_real,prac_button_false,check_lextale.started,check_lextale.stopped,trial_lextale.started,trial_lextale.stopped,key_resp_lextale_trial.keys,key_resp_lextale_trial.corr,key_resp_lextale_trial.rt,key_resp_lextale_trial.duration,trials_lextale_loop.thisRepN,trials_lextale_loop.thisTrialN,trials_lextale_loop.thisN,trials_lextale_loop.thisIndex,trials_lextale_loop.ran,button_real,button_false,instructions_eq.started,instructions_eq.stopped,trial_eq.started,trial_eq.stopped,slider_eq_trial.response,trials_eq_loop.thisRepN,trials_eq_loop.thisTrialN,trials_eq_loop.thisN,trials_eq_loop.thisIndex,trials_eq_loop.ran,item,is_test_item,is_distractor,is_agree_score,is_disagree_score,end_exp.started,end_exp.stopped
0.006,2.802,0,0,0,0,1,"In the following task you are going to hear a series of utterances. 

  You will decide if the utterances sound like questions or not using your keyboard.", (press the spacebar to continue),66b2385b08ab5b8fafdc94e3,Spanish,13 or older,"no, only English or Spanish",no,2025-07-24_11h02.49.844,empathy_intonation_perc_control,2024.2.4,MacIntel,126.5822785,66b2385b08ab5b8fafdc94e3,68817205a84113384fffdfe3,68824af6caa1af43b98f4836,,,,,,,,,,,,,,,,,,,,,,,,,,,,,,,,,,,,,,,,,,,,,,,,,,,,,,,,,,,,,,,,,,,,,,,,,,,,,,,,,,,,,
2.803,10.092,0,1,1,1,1,"If you believe the utterance is a question, type '1' (for 'yes') and if you do not 
  believe it is a question type '0' (for 'no').

  Let's practice a bit...", (press the spacebar to continue),66b2385b08ab5b8fafdc94e3,Spanish,13 or older,"no, only English or Spanish",no,2025-07-24_11h02.49.844,empathy_intonation_perc_control,2024.2.4,MacIntel,126.5822785,66b2385b08ab5b8fafdc94e3,68817205a84113384fffdfe3,68824af6caa1af43b98f4836,,,,,,,,,,,,,,,,,,,,,,,,,,,,,,,,,,,,,,,,,,,,,,,,,,,,,,,,,,,,,,,,,,,,,,,,,,,,,,,,,,,,,
,,,,,,,,,66b2385b08ab5b8fafdc94e3,Spanish,13 or older,"no, only English or Spanish",no,2025-07-24_11h02.49.844,empathy_intonation_perc_control,2024.2.4,MacIntel,126.5822785,66b2385b08ab5b8fafdc94e3,68817205a84113384fffdfe3,68824af6caa1af43b98f4836,10.097,15.659,0,1,5.055,,0,0,0,6,1,./stim/wavs/peruvian_statement_filler_El-nino-habla-con-su-madre.wav,0,,,,,,,,,,,,,,,,,,,,,,,,,,,,,,,,,,,,,,,,,,,,,,,,,,,,,,,,,,,,,,,,,,,,,,,,
,,,,,,,,,66b2385b08ab5b8fafdc94e3,Spanish,13 or older,"no, only English or Spanish",no,2025-07-24_11h02.49.844,empathy_intonation_perc_control,2024.2.4,MacIntel,126.5822785,66b2385b08ab5b8fafdc94e3,68817205a84113384fffdfe3,68824af6caa1af43b98f4836,15.661,19.821,1,1,3.65,,0,1,1,0,1,./stim/wavs/castilian_question_filler_Mi-esposo-conoce-al-chico.wav,1,,,,,,,,,,,,,,,,,,,,,,,,,,,,,,,,,,,,,,,,,,,,,,,,,,,,,,,,,,,,,,,,,,,,,,,,
,,,,,,,,,66b2385b08ab5b8fafdc94e3,Spanish,13 or older,"no, only English or Spanish",no,2025-07-24_11h02.49.844,empathy_intonation_perc_control,2024.2.4,MacIntel,126.5822785,66b2385b08ab5b8fafdc94e3,68817205a84113384fffdfe3,68824af6caa1af43b98f4836,19.822,22.776,0,1,2.45,,0,2,2,5,1,./stim/wavs/andalusian_statement_filler_Alberto-nunca-se-afeita.wav,0,,,,,,,,,,,,,,,,,,,,,,,,,,,,,,,,,,,,,,,,,,,,,,,,,,,,,,,,,,,,,,,,,,,,,,,,
,,,,,,,,,66b2385b08ab5b8fafdc94e3,Spanish,13 or older,"no, only English or Spanish",no,2025-07-24_11h02.49.844,empathy_intonation_perc_control,2024.2.4,MacIntel,126.5822785,66b2385b08ab5b8fafdc94e3,68817205a84113384fffdfe3,68824af6caa1af43b98f4836,22.776,23.428,0,0,0.14,,0,3,3,2,1,./stim/wavs/chilean_question_filler_Mi-padre-cantaba-bien.wav,1,,,,,,,,,,,,,,,,,,,,,,,,,,,,,,,,,,,,,,,,,,,,,,,,,,,,,,,,,,,,,,,,,,,,,,,,
,,,,,,,,,66b2385b08ab5b8fafdc94e3,Spanish,13 or older,"no, only English or Spanish",no,2025-07-24_11h02.49.844,empathy_intonation_perc_control,2024.2.4,MacIntel,126.5822785,66b2385b08ab5b8fafdc94e3,68817205a84113384fffdfe3,68824af6caa1af43b98f4836,23.429,25.938,1,1,1.999,,0,4,4,3,1,./stim/wavs/mexican_question_filler_Felipe-no-tiene-contrasena.wav,1,,,,,,,,,,,,,,,,,,,,,,,,,,,,,,,,,,,,,,,,,,,,,,,,,,,,,,,,,,,,,,,,,,,,,,,,
,,,,,,,,,66b2385b08ab5b8fafdc94e3,Spanish,13 or older,"no, only English or Spanish",no,2025-07-24_11h02.49.844,empathy_intonation_perc_control,2024.2.4,MacIntel,126.5822785,66b2385b08ab5b8fafdc94e3,68817205a84113384fffdfe3,68824af6caa1af43b98f4836,25.939,28.883,0,1,2.431,,0,5,5,7,1,./stim/wavs/puertorican_statement_filler_La-nina-pinta-con-su-amiga.wav,0,,,,,,,,,,,,,,,,,,,,,,,,,,,,,,,,,,,,,,,,,,,,,,,,,,,,,,,,,,,,,,,,,,,,,,,,
,,,,,,,,,66b2385b08ab5b8fafdc94e3,Spanish,13 or older,"no, only English or Spanish",no,2025-07-24_11h02.49.844,empathy_intonation_perc_control,2024.2.4,MacIntel,126.5822785,66b2385b08ab5b8fafdc94e3,68817205a84113384fffdfe3,68824af6caa1af43b98f4836,28.884,32.017,0,1,2.626,,0,6,6,4,1,./stim/wavs/cuban_statement_filler_Cocinabas-por-la-noche.wav,0,,,,,,,,,,,,,,,,,,,,,,,,,,,,,,,,,,,,,,,,,,,,,,,,,,,,,,,,,,,,,,,,,,,,,,,,
,,,,,,,,,66b2385b08ab5b8fafdc94e3,Spanish,13 or older,"no, only English or Spanish",no,2025-07-24_11h02.49.844,empathy_intonation_perc_control,2024.2.4,MacIntel,126.5822785,66b2385b08ab5b8fafdc94e3,68817205a84113384fffdfe3,68824af6caa1af43b98f4836,32.018,34.567,1,1,2.034,,0,7,7,1,1,./stim/wavs/argentine_question_filler_Mi-vecino-habla-mucho.wav,1,,,,,,,,,,,,,,,,,,,,,,,,,,,,,,,,,,,,,,,,,,,,,,,,,,,,,,,,,,,,,,,,,,,,,,,,
,,,,,,,,,66b2385b08ab5b8fafdc94e3,Spanish,13 or older,"no, only English or Spanish",no,2025-07-24_11h02.49.844,empathy_intonation_perc_control,2024.2.4,MacIntel,126.5822785,66b2385b08ab5b8fafdc94e3,68817205a84113384fffdfe3,68824af6caa1af43b98f4836,,,,,,,,,,,,,,34.567,36.504,,,,,,,,,,,,,,,,,,,,,,,,,,,,,,,,,,,,,,,,,,,,,,,,,,,,,,,,,,,,,,,,,,,,,,
,,,,,,,,,66b2385b08ab5b8fafdc94e3,Spanish,13 or older,"no, only English or Spanish",no,2025-07-24_11h02.49.844,empathy_intonation_perc_control,2024.2.4,MacIntel,126.5822785,66b2385b08ab5b8fafdc94e3,68817205a84113384fffdfe3,68824af6caa1af43b98f4836,,,,,,,,,,,,./stim/wavs/mexican_mismatch_declarative-broad-focus_La-maestra-vive-en-Paris.wav,0,,,36.513,38.973,0,1,1.95,,0,0,0,80,1,81,0,mexican,,,,,,,,,,,,,,,,,,,,,,,,,,,,,,,,,,,,,,,,,,,,,,,,,,,,,,,,
,,,,,,,,,66b2385b08ab5b8fafdc94e3,Spanish,13 or older,"no, only English or Spanish",no,2025-07-24_11h02.49.844,empathy_intonation_perc_control,2024.2.4,MacIntel,126.5822785,66b2385b08ab5b8fafdc94e3,68817205a84113384fffdfe3,68824af6caa1af43b98f4836,,,,,,,,,,,,./stim/wavs/castilian_match_interrogative-total-yn_David-leia-el-libro.wav,1,,,38.973,41.406,1,1,1.921,,0,1,1,0,1,1,0,castilian,,,,,,,,,,,,,,,,,,,,,,,,,,,,,,,,,,,,,,,,,,,,,,,,,,,,,,,,
,,,,,,,,,66b2385b08ab5b8fafdc94e3,Spanish,13 or older,"no, only English or Spanish",no,2025-07-24_11h02.49.844,empathy_intonation_perc_control,2024.2.4,MacIntel,126.5822785,66b2385b08ab5b8fafdc94e3,68817205a84113384fffdfe3,68824af6caa1af43b98f4836,,,,,,,,,,,,./stim/wavs/castilian_match_declarative-broad-focus_Maria-bebe-el-vino.wav,0,,,41.406,44.004,0,1,2.083,,0,2,2,47,1,48,0,castilian,,,,,,,,,,,,,,,,,,,,,,,,,,,,,,,,,,,,,,,,,,,,,,,,,,,,,,,,
,,,,,,,,,66b2385b08ab5b8fafdc94e3,Spanish,13 or older,"no, only English or Spanish",no,2025-07-24_11h02.49.844,empathy_intonation_perc_control,2024.2.4,MacIntel,126.5822785,66b2385b08ab5b8fafdc94e3,68817205a84113384fffdfe3,68824af6caa1af43b98f4836,,,,,,,,,,,,./stim/wavs/puertorican_match_declarative-broad-focus_Emilio-ama-la-marcha.wav,0,,,44.005,46.096,0,1,1.584,,0,3,3,65,1,66,0,puertorican,,,,,,,,,,,,,,,,,,,,,,,,,,,,,,,,,,,,,,,,,,,,,,,,,,,,,,,,
,,,,,,,,,66b2385b08ab5b8fafdc94e3,Spanish,13 or older,"no, only English or Spanish",no,2025-07-24_11h02.49.844,empathy_intonation_perc_control,2024.2.4,MacIntel,126.5822785,66b2385b08ab5b8fafdc94e3,68817205a84113384fffdfe3,68824af6caa1af43b98f4836,,,,,,,,,,,,./stim/wavs/puertorican_match_declarative-broad-focus_Maria-bebe-el-vino.wav,0,,,46.097,48.054,0,1,1.446,,0,4,4,67,1,68,0,puertorican,,,,,,,,,,,,,,,,,,,,,,,,,,,,,,,,,,,,,,,,,,,,,,,,,,,,,,,,
,,,,,,,,,66b2385b08ab5b8fafdc94e3,Spanish,13 or older,"no, only English or Spanish",no,2025-07-24_11h02.49.844,empathy_intonation_perc_control,2024.2.4,MacIntel,126.5822785,66b2385b08ab5b8fafdc94e3,68817205a84113384fffdfe3,68824af6caa1af43b98f4836,,,,,,,,,,,,./stim/wavs/cuban_match_declarative-broad-focus_Manuela-vende-el-carro.wav,0,,,48.054,50.196,0,1,1.636,,0,5,5,52,1,53,0,cuban,,,,,,,,,,,,,,,,,,,,,,,,,,,,,,,,,,,,,,,,,,,,,,,,,,,,,,,,
,,,,,,,,,66b2385b08ab5b8fafdc94e3,Spanish,13 or older,"no, only English or Spanish",no,2025-07-24_11h02.49.844,empathy_intonation_perc_control,2024.2.4,MacIntel,126.5822785,66b2385b08ab5b8fafdc94e3,68817205a84113384fffdfe3,68824af6caa1af43b98f4836,,,,,,,,,,,,./stim/wavs/mexican_match_declarative-broad-focus_Ana-lleva-el-abrigo.wav,0,,,50.198,52.034,0,1,1.329,,0,6,6,56,1,57,0,mexican,,,,,,,,,,,,,,,,,,,,,,,,,,,,,,,,,,,,,,,,,,,,,,,,,,,,,,,,
,,,,,,,,,66b2385b08ab5b8fafdc94e3,Spanish,13 or older,"no, only English or Spanish",no,2025-07-24_11h02.49.844,empathy_intonation_perc_control,2024.2.4,MacIntel,126.5822785,66b2385b08ab5b8fafdc94e3,68817205a84113384fffdfe3,68824af6caa1af43b98f4836,,,,,,,,,,,,./stim/wavs/castilian_match_interrogative-total-yn_Maria-bebe-el-vino.wav,1,,,52.034,53.951,1,1,1.402,,0,7,7,3,1,4,0,castilian,,,,,,,,,,,,,,,,,,,,,,,,,,,,,,,,,,,,,,,,,,,,,,,,,,,,,,,,
,,,,,,,,,66b2385b08ab5b8fafdc94e3,Spanish,13 or older,"no, only English or Spanish",no,2025-07-24_11h02.49.844,empathy_intonation_perc_control,2024.2.4,MacIntel,126.5822785,66b2385b08ab5b8fafdc94e3,68817205a84113384fffdfe3,68824af6caa1af43b98f4836,,,,,,,,,,,,./stim/wavs/puertorican_mismatch_interrogative-total-yn_Mi-madre-come-la-fruta.wav,1,,,53.953,55.984,0,0,1.515,,0,8,8,43,1,44,1,puertorican,,,,,,,,,,,,,,,,,,,,,,,,,,,,,,,,,,,,,,,,,,,,,,,,,,,,,,,,
,,,,,,,,,66b2385b08ab5b8fafdc94e3,Spanish,13 or older,"no, only English or Spanish",no,2025-07-24_11h02.49.844,empathy_intonation_perc_control,2024.2.4,MacIntel,126.5822785,66b2385b08ab5b8fafdc94e3,68817205a84113384fffdfe3,68824af6caa1af43b98f4836,,,,,,,,,,,,./stim/wavs/mexican_match_declarative-broad-focus_Marta-abre-el-regalo.wav,0,,,55.985,58.059,0,1,1.569,,0,9,9,61,1,62,0,mexican,,,,,,,,,,,,,,,,,,,,,,,,,,,,,,,,,,,,,,,,,,,,,,,,,,,,,,,,
,,,,,,,,,66b2385b08ab5b8fafdc94e3,Spanish,13 or older,"no, only English or Spanish",no,2025-07-24_11h02.49.844,empathy_intonation_perc_control,2024.2.4,MacIntel,126.5822785,66b2385b08ab5b8fafdc94e3,68817205a84113384fffdfe3,68824af6caa1af43b98f4836,,,,,,,,,,,,./stim/wavs/cuban_match_declarative-broad-focus_Maria-bebe-el-vino.wav,0,,,58.06,60.134,0,1,1.563,,0,10,10,53,1,54,0,cuban,,,,,,,,,,,,,,,,,,,,,,,,,,,,,,,,,,,,,,,,,,,,,,,,,,,,,,,,
,,,,,,,,,66b2385b08ab5b8fafdc94e3,Spanish,13 or older,"no, only English or Spanish",no,2025-07-24_11h02.49.844,empathy_intonation_perc_control,2024.2.4,MacIntel,126.5822785,66b2385b08ab5b8fafdc94e3,68817205a84113384fffdfe3,68824af6caa1af43b98f4836,,,,,,,,,,,,./stim/wavs/castilian_mismatch_interrogative-total-yn_Mi-tia-odia-la-lluvia.wav,1,,,60.134,62.451,1,1,1.808,,0,11,11,28,1,29,0,castilian,,,,,,,,,,,,,,,,,,,,,,,,,,,,,,,,,,,,,,,,,,,,,,,,,,,,,,,,
,,,,,,,,,66b2385b08ab5b8fafdc94e3,Spanish,13 or older,"no, only English or Spanish",no,2025-07-24_11h02.49.844,empathy_intonation_perc_control,2024.2.4,MacIntel,126.5822785,66b2385b08ab5b8fafdc94e3,68817205a84113384fffdfe3,68824af6caa1af43b98f4836,,,,,,,,,,,,./stim/wavs/mexican_mismatch_interrogative-total-yn_El-nino-oye-el-rio.wav,1,,,62.451,64.459,1,1,1.491,,0,12,12,35,1,36,0,mexican,,,,,,,,,,,,,,,,,,,,,,,,,,,,,,,,,,,,,,,,,,,,,,,,,,,,,,,,
,,,,,,,,,66b2385b08ab5b8fafdc94e3,Spanish,13 or older,"no, only English or Spanish",no,2025-07-24_11h02.49.844,empathy_intonation_perc_control,2024.2.4,MacIntel,126.5822785,66b2385b08ab5b8fafdc94e3,68817205a84113384fffdfe3,68824af6caa1af43b98f4836,,,,,,,,,,,,./stim/wavs/cuban_match_interrogative-total-yn_Maria-bebe-el-vino.wav,1,,,64.46,66.959,0,0,1.982,,0,13,13,9,1,10,1,cuban,,,,,,,,,,,,,,,,,,,,,,,,,,,,,,,,,,,,,,,,,,,,,,,,,,,,,,,,
,,,,,,,,,66b2385b08ab5b8fafdc94e3,Spanish,13 or older,"no, only English or Spanish",no,2025-07-24_11h02.49.844,empathy_intonation_perc_control,2024.2.4,MacIntel,126.5822785,66b2385b08ab5b8fafdc94e3,68817205a84113384fffdfe3,68824af6caa1af43b98f4836,,,,,,,,,,,,./stim/wavs/castilian_mismatch_interrogative-total-yn_Mi-madre-come-la-fruta.wav,1,,,66.96,70.133,1,1,2.667,,0,14,14,26,1,27,0,castilian,,,,,,,,,,,,,,,,,,,,,,,,,,,,,,,,,,,,,,,,,,,,,,,,,,,,,,,,
,,,,,,,,,66b2385b08ab5b8fafdc94e3,Spanish,13 or older,"no, only English or Spanish",no,2025-07-24_11h02.49.844,empathy_intonation_perc_control,2024.2.4,MacIntel,126.5822785,66b2385b08ab5b8fafdc94e3,68817205a84113384fffdfe3,68824af6caa1af43b98f4836,,,,,,,,,,,,./stim/wavs/castilian_mismatch_interrogative-total-yn_La-nina-lava-el-plato.wav,1,,,70.134,72.226,1,1,1.59,,0,15,15,25,1,26,0,castilian,,,,,,,,,,,,,,,,,,,,,,,,,,,,,,,,,,,,,,,,,,,,,,,,,,,,,,,,
,,,,,,,,,66b2385b08ab5b8fafdc94e3,Spanish,13 or older,"no, only English or Spanish",no,2025-07-24_11h02.49.844,empathy_intonation_perc_control,2024.2.4,MacIntel,126.5822785,66b2385b08ab5b8fafdc94e3,68817205a84113384fffdfe3,68824af6caa1af43b98f4836,,,,,,,,,,,,./stim/wavs/puertorican_match_interrogative-total-yn_David-leia-el-libro.wav,1,,,72.227,74.187,0,0,1.45,,0,16,16,20,1,21,1,puertorican,,,,,,,,,,,,,,,,,,,,,,,,,,,,,,,,,,,,,,,,,,,,,,,,,,,,,,,,
,,,,,,,,,66b2385b08ab5b8fafdc94e3,Spanish,13 or older,"no, only English or Spanish",no,2025-07-24_11h02.49.844,empathy_intonation_perc_control,2024.2.4,MacIntel,126.5822785,66b2385b08ab5b8fafdc94e3,68817205a84113384fffdfe3,68824af6caa1af43b98f4836,,,,,,,,,,,,./stim/wavs/puertorican_match_declarative-broad-focus_Daniel-iba-a-Bolivia.wav,0,,,74.188,76.108,0,1,1.407,,0,17,17,63,1,64,0,puertorican,,,,,,,,,,,,,,,,,,,,,,,,,,,,,,,,,,,,,,,,,,,,,,,,,,,,,,,,
,,,,,,,,,66b2385b08ab5b8fafdc94e3,Spanish,13 or older,"no, only English or Spanish",no,2025-07-24_11h02.49.844,empathy_intonation_perc_control,2024.2.4,MacIntel,126.5822785,66b2385b08ab5b8fafdc94e3,68817205a84113384fffdfe3,68824af6caa1af43b98f4836,,,,,,,,,,,,./stim/wavs/mexican_mismatch_interrogative-total-yn_La-maestra-vive-en-Paris.wav,1,,,76.109,78.379,0,0,1.765,,0,18,18,36,1,37,0,mexican,,,,,,,,,,,,,,,,,,,,,,,,,,,,,,,,,,,,,,,,,,,,,,,,,,,,,,,,
,,,,,,,,,66b2385b08ab5b8fafdc94e3,Spanish,13 or older,"no, only English or Spanish",no,2025-07-24_11h02.49.844,empathy_intonation_perc_control,2024.2.4,MacIntel,126.5822785,66b2385b08ab5b8fafdc94e3,68817205a84113384fffdfe3,68824af6caa1af43b98f4836,,,,,,,,,,,,./stim/wavs/puertorican_match_declarative-broad-focus_Ana-lleva-el-abrigo.wav,0,,,78.38,80.454,0,1,1.56,,0,19,19,62,1,63,0,puertorican,,,,,,,,,,,,,,,,,,,,,,,,,,,,,,,,,,,,,,,,,,,,,,,,,,,,,,,,
,,,,,,,,,66b2385b08ab5b8fafdc94e3,Spanish,13 or older,"no, only English or Spanish",no,2025-07-24_11h02.49.844,empathy_intonation_perc_control,2024.2.4,MacIntel,126.5822785,66b2385b08ab5b8fafdc94e3,68817205a84113384fffdfe3,68824af6caa1af43b98f4836,,,,,,,,,,,,./stim/wavs/puertorican_match_interrogative-total-yn_Daniel-iba-a-Bolivia.wav,1,,,80.455,82.605,0,0,1.631,,0,20,20,19,1,20,1,puertorican,,,,,,,,,,,,,,,,,,,,,,,,,,,,,,,,,,,,,,,,,,,,,,,,,,,,,,,,
,,,,,,,,,66b2385b08ab5b8fafdc94e3,Spanish,13 or older,"no, only English or Spanish",no,2025-07-24_11h02.49.844,empathy_intonation_perc_control,2024.2.4,MacIntel,126.5822785,66b2385b08ab5b8fafdc94e3,68817205a84113384fffdfe3,68824af6caa1af43b98f4836,,,,,,,,,,,,./stim/wavs/castilian_mismatch_interrogative-total-yn_La-maestra-vive-en-Paris.wav,1,,,82.605,84.55,1,1,1.432,,0,21,21,24,1,25,0,castilian,,,,,,,,,,,,,,,,,,,,,,,,,,,,,,,,,,,,,,,,,,,,,,,,,,,,,,,,
,,,,,,,,,66b2385b08ab5b8fafdc94e3,Spanish,13 or older,"no, only English or Spanish",no,2025-07-24_11h02.49.844,empathy_intonation_perc_control,2024.2.4,MacIntel,126.5822785,66b2385b08ab5b8fafdc94e3,68817205a84113384fffdfe3,68824af6caa1af43b98f4836,,,,,,,,,,,,./stim/wavs/castilian_match_declarative-broad-focus_Manuela-vende-el-carro.wav,0,,,84.551,86.759,0,1,1.691,,0,22,22,46,1,47,0,castilian,,,,,,,,,,,,,,,,,,,,,,,,,,,,,,,,,,,,,,,,,,,,,,,,,,,,,,,,
,,,,,,,,,66b2385b08ab5b8fafdc94e3,Spanish,13 or older,"no, only English or Spanish",no,2025-07-24_11h02.49.844,empathy_intonation_perc_control,2024.2.4,MacIntel,126.5822785,66b2385b08ab5b8fafdc94e3,68817205a84113384fffdfe3,68824af6caa1af43b98f4836,,,,,,,,,,,,./stim/wavs/puertorican_match_interrogative-total-yn_Maria-bebe-el-vino.wav,1,,,86.76,88.983,0,0,1.711,,0,23,23,23,1,24,1,puertorican,,,,,,,,,,,,,,,,,,,,,,,,,,,,,,,,,,,,,,,,,,,,,,,,,,,,,,,,
,,,,,,,,,66b2385b08ab5b8fafdc94e3,Spanish,13 or older,"no, only English or Spanish",no,2025-07-24_11h02.49.844,empathy_intonation_perc_control,2024.2.4,MacIntel,126.5822785,66b2385b08ab5b8fafdc94e3,68817205a84113384fffdfe3,68824af6caa1af43b98f4836,,,,,,,,,,,,./stim/wavs/cuban_mismatch_declarative-broad-focus_El-bebe-comia-muy-bien.wav,0,,,88.986,90.925,0,1,1.429,,0,24,24,73,1,74,0,cuban,,,,,,,,,,,,,,,,,,,,,,,,,,,,,,,,,,,,,,,,,,,,,,,,,,,,,,,,
,,,,,,,,,66b2385b08ab5b8fafdc94e3,Spanish,13 or older,"no, only English or Spanish",no,2025-07-24_11h02.49.844,empathy_intonation_perc_control,2024.2.4,MacIntel,126.5822785,66b2385b08ab5b8fafdc94e3,68817205a84113384fffdfe3,68824af6caa1af43b98f4836,,,,,,,,,,,,./stim/wavs/mexican_mismatch_declarative-broad-focus_Mi-tia-odia-la-lluvia.wav,0,,,90.926,92.864,0,1,1.428,,0,25,25,82,1,83,0,mexican,,,,,,,,,,,,,,,,,,,,,,,,,,,,,,,,,,,,,,,,,,,,,,,,,,,,,,,,
,,,,,,,,,66b2385b08ab5b8fafdc94e3,Spanish,13 or older,"no, only English or Spanish",no,2025-07-24_11h02.49.844,empathy_intonation_perc_control,2024.2.4,MacIntel,126.5822785,66b2385b08ab5b8fafdc94e3,68817205a84113384fffdfe3,68824af6caa1af43b98f4836,,,,,,,,,,,,./stim/wavs/cuban_mismatch_declarative-broad-focus_Mi-tia-odia-la-lluvia.wav,0,,,92.865,94.929,0,1,1.551,,0,26,26,77,1,78,0,cuban,,,,,,,,,,,,,,,,,,,,,,,,,,,,,,,,,,,,,,,,,,,,,,,,,,,,,,,,
,,,,,,,,,66b2385b08ab5b8fafdc94e3,Spanish,13 or older,"no, only English or Spanish",no,2025-07-24_11h02.49.844,empathy_intonation_perc_control,2024.2.4,MacIntel,126.5822785,66b2385b08ab5b8fafdc94e3,68817205a84113384fffdfe3,68824af6caa1af43b98f4836,,,,,,,,,,,,./stim/wavs/puertorican_match_declarative-broad-focus_Manuela-vende-el-carro.wav,0,,,94.93,97.133,0,1,1.698,,0,27,27,66,1,67,0,puertorican,,,,,,,,,,,,,,,,,,,,,,,,,,,,,,,,,,,,,,,,,,,,,,,,,,,,,,,,
,,,,,,,,,66b2385b08ab5b8fafdc94e3,Spanish,13 or older,"no, only English or Spanish",no,2025-07-24_11h02.49.844,empathy_intonation_perc_control,2024.2.4,MacIntel,126.5822785,66b2385b08ab5b8fafdc94e3,68817205a84113384fffdfe3,68824af6caa1af43b98f4836,,,,,,,,,,,,./stim/wavs/mexican_mismatch_declarative-broad-focus_El-bebe-comia-muy-bien.wav,0,,,97.134,99.426,0,1,1.773,,0,28,28,78,1,79,0,mexican,,,,,,,,,,,,,,,,,,,,,,,,,,,,,,,,,,,,,,,,,,,,,,,,,,,,,,,,
,,,,,,,,,66b2385b08ab5b8fafdc94e3,Spanish,13 or older,"no, only English or Spanish",no,2025-07-24_11h02.49.844,empathy_intonation_perc_control,2024.2.4,MacIntel,126.5822785,66b2385b08ab5b8fafdc94e3,68817205a84113384fffdfe3,68824af6caa1af43b98f4836,,,,,,,,,,,,./stim/wavs/castilian_match_interrogative-total-yn_Marta-abre-el-regalo.wav,1,,,99.428,103.008,0,0,3.068,,0,29,29,5,1,6,0,castilian,,,,,,,,,,,,,,,,,,,,,,,,,,,,,,,,,,,,,,,,,,,,,,,,,,,,,,,,
,,,,,,,,,66b2385b08ab5b8fafdc94e3,Spanish,13 or older,"no, only English or Spanish",no,2025-07-24_11h02.49.844,empathy_intonation_perc_control,2024.2.4,MacIntel,126.5822785,66b2385b08ab5b8fafdc94e3,68817205a84113384fffdfe3,68824af6caa1af43b98f4836,,,,,,,,,,,,./stim/wavs/puertorican_mismatch_interrogative-total-yn_El-nino-oye-el-rio.wav,1,,,103.01,105.175,1,1,1.663,,0,30,30,40,1,41,1,puertorican,,,,,,,,,,,,,,,,,,,,,,,,,,,,,,,,,,,,,,,,,,,,,,,,,,,,,,,,
,,,,,,,,,66b2385b08ab5b8fafdc94e3,Spanish,13 or older,"no, only English or Spanish",no,2025-07-24_11h02.49.844,empathy_intonation_perc_control,2024.2.4,MacIntel,126.5822785,66b2385b08ab5b8fafdc94e3,68817205a84113384fffdfe3,68824af6caa1af43b98f4836,,,,,,,,,,,,./stim/wavs/cuban_mismatch_declarative-broad-focus_La-nina-lava-el-plato.wav,0,,,105.175,107.332,0,1,1.652,,0,31,31,75,1,76,0,cuban,,,,,,,,,,,,,,,,,,,,,,,,,,,,,,,,,,,,,,,,,,,,,,,,,,,,,,,,
,,,,,,,,,66b2385b08ab5b8fafdc94e3,Spanish,13 or older,"no, only English or Spanish",no,2025-07-24_11h02.49.844,empathy_intonation_perc_control,2024.2.4,MacIntel,126.5822785,66b2385b08ab5b8fafdc94e3,68817205a84113384fffdfe3,68824af6caa1af43b98f4836,,,,,,,,,,,,./stim/wavs/mexican_mismatch_interrogative-total-yn_Mi-novio-viene-del-lago.wav,1,,,107.333,110.055,0,0,2.214,,0,32,32,37,1,38,0,mexican,,,,,,,,,,,,,,,,,,,,,,,,,,,,,,,,,,,,,,,,,,,,,,,,,,,,,,,,
,,,,,,,,,66b2385b08ab5b8fafdc94e3,Spanish,13 or older,"no, only English or Spanish",no,2025-07-24_11h02.49.844,empathy_intonation_perc_control,2024.2.4,MacIntel,126.5822785,66b2385b08ab5b8fafdc94e3,68817205a84113384fffdfe3,68824af6caa1af43b98f4836,,,,,,,,,,,,./stim/wavs/mexican_match_interrogative-total-yn_Mariano-habla-del-tiempo.wav,1,,,110.055,112.372,1,1,1.806,,0,33,33,16,1,17,0,mexican,,,,,,,,,,,,,,,,,,,,,,,,,,,,,,,,,,,,,,,,,,,,,,,,,,,,,,,,
,,,,,,,,,66b2385b08ab5b8fafdc94e3,Spanish,13 or older,"no, only English or Spanish",no,2025-07-24_11h02.49.844,empathy_intonation_perc_control,2024.2.4,MacIntel,126.5822785,66b2385b08ab5b8fafdc94e3,68817205a84113384fffdfe3,68824af6caa1af43b98f4836,,,,,,,,,,,,./stim/wavs/castilian_match_interrogative-total-yn_Mariano-habla-del-tiempo.wav,1,,,112.373,114.8,1,1,1.919,,0,34,34,4,1,5,0,castilian,,,,,,,,,,,,,,,,,,,,,,,,,,,,,,,,,,,,,,,,,,,,,,,,,,,,,,,,
,,,,,,,,,66b2385b08ab5b8fafdc94e3,Spanish,13 or older,"no, only English or Spanish",no,2025-07-24_11h02.49.844,empathy_intonation_perc_control,2024.2.4,MacIntel,126.5822785,66b2385b08ab5b8fafdc94e3,68817205a84113384fffdfe3,68824af6caa1af43b98f4836,,,,,,,,,,,,./stim/wavs/mexican_match_declarative-broad-focus_David-leia-el-libro.wav,0,,,114.8,117.052,0,1,1.742,,0,35,35,58,1,59,0,mexican,,,,,,,,,,,,,,,,,,,,,,,,,,,,,,,,,,,,,,,,,,,,,,,,,,,,,,,,
,,,,,,,,,66b2385b08ab5b8fafdc94e3,Spanish,13 or older,"no, only English or Spanish",no,2025-07-24_11h02.49.844,empathy_intonation_perc_control,2024.2.4,MacIntel,126.5822785,66b2385b08ab5b8fafdc94e3,68817205a84113384fffdfe3,68824af6caa1af43b98f4836,,,,,,,,,,,,./stim/wavs/castilian_mismatch_declarative-broad-focus_Mi-novio-viene-del-lago.wav,0,,,117.053,119.555,0,1,1.989,,0,36,36,71,1,72,0,castilian,,,,,,,,,,,,,,,,,,,,,,,,,,,,,,,,,,,,,,,,,,,,,,,,,,,,,,,,
,,,,,,,,,66b2385b08ab5b8fafdc94e3,Spanish,13 or older,"no, only English or Spanish",no,2025-07-24_11h02.49.844,empathy_intonation_perc_control,2024.2.4,MacIntel,126.5822785,66b2385b08ab5b8fafdc94e3,68817205a84113384fffdfe3,68824af6caa1af43b98f4836,,,,,,,,,,,,./stim/wavs/castilian_mismatch_interrogative-total-yn_Mi-novio-viene-del-lago.wav,1,,,119.555,121.817,1,1,1.757,,0,37,37,27,1,28,0,castilian,,,,,,,,,,,,,,,,,,,,,,,,,,,,,,,,,,,,,,,,,,,,,,,,,,,,,,,,
,,,,,,,,,66b2385b08ab5b8fafdc94e3,Spanish,13 or older,"no, only English or Spanish",no,2025-07-24_11h02.49.844,empathy_intonation_perc_control,2024.2.4,MacIntel,126.5822785,66b2385b08ab5b8fafdc94e3,68817205a84113384fffdfe3,68824af6caa1af43b98f4836,,,,,,,,,,,,./stim/wavs/cuban_mismatch_interrogative-total-yn_Mi-madre-come-la-fruta.wav,1,,,121.819,124.138,0,0,1.809,,0,38,38,31,1,32,1,cuban,,,,,,,,,,,,,,,,,,,,,,,,,,,,,,,,,,,,,,,,,,,,,,,,,,,,,,,,
,,,,,,,,,66b2385b08ab5b8fafdc94e3,Spanish,13 or older,"no, only English or Spanish",no,2025-07-24_11h02.49.844,empathy_intonation_perc_control,2024.2.4,MacIntel,126.5822785,66b2385b08ab5b8fafdc94e3,68817205a84113384fffdfe3,68824af6caa1af43b98f4836,,,,,,,,,,,,./stim/wavs/mexican_match_declarative-broad-focus_Emilio-ama-la-marcha.wav,0,,,124.139,126.371,0,1,1.727,,0,39,39,59,1,60,0,mexican,,,,,,,,,,,,,,,,,,,,,,,,,,,,,,,,,,,,,,,,,,,,,,,,,,,,,,,,
,,,,,,,,,66b2385b08ab5b8fafdc94e3,Spanish,13 or older,"no, only English or Spanish",no,2025-07-24_11h02.49.844,empathy_intonation_perc_control,2024.2.4,MacIntel,126.5822785,66b2385b08ab5b8fafdc94e3,68817205a84113384fffdfe3,68824af6caa1af43b98f4836,,,,,,,,,,,,./stim/wavs/mexican_match_declarative-broad-focus_Daniel-iba-a-Bolivia.wav,0,,,126.372,128.471,0,1,1.589,,0,40,40,57,1,58,0,mexican,,,,,,,,,,,,,,,,,,,,,,,,,,,,,,,,,,,,,,,,,,,,,,,,,,,,,,,,
,,,,,,,,,66b2385b08ab5b8fafdc94e3,Spanish,13 or older,"no, only English or Spanish",no,2025-07-24_11h02.49.844,empathy_intonation_perc_control,2024.2.4,MacIntel,126.5822785,66b2385b08ab5b8fafdc94e3,68817205a84113384fffdfe3,68824af6caa1af43b98f4836,,,,,,,,,,,,./stim/wavs/castilian_match_interrogative-total-yn_Emilio-ama-la-marcha.wav,1,,,128.472,130.246,1,1,1.257,,0,41,41,1,1,2,0,castilian,,,,,,,,,,,,,,,,,,,,,,,,,,,,,,,,,,,,,,,,,,,,,,,,,,,,,,,,
,,,,,,,,,66b2385b08ab5b8fafdc94e3,Spanish,13 or older,"no, only English or Spanish",no,2025-07-24_11h02.49.844,empathy_intonation_perc_control,2024.2.4,MacIntel,126.5822785,66b2385b08ab5b8fafdc94e3,68817205a84113384fffdfe3,68824af6caa1af43b98f4836,,,,,,,,,,,,./stim/wavs/puertorican_mismatch_declarative-broad-focus_La-maestra-vive-en-Paris.wav,0,,,130.247,132.363,0,1,1.612,,0,42,42,86,1,87,0,puertorican,,,,,,,,,,,,,,,,,,,,,,,,,,,,,,,,,,,,,,,,,,,,,,,,,,,,,,,,
,,,,,,,,,66b2385b08ab5b8fafdc94e3,Spanish,13 or older,"no, only English or Spanish",no,2025-07-24_11h02.49.844,empathy_intonation_perc_control,2024.2.4,MacIntel,126.5822785,66b2385b08ab5b8fafdc94e3,68817205a84113384fffdfe3,68824af6caa1af43b98f4836,,,,,,,,,,,,./stim/wavs/castilian_match_declarative-broad-focus_Marta-abre-el-regalo.wav,0,,,132.364,135.189,0,1,2.311,,0,43,43,49,1,50,0,castilian,,,,,,,,,,,,,,,,,,,,,,,,,,,,,,,,,,,,,,,,,,,,,,,,,,,,,,,,
,,,,,,,,,66b2385b08ab5b8fafdc94e3,Spanish,13 or older,"no, only English or Spanish",no,2025-07-24_11h02.49.844,empathy_intonation_perc_control,2024.2.4,MacIntel,126.5822785,66b2385b08ab5b8fafdc94e3,68817205a84113384fffdfe3,68824af6caa1af43b98f4836,,,,,,,,,,,,./stim/wavs/mexican_mismatch_declarative-broad-focus_Mi-novio-viene-del-lago.wav,0,,,135.189,137.312,1,0,1.611,,0,44,44,81,1,82,0,mexican,,,,,,,,,,,,,,,,,,,,,,,,,,,,,,,,,,,,,,,,,,,,,,,,,,,,,,,,
,,,,,,,,,66b2385b08ab5b8fafdc94e3,Spanish,13 or older,"no, only English or Spanish",no,2025-07-24_11h02.49.844,empathy_intonation_perc_control,2024.2.4,MacIntel,126.5822785,66b2385b08ab5b8fafdc94e3,68817205a84113384fffdfe3,68824af6caa1af43b98f4836,,,,,,,,,,,,./stim/wavs/castilian_match_declarative-broad-focus_David-leia-el-libro.wav,0,,,137.313,139.713,0,1,1.889,,0,45,45,44,1,45,0,castilian,,,,,,,,,,,,,,,,,,,,,,,,,,,,,,,,,,,,,,,,,,,,,,,,,,,,,,,,
,,,,,,,,,66b2385b08ab5b8fafdc94e3,Spanish,13 or older,"no, only English or Spanish",no,2025-07-24_11h02.49.844,empathy_intonation_perc_control,2024.2.4,MacIntel,126.5822785,66b2385b08ab5b8fafdc94e3,68817205a84113384fffdfe3,68824af6caa1af43b98f4836,,,,,,,,,,,,./stim/wavs/puertorican_match_interrogative-total-yn_Manuela-vende-el-carro.wav,1,,,139.713,141.776,1,1,1.554,,0,46,46,22,1,23,1,puertorican,,,,,,,,,,,,,,,,,,,,,,,,,,,,,,,,,,,,,,,,,,,,,,,,,,,,,,,,
,,,,,,,,,66b2385b08ab5b8fafdc94e3,Spanish,13 or older,"no, only English or Spanish",no,2025-07-24_11h02.49.844,empathy_intonation_perc_control,2024.2.4,MacIntel,126.5822785,66b2385b08ab5b8fafdc94e3,68817205a84113384fffdfe3,68824af6caa1af43b98f4836,,,,,,,,,,,,./stim/wavs/mexican_mismatch_interrogative-total-yn_El-hombre-mira-la-luna.wav,1,,,141.776,143.709,1,1,1.425,,0,47,47,34,1,35,0,mexican,,,,,,,,,,,,,,,,,,,,,,,,,,,,,,,,,,,,,,,,,,,,,,,,,,,,,,,,
,,,,,,,,,66b2385b08ab5b8fafdc94e3,Spanish,13 or older,"no, only English or Spanish",no,2025-07-24_11h02.49.844,empathy_intonation_perc_control,2024.2.4,MacIntel,126.5822785,66b2385b08ab5b8fafdc94e3,68817205a84113384fffdfe3,68824af6caa1af43b98f4836,,,,,,,,,,,,./stim/wavs/mexican_match_interrogative-total-yn_David-leia-el-libro.wav,1,,,143.71,146.65,1,1,2.425,,0,48,48,14,1,15,0,mexican,,,,,,,,,,,,,,,,,,,,,,,,,,,,,,,,,,,,,,,,,,,,,,,,,,,,,,,,
,,,,,,,,,66b2385b08ab5b8fafdc94e3,Spanish,13 or older,"no, only English or Spanish",no,2025-07-24_11h02.49.844,empathy_intonation_perc_control,2024.2.4,MacIntel,126.5822785,66b2385b08ab5b8fafdc94e3,68817205a84113384fffdfe3,68824af6caa1af43b98f4836,,,,,,,,,,,,./stim/wavs/cuban_mismatch_declarative-broad-focus_El-hombre-mira-la-luna.wav,0,,,146.651,148.484,0,1,1.328,,0,49,49,74,1,75,0,cuban,,,,,,,,,,,,,,,,,,,,,,,,,,,,,,,,,,,,,,,,,,,,,,,,,,,,,,,,
,,,,,,,,,66b2385b08ab5b8fafdc94e3,Spanish,13 or older,"no, only English or Spanish",no,2025-07-24_11h02.49.844,empathy_intonation_perc_control,2024.2.4,MacIntel,126.5822785,66b2385b08ab5b8fafdc94e3,68817205a84113384fffdfe3,68824af6caa1af43b98f4836,,,,,,,,,,,,./stim/wavs/puertorican_mismatch_interrogative-total-yn_El-hombre-mira-la-luna.wav,1,,,148.485,150.133,1,1,1.134,,0,50,50,39,1,40,1,puertorican,,,,,,,,,,,,,,,,,,,,,,,,,,,,,,,,,,,,,,,,,,,,,,,,,,,,,,,,
,,,,,,,,,66b2385b08ab5b8fafdc94e3,Spanish,13 or older,"no, only English or Spanish",no,2025-07-24_11h02.49.844,empathy_intonation_perc_control,2024.2.4,MacIntel,126.5822785,66b2385b08ab5b8fafdc94e3,68817205a84113384fffdfe3,68824af6caa1af43b98f4836,,,,,,,,,,,,./stim/wavs/mexican_match_declarative-broad-focus_Mariano-habla-del-tiempo.wav,0,,,150.134,152.168,0,1,1.52,,0,51,51,60,1,61,0,mexican,,,,,,,,,,,,,,,,,,,,,,,,,,,,,,,,,,,,,,,,,,,,,,,,,,,,,,,,
,,,,,,,,,66b2385b08ab5b8fafdc94e3,Spanish,13 or older,"no, only English or Spanish",no,2025-07-24_11h02.49.844,empathy_intonation_perc_control,2024.2.4,MacIntel,126.5822785,66b2385b08ab5b8fafdc94e3,68817205a84113384fffdfe3,68824af6caa1af43b98f4836,,,,,,,,,,,,./stim/wavs/puertorican_mismatch_declarative-broad-focus_El-nino-oye-el-rio.wav,0,,,152.168,154.057,0,1,1.375,,0,52,52,85,1,86,0,puertorican,,,,,,,,,,,,,,,,,,,,,,,,,,,,,,,,,,,,,,,,,,,,,,,,,,,,,,,,
,,,,,,,,,66b2385b08ab5b8fafdc94e3,Spanish,13 or older,"no, only English or Spanish",no,2025-07-24_11h02.49.844,empathy_intonation_perc_control,2024.2.4,MacIntel,126.5822785,66b2385b08ab5b8fafdc94e3,68817205a84113384fffdfe3,68824af6caa1af43b98f4836,,,,,,,,,,,,./stim/wavs/cuban_match_declarative-broad-focus_Daniel-iba-a-Bolivia.wav,0,,,154.06,156.562,0,1,1.993,,0,53,53,51,1,52,0,cuban,,,,,,,,,,,,,,,,,,,,,,,,,,,,,,,,,,,,,,,,,,,,,,,,,,,,,,,,
,,,,,,,,,66b2385b08ab5b8fafdc94e3,Spanish,13 or older,"no, only English or Spanish",no,2025-07-24_11h02.49.844,empathy_intonation_perc_control,2024.2.4,MacIntel,126.5822785,66b2385b08ab5b8fafdc94e3,68817205a84113384fffdfe3,68824af6caa1af43b98f4836,,,,,,,,,,,,./stim/wavs/mexican_match_interrogative-total-yn_Ana-lleva-el-abrigo.wav,1,,,156.564,159.059,1,1,1.981,,0,54,54,12,1,13,0,mexican,,,,,,,,,,,,,,,,,,,,,,,,,,,,,,,,,,,,,,,,,,,,,,,,,,,,,,,,
,,,,,,,,,66b2385b08ab5b8fafdc94e3,Spanish,13 or older,"no, only English or Spanish",no,2025-07-24_11h02.49.844,empathy_intonation_perc_control,2024.2.4,MacIntel,126.5822785,66b2385b08ab5b8fafdc94e3,68817205a84113384fffdfe3,68824af6caa1af43b98f4836,,,,,,,,,,,,./stim/wavs/cuban_match_interrogative-total-yn_Mariano-habla-del-tiempo.wav,1,,,159.059,161.594,0,0,2.02,,0,55,55,10,1,11,1,cuban,,,,,,,,,,,,,,,,,,,,,,,,,,,,,,,,,,,,,,,,,,,,,,,,,,,,,,,,
,,,,,,,,,66b2385b08ab5b8fafdc94e3,Spanish,13 or older,"no, only English or Spanish",no,2025-07-24_11h02.49.844,empathy_intonation_perc_control,2024.2.4,MacIntel,126.5822785,66b2385b08ab5b8fafdc94e3,68817205a84113384fffdfe3,68824af6caa1af43b98f4836,,,,,,,,,,,,./stim/wavs/castilian_mismatch_declarative-broad-focus_La-maestra-vive-en-Paris.wav,0,,,161.594,164.167,0,1,2.057,,0,56,56,69,1,70,0,castilian,,,,,,,,,,,,,,,,,,,,,,,,,,,,,,,,,,,,,,,,,,,,,,,,,,,,,,,,
,,,,,,,,,66b2385b08ab5b8fafdc94e3,Spanish,13 or older,"no, only English or Spanish",no,2025-07-24_11h02.49.844,empathy_intonation_perc_control,2024.2.4,MacIntel,126.5822785,66b2385b08ab5b8fafdc94e3,68817205a84113384fffdfe3,68824af6caa1af43b98f4836,,,,,,,,,,,,./stim/wavs/cuban_mismatch_interrogative-total-yn_Mi-novio-viene-del-lago.wav,1,,,164.168,166.55,0,0,1.868,,0,57,57,32,1,33,1,cuban,,,,,,,,,,,,,,,,,,,,,,,,,,,,,,,,,,,,,,,,,,,,,,,,,,,,,,,,
,,,,,,,,,66b2385b08ab5b8fafdc94e3,Spanish,13 or older,"no, only English or Spanish",no,2025-07-24_11h02.49.844,empathy_intonation_perc_control,2024.2.4,MacIntel,126.5822785,66b2385b08ab5b8fafdc94e3,68817205a84113384fffdfe3,68824af6caa1af43b98f4836,,,,,,,,,,,,./stim/wavs/cuban_match_interrogative-total-yn_Ana-lleva-el-abrigo.wav,1,,,166.551,168.68,0,0,1.622,,0,58,58,6,1,7,1,cuban,,,,,,,,,,,,,,,,,,,,,,,,,,,,,,,,,,,,,,,,,,,,,,,,,,,,,,,,
,,,,,,,,,66b2385b08ab5b8fafdc94e3,Spanish,13 or older,"no, only English or Spanish",no,2025-07-24_11h02.49.844,empathy_intonation_perc_control,2024.2.4,MacIntel,126.5822785,66b2385b08ab5b8fafdc94e3,68817205a84113384fffdfe3,68824af6caa1af43b98f4836,,,,,,,,,,,,./stim/wavs/puertorican_mismatch_declarative-broad-focus_El-hombre-mira-la-luna.wav,0,,,168.68,171.396,0,1,2.209,,0,59,59,84,1,85,0,puertorican,,,,,,,,,,,,,,,,,,,,,,,,,,,,,,,,,,,,,,,,,,,,,,,,,,,,,,,,
,,,,,,,,,66b2385b08ab5b8fafdc94e3,Spanish,13 or older,"no, only English or Spanish",no,2025-07-24_11h02.49.844,empathy_intonation_perc_control,2024.2.4,MacIntel,126.5822785,66b2385b08ab5b8fafdc94e3,68817205a84113384fffdfe3,68824af6caa1af43b98f4836,,,,,,,,,,,,./stim/wavs/cuban_match_interrogative-total-yn_Marta-abre-el-regalo.wav,1,,,171.397,173.446,0,0,1.534,,0,60,60,11,1,12,1,cuban,,,,,,,,,,,,,,,,,,,,,,,,,,,,,,,,,,,,,,,,,,,,,,,,,,,,,,,,
,,,,,,,,,66b2385b08ab5b8fafdc94e3,Spanish,13 or older,"no, only English or Spanish",no,2025-07-24_11h02.49.844,empathy_intonation_perc_control,2024.2.4,MacIntel,126.5822785,66b2385b08ab5b8fafdc94e3,68817205a84113384fffdfe3,68824af6caa1af43b98f4836,,,,,,,,,,,,./stim/wavs/castilian_mismatch_declarative-broad-focus_La-nina-lava-el-plato.wav,0,,,173.446,176.972,0,1,3.013,,0,61,61,70,1,71,0,castilian,,,,,,,,,,,,,,,,,,,,,,,,,,,,,,,,,,,,,,,,,,,,,,,,,,,,,,,,
,,,,,,,,,66b2385b08ab5b8fafdc94e3,Spanish,13 or older,"no, only English or Spanish",no,2025-07-24_11h02.49.844,empathy_intonation_perc_control,2024.2.4,MacIntel,126.5822785,66b2385b08ab5b8fafdc94e3,68817205a84113384fffdfe3,68824af6caa1af43b98f4836,,,,,,,,,,,,./stim/wavs/mexican_match_interrogative-total-yn_Emilio-ama-la-marcha.wav,1,,,176.973,179.127,1,1,1.648,,0,62,62,15,1,16,0,mexican,,,,,,,,,,,,,,,,,,,,,,,,,,,,,,,,,,,,,,,,,,,,,,,,,,,,,,,,
,,,,,,,,,66b2385b08ab5b8fafdc94e3,Spanish,13 or older,"no, only English or Spanish",no,2025-07-24_11h02.49.844,empathy_intonation_perc_control,2024.2.4,MacIntel,126.5822785,66b2385b08ab5b8fafdc94e3,68817205a84113384fffdfe3,68824af6caa1af43b98f4836,,,,,,,,,,,,./stim/wavs/puertorican_mismatch_interrogative-total-yn_La-maestra-vive-en-Paris.wav,1,,,179.127,181.449,0,0,1.809,,0,63,63,41,1,42,1,puertorican,,,,,,,,,,,,,,,,,,,,,,,,,,,,,,,,,,,,,,,,,,,,,,,,,,,,,,,,
,,,,,,,,,66b2385b08ab5b8fafdc94e3,Spanish,13 or older,"no, only English or Spanish",no,2025-07-24_11h02.49.844,empathy_intonation_perc_control,2024.2.4,MacIntel,126.5822785,66b2385b08ab5b8fafdc94e3,68817205a84113384fffdfe3,68824af6caa1af43b98f4836,,,,,,,,,,,,./stim/wavs/cuban_match_declarative-broad-focus_Mariano-habla-del-tiempo.wav,0,,,181.449,183.68,0,1,1.717,,0,64,64,54,1,55,0,cuban,,,,,,,,,,,,,,,,,,,,,,,,,,,,,,,,,,,,,,,,,,,,,,,,,,,,,,,,
,,,,,,,,,66b2385b08ab5b8fafdc94e3,Spanish,13 or older,"no, only English or Spanish",no,2025-07-24_11h02.49.844,empathy_intonation_perc_control,2024.2.4,MacIntel,126.5822785,66b2385b08ab5b8fafdc94e3,68817205a84113384fffdfe3,68824af6caa1af43b98f4836,,,,,,,,,,,,./stim/wavs/puertorican_mismatch_declarative-broad-focus_La-nina-lava-el-plato.wav,0,,,183.681,185.555,0,1,1.367,,0,65,65,87,1,88,0,puertorican,,,,,,,,,,,,,,,,,,,,,,,,,,,,,,,,,,,,,,,,,,,,,,,,,,,,,,,,
,,,,,,,,,66b2385b08ab5b8fafdc94e3,Spanish,13 or older,"no, only English or Spanish",no,2025-07-24_11h02.49.844,empathy_intonation_perc_control,2024.2.4,MacIntel,126.5822785,66b2385b08ab5b8fafdc94e3,68817205a84113384fffdfe3,68824af6caa1af43b98f4836,,,,,,,,,,,,./stim/wavs/puertorican_match_interrogative-total-yn_Emilio-ama-la-marcha.wav,1,,,185.555,187.855,0,0,1.794,,0,66,66,21,1,22,1,puertorican,,,,,,,,,,,,,,,,,,,,,,,,,,,,,,,,,,,,,,,,,,,,,,,,,,,,,,,,
,,,,,,,,,66b2385b08ab5b8fafdc94e3,Spanish,13 or older,"no, only English or Spanish",no,2025-07-24_11h02.49.844,empathy_intonation_perc_control,2024.2.4,MacIntel,126.5822785,66b2385b08ab5b8fafdc94e3,68817205a84113384fffdfe3,68824af6caa1af43b98f4836,,,,,,,,,,,,./stim/wavs/puertorican_match_declarative-broad-focus_David-leia-el-libro.wav,0,,,187.858,189.771,0,1,1.401,,0,67,67,64,1,65,0,puertorican,,,,,,,,,,,,,,,,,,,,,,,,,,,,,,,,,,,,,,,,,,,,,,,,,,,,,,,,
,,,,,,,,,66b2385b08ab5b8fafdc94e3,Spanish,13 or older,"no, only English or Spanish",no,2025-07-24_11h02.49.844,empathy_intonation_perc_control,2024.2.4,MacIntel,126.5822785,66b2385b08ab5b8fafdc94e3,68817205a84113384fffdfe3,68824af6caa1af43b98f4836,,,,,,,,,,,,./stim/wavs/cuban_match_declarative-broad-focus_Marta-abre-el-regalo.wav,0,,,189.772,192.029,0,1,1.739,,0,68,68,55,1,56,0,cuban,,,,,,,,,,,,,,,,,,,,,,,,,,,,,,,,,,,,,,,,,,,,,,,,,,,,,,,,
,,,,,,,,,66b2385b08ab5b8fafdc94e3,Spanish,13 or older,"no, only English or Spanish",no,2025-07-24_11h02.49.844,empathy_intonation_perc_control,2024.2.4,MacIntel,126.5822785,66b2385b08ab5b8fafdc94e3,68817205a84113384fffdfe3,68824af6caa1af43b98f4836,,,,,,,,,,,,./stim/wavs/cuban_mismatch_declarative-broad-focus_Mi-novio-viene-del-lago.wav,0,,,192.03,196.338,0,1,3.79,,0,69,69,76,1,77,0,cuban,,,,,,,,,,,,,,,,,,,,,,,,,,,,,,,,,,,,,,,,,,,,,,,,,,,,,,,,
,,,,,,,,,66b2385b08ab5b8fafdc94e3,Spanish,13 or older,"no, only English or Spanish",no,2025-07-24_11h02.49.844,empathy_intonation_perc_control,2024.2.4,MacIntel,126.5822785,66b2385b08ab5b8fafdc94e3,68817205a84113384fffdfe3,68824af6caa1af43b98f4836,,,,,,,,,,,,./stim/wavs/mexican_mismatch_interrogative-total-yn_Mi-tia-odia-la-lluvia.wav,1,,,196.34,198.98,1,1,2.128,,0,70,70,38,1,39,0,mexican,,,,,,,,,,,,,,,,,,,,,,,,,,,,,,,,,,,,,,,,,,,,,,,,,,,,,,,,
,,,,,,,,,66b2385b08ab5b8fafdc94e3,Spanish,13 or older,"no, only English or Spanish",no,2025-07-24_11h02.49.844,empathy_intonation_perc_control,2024.2.4,MacIntel,126.5822785,66b2385b08ab5b8fafdc94e3,68817205a84113384fffdfe3,68824af6caa1af43b98f4836,,,,,,,,,,,,./stim/wavs/cuban_match_interrogative-total-yn_Daniel-iba-a-Bolivia.wav,1,,,198.981,201.912,0,0,2.418,,0,71,71,7,1,8,1,cuban,,,,,,,,,,,,,,,,,,,,,,,,,,,,,,,,,,,,,,,,,,,,,,,,,,,,,,,,
,,,,,,,,,66b2385b08ab5b8fafdc94e3,Spanish,13 or older,"no, only English or Spanish",no,2025-07-24_11h02.49.844,empathy_intonation_perc_control,2024.2.4,MacIntel,126.5822785,66b2385b08ab5b8fafdc94e3,68817205a84113384fffdfe3,68824af6caa1af43b98f4836,,,,,,,,,,,,./stim/wavs/mexican_match_interrogative-total-yn_Daniel-iba-a-Bolivia.wav,1,,,201.914,204.021,0,0,1.604,,0,72,72,13,1,14,0,mexican,,,,,,,,,,,,,,,,,,,,,,,,,,,,,,,,,,,,,,,,,,,,,,,,,,,,,,,,
,,,,,,,,,66b2385b08ab5b8fafdc94e3,Spanish,13 or older,"no, only English or Spanish",no,2025-07-24_11h02.49.844,empathy_intonation_perc_control,2024.2.4,MacIntel,126.5822785,66b2385b08ab5b8fafdc94e3,68817205a84113384fffdfe3,68824af6caa1af43b98f4836,,,,,,,,,,,,./stim/wavs/castilian_mismatch_declarative-broad-focus_Mi-tia-odia-la-lluvia.wav,0,,,204.022,206.28,0,1,1.748,,0,73,73,72,1,73,0,castilian,,,,,,,,,,,,,,,,,,,,,,,,,,,,,,,,,,,,,,,,,,,,,,,,,,,,,,,,
,,,,,,,,,66b2385b08ab5b8fafdc94e3,Spanish,13 or older,"no, only English or Spanish",no,2025-07-24_11h02.49.844,empathy_intonation_perc_control,2024.2.4,MacIntel,126.5822785,66b2385b08ab5b8fafdc94e3,68817205a84113384fffdfe3,68824af6caa1af43b98f4836,,,,,,,,,,,,./stim/wavs/puertorican_match_interrogative-total-yn_Ana-lleva-el-abrigo.wav,1,,,206.28,208.384,0,0,1.594,,0,74,74,18,1,19,1,puertorican,,,,,,,,,,,,,,,,,,,,,,,,,,,,,,,,,,,,,,,,,,,,,,,,,,,,,,,,
,,,,,,,,,66b2385b08ab5b8fafdc94e3,Spanish,13 or older,"no, only English or Spanish",no,2025-07-24_11h02.49.844,empathy_intonation_perc_control,2024.2.4,MacIntel,126.5822785,66b2385b08ab5b8fafdc94e3,68817205a84113384fffdfe3,68824af6caa1af43b98f4836,,,,,,,,,,,,./stim/wavs/mexican_mismatch_declarative-broad-focus_El-hombre-mira-la-luna.wav,0,,,208.385,210.326,0,1,1.43,,0,75,75,79,1,80,0,mexican,,,,,,,,,,,,,,,,,,,,,,,,,,,,,,,,,,,,,,,,,,,,,,,,,,,,,,,,
,,,,,,,,,66b2385b08ab5b8fafdc94e3,Spanish,13 or older,"no, only English or Spanish",no,2025-07-24_11h02.49.844,empathy_intonation_perc_control,2024.2.4,MacIntel,126.5822785,66b2385b08ab5b8fafdc94e3,68817205a84113384fffdfe3,68824af6caa1af43b98f4836,,,,,,,,,,,,./stim/wavs/puertorican_mismatch_declarative-broad-focus_El-bebe-comia-muy-bien.wav,0,,,210.326,211.956,0,1,1.123,,0,76,76,83,1,84,0,puertorican,,,,,,,,,,,,,,,,,,,,,,,,,,,,,,,,,,,,,,,,,,,,,,,,,,,,,,,,
,,,,,,,,,66b2385b08ab5b8fafdc94e3,Spanish,13 or older,"no, only English or Spanish",no,2025-07-24_11h02.49.844,empathy_intonation_perc_control,2024.2.4,MacIntel,126.5822785,66b2385b08ab5b8fafdc94e3,68817205a84113384fffdfe3,68824af6caa1af43b98f4836,,,,,,,,,,,,./stim/wavs/castilian_mismatch_declarative-broad-focus_El-nino-oye-el-rio.wav,0,,,211.956,214.263,0,1,1.796,,0,77,77,68,1,69,0,castilian,,,,,,,,,,,,,,,,,,,,,,,,,,,,,,,,,,,,,,,,,,,,,,,,,,,,,,,,
,,,,,,,,,66b2385b08ab5b8fafdc94e3,Spanish,13 or older,"no, only English or Spanish",no,2025-07-24_11h02.49.844,empathy_intonation_perc_control,2024.2.4,MacIntel,126.5822785,66b2385b08ab5b8fafdc94e3,68817205a84113384fffdfe3,68824af6caa1af43b98f4836,,,,,,,,,,,,./stim/wavs/cuban_mismatch_interrogative-total-yn_El-hombre-mira-la-luna.wav,1,,,214.263,216.138,0,0,1.366,,0,78,78,29,1,30,1,cuban,,,,,,,,,,,,,,,,,,,,,,,,,,,,,,,,,,,,,,,,,,,,,,,,,,,,,,,,
,,,,,,,,,66b2385b08ab5b8fafdc94e3,Spanish,13 or older,"no, only English or Spanish",no,2025-07-24_11h02.49.844,empathy_intonation_perc_control,2024.2.4,MacIntel,126.5822785,66b2385b08ab5b8fafdc94e3,68817205a84113384fffdfe3,68824af6caa1af43b98f4836,,,,,,,,,,,,./stim/wavs/cuban_match_declarative-broad-focus_Ana-lleva-el-abrigo.wav,0,,,216.139,218.263,0,1,1.608,,0,79,79,50,1,51,0,cuban,,,,,,,,,,,,,,,,,,,,,,,,,,,,,,,,,,,,,,,,,,,,,,,,,,,,,,,,
,,,,,,,,,66b2385b08ab5b8fafdc94e3,Spanish,13 or older,"no, only English or Spanish",no,2025-07-24_11h02.49.844,empathy_intonation_perc_control,2024.2.4,MacIntel,126.5822785,66b2385b08ab5b8fafdc94e3,68817205a84113384fffdfe3,68824af6caa1af43b98f4836,,,,,,,,,,,,./stim/wavs/castilian_match_declarative-broad-focus_Mariano-habla-del-tiempo.wav,0,,,218.263,220.713,0,1,1.936,,0,80,80,48,1,49,0,castilian,,,,,,,,,,,,,,,,,,,,,,,,,,,,,,,,,,,,,,,,,,,,,,,,,,,,,,,,
,,,,,,,,,66b2385b08ab5b8fafdc94e3,Spanish,13 or older,"no, only English or Spanish",no,2025-07-24_11h02.49.844,empathy_intonation_perc_control,2024.2.4,MacIntel,126.5822785,66b2385b08ab5b8fafdc94e3,68817205a84113384fffdfe3,68824af6caa1af43b98f4836,,,,,,,,,,,,./stim/wavs/cuban_match_interrogative-total-yn_Manuela-vende-el-carro.wav,1,,,220.713,222.877,0,0,1.65,,0,81,81,8,1,9,1,cuban,,,,,,,,,,,,,,,,,,,,,,,,,,,,,,,,,,,,,,,,,,,,,,,,,,,,,,,,
,,,,,,,,,66b2385b08ab5b8fafdc94e3,Spanish,13 or older,"no, only English or Spanish",no,2025-07-24_11h02.49.844,empathy_intonation_perc_control,2024.2.4,MacIntel,126.5822785,66b2385b08ab5b8fafdc94e3,68817205a84113384fffdfe3,68824af6caa1af43b98f4836,,,,,,,,,,,,./stim/wavs/cuban_mismatch_interrogative-total-yn_Mi-tia-odia-la-lluvia.wav,1,,,222.879,225.059,0,0,1.664,,0,82,82,33,1,34,1,cuban,,,,,,,,,,,,,,,,,,,,,,,,,,,,,,,,,,,,,,,,,,,,,,,,,,,,,,,,
,,,,,,,,,66b2385b08ab5b8fafdc94e3,Spanish,13 or older,"no, only English or Spanish",no,2025-07-24_11h02.49.844,empathy_intonation_perc_control,2024.2.4,MacIntel,126.5822785,66b2385b08ab5b8fafdc94e3,68817205a84113384fffdfe3,68824af6caa1af43b98f4836,,,,,,,,,,,,./stim/wavs/castilian_match_declarative-broad-focus_Emilio-ama-la-marcha.wav,0,,,225.06,227.35,0,1,1.772,,0,83,83,45,1,46,0,castilian,,,,,,,,,,,,,,,,,,,,,,,,,,,,,,,,,,,,,,,,,,,,,,,,,,,,,,,,
,,,,,,,,,66b2385b08ab5b8fafdc94e3,Spanish,13 or older,"no, only English or Spanish",no,2025-07-24_11h02.49.844,empathy_intonation_perc_control,2024.2.4,MacIntel,126.5822785,66b2385b08ab5b8fafdc94e3,68817205a84113384fffdfe3,68824af6caa1af43b98f4836,,,,,,,,,,,,./stim/wavs/cuban_mismatch_interrogative-total-yn_El-nino-oye-el-rio.wav,1,,,227.35,229.142,0,0,1.28,,0,84,84,30,1,31,1,cuban,,,,,,,,,,,,,,,,,,,,,,,,,,,,,,,,,,,,,,,,,,,,,,,,,,,,,,,,
,,,,,,,,,66b2385b08ab5b8fafdc94e3,Spanish,13 or older,"no, only English or Spanish",no,2025-07-24_11h02.49.844,empathy_intonation_perc_control,2024.2.4,MacIntel,126.5822785,66b2385b08ab5b8fafdc94e3,68817205a84113384fffdfe3,68824af6caa1af43b98f4836,,,,,,,,,,,,./stim/wavs/mexican_match_interrogative-total-yn_Marta-abre-el-regalo.wav,1,,,229.143,230.969,1,1,1.318,,0,85,85,17,1,18,0,mexican,,,,,,,,,,,,,,,,,,,,,,,,,,,,,,,,,,,,,,,,,,,,,,,,,,,,,,,,
,,,,,,,,,66b2385b08ab5b8fafdc94e3,Spanish,13 or older,"no, only English or Spanish",no,2025-07-24_11h02.49.844,empathy_intonation_perc_control,2024.2.4,MacIntel,126.5822785,66b2385b08ab5b8fafdc94e3,68817205a84113384fffdfe3,68824af6caa1af43b98f4836,,,,,,,,,,,,./stim/wavs/puertorican_mismatch_interrogative-total-yn_La-nina-lava-el-plato.wav,1,,,230.97,233.762,0,0,2.281,,0,86,86,42,1,43,1,puertorican,,,,,,,,,,,,,,,,,,,,,,,,,,,,,,,,,,,,,,,,,,,,,,,,,,,,,,,,
,,,,,,,,,66b2385b08ab5b8fafdc94e3,Spanish,13 or older,"no, only English or Spanish",no,2025-07-24_11h02.49.844,empathy_intonation_perc_control,2024.2.4,MacIntel,126.5822785,66b2385b08ab5b8fafdc94e3,68817205a84113384fffdfe3,68824af6caa1af43b98f4836,,,,,,,,,,,,./stim/wavs/castilian_match_interrogative-total-yn_Manuela-vende-el-carro.wav,1,,,233.762,236.058,1,1,1.787,,0,87,87,2,1,3,0,castilian,,,,,,,,,,,,,,,,,,,,,,,,,,,,,,,,,,,,,,,,,,,,,,,,,,,,,,,,
,,,,,,,"Great! Now we will move on. The next task consists of about 60 trials, in each of which you will see a string of letters. 
  
  Your task is to decide whether this is a real Spanish word or not.", (press the spacebar to continue),66b2385b08ab5b8fafdc94e3,Spanish,13 or older,"no, only English or Spanish",no,2025-07-24_11h02.49.844,empathy_intonation_perc_control,2024.2.4,MacIntel,126.5822785,66b2385b08ab5b8fafdc94e3,68817205a84113384fffdfe3,68824af6caa1af43b98f4836,,,,,,,,,,,,,,,,,,,,,,,,,,,,,,236.067,239.213,0,0,0,0,1,,,,,,,,,,,,,,,,,,,,,,,,,,,,,,,,,,,,,,,,,,,,,,,,,
,,,,,,,"If you think it is an existing Spanish word, you type '1' (for 'REAL'), and if you think it is not an existing Spanish word, you type '0' (for 'FAKE').", (press the spacebar to continue),66b2385b08ab5b8fafdc94e3,Spanish,13 or older,"no, only English or Spanish",no,2025-07-24_11h02.49.844,empathy_intonation_perc_control,2024.2.4,MacIntel,126.5822785,66b2385b08ab5b8fafdc94e3,68817205a84113384fffdfe3,68824af6caa1af43b98f4836,,,,,,,,,,,,,,,,,,,,,,,,,,,,,,239.215,240.858,0,1,1,1,1,,,,,,,,,,,,,,,,,,,,,,,,,,,,,,,,,,,,,,,,,,,,,,,,,
,,,,,,,"If you are sure that the word exists, even though you don’t know its exact meaning, you may still respond '1' (REAL). 
  
  But if you are not sure if it is an existing word, you should respond '0' (FAKE).
  
  Let's do a practice round...", (press the spacebar to continue),66b2385b08ab5b8fafdc94e3,Spanish,13 or older,"no, only English or Spanish",no,2025-07-24_11h02.49.844,empathy_intonation_perc_control,2024.2.4,MacIntel,126.5822785,66b2385b08ab5b8fafdc94e3,68817205a84113384fffdfe3,68824af6caa1af43b98f4836,,,,,,,,,,,,,,,,,,,,,,,,,,,,,,240.86,247.25,0,2,2,2,1,,,,,,,,,,,,,,,,,,,,,,,,,,,,,,,,,,,,,,,,,,,,,,,,,
,,,,,,,,,66b2385b08ab5b8fafdc94e3,Spanish,13 or older,"no, only English or Spanish",no,2025-07-24_11h02.49.844,empathy_intonation_perc_control,2024.2.4,MacIntel,126.5822785,66b2385b08ab5b8fafdc94e3,68817205a84113384fffdfe3,68824af6caa1af43b98f4836,,,,,,,,,,,,,0,,,,,,,,,,,,,,,,,,,,,,,,247.257,249.505,0,1,1.729,,249.505,250.501,0,0,0,0,1,0,depiste,REAL,FAKE,,,,,,,,,,,,,,,,,,,,,,,,,,,,,,,,
,,,,,,,,,66b2385b08ab5b8fafdc94e3,Spanish,13 or older,"no, only English or Spanish",no,2025-07-24_11h02.49.844,empathy_intonation_perc_control,2024.2.4,MacIntel,126.5822785,66b2385b08ab5b8fafdc94e3,68817205a84113384fffdfe3,68824af6caa1af43b98f4836,,,,,,,,,,,,,1,,,,,,,,,,,,,,,,,,,,,,,,250.503,252.385,1,1,1.359,,252.385,253.38,0,1,1,1,1,0,sí,REAL,FAKE,,,,,,,,,,,,,,,,,,,,,,,,,,,,,,,,
,,,,,,,,,66b2385b08ab5b8fafdc94e3,Spanish,13 or older,"no, only English or Spanish",no,2025-07-24_11h02.49.844,empathy_intonation_perc_control,2024.2.4,MacIntel,126.5822785,66b2385b08ab5b8fafdc94e3,68817205a84113384fffdfe3,68824af6caa1af43b98f4836,,,,,,,,,,,,,0,,,,,,,,,,,,,,,,,,,,,,,,253.381,255.519,0,1,1.616,,255.519,256.517,0,2,2,2,1,0,coné,REAL,FAKE,,,,,,,,,,,,,,,,,,,,,,,,,,,,,,,,
,,,,,,,,,66b2385b08ab5b8fafdc94e3,Spanish,13 or older,"no, only English or Spanish",no,2025-07-24_11h02.49.844,empathy_intonation_perc_control,2024.2.4,MacIntel,126.5822785,66b2385b08ab5b8fafdc94e3,68817205a84113384fffdfe3,68824af6caa1af43b98f4836,,,,,,,,,,,,,0,,,,,,,,,,,,,,,,,,,,,,,,256.523,258.059,1,0,1.018,,258.06,259.06,0,3,3,3,1,0,calpar,REAL,FAKE,,,,,,,,,,,,,,,,,,,,,,,,,,,,,,,,
,,,,,,,,,66b2385b08ab5b8fafdc94e3,Spanish,13 or older,"no, only English or Spanish",no,2025-07-24_11h02.49.844,empathy_intonation_perc_control,2024.2.4,MacIntel,126.5822785,66b2385b08ab5b8fafdc94e3,68817205a84113384fffdfe3,68824af6caa1af43b98f4836,,,,,,,,,,,,,0,,,,,,,,,,,,,,,,,,,,,,,,259.062,260.671,0,1,1.089,,260.672,261.671,0,4,4,4,1,0,joten,REAL,FAKE,,,,,,,,,,,,,,,,,,,,,,,,,,,,,,,,
,,,,,,,,,66b2385b08ab5b8fafdc94e3,Spanish,13 or older,"no, only English or Spanish",no,2025-07-24_11h02.49.844,empathy_intonation_perc_control,2024.2.4,MacIntel,126.5822785,66b2385b08ab5b8fafdc94e3,68817205a84113384fffdfe3,68824af6caa1af43b98f4836,,,,,,,,,,,,,1,,,,,,,,,,,,,,,,,,,,,,,,261.674,263.209,0,0,1.014,,263.209,264.208,0,5,5,5,1,0,sacapuntas,REAL,FAKE,,,,,,,,,,,,,,,,,,,,,,,,,,,,,,,,
,,,,,,,,,66b2385b08ab5b8fafdc94e3,Spanish,13 or older,"no, only English or Spanish",no,2025-07-24_11h02.49.844,empathy_intonation_perc_control,2024.2.4,MacIntel,126.5822785,66b2385b08ab5b8fafdc94e3,68817205a84113384fffdfe3,68824af6caa1af43b98f4836,,,,,,,,,,,,,0,,,,,,,,,,,,,,,,,,,,,,,,264.209,265.868,0,1,1.138,,265.869,266.867,0,6,6,6,1,0,priba,REAL,FAKE,,,,,,,,,,,,,,,,,,,,,,,,,,,,,,,,
,,,,,,,,,66b2385b08ab5b8fafdc94e3,Spanish,13 or older,"no, only English or Spanish",no,2025-07-24_11h02.49.844,empathy_intonation_perc_control,2024.2.4,MacIntel,126.5822785,66b2385b08ab5b8fafdc94e3,68817205a84113384fffdfe3,68824af6caa1af43b98f4836,,,,,,,,,,,,,0,,,,,,,,,,,,,,,,,,,,,,,,266.868,269.61,1,0,2.22,,269.61,270.609,0,7,7,7,1,0,pelasula,REAL,FAKE,,,,,,,,,,,,,,,,,,,,,,,,,,,,,,,,
,,,,,,,,,66b2385b08ab5b8fafdc94e3,Spanish,13 or older,"no, only English or Spanish",no,2025-07-24_11h02.49.844,empathy_intonation_perc_control,2024.2.4,MacIntel,126.5822785,66b2385b08ab5b8fafdc94e3,68817205a84113384fffdfe3,68824af6caa1af43b98f4836,,,,,,,,,,,,,1,,,,,,,,,,,,,,,,,,,,,,,,270.611,271.675,1,1,0.544,,271.677,272.676,0,8,8,8,1,0,bien,REAL,FAKE,,,,,,,,,,,,,,,,,,,,,,,,,,,,,,,,
,,,,,,,,,66b2385b08ab5b8fafdc94e3,Spanish,13 or older,"no, only English or Spanish",no,2025-07-24_11h02.49.844,empathy_intonation_perc_control,2024.2.4,MacIntel,126.5822785,66b2385b08ab5b8fafdc94e3,68817205a84113384fffdfe3,68824af6caa1af43b98f4836,,,,,,,,,,,,,1,,,,,,,,,,,,,,,,,,,,,,,,272.678,273.917,1,1,0.72,,273.917,274.917,0,9,9,9,1,0,casa,REAL,FAKE,,,,,,,,,,,,,,,,,,,,,,,,,,,,,,,,
,,,,,,,,,66b2385b08ab5b8fafdc94e3,Spanish,13 or older,"no, only English or Spanish",no,2025-07-24_11h02.49.844,empathy_intonation_perc_control,2024.2.4,MacIntel,126.5822785,66b2385b08ab5b8fafdc94e3,68817205a84113384fffdfe3,68824af6caa1af43b98f4836,,,,,,,,,,,,,0,,,,,,,,,,,,,,,,,,,,,,,,274.919,276.379,0,1,0.939,,276.379,277.379,0,10,10,10,1,0,lejo,REAL,FAKE,,,,,,,,,,,,,,,,,,,,,,,,,,,,,,,,
,,,,,,,,,66b2385b08ab5b8fafdc94e3,Spanish,13 or older,"no, only English or Spanish",no,2025-07-24_11h02.49.844,empathy_intonation_perc_control,2024.2.4,MacIntel,126.5822785,66b2385b08ab5b8fafdc94e3,68817205a84113384fffdfe3,68824af6caa1af43b98f4836,,,,,,,,,,,,,0,,,,,,,,,,,,,,,,,,,,,,,,277.38,278.821,1,0,0.924,,278.821,279.823,0,11,11,11,1,0,pretantas,REAL,FAKE,,,,,,,,,,,,,,,,,,,,,,,,,,,,,,,,
,,,,,,,,,66b2385b08ab5b8fafdc94e3,Spanish,13 or older,"no, only English or Spanish",no,2025-07-24_11h02.49.844,empathy_intonation_perc_control,2024.2.4,MacIntel,126.5822785,66b2385b08ab5b8fafdc94e3,68817205a84113384fffdfe3,68824af6caa1af43b98f4836,,,,,,,,,,,,,,,,,,,,,,,,,,,,,,,,,,,,,,,,,,,,,,,,,,,,,,279.823,281.171,,,,,,,,,,,,,,,,,,,,,,,,,,,,,,
,,,,,,,,,66b2385b08ab5b8fafdc94e3,Spanish,13 or older,"no, only English or Spanish",no,2025-07-24_11h02.49.844,empathy_intonation_perc_control,2024.2.4,MacIntel,126.5822785,66b2385b08ab5b8fafdc94e3,68817205a84113384fffdfe3,68824af6caa1af43b98f4836,,,,,,,,,,,,,0,,,,,,,,,,,,,,,,,,,,,,,,,,,,,,,,,,,,,10,antar,,,,,281.187,282.735,0,1,1.036,,0,0,0,9,1,REAL,FAKE,,,,,,,,,,,,,,,,,
,,,,,,,,,66b2385b08ab5b8fafdc94e3,Spanish,13 or older,"no, only English or Spanish",no,2025-07-24_11h02.49.844,empathy_intonation_perc_control,2024.2.4,MacIntel,126.5822785,66b2385b08ab5b8fafdc94e3,68817205a84113384fffdfe3,68824af6caa1af43b98f4836,,,,,,,,,,,,,1,,,,,,,,,,,,,,,,,,,,,,,,,,,,,,,,,,,,,67,cabello,,,,,282.736,284.185,1,1,0.931,,0,1,1,66,1,REAL,FAKE,,,,,,,,,,,,,,,,,
,,,,,,,,,66b2385b08ab5b8fafdc94e3,Spanish,13 or older,"no, only English or Spanish",no,2025-07-24_11h02.49.844,empathy_intonation_perc_control,2024.2.4,MacIntel,126.5822785,66b2385b08ab5b8fafdc94e3,68817205a84113384fffdfe3,68824af6caa1af43b98f4836,,,,,,,,,,,,,1,,,,,,,,,,,,,,,,,,,,,,,,,,,,,,,,,,,,,22,lacayo,,,,,284.186,285.769,0,0,1.065,,0,2,2,21,1,REAL,FAKE,,,,,,,,,,,,,,,,,
,,,,,,,,,66b2385b08ab5b8fafdc94e3,Spanish,13 or older,"no, only English or Spanish",no,2025-07-24_11h02.49.844,empathy_intonation_perc_control,2024.2.4,MacIntel,126.5822785,66b2385b08ab5b8fafdc94e3,68817205a84113384fffdfe3,68824af6caa1af43b98f4836,,,,,,,,,,,,,1,,,,,,,,,,,,,,,,,,,,,,,,,,,,,,,,,,,,,56,musgo,,,,,285.769,287.826,0,0,1.533,,0,3,3,55,1,REAL,FAKE,,,,,,,,,,,,,,,,,
,,,,,,,,,66b2385b08ab5b8fafdc94e3,Spanish,13 or older,"no, only English or Spanish",no,2025-07-24_11h02.49.844,empathy_intonation_perc_control,2024.2.4,MacIntel,126.5822785,66b2385b08ab5b8fafdc94e3,68817205a84113384fffdfe3,68824af6caa1af43b98f4836,,,,,,,,,,,,,1,,,,,,,,,,,,,,,,,,,,,,,,,,,,,,,,,,,,,65,bizcocho,,,,,287.83,289.067,0,0,0.714,,0,4,4,64,1,REAL,FAKE,,,,,,,,,,,,,,,,,
,,,,,,,,,66b2385b08ab5b8fafdc94e3,Spanish,13 or older,"no, only English or Spanish",no,2025-07-24_11h02.49.844,empathy_intonation_perc_control,2024.2.4,MacIntel,126.5822785,66b2385b08ab5b8fafdc94e3,68817205a84113384fffdfe3,68824af6caa1af43b98f4836,,,,,,,,,,,,,1,,,,,,,,,,,,,,,,,,,,,,,,,,,,,,,,,,,,,77,tiburón,,,,,289.068,290.133,1,1,0.548,,0,5,5,76,1,REAL,FAKE,,,,,,,,,,,,,,,,,
,,,,,,,,,66b2385b08ab5b8fafdc94e3,Spanish,13 or older,"no, only English or Spanish",no,2025-07-24_11h02.49.844,empathy_intonation_perc_control,2024.2.4,MacIntel,126.5822785,66b2385b08ab5b8fafdc94e3,68817205a84113384fffdfe3,68824af6caa1af43b98f4836,,,,,,,,,,,,,1,,,,,,,,,,,,,,,,,,,,,,,,,,,,,,,,,,,,,9,hacha,,,,,290.134,292.217,1,1,1.558,,0,6,6,8,1,REAL,FAKE,,,,,,,,,,,,,,,,,
,,,,,,,,,66b2385b08ab5b8fafdc94e3,Spanish,13 or older,"no, only English or Spanish",no,2025-07-24_11h02.49.844,empathy_intonation_perc_control,2024.2.4,MacIntel,126.5822785,66b2385b08ab5b8fafdc94e3,68817205a84113384fffdfe3,68824af6caa1af43b98f4836,,,,,,,,,,,,,1,,,,,,,,,,,,,,,,,,,,,,,,,,,,,,,,,,,,,3,pulmones,,,,,292.218,294.009,1,1,1.267,,0,7,7,2,1,REAL,FAKE,,,,,,,,,,,,,,,,,
,,,,,,,,,66b2385b08ab5b8fafdc94e3,Spanish,13 or older,"no, only English or Spanish",no,2025-07-24_11h02.49.844,empathy_intonation_perc_control,2024.2.4,MacIntel,126.5822785,66b2385b08ab5b8fafdc94e3,68817205a84113384fffdfe3,68824af6caa1af43b98f4836,,,,,,,,,,,,,1,,,,,,,,,,,,,,,,,,,,,,,,,,,,,,,,,,,,,60,matar,,,,,294.009,295.576,1,1,1.046,,0,8,8,59,1,REAL,FAKE,,,,,,,,,,,,,,,,,
,,,,,,,,,66b2385b08ab5b8fafdc94e3,Spanish,13 or older,"no, only English or Spanish",no,2025-07-24_11h02.49.844,empathy_intonation_perc_control,2024.2.4,MacIntel,126.5822785,66b2385b08ab5b8fafdc94e3,68817205a84113384fffdfe3,68824af6caa1af43b98f4836,,,,,,,,,,,,,1,,,,,,,,,,,,,,,,,,,,,,,,,,,,,,,,,,,,,64,orgulloso,,,,,295.577,297.267,1,1,1.165,,0,9,9,63,1,REAL,FAKE,,,,,,,,,,,,,,,,,
,,,,,,,,,66b2385b08ab5b8fafdc94e3,Spanish,13 or older,"no, only English or Spanish",no,2025-07-24_11h02.49.844,empathy_intonation_perc_control,2024.2.4,MacIntel,126.5822785,66b2385b08ab5b8fafdc94e3,68817205a84113384fffdfe3,68824af6caa1af43b98f4836,,,,,,,,,,,,,1,,,,,,,,,,,,,,,,,,,,,,,,,,,,,,,,,,,,,78,frondoso,,,,,297.268,298.867,1,1,1.074,,0,10,10,77,1,REAL,FAKE,,,,,,,,,,,,,,,,,
,,,,,,,,,66b2385b08ab5b8fafdc94e3,Spanish,13 or older,"no, only English or Spanish",no,2025-07-24_11h02.49.844,empathy_intonation_perc_control,2024.2.4,MacIntel,126.5822785,66b2385b08ab5b8fafdc94e3,68817205a84113384fffdfe3,68824af6caa1af43b98f4836,,,,,,,,,,,,,0,,,,,,,,,,,,,,,,,,,,,,,,,,,,,,,,,,,,,72,pemición,,,,,298.867,300.824,1,0,1.443,,0,11,11,71,1,REAL,FAKE,,,,,,,,,,,,,,,,,
,,,,,,,,,66b2385b08ab5b8fafdc94e3,Spanish,13 or older,"no, only English or Spanish",no,2025-07-24_11h02.49.844,empathy_intonation_perc_control,2024.2.4,MacIntel,126.5822785,66b2385b08ab5b8fafdc94e3,68817205a84113384fffdfe3,68824af6caa1af43b98f4836,,,,,,,,,,,,,0,,,,,,,,,,,,,,,,,,,,,,,,,,,,,,,,,,,,,87,grodo,,,,,300.826,302.171,0,1,0.833,,0,12,12,86,1,REAL,FAKE,,,,,,,,,,,,,,,,,
,,,,,,,,,66b2385b08ab5b8fafdc94e3,Spanish,13 or older,"no, only English or Spanish",no,2025-07-24_11h02.49.844,empathy_intonation_perc_control,2024.2.4,MacIntel,126.5822785,66b2385b08ab5b8fafdc94e3,68817205a84113384fffdfe3,68824af6caa1af43b98f4836,,,,,,,,,,,,,1,,,,,,,,,,,,,,,,,,,,,,,,,,,,,,,,,,,,,46,martillo,,,,,302.172,303.654,1,1,0.972,,0,13,13,45,1,REAL,FAKE,,,,,,,,,,,,,,,,,
,,,,,,,,,66b2385b08ab5b8fafdc94e3,Spanish,13 or older,"no, only English or Spanish",no,2025-07-24_11h02.49.844,empathy_intonation_perc_control,2024.2.4,MacIntel,126.5822785,66b2385b08ab5b8fafdc94e3,68817205a84113384fffdfe3,68824af6caa1af43b98f4836,,,,,,,,,,,,,0,,,,,,,,,,,,,,,,,,,,,,,,,,,,,,,,,,,,,32,fatacidad,,,,,303.655,305.662,0,1,1.487,,0,14,14,31,1,REAL,FAKE,,,,,,,,,,,,,,,,,
,,,,,,,,,66b2385b08ab5b8fafdc94e3,Spanish,13 or older,"no, only English or Spanish",no,2025-07-24_11h02.49.844,empathy_intonation_perc_control,2024.2.4,MacIntel,126.5822785,66b2385b08ab5b8fafdc94e3,68817205a84113384fffdfe3,68824af6caa1af43b98f4836,,,,,,,,,,,,,1,,,,,,,,,,,,,,,,,,,,,,,,,,,,,,,,,,,,,57,tacaño,,,,,305.662,307.379,1,1,1.201,,0,15,15,56,1,REAL,FAKE,,,,,,,,,,,,,,,,,
,,,,,,,,,66b2385b08ab5b8fafdc94e3,Spanish,13 or older,"no, only English or Spanish",no,2025-07-24_11h02.49.844,empathy_intonation_perc_control,2024.2.4,MacIntel,126.5822785,66b2385b08ab5b8fafdc94e3,68817205a84113384fffdfe3,68824af6caa1af43b98f4836,,,,,,,,,,,,,0,,,,,,,,,,,,,,,,,,,,,,,,,,,,,,,,,,,,,33,pauca,,,,,307.38,309.345,0,1,1.444,,0,16,16,32,1,REAL,FAKE,,,,,,,,,,,,,,,,,
,,,,,,,,,66b2385b08ab5b8fafdc94e3,Spanish,13 or older,"no, only English or Spanish",no,2025-07-24_11h02.49.844,empathy_intonation_perc_control,2024.2.4,MacIntel,126.5822785,66b2385b08ab5b8fafdc94e3,68817205a84113384fffdfe3,68824af6caa1af43b98f4836,,,,,,,,,,,,,1,,,,,,,,,,,,,,,,,,,,,,,,,,,,,,,,,,,,,34,aviso,,,,,309.346,310.752,0,0,0.89,,0,17,17,33,1,REAL,FAKE,,,,,,,,,,,,,,,,,
,,,,,,,,,66b2385b08ab5b8fafdc94e3,Spanish,13 or older,"no, only English or Spanish",no,2025-07-24_11h02.49.844,empathy_intonation_perc_control,2024.2.4,MacIntel,126.5822785,66b2385b08ab5b8fafdc94e3,68817205a84113384fffdfe3,68824af6caa1af43b98f4836,,,,,,,,,,,,,0,,,,,,,,,,,,,,,,,,,,,,,,,,,,,,,,,,,,,16,abracer,,,,,310.752,312.317,1,0,1.042,,0,18,18,15,1,REAL,FAKE,,,,,,,,,,,,,,,,,
,,,,,,,,,66b2385b08ab5b8fafdc94e3,Spanish,13 or older,"no, only English or Spanish",no,2025-07-24_11h02.49.844,empathy_intonation_perc_control,2024.2.4,MacIntel,126.5822785,66b2385b08ab5b8fafdc94e3,68817205a84113384fffdfe3,68824af6caa1af43b98f4836,,,,,,,,,,,,,1,,,,,,,,,,,,,,,,,,,,,,,,,,,,,,,,,,,,,39,torpe,,,,,312.317,314.069,1,1,1.233,,0,19,19,38,1,REAL,FAKE,,,,,,,,,,,,,,,,,
,,,,,,,,,66b2385b08ab5b8fafdc94e3,Spanish,13 or older,"no, only English or Spanish",no,2025-07-24_11h02.49.844,empathy_intonation_perc_control,2024.2.4,MacIntel,126.5822785,66b2385b08ab5b8fafdc94e3,68817205a84113384fffdfe3,68824af6caa1af43b98f4836,,,,,,,,,,,,,0,,,,,,,,,,,,,,,,,,,,,,,,,,,,,,,,,,,,,53,vegada,,,,,314.07,315.608,1,0,1.019,,0,20,20,52,1,REAL,FAKE,,,,,,,,,,,,,,,,,
,,,,,,,,,66b2385b08ab5b8fafdc94e3,Spanish,13 or older,"no, only English or Spanish",no,2025-07-24_11h02.49.844,empathy_intonation_perc_control,2024.2.4,MacIntel,126.5822785,66b2385b08ab5b8fafdc94e3,68817205a84113384fffdfe3,68824af6caa1af43b98f4836,,,,,,,,,,,,,0,,,,,,,,,,,,,,,,,,,,,,,,,,,,,,,,,,,,,84,escuto,,,,,315.609,317.358,1,0,1.239,,0,21,21,83,1,REAL,FAKE,,,,,,,,,,,,,,,,,
,,,,,,,,,66b2385b08ab5b8fafdc94e3,Spanish,13 or older,"no, only English or Spanish",no,2025-07-24_11h02.49.844,empathy_intonation_perc_control,2024.2.4,MacIntel,126.5822785,66b2385b08ab5b8fafdc94e3,68817205a84113384fffdfe3,68824af6caa1af43b98f4836,,,,,,,,,,,,,1,,,,,,,,,,,,,,,,,,,,,,,,,,,,,,,,,,,,,54,fomentar,,,,,317.36,319.075,1,1,1.191,,0,22,22,53,1,REAL,FAKE,,,,,,,,,,,,,,,,,
,,,,,,,,,66b2385b08ab5b8fafdc94e3,Spanish,13 or older,"no, only English or Spanish",no,2025-07-24_11h02.49.844,empathy_intonation_perc_control,2024.2.4,MacIntel,126.5822785,66b2385b08ab5b8fafdc94e3,68817205a84113384fffdfe3,68824af6caa1af43b98f4836,,,,,,,,,,,,,0,,,,,,,,,,,,,,,,,,,,,,,,,,,,,,,,,,,,,74,cintro,,,,,319.076,320.438,0,1,0.844,,0,23,23,73,1,REAL,FAKE,,,,,,,,,,,,,,,,,
,,,,,,,,,66b2385b08ab5b8fafdc94e3,Spanish,13 or older,"no, only English or Spanish",no,2025-07-24_11h02.49.844,empathy_intonation_perc_control,2024.2.4,MacIntel,126.5822785,66b2385b08ab5b8fafdc94e3,68817205a84113384fffdfe3,68824af6caa1af43b98f4836,,,,,,,,,,,,,0,,,,,,,,,,,,,,,,,,,,,,,,,,,,,,,,,,,,,63,esposante,,,,,320.439,322.027,0,1,1.06,,0,24,24,62,1,REAL,FAKE,,,,,,,,,,,,,,,,,
,,,,,,,,,66b2385b08ab5b8fafdc94e3,Spanish,13 or older,"no, only English or Spanish",no,2025-07-24_11h02.49.844,empathy_intonation_perc_control,2024.2.4,MacIntel,126.5822785,66b2385b08ab5b8fafdc94e3,68817205a84113384fffdfe3,68824af6caa1af43b98f4836,,,,,,,,,,,,,1,,,,,,,,,,,,,,,,,,,,,,,,,,,,,,,,,,,,,91,click the 1 key.,,,,,322.03,323.621,1,1,1.072,,0,25,25,90,1,REAL,FAKE,,,,,,,,,,,,,,,,,
,,,,,,,,,66b2385b08ab5b8fafdc94e3,Spanish,13 or older,"no, only English or Spanish",no,2025-07-24_11h02.49.844,empathy_intonation_perc_control,2024.2.4,MacIntel,126.5822785,66b2385b08ab5b8fafdc94e3,68817205a84113384fffdfe3,68824af6caa1af43b98f4836,,,,,,,,,,,,,1,,,,,,,,,,,,,,,,,,,,,,,,,,,,,,,,,,,,,28,merodear,,,,,323.622,325.437,0,0,1.296,,0,26,26,27,1,REAL,FAKE,,,,,,,,,,,,,,,,,
,,,,,,,,,66b2385b08ab5b8fafdc94e3,Spanish,13 or older,"no, only English or Spanish",no,2025-07-24_11h02.49.844,empathy_intonation_perc_control,2024.2.4,MacIntel,126.5822785,66b2385b08ab5b8fafdc94e3,68817205a84113384fffdfe3,68824af6caa1af43b98f4836,,,,,,,,,,,,,1,,,,,,,,,,,,,,,,,,,,,,,,,,,,,,,,,,,,,90,clavel,,,,,325.44,327.238,0,0,1.281,,0,27,27,89,1,REAL,FAKE,,,,,,,,,,,,,,,,,
,,,,,,,,,66b2385b08ab5b8fafdc94e3,Spanish,13 or older,"no, only English or Spanish",no,2025-07-24_11h02.49.844,empathy_intonation_perc_control,2024.2.4,MacIntel,126.5822785,66b2385b08ab5b8fafdc94e3,68817205a84113384fffdfe3,68824af6caa1af43b98f4836,,,,,,,,,,,,,0,,,,,,,,,,,,,,,,,,,,,,,,,,,,,,,,,,,,,23,lampera,,,,,327.238,329.513,1,0,1.751,,0,28,28,22,1,REAL,FAKE,,,,,,,,,,,,,,,,,
,,,,,,,,,66b2385b08ab5b8fafdc94e3,Spanish,13 or older,"no, only English or Spanish",no,2025-07-24_11h02.49.844,empathy_intonation_perc_control,2024.2.4,MacIntel,126.5822785,66b2385b08ab5b8fafdc94e3,68817205a84113384fffdfe3,68824af6caa1af43b98f4836,,,,,,,,,,,,,1,,,,,,,,,,,,,,,,,,,,,,,,,,,,,,,,,,,,,52,camisa,,,,,329.514,330.737,1,1,0.702,,0,29,29,51,1,REAL,FAKE,,,,,,,,,,,,,,,,,
,,,,,,,,,66b2385b08ab5b8fafdc94e3,Spanish,13 or older,"no, only English or Spanish",no,2025-07-24_11h02.49.844,empathy_intonation_perc_control,2024.2.4,MacIntel,126.5822785,66b2385b08ab5b8fafdc94e3,68817205a84113384fffdfe3,68824af6caa1af43b98f4836,,,,,,,,,,,,,0,,,,,,,,,,,,,,,,,,,,,,,,,,,,,,,,,,,,,50,flamida,,,,,330.738,332.262,0,1,1.008,,0,30,30,49,1,REAL,FAKE,,,,,,,,,,,,,,,,,
,,,,,,,,,66b2385b08ab5b8fafdc94e3,Spanish,13 or older,"no, only English or Spanish",no,2025-07-24_11h02.49.844,empathy_intonation_perc_control,2024.2.4,MacIntel,126.5822785,66b2385b08ab5b8fafdc94e3,68817205a84113384fffdfe3,68824af6caa1af43b98f4836,,,,,,,,,,,,,1,,,,,,,,,,,,,,,,,,,,,,,,,,,,,,,,,,,,,11,cenefa,,,,,332.263,333.822,0,0,1.034,,0,31,31,10,1,REAL,FAKE,,,,,,,,,,,,,,,,,
,,,,,,,,,66b2385b08ab5b8fafdc94e3,Spanish,13 or older,"no, only English or Spanish",no,2025-07-24_11h02.49.844,empathy_intonation_perc_control,2024.2.4,MacIntel,126.5822785,66b2385b08ab5b8fafdc94e3,68817205a84113384fffdfe3,68824af6caa1af43b98f4836,,,,,,,,,,,,,0,,,,,,,,,,,,,,,,,,,,,,,,,,,,,,,,,,,,,79,tropaje,,,,,333.823,335.313,0,1,0.969,,0,32,32,78,1,REAL,FAKE,,,,,,,,,,,,,,,,,
,,,,,,,,,66b2385b08ab5b8fafdc94e3,Spanish,13 or older,"no, only English or Spanish",no,2025-07-24_11h02.49.844,empathy_intonation_perc_control,2024.2.4,MacIntel,126.5822785,66b2385b08ab5b8fafdc94e3,68817205a84113384fffdfe3,68824af6caa1af43b98f4836,,,,,,,,,,,,,0,,,,,,,,,,,,,,,,,,,,,,,,,,,,,,,,,,,,,27,acutación,,,,,335.314,338.787,0,1,2.955,,0,33,33,26,1,REAL,FAKE,,,,,,,,,,,,,,,,,
,,,,,,,,,66b2385b08ab5b8fafdc94e3,Spanish,13 or older,"no, only English or Spanish",no,2025-07-24_11h02.49.844,empathy_intonation_perc_control,2024.2.4,MacIntel,126.5822785,66b2385b08ab5b8fafdc94e3,68817205a84113384fffdfe3,68824af6caa1af43b98f4836,,,,,,,,,,,,,1,,,,,,,,,,,,,,,,,,,,,,,,,,,,,,,,,,,,,88,acantilado,,,,,338.788,340.488,1,1,1.179,,0,34,34,87,1,REAL,FAKE,,,,,,,,,,,,,,,,,
,,,,,,,,,66b2385b08ab5b8fafdc94e3,Spanish,13 or older,"no, only English or Spanish",no,2025-07-24_11h02.49.844,empathy_intonation_perc_control,2024.2.4,MacIntel,126.5822785,66b2385b08ab5b8fafdc94e3,68817205a84113384fffdfe3,68824af6caa1af43b98f4836,,,,,,,,,,,,,1,,,,,,,,,,,,,,,,,,,,,,,,,,,,,,,,,,,,,5,zapato,,,,,340.489,341.989,1,1,0.977,,0,35,35,4,1,REAL,FAKE,,,,,,,,,,,,,,,,,
,,,,,,,,,66b2385b08ab5b8fafdc94e3,Spanish,13 or older,"no, only English or Spanish",no,2025-07-24_11h02.49.844,empathy_intonation_perc_control,2024.2.4,MacIntel,126.5822785,66b2385b08ab5b8fafdc94e3,68817205a84113384fffdfe3,68824af6caa1af43b98f4836,,,,,,,,,,,,,1,,,,,,,,,,,,,,,,,,,,,,,,,,,,,,,,,,,,,75,yacer,,,,,341.99,343.207,0,0,0.693,,0,36,36,74,1,REAL,FAKE,,,,,,,,,,,,,,,,,
,,,,,,,,,66b2385b08ab5b8fafdc94e3,Spanish,13 or older,"no, only English or Spanish",no,2025-07-24_11h02.49.844,empathy_intonation_perc_control,2024.2.4,MacIntel,126.5822785,66b2385b08ab5b8fafdc94e3,68817205a84113384fffdfe3,68824af6caa1af43b98f4836,,,,,,,,,,,,,0,,,,,,,,,,,,,,,,,,,,,,,,,,,,,,,,,,,,,21,capillo,,,,,343.208,344.543,1,0,0.822,,0,37,37,20,1,REAL,FAKE,,,,,,,,,,,,,,,,,
,,,,,,,,,66b2385b08ab5b8fafdc94e3,Spanish,13 or older,"no, only English or Spanish",no,2025-07-24_11h02.49.844,empathy_intonation_perc_control,2024.2.4,MacIntel,126.5822785,66b2385b08ab5b8fafdc94e3,68817205a84113384fffdfe3,68824af6caa1af43b98f4836,,,,,,,,,,,,,1,,,,,,,,,,,,,,,,,,,,,,,,,,,,,,,,,,,,,26,secuestro,,,,,344.544,345.867,0,0,0.797,,0,38,38,25,1,REAL,FAKE,,,,,,,,,,,,,,,,,
,,,,,,,,,66b2385b08ab5b8fafdc94e3,Spanish,13 or older,"no, only English or Spanish",no,2025-07-24_11h02.49.844,empathy_intonation_perc_control,2024.2.4,MacIntel,126.5822785,66b2385b08ab5b8fafdc94e3,68817205a84113384fffdfe3,68824af6caa1af43b98f4836,,,,,,,,,,,,,0,,,,,,,,,,,,,,,,,,,,,,,,,,,,,,,,,,,,,18,arsa,,,,,345.868,347.308,0,1,0.926,,0,39,39,17,1,REAL,FAKE,,,,,,,,,,,,,,,,,
,,,,,,,,,66b2385b08ab5b8fafdc94e3,Spanish,13 or older,"no, only English or Spanish",no,2025-07-24_11h02.49.844,empathy_intonation_perc_control,2024.2.4,MacIntel,126.5822785,66b2385b08ab5b8fafdc94e3,68817205a84113384fffdfe3,68824af6caa1af43b98f4836,,,,,,,,,,,,,0,,,,,,,,,,,,,,,,,,,,,,,,,,,,,,,,,,,,,66,hacido,,,,,347.309,348.567,1,0,0.736,,0,40,40,65,1,REAL,FAKE,,,,,,,,,,,,,,,,,
,,,,,,,,,66b2385b08ab5b8fafdc94e3,Spanish,13 or older,"no, only English or Spanish",no,2025-07-24_11h02.49.844,empathy_intonation_perc_control,2024.2.4,MacIntel,126.5822785,66b2385b08ab5b8fafdc94e3,68817205a84113384fffdfe3,68824af6caa1af43b98f4836,,,,,,,,,,,,,1,,,,,,,,,,,,,,,,,,,,,,,,,,,,,,,,,,,,,31,pandilla,,,,,348.567,350.283,1,1,1.192,,0,41,41,30,1,REAL,FAKE,,,,,,,,,,,,,,,,,
,,,,,,,,,66b2385b08ab5b8fafdc94e3,Spanish,13 or older,"no, only English or Spanish",no,2025-07-24_11h02.49.844,empathy_intonation_perc_control,2024.2.4,MacIntel,126.5822785,66b2385b08ab5b8fafdc94e3,68817205a84113384fffdfe3,68824af6caa1af43b98f4836,,,,,,,,,,,,,1,,,,,,,,,,,,,,,,,,,,,,,,,,,,,,,,,,,,,20,ávido,,,,,350.284,352.133,1,1,1.326,,0,42,42,19,1,REAL,FAKE,,,,,,,,,,,,,,,,,
,,,,,,,,,66b2385b08ab5b8fafdc94e3,Spanish,13 or older,"no, only English or Spanish",no,2025-07-24_11h02.49.844,empathy_intonation_perc_control,2024.2.4,MacIntel,126.5822785,66b2385b08ab5b8fafdc94e3,68817205a84113384fffdfe3,68824af6caa1af43b98f4836,,,,,,,,,,,,,0,,,,,,,,,,,,,,,,,,,,,,,,,,,,,,,,,,,,,8,cadeña,,,,,352.134,353.692,1,0,1.04,,0,43,43,7,1,REAL,FAKE,,,,,,,,,,,,,,,,,
,,,,,,,,,66b2385b08ab5b8fafdc94e3,Spanish,13 or older,"no, only English or Spanish",no,2025-07-24_11h02.49.844,empathy_intonation_perc_control,2024.2.4,MacIntel,126.5822785,66b2385b08ab5b8fafdc94e3,68817205a84113384fffdfe3,68824af6caa1af43b98f4836,,,,,,,,,,,,,0,,,,,,,,,,,,,,,,,,,,,,,,,,,,,,,,,,,,,58,plaudir,,,,,353.693,354.859,0,1,0.651,,0,44,44,57,1,REAL,FAKE,,,,,,,,,,,,,,,,,
,,,,,,,,,66b2385b08ab5b8fafdc94e3,Spanish,13 or older,"no, only English or Spanish",no,2025-07-24_11h02.49.844,empathy_intonation_perc_control,2024.2.4,MacIntel,126.5822785,66b2385b08ab5b8fafdc94e3,68817205a84113384fffdfe3,68824af6caa1af43b98f4836,,,,,,,,,,,,,1,,,,,,,,,,,,,,,,,,,,,,,,,,,,,,,,,,,,,86,barato,,,,,354.862,356.317,0,0,0.936,,0,45,45,85,1,REAL,FAKE,,,,,,,,,,,,,,,,,
,,,,,,,,,66b2385b08ab5b8fafdc94e3,Spanish,13 or older,"no, only English or Spanish",no,2025-07-24_11h02.49.844,empathy_intonation_perc_control,2024.2.4,MacIntel,126.5822785,66b2385b08ab5b8fafdc94e3,68817205a84113384fffdfe3,68824af6caa1af43b98f4836,,,,,,,,,,,,,1,,,,,,,,,,,,,,,,,,,,,,,,,,,,,,,,,,,,,62,flaco,,,,,356.318,357.877,1,1,1.049,,0,46,46,61,1,REAL,FAKE,,,,,,,,,,,,,,,,,
,,,,,,,,,66b2385b08ab5b8fafdc94e3,Spanish,13 or older,"no, only English or Spanish",no,2025-07-24_11h02.49.844,empathy_intonation_perc_control,2024.2.4,MacIntel,126.5822785,66b2385b08ab5b8fafdc94e3,68817205a84113384fffdfe3,68824af6caa1af43b98f4836,,,,,,,,,,,,,1,,,,,,,,,,,,,,,,,,,,,,,,,,,,,,,,,,,,,69,engatusar,,,,,357.878,359.2,0,0,0.803,,0,47,47,68,1,REAL,FAKE,,,,,,,,,,,,,,,,,
,,,,,,,,,66b2385b08ab5b8fafdc94e3,Spanish,13 or older,"no, only English or Spanish",no,2025-07-24_11h02.49.844,empathy_intonation_perc_control,2024.2.4,MacIntel,126.5822785,66b2385b08ab5b8fafdc94e3,68817205a84113384fffdfe3,68824af6caa1af43b98f4836,,,,,,,,,,,,,1,,,,,,,,,,,,,,,,,,,,,,,,,,,,,,,,,,,,,73,hervidor,,,,,359.202,360.791,0,0,1.068,,0,48,48,72,1,REAL,FAKE,,,,,,,,,,,,,,,,,
,,,,,,,,,66b2385b08ab5b8fafdc94e3,Spanish,13 or older,"no, only English or Spanish",no,2025-07-24_11h02.49.844,empathy_intonation_perc_control,2024.2.4,MacIntel,126.5822785,66b2385b08ab5b8fafdc94e3,68817205a84113384fffdfe3,68824af6caa1af43b98f4836,,,,,,,,,,,,,1,,,,,,,,,,,,,,,,,,,,,,,,,,,,,,,,,,,,,76,atar,,,,,360.793,362.133,0,0,0.818,,0,49,49,75,1,REAL,FAKE,,,,,,,,,,,,,,,,,
,,,,,,,,,66b2385b08ab5b8fafdc94e3,Spanish,13 or older,"no, only English or Spanish",no,2025-07-24_11h02.49.844,empathy_intonation_perc_control,2024.2.4,MacIntel,126.5822785,66b2385b08ab5b8fafdc94e3,68817205a84113384fffdfe3,68824af6caa1af43b98f4836,,,,,,,,,,,,,1,,,,,,,,,,,,,,,,,,,,,,,,,,,,,,,,,,,,,14,yunque,,,,,362.134,363.209,0,0,0.559,,0,50,50,13,1,REAL,FAKE,,,,,,,,,,,,,,,,,
,,,,,,,,,66b2385b08ab5b8fafdc94e3,Spanish,13 or older,"no, only English or Spanish",no,2025-07-24_11h02.49.844,empathy_intonation_perc_control,2024.2.4,MacIntel,126.5822785,66b2385b08ab5b8fafdc94e3,68817205a84113384fffdfe3,68824af6caa1af43b98f4836,,,,,,,,,,,,,0,,,,,,,,,,,,,,,,,,,,,,,,,,,,,,,,,,,,,19,brecedad,,,,,363.21,365.517,0,1,1.787,,0,51,51,18,1,REAL,FAKE,,,,,,,,,,,,,,,,,
,,,,,,,,,66b2385b08ab5b8fafdc94e3,Spanish,13 or older,"no, only English or Spanish",no,2025-07-24_11h02.49.844,empathy_intonation_perc_control,2024.2.4,MacIntel,126.5822785,66b2385b08ab5b8fafdc94e3,68817205a84113384fffdfe3,68824af6caa1af43b98f4836,,,,,,,,,,,,,1,,,,,,,,,,,,,,,,,,,,,,,,,,,,,,,,,,,,,24,látigo,,,,,365.518,366.817,1,1,0.773,,0,52,52,23,1,REAL,FAKE,,,,,,,,,,,,,,,,,
,,,,,,,,,66b2385b08ab5b8fafdc94e3,Spanish,13 or older,"no, only English or Spanish",no,2025-07-24_11h02.49.844,empathy_intonation_perc_control,2024.2.4,MacIntel,126.5822785,66b2385b08ab5b8fafdc94e3,68817205a84113384fffdfe3,68824af6caa1af43b98f4836,,,,,,,,,,,,,1,,,,,,,,,,,,,,,,,,,,,,,,,,,,,,,,,,,,,61,seda,,,,,366.818,368.71,1,1,1.38,,0,53,53,60,1,REAL,FAKE,,,,,,,,,,,,,,,,,
,,,,,,,,,66b2385b08ab5b8fafdc94e3,Spanish,13 or older,"no, only English or Spanish",no,2025-07-24_11h02.49.844,empathy_intonation_perc_control,2024.2.4,MacIntel,126.5822785,66b2385b08ab5b8fafdc94e3,68817205a84113384fffdfe3,68824af6caa1af43b98f4836,,,,,,,,,,,,,1,,,,,,,,,,,,,,,,,,,,,,,,,,,,,,,,,,,,,81,pozo,,,,,368.711,369.992,0,0,0.76,,0,54,54,80,1,REAL,FAKE,,,,,,,,,,,,,,,,,
,,,,,,,,,66b2385b08ab5b8fafdc94e3,Spanish,13 or older,"no, only English or Spanish",no,2025-07-24_11h02.49.844,empathy_intonation_perc_control,2024.2.4,MacIntel,126.5822785,66b2385b08ab5b8fafdc94e3,68817205a84113384fffdfe3,68824af6caa1af43b98f4836,,,,,,,,,,,,,1,,,,,,,,,,,,,,,,,,,,,,,,,,,,,,,,,,,,,40,alfombra,,,,,369.993,372.058,1,1,1.539,,0,55,55,39,1,REAL,FAKE,,,,,,,,,,,,,,,,,
,,,,,,,,,66b2385b08ab5b8fafdc94e3,Spanish,13 or older,"no, only English or Spanish",no,2025-07-24_11h02.49.844,empathy_intonation_perc_control,2024.2.4,MacIntel,126.5822785,66b2385b08ab5b8fafdc94e3,68817205a84113384fffdfe3,68824af6caa1af43b98f4836,,,,,,,,,,,,,0,,,,,,,,,,,,,,,,,,,,,,,,,,,,,,,,,,,,,92,click the 0 key.,,,,,372.061,373.3,0,1,0.721,,0,56,56,91,1,REAL,FAKE,,,,,,,,,,,,,,,,,
,,,,,,,,,66b2385b08ab5b8fafdc94e3,Spanish,13 or older,"no, only English or Spanish",no,2025-07-24_11h02.49.844,empathy_intonation_perc_control,2024.2.4,MacIntel,126.5822785,66b2385b08ab5b8fafdc94e3,68817205a84113384fffdfe3,68824af6caa1af43b98f4836,,,,,,,,,,,,,1,,,,,,,,,,,,,,,,,,,,,,,,,,,,,,,,,,,,,15,regar,,,,,373.303,375.224,0,0,1.402,,0,57,57,14,1,REAL,FAKE,,,,,,,,,,,,,,,,,
,,,,,,,,,66b2385b08ab5b8fafdc94e3,Spanish,13 or older,"no, only English or Spanish",no,2025-07-24_11h02.49.844,empathy_intonation_perc_control,2024.2.4,MacIntel,126.5822785,66b2385b08ab5b8fafdc94e3,68817205a84113384fffdfe3,68824af6caa1af43b98f4836,,,,,,,,,,,,,1,,,,,,,,,,,,,,,,,,,,,,,,,,,,,,,,,,,,,49,ganar,,,,,375.225,376.587,0,0,0.851,,0,58,58,48,1,REAL,FAKE,,,,,,,,,,,,,,,,,
,,,,,,,,,66b2385b08ab5b8fafdc94e3,Spanish,13 or older,"no, only English or Spanish",no,2025-07-24_11h02.49.844,empathy_intonation_perc_control,2024.2.4,MacIntel,126.5822785,66b2385b08ab5b8fafdc94e3,68817205a84113384fffdfe3,68824af6caa1af43b98f4836,,,,,,,,,,,,,1,,,,,,,,,,,,,,,,,,,,,,,,,,,,,,,,,,,,,85,laúd,,,,,376.588,378.204,0,0,1.097,,0,59,59,84,1,REAL,FAKE,,,,,,,,,,,,,,,,,
,,,,,,,,,66b2385b08ab5b8fafdc94e3,Spanish,13 or older,"no, only English or Spanish",no,2025-07-24_11h02.49.844,empathy_intonation_perc_control,2024.2.4,MacIntel,126.5822785,66b2385b08ab5b8fafdc94e3,68817205a84113384fffdfe3,68824af6caa1af43b98f4836,,,,,,,,,,,,,0,,,,,,,,,,,,,,,,,,,,,,,,,,,,,,,,,,,,,29,decar,,,,,378.205,379.354,1,0,0.633,,0,60,60,28,1,REAL,FAKE,,,,,,,,,,,,,,,,,
,,,,,,,,,66b2385b08ab5b8fafdc94e3,Spanish,13 or older,"no, only English or Spanish",no,2025-07-24_11h02.49.844,empathy_intonation_perc_control,2024.2.4,MacIntel,126.5822785,66b2385b08ab5b8fafdc94e3,68817205a84113384fffdfe3,68824af6caa1af43b98f4836,,,,,,,,,,,,,1,,,,,,,,,,,,,,,,,,,,,,,,,,,,,,,,,,,,,6,tergiversar,,,,,379.355,381.109,0,0,1.236,,0,61,61,5,1,REAL,FAKE,,,,,,,,,,,,,,,,,
,,,,,,,,,66b2385b08ab5b8fafdc94e3,Spanish,13 or older,"no, only English or Spanish",no,2025-07-24_11h02.49.844,empathy_intonation_perc_control,2024.2.4,MacIntel,126.5822785,66b2385b08ab5b8fafdc94e3,68817205a84113384fffdfe3,68824af6caa1af43b98f4836,,,,,,,,,,,,,0,,,,,,,,,,,,,,,,,,,,,,,,,,,,,,,,,,,,,35,rompido,,,,,381.11,382.492,1,0,0.861,,0,62,62,34,1,REAL,FAKE,,,,,,,,,,,,,,,,,
,,,,,,,,,66b2385b08ab5b8fafdc94e3,Spanish,13 or older,"no, only English or Spanish",no,2025-07-24_11h02.49.844,empathy_intonation_perc_control,2024.2.4,MacIntel,126.5822785,66b2385b08ab5b8fafdc94e3,68817205a84113384fffdfe3,68824af6caa1af43b98f4836,,,,,,,,,,,,,0,,,,,,,,,,,,,,,,,,,,,,,,,,,,,,,,,,,,,4,batillón,,,,,382.493,383.722,1,0,0.718,,0,63,63,3,1,REAL,FAKE,,,,,,,,,,,,,,,,,
,,,,,,,,,66b2385b08ab5b8fafdc94e3,Spanish,13 or older,"no, only English or Spanish",no,2025-07-24_11h02.49.844,empathy_intonation_perc_control,2024.2.4,MacIntel,126.5822785,66b2385b08ab5b8fafdc94e3,68817205a84113384fffdfe3,68824af6caa1af43b98f4836,,,,,,,,,,,,,1,,,,,,,,,,,,,,,,,,,,,,,,,,,,,,,,,,,,,36,loro,,,,,383.723,385.322,0,0,1.085,,0,64,64,35,1,REAL,FAKE,,,,,,,,,,,,,,,,,
,,,,,,,,,66b2385b08ab5b8fafdc94e3,Spanish,13 or older,"no, only English or Spanish",no,2025-07-24_11h02.49.844,empathy_intonation_perc_control,2024.2.4,MacIntel,126.5822785,66b2385b08ab5b8fafdc94e3,68817205a84113384fffdfe3,68824af6caa1af43b98f4836,,,,,,,,,,,,,1,,,,,,,,,,,,,,,,,,,,,,,,,,,,,,,,,,,,,38,estornudar,,,,,385.324,386.629,0,0,0.781,,0,65,65,37,1,REAL,FAKE,,,,,,,,,,,,,,,,,
,,,,,,,,,66b2385b08ab5b8fafdc94e3,Spanish,13 or older,"no, only English or Spanish",no,2025-07-24_11h02.49.844,empathy_intonation_perc_control,2024.2.4,MacIntel,126.5822785,66b2385b08ab5b8fafdc94e3,68817205a84113384fffdfe3,68824af6caa1af43b98f4836,,,,,,,,,,,,,1,,,,,,,,,,,,,,,,,,,,,,,,,,,,,,,,,,,,,59,besar,,,,,386.63,388.089,0,0,0.94,,0,66,66,58,1,REAL,FAKE,,,,,,,,,,,,,,,,,
,,,,,,,,,66b2385b08ab5b8fafdc94e3,Spanish,13 or older,"no, only English or Spanish",no,2025-07-24_11h02.49.844,empathy_intonation_perc_control,2024.2.4,MacIntel,126.5822785,66b2385b08ab5b8fafdc94e3,68817205a84113384fffdfe3,68824af6caa1af43b98f4836,,,,,,,,,,,,,1,,,,,,,,,,,,,,,,,,,,,,,,,,,,,,,,,,,,,25,bisagra,,,,,388.093,389.308,0,0,0.694,,0,67,67,24,1,REAL,FAKE,,,,,,,,,,,,,,,,,
,,,,,,,,,66b2385b08ab5b8fafdc94e3,Spanish,13 or older,"no, only English or Spanish",no,2025-07-24_11h02.49.844,empathy_intonation_perc_control,2024.2.4,MacIntel,126.5822785,66b2385b08ab5b8fafdc94e3,68817205a84113384fffdfe3,68824af6caa1af43b98f4836,,,,,,,,,,,,,1,,,,,,,,,,,,,,,,,,,,,,,,,,,,,,,,,,,,,41,rebuscar,,,,,389.31,390.533,0,0,0.7,,0,68,68,40,1,REAL,FAKE,,,,,,,,,,,,,,,,,
,,,,,,,,,66b2385b08ab5b8fafdc94e3,Spanish,13 or older,"no, only English or Spanish",no,2025-07-24_11h02.49.844,empathy_intonation_perc_control,2024.2.4,MacIntel,126.5822785,66b2385b08ab5b8fafdc94e3,68817205a84113384fffdfe3,68824af6caa1af43b98f4836,,,,,,,,,,,,,1,,,,,,,,,,,,,,,,,,,,,,,,,,,,,,,,,,,,,48,ladrón,,,,,390.535,392.094,0,0,1.039,,0,69,69,47,1,REAL,FAKE,,,,,,,,,,,,,,,,,
,,,,,,,,,66b2385b08ab5b8fafdc94e3,Spanish,13 or older,"no, only English or Spanish",no,2025-07-24_11h02.49.844,empathy_intonation_perc_control,2024.2.4,MacIntel,126.5822785,66b2385b08ab5b8fafdc94e3,68817205a84113384fffdfe3,68824af6caa1af43b98f4836,,,,,,,,,,,,,1,,,,,,,,,,,,,,,,,,,,,,,,,,,,,,,,,,,,,89,prisa,,,,,392.096,394.558,1,1,1.944,,0,70,70,88,1,REAL,FAKE,,,,,,,,,,,,,,,,,
,,,,,,,,,66b2385b08ab5b8fafdc94e3,Spanish,13 or older,"no, only English or Spanish",no,2025-07-24_11h02.49.844,empathy_intonation_perc_control,2024.2.4,MacIntel,126.5822785,66b2385b08ab5b8fafdc94e3,68817205a84113384fffdfe3,68824af6caa1af43b98f4836,,,,,,,,,,,,,1,,,,,,,,,,,,,,,,,,,,,,,,,,,,,,,,,,,,,43,canela,,,,,394.559,395.666,1,1,0.595,,0,71,71,42,1,REAL,FAKE,,,,,,,,,,,,,,,,,
,,,,,,,,,66b2385b08ab5b8fafdc94e3,Spanish,13 or older,"no, only English or Spanish",no,2025-07-24_11h02.49.844,empathy_intonation_perc_control,2024.2.4,MacIntel,126.5822785,66b2385b08ab5b8fafdc94e3,68817205a84113384fffdfe3,68824af6caa1af43b98f4836,,,,,,,,,,,,,1,,,,,,,,,,,,,,,,,,,,,,,,,,,,,,,,,,,,,55,nevar,,,,,395.667,397.209,0,0,1.031,,0,72,72,54,1,REAL,FAKE,,,,,,,,,,,,,,,,,
,,,,,,,,,66b2385b08ab5b8fafdc94e3,Spanish,13 or older,"no, only English or Spanish",no,2025-07-24_11h02.49.844,empathy_intonation_perc_control,2024.2.4,MacIntel,126.5822785,66b2385b08ab5b8fafdc94e3,68817205a84113384fffdfe3,68824af6caa1af43b98f4836,,,,,,,,,,,,,0,,,,,,,,,,,,,,,,,,,,,,,,,,,,,,,,,,,,,1,terzo,,,,,397.212,398.6,0,1,0.867,,0,73,73,0,1,REAL,FAKE,,,,,,,,,,,,,,,,,
,,,,,,,,,66b2385b08ab5b8fafdc94e3,Spanish,13 or older,"no, only English or Spanish",no,2025-07-24_11h02.49.844,empathy_intonation_perc_control,2024.2.4,MacIntel,126.5822785,66b2385b08ab5b8fafdc94e3,68817205a84113384fffdfe3,68824af6caa1af43b98f4836,,,,,,,,,,,,,1,,,,,,,,,,,,,,,,,,,,,,,,,,,,,,,,,,,,,37,granuja,,,,,398.601,400.404,0,0,1.279,,0,74,74,36,1,REAL,FAKE,,,,,,,,,,,,,,,,,
,,,,,,,,,66b2385b08ab5b8fafdc94e3,Spanish,13 or older,"no, only English or Spanish",no,2025-07-24_11h02.49.844,empathy_intonation_perc_control,2024.2.4,MacIntel,126.5822785,66b2385b08ab5b8fafdc94e3,68817205a84113384fffdfe3,68824af6caa1af43b98f4836,,,,,,,,,,,,,0,,,,,,,,,,,,,,,,,,,,,,,,,,,,,,,,,,,,,82,empirador,,,,,400.405,403.545,1,0,2.627,,0,75,75,81,1,REAL,FAKE,,,,,,,,,,,,,,,,,
,,,,,,,,,66b2385b08ab5b8fafdc94e3,Spanish,13 or older,"no, only English or Spanish",no,2025-07-24_11h02.49.844,empathy_intonation_perc_control,2024.2.4,MacIntel,126.5822785,66b2385b08ab5b8fafdc94e3,68817205a84113384fffdfe3,68824af6caa1af43b98f4836,,,,,,,,,,,,,1,,,,,,,,,,,,,,,,,,,,,,,,,,,,,,,,,,,,,68,alegre,,,,,403.546,404.832,0,0,0.763,,0,76,76,67,1,REAL,FAKE,,,,,,,,,,,,,,,,,
,,,,,,,,,66b2385b08ab5b8fafdc94e3,Spanish,13 or older,"no, only English or Spanish",no,2025-07-24_11h02.49.844,empathy_intonation_perc_control,2024.2.4,MacIntel,126.5822785,66b2385b08ab5b8fafdc94e3,68817205a84113384fffdfe3,68824af6caa1af43b98f4836,,,,,,,,,,,,,1,,,,,,,,,,,,,,,,,,,,,,,,,,,,,,,,,,,,,45,jilguero,,,,,404.833,406.7,0,0,1.346,,0,77,77,44,1,REAL,FAKE,,,,,,,,,,,,,,,,,
,,,,,,,,,66b2385b08ab5b8fafdc94e3,Spanish,13 or older,"no, only English or Spanish",no,2025-07-24_11h02.49.844,empathy_intonation_perc_control,2024.2.4,MacIntel,126.5822785,66b2385b08ab5b8fafdc94e3,68817205a84113384fffdfe3,68824af6caa1af43b98f4836,,,,,,,,,,,,,0,,,,,,,,,,,,,,,,,,,,,,,,,,,,,,,,,,,,,30,alardio,,,,,406.702,408.86,0,1,1.639,,0,78,78,29,1,REAL,FAKE,,,,,,,,,,,,,,,,,
,,,,,,,,,66b2385b08ab5b8fafdc94e3,Spanish,13 or older,"no, only English or Spanish",no,2025-07-24_11h02.49.844,empathy_intonation_perc_control,2024.2.4,MacIntel,126.5822785,66b2385b08ab5b8fafdc94e3,68817205a84113384fffdfe3,68824af6caa1af43b98f4836,,,,,,,,,,,,,1,,,,,,,,,,,,,,,,,,,,,,,,,,,,,,,,,,,,,83,guante,,,,,408.861,410.308,0,0,0.925,,0,79,79,82,1,REAL,FAKE,,,,,,,,,,,,,,,,,
,,,,,,,,,66b2385b08ab5b8fafdc94e3,Spanish,13 or older,"no, only English or Spanish",no,2025-07-24_11h02.49.844,empathy_intonation_perc_control,2024.2.4,MacIntel,126.5822785,66b2385b08ab5b8fafdc94e3,68817205a84113384fffdfe3,68824af6caa1af43b98f4836,,,,,,,,,,,,,1,,,,,,,,,,,,,,,,,,,,,,,,,,,,,,,,,,,,,80,hormiga,,,,,410.309,411.8,0,0,0.965,,0,80,80,79,1,REAL,FAKE,,,,,,,,,,,,,,,,,
,,,,,,,,,66b2385b08ab5b8fafdc94e3,Spanish,13 or older,"no, only English or Spanish",no,2025-07-24_11h02.49.844,empathy_intonation_perc_control,2024.2.4,MacIntel,126.5822785,66b2385b08ab5b8fafdc94e3,68817205a84113384fffdfe3,68824af6caa1af43b98f4836,,,,,,,,,,,,,1,,,,,,,,,,,,,,,,,,,,,,,,,,,,,,,,,,,,,51,candado,,,,,411.801,412.842,1,1,0.527,,0,81,81,50,1,REAL,FAKE,,,,,,,,,,,,,,,,,
,,,,,,,,,66b2385b08ab5b8fafdc94e3,Spanish,13 or older,"no, only English or Spanish",no,2025-07-24_11h02.49.844,empathy_intonation_perc_control,2024.2.4,MacIntel,126.5822785,66b2385b08ab5b8fafdc94e3,68817205a84113384fffdfe3,68824af6caa1af43b98f4836,,,,,,,,,,,,,1,,,,,,,,,,,,,,,,,,,,,,,,,,,,,,,,,,,,,12,asesinato,,,,,412.843,414.342,1,1,0.979,,0,82,82,11,1,REAL,FAKE,,,,,,,,,,,,,,,,,
,,,,,,,,,66b2385b08ab5b8fafdc94e3,Spanish,13 or older,"no, only English or Spanish",no,2025-07-24_11h02.49.844,empathy_intonation_perc_control,2024.2.4,MacIntel,126.5822785,66b2385b08ab5b8fafdc94e3,68817205a84113384fffdfe3,68824af6caa1af43b98f4836,,,,,,,,,,,,,0,,,,,,,,,,,,,,,,,,,,,,,,,,,,,,,,,,,,,47,cartinar,,,,,414.343,416.024,1,0,1.161,,0,83,83,46,1,REAL,FAKE,,,,,,,,,,,,,,,,,
,,,,,,,,,66b2385b08ab5b8fafdc94e3,Spanish,13 or older,"no, only English or Spanish",no,2025-07-24_11h02.49.844,empathy_intonation_perc_control,2024.2.4,MacIntel,126.5822785,66b2385b08ab5b8fafdc94e3,68817205a84113384fffdfe3,68824af6caa1af43b98f4836,,,,,,,,,,,,,0,,,,,,,,,,,,,,,,,,,,,,,,,,,,,,,,,,,,,70,temblo,,,,,416.025,417.396,1,0,0.859,,0,84,84,69,1,REAL,FAKE,,,,,,,,,,,,,,,,,
,,,,,,,,,66b2385b08ab5b8fafdc94e3,Spanish,13 or older,"no, only English or Spanish",no,2025-07-24_11h02.49.844,empathy_intonation_perc_control,2024.2.4,MacIntel,126.5822785,66b2385b08ab5b8fafdc94e3,68817205a84113384fffdfe3,68824af6caa1af43b98f4836,,,,,,,,,,,,,0,,,,,,,,,,,,,,,,,,,,,,,,,,,,,,,,,,,,,17,floroso,,,,,417.397,418.872,1,0,0.962,,0,85,85,16,1,REAL,FAKE,,,,,,,,,,,,,,,,,
,,,,,,,,,66b2385b08ab5b8fafdc94e3,Spanish,13 or older,"no, only English or Spanish",no,2025-07-24_11h02.49.844,empathy_intonation_perc_control,2024.2.4,MacIntel,126.5822785,66b2385b08ab5b8fafdc94e3,68817205a84113384fffdfe3,68824af6caa1af43b98f4836,,,,,,,,,,,,,1,,,,,,,,,,,,,,,,,,,,,,,,,,,,,,,,,,,,,7,pésimo,,,,,418.873,420.363,1,1,0.969,,0,86,86,6,1,REAL,FAKE,,,,,,,,,,,,,,,,,
,,,,,,,,,66b2385b08ab5b8fafdc94e3,Spanish,13 or older,"no, only English or Spanish",no,2025-07-24_11h02.49.844,empathy_intonation_perc_control,2024.2.4,MacIntel,126.5822785,66b2385b08ab5b8fafdc94e3,68817205a84113384fffdfe3,68824af6caa1af43b98f4836,,,,,,,,,,,,,1,,,,,,,,,,,,,,,,,,,,,,,,,,,,,,,,,,,,,13,helar,,,,,420.364,421.646,0,0,0.763,,0,87,87,12,1,REAL,FAKE,,,,,,,,,,,,,,,,,
,,,,,,,,,66b2385b08ab5b8fafdc94e3,Spanish,13 or older,"no, only English or Spanish",no,2025-07-24_11h02.49.844,empathy_intonation_perc_control,2024.2.4,MacIntel,126.5822785,66b2385b08ab5b8fafdc94e3,68817205a84113384fffdfe3,68824af6caa1af43b98f4836,,,,,,,,,,,,,1,,,,,,,,,,,,,,,,,,,,,,,,,,,,,,,,,,,,,71,polvoriento,,,,,421.65,423.013,0,0,0.843,,0,88,88,70,1,REAL,FAKE,,,,,,,,,,,,,,,,,
,,,,,,,,,66b2385b08ab5b8fafdc94e3,Spanish,13 or older,"no, only English or Spanish",no,2025-07-24_11h02.49.844,empathy_intonation_perc_control,2024.2.4,MacIntel,126.5822785,66b2385b08ab5b8fafdc94e3,68817205a84113384fffdfe3,68824af6caa1af43b98f4836,,,,,,,,,,,,,1,,,,,,,,,,,,,,,,,,,,,,,,,,,,,,,,,,,,,2,pellizcar,,,,,423.015,424.463,0,0,0.932,,0,89,89,1,1,REAL,FAKE,,,,,,,,,,,,,,,,,
,,,,,,,,,66b2385b08ab5b8fafdc94e3,Spanish,13 or older,"no, only English or Spanish",no,2025-07-24_11h02.49.844,empathy_intonation_perc_control,2024.2.4,MacIntel,126.5822785,66b2385b08ab5b8fafdc94e3,68817205a84113384fffdfe3,68824af6caa1af43b98f4836,,,,,,,,,,,,,1,,,,,,,,,,,,,,,,,,,,,,,,,,,,,,,,,,,,,44,cuchara,,,,,424.464,425.95,0,0,0.964,,0,90,90,43,1,REAL,FAKE,,,,,,,,,,,,,,,,,
,,,,,,,,,66b2385b08ab5b8fafdc94e3,Spanish,13 or older,"no, only English or Spanish",no,2025-07-24_11h02.49.844,empathy_intonation_perc_control,2024.2.4,MacIntel,126.5822785,66b2385b08ab5b8fafdc94e3,68817205a84113384fffdfe3,68824af6caa1af43b98f4836,,,,,,,,,,,,,0,,,,,,,,,,,,,,,,,,,,,,,,,,,,,,,,,,,,,42,cadallo,,,,,425.952,427.138,1,0,0.659,,0,91,91,41,1,REAL,FAKE,,,,,,,,,,,,,,,,,
,,,,,,,,,66b2385b08ab5b8fafdc94e3,Spanish,13 or older,"no, only English or Spanish",no,2025-07-24_11h02.49.844,empathy_intonation_perc_control,2024.2.4,MacIntel,126.5822785,66b2385b08ab5b8fafdc94e3,68817205a84113384fffdfe3,68824af6caa1af43b98f4836,,,,,,,,,,,,,,,,,,,,,,,,,,,,,,,,,,,,,,,,,,,,,,,,,,,,,,,,,,,,,,,,,,,,,427.138,430.133,,,,,,,,,,,,,,,
,,,,,,,,,66b2385b08ab5b8fafdc94e3,Spanish,13 or older,"no, only English or Spanish",no,2025-07-24_11h02.49.844,empathy_intonation_perc_control,2024.2.4,MacIntel,126.5822785,66b2385b08ab5b8fafdc94e3,68817205a84113384fffdfe3,68824af6caa1af43b98f4836,,,,,,,,,,,,,,,,,,,,,,,,,,,1,,,,,,,,,,,,,,,,,,,,,,,,,,,,,,,,,,,,,,,,,,,,430.149,435.695,strongly disagree,0,0,0,0,1,I can easily tell if someone else wants to enter a conversation.,1,0,1,0,,
,,,,,,,,,66b2385b08ab5b8fafdc94e3,Spanish,13 or older,"no, only English or Spanish",no,2025-07-24_11h02.49.844,empathy_intonation_perc_control,2024.2.4,MacIntel,126.5822785,66b2385b08ab5b8fafdc94e3,68817205a84113384fffdfe3,68824af6caa1af43b98f4836,,,,,,,,,,,,,,,,,,,,,,,,,,,2,,,,,,,,,,,,,,,,,,,,,,,,,,,,,,,,,,,,,,,,,,,,435.696,438.82,strongly agree,0,1,1,1,1,I prefer animals to humans.,0,1,0,0,,
,,,,,,,,,66b2385b08ab5b8fafdc94e3,Spanish,13 or older,"no, only English or Spanish",no,2025-07-24_11h02.49.844,empathy_intonation_perc_control,2024.2.4,MacIntel,126.5822785,66b2385b08ab5b8fafdc94e3,68817205a84113384fffdfe3,68824af6caa1af43b98f4836,,,,,,,,,,,,,,,,,,,,,,,,,,,3,,,,,,,,,,,,,,,,,,,,,,,,,,,,,,,,,,,,,,,,,,,,438.821,442.321,slightly disagree,0,2,2,2,1,I try to keep up with the current trends and fashions.,0,1,0,0,,
,,,,,,,,,66b2385b08ab5b8fafdc94e3,Spanish,13 or older,"no, only English or Spanish",no,2025-07-24_11h02.49.844,empathy_intonation_perc_control,2024.2.4,MacIntel,126.5822785,66b2385b08ab5b8fafdc94e3,68817205a84113384fffdfe3,68824af6caa1af43b98f4836,,,,,,,,,,,,,,,,,,,,,,,,,,,4,,,,,,,,,,,,,,,,,,,,,,,,,,,,,,,,,,,,,,,,,,,,442.323,447.386,slightly disagree,0,3,3,3,1,"I find it difficult to explain to others things that I understand easily,   when they don't understand it first time.",1,0,0,1,,
,,,,,,,,,66b2385b08ab5b8fafdc94e3,Spanish,13 or older,"no, only English or Spanish",no,2025-07-24_11h02.49.844,empathy_intonation_perc_control,2024.2.4,MacIntel,126.5822785,66b2385b08ab5b8fafdc94e3,68817205a84113384fffdfe3,68824af6caa1af43b98f4836,,,,,,,,,,,,,,,,,,,,,,,,,,,5,,,,,,,,,,,,,,,,,,,,,,,,,,,,,,,,,,,,,,,,,,,,447.387,450.279,slightly agree,0,4,4,4,1,I dream most nights.,0,1,0,0,,
,,,,,,,,,66b2385b08ab5b8fafdc94e3,Spanish,13 or older,"no, only English or Spanish",no,2025-07-24_11h02.49.844,empathy_intonation_perc_control,2024.2.4,MacIntel,126.5822785,66b2385b08ab5b8fafdc94e3,68817205a84113384fffdfe3,68824af6caa1af43b98f4836,,,,,,,,,,,,,,,,,,,,,,,,,,,6,,,,,,,,,,,,,,,,,,,,,,,,,,,,,,,,,,,,,,,,,,,,450.281,452.174,strongly disagree,0,5,5,5,1,I really enjoy caring for other people.,1,0,1,0,,
,,,,,,,,,66b2385b08ab5b8fafdc94e3,Spanish,13 or older,"no, only English or Spanish",no,2025-07-24_11h02.49.844,empathy_intonation_perc_control,2024.2.4,MacIntel,126.5822785,66b2385b08ab5b8fafdc94e3,68817205a84113384fffdfe3,68824af6caa1af43b98f4836,,,,,,,,,,,,,,,,,,,,,,,,,,,7,,,,,,,,,,,,,,,,,,,,,,,,,,,,,,,,,,,,,,,,,,,,452.175,454.8,slightly agree,0,6,6,6,1,I try to solve my own problems rather than discussing them with others.,0,1,0,0,,
,,,,,,,,,66b2385b08ab5b8fafdc94e3,Spanish,13 or older,"no, only English or Spanish",no,2025-07-24_11h02.49.844,empathy_intonation_perc_control,2024.2.4,MacIntel,126.5822785,66b2385b08ab5b8fafdc94e3,68817205a84113384fffdfe3,68824af6caa1af43b98f4836,,,,,,,,,,,,,,,,,,,,,,,,,,,8,,,,,,,,,,,,,,,,,,,,,,,,,,,,,,,,,,,,,,,,,,,,454.8,457.046,slightly agree,0,7,7,7,1,I find it hard to know what to do in a social situation.,1,0,0,1,,
,,,,,,,,,66b2385b08ab5b8fafdc94e3,Spanish,13 or older,"no, only English or Spanish",no,2025-07-24_11h02.49.844,empathy_intonation_perc_control,2024.2.4,MacIntel,126.5822785,66b2385b08ab5b8fafdc94e3,68817205a84113384fffdfe3,68824af6caa1af43b98f4836,,,,,,,,,,,,,,,,,,,,,,,,,,,9,,,,,,,,,,,,,,,,,,,,,,,,,,,,,,,,,,,,,,,,,,,,457.048,459.375,strongly disagree,0,8,8,8,1,I am at my best first thing in the morning.,0,1,0,0,,
,,,,,,,,,66b2385b08ab5b8fafdc94e3,Spanish,13 or older,"no, only English or Spanish",no,2025-07-24_11h02.49.844,empathy_intonation_perc_control,2024.2.4,MacIntel,126.5822785,66b2385b08ab5b8fafdc94e3,68817205a84113384fffdfe3,68824af6caa1af43b98f4836,,,,,,,,,,,,,,,,,,,,,,,,,,,10,,,,,,,,,,,,,,,,,,,,,,,,,,,,,,,,,,,,,,,,,,,,459.377,463.712,slightly agree,0,9,9,9,1,People often tell me that I went too far in driving my point home in a discussion.,1,0,0,1,,
,,,,,,,,,66b2385b08ab5b8fafdc94e3,Spanish,13 or older,"no, only English or Spanish",no,2025-07-24_11h02.49.844,empathy_intonation_perc_control,2024.2.4,MacIntel,126.5822785,66b2385b08ab5b8fafdc94e3,68817205a84113384fffdfe3,68824af6caa1af43b98f4836,,,,,,,,,,,,,,,,,,,,,,,,,,,11,,,,,,,,,,,,,,,,,,,,,,,,,,,,,,,,,,,,,,,,,,,,463.713,466.233,slightly agree,0,10,10,10,1,It doesn't bother me too much if I am late meeting a friend.,1,0,0,1,,
,,,,,,,,,66b2385b08ab5b8fafdc94e3,Spanish,13 or older,"no, only English or Spanish",no,2025-07-24_11h02.49.844,empathy_intonation_perc_control,2024.2.4,MacIntel,126.5822785,66b2385b08ab5b8fafdc94e3,68817205a84113384fffdfe3,68824af6caa1af43b98f4836,,,,,,,,,,,,,,,,,,,,,,,,,,,12,,,,,,,,,,,,,,,,,,,,,,,,,,,,,,,,,,,,,,,,,,,,466.234,468.387,strongly agree,0,11,11,11,1,"Friendships and relationships are just too difficult, so I tend not to 
  bother with them.",1,0,0,1,,
,,,,,,,,,66b2385b08ab5b8fafdc94e3,Spanish,13 or older,"no, only English or Spanish",no,2025-07-24_11h02.49.844,empathy_intonation_perc_control,2024.2.4,MacIntel,126.5822785,66b2385b08ab5b8fafdc94e3,68817205a84113384fffdfe3,68824af6caa1af43b98f4836,,,,,,,,,,,,,,,,,,,,,,,,,,,13,,,,,,,,,,,,,,,,,,,,,,,,,,,,,,,,,,,,,,,,,,,,468.388,470.374,slightly disagree,0,12,12,12,1,"I would never break a law, no matter how minor.",0,1,0,0,,
,,,,,,,,,66b2385b08ab5b8fafdc94e3,Spanish,13 or older,"no, only English or Spanish",no,2025-07-24_11h02.49.844,empathy_intonation_perc_control,2024.2.4,MacIntel,126.5822785,66b2385b08ab5b8fafdc94e3,68817205a84113384fffdfe3,68824af6caa1af43b98f4836,,,,,,,,,,,,,,,,,,,,,,,,,,,14,,,,,,,,,,,,,,,,,,,,,,,,,,,,,,,,,,,,,,,,,,,,470.376,473.554,slightly disagree,0,13,13,13,1,I often find it difficult to judge if something is rude or polite.,1,0,0,1,,
,,,,,,,,,66b2385b08ab5b8fafdc94e3,Spanish,13 or older,"no, only English or Spanish",no,2025-07-24_11h02.49.844,empathy_intonation_perc_control,2024.2.4,MacIntel,126.5822785,66b2385b08ab5b8fafdc94e3,68817205a84113384fffdfe3,68824af6caa1af43b98f4836,,,,,,,,,,,,,,,,,,,,,,,,,,,15,,,,,,,,,,,,,,,,,,,,,,,,,,,,,,,,,,,,,,,,,,,,473.555,478.671,slightly agree,0,14,14,14,1,"In a conversation, I tend to focus on my own thoughts rather than on what 
  my listener might be thinking.",1,0,0,1,,
,,,,,,,,,66b2385b08ab5b8fafdc94e3,Spanish,13 or older,"no, only English or Spanish",no,2025-07-24_11h02.49.844,empathy_intonation_perc_control,2024.2.4,MacIntel,126.5822785,66b2385b08ab5b8fafdc94e3,68817205a84113384fffdfe3,68824af6caa1af43b98f4836,,,,,,,,,,,,,,,,,,,,,,,,,,,16,,,,,,,,,,,,,,,,,,,,,,,,,,,,,,,,,,,,,,,,,,,,478.673,483.15,slightly disagree,0,15,15,15,1,I prefer practical jokes to verbal humor.,0,1,0,0,,
,,,,,,,,,66b2385b08ab5b8fafdc94e3,Spanish,13 or older,"no, only English or Spanish",no,2025-07-24_11h02.49.844,empathy_intonation_perc_control,2024.2.4,MacIntel,126.5822785,66b2385b08ab5b8fafdc94e3,68817205a84113384fffdfe3,68824af6caa1af43b98f4836,,,,,,,,,,,,,,,,,,,,,,,,,,,17,,,,,,,,,,,,,,,,,,,,,,,,,,,,,,,,,,,,,,,,,,,,483.151,485.667,slightly agree,0,16,16,16,1,I live life for today rather than the future.,0,1,0,0,,
,,,,,,,,,66b2385b08ab5b8fafdc94e3,Spanish,13 or older,"no, only English or Spanish",no,2025-07-24_11h02.49.844,empathy_intonation_perc_control,2024.2.4,MacIntel,126.5822785,66b2385b08ab5b8fafdc94e3,68817205a84113384fffdfe3,68824af6caa1af43b98f4836,,,,,,,,,,,,,,,,,,,,,,,,,,,18,,,,,,,,,,,,,,,,,,,,,,,,,,,,,,,,,,,,,,,,,,,,485.667,488.296,strongly disagree,0,17,17,17,1,"When I was a child, I enjoyed cutting up worms to see what would happen.",1,0,0,1,,
,,,,,,,,,66b2385b08ab5b8fafdc94e3,Spanish,13 or older,"no, only English or Spanish",no,2025-07-24_11h02.49.844,empathy_intonation_perc_control,2024.2.4,MacIntel,126.5822785,66b2385b08ab5b8fafdc94e3,68817205a84113384fffdfe3,68824af6caa1af43b98f4836,,,,,,,,,,,,,,,,,,,,,,,,,,,19,,,,,,,,,,,,,,,,,,,,,,,,,,,,,,,,,,,,,,,,,,,,488.298,491.244,slightly agree,0,18,18,18,1,I can pick up quickly if someone says one thing but means another.,1,0,1,0,,
,,,,,,,,,66b2385b08ab5b8fafdc94e3,Spanish,13 or older,"no, only English or Spanish",no,2025-07-24_11h02.49.844,empathy_intonation_perc_control,2024.2.4,MacIntel,126.5822785,66b2385b08ab5b8fafdc94e3,68817205a84113384fffdfe3,68824af6caa1af43b98f4836,,,,,,,,,,,,,,,,,,,,,,,,,,,20,,,,,,,,,,,,,,,,,,,,,,,,,,,,,,,,,,,,,,,,,,,,491.246,493.912,slightly agree,0,19,19,19,1,I tend to have very strong opinions about morality.,0,1,0,0,,
,,,,,,,,,66b2385b08ab5b8fafdc94e3,Spanish,13 or older,"no, only English or Spanish",no,2025-07-24_11h02.49.844,empathy_intonation_perc_control,2024.2.4,MacIntel,126.5822785,66b2385b08ab5b8fafdc94e3,68817205a84113384fffdfe3,68824af6caa1af43b98f4836,,,,,,,,,,,,,,,,,,,,,,,,,,,21,,,,,,,,,,,,,,,,,,,,,,,,,,,,,,,,,,,,,,,,,,,,493.914,497.679,slightly disagree,0,20,20,20,1,It is hard for me to see why some things upset people so much.,1,0,0,1,,
,,,,,,,,,66b2385b08ab5b8fafdc94e3,Spanish,13 or older,"no, only English or Spanish",no,2025-07-24_11h02.49.844,empathy_intonation_perc_control,2024.2.4,MacIntel,126.5822785,66b2385b08ab5b8fafdc94e3,68817205a84113384fffdfe3,68824af6caa1af43b98f4836,,,,,,,,,,,,,,,,,,,,,,,,,,,22,,,,,,,,,,,,,,,,,,,,,,,,,,,,,,,,,,,,,,,,,,,,497.68,500.121,slightly disagree,0,21,21,21,1,I find it easy to put myself in somebody else's shoes.,1,0,1,0,,
,,,,,,,,,66b2385b08ab5b8fafdc94e3,Spanish,13 or older,"no, only English or Spanish",no,2025-07-24_11h02.49.844,empathy_intonation_perc_control,2024.2.4,MacIntel,126.5822785,66b2385b08ab5b8fafdc94e3,68817205a84113384fffdfe3,68824af6caa1af43b98f4836,,,,,,,,,,,,,,,,,,,,,,,,,,,23,,,,,,,,,,,,,,,,,,,,,,,,,,,,,,,,,,,,,,,,,,,,500.123,502.291,slightly disagree,0,22,22,22,1,I think that good manners are the most important thing a parent can teach their child.,0,1,0,0,,
,,,,,,,,,66b2385b08ab5b8fafdc94e3,Spanish,13 or older,"no, only English or Spanish",no,2025-07-24_11h02.49.844,empathy_intonation_perc_control,2024.2.4,MacIntel,126.5822785,66b2385b08ab5b8fafdc94e3,68817205a84113384fffdfe3,68824af6caa1af43b98f4836,,,,,,,,,,,,,,,,,,,,,,,,,,,24,,,,,,,,,,,,,,,,,,,,,,,,,,,,,,,,,,,,,,,,,,,,502.292,504.896,slightly disagree,0,23,23,23,1,I like to do things on the spur of the moment.,0,1,0,0,,
,,,,,,,,,66b2385b08ab5b8fafdc94e3,Spanish,13 or older,"no, only English or Spanish",no,2025-07-24_11h02.49.844,empathy_intonation_perc_control,2024.2.4,MacIntel,126.5822785,66b2385b08ab5b8fafdc94e3,68817205a84113384fffdfe3,68824af6caa1af43b98f4836,,,,,,,,,,,,,,,,,,,,,,,,,,,25,,,,,,,,,,,,,,,,,,,,,,,,,,,,,,,,,,,,,,,,,,,,504.897,506.787,slightly disagree,0,24,24,24,1,I am good at predicting how someone will feel.,1,0,1,0,,
