instructions_2afc.started,instructions_2afc.stopped,instructions_2afc_loop.thisRepN,instructions_2afc_loop.thisTrialN,instructions_2afc_loop.thisN,instructions_2afc_loop.thisIndex,instructions_2afc_loop.ran,instructions_text,continue_text,participant_id,"What variety of Spanish are you most familiar with? (e.g., Peruvian, Spanish, Mexican)",At what age did you begin learning Spanish?,Are you proficient in any languages other than English/Spanish?,"Are you familiar with Caribbean (e.g., Caribbean, Puerto Rican) or Galician Spanish?",date,expName,psychopyVersion,OS,frameRate,id,study_id,session,practice_2afc.started,practice_2afc.stopped,key_resp_2afc_practice.keys,key_resp_2afc_practice.corr,key_resp_2afc_practice.rt,key_resp_2afc_practice.duration,trials_2afc_practice_loop.thisRepN,trials_2afc_practice_loop.thisTrialN,trials_2afc_practice_loop.thisN,trials_2afc_practice_loop.thisIndex,trials_2afc_practice_loop.ran,path,correct_response,check_2afc.started,check_2afc.stopped,trial_2afc.started,trial_2afc.stopped,key_resp_2afc_trial.keys,key_resp_2afc_trial.corr,key_resp_2afc_trial.rt,key_resp_2afc_trial.duration,trials_2afc_loop.thisRepN,trials_2afc_loop.thisTrialN,trials_2afc_loop.thisN,trials_2afc_loop.thisIndex,trials_2afc_loop.ran,item_num,target,variety,instructions_lextale.started,instructions_lextale.stopped,instructions_lextale_loop.thisRepN,instructions_lextale_loop.thisTrialN,instructions_lextale_loop.thisN,instructions_lextale_loop.thisIndex,instructions_lextale_loop.ran,practice_lextale.started,practice_lextale.stopped,key_resp_lextale_practice.keys,key_resp_lextale_practice.corr,key_resp_lextale_practice.rt,key_resp_lextale_practice.duration,practice_feedback_lextale.started,practice_feedback_lextale.stopped,trials_lextale_practice_loop.thisRepN,trials_lextale_practice_loop.thisTrialN,trials_lextale_practice_loop.thisN,trials_lextale_practice_loop.thisIndex,trials_lextale_practice_loop.ran,stim,word,prac_button_real,prac_button_false,check_lextale.started,check_lextale.stopped,trial_lextale.started,trial_lextale.stopped,key_resp_lextale_trial.keys,key_resp_lextale_trial.corr,key_resp_lextale_trial.rt,key_resp_lextale_trial.duration,trials_lextale_loop.thisRepN,trials_lextale_loop.thisTrialN,trials_lextale_loop.thisN,trials_lextale_loop.thisIndex,trials_lextale_loop.ran,button_real,button_false,instructions_eq.started,instructions_eq.stopped,trial_eq.started,trial_eq.stopped,slider_eq_trial.response,trials_eq_loop.thisRepN,trials_eq_loop.thisTrialN,trials_eq_loop.thisN,trials_eq_loop.thisIndex,trials_eq_loop.ran,item,is_test_item,is_distractor,is_agree_score,is_disagree_score,end_exp.started,end_exp.stopped
0.0187,27.3131,0,0,0,0,1,"In the following task you are going to hear a series of utterances. 

  You will decide if the utterances sound like questions or not using your keyboard.", (press the spacebar to continue),66c8abe49537b182dcbd2049,Colombian,13 or older,"no, only English or Spanish",no,2025-07-23_21h55.46.971,empathy_intonation_perc_control,2024.2.4,Win32,59.88023952,66c8abe49537b182dcbd2049,68817205a84113384fffdfe3,68819208f69c572f0ca7216c,,,,,,,,,,,,,,,,,,,,,,,,,,,,,,,,,,,,,,,,,,,,,,,,,,,,,,,,,,,,,,,,,,,,,,,,,,,,,,,,,,,,,
27.3137,36.7454,0,1,1,1,1,"If you believe the utterance is a question, type '1' (for 'yes') and if you do not 
  believe it is a question type '0' (for 'no').

  Let's practice a bit...", (press the spacebar to continue),66c8abe49537b182dcbd2049,Colombian,13 or older,"no, only English or Spanish",no,2025-07-23_21h55.46.971,empathy_intonation_perc_control,2024.2.4,Win32,59.88023952,66c8abe49537b182dcbd2049,68817205a84113384fffdfe3,68819208f69c572f0ca7216c,,,,,,,,,,,,,,,,,,,,,,,,,,,,,,,,,,,,,,,,,,,,,,,,,,,,,,,,,,,,,,,,,,,,,,,,,,,,,,,,,,,,,
,,,,,,,,,66c8abe49537b182dcbd2049,Colombian,13 or older,"no, only English or Spanish",no,2025-07-23_21h55.46.971,empathy_intonation_perc_control,2024.2.4,Win32,59.88023952,66c8abe49537b182dcbd2049,68817205a84113384fffdfe3,68819208f69c572f0ca7216c,36.7569,40.7063,0,1,3.4216,,0,0,0,6,1,./stim/wavs/peruvian_statement_filler_El-nino-habla-con-su-madre.wav,0,,,,,,,,,,,,,,,,,,,,,,,,,,,,,,,,,,,,,,,,,,,,,,,,,,,,,,,,,,,,,,,,,,,,,,,,
,,,,,,,,,66c8abe49537b182dcbd2049,Colombian,13 or older,"no, only English or Spanish",no,2025-07-23_21h55.46.971,empathy_intonation_perc_control,2024.2.4,Win32,59.88023952,66c8abe49537b182dcbd2049,68817205a84113384fffdfe3,68819208f69c572f0ca7216c,40.7074,44.1558,1,1,2.9173,,0,1,1,0,1,./stim/wavs/castilian_question_filler_Mi-esposo-conoce-al-chico.wav,1,,,,,,,,,,,,,,,,,,,,,,,,,,,,,,,,,,,,,,,,,,,,,,,,,,,,,,,,,,,,,,,,,,,,,,,,
,,,,,,,,,66c8abe49537b182dcbd2049,Colombian,13 or older,"no, only English or Spanish",no,2025-07-23_21h55.46.971,empathy_intonation_perc_control,2024.2.4,Win32,59.88023952,66c8abe49537b182dcbd2049,68817205a84113384fffdfe3,68819208f69c572f0ca7216c,44.1572,48.5746,1,1,3.8884,,0,2,2,1,1,./stim/wavs/argentine_question_filler_Mi-vecino-habla-mucho.wav,1,,,,,,,,,,,,,,,,,,,,,,,,,,,,,,,,,,,,,,,,,,,,,,,,,,,,,,,,,,,,,,,,,,,,,,,,
,,,,,,,,,66c8abe49537b182dcbd2049,Colombian,13 or older,"no, only English or Spanish",no,2025-07-23_21h55.46.971,empathy_intonation_perc_control,2024.2.4,Win32,59.88023952,66c8abe49537b182dcbd2049,68817205a84113384fffdfe3,68819208f69c572f0ca7216c,48.5751,51.1586,0,1,2.0614,,0,3,3,4,1,./stim/wavs/cuban_statement_filler_Cocinabas-por-la-noche.wav,0,,,,,,,,,,,,,,,,,,,,,,,,,,,,,,,,,,,,,,,,,,,,,,,,,,,,,,,,,,,,,,,,,,,,,,,,
,,,,,,,,,66c8abe49537b182dcbd2049,Colombian,13 or older,"no, only English or Spanish",no,2025-07-23_21h55.46.971,empathy_intonation_perc_control,2024.2.4,Win32,59.88023952,66c8abe49537b182dcbd2049,68817205a84113384fffdfe3,68819208f69c572f0ca7216c,51.1591,53.5768,0,1,1.9125,,0,4,4,5,1,./stim/wavs/andalusian_statement_filler_Alberto-nunca-se-afeita.wav,0,,,,,,,,,,,,,,,,,,,,,,,,,,,,,,,,,,,,,,,,,,,,,,,,,,,,,,,,,,,,,,,,,,,,,,,,
,,,,,,,,,66c8abe49537b182dcbd2049,Colombian,13 or older,"no, only English or Spanish",no,2025-07-23_21h55.46.971,empathy_intonation_perc_control,2024.2.4,Win32,59.88023952,66c8abe49537b182dcbd2049,68817205a84113384fffdfe3,68819208f69c572f0ca7216c,53.5777,56.0928,1,1,1.9829,,0,5,5,2,1,./stim/wavs/chilean_question_filler_Mi-padre-cantaba-bien.wav,1,,,,,,,,,,,,,,,,,,,,,,,,,,,,,,,,,,,,,,,,,,,,,,,,,,,,,,,,,,,,,,,,,,,,,,,,
,,,,,,,,,66c8abe49537b182dcbd2049,Colombian,13 or older,"no, only English or Spanish",no,2025-07-23_21h55.46.971,empathy_intonation_perc_control,2024.2.4,Win32,59.88023952,66c8abe49537b182dcbd2049,68817205a84113384fffdfe3,68819208f69c572f0ca7216c,56.0933,59.7903,0,1,3.1521,,0,6,6,7,1,./stim/wavs/puertorican_statement_filler_La-nina-pinta-con-su-amiga.wav,0,,,,,,,,,,,,,,,,,,,,,,,,,,,,,,,,,,,,,,,,,,,,,,,,,,,,,,,,,,,,,,,,,,,,,,,,
,,,,,,,,,66c8abe49537b182dcbd2049,Colombian,13 or older,"no, only English or Spanish",no,2025-07-23_21h55.46.971,empathy_intonation_perc_control,2024.2.4,Win32,59.88023952,66c8abe49537b182dcbd2049,68817205a84113384fffdfe3,68819208f69c572f0ca7216c,59.7908,62.1711,1,1,1.8484,,0,7,7,3,1,./stim/wavs/mexican_question_filler_Felipe-no-tiene-contrasena.wav,1,,,,,,,,,,,,,,,,,,,,,,,,,,,,,,,,,,,,,,,,,,,,,,,,,,,,,,,,,,,,,,,,,,,,,,,,
,,,,,,,,,66c8abe49537b182dcbd2049,Colombian,13 or older,"no, only English or Spanish",no,2025-07-23_21h55.46.971,empathy_intonation_perc_control,2024.2.4,Win32,59.88023952,66c8abe49537b182dcbd2049,68817205a84113384fffdfe3,68819208f69c572f0ca7216c,,,,,,,,,,,,,,62.1715,102.4903,,,,,,,,,,,,,,,,,,,,,,,,,,,,,,,,,,,,,,,,,,,,,,,,,,,,,,,,,,,,,,,,,,,,,,
,,,,,,,,,66c8abe49537b182dcbd2049,Colombian,13 or older,"no, only English or Spanish",no,2025-07-23_21h55.46.971,empathy_intonation_perc_control,2024.2.4,Win32,59.88023952,66c8abe49537b182dcbd2049,68817205a84113384fffdfe3,68819208f69c572f0ca7216c,,,,,,,,,,,,./stim/wavs/mexican_mismatch_interrogative-total-yn_Mi-novio-viene-del-lago.wav,1,,,102.5006,105.2411,1,1,2.2178,,0,0,0,37,1,38,0,mexican,,,,,,,,,,,,,,,,,,,,,,,,,,,,,,,,,,,,,,,,,,,,,,,,,,,,,,,,
,,,,,,,,,66c8abe49537b182dcbd2049,Colombian,13 or older,"no, only English or Spanish",no,2025-07-23_21h55.46.971,empathy_intonation_perc_control,2024.2.4,Win32,59.88023952,66c8abe49537b182dcbd2049,68817205a84113384fffdfe3,68819208f69c572f0ca7216c,,,,,,,,,,,,./stim/wavs/puertorican_mismatch_interrogative-total-yn_El-nino-oye-el-rio.wav,1,,,105.2417,107.4739,0,0,1.7009,,0,1,1,40,1,41,1,puertorican,,,,,,,,,,,,,,,,,,,,,,,,,,,,,,,,,,,,,,,,,,,,,,,,,,,,,,,,
,,,,,,,,,66c8abe49537b182dcbd2049,Colombian,13 or older,"no, only English or Spanish",no,2025-07-23_21h55.46.971,empathy_intonation_perc_control,2024.2.4,Win32,59.88023952,66c8abe49537b182dcbd2049,68817205a84113384fffdfe3,68819208f69c572f0ca7216c,,,,,,,,,,,,./stim/wavs/cuban_mismatch_interrogative-total-yn_El-nino-oye-el-rio.wav,1,,,107.4744,109.6244,0,0,1.6186,,0,2,2,30,1,31,1,cuban,,,,,,,,,,,,,,,,,,,,,,,,,,,,,,,,,,,,,,,,,,,,,,,,,,,,,,,,
,,,,,,,,,66c8abe49537b182dcbd2049,Colombian,13 or older,"no, only English or Spanish",no,2025-07-23_21h55.46.971,empathy_intonation_perc_control,2024.2.4,Win32,59.88023952,66c8abe49537b182dcbd2049,68817205a84113384fffdfe3,68819208f69c572f0ca7216c,,,,,,,,,,,,./stim/wavs/puertorican_match_declarative-broad-focus_Ana-lleva-el-abrigo.wav,0,,,109.6252,111.5186,0,1,1.3558,,0,3,3,62,1,63,0,puertorican,,,,,,,,,,,,,,,,,,,,,,,,,,,,,,,,,,,,,,,,,,,,,,,,,,,,,,,,
,,,,,,,,,66c8abe49537b182dcbd2049,Colombian,13 or older,"no, only English or Spanish",no,2025-07-23_21h55.46.971,empathy_intonation_perc_control,2024.2.4,Win32,59.88023952,66c8abe49537b182dcbd2049,68817205a84113384fffdfe3,68819208f69c572f0ca7216c,,,,,,,,,,,,./stim/wavs/puertorican_mismatch_declarative-broad-focus_El-hombre-mira-la-luna.wav,0,,,111.5195,113.9557,0,1,1.917,,0,4,4,84,1,85,0,puertorican,,,,,,,,,,,,,,,,,,,,,,,,,,,,,,,,,,,,,,,,,,,,,,,,,,,,,,,,
,,,,,,,,,66c8abe49537b182dcbd2049,Colombian,13 or older,"no, only English or Spanish",no,2025-07-23_21h55.46.971,empathy_intonation_perc_control,2024.2.4,Win32,59.88023952,66c8abe49537b182dcbd2049,68817205a84113384fffdfe3,68819208f69c572f0ca7216c,,,,,,,,,,,,./stim/wavs/castilian_match_interrogative-total-yn_Mariano-habla-del-tiempo.wav,1,,,113.9564,116.3062,1,1,1.8169,,0,5,5,4,1,5,0,castilian,,,,,,,,,,,,,,,,,,,,,,,,,,,,,,,,,,,,,,,,,,,,,,,,,,,,,,,,
,,,,,,,,,66c8abe49537b182dcbd2049,Colombian,13 or older,"no, only English or Spanish",no,2025-07-23_21h55.46.971,empathy_intonation_perc_control,2024.2.4,Win32,59.88023952,66c8abe49537b182dcbd2049,68817205a84113384fffdfe3,68819208f69c572f0ca7216c,,,,,,,,,,,,./stim/wavs/cuban_match_declarative-broad-focus_Manuela-vende-el-carro.wav,0,,,116.307,118.8054,0,1,1.9659,,0,6,6,52,1,53,0,cuban,,,,,,,,,,,,,,,,,,,,,,,,,,,,,,,,,,,,,,,,,,,,,,,,,,,,,,,,
,,,,,,,,,66c8abe49537b182dcbd2049,Colombian,13 or older,"no, only English or Spanish",no,2025-07-23_21h55.46.971,empathy_intonation_perc_control,2024.2.4,Win32,59.88023952,66c8abe49537b182dcbd2049,68817205a84113384fffdfe3,68819208f69c572f0ca7216c,,,,,,,,,,,,./stim/wavs/puertorican_match_declarative-broad-focus_Daniel-iba-a-Bolivia.wav,0,,,118.8061,121.2894,0,1,1.9619,,0,7,7,63,1,64,0,puertorican,,,,,,,,,,,,,,,,,,,,,,,,,,,,,,,,,,,,,,,,,,,,,,,,,,,,,,,,
,,,,,,,,,66c8abe49537b182dcbd2049,Colombian,13 or older,"no, only English or Spanish",no,2025-07-23_21h55.46.971,empathy_intonation_perc_control,2024.2.4,Win32,59.88023952,66c8abe49537b182dcbd2049,68817205a84113384fffdfe3,68819208f69c572f0ca7216c,,,,,,,,,,,,./stim/wavs/castilian_mismatch_interrogative-total-yn_Mi-madre-come-la-fruta.wav,1,,,121.2899,123.6721,1,1,1.8497,,0,8,8,26,1,27,0,castilian,,,,,,,,,,,,,,,,,,,,,,,,,,,,,,,,,,,,,,,,,,,,,,,,,,,,,,,,
,,,,,,,,,66c8abe49537b182dcbd2049,Colombian,13 or older,"no, only English or Spanish",no,2025-07-23_21h55.46.971,empathy_intonation_perc_control,2024.2.4,Win32,59.88023952,66c8abe49537b182dcbd2049,68817205a84113384fffdfe3,68819208f69c572f0ca7216c,,,,,,,,,,,,./stim/wavs/mexican_match_declarative-broad-focus_Emilio-ama-la-marcha.wav,0,,,123.6728,126.5063,1,0,2.3003,,0,9,9,59,1,60,0,mexican,,,,,,,,,,,,,,,,,,,,,,,,,,,,,,,,,,,,,,,,,,,,,,,,,,,,,,,,
,,,,,,,,,66c8abe49537b182dcbd2049,Colombian,13 or older,"no, only English or Spanish",no,2025-07-23_21h55.46.971,empathy_intonation_perc_control,2024.2.4,Win32,59.88023952,66c8abe49537b182dcbd2049,68817205a84113384fffdfe3,68819208f69c572f0ca7216c,,,,,,,,,,,,./stim/wavs/puertorican_match_interrogative-total-yn_David-leia-el-libro.wav,1,,,126.5067,128.9893,0,0,1.9652,,0,10,10,20,1,21,1,puertorican,,,,,,,,,,,,,,,,,,,,,,,,,,,,,,,,,,,,,,,,,,,,,,,,,,,,,,,,
,,,,,,,,,66c8abe49537b182dcbd2049,Colombian,13 or older,"no, only English or Spanish",no,2025-07-23_21h55.46.971,empathy_intonation_perc_control,2024.2.4,Win32,59.88023952,66c8abe49537b182dcbd2049,68817205a84113384fffdfe3,68819208f69c572f0ca7216c,,,,,,,,,,,,./stim/wavs/cuban_mismatch_declarative-broad-focus_Mi-tia-odia-la-lluvia.wav,0,,,128.9897,131.4056,0,1,1.8845,,0,11,11,77,1,78,0,cuban,,,,,,,,,,,,,,,,,,,,,,,,,,,,,,,,,,,,,,,,,,,,,,,,,,,,,,,,
,,,,,,,,,66c8abe49537b182dcbd2049,Colombian,13 or older,"no, only English or Spanish",no,2025-07-23_21h55.46.971,empathy_intonation_perc_control,2024.2.4,Win32,59.88023952,66c8abe49537b182dcbd2049,68817205a84113384fffdfe3,68819208f69c572f0ca7216c,,,,,,,,,,,,./stim/wavs/puertorican_mismatch_interrogative-total-yn_La-nina-lava-el-plato.wav,1,,,131.4063,133.8057,1,1,1.8677,,0,12,12,42,1,43,1,puertorican,,,,,,,,,,,,,,,,,,,,,,,,,,,,,,,,,,,,,,,,,,,,,,,,,,,,,,,,
,,,,,,,,,66c8abe49537b182dcbd2049,Colombian,13 or older,"no, only English or Spanish",no,2025-07-23_21h55.46.971,empathy_intonation_perc_control,2024.2.4,Win32,59.88023952,66c8abe49537b182dcbd2049,68817205a84113384fffdfe3,68819208f69c572f0ca7216c,,,,,,,,,,,,./stim/wavs/cuban_match_declarative-broad-focus_Daniel-iba-a-Bolivia.wav,0,,,133.8062,136.4716,1,0,2.1354,,0,13,13,51,1,52,0,cuban,,,,,,,,,,,,,,,,,,,,,,,,,,,,,,,,,,,,,,,,,,,,,,,,,,,,,,,,
,,,,,,,,,66c8abe49537b182dcbd2049,Colombian,13 or older,"no, only English or Spanish",no,2025-07-23_21h55.46.971,empathy_intonation_perc_control,2024.2.4,Win32,59.88023952,66c8abe49537b182dcbd2049,68817205a84113384fffdfe3,68819208f69c572f0ca7216c,,,,,,,,,,,,./stim/wavs/puertorican_match_interrogative-total-yn_Ana-lleva-el-abrigo.wav,1,,,136.4723,139.0697,0,0,2.0642,,0,14,14,18,1,19,1,puertorican,,,,,,,,,,,,,,,,,,,,,,,,,,,,,,,,,,,,,,,,,,,,,,,,,,,,,,,,
,,,,,,,,,66c8abe49537b182dcbd2049,Colombian,13 or older,"no, only English or Spanish",no,2025-07-23_21h55.46.971,empathy_intonation_perc_control,2024.2.4,Win32,59.88023952,66c8abe49537b182dcbd2049,68817205a84113384fffdfe3,68819208f69c572f0ca7216c,,,,,,,,,,,,./stim/wavs/castilian_match_declarative-broad-focus_Marta-abre-el-regalo.wav,0,,,139.0702,141.9389,0,1,2.351,,0,15,15,49,1,50,0,castilian,,,,,,,,,,,,,,,,,,,,,,,,,,,,,,,,,,,,,,,,,,,,,,,,,,,,,,,,
,,,,,,,,,66c8abe49537b182dcbd2049,Colombian,13 or older,"no, only English or Spanish",no,2025-07-23_21h55.46.971,empathy_intonation_perc_control,2024.2.4,Win32,59.88023952,66c8abe49537b182dcbd2049,68817205a84113384fffdfe3,68819208f69c572f0ca7216c,,,,,,,,,,,,./stim/wavs/mexican_match_interrogative-total-yn_Daniel-iba-a-Bolivia.wav,1,,,141.9394,143.9889,1,1,1.5291,,0,16,16,13,1,14,0,mexican,,,,,,,,,,,,,,,,,,,,,,,,,,,,,,,,,,,,,,,,,,,,,,,,,,,,,,,,
,,,,,,,,,66c8abe49537b182dcbd2049,Colombian,13 or older,"no, only English or Spanish",no,2025-07-23_21h55.46.971,empathy_intonation_perc_control,2024.2.4,Win32,59.88023952,66c8abe49537b182dcbd2049,68817205a84113384fffdfe3,68819208f69c572f0ca7216c,,,,,,,,,,,,./stim/wavs/castilian_match_declarative-broad-focus_Mariano-habla-del-tiempo.wav,0,,,143.9892,146.7545,0,1,2.2337,,0,17,17,48,1,49,0,castilian,,,,,,,,,,,,,,,,,,,,,,,,,,,,,,,,,,,,,,,,,,,,,,,,,,,,,,,,
,,,,,,,,,66c8abe49537b182dcbd2049,Colombian,13 or older,"no, only English or Spanish",no,2025-07-23_21h55.46.971,empathy_intonation_perc_control,2024.2.4,Win32,59.88023952,66c8abe49537b182dcbd2049,68817205a84113384fffdfe3,68819208f69c572f0ca7216c,,,,,,,,,,,,./stim/wavs/mexican_match_declarative-broad-focus_David-leia-el-libro.wav,0,,,146.7552,149.0548,0,1,1.7668,,0,18,18,58,1,59,0,mexican,,,,,,,,,,,,,,,,,,,,,,,,,,,,,,,,,,,,,,,,,,,,,,,,,,,,,,,,
,,,,,,,,,66c8abe49537b182dcbd2049,Colombian,13 or older,"no, only English or Spanish",no,2025-07-23_21h55.46.971,empathy_intonation_perc_control,2024.2.4,Win32,59.88023952,66c8abe49537b182dcbd2049,68817205a84113384fffdfe3,68819208f69c572f0ca7216c,,,,,,,,,,,,./stim/wavs/cuban_mismatch_declarative-broad-focus_El-bebe-comia-muy-bien.wav,0,,,149.0553,151.6367,0,1,2.0495,,0,19,19,73,1,74,0,cuban,,,,,,,,,,,,,,,,,,,,,,,,,,,,,,,,,,,,,,,,,,,,,,,,,,,,,,,,
,,,,,,,,,66c8abe49537b182dcbd2049,Colombian,13 or older,"no, only English or Spanish",no,2025-07-23_21h55.46.971,empathy_intonation_perc_control,2024.2.4,Win32,59.88023952,66c8abe49537b182dcbd2049,68817205a84113384fffdfe3,68819208f69c572f0ca7216c,,,,,,,,,,,,./stim/wavs/mexican_mismatch_declarative-broad-focus_Mi-tia-odia-la-lluvia.wav,0,,,151.6372,153.704,0,1,1.5343,,0,20,20,82,1,83,0,mexican,,,,,,,,,,,,,,,,,,,,,,,,,,,,,,,,,,,,,,,,,,,,,,,,,,,,,,,,
,,,,,,,,,66c8abe49537b182dcbd2049,Colombian,13 or older,"no, only English or Spanish",no,2025-07-23_21h55.46.971,empathy_intonation_perc_control,2024.2.4,Win32,59.88023952,66c8abe49537b182dcbd2049,68817205a84113384fffdfe3,68819208f69c572f0ca7216c,,,,,,,,,,,,./stim/wavs/cuban_match_interrogative-total-yn_Ana-lleva-el-abrigo.wav,1,,,153.7049,157.0212,1,1,2.7838,,0,21,21,6,1,7,1,cuban,,,,,,,,,,,,,,,,,,,,,,,,,,,,,,,,,,,,,,,,,,,,,,,,,,,,,,,,
,,,,,,,,,66c8abe49537b182dcbd2049,Colombian,13 or older,"no, only English or Spanish",no,2025-07-23_21h55.46.971,empathy_intonation_perc_control,2024.2.4,Win32,59.88023952,66c8abe49537b182dcbd2049,68817205a84113384fffdfe3,68819208f69c572f0ca7216c,,,,,,,,,,,,./stim/wavs/mexican_mismatch_declarative-broad-focus_El-bebe-comia-muy-bien.wav,0,,,157.0217,159.2862,1,0,1.7457,,0,22,22,78,1,79,0,mexican,,,,,,,,,,,,,,,,,,,,,,,,,,,,,,,,,,,,,,,,,,,,,,,,,,,,,,,,
,,,,,,,,,66c8abe49537b182dcbd2049,Colombian,13 or older,"no, only English or Spanish",no,2025-07-23_21h55.46.971,empathy_intonation_perc_control,2024.2.4,Win32,59.88023952,66c8abe49537b182dcbd2049,68817205a84113384fffdfe3,68819208f69c572f0ca7216c,,,,,,,,,,,,./stim/wavs/cuban_match_declarative-broad-focus_Ana-lleva-el-abrigo.wav,0,,,159.2871,161.6036,0,1,1.7833,,0,23,23,50,1,51,0,cuban,,,,,,,,,,,,,,,,,,,,,,,,,,,,,,,,,,,,,,,,,,,,,,,,,,,,,,,,
,,,,,,,,,66c8abe49537b182dcbd2049,Colombian,13 or older,"no, only English or Spanish",no,2025-07-23_21h55.46.971,empathy_intonation_perc_control,2024.2.4,Win32,59.88023952,66c8abe49537b182dcbd2049,68817205a84113384fffdfe3,68819208f69c572f0ca7216c,,,,,,,,,,,,./stim/wavs/cuban_match_interrogative-total-yn_Maria-bebe-el-vino.wav,1,,,161.6043,163.9372,1,1,1.8013,,0,24,24,9,1,10,1,cuban,,,,,,,,,,,,,,,,,,,,,,,,,,,,,,,,,,,,,,,,,,,,,,,,,,,,,,,,
,,,,,,,,,66c8abe49537b182dcbd2049,Colombian,13 or older,"no, only English or Spanish",no,2025-07-23_21h55.46.971,empathy_intonation_perc_control,2024.2.4,Win32,59.88023952,66c8abe49537b182dcbd2049,68817205a84113384fffdfe3,68819208f69c572f0ca7216c,,,,,,,,,,,,./stim/wavs/castilian_mismatch_declarative-broad-focus_Mi-tia-odia-la-lluvia.wav,0,,,163.9384,167.32,0,1,2.8632,,0,25,25,72,1,73,0,castilian,,,,,,,,,,,,,,,,,,,,,,,,,,,,,,,,,,,,,,,,,,,,,,,,,,,,,,,,
,,,,,,,,,66c8abe49537b182dcbd2049,Colombian,13 or older,"no, only English or Spanish",no,2025-07-23_21h55.46.971,empathy_intonation_perc_control,2024.2.4,Win32,59.88023952,66c8abe49537b182dcbd2049,68817205a84113384fffdfe3,68819208f69c572f0ca7216c,,,,,,,,,,,,./stim/wavs/puertorican_match_interrogative-total-yn_Daniel-iba-a-Bolivia.wav,1,,,167.3205,169.9034,1,1,2.05,,0,26,26,19,1,20,1,puertorican,,,,,,,,,,,,,,,,,,,,,,,,,,,,,,,,,,,,,,,,,,,,,,,,,,,,,,,,
,,,,,,,,,66c8abe49537b182dcbd2049,Colombian,13 or older,"no, only English or Spanish",no,2025-07-23_21h55.46.971,empathy_intonation_perc_control,2024.2.4,Win32,59.88023952,66c8abe49537b182dcbd2049,68817205a84113384fffdfe3,68819208f69c572f0ca7216c,,,,,,,,,,,,./stim/wavs/mexican_match_declarative-broad-focus_Ana-lleva-el-abrigo.wav,0,,,169.9039,172.0689,0,1,1.6336,,0,27,27,56,1,57,0,mexican,,,,,,,,,,,,,,,,,,,,,,,,,,,,,,,,,,,,,,,,,,,,,,,,,,,,,,,,
,,,,,,,,,66c8abe49537b182dcbd2049,Colombian,13 or older,"no, only English or Spanish",no,2025-07-23_21h55.46.971,empathy_intonation_perc_control,2024.2.4,Win32,59.88023952,66c8abe49537b182dcbd2049,68817205a84113384fffdfe3,68819208f69c572f0ca7216c,,,,,,,,,,,,./stim/wavs/cuban_match_declarative-broad-focus_Marta-abre-el-regalo.wav,0,,,172.0696,175.2358,1,0,2.633,,0,28,28,55,1,56,0,cuban,,,,,,,,,,,,,,,,,,,,,,,,,,,,,,,,,,,,,,,,,,,,,,,,,,,,,,,,
,,,,,,,,,66c8abe49537b182dcbd2049,Colombian,13 or older,"no, only English or Spanish",no,2025-07-23_21h55.46.971,empathy_intonation_perc_control,2024.2.4,Win32,59.88023952,66c8abe49537b182dcbd2049,68817205a84113384fffdfe3,68819208f69c572f0ca7216c,,,,,,,,,,,,./stim/wavs/castilian_match_interrogative-total-yn_Marta-abre-el-regalo.wav,1,,,175.2363,177.2864,1,1,1.5177,,0,29,29,5,1,6,0,castilian,,,,,,,,,,,,,,,,,,,,,,,,,,,,,,,,,,,,,,,,,,,,,,,,,,,,,,,,
,,,,,,,,,66c8abe49537b182dcbd2049,Colombian,13 or older,"no, only English or Spanish",no,2025-07-23_21h55.46.971,empathy_intonation_perc_control,2024.2.4,Win32,59.88023952,66c8abe49537b182dcbd2049,68817205a84113384fffdfe3,68819208f69c572f0ca7216c,,,,,,,,,,,,./stim/wavs/cuban_mismatch_interrogative-total-yn_El-hombre-mira-la-luna.wav,1,,,177.2869,179.9191,0,0,2.1025,,0,30,30,29,1,30,1,cuban,,,,,,,,,,,,,,,,,,,,,,,,,,,,,,,,,,,,,,,,,,,,,,,,,,,,,,,,
,,,,,,,,,66c8abe49537b182dcbd2049,Colombian,13 or older,"no, only English or Spanish",no,2025-07-23_21h55.46.971,empathy_intonation_perc_control,2024.2.4,Win32,59.88023952,66c8abe49537b182dcbd2049,68817205a84113384fffdfe3,68819208f69c572f0ca7216c,,,,,,,,,,,,./stim/wavs/castilian_match_interrogative-total-yn_David-leia-el-libro.wav,1,,,179.9199,182.5364,0,0,2.085,,0,31,31,0,1,1,0,castilian,,,,,,,,,,,,,,,,,,,,,,,,,,,,,,,,,,,,,,,,,,,,,,,,,,,,,,,,
,,,,,,,,,66c8abe49537b182dcbd2049,Colombian,13 or older,"no, only English or Spanish",no,2025-07-23_21h55.46.971,empathy_intonation_perc_control,2024.2.4,Win32,59.88023952,66c8abe49537b182dcbd2049,68817205a84113384fffdfe3,68819208f69c572f0ca7216c,,,,,,,,,,,,./stim/wavs/castilian_match_declarative-broad-focus_Manuela-vende-el-carro.wav,0,,,182.5371,185.3688,1,0,2.3,,0,32,32,46,1,47,0,castilian,,,,,,,,,,,,,,,,,,,,,,,,,,,,,,,,,,,,,,,,,,,,,,,,,,,,,,,,
,,,,,,,,,66c8abe49537b182dcbd2049,Colombian,13 or older,"no, only English or Spanish",no,2025-07-23_21h55.46.971,empathy_intonation_perc_control,2024.2.4,Win32,59.88023952,66c8abe49537b182dcbd2049,68817205a84113384fffdfe3,68819208f69c572f0ca7216c,,,,,,,,,,,,./stim/wavs/mexican_mismatch_declarative-broad-focus_El-hombre-mira-la-luna.wav,0,,,185.3695,187.6638,0,1,1.7552,,0,33,33,79,1,80,0,mexican,,,,,,,,,,,,,,,,,,,,,,,,,,,,,,,,,,,,,,,,,,,,,,,,,,,,,,,,
,,,,,,,,,66c8abe49537b182dcbd2049,Colombian,13 or older,"no, only English or Spanish",no,2025-07-23_21h55.46.971,empathy_intonation_perc_control,2024.2.4,Win32,59.88023952,66c8abe49537b182dcbd2049,68817205a84113384fffdfe3,68819208f69c572f0ca7216c,,,,,,,,,,,,./stim/wavs/mexican_mismatch_declarative-broad-focus_La-maestra-vive-en-Paris.wav,0,,,187.6649,190.952,1,0,2.7666,,0,34,34,80,1,81,0,mexican,,,,,,,,,,,,,,,,,,,,,,,,,,,,,,,,,,,,,,,,,,,,,,,,,,,,,,,,
,,,,,,,,,66c8abe49537b182dcbd2049,Colombian,13 or older,"no, only English or Spanish",no,2025-07-23_21h55.46.971,empathy_intonation_perc_control,2024.2.4,Win32,59.88023952,66c8abe49537b182dcbd2049,68817205a84113384fffdfe3,68819208f69c572f0ca7216c,,,,,,,,,,,,./stim/wavs/mexican_match_declarative-broad-focus_Marta-abre-el-regalo.wav,0,,,190.9524,193.3683,0,1,1.8953,,0,35,35,61,1,62,0,mexican,,,,,,,,,,,,,,,,,,,,,,,,,,,,,,,,,,,,,,,,,,,,,,,,,,,,,,,,
,,,,,,,,,66c8abe49537b182dcbd2049,Colombian,13 or older,"no, only English or Spanish",no,2025-07-23_21h55.46.971,empathy_intonation_perc_control,2024.2.4,Win32,59.88023952,66c8abe49537b182dcbd2049,68817205a84113384fffdfe3,68819208f69c572f0ca7216c,,,,,,,,,,,,./stim/wavs/puertorican_match_interrogative-total-yn_Emilio-ama-la-marcha.wav,1,,,193.3687,195.5016,1,1,1.602,,0,36,36,21,1,22,1,puertorican,,,,,,,,,,,,,,,,,,,,,,,,,,,,,,,,,,,,,,,,,,,,,,,,,,,,,,,,
,,,,,,,,,66c8abe49537b182dcbd2049,Colombian,13 or older,"no, only English or Spanish",no,2025-07-23_21h55.46.971,empathy_intonation_perc_control,2024.2.4,Win32,59.88023952,66c8abe49537b182dcbd2049,68817205a84113384fffdfe3,68819208f69c572f0ca7216c,,,,,,,,,,,,./stim/wavs/cuban_mismatch_declarative-broad-focus_El-hombre-mira-la-luna.wav,0,,,195.5019,197.4836,0,1,1.4485,,0,37,37,74,1,75,0,cuban,,,,,,,,,,,,,,,,,,,,,,,,,,,,,,,,,,,,,,,,,,,,,,,,,,,,,,,,
,,,,,,,,,66c8abe49537b182dcbd2049,Colombian,13 or older,"no, only English or Spanish",no,2025-07-23_21h55.46.971,empathy_intonation_perc_control,2024.2.4,Win32,59.88023952,66c8abe49537b182dcbd2049,68817205a84113384fffdfe3,68819208f69c572f0ca7216c,,,,,,,,,,,,./stim/wavs/cuban_mismatch_interrogative-total-yn_Mi-madre-come-la-fruta.wav,1,,,197.4839,201.6844,0,0,3.667,,0,38,38,31,1,32,1,cuban,,,,,,,,,,,,,,,,,,,,,,,,,,,,,,,,,,,,,,,,,,,,,,,,,,,,,,,,
,,,,,,,,,66c8abe49537b182dcbd2049,Colombian,13 or older,"no, only English or Spanish",no,2025-07-23_21h55.46.971,empathy_intonation_perc_control,2024.2.4,Win32,59.88023952,66c8abe49537b182dcbd2049,68817205a84113384fffdfe3,68819208f69c572f0ca7216c,,,,,,,,,,,,./stim/wavs/cuban_mismatch_interrogative-total-yn_Mi-novio-viene-del-lago.wav,1,,,201.685,204.5848,1,1,2.3669,,0,39,39,32,1,33,1,cuban,,,,,,,,,,,,,,,,,,,,,,,,,,,,,,,,,,,,,,,,,,,,,,,,,,,,,,,,
,,,,,,,,,66c8abe49537b182dcbd2049,Colombian,13 or older,"no, only English or Spanish",no,2025-07-23_21h55.46.971,empathy_intonation_perc_control,2024.2.4,Win32,59.88023952,66c8abe49537b182dcbd2049,68817205a84113384fffdfe3,68819208f69c572f0ca7216c,,,,,,,,,,,,./stim/wavs/puertorican_mismatch_declarative-broad-focus_La-maestra-vive-en-Paris.wav,0,,,204.5853,207.8348,0,1,2.7177,,0,40,40,86,1,87,0,puertorican,,,,,,,,,,,,,,,,,,,,,,,,,,,,,,,,,,,,,,,,,,,,,,,,,,,,,,,,
,,,,,,,,,66c8abe49537b182dcbd2049,Colombian,13 or older,"no, only English or Spanish",no,2025-07-23_21h55.46.971,empathy_intonation_perc_control,2024.2.4,Win32,59.88023952,66c8abe49537b182dcbd2049,68817205a84113384fffdfe3,68819208f69c572f0ca7216c,,,,,,,,,,,,./stim/wavs/puertorican_match_interrogative-total-yn_Manuela-vende-el-carro.wav,1,,,207.8353,209.7959,1,1,1.4235,,0,41,41,22,1,23,1,puertorican,,,,,,,,,,,,,,,,,,,,,,,,,,,,,,,,,,,,,,,,,,,,,,,,,,,,,,,,
,,,,,,,,,66c8abe49537b182dcbd2049,Colombian,13 or older,"no, only English or Spanish",no,2025-07-23_21h55.46.971,empathy_intonation_perc_control,2024.2.4,Win32,59.88023952,66c8abe49537b182dcbd2049,68817205a84113384fffdfe3,68819208f69c572f0ca7216c,,,,,,,,,,,,./stim/wavs/castilian_mismatch_interrogative-total-yn_Mi-novio-viene-del-lago.wav,1,,,209.7968,212.4338,1,1,2.1167,,0,42,42,27,1,28,0,castilian,,,,,,,,,,,,,,,,,,,,,,,,,,,,,,,,,,,,,,,,,,,,,,,,,,,,,,,,
,,,,,,,,,66c8abe49537b182dcbd2049,Colombian,13 or older,"no, only English or Spanish",no,2025-07-23_21h55.46.971,empathy_intonation_perc_control,2024.2.4,Win32,59.88023952,66c8abe49537b182dcbd2049,68817205a84113384fffdfe3,68819208f69c572f0ca7216c,,,,,,,,,,,,./stim/wavs/castilian_mismatch_declarative-broad-focus_La-maestra-vive-en-Paris.wav,0,,,212.4349,214.8685,0,1,1.9138,,0,43,43,69,1,70,0,castilian,,,,,,,,,,,,,,,,,,,,,,,,,,,,,,,,,,,,,,,,,,,,,,,,,,,,,,,,
,,,,,,,,,66c8abe49537b182dcbd2049,Colombian,13 or older,"no, only English or Spanish",no,2025-07-23_21h55.46.971,empathy_intonation_perc_control,2024.2.4,Win32,59.88023952,66c8abe49537b182dcbd2049,68817205a84113384fffdfe3,68819208f69c572f0ca7216c,,,,,,,,,,,,./stim/wavs/mexican_match_interrogative-total-yn_Mariano-habla-del-tiempo.wav,1,,,214.8689,217.5174,1,1,2.1179,,0,44,44,16,1,17,0,mexican,,,,,,,,,,,,,,,,,,,,,,,,,,,,,,,,,,,,,,,,,,,,,,,,,,,,,,,,
,,,,,,,,,66c8abe49537b182dcbd2049,Colombian,13 or older,"no, only English or Spanish",no,2025-07-23_21h55.46.971,empathy_intonation_perc_control,2024.2.4,Win32,59.88023952,66c8abe49537b182dcbd2049,68817205a84113384fffdfe3,68819208f69c572f0ca7216c,,,,,,,,,,,,./stim/wavs/castilian_mismatch_interrogative-total-yn_La-maestra-vive-en-Paris.wav,1,,,217.5182,219.9505,1,1,1.8999,,0,45,45,24,1,25,0,castilian,,,,,,,,,,,,,,,,,,,,,,,,,,,,,,,,,,,,,,,,,,,,,,,,,,,,,,,,
,,,,,,,,,66c8abe49537b182dcbd2049,Colombian,13 or older,"no, only English or Spanish",no,2025-07-23_21h55.46.971,empathy_intonation_perc_control,2024.2.4,Win32,59.88023952,66c8abe49537b182dcbd2049,68817205a84113384fffdfe3,68819208f69c572f0ca7216c,,,,,,,,,,,,./stim/wavs/mexican_match_interrogative-total-yn_Marta-abre-el-regalo.wav,1,,,219.9509,223.1334,0,0,2.6501,,0,46,46,17,1,18,0,mexican,,,,,,,,,,,,,,,,,,,,,,,,,,,,,,,,,,,,,,,,,,,,,,,,,,,,,,,,
,,,,,,,,,66c8abe49537b182dcbd2049,Colombian,13 or older,"no, only English or Spanish",no,2025-07-23_21h55.46.971,empathy_intonation_perc_control,2024.2.4,Win32,59.88023952,66c8abe49537b182dcbd2049,68817205a84113384fffdfe3,68819208f69c572f0ca7216c,,,,,,,,,,,,./stim/wavs/cuban_match_interrogative-total-yn_Daniel-iba-a-Bolivia.wav,1,,,223.1343,225.4337,0,0,1.7669,,0,47,47,7,1,8,1,cuban,,,,,,,,,,,,,,,,,,,,,,,,,,,,,,,,,,,,,,,,,,,,,,,,,,,,,,,,
,,,,,,,,,66c8abe49537b182dcbd2049,Colombian,13 or older,"no, only English or Spanish",no,2025-07-23_21h55.46.971,empathy_intonation_perc_control,2024.2.4,Win32,59.88023952,66c8abe49537b182dcbd2049,68817205a84113384fffdfe3,68819208f69c572f0ca7216c,,,,,,,,,,,,./stim/wavs/mexican_match_interrogative-total-yn_Ana-lleva-el-abrigo.wav,1,,,225.4342,227.4172,1,1,1.4508,,0,48,48,12,1,13,0,mexican,,,,,,,,,,,,,,,,,,,,,,,,,,,,,,,,,,,,,,,,,,,,,,,,,,,,,,,,
,,,,,,,,,66c8abe49537b182dcbd2049,Colombian,13 or older,"no, only English or Spanish",no,2025-07-23_21h55.46.971,empathy_intonation_perc_control,2024.2.4,Win32,59.88023952,66c8abe49537b182dcbd2049,68817205a84113384fffdfe3,68819208f69c572f0ca7216c,,,,,,,,,,,,./stim/wavs/mexican_match_declarative-broad-focus_Daniel-iba-a-Bolivia.wav,0,,,227.4175,230.4993,1,0,2.562,,0,49,49,57,1,58,0,mexican,,,,,,,,,,,,,,,,,,,,,,,,,,,,,,,,,,,,,,,,,,,,,,,,,,,,,,,,
,,,,,,,,,66c8abe49537b182dcbd2049,Colombian,13 or older,"no, only English or Spanish",no,2025-07-23_21h55.46.971,empathy_intonation_perc_control,2024.2.4,Win32,59.88023952,66c8abe49537b182dcbd2049,68817205a84113384fffdfe3,68819208f69c572f0ca7216c,,,,,,,,,,,,./stim/wavs/cuban_match_interrogative-total-yn_Manuela-vende-el-carro.wav,1,,,230.4999,232.8332,0,0,1.8003,,0,50,50,8,1,9,1,cuban,,,,,,,,,,,,,,,,,,,,,,,,,,,,,,,,,,,,,,,,,,,,,,,,,,,,,,,,
,,,,,,,,,66c8abe49537b182dcbd2049,Colombian,13 or older,"no, only English or Spanish",no,2025-07-23_21h55.46.971,empathy_intonation_perc_control,2024.2.4,Win32,59.88023952,66c8abe49537b182dcbd2049,68817205a84113384fffdfe3,68819208f69c572f0ca7216c,,,,,,,,,,,,./stim/wavs/mexican_mismatch_interrogative-total-yn_Mi-tia-odia-la-lluvia.wav,1,,,232.8339,234.7499,1,1,1.3849,,0,51,51,38,1,39,0,mexican,,,,,,,,,,,,,,,,,,,,,,,,,,,,,,,,,,,,,,,,,,,,,,,,,,,,,,,,
,,,,,,,,,66c8abe49537b182dcbd2049,Colombian,13 or older,"no, only English or Spanish",no,2025-07-23_21h55.46.971,empathy_intonation_perc_control,2024.2.4,Win32,59.88023952,66c8abe49537b182dcbd2049,68817205a84113384fffdfe3,68819208f69c572f0ca7216c,,,,,,,,,,,,./stim/wavs/castilian_match_interrogative-total-yn_Maria-bebe-el-vino.wav,1,,,234.7508,236.5664,1,1,1.2844,,0,52,52,3,1,4,0,castilian,,,,,,,,,,,,,,,,,,,,,,,,,,,,,,,,,,,,,,,,,,,,,,,,,,,,,,,,
,,,,,,,,,66c8abe49537b182dcbd2049,Colombian,13 or older,"no, only English or Spanish",no,2025-07-23_21h55.46.971,empathy_intonation_perc_control,2024.2.4,Win32,59.88023952,66c8abe49537b182dcbd2049,68817205a84113384fffdfe3,68819208f69c572f0ca7216c,,,,,,,,,,,,./stim/wavs/cuban_mismatch_interrogative-total-yn_Mi-tia-odia-la-lluvia.wav,1,,,236.5671,238.6166,1,1,1.5172,,0,53,53,33,1,34,1,cuban,,,,,,,,,,,,,,,,,,,,,,,,,,,,,,,,,,,,,,,,,,,,,,,,,,,,,,,,
,,,,,,,,,66c8abe49537b182dcbd2049,Colombian,13 or older,"no, only English or Spanish",no,2025-07-23_21h55.46.971,empathy_intonation_perc_control,2024.2.4,Win32,59.88023952,66c8abe49537b182dcbd2049,68817205a84113384fffdfe3,68819208f69c572f0ca7216c,,,,,,,,,,,,./stim/wavs/puertorican_mismatch_interrogative-total-yn_La-maestra-vive-en-Paris.wav,1,,,238.617,240.9658,0,0,1.8293,,0,54,54,41,1,42,1,puertorican,,,,,,,,,,,,,,,,,,,,,,,,,,,,,,,,,,,,,,,,,,,,,,,,,,,,,,,,
,,,,,,,,,66c8abe49537b182dcbd2049,Colombian,13 or older,"no, only English or Spanish",no,2025-07-23_21h55.46.971,empathy_intonation_perc_control,2024.2.4,Win32,59.88023952,66c8abe49537b182dcbd2049,68817205a84113384fffdfe3,68819208f69c572f0ca7216c,,,,,,,,,,,,./stim/wavs/puertorican_mismatch_interrogative-total-yn_El-hombre-mira-la-luna.wav,1,,,240.9665,242.9814,1,1,1.4851,,0,55,55,39,1,40,1,puertorican,,,,,,,,,,,,,,,,,,,,,,,,,,,,,,,,,,,,,,,,,,,,,,,,,,,,,,,,
,,,,,,,,,66c8abe49537b182dcbd2049,Colombian,13 or older,"no, only English or Spanish",no,2025-07-23_21h55.46.971,empathy_intonation_perc_control,2024.2.4,Win32,59.88023952,66c8abe49537b182dcbd2049,68817205a84113384fffdfe3,68819208f69c572f0ca7216c,,,,,,,,,,,,./stim/wavs/puertorican_match_declarative-broad-focus_Emilio-ama-la-marcha.wav,0,,,242.9821,245.4985,0,1,1.9835,,0,56,56,65,1,66,0,puertorican,,,,,,,,,,,,,,,,,,,,,,,,,,,,,,,,,,,,,,,,,,,,,,,,,,,,,,,,
,,,,,,,,,66c8abe49537b182dcbd2049,Colombian,13 or older,"no, only English or Spanish",no,2025-07-23_21h55.46.971,empathy_intonation_perc_control,2024.2.4,Win32,59.88023952,66c8abe49537b182dcbd2049,68817205a84113384fffdfe3,68819208f69c572f0ca7216c,,,,,,,,,,,,./stim/wavs/cuban_match_interrogative-total-yn_Marta-abre-el-regalo.wav,1,,,245.499,247.9489,0,0,1.9172,,0,57,57,11,1,12,1,cuban,,,,,,,,,,,,,,,,,,,,,,,,,,,,,,,,,,,,,,,,,,,,,,,,,,,,,,,,
,,,,,,,,,66c8abe49537b182dcbd2049,Colombian,13 or older,"no, only English or Spanish",no,2025-07-23_21h55.46.971,empathy_intonation_perc_control,2024.2.4,Win32,59.88023952,66c8abe49537b182dcbd2049,68817205a84113384fffdfe3,68819208f69c572f0ca7216c,,,,,,,,,,,,./stim/wavs/puertorican_match_declarative-broad-focus_Maria-bebe-el-vino.wav,0,,,247.9494,249.9484,0,1,1.4693,,0,58,58,67,1,68,0,puertorican,,,,,,,,,,,,,,,,,,,,,,,,,,,,,,,,,,,,,,,,,,,,,,,,,,,,,,,,
,,,,,,,,,66c8abe49537b182dcbd2049,Colombian,13 or older,"no, only English or Spanish",no,2025-07-23_21h55.46.971,empathy_intonation_perc_control,2024.2.4,Win32,59.88023952,66c8abe49537b182dcbd2049,68817205a84113384fffdfe3,68819208f69c572f0ca7216c,,,,,,,,,,,,./stim/wavs/puertorican_mismatch_interrogative-total-yn_Mi-madre-come-la-fruta.wav,1,,,249.9493,252.0826,0,0,1.6139,,0,59,59,43,1,44,1,puertorican,,,,,,,,,,,,,,,,,,,,,,,,,,,,,,,,,,,,,,,,,,,,,,,,,,,,,,,,
,,,,,,,,,66c8abe49537b182dcbd2049,Colombian,13 or older,"no, only English or Spanish",no,2025-07-23_21h55.46.971,empathy_intonation_perc_control,2024.2.4,Win32,59.88023952,66c8abe49537b182dcbd2049,68817205a84113384fffdfe3,68819208f69c572f0ca7216c,,,,,,,,,,,,./stim/wavs/puertorican_mismatch_declarative-broad-focus_El-bebe-comia-muy-bien.wav,0,,,252.0832,254.1979,1,0,1.5838,,0,60,60,83,1,84,0,puertorican,,,,,,,,,,,,,,,,,,,,,,,,,,,,,,,,,,,,,,,,,,,,,,,,,,,,,,,,
,,,,,,,,,66c8abe49537b182dcbd2049,Colombian,13 or older,"no, only English or Spanish",no,2025-07-23_21h55.46.971,empathy_intonation_perc_control,2024.2.4,Win32,59.88023952,66c8abe49537b182dcbd2049,68817205a84113384fffdfe3,68819208f69c572f0ca7216c,,,,,,,,,,,,./stim/wavs/castilian_mismatch_interrogative-total-yn_La-nina-lava-el-plato.wav,1,,,254.1983,256.2813,1,1,1.5502,,0,61,61,25,1,26,0,castilian,,,,,,,,,,,,,,,,,,,,,,,,,,,,,,,,,,,,,,,,,,,,,,,,,,,,,,,,
,,,,,,,,,66c8abe49537b182dcbd2049,Colombian,13 or older,"no, only English or Spanish",no,2025-07-23_21h55.46.971,empathy_intonation_perc_control,2024.2.4,Win32,59.88023952,66c8abe49537b182dcbd2049,68817205a84113384fffdfe3,68819208f69c572f0ca7216c,,,,,,,,,,,,./stim/wavs/mexican_match_declarative-broad-focus_Mariano-habla-del-tiempo.wav,0,,,256.2821,258.9958,1,0,2.1812,,0,62,62,60,1,61,0,mexican,,,,,,,,,,,,,,,,,,,,,,,,,,,,,,,,,,,,,,,,,,,,,,,,,,,,,,,,
,,,,,,,,,66c8abe49537b182dcbd2049,Colombian,13 or older,"no, only English or Spanish",no,2025-07-23_21h55.46.971,empathy_intonation_perc_control,2024.2.4,Win32,59.88023952,66c8abe49537b182dcbd2049,68817205a84113384fffdfe3,68819208f69c572f0ca7216c,,,,,,,,,,,,./stim/wavs/cuban_match_interrogative-total-yn_Mariano-habla-del-tiempo.wav,1,,,258.9964,261.6809,0,0,2.1663,,0,63,63,10,1,11,1,cuban,,,,,,,,,,,,,,,,,,,,,,,,,,,,,,,,,,,,,,,,,,,,,,,,,,,,,,,,
,,,,,,,,,66c8abe49537b182dcbd2049,Colombian,13 or older,"no, only English or Spanish",no,2025-07-23_21h55.46.971,empathy_intonation_perc_control,2024.2.4,Win32,59.88023952,66c8abe49537b182dcbd2049,68817205a84113384fffdfe3,68819208f69c572f0ca7216c,,,,,,,,,,,,./stim/wavs/castilian_match_declarative-broad-focus_Emilio-ama-la-marcha.wav,0,,,261.6814,263.8972,1,0,1.6851,,0,64,64,45,1,46,0,castilian,,,,,,,,,,,,,,,,,,,,,,,,,,,,,,,,,,,,,,,,,,,,,,,,,,,,,,,,
,,,,,,,,,66c8abe49537b182dcbd2049,Colombian,13 or older,"no, only English or Spanish",no,2025-07-23_21h55.46.971,empathy_intonation_perc_control,2024.2.4,Win32,59.88023952,66c8abe49537b182dcbd2049,68817205a84113384fffdfe3,68819208f69c572f0ca7216c,,,,,,,,,,,,./stim/wavs/cuban_match_declarative-broad-focus_Maria-bebe-el-vino.wav,0,,,263.898,266.4091,0,1,1.9763,,0,65,65,53,1,54,0,cuban,,,,,,,,,,,,,,,,,,,,,,,,,,,,,,,,,,,,,,,,,,,,,,,,,,,,,,,,
,,,,,,,,,66c8abe49537b182dcbd2049,Colombian,13 or older,"no, only English or Spanish",no,2025-07-23_21h55.46.971,empathy_intonation_perc_control,2024.2.4,Win32,59.88023952,66c8abe49537b182dcbd2049,68817205a84113384fffdfe3,68819208f69c572f0ca7216c,,,,,,,,,,,,./stim/wavs/puertorican_mismatch_declarative-broad-focus_La-nina-lava-el-plato.wav,0,,,266.4099,268.4465,0,1,1.5161,,0,66,66,87,1,88,0,puertorican,,,,,,,,,,,,,,,,,,,,,,,,,,,,,,,,,,,,,,,,,,,,,,,,,,,,,,,,
,,,,,,,,,66c8abe49537b182dcbd2049,Colombian,13 or older,"no, only English or Spanish",no,2025-07-23_21h55.46.971,empathy_intonation_perc_control,2024.2.4,Win32,59.88023952,66c8abe49537b182dcbd2049,68817205a84113384fffdfe3,68819208f69c572f0ca7216c,,,,,,,,,,,,./stim/wavs/mexican_match_interrogative-total-yn_David-leia-el-libro.wav,1,,,268.4472,270.5309,1,1,1.5502,,0,67,67,14,1,15,0,mexican,,,,,,,,,,,,,,,,,,,,,,,,,,,,,,,,,,,,,,,,,,,,,,,,,,,,,,,,
,,,,,,,,,66c8abe49537b182dcbd2049,Colombian,13 or older,"no, only English or Spanish",no,2025-07-23_21h55.46.971,empathy_intonation_perc_control,2024.2.4,Win32,59.88023952,66c8abe49537b182dcbd2049,68817205a84113384fffdfe3,68819208f69c572f0ca7216c,,,,,,,,,,,,./stim/wavs/mexican_mismatch_interrogative-total-yn_El-hombre-mira-la-luna.wav,1,,,270.5317,272.8642,1,1,1.8009,,0,68,68,34,1,35,0,mexican,,,,,,,,,,,,,,,,,,,,,,,,,,,,,,,,,,,,,,,,,,,,,,,,,,,,,,,,
,,,,,,,,,66c8abe49537b182dcbd2049,Colombian,13 or older,"no, only English or Spanish",no,2025-07-23_21h55.46.971,empathy_intonation_perc_control,2024.2.4,Win32,59.88023952,66c8abe49537b182dcbd2049,68817205a84113384fffdfe3,68819208f69c572f0ca7216c,,,,,,,,,,,,./stim/wavs/mexican_mismatch_interrogative-total-yn_El-nino-oye-el-rio.wav,1,,,272.8646,275.4608,1,1,2.0554,,0,69,69,35,1,36,0,mexican,,,,,,,,,,,,,,,,,,,,,,,,,,,,,,,,,,,,,,,,,,,,,,,,,,,,,,,,
,,,,,,,,,66c8abe49537b182dcbd2049,Colombian,13 or older,"no, only English or Spanish",no,2025-07-23_21h55.46.971,empathy_intonation_perc_control,2024.2.4,Win32,59.88023952,66c8abe49537b182dcbd2049,68817205a84113384fffdfe3,68819208f69c572f0ca7216c,,,,,,,,,,,,./stim/wavs/castilian_match_declarative-broad-focus_Maria-bebe-el-vino.wav,0,,,275.4613,278.343,1,0,2.3737,,0,70,70,47,1,48,0,castilian,,,,,,,,,,,,,,,,,,,,,,,,,,,,,,,,,,,,,,,,,,,,,,,,,,,,,,,,
,,,,,,,,,66c8abe49537b182dcbd2049,Colombian,13 or older,"no, only English or Spanish",no,2025-07-23_21h55.46.971,empathy_intonation_perc_control,2024.2.4,Win32,59.88023952,66c8abe49537b182dcbd2049,68817205a84113384fffdfe3,68819208f69c572f0ca7216c,,,,,,,,,,,,./stim/wavs/puertorican_mismatch_declarative-broad-focus_El-nino-oye-el-rio.wav,0,,,278.3441,280.4305,0,1,1.5644,,0,71,71,85,1,86,0,puertorican,,,,,,,,,,,,,,,,,,,,,,,,,,,,,,,,,,,,,,,,,,,,,,,,,,,,,,,,
,,,,,,,,,66c8abe49537b182dcbd2049,Colombian,13 or older,"no, only English or Spanish",no,2025-07-23_21h55.46.971,empathy_intonation_perc_control,2024.2.4,Win32,59.88023952,66c8abe49537b182dcbd2049,68817205a84113384fffdfe3,68819208f69c572f0ca7216c,,,,,,,,,,,,./stim/wavs/puertorican_match_interrogative-total-yn_Maria-bebe-el-vino.wav,1,,,280.431,282.7297,0,0,1.7662,,0,72,72,23,1,24,1,puertorican,,,,,,,,,,,,,,,,,,,,,,,,,,,,,,,,,,,,,,,,,,,,,,,,,,,,,,,,
,,,,,,,,,66c8abe49537b182dcbd2049,Colombian,13 or older,"no, only English or Spanish",no,2025-07-23_21h55.46.971,empathy_intonation_perc_control,2024.2.4,Win32,59.88023952,66c8abe49537b182dcbd2049,68817205a84113384fffdfe3,68819208f69c572f0ca7216c,,,,,,,,,,,,./stim/wavs/cuban_match_declarative-broad-focus_Mariano-habla-del-tiempo.wav,0,,,282.73,285.013,0,1,1.7502,,0,73,73,54,1,55,0,cuban,,,,,,,,,,,,,,,,,,,,,,,,,,,,,,,,,,,,,,,,,,,,,,,,,,,,,,,,
,,,,,,,,,66c8abe49537b182dcbd2049,Colombian,13 or older,"no, only English or Spanish",no,2025-07-23_21h55.46.971,empathy_intonation_perc_control,2024.2.4,Win32,59.88023952,66c8abe49537b182dcbd2049,68817205a84113384fffdfe3,68819208f69c572f0ca7216c,,,,,,,,,,,,./stim/wavs/mexican_mismatch_interrogative-total-yn_La-maestra-vive-en-Paris.wav,1,,,285.0137,287.4968,1,1,1.9513,,0,74,74,36,1,37,0,mexican,,,,,,,,,,,,,,,,,,,,,,,,,,,,,,,,,,,,,,,,,,,,,,,,,,,,,,,,
,,,,,,,,,66c8abe49537b182dcbd2049,Colombian,13 or older,"no, only English or Spanish",no,2025-07-23_21h55.46.971,empathy_intonation_perc_control,2024.2.4,Win32,59.88023952,66c8abe49537b182dcbd2049,68817205a84113384fffdfe3,68819208f69c572f0ca7216c,,,,,,,,,,,,./stim/wavs/castilian_mismatch_declarative-broad-focus_El-nino-oye-el-rio.wav,0,,,287.4973,290.6962,1,0,2.6797,,0,75,75,68,1,69,0,castilian,,,,,,,,,,,,,,,,,,,,,,,,,,,,,,,,,,,,,,,,,,,,,,,,,,,,,,,,
,,,,,,,,,66c8abe49537b182dcbd2049,Colombian,13 or older,"no, only English or Spanish",no,2025-07-23_21h55.46.971,empathy_intonation_perc_control,2024.2.4,Win32,59.88023952,66c8abe49537b182dcbd2049,68817205a84113384fffdfe3,68819208f69c572f0ca7216c,,,,,,,,,,,,./stim/wavs/castilian_mismatch_interrogative-total-yn_Mi-tia-odia-la-lluvia.wav,1,,,290.6968,292.8466,1,1,1.6198,,0,76,76,28,1,29,0,castilian,,,,,,,,,,,,,,,,,,,,,,,,,,,,,,,,,,,,,,,,,,,,,,,,,,,,,,,,
,,,,,,,,,66c8abe49537b182dcbd2049,Colombian,13 or older,"no, only English or Spanish",no,2025-07-23_21h55.46.971,empathy_intonation_perc_control,2024.2.4,Win32,59.88023952,66c8abe49537b182dcbd2049,68817205a84113384fffdfe3,68819208f69c572f0ca7216c,,,,,,,,,,,,./stim/wavs/cuban_mismatch_declarative-broad-focus_La-nina-lava-el-plato.wav,0,,,292.8471,295.4297,0,1,2.051,,0,77,77,75,1,76,0,cuban,,,,,,,,,,,,,,,,,,,,,,,,,,,,,,,,,,,,,,,,,,,,,,,,,,,,,,,,
,,,,,,,,,66c8abe49537b182dcbd2049,Colombian,13 or older,"no, only English or Spanish",no,2025-07-23_21h55.46.971,empathy_intonation_perc_control,2024.2.4,Win32,59.88023952,66c8abe49537b182dcbd2049,68817205a84113384fffdfe3,68819208f69c572f0ca7216c,,,,,,,,,,,,./stim/wavs/castilian_mismatch_declarative-broad-focus_Mi-novio-viene-del-lago.wav,0,,,295.4302,297.5907,1,0,1.6378,,0,78,78,71,1,72,0,castilian,,,,,,,,,,,,,,,,,,,,,,,,,,,,,,,,,,,,,,,,,,,,,,,,,,,,,,,,
,,,,,,,,,66c8abe49537b182dcbd2049,Colombian,13 or older,"no, only English or Spanish",no,2025-07-23_21h55.46.971,empathy_intonation_perc_control,2024.2.4,Win32,59.88023952,66c8abe49537b182dcbd2049,68817205a84113384fffdfe3,68819208f69c572f0ca7216c,,,,,,,,,,,,./stim/wavs/cuban_mismatch_declarative-broad-focus_Mi-novio-viene-del-lago.wav,0,,,297.5928,299.9621,0,1,1.8519,,0,79,79,76,1,77,0,cuban,,,,,,,,,,,,,,,,,,,,,,,,,,,,,,,,,,,,,,,,,,,,,,,,,,,,,,,,
,,,,,,,,,66c8abe49537b182dcbd2049,Colombian,13 or older,"no, only English or Spanish",no,2025-07-23_21h55.46.971,empathy_intonation_perc_control,2024.2.4,Win32,59.88023952,66c8abe49537b182dcbd2049,68817205a84113384fffdfe3,68819208f69c572f0ca7216c,,,,,,,,,,,,./stim/wavs/mexican_match_interrogative-total-yn_Emilio-ama-la-marcha.wav,1,,,299.9626,302.4767,1,1,1.9822,,0,80,80,15,1,16,0,mexican,,,,,,,,,,,,,,,,,,,,,,,,,,,,,,,,,,,,,,,,,,,,,,,,,,,,,,,,
,,,,,,,,,66c8abe49537b182dcbd2049,Colombian,13 or older,"no, only English or Spanish",no,2025-07-23_21h55.46.971,empathy_intonation_perc_control,2024.2.4,Win32,59.88023952,66c8abe49537b182dcbd2049,68817205a84113384fffdfe3,68819208f69c572f0ca7216c,,,,,,,,,,,,./stim/wavs/castilian_match_interrogative-total-yn_Emilio-ama-la-marcha.wav,1,,,302.4776,305.9125,0,0,2.918,,0,81,81,1,1,2,0,castilian,,,,,,,,,,,,,,,,,,,,,,,,,,,,,,,,,,,,,,,,,,,,,,,,,,,,,,,,
,,,,,,,,,66c8abe49537b182dcbd2049,Colombian,13 or older,"no, only English or Spanish",no,2025-07-23_21h55.46.971,empathy_intonation_perc_control,2024.2.4,Win32,59.88023952,66c8abe49537b182dcbd2049,68817205a84113384fffdfe3,68819208f69c572f0ca7216c,,,,,,,,,,,,./stim/wavs/castilian_match_interrogative-total-yn_Manuela-vende-el-carro.wav,1,,,305.913,308.6452,1,1,2.2011,,0,82,82,2,1,3,0,castilian,,,,,,,,,,,,,,,,,,,,,,,,,,,,,,,,,,,,,,,,,,,,,,,,,,,,,,,,
,,,,,,,,,66c8abe49537b182dcbd2049,Colombian,13 or older,"no, only English or Spanish",no,2025-07-23_21h55.46.971,empathy_intonation_perc_control,2024.2.4,Win32,59.88023952,66c8abe49537b182dcbd2049,68817205a84113384fffdfe3,68819208f69c572f0ca7216c,,,,,,,,,,,,./stim/wavs/puertorican_match_declarative-broad-focus_David-leia-el-libro.wav,0,,,308.6458,311.3281,0,1,2.15,,0,83,83,64,1,65,0,puertorican,,,,,,,,,,,,,,,,,,,,,,,,,,,,,,,,,,,,,,,,,,,,,,,,,,,,,,,,
,,,,,,,,,66c8abe49537b182dcbd2049,Colombian,13 or older,"no, only English or Spanish",no,2025-07-23_21h55.46.971,empathy_intonation_perc_control,2024.2.4,Win32,59.88023952,66c8abe49537b182dcbd2049,68817205a84113384fffdfe3,68819208f69c572f0ca7216c,,,,,,,,,,,,./stim/wavs/castilian_match_declarative-broad-focus_David-leia-el-libro.wav,0,,,311.3286,314.0125,0,1,2.1537,,0,84,84,44,1,45,0,castilian,,,,,,,,,,,,,,,,,,,,,,,,,,,,,,,,,,,,,,,,,,,,,,,,,,,,,,,,
,,,,,,,,,66c8abe49537b182dcbd2049,Colombian,13 or older,"no, only English or Spanish",no,2025-07-23_21h55.46.971,empathy_intonation_perc_control,2024.2.4,Win32,59.88023952,66c8abe49537b182dcbd2049,68817205a84113384fffdfe3,68819208f69c572f0ca7216c,,,,,,,,,,,,./stim/wavs/puertorican_match_declarative-broad-focus_Manuela-vende-el-carro.wav,0,,,314.0129,316.6448,1,0,2.0997,,0,85,85,66,1,67,0,puertorican,,,,,,,,,,,,,,,,,,,,,,,,,,,,,,,,,,,,,,,,,,,,,,,,,,,,,,,,
,,,,,,,,,66c8abe49537b182dcbd2049,Colombian,13 or older,"no, only English or Spanish",no,2025-07-23_21h55.46.971,empathy_intonation_perc_control,2024.2.4,Win32,59.88023952,66c8abe49537b182dcbd2049,68817205a84113384fffdfe3,68819208f69c572f0ca7216c,,,,,,,,,,,,./stim/wavs/mexican_mismatch_declarative-broad-focus_Mi-novio-viene-del-lago.wav,0,,,316.6453,318.7726,1,0,1.5893,,0,86,86,81,1,82,0,mexican,,,,,,,,,,,,,,,,,,,,,,,,,,,,,,,,,,,,,,,,,,,,,,,,,,,,,,,,
,,,,,,,,,66c8abe49537b182dcbd2049,Colombian,13 or older,"no, only English or Spanish",no,2025-07-23_21h55.46.971,empathy_intonation_perc_control,2024.2.4,Win32,59.88023952,66c8abe49537b182dcbd2049,68817205a84113384fffdfe3,68819208f69c572f0ca7216c,,,,,,,,,,,,./stim/wavs/castilian_mismatch_declarative-broad-focus_La-nina-lava-el-plato.wav,0,,,318.7735,321.461,1,0,2.1671,,0,87,87,70,1,71,0,castilian,,,,,,,,,,,,,,,,,,,,,,,,,,,,,,,,,,,,,,,,,,,,,,,,,,,,,,,,
,,,,,,,"Great! Now we will move on. The next task consists of about 60 trials, in each of which you will see a string of letters. 
  
  Your task is to decide whether this is a real Spanish word or not.", (press the spacebar to continue),66c8abe49537b182dcbd2049,Colombian,13 or older,"no, only English or Spanish",no,2025-07-23_21h55.46.971,empathy_intonation_perc_control,2024.2.4,Win32,59.88023952,66c8abe49537b182dcbd2049,68817205a84113384fffdfe3,68819208f69c572f0ca7216c,,,,,,,,,,,,,,,,,,,,,,,,,,,,,,321.4666,326.7437,0,0,0,0,1,,,,,,,,,,,,,,,,,,,,,,,,,,,,,,,,,,,,,,,,,,,,,,,,,
,,,,,,,"If you think it is an existing Spanish word, you type '1' (for 'REAL'), and if you think it is not an existing Spanish word, you type '0' (for 'FAKE').", (press the spacebar to continue),66c8abe49537b182dcbd2049,Colombian,13 or older,"no, only English or Spanish",no,2025-07-23_21h55.46.971,empathy_intonation_perc_control,2024.2.4,Win32,59.88023952,66c8abe49537b182dcbd2049,68817205a84113384fffdfe3,68819208f69c572f0ca7216c,,,,,,,,,,,,,,,,,,,,,,,,,,,,,,326.7459,330.0441,0,1,1,1,1,,,,,,,,,,,,,,,,,,,,,,,,,,,,,,,,,,,,,,,,,,,,,,,,,
,,,,,,,"If you are sure that the word exists, even though you don’t know its exact meaning, you may still respond '1' (REAL). 
  
  But if you are not sure if it is an existing word, you should respond '0' (FAKE).
  
  Let's do a practice round...", (press the spacebar to continue),66c8abe49537b182dcbd2049,Colombian,13 or older,"no, only English or Spanish",no,2025-07-23_21h55.46.971,empathy_intonation_perc_control,2024.2.4,Win32,59.88023952,66c8abe49537b182dcbd2049,68817205a84113384fffdfe3,68819208f69c572f0ca7216c,,,,,,,,,,,,,,,,,,,,,,,,,,,,,,330.0465,331.4936,0,2,2,2,1,,,,,,,,,,,,,,,,,,,,,,,,,,,,,,,,,,,,,,,,,,,,,,,,,
,,,,,,,,,66c8abe49537b182dcbd2049,Colombian,13 or older,"no, only English or Spanish",no,2025-07-23_21h55.46.971,empathy_intonation_perc_control,2024.2.4,Win32,59.88023952,66c8abe49537b182dcbd2049,68817205a84113384fffdfe3,68819208f69c572f0ca7216c,,,,,,,,,,,,,0,,,,,,,,,,,,,,,,,,,,,,,,331.498,333.311,1,0,1.2838,,333.3112,334.3076,0,0,0,0,1,0,depiste,REAL,FAKE,,,,,,,,,,,,,,,,,,,,,,,,,,,,,,,,
,,,,,,,,,66c8abe49537b182dcbd2049,Colombian,13 or older,"no, only English or Spanish",no,2025-07-23_21h55.46.971,empathy_intonation_perc_control,2024.2.4,Win32,59.88023952,66c8abe49537b182dcbd2049,68817205a84113384fffdfe3,68819208f69c572f0ca7216c,,,,,,,,,,,,,1,,,,,,,,,,,,,,,,,,,,,,,,334.3093,335.5099,1,1,0.6832,,335.5108,336.5086,0,1,1,1,1,0,sí,REAL,FAKE,,,,,,,,,,,,,,,,,,,,,,,,,,,,,,,,
,,,,,,,,,66c8abe49537b182dcbd2049,Colombian,13 or older,"no, only English or Spanish",no,2025-07-23_21h55.46.971,empathy_intonation_perc_control,2024.2.4,Win32,59.88023952,66c8abe49537b182dcbd2049,68817205a84113384fffdfe3,68819208f69c572f0ca7216c,,,,,,,,,,,,,0,,,,,,,,,,,,,,,,,,,,,,,,336.5102,337.7771,1,0,0.7338,,337.7776,338.7768,0,2,2,2,1,0,coné,REAL,FAKE,,,,,,,,,,,,,,,,,,,,,,,,,,,,,,,,
,,,,,,,,,66c8abe49537b182dcbd2049,Colombian,13 or older,"no, only English or Spanish",no,2025-07-23_21h55.46.971,empathy_intonation_perc_control,2024.2.4,Win32,59.88023952,66c8abe49537b182dcbd2049,68817205a84113384fffdfe3,68819208f69c572f0ca7216c,,,,,,,,,,,,,0,,,,,,,,,,,,,,,,,,,,,,,,338.778,340.6607,1,0,1.3514,,340.6608,341.657,0,3,3,3,1,0,calpar,REAL,FAKE,,,,,,,,,,,,,,,,,,,,,,,,,,,,,,,,
,,,,,,,,,66c8abe49537b182dcbd2049,Colombian,13 or older,"no, only English or Spanish",no,2025-07-23_21h55.46.971,empathy_intonation_perc_control,2024.2.4,Win32,59.88023952,66c8abe49537b182dcbd2049,68817205a84113384fffdfe3,68819208f69c572f0ca7216c,,,,,,,,,,,,,0,,,,,,,,,,,,,,,,,,,,,,,,341.6584,342.9257,0,1,0.7498,,342.9265,343.925,0,4,4,4,1,0,joten,REAL,FAKE,,,,,,,,,,,,,,,,,,,,,,,,,,,,,,,,
,,,,,,,,,66c8abe49537b182dcbd2049,Colombian,13 or older,"no, only English or Spanish",no,2025-07-23_21h55.46.971,empathy_intonation_perc_control,2024.2.4,Win32,59.88023952,66c8abe49537b182dcbd2049,68817205a84113384fffdfe3,68819208f69c572f0ca7216c,,,,,,,,,,,,,1,,,,,,,,,,,,,,,,,,,,,,,,343.9263,345.2265,0,0,0.7672,,345.2272,346.2247,0,5,5,5,1,0,sacapuntas,REAL,FAKE,,,,,,,,,,,,,,,,,,,,,,,,,,,,,,,,
,,,,,,,,,66c8abe49537b182dcbd2049,Colombian,13 or older,"no, only English or Spanish",no,2025-07-23_21h55.46.971,empathy_intonation_perc_control,2024.2.4,Win32,59.88023952,66c8abe49537b182dcbd2049,68817205a84113384fffdfe3,68819208f69c572f0ca7216c,,,,,,,,,,,,,0,,,,,,,,,,,,,,,,,,,,,,,,346.2263,347.7095,0,1,0.9505,,347.7104,348.7087,0,6,6,6,1,0,priba,REAL,FAKE,,,,,,,,,,,,,,,,,,,,,,,,,,,,,,,,
,,,,,,,,,66c8abe49537b182dcbd2049,Colombian,13 or older,"no, only English or Spanish",no,2025-07-23_21h55.46.971,empathy_intonation_perc_control,2024.2.4,Win32,59.88023952,66c8abe49537b182dcbd2049,68817205a84113384fffdfe3,68819208f69c572f0ca7216c,,,,,,,,,,,,,0,,,,,,,,,,,,,,,,,,,,,,,,348.71,350.1264,1,0,0.8842,,350.127,351.1249,0,7,7,7,1,0,pelasula,REAL,FAKE,,,,,,,,,,,,,,,,,,,,,,,,,,,,,,,,
,,,,,,,,,66c8abe49537b182dcbd2049,Colombian,13 or older,"no, only English or Spanish",no,2025-07-23_21h55.46.971,empathy_intonation_perc_control,2024.2.4,Win32,59.88023952,66c8abe49537b182dcbd2049,68817205a84113384fffdfe3,68819208f69c572f0ca7216c,,,,,,,,,,,,,1,,,,,,,,,,,,,,,,,,,,,,,,351.126,352.3738,1,1,0.7313,,352.3743,353.3752,0,8,8,8,1,0,bien,REAL,FAKE,,,,,,,,,,,,,,,,,,,,,,,,,,,,,,,,
,,,,,,,,,66c8abe49537b182dcbd2049,Colombian,13 or older,"no, only English or Spanish",no,2025-07-23_21h55.46.971,empathy_intonation_perc_control,2024.2.4,Win32,59.88023952,66c8abe49537b182dcbd2049,68817205a84113384fffdfe3,68819208f69c572f0ca7216c,,,,,,,,,,,,,1,,,,,,,,,,,,,,,,,,,,,,,,353.3764,354.4923,1,1,0.5838,,354.4924,355.4918,0,9,9,9,1,0,casa,REAL,FAKE,,,,,,,,,,,,,,,,,,,,,,,,,,,,,,,,
,,,,,,,,,66c8abe49537b182dcbd2049,Colombian,13 or older,"no, only English or Spanish",no,2025-07-23_21h55.46.971,empathy_intonation_perc_control,2024.2.4,Win32,59.88023952,66c8abe49537b182dcbd2049,68817205a84113384fffdfe3,68819208f69c572f0ca7216c,,,,,,,,,,,,,0,,,,,,,,,,,,,,,,,,,,,,,,355.493,356.7088,0,1,0.6837,,356.7089,357.7065,0,10,10,10,1,0,lejo,REAL,FAKE,,,,,,,,,,,,,,,,,,,,,,,,,,,,,,,,
,,,,,,,,,66c8abe49537b182dcbd2049,Colombian,13 or older,"no, only English or Spanish",no,2025-07-23_21h55.46.971,empathy_intonation_perc_control,2024.2.4,Win32,59.88023952,66c8abe49537b182dcbd2049,68817205a84113384fffdfe3,68819208f69c572f0ca7216c,,,,,,,,,,,,,0,,,,,,,,,,,,,,,,,,,,,,,,357.7076,358.9925,0,1,0.7672,,358.9926,359.9893,0,11,11,11,1,0,pretantas,REAL,FAKE,,,,,,,,,,,,,,,,,,,,,,,,,,,,,,,,
,,,,,,,,,66c8abe49537b182dcbd2049,Colombian,13 or older,"no, only English or Spanish",no,2025-07-23_21h55.46.971,empathy_intonation_perc_control,2024.2.4,Win32,59.88023952,66c8abe49537b182dcbd2049,68817205a84113384fffdfe3,68819208f69c572f0ca7216c,,,,,,,,,,,,,,,,,,,,,,,,,,,,,,,,,,,,,,,,,,,,,,,,,,,,,,359.9895,361.2926,,,,,,,,,,,,,,,,,,,,,,,,,,,,,,
,,,,,,,,,66c8abe49537b182dcbd2049,Colombian,13 or older,"no, only English or Spanish",no,2025-07-23_21h55.46.971,empathy_intonation_perc_control,2024.2.4,Win32,59.88023952,66c8abe49537b182dcbd2049,68817205a84113384fffdfe3,68819208f69c572f0ca7216c,,,,,,,,,,,,,0,,,,,,,,,,,,,,,,,,,,,,,,,,,,,,,,,,,,,23,lampera,,,,,361.3014,362.8085,1,0,0.9833,,0,0,0,22,1,REAL,FAKE,,,,,,,,,,,,,,,,,
,,,,,,,,,66c8abe49537b182dcbd2049,Colombian,13 or older,"no, only English or Spanish",no,2025-07-23_21h55.46.971,empathy_intonation_perc_control,2024.2.4,Win32,59.88023952,66c8abe49537b182dcbd2049,68817205a84113384fffdfe3,68819208f69c572f0ca7216c,,,,,,,,,,,,,0,,,,,,,,,,,,,,,,,,,,,,,,,,,,,,,,,,,,,79,tropaje,,,,,362.8093,364.2915,0,1,0.9498,,0,1,1,78,1,REAL,FAKE,,,,,,,,,,,,,,,,,
,,,,,,,,,66c8abe49537b182dcbd2049,Colombian,13 or older,"no, only English or Spanish",no,2025-07-23_21h55.46.971,empathy_intonation_perc_control,2024.2.4,Win32,59.88023952,66c8abe49537b182dcbd2049,68817205a84113384fffdfe3,68819208f69c572f0ca7216c,,,,,,,,,,,,,1,,,,,,,,,,,,,,,,,,,,,,,,,,,,,,,,,,,,,77,tiburón,,,,,364.2932,365.4249,0,0,0.6003,,0,2,2,76,1,REAL,FAKE,,,,,,,,,,,,,,,,,
,,,,,,,,,66c8abe49537b182dcbd2049,Colombian,13 or older,"no, only English or Spanish",no,2025-07-23_21h55.46.971,empathy_intonation_perc_control,2024.2.4,Win32,59.88023952,66c8abe49537b182dcbd2049,68817205a84113384fffdfe3,68819208f69c572f0ca7216c,,,,,,,,,,,,,1,,,,,,,,,,,,,,,,,,,,,,,,,,,,,,,,,,,,,43,canela,,,,,365.4261,366.4417,1,1,0.4837,,0,3,3,42,1,REAL,FAKE,,,,,,,,,,,,,,,,,
,,,,,,,,,66c8abe49537b182dcbd2049,Colombian,13 or older,"no, only English or Spanish",no,2025-07-23_21h55.46.971,empathy_intonation_perc_control,2024.2.4,Win32,59.88023952,66c8abe49537b182dcbd2049,68817205a84113384fffdfe3,68819208f69c572f0ca7216c,,,,,,,,,,,,,1,,,,,,,,,,,,,,,,,,,,,,,,,,,,,,,,,,,,,12,asesinato,,,,,366.4428,367.9584,0,0,0.9838,,0,4,4,11,1,REAL,FAKE,,,,,,,,,,,,,,,,,
,,,,,,,,,66c8abe49537b182dcbd2049,Colombian,13 or older,"no, only English or Spanish",no,2025-07-23_21h55.46.971,empathy_intonation_perc_control,2024.2.4,Win32,59.88023952,66c8abe49537b182dcbd2049,68817205a84113384fffdfe3,68819208f69c572f0ca7216c,,,,,,,,,,,,,0,,,,,,,,,,,,,,,,,,,,,,,,,,,,,,,,,,,,,50,flamida,,,,,367.96,369.6414,0,1,1.1502,,0,5,5,49,1,REAL,FAKE,,,,,,,,,,,,,,,,,
,,,,,,,,,66c8abe49537b182dcbd2049,Colombian,13 or older,"no, only English or Spanish",no,2025-07-23_21h55.46.971,empathy_intonation_perc_control,2024.2.4,Win32,59.88023952,66c8abe49537b182dcbd2049,68817205a84113384fffdfe3,68819208f69c572f0ca7216c,,,,,,,,,,,,,1,,,,,,,,,,,,,,,,,,,,,,,,,,,,,,,,,,,,,69,engatusar,,,,,369.6427,371.0248,1,1,0.8503,,0,6,6,68,1,REAL,FAKE,,,,,,,,,,,,,,,,,
,,,,,,,,,66c8abe49537b182dcbd2049,Colombian,13 or older,"no, only English or Spanish",no,2025-07-23_21h55.46.971,empathy_intonation_perc_control,2024.2.4,Win32,59.88023952,66c8abe49537b182dcbd2049,68817205a84113384fffdfe3,68819208f69c572f0ca7216c,,,,,,,,,,,,,1,,,,,,,,,,,,,,,,,,,,,,,,,,,,,,,,,,,,,5,zapato,,,,,371.0261,372.2407,1,1,0.6833,,0,7,7,4,1,REAL,FAKE,,,,,,,,,,,,,,,,,
,,,,,,,,,66c8abe49537b182dcbd2049,Colombian,13 or older,"no, only English or Spanish",no,2025-07-23_21h55.46.971,empathy_intonation_perc_control,2024.2.4,Win32,59.88023952,66c8abe49537b182dcbd2049,68817205a84113384fffdfe3,68819208f69c572f0ca7216c,,,,,,,,,,,,,0,,,,,,,,,,,,,,,,,,,,,,,,,,,,,,,,,,,,,4,batillón,,,,,372.2419,373.6223,0,1,0.8482,,0,8,8,3,1,REAL,FAKE,,,,,,,,,,,,,,,,,
,,,,,,,,,66c8abe49537b182dcbd2049,Colombian,13 or older,"no, only English or Spanish",no,2025-07-23_21h55.46.971,empathy_intonation_perc_control,2024.2.4,Win32,59.88023952,66c8abe49537b182dcbd2049,68817205a84113384fffdfe3,68819208f69c572f0ca7216c,,,,,,,,,,,,,1,,,,,,,,,,,,,,,,,,,,,,,,,,,,,,,,,,,,,38,estornudar,,,,,373.6234,375.0751,0,0,0.9335,,0,9,9,37,1,REAL,FAKE,,,,,,,,,,,,,,,,,
,,,,,,,,,66c8abe49537b182dcbd2049,Colombian,13 or older,"no, only English or Spanish",no,2025-07-23_21h55.46.971,empathy_intonation_perc_control,2024.2.4,Win32,59.88023952,66c8abe49537b182dcbd2049,68817205a84113384fffdfe3,68819208f69c572f0ca7216c,,,,,,,,,,,,,1,,,,,,,,,,,,,,,,,,,,,,,,,,,,,,,,,,,,,26,secuestro,,,,,375.0758,376.4739,1,1,0.8666,,0,10,10,25,1,REAL,FAKE,,,,,,,,,,,,,,,,,
,,,,,,,,,66c8abe49537b182dcbd2049,Colombian,13 or older,"no, only English or Spanish",no,2025-07-23_21h55.46.971,empathy_intonation_perc_control,2024.2.4,Win32,59.88023952,66c8abe49537b182dcbd2049,68817205a84113384fffdfe3,68819208f69c572f0ca7216c,,,,,,,,,,,,,1,,,,,,,,,,,,,,,,,,,,,,,,,,,,,,,,,,,,,49,ganar,,,,,376.4748,377.7585,0,0,0.7508,,0,11,11,48,1,REAL,FAKE,,,,,,,,,,,,,,,,,
,,,,,,,,,66c8abe49537b182dcbd2049,Colombian,13 or older,"no, only English or Spanish",no,2025-07-23_21h55.46.971,empathy_intonation_perc_control,2024.2.4,Win32,59.88023952,66c8abe49537b182dcbd2049,68817205a84113384fffdfe3,68819208f69c572f0ca7216c,,,,,,,,,,,,,0,,,,,,,,,,,,,,,,,,,,,,,,,,,,,,,,,,,,,72,pemición,,,,,377.7593,379.0907,0,1,0.7999,,0,12,12,71,1,REAL,FAKE,,,,,,,,,,,,,,,,,
,,,,,,,,,66c8abe49537b182dcbd2049,Colombian,13 or older,"no, only English or Spanish",no,2025-07-23_21h55.46.971,empathy_intonation_perc_control,2024.2.4,Win32,59.88023952,66c8abe49537b182dcbd2049,68817205a84113384fffdfe3,68819208f69c572f0ca7216c,,,,,,,,,,,,,0,,,,,,,,,,,,,,,,,,,,,,,,,,,,,,,,,,,,,35,rompido,,,,,379.0914,380.3905,0,1,0.7666,,0,13,13,34,1,REAL,FAKE,,,,,,,,,,,,,,,,,
,,,,,,,,,66c8abe49537b182dcbd2049,Colombian,13 or older,"no, only English or Spanish",no,2025-07-23_21h55.46.971,empathy_intonation_perc_control,2024.2.4,Win32,59.88023952,66c8abe49537b182dcbd2049,68817205a84113384fffdfe3,68819208f69c572f0ca7216c,,,,,,,,,,,,,1,,,,,,,,,,,,,,,,,,,,,,,,,,,,,,,,,,,,,44,cuchara,,,,,380.3913,381.3909,1,1,0.4672,,0,14,14,43,1,REAL,FAKE,,,,,,,,,,,,,,,,,
,,,,,,,,,66c8abe49537b182dcbd2049,Colombian,13 or older,"no, only English or Spanish",no,2025-07-23_21h55.46.971,empathy_intonation_perc_control,2024.2.4,Win32,59.88023952,66c8abe49537b182dcbd2049,68817205a84113384fffdfe3,68819208f69c572f0ca7216c,,,,,,,,,,,,,1,,,,,,,,,,,,,,,,,,,,,,,,,,,,,,,,,,,,,24,látigo,,,,,381.392,383.0075,1,1,1.0841,,0,15,15,23,1,REAL,FAKE,,,,,,,,,,,,,,,,,
,,,,,,,,,66c8abe49537b182dcbd2049,Colombian,13 or older,"no, only English or Spanish",no,2025-07-23_21h55.46.971,empathy_intonation_perc_control,2024.2.4,Win32,59.88023952,66c8abe49537b182dcbd2049,68817205a84113384fffdfe3,68819208f69c572f0ca7216c,,,,,,,,,,,,,1,,,,,,,,,,,,,,,,,,,,,,,,,,,,,,,,,,,,,52,camisa,,,,,383.0084,384.1896,1,1,0.6497,,0,16,16,51,1,REAL,FAKE,,,,,,,,,,,,,,,,,
,,,,,,,,,66c8abe49537b182dcbd2049,Colombian,13 or older,"no, only English or Spanish",no,2025-07-23_21h55.46.971,empathy_intonation_perc_control,2024.2.4,Win32,59.88023952,66c8abe49537b182dcbd2049,68817205a84113384fffdfe3,68819208f69c572f0ca7216c,,,,,,,,,,,,,0,,,,,,,,,,,,,,,,,,,,,,,,,,,,,,,,,,,,,8,cadeña,,,,,384.1916,385.4896,1,0,0.7662,,0,17,17,7,1,REAL,FAKE,,,,,,,,,,,,,,,,,
,,,,,,,,,66c8abe49537b182dcbd2049,Colombian,13 or older,"no, only English or Spanish",no,2025-07-23_21h55.46.971,empathy_intonation_perc_control,2024.2.4,Win32,59.88023952,66c8abe49537b182dcbd2049,68817205a84113384fffdfe3,68819208f69c572f0ca7216c,,,,,,,,,,,,,0,,,,,,,,,,,,,,,,,,,,,,,,,,,,,,,,,,,,,74,cintro,,,,,385.4907,386.7397,0,1,0.7154,,0,18,18,73,1,REAL,FAKE,,,,,,,,,,,,,,,,,
,,,,,,,,,66c8abe49537b182dcbd2049,Colombian,13 or older,"no, only English or Spanish",no,2025-07-23_21h55.46.971,empathy_intonation_perc_control,2024.2.4,Win32,59.88023952,66c8abe49537b182dcbd2049,68817205a84113384fffdfe3,68819208f69c572f0ca7216c,,,,,,,,,,,,,0,,,,,,,,,,,,,,,,,,,,,,,,,,,,,,,,,,,,,27,acutación,,,,,386.7408,388.4078,1,0,1.1341,,0,19,19,26,1,REAL,FAKE,,,,,,,,,,,,,,,,,
,,,,,,,,,66c8abe49537b182dcbd2049,Colombian,13 or older,"no, only English or Spanish",no,2025-07-23_21h55.46.971,empathy_intonation_perc_control,2024.2.4,Win32,59.88023952,66c8abe49537b182dcbd2049,68817205a84113384fffdfe3,68819208f69c572f0ca7216c,,,,,,,,,,,,,1,,,,,,,,,,,,,,,,,,,,,,,,,,,,,,,,,,,,,48,ladrón,,,,,388.4086,389.9902,0,0,1.0503,,0,20,20,47,1,REAL,FAKE,,,,,,,,,,,,,,,,,
,,,,,,,,,66c8abe49537b182dcbd2049,Colombian,13 or older,"no, only English or Spanish",no,2025-07-23_21h55.46.971,empathy_intonation_perc_control,2024.2.4,Win32,59.88023952,66c8abe49537b182dcbd2049,68817205a84113384fffdfe3,68819208f69c572f0ca7216c,,,,,,,,,,,,,0,,,,,,,,,,,,,,,,,,,,,,,,,,,,,,,,,,,,,70,temblo,,,,,389.9912,391.4184,1,0,0.8921,,0,21,21,69,1,REAL,FAKE,,,,,,,,,,,,,,,,,
,,,,,,,,,66c8abe49537b182dcbd2049,Colombian,13 or older,"no, only English or Spanish",no,2025-07-23_21h55.46.971,empathy_intonation_perc_control,2024.2.4,Win32,59.88023952,66c8abe49537b182dcbd2049,68817205a84113384fffdfe3,68819208f69c572f0ca7216c,,,,,,,,,,,,,0,,,,,,,,,,,,,,,,,,,,,,,,,,,,,,,,,,,,,66,hacido,,,,,391.4195,392.6733,0,1,0.7334,,0,22,22,65,1,REAL,FAKE,,,,,,,,,,,,,,,,,
,,,,,,,,,66c8abe49537b182dcbd2049,Colombian,13 or older,"no, only English or Spanish",no,2025-07-23_21h55.46.971,empathy_intonation_perc_control,2024.2.4,Win32,59.88023952,66c8abe49537b182dcbd2049,68817205a84113384fffdfe3,68819208f69c572f0ca7216c,,,,,,,,,,,,,1,,,,,,,,,,,,,,,,,,,,,,,,,,,,,,,,,,,,,86,barato,,,,,392.6741,394.0353,1,1,0.8216,,0,23,23,85,1,REAL,FAKE,,,,,,,,,,,,,,,,,
,,,,,,,,,66c8abe49537b182dcbd2049,Colombian,13 or older,"no, only English or Spanish",no,2025-07-23_21h55.46.971,empathy_intonation_perc_control,2024.2.4,Win32,59.88023952,66c8abe49537b182dcbd2049,68817205a84113384fffdfe3,68819208f69c572f0ca7216c,,,,,,,,,,,,,1,,,,,,,,,,,,,,,,,,,,,,,,,,,,,,,,,,,,,67,cabello,,,,,394.037,395.489,1,1,0.9327,,0,24,24,66,1,REAL,FAKE,,,,,,,,,,,,,,,,,
,,,,,,,,,66c8abe49537b182dcbd2049,Colombian,13 or older,"no, only English or Spanish",no,2025-07-23_21h55.46.971,empathy_intonation_perc_control,2024.2.4,Win32,59.88023952,66c8abe49537b182dcbd2049,68817205a84113384fffdfe3,68819208f69c572f0ca7216c,,,,,,,,,,,,,1,,,,,,,,,,,,,,,,,,,,,,,,,,,,,,,,,,,,,88,acantilado,,,,,395.4901,396.6568,0,0,0.6339,,0,25,25,87,1,REAL,FAKE,,,,,,,,,,,,,,,,,
,,,,,,,,,66c8abe49537b182dcbd2049,Colombian,13 or older,"no, only English or Spanish",no,2025-07-23_21h55.46.971,empathy_intonation_perc_control,2024.2.4,Win32,59.88023952,66c8abe49537b182dcbd2049,68817205a84113384fffdfe3,68819208f69c572f0ca7216c,,,,,,,,,,,,,1,,,,,,,,,,,,,,,,,,,,,,,,,,,,,,,,,,,,,41,rebuscar,,,,,396.6577,397.8733,0,0,0.6837,,0,26,26,40,1,REAL,FAKE,,,,,,,,,,,,,,,,,
,,,,,,,,,66c8abe49537b182dcbd2049,Colombian,13 or older,"no, only English or Spanish",no,2025-07-23_21h55.46.971,empathy_intonation_perc_control,2024.2.4,Win32,59.88023952,66c8abe49537b182dcbd2049,68817205a84113384fffdfe3,68819208f69c572f0ca7216c,,,,,,,,,,,,,1,,,,,,,,,,,,,,,,,,,,,,,,,,,,,,,,,,,,,46,martillo,,,,,397.8741,400.2054,1,1,1.7995,,0,27,27,45,1,REAL,FAKE,,,,,,,,,,,,,,,,,
,,,,,,,,,66c8abe49537b182dcbd2049,Colombian,13 or older,"no, only English or Spanish",no,2025-07-23_21h55.46.971,empathy_intonation_perc_control,2024.2.4,Win32,59.88023952,66c8abe49537b182dcbd2049,68817205a84113384fffdfe3,68819208f69c572f0ca7216c,,,,,,,,,,,,,0,,,,,,,,,,,,,,,,,,,,,,,,,,,,,,,,,,,,,42,cadallo,,,,,400.2067,401.4068,1,0,0.6673,,0,28,28,41,1,REAL,FAKE,,,,,,,,,,,,,,,,,
,,,,,,,,,66c8abe49537b182dcbd2049,Colombian,13 or older,"no, only English or Spanish",no,2025-07-23_21h55.46.971,empathy_intonation_perc_control,2024.2.4,Win32,59.88023952,66c8abe49537b182dcbd2049,68817205a84113384fffdfe3,68819208f69c572f0ca7216c,,,,,,,,,,,,,0,,,,,,,,,,,,,,,,,,,,,,,,,,,,,,,,,,,,,87,grodo,,,,,401.4075,403.0549,0,1,1.1159,,0,29,29,86,1,REAL,FAKE,,,,,,,,,,,,,,,,,
,,,,,,,,,66c8abe49537b182dcbd2049,Colombian,13 or older,"no, only English or Spanish",no,2025-07-23_21h55.46.971,empathy_intonation_perc_control,2024.2.4,Win32,59.88023952,66c8abe49537b182dcbd2049,68817205a84113384fffdfe3,68819208f69c572f0ca7216c,,,,,,,,,,,,,0,,,,,,,,,,,,,,,,,,,,,,,,,,,,,,,,,,,,,10,antar,,,,,403.0556,404.2064,0,1,0.6171,,0,30,30,9,1,REAL,FAKE,,,,,,,,,,,,,,,,,
,,,,,,,,,66c8abe49537b182dcbd2049,Colombian,13 or older,"no, only English or Spanish",no,2025-07-23_21h55.46.971,empathy_intonation_perc_control,2024.2.4,Win32,59.88023952,66c8abe49537b182dcbd2049,68817205a84113384fffdfe3,68819208f69c572f0ca7216c,,,,,,,,,,,,,1,,,,,,,,,,,,,,,,,,,,,,,,,,,,,,,,,,,,,80,hormiga,,,,,404.2072,405.3402,1,1,0.6014,,0,31,31,79,1,REAL,FAKE,,,,,,,,,,,,,,,,,
,,,,,,,,,66c8abe49537b182dcbd2049,Colombian,13 or older,"no, only English or Spanish",no,2025-07-23_21h55.46.971,empathy_intonation_perc_control,2024.2.4,Win32,59.88023952,66c8abe49537b182dcbd2049,68817205a84113384fffdfe3,68819208f69c572f0ca7216c,,,,,,,,,,,,,1,,,,,,,,,,,,,,,,,,,,,,,,,,,,,,,,,,,,,78,frondoso,,,,,405.3413,406.6553,0,0,0.7832,,0,32,32,77,1,REAL,FAKE,,,,,,,,,,,,,,,,,
,,,,,,,,,66c8abe49537b182dcbd2049,Colombian,13 or older,"no, only English or Spanish",no,2025-07-23_21h55.46.971,empathy_intonation_perc_control,2024.2.4,Win32,59.88023952,66c8abe49537b182dcbd2049,68817205a84113384fffdfe3,68819208f69c572f0ca7216c,,,,,,,,,,,,,1,,,,,,,,,,,,,,,,,,,,,,,,,,,,,,,,,,,,,36,loro,,,,,406.6562,407.9062,1,1,0.7173,,0,33,33,35,1,REAL,FAKE,,,,,,,,,,,,,,,,,
,,,,,,,,,66c8abe49537b182dcbd2049,Colombian,13 or older,"no, only English or Spanish",no,2025-07-23_21h55.46.971,empathy_intonation_perc_control,2024.2.4,Win32,59.88023952,66c8abe49537b182dcbd2049,68817205a84113384fffdfe3,68819208f69c572f0ca7216c,,,,,,,,,,,,,1,,,,,,,,,,,,,,,,,,,,,,,,,,,,,,,,,,,,,60,matar,,,,,407.907,409.2388,0,0,0.7998,,0,34,34,59,1,REAL,FAKE,,,,,,,,,,,,,,,,,
,,,,,,,,,66c8abe49537b182dcbd2049,Colombian,13 or older,"no, only English or Spanish",no,2025-07-23_21h55.46.971,empathy_intonation_perc_control,2024.2.4,Win32,59.88023952,66c8abe49537b182dcbd2049,68817205a84113384fffdfe3,68819208f69c572f0ca7216c,,,,,,,,,,,,,1,,,,,,,,,,,,,,,,,,,,,,,,,,,,,,,,,,,,,54,fomentar,,,,,409.2396,410.5061,0,0,0.7338,,0,35,35,53,1,REAL,FAKE,,,,,,,,,,,,,,,,,
,,,,,,,,,66c8abe49537b182dcbd2049,Colombian,13 or older,"no, only English or Spanish",no,2025-07-23_21h55.46.971,empathy_intonation_perc_control,2024.2.4,Win32,59.88023952,66c8abe49537b182dcbd2049,68817205a84113384fffdfe3,68819208f69c572f0ca7216c,,,,,,,,,,,,,0,,,,,,,,,,,,,,,,,,,,,,,,,,,,,,,,,,,,,32,fatacidad,,,,,410.507,411.9554,0,1,0.9167,,0,36,36,31,1,REAL,FAKE,,,,,,,,,,,,,,,,,
,,,,,,,,,66c8abe49537b182dcbd2049,Colombian,13 or older,"no, only English or Spanish",no,2025-07-23_21h55.46.971,empathy_intonation_perc_control,2024.2.4,Win32,59.88023952,66c8abe49537b182dcbd2049,68817205a84113384fffdfe3,68819208f69c572f0ca7216c,,,,,,,,,,,,,1,,,,,,,,,,,,,,,,,,,,,,,,,,,,,,,,,,,,,71,polvoriento,,,,,411.9564,413.1227,0,0,0.6337,,0,37,37,70,1,REAL,FAKE,,,,,,,,,,,,,,,,,
,,,,,,,,,66c8abe49537b182dcbd2049,Colombian,13 or older,"no, only English or Spanish",no,2025-07-23_21h55.46.971,empathy_intonation_perc_control,2024.2.4,Win32,59.88023952,66c8abe49537b182dcbd2049,68817205a84113384fffdfe3,68819208f69c572f0ca7216c,,,,,,,,,,,,,1,,,,,,,,,,,,,,,,,,,,,,,,,,,,,,,,,,,,,11,cenefa,,,,,413.1234,414.2381,1,1,0.5831,,0,38,38,10,1,REAL,FAKE,,,,,,,,,,,,,,,,,
,,,,,,,,,66c8abe49537b182dcbd2049,Colombian,13 or older,"no, only English or Spanish",no,2025-07-23_21h55.46.971,empathy_intonation_perc_control,2024.2.4,Win32,59.88023952,66c8abe49537b182dcbd2049,68817205a84113384fffdfe3,68819208f69c572f0ca7216c,,,,,,,,,,,,,0,,,,,,,,,,,,,,,,,,,,,,,,,,,,,,,,,,,,,82,empirador,,,,,414.2393,415.3698,0,1,0.5981,,0,39,39,81,1,REAL,FAKE,,,,,,,,,,,,,,,,,
,,,,,,,,,66c8abe49537b182dcbd2049,Colombian,13 or older,"no, only English or Spanish",no,2025-07-23_21h55.46.971,empathy_intonation_perc_control,2024.2.4,Win32,59.88023952,66c8abe49537b182dcbd2049,68817205a84113384fffdfe3,68819208f69c572f0ca7216c,,,,,,,,,,,,,1,,,,,,,,,,,,,,,,,,,,,,,,,,,,,,,,,,,,,22,lacayo,,,,,415.3711,416.9051,0,0,1.0164,,0,40,40,21,1,REAL,FAKE,,,,,,,,,,,,,,,,,
,,,,,,,,,66c8abe49537b182dcbd2049,Colombian,13 or older,"no, only English or Spanish",no,2025-07-23_21h55.46.971,empathy_intonation_perc_control,2024.2.4,Win32,59.88023952,66c8abe49537b182dcbd2049,68817205a84113384fffdfe3,68819208f69c572f0ca7216c,,,,,,,,,,,,,1,,,,,,,,,,,,,,,,,,,,,,,,,,,,,,,,,,,,,83,guante,,,,,416.9059,418.1053,0,0,0.6671,,0,41,41,82,1,REAL,FAKE,,,,,,,,,,,,,,,,,
,,,,,,,,,66c8abe49537b182dcbd2049,Colombian,13 or older,"no, only English or Spanish",no,2025-07-23_21h55.46.971,empathy_intonation_perc_control,2024.2.4,Win32,59.88023952,66c8abe49537b182dcbd2049,68817205a84113384fffdfe3,68819208f69c572f0ca7216c,,,,,,,,,,,,,1,,,,,,,,,,,,,,,,,,,,,,,,,,,,,,,,,,,,,75,yacer,,,,,418.1063,419.3555,1,1,0.7174,,0,42,42,74,1,REAL,FAKE,,,,,,,,,,,,,,,,,
,,,,,,,,,66c8abe49537b182dcbd2049,Colombian,13 or older,"no, only English or Spanish",no,2025-07-23_21h55.46.971,empathy_intonation_perc_control,2024.2.4,Win32,59.88023952,66c8abe49537b182dcbd2049,68817205a84113384fffdfe3,68819208f69c572f0ca7216c,,,,,,,,,,,,,1,,,,,,,,,,,,,,,,,,,,,,,,,,,,,,,,,,,,,40,alfombra,,,,,419.3563,420.6218,0,0,0.7338,,0,43,43,39,1,REAL,FAKE,,,,,,,,,,,,,,,,,
,,,,,,,,,66c8abe49537b182dcbd2049,Colombian,13 or older,"no, only English or Spanish",no,2025-07-23_21h55.46.971,empathy_intonation_perc_control,2024.2.4,Win32,59.88023952,66c8abe49537b182dcbd2049,68817205a84113384fffdfe3,68819208f69c572f0ca7216c,,,,,,,,,,,,,1,,,,,,,,,,,,,,,,,,,,,,,,,,,,,,,,,,,,,85,laúd,,,,,420.6232,421.9711,0,0,0.8164,,0,44,44,84,1,REAL,FAKE,,,,,,,,,,,,,,,,,
,,,,,,,,,66c8abe49537b182dcbd2049,Colombian,13 or older,"no, only English or Spanish",no,2025-07-23_21h55.46.971,empathy_intonation_perc_control,2024.2.4,Win32,59.88023952,66c8abe49537b182dcbd2049,68817205a84113384fffdfe3,68819208f69c572f0ca7216c,,,,,,,,,,,,,0,,,,,,,,,,,,,,,,,,,,,,,,,,,,,,,,,,,,,17,floroso,,,,,421.9721,423.3026,1,0,0.7983,,0,45,45,16,1,REAL,FAKE,,,,,,,,,,,,,,,,,
,,,,,,,,,66c8abe49537b182dcbd2049,Colombian,13 or older,"no, only English or Spanish",no,2025-07-23_21h55.46.971,empathy_intonation_perc_control,2024.2.4,Win32,59.88023952,66c8abe49537b182dcbd2049,68817205a84113384fffdfe3,68819208f69c572f0ca7216c,,,,,,,,,,,,,1,,,,,,,,,,,,,,,,,,,,,,,,,,,,,,,,,,,,,55,nevar,,,,,423.3037,424.905,0,0,1.0836,,0,46,46,54,1,REAL,FAKE,,,,,,,,,,,,,,,,,
,,,,,,,,,66c8abe49537b182dcbd2049,Colombian,13 or older,"no, only English or Spanish",no,2025-07-23_21h55.46.971,empathy_intonation_perc_control,2024.2.4,Win32,59.88023952,66c8abe49537b182dcbd2049,68817205a84113384fffdfe3,68819208f69c572f0ca7216c,,,,,,,,,,,,,1,,,,,,,,,,,,,,,,,,,,,,,,,,,,,,,,,,,,,61,seda,,,,,424.906,426.1048,1,1,0.6668,,0,47,47,60,1,REAL,FAKE,,,,,,,,,,,,,,,,,
,,,,,,,,,66c8abe49537b182dcbd2049,Colombian,13 or older,"no, only English or Spanish",no,2025-07-23_21h55.46.971,empathy_intonation_perc_control,2024.2.4,Win32,59.88023952,66c8abe49537b182dcbd2049,68817205a84113384fffdfe3,68819208f69c572f0ca7216c,,,,,,,,,,,,,0,,,,,,,,,,,,,,,,,,,,,,,,,,,,,,,,,,,,,19,brecedad,,,,,426.106,427.305,0,1,0.6673,,0,48,48,18,1,REAL,FAKE,,,,,,,,,,,,,,,,,
,,,,,,,,,66c8abe49537b182dcbd2049,Colombian,13 or older,"no, only English or Spanish",no,2025-07-23_21h55.46.971,empathy_intonation_perc_control,2024.2.4,Win32,59.88023952,66c8abe49537b182dcbd2049,68817205a84113384fffdfe3,68819208f69c572f0ca7216c,,,,,,,,,,,,,1,,,,,,,,,,,,,,,,,,,,,,,,,,,,,,,,,,,,,73,hervidor,,,,,427.3059,428.5384,0,0,0.7006,,0,49,49,72,1,REAL,FAKE,,,,,,,,,,,,,,,,,
,,,,,,,,,66c8abe49537b182dcbd2049,Colombian,13 or older,"no, only English or Spanish",no,2025-07-23_21h55.46.971,empathy_intonation_perc_control,2024.2.4,Win32,59.88023952,66c8abe49537b182dcbd2049,68817205a84113384fffdfe3,68819208f69c572f0ca7216c,,,,,,,,,,,,,1,,,,,,,,,,,,,,,,,,,,,,,,,,,,,,,,,,,,,6,tergiversar,,,,,428.5392,429.6045,0,0,0.5337,,0,50,50,5,1,REAL,FAKE,,,,,,,,,,,,,,,,,
,,,,,,,,,66c8abe49537b182dcbd2049,Colombian,13 or older,"no, only English or Spanish",no,2025-07-23_21h55.46.971,empathy_intonation_perc_control,2024.2.4,Win32,59.88023952,66c8abe49537b182dcbd2049,68817205a84113384fffdfe3,68819208f69c572f0ca7216c,,,,,,,,,,,,,0,,,,,,,,,,,,,,,,,,,,,,,,,,,,,,,,,,,,,21,capillo,,,,,429.6056,430.5216,1,0,0.3839,,0,51,51,20,1,REAL,FAKE,,,,,,,,,,,,,,,,,
,,,,,,,,,66c8abe49537b182dcbd2049,Colombian,13 or older,"no, only English or Spanish",no,2025-07-23_21h55.46.971,empathy_intonation_perc_control,2024.2.4,Win32,59.88023952,66c8abe49537b182dcbd2049,68817205a84113384fffdfe3,68819208f69c572f0ca7216c,,,,,,,,,,,,,1,,,,,,,,,,,,,,,,,,,,,,,,,,,,,,,,,,,,,89,prisa,,,,,430.5223,431.4882,1,1,0.4338,,0,52,52,88,1,REAL,FAKE,,,,,,,,,,,,,,,,,
,,,,,,,,,66c8abe49537b182dcbd2049,Colombian,13 or older,"no, only English or Spanish",no,2025-07-23_21h55.46.971,empathy_intonation_perc_control,2024.2.4,Win32,59.88023952,66c8abe49537b182dcbd2049,68817205a84113384fffdfe3,68819208f69c572f0ca7216c,,,,,,,,,,,,,1,,,,,,,,,,,,,,,,,,,,,,,,,,,,,,,,,,,,,64,orgulloso,,,,,431.489,432.6053,0,0,0.5843,,0,53,53,63,1,REAL,FAKE,,,,,,,,,,,,,,,,,
,,,,,,,,,66c8abe49537b182dcbd2049,Colombian,13 or older,"no, only English or Spanish",no,2025-07-23_21h55.46.971,empathy_intonation_perc_control,2024.2.4,Win32,59.88023952,66c8abe49537b182dcbd2049,68817205a84113384fffdfe3,68819208f69c572f0ca7216c,,,,,,,,,,,,,1,,,,,,,,,,,,,,,,,,,,,,,,,,,,,,,,,,,,,9,hacha,,,,,432.6061,433.7048,1,1,0.5674,,0,54,54,8,1,REAL,FAKE,,,,,,,,,,,,,,,,,
,,,,,,,,,66c8abe49537b182dcbd2049,Colombian,13 or older,"no, only English or Spanish",no,2025-07-23_21h55.46.971,empathy_intonation_perc_control,2024.2.4,Win32,59.88023952,66c8abe49537b182dcbd2049,68817205a84113384fffdfe3,68819208f69c572f0ca7216c,,,,,,,,,,,,,1,,,,,,,,,,,,,,,,,,,,,,,,,,,,,,,,,,,,,13,helar,,,,,433.7057,434.8325,0,0,0.5862,,0,55,55,12,1,REAL,FAKE,,,,,,,,,,,,,,,,,
,,,,,,,,,66c8abe49537b182dcbd2049,Colombian,13 or older,"no, only English or Spanish",no,2025-07-23_21h55.46.971,empathy_intonation_perc_control,2024.2.4,Win32,59.88023952,66c8abe49537b182dcbd2049,68817205a84113384fffdfe3,68819208f69c572f0ca7216c,,,,,,,,,,,,,1,,,,,,,,,,,,,,,,,,,,,,,,,,,,,,,,,,,,,57,tacaño,,,,,434.8347,436.0035,1,1,0.6499,,0,56,56,56,1,REAL,FAKE,,,,,,,,,,,,,,,,,
,,,,,,,,,66c8abe49537b182dcbd2049,Colombian,13 or older,"no, only English or Spanish",no,2025-07-23_21h55.46.971,empathy_intonation_perc_control,2024.2.4,Win32,59.88023952,66c8abe49537b182dcbd2049,68817205a84113384fffdfe3,68819208f69c572f0ca7216c,,,,,,,,,,,,,0,,,,,,,,,,,,,,,,,,,,,,,,,,,,,,,,,,,,,18,arsa,,,,,436.0046,437.1042,0,1,0.5671,,0,57,57,17,1,REAL,FAKE,,,,,,,,,,,,,,,,,
,,,,,,,,,66c8abe49537b182dcbd2049,Colombian,13 or older,"no, only English or Spanish",no,2025-07-23_21h55.46.971,empathy_intonation_perc_control,2024.2.4,Win32,59.88023952,66c8abe49537b182dcbd2049,68817205a84113384fffdfe3,68819208f69c572f0ca7216c,,,,,,,,,,,,,1,,,,,,,,,,,,,,,,,,,,,,,,,,,,,,,,,,,,,45,jilguero,,,,,437.1053,438.2713,0,0,0.6342,,0,58,58,44,1,REAL,FAKE,,,,,,,,,,,,,,,,,
,,,,,,,,,66c8abe49537b182dcbd2049,Colombian,13 or older,"no, only English or Spanish",no,2025-07-23_21h55.46.971,empathy_intonation_perc_control,2024.2.4,Win32,59.88023952,66c8abe49537b182dcbd2049,68817205a84113384fffdfe3,68819208f69c572f0ca7216c,,,,,,,,,,,,,0,,,,,,,,,,,,,,,,,,,,,,,,,,,,,,,,,,,,,53,vegada,,,,,438.2721,439.3211,1,0,0.5172,,0,59,59,52,1,REAL,FAKE,,,,,,,,,,,,,,,,,
,,,,,,,,,66c8abe49537b182dcbd2049,Colombian,13 or older,"no, only English or Spanish",no,2025-07-23_21h55.46.971,empathy_intonation_perc_control,2024.2.4,Win32,59.88023952,66c8abe49537b182dcbd2049,68817205a84113384fffdfe3,68819208f69c572f0ca7216c,,,,,,,,,,,,,1,,,,,,,,,,,,,,,,,,,,,,,,,,,,,,,,,,,,,31,pandilla,,,,,439.3219,440.7202,1,1,0.8664,,0,60,60,30,1,REAL,FAKE,,,,,,,,,,,,,,,,,
,,,,,,,,,66c8abe49537b182dcbd2049,Colombian,13 or older,"no, only English or Spanish",no,2025-07-23_21h55.46.971,empathy_intonation_perc_control,2024.2.4,Win32,59.88023952,66c8abe49537b182dcbd2049,68817205a84113384fffdfe3,68819208f69c572f0ca7216c,,,,,,,,,,,,,1,,,,,,,,,,,,,,,,,,,,,,,,,,,,,,,,,,,,,68,alegre,,,,,440.721,441.7549,0,0,0.5011,,0,61,61,67,1,REAL,FAKE,,,,,,,,,,,,,,,,,
,,,,,,,,,66c8abe49537b182dcbd2049,Colombian,13 or older,"no, only English or Spanish",no,2025-07-23_21h55.46.971,empathy_intonation_perc_control,2024.2.4,Win32,59.88023952,66c8abe49537b182dcbd2049,68817205a84113384fffdfe3,68819208f69c572f0ca7216c,,,,,,,,,,,,,1,,,,,,,,,,,,,,,,,,,,,,,,,,,,,,,,,,,,,91,click the 1 key.,,,,,441.7562,443.0879,1,1,0.8006,,0,62,62,90,1,REAL,FAKE,,,,,,,,,,,,,,,,,
,,,,,,,,,66c8abe49537b182dcbd2049,Colombian,13 or older,"no, only English or Spanish",no,2025-07-23_21h55.46.971,empathy_intonation_perc_control,2024.2.4,Win32,59.88023952,66c8abe49537b182dcbd2049,68817205a84113384fffdfe3,68819208f69c572f0ca7216c,,,,,,,,,,,,,1,,,,,,,,,,,,,,,,,,,,,,,,,,,,,,,,,,,,,14,yunque,,,,,443.0886,444.5034,0,0,0.8831,,0,63,63,13,1,REAL,FAKE,,,,,,,,,,,,,,,,,
,,,,,,,,,66c8abe49537b182dcbd2049,Colombian,13 or older,"no, only English or Spanish",no,2025-07-23_21h55.46.971,empathy_intonation_perc_control,2024.2.4,Win32,59.88023952,66c8abe49537b182dcbd2049,68817205a84113384fffdfe3,68819208f69c572f0ca7216c,,,,,,,,,,,,,1,,,,,,,,,,,,,,,,,,,,,,,,,,,,,,,,,,,,,90,clavel,,,,,444.5042,445.954,0,0,0.9173,,0,64,64,89,1,REAL,FAKE,,,,,,,,,,,,,,,,,
,,,,,,,,,66c8abe49537b182dcbd2049,Colombian,13 or older,"no, only English or Spanish",no,2025-07-23_21h55.46.971,empathy_intonation_perc_control,2024.2.4,Win32,59.88023952,66c8abe49537b182dcbd2049,68817205a84113384fffdfe3,68819208f69c572f0ca7216c,,,,,,,,,,,,,0,,,,,,,,,,,,,,,,,,,,,,,,,,,,,,,,,,,,,84,escuto,,,,,445.9548,447.8208,1,0,1.3339,,0,65,65,83,1,REAL,FAKE,,,,,,,,,,,,,,,,,
,,,,,,,,,66c8abe49537b182dcbd2049,Colombian,13 or older,"no, only English or Spanish",no,2025-07-23_21h55.46.971,empathy_intonation_perc_control,2024.2.4,Win32,59.88023952,66c8abe49537b182dcbd2049,68817205a84113384fffdfe3,68819208f69c572f0ca7216c,,,,,,,,,,,,,0,,,,,,,,,,,,,,,,,,,,,,,,,,,,,,,,,,,,,1,terzo,,,,,447.8216,450.1708,1,0,1.8173,,0,66,66,0,1,REAL,FAKE,,,,,,,,,,,,,,,,,
,,,,,,,,,66c8abe49537b182dcbd2049,Colombian,13 or older,"no, only English or Spanish",no,2025-07-23_21h55.46.971,empathy_intonation_perc_control,2024.2.4,Win32,59.88023952,66c8abe49537b182dcbd2049,68817205a84113384fffdfe3,68819208f69c572f0ca7216c,,,,,,,,,,,,,1,,,,,,,,,,,,,,,,,,,,,,,,,,,,,,,,,,,,,34,aviso,,,,,450.1716,451.7871,0,0,1.0841,,0,67,67,33,1,REAL,FAKE,,,,,,,,,,,,,,,,,
,,,,,,,,,66c8abe49537b182dcbd2049,Colombian,13 or older,"no, only English or Spanish",no,2025-07-23_21h55.46.971,empathy_intonation_perc_control,2024.2.4,Win32,59.88023952,66c8abe49537b182dcbd2049,68817205a84113384fffdfe3,68819208f69c572f0ca7216c,,,,,,,,,,,,,1,,,,,,,,,,,,,,,,,,,,,,,,,,,,,,,,,,,,,28,merodear,,,,,451.7877,453.2033,0,0,0.8839,,0,68,68,27,1,REAL,FAKE,,,,,,,,,,,,,,,,,
,,,,,,,,,66c8abe49537b182dcbd2049,Colombian,13 or older,"no, only English or Spanish",no,2025-07-23_21h55.46.971,empathy_intonation_perc_control,2024.2.4,Win32,59.88023952,66c8abe49537b182dcbd2049,68817205a84113384fffdfe3,68819208f69c572f0ca7216c,,,,,,,,,,,,,1,,,,,,,,,,,,,,,,,,,,,,,,,,,,,,,,,,,,,56,musgo,,,,,453.2043,454.6705,0,0,0.9341,,0,69,69,55,1,REAL,FAKE,,,,,,,,,,,,,,,,,
,,,,,,,,,66c8abe49537b182dcbd2049,Colombian,13 or older,"no, only English or Spanish",no,2025-07-23_21h55.46.971,empathy_intonation_perc_control,2024.2.4,Win32,59.88023952,66c8abe49537b182dcbd2049,68817205a84113384fffdfe3,68819208f69c572f0ca7216c,,,,,,,,,,,,,1,,,,,,,,,,,,,,,,,,,,,,,,,,,,,,,,,,,,,81,pozo,,,,,454.6712,456.1366,1,1,0.9339,,0,70,70,80,1,REAL,FAKE,,,,,,,,,,,,,,,,,
,,,,,,,,,66c8abe49537b182dcbd2049,Colombian,13 or older,"no, only English or Spanish",no,2025-07-23_21h55.46.971,empathy_intonation_perc_control,2024.2.4,Win32,59.88023952,66c8abe49537b182dcbd2049,68817205a84113384fffdfe3,68819208f69c572f0ca7216c,,,,,,,,,,,,,1,,,,,,,,,,,,,,,,,,,,,,,,,,,,,,,,,,,,,65,bizcocho,,,,,456.1376,457.5533,0,0,0.8839,,0,71,71,64,1,REAL,FAKE,,,,,,,,,,,,,,,,,
,,,,,,,,,66c8abe49537b182dcbd2049,Colombian,13 or older,"no, only English or Spanish",no,2025-07-23_21h55.46.971,empathy_intonation_perc_control,2024.2.4,Win32,59.88023952,66c8abe49537b182dcbd2049,68817205a84113384fffdfe3,68819208f69c572f0ca7216c,,,,,,,,,,,,,1,,,,,,,,,,,,,,,,,,,,,,,,,,,,,,,,,,,,,2,pellizcar,,,,,457.5541,458.7197,0,0,0.6339,,0,72,72,1,1,REAL,FAKE,,,,,,,,,,,,,,,,,
,,,,,,,,,66c8abe49537b182dcbd2049,Colombian,13 or older,"no, only English or Spanish",no,2025-07-23_21h55.46.971,empathy_intonation_perc_control,2024.2.4,Win32,59.88023952,66c8abe49537b182dcbd2049,68817205a84113384fffdfe3,68819208f69c572f0ca7216c,,,,,,,,,,,,,1,,,,,,,,,,,,,,,,,,,,,,,,,,,,,,,,,,,,,76,atar,,,,,458.7208,459.803,1,1,0.5505,,0,73,73,75,1,REAL,FAKE,,,,,,,,,,,,,,,,,
,,,,,,,,,66c8abe49537b182dcbd2049,Colombian,13 or older,"no, only English or Spanish",no,2025-07-23_21h55.46.971,empathy_intonation_perc_control,2024.2.4,Win32,59.88023952,66c8abe49537b182dcbd2049,68817205a84113384fffdfe3,68819208f69c572f0ca7216c,,,,,,,,,,,,,1,,,,,,,,,,,,,,,,,,,,,,,,,,,,,,,,,,,,,59,besar,,,,,459.8038,461.1523,1,1,0.8163,,0,74,74,58,1,REAL,FAKE,,,,,,,,,,,,,,,,,
,,,,,,,,,66c8abe49537b182dcbd2049,Colombian,13 or older,"no, only English or Spanish",no,2025-07-23_21h55.46.971,empathy_intonation_perc_control,2024.2.4,Win32,59.88023952,66c8abe49537b182dcbd2049,68817205a84113384fffdfe3,68819208f69c572f0ca7216c,,,,,,,,,,,,,1,,,,,,,,,,,,,,,,,,,,,,,,,,,,,,,,,,,,,20,ávido,,,,,461.1531,462.731,1,1,1.0412,,0,75,75,19,1,REAL,FAKE,,,,,,,,,,,,,,,,,
,,,,,,,,,66c8abe49537b182dcbd2049,Colombian,13 or older,"no, only English or Spanish",no,2025-07-23_21h55.46.971,empathy_intonation_perc_control,2024.2.4,Win32,59.88023952,66c8abe49537b182dcbd2049,68817205a84113384fffdfe3,68819208f69c572f0ca7216c,,,,,,,,,,,,,0,,,,,,,,,,,,,,,,,,,,,,,,,,,,,,,,,,,,,33,pauca,,,,,462.7331,464.436,0,1,1.1838,,0,76,76,32,1,REAL,FAKE,,,,,,,,,,,,,,,,,
,,,,,,,,,66c8abe49537b182dcbd2049,Colombian,13 or older,"no, only English or Spanish",no,2025-07-23_21h55.46.971,empathy_intonation_perc_control,2024.2.4,Win32,59.88023952,66c8abe49537b182dcbd2049,68817205a84113384fffdfe3,68819208f69c572f0ca7216c,,,,,,,,,,,,,0,,,,,,,,,,,,,,,,,,,,,,,,,,,,,,,,,,,,,58,plaudir,,,,,464.4373,465.7838,0,1,0.8147,,0,77,77,57,1,REAL,FAKE,,,,,,,,,,,,,,,,,
,,,,,,,,,66c8abe49537b182dcbd2049,Colombian,13 or older,"no, only English or Spanish",no,2025-07-23_21h55.46.971,empathy_intonation_perc_control,2024.2.4,Win32,59.88023952,66c8abe49537b182dcbd2049,68817205a84113384fffdfe3,68819208f69c572f0ca7216c,,,,,,,,,,,,,1,,,,,,,,,,,,,,,,,,,,,,,,,,,,,,,,,,,,,51,candado,,,,,465.7846,467.5192,0,0,1.2169,,0,78,78,50,1,REAL,FAKE,,,,,,,,,,,,,,,,,
,,,,,,,,,66c8abe49537b182dcbd2049,Colombian,13 or older,"no, only English or Spanish",no,2025-07-23_21h55.46.971,empathy_intonation_perc_control,2024.2.4,Win32,59.88023952,66c8abe49537b182dcbd2049,68817205a84113384fffdfe3,68819208f69c572f0ca7216c,,,,,,,,,,,,,1,,,,,,,,,,,,,,,,,,,,,,,,,,,,,,,,,,,,,7,pésimo,,,,,467.52,469.4707,0,0,1.4189,,0,79,79,6,1,REAL,FAKE,,,,,,,,,,,,,,,,,
,,,,,,,,,66c8abe49537b182dcbd2049,Colombian,13 or older,"no, only English or Spanish",no,2025-07-23_21h55.46.971,empathy_intonation_perc_control,2024.2.4,Win32,59.88023952,66c8abe49537b182dcbd2049,68817205a84113384fffdfe3,68819208f69c572f0ca7216c,,,,,,,,,,,,,1,,,,,,,,,,,,,,,,,,,,,,,,,,,,,,,,,,,,,37,granuja,,,,,469.4713,470.9191,0,0,0.9171,,0,80,80,36,1,REAL,FAKE,,,,,,,,,,,,,,,,,
,,,,,,,,,66c8abe49537b182dcbd2049,Colombian,13 or older,"no, only English or Spanish",no,2025-07-23_21h55.46.971,empathy_intonation_perc_control,2024.2.4,Win32,59.88023952,66c8abe49537b182dcbd2049,68817205a84113384fffdfe3,68819208f69c572f0ca7216c,,,,,,,,,,,,,1,,,,,,,,,,,,,,,,,,,,,,,,,,,,,,,,,,,,,62,flaco,,,,,470.9202,472.2186,0,0,0.7672,,0,81,81,61,1,REAL,FAKE,,,,,,,,,,,,,,,,,
,,,,,,,,,66c8abe49537b182dcbd2049,Colombian,13 or older,"no, only English or Spanish",no,2025-07-23_21h55.46.971,empathy_intonation_perc_control,2024.2.4,Win32,59.88023952,66c8abe49537b182dcbd2049,68817205a84113384fffdfe3,68819208f69c572f0ca7216c,,,,,,,,,,,,,1,,,,,,,,,,,,,,,,,,,,,,,,,,,,,,,,,,,,,15,regar,,,,,472.2199,474.0693,1,1,1.3175,,0,82,82,14,1,REAL,FAKE,,,,,,,,,,,,,,,,,
,,,,,,,,,66c8abe49537b182dcbd2049,Colombian,13 or older,"no, only English or Spanish",no,2025-07-23_21h55.46.971,empathy_intonation_perc_control,2024.2.4,Win32,59.88023952,66c8abe49537b182dcbd2049,68817205a84113384fffdfe3,68819208f69c572f0ca7216c,,,,,,,,,,,,,0,,,,,,,,,,,,,,,,,,,,,,,,,,,,,,,,,,,,,63,esposante,,,,,474.0699,476.9186,1,0,2.3172,,0,83,83,62,1,REAL,FAKE,,,,,,,,,,,,,,,,,
,,,,,,,,,66c8abe49537b182dcbd2049,Colombian,13 or older,"no, only English or Spanish",no,2025-07-23_21h55.46.971,empathy_intonation_perc_control,2024.2.4,Win32,59.88023952,66c8abe49537b182dcbd2049,68817205a84113384fffdfe3,68819208f69c572f0ca7216c,,,,,,,,,,,,,0,,,,,,,,,,,,,,,,,,,,,,,,,,,,,,,,,,,,,92,click the 0 key.,,,,,476.9198,478.3677,0,1,0.9163,,0,84,84,91,1,REAL,FAKE,,,,,,,,,,,,,,,,,
,,,,,,,,,66c8abe49537b182dcbd2049,Colombian,13 or older,"no, only English or Spanish",no,2025-07-23_21h55.46.971,empathy_intonation_perc_control,2024.2.4,Win32,59.88023952,66c8abe49537b182dcbd2049,68817205a84113384fffdfe3,68819208f69c572f0ca7216c,,,,,,,,,,,,,1,,,,,,,,,,,,,,,,,,,,,,,,,,,,,,,,,,,,,3,pulmones,,,,,478.3689,480.285,0,0,1.3838,,0,85,85,2,1,REAL,FAKE,,,,,,,,,,,,,,,,,
,,,,,,,,,66c8abe49537b182dcbd2049,Colombian,13 or older,"no, only English or Spanish",no,2025-07-23_21h55.46.971,empathy_intonation_perc_control,2024.2.4,Win32,59.88023952,66c8abe49537b182dcbd2049,68817205a84113384fffdfe3,68819208f69c572f0ca7216c,,,,,,,,,,,,,1,,,,,,,,,,,,,,,,,,,,,,,,,,,,,,,,,,,,,25,bisagra,,,,,480.2863,481.7158,1,1,0.8981,,0,86,86,24,1,REAL,FAKE,,,,,,,,,,,,,,,,,
,,,,,,,,,66c8abe49537b182dcbd2049,Colombian,13 or older,"no, only English or Spanish",no,2025-07-23_21h55.46.971,empathy_intonation_perc_control,2024.2.4,Win32,59.88023952,66c8abe49537b182dcbd2049,68817205a84113384fffdfe3,68819208f69c572f0ca7216c,,,,,,,,,,,,,0,,,,,,,,,,,,,,,,,,,,,,,,,,,,,,,,,,,,,30,alardio,,,,,481.717,483.0013,0,1,0.7505,,0,87,87,29,1,REAL,FAKE,,,,,,,,,,,,,,,,,
,,,,,,,,,66c8abe49537b182dcbd2049,Colombian,13 or older,"no, only English or Spanish",no,2025-07-23_21h55.46.971,empathy_intonation_perc_control,2024.2.4,Win32,59.88023952,66c8abe49537b182dcbd2049,68817205a84113384fffdfe3,68819208f69c572f0ca7216c,,,,,,,,,,,,,0,,,,,,,,,,,,,,,,,,,,,,,,,,,,,,,,,,,,,29,decar,,,,,483.0024,484.4354,0,1,0.9008,,0,88,88,28,1,REAL,FAKE,,,,,,,,,,,,,,,,,
,,,,,,,,,66c8abe49537b182dcbd2049,Colombian,13 or older,"no, only English or Spanish",no,2025-07-23_21h55.46.971,empathy_intonation_perc_control,2024.2.4,Win32,59.88023952,66c8abe49537b182dcbd2049,68817205a84113384fffdfe3,68819208f69c572f0ca7216c,,,,,,,,,,,,,0,,,,,,,,,,,,,,,,,,,,,,,,,,,,,,,,,,,,,47,cartinar,,,,,484.4362,485.5517,0,1,0.5839,,0,89,89,46,1,REAL,FAKE,,,,,,,,,,,,,,,,,
,,,,,,,,,66c8abe49537b182dcbd2049,Colombian,13 or older,"no, only English or Spanish",no,2025-07-23_21h55.46.971,empathy_intonation_perc_control,2024.2.4,Win32,59.88023952,66c8abe49537b182dcbd2049,68817205a84113384fffdfe3,68819208f69c572f0ca7216c,,,,,,,,,,,,,0,,,,,,,,,,,,,,,,,,,,,,,,,,,,,,,,,,,,,16,abracer,,,,,485.5527,486.8682,0,1,0.7838,,0,90,90,15,1,REAL,FAKE,,,,,,,,,,,,,,,,,
,,,,,,,,,66c8abe49537b182dcbd2049,Colombian,13 or older,"no, only English or Spanish",no,2025-07-23_21h55.46.971,empathy_intonation_perc_control,2024.2.4,Win32,59.88023952,66c8abe49537b182dcbd2049,68817205a84113384fffdfe3,68819208f69c572f0ca7216c,,,,,,,,,,,,,1,,,,,,,,,,,,,,,,,,,,,,,,,,,,,,,,,,,,,39,torpe,,,,,486.8689,488.0841,1,1,0.6833,,0,91,91,38,1,REAL,FAKE,,,,,,,,,,,,,,,,,
,,,,,,,,,66c8abe49537b182dcbd2049,Colombian,13 or older,"no, only English or Spanish",no,2025-07-23_21h55.46.971,empathy_intonation_perc_control,2024.2.4,Win32,59.88023952,66c8abe49537b182dcbd2049,68817205a84113384fffdfe3,68819208f69c572f0ca7216c,,,,,,,,,,,,,,,,,,,,,,,,,,,,,,,,,,,,,,,,,,,,,,,,,,,,,,,,,,,,,,,,,,,,,488.0844,548.9657,,,,,,,,,,,,,,,
,,,,,,,,,66c8abe49537b182dcbd2049,Colombian,13 or older,"no, only English or Spanish",no,2025-07-23_21h55.46.971,empathy_intonation_perc_control,2024.2.4,Win32,59.88023952,66c8abe49537b182dcbd2049,68817205a84113384fffdfe3,68819208f69c572f0ca7216c,,,,,,,,,,,,,,,,,,,,,,,,,,,1,,,,,,,,,,,,,,,,,,,,,,,,,,,,,,,,,,,,,,,,,,,,548.9757,555.0766,slightly agree,0,0,0,0,1,I can easily tell if someone else wants to enter a conversation.,1,0,1,0,,
,,,,,,,,,66c8abe49537b182dcbd2049,Colombian,13 or older,"no, only English or Spanish",no,2025-07-23_21h55.46.971,empathy_intonation_perc_control,2024.2.4,Win32,59.88023952,66c8abe49537b182dcbd2049,68817205a84113384fffdfe3,68819208f69c572f0ca7216c,,,,,,,,,,,,,,,,,,,,,,,,,,,2,,,,,,,,,,,,,,,,,,,,,,,,,,,,,,,,,,,,,,,,,,,,555.079,558.5104,slightly agree,0,1,1,1,1,I prefer animals to humans.,0,1,0,0,,
,,,,,,,,,66c8abe49537b182dcbd2049,Colombian,13 or older,"no, only English or Spanish",no,2025-07-23_21h55.46.971,empathy_intonation_perc_control,2024.2.4,Win32,59.88023952,66c8abe49537b182dcbd2049,68817205a84113384fffdfe3,68819208f69c572f0ca7216c,,,,,,,,,,,,,,,,,,,,,,,,,,,3,,,,,,,,,,,,,,,,,,,,,,,,,,,,,,,,,,,,,,,,,,,,558.5119,560.1946,slightly agree,0,2,2,2,1,I try to keep up with the current trends and fashions.,0,1,0,0,,
,,,,,,,,,66c8abe49537b182dcbd2049,Colombian,13 or older,"no, only English or Spanish",no,2025-07-23_21h55.46.971,empathy_intonation_perc_control,2024.2.4,Win32,59.88023952,66c8abe49537b182dcbd2049,68817205a84113384fffdfe3,68819208f69c572f0ca7216c,,,,,,,,,,,,,,,,,,,,,,,,,,,4,,,,,,,,,,,,,,,,,,,,,,,,,,,,,,,,,,,,,,,,,,,,560.1966,568.5263,slightly disagree,0,3,3,3,1,"I find it difficult to explain to others things that I understand easily,   when they don't understand it first time.",1,0,0,1,,
,,,,,,,,,66c8abe49537b182dcbd2049,Colombian,13 or older,"no, only English or Spanish",no,2025-07-23_21h55.46.971,empathy_intonation_perc_control,2024.2.4,Win32,59.88023952,66c8abe49537b182dcbd2049,68817205a84113384fffdfe3,68819208f69c572f0ca7216c,,,,,,,,,,,,,,,,,,,,,,,,,,,5,,,,,,,,,,,,,,,,,,,,,,,,,,,,,,,,,,,,,,,,,,,,568.5275,570.8263,slightly agree,0,4,4,4,1,I dream most nights.,0,1,0,0,,
,,,,,,,,,66c8abe49537b182dcbd2049,Colombian,13 or older,"no, only English or Spanish",no,2025-07-23_21h55.46.971,empathy_intonation_perc_control,2024.2.4,Win32,59.88023952,66c8abe49537b182dcbd2049,68817205a84113384fffdfe3,68819208f69c572f0ca7216c,,,,,,,,,,,,,,,,,,,,,,,,,,,6,,,,,,,,,,,,,,,,,,,,,,,,,,,,,,,,,,,,,,,,,,,,570.8279,572.2761,slightly agree,0,5,5,5,1,I really enjoy caring for other people.,1,0,1,0,,
,,,,,,,,,66c8abe49537b182dcbd2049,Colombian,13 or older,"no, only English or Spanish",no,2025-07-23_21h55.46.971,empathy_intonation_perc_control,2024.2.4,Win32,59.88023952,66c8abe49537b182dcbd2049,68817205a84113384fffdfe3,68819208f69c572f0ca7216c,,,,,,,,,,,,,,,,,,,,,,,,,,,7,,,,,,,,,,,,,,,,,,,,,,,,,,,,,,,,,,,,,,,,,,,,572.2777,576.3932,strongly agree,0,6,6,6,1,I try to solve my own problems rather than discussing them with others.,0,1,0,0,,
,,,,,,,,,66c8abe49537b182dcbd2049,Colombian,13 or older,"no, only English or Spanish",no,2025-07-23_21h55.46.971,empathy_intonation_perc_control,2024.2.4,Win32,59.88023952,66c8abe49537b182dcbd2049,68817205a84113384fffdfe3,68819208f69c572f0ca7216c,,,,,,,,,,,,,,,,,,,,,,,,,,,8,,,,,,,,,,,,,,,,,,,,,,,,,,,,,,,,,,,,,,,,,,,,576.3944,579.1418,slightly disagree,0,7,7,7,1,I find it hard to know what to do in a social situation.,1,0,0,1,,
,,,,,,,,,66c8abe49537b182dcbd2049,Colombian,13 or older,"no, only English or Spanish",no,2025-07-23_21h55.46.971,empathy_intonation_perc_control,2024.2.4,Win32,59.88023952,66c8abe49537b182dcbd2049,68817205a84113384fffdfe3,68819208f69c572f0ca7216c,,,,,,,,,,,,,,,,,,,,,,,,,,,9,,,,,,,,,,,,,,,,,,,,,,,,,,,,,,,,,,,,,,,,,,,,579.143,584.4749,slightly disagree,0,8,8,8,1,I am at my best first thing in the morning.,0,1,0,0,,
,,,,,,,,,66c8abe49537b182dcbd2049,Colombian,13 or older,"no, only English or Spanish",no,2025-07-23_21h55.46.971,empathy_intonation_perc_control,2024.2.4,Win32,59.88023952,66c8abe49537b182dcbd2049,68817205a84113384fffdfe3,68819208f69c572f0ca7216c,,,,,,,,,,,,,,,,,,,,,,,,,,,10,,,,,,,,,,,,,,,,,,,,,,,,,,,,,,,,,,,,,,,,,,,,584.4765,594.741,slightly disagree,0,9,9,9,1,People often tell me that I went too far in driving my point home in a discussion.,1,0,0,1,,
,,,,,,,,,66c8abe49537b182dcbd2049,Colombian,13 or older,"no, only English or Spanish",no,2025-07-23_21h55.46.971,empathy_intonation_perc_control,2024.2.4,Win32,59.88023952,66c8abe49537b182dcbd2049,68817205a84113384fffdfe3,68819208f69c572f0ca7216c,,,,,,,,,,,,,,,,,,,,,,,,,,,11,,,,,,,,,,,,,,,,,,,,,,,,,,,,,,,,,,,,,,,,,,,,594.7422,599.343,slightly disagree,0,10,10,10,1,It doesn't bother me too much if I am late meeting a friend.,1,0,0,1,,
,,,,,,,,,66c8abe49537b182dcbd2049,Colombian,13 or older,"no, only English or Spanish",no,2025-07-23_21h55.46.971,empathy_intonation_perc_control,2024.2.4,Win32,59.88023952,66c8abe49537b182dcbd2049,68817205a84113384fffdfe3,68819208f69c572f0ca7216c,,,,,,,,,,,,,,,,,,,,,,,,,,,12,,,,,,,,,,,,,,,,,,,,,,,,,,,,,,,,,,,,,,,,,,,,599.3453,603.8241,slightly agree,0,11,11,11,1,"Friendships and relationships are just too difficult, so I tend not to 
  bother with them.",1,0,0,1,,
,,,,,,,,,66c8abe49537b182dcbd2049,Colombian,13 or older,"no, only English or Spanish",no,2025-07-23_21h55.46.971,empathy_intonation_perc_control,2024.2.4,Win32,59.88023952,66c8abe49537b182dcbd2049,68817205a84113384fffdfe3,68819208f69c572f0ca7216c,,,,,,,,,,,,,,,,,,,,,,,,,,,13,,,,,,,,,,,,,,,,,,,,,,,,,,,,,,,,,,,,,,,,,,,,603.8251,607.6736,strongly disagree,0,12,12,12,1,"I would never break a law, no matter how minor.",0,1,0,0,,
,,,,,,,,,66c8abe49537b182dcbd2049,Colombian,13 or older,"no, only English or Spanish",no,2025-07-23_21h55.46.971,empathy_intonation_perc_control,2024.2.4,Win32,59.88023952,66c8abe49537b182dcbd2049,68817205a84113384fffdfe3,68819208f69c572f0ca7216c,,,,,,,,,,,,,,,,,,,,,,,,,,,14,,,,,,,,,,,,,,,,,,,,,,,,,,,,,,,,,,,,,,,,,,,,607.6747,631.5554,strongly disagree,0,13,13,13,1,I often find it difficult to judge if something is rude or polite.,1,0,0,1,,
,,,,,,,,,66c8abe49537b182dcbd2049,Colombian,13 or older,"no, only English or Spanish",no,2025-07-23_21h55.46.971,empathy_intonation_perc_control,2024.2.4,Win32,59.88023952,66c8abe49537b182dcbd2049,68817205a84113384fffdfe3,68819208f69c572f0ca7216c,,,,,,,,,,,,,,,,,,,,,,,,,,,15,,,,,,,,,,,,,,,,,,,,,,,,,,,,,,,,,,,,,,,,,,,,631.5567,647.6215,slightly agree,0,14,14,14,1,"In a conversation, I tend to focus on my own thoughts rather than on what 
  my listener might be thinking.",1,0,0,1,,
,,,,,,,,,66c8abe49537b182dcbd2049,Colombian,13 or older,"no, only English or Spanish",no,2025-07-23_21h55.46.971,empathy_intonation_perc_control,2024.2.4,Win32,59.88023952,66c8abe49537b182dcbd2049,68817205a84113384fffdfe3,68819208f69c572f0ca7216c,,,,,,,,,,,,,,,,,,,,,,,,,,,16,,,,,,,,,,,,,,,,,,,,,,,,,,,,,,,,,,,,,,,,,,,,647.6229,651.8708,strongly disagree,0,15,15,15,1,I prefer practical jokes to verbal humor.,0,1,0,0,,
,,,,,,,,,66c8abe49537b182dcbd2049,Colombian,13 or older,"no, only English or Spanish",no,2025-07-23_21h55.46.971,empathy_intonation_perc_control,2024.2.4,Win32,59.88023952,66c8abe49537b182dcbd2049,68817205a84113384fffdfe3,68819208f69c572f0ca7216c,,,,,,,,,,,,,,,,,,,,,,,,,,,17,,,,,,,,,,,,,,,,,,,,,,,,,,,,,,,,,,,,,,,,,,,,651.8723,654.754,strongly disagree,0,16,16,16,1,I live life for today rather than the future.,0,1,0,0,,
,,,,,,,,,66c8abe49537b182dcbd2049,Colombian,13 or older,"no, only English or Spanish",no,2025-07-23_21h55.46.971,empathy_intonation_perc_control,2024.2.4,Win32,59.88023952,66c8abe49537b182dcbd2049,68817205a84113384fffdfe3,68819208f69c572f0ca7216c,,,,,,,,,,,,,,,,,,,,,,,,,,,18,,,,,,,,,,,,,,,,,,,,,,,,,,,,,,,,,,,,,,,,,,,,654.7559,666.3875,strongly disagree,0,17,17,17,1,"When I was a child, I enjoyed cutting up worms to see what would happen.",1,0,0,1,,
,,,,,,,,,66c8abe49537b182dcbd2049,Colombian,13 or older,"no, only English or Spanish",no,2025-07-23_21h55.46.971,empathy_intonation_perc_control,2024.2.4,Win32,59.88023952,66c8abe49537b182dcbd2049,68817205a84113384fffdfe3,68819208f69c572f0ca7216c,,,,,,,,,,,,,,,,,,,,,,,,,,,19,,,,,,,,,,,,,,,,,,,,,,,,,,,,,,,,,,,,,,,,,,,,666.3888,670.903,slightly agree,0,18,18,18,1,I can pick up quickly if someone says one thing but means another.,1,0,1,0,,
,,,,,,,,,66c8abe49537b182dcbd2049,Colombian,13 or older,"no, only English or Spanish",no,2025-07-23_21h55.46.971,empathy_intonation_perc_control,2024.2.4,Win32,59.88023952,66c8abe49537b182dcbd2049,68817205a84113384fffdfe3,68819208f69c572f0ca7216c,,,,,,,,,,,,,,,,,,,,,,,,,,,20,,,,,,,,,,,,,,,,,,,,,,,,,,,,,,,,,,,,,,,,,,,,670.9042,677.6691,slightly agree,0,19,19,19,1,I tend to have very strong opinions about morality.,0,1,0,0,,
,,,,,,,,,66c8abe49537b182dcbd2049,Colombian,13 or older,"no, only English or Spanish",no,2025-07-23_21h55.46.971,empathy_intonation_perc_control,2024.2.4,Win32,59.88023952,66c8abe49537b182dcbd2049,68817205a84113384fffdfe3,68819208f69c572f0ca7216c,,,,,,,,,,,,,,,,,,,,,,,,,,,21,,,,,,,,,,,,,,,,,,,,,,,,,,,,,,,,,,,,,,,,,,,,677.6705,686.1027,slightly agree,0,20,20,20,1,It is hard for me to see why some things upset people so much.,1,0,0,1,,
,,,,,,,,,66c8abe49537b182dcbd2049,Colombian,13 or older,"no, only English or Spanish",no,2025-07-23_21h55.46.971,empathy_intonation_perc_control,2024.2.4,Win32,59.88023952,66c8abe49537b182dcbd2049,68817205a84113384fffdfe3,68819208f69c572f0ca7216c,,,,,,,,,,,,,,,,,,,,,,,,,,,22,,,,,,,,,,,,,,,,,,,,,,,,,,,,,,,,,,,,,,,,,,,,686.1039,690.4028,slightly agree,0,21,21,21,1,I find it easy to put myself in somebody else's shoes.,1,0,1,0,,
,,,,,,,,,66c8abe49537b182dcbd2049,Colombian,13 or older,"no, only English or Spanish",no,2025-07-23_21h55.46.971,empathy_intonation_perc_control,2024.2.4,Win32,59.88023952,66c8abe49537b182dcbd2049,68817205a84113384fffdfe3,68819208f69c572f0ca7216c,,,,,,,,,,,,,,,,,,,,,,,,,,,23,,,,,,,,,,,,,,,,,,,,,,,,,,,,,,,,,,,,,,,,,,,,690.404,699.9684,slightly disagree,0,22,22,22,1,I think that good manners are the most important thing a parent can teach their child.,0,1,0,0,,
,,,,,,,,,66c8abe49537b182dcbd2049,Colombian,13 or older,"no, only English or Spanish",no,2025-07-23_21h55.46.971,empathy_intonation_perc_control,2024.2.4,Win32,59.88023952,66c8abe49537b182dcbd2049,68817205a84113384fffdfe3,68819208f69c572f0ca7216c,,,,,,,,,,,,,,,,,,,,,,,,,,,24,,,,,,,,,,,,,,,,,,,,,,,,,,,,,,,,,,,,,,,,,,,,699.9694,703.0845,slightly disagree,0,23,23,23,1,I like to do things on the spur of the moment.,0,1,0,0,,
