instructions_2afc.started,instructions_2afc.stopped,instructions_2afc_loop.thisRepN,instructions_2afc_loop.thisTrialN,instructions_2afc_loop.thisN,instructions_2afc_loop.thisIndex,instructions_2afc_loop.ran,instructions_text,continue_text,participant_id,"What variety of Spanish are you most familiar with? (e.g., Peruvian, Spanish, Mexican)",At what age did you begin learning Spanish?,Are you proficient in any languages other than English/Spanish?,"Are you familiar with Caribbean (e.g., Caribbean, Puerto Rican) or Galician Spanish?",date,expName,psychopyVersion,OS,frameRate,id,study_id,session,practice_2afc.started,practice_2afc.stopped,key_resp_2afc_practice.keys,key_resp_2afc_practice.corr,key_resp_2afc_practice.rt,key_resp_2afc_practice.duration,trials_2afc_practice_loop.thisRepN,trials_2afc_practice_loop.thisTrialN,trials_2afc_practice_loop.thisN,trials_2afc_practice_loop.thisIndex,trials_2afc_practice_loop.ran,path,correct_response,check_2afc.started,check_2afc.stopped,trial_2afc.started,trial_2afc.stopped,key_resp_2afc_trial.keys,key_resp_2afc_trial.corr,key_resp_2afc_trial.rt,key_resp_2afc_trial.duration,trials_2afc_loop.thisRepN,trials_2afc_loop.thisTrialN,trials_2afc_loop.thisN,trials_2afc_loop.thisIndex,trials_2afc_loop.ran,item_num,target,variety,instructions_lextale.started,instructions_lextale.stopped,instructions_lextale_loop.thisRepN,instructions_lextale_loop.thisTrialN,instructions_lextale_loop.thisN,instructions_lextale_loop.thisIndex,instructions_lextale_loop.ran,practice_lextale.started,practice_lextale.stopped,key_resp_lextale_practice.keys,key_resp_lextale_practice.corr,key_resp_lextale_practice.rt,key_resp_lextale_practice.duration,practice_feedback_lextale.started,practice_feedback_lextale.stopped,trials_lextale_practice_loop.thisRepN,trials_lextale_practice_loop.thisTrialN,trials_lextale_practice_loop.thisN,trials_lextale_practice_loop.thisIndex,trials_lextale_practice_loop.ran,stim,word,prac_button_real,prac_button_false,check_lextale.started,check_lextale.stopped,trial_lextale.started,trial_lextale.stopped,key_resp_lextale_trial.keys,key_resp_lextale_trial.corr,key_resp_lextale_trial.rt,key_resp_lextale_trial.duration,trials_lextale_loop.thisRepN,trials_lextale_loop.thisTrialN,trials_lextale_loop.thisN,trials_lextale_loop.thisIndex,trials_lextale_loop.ran,button_real,button_false,instructions_eq.started,instructions_eq.stopped,trial_eq.started,trial_eq.stopped,slider_eq_trial.response,trials_eq_loop.thisRepN,trials_eq_loop.thisTrialN,trials_eq_loop.thisN,trials_eq_loop.thisIndex,trials_eq_loop.ran,item,is_test_item,is_distractor,is_agree_score,is_disagree_score,end_exp.started,end_exp.stopped
0.0111,5.0811,0,0,0,0,1,"In the following task you are going to hear a series of utterances. 

  You will decide if the utterances sound like questions or not using your keyboard.", (press the spacebar to continue),66e2de50b2eb63d466d153af,Mexican,13 or older,"no, only English or Spanish",no,2025-07-24_10h35.04.222,empathy_intonation_perc_control,2024.2.4,Win32,142.8571429,66e2de50b2eb63d466d153af,68817205a84113384fffdfe3,6882446cc1f337b664ad8bbe,,,,,,,,,,,,,,,,,,,,,,,,,,,,,,,,,,,,,,,,,,,,,,,,,,,,,,,,,,,,,,,,,,,,,,,,,,,,,,,,,,,,,
5.083,13.3937,0,1,1,1,1,"If you believe the utterance is a question, type '1' (for 'yes') and if you do not 
  believe it is a question type '0' (for 'no').

  Let's practice a bit...", (press the spacebar to continue),66e2de50b2eb63d466d153af,Mexican,13 or older,"no, only English or Spanish",no,2025-07-24_10h35.04.222,empathy_intonation_perc_control,2024.2.4,Win32,142.8571429,66e2de50b2eb63d466d153af,68817205a84113384fffdfe3,6882446cc1f337b664ad8bbe,,,,,,,,,,,,,,,,,,,,,,,,,,,,,,,,,,,,,,,,,,,,,,,,,,,,,,,,,,,,,,,,,,,,,,,,,,,,,,,,,,,,,
,,,,,,,,,66e2de50b2eb63d466d153af,Mexican,13 or older,"no, only English or Spanish",no,2025-07-24_10h35.04.222,empathy_intonation_perc_control,2024.2.4,Win32,142.8571429,66e2de50b2eb63d466d153af,68817205a84113384fffdfe3,6882446cc1f337b664ad8bbe,13.4015,17.8538,0,1,3.9404,,0,0,0,5,1,./stim/wavs/andalusian_statement_filler_Alberto-nunca-se-afeita.wav,0,,,,,,,,,,,,,,,,,,,,,,,,,,,,,,,,,,,,,,,,,,,,,,,,,,,,,,,,,,,,,,,,,,,,,,,,
,,,,,,,,,66e2de50b2eb63d466d153af,Mexican,13 or older,"no, only English or Spanish",no,2025-07-24_10h35.04.222,empathy_intonation_perc_control,2024.2.4,Win32,142.8571429,66e2de50b2eb63d466d153af,68817205a84113384fffdfe3,6882446cc1f337b664ad8bbe,17.8544,20.7149,1,1,2.3505,,0,1,1,0,1,./stim/wavs/castilian_question_filler_Mi-esposo-conoce-al-chico.wav,1,,,,,,,,,,,,,,,,,,,,,,,,,,,,,,,,,,,,,,,,,,,,,,,,,,,,,,,,,,,,,,,,,,,,,,,,
,,,,,,,,,66e2de50b2eb63d466d153af,Mexican,13 or older,"no, only English or Spanish",no,2025-07-24_10h35.04.222,empathy_intonation_perc_control,2024.2.4,Win32,142.8571429,66e2de50b2eb63d466d153af,68817205a84113384fffdfe3,6882446cc1f337b664ad8bbe,20.7154,23.3817,0,1,2.1523,,0,2,2,7,1,./stim/wavs/puertorican_statement_filler_La-nina-pinta-con-su-amiga.wav,0,,,,,,,,,,,,,,,,,,,,,,,,,,,,,,,,,,,,,,,,,,,,,,,,,,,,,,,,,,,,,,,,,,,,,,,,
,,,,,,,,,66e2de50b2eb63d466d153af,Mexican,13 or older,"no, only English or Spanish",no,2025-07-24_10h35.04.222,empathy_intonation_perc_control,2024.2.4,Win32,142.8571429,66e2de50b2eb63d466d153af,68817205a84113384fffdfe3,6882446cc1f337b664ad8bbe,23.3823,26.3192,0,1,2.425,,0,3,3,6,1,./stim/wavs/peruvian_statement_filler_El-nino-habla-con-su-madre.wav,0,,,,,,,,,,,,,,,,,,,,,,,,,,,,,,,,,,,,,,,,,,,,,,,,,,,,,,,,,,,,,,,,,,,,,,,,
,,,,,,,,,66e2de50b2eb63d466d153af,Mexican,13 or older,"no, only English or Spanish",no,2025-07-24_10h35.04.222,empathy_intonation_perc_control,2024.2.4,Win32,142.8571429,66e2de50b2eb63d466d153af,68817205a84113384fffdfe3,6882446cc1f337b664ad8bbe,26.3196,31.1387,1,1,4.3106,,0,4,4,2,1,./stim/wavs/chilean_question_filler_Mi-padre-cantaba-bien.wav,1,,,,,,,,,,,,,,,,,,,,,,,,,,,,,,,,,,,,,,,,,,,,,,,,,,,,,,,,,,,,,,,,,,,,,,,,
,,,,,,,,,66e2de50b2eb63d466d153af,Mexican,13 or older,"no, only English or Spanish",no,2025-07-24_10h35.04.222,empathy_intonation_perc_control,2024.2.4,Win32,142.8571429,66e2de50b2eb63d466d153af,68817205a84113384fffdfe3,6882446cc1f337b664ad8bbe,31.1392,33.6042,1,1,1.9523,,0,5,5,3,1,./stim/wavs/mexican_question_filler_Felipe-no-tiene-contrasena.wav,1,,,,,,,,,,,,,,,,,,,,,,,,,,,,,,,,,,,,,,,,,,,,,,,,,,,,,,,,,,,,,,,,,,,,,,,,
,,,,,,,,,66e2de50b2eb63d466d153af,Mexican,13 or older,"no, only English or Spanish",no,2025-07-24_10h35.04.222,empathy_intonation_perc_control,2024.2.4,Win32,142.8571429,66e2de50b2eb63d466d153af,68817205a84113384fffdfe3,6882446cc1f337b664ad8bbe,33.6045,35.6597,1,1,1.5442,,0,6,6,1,1,./stim/wavs/argentine_question_filler_Mi-vecino-habla-mucho.wav,1,,,,,,,,,,,,,,,,,,,,,,,,,,,,,,,,,,,,,,,,,,,,,,,,,,,,,,,,,,,,,,,,,,,,,,,,
,,,,,,,,,66e2de50b2eb63d466d153af,Mexican,13 or older,"no, only English or Spanish",no,2025-07-24_10h35.04.222,empathy_intonation_perc_control,2024.2.4,Win32,142.8571429,66e2de50b2eb63d466d153af,68817205a84113384fffdfe3,6882446cc1f337b664ad8bbe,35.6603,38.0833,0,1,1.9131,,0,7,7,4,1,./stim/wavs/cuban_statement_filler_Cocinabas-por-la-noche.wav,0,,,,,,,,,,,,,,,,,,,,,,,,,,,,,,,,,,,,,,,,,,,,,,,,,,,,,,,,,,,,,,,,,,,,,,,,
,,,,,,,,,66e2de50b2eb63d466d153af,Mexican,13 or older,"no, only English or Spanish",no,2025-07-24_10h35.04.222,empathy_intonation_perc_control,2024.2.4,Win32,142.8571429,66e2de50b2eb63d466d153af,68817205a84113384fffdfe3,6882446cc1f337b664ad8bbe,,,,,,,,,,,,,,38.0835,40.9031,,,,,,,,,,,,,,,,,,,,,,,,,,,,,,,,,,,,,,,,,,,,,,,,,,,,,,,,,,,,,,,,,,,,,,
,,,,,,,,,66e2de50b2eb63d466d153af,Mexican,13 or older,"no, only English or Spanish",no,2025-07-24_10h35.04.222,empathy_intonation_perc_control,2024.2.4,Win32,142.8571429,66e2de50b2eb63d466d153af,68817205a84113384fffdfe3,6882446cc1f337b664ad8bbe,,,,,,,,,,,,./stim/wavs/cuban_match_declarative-broad-focus_Mariano-habla-del-tiempo.wav,0,,,40.9097,43.2579,0,1,1.8427,,0,0,0,54,1,55,0,cuban,,,,,,,,,,,,,,,,,,,,,,,,,,,,,,,,,,,,,,,,,,,,,,,,,,,,,,,,
,,,,,,,,,66e2de50b2eb63d466d153af,Mexican,13 or older,"no, only English or Spanish",no,2025-07-24_10h35.04.222,empathy_intonation_perc_control,2024.2.4,Win32,142.8571429,66e2de50b2eb63d466d153af,68817205a84113384fffdfe3,6882446cc1f337b664ad8bbe,,,,,,,,,,,,./stim/wavs/castilian_mismatch_interrogative-total-yn_Mi-tia-odia-la-lluvia.wav,1,,,43.2585,45.5634,1,1,1.794,,0,1,1,28,1,29,0,castilian,,,,,,,,,,,,,,,,,,,,,,,,,,,,,,,,,,,,,,,,,,,,,,,,,,,,,,,,
,,,,,,,,,66e2de50b2eb63d466d153af,Mexican,13 or older,"no, only English or Spanish",no,2025-07-24_10h35.04.222,empathy_intonation_perc_control,2024.2.4,Win32,142.8571429,66e2de50b2eb63d466d153af,68817205a84113384fffdfe3,6882446cc1f337b664ad8bbe,,,,,,,,,,,,./stim/wavs/cuban_mismatch_declarative-broad-focus_La-nina-lava-el-plato.wav,0,,,45.5638,47.6538,0,1,1.5814,,0,2,2,75,1,76,0,cuban,,,,,,,,,,,,,,,,,,,,,,,,,,,,,,,,,,,,,,,,,,,,,,,,,,,,,,,,
,,,,,,,,,66e2de50b2eb63d466d153af,Mexican,13 or older,"no, only English or Spanish",no,2025-07-24_10h35.04.222,empathy_intonation_perc_control,2024.2.4,Win32,142.8571429,66e2de50b2eb63d466d153af,68817205a84113384fffdfe3,6882446cc1f337b664ad8bbe,,,,,,,,,,,,./stim/wavs/mexican_match_interrogative-total-yn_Mariano-habla-del-tiempo.wav,1,,,47.6542,49.876,1,1,1.7098,,0,3,3,16,1,17,0,mexican,,,,,,,,,,,,,,,,,,,,,,,,,,,,,,,,,,,,,,,,,,,,,,,,,,,,,,,,
,,,,,,,,,66e2de50b2eb63d466d153af,Mexican,13 or older,"no, only English or Spanish",no,2025-07-24_10h35.04.222,empathy_intonation_perc_control,2024.2.4,Win32,142.8571429,66e2de50b2eb63d466d153af,68817205a84113384fffdfe3,6882446cc1f337b664ad8bbe,,,,,,,,,,,,./stim/wavs/mexican_mismatch_declarative-broad-focus_Mi-novio-viene-del-lago.wav,0,,,49.8764,52.0912,0,1,1.7052,,0,4,4,81,1,82,0,mexican,,,,,,,,,,,,,,,,,,,,,,,,,,,,,,,,,,,,,,,,,,,,,,,,,,,,,,,,
,,,,,,,,,66e2de50b2eb63d466d153af,Mexican,13 or older,"no, only English or Spanish",no,2025-07-24_10h35.04.222,empathy_intonation_perc_control,2024.2.4,Win32,142.8571429,66e2de50b2eb63d466d153af,68817205a84113384fffdfe3,6882446cc1f337b664ad8bbe,,,,,,,,,,,,./stim/wavs/mexican_match_interrogative-total-yn_Ana-lleva-el-abrigo.wav,1,,,52.0916,54.2372,1,1,1.6359,,0,5,5,12,1,13,0,mexican,,,,,,,,,,,,,,,,,,,,,,,,,,,,,,,,,,,,,,,,,,,,,,,,,,,,,,,,
,,,,,,,,,66e2de50b2eb63d466d153af,Mexican,13 or older,"no, only English or Spanish",no,2025-07-24_10h35.04.222,empathy_intonation_perc_control,2024.2.4,Win32,142.8571429,66e2de50b2eb63d466d153af,68817205a84113384fffdfe3,6882446cc1f337b664ad8bbe,,,,,,,,,,,,./stim/wavs/puertorican_mismatch_declarative-broad-focus_El-hombre-mira-la-luna.wav,0,,,54.2375,56.3622,0,1,1.6123,,0,6,6,84,1,85,0,puertorican,,,,,,,,,,,,,,,,,,,,,,,,,,,,,,,,,,,,,,,,,,,,,,,,,,,,,,,,
,,,,,,,,,66e2de50b2eb63d466d153af,Mexican,13 or older,"no, only English or Spanish",no,2025-07-24_10h35.04.222,empathy_intonation_perc_control,2024.2.4,Win32,142.8571429,66e2de50b2eb63d466d153af,68817205a84113384fffdfe3,6882446cc1f337b664ad8bbe,,,,,,,,,,,,./stim/wavs/castilian_match_interrogative-total-yn_Maria-bebe-el-vino.wav,1,,,56.3626,58.8762,1,1,2.0038,,0,7,7,3,1,4,0,castilian,,,,,,,,,,,,,,,,,,,,,,,,,,,,,,,,,,,,,,,,,,,,,,,,,,,,,,,,
,,,,,,,,,66e2de50b2eb63d466d153af,Mexican,13 or older,"no, only English or Spanish",no,2025-07-24_10h35.04.222,empathy_intonation_perc_control,2024.2.4,Win32,142.8571429,66e2de50b2eb63d466d153af,68817205a84113384fffdfe3,6882446cc1f337b664ad8bbe,,,,,,,,,,,,./stim/wavs/mexican_mismatch_interrogative-total-yn_El-nino-oye-el-rio.wav,1,,,58.8765,61.2166,1,1,1.8275,,0,8,8,35,1,36,0,mexican,,,,,,,,,,,,,,,,,,,,,,,,,,,,,,,,,,,,,,,,,,,,,,,,,,,,,,,,
,,,,,,,,,66e2de50b2eb63d466d153af,Mexican,13 or older,"no, only English or Spanish",no,2025-07-24_10h35.04.222,empathy_intonation_perc_control,2024.2.4,Win32,142.8571429,66e2de50b2eb63d466d153af,68817205a84113384fffdfe3,6882446cc1f337b664ad8bbe,,,,,,,,,,,,./stim/wavs/cuban_match_interrogative-total-yn_Daniel-iba-a-Bolivia.wav,1,,,61.2171,63.3902,0,0,1.6593,,0,9,9,7,1,8,1,cuban,,,,,,,,,,,,,,,,,,,,,,,,,,,,,,,,,,,,,,,,,,,,,,,,,,,,,,,,
,,,,,,,,,66e2de50b2eb63d466d153af,Mexican,13 or older,"no, only English or Spanish",no,2025-07-24_10h35.04.222,empathy_intonation_perc_control,2024.2.4,Win32,142.8571429,66e2de50b2eb63d466d153af,68817205a84113384fffdfe3,6882446cc1f337b664ad8bbe,,,,,,,,,,,,./stim/wavs/cuban_match_declarative-broad-focus_Ana-lleva-el-abrigo.wav,0,,,63.3907,65.5361,0,1,1.6342,,0,10,10,50,1,51,0,cuban,,,,,,,,,,,,,,,,,,,,,,,,,,,,,,,,,,,,,,,,,,,,,,,,,,,,,,,,
,,,,,,,,,66e2de50b2eb63d466d153af,Mexican,13 or older,"no, only English or Spanish",no,2025-07-24_10h35.04.222,empathy_intonation_perc_control,2024.2.4,Win32,142.8571429,66e2de50b2eb63d466d153af,68817205a84113384fffdfe3,6882446cc1f337b664ad8bbe,,,,,,,,,,,,./stim/wavs/cuban_match_interrogative-total-yn_Maria-bebe-el-vino.wav,1,,,65.5365,68.2444,0,0,2.1957,,0,11,11,9,1,10,1,cuban,,,,,,,,,,,,,,,,,,,,,,,,,,,,,,,,,,,,,,,,,,,,,,,,,,,,,,,,
,,,,,,,,,66e2de50b2eb63d466d153af,Mexican,13 or older,"no, only English or Spanish",no,2025-07-24_10h35.04.222,empathy_intonation_perc_control,2024.2.4,Win32,142.8571429,66e2de50b2eb63d466d153af,68817205a84113384fffdfe3,6882446cc1f337b664ad8bbe,,,,,,,,,,,,./stim/wavs/puertorican_match_interrogative-total-yn_Maria-bebe-el-vino.wav,1,,,68.2449,70.3557,0,0,1.5991,,0,12,12,23,1,24,1,puertorican,,,,,,,,,,,,,,,,,,,,,,,,,,,,,,,,,,,,,,,,,,,,,,,,,,,,,,,,
,,,,,,,,,66e2de50b2eb63d466d153af,Mexican,13 or older,"no, only English or Spanish",no,2025-07-24_10h35.04.222,empathy_intonation_perc_control,2024.2.4,Win32,142.8571429,66e2de50b2eb63d466d153af,68817205a84113384fffdfe3,6882446cc1f337b664ad8bbe,,,,,,,,,,,,./stim/wavs/mexican_match_interrogative-total-yn_David-leia-el-libro.wav,1,,,70.3561,72.5641,1,1,1.6971,,0,13,13,14,1,15,0,mexican,,,,,,,,,,,,,,,,,,,,,,,,,,,,,,,,,,,,,,,,,,,,,,,,,,,,,,,,
,,,,,,,,,66e2de50b2eb63d466d153af,Mexican,13 or older,"no, only English or Spanish",no,2025-07-24_10h35.04.222,empathy_intonation_perc_control,2024.2.4,Win32,142.8571429,66e2de50b2eb63d466d153af,68817205a84113384fffdfe3,6882446cc1f337b664ad8bbe,,,,,,,,,,,,./stim/wavs/castilian_match_interrogative-total-yn_David-leia-el-libro.wav,1,,,72.5645,75.0086,1,1,1.9336,,0,14,14,0,1,1,0,castilian,,,,,,,,,,,,,,,,,,,,,,,,,,,,,,,,,,,,,,,,,,,,,,,,,,,,,,,,
,,,,,,,,,66e2de50b2eb63d466d153af,Mexican,13 or older,"no, only English or Spanish",no,2025-07-24_10h35.04.222,empathy_intonation_perc_control,2024.2.4,Win32,142.8571429,66e2de50b2eb63d466d153af,68817205a84113384fffdfe3,6882446cc1f337b664ad8bbe,,,,,,,,,,,,./stim/wavs/mexican_match_declarative-broad-focus_David-leia-el-libro.wav,0,,,75.009,77.0156,0,1,1.4972,,0,15,15,58,1,59,0,mexican,,,,,,,,,,,,,,,,,,,,,,,,,,,,,,,,,,,,,,,,,,,,,,,,,,,,,,,,
,,,,,,,,,66e2de50b2eb63d466d153af,Mexican,13 or older,"no, only English or Spanish",no,2025-07-24_10h35.04.222,empathy_intonation_perc_control,2024.2.4,Win32,142.8571429,66e2de50b2eb63d466d153af,68817205a84113384fffdfe3,6882446cc1f337b664ad8bbe,,,,,,,,,,,,./stim/wavs/puertorican_match_interrogative-total-yn_Daniel-iba-a-Bolivia.wav,1,,,77.016,79.1962,0,0,1.6697,,0,16,16,19,1,20,1,puertorican,,,,,,,,,,,,,,,,,,,,,,,,,,,,,,,,,,,,,,,,,,,,,,,,,,,,,,,,
,,,,,,,,,66e2de50b2eb63d466d153af,Mexican,13 or older,"no, only English or Spanish",no,2025-07-24_10h35.04.222,empathy_intonation_perc_control,2024.2.4,Win32,142.8571429,66e2de50b2eb63d466d153af,68817205a84113384fffdfe3,6882446cc1f337b664ad8bbe,,,,,,,,,,,,./stim/wavs/cuban_match_interrogative-total-yn_Marta-abre-el-regalo.wav,1,,,79.1966,81.3143,0,0,1.6075,,0,17,17,11,1,12,1,cuban,,,,,,,,,,,,,,,,,,,,,,,,,,,,,,,,,,,,,,,,,,,,,,,,,,,,,,,,
,,,,,,,,,66e2de50b2eb63d466d153af,Mexican,13 or older,"no, only English or Spanish",no,2025-07-24_10h35.04.222,empathy_intonation_perc_control,2024.2.4,Win32,142.8571429,66e2de50b2eb63d466d153af,68817205a84113384fffdfe3,6882446cc1f337b664ad8bbe,,,,,,,,,,,,./stim/wavs/puertorican_match_interrogative-total-yn_David-leia-el-libro.wav,1,,,81.3148,84.8422,0,0,3.0141,,0,18,18,20,1,21,1,puertorican,,,,,,,,,,,,,,,,,,,,,,,,,,,,,,,,,,,,,,,,,,,,,,,,,,,,,,,,
,,,,,,,,,66e2de50b2eb63d466d153af,Mexican,13 or older,"no, only English or Spanish",no,2025-07-24_10h35.04.222,empathy_intonation_perc_control,2024.2.4,Win32,142.8571429,66e2de50b2eb63d466d153af,68817205a84113384fffdfe3,6882446cc1f337b664ad8bbe,,,,,,,,,,,,./stim/wavs/mexican_mismatch_interrogative-total-yn_Mi-novio-viene-del-lago.wav,1,,,84.8425,87.134,1,1,1.7814,,0,19,19,37,1,38,0,mexican,,,,,,,,,,,,,,,,,,,,,,,,,,,,,,,,,,,,,,,,,,,,,,,,,,,,,,,,
,,,,,,,,,66e2de50b2eb63d466d153af,Mexican,13 or older,"no, only English or Spanish",no,2025-07-24_10h35.04.222,empathy_intonation_perc_control,2024.2.4,Win32,142.8571429,66e2de50b2eb63d466d153af,68817205a84113384fffdfe3,6882446cc1f337b664ad8bbe,,,,,,,,,,,,./stim/wavs/mexican_match_declarative-broad-focus_Marta-abre-el-regalo.wav,0,,,87.1343,89.7243,0,1,2.079,,0,20,20,61,1,62,0,mexican,,,,,,,,,,,,,,,,,,,,,,,,,,,,,,,,,,,,,,,,,,,,,,,,,,,,,,,,
,,,,,,,,,66e2de50b2eb63d466d153af,Mexican,13 or older,"no, only English or Spanish",no,2025-07-24_10h35.04.222,empathy_intonation_perc_control,2024.2.4,Win32,142.8571429,66e2de50b2eb63d466d153af,68817205a84113384fffdfe3,6882446cc1f337b664ad8bbe,,,,,,,,,,,,./stim/wavs/cuban_mismatch_declarative-broad-focus_El-hombre-mira-la-luna.wav,0,,,89.7246,93.6827,0,1,3.447,,0,21,21,74,1,75,0,cuban,,,,,,,,,,,,,,,,,,,,,,,,,,,,,,,,,,,,,,,,,,,,,,,,,,,,,,,,
,,,,,,,,,66e2de50b2eb63d466d153af,Mexican,13 or older,"no, only English or Spanish",no,2025-07-24_10h35.04.222,empathy_intonation_perc_control,2024.2.4,Win32,142.8571429,66e2de50b2eb63d466d153af,68817205a84113384fffdfe3,6882446cc1f337b664ad8bbe,,,,,,,,,,,,./stim/wavs/mexican_match_declarative-broad-focus_Ana-lleva-el-abrigo.wav,0,,,93.6832,95.7243,0,1,1.5322,,0,22,22,56,1,57,0,mexican,,,,,,,,,,,,,,,,,,,,,,,,,,,,,,,,,,,,,,,,,,,,,,,,,,,,,,,,
,,,,,,,,,66e2de50b2eb63d466d153af,Mexican,13 or older,"no, only English or Spanish",no,2025-07-24_10h35.04.222,empathy_intonation_perc_control,2024.2.4,Win32,142.8571429,66e2de50b2eb63d466d153af,68817205a84113384fffdfe3,6882446cc1f337b664ad8bbe,,,,,,,,,,,,./stim/wavs/mexican_mismatch_declarative-broad-focus_El-bebe-comia-muy-bien.wav,0,,,95.7248,100.7454,0,1,4.5093,,0,23,23,78,1,79,0,mexican,,,,,,,,,,,,,,,,,,,,,,,,,,,,,,,,,,,,,,,,,,,,,,,,,,,,,,,,
,,,,,,,,,66e2de50b2eb63d466d153af,Mexican,13 or older,"no, only English or Spanish",no,2025-07-24_10h35.04.222,empathy_intonation_perc_control,2024.2.4,Win32,142.8571429,66e2de50b2eb63d466d153af,68817205a84113384fffdfe3,6882446cc1f337b664ad8bbe,,,,,,,,,,,,./stim/wavs/puertorican_mismatch_interrogative-total-yn_La-nina-lava-el-plato.wav,1,,,100.7457,102.8913,0,0,1.6333,,0,24,24,42,1,43,1,puertorican,,,,,,,,,,,,,,,,,,,,,,,,,,,,,,,,,,,,,,,,,,,,,,,,,,,,,,,,
,,,,,,,,,66e2de50b2eb63d466d153af,Mexican,13 or older,"no, only English or Spanish",no,2025-07-24_10h35.04.222,empathy_intonation_perc_control,2024.2.4,Win32,142.8571429,66e2de50b2eb63d466d153af,68817205a84113384fffdfe3,6882446cc1f337b664ad8bbe,,,,,,,,,,,,./stim/wavs/puertorican_mismatch_interrogative-total-yn_La-maestra-vive-en-Paris.wav,1,,,102.8917,105.5581,0,0,2.1548,,0,25,25,41,1,42,1,puertorican,,,,,,,,,,,,,,,,,,,,,,,,,,,,,,,,,,,,,,,,,,,,,,,,,,,,,,,,
,,,,,,,,,66e2de50b2eb63d466d153af,Mexican,13 or older,"no, only English or Spanish",no,2025-07-24_10h35.04.222,empathy_intonation_perc_control,2024.2.4,Win32,142.8571429,66e2de50b2eb63d466d153af,68817205a84113384fffdfe3,6882446cc1f337b664ad8bbe,,,,,,,,,,,,./stim/wavs/puertorican_match_interrogative-total-yn_Ana-lleva-el-abrigo.wav,1,,,105.5584,108.9192,1,1,2.8504,,0,26,26,18,1,19,1,puertorican,,,,,,,,,,,,,,,,,,,,,,,,,,,,,,,,,,,,,,,,,,,,,,,,,,,,,,,,
,,,,,,,,,66e2de50b2eb63d466d153af,Mexican,13 or older,"no, only English or Spanish",no,2025-07-24_10h35.04.222,empathy_intonation_perc_control,2024.2.4,Win32,142.8571429,66e2de50b2eb63d466d153af,68817205a84113384fffdfe3,6882446cc1f337b664ad8bbe,,,,,,,,,,,,./stim/wavs/castilian_mismatch_declarative-broad-focus_El-nino-oye-el-rio.wav,0,,,108.9196,111.1692,0,1,1.7356,,0,27,27,68,1,69,0,castilian,,,,,,,,,,,,,,,,,,,,,,,,,,,,,,,,,,,,,,,,,,,,,,,,,,,,,,,,
,,,,,,,,,66e2de50b2eb63d466d153af,Mexican,13 or older,"no, only English or Spanish",no,2025-07-24_10h35.04.222,empathy_intonation_perc_control,2024.2.4,Win32,142.8571429,66e2de50b2eb63d466d153af,68817205a84113384fffdfe3,6882446cc1f337b664ad8bbe,,,,,,,,,,,,./stim/wavs/mexican_mismatch_declarative-broad-focus_El-hombre-mira-la-luna.wav,0,,,111.1697,113.2944,0,1,1.6103,,0,28,28,79,1,80,0,mexican,,,,,,,,,,,,,,,,,,,,,,,,,,,,,,,,,,,,,,,,,,,,,,,,,,,,,,,,
,,,,,,,,,66e2de50b2eb63d466d153af,Mexican,13 or older,"no, only English or Spanish",no,2025-07-24_10h35.04.222,empathy_intonation_perc_control,2024.2.4,Win32,142.8571429,66e2de50b2eb63d466d153af,68817205a84113384fffdfe3,6882446cc1f337b664ad8bbe,,,,,,,,,,,,./stim/wavs/cuban_match_declarative-broad-focus_Daniel-iba-a-Bolivia.wav,0,,,113.2948,115.6346,0,1,1.8306,,0,29,29,51,1,52,0,cuban,,,,,,,,,,,,,,,,,,,,,,,,,,,,,,,,,,,,,,,,,,,,,,,,,,,,,,,,
,,,,,,,,,66e2de50b2eb63d466d153af,Mexican,13 or older,"no, only English or Spanish",no,2025-07-24_10h35.04.222,empathy_intonation_perc_control,2024.2.4,Win32,142.8571429,66e2de50b2eb63d466d153af,68817205a84113384fffdfe3,6882446cc1f337b664ad8bbe,,,,,,,,,,,,./stim/wavs/cuban_match_interrogative-total-yn_Manuela-vende-el-carro.wav,1,,,115.635,118.6348,0,0,2.4912,,0,30,30,8,1,9,1,cuban,,,,,,,,,,,,,,,,,,,,,,,,,,,,,,,,,,,,,,,,,,,,,,,,,,,,,,,,
,,,,,,,,,66e2de50b2eb63d466d153af,Mexican,13 or older,"no, only English or Spanish",no,2025-07-24_10h35.04.222,empathy_intonation_perc_control,2024.2.4,Win32,142.8571429,66e2de50b2eb63d466d153af,68817205a84113384fffdfe3,6882446cc1f337b664ad8bbe,,,,,,,,,,,,./stim/wavs/puertorican_mismatch_declarative-broad-focus_El-nino-oye-el-rio.wav,0,,,118.6352,120.739,0,1,1.5927,,0,31,31,85,1,86,0,puertorican,,,,,,,,,,,,,,,,,,,,,,,,,,,,,,,,,,,,,,,,,,,,,,,,,,,,,,,,
,,,,,,,,,66e2de50b2eb63d466d153af,Mexican,13 or older,"no, only English or Spanish",no,2025-07-24_10h35.04.222,empathy_intonation_perc_control,2024.2.4,Win32,142.8571429,66e2de50b2eb63d466d153af,68817205a84113384fffdfe3,6882446cc1f337b664ad8bbe,,,,,,,,,,,,./stim/wavs/puertorican_mismatch_declarative-broad-focus_La-nina-lava-el-plato.wav,0,,,120.7395,122.8154,0,1,1.5658,,0,32,32,87,1,88,0,puertorican,,,,,,,,,,,,,,,,,,,,,,,,,,,,,,,,,,,,,,,,,,,,,,,,,,,,,,,,
,,,,,,,,,66e2de50b2eb63d466d153af,Mexican,13 or older,"no, only English or Spanish",no,2025-07-24_10h35.04.222,empathy_intonation_perc_control,2024.2.4,Win32,142.8571429,66e2de50b2eb63d466d153af,68817205a84113384fffdfe3,6882446cc1f337b664ad8bbe,,,,,,,,,,,,./stim/wavs/castilian_mismatch_declarative-broad-focus_Mi-tia-odia-la-lluvia.wav,0,,,122.8157,125.0308,0,1,1.7054,,0,33,33,72,1,73,0,castilian,,,,,,,,,,,,,,,,,,,,,,,,,,,,,,,,,,,,,,,,,,,,,,,,,,,,,,,,
,,,,,,,,,66e2de50b2eb63d466d153af,Mexican,13 or older,"no, only English or Spanish",no,2025-07-24_10h35.04.222,empathy_intonation_perc_control,2024.2.4,Win32,142.8571429,66e2de50b2eb63d466d153af,68817205a84113384fffdfe3,6882446cc1f337b664ad8bbe,,,,,,,,,,,,./stim/wavs/puertorican_match_declarative-broad-focus_Manuela-vende-el-carro.wav,0,,,125.0311,127.1419,0,1,1.598,,0,34,34,66,1,67,0,puertorican,,,,,,,,,,,,,,,,,,,,,,,,,,,,,,,,,,,,,,,,,,,,,,,,,,,,,,,,
,,,,,,,,,66e2de50b2eb63d466d153af,Mexican,13 or older,"no, only English or Spanish",no,2025-07-24_10h35.04.222,empathy_intonation_perc_control,2024.2.4,Win32,142.8571429,66e2de50b2eb63d466d153af,68817205a84113384fffdfe3,6882446cc1f337b664ad8bbe,,,,,,,,,,,,./stim/wavs/cuban_match_declarative-broad-focus_Manuela-vende-el-carro.wav,0,,,127.1424,129.3711,0,1,1.7164,,0,35,35,52,1,53,0,cuban,,,,,,,,,,,,,,,,,,,,,,,,,,,,,,,,,,,,,,,,,,,,,,,,,,,,,,,,
,,,,,,,,,66e2de50b2eb63d466d153af,Mexican,13 or older,"no, only English or Spanish",no,2025-07-24_10h35.04.222,empathy_intonation_perc_control,2024.2.4,Win32,142.8571429,66e2de50b2eb63d466d153af,68817205a84113384fffdfe3,6882446cc1f337b664ad8bbe,,,,,,,,,,,,./stim/wavs/puertorican_mismatch_interrogative-total-yn_Mi-madre-come-la-fruta.wav,1,,,129.3713,131.4823,0,0,1.6,,0,36,36,43,1,44,1,puertorican,,,,,,,,,,,,,,,,,,,,,,,,,,,,,,,,,,,,,,,,,,,,,,,,,,,,,,,,
,,,,,,,,,66e2de50b2eb63d466d153af,Mexican,13 or older,"no, only English or Spanish",no,2025-07-24_10h35.04.222,empathy_intonation_perc_control,2024.2.4,Win32,142.8571429,66e2de50b2eb63d466d153af,68817205a84113384fffdfe3,6882446cc1f337b664ad8bbe,,,,,,,,,,,,./stim/wavs/mexican_match_declarative-broad-focus_Daniel-iba-a-Bolivia.wav,0,,,131.4825,133.8226,0,1,1.8303,,0,37,37,57,1,58,0,mexican,,,,,,,,,,,,,,,,,,,,,,,,,,,,,,,,,,,,,,,,,,,,,,,,,,,,,,,,
,,,,,,,,,66e2de50b2eb63d466d153af,Mexican,13 or older,"no, only English or Spanish",no,2025-07-24_10h35.04.222,empathy_intonation_perc_control,2024.2.4,Win32,142.8571429,66e2de50b2eb63d466d153af,68817205a84113384fffdfe3,6882446cc1f337b664ad8bbe,,,,,,,,,,,,./stim/wavs/castilian_mismatch_interrogative-total-yn_La-maestra-vive-en-Paris.wav,1,,,133.8228,136.2672,1,1,1.9318,,0,38,38,24,1,25,0,castilian,,,,,,,,,,,,,,,,,,,,,,,,,,,,,,,,,,,,,,,,,,,,,,,,,,,,,,,,
,,,,,,,,,66e2de50b2eb63d466d153af,Mexican,13 or older,"no, only English or Spanish",no,2025-07-24_10h35.04.222,empathy_intonation_perc_control,2024.2.4,Win32,142.8571429,66e2de50b2eb63d466d153af,68817205a84113384fffdfe3,6882446cc1f337b664ad8bbe,,,,,,,,,,,,./stim/wavs/castilian_match_interrogative-total-yn_Marta-abre-el-regalo.wav,1,,,136.2677,138.5867,1,1,1.8081,,0,39,39,5,1,6,0,castilian,,,,,,,,,,,,,,,,,,,,,,,,,,,,,,,,,,,,,,,,,,,,,,,,,,,,,,,,
,,,,,,,,,66e2de50b2eb63d466d153af,Mexican,13 or older,"no, only English or Spanish",no,2025-07-24_10h35.04.222,empathy_intonation_perc_control,2024.2.4,Win32,142.8571429,66e2de50b2eb63d466d153af,68817205a84113384fffdfe3,6882446cc1f337b664ad8bbe,,,,,,,,,,,,./stim/wavs/cuban_mismatch_interrogative-total-yn_El-hombre-mira-la-luna.wav,1,,,138.5871,140.5797,0,0,1.4823,,0,40,40,29,1,30,1,cuban,,,,,,,,,,,,,,,,,,,,,,,,,,,,,,,,,,,,,,,,,,,,,,,,,,,,,,,,
,,,,,,,,,66e2de50b2eb63d466d153af,Mexican,13 or older,"no, only English or Spanish",no,2025-07-24_10h35.04.222,empathy_intonation_perc_control,2024.2.4,Win32,142.8571429,66e2de50b2eb63d466d153af,68817205a84113384fffdfe3,6882446cc1f337b664ad8bbe,,,,,,,,,,,,./stim/wavs/mexican_mismatch_declarative-broad-focus_Mi-tia-odia-la-lluvia.wav,0,,,140.58,144.9207,0,1,3.8296,,0,41,41,82,1,83,0,mexican,,,,,,,,,,,,,,,,,,,,,,,,,,,,,,,,,,,,,,,,,,,,,,,,,,,,,,,,
,,,,,,,,,66e2de50b2eb63d466d153af,Mexican,13 or older,"no, only English or Spanish",no,2025-07-24_10h35.04.222,empathy_intonation_perc_control,2024.2.4,Win32,142.8571429,66e2de50b2eb63d466d153af,68817205a84113384fffdfe3,6882446cc1f337b664ad8bbe,,,,,,,,,,,,./stim/wavs/castilian_match_interrogative-total-yn_Emilio-ama-la-marcha.wav,1,,,144.921,147.0598,1,1,1.6293,,0,42,42,1,1,2,0,castilian,,,,,,,,,,,,,,,,,,,,,,,,,,,,,,,,,,,,,,,,,,,,,,,,,,,,,,,,
,,,,,,,,,66e2de50b2eb63d466d153af,Mexican,13 or older,"no, only English or Spanish",no,2025-07-24_10h35.04.222,empathy_intonation_perc_control,2024.2.4,Win32,142.8571429,66e2de50b2eb63d466d153af,68817205a84113384fffdfe3,6882446cc1f337b664ad8bbe,,,,,,,,,,,,./stim/wavs/mexican_mismatch_interrogative-total-yn_El-hombre-mira-la-luna.wav,1,,,147.0601,148.9625,1,1,1.3912,,0,43,43,34,1,35,0,mexican,,,,,,,,,,,,,,,,,,,,,,,,,,,,,,,,,,,,,,,,,,,,,,,,,,,,,,,,
,,,,,,,,,66e2de50b2eb63d466d153af,Mexican,13 or older,"no, only English or Spanish",no,2025-07-24_10h35.04.222,empathy_intonation_perc_control,2024.2.4,Win32,142.8571429,66e2de50b2eb63d466d153af,68817205a84113384fffdfe3,6882446cc1f337b664ad8bbe,,,,,,,,,,,,./stim/wavs/castilian_match_declarative-broad-focus_Maria-bebe-el-vino.wav,0,,,148.9629,151.2126,0,1,1.7387,,0,44,44,47,1,48,0,castilian,,,,,,,,,,,,,,,,,,,,,,,,,,,,,,,,,,,,,,,,,,,,,,,,,,,,,,,,
,,,,,,,,,66e2de50b2eb63d466d153af,Mexican,13 or older,"no, only English or Spanish",no,2025-07-24_10h35.04.222,empathy_intonation_perc_control,2024.2.4,Win32,142.8571429,66e2de50b2eb63d466d153af,68817205a84113384fffdfe3,6882446cc1f337b664ad8bbe,,,,,,,,,,,,./stim/wavs/castilian_mismatch_interrogative-total-yn_Mi-novio-viene-del-lago.wav,1,,,151.213,153.8654,1,1,2.1423,,0,45,45,27,1,28,0,castilian,,,,,,,,,,,,,,,,,,,,,,,,,,,,,,,,,,,,,,,,,,,,,,,,,,,,,,,,
,,,,,,,,,66e2de50b2eb63d466d153af,Mexican,13 or older,"no, only English or Spanish",no,2025-07-24_10h35.04.222,empathy_intonation_perc_control,2024.2.4,Win32,142.8571429,66e2de50b2eb63d466d153af,68817205a84113384fffdfe3,6882446cc1f337b664ad8bbe,,,,,,,,,,,,./stim/wavs/mexican_mismatch_interrogative-total-yn_Mi-tia-odia-la-lluvia.wav,1,,,153.8658,155.8724,1,1,1.493,,0,46,46,38,1,39,0,mexican,,,,,,,,,,,,,,,,,,,,,,,,,,,,,,,,,,,,,,,,,,,,,,,,,,,,,,,,
,,,,,,,,,66e2de50b2eb63d466d153af,Mexican,13 or older,"no, only English or Spanish",no,2025-07-24_10h35.04.222,empathy_intonation_perc_control,2024.2.4,Win32,142.8571429,66e2de50b2eb63d466d153af,68817205a84113384fffdfe3,6882446cc1f337b664ad8bbe,,,,,,,,,,,,./stim/wavs/cuban_mismatch_declarative-broad-focus_Mi-novio-viene-del-lago.wav,0,,,155.8731,158.2614,0,1,1.8767,,0,47,47,76,1,77,0,cuban,,,,,,,,,,,,,,,,,,,,,,,,,,,,,,,,,,,,,,,,,,,,,,,,,,,,,,,,
,,,,,,,,,66e2de50b2eb63d466d153af,Mexican,13 or older,"no, only English or Spanish",no,2025-07-24_10h35.04.222,empathy_intonation_perc_control,2024.2.4,Win32,142.8571429,66e2de50b2eb63d466d153af,68817205a84113384fffdfe3,6882446cc1f337b664ad8bbe,,,,,,,,,,,,./stim/wavs/castilian_mismatch_declarative-broad-focus_La-nina-lava-el-plato.wav,0,,,158.2617,160.9212,0,1,2.1494,,0,48,48,70,1,71,0,castilian,,,,,,,,,,,,,,,,,,,,,,,,,,,,,,,,,,,,,,,,,,,,,,,,,,,,,,,,
,,,,,,,,,66e2de50b2eb63d466d153af,Mexican,13 or older,"no, only English or Spanish",no,2025-07-24_10h35.04.222,empathy_intonation_perc_control,2024.2.4,Win32,142.8571429,66e2de50b2eb63d466d153af,68817205a84113384fffdfe3,6882446cc1f337b664ad8bbe,,,,,,,,,,,,./stim/wavs/castilian_match_declarative-broad-focus_Manuela-vende-el-carro.wav,0,,,160.9214,163.2338,0,1,1.8002,,0,49,49,46,1,47,0,castilian,,,,,,,,,,,,,,,,,,,,,,,,,,,,,,,,,,,,,,,,,,,,,,,,,,,,,,,,
,,,,,,,,,66e2de50b2eb63d466d153af,Mexican,13 or older,"no, only English or Spanish",no,2025-07-24_10h35.04.222,empathy_intonation_perc_control,2024.2.4,Win32,142.8571429,66e2de50b2eb63d466d153af,68817205a84113384fffdfe3,6882446cc1f337b664ad8bbe,,,,,,,,,,,,./stim/wavs/mexican_match_interrogative-total-yn_Daniel-iba-a-Bolivia.wav,1,,,163.2342,165.345,1,1,1.5987,,0,50,50,13,1,14,0,mexican,,,,,,,,,,,,,,,,,,,,,,,,,,,,,,,,,,,,,,,,,,,,,,,,,,,,,,,,
,,,,,,,,,66e2de50b2eb63d466d153af,Mexican,13 or older,"no, only English or Spanish",no,2025-07-24_10h35.04.222,empathy_intonation_perc_control,2024.2.4,Win32,142.8571429,66e2de50b2eb63d466d153af,68817205a84113384fffdfe3,6882446cc1f337b664ad8bbe,,,,,,,,,,,,./stim/wavs/cuban_mismatch_interrogative-total-yn_Mi-madre-come-la-fruta.wav,1,,,165.3454,168.463,0,0,2.6084,,0,51,51,31,1,32,1,cuban,,,,,,,,,,,,,,,,,,,,,,,,,,,,,,,,,,,,,,,,,,,,,,,,,,,,,,,,
,,,,,,,,,66e2de50b2eb63d466d153af,Mexican,13 or older,"no, only English or Spanish",no,2025-07-24_10h35.04.222,empathy_intonation_perc_control,2024.2.4,Win32,142.8571429,66e2de50b2eb63d466d153af,68817205a84113384fffdfe3,6882446cc1f337b664ad8bbe,,,,,,,,,,,,./stim/wavs/mexican_match_declarative-broad-focus_Emilio-ama-la-marcha.wav,0,,,168.4633,170.9006,0,1,1.9269,,0,52,52,59,1,60,0,mexican,,,,,,,,,,,,,,,,,,,,,,,,,,,,,,,,,,,,,,,,,,,,,,,,,,,,,,,,
,,,,,,,,,66e2de50b2eb63d466d153af,Mexican,13 or older,"no, only English or Spanish",no,2025-07-24_10h35.04.222,empathy_intonation_perc_control,2024.2.4,Win32,142.8571429,66e2de50b2eb63d466d153af,68817205a84113384fffdfe3,6882446cc1f337b664ad8bbe,,,,,,,,,,,,./stim/wavs/puertorican_mismatch_declarative-broad-focus_El-bebe-comia-muy-bien.wav,0,,,170.9011,172.9839,0,1,1.5716,,0,53,53,83,1,84,0,puertorican,,,,,,,,,,,,,,,,,,,,,,,,,,,,,,,,,,,,,,,,,,,,,,,,,,,,,,,,
,,,,,,,,,66e2de50b2eb63d466d153af,Mexican,13 or older,"no, only English or Spanish",no,2025-07-24_10h35.04.222,empathy_intonation_perc_control,2024.2.4,Win32,142.8571429,66e2de50b2eb63d466d153af,68817205a84113384fffdfe3,6882446cc1f337b664ad8bbe,,,,,,,,,,,,./stim/wavs/castilian_match_declarative-broad-focus_Mariano-habla-del-tiempo.wav,0,,,172.9844,175.4285,0,1,1.9305,,0,54,54,48,1,49,0,castilian,,,,,,,,,,,,,,,,,,,,,,,,,,,,,,,,,,,,,,,,,,,,,,,,,,,,,,,,
,,,,,,,,,66e2de50b2eb63d466d153af,Mexican,13 or older,"no, only English or Spanish",no,2025-07-24_10h35.04.222,empathy_intonation_perc_control,2024.2.4,Win32,142.8571429,66e2de50b2eb63d466d153af,68817205a84113384fffdfe3,6882446cc1f337b664ad8bbe,,,,,,,,,,,,./stim/wavs/puertorican_match_declarative-broad-focus_Emilio-ama-la-marcha.wav,0,,,175.4289,177.6925,0,1,1.7507,,0,55,55,65,1,66,0,puertorican,,,,,,,,,,,,,,,,,,,,,,,,,,,,,,,,,,,,,,,,,,,,,,,,,,,,,,,,
,,,,,,,,,66e2de50b2eb63d466d153af,Mexican,13 or older,"no, only English or Spanish",no,2025-07-24_10h35.04.222,empathy_intonation_perc_control,2024.2.4,Win32,142.8571429,66e2de50b2eb63d466d153af,68817205a84113384fffdfe3,6882446cc1f337b664ad8bbe,,,,,,,,,,,,./stim/wavs/castilian_mismatch_declarative-broad-focus_Mi-novio-viene-del-lago.wav,0,,,177.6929,179.9981,0,1,1.7957,,0,56,56,71,1,72,0,castilian,,,,,,,,,,,,,,,,,,,,,,,,,,,,,,,,,,,,,,,,,,,,,,,,,,,,,,,,
,,,,,,,,,66e2de50b2eb63d466d153af,Mexican,13 or older,"no, only English or Spanish",no,2025-07-24_10h35.04.222,empathy_intonation_perc_control,2024.2.4,Win32,142.8571429,66e2de50b2eb63d466d153af,68817205a84113384fffdfe3,6882446cc1f337b664ad8bbe,,,,,,,,,,,,./stim/wavs/puertorican_match_interrogative-total-yn_Manuela-vende-el-carro.wav,1,,,179.9985,183.1996,1,1,2.6883,,0,57,57,22,1,23,1,puertorican,,,,,,,,,,,,,,,,,,,,,,,,,,,,,,,,,,,,,,,,,,,,,,,,,,,,,,,,
,,,,,,,,,66e2de50b2eb63d466d153af,Mexican,13 or older,"no, only English or Spanish",no,2025-07-24_10h35.04.222,empathy_intonation_perc_control,2024.2.4,Win32,142.8571429,66e2de50b2eb63d466d153af,68817205a84113384fffdfe3,6882446cc1f337b664ad8bbe,,,,,,,,,,,,./stim/wavs/mexican_match_interrogative-total-yn_Emilio-ama-la-marcha.wav,1,,,183.2001,185.276,1,1,1.5642,,0,58,58,15,1,16,0,mexican,,,,,,,,,,,,,,,,,,,,,,,,,,,,,,,,,,,,,,,,,,,,,,,,,,,,,,,,
,,,,,,,,,66e2de50b2eb63d466d153af,Mexican,13 or older,"no, only English or Spanish",no,2025-07-24_10h35.04.222,empathy_intonation_perc_control,2024.2.4,Win32,142.8571429,66e2de50b2eb63d466d153af,68817205a84113384fffdfe3,6882446cc1f337b664ad8bbe,,,,,,,,,,,,./stim/wavs/castilian_mismatch_interrogative-total-yn_Mi-madre-come-la-fruta.wav,1,,,185.2763,187.5261,1,1,1.7364,,0,59,59,26,1,27,0,castilian,,,,,,,,,,,,,,,,,,,,,,,,,,,,,,,,,,,,,,,,,,,,,,,,,,,,,,,,
,,,,,,,,,66e2de50b2eb63d466d153af,Mexican,13 or older,"no, only English or Spanish",no,2025-07-24_10h35.04.222,empathy_intonation_perc_control,2024.2.4,Win32,142.8571429,66e2de50b2eb63d466d153af,68817205a84113384fffdfe3,6882446cc1f337b664ad8bbe,,,,,,,,,,,,./stim/wavs/puertorican_match_declarative-broad-focus_Daniel-iba-a-Bolivia.wav,0,,,187.5264,189.6512,0,1,1.6147,,0,60,60,63,1,64,0,puertorican,,,,,,,,,,,,,,,,,,,,,,,,,,,,,,,,,,,,,,,,,,,,,,,,,,,,,,,,
,,,,,,,,,66e2de50b2eb63d466d153af,Mexican,13 or older,"no, only English or Spanish",no,2025-07-24_10h35.04.222,empathy_intonation_perc_control,2024.2.4,Win32,142.8571429,66e2de50b2eb63d466d153af,68817205a84113384fffdfe3,6882446cc1f337b664ad8bbe,,,,,,,,,,,,./stim/wavs/cuban_mismatch_interrogative-total-yn_Mi-novio-viene-del-lago.wav,1,,,189.6515,193.4222,1,1,3.2619,,0,61,61,32,1,33,1,cuban,,,,,,,,,,,,,,,,,,,,,,,,,,,,,,,,,,,,,,,,,,,,,,,,,,,,,,,,
,,,,,,,,,66e2de50b2eb63d466d153af,Mexican,13 or older,"no, only English or Spanish",no,2025-07-24_10h35.04.222,empathy_intonation_perc_control,2024.2.4,Win32,142.8571429,66e2de50b2eb63d466d153af,68817205a84113384fffdfe3,6882446cc1f337b664ad8bbe,,,,,,,,,,,,./stim/wavs/cuban_mismatch_declarative-broad-focus_El-bebe-comia-muy-bien.wav,0,,,193.4226,195.7624,0,1,1.8268,,0,62,62,73,1,74,0,cuban,,,,,,,,,,,,,,,,,,,,,,,,,,,,,,,,,,,,,,,,,,,,,,,,,,,,,,,,
,,,,,,,,,66e2de50b2eb63d466d153af,Mexican,13 or older,"no, only English or Spanish",no,2025-07-24_10h35.04.222,empathy_intonation_perc_control,2024.2.4,Win32,142.8571429,66e2de50b2eb63d466d153af,68817205a84113384fffdfe3,6882446cc1f337b664ad8bbe,,,,,,,,,,,,./stim/wavs/cuban_match_interrogative-total-yn_Ana-lleva-el-abrigo.wav,1,,,195.7627,197.818,1,1,1.5432,,0,63,63,6,1,7,1,cuban,,,,,,,,,,,,,,,,,,,,,,,,,,,,,,,,,,,,,,,,,,,,,,,,,,,,,,,,
,,,,,,,,,66e2de50b2eb63d466d153af,Mexican,13 or older,"no, only English or Spanish",no,2025-07-24_10h35.04.222,empathy_intonation_perc_control,2024.2.4,Win32,142.8571429,66e2de50b2eb63d466d153af,68817205a84113384fffdfe3,6882446cc1f337b664ad8bbe,,,,,,,,,,,,./stim/wavs/castilian_match_declarative-broad-focus_David-leia-el-libro.wav,0,,,197.8184,200.1167,0,1,1.787,,0,64,64,44,1,45,0,castilian,,,,,,,,,,,,,,,,,,,,,,,,,,,,,,,,,,,,,,,,,,,,,,,,,,,,,,,,
,,,,,,,,,66e2de50b2eb63d466d153af,Mexican,13 or older,"no, only English or Spanish",no,2025-07-24_10h35.04.222,empathy_intonation_perc_control,2024.2.4,Win32,142.8571429,66e2de50b2eb63d466d153af,68817205a84113384fffdfe3,6882446cc1f337b664ad8bbe,,,,,,,,,,,,./stim/wavs/mexican_mismatch_interrogative-total-yn_La-maestra-vive-en-Paris.wav,1,,,200.1171,202.5056,1,1,1.8769,,0,65,65,36,1,37,0,mexican,,,,,,,,,,,,,,,,,,,,,,,,,,,,,,,,,,,,,,,,,,,,,,,,,,,,,,,,
,,,,,,,,,66e2de50b2eb63d466d153af,Mexican,13 or older,"no, only English or Spanish",no,2025-07-24_10h35.04.222,empathy_intonation_perc_control,2024.2.4,Win32,142.8571429,66e2de50b2eb63d466d153af,68817205a84113384fffdfe3,6882446cc1f337b664ad8bbe,,,,,,,,,,,,./stim/wavs/mexican_match_interrogative-total-yn_Marta-abre-el-regalo.wav,1,,,202.506,204.5264,1,1,1.512,,0,66,66,17,1,18,0,mexican,,,,,,,,,,,,,,,,,,,,,,,,,,,,,,,,,,,,,,,,,,,,,,,,,,,,,,,,
,,,,,,,,,66e2de50b2eb63d466d153af,Mexican,13 or older,"no, only English or Spanish",no,2025-07-24_10h35.04.222,empathy_intonation_perc_control,2024.2.4,Win32,142.8571429,66e2de50b2eb63d466d153af,68817205a84113384fffdfe3,6882446cc1f337b664ad8bbe,,,,,,,,,,,,./stim/wavs/cuban_mismatch_interrogative-total-yn_El-nino-oye-el-rio.wav,1,,,204.5267,207.2349,0,0,2.1953,,0,67,67,30,1,31,1,cuban,,,,,,,,,,,,,,,,,,,,,,,,,,,,,,,,,,,,,,,,,,,,,,,,,,,,,,,,
,,,,,,,,,66e2de50b2eb63d466d153af,Mexican,13 or older,"no, only English or Spanish",no,2025-07-24_10h35.04.222,empathy_intonation_perc_control,2024.2.4,Win32,142.8571429,66e2de50b2eb63d466d153af,68817205a84113384fffdfe3,6882446cc1f337b664ad8bbe,,,,,,,,,,,,./stim/wavs/cuban_match_declarative-broad-focus_Maria-bebe-el-vino.wav,0,,,207.2354,209.353,0,1,1.6079,,0,68,68,53,1,54,0,cuban,,,,,,,,,,,,,,,,,,,,,,,,,,,,,,,,,,,,,,,,,,,,,,,,,,,,,,,,
,,,,,,,,,66e2de50b2eb63d466d153af,Mexican,13 or older,"no, only English or Spanish",no,2025-07-24_10h35.04.222,empathy_intonation_perc_control,2024.2.4,Win32,142.8571429,66e2de50b2eb63d466d153af,68817205a84113384fffdfe3,6882446cc1f337b664ad8bbe,,,,,,,,,,,,./stim/wavs/puertorican_match_declarative-broad-focus_David-leia-el-libro.wav,0,,,209.3532,211.3947,0,1,1.5283,,0,69,69,64,1,65,0,puertorican,,,,,,,,,,,,,,,,,,,,,,,,,,,,,,,,,,,,,,,,,,,,,,,,,,,,,,,,
,,,,,,,,,66e2de50b2eb63d466d153af,Mexican,13 or older,"no, only English or Spanish",no,2025-07-24_10h35.04.222,empathy_intonation_perc_control,2024.2.4,Win32,142.8571429,66e2de50b2eb63d466d153af,68817205a84113384fffdfe3,6882446cc1f337b664ad8bbe,,,,,,,,,,,,./stim/wavs/puertorican_mismatch_interrogative-total-yn_El-hombre-mira-la-luna.wav,1,,,211.3953,213.4642,1,1,1.5568,,0,70,70,39,1,40,1,puertorican,,,,,,,,,,,,,,,,,,,,,,,,,,,,,,,,,,,,,,,,,,,,,,,,,,,,,,,,
,,,,,,,,,66e2de50b2eb63d466d153af,Mexican,13 or older,"no, only English or Spanish",no,2025-07-24_10h35.04.222,empathy_intonation_perc_control,2024.2.4,Win32,142.8571429,66e2de50b2eb63d466d153af,68817205a84113384fffdfe3,6882446cc1f337b664ad8bbe,,,,,,,,,,,,./stim/wavs/castilian_match_declarative-broad-focus_Marta-abre-el-regalo.wav,0,,,213.4646,215.6795,0,1,1.7051,,0,71,71,49,1,50,0,castilian,,,,,,,,,,,,,,,,,,,,,,,,,,,,,,,,,,,,,,,,,,,,,,,,,,,,,,,,
,,,,,,,,,66e2de50b2eb63d466d153af,Mexican,13 or older,"no, only English or Spanish",no,2025-07-24_10h35.04.222,empathy_intonation_perc_control,2024.2.4,Win32,142.8571429,66e2de50b2eb63d466d153af,68817205a84113384fffdfe3,6882446cc1f337b664ad8bbe,,,,,,,,,,,,./stim/wavs/castilian_match_declarative-broad-focus_Emilio-ama-la-marcha.wav,0,,,215.6798,217.9227,0,1,1.7295,,0,72,72,45,1,46,0,castilian,,,,,,,,,,,,,,,,,,,,,,,,,,,,,,,,,,,,,,,,,,,,,,,,,,,,,,,,
,,,,,,,,,66e2de50b2eb63d466d153af,Mexican,13 or older,"no, only English or Spanish",no,2025-07-24_10h35.04.222,empathy_intonation_perc_control,2024.2.4,Win32,142.8571429,66e2de50b2eb63d466d153af,68817205a84113384fffdfe3,6882446cc1f337b664ad8bbe,,,,,,,,,,,,./stim/wavs/castilian_mismatch_interrogative-total-yn_La-nina-lava-el-plato.wav,1,,,217.9231,220.1103,1,1,1.6766,,0,73,73,25,1,26,0,castilian,,,,,,,,,,,,,,,,,,,,,,,,,,,,,,,,,,,,,,,,,,,,,,,,,,,,,,,,
,,,,,,,,,66e2de50b2eb63d466d153af,Mexican,13 or older,"no, only English or Spanish",no,2025-07-24_10h35.04.222,empathy_intonation_perc_control,2024.2.4,Win32,142.8571429,66e2de50b2eb63d466d153af,68817205a84113384fffdfe3,6882446cc1f337b664ad8bbe,,,,,,,,,,,,./stim/wavs/puertorican_match_declarative-broad-focus_Maria-bebe-el-vino.wav,0,,,220.1106,223.0131,1,0,2.3924,,0,74,74,67,1,68,0,puertorican,,,,,,,,,,,,,,,,,,,,,,,,,,,,,,,,,,,,,,,,,,,,,,,,,,,,,,,,
,,,,,,,,,66e2de50b2eb63d466d153af,Mexican,13 or older,"no, only English or Spanish",no,2025-07-24_10h35.04.222,empathy_intonation_perc_control,2024.2.4,Win32,142.8571429,66e2de50b2eb63d466d153af,68817205a84113384fffdfe3,6882446cc1f337b664ad8bbe,,,,,,,,,,,,./stim/wavs/cuban_match_interrogative-total-yn_Mariano-habla-del-tiempo.wav,1,,,223.0134,225.4299,1,1,1.9055,,0,75,75,10,1,11,1,cuban,,,,,,,,,,,,,,,,,,,,,,,,,,,,,,,,,,,,,,,,,,,,,,,,,,,,,,,,
,,,,,,,,,66e2de50b2eb63d466d153af,Mexican,13 or older,"no, only English or Spanish",no,2025-07-24_10h35.04.222,empathy_intonation_perc_control,2024.2.4,Win32,142.8571429,66e2de50b2eb63d466d153af,68817205a84113384fffdfe3,6882446cc1f337b664ad8bbe,,,,,,,,,,,,./stim/wavs/mexican_mismatch_declarative-broad-focus_La-maestra-vive-en-Paris.wav,0,,,225.4302,228.0273,0,1,2.0884,,0,76,76,80,1,81,0,mexican,,,,,,,,,,,,,,,,,,,,,,,,,,,,,,,,,,,,,,,,,,,,,,,,,,,,,,,,
,,,,,,,,,66e2de50b2eb63d466d153af,Mexican,13 or older,"no, only English or Spanish",no,2025-07-24_10h35.04.222,empathy_intonation_perc_control,2024.2.4,Win32,142.8571429,66e2de50b2eb63d466d153af,68817205a84113384fffdfe3,6882446cc1f337b664ad8bbe,,,,,,,,,,,,./stim/wavs/castilian_match_interrogative-total-yn_Mariano-habla-del-tiempo.wav,1,,,228.0276,230.2982,1,1,1.76,,0,77,77,4,1,5,0,castilian,,,,,,,,,,,,,,,,,,,,,,,,,,,,,,,,,,,,,,,,,,,,,,,,,,,,,,,,
,,,,,,,,,66e2de50b2eb63d466d153af,Mexican,13 or older,"no, only English or Spanish",no,2025-07-24_10h35.04.222,empathy_intonation_perc_control,2024.2.4,Win32,142.8571429,66e2de50b2eb63d466d153af,68817205a84113384fffdfe3,6882446cc1f337b664ad8bbe,,,,,,,,,,,,./stim/wavs/puertorican_match_interrogative-total-yn_Emilio-ama-la-marcha.wav,1,,,230.2985,232.798,1,1,1.9886,,0,78,78,21,1,22,1,puertorican,,,,,,,,,,,,,,,,,,,,,,,,,,,,,,,,,,,,,,,,,,,,,,,,,,,,,,,,
,,,,,,,,,66e2de50b2eb63d466d153af,Mexican,13 or older,"no, only English or Spanish",no,2025-07-24_10h35.04.222,empathy_intonation_perc_control,2024.2.4,Win32,142.8571429,66e2de50b2eb63d466d153af,68817205a84113384fffdfe3,6882446cc1f337b664ad8bbe,,,,,,,,,,,,./stim/wavs/cuban_mismatch_declarative-broad-focus_Mi-tia-odia-la-lluvia.wav,0,,,232.7983,235.7287,0,1,2.4197,,0,79,79,77,1,78,0,cuban,,,,,,,,,,,,,,,,,,,,,,,,,,,,,,,,,,,,,,,,,,,,,,,,,,,,,,,,
,,,,,,,,,66e2de50b2eb63d466d153af,Mexican,13 or older,"no, only English or Spanish",no,2025-07-24_10h35.04.222,empathy_intonation_perc_control,2024.2.4,Win32,142.8571429,66e2de50b2eb63d466d153af,68817205a84113384fffdfe3,6882446cc1f337b664ad8bbe,,,,,,,,,,,,./stim/wavs/puertorican_match_declarative-broad-focus_Ana-lleva-el-abrigo.wav,0,,,235.7291,237.8815,0,1,1.6391,,0,80,80,62,1,63,0,puertorican,,,,,,,,,,,,,,,,,,,,,,,,,,,,,,,,,,,,,,,,,,,,,,,,,,,,,,,,
,,,,,,,,,66e2de50b2eb63d466d153af,Mexican,13 or older,"no, only English or Spanish",no,2025-07-24_10h35.04.222,empathy_intonation_perc_control,2024.2.4,Win32,142.8571429,66e2de50b2eb63d466d153af,68817205a84113384fffdfe3,6882446cc1f337b664ad8bbe,,,,,,,,,,,,./stim/wavs/cuban_match_declarative-broad-focus_Marta-abre-el-regalo.wav,0,,,237.8819,240.0482,0,1,1.6558,,0,81,81,55,1,56,0,cuban,,,,,,,,,,,,,,,,,,,,,,,,,,,,,,,,,,,,,,,,,,,,,,,,,,,,,,,,
,,,,,,,,,66e2de50b2eb63d466d153af,Mexican,13 or older,"no, only English or Spanish",no,2025-07-24_10h35.04.222,empathy_intonation_perc_control,2024.2.4,Win32,142.8571429,66e2de50b2eb63d466d153af,68817205a84113384fffdfe3,6882446cc1f337b664ad8bbe,,,,,,,,,,,,./stim/wavs/mexican_match_declarative-broad-focus_Mariano-habla-del-tiempo.wav,0,,,240.0485,243.2428,0,1,2.6824,,0,82,82,60,1,61,0,mexican,,,,,,,,,,,,,,,,,,,,,,,,,,,,,,,,,,,,,,,,,,,,,,,,,,,,,,,,
,,,,,,,,,66e2de50b2eb63d466d153af,Mexican,13 or older,"no, only English or Spanish",no,2025-07-24_10h35.04.222,empathy_intonation_perc_control,2024.2.4,Win32,142.8571429,66e2de50b2eb63d466d153af,68817205a84113384fffdfe3,6882446cc1f337b664ad8bbe,,,,,,,,,,,,./stim/wavs/castilian_match_interrogative-total-yn_Manuela-vende-el-carro.wav,1,,,243.2432,245.5276,1,1,1.7707,,0,83,83,2,1,3,0,castilian,,,,,,,,,,,,,,,,,,,,,,,,,,,,,,,,,,,,,,,,,,,,,,,,,,,,,,,,
,,,,,,,,,66e2de50b2eb63d466d153af,Mexican,13 or older,"no, only English or Spanish",no,2025-07-24_10h35.04.222,empathy_intonation_perc_control,2024.2.4,Win32,142.8571429,66e2de50b2eb63d466d153af,68817205a84113384fffdfe3,6882446cc1f337b664ad8bbe,,,,,,,,,,,,./stim/wavs/castilian_mismatch_declarative-broad-focus_La-maestra-vive-en-Paris.wav,0,,,245.5281,248.0485,0,1,2.0095,,0,84,84,69,1,70,0,castilian,,,,,,,,,,,,,,,,,,,,,,,,,,,,,,,,,,,,,,,,,,,,,,,,,,,,,,,,
,,,,,,,,,66e2de50b2eb63d466d153af,Mexican,13 or older,"no, only English or Spanish",no,2025-07-24_10h35.04.222,empathy_intonation_perc_control,2024.2.4,Win32,142.8571429,66e2de50b2eb63d466d153af,68817205a84113384fffdfe3,6882446cc1f337b664ad8bbe,,,,,,,,,,,,./stim/wavs/puertorican_mismatch_declarative-broad-focus_La-maestra-vive-en-Paris.wav,0,,,248.0489,250.1318,0,1,1.5692,,0,85,85,86,1,87,0,puertorican,,,,,,,,,,,,,,,,,,,,,,,,,,,,,,,,,,,,,,,,,,,,,,,,,,,,,,,,
,,,,,,,,,66e2de50b2eb63d466d153af,Mexican,13 or older,"no, only English or Spanish",no,2025-07-24_10h35.04.222,empathy_intonation_perc_control,2024.2.4,Win32,142.8571429,66e2de50b2eb63d466d153af,68817205a84113384fffdfe3,6882446cc1f337b664ad8bbe,,,,,,,,,,,,./stim/wavs/cuban_mismatch_interrogative-total-yn_Mi-tia-odia-la-lluvia.wav,1,,,250.1322,252.7083,1,1,2.0667,,0,86,86,33,1,34,1,cuban,,,,,,,,,,,,,,,,,,,,,,,,,,,,,,,,,,,,,,,,,,,,,,,,,,,,,,,,
,,,,,,,,,66e2de50b2eb63d466d153af,Mexican,13 or older,"no, only English or Spanish",no,2025-07-24_10h35.04.222,empathy_intonation_perc_control,2024.2.4,Win32,142.8571429,66e2de50b2eb63d466d153af,68817205a84113384fffdfe3,6882446cc1f337b664ad8bbe,,,,,,,,,,,,./stim/wavs/puertorican_mismatch_interrogative-total-yn_El-nino-oye-el-rio.wav,1,,,252.7085,255.0835,1,1,1.8659,,0,87,87,40,1,41,1,puertorican,,,,,,,,,,,,,,,,,,,,,,,,,,,,,,,,,,,,,,,,,,,,,,,,,,,,,,,,
,,,,,,,"Great! Now we will move on. The next task consists of about 60 trials, in each of which you will see a string of letters. 
  
  Your task is to decide whether this is a real Spanish word or not.", (press the spacebar to continue),66e2de50b2eb63d466d153af,Mexican,13 or older,"no, only English or Spanish",no,2025-07-24_10h35.04.222,empathy_intonation_perc_control,2024.2.4,Win32,142.8571429,66e2de50b2eb63d466d153af,68817205a84113384fffdfe3,6882446cc1f337b664ad8bbe,,,,,,,,,,,,,,,,,,,,,,,,,,,,,,255.0872,259.7088,0,0,0,0,1,,,,,,,,,,,,,,,,,,,,,,,,,,,,,,,,,,,,,,,,,,,,,,,,,
,,,,,,,"If you think it is an existing Spanish word, you type '1' (for 'REAL'), and if you think it is not an existing Spanish word, you type '0' (for 'FAKE').", (press the spacebar to continue),66e2de50b2eb63d466d153af,Mexican,13 or older,"no, only English or Spanish",no,2025-07-24_10h35.04.222,empathy_intonation_perc_control,2024.2.4,Win32,142.8571429,66e2de50b2eb63d466d153af,68817205a84113384fffdfe3,6882446cc1f337b664ad8bbe,,,,,,,,,,,,,,,,,,,,,,,,,,,,,,259.7108,263.7643,0,1,1,1,1,,,,,,,,,,,,,,,,,,,,,,,,,,,,,,,,,,,,,,,,,,,,,,,,,
,,,,,,,"If you are sure that the word exists, even though you don’t know its exact meaning, you may still respond '1' (REAL). 
  
  But if you are not sure if it is an existing word, you should respond '0' (FAKE).
  
  Let's do a practice round...", (press the spacebar to continue),66e2de50b2eb63d466d153af,Mexican,13 or older,"no, only English or Spanish",no,2025-07-24_10h35.04.222,empathy_intonation_perc_control,2024.2.4,Win32,142.8571429,66e2de50b2eb63d466d153af,68817205a84113384fffdfe3,6882446cc1f337b664ad8bbe,,,,,,,,,,,,,,,,,,,,,,,,,,,,,,263.7655,269.2437,0,2,2,2,1,,,,,,,,,,,,,,,,,,,,,,,,,,,,,,,,,,,,,,,,,,,,,,,,,
,,,,,,,,,66e2de50b2eb63d466d153af,Mexican,13 or older,"no, only English or Spanish",no,2025-07-24_10h35.04.222,empathy_intonation_perc_control,2024.2.4,Win32,142.8571429,66e2de50b2eb63d466d153af,68817205a84113384fffdfe3,6882446cc1f337b664ad8bbe,,,,,,,,,,,,,0,,,,,,,,,,,,,,,,,,,,,,,,269.2473,273.9384,1,0,4.1804,,273.9385,274.9384,0,0,0,0,1,0,depiste,REAL,FAKE,,,,,,,,,,,,,,,,,,,,,,,,,,,,,,,,
,,,,,,,,,66e2de50b2eb63d466d153af,Mexican,13 or older,"no, only English or Spanish",no,2025-07-24_10h35.04.222,empathy_intonation_perc_control,2024.2.4,Win32,142.8571429,66e2de50b2eb63d466d153af,68817205a84113384fffdfe3,6882446cc1f337b664ad8bbe,,,,,,,,,,,,,1,,,,,,,,,,,,,,,,,,,,,,,,274.9396,276.3481,1,1,0.8943,,276.349,277.3482,0,1,1,1,1,0,sí,REAL,FAKE,,,,,,,,,,,,,,,,,,,,,,,,,,,,,,,,
,,,,,,,,,66e2de50b2eb63d466d153af,Mexican,13 or older,"no, only English or Spanish",no,2025-07-24_10h35.04.222,empathy_intonation_perc_control,2024.2.4,Win32,142.8571429,66e2de50b2eb63d466d153af,68817205a84113384fffdfe3,6882446cc1f337b664ad8bbe,,,,,,,,,,,,,0,,,,,,,,,,,,,,,,,,,,,,,,277.3489,280.4176,0,1,2.5576,,280.4176,281.4177,0,2,2,2,1,0,coné,REAL,FAKE,,,,,,,,,,,,,,,,,,,,,,,,,,,,,,,,
,,,,,,,,,66e2de50b2eb63d466d153af,Mexican,13 or older,"no, only English or Spanish",no,2025-07-24_10h35.04.222,empathy_intonation_perc_control,2024.2.4,Win32,142.8571429,66e2de50b2eb63d466d153af,68817205a84113384fffdfe3,6882446cc1f337b664ad8bbe,,,,,,,,,,,,,0,,,,,,,,,,,,,,,,,,,,,,,,281.4186,283.5565,1,0,1.6257,,283.5568,284.5567,0,3,3,3,1,0,calpar,REAL,FAKE,,,,,,,,,,,,,,,,,,,,,,,,,,,,,,,,
,,,,,,,,,66e2de50b2eb63d466d153af,Mexican,13 or older,"no, only English or Spanish",no,2025-07-24_10h35.04.222,empathy_intonation_perc_control,2024.2.4,Win32,142.8571429,66e2de50b2eb63d466d153af,68817205a84113384fffdfe3,6882446cc1f337b664ad8bbe,,,,,,,,,,,,,0,,,,,,,,,,,,,,,,,,,,,,,,284.5574,286.1053,0,1,1.0372,,286.1057,287.1053,0,4,4,4,1,0,joten,REAL,FAKE,,,,,,,,,,,,,,,,,,,,,,,,,,,,,,,,
,,,,,,,,,66e2de50b2eb63d466d153af,Mexican,13 or older,"no, only English or Spanish",no,2025-07-24_10h35.04.222,empathy_intonation_perc_control,2024.2.4,Win32,142.8571429,66e2de50b2eb63d466d153af,68817205a84113384fffdfe3,6882446cc1f337b664ad8bbe,,,,,,,,,,,,,1,,,,,,,,,,,,,,,,,,,,,,,,287.1062,289.0151,0,0,1.3973,,289.0155,290.0152,0,5,5,5,1,0,sacapuntas,REAL,FAKE,,,,,,,,,,,,,,,,,,,,,,,,,,,,,,,,
,,,,,,,,,66e2de50b2eb63d466d153af,Mexican,13 or older,"no, only English or Spanish",no,2025-07-24_10h35.04.222,empathy_intonation_perc_control,2024.2.4,Win32,142.8571429,66e2de50b2eb63d466d153af,68817205a84113384fffdfe3,6882446cc1f337b664ad8bbe,,,,,,,,,,,,,0,,,,,,,,,,,,,,,,,,,,,,,,290.0163,292.5082,1,0,1.9799,,292.5082,293.5084,0,6,6,6,1,0,priba,REAL,FAKE,,,,,,,,,,,,,,,,,,,,,,,,,,,,,,,,
,,,,,,,,,66e2de50b2eb63d466d153af,Mexican,13 or older,"no, only English or Spanish",no,2025-07-24_10h35.04.222,empathy_intonation_perc_control,2024.2.4,Win32,142.8571429,66e2de50b2eb63d466d153af,68817205a84113384fffdfe3,6882446cc1f337b664ad8bbe,,,,,,,,,,,,,0,,,,,,,,,,,,,,,,,,,,,,,,293.5089,297.6542,1,0,3.6302,,297.6542,298.6542,0,7,7,7,1,0,pelasula,REAL,FAKE,,,,,,,,,,,,,,,,,,,,,,,,,,,,,,,,
,,,,,,,,,66e2de50b2eb63d466d153af,Mexican,13 or older,"no, only English or Spanish",no,2025-07-24_10h35.04.222,empathy_intonation_perc_control,2024.2.4,Win32,142.8571429,66e2de50b2eb63d466d153af,68817205a84113384fffdfe3,6882446cc1f337b664ad8bbe,,,,,,,,,,,,,1,,,,,,,,,,,,,,,,,,,,,,,,298.6552,300.2376,1,1,1.0686,,300.2379,301.2377,0,8,8,8,1,0,bien,REAL,FAKE,,,,,,,,,,,,,,,,,,,,,,,,,,,,,,,,
,,,,,,,,,66e2de50b2eb63d466d153af,Mexican,13 or older,"no, only English or Spanish",no,2025-07-24_10h35.04.222,empathy_intonation_perc_control,2024.2.4,Win32,142.8571429,66e2de50b2eb63d466d153af,68817205a84113384fffdfe3,6882446cc1f337b664ad8bbe,,,,,,,,,,,,,1,,,,,,,,,,,,,,,,,,,,,,,,301.2387,302.5919,1,1,0.8398,,302.5919,303.5919,0,9,9,9,1,0,casa,REAL,FAKE,,,,,,,,,,,,,,,,,,,,,,,,,,,,,,,,
,,,,,,,,,66e2de50b2eb63d466d153af,Mexican,13 or older,"no, only English or Spanish",no,2025-07-24_10h35.04.222,empathy_intonation_perc_control,2024.2.4,Win32,142.8571429,66e2de50b2eb63d466d153af,68817205a84113384fffdfe3,6882446cc1f337b664ad8bbe,,,,,,,,,,,,,0,,,,,,,,,,,,,,,,,,,,,,,,303.5929,305.2168,1,0,1.1093,,305.2174,306.2169,0,10,10,10,1,0,lejo,REAL,FAKE,,,,,,,,,,,,,,,,,,,,,,,,,,,,,,,,
,,,,,,,,,66e2de50b2eb63d466d153af,Mexican,13 or older,"no, only English or Spanish",no,2025-07-24_10h35.04.222,empathy_intonation_perc_control,2024.2.4,Win32,142.8571429,66e2de50b2eb63d466d153af,68817205a84113384fffdfe3,6882446cc1f337b664ad8bbe,,,,,,,,,,,,,0,,,,,,,,,,,,,,,,,,,,,,,,306.2179,307.9252,0,1,1.1936,,307.9257,308.9253,0,11,11,11,1,0,pretantas,REAL,FAKE,,,,,,,,,,,,,,,,,,,,,,,,,,,,,,,,
,,,,,,,,,66e2de50b2eb63d466d153af,Mexican,13 or older,"no, only English or Spanish",no,2025-07-24_10h35.04.222,empathy_intonation_perc_control,2024.2.4,Win32,142.8571429,66e2de50b2eb63d466d153af,68817205a84113384fffdfe3,6882446cc1f337b664ad8bbe,,,,,,,,,,,,,,,,,,,,,,,,,,,,,,,,,,,,,,,,,,,,,,,,,,,,,,308.9256,319.7661,,,,,,,,,,,,,,,,,,,,,,,,,,,,,,
,,,,,,,,,66e2de50b2eb63d466d153af,Mexican,13 or older,"no, only English or Spanish",no,2025-07-24_10h35.04.222,empathy_intonation_perc_control,2024.2.4,Win32,142.8571429,66e2de50b2eb63d466d153af,68817205a84113384fffdfe3,6882446cc1f337b664ad8bbe,,,,,,,,,,,,,1,,,,,,,,,,,,,,,,,,,,,,,,,,,,,,,,,,,,,64,orgulloso,,,,,319.772,322.1828,0,0,1.9056,,0,0,0,63,1,REAL,FAKE,,,,,,,,,,,,,,,,,
,,,,,,,,,66e2de50b2eb63d466d153af,Mexican,13 or older,"no, only English or Spanish",no,2025-07-24_10h35.04.222,empathy_intonation_perc_control,2024.2.4,Win32,142.8571429,66e2de50b2eb63d466d153af,68817205a84113384fffdfe3,6882446cc1f337b664ad8bbe,,,,,,,,,,,,,1,,,,,,,,,,,,,,,,,,,,,,,,,,,,,,,,,,,,,20,ávido,,,,,322.1837,324.6549,1,1,1.958,,0,1,1,19,1,REAL,FAKE,,,,,,,,,,,,,,,,,
,,,,,,,,,66e2de50b2eb63d466d153af,Mexican,13 or older,"no, only English or Spanish",no,2025-07-24_10h35.04.222,empathy_intonation_perc_control,2024.2.4,Win32,142.8571429,66e2de50b2eb63d466d153af,68817205a84113384fffdfe3,6882446cc1f337b664ad8bbe,,,,,,,,,,,,,1,,,,,,,,,,,,,,,,,,,,,,,,,,,,,,,,,,,,,67,cabello,,,,,324.6554,326.1618,1,1,0.9952,,0,2,2,66,1,REAL,FAKE,,,,,,,,,,,,,,,,,
,,,,,,,,,66e2de50b2eb63d466d153af,Mexican,13 or older,"no, only English or Spanish",no,2025-07-24_10h35.04.222,empathy_intonation_perc_control,2024.2.4,Win32,142.8571429,66e2de50b2eb63d466d153af,68817205a84113384fffdfe3,6882446cc1f337b664ad8bbe,,,,,,,,,,,,,1,,,,,,,,,,,,,,,,,,,,,,,,,,,,,,,,,,,,,83,guante,,,,,326.1627,327.7592,0,0,1.0824,,0,3,3,82,1,REAL,FAKE,,,,,,,,,,,,,,,,,
,,,,,,,,,66e2de50b2eb63d466d153af,Mexican,13 or older,"no, only English or Spanish",no,2025-07-24_10h35.04.222,empathy_intonation_perc_control,2024.2.4,Win32,142.8571429,66e2de50b2eb63d466d153af,68817205a84113384fffdfe3,6882446cc1f337b664ad8bbe,,,,,,,,,,,,,0,,,,,,,,,,,,,,,,,,,,,,,,,,,,,,,,,,,,,18,arsa,,,,,327.76,329.3285,0,1,1.0548,,0,4,4,17,1,REAL,FAKE,,,,,,,,,,,,,,,,,
,,,,,,,,,66e2de50b2eb63d466d153af,Mexican,13 or older,"no, only English or Spanish",no,2025-07-24_10h35.04.222,empathy_intonation_perc_control,2024.2.4,Win32,142.8571429,66e2de50b2eb63d466d153af,68817205a84113384fffdfe3,6882446cc1f337b664ad8bbe,,,,,,,,,,,,,1,,,,,,,,,,,,,,,,,,,,,,,,,,,,,,,,,,,,,39,torpe,,,,,329.3291,333.3912,0,0,3.5516,,0,5,5,38,1,REAL,FAKE,,,,,,,,,,,,,,,,,
,,,,,,,,,66e2de50b2eb63d466d153af,Mexican,13 or older,"no, only English or Spanish",no,2025-07-24_10h35.04.222,empathy_intonation_perc_control,2024.2.4,Win32,142.8571429,66e2de50b2eb63d466d153af,68817205a84113384fffdfe3,6882446cc1f337b664ad8bbe,,,,,,,,,,,,,1,,,,,,,,,,,,,,,,,,,,,,,,,,,,,,,,,,,,,2,pellizcar,,,,,333.3919,336.0719,0,0,2.1647,,0,6,6,1,1,REAL,FAKE,,,,,,,,,,,,,,,,,
,,,,,,,,,66e2de50b2eb63d466d153af,Mexican,13 or older,"no, only English or Spanish",no,2025-07-24_10h35.04.222,empathy_intonation_perc_control,2024.2.4,Win32,142.8571429,66e2de50b2eb63d466d153af,68817205a84113384fffdfe3,6882446cc1f337b664ad8bbe,,,,,,,,,,,,,0,,,,,,,,,,,,,,,,,,,,,,,,,,,,,,,,,,,,,16,abracer,,,,,336.0724,337.6136,1,0,1.0281,,0,7,7,15,1,REAL,FAKE,,,,,,,,,,,,,,,,,
,,,,,,,,,66e2de50b2eb63d466d153af,Mexican,13 or older,"no, only English or Spanish",no,2025-07-24_10h35.04.222,empathy_intonation_perc_control,2024.2.4,Win32,142.8571429,66e2de50b2eb63d466d153af,68817205a84113384fffdfe3,6882446cc1f337b664ad8bbe,,,,,,,,,,,,,1,,,,,,,,,,,,,,,,,,,,,,,,,,,,,,,,,,,,,71,polvoriento,,,,,337.6142,342.0928,1,1,3.967,,0,8,8,70,1,REAL,FAKE,,,,,,,,,,,,,,,,,
,,,,,,,,,66e2de50b2eb63d466d153af,Mexican,13 or older,"no, only English or Spanish",no,2025-07-24_10h35.04.222,empathy_intonation_perc_control,2024.2.4,Win32,142.8571429,66e2de50b2eb63d466d153af,68817205a84113384fffdfe3,6882446cc1f337b664ad8bbe,,,,,,,,,,,,,1,,,,,,,,,,,,,,,,,,,,,,,,,,,,,,,,,,,,,59,besar,,,,,342.0936,343.7039,1,1,1.0965,,0,9,9,58,1,REAL,FAKE,,,,,,,,,,,,,,,,,
,,,,,,,,,66e2de50b2eb63d466d153af,Mexican,13 or older,"no, only English or Spanish",no,2025-07-24_10h35.04.222,empathy_intonation_perc_control,2024.2.4,Win32,142.8571429,66e2de50b2eb63d466d153af,68817205a84113384fffdfe3,6882446cc1f337b664ad8bbe,,,,,,,,,,,,,1,,,,,,,,,,,,,,,,,,,,,,,,,,,,,,,,,,,,,49,ganar,,,,,343.7048,345.204,1,1,0.9887,,0,10,10,48,1,REAL,FAKE,,,,,,,,,,,,,,,,,
,,,,,,,,,66e2de50b2eb63d466d153af,Mexican,13 or older,"no, only English or Spanish",no,2025-07-24_10h35.04.222,empathy_intonation_perc_control,2024.2.4,Win32,142.8571429,66e2de50b2eb63d466d153af,68817205a84113384fffdfe3,6882446cc1f337b664ad8bbe,,,,,,,,,,,,,0,,,,,,,,,,,,,,,,,,,,,,,,,,,,,,,,,,,,,42,cadallo,,,,,345.2045,347.2388,0,1,1.522,,0,11,11,41,1,REAL,FAKE,,,,,,,,,,,,,,,,,
,,,,,,,,,66e2de50b2eb63d466d153af,Mexican,13 or older,"no, only English or Spanish",no,2025-07-24_10h35.04.222,empathy_intonation_perc_control,2024.2.4,Win32,142.8571429,66e2de50b2eb63d466d153af,68817205a84113384fffdfe3,6882446cc1f337b664ad8bbe,,,,,,,,,,,,,1,,,,,,,,,,,,,,,,,,,,,,,,,,,,,,,,,,,,,91,click the 1 key.,,,,,347.2402,348.8639,1,1,1.1101,,0,12,12,90,1,REAL,FAKE,,,,,,,,,,,,,,,,,
,,,,,,,,,66e2de50b2eb63d466d153af,Mexican,13 or older,"no, only English or Spanish",no,2025-07-24_10h35.04.222,empathy_intonation_perc_control,2024.2.4,Win32,142.8571429,66e2de50b2eb63d466d153af,68817205a84113384fffdfe3,6882446cc1f337b664ad8bbe,,,,,,,,,,,,,0,,,,,,,,,,,,,,,,,,,,,,,,,,,,,,,,,,,,,1,terzo,,,,,348.8648,352.6626,0,1,3.286,,0,13,13,0,1,REAL,FAKE,,,,,,,,,,,,,,,,,
,,,,,,,,,66e2de50b2eb63d466d153af,Mexican,13 or older,"no, only English or Spanish",no,2025-07-24_10h35.04.222,empathy_intonation_perc_control,2024.2.4,Win32,142.8571429,66e2de50b2eb63d466d153af,68817205a84113384fffdfe3,6882446cc1f337b664ad8bbe,,,,,,,,,,,,,0,,,,,,,,,,,,,,,,,,,,,,,,,,,,,,,,,,,,,35,rompido,,,,,352.6636,355.1141,1,0,1.9352,,0,14,14,34,1,REAL,FAKE,,,,,,,,,,,,,,,,,
,,,,,,,,,66e2de50b2eb63d466d153af,Mexican,13 or older,"no, only English or Spanish",no,2025-07-24_10h35.04.222,empathy_intonation_perc_control,2024.2.4,Win32,142.8571429,66e2de50b2eb63d466d153af,68817205a84113384fffdfe3,6882446cc1f337b664ad8bbe,,,,,,,,,,,,,0,,,,,,,,,,,,,,,,,,,,,,,,,,,,,,,,,,,,,63,esposante,,,,,355.115,357.4613,0,1,1.8347,,0,15,15,62,1,REAL,FAKE,,,,,,,,,,,,,,,,,
,,,,,,,,,66e2de50b2eb63d466d153af,Mexican,13 or older,"no, only English or Spanish",no,2025-07-24_10h35.04.222,empathy_intonation_perc_control,2024.2.4,Win32,142.8571429,66e2de50b2eb63d466d153af,68817205a84113384fffdfe3,6882446cc1f337b664ad8bbe,,,,,,,,,,,,,1,,,,,,,,,,,,,,,,,,,,,,,,,,,,,,,,,,,,,15,regar,,,,,357.462,359.6629,1,1,1.6883,,0,16,16,14,1,REAL,FAKE,,,,,,,,,,,,,,,,,
,,,,,,,,,66e2de50b2eb63d466d153af,Mexican,13 or older,"no, only English or Spanish",no,2025-07-24_10h35.04.222,empathy_intonation_perc_control,2024.2.4,Win32,142.8571429,66e2de50b2eb63d466d153af,68817205a84113384fffdfe3,6882446cc1f337b664ad8bbe,,,,,,,,,,,,,1,,,,,,,,,,,,,,,,,,,,,,,,,,,,,,,,,,,,,61,seda,,,,,359.6635,362.2392,1,1,2.0633,,0,17,17,60,1,REAL,FAKE,,,,,,,,,,,,,,,,,
,,,,,,,,,66e2de50b2eb63d466d153af,Mexican,13 or older,"no, only English or Spanish",no,2025-07-24_10h35.04.222,empathy_intonation_perc_control,2024.2.4,Win32,142.8571429,66e2de50b2eb63d466d153af,68817205a84113384fffdfe3,6882446cc1f337b664ad8bbe,,,,,,,,,,,,,1,,,,,,,,,,,,,,,,,,,,,,,,,,,,,,,,,,,,,65,bizcocho,,,,,362.24,366.3019,0,0,3.5479,,0,18,18,64,1,REAL,FAKE,,,,,,,,,,,,,,,,,
,,,,,,,,,66e2de50b2eb63d466d153af,Mexican,13 or older,"no, only English or Spanish",no,2025-07-24_10h35.04.222,empathy_intonation_perc_control,2024.2.4,Win32,142.8571429,66e2de50b2eb63d466d153af,68817205a84113384fffdfe3,6882446cc1f337b664ad8bbe,,,,,,,,,,,,,0,,,,,,,,,,,,,,,,,,,,,,,,,,,,,,,,,,,,,4,batillón,,,,,366.3029,369.538,1,0,2.7233,,0,19,19,3,1,REAL,FAKE,,,,,,,,,,,,,,,,,
,,,,,,,,,66e2de50b2eb63d466d153af,Mexican,13 or older,"no, only English or Spanish",no,2025-07-24_10h35.04.222,empathy_intonation_perc_control,2024.2.4,Win32,142.8571429,66e2de50b2eb63d466d153af,68817205a84113384fffdfe3,6882446cc1f337b664ad8bbe,,,,,,,,,,,,,0,,,,,,,,,,,,,,,,,,,,,,,,,,,,,,,,,,,,,19,brecedad,,,,,369.5386,371.2395,0,1,1.1907,,0,20,20,18,1,REAL,FAKE,,,,,,,,,,,,,,,,,
,,,,,,,,,66e2de50b2eb63d466d153af,Mexican,13 or older,"no, only English or Spanish",no,2025-07-24_10h35.04.222,empathy_intonation_perc_control,2024.2.4,Win32,142.8571429,66e2de50b2eb63d466d153af,68817205a84113384fffdfe3,6882446cc1f337b664ad8bbe,,,,,,,,,,,,,1,,,,,,,,,,,,,,,,,,,,,,,,,,,,,,,,,,,,,45,jilguero,,,,,371.2401,372.948,0,0,1.1947,,0,21,21,44,1,REAL,FAKE,,,,,,,,,,,,,,,,,
,,,,,,,,,66e2de50b2eb63d466d153af,Mexican,13 or older,"no, only English or Spanish",no,2025-07-24_10h35.04.222,empathy_intonation_perc_control,2024.2.4,Win32,142.8571429,66e2de50b2eb63d466d153af,68817205a84113384fffdfe3,6882446cc1f337b664ad8bbe,,,,,,,,,,,,,1,,,,,,,,,,,,,,,,,,,,,,,,,,,,,,,,,,,,,81,pozo,,,,,372.9487,374.3854,1,1,0.9224,,0,22,22,80,1,REAL,FAKE,,,,,,,,,,,,,,,,,
,,,,,,,,,66e2de50b2eb63d466d153af,Mexican,13 or older,"no, only English or Spanish",no,2025-07-24_10h35.04.222,empathy_intonation_perc_control,2024.2.4,Win32,142.8571429,66e2de50b2eb63d466d153af,68817205a84113384fffdfe3,6882446cc1f337b664ad8bbe,,,,,,,,,,,,,1,,,,,,,,,,,,,,,,,,,,,,,,,,,,,,,,,,,,,48,ladrón,,,,,374.3861,376.2675,1,1,1.3665,,0,23,23,47,1,REAL,FAKE,,,,,,,,,,,,,,,,,
,,,,,,,,,66e2de50b2eb63d466d153af,Mexican,13 or older,"no, only English or Spanish",no,2025-07-24_10h35.04.222,empathy_intonation_perc_control,2024.2.4,Win32,142.8571429,66e2de50b2eb63d466d153af,68817205a84113384fffdfe3,6882446cc1f337b664ad8bbe,,,,,,,,,,,,,0,,,,,,,,,,,,,,,,,,,,,,,,,,,,,,,,,,,,,29,decar,,,,,376.2683,377.5035,1,0,0.7239,,0,24,24,28,1,REAL,FAKE,,,,,,,,,,,,,,,,,
,,,,,,,,,66e2de50b2eb63d466d153af,Mexican,13 or older,"no, only English or Spanish",no,2025-07-24_10h35.04.222,empathy_intonation_perc_control,2024.2.4,Win32,142.8571429,66e2de50b2eb63d466d153af,68817205a84113384fffdfe3,6882446cc1f337b664ad8bbe,,,,,,,,,,,,,1,,,,,,,,,,,,,,,,,,,,,,,,,,,,,,,,,,,,,26,secuestro,,,,,377.5039,380.3925,1,1,2.3773,,0,25,25,25,1,REAL,FAKE,,,,,,,,,,,,,,,,,
,,,,,,,,,66e2de50b2eb63d466d153af,Mexican,13 or older,"no, only English or Spanish",no,2025-07-24_10h35.04.222,empathy_intonation_perc_control,2024.2.4,Win32,142.8571429,66e2de50b2eb63d466d153af,68817205a84113384fffdfe3,6882446cc1f337b664ad8bbe,,,,,,,,,,,,,1,,,,,,,,,,,,,,,,,,,,,,,,,,,,,,,,,,,,,73,hervidor,,,,,380.393,382.5246,0,0,1.6173,,0,26,26,72,1,REAL,FAKE,,,,,,,,,,,,,,,,,
,,,,,,,,,66e2de50b2eb63d466d153af,Mexican,13 or older,"no, only English or Spanish",no,2025-07-24_10h35.04.222,empathy_intonation_perc_control,2024.2.4,Win32,142.8571429,66e2de50b2eb63d466d153af,68817205a84113384fffdfe3,6882446cc1f337b664ad8bbe,,,,,,,,,,,,,0,,,,,,,,,,,,,,,,,,,,,,,,,,,,,,,,,,,,,10,antar,,,,,382.5253,384.08,1,0,1.0446,,0,27,27,9,1,REAL,FAKE,,,,,,,,,,,,,,,,,
,,,,,,,,,66e2de50b2eb63d466d153af,Mexican,13 or older,"no, only English or Spanish",no,2025-07-24_10h35.04.222,empathy_intonation_perc_control,2024.2.4,Win32,142.8571429,66e2de50b2eb63d466d153af,68817205a84113384fffdfe3,6882446cc1f337b664ad8bbe,,,,,,,,,,,,,1,,,,,,,,,,,,,,,,,,,,,,,,,,,,,,,,,,,,,41,rebuscar,,,,,384.0806,387.1081,1,1,2.5156,,0,28,28,40,1,REAL,FAKE,,,,,,,,,,,,,,,,,
,,,,,,,,,66e2de50b2eb63d466d153af,Mexican,13 or older,"no, only English or Spanish",no,2025-07-24_10h35.04.222,empathy_intonation_perc_control,2024.2.4,Win32,142.8571429,66e2de50b2eb63d466d153af,68817205a84113384fffdfe3,6882446cc1f337b664ad8bbe,,,,,,,,,,,,,1,,,,,,,,,,,,,,,,,,,,,,,,,,,,,,,,,,,,,89,prisa,,,,,387.1088,388.3509,1,1,0.7318,,0,29,29,88,1,REAL,FAKE,,,,,,,,,,,,,,,,,
,,,,,,,,,66e2de50b2eb63d466d153af,Mexican,13 or older,"no, only English or Spanish",no,2025-07-24_10h35.04.222,empathy_intonation_perc_control,2024.2.4,Win32,142.8571429,66e2de50b2eb63d466d153af,68817205a84113384fffdfe3,6882446cc1f337b664ad8bbe,,,,,,,,,,,,,1,,,,,,,,,,,,,,,,,,,,,,,,,,,,,,,,,,,,,5,zapato,,,,,388.3514,390.0385,0,0,1.1831,,0,30,30,4,1,REAL,FAKE,,,,,,,,,,,,,,,,,
,,,,,,,,,66e2de50b2eb63d466d153af,Mexican,13 or older,"no, only English or Spanish",no,2025-07-24_10h35.04.222,empathy_intonation_perc_control,2024.2.4,Win32,142.8571429,66e2de50b2eb63d466d153af,68817205a84113384fffdfe3,6882446cc1f337b664ad8bbe,,,,,,,,,,,,,1,,,,,,,,,,,,,,,,,,,,,,,,,,,,,,,,,,,,,54,fomentar,,,,,390.0394,392.0316,1,1,1.481,,0,31,31,53,1,REAL,FAKE,,,,,,,,,,,,,,,,,
,,,,,,,,,66e2de50b2eb63d466d153af,Mexican,13 or older,"no, only English or Spanish",no,2025-07-24_10h35.04.222,empathy_intonation_perc_control,2024.2.4,Win32,142.8571429,66e2de50b2eb63d466d153af,68817205a84113384fffdfe3,6882446cc1f337b664ad8bbe,,,,,,,,,,,,,0,,,,,,,,,,,,,,,,,,,,,,,,,,,,,,,,,,,,,82,empirador,,,,,392.0323,397.004,1,0,4.4614,,0,32,32,81,1,REAL,FAKE,,,,,,,,,,,,,,,,,
,,,,,,,,,66e2de50b2eb63d466d153af,Mexican,13 or older,"no, only English or Spanish",no,2025-07-24_10h35.04.222,empathy_intonation_perc_control,2024.2.4,Win32,142.8571429,66e2de50b2eb63d466d153af,68817205a84113384fffdfe3,6882446cc1f337b664ad8bbe,,,,,,,,,,,,,0,,,,,,,,,,,,,,,,,,,,,,,,,,,,,,,,,,,,,33,pauca,,,,,397.0045,399.8513,0,1,2.3321,,0,33,33,32,1,REAL,FAKE,,,,,,,,,,,,,,,,,
,,,,,,,,,66e2de50b2eb63d466d153af,Mexican,13 or older,"no, only English or Spanish",no,2025-07-24_10h35.04.222,empathy_intonation_perc_control,2024.2.4,Win32,142.8571429,66e2de50b2eb63d466d153af,68817205a84113384fffdfe3,6882446cc1f337b664ad8bbe,,,,,,,,,,,,,0,,,,,,,,,,,,,,,,,,,,,,,,,,,,,,,,,,,,,30,alardio,,,,,399.8522,406.9209,0,1,6.5579,,0,34,34,29,1,REAL,FAKE,,,,,,,,,,,,,,,,,
,,,,,,,,,66e2de50b2eb63d466d153af,Mexican,13 or older,"no, only English or Spanish",no,2025-07-24_10h35.04.222,empathy_intonation_perc_control,2024.2.4,Win32,142.8571429,66e2de50b2eb63d466d153af,68817205a84113384fffdfe3,6882446cc1f337b664ad8bbe,,,,,,,,,,,,,1,,,,,,,,,,,,,,,,,,,,,,,,,,,,,,,,,,,,,57,tacaño,,,,,406.9218,408.678,0,0,1.2418,,0,35,35,56,1,REAL,FAKE,,,,,,,,,,,,,,,,,
,,,,,,,,,66e2de50b2eb63d466d153af,Mexican,13 or older,"no, only English or Spanish",no,2025-07-24_10h35.04.222,empathy_intonation_perc_control,2024.2.4,Win32,142.8571429,66e2de50b2eb63d466d153af,68817205a84113384fffdfe3,6882446cc1f337b664ad8bbe,,,,,,,,,,,,,0,,,,,,,,,,,,,,,,,,,,,,,,,,,,,,,,,,,,,66,hacido,,,,,408.6787,410.4974,1,0,1.3079,,0,36,36,65,1,REAL,FAKE,,,,,,,,,,,,,,,,,
,,,,,,,,,66e2de50b2eb63d466d153af,Mexican,13 or older,"no, only English or Spanish",no,2025-07-24_10h35.04.222,empathy_intonation_perc_control,2024.2.4,Win32,142.8571429,66e2de50b2eb63d466d153af,68817205a84113384fffdfe3,6882446cc1f337b664ad8bbe,,,,,,,,,,,,,1,,,,,,,,,,,,,,,,,,,,,,,,,,,,,,,,,,,,,9,hacha,,,,,410.4981,412.5532,0,0,1.5454,,0,37,37,8,1,REAL,FAKE,,,,,,,,,,,,,,,,,
,,,,,,,,,66e2de50b2eb63d466d153af,Mexican,13 or older,"no, only English or Spanish",no,2025-07-24_10h35.04.222,empathy_intonation_perc_control,2024.2.4,Win32,142.8571429,66e2de50b2eb63d466d153af,68817205a84113384fffdfe3,6882446cc1f337b664ad8bbe,,,,,,,,,,,,,1,,,,,,,,,,,,,,,,,,,,,,,,,,,,,,,,,,,,,11,cenefa,,,,,412.5538,414.0878,0,0,1.023,,0,38,38,10,1,REAL,FAKE,,,,,,,,,,,,,,,,,
,,,,,,,,,66e2de50b2eb63d466d153af,Mexican,13 or older,"no, only English or Spanish",no,2025-07-24_10h35.04.222,empathy_intonation_perc_control,2024.2.4,Win32,142.8571429,66e2de50b2eb63d466d153af,68817205a84113384fffdfe3,6882446cc1f337b664ad8bbe,,,,,,,,,,,,,0,,,,,,,,,,,,,,,,,,,,,,,,,,,,,,,,,,,,,21,capillo,,,,,414.0885,415.8309,1,0,1.2302,,0,39,39,20,1,REAL,FAKE,,,,,,,,,,,,,,,,,
,,,,,,,,,66e2de50b2eb63d466d153af,Mexican,13 or older,"no, only English or Spanish",no,2025-07-24_10h35.04.222,empathy_intonation_perc_control,2024.2.4,Win32,142.8571429,66e2de50b2eb63d466d153af,68817205a84113384fffdfe3,6882446cc1f337b664ad8bbe,,,,,,,,,,,,,1,,,,,,,,,,,,,,,,,,,,,,,,,,,,,,,,,,,,,46,martillo,,,,,415.8315,417.9629,0,0,1.6172,,0,40,40,45,1,REAL,FAKE,,,,,,,,,,,,,,,,,
,,,,,,,,,66e2de50b2eb63d466d153af,Mexican,13 or older,"no, only English or Spanish",no,2025-07-24_10h35.04.222,empathy_intonation_perc_control,2024.2.4,Win32,142.8571429,66e2de50b2eb63d466d153af,68817205a84113384fffdfe3,6882446cc1f337b664ad8bbe,,,,,,,,,,,,,1,,,,,,,,,,,,,,,,,,,,,,,,,,,,,,,,,,,,,68,alegre,,,,,417.9635,419.7547,1,1,1.2809,,0,41,41,67,1,REAL,FAKE,,,,,,,,,,,,,,,,,
,,,,,,,,,66e2de50b2eb63d466d153af,Mexican,13 or older,"no, only English or Spanish",no,2025-07-24_10h35.04.222,empathy_intonation_perc_control,2024.2.4,Win32,142.8571429,66e2de50b2eb63d466d153af,68817205a84113384fffdfe3,6882446cc1f337b664ad8bbe,,,,,,,,,,,,,1,,,,,,,,,,,,,,,,,,,,,,,,,,,,,,,,,,,,,37,granuja,,,,,419.7552,421.4144,0,0,1.146,,0,42,42,36,1,REAL,FAKE,,,,,,,,,,,,,,,,,
,,,,,,,,,66e2de50b2eb63d466d153af,Mexican,13 or older,"no, only English or Spanish",no,2025-07-24_10h35.04.222,empathy_intonation_perc_control,2024.2.4,Win32,142.8571429,66e2de50b2eb63d466d153af,68817205a84113384fffdfe3,6882446cc1f337b664ad8bbe,,,,,,,,,,,,,1,,,,,,,,,,,,,,,,,,,,,,,,,,,,,,,,,,,,,34,aviso,,,,,421.4149,424.1369,1,1,2.2125,,0,43,43,33,1,REAL,FAKE,,,,,,,,,,,,,,,,,
,,,,,,,,,66e2de50b2eb63d466d153af,Mexican,13 or older,"no, only English or Spanish",no,2025-07-24_10h35.04.222,empathy_intonation_perc_control,2024.2.4,Win32,142.8571429,66e2de50b2eb63d466d153af,68817205a84113384fffdfe3,6882446cc1f337b664ad8bbe,,,,,,,,,,,,,0,,,,,,,,,,,,,,,,,,,,,,,,,,,,,,,,,,,,,84,escuto,,,,,424.1375,426.0465,0,1,1.3976,,0,44,44,83,1,REAL,FAKE,,,,,,,,,,,,,,,,,
,,,,,,,,,66e2de50b2eb63d466d153af,Mexican,13 or older,"no, only English or Spanish",no,2025-07-24_10h35.04.222,empathy_intonation_perc_control,2024.2.4,Win32,142.8571429,66e2de50b2eb63d466d153af,68817205a84113384fffdfe3,6882446cc1f337b664ad8bbe,,,,,,,,,,,,,0,,,,,,,,,,,,,,,,,,,,,,,,,,,,,,,,,,,,,74,cintro,,,,,426.0471,428.4701,1,0,1.9123,,0,45,45,73,1,REAL,FAKE,,,,,,,,,,,,,,,,,
,,,,,,,,,66e2de50b2eb63d466d153af,Mexican,13 or older,"no, only English or Spanish",no,2025-07-24_10h35.04.222,empathy_intonation_perc_control,2024.2.4,Win32,142.8571429,66e2de50b2eb63d466d153af,68817205a84113384fffdfe3,6882446cc1f337b664ad8bbe,,,,,,,,,,,,,0,,,,,,,,,,,,,,,,,,,,,,,,,,,,,,,,,,,,,87,grodo,,,,,428.4708,429.9703,0,1,0.9869,,0,46,46,86,1,REAL,FAKE,,,,,,,,,,,,,,,,,
,,,,,,,,,66e2de50b2eb63d466d153af,Mexican,13 or older,"no, only English or Spanish",no,2025-07-24_10h35.04.222,empathy_intonation_perc_control,2024.2.4,Win32,142.8571429,66e2de50b2eb63d466d153af,68817205a84113384fffdfe3,6882446cc1f337b664ad8bbe,,,,,,,,,,,,,1,,,,,,,,,,,,,,,,,,,,,,,,,,,,,,,,,,,,,14,yunque,,,,,429.9712,431.491,0,0,1.01,,0,47,47,13,1,REAL,FAKE,,,,,,,,,,,,,,,,,
,,,,,,,,,66e2de50b2eb63d466d153af,Mexican,13 or older,"no, only English or Spanish",no,2025-07-24_10h35.04.222,empathy_intonation_perc_control,2024.2.4,Win32,142.8571429,66e2de50b2eb63d466d153af,68817205a84113384fffdfe3,6882446cc1f337b664ad8bbe,,,,,,,,,,,,,1,,,,,,,,,,,,,,,,,,,,,,,,,,,,,,,,,,,,,7,pésimo,,,,,431.4915,433.5119,1,1,1.5171,,0,48,48,6,1,REAL,FAKE,,,,,,,,,,,,,,,,,
,,,,,,,,,66e2de50b2eb63d466d153af,Mexican,13 or older,"no, only English or Spanish",no,2025-07-24_10h35.04.222,empathy_intonation_perc_control,2024.2.4,Win32,142.8571429,66e2de50b2eb63d466d153af,68817205a84113384fffdfe3,6882446cc1f337b664ad8bbe,,,,,,,,,,,,,0,,,,,,,,,,,,,,,,,,,,,,,,,,,,,,,,,,,,,92,click the 0 key.,,,,,433.5125,434.8662,0,1,0.8389,,0,49,49,91,1,REAL,FAKE,,,,,,,,,,,,,,,,,
,,,,,,,,,66e2de50b2eb63d466d153af,Mexican,13 or older,"no, only English or Spanish",no,2025-07-24_10h35.04.222,empathy_intonation_perc_control,2024.2.4,Win32,142.8571429,66e2de50b2eb63d466d153af,68817205a84113384fffdfe3,6882446cc1f337b664ad8bbe,,,,,,,,,,,,,0,,,,,,,,,,,,,,,,,,,,,,,,,,,,,,,,,,,,,72,pemición,,,,,434.8672,436.7066,1,0,1.3249,,0,50,50,71,1,REAL,FAKE,,,,,,,,,,,,,,,,,
,,,,,,,,,66e2de50b2eb63d466d153af,Mexican,13 or older,"no, only English or Spanish",no,2025-07-24_10h35.04.222,empathy_intonation_perc_control,2024.2.4,Win32,142.8571429,66e2de50b2eb63d466d153af,68817205a84113384fffdfe3,6882446cc1f337b664ad8bbe,,,,,,,,,,,,,0,,,,,,,,,,,,,,,,,,,,,,,,,,,,,,,,,,,,,53,vegada,,,,,436.7074,439.2691,1,0,2.0492,,0,51,51,52,1,REAL,FAKE,,,,,,,,,,,,,,,,,
,,,,,,,,,66e2de50b2eb63d466d153af,Mexican,13 or older,"no, only English or Spanish",no,2025-07-24_10h35.04.222,empathy_intonation_perc_control,2024.2.4,Win32,142.8571429,66e2de50b2eb63d466d153af,68817205a84113384fffdfe3,6882446cc1f337b664ad8bbe,,,,,,,,,,,,,1,,,,,,,,,,,,,,,,,,,,,,,,,,,,,,,,,,,,,51,candado,,,,,439.2697,441.1857,0,0,1.4061,,0,52,52,50,1,REAL,FAKE,,,,,,,,,,,,,,,,,
,,,,,,,,,66e2de50b2eb63d466d153af,Mexican,13 or older,"no, only English or Spanish",no,2025-07-24_10h35.04.222,empathy_intonation_perc_control,2024.2.4,Win32,142.8571429,66e2de50b2eb63d466d153af,68817205a84113384fffdfe3,6882446cc1f337b664ad8bbe,,,,,,,,,,,,,0,,,,,,,,,,,,,,,,,,,,,,,,,,,,,,,,,,,,,17,floroso,,,,,441.1862,442.8595,0,1,1.1601,,0,53,53,16,1,REAL,FAKE,,,,,,,,,,,,,,,,,
,,,,,,,,,66e2de50b2eb63d466d153af,Mexican,13 or older,"no, only English or Spanish",no,2025-07-24_10h35.04.222,empathy_intonation_perc_control,2024.2.4,Win32,142.8571429,66e2de50b2eb63d466d153af,68817205a84113384fffdfe3,6882446cc1f337b664ad8bbe,,,,,,,,,,,,,0,,,,,,,,,,,,,,,,,,,,,,,,,,,,,,,,,,,,,70,temblo,,,,,442.8601,444.3178,0,1,0.9432,,0,54,54,69,1,REAL,FAKE,,,,,,,,,,,,,,,,,
,,,,,,,,,66e2de50b2eb63d466d153af,Mexican,13 or older,"no, only English or Spanish",no,2025-07-24_10h35.04.222,empathy_intonation_perc_control,2024.2.4,Win32,142.8571429,66e2de50b2eb63d466d153af,68817205a84113384fffdfe3,6882446cc1f337b664ad8bbe,,,,,,,,,,,,,1,,,,,,,,,,,,,,,,,,,,,,,,,,,,,,,,,,,,,22,lacayo,,,,,444.3185,446.5193,1,1,1.686,,0,55,55,21,1,REAL,FAKE,,,,,,,,,,,,,,,,,
,,,,,,,,,66e2de50b2eb63d466d153af,Mexican,13 or older,"no, only English or Spanish",no,2025-07-24_10h35.04.222,empathy_intonation_perc_control,2024.2.4,Win32,142.8571429,66e2de50b2eb63d466d153af,68817205a84113384fffdfe3,6882446cc1f337b664ad8bbe,,,,,,,,,,,,,1,,,,,,,,,,,,,,,,,,,,,,,,,,,,,,,,,,,,,44,cuchara,,,,,446.5201,448.1929,1,1,1.1585,,0,56,56,43,1,REAL,FAKE,,,,,,,,,,,,,,,,,
,,,,,,,,,66e2de50b2eb63d466d153af,Mexican,13 or older,"no, only English or Spanish",no,2025-07-24_10h35.04.222,empathy_intonation_perc_control,2024.2.4,Win32,142.8571429,66e2de50b2eb63d466d153af,68817205a84113384fffdfe3,6882446cc1f337b664ad8bbe,,,,,,,,,,,,,1,,,,,,,,,,,,,,,,,,,,,,,,,,,,,,,,,,,,,25,bisagra,,,,,448.1935,450.1513,0,0,1.4431,,0,57,57,24,1,REAL,FAKE,,,,,,,,,,,,,,,,,
,,,,,,,,,66e2de50b2eb63d466d153af,Mexican,13 or older,"no, only English or Spanish",no,2025-07-24_10h35.04.222,empathy_intonation_perc_control,2024.2.4,Win32,142.8571429,66e2de50b2eb63d466d153af,68817205a84113384fffdfe3,6882446cc1f337b664ad8bbe,,,,,,,,,,,,,0,,,,,,,,,,,,,,,,,,,,,,,,,,,,,,,,,,,,,47,cartinar,,,,,450.1521,452.6861,0,1,2.0209,,0,58,58,46,1,REAL,FAKE,,,,,,,,,,,,,,,,,
,,,,,,,,,66e2de50b2eb63d466d153af,Mexican,13 or older,"no, only English or Spanish",no,2025-07-24_10h35.04.222,empathy_intonation_perc_control,2024.2.4,Win32,142.8571429,66e2de50b2eb63d466d153af,68817205a84113384fffdfe3,6882446cc1f337b664ad8bbe,,,,,,,,,,,,,1,,,,,,,,,,,,,,,,,,,,,,,,,,,,,,,,,,,,,69,engatusar,,,,,452.6869,456.3807,1,1,3.1814,,0,59,59,68,1,REAL,FAKE,,,,,,,,,,,,,,,,,
,,,,,,,,,66e2de50b2eb63d466d153af,Mexican,13 or older,"no, only English or Spanish",no,2025-07-24_10h35.04.222,empathy_intonation_perc_control,2024.2.4,Win32,142.8571429,66e2de50b2eb63d466d153af,68817205a84113384fffdfe3,6882446cc1f337b664ad8bbe,,,,,,,,,,,,,1,,,,,,,,,,,,,,,,,,,,,,,,,,,,,,,,,,,,,77,tiburón,,,,,456.3813,458.3737,1,1,1.4814,,0,60,60,76,1,REAL,FAKE,,,,,,,,,,,,,,,,,
,,,,,,,,,66e2de50b2eb63d466d153af,Mexican,13 or older,"no, only English or Spanish",no,2025-07-24_10h35.04.222,empathy_intonation_perc_control,2024.2.4,Win32,142.8571429,66e2de50b2eb63d466d153af,68817205a84113384fffdfe3,6882446cc1f337b664ad8bbe,,,,,,,,,,,,,1,,,,,,,,,,,,,,,,,,,,,,,,,,,,,,,,,,,,,86,barato,,,,,458.3743,459.6654,1,1,0.7797,,0,61,61,85,1,REAL,FAKE,,,,,,,,,,,,,,,,,
,,,,,,,,,66e2de50b2eb63d466d153af,Mexican,13 or older,"no, only English or Spanish",no,2025-07-24_10h35.04.222,empathy_intonation_perc_control,2024.2.4,Win32,142.8571429,66e2de50b2eb63d466d153af,68817205a84113384fffdfe3,6882446cc1f337b664ad8bbe,,,,,,,,,,,,,1,,,,,,,,,,,,,,,,,,,,,,,,,,,,,,,,,,,,,28,merodear,,,,,459.6662,462.3459,0,0,2.166,,0,62,62,27,1,REAL,FAKE,,,,,,,,,,,,,,,,,
,,,,,,,,,66e2de50b2eb63d466d153af,Mexican,13 or older,"no, only English or Spanish",no,2025-07-24_10h35.04.222,empathy_intonation_perc_control,2024.2.4,Win32,142.8571429,66e2de50b2eb63d466d153af,68817205a84113384fffdfe3,6882446cc1f337b664ad8bbe,,,,,,,,,,,,,0,,,,,,,,,,,,,,,,,,,,,,,,,,,,,,,,,,,,,8,cadeña,,,,,462.3465,464.492,1,0,1.632,,0,63,63,7,1,REAL,FAKE,,,,,,,,,,,,,,,,,
,,,,,,,,,66e2de50b2eb63d466d153af,Mexican,13 or older,"no, only English or Spanish",no,2025-07-24_10h35.04.222,empathy_intonation_perc_control,2024.2.4,Win32,142.8571429,66e2de50b2eb63d466d153af,68817205a84113384fffdfe3,6882446cc1f337b664ad8bbe,,,,,,,,,,,,,1,,,,,,,,,,,,,,,,,,,,,,,,,,,,,,,,,,,,,85,laúd,,,,,464.4929,466.0892,1,1,1.0818,,0,64,64,84,1,REAL,FAKE,,,,,,,,,,,,,,,,,
,,,,,,,,,66e2de50b2eb63d466d153af,Mexican,13 or older,"no, only English or Spanish",no,2025-07-24_10h35.04.222,empathy_intonation_perc_control,2024.2.4,Win32,142.8571429,66e2de50b2eb63d466d153af,68817205a84113384fffdfe3,6882446cc1f337b664ad8bbe,,,,,,,,,,,,,0,,,,,,,,,,,,,,,,,,,,,,,,,,,,,,,,,,,,,32,fatacidad,,,,,466.09,471.5477,0,1,4.9456,,0,65,65,31,1,REAL,FAKE,,,,,,,,,,,,,,,,,
,,,,,,,,,66e2de50b2eb63d466d153af,Mexican,13 or older,"no, only English or Spanish",no,2025-07-24_10h35.04.222,empathy_intonation_perc_control,2024.2.4,Win32,142.8571429,66e2de50b2eb63d466d153af,68817205a84113384fffdfe3,6882446cc1f337b664ad8bbe,,,,,,,,,,,,,1,,,,,,,,,,,,,,,,,,,,,,,,,,,,,,,,,,,,,78,frondoso,,,,,471.5483,473.6935,0,0,1.6341,,0,66,66,77,1,REAL,FAKE,,,,,,,,,,,,,,,,,
,,,,,,,,,66e2de50b2eb63d466d153af,Mexican,13 or older,"no, only English or Spanish",no,2025-07-24_10h35.04.222,empathy_intonation_perc_control,2024.2.4,Win32,142.8571429,66e2de50b2eb63d466d153af,68817205a84113384fffdfe3,6882446cc1f337b664ad8bbe,,,,,,,,,,,,,1,,,,,,,,,,,,,,,,,,,,,,,,,,,,,,,,,,,,,62,flaco,,,,,473.6941,475.0755,1,1,0.8694,,0,67,67,61,1,REAL,FAKE,,,,,,,,,,,,,,,,,
,,,,,,,,,66e2de50b2eb63d466d153af,Mexican,13 or older,"no, only English or Spanish",no,2025-07-24_10h35.04.222,empathy_intonation_perc_control,2024.2.4,Win32,142.8571429,66e2de50b2eb63d466d153af,68817205a84113384fffdfe3,6882446cc1f337b664ad8bbe,,,,,,,,,,,,,0,,,,,,,,,,,,,,,,,,,,,,,,,,,,,,,,,,,,,58,plaudir,,,,,475.0761,476.7007,0,1,1.1106,,0,68,68,57,1,REAL,FAKE,,,,,,,,,,,,,,,,,
,,,,,,,,,66e2de50b2eb63d466d153af,Mexican,13 or older,"no, only English or Spanish",no,2025-07-24_10h35.04.222,empathy_intonation_perc_control,2024.2.4,Win32,142.8571429,66e2de50b2eb63d466d153af,68817205a84113384fffdfe3,6882446cc1f337b664ad8bbe,,,,,,,,,,,,,1,,,,,,,,,,,,,,,,,,,,,,,,,,,,,,,,,,,,,6,tergiversar,,,,,476.7015,478.4231,0,0,1.2123,,0,69,69,5,1,REAL,FAKE,,,,,,,,,,,,,,,,,
,,,,,,,,,66e2de50b2eb63d466d153af,Mexican,13 or older,"no, only English or Spanish",no,2025-07-24_10h35.04.222,empathy_intonation_perc_control,2024.2.4,Win32,142.8571429,66e2de50b2eb63d466d153af,68817205a84113384fffdfe3,6882446cc1f337b664ad8bbe,,,,,,,,,,,,,1,,,,,,,,,,,,,,,,,,,,,,,,,,,,,,,,,,,,,12,asesinato,,,,,478.4236,485.7217,1,1,6.7874,,0,70,70,11,1,REAL,FAKE,,,,,,,,,,,,,,,,,
,,,,,,,,,66e2de50b2eb63d466d153af,Mexican,13 or older,"no, only English or Spanish",no,2025-07-24_10h35.04.222,empathy_intonation_perc_control,2024.2.4,Win32,142.8571429,66e2de50b2eb63d466d153af,68817205a84113384fffdfe3,6882446cc1f337b664ad8bbe,,,,,,,,,,,,,0,,,,,,,,,,,,,,,,,,,,,,,,,,,,,,,,,,,,,23,lampera,,,,,485.7223,487.597,1,0,1.3656,,0,71,71,22,1,REAL,FAKE,,,,,,,,,,,,,,,,,
,,,,,,,,,66e2de50b2eb63d466d153af,Mexican,13 or older,"no, only English or Spanish",no,2025-07-24_10h35.04.222,empathy_intonation_perc_control,2024.2.4,Win32,142.8571429,66e2de50b2eb63d466d153af,68817205a84113384fffdfe3,6882446cc1f337b664ad8bbe,,,,,,,,,,,,,1,,,,,,,,,,,,,,,,,,,,,,,,,,,,,,,,,,,,,3,pulmones,,,,,487.5975,489.2149,0,0,1.1055,,0,72,72,2,1,REAL,FAKE,,,,,,,,,,,,,,,,,
,,,,,,,,,66e2de50b2eb63d466d153af,Mexican,13 or older,"no, only English or Spanish",no,2025-07-24_10h35.04.222,empathy_intonation_perc_control,2024.2.4,Win32,142.8571429,66e2de50b2eb63d466d153af,68817205a84113384fffdfe3,6882446cc1f337b664ad8bbe,,,,,,,,,,,,,0,,,,,,,,,,,,,,,,,,,,,,,,,,,,,,,,,,,,,50,flamida,,,,,489.2155,491.4302,0,1,1.7033,,0,73,73,49,1,REAL,FAKE,,,,,,,,,,,,,,,,,
,,,,,,,,,66e2de50b2eb63d466d153af,Mexican,13 or older,"no, only English or Spanish",no,2025-07-24_10h35.04.222,empathy_intonation_perc_control,2024.2.4,Win32,142.8571429,66e2de50b2eb63d466d153af,68817205a84113384fffdfe3,6882446cc1f337b664ad8bbe,,,,,,,,,,,,,1,,,,,,,,,,,,,,,,,,,,,,,,,,,,,,,,,,,,,80,hormiga,,,,,491.431,493.9511,1,1,2.0071,,0,74,74,79,1,REAL,FAKE,,,,,,,,,,,,,,,,,
,,,,,,,,,66e2de50b2eb63d466d153af,Mexican,13 or older,"no, only English or Spanish",no,2025-07-24_10h35.04.222,empathy_intonation_perc_control,2024.2.4,Win32,142.8571429,66e2de50b2eb63d466d153af,68817205a84113384fffdfe3,6882446cc1f337b664ad8bbe,,,,,,,,,,,,,1,,,,,,,,,,,,,,,,,,,,,,,,,,,,,,,,,,,,,60,matar,,,,,493.9519,495.4094,1,1,0.9456,,0,75,75,59,1,REAL,FAKE,,,,,,,,,,,,,,,,,
,,,,,,,,,66e2de50b2eb63d466d153af,Mexican,13 or older,"no, only English or Spanish",no,2025-07-24_10h35.04.222,empathy_intonation_perc_control,2024.2.4,Win32,142.8571429,66e2de50b2eb63d466d153af,68817205a84113384fffdfe3,6882446cc1f337b664ad8bbe,,,,,,,,,,,,,0,,,,,,,,,,,,,,,,,,,,,,,,,,,,,,,,,,,,,27,acutación,,,,,495.4102,497.986,1,0,2.0615,,0,76,76,26,1,REAL,FAKE,,,,,,,,,,,,,,,,,
,,,,,,,,,66e2de50b2eb63d466d153af,Mexican,13 or older,"no, only English or Spanish",no,2025-07-24_10h35.04.222,empathy_intonation_perc_control,2024.2.4,Win32,142.8571429,66e2de50b2eb63d466d153af,68817205a84113384fffdfe3,6882446cc1f337b664ad8bbe,,,,,,,,,,,,,1,,,,,,,,,,,,,,,,,,,,,,,,,,,,,,,,,,,,,31,pandilla,,,,,497.9867,500.1109,1,1,1.6146,,0,77,77,30,1,REAL,FAKE,,,,,,,,,,,,,,,,,
,,,,,,,,,66e2de50b2eb63d466d153af,Mexican,13 or older,"no, only English or Spanish",no,2025-07-24_10h35.04.222,empathy_intonation_perc_control,2024.2.4,Win32,142.8571429,66e2de50b2eb63d466d153af,68817205a84113384fffdfe3,6882446cc1f337b664ad8bbe,,,,,,,,,,,,,1,,,,,,,,,,,,,,,,,,,,,,,,,,,,,,,,,,,,,55,nevar,,,,,500.1116,501.7846,0,0,1.1635,,0,78,78,54,1,REAL,FAKE,,,,,,,,,,,,,,,,,
,,,,,,,,,66e2de50b2eb63d466d153af,Mexican,13 or older,"no, only English or Spanish",no,2025-07-24_10h35.04.222,empathy_intonation_perc_control,2024.2.4,Win32,142.8571429,66e2de50b2eb63d466d153af,68817205a84113384fffdfe3,6882446cc1f337b664ad8bbe,,,,,,,,,,,,,1,,,,,,,,,,,,,,,,,,,,,,,,,,,,,,,,,,,,,43,canela,,,,,501.7852,503.3055,0,0,1.0061,,0,79,79,42,1,REAL,FAKE,,,,,,,,,,,,,,,,,
,,,,,,,,,66e2de50b2eb63d466d153af,Mexican,13 or older,"no, only English or Spanish",no,2025-07-24_10h35.04.222,empathy_intonation_perc_control,2024.2.4,Win32,142.8571429,66e2de50b2eb63d466d153af,68817205a84113384fffdfe3,6882446cc1f337b664ad8bbe,,,,,,,,,,,,,1,,,,,,,,,,,,,,,,,,,,,,,,,,,,,,,,,,,,,75,yacer,,,,,503.3062,505.7362,0,0,1.9161,,0,80,80,74,1,REAL,FAKE,,,,,,,,,,,,,,,,,
,,,,,,,,,66e2de50b2eb63d466d153af,Mexican,13 or older,"no, only English or Spanish",no,2025-07-24_10h35.04.222,empathy_intonation_perc_control,2024.2.4,Win32,142.8571429,66e2de50b2eb63d466d153af,68817205a84113384fffdfe3,6882446cc1f337b664ad8bbe,,,,,,,,,,,,,1,,,,,,,,,,,,,,,,,,,,,,,,,,,,,,,,,,,,,36,loro,,,,,505.737,507.1319,0,0,0.8826,,0,81,81,35,1,REAL,FAKE,,,,,,,,,,,,,,,,,
,,,,,,,,,66e2de50b2eb63d466d153af,Mexican,13 or older,"no, only English or Spanish",no,2025-07-24_10h35.04.222,empathy_intonation_perc_control,2024.2.4,Win32,142.8571429,66e2de50b2eb63d466d153af,68817205a84113384fffdfe3,6882446cc1f337b664ad8bbe,,,,,,,,,,,,,1,,,,,,,,,,,,,,,,,,,,,,,,,,,,,,,,,,,,,13,helar,,,,,507.1326,509.5071,0,0,1.8635,,0,82,82,12,1,REAL,FAKE,,,,,,,,,,,,,,,,,
,,,,,,,,,66e2de50b2eb63d466d153af,Mexican,13 or older,"no, only English or Spanish",no,2025-07-24_10h35.04.222,empathy_intonation_perc_control,2024.2.4,Win32,142.8571429,66e2de50b2eb63d466d153af,68817205a84113384fffdfe3,6882446cc1f337b664ad8bbe,,,,,,,,,,,,,1,,,,,,,,,,,,,,,,,,,,,,,,,,,,,,,,,,,,,76,atar,,,,,509.5078,510.8403,1,1,0.8215,,0,83,83,75,1,REAL,FAKE,,,,,,,,,,,,,,,,,
,,,,,,,,,66e2de50b2eb63d466d153af,Mexican,13 or older,"no, only English or Spanish",no,2025-07-24_10h35.04.222,empathy_intonation_perc_control,2024.2.4,Win32,142.8571429,66e2de50b2eb63d466d153af,68817205a84113384fffdfe3,6882446cc1f337b664ad8bbe,,,,,,,,,,,,,1,,,,,,,,,,,,,,,,,,,,,,,,,,,,,,,,,,,,,40,alfombra,,,,,510.8409,512.5973,0,0,1.243,,0,84,84,39,1,REAL,FAKE,,,,,,,,,,,,,,,,,
,,,,,,,,,66e2de50b2eb63d466d153af,Mexican,13 or older,"no, only English or Spanish",no,2025-07-24_10h35.04.222,empathy_intonation_perc_control,2024.2.4,Win32,142.8571429,66e2de50b2eb63d466d153af,68817205a84113384fffdfe3,6882446cc1f337b664ad8bbe,,,,,,,,,,,,,0,,,,,,,,,,,,,,,,,,,,,,,,,,,,,,,,,,,,,79,tropaje,,,,,512.5979,514.5559,0,1,1.4441,,0,85,85,78,1,REAL,FAKE,,,,,,,,,,,,,,,,,
,,,,,,,,,66e2de50b2eb63d466d153af,Mexican,13 or older,"no, only English or Spanish",no,2025-07-24_10h35.04.222,empathy_intonation_perc_control,2024.2.4,Win32,142.8571429,66e2de50b2eb63d466d153af,68817205a84113384fffdfe3,6882446cc1f337b664ad8bbe,,,,,,,,,,,,,1,,,,,,,,,,,,,,,,,,,,,,,,,,,,,,,,,,,,,56,musgo,,,,,514.5566,516.5558,0,0,1.4836,,0,86,86,55,1,REAL,FAKE,,,,,,,,,,,,,,,,,
,,,,,,,,,66e2de50b2eb63d466d153af,Mexican,13 or older,"no, only English or Spanish",no,2025-07-24_10h35.04.222,empathy_intonation_perc_control,2024.2.4,Win32,142.8571429,66e2de50b2eb63d466d153af,68817205a84113384fffdfe3,6882446cc1f337b664ad8bbe,,,,,,,,,,,,,1,,,,,,,,,,,,,,,,,,,,,,,,,,,,,,,,,,,,,24,látigo,,,,,516.5562,522.7019,1,1,5.6329,,0,87,87,23,1,REAL,FAKE,,,,,,,,,,,,,,,,,
,,,,,,,,,66e2de50b2eb63d466d153af,Mexican,13 or older,"no, only English or Spanish",no,2025-07-24_10h35.04.222,empathy_intonation_perc_control,2024.2.4,Win32,142.8571429,66e2de50b2eb63d466d153af,68817205a84113384fffdfe3,6882446cc1f337b664ad8bbe,,,,,,,,,,,,,1,,,,,,,,,,,,,,,,,,,,,,,,,,,,,,,,,,,,,38,estornudar,,,,,522.7026,524.1742,0,0,0.9599,,0,88,88,37,1,REAL,FAKE,,,,,,,,,,,,,,,,,
,,,,,,,,,66e2de50b2eb63d466d153af,Mexican,13 or older,"no, only English or Spanish",no,2025-07-24_10h35.04.222,empathy_intonation_perc_control,2024.2.4,Win32,142.8571429,66e2de50b2eb63d466d153af,68817205a84113384fffdfe3,6882446cc1f337b664ad8bbe,,,,,,,,,,,,,1,,,,,,,,,,,,,,,,,,,,,,,,,,,,,,,,,,,,,52,camisa,,,,,524.1748,525.7297,1,1,1.0426,,0,89,89,51,1,REAL,FAKE,,,,,,,,,,,,,,,,,
,,,,,,,,,66e2de50b2eb63d466d153af,Mexican,13 or older,"no, only English or Spanish",no,2025-07-24_10h35.04.222,empathy_intonation_perc_control,2024.2.4,Win32,142.8571429,66e2de50b2eb63d466d153af,68817205a84113384fffdfe3,6882446cc1f337b664ad8bbe,,,,,,,,,,,,,1,,,,,,,,,,,,,,,,,,,,,,,,,,,,,,,,,,,,,88,acantilado,,,,,525.7304,529.3201,1,1,3.0779,,0,90,90,87,1,REAL,FAKE,,,,,,,,,,,,,,,,,
,,,,,,,,,66e2de50b2eb63d466d153af,Mexican,13 or older,"no, only English or Spanish",no,2025-07-24_10h35.04.222,empathy_intonation_perc_control,2024.2.4,Win32,142.8571429,66e2de50b2eb63d466d153af,68817205a84113384fffdfe3,6882446cc1f337b664ad8bbe,,,,,,,,,,,,,1,,,,,,,,,,,,,,,,,,,,,,,,,,,,,,,,,,,,,90,clavel,,,,,529.3207,532.8271,0,0,2.9964,,0,91,91,89,1,REAL,FAKE,,,,,,,,,,,,,,,,,
,,,,,,,,,66e2de50b2eb63d466d153af,Mexican,13 or older,"no, only English or Spanish",no,2025-07-24_10h35.04.222,empathy_intonation_perc_control,2024.2.4,Win32,142.8571429,66e2de50b2eb63d466d153af,68817205a84113384fffdfe3,6882446cc1f337b664ad8bbe,,,,,,,,,,,,,,,,,,,,,,,,,,,,,,,,,,,,,,,,,,,,,,,,,,,,,,,,,,,,,,,,,,,,,532.8274,537.7094,,,,,,,,,,,,,,,
,,,,,,,,,66e2de50b2eb63d466d153af,Mexican,13 or older,"no, only English or Spanish",no,2025-07-24_10h35.04.222,empathy_intonation_perc_control,2024.2.4,Win32,142.8571429,66e2de50b2eb63d466d153af,68817205a84113384fffdfe3,6882446cc1f337b664ad8bbe,,,,,,,,,,,,,,,,,,,,,,,,,,,1,,,,,,,,,,,,,,,,,,,,,,,,,,,,,,,,,,,,,,,,,,,,537.7157,544.3365,slightly agree,0,0,0,0,1,I can easily tell if someone else wants to enter a conversation.,1,0,1,0,,
,,,,,,,,,66e2de50b2eb63d466d153af,Mexican,13 or older,"no, only English or Spanish",no,2025-07-24_10h35.04.222,empathy_intonation_perc_control,2024.2.4,Win32,142.8571429,66e2de50b2eb63d466d153af,68817205a84113384fffdfe3,6882446cc1f337b664ad8bbe,,,,,,,,,,,,,,,,,,,,,,,,,,,2,,,,,,,,,,,,,,,,,,,,,,,,,,,,,,,,,,,,,,,,,,,,544.338,550.1504,slightly disagree,0,1,1,1,1,I prefer animals to humans.,0,1,0,0,,
,,,,,,,,,66e2de50b2eb63d466d153af,Mexican,13 or older,"no, only English or Spanish",no,2025-07-24_10h35.04.222,empathy_intonation_perc_control,2024.2.4,Win32,142.8571429,66e2de50b2eb63d466d153af,68817205a84113384fffdfe3,6882446cc1f337b664ad8bbe,,,,,,,,,,,,,,,,,,,,,,,,,,,3,,,,,,,,,,,,,,,,,,,,,,,,,,,,,,,,,,,,,,,,,,,,550.1515,554.1712,slightly disagree,0,2,2,2,1,I try to keep up with the current trends and fashions.,0,1,0,0,,
,,,,,,,,,66e2de50b2eb63d466d153af,Mexican,13 or older,"no, only English or Spanish",no,2025-07-24_10h35.04.222,empathy_intonation_perc_control,2024.2.4,Win32,142.8571429,66e2de50b2eb63d466d153af,68817205a84113384fffdfe3,6882446cc1f337b664ad8bbe,,,,,,,,,,,,,,,,,,,,,,,,,,,4,,,,,,,,,,,,,,,,,,,,,,,,,,,,,,,,,,,,,,,,,,,,554.1726,558.2339,slightly agree,0,3,3,3,1,"I find it difficult to explain to others things that I understand easily,   when they don't understand it first time.",1,0,0,1,,
,,,,,,,,,66e2de50b2eb63d466d153af,Mexican,13 or older,"no, only English or Spanish",no,2025-07-24_10h35.04.222,empathy_intonation_perc_control,2024.2.4,Win32,142.8571429,66e2de50b2eb63d466d153af,68817205a84113384fffdfe3,6882446cc1f337b664ad8bbe,,,,,,,,,,,,,,,,,,,,,,,,,,,5,,,,,,,,,,,,,,,,,,,,,,,,,,,,,,,,,,,,,,,,,,,,558.2348,559.7964,strongly agree,0,4,4,4,1,I dream most nights.,0,1,0,0,,
,,,,,,,,,66e2de50b2eb63d466d153af,Mexican,13 or older,"no, only English or Spanish",no,2025-07-24_10h35.04.222,empathy_intonation_perc_control,2024.2.4,Win32,142.8571429,66e2de50b2eb63d466d153af,68817205a84113384fffdfe3,6882446cc1f337b664ad8bbe,,,,,,,,,,,,,,,,,,,,,,,,,,,6,,,,,,,,,,,,,,,,,,,,,,,,,,,,,,,,,,,,,,,,,,,,559.7972,561.109,strongly agree,0,5,5,5,1,I really enjoy caring for other people.,1,0,1,0,,
,,,,,,,,,66e2de50b2eb63d466d153af,Mexican,13 or older,"no, only English or Spanish",no,2025-07-24_10h35.04.222,empathy_intonation_perc_control,2024.2.4,Win32,142.8571429,66e2de50b2eb63d466d153af,68817205a84113384fffdfe3,6882446cc1f337b664ad8bbe,,,,,,,,,,,,,,,,,,,,,,,,,,,7,,,,,,,,,,,,,,,,,,,,,,,,,,,,,,,,,,,,,,,,,,,,561.1101,563.741,slightly agree,0,6,6,6,1,I try to solve my own problems rather than discussing them with others.,0,1,0,0,,
,,,,,,,,,66e2de50b2eb63d466d153af,Mexican,13 or older,"no, only English or Spanish",no,2025-07-24_10h35.04.222,empathy_intonation_perc_control,2024.2.4,Win32,142.8571429,66e2de50b2eb63d466d153af,68817205a84113384fffdfe3,6882446cc1f337b664ad8bbe,,,,,,,,,,,,,,,,,,,,,,,,,,,8,,,,,,,,,,,,,,,,,,,,,,,,,,,,,,,,,,,,,,,,,,,,563.742,567.8314,strongly disagree,0,7,7,7,1,I find it hard to know what to do in a social situation.,1,0,0,1,,
,,,,,,,,,66e2de50b2eb63d466d153af,Mexican,13 or older,"no, only English or Spanish",no,2025-07-24_10h35.04.222,empathy_intonation_perc_control,2024.2.4,Win32,142.8571429,66e2de50b2eb63d466d153af,68817205a84113384fffdfe3,6882446cc1f337b664ad8bbe,,,,,,,,,,,,,,,,,,,,,,,,,,,9,,,,,,,,,,,,,,,,,,,,,,,,,,,,,,,,,,,,,,,,,,,,567.8321,570.3315,strongly disagree,0,8,8,8,1,I am at my best first thing in the morning.,0,1,0,0,,
,,,,,,,,,66e2de50b2eb63d466d153af,Mexican,13 or older,"no, only English or Spanish",no,2025-07-24_10h35.04.222,empathy_intonation_perc_control,2024.2.4,Win32,142.8571429,66e2de50b2eb63d466d153af,68817205a84113384fffdfe3,6882446cc1f337b664ad8bbe,,,,,,,,,,,,,,,,,,,,,,,,,,,10,,,,,,,,,,,,,,,,,,,,,,,,,,,,,,,,,,,,,,,,,,,,570.3327,573.3454,strongly agree,0,9,9,9,1,People often tell me that I went too far in driving my point home in a discussion.,1,0,0,1,,
,,,,,,,,,66e2de50b2eb63d466d153af,Mexican,13 or older,"no, only English or Spanish",no,2025-07-24_10h35.04.222,empathy_intonation_perc_control,2024.2.4,Win32,142.8571429,66e2de50b2eb63d466d153af,68817205a84113384fffdfe3,6882446cc1f337b664ad8bbe,,,,,,,,,,,,,,,,,,,,,,,,,,,11,,,,,,,,,,,,,,,,,,,,,,,,,,,,,,,,,,,,,,,,,,,,573.3462,576.8316,strongly disagree,0,10,10,10,1,It doesn't bother me too much if I am late meeting a friend.,1,0,0,1,,
,,,,,,,,,66e2de50b2eb63d466d153af,Mexican,13 or older,"no, only English or Spanish",no,2025-07-24_10h35.04.222,empathy_intonation_perc_control,2024.2.4,Win32,142.8571429,66e2de50b2eb63d466d153af,68817205a84113384fffdfe3,6882446cc1f337b664ad8bbe,,,,,,,,,,,,,,,,,,,,,,,,,,,12,,,,,,,,,,,,,,,,,,,,,,,,,,,,,,,,,,,,,,,,,,,,576.8328,578.9636,strongly disagree,0,11,11,11,1,"Friendships and relationships are just too difficult, so I tend not to 
  bother with them.",1,0,0,1,,
,,,,,,,,,66e2de50b2eb63d466d153af,Mexican,13 or older,"no, only English or Spanish",no,2025-07-24_10h35.04.222,empathy_intonation_perc_control,2024.2.4,Win32,142.8571429,66e2de50b2eb63d466d153af,68817205a84113384fffdfe3,6882446cc1f337b664ad8bbe,,,,,,,,,,,,,,,,,,,,,,,,,,,13,,,,,,,,,,,,,,,,,,,,,,,,,,,,,,,,,,,,,,,,,,,,578.9645,581.186,strongly disagree,0,12,12,12,1,"I would never break a law, no matter how minor.",0,1,0,0,,
,,,,,,,,,66e2de50b2eb63d466d153af,Mexican,13 or older,"no, only English or Spanish",no,2025-07-24_10h35.04.222,empathy_intonation_perc_control,2024.2.4,Win32,142.8571429,66e2de50b2eb63d466d153af,68817205a84113384fffdfe3,6882446cc1f337b664ad8bbe,,,,,,,,,,,,,,,,,,,,,,,,,,,14,,,,,,,,,,,,,,,,,,,,,,,,,,,,,,,,,,,,,,,,,,,,581.1869,584.5193,slightly disagree,0,13,13,13,1,I often find it difficult to judge if something is rude or polite.,1,0,0,1,,
,,,,,,,,,66e2de50b2eb63d466d153af,Mexican,13 or older,"no, only English or Spanish",no,2025-07-24_10h35.04.222,empathy_intonation_perc_control,2024.2.4,Win32,142.8571429,66e2de50b2eb63d466d153af,68817205a84113384fffdfe3,6882446cc1f337b664ad8bbe,,,,,,,,,,,,,,,,,,,,,,,,,,,15,,,,,,,,,,,,,,,,,,,,,,,,,,,,,,,,,,,,,,,,,,,,584.5203,587.7972,slightly agree,0,14,14,14,1,"In a conversation, I tend to focus on my own thoughts rather than on what 
  my listener might be thinking.",1,0,0,1,,
,,,,,,,,,66e2de50b2eb63d466d153af,Mexican,13 or older,"no, only English or Spanish",no,2025-07-24_10h35.04.222,empathy_intonation_perc_control,2024.2.4,Win32,142.8571429,66e2de50b2eb63d466d153af,68817205a84113384fffdfe3,6882446cc1f337b664ad8bbe,,,,,,,,,,,,,,,,,,,,,,,,,,,16,,,,,,,,,,,,,,,,,,,,,,,,,,,,,,,,,,,,,,,,,,,,587.7979,592.0333,slightly disagree,0,15,15,15,1,I prefer practical jokes to verbal humor.,0,1,0,0,,
,,,,,,,,,66e2de50b2eb63d466d153af,Mexican,13 or older,"no, only English or Spanish",no,2025-07-24_10h35.04.222,empathy_intonation_perc_control,2024.2.4,Win32,142.8571429,66e2de50b2eb63d466d153af,68817205a84113384fffdfe3,6882446cc1f337b664ad8bbe,,,,,,,,,,,,,,,,,,,,,,,,,,,17,,,,,,,,,,,,,,,,,,,,,,,,,,,,,,,,,,,,,,,,,,,,592.0343,596.5058,slightly disagree,0,16,16,16,1,I live life for today rather than the future.,0,1,0,0,,
,,,,,,,,,66e2de50b2eb63d466d153af,Mexican,13 or older,"no, only English or Spanish",no,2025-07-24_10h35.04.222,empathy_intonation_perc_control,2024.2.4,Win32,142.8571429,66e2de50b2eb63d466d153af,68817205a84113384fffdfe3,6882446cc1f337b664ad8bbe,,,,,,,,,,,,,,,,,,,,,,,,,,,18,,,,,,,,,,,,,,,,,,,,,,,,,,,,,,,,,,,,,,,,,,,,596.5071,599.9572,strongly disagree,0,17,17,17,1,"When I was a child, I enjoyed cutting up worms to see what would happen.",1,0,0,1,,
,,,,,,,,,66e2de50b2eb63d466d153af,Mexican,13 or older,"no, only English or Spanish",no,2025-07-24_10h35.04.222,empathy_intonation_perc_control,2024.2.4,Win32,142.8571429,66e2de50b2eb63d466d153af,68817205a84113384fffdfe3,6882446cc1f337b664ad8bbe,,,,,,,,,,,,,,,,,,,,,,,,,,,19,,,,,,,,,,,,,,,,,,,,,,,,,,,,,,,,,,,,,,,,,,,,599.9581,606.5685,strongly agree,0,18,18,18,1,I can pick up quickly if someone says one thing but means another.,1,0,1,0,,
,,,,,,,,,66e2de50b2eb63d466d153af,Mexican,13 or older,"no, only English or Spanish",no,2025-07-24_10h35.04.222,empathy_intonation_perc_control,2024.2.4,Win32,142.8571429,66e2de50b2eb63d466d153af,68817205a84113384fffdfe3,6882446cc1f337b664ad8bbe,,,,,,,,,,,,,,,,,,,,,,,,,,,20,,,,,,,,,,,,,,,,,,,,,,,,,,,,,,,,,,,,,,,,,,,,606.5694,608.0754,strongly agree,0,19,19,19,1,I tend to have very strong opinions about morality.,0,1,0,0,,
,,,,,,,,,66e2de50b2eb63d466d153af,Mexican,13 or older,"no, only English or Spanish",no,2025-07-24_10h35.04.222,empathy_intonation_perc_control,2024.2.4,Win32,142.8571429,66e2de50b2eb63d466d153af,68817205a84113384fffdfe3,6882446cc1f337b664ad8bbe,,,,,,,,,,,,,,,,,,,,,,,,,,,21,,,,,,,,,,,,,,,,,,,,,,,,,,,,,,,,,,,,,,,,,,,,608.0759,611.7701,slightly agree,0,20,20,20,1,It is hard for me to see why some things upset people so much.,1,0,0,1,,
,,,,,,,,,66e2de50b2eb63d466d153af,Mexican,13 or older,"no, only English or Spanish",no,2025-07-24_10h35.04.222,empathy_intonation_perc_control,2024.2.4,Win32,142.8571429,66e2de50b2eb63d466d153af,68817205a84113384fffdfe3,6882446cc1f337b664ad8bbe,,,,,,,,,,,,,,,,,,,,,,,,,,,22,,,,,,,,,,,,,,,,,,,,,,,,,,,,,,,,,,,,,,,,,,,,611.7709,614.4021,slightly disagree,0,21,21,21,1,I find it easy to put myself in somebody else's shoes.,1,0,1,0,,
,,,,,,,,,66e2de50b2eb63d466d153af,Mexican,13 or older,"no, only English or Spanish",no,2025-07-24_10h35.04.222,empathy_intonation_perc_control,2024.2.4,Win32,142.8571429,66e2de50b2eb63d466d153af,68817205a84113384fffdfe3,6882446cc1f337b664ad8bbe,,,,,,,,,,,,,,,,,,,,,,,,,,,23,,,,,,,,,,,,,,,,,,,,,,,,,,,,,,,,,,,,,,,,,,,,614.4031,619.7008,slightly agree,0,22,22,22,1,I think that good manners are the most important thing a parent can teach their child.,0,1,0,0,,
,,,,,,,,,66e2de50b2eb63d466d153af,Mexican,13 or older,"no, only English or Spanish",no,2025-07-24_10h35.04.222,empathy_intonation_perc_control,2024.2.4,Win32,142.8571429,66e2de50b2eb63d466d153af,68817205a84113384fffdfe3,6882446cc1f337b664ad8bbe,,,,,,,,,,,,,,,,,,,,,,,,,,,24,,,,,,,,,,,,,,,,,,,,,,,,,,,,,,,,,,,,,,,,,,,,619.7018,621.7218,strongly agree,0,23,23,23,1,I like to do things on the spur of the moment.,0,1,0,0,,
,,,,,,,,,66e2de50b2eb63d466d153af,Mexican,13 or older,"no, only English or Spanish",no,2025-07-24_10h35.04.222,empathy_intonation_perc_control,2024.2.4,Win32,142.8571429,66e2de50b2eb63d466d153af,68817205a84113384fffdfe3,6882446cc1f337b664ad8bbe,,,,,,,,,,,,,,,,,,,,,,,,,,,25,,,,,,,,,,,,,,,,,,,,,,,,,,,,,,,,,,,,,,,,,,,,621.7226,625.6039,slightly agree,0,24,24,24,1,I am good at predicting how someone will feel.,1,0,1,0,,
