instructions_2afc.started,instructions_2afc.stopped,instructions_2afc_loop.thisRepN,instructions_2afc_loop.thisTrialN,instructions_2afc_loop.thisN,instructions_2afc_loop.thisIndex,instructions_2afc_loop.ran,instructions_text,continue_text,participant_id,"What variety of Spanish are you most familiar with? (e.g., Peruvian, Spanish, Mexican)",At what age did you begin learning Spanish?,Are you proficient in any languages other than English/Spanish?,"Are you familiar with Caribbean (e.g., Caribbean, Puerto Rican) or Galician Spanish?",date,expName,psychopyVersion,OS,frameRate,id,study_id,session,practice_2afc.started,practice_2afc.stopped,key_resp_2afc_practice.keys,key_resp_2afc_practice.corr,key_resp_2afc_practice.rt,key_resp_2afc_practice.duration,trials_2afc_practice_loop.thisRepN,trials_2afc_practice_loop.thisTrialN,trials_2afc_practice_loop.thisN,trials_2afc_practice_loop.thisIndex,trials_2afc_practice_loop.ran,path,correct_response,check_2afc.started,check_2afc.stopped,trial_2afc.started,trial_2afc.stopped,key_resp_2afc_trial.keys,key_resp_2afc_trial.corr,key_resp_2afc_trial.rt,key_resp_2afc_trial.duration,trials_2afc_loop.thisRepN,trials_2afc_loop.thisTrialN,trials_2afc_loop.thisN,trials_2afc_loop.thisIndex,trials_2afc_loop.ran,item_num,target,variety,instructions_lextale.started,instructions_lextale.stopped,instructions_lextale_loop.thisRepN,instructions_lextale_loop.thisTrialN,instructions_lextale_loop.thisN,instructions_lextale_loop.thisIndex,instructions_lextale_loop.ran,practice_lextale.started,practice_lextale.stopped,key_resp_lextale_practice.keys,key_resp_lextale_practice.corr,key_resp_lextale_practice.rt,key_resp_lextale_practice.duration,practice_feedback_lextale.started,practice_feedback_lextale.stopped,trials_lextale_practice_loop.thisRepN,trials_lextale_practice_loop.thisTrialN,trials_lextale_practice_loop.thisN,trials_lextale_practice_loop.thisIndex,trials_lextale_practice_loop.ran,stim,word,prac_button_real,prac_button_false,check_lextale.started,check_lextale.stopped,trial_lextale.started,trial_lextale.stopped,key_resp_lextale_trial.keys,key_resp_lextale_trial.corr,key_resp_lextale_trial.rt,key_resp_lextale_trial.duration,trials_lextale_loop.thisRepN,trials_lextale_loop.thisTrialN,trials_lextale_loop.thisN,trials_lextale_loop.thisIndex,trials_lextale_loop.ran,button_real,button_false,instructions_eq.started,instructions_eq.stopped,trial_eq.started,trial_eq.stopped,slider_eq_trial.response,trials_eq_loop.thisRepN,trials_eq_loop.thisTrialN,trials_eq_loop.thisN,trials_eq_loop.thisIndex,trials_eq_loop.ran,item,is_test_item,is_distractor,is_agree_score,is_disagree_score,end_exp.started,end_exp.stopped
0.0195,6.819,0,0,0,0,1,"In the following task you are going to hear a series of utterances. 

  You will decide if the utterances sound like questions or not using your keyboard.", (press the spacebar to continue),66e8cf54518140fd17d32ae0,Puerto Rican Spanish,younger than 13,"no, only English or Spanish",yes,2025-07-23_20h33.56.046,empathy_intonation_perc_control,2024.2.4,MacIntel,59.52380952,66e8cf54518140fd17d32ae0,68817205a84113384fffdfe3,68817f407a144f6f9a7a604c,,,,,,,,,,,,,,,,,,,,,,,,,,,,,,,,,,,,,,,,,,,,,,,,,,,,,,,,,,,,,,,,,,,,,,,,,,,,,,,,,,,,,
6.8196,13.4129,0,1,1,1,1,"If you believe the utterance is a question, type '1' (for 'yes') and if you do not 
  believe it is a question type '0' (for 'no').

  Let's practice a bit...", (press the spacebar to continue),66e8cf54518140fd17d32ae0,Puerto Rican Spanish,younger than 13,"no, only English or Spanish",yes,2025-07-23_20h33.56.046,empathy_intonation_perc_control,2024.2.4,MacIntel,59.52380952,66e8cf54518140fd17d32ae0,68817205a84113384fffdfe3,68817f407a144f6f9a7a604c,,,,,,,,,,,,,,,,,,,,,,,,,,,,,,,,,,,,,,,,,,,,,,,,,,,,,,,,,,,,,,,,,,,,,,,,,,,,,,,,,,,,,
,,,,,,,,,66e8cf54518140fd17d32ae0,Puerto Rican Spanish,younger than 13,"no, only English or Spanish",yes,2025-07-23_20h33.56.046,empathy_intonation_perc_control,2024.2.4,MacIntel,59.52380952,66e8cf54518140fd17d32ae0,68817205a84113384fffdfe3,68817f407a144f6f9a7a604c,13.4236,16.6103,0,1,2.666,,0,0,0,6,1,./stim/wavs/peruvian_statement_filler_El-nino-habla-con-su-madre.wav,0,,,,,,,,,,,,,,,,,,,,,,,,,,,,,,,,,,,,,,,,,,,,,,,,,,,,,,,,,,,,,,,,,,,,,,,,
,,,,,,,,,66e8cf54518140fd17d32ae0,Puerto Rican Spanish,younger than 13,"no, only English or Spanish",yes,2025-07-23_20h33.56.046,empathy_intonation_perc_control,2024.2.4,MacIntel,59.52380952,66e8cf54518140fd17d32ae0,68817205a84113384fffdfe3,68817f407a144f6f9a7a604c,16.611,19.8969,1,1,2.7658,,0,1,1,3,1,./stim/wavs/mexican_question_filler_Felipe-no-tiene-contrasena.wav,1,,,,,,,,,,,,,,,,,,,,,,,,,,,,,,,,,,,,,,,,,,,,,,,,,,,,,,,,,,,,,,,,,,,,,,,,
,,,,,,,,,66e8cf54518140fd17d32ae0,Puerto Rican Spanish,younger than 13,"no, only English or Spanish",yes,2025-07-23_20h33.56.046,empathy_intonation_perc_control,2024.2.4,MacIntel,59.52380952,66e8cf54518140fd17d32ae0,68817205a84113384fffdfe3,68817f407a144f6f9a7a604c,19.8974,22.3284,1,1,1.9058,,0,2,2,1,1,./stim/wavs/argentine_question_filler_Mi-vecino-habla-mucho.wav,1,,,,,,,,,,,,,,,,,,,,,,,,,,,,,,,,,,,,,,,,,,,,,,,,,,,,,,,,,,,,,,,,,,,,,,,,
,,,,,,,,,66e8cf54518140fd17d32ae0,Puerto Rican Spanish,younger than 13,"no, only English or Spanish",yes,2025-07-23_20h33.56.046,empathy_intonation_perc_control,2024.2.4,MacIntel,59.52380952,66e8cf54518140fd17d32ae0,68817205a84113384fffdfe3,68817f407a144f6f9a7a604c,22.329,25.002,0,1,2.1507,,0,3,3,7,1,./stim/wavs/puertorican_statement_filler_La-nina-pinta-con-su-amiga.wav,0,,,,,,,,,,,,,,,,,,,,,,,,,,,,,,,,,,,,,,,,,,,,,,,,,,,,,,,,,,,,,,,,,,,,,,,,
,,,,,,,,,66e8cf54518140fd17d32ae0,Puerto Rican Spanish,younger than 13,"no, only English or Spanish",yes,2025-07-23_20h33.56.046,empathy_intonation_perc_control,2024.2.4,MacIntel,59.52380952,66e8cf54518140fd17d32ae0,68817205a84113384fffdfe3,68817f407a144f6f9a7a604c,25.0025,27.6238,0,1,2.0952,,0,4,4,4,1,./stim/wavs/cuban_statement_filler_Cocinabas-por-la-noche.wav,0,,,,,,,,,,,,,,,,,,,,,,,,,,,,,,,,,,,,,,,,,,,,,,,,,,,,,,,,,,,,,,,,,,,,,,,,
,,,,,,,,,66e8cf54518140fd17d32ae0,Puerto Rican Spanish,younger than 13,"no, only English or Spanish",yes,2025-07-23_20h33.56.046,empathy_intonation_perc_control,2024.2.4,MacIntel,59.52380952,66e8cf54518140fd17d32ae0,68817205a84113384fffdfe3,68817f407a144f6f9a7a604c,27.6243,30.6154,1,1,2.4665,,0,5,5,0,1,./stim/wavs/castilian_question_filler_Mi-esposo-conoce-al-chico.wav,1,,,,,,,,,,,,,,,,,,,,,,,,,,,,,,,,,,,,,,,,,,,,,,,,,,,,,,,,,,,,,,,,,,,,,,,,
,,,,,,,,,66e8cf54518140fd17d32ae0,Puerto Rican Spanish,younger than 13,"no, only English or Spanish",yes,2025-07-23_20h33.56.046,empathy_intonation_perc_control,2024.2.4,MacIntel,59.52380952,66e8cf54518140fd17d32ae0,68817205a84113384fffdfe3,68817f407a144f6f9a7a604c,30.6159,33.5677,0,1,2.4243,,0,6,6,5,1,./stim/wavs/andalusian_statement_filler_Alberto-nunca-se-afeita.wav,0,,,,,,,,,,,,,,,,,,,,,,,,,,,,,,,,,,,,,,,,,,,,,,,,,,,,,,,,,,,,,,,,,,,,,,,,
,,,,,,,,,66e8cf54518140fd17d32ae0,Puerto Rican Spanish,younger than 13,"no, only English or Spanish",yes,2025-07-23_20h33.56.046,empathy_intonation_perc_control,2024.2.4,MacIntel,59.52380952,66e8cf54518140fd17d32ae0,68817205a84113384fffdfe3,68817f407a144f6f9a7a604c,33.5681,36.0809,0,0,1.9841,,0,7,7,2,1,./stim/wavs/chilean_question_filler_Mi-padre-cantaba-bien.wav,1,,,,,,,,,,,,,,,,,,,,,,,,,,,,,,,,,,,,,,,,,,,,,,,,,,,,,,,,,,,,,,,,,,,,,,,,
,,,,,,,,,66e8cf54518140fd17d32ae0,Puerto Rican Spanish,younger than 13,"no, only English or Spanish",yes,2025-07-23_20h33.56.046,empathy_intonation_perc_control,2024.2.4,MacIntel,59.52380952,66e8cf54518140fd17d32ae0,68817205a84113384fffdfe3,68817f407a144f6f9a7a604c,,,,,,,,,,,,,,36.0811,40.3826,,,,,,,,,,,,,,,,,,,,,,,,,,,,,,,,,,,,,,,,,,,,,,,,,,,,,,,,,,,,,,,,,,,,,,
,,,,,,,,,66e8cf54518140fd17d32ae0,Puerto Rican Spanish,younger than 13,"no, only English or Spanish",yes,2025-07-23_20h33.56.046,empathy_intonation_perc_control,2024.2.4,MacIntel,59.52380952,66e8cf54518140fd17d32ae0,68817205a84113384fffdfe3,68817f407a144f6f9a7a604c,,,,,,,,,,,,./stim/wavs/cuban_match_declarative-broad-focus_Daniel-iba-a-Bolivia.wav,0,,,40.3921,42.8605,0,1,1.9474,,0,0,0,51,1,52,0,cuban,,,,,,,,,,,,,,,,,,,,,,,,,,,,,,,,,,,,,,,,,,,,,,,,,,,,,,,,
,,,,,,,,,66e8cf54518140fd17d32ae0,Puerto Rican Spanish,younger than 13,"no, only English or Spanish",yes,2025-07-23_20h33.56.046,empathy_intonation_perc_control,2024.2.4,MacIntel,59.52380952,66e8cf54518140fd17d32ae0,68817205a84113384fffdfe3,68817f407a144f6f9a7a604c,,,,,,,,,,,,./stim/wavs/castilian_mismatch_declarative-broad-focus_Mi-novio-viene-del-lago.wav,0,,,42.8609,45.4796,0,1,2.0843,,0,1,1,71,1,72,0,castilian,,,,,,,,,,,,,,,,,,,,,,,,,,,,,,,,,,,,,,,,,,,,,,,,,,,,,,,,
,,,,,,,,,66e8cf54518140fd17d32ae0,Puerto Rican Spanish,younger than 13,"no, only English or Spanish",yes,2025-07-23_20h33.56.046,empathy_intonation_perc_control,2024.2.4,MacIntel,59.52380952,66e8cf54518140fd17d32ae0,68817205a84113384fffdfe3,68817f407a144f6f9a7a604c,,,,,,,,,,,,./stim/wavs/mexican_mismatch_declarative-broad-focus_La-maestra-vive-en-Paris.wav,0,,,45.4799,47.7109,0,1,1.7115,,0,2,2,80,1,81,0,mexican,,,,,,,,,,,,,,,,,,,,,,,,,,,,,,,,,,,,,,,,,,,,,,,,,,,,,,,,
,,,,,,,,,66e8cf54518140fd17d32ae0,Puerto Rican Spanish,younger than 13,"no, only English or Spanish",yes,2025-07-23_20h33.56.046,empathy_intonation_perc_control,2024.2.4,MacIntel,59.52380952,66e8cf54518140fd17d32ae0,68817205a84113384fffdfe3,68817f407a144f6f9a7a604c,,,,,,,,,,,,./stim/wavs/puertorican_match_interrogative-total-yn_Manuela-vende-el-carro.wav,1,,,47.7114,50.0619,1,1,1.8163,,0,3,3,22,1,23,1,puertorican,,,,,,,,,,,,,,,,,,,,,,,,,,,,,,,,,,,,,,,,,,,,,,,,,,,,,,,,
,,,,,,,,,66e8cf54518140fd17d32ae0,Puerto Rican Spanish,younger than 13,"no, only English or Spanish",yes,2025-07-23_20h33.56.046,empathy_intonation_perc_control,2024.2.4,MacIntel,59.52380952,66e8cf54518140fd17d32ae0,68817205a84113384fffdfe3,68817f407a144f6f9a7a604c,,,,,,,,,,,,./stim/wavs/mexican_mismatch_declarative-broad-focus_El-hombre-mira-la-luna.wav,0,,,50.0622,52.2963,0,1,1.6998,,0,4,4,79,1,80,0,mexican,,,,,,,,,,,,,,,,,,,,,,,,,,,,,,,,,,,,,,,,,,,,,,,,,,,,,,,,
,,,,,,,,,66e8cf54518140fd17d32ae0,Puerto Rican Spanish,younger than 13,"no, only English or Spanish",yes,2025-07-23_20h33.56.046,empathy_intonation_perc_control,2024.2.4,MacIntel,59.52380952,66e8cf54518140fd17d32ae0,68817205a84113384fffdfe3,68817f407a144f6f9a7a604c,,,,,,,,,,,,./stim/wavs/castilian_mismatch_declarative-broad-focus_La-maestra-vive-en-Paris.wav,0,,,52.2967,54.9654,0,1,2.137,,0,5,5,69,1,70,0,castilian,,,,,,,,,,,,,,,,,,,,,,,,,,,,,,,,,,,,,,,,,,,,,,,,,,,,,,,,
,,,,,,,,,66e8cf54518140fd17d32ae0,Puerto Rican Spanish,younger than 13,"no, only English or Spanish",yes,2025-07-23_20h33.56.046,empathy_intonation_perc_control,2024.2.4,MacIntel,59.52380952,66e8cf54518140fd17d32ae0,68817205a84113384fffdfe3,68817f407a144f6f9a7a604c,,,,,,,,,,,,./stim/wavs/cuban_match_declarative-broad-focus_Manuela-vende-el-carro.wav,0,,,54.9658,57.362,0,1,1.8656,,0,6,6,52,1,53,0,cuban,,,,,,,,,,,,,,,,,,,,,,,,,,,,,,,,,,,,,,,,,,,,,,,,,,,,,,,,
,,,,,,,,,66e8cf54518140fd17d32ae0,Puerto Rican Spanish,younger than 13,"no, only English or Spanish",yes,2025-07-23_20h33.56.046,empathy_intonation_perc_control,2024.2.4,MacIntel,59.52380952,66e8cf54518140fd17d32ae0,68817205a84113384fffdfe3,68817f407a144f6f9a7a604c,,,,,,,,,,,,./stim/wavs/puertorican_match_declarative-broad-focus_Emilio-ama-la-marcha.wav,0,,,57.3623,59.5778,0,1,1.6984,,0,7,7,65,1,66,0,puertorican,,,,,,,,,,,,,,,,,,,,,,,,,,,,,,,,,,,,,,,,,,,,,,,,,,,,,,,,
,,,,,,,,,66e8cf54518140fd17d32ae0,Puerto Rican Spanish,younger than 13,"no, only English or Spanish",yes,2025-07-23_20h33.56.046,empathy_intonation_perc_control,2024.2.4,MacIntel,59.52380952,66e8cf54518140fd17d32ae0,68817205a84113384fffdfe3,68817f407a144f6f9a7a604c,,,,,,,,,,,,./stim/wavs/cuban_match_interrogative-total-yn_Daniel-iba-a-Bolivia.wav,1,,,59.5783,61.9385,1,1,1.8221,,0,8,8,7,1,8,1,cuban,,,,,,,,,,,,,,,,,,,,,,,,,,,,,,,,,,,,,,,,,,,,,,,,,,,,,,,,
,,,,,,,,,66e8cf54518140fd17d32ae0,Puerto Rican Spanish,younger than 13,"no, only English or Spanish",yes,2025-07-23_20h33.56.046,empathy_intonation_perc_control,2024.2.4,MacIntel,59.52380952,66e8cf54518140fd17d32ae0,68817205a84113384fffdfe3,68817f407a144f6f9a7a604c,,,,,,,,,,,,./stim/wavs/mexican_match_interrogative-total-yn_Emilio-ama-la-marcha.wav,1,,,61.9388,64.2972,1,1,1.8285,,0,9,9,15,1,16,0,mexican,,,,,,,,,,,,,,,,,,,,,,,,,,,,,,,,,,,,,,,,,,,,,,,,,,,,,,,,
,,,,,,,,,66e8cf54518140fd17d32ae0,Puerto Rican Spanish,younger than 13,"no, only English or Spanish",yes,2025-07-23_20h33.56.046,empathy_intonation_perc_control,2024.2.4,MacIntel,59.52380952,66e8cf54518140fd17d32ae0,68817205a84113384fffdfe3,68817f407a144f6f9a7a604c,,,,,,,,,,,,./stim/wavs/cuban_match_declarative-broad-focus_Marta-abre-el-regalo.wav,0,,,64.2976,66.6434,0,1,1.8292,,0,10,10,55,1,56,0,cuban,,,,,,,,,,,,,,,,,,,,,,,,,,,,,,,,,,,,,,,,,,,,,,,,,,,,,,,,
,,,,,,,,,66e8cf54518140fd17d32ae0,Puerto Rican Spanish,younger than 13,"no, only English or Spanish",yes,2025-07-23_20h33.56.046,empathy_intonation_perc_control,2024.2.4,MacIntel,59.52380952,66e8cf54518140fd17d32ae0,68817205a84113384fffdfe3,68817f407a144f6f9a7a604c,,,,,,,,,,,,./stim/wavs/castilian_match_interrogative-total-yn_David-leia-el-libro.wav,1,,,66.6437,69.2261,1,1,2.0595,,0,11,11,0,1,1,0,castilian,,,,,,,,,,,,,,,,,,,,,,,,,,,,,,,,,,,,,,,,,,,,,,,,,,,,,,,,
,,,,,,,,,66e8cf54518140fd17d32ae0,Puerto Rican Spanish,younger than 13,"no, only English or Spanish",yes,2025-07-23_20h33.56.046,empathy_intonation_perc_control,2024.2.4,MacIntel,59.52380952,66e8cf54518140fd17d32ae0,68817205a84113384fffdfe3,68817f407a144f6f9a7a604c,,,,,,,,,,,,./stim/wavs/cuban_mismatch_declarative-broad-focus_La-nina-lava-el-plato.wav,0,,,69.2265,71.4615,0,1,1.7138,,0,12,12,75,1,76,0,cuban,,,,,,,,,,,,,,,,,,,,,,,,,,,,,,,,,,,,,,,,,,,,,,,,,,,,,,,,
,,,,,,,,,66e8cf54518140fd17d32ae0,Puerto Rican Spanish,younger than 13,"no, only English or Spanish",yes,2025-07-23_20h33.56.046,empathy_intonation_perc_control,2024.2.4,MacIntel,59.52380952,66e8cf54518140fd17d32ae0,68817205a84113384fffdfe3,68817f407a144f6f9a7a604c,,,,,,,,,,,,./stim/wavs/mexican_match_interrogative-total-yn_Daniel-iba-a-Bolivia.wav,1,,,71.4619,74.0442,1,1,2.0606,,0,13,13,13,1,14,0,mexican,,,,,,,,,,,,,,,,,,,,,,,,,,,,,,,,,,,,,,,,,,,,,,,,,,,,,,,,
,,,,,,,,,66e8cf54518140fd17d32ae0,Puerto Rican Spanish,younger than 13,"no, only English or Spanish",yes,2025-07-23_20h33.56.046,empathy_intonation_perc_control,2024.2.4,MacIntel,59.52380952,66e8cf54518140fd17d32ae0,68817205a84113384fffdfe3,68817f407a144f6f9a7a604c,,,,,,,,,,,,./stim/wavs/puertorican_match_declarative-broad-focus_Manuela-vende-el-carro.wav,0,,,74.0446,76.4482,0,1,1.8702,,0,14,14,66,1,67,0,puertorican,,,,,,,,,,,,,,,,,,,,,,,,,,,,,,,,,,,,,,,,,,,,,,,,,,,,,,,,
,,,,,,,,,66e8cf54518140fd17d32ae0,Puerto Rican Spanish,younger than 13,"no, only English or Spanish",yes,2025-07-23_20h33.56.046,empathy_intonation_perc_control,2024.2.4,MacIntel,59.52380952,66e8cf54518140fd17d32ae0,68817205a84113384fffdfe3,68817f407a144f6f9a7a604c,,,,,,,,,,,,./stim/wavs/mexican_mismatch_declarative-broad-focus_Mi-tia-odia-la-lluvia.wav,0,,,76.4485,78.6797,0,1,1.7003,,0,15,15,82,1,83,0,mexican,,,,,,,,,,,,,,,,,,,,,,,,,,,,,,,,,,,,,,,,,,,,,,,,,,,,,,,,
,,,,,,,,,66e8cf54518140fd17d32ae0,Puerto Rican Spanish,younger than 13,"no, only English or Spanish",yes,2025-07-23_20h33.56.046,empathy_intonation_perc_control,2024.2.4,MacIntel,59.52380952,66e8cf54518140fd17d32ae0,68817205a84113384fffdfe3,68817f407a144f6f9a7a604c,,,,,,,,,,,,./stim/wavs/cuban_mismatch_interrogative-total-yn_Mi-madre-come-la-fruta.wav,1,,,78.6801,80.926,0,0,1.7265,,0,16,16,31,1,32,1,cuban,,,,,,,,,,,,,,,,,,,,,,,,,,,,,,,,,,,,,,,,,,,,,,,,,,,,,,,,
,,,,,,,,,66e8cf54518140fd17d32ae0,Puerto Rican Spanish,younger than 13,"no, only English or Spanish",yes,2025-07-23_20h33.56.046,empathy_intonation_perc_control,2024.2.4,MacIntel,59.52380952,66e8cf54518140fd17d32ae0,68817205a84113384fffdfe3,68817f407a144f6f9a7a604c,,,,,,,,,,,,./stim/wavs/cuban_match_interrogative-total-yn_Ana-lleva-el-abrigo.wav,1,,,80.9265,83.3851,1,1,1.9407,,0,17,17,6,1,7,1,cuban,,,,,,,,,,,,,,,,,,,,,,,,,,,,,,,,,,,,,,,,,,,,,,,,,,,,,,,,
,,,,,,,,,66e8cf54518140fd17d32ae0,Puerto Rican Spanish,younger than 13,"no, only English or Spanish",yes,2025-07-23_20h33.56.046,empathy_intonation_perc_control,2024.2.4,MacIntel,59.52380952,66e8cf54518140fd17d32ae0,68817205a84113384fffdfe3,68817f407a144f6f9a7a604c,,,,,,,,,,,,./stim/wavs/mexican_match_interrogative-total-yn_Marta-abre-el-regalo.wav,1,,,83.3854,85.9447,1,1,2.0256,,0,18,18,17,1,18,0,mexican,,,,,,,,,,,,,,,,,,,,,,,,,,,,,,,,,,,,,,,,,,,,,,,,,,,,,,,,
,,,,,,,,,66e8cf54518140fd17d32ae0,Puerto Rican Spanish,younger than 13,"no, only English or Spanish",yes,2025-07-23_20h33.56.046,empathy_intonation_perc_control,2024.2.4,MacIntel,59.52380952,66e8cf54518140fd17d32ae0,68817205a84113384fffdfe3,68817f407a144f6f9a7a604c,,,,,,,,,,,,./stim/wavs/cuban_match_interrogative-total-yn_Maria-bebe-el-vino.wav,1,,,85.9451,88.4606,0,0,1.9838,,0,19,19,9,1,10,1,cuban,,,,,,,,,,,,,,,,,,,,,,,,,,,,,,,,,,,,,,,,,,,,,,,,,,,,,,,,
,,,,,,,,,66e8cf54518140fd17d32ae0,Puerto Rican Spanish,younger than 13,"no, only English or Spanish",yes,2025-07-23_20h33.56.046,empathy_intonation_perc_control,2024.2.4,MacIntel,59.52380952,66e8cf54518140fd17d32ae0,68817205a84113384fffdfe3,68817f407a144f6f9a7a604c,,,,,,,,,,,,./stim/wavs/mexican_match_interrogative-total-yn_Ana-lleva-el-abrigo.wav,1,,,88.4609,92.0957,1,1,3.1024,,0,20,20,12,1,13,0,mexican,,,,,,,,,,,,,,,,,,,,,,,,,,,,,,,,,,,,,,,,,,,,,,,,,,,,,,,,
,,,,,,,,,66e8cf54518140fd17d32ae0,Puerto Rican Spanish,younger than 13,"no, only English or Spanish",yes,2025-07-23_20h33.56.046,empathy_intonation_perc_control,2024.2.4,MacIntel,59.52380952,66e8cf54518140fd17d32ae0,68817205a84113384fffdfe3,68817f407a144f6f9a7a604c,,,,,,,,,,,,./stim/wavs/cuban_match_interrogative-total-yn_Marta-abre-el-regalo.wav,1,,,92.0961,94.8816,0,0,2.2439,,0,21,21,11,1,12,1,cuban,,,,,,,,,,,,,,,,,,,,,,,,,,,,,,,,,,,,,,,,,,,,,,,,,,,,,,,,
,,,,,,,,,66e8cf54518140fd17d32ae0,Puerto Rican Spanish,younger than 13,"no, only English or Spanish",yes,2025-07-23_20h33.56.046,empathy_intonation_perc_control,2024.2.4,MacIntel,59.52380952,66e8cf54518140fd17d32ae0,68817205a84113384fffdfe3,68817f407a144f6f9a7a604c,,,,,,,,,,,,./stim/wavs/mexican_mismatch_declarative-broad-focus_Mi-novio-viene-del-lago.wav,0,,,94.8819,97.1335,0,1,1.7181,,0,22,22,81,1,82,0,mexican,,,,,,,,,,,,,,,,,,,,,,,,,,,,,,,,,,,,,,,,,,,,,,,,,,,,,,,,
,,,,,,,,,66e8cf54518140fd17d32ae0,Puerto Rican Spanish,younger than 13,"no, only English or Spanish",yes,2025-07-23_20h33.56.046,empathy_intonation_perc_control,2024.2.4,MacIntel,59.52380952,66e8cf54518140fd17d32ae0,68817205a84113384fffdfe3,68817f407a144f6f9a7a604c,,,,,,,,,,,,./stim/wavs/puertorican_match_declarative-broad-focus_David-leia-el-libro.wav,0,,,97.1338,99.8274,0,1,2.173,,0,23,23,64,1,65,0,puertorican,,,,,,,,,,,,,,,,,,,,,,,,,,,,,,,,,,,,,,,,,,,,,,,,,,,,,,,,
,,,,,,,,,66e8cf54518140fd17d32ae0,Puerto Rican Spanish,younger than 13,"no, only English or Spanish",yes,2025-07-23_20h33.56.046,empathy_intonation_perc_control,2024.2.4,MacIntel,59.52380952,66e8cf54518140fd17d32ae0,68817205a84113384fffdfe3,68817f407a144f6f9a7a604c,,,,,,,,,,,,./stim/wavs/puertorican_match_interrogative-total-yn_Daniel-iba-a-Bolivia.wav,1,,,99.8278,102.2242,1,1,1.8617,,0,24,24,19,1,20,1,puertorican,,,,,,,,,,,,,,,,,,,,,,,,,,,,,,,,,,,,,,,,,,,,,,,,,,,,,,,,
,,,,,,,,,66e8cf54518140fd17d32ae0,Puerto Rican Spanish,younger than 13,"no, only English or Spanish",yes,2025-07-23_20h33.56.046,empathy_intonation_perc_control,2024.2.4,MacIntel,59.52380952,66e8cf54518140fd17d32ae0,68817205a84113384fffdfe3,68817f407a144f6f9a7a604c,,,,,,,,,,,,./stim/wavs/cuban_mismatch_declarative-broad-focus_Mi-novio-viene-del-lago.wav,0,,,102.2246,104.4776,0,1,1.7337,,0,25,25,76,1,77,0,cuban,,,,,,,,,,,,,,,,,,,,,,,,,,,,,,,,,,,,,,,,,,,,,,,,,,,,,,,,
,,,,,,,,,66e8cf54518140fd17d32ae0,Puerto Rican Spanish,younger than 13,"no, only English or Spanish",yes,2025-07-23_20h33.56.046,empathy_intonation_perc_control,2024.2.4,MacIntel,59.52380952,66e8cf54518140fd17d32ae0,68817205a84113384fffdfe3,68817f407a144f6f9a7a604c,,,,,,,,,,,,./stim/wavs/castilian_mismatch_declarative-broad-focus_La-nina-lava-el-plato.wav,0,,,104.478,106.9108,0,1,1.9149,,0,26,26,70,1,71,0,castilian,,,,,,,,,,,,,,,,,,,,,,,,,,,,,,,,,,,,,,,,,,,,,,,,,,,,,,,,
,,,,,,,,,66e8cf54518140fd17d32ae0,Puerto Rican Spanish,younger than 13,"no, only English or Spanish",yes,2025-07-23_20h33.56.046,empathy_intonation_perc_control,2024.2.4,MacIntel,59.52380952,66e8cf54518140fd17d32ae0,68817205a84113384fffdfe3,68817f407a144f6f9a7a604c,,,,,,,,,,,,./stim/wavs/cuban_match_interrogative-total-yn_Manuela-vende-el-carro.wav,1,,,106.9111,109.3945,0,0,1.9496,,0,27,27,8,1,9,1,cuban,,,,,,,,,,,,,,,,,,,,,,,,,,,,,,,,,,,,,,,,,,,,,,,,,,,,,,,,
,,,,,,,,,66e8cf54518140fd17d32ae0,Puerto Rican Spanish,younger than 13,"no, only English or Spanish",yes,2025-07-23_20h33.56.046,empathy_intonation_perc_control,2024.2.4,MacIntel,59.52380952,66e8cf54518140fd17d32ae0,68817205a84113384fffdfe3,68817f407a144f6f9a7a604c,,,,,,,,,,,,./stim/wavs/castilian_match_interrogative-total-yn_Marta-abre-el-regalo.wav,1,,,109.3948,111.9025,1,1,1.9825,,0,28,28,5,1,6,0,castilian,,,,,,,,,,,,,,,,,,,,,,,,,,,,,,,,,,,,,,,,,,,,,,,,,,,,,,,,
,,,,,,,,,66e8cf54518140fd17d32ae0,Puerto Rican Spanish,younger than 13,"no, only English or Spanish",yes,2025-07-23_20h33.56.046,empathy_intonation_perc_control,2024.2.4,MacIntel,59.52380952,66e8cf54518140fd17d32ae0,68817205a84113384fffdfe3,68817f407a144f6f9a7a604c,,,,,,,,,,,,./stim/wavs/castilian_mismatch_interrogative-total-yn_La-nina-lava-el-plato.wav,1,,,111.903,114.2302,0,0,1.8021,,0,29,29,25,1,26,0,castilian,,,,,,,,,,,,,,,,,,,,,,,,,,,,,,,,,,,,,,,,,,,,,,,,,,,,,,,,
,,,,,,,,,66e8cf54518140fd17d32ae0,Puerto Rican Spanish,younger than 13,"no, only English or Spanish",yes,2025-07-23_20h33.56.046,empathy_intonation_perc_control,2024.2.4,MacIntel,59.52380952,66e8cf54518140fd17d32ae0,68817205a84113384fffdfe3,68817f407a144f6f9a7a604c,,,,,,,,,,,,./stim/wavs/mexican_match_declarative-broad-focus_David-leia-el-libro.wav,0,,,114.2305,116.6613,0,1,1.899,,0,30,30,58,1,59,0,mexican,,,,,,,,,,,,,,,,,,,,,,,,,,,,,,,,,,,,,,,,,,,,,,,,,,,,,,,,
,,,,,,,,,66e8cf54518140fd17d32ae0,Puerto Rican Spanish,younger than 13,"no, only English or Spanish",yes,2025-07-23_20h33.56.046,empathy_intonation_perc_control,2024.2.4,MacIntel,59.52380952,66e8cf54518140fd17d32ae0,68817205a84113384fffdfe3,68817f407a144f6f9a7a604c,,,,,,,,,,,,./stim/wavs/mexican_match_declarative-broad-focus_Ana-lleva-el-abrigo.wav,0,,,116.6617,118.8969,0,1,1.7085,,0,31,31,56,1,57,0,mexican,,,,,,,,,,,,,,,,,,,,,,,,,,,,,,,,,,,,,,,,,,,,,,,,,,,,,,,,
,,,,,,,,,66e8cf54518140fd17d32ae0,Puerto Rican Spanish,younger than 13,"no, only English or Spanish",yes,2025-07-23_20h33.56.046,empathy_intonation_perc_control,2024.2.4,MacIntel,59.52380952,66e8cf54518140fd17d32ae0,68817205a84113384fffdfe3,68817f407a144f6f9a7a604c,,,,,,,,,,,,./stim/wavs/castilian_match_declarative-broad-focus_Emilio-ama-la-marcha.wav,0,,,118.8973,121.2938,0,1,1.8669,,0,32,32,45,1,46,0,castilian,,,,,,,,,,,,,,,,,,,,,,,,,,,,,,,,,,,,,,,,,,,,,,,,,,,,,,,,
,,,,,,,,,66e8cf54518140fd17d32ae0,Puerto Rican Spanish,younger than 13,"no, only English or Spanish",yes,2025-07-23_20h33.56.046,empathy_intonation_perc_control,2024.2.4,MacIntel,59.52380952,66e8cf54518140fd17d32ae0,68817205a84113384fffdfe3,68817f407a144f6f9a7a604c,,,,,,,,,,,,./stim/wavs/mexican_mismatch_interrogative-total-yn_Mi-novio-viene-del-lago.wav,1,,,121.2941,123.6931,0,0,1.8675,,0,33,33,37,1,38,0,mexican,,,,,,,,,,,,,,,,,,,,,,,,,,,,,,,,,,,,,,,,,,,,,,,,,,,,,,,,
,,,,,,,,,66e8cf54518140fd17d32ae0,Puerto Rican Spanish,younger than 13,"no, only English or Spanish",yes,2025-07-23_20h33.56.046,empathy_intonation_perc_control,2024.2.4,MacIntel,59.52380952,66e8cf54518140fd17d32ae0,68817205a84113384fffdfe3,68817f407a144f6f9a7a604c,,,,,,,,,,,,./stim/wavs/mexican_mismatch_interrogative-total-yn_La-maestra-vive-en-Paris.wav,1,,,123.6934,126.228,1,1,2.0168,,0,34,34,36,1,37,0,mexican,,,,,,,,,,,,,,,,,,,,,,,,,,,,,,,,,,,,,,,,,,,,,,,,,,,,,,,,
,,,,,,,,,66e8cf54518140fd17d32ae0,Puerto Rican Spanish,younger than 13,"no, only English or Spanish",yes,2025-07-23_20h33.56.046,empathy_intonation_perc_control,2024.2.4,MacIntel,59.52380952,66e8cf54518140fd17d32ae0,68817205a84113384fffdfe3,68817f407a144f6f9a7a604c,,,,,,,,,,,,./stim/wavs/puertorican_match_interrogative-total-yn_Maria-bebe-el-vino.wav,1,,,126.2284,128.7781,1,1,2.0292,,0,35,35,23,1,24,1,puertorican,,,,,,,,,,,,,,,,,,,,,,,,,,,,,,,,,,,,,,,,,,,,,,,,,,,,,,,,
,,,,,,,,,66e8cf54518140fd17d32ae0,Puerto Rican Spanish,younger than 13,"no, only English or Spanish",yes,2025-07-23_20h33.56.046,empathy_intonation_perc_control,2024.2.4,MacIntel,59.52380952,66e8cf54518140fd17d32ae0,68817205a84113384fffdfe3,68817f407a144f6f9a7a604c,,,,,,,,,,,,./stim/wavs/castilian_match_declarative-broad-focus_Manuela-vende-el-carro.wav,0,,,128.7785,131.2661,0,1,1.953,,0,36,36,46,1,47,0,castilian,,,,,,,,,,,,,,,,,,,,,,,,,,,,,,,,,,,,,,,,,,,,,,,,,,,,,,,,
,,,,,,,,,66e8cf54518140fd17d32ae0,Puerto Rican Spanish,younger than 13,"no, only English or Spanish",yes,2025-07-23_20h33.56.046,empathy_intonation_perc_control,2024.2.4,MacIntel,59.52380952,66e8cf54518140fd17d32ae0,68817205a84113384fffdfe3,68817f407a144f6f9a7a604c,,,,,,,,,,,,./stim/wavs/cuban_mismatch_declarative-broad-focus_El-hombre-mira-la-luna.wav,0,,,131.2665,133.5616,0,1,1.7676,,0,37,37,74,1,75,0,cuban,,,,,,,,,,,,,,,,,,,,,,,,,,,,,,,,,,,,,,,,,,,,,,,,,,,,,,,,
,,,,,,,,,66e8cf54518140fd17d32ae0,Puerto Rican Spanish,younger than 13,"no, only English or Spanish",yes,2025-07-23_20h33.56.046,empathy_intonation_perc_control,2024.2.4,MacIntel,59.52380952,66e8cf54518140fd17d32ae0,68817205a84113384fffdfe3,68817f407a144f6f9a7a604c,,,,,,,,,,,,./stim/wavs/puertorican_mismatch_declarative-broad-focus_El-hombre-mira-la-luna.wav,0,,,133.562,135.743,0,1,1.6475,,0,38,38,84,1,85,0,puertorican,,,,,,,,,,,,,,,,,,,,,,,,,,,,,,,,,,,,,,,,,,,,,,,,,,,,,,,,
,,,,,,,,,66e8cf54518140fd17d32ae0,Puerto Rican Spanish,younger than 13,"no, only English or Spanish",yes,2025-07-23_20h33.56.046,empathy_intonation_perc_control,2024.2.4,MacIntel,59.52380952,66e8cf54518140fd17d32ae0,68817205a84113384fffdfe3,68817f407a144f6f9a7a604c,,,,,,,,,,,,./stim/wavs/puertorican_match_declarative-broad-focus_Daniel-iba-a-Bolivia.wav,0,,,135.7433,138.0261,0,1,1.7628,,0,39,39,63,1,64,0,puertorican,,,,,,,,,,,,,,,,,,,,,,,,,,,,,,,,,,,,,,,,,,,,,,,,,,,,,,,,
,,,,,,,,,66e8cf54518140fd17d32ae0,Puerto Rican Spanish,younger than 13,"no, only English or Spanish",yes,2025-07-23_20h33.56.046,empathy_intonation_perc_control,2024.2.4,MacIntel,59.52380952,66e8cf54518140fd17d32ae0,68817205a84113384fffdfe3,68817f407a144f6f9a7a604c,,,,,,,,,,,,./stim/wavs/castilian_match_declarative-broad-focus_Marta-abre-el-regalo.wav,0,,,138.0264,140.5528,0,1,2.0054,,0,40,40,49,1,50,0,castilian,,,,,,,,,,,,,,,,,,,,,,,,,,,,,,,,,,,,,,,,,,,,,,,,,,,,,,,,
,,,,,,,,,66e8cf54518140fd17d32ae0,Puerto Rican Spanish,younger than 13,"no, only English or Spanish",yes,2025-07-23_20h33.56.046,empathy_intonation_perc_control,2024.2.4,MacIntel,59.52380952,66e8cf54518140fd17d32ae0,68817205a84113384fffdfe3,68817f407a144f6f9a7a604c,,,,,,,,,,,,./stim/wavs/cuban_match_declarative-broad-focus_Mariano-habla-del-tiempo.wav,0,,,140.5532,142.9942,0,1,1.9195,,0,41,41,54,1,55,0,cuban,,,,,,,,,,,,,,,,,,,,,,,,,,,,,,,,,,,,,,,,,,,,,,,,,,,,,,,,
,,,,,,,,,66e8cf54518140fd17d32ae0,Puerto Rican Spanish,younger than 13,"no, only English or Spanish",yes,2025-07-23_20h33.56.046,empathy_intonation_perc_control,2024.2.4,MacIntel,59.52380952,66e8cf54518140fd17d32ae0,68817205a84113384fffdfe3,68817f407a144f6f9a7a604c,,,,,,,,,,,,./stim/wavs/castilian_match_declarative-broad-focus_Mariano-habla-del-tiempo.wav,0,,,142.9945,145.5321,0,1,2.0148,,0,42,42,48,1,49,0,castilian,,,,,,,,,,,,,,,,,,,,,,,,,,,,,,,,,,,,,,,,,,,,,,,,,,,,,,,,
,,,,,,,,,66e8cf54518140fd17d32ae0,Puerto Rican Spanish,younger than 13,"no, only English or Spanish",yes,2025-07-23_20h33.56.046,empathy_intonation_perc_control,2024.2.4,MacIntel,59.52380952,66e8cf54518140fd17d32ae0,68817205a84113384fffdfe3,68817f407a144f6f9a7a604c,,,,,,,,,,,,./stim/wavs/puertorican_mismatch_interrogative-total-yn_La-maestra-vive-en-Paris.wav,1,,,145.5326,149.9266,1,1,3.8663,,0,43,43,41,1,42,1,puertorican,,,,,,,,,,,,,,,,,,,,,,,,,,,,,,,,,,,,,,,,,,,,,,,,,,,,,,,,
,,,,,,,,,66e8cf54518140fd17d32ae0,Puerto Rican Spanish,younger than 13,"no, only English or Spanish",yes,2025-07-23_20h33.56.046,empathy_intonation_perc_control,2024.2.4,MacIntel,59.52380952,66e8cf54518140fd17d32ae0,68817205a84113384fffdfe3,68817f407a144f6f9a7a604c,,,,,,,,,,,,./stim/wavs/puertorican_mismatch_declarative-broad-focus_La-maestra-vive-en-Paris.wav,0,,,149.9271,152.2305,0,1,1.784,,0,44,44,86,1,87,0,puertorican,,,,,,,,,,,,,,,,,,,,,,,,,,,,,,,,,,,,,,,,,,,,,,,,,,,,,,,,
,,,,,,,,,66e8cf54518140fd17d32ae0,Puerto Rican Spanish,younger than 13,"no, only English or Spanish",yes,2025-07-23_20h33.56.046,empathy_intonation_perc_control,2024.2.4,MacIntel,59.52380952,66e8cf54518140fd17d32ae0,68817205a84113384fffdfe3,68817f407a144f6f9a7a604c,,,,,,,,,,,,./stim/wavs/castilian_mismatch_interrogative-total-yn_Mi-tia-odia-la-lluvia.wav,1,,,152.2308,154.7113,1,1,1.9528,,0,45,45,28,1,29,0,castilian,,,,,,,,,,,,,,,,,,,,,,,,,,,,,,,,,,,,,,,,,,,,,,,,,,,,,,,,
,,,,,,,,,66e8cf54518140fd17d32ae0,Puerto Rican Spanish,younger than 13,"no, only English or Spanish",yes,2025-07-23_20h33.56.046,empathy_intonation_perc_control,2024.2.4,MacIntel,59.52380952,66e8cf54518140fd17d32ae0,68817205a84113384fffdfe3,68817f407a144f6f9a7a604c,,,,,,,,,,,,./stim/wavs/cuban_mismatch_declarative-broad-focus_Mi-tia-odia-la-lluvia.wav,0,,,154.7117,157.2498,0,1,2.0197,,0,46,46,77,1,78,0,cuban,,,,,,,,,,,,,,,,,,,,,,,,,,,,,,,,,,,,,,,,,,,,,,,,,,,,,,,,
,,,,,,,,,66e8cf54518140fd17d32ae0,Puerto Rican Spanish,younger than 13,"no, only English or Spanish",yes,2025-07-23_20h33.56.046,empathy_intonation_perc_control,2024.2.4,MacIntel,59.52380952,66e8cf54518140fd17d32ae0,68817205a84113384fffdfe3,68817f407a144f6f9a7a604c,,,,,,,,,,,,./stim/wavs/cuban_match_declarative-broad-focus_Ana-lleva-el-abrigo.wav,0,,,157.2503,159.7267,0,1,1.9408,,0,47,47,50,1,51,0,cuban,,,,,,,,,,,,,,,,,,,,,,,,,,,,,,,,,,,,,,,,,,,,,,,,,,,,,,,,
,,,,,,,,,66e8cf54518140fd17d32ae0,Puerto Rican Spanish,younger than 13,"no, only English or Spanish",yes,2025-07-23_20h33.56.046,empathy_intonation_perc_control,2024.2.4,MacIntel,59.52380952,66e8cf54518140fd17d32ae0,68817205a84113384fffdfe3,68817f407a144f6f9a7a604c,,,,,,,,,,,,./stim/wavs/puertorican_match_declarative-broad-focus_Ana-lleva-el-abrigo.wav,0,,,159.7272,161.7591,0,1,1.5077,,0,48,48,62,1,63,0,puertorican,,,,,,,,,,,,,,,,,,,,,,,,,,,,,,,,,,,,,,,,,,,,,,,,,,,,,,,,
,,,,,,,,,66e8cf54518140fd17d32ae0,Puerto Rican Spanish,younger than 13,"no, only English or Spanish",yes,2025-07-23_20h33.56.046,empathy_intonation_perc_control,2024.2.4,MacIntel,59.52380952,66e8cf54518140fd17d32ae0,68817205a84113384fffdfe3,68817f407a144f6f9a7a604c,,,,,,,,,,,,./stim/wavs/castilian_mismatch_interrogative-total-yn_Mi-novio-viene-del-lago.wav,1,,,161.7595,164.4618,0,0,2.1784,,0,49,49,27,1,28,0,castilian,,,,,,,,,,,,,,,,,,,,,,,,,,,,,,,,,,,,,,,,,,,,,,,,,,,,,,,,
,,,,,,,,,66e8cf54518140fd17d32ae0,Puerto Rican Spanish,younger than 13,"no, only English or Spanish",yes,2025-07-23_20h33.56.046,empathy_intonation_perc_control,2024.2.4,MacIntel,59.52380952,66e8cf54518140fd17d32ae0,68817205a84113384fffdfe3,68817f407a144f6f9a7a604c,,,,,,,,,,,,./stim/wavs/puertorican_match_declarative-broad-focus_Maria-bebe-el-vino.wav,0,,,164.4622,166.9633,0,1,1.9843,,0,50,50,67,1,68,0,puertorican,,,,,,,,,,,,,,,,,,,,,,,,,,,,,,,,,,,,,,,,,,,,,,,,,,,,,,,,
,,,,,,,,,66e8cf54518140fd17d32ae0,Puerto Rican Spanish,younger than 13,"no, only English or Spanish",yes,2025-07-23_20h33.56.046,empathy_intonation_perc_control,2024.2.4,MacIntel,59.52380952,66e8cf54518140fd17d32ae0,68817205a84113384fffdfe3,68817f407a144f6f9a7a604c,,,,,,,,,,,,./stim/wavs/mexican_mismatch_interrogative-total-yn_El-nino-oye-el-rio.wav,1,,,166.9637,172.9262,0,0,5.4293,,0,51,51,35,1,36,0,mexican,,,,,,,,,,,,,,,,,,,,,,,,,,,,,,,,,,,,,,,,,,,,,,,,,,,,,,,,
,,,,,,,,,66e8cf54518140fd17d32ae0,Puerto Rican Spanish,younger than 13,"no, only English or Spanish",yes,2025-07-23_20h33.56.046,empathy_intonation_perc_control,2024.2.4,MacIntel,59.52380952,66e8cf54518140fd17d32ae0,68817205a84113384fffdfe3,68817f407a144f6f9a7a604c,,,,,,,,,,,,./stim/wavs/castilian_match_interrogative-total-yn_Manuela-vende-el-carro.wav,1,,,172.9266,175.7756,1,1,2.3259,,0,52,52,2,1,3,0,castilian,,,,,,,,,,,,,,,,,,,,,,,,,,,,,,,,,,,,,,,,,,,,,,,,,,,,,,,,
,,,,,,,,,66e8cf54518140fd17d32ae0,Puerto Rican Spanish,younger than 13,"no, only English or Spanish",yes,2025-07-23_20h33.56.046,empathy_intonation_perc_control,2024.2.4,MacIntel,59.52380952,66e8cf54518140fd17d32ae0,68817205a84113384fffdfe3,68817f407a144f6f9a7a604c,,,,,,,,,,,,./stim/wavs/cuban_match_interrogative-total-yn_Mariano-habla-del-tiempo.wav,1,,,175.776,178.5869,1,1,2.2824,,0,53,53,10,1,11,1,cuban,,,,,,,,,,,,,,,,,,,,,,,,,,,,,,,,,,,,,,,,,,,,,,,,,,,,,,,,
,,,,,,,,,66e8cf54518140fd17d32ae0,Puerto Rican Spanish,younger than 13,"no, only English or Spanish",yes,2025-07-23_20h33.56.046,empathy_intonation_perc_control,2024.2.4,MacIntel,59.52380952,66e8cf54518140fd17d32ae0,68817205a84113384fffdfe3,68817f407a144f6f9a7a604c,,,,,,,,,,,,./stim/wavs/mexican_match_declarative-broad-focus_Marta-abre-el-regalo.wav,0,,,178.5873,180.6905,0,1,1.5775,,0,54,54,61,1,62,0,mexican,,,,,,,,,,,,,,,,,,,,,,,,,,,,,,,,,,,,,,,,,,,,,,,,,,,,,,,,
,,,,,,,,,66e8cf54518140fd17d32ae0,Puerto Rican Spanish,younger than 13,"no, only English or Spanish",yes,2025-07-23_20h33.56.046,empathy_intonation_perc_control,2024.2.4,MacIntel,59.52380952,66e8cf54518140fd17d32ae0,68817205a84113384fffdfe3,68817f407a144f6f9a7a604c,,,,,,,,,,,,./stim/wavs/castilian_match_declarative-broad-focus_David-leia-el-libro.wav,0,,,180.6909,183.4098,0,1,2.2015,,0,55,55,44,1,45,0,castilian,,,,,,,,,,,,,,,,,,,,,,,,,,,,,,,,,,,,,,,,,,,,,,,,,,,,,,,,
,,,,,,,,,66e8cf54518140fd17d32ae0,Puerto Rican Spanish,younger than 13,"no, only English or Spanish",yes,2025-07-23_20h33.56.046,empathy_intonation_perc_control,2024.2.4,MacIntel,59.52380952,66e8cf54518140fd17d32ae0,68817205a84113384fffdfe3,68817f407a144f6f9a7a604c,,,,,,,,,,,,./stim/wavs/castilian_match_interrogative-total-yn_Emilio-ama-la-marcha.wav,1,,,183.4101,186.278,1,1,2.3434,,0,56,56,1,1,2,0,castilian,,,,,,,,,,,,,,,,,,,,,,,,,,,,,,,,,,,,,,,,,,,,,,,,,,,,,,,,
,,,,,,,,,66e8cf54518140fd17d32ae0,Puerto Rican Spanish,younger than 13,"no, only English or Spanish",yes,2025-07-23_20h33.56.046,empathy_intonation_perc_control,2024.2.4,MacIntel,59.52380952,66e8cf54518140fd17d32ae0,68817205a84113384fffdfe3,68817f407a144f6f9a7a604c,,,,,,,,,,,,./stim/wavs/mexican_mismatch_declarative-broad-focus_El-bebe-comia-muy-bien.wav,0,,,186.2783,188.547,0,1,1.7494,,0,57,57,78,1,79,0,mexican,,,,,,,,,,,,,,,,,,,,,,,,,,,,,,,,,,,,,,,,,,,,,,,,,,,,,,,,
,,,,,,,,,66e8cf54518140fd17d32ae0,Puerto Rican Spanish,younger than 13,"no, only English or Spanish",yes,2025-07-23_20h33.56.046,empathy_intonation_perc_control,2024.2.4,MacIntel,59.52380952,66e8cf54518140fd17d32ae0,68817205a84113384fffdfe3,68817f407a144f6f9a7a604c,,,,,,,,,,,,./stim/wavs/castilian_mismatch_declarative-broad-focus_Mi-tia-odia-la-lluvia.wav,0,,,188.5474,191.1593,0,1,2.0963,,0,58,58,72,1,73,0,castilian,,,,,,,,,,,,,,,,,,,,,,,,,,,,,,,,,,,,,,,,,,,,,,,,,,,,,,,,
,,,,,,,,,66e8cf54518140fd17d32ae0,Puerto Rican Spanish,younger than 13,"no, only English or Spanish",yes,2025-07-23_20h33.56.046,empathy_intonation_perc_control,2024.2.4,MacIntel,59.52380952,66e8cf54518140fd17d32ae0,68817205a84113384fffdfe3,68817f407a144f6f9a7a604c,,,,,,,,,,,,./stim/wavs/puertorican_match_interrogative-total-yn_David-leia-el-libro.wav,1,,,191.1597,193.8164,1,1,2.1319,,0,59,59,20,1,21,1,puertorican,,,,,,,,,,,,,,,,,,,,,,,,,,,,,,,,,,,,,,,,,,,,,,,,,,,,,,,,
,,,,,,,,,66e8cf54518140fd17d32ae0,Puerto Rican Spanish,younger than 13,"no, only English or Spanish",yes,2025-07-23_20h33.56.046,empathy_intonation_perc_control,2024.2.4,MacIntel,59.52380952,66e8cf54518140fd17d32ae0,68817205a84113384fffdfe3,68817f407a144f6f9a7a604c,,,,,,,,,,,,./stim/wavs/puertorican_mismatch_interrogative-total-yn_La-nina-lava-el-plato.wav,1,,,193.8167,196.0765,1,1,1.7331,,0,60,60,42,1,43,1,puertorican,,,,,,,,,,,,,,,,,,,,,,,,,,,,,,,,,,,,,,,,,,,,,,,,,,,,,,,,
,,,,,,,,,66e8cf54518140fd17d32ae0,Puerto Rican Spanish,younger than 13,"no, only English or Spanish",yes,2025-07-23_20h33.56.046,empathy_intonation_perc_control,2024.2.4,MacIntel,59.52380952,66e8cf54518140fd17d32ae0,68817205a84113384fffdfe3,68817f407a144f6f9a7a604c,,,,,,,,,,,,./stim/wavs/puertorican_mismatch_interrogative-total-yn_Mi-madre-come-la-fruta.wav,1,,,196.0768,198.5768,0,0,1.9775,,0,61,61,43,1,44,1,puertorican,,,,,,,,,,,,,,,,,,,,,,,,,,,,,,,,,,,,,,,,,,,,,,,,,,,,,,,,
,,,,,,,,,66e8cf54518140fd17d32ae0,Puerto Rican Spanish,younger than 13,"no, only English or Spanish",yes,2025-07-23_20h33.56.046,empathy_intonation_perc_control,2024.2.4,MacIntel,59.52380952,66e8cf54518140fd17d32ae0,68817205a84113384fffdfe3,68817f407a144f6f9a7a604c,,,,,,,,,,,,./stim/wavs/puertorican_mismatch_declarative-broad-focus_El-nino-oye-el-rio.wav,0,,,198.5773,200.7604,0,1,1.6631,,0,62,62,85,1,86,0,puertorican,,,,,,,,,,,,,,,,,,,,,,,,,,,,,,,,,,,,,,,,,,,,,,,,,,,,,,,,
,,,,,,,,,66e8cf54518140fd17d32ae0,Puerto Rican Spanish,younger than 13,"no, only English or Spanish",yes,2025-07-23_20h33.56.046,empathy_intonation_perc_control,2024.2.4,MacIntel,59.52380952,66e8cf54518140fd17d32ae0,68817205a84113384fffdfe3,68817f407a144f6f9a7a604c,,,,,,,,,,,,./stim/wavs/puertorican_mismatch_interrogative-total-yn_El-hombre-mira-la-luna.wav,1,,,200.7607,203.0588,1,1,1.7641,,0,63,63,39,1,40,1,puertorican,,,,,,,,,,,,,,,,,,,,,,,,,,,,,,,,,,,,,,,,,,,,,,,,,,,,,,,,
,,,,,,,,,66e8cf54518140fd17d32ae0,Puerto Rican Spanish,younger than 13,"no, only English or Spanish",yes,2025-07-23_20h33.56.046,empathy_intonation_perc_control,2024.2.4,MacIntel,59.52380952,66e8cf54518140fd17d32ae0,68817205a84113384fffdfe3,68817f407a144f6f9a7a604c,,,,,,,,,,,,./stim/wavs/mexican_match_interrogative-total-yn_Mariano-habla-del-tiempo.wav,1,,,203.0592,205.5316,1,1,1.9392,,0,64,64,16,1,17,0,mexican,,,,,,,,,,,,,,,,,,,,,,,,,,,,,,,,,,,,,,,,,,,,,,,,,,,,,,,,
,,,,,,,,,66e8cf54518140fd17d32ae0,Puerto Rican Spanish,younger than 13,"no, only English or Spanish",yes,2025-07-23_20h33.56.046,empathy_intonation_perc_control,2024.2.4,MacIntel,59.52380952,66e8cf54518140fd17d32ae0,68817205a84113384fffdfe3,68817f407a144f6f9a7a604c,,,,,,,,,,,,./stim/wavs/cuban_mismatch_interrogative-total-yn_Mi-tia-odia-la-lluvia.wav,1,,,205.5318,208.0449,1,1,1.9905,,0,65,65,33,1,34,1,cuban,,,,,,,,,,,,,,,,,,,,,,,,,,,,,,,,,,,,,,,,,,,,,,,,,,,,,,,,
,,,,,,,,,66e8cf54518140fd17d32ae0,Puerto Rican Spanish,younger than 13,"no, only English or Spanish",yes,2025-07-23_20h33.56.046,empathy_intonation_perc_control,2024.2.4,MacIntel,59.52380952,66e8cf54518140fd17d32ae0,68817205a84113384fffdfe3,68817f407a144f6f9a7a604c,,,,,,,,,,,,./stim/wavs/mexican_match_interrogative-total-yn_David-leia-el-libro.wav,1,,,208.0452,210.5807,1,1,2.0151,,0,66,66,14,1,15,0,mexican,,,,,,,,,,,,,,,,,,,,,,,,,,,,,,,,,,,,,,,,,,,,,,,,,,,,,,,,
,,,,,,,,,66e8cf54518140fd17d32ae0,Puerto Rican Spanish,younger than 13,"no, only English or Spanish",yes,2025-07-23_20h33.56.046,empathy_intonation_perc_control,2024.2.4,MacIntel,59.52380952,66e8cf54518140fd17d32ae0,68817205a84113384fffdfe3,68817f407a144f6f9a7a604c,,,,,,,,,,,,./stim/wavs/castilian_match_declarative-broad-focus_Maria-bebe-el-vino.wav,0,,,210.5809,212.9429,0,1,1.8338,,0,67,67,47,1,48,0,castilian,,,,,,,,,,,,,,,,,,,,,,,,,,,,,,,,,,,,,,,,,,,,,,,,,,,,,,,,
,,,,,,,,,66e8cf54518140fd17d32ae0,Puerto Rican Spanish,younger than 13,"no, only English or Spanish",yes,2025-07-23_20h33.56.046,empathy_intonation_perc_control,2024.2.4,MacIntel,59.52380952,66e8cf54518140fd17d32ae0,68817205a84113384fffdfe3,68817f407a144f6f9a7a604c,,,,,,,,,,,,./stim/wavs/puertorican_match_interrogative-total-yn_Emilio-ama-la-marcha.wav,1,,,212.9434,215.7003,1,1,2.2306,,0,68,68,21,1,22,1,puertorican,,,,,,,,,,,,,,,,,,,,,,,,,,,,,,,,,,,,,,,,,,,,,,,,,,,,,,,,
,,,,,,,,,66e8cf54518140fd17d32ae0,Puerto Rican Spanish,younger than 13,"no, only English or Spanish",yes,2025-07-23_20h33.56.046,empathy_intonation_perc_control,2024.2.4,MacIntel,59.52380952,66e8cf54518140fd17d32ae0,68817205a84113384fffdfe3,68817f407a144f6f9a7a604c,,,,,,,,,,,,./stim/wavs/mexican_match_declarative-broad-focus_Mariano-habla-del-tiempo.wav,0,,,215.7007,218.1482,0,1,1.9186,,0,69,69,60,1,61,0,mexican,,,,,,,,,,,,,,,,,,,,,,,,,,,,,,,,,,,,,,,,,,,,,,,,,,,,,,,,
,,,,,,,,,66e8cf54518140fd17d32ae0,Puerto Rican Spanish,younger than 13,"no, only English or Spanish",yes,2025-07-23_20h33.56.046,empathy_intonation_perc_control,2024.2.4,MacIntel,59.52380952,66e8cf54518140fd17d32ae0,68817205a84113384fffdfe3,68817f407a144f6f9a7a604c,,,,,,,,,,,,./stim/wavs/castilian_match_interrogative-total-yn_Maria-bebe-el-vino.wav,1,,,218.1486,220.3609,1,1,1.6793,,0,70,70,3,1,4,0,castilian,,,,,,,,,,,,,,,,,,,,,,,,,,,,,,,,,,,,,,,,,,,,,,,,,,,,,,,,
,,,,,,,,,66e8cf54518140fd17d32ae0,Puerto Rican Spanish,younger than 13,"no, only English or Spanish",yes,2025-07-23_20h33.56.046,empathy_intonation_perc_control,2024.2.4,MacIntel,59.52380952,66e8cf54518140fd17d32ae0,68817205a84113384fffdfe3,68817f407a144f6f9a7a604c,,,,,,,,,,,,./stim/wavs/puertorican_match_interrogative-total-yn_Ana-lleva-el-abrigo.wav,1,,,220.3613,222.5675,1,1,1.6884,,0,71,71,18,1,19,1,puertorican,,,,,,,,,,,,,,,,,,,,,,,,,,,,,,,,,,,,,,,,,,,,,,,,,,,,,,,,
,,,,,,,,,66e8cf54518140fd17d32ae0,Puerto Rican Spanish,younger than 13,"no, only English or Spanish",yes,2025-07-23_20h33.56.046,empathy_intonation_perc_control,2024.2.4,MacIntel,59.52380952,66e8cf54518140fd17d32ae0,68817205a84113384fffdfe3,68817f407a144f6f9a7a604c,,,,,,,,,,,,./stim/wavs/cuban_mismatch_interrogative-total-yn_El-nino-oye-el-rio.wav,1,,,222.5678,224.7778,0,0,1.6792,,0,72,72,30,1,31,1,cuban,,,,,,,,,,,,,,,,,,,,,,,,,,,,,,,,,,,,,,,,,,,,,,,,,,,,,,,,
,,,,,,,,,66e8cf54518140fd17d32ae0,Puerto Rican Spanish,younger than 13,"no, only English or Spanish",yes,2025-07-23_20h33.56.046,empathy_intonation_perc_control,2024.2.4,MacIntel,59.52380952,66e8cf54518140fd17d32ae0,68817205a84113384fffdfe3,68817f407a144f6f9a7a604c,,,,,,,,,,,,./stim/wavs/castilian_mismatch_declarative-broad-focus_El-nino-oye-el-rio.wav,0,,,224.7781,227.0028,0,1,1.694,,0,73,73,68,1,69,0,castilian,,,,,,,,,,,,,,,,,,,,,,,,,,,,,,,,,,,,,,,,,,,,,,,,,,,,,,,,
,,,,,,,,,66e8cf54518140fd17d32ae0,Puerto Rican Spanish,younger than 13,"no, only English or Spanish",yes,2025-07-23_20h33.56.046,empathy_intonation_perc_control,2024.2.4,MacIntel,59.52380952,66e8cf54518140fd17d32ae0,68817205a84113384fffdfe3,68817f407a144f6f9a7a604c,,,,,,,,,,,,./stim/wavs/puertorican_mismatch_interrogative-total-yn_El-nino-oye-el-rio.wav,1,,,227.0033,229.2952,0,0,1.7682,,0,74,74,40,1,41,1,puertorican,,,,,,,,,,,,,,,,,,,,,,,,,,,,,,,,,,,,,,,,,,,,,,,,,,,,,,,,
,,,,,,,,,66e8cf54518140fd17d32ae0,Puerto Rican Spanish,younger than 13,"no, only English or Spanish",yes,2025-07-23_20h33.56.046,empathy_intonation_perc_control,2024.2.4,MacIntel,59.52380952,66e8cf54518140fd17d32ae0,68817205a84113384fffdfe3,68817f407a144f6f9a7a604c,,,,,,,,,,,,./stim/wavs/cuban_mismatch_interrogative-total-yn_Mi-novio-viene-del-lago.wav,1,,,229.2956,231.611,1,1,1.7865,,0,75,75,32,1,33,1,cuban,,,,,,,,,,,,,,,,,,,,,,,,,,,,,,,,,,,,,,,,,,,,,,,,,,,,,,,,
,,,,,,,,,66e8cf54518140fd17d32ae0,Puerto Rican Spanish,younger than 13,"no, only English or Spanish",yes,2025-07-23_20h33.56.046,empathy_intonation_perc_control,2024.2.4,MacIntel,59.52380952,66e8cf54518140fd17d32ae0,68817205a84113384fffdfe3,68817f407a144f6f9a7a604c,,,,,,,,,,,,./stim/wavs/mexican_match_declarative-broad-focus_Daniel-iba-a-Bolivia.wav,0,,,231.6113,234.1129,0,1,1.9695,,0,76,76,57,1,58,0,mexican,,,,,,,,,,,,,,,,,,,,,,,,,,,,,,,,,,,,,,,,,,,,,,,,,,,,,,,,
,,,,,,,,,66e8cf54518140fd17d32ae0,Puerto Rican Spanish,younger than 13,"no, only English or Spanish",yes,2025-07-23_20h33.56.046,empathy_intonation_perc_control,2024.2.4,MacIntel,59.52380952,66e8cf54518140fd17d32ae0,68817205a84113384fffdfe3,68817f407a144f6f9a7a604c,,,,,,,,,,,,./stim/wavs/cuban_mismatch_declarative-broad-focus_El-bebe-comia-muy-bien.wav,0,,,234.1133,236.3774,0,1,1.7452,,0,77,77,73,1,74,0,cuban,,,,,,,,,,,,,,,,,,,,,,,,,,,,,,,,,,,,,,,,,,,,,,,,,,,,,,,,
,,,,,,,,,66e8cf54518140fd17d32ae0,Puerto Rican Spanish,younger than 13,"no, only English or Spanish",yes,2025-07-23_20h33.56.046,empathy_intonation_perc_control,2024.2.4,MacIntel,59.52380952,66e8cf54518140fd17d32ae0,68817205a84113384fffdfe3,68817f407a144f6f9a7a604c,,,,,,,,,,,,./stim/wavs/mexican_mismatch_interrogative-total-yn_El-hombre-mira-la-luna.wav,1,,,236.3778,238.7465,1,1,1.8483,,0,78,78,34,1,35,0,mexican,,,,,,,,,,,,,,,,,,,,,,,,,,,,,,,,,,,,,,,,,,,,,,,,,,,,,,,,
,,,,,,,,,66e8cf54518140fd17d32ae0,Puerto Rican Spanish,younger than 13,"no, only English or Spanish",yes,2025-07-23_20h33.56.046,empathy_intonation_perc_control,2024.2.4,MacIntel,59.52380952,66e8cf54518140fd17d32ae0,68817205a84113384fffdfe3,68817f407a144f6f9a7a604c,,,,,,,,,,,,./stim/wavs/cuban_mismatch_interrogative-total-yn_El-hombre-mira-la-luna.wav,1,,,238.7468,240.7588,0,0,1.4832,,0,79,79,29,1,30,1,cuban,,,,,,,,,,,,,,,,,,,,,,,,,,,,,,,,,,,,,,,,,,,,,,,,,,,,,,,,
,,,,,,,,,66e8cf54518140fd17d32ae0,Puerto Rican Spanish,younger than 13,"no, only English or Spanish",yes,2025-07-23_20h33.56.046,empathy_intonation_perc_control,2024.2.4,MacIntel,59.52380952,66e8cf54518140fd17d32ae0,68817205a84113384fffdfe3,68817f407a144f6f9a7a604c,,,,,,,,,,,,./stim/wavs/castilian_mismatch_interrogative-total-yn_Mi-madre-come-la-fruta.wav,1,,,240.7591,243.3413,1,1,2.0603,,0,80,80,26,1,27,0,castilian,,,,,,,,,,,,,,,,,,,,,,,,,,,,,,,,,,,,,,,,,,,,,,,,,,,,,,,,
,,,,,,,,,66e8cf54518140fd17d32ae0,Puerto Rican Spanish,younger than 13,"no, only English or Spanish",yes,2025-07-23_20h33.56.046,empathy_intonation_perc_control,2024.2.4,MacIntel,59.52380952,66e8cf54518140fd17d32ae0,68817205a84113384fffdfe3,68817f407a144f6f9a7a604c,,,,,,,,,,,,./stim/wavs/castilian_mismatch_interrogative-total-yn_La-maestra-vive-en-Paris.wav,1,,,243.3417,245.8781,1,1,2.0045,,0,81,81,24,1,25,0,castilian,,,,,,,,,,,,,,,,,,,,,,,,,,,,,,,,,,,,,,,,,,,,,,,,,,,,,,,,
,,,,,,,,,66e8cf54518140fd17d32ae0,Puerto Rican Spanish,younger than 13,"no, only English or Spanish",yes,2025-07-23_20h33.56.046,empathy_intonation_perc_control,2024.2.4,MacIntel,59.52380952,66e8cf54518140fd17d32ae0,68817205a84113384fffdfe3,68817f407a144f6f9a7a604c,,,,,,,,,,,,./stim/wavs/cuban_match_declarative-broad-focus_Maria-bebe-el-vino.wav,0,,,245.8785,248.2589,0,1,1.8513,,0,82,82,53,1,54,0,cuban,,,,,,,,,,,,,,,,,,,,,,,,,,,,,,,,,,,,,,,,,,,,,,,,,,,,,,,,
,,,,,,,,,66e8cf54518140fd17d32ae0,Puerto Rican Spanish,younger than 13,"no, only English or Spanish",yes,2025-07-23_20h33.56.046,empathy_intonation_perc_control,2024.2.4,MacIntel,59.52380952,66e8cf54518140fd17d32ae0,68817205a84113384fffdfe3,68817f407a144f6f9a7a604c,,,,,,,,,,,,./stim/wavs/mexican_match_declarative-broad-focus_Emilio-ama-la-marcha.wav,0,,,248.2592,250.5749,0,1,1.7938,,0,83,83,59,1,60,0,mexican,,,,,,,,,,,,,,,,,,,,,,,,,,,,,,,,,,,,,,,,,,,,,,,,,,,,,,,,
,,,,,,,,,66e8cf54518140fd17d32ae0,Puerto Rican Spanish,younger than 13,"no, only English or Spanish",yes,2025-07-23_20h33.56.046,empathy_intonation_perc_control,2024.2.4,MacIntel,59.52380952,66e8cf54518140fd17d32ae0,68817205a84113384fffdfe3,68817f407a144f6f9a7a604c,,,,,,,,,,,,./stim/wavs/mexican_mismatch_interrogative-total-yn_Mi-tia-odia-la-lluvia.wav,1,,,250.5753,253.0132,1,1,1.9098,,0,84,84,38,1,39,0,mexican,,,,,,,,,,,,,,,,,,,,,,,,,,,,,,,,,,,,,,,,,,,,,,,,,,,,,,,,
,,,,,,,,,66e8cf54518140fd17d32ae0,Puerto Rican Spanish,younger than 13,"no, only English or Spanish",yes,2025-07-23_20h33.56.046,empathy_intonation_perc_control,2024.2.4,MacIntel,59.52380952,66e8cf54518140fd17d32ae0,68817205a84113384fffdfe3,68817f407a144f6f9a7a604c,,,,,,,,,,,,./stim/wavs/puertorican_mismatch_declarative-broad-focus_El-bebe-comia-muy-bien.wav,0,,,253.0136,255.3271,0,1,1.7857,,0,85,85,83,1,84,0,puertorican,,,,,,,,,,,,,,,,,,,,,,,,,,,,,,,,,,,,,,,,,,,,,,,,,,,,,,,,
,,,,,,,,,66e8cf54518140fd17d32ae0,Puerto Rican Spanish,younger than 13,"no, only English or Spanish",yes,2025-07-23_20h33.56.046,empathy_intonation_perc_control,2024.2.4,MacIntel,59.52380952,66e8cf54518140fd17d32ae0,68817205a84113384fffdfe3,68817f407a144f6f9a7a604c,,,,,,,,,,,,./stim/wavs/puertorican_mismatch_declarative-broad-focus_La-nina-lava-el-plato.wav,0,,,255.3274,257.4573,0,1,1.5986,,0,86,86,87,1,88,0,puertorican,,,,,,,,,,,,,,,,,,,,,,,,,,,,,,,,,,,,,,,,,,,,,,,,,,,,,,,,
,,,,,,,,,66e8cf54518140fd17d32ae0,Puerto Rican Spanish,younger than 13,"no, only English or Spanish",yes,2025-07-23_20h33.56.046,empathy_intonation_perc_control,2024.2.4,MacIntel,59.52380952,66e8cf54518140fd17d32ae0,68817205a84113384fffdfe3,68817f407a144f6f9a7a604c,,,,,,,,,,,,./stim/wavs/castilian_match_interrogative-total-yn_Mariano-habla-del-tiempo.wav,1,,,257.4577,260.0101,1,1,2.0296,,0,87,87,4,1,5,0,castilian,,,,,,,,,,,,,,,,,,,,,,,,,,,,,,,,,,,,,,,,,,,,,,,,,,,,,,,,
,,,,,,,"Great! Now we will move on. The next task consists of about 60 trials, in each of which you will see a string of letters. 
  
  Your task is to decide whether this is a real Spanish word or not.", (press the spacebar to continue),66e8cf54518140fd17d32ae0,Puerto Rican Spanish,younger than 13,"no, only English or Spanish",yes,2025-07-23_20h33.56.046,empathy_intonation_perc_control,2024.2.4,MacIntel,59.52380952,66e8cf54518140fd17d32ae0,68817205a84113384fffdfe3,68817f407a144f6f9a7a604c,,,,,,,,,,,,,,,,,,,,,,,,,,,,,,260.0153,278.931,0,0,0,0,1,,,,,,,,,,,,,,,,,,,,,,,,,,,,,,,,,,,,,,,,,,,,,,,,,
,,,,,,,"If you think it is an existing Spanish word, you type '1' (for 'REAL'), and if you think it is not an existing Spanish word, you type '0' (for 'FAKE').", (press the spacebar to continue),66e8cf54518140fd17d32ae0,Puerto Rican Spanish,younger than 13,"no, only English or Spanish",yes,2025-07-23_20h33.56.046,empathy_intonation_perc_control,2024.2.4,MacIntel,59.52380952,66e8cf54518140fd17d32ae0,68817205a84113384fffdfe3,68817f407a144f6f9a7a604c,,,,,,,,,,,,,,,,,,,,,,,,,,,,,,278.9321,286.8769,0,1,1,1,1,,,,,,,,,,,,,,,,,,,,,,,,,,,,,,,,,,,,,,,,,,,,,,,,,
,,,,,,,"If you are sure that the word exists, even though you don’t know its exact meaning, you may still respond '1' (REAL). 
  
  But if you are not sure if it is an existing word, you should respond '0' (FAKE).
  
  Let's do a practice round...", (press the spacebar to continue),66e8cf54518140fd17d32ae0,Puerto Rican Spanish,younger than 13,"no, only English or Spanish",yes,2025-07-23_20h33.56.046,empathy_intonation_perc_control,2024.2.4,MacIntel,59.52380952,66e8cf54518140fd17d32ae0,68817205a84113384fffdfe3,68817f407a144f6f9a7a604c,,,,,,,,,,,,,,,,,,,,,,,,,,,,,,286.8783,292.3923,0,2,2,2,1,,,,,,,,,,,,,,,,,,,,,,,,,,,,,,,,,,,,,,,,,,,,,,,,,
,,,,,,,,,66e8cf54518140fd17d32ae0,Puerto Rican Spanish,younger than 13,"no, only English or Spanish",yes,2025-07-23_20h33.56.046,empathy_intonation_perc_control,2024.2.4,MacIntel,59.52380952,66e8cf54518140fd17d32ae0,68817205a84113384fffdfe3,68817f407a144f6f9a7a604c,,,,,,,,,,,,,0,,,,,,,,,,,,,,,,,,,,,,,,292.3974,296.609,0,1,3.669,,296.6093,297.5982,0,0,0,0,1,0,depiste,REAL,FAKE,,,,,,,,,,,,,,,,,,,,,,,,,,,,,,,,
,,,,,,,,,66e8cf54518140fd17d32ae0,Puerto Rican Spanish,younger than 13,"no, only English or Spanish",yes,2025-07-23_20h33.56.046,empathy_intonation_perc_control,2024.2.4,MacIntel,59.52380952,66e8cf54518140fd17d32ae0,68817205a84113384fffdfe3,68817f407a144f6f9a7a604c,,,,,,,,,,,,,1,,,,,,,,,,,,,,,,,,,,,,,,297.5991,299.4187,1,1,1.2791,,299.4187,300.415,0,1,1,1,1,0,sí,REAL,FAKE,,,,,,,,,,,,,,,,,,,,,,,,,,,,,,,,
,,,,,,,,,66e8cf54518140fd17d32ae0,Puerto Rican Spanish,younger than 13,"no, only English or Spanish",yes,2025-07-23_20h33.56.046,empathy_intonation_perc_control,2024.2.4,MacIntel,59.52380952,66e8cf54518140fd17d32ae0,68817205a84113384fffdfe3,68817f407a144f6f9a7a604c,,,,,,,,,,,,,0,,,,,,,,,,,,,,,,,,,,,,,,300.4156,303.1886,1,0,2.2311,,303.189,304.1907,0,2,2,2,1,0,coné,REAL,FAKE,,,,,,,,,,,,,,,,,,,,,,,,,,,,,,,,
,,,,,,,,,66e8cf54518140fd17d32ae0,Puerto Rican Spanish,younger than 13,"no, only English or Spanish",yes,2025-07-23_20h33.56.046,empathy_intonation_perc_control,2024.2.4,MacIntel,59.52380952,66e8cf54518140fd17d32ae0,68817205a84113384fffdfe3,68817f407a144f6f9a7a604c,,,,,,,,,,,,,0,,,,,,,,,,,,,,,,,,,,,,,,304.1916,305.8343,1,0,1.0952,,305.8343,306.8356,0,3,3,3,1,0,calpar,REAL,FAKE,,,,,,,,,,,,,,,,,,,,,,,,,,,,,,,,
,,,,,,,,,66e8cf54518140fd17d32ae0,Puerto Rican Spanish,younger than 13,"no, only English or Spanish",yes,2025-07-23_20h33.56.046,empathy_intonation_perc_control,2024.2.4,MacIntel,59.52380952,66e8cf54518140fd17d32ae0,68817205a84113384fffdfe3,68817f407a144f6f9a7a604c,,,,,,,,,,,,,0,,,,,,,,,,,,,,,,,,,,,,,,306.8363,308.242,0,1,0.8685,,308.2424,309.2295,0,4,4,4,1,0,joten,REAL,FAKE,,,,,,,,,,,,,,,,,,,,,,,,,,,,,,,,
,,,,,,,,,66e8cf54518140fd17d32ae0,Puerto Rican Spanish,younger than 13,"no, only English or Spanish",yes,2025-07-23_20h33.56.046,empathy_intonation_perc_control,2024.2.4,MacIntel,59.52380952,66e8cf54518140fd17d32ae0,68817205a84113384fffdfe3,68817f407a144f6f9a7a604c,,,,,,,,,,,,,1,,,,,,,,,,,,,,,,,,,,,,,,309.2302,311.1584,1,1,1.378,,311.1585,312.1581,0,5,5,5,1,0,sacapuntas,REAL,FAKE,,,,,,,,,,,,,,,,,,,,,,,,,,,,,,,,
,,,,,,,,,66e8cf54518140fd17d32ae0,Puerto Rican Spanish,younger than 13,"no, only English or Spanish",yes,2025-07-23_20h33.56.046,empathy_intonation_perc_control,2024.2.4,MacIntel,59.52380952,66e8cf54518140fd17d32ae0,68817205a84113384fffdfe3,68817f407a144f6f9a7a604c,,,,,,,,,,,,,0,,,,,,,,,,,,,,,,,,,,,,,,312.1589,314.2114,1,0,1.5067,,314.2119,315.2151,0,6,6,6,1,0,priba,REAL,FAKE,,,,,,,,,,,,,,,,,,,,,,,,,,,,,,,,
,,,,,,,,,66e8cf54518140fd17d32ae0,Puerto Rican Spanish,younger than 13,"no, only English or Spanish",yes,2025-07-23_20h33.56.046,empathy_intonation_perc_control,2024.2.4,MacIntel,59.52380952,66e8cf54518140fd17d32ae0,68817205a84113384fffdfe3,68817f407a144f6f9a7a604c,,,,,,,,,,,,,0,,,,,,,,,,,,,,,,,,,,,,,,315.2158,317.2829,0,1,1.5395,,317.2833,318.2781,0,7,7,7,1,0,pelasula,REAL,FAKE,,,,,,,,,,,,,,,,,,,,,,,,,,,,,,,,
,,,,,,,,,66e8cf54518140fd17d32ae0,Puerto Rican Spanish,younger than 13,"no, only English or Spanish",yes,2025-07-23_20h33.56.046,empathy_intonation_perc_control,2024.2.4,MacIntel,59.52380952,66e8cf54518140fd17d32ae0,68817205a84113384fffdfe3,68817f407a144f6f9a7a604c,,,,,,,,,,,,,1,,,,,,,,,,,,,,,,,,,,,,,,318.2788,319.6895,1,1,0.8772,,319.6895,320.685,0,8,8,8,1,0,bien,REAL,FAKE,,,,,,,,,,,,,,,,,,,,,,,,,,,,,,,,
,,,,,,,,,66e8cf54518140fd17d32ae0,Puerto Rican Spanish,younger than 13,"no, only English or Spanish",yes,2025-07-23_20h33.56.046,empathy_intonation_perc_control,2024.2.4,MacIntel,59.52380952,66e8cf54518140fd17d32ae0,68817205a84113384fffdfe3,68817f407a144f6f9a7a604c,,,,,,,,,,,,,1,,,,,,,,,,,,,,,,,,,,,,,,320.6855,322.0433,1,1,0.8214,,322.0433,323.044,0,9,9,9,1,0,casa,REAL,FAKE,,,,,,,,,,,,,,,,,,,,,,,,,,,,,,,,
,,,,,,,,,66e8cf54518140fd17d32ae0,Puerto Rican Spanish,younger than 13,"no, only English or Spanish",yes,2025-07-23_20h33.56.046,empathy_intonation_perc_control,2024.2.4,MacIntel,59.52380952,66e8cf54518140fd17d32ae0,68817205a84113384fffdfe3,68817f407a144f6f9a7a604c,,,,,,,,,,,,,0,,,,,,,,,,,,,,,,,,,,,,,,323.0446,324.4916,1,0,0.9128,,324.4921,325.496,0,10,10,10,1,0,lejo,REAL,FAKE,,,,,,,,,,,,,,,,,,,,,,,,,,,,,,,,
,,,,,,,,,66e8cf54518140fd17d32ae0,Puerto Rican Spanish,younger than 13,"no, only English or Spanish",yes,2025-07-23_20h33.56.046,empathy_intonation_perc_control,2024.2.4,MacIntel,59.52380952,66e8cf54518140fd17d32ae0,68817205a84113384fffdfe3,68817f407a144f6f9a7a604c,,,,,,,,,,,,,0,,,,,,,,,,,,,,,,,,,,,,,,325.4967,327.6914,0,1,1.671,,327.6919,328.6822,0,11,11,11,1,0,pretantas,REAL,FAKE,,,,,,,,,,,,,,,,,,,,,,,,,,,,,,,,
,,,,,,,,,66e8cf54518140fd17d32ae0,Puerto Rican Spanish,younger than 13,"no, only English or Spanish",yes,2025-07-23_20h33.56.046,empathy_intonation_perc_control,2024.2.4,MacIntel,59.52380952,66e8cf54518140fd17d32ae0,68817205a84113384fffdfe3,68817f407a144f6f9a7a604c,,,,,,,,,,,,,,,,,,,,,,,,,,,,,,,,,,,,,,,,,,,,,,,,,,,,,,328.6824,329.9846,,,,,,,,,,,,,,,,,,,,,,,,,,,,,,
,,,,,,,,,66e8cf54518140fd17d32ae0,Puerto Rican Spanish,younger than 13,"no, only English or Spanish",yes,2025-07-23_20h33.56.046,empathy_intonation_perc_control,2024.2.4,MacIntel,59.52380952,66e8cf54518140fd17d32ae0,68817205a84113384fffdfe3,68817f407a144f6f9a7a604c,,,,,,,,,,,,,1,,,,,,,,,,,,,,,,,,,,,,,,,,,,,,,,,,,,,62,flaco,,,,,329.9934,331.3612,1,1,0.8313,,0,0,0,61,1,REAL,FAKE,,,,,,,,,,,,,,,,,
,,,,,,,,,66e8cf54518140fd17d32ae0,Puerto Rican Spanish,younger than 13,"no, only English or Spanish",yes,2025-07-23_20h33.56.046,empathy_intonation_perc_control,2024.2.4,MacIntel,59.52380952,66e8cf54518140fd17d32ae0,68817205a84113384fffdfe3,68817f407a144f6f9a7a604c,,,,,,,,,,,,,1,,,,,,,,,,,,,,,,,,,,,,,,,,,,,,,,,,,,,54,fomentar,,,,,331.3619,333.0752,1,1,1.1698,,0,1,1,53,1,REAL,FAKE,,,,,,,,,,,,,,,,,
,,,,,,,,,66e8cf54518140fd17d32ae0,Puerto Rican Spanish,younger than 13,"no, only English or Spanish",yes,2025-07-23_20h33.56.046,empathy_intonation_perc_control,2024.2.4,MacIntel,59.52380952,66e8cf54518140fd17d32ae0,68817205a84113384fffdfe3,68817f407a144f6f9a7a604c,,,,,,,,,,,,,0,,,,,,,,,,,,,,,,,,,,,,,,,,,,,,,,,,,,,42,cadallo,,,,,333.0759,335.0405,0,1,1.4181,,0,2,2,41,1,REAL,FAKE,,,,,,,,,,,,,,,,,
,,,,,,,,,66e8cf54518140fd17d32ae0,Puerto Rican Spanish,younger than 13,"no, only English or Spanish",yes,2025-07-23_20h33.56.046,empathy_intonation_perc_control,2024.2.4,MacIntel,59.52380952,66e8cf54518140fd17d32ae0,68817205a84113384fffdfe3,68817f407a144f6f9a7a604c,,,,,,,,,,,,,1,,,,,,,,,,,,,,,,,,,,,,,,,,,,,,,,,,,,,28,merodear,,,,,335.0411,337.4578,0,0,1.882,,0,3,3,27,1,REAL,FAKE,,,,,,,,,,,,,,,,,
,,,,,,,,,66e8cf54518140fd17d32ae0,Puerto Rican Spanish,younger than 13,"no, only English or Spanish",yes,2025-07-23_20h33.56.046,empathy_intonation_perc_control,2024.2.4,MacIntel,59.52380952,66e8cf54518140fd17d32ae0,68817205a84113384fffdfe3,68817f407a144f6f9a7a604c,,,,,,,,,,,,,0,,,,,,,,,,,,,,,,,,,,,,,,,,,,,,,,,,,,,32,fatacidad,,,,,337.4583,339.3443,0,1,1.3559,,0,4,4,31,1,REAL,FAKE,,,,,,,,,,,,,,,,,
,,,,,,,,,66e8cf54518140fd17d32ae0,Puerto Rican Spanish,younger than 13,"no, only English or Spanish",yes,2025-07-23_20h33.56.046,empathy_intonation_perc_control,2024.2.4,MacIntel,59.52380952,66e8cf54518140fd17d32ae0,68817205a84113384fffdfe3,68817f407a144f6f9a7a604c,,,,,,,,,,,,,1,,,,,,,,,,,,,,,,,,,,,,,,,,,,,,,,,,,,,90,clavel,,,,,339.3449,341.5765,0,0,1.7044,,0,5,5,89,1,REAL,FAKE,,,,,,,,,,,,,,,,,
,,,,,,,,,66e8cf54518140fd17d32ae0,Puerto Rican Spanish,younger than 13,"no, only English or Spanish",yes,2025-07-23_20h33.56.046,empathy_intonation_perc_control,2024.2.4,MacIntel,59.52380952,66e8cf54518140fd17d32ae0,68817205a84113384fffdfe3,68817f407a144f6f9a7a604c,,,,,,,,,,,,,1,,,,,,,,,,,,,,,,,,,,,,,,,,,,,,,,,,,,,71,polvoriento,,,,,341.5772,344.6432,0,0,2.5196,,0,6,6,70,1,REAL,FAKE,,,,,,,,,,,,,,,,,
,,,,,,,,,66e8cf54518140fd17d32ae0,Puerto Rican Spanish,younger than 13,"no, only English or Spanish",yes,2025-07-23_20h33.56.046,empathy_intonation_perc_control,2024.2.4,MacIntel,59.52380952,66e8cf54518140fd17d32ae0,68817205a84113384fffdfe3,68817f407a144f6f9a7a604c,,,,,,,,,,,,,1,,,,,,,,,,,,,,,,,,,,,,,,,,,,,,,,,,,,,7,pésimo,,,,,344.6438,346.3141,1,1,1.1252,,0,7,7,6,1,REAL,FAKE,,,,,,,,,,,,,,,,,
,,,,,,,,,66e8cf54518140fd17d32ae0,Puerto Rican Spanish,younger than 13,"no, only English or Spanish",yes,2025-07-23_20h33.56.046,empathy_intonation_perc_control,2024.2.4,MacIntel,59.52380952,66e8cf54518140fd17d32ae0,68817205a84113384fffdfe3,68817f407a144f6f9a7a604c,,,,,,,,,,,,,0,,,,,,,,,,,,,,,,,,,,,,,,,,,,,,,,,,,,,33,pauca,,,,,346.3147,349.0023,1,0,2.1466,,0,8,8,32,1,REAL,FAKE,,,,,,,,,,,,,,,,,
,,,,,,,,,66e8cf54518140fd17d32ae0,Puerto Rican Spanish,younger than 13,"no, only English or Spanish",yes,2025-07-23_20h33.56.046,empathy_intonation_perc_control,2024.2.4,MacIntel,59.52380952,66e8cf54518140fd17d32ae0,68817205a84113384fffdfe3,68817f407a144f6f9a7a604c,,,,,,,,,,,,,0,,,,,,,,,,,,,,,,,,,,,,,,,,,,,,,,,,,,,21,capillo,,,,,349.0029,350.3783,1,0,0.8361,,0,9,9,20,1,REAL,FAKE,,,,,,,,,,,,,,,,,
,,,,,,,,,66e8cf54518140fd17d32ae0,Puerto Rican Spanish,younger than 13,"no, only English or Spanish",yes,2025-07-23_20h33.56.046,empathy_intonation_perc_control,2024.2.4,MacIntel,59.52380952,66e8cf54518140fd17d32ae0,68817205a84113384fffdfe3,68817f407a144f6f9a7a604c,,,,,,,,,,,,,1,,,,,,,,,,,,,,,,,,,,,,,,,,,,,,,,,,,,,2,pellizcar,,,,,350.379,352.2724,0,0,1.3497,,0,10,10,1,1,REAL,FAKE,,,,,,,,,,,,,,,,,
,,,,,,,,,66e8cf54518140fd17d32ae0,Puerto Rican Spanish,younger than 13,"no, only English or Spanish",yes,2025-07-23_20h33.56.046,empathy_intonation_perc_control,2024.2.4,MacIntel,59.52380952,66e8cf54518140fd17d32ae0,68817205a84113384fffdfe3,68817f407a144f6f9a7a604c,,,,,,,,,,,,,1,,,,,,,,,,,,,,,,,,,,,,,,,,,,,,,,,,,,,44,cuchara,,,,,352.2729,354.3731,1,1,1.5701,,0,11,11,43,1,REAL,FAKE,,,,,,,,,,,,,,,,,
,,,,,,,,,66e8cf54518140fd17d32ae0,Puerto Rican Spanish,younger than 13,"no, only English or Spanish",yes,2025-07-23_20h33.56.046,empathy_intonation_perc_control,2024.2.4,MacIntel,59.52380952,66e8cf54518140fd17d32ae0,68817205a84113384fffdfe3,68817f407a144f6f9a7a604c,,,,,,,,,,,,,1,,,,,,,,,,,,,,,,,,,,,,,,,,,,,,,,,,,,,52,camisa,,,,,354.3736,356.1106,1,1,1.189,,0,12,12,51,1,REAL,FAKE,,,,,,,,,,,,,,,,,
,,,,,,,,,66e8cf54518140fd17d32ae0,Puerto Rican Spanish,younger than 13,"no, only English or Spanish",yes,2025-07-23_20h33.56.046,empathy_intonation_perc_control,2024.2.4,MacIntel,59.52380952,66e8cf54518140fd17d32ae0,68817205a84113384fffdfe3,68817f407a144f6f9a7a604c,,,,,,,,,,,,,1,,,,,,,,,,,,,,,,,,,,,,,,,,,,,,,,,,,,,81,pozo,,,,,356.1112,358.1085,0,0,1.4637,,0,13,13,80,1,REAL,FAKE,,,,,,,,,,,,,,,,,
,,,,,,,,,66e8cf54518140fd17d32ae0,Puerto Rican Spanish,younger than 13,"no, only English or Spanish",yes,2025-07-23_20h33.56.046,empathy_intonation_perc_control,2024.2.4,MacIntel,59.52380952,66e8cf54518140fd17d32ae0,68817205a84113384fffdfe3,68817f407a144f6f9a7a604c,,,,,,,,,,,,,0,,,,,,,,,,,,,,,,,,,,,,,,,,,,,,,,,,,,,53,vegada,,,,,358.1093,361.3841,0,1,2.7203,,0,14,14,52,1,REAL,FAKE,,,,,,,,,,,,,,,,,
,,,,,,,,,66e8cf54518140fd17d32ae0,Puerto Rican Spanish,younger than 13,"no, only English or Spanish",yes,2025-07-23_20h33.56.046,empathy_intonation_perc_control,2024.2.4,MacIntel,59.52380952,66e8cf54518140fd17d32ae0,68817205a84113384fffdfe3,68817f407a144f6f9a7a604c,,,,,,,,,,,,,1,,,,,,,,,,,,,,,,,,,,,,,,,,,,,,,,,,,,,11,cenefa,,,,,361.3847,362.8786,0,0,0.9686,,0,15,15,10,1,REAL,FAKE,,,,,,,,,,,,,,,,,
,,,,,,,,,66e8cf54518140fd17d32ae0,Puerto Rican Spanish,younger than 13,"no, only English or Spanish",yes,2025-07-23_20h33.56.046,empathy_intonation_perc_control,2024.2.4,MacIntel,59.52380952,66e8cf54518140fd17d32ae0,68817205a84113384fffdfe3,68817f407a144f6f9a7a604c,,,,,,,,,,,,,0,,,,,,,,,,,,,,,,,,,,,,,,,,,,,,,,,,,,,63,esposante,,,,,362.8791,365.2398,1,0,1.8135,,0,16,16,62,1,REAL,FAKE,,,,,,,,,,,,,,,,,
,,,,,,,,,66e8cf54518140fd17d32ae0,Puerto Rican Spanish,younger than 13,"no, only English or Spanish",yes,2025-07-23_20h33.56.046,empathy_intonation_perc_control,2024.2.4,MacIntel,59.52380952,66e8cf54518140fd17d32ae0,68817205a84113384fffdfe3,68817f407a144f6f9a7a604c,,,,,,,,,,,,,1,,,,,,,,,,,,,,,,,,,,,,,,,,,,,,,,,,,,,73,hervidor,,,,,365.2405,366.779,1,1,1.0099,,0,17,17,72,1,REAL,FAKE,,,,,,,,,,,,,,,,,
,,,,,,,,,66e8cf54518140fd17d32ae0,Puerto Rican Spanish,younger than 13,"no, only English or Spanish",yes,2025-07-23_20h33.56.046,empathy_intonation_perc_control,2024.2.4,MacIntel,59.52380952,66e8cf54518140fd17d32ae0,68817205a84113384fffdfe3,68817f407a144f6f9a7a604c,,,,,,,,,,,,,0,,,,,,,,,,,,,,,,,,,,,,,,,,,,,,,,,,,,,16,abracer,,,,,366.7797,368.0768,1,0,0.7529,,0,18,18,15,1,REAL,FAKE,,,,,,,,,,,,,,,,,
,,,,,,,,,66e8cf54518140fd17d32ae0,Puerto Rican Spanish,younger than 13,"no, only English or Spanish",yes,2025-07-23_20h33.56.046,empathy_intonation_perc_control,2024.2.4,MacIntel,59.52380952,66e8cf54518140fd17d32ae0,68817205a84113384fffdfe3,68817f407a144f6f9a7a604c,,,,,,,,,,,,,1,,,,,,,,,,,,,,,,,,,,,,,,,,,,,,,,,,,,,88,acantilado,,,,,368.0773,370.025,1,1,1.3989,,0,19,19,87,1,REAL,FAKE,,,,,,,,,,,,,,,,,
,,,,,,,,,66e8cf54518140fd17d32ae0,Puerto Rican Spanish,younger than 13,"no, only English or Spanish",yes,2025-07-23_20h33.56.046,empathy_intonation_perc_control,2024.2.4,MacIntel,59.52380952,66e8cf54518140fd17d32ae0,68817205a84113384fffdfe3,68817f407a144f6f9a7a604c,,,,,,,,,,,,,1,,,,,,,,,,,,,,,,,,,,,,,,,,,,,,,,,,,,,80,hormiga,,,,,370.0256,371.6344,1,1,1.0699,,0,20,20,79,1,REAL,FAKE,,,,,,,,,,,,,,,,,
,,,,,,,,,66e8cf54518140fd17d32ae0,Puerto Rican Spanish,younger than 13,"no, only English or Spanish",yes,2025-07-23_20h33.56.046,empathy_intonation_perc_control,2024.2.4,MacIntel,59.52380952,66e8cf54518140fd17d32ae0,68817205a84113384fffdfe3,68817f407a144f6f9a7a604c,,,,,,,,,,,,,1,,,,,,,,,,,,,,,,,,,,,,,,,,,,,,,,,,,,,46,martillo,,,,,371.6349,373.1435,1,1,0.9694,,0,21,21,45,1,REAL,FAKE,,,,,,,,,,,,,,,,,
,,,,,,,,,66e8cf54518140fd17d32ae0,Puerto Rican Spanish,younger than 13,"no, only English or Spanish",yes,2025-07-23_20h33.56.046,empathy_intonation_perc_control,2024.2.4,MacIntel,59.52380952,66e8cf54518140fd17d32ae0,68817205a84113384fffdfe3,68817f407a144f6f9a7a604c,,,,,,,,,,,,,1,,,,,,,,,,,,,,,,,,,,,,,,,,,,,,,,,,,,,57,tacaño,,,,,373.1441,376.0252,0,0,2.3484,,0,22,22,56,1,REAL,FAKE,,,,,,,,,,,,,,,,,
,,,,,,,,,66e8cf54518140fd17d32ae0,Puerto Rican Spanish,younger than 13,"no, only English or Spanish",yes,2025-07-23_20h33.56.046,empathy_intonation_perc_control,2024.2.4,MacIntel,59.52380952,66e8cf54518140fd17d32ae0,68817205a84113384fffdfe3,68817f407a144f6f9a7a604c,,,,,,,,,,,,,1,,,,,,,,,,,,,,,,,,,,,,,,,,,,,,,,,,,,,56,musgo,,,,,376.0258,377.5437,0,0,0.9825,,0,23,23,55,1,REAL,FAKE,,,,,,,,,,,,,,,,,
,,,,,,,,,66e8cf54518140fd17d32ae0,Puerto Rican Spanish,younger than 13,"no, only English or Spanish",yes,2025-07-23_20h33.56.046,empathy_intonation_perc_control,2024.2.4,MacIntel,59.52380952,66e8cf54518140fd17d32ae0,68817205a84113384fffdfe3,68817f407a144f6f9a7a604c,,,,,,,,,,,,,1,,,,,,,,,,,,,,,,,,,,,,,,,,,,,,,,,,,,,40,alfombra,,,,,377.5443,379.3648,1,1,1.2773,,0,24,24,39,1,REAL,FAKE,,,,,,,,,,,,,,,,,
,,,,,,,,,66e8cf54518140fd17d32ae0,Puerto Rican Spanish,younger than 13,"no, only English or Spanish",yes,2025-07-23_20h33.56.046,empathy_intonation_perc_control,2024.2.4,MacIntel,59.52380952,66e8cf54518140fd17d32ae0,68817205a84113384fffdfe3,68817f407a144f6f9a7a604c,,,,,,,,,,,,,0,,,,,,,,,,,,,,,,,,,,,,,,,,,,,,,,,,,,,84,escuto,,,,,379.3655,381.1411,0,1,1.248,,0,25,25,83,1,REAL,FAKE,,,,,,,,,,,,,,,,,
,,,,,,,,,66e8cf54518140fd17d32ae0,Puerto Rican Spanish,younger than 13,"no, only English or Spanish",yes,2025-07-23_20h33.56.046,empathy_intonation_perc_control,2024.2.4,MacIntel,59.52380952,66e8cf54518140fd17d32ae0,68817205a84113384fffdfe3,68817f407a144f6f9a7a604c,,,,,,,,,,,,,1,,,,,,,,,,,,,,,,,,,,,,,,,,,,,,,,,,,,,77,tiburón,,,,,381.1417,382.728,1,1,1.0394,,0,26,26,76,1,REAL,FAKE,,,,,,,,,,,,,,,,,
,,,,,,,,,66e8cf54518140fd17d32ae0,Puerto Rican Spanish,younger than 13,"no, only English or Spanish",yes,2025-07-23_20h33.56.046,empathy_intonation_perc_control,2024.2.4,MacIntel,59.52380952,66e8cf54518140fd17d32ae0,68817205a84113384fffdfe3,68817f407a144f6f9a7a604c,,,,,,,,,,,,,0,,,,,,,,,,,,,,,,,,,,,,,,,,,,,,,,,,,,,70,temblo,,,,,382.7286,384.3937,1,0,1.1392,,0,27,27,69,1,REAL,FAKE,,,,,,,,,,,,,,,,,
,,,,,,,,,66e8cf54518140fd17d32ae0,Puerto Rican Spanish,younger than 13,"no, only English or Spanish",yes,2025-07-23_20h33.56.046,empathy_intonation_perc_control,2024.2.4,MacIntel,59.52380952,66e8cf54518140fd17d32ae0,68817205a84113384fffdfe3,68817f407a144f6f9a7a604c,,,,,,,,,,,,,1,,,,,,,,,,,,,,,,,,,,,,,,,,,,,,,,,,,,,31,pandilla,,,,,384.3942,386.3701,1,1,1.4324,,0,28,28,30,1,REAL,FAKE,,,,,,,,,,,,,,,,,
,,,,,,,,,66e8cf54518140fd17d32ae0,Puerto Rican Spanish,younger than 13,"no, only English or Spanish",yes,2025-07-23_20h33.56.046,empathy_intonation_perc_control,2024.2.4,MacIntel,59.52380952,66e8cf54518140fd17d32ae0,68817205a84113384fffdfe3,68817f407a144f6f9a7a604c,,,,,,,,,,,,,1,,,,,,,,,,,,,,,,,,,,,,,,,,,,,,,,,,,,,5,zapato,,,,,386.3708,387.6592,1,1,0.7661,,0,29,29,4,1,REAL,FAKE,,,,,,,,,,,,,,,,,
,,,,,,,,,66e8cf54518140fd17d32ae0,Puerto Rican Spanish,younger than 13,"no, only English or Spanish",yes,2025-07-23_20h33.56.046,empathy_intonation_perc_control,2024.2.4,MacIntel,59.52380952,66e8cf54518140fd17d32ae0,68817205a84113384fffdfe3,68817f407a144f6f9a7a604c,,,,,,,,,,,,,0,,,,,,,,,,,,,,,,,,,,,,,,,,,,,,,,,,,,,72,pemición,,,,,387.6597,389.8827,1,0,1.6914,,0,30,30,71,1,REAL,FAKE,,,,,,,,,,,,,,,,,
,,,,,,,,,66e8cf54518140fd17d32ae0,Puerto Rican Spanish,younger than 13,"no, only English or Spanish",yes,2025-07-23_20h33.56.046,empathy_intonation_perc_control,2024.2.4,MacIntel,59.52380952,66e8cf54518140fd17d32ae0,68817205a84113384fffdfe3,68817f407a144f6f9a7a604c,,,,,,,,,,,,,1,,,,,,,,,,,,,,,,,,,,,,,,,,,,,,,,,,,,,34,aviso,,,,,389.8834,391.2139,1,1,0.7849,,0,31,31,33,1,REAL,FAKE,,,,,,,,,,,,,,,,,
,,,,,,,,,66e8cf54518140fd17d32ae0,Puerto Rican Spanish,younger than 13,"no, only English or Spanish",yes,2025-07-23_20h33.56.046,empathy_intonation_perc_control,2024.2.4,MacIntel,59.52380952,66e8cf54518140fd17d32ae0,68817205a84113384fffdfe3,68817f407a144f6f9a7a604c,,,,,,,,,,,,,1,,,,,,,,,,,,,,,,,,,,,,,,,,,,,,,,,,,,,43,canela,,,,,391.2144,392.672,1,1,0.931,,0,32,32,42,1,REAL,FAKE,,,,,,,,,,,,,,,,,
,,,,,,,,,66e8cf54518140fd17d32ae0,Puerto Rican Spanish,younger than 13,"no, only English or Spanish",yes,2025-07-23_20h33.56.046,empathy_intonation_perc_control,2024.2.4,MacIntel,59.52380952,66e8cf54518140fd17d32ae0,68817205a84113384fffdfe3,68817f407a144f6f9a7a604c,,,,,,,,,,,,,1,,,,,,,,,,,,,,,,,,,,,,,,,,,,,,,,,,,,,22,lacayo,,,,,392.6726,395.1981,0,0,1.9874,,0,33,33,21,1,REAL,FAKE,,,,,,,,,,,,,,,,,
,,,,,,,,,66e8cf54518140fd17d32ae0,Puerto Rican Spanish,younger than 13,"no, only English or Spanish",yes,2025-07-23_20h33.56.046,empathy_intonation_perc_control,2024.2.4,MacIntel,59.52380952,66e8cf54518140fd17d32ae0,68817205a84113384fffdfe3,68817f407a144f6f9a7a604c,,,,,,,,,,,,,1,,,,,,,,,,,,,,,,,,,,,,,,,,,,,,,,,,,,,38,estornudar,,,,,395.1987,397.1067,1,1,1.3691,,0,34,34,37,1,REAL,FAKE,,,,,,,,,,,,,,,,,
,,,,,,,,,66e8cf54518140fd17d32ae0,Puerto Rican Spanish,younger than 13,"no, only English or Spanish",yes,2025-07-23_20h33.56.046,empathy_intonation_perc_control,2024.2.4,MacIntel,59.52380952,66e8cf54518140fd17d32ae0,68817205a84113384fffdfe3,68817f407a144f6f9a7a604c,,,,,,,,,,,,,0,,,,,,,,,,,,,,,,,,,,,,,,,,,,,,,,,,,,,4,batillón,,,,,397.1073,398.6074,1,0,0.9637,,0,35,35,3,1,REAL,FAKE,,,,,,,,,,,,,,,,,
,,,,,,,,,66e8cf54518140fd17d32ae0,Puerto Rican Spanish,younger than 13,"no, only English or Spanish",yes,2025-07-23_20h33.56.046,empathy_intonation_perc_control,2024.2.4,MacIntel,59.52380952,66e8cf54518140fd17d32ae0,68817205a84113384fffdfe3,68817f407a144f6f9a7a604c,,,,,,,,,,,,,1,,,,,,,,,,,,,,,,,,,,,,,,,,,,,,,,,,,,,68,alegre,,,,,398.608,400.2378,1,1,1.0841,,0,36,36,67,1,REAL,FAKE,,,,,,,,,,,,,,,,,
,,,,,,,,,66e8cf54518140fd17d32ae0,Puerto Rican Spanish,younger than 13,"no, only English or Spanish",yes,2025-07-23_20h33.56.046,empathy_intonation_perc_control,2024.2.4,MacIntel,59.52380952,66e8cf54518140fd17d32ae0,68817205a84113384fffdfe3,68817f407a144f6f9a7a604c,,,,,,,,,,,,,0,,,,,,,,,,,,,,,,,,,,,,,,,,,,,,,,,,,,,92,click the 0 key.,,,,,400.2386,402.1568,0,1,1.3869,,0,37,37,91,1,REAL,FAKE,,,,,,,,,,,,,,,,,
,,,,,,,,,66e8cf54518140fd17d32ae0,Puerto Rican Spanish,younger than 13,"no, only English or Spanish",yes,2025-07-23_20h33.56.046,empathy_intonation_perc_control,2024.2.4,MacIntel,59.52380952,66e8cf54518140fd17d32ae0,68817205a84113384fffdfe3,68817f407a144f6f9a7a604c,,,,,,,,,,,,,1,,,,,,,,,,,,,,,,,,,,,,,,,,,,,,,,,,,,,55,nevar,,,,,402.1574,403.865,0,0,1.1615,,0,38,38,54,1,REAL,FAKE,,,,,,,,,,,,,,,,,
,,,,,,,,,66e8cf54518140fd17d32ae0,Puerto Rican Spanish,younger than 13,"no, only English or Spanish",yes,2025-07-23_20h33.56.046,empathy_intonation_perc_control,2024.2.4,MacIntel,59.52380952,66e8cf54518140fd17d32ae0,68817205a84113384fffdfe3,68817f407a144f6f9a7a604c,,,,,,,,,,,,,1,,,,,,,,,,,,,,,,,,,,,,,,,,,,,,,,,,,,,61,seda,,,,,403.8655,405.6097,0,0,1.2015,,0,39,39,60,1,REAL,FAKE,,,,,,,,,,,,,,,,,
,,,,,,,,,66e8cf54518140fd17d32ae0,Puerto Rican Spanish,younger than 13,"no, only English or Spanish",yes,2025-07-23_20h33.56.046,empathy_intonation_perc_control,2024.2.4,MacIntel,59.52380952,66e8cf54518140fd17d32ae0,68817205a84113384fffdfe3,68817f407a144f6f9a7a604c,,,,,,,,,,,,,0,,,,,,,,,,,,,,,,,,,,,,,,,,,,,,,,,,,,,50,flamida,,,,,405.6104,407.4433,0,1,1.2999,,0,40,40,49,1,REAL,FAKE,,,,,,,,,,,,,,,,,
,,,,,,,,,66e8cf54518140fd17d32ae0,Puerto Rican Spanish,younger than 13,"no, only English or Spanish",yes,2025-07-23_20h33.56.046,empathy_intonation_perc_control,2024.2.4,MacIntel,59.52380952,66e8cf54518140fd17d32ae0,68817205a84113384fffdfe3,68817f407a144f6f9a7a604c,,,,,,,,,,,,,0,,,,,,,,,,,,,,,,,,,,,,,,,,,,,,,,,,,,,17,floroso,,,,,407.444,409.1408,0,1,1.1642,,0,41,41,16,1,REAL,FAKE,,,,,,,,,,,,,,,,,
,,,,,,,,,66e8cf54518140fd17d32ae0,Puerto Rican Spanish,younger than 13,"no, only English or Spanish",yes,2025-07-23_20h33.56.046,empathy_intonation_perc_control,2024.2.4,MacIntel,59.52380952,66e8cf54518140fd17d32ae0,68817205a84113384fffdfe3,68817f407a144f6f9a7a604c,,,,,,,,,,,,,0,,,,,,,,,,,,,,,,,,,,,,,,,,,,,,,,,,,,,74,cintro,,,,,409.1415,410.5125,1,0,0.845,,0,42,42,73,1,REAL,FAKE,,,,,,,,,,,,,,,,,
,,,,,,,,,66e8cf54518140fd17d32ae0,Puerto Rican Spanish,younger than 13,"no, only English or Spanish",yes,2025-07-23_20h33.56.046,empathy_intonation_perc_control,2024.2.4,MacIntel,59.52380952,66e8cf54518140fd17d32ae0,68817205a84113384fffdfe3,68817f407a144f6f9a7a604c,,,,,,,,,,,,,0,,,,,,,,,,,,,,,,,,,,,,,,,,,,,,,,,,,,,87,grodo,,,,,410.5132,412.161,1,0,1.1215,,0,43,43,86,1,REAL,FAKE,,,,,,,,,,,,,,,,,
,,,,,,,,,66e8cf54518140fd17d32ae0,Puerto Rican Spanish,younger than 13,"no, only English or Spanish",yes,2025-07-23_20h33.56.046,empathy_intonation_perc_control,2024.2.4,MacIntel,59.52380952,66e8cf54518140fd17d32ae0,68817205a84113384fffdfe3,68817f407a144f6f9a7a604c,,,,,,,,,,,,,1,,,,,,,,,,,,,,,,,,,,,,,,,,,,,,,,,,,,,9,hacha,,,,,412.1617,413.8225,1,1,1.1278,,0,44,44,8,1,REAL,FAKE,,,,,,,,,,,,,,,,,
,,,,,,,,,66e8cf54518140fd17d32ae0,Puerto Rican Spanish,younger than 13,"no, only English or Spanish",yes,2025-07-23_20h33.56.046,empathy_intonation_perc_control,2024.2.4,MacIntel,59.52380952,66e8cf54518140fd17d32ae0,68817205a84113384fffdfe3,68817f407a144f6f9a7a604c,,,,,,,,,,,,,1,,,,,,,,,,,,,,,,,,,,,,,,,,,,,,,,,,,,,14,yunque,,,,,413.8232,415.3964,1,1,1.0364,,0,45,45,13,1,REAL,FAKE,,,,,,,,,,,,,,,,,
,,,,,,,,,66e8cf54518140fd17d32ae0,Puerto Rican Spanish,younger than 13,"no, only English or Spanish",yes,2025-07-23_20h33.56.046,empathy_intonation_perc_control,2024.2.4,MacIntel,59.52380952,66e8cf54518140fd17d32ae0,68817205a84113384fffdfe3,68817f407a144f6f9a7a604c,,,,,,,,,,,,,1,,,,,,,,,,,,,,,,,,,,,,,,,,,,,,,,,,,,,37,granuja,,,,,415.3972,417.3825,1,1,1.4359,,0,46,46,36,1,REAL,FAKE,,,,,,,,,,,,,,,,,
,,,,,,,,,66e8cf54518140fd17d32ae0,Puerto Rican Spanish,younger than 13,"no, only English or Spanish",yes,2025-07-23_20h33.56.046,empathy_intonation_perc_control,2024.2.4,MacIntel,59.52380952,66e8cf54518140fd17d32ae0,68817205a84113384fffdfe3,68817f407a144f6f9a7a604c,,,,,,,,,,,,,1,,,,,,,,,,,,,,,,,,,,,,,,,,,,,,,,,,,,,36,loro,,,,,417.3832,418.8167,1,1,0.8966,,0,47,47,35,1,REAL,FAKE,,,,,,,,,,,,,,,,,
,,,,,,,,,66e8cf54518140fd17d32ae0,Puerto Rican Spanish,younger than 13,"no, only English or Spanish",yes,2025-07-23_20h33.56.046,empathy_intonation_perc_control,2024.2.4,MacIntel,59.52380952,66e8cf54518140fd17d32ae0,68817205a84113384fffdfe3,68817f407a144f6f9a7a604c,,,,,,,,,,,,,1,,,,,,,,,,,,,,,,,,,,,,,,,,,,,,,,,,,,,26,secuestro,,,,,418.8172,420.4745,1,1,1.1314,,0,48,48,25,1,REAL,FAKE,,,,,,,,,,,,,,,,,
,,,,,,,,,66e8cf54518140fd17d32ae0,Puerto Rican Spanish,younger than 13,"no, only English or Spanish",yes,2025-07-23_20h33.56.046,empathy_intonation_perc_control,2024.2.4,MacIntel,59.52380952,66e8cf54518140fd17d32ae0,68817205a84113384fffdfe3,68817f407a144f6f9a7a604c,,,,,,,,,,,,,0,,,,,,,,,,,,,,,,,,,,,,,,,,,,,,,,,,,,,66,hacido,,,,,420.4751,422.0583,1,0,1.0376,,0,49,49,65,1,REAL,FAKE,,,,,,,,,,,,,,,,,
,,,,,,,,,66e8cf54518140fd17d32ae0,Puerto Rican Spanish,younger than 13,"no, only English or Spanish",yes,2025-07-23_20h33.56.046,empathy_intonation_perc_control,2024.2.4,MacIntel,59.52380952,66e8cf54518140fd17d32ae0,68817205a84113384fffdfe3,68817f407a144f6f9a7a604c,,,,,,,,,,,,,0,,,,,,,,,,,,,,,,,,,,,,,,,,,,,,,,,,,,,47,cartinar,,,,,422.059,424.1098,0,1,1.5054,,0,50,50,46,1,REAL,FAKE,,,,,,,,,,,,,,,,,
,,,,,,,,,66e8cf54518140fd17d32ae0,Puerto Rican Spanish,younger than 13,"no, only English or Spanish",yes,2025-07-23_20h33.56.046,empathy_intonation_perc_control,2024.2.4,MacIntel,59.52380952,66e8cf54518140fd17d32ae0,68817205a84113384fffdfe3,68817f407a144f6f9a7a604c,,,,,,,,,,,,,1,,,,,,,,,,,,,,,,,,,,,,,,,,,,,,,,,,,,,13,helar,,,,,424.1104,426.5938,0,0,1.952,,0,51,51,12,1,REAL,FAKE,,,,,,,,,,,,,,,,,
,,,,,,,,,66e8cf54518140fd17d32ae0,Puerto Rican Spanish,younger than 13,"no, only English or Spanish",yes,2025-07-23_20h33.56.046,empathy_intonation_perc_control,2024.2.4,MacIntel,59.52380952,66e8cf54518140fd17d32ae0,68817205a84113384fffdfe3,68817f407a144f6f9a7a604c,,,,,,,,,,,,,1,,,,,,,,,,,,,,,,,,,,,,,,,,,,,,,,,,,,,60,matar,,,,,426.5944,427.9054,1,1,0.7837,,0,52,52,59,1,REAL,FAKE,,,,,,,,,,,,,,,,,
,,,,,,,,,66e8cf54518140fd17d32ae0,Puerto Rican Spanish,younger than 13,"no, only English or Spanish",yes,2025-07-23_20h33.56.046,empathy_intonation_perc_control,2024.2.4,MacIntel,59.52380952,66e8cf54518140fd17d32ae0,68817205a84113384fffdfe3,68817f407a144f6f9a7a604c,,,,,,,,,,,,,1,,,,,,,,,,,,,,,,,,,,,,,,,,,,,,,,,,,,,59,besar,,,,,427.9061,429.1067,1,1,0.6696,,0,53,53,58,1,REAL,FAKE,,,,,,,,,,,,,,,,,
,,,,,,,,,66e8cf54518140fd17d32ae0,Puerto Rican Spanish,younger than 13,"no, only English or Spanish",yes,2025-07-23_20h33.56.046,empathy_intonation_perc_control,2024.2.4,MacIntel,59.52380952,66e8cf54518140fd17d32ae0,68817205a84113384fffdfe3,68817f407a144f6f9a7a604c,,,,,,,,,,,,,1,,,,,,,,,,,,,,,,,,,,,,,,,,,,,,,,,,,,,51,candado,,,,,429.1072,431.4992,0,0,1.8449,,0,54,54,50,1,REAL,FAKE,,,,,,,,,,,,,,,,,
,,,,,,,,,66e8cf54518140fd17d32ae0,Puerto Rican Spanish,younger than 13,"no, only English or Spanish",yes,2025-07-23_20h33.56.046,empathy_intonation_perc_control,2024.2.4,MacIntel,59.52380952,66e8cf54518140fd17d32ae0,68817205a84113384fffdfe3,68817f407a144f6f9a7a604c,,,,,,,,,,,,,1,,,,,,,,,,,,,,,,,,,,,,,,,,,,,,,,,,,,,67,cabello,,,,,431.4999,432.8451,1,1,0.8233,,0,55,55,66,1,REAL,FAKE,,,,,,,,,,,,,,,,,
,,,,,,,,,66e8cf54518140fd17d32ae0,Puerto Rican Spanish,younger than 13,"no, only English or Spanish",yes,2025-07-23_20h33.56.046,empathy_intonation_perc_control,2024.2.4,MacIntel,59.52380952,66e8cf54518140fd17d32ae0,68817205a84113384fffdfe3,68817f407a144f6f9a7a604c,,,,,,,,,,,,,1,,,,,,,,,,,,,,,,,,,,,,,,,,,,,,,,,,,,,6,tergiversar,,,,,432.8458,434.7393,0,0,1.3526,,0,56,56,5,1,REAL,FAKE,,,,,,,,,,,,,,,,,
,,,,,,,,,66e8cf54518140fd17d32ae0,Puerto Rican Spanish,younger than 13,"no, only English or Spanish",yes,2025-07-23_20h33.56.046,empathy_intonation_perc_control,2024.2.4,MacIntel,59.52380952,66e8cf54518140fd17d32ae0,68817205a84113384fffdfe3,68817f407a144f6f9a7a604c,,,,,,,,,,,,,1,,,,,,,,,,,,,,,,,,,,,,,,,,,,,,,,,,,,,69,engatusar,,,,,434.7401,436.6663,0,0,1.3892,,0,57,57,68,1,REAL,FAKE,,,,,,,,,,,,,,,,,
,,,,,,,,,66e8cf54518140fd17d32ae0,Puerto Rican Spanish,younger than 13,"no, only English or Spanish",yes,2025-07-23_20h33.56.046,empathy_intonation_perc_control,2024.2.4,MacIntel,59.52380952,66e8cf54518140fd17d32ae0,68817205a84113384fffdfe3,68817f407a144f6f9a7a604c,,,,,,,,,,,,,1,,,,,,,,,,,,,,,,,,,,,,,,,,,,,,,,,,,,,86,barato,,,,,436.667,438.5553,1,1,1.3463,,0,58,58,85,1,REAL,FAKE,,,,,,,,,,,,,,,,,
,,,,,,,,,66e8cf54518140fd17d32ae0,Puerto Rican Spanish,younger than 13,"no, only English or Spanish",yes,2025-07-23_20h33.56.046,empathy_intonation_perc_control,2024.2.4,MacIntel,59.52380952,66e8cf54518140fd17d32ae0,68817205a84113384fffdfe3,68817f407a144f6f9a7a604c,,,,,,,,,,,,,0,,,,,,,,,,,,,,,,,,,,,,,,,,,,,,,,,,,,,10,antar,,,,,438.5559,440.2725,0,1,1.1863,,0,59,59,9,1,REAL,FAKE,,,,,,,,,,,,,,,,,
,,,,,,,,,66e8cf54518140fd17d32ae0,Puerto Rican Spanish,younger than 13,"no, only English or Spanish",yes,2025-07-23_20h33.56.046,empathy_intonation_perc_control,2024.2.4,MacIntel,59.52380952,66e8cf54518140fd17d32ae0,68817205a84113384fffdfe3,68817f407a144f6f9a7a604c,,,,,,,,,,,,,1,,,,,,,,,,,,,,,,,,,,,,,,,,,,,,,,,,,,,45,jilguero,,,,,440.2731,441.9612,0,0,1.1527,,0,60,60,44,1,REAL,FAKE,,,,,,,,,,,,,,,,,
,,,,,,,,,66e8cf54518140fd17d32ae0,Puerto Rican Spanish,younger than 13,"no, only English or Spanish",yes,2025-07-23_20h33.56.046,empathy_intonation_perc_control,2024.2.4,MacIntel,59.52380952,66e8cf54518140fd17d32ae0,68817205a84113384fffdfe3,68817f407a144f6f9a7a604c,,,,,,,,,,,,,1,,,,,,,,,,,,,,,,,,,,,,,,,,,,,,,,,,,,,75,yacer,,,,,441.9617,444.0787,0,0,1.5897,,0,61,61,74,1,REAL,FAKE,,,,,,,,,,,,,,,,,
,,,,,,,,,66e8cf54518140fd17d32ae0,Puerto Rican Spanish,younger than 13,"no, only English or Spanish",yes,2025-07-23_20h33.56.046,empathy_intonation_perc_control,2024.2.4,MacIntel,59.52380952,66e8cf54518140fd17d32ae0,68817205a84113384fffdfe3,68817f407a144f6f9a7a604c,,,,,,,,,,,,,0,,,,,,,,,,,,,,,,,,,,,,,,,,,,,,,,,,,,,18,arsa,,,,,444.0793,445.4995,0,1,0.8763,,0,62,62,17,1,REAL,FAKE,,,,,,,,,,,,,,,,,
,,,,,,,,,66e8cf54518140fd17d32ae0,Puerto Rican Spanish,younger than 13,"no, only English or Spanish",yes,2025-07-23_20h33.56.046,empathy_intonation_perc_control,2024.2.4,MacIntel,59.52380952,66e8cf54518140fd17d32ae0,68817205a84113384fffdfe3,68817f407a144f6f9a7a604c,,,,,,,,,,,,,1,,,,,,,,,,,,,,,,,,,,,,,,,,,,,,,,,,,,,41,rebuscar,,,,,445.5002,446.9221,0,0,0.9009,,0,63,63,40,1,REAL,FAKE,,,,,,,,,,,,,,,,,
,,,,,,,,,66e8cf54518140fd17d32ae0,Puerto Rican Spanish,younger than 13,"no, only English or Spanish",yes,2025-07-23_20h33.56.046,empathy_intonation_perc_control,2024.2.4,MacIntel,59.52380952,66e8cf54518140fd17d32ae0,68817205a84113384fffdfe3,68817f407a144f6f9a7a604c,,,,,,,,,,,,,1,,,,,,,,,,,,,,,,,,,,,,,,,,,,,,,,,,,,,25,bisagra,,,,,446.9229,448.3113,0,0,0.8506,,0,64,64,24,1,REAL,FAKE,,,,,,,,,,,,,,,,,
,,,,,,,,,66e8cf54518140fd17d32ae0,Puerto Rican Spanish,younger than 13,"no, only English or Spanish",yes,2025-07-23_20h33.56.046,empathy_intonation_perc_control,2024.2.4,MacIntel,59.52380952,66e8cf54518140fd17d32ae0,68817205a84113384fffdfe3,68817f407a144f6f9a7a604c,,,,,,,,,,,,,0,,,,,,,,,,,,,,,,,,,,,,,,,,,,,,,,,,,,,27,acutación,,,,,448.3119,450.2936,0,1,1.4398,,0,65,65,26,1,REAL,FAKE,,,,,,,,,,,,,,,,,
,,,,,,,,,66e8cf54518140fd17d32ae0,Puerto Rican Spanish,younger than 13,"no, only English or Spanish",yes,2025-07-23_20h33.56.046,empathy_intonation_perc_control,2024.2.4,MacIntel,59.52380952,66e8cf54518140fd17d32ae0,68817205a84113384fffdfe3,68817f407a144f6f9a7a604c,,,,,,,,,,,,,1,,,,,,,,,,,,,,,,,,,,,,,,,,,,,,,,,,,,,3,pulmones,,,,,450.2942,451.9109,1,1,1.0895,,0,66,66,2,1,REAL,FAKE,,,,,,,,,,,,,,,,,
,,,,,,,,,66e8cf54518140fd17d32ae0,Puerto Rican Spanish,younger than 13,"no, only English or Spanish",yes,2025-07-23_20h33.56.046,empathy_intonation_perc_control,2024.2.4,MacIntel,59.52380952,66e8cf54518140fd17d32ae0,68817205a84113384fffdfe3,68817f407a144f6f9a7a604c,,,,,,,,,,,,,1,,,,,,,,,,,,,,,,,,,,,,,,,,,,,,,,,,,,,39,torpe,,,,,451.9115,453.7218,0,0,1.2696,,0,67,67,38,1,REAL,FAKE,,,,,,,,,,,,,,,,,
,,,,,,,,,66e8cf54518140fd17d32ae0,Puerto Rican Spanish,younger than 13,"no, only English or Spanish",yes,2025-07-23_20h33.56.046,empathy_intonation_perc_control,2024.2.4,MacIntel,59.52380952,66e8cf54518140fd17d32ae0,68817205a84113384fffdfe3,68817f407a144f6f9a7a604c,,,,,,,,,,,,,1,,,,,,,,,,,,,,,,,,,,,,,,,,,,,,,,,,,,,65,bizcocho,,,,,453.7225,455.187,1,1,0.9308,,0,68,68,64,1,REAL,FAKE,,,,,,,,,,,,,,,,,
,,,,,,,,,66e8cf54518140fd17d32ae0,Puerto Rican Spanish,younger than 13,"no, only English or Spanish",yes,2025-07-23_20h33.56.046,empathy_intonation_perc_control,2024.2.4,MacIntel,59.52380952,66e8cf54518140fd17d32ae0,68817205a84113384fffdfe3,68817f407a144f6f9a7a604c,,,,,,,,,,,,,0,,,,,,,,,,,,,,,,,,,,,,,,,,,,,,,,,,,,,82,empirador,,,,,455.1876,458.5516,1,0,2.8303,,0,69,69,81,1,REAL,FAKE,,,,,,,,,,,,,,,,,
,,,,,,,,,66e8cf54518140fd17d32ae0,Puerto Rican Spanish,younger than 13,"no, only English or Spanish",yes,2025-07-23_20h33.56.046,empathy_intonation_perc_control,2024.2.4,MacIntel,59.52380952,66e8cf54518140fd17d32ae0,68817205a84113384fffdfe3,68817f407a144f6f9a7a604c,,,,,,,,,,,,,1,,,,,,,,,,,,,,,,,,,,,,,,,,,,,,,,,,,,,64,orgulloso,,,,,458.5523,460.2153,1,1,1.1286,,0,70,70,63,1,REAL,FAKE,,,,,,,,,,,,,,,,,
,,,,,,,,,66e8cf54518140fd17d32ae0,Puerto Rican Spanish,younger than 13,"no, only English or Spanish",yes,2025-07-23_20h33.56.046,empathy_intonation_perc_control,2024.2.4,MacIntel,59.52380952,66e8cf54518140fd17d32ae0,68817205a84113384fffdfe3,68817f407a144f6f9a7a604c,,,,,,,,,,,,,0,,,,,,,,,,,,,,,,,,,,,,,,,,,,,,,,,,,,,79,tropaje,,,,,460.2158,462.156,1,0,1.391,,0,71,71,78,1,REAL,FAKE,,,,,,,,,,,,,,,,,
,,,,,,,,,66e8cf54518140fd17d32ae0,Puerto Rican Spanish,younger than 13,"no, only English or Spanish",yes,2025-07-23_20h33.56.046,empathy_intonation_perc_control,2024.2.4,MacIntel,59.52380952,66e8cf54518140fd17d32ae0,68817205a84113384fffdfe3,68817f407a144f6f9a7a604c,,,,,,,,,,,,,1,,,,,,,,,,,,,,,,,,,,,,,,,,,,,,,,,,,,,24,látigo,,,,,462.1567,464.1576,1,1,1.466,,0,72,72,23,1,REAL,FAKE,,,,,,,,,,,,,,,,,
,,,,,,,,,66e8cf54518140fd17d32ae0,Puerto Rican Spanish,younger than 13,"no, only English or Spanish",yes,2025-07-23_20h33.56.046,empathy_intonation_perc_control,2024.2.4,MacIntel,59.52380952,66e8cf54518140fd17d32ae0,68817205a84113384fffdfe3,68817f407a144f6f9a7a604c,,,,,,,,,,,,,1,,,,,,,,,,,,,,,,,,,,,,,,,,,,,,,,,,,,,49,ganar,,,,,464.1582,465.5988,1,1,0.9054,,0,73,73,48,1,REAL,FAKE,,,,,,,,,,,,,,,,,
,,,,,,,,,66e8cf54518140fd17d32ae0,Puerto Rican Spanish,younger than 13,"no, only English or Spanish",yes,2025-07-23_20h33.56.046,empathy_intonation_perc_control,2024.2.4,MacIntel,59.52380952,66e8cf54518140fd17d32ae0,68817205a84113384fffdfe3,68817f407a144f6f9a7a604c,,,,,,,,,,,,,1,,,,,,,,,,,,,,,,,,,,,,,,,,,,,,,,,,,,,89,prisa,,,,,465.5993,467.0211,1,1,0.8841,,0,74,74,88,1,REAL,FAKE,,,,,,,,,,,,,,,,,
,,,,,,,,,66e8cf54518140fd17d32ae0,Puerto Rican Spanish,younger than 13,"no, only English or Spanish",yes,2025-07-23_20h33.56.046,empathy_intonation_perc_control,2024.2.4,MacIntel,59.52380952,66e8cf54518140fd17d32ae0,68817205a84113384fffdfe3,68817f407a144f6f9a7a604c,,,,,,,,,,,,,1,,,,,,,,,,,,,,,,,,,,,,,,,,,,,,,,,,,,,85,laúd,,,,,467.0217,468.4848,0,0,0.9298,,0,75,75,84,1,REAL,FAKE,,,,,,,,,,,,,,,,,
,,,,,,,,,66e8cf54518140fd17d32ae0,Puerto Rican Spanish,younger than 13,"no, only English or Spanish",yes,2025-07-23_20h33.56.046,empathy_intonation_perc_control,2024.2.4,MacIntel,59.52380952,66e8cf54518140fd17d32ae0,68817205a84113384fffdfe3,68817f407a144f6f9a7a604c,,,,,,,,,,,,,0,,,,,,,,,,,,,,,,,,,,,,,,,,,,,,,,,,,,,30,alardio,,,,,468.4854,470.1404,0,1,1.1203,,0,76,76,29,1,REAL,FAKE,,,,,,,,,,,,,,,,,
,,,,,,,,,66e8cf54518140fd17d32ae0,Puerto Rican Spanish,younger than 13,"no, only English or Spanish",yes,2025-07-23_20h33.56.046,empathy_intonation_perc_control,2024.2.4,MacIntel,59.52380952,66e8cf54518140fd17d32ae0,68817205a84113384fffdfe3,68817f407a144f6f9a7a604c,,,,,,,,,,,,,0,,,,,,,,,,,,,,,,,,,,,,,,,,,,,,,,,,,,,8,cadeña,,,,,470.1409,471.6101,0,1,0.9192,,0,77,77,7,1,REAL,FAKE,,,,,,,,,,,,,,,,,
,,,,,,,,,66e8cf54518140fd17d32ae0,Puerto Rican Spanish,younger than 13,"no, only English or Spanish",yes,2025-07-23_20h33.56.046,empathy_intonation_perc_control,2024.2.4,MacIntel,59.52380952,66e8cf54518140fd17d32ae0,68817205a84113384fffdfe3,68817f407a144f6f9a7a604c,,,,,,,,,,,,,1,,,,,,,,,,,,,,,,,,,,,,,,,,,,,,,,,,,,,83,guante,,,,,471.6107,473.2934,0,0,1.1507,,0,78,78,82,1,REAL,FAKE,,,,,,,,,,,,,,,,,
,,,,,,,,,66e8cf54518140fd17d32ae0,Puerto Rican Spanish,younger than 13,"no, only English or Spanish",yes,2025-07-23_20h33.56.046,empathy_intonation_perc_control,2024.2.4,MacIntel,59.52380952,66e8cf54518140fd17d32ae0,68817205a84113384fffdfe3,68817f407a144f6f9a7a604c,,,,,,,,,,,,,1,,,,,,,,,,,,,,,,,,,,,,,,,,,,,,,,,,,,,15,regar,,,,,473.2939,474.828,0,0,1.001,,0,79,79,14,1,REAL,FAKE,,,,,,,,,,,,,,,,,
,,,,,,,,,66e8cf54518140fd17d32ae0,Puerto Rican Spanish,younger than 13,"no, only English or Spanish",yes,2025-07-23_20h33.56.046,empathy_intonation_perc_control,2024.2.4,MacIntel,59.52380952,66e8cf54518140fd17d32ae0,68817205a84113384fffdfe3,68817f407a144f6f9a7a604c,,,,,,,,,,,,,1,,,,,,,,,,,,,,,,,,,,,,,,,,,,,,,,,,,,,48,ladrón,,,,,474.8286,476.2088,1,1,0.8562,,0,80,80,47,1,REAL,FAKE,,,,,,,,,,,,,,,,,
,,,,,,,,,66e8cf54518140fd17d32ae0,Puerto Rican Spanish,younger than 13,"no, only English or Spanish",yes,2025-07-23_20h33.56.046,empathy_intonation_perc_control,2024.2.4,MacIntel,59.52380952,66e8cf54518140fd17d32ae0,68817205a84113384fffdfe3,68817f407a144f6f9a7a604c,,,,,,,,,,,,,0,,,,,,,,,,,,,,,,,,,,,,,,,,,,,,,,,,,,,29,decar,,,,,476.2094,477.6325,0,1,0.8787,,0,81,81,28,1,REAL,FAKE,,,,,,,,,,,,,,,,,
,,,,,,,,,66e8cf54518140fd17d32ae0,Puerto Rican Spanish,younger than 13,"no, only English or Spanish",yes,2025-07-23_20h33.56.046,empathy_intonation_perc_control,2024.2.4,MacIntel,59.52380952,66e8cf54518140fd17d32ae0,68817205a84113384fffdfe3,68817f407a144f6f9a7a604c,,,,,,,,,,,,,1,,,,,,,,,,,,,,,,,,,,,,,,,,,,,,,,,,,,,76,atar,,,,,477.6331,479.1707,0,0,0.9998,,0,82,82,75,1,REAL,FAKE,,,,,,,,,,,,,,,,,
,,,,,,,,,66e8cf54518140fd17d32ae0,Puerto Rican Spanish,younger than 13,"no, only English or Spanish",yes,2025-07-23_20h33.56.046,empathy_intonation_perc_control,2024.2.4,MacIntel,59.52380952,66e8cf54518140fd17d32ae0,68817205a84113384fffdfe3,68817f407a144f6f9a7a604c,,,,,,,,,,,,,0,,,,,,,,,,,,,,,,,,,,,,,,,,,,,,,,,,,,,23,lampera,,,,,479.1713,483.689,0,1,3.9852,,0,83,83,22,1,REAL,FAKE,,,,,,,,,,,,,,,,,
,,,,,,,,,66e8cf54518140fd17d32ae0,Puerto Rican Spanish,younger than 13,"no, only English or Spanish",yes,2025-07-23_20h33.56.046,empathy_intonation_perc_control,2024.2.4,MacIntel,59.52380952,66e8cf54518140fd17d32ae0,68817205a84113384fffdfe3,68817f407a144f6f9a7a604c,,,,,,,,,,,,,0,,,,,,,,,,,,,,,,,,,,,,,,,,,,,,,,,,,,,58,plaudir,,,,,483.6895,485.3386,0,1,1.1161,,0,84,84,57,1,REAL,FAKE,,,,,,,,,,,,,,,,,
,,,,,,,,,66e8cf54518140fd17d32ae0,Puerto Rican Spanish,younger than 13,"no, only English or Spanish",yes,2025-07-23_20h33.56.046,empathy_intonation_perc_control,2024.2.4,MacIntel,59.52380952,66e8cf54518140fd17d32ae0,68817205a84113384fffdfe3,68817f407a144f6f9a7a604c,,,,,,,,,,,,,1,,,,,,,,,,,,,,,,,,,,,,,,,,,,,,,,,,,,,91,click the 1 key.,,,,,485.3394,486.9046,1,1,1.0309,,0,85,85,90,1,REAL,FAKE,,,,,,,,,,,,,,,,,
,,,,,,,,,66e8cf54518140fd17d32ae0,Puerto Rican Spanish,younger than 13,"no, only English or Spanish",yes,2025-07-23_20h33.56.046,empathy_intonation_perc_control,2024.2.4,MacIntel,59.52380952,66e8cf54518140fd17d32ae0,68817205a84113384fffdfe3,68817f407a144f6f9a7a604c,,,,,,,,,,,,,0,,,,,,,,,,,,,,,,,,,,,,,,,,,,,,,,,,,,,1,terzo,,,,,486.9052,488.6452,1,0,1.2101,,0,86,86,0,1,REAL,FAKE,,,,,,,,,,,,,,,,,
,,,,,,,,,66e8cf54518140fd17d32ae0,Puerto Rican Spanish,younger than 13,"no, only English or Spanish",yes,2025-07-23_20h33.56.046,empathy_intonation_perc_control,2024.2.4,MacIntel,59.52380952,66e8cf54518140fd17d32ae0,68817205a84113384fffdfe3,68817f407a144f6f9a7a604c,,,,,,,,,,,,,1,,,,,,,,,,,,,,,,,,,,,,,,,,,,,,,,,,,,,20,ávido,,,,,488.6458,489.9447,1,1,0.7731,,0,87,87,19,1,REAL,FAKE,,,,,,,,,,,,,,,,,
,,,,,,,,,66e8cf54518140fd17d32ae0,Puerto Rican Spanish,younger than 13,"no, only English or Spanish",yes,2025-07-23_20h33.56.046,empathy_intonation_perc_control,2024.2.4,MacIntel,59.52380952,66e8cf54518140fd17d32ae0,68817205a84113384fffdfe3,68817f407a144f6f9a7a604c,,,,,,,,,,,,,0,,,,,,,,,,,,,,,,,,,,,,,,,,,,,,,,,,,,,19,brecedad,,,,,489.9453,491.4457,0,1,0.9575,,0,88,88,18,1,REAL,FAKE,,,,,,,,,,,,,,,,,
,,,,,,,,,66e8cf54518140fd17d32ae0,Puerto Rican Spanish,younger than 13,"no, only English or Spanish",yes,2025-07-23_20h33.56.046,empathy_intonation_perc_control,2024.2.4,MacIntel,59.52380952,66e8cf54518140fd17d32ae0,68817205a84113384fffdfe3,68817f407a144f6f9a7a604c,,,,,,,,,,,,,1,,,,,,,,,,,,,,,,,,,,,,,,,,,,,,,,,,,,,12,asesinato,,,,,491.4462,495.9235,1,1,3.9311,,0,89,89,11,1,REAL,FAKE,,,,,,,,,,,,,,,,,
,,,,,,,,,66e8cf54518140fd17d32ae0,Puerto Rican Spanish,younger than 13,"no, only English or Spanish",yes,2025-07-23_20h33.56.046,empathy_intonation_perc_control,2024.2.4,MacIntel,59.52380952,66e8cf54518140fd17d32ae0,68817205a84113384fffdfe3,68817f407a144f6f9a7a604c,,,,,,,,,,,,,1,,,,,,,,,,,,,,,,,,,,,,,,,,,,,,,,,,,,,78,frondoso,,,,,495.9241,497.9898,0,0,1.5305,,0,90,90,77,1,REAL,FAKE,,,,,,,,,,,,,,,,,
,,,,,,,,,66e8cf54518140fd17d32ae0,Puerto Rican Spanish,younger than 13,"no, only English or Spanish",yes,2025-07-23_20h33.56.046,empathy_intonation_perc_control,2024.2.4,MacIntel,59.52380952,66e8cf54518140fd17d32ae0,68817205a84113384fffdfe3,68817f407a144f6f9a7a604c,,,,,,,,,,,,,0,,,,,,,,,,,,,,,,,,,,,,,,,,,,,,,,,,,,,35,rompido,,,,,497.9905,499.5874,1,0,1.0733,,0,91,91,34,1,REAL,FAKE,,,,,,,,,,,,,,,,,
,,,,,,,,,66e8cf54518140fd17d32ae0,Puerto Rican Spanish,younger than 13,"no, only English or Spanish",yes,2025-07-23_20h33.56.046,empathy_intonation_perc_control,2024.2.4,MacIntel,59.52380952,66e8cf54518140fd17d32ae0,68817205a84113384fffdfe3,68817f407a144f6f9a7a604c,,,,,,,,,,,,,,,,,,,,,,,,,,,,,,,,,,,,,,,,,,,,,,,,,,,,,,,,,,,,,,,,,,,,,499.5876,509.4543,,,,,,,,,,,,,,,
,,,,,,,,,66e8cf54518140fd17d32ae0,Puerto Rican Spanish,younger than 13,"no, only English or Spanish",yes,2025-07-23_20h33.56.046,empathy_intonation_perc_control,2024.2.4,MacIntel,59.52380952,66e8cf54518140fd17d32ae0,68817205a84113384fffdfe3,68817f407a144f6f9a7a604c,,,,,,,,,,,,,,,,,,,,,,,,,,,1,,,,,,,,,,,,,,,,,,,,,,,,,,,,,,,,,,,,,,,,,,,,509.4636,515.4782,slightly agree,0,0,0,0,1,I can easily tell if someone else wants to enter a conversation.,1,0,1,0,,
,,,,,,,,,66e8cf54518140fd17d32ae0,Puerto Rican Spanish,younger than 13,"no, only English or Spanish",yes,2025-07-23_20h33.56.046,empathy_intonation_perc_control,2024.2.4,MacIntel,59.52380952,66e8cf54518140fd17d32ae0,68817205a84113384fffdfe3,68817f407a144f6f9a7a604c,,,,,,,,,,,,,,,,,,,,,,,,,,,2,,,,,,,,,,,,,,,,,,,,,,,,,,,,,,,,,,,,,,,,,,,,515.4794,518.2572,strongly agree,0,1,1,1,1,I prefer animals to humans.,0,1,0,0,,
,,,,,,,,,66e8cf54518140fd17d32ae0,Puerto Rican Spanish,younger than 13,"no, only English or Spanish",yes,2025-07-23_20h33.56.046,empathy_intonation_perc_control,2024.2.4,MacIntel,59.52380952,66e8cf54518140fd17d32ae0,68817205a84113384fffdfe3,68817f407a144f6f9a7a604c,,,,,,,,,,,,,,,,,,,,,,,,,,,3,,,,,,,,,,,,,,,,,,,,,,,,,,,,,,,,,,,,,,,,,,,,518.2582,521.7065,strongly disagree,0,2,2,2,1,I try to keep up with the current trends and fashions.,0,1,0,0,,
,,,,,,,,,66e8cf54518140fd17d32ae0,Puerto Rican Spanish,younger than 13,"no, only English or Spanish",yes,2025-07-23_20h33.56.046,empathy_intonation_perc_control,2024.2.4,MacIntel,59.52380952,66e8cf54518140fd17d32ae0,68817205a84113384fffdfe3,68817f407a144f6f9a7a604c,,,,,,,,,,,,,,,,,,,,,,,,,,,4,,,,,,,,,,,,,,,,,,,,,,,,,,,,,,,,,,,,,,,,,,,,521.7075,528.1062,slightly agree,0,3,3,3,1,"I find it difficult to explain to others things that I understand easily,   when they don't understand it first time.",1,0,0,1,,
,,,,,,,,,66e8cf54518140fd17d32ae0,Puerto Rican Spanish,younger than 13,"no, only English or Spanish",yes,2025-07-23_20h33.56.046,empathy_intonation_perc_control,2024.2.4,MacIntel,59.52380952,66e8cf54518140fd17d32ae0,68817205a84113384fffdfe3,68817f407a144f6f9a7a604c,,,,,,,,,,,,,,,,,,,,,,,,,,,5,,,,,,,,,,,,,,,,,,,,,,,,,,,,,,,,,,,,,,,,,,,,528.107,530.2278,slightly agree,0,4,4,4,1,I dream most nights.,0,1,0,0,,
,,,,,,,,,66e8cf54518140fd17d32ae0,Puerto Rican Spanish,younger than 13,"no, only English or Spanish",yes,2025-07-23_20h33.56.046,empathy_intonation_perc_control,2024.2.4,MacIntel,59.52380952,66e8cf54518140fd17d32ae0,68817205a84113384fffdfe3,68817f407a144f6f9a7a604c,,,,,,,,,,,,,,,,,,,,,,,,,,,6,,,,,,,,,,,,,,,,,,,,,,,,,,,,,,,,,,,,,,,,,,,,530.2288,533.7924,slightly disagree,0,5,5,5,1,I really enjoy caring for other people.,1,0,1,0,,
,,,,,,,,,66e8cf54518140fd17d32ae0,Puerto Rican Spanish,younger than 13,"no, only English or Spanish",yes,2025-07-23_20h33.56.046,empathy_intonation_perc_control,2024.2.4,MacIntel,59.52380952,66e8cf54518140fd17d32ae0,68817205a84113384fffdfe3,68817f407a144f6f9a7a604c,,,,,,,,,,,,,,,,,,,,,,,,,,,7,,,,,,,,,,,,,,,,,,,,,,,,,,,,,,,,,,,,,,,,,,,,533.7932,537.0726,strongly agree,0,6,6,6,1,I try to solve my own problems rather than discussing them with others.,0,1,0,0,,
,,,,,,,,,66e8cf54518140fd17d32ae0,Puerto Rican Spanish,younger than 13,"no, only English or Spanish",yes,2025-07-23_20h33.56.046,empathy_intonation_perc_control,2024.2.4,MacIntel,59.52380952,66e8cf54518140fd17d32ae0,68817205a84113384fffdfe3,68817f407a144f6f9a7a604c,,,,,,,,,,,,,,,,,,,,,,,,,,,8,,,,,,,,,,,,,,,,,,,,,,,,,,,,,,,,,,,,,,,,,,,,537.0735,539.6433,strongly agree,0,7,7,7,1,I find it hard to know what to do in a social situation.,1,0,0,1,,
,,,,,,,,,66e8cf54518140fd17d32ae0,Puerto Rican Spanish,younger than 13,"no, only English or Spanish",yes,2025-07-23_20h33.56.046,empathy_intonation_perc_control,2024.2.4,MacIntel,59.52380952,66e8cf54518140fd17d32ae0,68817205a84113384fffdfe3,68817f407a144f6f9a7a604c,,,,,,,,,,,,,,,,,,,,,,,,,,,9,,,,,,,,,,,,,,,,,,,,,,,,,,,,,,,,,,,,,,,,,,,,539.6442,542.2888,strongly disagree,0,8,8,8,1,I am at my best first thing in the morning.,0,1,0,0,,
,,,,,,,,,66e8cf54518140fd17d32ae0,Puerto Rican Spanish,younger than 13,"no, only English or Spanish",yes,2025-07-23_20h33.56.046,empathy_intonation_perc_control,2024.2.4,MacIntel,59.52380952,66e8cf54518140fd17d32ae0,68817205a84113384fffdfe3,68817f407a144f6f9a7a604c,,,,,,,,,,,,,,,,,,,,,,,,,,,10,,,,,,,,,,,,,,,,,,,,,,,,,,,,,,,,,,,,,,,,,,,,542.2897,547.0903,slightly agree,0,9,9,9,1,People often tell me that I went too far in driving my point home in a discussion.,1,0,0,1,,
,,,,,,,,,66e8cf54518140fd17d32ae0,Puerto Rican Spanish,younger than 13,"no, only English or Spanish",yes,2025-07-23_20h33.56.046,empathy_intonation_perc_control,2024.2.4,MacIntel,59.52380952,66e8cf54518140fd17d32ae0,68817205a84113384fffdfe3,68817f407a144f6f9a7a604c,,,,,,,,,,,,,,,,,,,,,,,,,,,11,,,,,,,,,,,,,,,,,,,,,,,,,,,,,,,,,,,,,,,,,,,,547.0911,550.8431,slightly agree,0,10,10,10,1,It doesn't bother me too much if I am late meeting a friend.,1,0,0,1,,
,,,,,,,,,66e8cf54518140fd17d32ae0,Puerto Rican Spanish,younger than 13,"no, only English or Spanish",yes,2025-07-23_20h33.56.046,empathy_intonation_perc_control,2024.2.4,MacIntel,59.52380952,66e8cf54518140fd17d32ae0,68817205a84113384fffdfe3,68817f407a144f6f9a7a604c,,,,,,,,,,,,,,,,,,,,,,,,,,,12,,,,,,,,,,,,,,,,,,,,,,,,,,,,,,,,,,,,,,,,,,,,550.844,553.9928,slightly agree,0,11,11,11,1,"Friendships and relationships are just too difficult, so I tend not to 
  bother with them.",1,0,0,1,,
,,,,,,,,,66e8cf54518140fd17d32ae0,Puerto Rican Spanish,younger than 13,"no, only English or Spanish",yes,2025-07-23_20h33.56.046,empathy_intonation_perc_control,2024.2.4,MacIntel,59.52380952,66e8cf54518140fd17d32ae0,68817205a84113384fffdfe3,68817f407a144f6f9a7a604c,,,,,,,,,,,,,,,,,,,,,,,,,,,13,,,,,,,,,,,,,,,,,,,,,,,,,,,,,,,,,,,,,,,,,,,,553.9935,557.7892,slightly disagree,0,12,12,12,1,"I would never break a law, no matter how minor.",0,1,0,0,,
,,,,,,,,,66e8cf54518140fd17d32ae0,Puerto Rican Spanish,younger than 13,"no, only English or Spanish",yes,2025-07-23_20h33.56.046,empathy_intonation_perc_control,2024.2.4,MacIntel,59.52380952,66e8cf54518140fd17d32ae0,68817205a84113384fffdfe3,68817f407a144f6f9a7a604c,,,,,,,,,,,,,,,,,,,,,,,,,,,14,,,,,,,,,,,,,,,,,,,,,,,,,,,,,,,,,,,,,,,,,,,,557.7901,563.7902,strongly disagree,0,13,13,13,1,I often find it difficult to judge if something is rude or polite.,1,0,0,1,,
