instructions_2afc.started,instructions_2afc.stopped,instructions_2afc_loop.thisRepN,instructions_2afc_loop.thisTrialN,instructions_2afc_loop.thisN,instructions_2afc_loop.thisIndex,instructions_2afc_loop.ran,instructions_text,continue_text,participant_id,"What variety of Spanish are you most familiar with? (e.g., Peruvian, Spanish, Mexican)",At what age did you begin learning Spanish?,Are you proficient in any languages other than English/Spanish?,"Are you familiar with Caribbean (e.g., Caribbean, Puerto Rican) or Galician Spanish?",date,expName,psychopyVersion,OS,frameRate,id,study_id,session,practice_2afc.started,practice_2afc.stopped,key_resp_2afc_practice.keys,key_resp_2afc_practice.corr,key_resp_2afc_practice.rt,key_resp_2afc_practice.duration,trials_2afc_practice_loop.thisRepN,trials_2afc_practice_loop.thisTrialN,trials_2afc_practice_loop.thisN,trials_2afc_practice_loop.thisIndex,trials_2afc_practice_loop.ran,path,correct_response,check_2afc.started,check_2afc.stopped,trial_2afc.started,trial_2afc.stopped,key_resp_2afc_trial.keys,key_resp_2afc_trial.corr,key_resp_2afc_trial.rt,key_resp_2afc_trial.duration,trials_2afc_loop.thisRepN,trials_2afc_loop.thisTrialN,trials_2afc_loop.thisN,trials_2afc_loop.thisIndex,trials_2afc_loop.ran,item_num,target,variety,instructions_lextale.started,instructions_lextale.stopped,instructions_lextale_loop.thisRepN,instructions_lextale_loop.thisTrialN,instructions_lextale_loop.thisN,instructions_lextale_loop.thisIndex,instructions_lextale_loop.ran,practice_lextale.started,practice_lextale.stopped,key_resp_lextale_practice.keys,key_resp_lextale_practice.corr,key_resp_lextale_practice.rt,key_resp_lextale_practice.duration,practice_feedback_lextale.started,practice_feedback_lextale.stopped,trials_lextale_practice_loop.thisRepN,trials_lextale_practice_loop.thisTrialN,trials_lextale_practice_loop.thisN,trials_lextale_practice_loop.thisIndex,trials_lextale_practice_loop.ran,stim,word,prac_button_real,prac_button_false,check_lextale.started,check_lextale.stopped,trial_lextale.started,trial_lextale.stopped,key_resp_lextale_trial.keys,key_resp_lextale_trial.corr,key_resp_lextale_trial.rt,key_resp_lextale_trial.duration,trials_lextale_loop.thisRepN,trials_lextale_loop.thisTrialN,trials_lextale_loop.thisN,trials_lextale_loop.thisIndex,trials_lextale_loop.ran,button_real,button_false,instructions_eq.started,instructions_eq.stopped,trial_eq.started,trial_eq.stopped,slider_eq_trial.response,trials_eq_loop.thisRepN,trials_eq_loop.thisTrialN,trials_eq_loop.thisN,trials_eq_loop.thisIndex,trials_eq_loop.ran,item,is_test_item,is_distractor,is_agree_score,is_disagree_score,end_exp.started,end_exp.stopped
0.0114,5.2964,0,0,0,0,1,"In the following task you are going to hear a series of utterances. 

  You will decide if the utterances sound like questions or not using your keyboard.", (press the spacebar to continue),66f0a1d13629250f84bc2598,Spanish,13 or older,"no, only English or Spanish",no,2025-08-12_17h14.37.196,empathy_intonation_perc_control,2024.2.4,Win32,144.9275362,66f0a1d13629250f84bc2598,68817205a84113384fffdfe3,689bb0e4099b78b5deeaa84e,,,,,,,,,,,,,,,,,,,,,,,,,,,,,,,,,,,,,,,,,,,,,,,,,,,,,,,,,,,,,,,,,,,,,,,,,,,,,,,,,,,,,
5.2981,15.6205,0,1,1,1,1,"If you believe the utterance is a question, type '1' (for 'yes') and if you do not 
  believe it is a question type '0' (for 'no').

  Let's practice a bit...", (press the spacebar to continue),66f0a1d13629250f84bc2598,Spanish,13 or older,"no, only English or Spanish",no,2025-08-12_17h14.37.196,empathy_intonation_perc_control,2024.2.4,Win32,144.9275362,66f0a1d13629250f84bc2598,68817205a84113384fffdfe3,689bb0e4099b78b5deeaa84e,,,,,,,,,,,,,,,,,,,,,,,,,,,,,,,,,,,,,,,,,,,,,,,,,,,,,,,,,,,,,,,,,,,,,,,,,,,,,,,,,,,,,
,,,,,,,,,66f0a1d13629250f84bc2598,Spanish,13 or older,"no, only English or Spanish",no,2025-08-12_17h14.37.196,empathy_intonation_perc_control,2024.2.4,Win32,144.9275362,66f0a1d13629250f84bc2598,68817205a84113384fffdfe3,689bb0e4099b78b5deeaa84e,15.6264,20.308,0,1,4.1725,,0,0,0,5,1,./stim/wavs/andalusian_statement_filler_Alberto-nunca-se-afeita.wav,0,,,,,,,,,,,,,,,,,,,,,,,,,,,,,,,,,,,,,,,,,,,,,,,,,,,,,,,,,,,,,,,,,,,,,,,,
,,,,,,,,,66f0a1d13629250f84bc2598,Spanish,13 or older,"no, only English or Spanish",no,2025-08-12_17h14.37.196,empathy_intonation_perc_control,2024.2.4,Win32,144.9275362,66f0a1d13629250f84bc2598,68817205a84113384fffdfe3,689bb0e4099b78b5deeaa84e,20.3085,22.8772,1,1,2.0605,,0,1,1,0,1,./stim/wavs/castilian_question_filler_Mi-esposo-conoce-al-chico.wav,1,,,,,,,,,,,,,,,,,,,,,,,,,,,,,,,,,,,,,,,,,,,,,,,,,,,,,,,,,,,,,,,,,,,,,,,,
,,,,,,,,,66f0a1d13629250f84bc2598,Spanish,13 or older,"no, only English or Spanish",no,2025-08-12_17h14.37.196,empathy_intonation_perc_control,2024.2.4,Win32,144.9275362,66f0a1d13629250f84bc2598,68817205a84113384fffdfe3,689bb0e4099b78b5deeaa84e,22.8776,25.1689,1,1,1.7791,,0,2,2,3,1,./stim/wavs/mexican_question_filler_Felipe-no-tiene-contrasena.wav,1,,,,,,,,,,,,,,,,,,,,,,,,,,,,,,,,,,,,,,,,,,,,,,,,,,,,,,,,,,,,,,,,,,,,,,,,
,,,,,,,,,66f0a1d13629250f84bc2598,Spanish,13 or older,"no, only English or Spanish",no,2025-08-12_17h14.37.196,empathy_intonation_perc_control,2024.2.4,Win32,144.9275362,66f0a1d13629250f84bc2598,68817205a84113384fffdfe3,689bb0e4099b78b5deeaa84e,25.1693,28.1688,0,1,2.4917,,0,3,3,6,1,./stim/wavs/peruvian_statement_filler_El-nino-habla-con-su-madre.wav,0,,,,,,,,,,,,,,,,,,,,,,,,,,,,,,,,,,,,,,,,,,,,,,,,,,,,,,,,,,,,,,,,,,,,,,,,
,,,,,,,,,66f0a1d13629250f84bc2598,Spanish,13 or older,"no, only English or Spanish",no,2025-08-12_17h14.37.196,empathy_intonation_perc_control,2024.2.4,Win32,144.9275362,66f0a1d13629250f84bc2598,68817205a84113384fffdfe3,689bb0e4099b78b5deeaa84e,28.1692,30.3563,0,1,1.6766,,0,4,4,4,1,./stim/wavs/cuban_statement_filler_Cocinabas-por-la-noche.wav,0,,,,,,,,,,,,,,,,,,,,,,,,,,,,,,,,,,,,,,,,,,,,,,,,,,,,,,,,,,,,,,,,,,,,,,,,
,,,,,,,,,66f0a1d13629250f84bc2598,Spanish,13 or older,"no, only English or Spanish",no,2025-08-12_17h14.37.196,empathy_intonation_perc_control,2024.2.4,Win32,144.9275362,66f0a1d13629250f84bc2598,68817205a84113384fffdfe3,689bb0e4099b78b5deeaa84e,30.3568,32.2521,1,1,1.3847,,0,5,5,1,1,./stim/wavs/argentine_question_filler_Mi-vecino-habla-mucho.wav,1,,,,,,,,,,,,,,,,,,,,,,,,,,,,,,,,,,,,,,,,,,,,,,,,,,,,,,,,,,,,,,,,,,,,,,,,
,,,,,,,,,66f0a1d13629250f84bc2598,Spanish,13 or older,"no, only English or Spanish",no,2025-08-12_17h14.37.196,empathy_intonation_perc_control,2024.2.4,Win32,144.9275362,66f0a1d13629250f84bc2598,68817205a84113384fffdfe3,689bb0e4099b78b5deeaa84e,32.2524,34.6133,0,1,1.8492,,0,6,6,7,1,./stim/wavs/puertorican_statement_filler_La-nina-pinta-con-su-amiga.wav,0,,,,,,,,,,,,,,,,,,,,,,,,,,,,,,,,,,,,,,,,,,,,,,,,,,,,,,,,,,,,,,,,,,,,,,,,
,,,,,,,,,66f0a1d13629250f84bc2598,Spanish,13 or older,"no, only English or Spanish",no,2025-08-12_17h14.37.196,empathy_intonation_perc_control,2024.2.4,Win32,144.9275362,66f0a1d13629250f84bc2598,68817205a84113384fffdfe3,689bb0e4099b78b5deeaa84e,34.6136,36.6895,1,1,1.5661,,0,7,7,2,1,./stim/wavs/chilean_question_filler_Mi-padre-cantaba-bien.wav,1,,,,,,,,,,,,,,,,,,,,,,,,,,,,,,,,,,,,,,,,,,,,,,,,,,,,,,,,,,,,,,,,,,,,,,,,
,,,,,,,,,66f0a1d13629250f84bc2598,Spanish,13 or older,"no, only English or Spanish",no,2025-08-12_17h14.37.196,empathy_intonation_perc_control,2024.2.4,Win32,144.9275362,66f0a1d13629250f84bc2598,68817205a84113384fffdfe3,689bb0e4099b78b5deeaa84e,,,,,,,,,,,,,,36.6898,38.2591,,,,,,,,,,,,,,,,,,,,,,,,,,,,,,,,,,,,,,,,,,,,,,,,,,,,,,,,,,,,,,,,,,,,,,
,,,,,,,,,66f0a1d13629250f84bc2598,Spanish,13 or older,"no, only English or Spanish",no,2025-08-12_17h14.37.196,empathy_intonation_perc_control,2024.2.4,Win32,144.9275362,66f0a1d13629250f84bc2598,68817205a84113384fffdfe3,689bb0e4099b78b5deeaa84e,,,,,,,,,,,,./stim/wavs/puertorican_match_interrogative-total-yn_Ana-lleva-el-abrigo.wav,1,,,38.2646,40.4606,1,1,1.6874,,0,0,0,18,1,19,1,puertorican,,,,,,,,,,,,,,,,,,,,,,,,,,,,,,,,,,,,,,,,,,,,,,,,,,,,,,,,
,,,,,,,,,66f0a1d13629250f84bc2598,Spanish,13 or older,"no, only English or Spanish",no,2025-08-12_17h14.37.196,empathy_intonation_perc_control,2024.2.4,Win32,144.9275362,66f0a1d13629250f84bc2598,68817205a84113384fffdfe3,689bb0e4099b78b5deeaa84e,,,,,,,,,,,,./stim/wavs/cuban_mismatch_declarative-broad-focus_La-nina-lava-el-plato.wav,0,,,40.4609,42.5575,0,1,1.5848,,0,1,1,75,1,76,0,cuban,,,,,,,,,,,,,,,,,,,,,,,,,,,,,,,,,,,,,,,,,,,,,,,,,,,,,,,,
,,,,,,,,,66f0a1d13629250f84bc2598,Spanish,13 or older,"no, only English or Spanish",no,2025-08-12_17h14.37.196,empathy_intonation_perc_control,2024.2.4,Win32,144.9275362,66f0a1d13629250f84bc2598,68817205a84113384fffdfe3,689bb0e4099b78b5deeaa84e,,,,,,,,,,,,./stim/wavs/castilian_match_declarative-broad-focus_Marta-abre-el-regalo.wav,0,,,42.5579,44.8215,0,1,1.7558,,0,2,2,49,1,50,0,castilian,,,,,,,,,,,,,,,,,,,,,,,,,,,,,,,,,,,,,,,,,,,,,,,,,,,,,,,,
,,,,,,,,,66f0a1d13629250f84bc2598,Spanish,13 or older,"no, only English or Spanish",no,2025-08-12_17h14.37.196,empathy_intonation_perc_control,2024.2.4,Win32,144.9275362,66f0a1d13629250f84bc2598,68817205a84113384fffdfe3,689bb0e4099b78b5deeaa84e,,,,,,,,,,,,./stim/wavs/mexican_mismatch_interrogative-total-yn_El-hombre-mira-la-luna.wav,1,,,44.8219,46.752,1,1,1.4166,,0,3,3,34,1,35,0,mexican,,,,,,,,,,,,,,,,,,,,,,,,,,,,,,,,,,,,,,,,,,,,,,,,,,,,,,,,
,,,,,,,,,66f0a1d13629250f84bc2598,Spanish,13 or older,"no, only English or Spanish",no,2025-08-12_17h14.37.196,empathy_intonation_perc_control,2024.2.4,Win32,144.9275362,66f0a1d13629250f84bc2598,68817205a84113384fffdfe3,689bb0e4099b78b5deeaa84e,,,,,,,,,,,,./stim/wavs/castilian_match_interrogative-total-yn_David-leia-el-libro.wav,1,,,46.7522,48.8561,1,1,1.5926,,0,4,4,0,1,1,0,castilian,,,,,,,,,,,,,,,,,,,,,,,,,,,,,,,,,,,,,,,,,,,,,,,,,,,,,,,,
,,,,,,,,,66f0a1d13629250f84bc2598,Spanish,13 or older,"no, only English or Spanish",no,2025-08-12_17h14.37.196,empathy_intonation_perc_control,2024.2.4,Win32,144.9275362,66f0a1d13629250f84bc2598,68817205a84113384fffdfe3,689bb0e4099b78b5deeaa84e,,,,,,,,,,,,./stim/wavs/puertorican_match_interrogative-total-yn_David-leia-el-libro.wav,1,,,48.8566,50.8978,0,0,1.531,,0,5,5,20,1,21,1,puertorican,,,,,,,,,,,,,,,,,,,,,,,,,,,,,,,,,,,,,,,,,,,,,,,,,,,,,,,,
,,,,,,,,,66f0a1d13629250f84bc2598,Spanish,13 or older,"no, only English or Spanish",no,2025-08-12_17h14.37.196,empathy_intonation_perc_control,2024.2.4,Win32,144.9275362,66f0a1d13629250f84bc2598,68817205a84113384fffdfe3,689bb0e4099b78b5deeaa84e,,,,,,,,,,,,./stim/wavs/cuban_mismatch_interrogative-total-yn_El-nino-oye-el-rio.wav,1,,,50.8981,52.8909,0,0,1.4792,,0,6,6,30,1,31,1,cuban,,,,,,,,,,,,,,,,,,,,,,,,,,,,,,,,,,,,,,,,,,,,,,,,,,,,,,,,
,,,,,,,,,66f0a1d13629250f84bc2598,Spanish,13 or older,"no, only English or Spanish",no,2025-08-12_17h14.37.196,empathy_intonation_perc_control,2024.2.4,Win32,144.9275362,66f0a1d13629250f84bc2598,68817205a84113384fffdfe3,689bb0e4099b78b5deeaa84e,,,,,,,,,,,,./stim/wavs/cuban_mismatch_declarative-broad-focus_El-bebe-comia-muy-bien.wav,0,,,52.8912,54.9533,0,1,1.5427,,0,7,7,73,1,74,0,cuban,,,,,,,,,,,,,,,,,,,,,,,,,,,,,,,,,,,,,,,,,,,,,,,,,,,,,,,,
,,,,,,,,,66f0a1d13629250f84bc2598,Spanish,13 or older,"no, only English or Spanish",no,2025-08-12_17h14.37.196,empathy_intonation_perc_control,2024.2.4,Win32,144.9275362,66f0a1d13629250f84bc2598,68817205a84113384fffdfe3,689bb0e4099b78b5deeaa84e,,,,,,,,,,,,./stim/wavs/castilian_match_declarative-broad-focus_Maria-bebe-el-vino.wav,0,,,54.9536,57.3006,0,1,1.8334,,0,8,8,47,1,48,0,castilian,,,,,,,,,,,,,,,,,,,,,,,,,,,,,,,,,,,,,,,,,,,,,,,,,,,,,,,,
,,,,,,,,,66f0a1d13629250f84bc2598,Spanish,13 or older,"no, only English or Spanish",no,2025-08-12_17h14.37.196,empathy_intonation_perc_control,2024.2.4,Win32,144.9275362,66f0a1d13629250f84bc2598,68817205a84113384fffdfe3,689bb0e4099b78b5deeaa84e,,,,,,,,,,,,./stim/wavs/castilian_mismatch_interrogative-total-yn_Mi-novio-viene-del-lago.wav,1,,,57.3008,59.606,1,1,1.7918,,0,9,9,27,1,28,0,castilian,,,,,,,,,,,,,,,,,,,,,,,,,,,,,,,,,,,,,,,,,,,,,,,,,,,,,,,,
,,,,,,,,,66f0a1d13629250f84bc2598,Spanish,13 or older,"no, only English or Spanish",no,2025-08-12_17h14.37.196,empathy_intonation_perc_control,2024.2.4,Win32,144.9275362,66f0a1d13629250f84bc2598,68817205a84113384fffdfe3,689bb0e4099b78b5deeaa84e,,,,,,,,,,,,./stim/wavs/puertorican_mismatch_interrogative-total-yn_La-maestra-vive-en-Paris.wav,1,,,59.6063,61.856,0,0,1.7361,,0,10,10,41,1,42,1,puertorican,,,,,,,,,,,,,,,,,,,,,,,,,,,,,,,,,,,,,,,,,,,,,,,,,,,,,,,,
,,,,,,,,,66f0a1d13629250f84bc2598,Spanish,13 or older,"no, only English or Spanish",no,2025-08-12_17h14.37.196,empathy_intonation_perc_control,2024.2.4,Win32,144.9275362,66f0a1d13629250f84bc2598,68817205a84113384fffdfe3,689bb0e4099b78b5deeaa84e,,,,,,,,,,,,./stim/wavs/castilian_mismatch_interrogative-total-yn_Mi-tia-odia-la-lluvia.wav,1,,,61.8564,64.0435,1,1,1.674,,0,11,11,28,1,29,0,castilian,,,,,,,,,,,,,,,,,,,,,,,,,,,,,,,,,,,,,,,,,,,,,,,,,,,,,,,,
,,,,,,,,,66f0a1d13629250f84bc2598,Spanish,13 or older,"no, only English or Spanish",no,2025-08-12_17h14.37.196,empathy_intonation_perc_control,2024.2.4,Win32,144.9275362,66f0a1d13629250f84bc2598,68817205a84113384fffdfe3,689bb0e4099b78b5deeaa84e,,,,,,,,,,,,./stim/wavs/puertorican_mismatch_interrogative-total-yn_La-nina-lava-el-plato.wav,1,,,64.0438,66.4325,0,0,1.8809,,0,12,12,42,1,43,1,puertorican,,,,,,,,,,,,,,,,,,,,,,,,,,,,,,,,,,,,,,,,,,,,,,,,,,,,,,,,
,,,,,,,,,66f0a1d13629250f84bc2598,Spanish,13 or older,"no, only English or Spanish",no,2025-08-12_17h14.37.196,empathy_intonation_perc_control,2024.2.4,Win32,144.9275362,66f0a1d13629250f84bc2598,68817205a84113384fffdfe3,689bb0e4099b78b5deeaa84e,,,,,,,,,,,,./stim/wavs/castilian_match_declarative-broad-focus_Manuela-vende-el-carro.wav,0,,,66.4327,68.9254,0,1,1.98,,0,13,13,46,1,47,0,castilian,,,,,,,,,,,,,,,,,,,,,,,,,,,,,,,,,,,,,,,,,,,,,,,,,,,,,,,,
,,,,,,,,,66f0a1d13629250f84bc2598,Spanish,13 or older,"no, only English or Spanish",no,2025-08-12_17h14.37.196,empathy_intonation_perc_control,2024.2.4,Win32,144.9275362,66f0a1d13629250f84bc2598,68817205a84113384fffdfe3,689bb0e4099b78b5deeaa84e,,,,,,,,,,,,./stim/wavs/castilian_mismatch_declarative-broad-focus_Mi-novio-viene-del-lago.wav,0,,,68.9257,71.3212,0,1,1.8851,,0,14,14,71,1,72,0,castilian,,,,,,,,,,,,,,,,,,,,,,,,,,,,,,,,,,,,,,,,,,,,,,,,,,,,,,,,
,,,,,,,,,66f0a1d13629250f84bc2598,Spanish,13 or older,"no, only English or Spanish",no,2025-08-12_17h14.37.196,empathy_intonation_perc_control,2024.2.4,Win32,144.9275362,66f0a1d13629250f84bc2598,68817205a84113384fffdfe3,689bb0e4099b78b5deeaa84e,,,,,,,,,,,,./stim/wavs/puertorican_match_interrogative-total-yn_Manuela-vende-el-carro.wav,1,,,71.3215,73.6475,1,1,1.8162,,0,15,15,22,1,23,1,puertorican,,,,,,,,,,,,,,,,,,,,,,,,,,,,,,,,,,,,,,,,,,,,,,,,,,,,,,,,
,,,,,,,,,66f0a1d13629250f84bc2598,Spanish,13 or older,"no, only English or Spanish",no,2025-08-12_17h14.37.196,empathy_intonation_perc_control,2024.2.4,Win32,144.9275362,66f0a1d13629250f84bc2598,68817205a84113384fffdfe3,689bb0e4099b78b5deeaa84e,,,,,,,,,,,,./stim/wavs/mexican_mismatch_interrogative-total-yn_Mi-novio-viene-del-lago.wav,1,,,73.6478,75.9322,1,1,1.7709,,0,16,16,37,1,38,0,mexican,,,,,,,,,,,,,,,,,,,,,,,,,,,,,,,,,,,,,,,,,,,,,,,,,,,,,,,,
,,,,,,,,,66f0a1d13629250f84bc2598,Spanish,13 or older,"no, only English or Spanish",no,2025-08-12_17h14.37.196,empathy_intonation_perc_control,2024.2.4,Win32,144.9275362,66f0a1d13629250f84bc2598,68817205a84113384fffdfe3,689bb0e4099b78b5deeaa84e,,,,,,,,,,,,./stim/wavs/castilian_mismatch_interrogative-total-yn_La-nina-lava-el-plato.wav,1,,,75.9325,77.9947,1,1,1.5491,,0,17,17,25,1,26,0,castilian,,,,,,,,,,,,,,,,,,,,,,,,,,,,,,,,,,,,,,,,,,,,,,,,,,,,,,,,
,,,,,,,,,66f0a1d13629250f84bc2598,Spanish,13 or older,"no, only English or Spanish",no,2025-08-12_17h14.37.196,empathy_intonation_perc_control,2024.2.4,Win32,144.9275362,66f0a1d13629250f84bc2598,68817205a84113384fffdfe3,689bb0e4099b78b5deeaa84e,,,,,,,,,,,,./stim/wavs/mexican_match_declarative-broad-focus_Marta-abre-el-regalo.wav,0,,,77.995,80.2586,0,1,1.7517,,0,18,18,61,1,62,0,mexican,,,,,,,,,,,,,,,,,,,,,,,,,,,,,,,,,,,,,,,,,,,,,,,,,,,,,,,,
,,,,,,,,,66f0a1d13629250f84bc2598,Spanish,13 or older,"no, only English or Spanish",no,2025-08-12_17h14.37.196,empathy_intonation_perc_control,2024.2.4,Win32,144.9275362,66f0a1d13629250f84bc2598,68817205a84113384fffdfe3,689bb0e4099b78b5deeaa84e,,,,,,,,,,,,./stim/wavs/mexican_match_interrogative-total-yn_David-leia-el-libro.wav,1,,,80.2589,82.1753,1,1,1.4048,,0,19,19,14,1,15,0,mexican,,,,,,,,,,,,,,,,,,,,,,,,,,,,,,,,,,,,,,,,,,,,,,,,,,,,,,,,
,,,,,,,,,66f0a1d13629250f84bc2598,Spanish,13 or older,"no, only English or Spanish",no,2025-08-12_17h14.37.196,empathy_intonation_perc_control,2024.2.4,Win32,144.9275362,66f0a1d13629250f84bc2598,68817205a84113384fffdfe3,689bb0e4099b78b5deeaa84e,,,,,,,,,,,,./stim/wavs/castilian_match_interrogative-total-yn_Maria-bebe-el-vino.wav,1,,,82.1756,84.1058,1,1,1.4201,,0,20,20,3,1,4,0,castilian,,,,,,,,,,,,,,,,,,,,,,,,,,,,,,,,,,,,,,,,,,,,,,,,,,,,,,,,
,,,,,,,,,66f0a1d13629250f84bc2598,Spanish,13 or older,"no, only English or Spanish",no,2025-08-12_17h14.37.196,empathy_intonation_perc_control,2024.2.4,Win32,144.9275362,66f0a1d13629250f84bc2598,68817205a84113384fffdfe3,689bb0e4099b78b5deeaa84e,,,,,,,,,,,,./stim/wavs/puertorican_match_declarative-broad-focus_Daniel-iba-a-Bolivia.wav,0,,,84.106,86.2863,0,1,1.6712,,0,21,21,63,1,64,0,puertorican,,,,,,,,,,,,,,,,,,,,,,,,,,,,,,,,,,,,,,,,,,,,,,,,,,,,,,,,
,,,,,,,,,66f0a1d13629250f84bc2598,Spanish,13 or older,"no, only English or Spanish",no,2025-08-12_17h14.37.196,empathy_intonation_perc_control,2024.2.4,Win32,144.9275362,66f0a1d13629250f84bc2598,68817205a84113384fffdfe3,689bb0e4099b78b5deeaa84e,,,,,,,,,,,,./stim/wavs/castilian_match_interrogative-total-yn_Manuela-vende-el-carro.wav,1,,,86.2865,88.3279,1,1,1.533,,0,22,22,2,1,3,0,castilian,,,,,,,,,,,,,,,,,,,,,,,,,,,,,,,,,,,,,,,,,,,,,,,,,,,,,,,,
,,,,,,,,,66f0a1d13629250f84bc2598,Spanish,13 or older,"no, only English or Spanish",no,2025-08-12_17h14.37.196,empathy_intonation_perc_control,2024.2.4,Win32,144.9275362,66f0a1d13629250f84bc2598,68817205a84113384fffdfe3,689bb0e4099b78b5deeaa84e,,,,,,,,,,,,./stim/wavs/mexican_mismatch_declarative-broad-focus_El-bebe-comia-muy-bien.wav,0,,,88.3281,90.4043,0,1,1.5653,,0,23,23,78,1,79,0,mexican,,,,,,,,,,,,,,,,,,,,,,,,,,,,,,,,,,,,,,,,,,,,,,,,,,,,,,,,
,,,,,,,,,66f0a1d13629250f84bc2598,Spanish,13 or older,"no, only English or Spanish",no,2025-08-12_17h14.37.196,empathy_intonation_perc_control,2024.2.4,Win32,144.9275362,66f0a1d13629250f84bc2598,68817205a84113384fffdfe3,689bb0e4099b78b5deeaa84e,,,,,,,,,,,,./stim/wavs/cuban_match_declarative-broad-focus_Maria-bebe-el-vino.wav,0,,,90.4046,92.4251,0,1,1.5121,,0,24,24,53,1,54,0,cuban,,,,,,,,,,,,,,,,,,,,,,,,,,,,,,,,,,,,,,,,,,,,,,,,,,,,,,,,
,,,,,,,,,66f0a1d13629250f84bc2598,Spanish,13 or older,"no, only English or Spanish",no,2025-08-12_17h14.37.196,empathy_intonation_perc_control,2024.2.4,Win32,144.9275362,66f0a1d13629250f84bc2598,68817205a84113384fffdfe3,689bb0e4099b78b5deeaa84e,,,,,,,,,,,,./stim/wavs/mexican_mismatch_interrogative-total-yn_La-maestra-vive-en-Paris.wav,1,,,92.4253,94.6334,1,1,1.7003,,0,25,25,36,1,37,0,mexican,,,,,,,,,,,,,,,,,,,,,,,,,,,,,,,,,,,,,,,,,,,,,,,,,,,,,,,,
,,,,,,,,,66f0a1d13629250f84bc2598,Spanish,13 or older,"no, only English or Spanish",no,2025-08-12_17h14.37.196,empathy_intonation_perc_control,2024.2.4,Win32,144.9275362,66f0a1d13629250f84bc2598,68817205a84113384fffdfe3,689bb0e4099b78b5deeaa84e,,,,,,,,,,,,./stim/wavs/puertorican_match_declarative-broad-focus_Maria-bebe-el-vino.wav,0,,,94.6337,96.5709,0,1,1.4268,,0,26,26,67,1,68,0,puertorican,,,,,,,,,,,,,,,,,,,,,,,,,,,,,,,,,,,,,,,,,,,,,,,,,,,,,,,,
,,,,,,,,,66f0a1d13629250f84bc2598,Spanish,13 or older,"no, only English or Spanish",no,2025-08-12_17h14.37.196,empathy_intonation_perc_control,2024.2.4,Win32,144.9275362,66f0a1d13629250f84bc2598,68817205a84113384fffdfe3,689bb0e4099b78b5deeaa84e,,,,,,,,,,,,./stim/wavs/cuban_match_declarative-broad-focus_Ana-lleva-el-abrigo.wav,0,,,96.5712,98.7653,0,1,1.6854,,0,27,27,50,1,51,0,cuban,,,,,,,,,,,,,,,,,,,,,,,,,,,,,,,,,,,,,,,,,,,,,,,,,,,,,,,,
,,,,,,,,,66f0a1d13629250f84bc2598,Spanish,13 or older,"no, only English or Spanish",no,2025-08-12_17h14.37.196,empathy_intonation_perc_control,2024.2.4,Win32,144.9275362,66f0a1d13629250f84bc2598,68817205a84113384fffdfe3,689bb0e4099b78b5deeaa84e,,,,,,,,,,,,./stim/wavs/puertorican_mismatch_declarative-broad-focus_El-hombre-mira-la-luna.wav,0,,,98.7656,100.8695,0,1,1.5919,,0,28,28,84,1,85,0,puertorican,,,,,,,,,,,,,,,,,,,,,,,,,,,,,,,,,,,,,,,,,,,,,,,,,,,,,,,,
,,,,,,,,,66f0a1d13629250f84bc2598,Spanish,13 or older,"no, only English or Spanish",no,2025-08-12_17h14.37.196,empathy_intonation_perc_control,2024.2.4,Win32,144.9275362,66f0a1d13629250f84bc2598,68817205a84113384fffdfe3,689bb0e4099b78b5deeaa84e,,,,,,,,,,,,./stim/wavs/puertorican_match_declarative-broad-focus_David-leia-el-libro.wav,0,,,100.8699,102.7652,0,1,1.384,,0,29,29,64,1,65,0,puertorican,,,,,,,,,,,,,,,,,,,,,,,,,,,,,,,,,,,,,,,,,,,,,,,,,,,,,,,,
,,,,,,,,,66f0a1d13629250f84bc2598,Spanish,13 or older,"no, only English or Spanish",no,2025-08-12_17h14.37.196,empathy_intonation_perc_control,2024.2.4,Win32,144.9275362,66f0a1d13629250f84bc2598,68817205a84113384fffdfe3,689bb0e4099b78b5deeaa84e,,,,,,,,,,,,./stim/wavs/puertorican_mismatch_interrogative-total-yn_El-nino-oye-el-rio.wav,1,,,102.7655,104.8,0,0,1.524,,0,30,30,40,1,41,1,puertorican,,,,,,,,,,,,,,,,,,,,,,,,,,,,,,,,,,,,,,,,,,,,,,,,,,,,,,,,
,,,,,,,,,66f0a1d13629250f84bc2598,Spanish,13 or older,"no, only English or Spanish",no,2025-08-12_17h14.37.196,empathy_intonation_perc_control,2024.2.4,Win32,144.9275362,66f0a1d13629250f84bc2598,68817205a84113384fffdfe3,689bb0e4099b78b5deeaa84e,,,,,,,,,,,,./stim/wavs/puertorican_match_declarative-broad-focus_Emilio-ama-la-marcha.wav,0,,,104.8002,107.05,0,1,1.7381,,0,31,31,65,1,66,0,puertorican,,,,,,,,,,,,,,,,,,,,,,,,,,,,,,,,,,,,,,,,,,,,,,,,,,,,,,,,
,,,,,,,,,66f0a1d13629250f84bc2598,Spanish,13 or older,"no, only English or Spanish",no,2025-08-12_17h14.37.196,empathy_intonation_perc_control,2024.2.4,Win32,144.9275362,66f0a1d13629250f84bc2598,68817205a84113384fffdfe3,689bb0e4099b78b5deeaa84e,,,,,,,,,,,,./stim/wavs/cuban_mismatch_interrogative-total-yn_Mi-novio-viene-del-lago.wav,1,,,107.0502,109.3764,0,0,1.8126,,0,32,32,32,1,33,1,cuban,,,,,,,,,,,,,,,,,,,,,,,,,,,,,,,,,,,,,,,,,,,,,,,,,,,,,,,,
,,,,,,,,,66f0a1d13629250f84bc2598,Spanish,13 or older,"no, only English or Spanish",no,2025-08-12_17h14.37.196,empathy_intonation_perc_control,2024.2.4,Win32,144.9275362,66f0a1d13629250f84bc2598,68817205a84113384fffdfe3,689bb0e4099b78b5deeaa84e,,,,,,,,,,,,./stim/wavs/puertorican_match_declarative-broad-focus_Manuela-vende-el-carro.wav,0,,,109.3766,111.6124,0,1,1.7226,,0,33,33,66,1,67,0,puertorican,,,,,,,,,,,,,,,,,,,,,,,,,,,,,,,,,,,,,,,,,,,,,,,,,,,,,,,,
,,,,,,,,,66f0a1d13629250f84bc2598,Spanish,13 or older,"no, only English or Spanish",no,2025-08-12_17h14.37.196,empathy_intonation_perc_control,2024.2.4,Win32,144.9275362,66f0a1d13629250f84bc2598,68817205a84113384fffdfe3,689bb0e4099b78b5deeaa84e,,,,,,,,,,,,./stim/wavs/mexican_mismatch_declarative-broad-focus_Mi-novio-viene-del-lago.wav,0,,,111.6127,113.911,0,1,1.7849,,0,34,34,81,1,82,0,mexican,,,,,,,,,,,,,,,,,,,,,,,,,,,,,,,,,,,,,,,,,,,,,,,,,,,,,,,,
,,,,,,,,,66f0a1d13629250f84bc2598,Spanish,13 or older,"no, only English or Spanish",no,2025-08-12_17h14.37.196,empathy_intonation_perc_control,2024.2.4,Win32,144.9275362,66f0a1d13629250f84bc2598,68817205a84113384fffdfe3,689bb0e4099b78b5deeaa84e,,,,,,,,,,,,./stim/wavs/cuban_match_interrogative-total-yn_Maria-bebe-el-vino.wav,1,,,113.9113,116.2998,0,0,1.8773,,0,35,35,9,1,10,1,cuban,,,,,,,,,,,,,,,,,,,,,,,,,,,,,,,,,,,,,,,,,,,,,,,,,,,,,,,,
,,,,,,,,,66f0a1d13629250f84bc2598,Spanish,13 or older,"no, only English or Spanish",no,2025-08-12_17h14.37.196,empathy_intonation_perc_control,2024.2.4,Win32,144.9275362,66f0a1d13629250f84bc2598,68817205a84113384fffdfe3,689bb0e4099b78b5deeaa84e,,,,,,,,,,,,./stim/wavs/cuban_match_interrogative-total-yn_Manuela-vende-el-carro.wav,1,,,116.3001,118.5082,0,0,1.6994,,0,36,36,8,1,9,1,cuban,,,,,,,,,,,,,,,,,,,,,,,,,,,,,,,,,,,,,,,,,,,,,,,,,,,,,,,,
,,,,,,,,,66f0a1d13629250f84bc2598,Spanish,13 or older,"no, only English or Spanish",no,2025-08-12_17h14.37.196,empathy_intonation_perc_control,2024.2.4,Win32,144.9275362,66f0a1d13629250f84bc2598,68817205a84113384fffdfe3,689bb0e4099b78b5deeaa84e,,,,,,,,,,,,./stim/wavs/mexican_mismatch_declarative-broad-focus_Mi-tia-odia-la-lluvia.wav,0,,,118.5085,120.8415,0,1,1.8201,,0,37,37,82,1,83,0,mexican,,,,,,,,,,,,,,,,,,,,,,,,,,,,,,,,,,,,,,,,,,,,,,,,,,,,,,,,
,,,,,,,,,66f0a1d13629250f84bc2598,Spanish,13 or older,"no, only English or Spanish",no,2025-08-12_17h14.37.196,empathy_intonation_perc_control,2024.2.4,Win32,144.9275362,66f0a1d13629250f84bc2598,68817205a84113384fffdfe3,689bb0e4099b78b5deeaa84e,,,,,,,,,,,,./stim/wavs/mexican_match_interrogative-total-yn_Marta-abre-el-regalo.wav,1,,,120.8418,123.0776,1,1,1.7238,,0,38,38,17,1,18,0,mexican,,,,,,,,,,,,,,,,,,,,,,,,,,,,,,,,,,,,,,,,,,,,,,,,,,,,,,,,
,,,,,,,,,66f0a1d13629250f84bc2598,Spanish,13 or older,"no, only English or Spanish",no,2025-08-12_17h14.37.196,empathy_intonation_perc_control,2024.2.4,Win32,144.9275362,66f0a1d13629250f84bc2598,68817205a84113384fffdfe3,689bb0e4099b78b5deeaa84e,,,,,,,,,,,,./stim/wavs/mexican_mismatch_declarative-broad-focus_El-hombre-mira-la-luna.wav,0,,,123.0778,125.1679,0,1,1.5778,,0,39,39,79,1,80,0,mexican,,,,,,,,,,,,,,,,,,,,,,,,,,,,,,,,,,,,,,,,,,,,,,,,,,,,,,,,
,,,,,,,,,66f0a1d13629250f84bc2598,Spanish,13 or older,"no, only English or Spanish",no,2025-08-12_17h14.37.196,empathy_intonation_perc_control,2024.2.4,Win32,144.9275362,66f0a1d13629250f84bc2598,68817205a84113384fffdfe3,689bb0e4099b78b5deeaa84e,,,,,,,,,,,,./stim/wavs/castilian_match_interrogative-total-yn_Emilio-ama-la-marcha.wav,1,,,125.1682,127.3275,1,1,1.6514,,0,40,40,1,1,2,0,castilian,,,,,,,,,,,,,,,,,,,,,,,,,,,,,,,,,,,,,,,,,,,,,,,,,,,,,,,,
,,,,,,,,,66f0a1d13629250f84bc2598,Spanish,13 or older,"no, only English or Spanish",no,2025-08-12_17h14.37.196,empathy_intonation_perc_control,2024.2.4,Win32,144.9275362,66f0a1d13629250f84bc2598,68817205a84113384fffdfe3,689bb0e4099b78b5deeaa84e,,,,,,,,,,,,./stim/wavs/mexican_match_declarative-broad-focus_David-leia-el-libro.wav,0,,,127.3277,129.2095,0,1,1.3728,,0,41,41,58,1,59,0,mexican,,,,,,,,,,,,,,,,,,,,,,,,,,,,,,,,,,,,,,,,,,,,,,,,,,,,,,,,
,,,,,,,,,66f0a1d13629250f84bc2598,Spanish,13 or older,"no, only English or Spanish",no,2025-08-12_17h14.37.196,empathy_intonation_perc_control,2024.2.4,Win32,144.9275362,66f0a1d13629250f84bc2598,68817205a84113384fffdfe3,689bb0e4099b78b5deeaa84e,,,,,,,,,,,,./stim/wavs/mexican_match_interrogative-total-yn_Daniel-iba-a-Bolivia.wav,1,,,129.2097,131.2581,1,1,1.5357,,0,42,42,13,1,14,0,mexican,,,,,,,,,,,,,,,,,,,,,,,,,,,,,,,,,,,,,,,,,,,,,,,,,,,,,,,,
,,,,,,,,,66f0a1d13629250f84bc2598,Spanish,13 or older,"no, only English or Spanish",no,2025-08-12_17h14.37.196,empathy_intonation_perc_control,2024.2.4,Win32,144.9275362,66f0a1d13629250f84bc2598,68817205a84113384fffdfe3,689bb0e4099b78b5deeaa84e,,,,,,,,,,,,./stim/wavs/mexican_mismatch_declarative-broad-focus_La-maestra-vive-en-Paris.wav,0,,,131.2583,133.4247,1,0,1.6581,,0,43,43,80,1,81,0,mexican,,,,,,,,,,,,,,,,,,,,,,,,,,,,,,,,,,,,,,,,,,,,,,,,,,,,,,,,
,,,,,,,,,66f0a1d13629250f84bc2598,Spanish,13 or older,"no, only English or Spanish",no,2025-08-12_17h14.37.196,empathy_intonation_perc_control,2024.2.4,Win32,144.9275362,66f0a1d13629250f84bc2598,68817205a84113384fffdfe3,689bb0e4099b78b5deeaa84e,,,,,,,,,,,,./stim/wavs/cuban_mismatch_interrogative-total-yn_El-hombre-mira-la-luna.wav,1,,,133.425,135.7719,1,1,1.8346,,0,44,44,29,1,30,1,cuban,,,,,,,,,,,,,,,,,,,,,,,,,,,,,,,,,,,,,,,,,,,,,,,,,,,,,,,,
,,,,,,,,,66f0a1d13629250f84bc2598,Spanish,13 or older,"no, only English or Spanish",no,2025-08-12_17h14.37.196,empathy_intonation_perc_control,2024.2.4,Win32,144.9275362,66f0a1d13629250f84bc2598,68817205a84113384fffdfe3,689bb0e4099b78b5deeaa84e,,,,,,,,,,,,./stim/wavs/mexican_match_interrogative-total-yn_Emilio-ama-la-marcha.wav,1,,,135.7722,137.9732,1,1,1.6923,,0,45,45,15,1,16,0,mexican,,,,,,,,,,,,,,,,,,,,,,,,,,,,,,,,,,,,,,,,,,,,,,,,,,,,,,,,
,,,,,,,,,66f0a1d13629250f84bc2598,Spanish,13 or older,"no, only English or Spanish",no,2025-08-12_17h14.37.196,empathy_intonation_perc_control,2024.2.4,Win32,144.9275362,66f0a1d13629250f84bc2598,68817205a84113384fffdfe3,689bb0e4099b78b5deeaa84e,,,,,,,,,,,,./stim/wavs/puertorican_match_interrogative-total-yn_Daniel-iba-a-Bolivia.wav,1,,,137.9735,140.2579,0,0,1.775,,0,46,46,19,1,20,1,puertorican,,,,,,,,,,,,,,,,,,,,,,,,,,,,,,,,,,,,,,,,,,,,,,,,,,,,,,,,
,,,,,,,,,66f0a1d13629250f84bc2598,Spanish,13 or older,"no, only English or Spanish",no,2025-08-12_17h14.37.196,empathy_intonation_perc_control,2024.2.4,Win32,144.9275362,66f0a1d13629250f84bc2598,68817205a84113384fffdfe3,689bb0e4099b78b5deeaa84e,,,,,,,,,,,,./stim/wavs/castilian_mismatch_declarative-broad-focus_El-nino-oye-el-rio.wav,0,,,140.2584,142.3622,1,0,1.5912,,0,47,47,68,1,69,0,castilian,,,,,,,,,,,,,,,,,,,,,,,,,,,,,,,,,,,,,,,,,,,,,,,,,,,,,,,,
,,,,,,,,,66f0a1d13629250f84bc2598,Spanish,13 or older,"no, only English or Spanish",no,2025-08-12_17h14.37.196,empathy_intonation_perc_control,2024.2.4,Win32,144.9275362,66f0a1d13629250f84bc2598,68817205a84113384fffdfe3,689bb0e4099b78b5deeaa84e,,,,,,,,,,,,./stim/wavs/puertorican_match_interrogative-total-yn_Emilio-ama-la-marcha.wav,1,,,142.3625,144.376,1,1,1.5012,,0,48,48,21,1,22,1,puertorican,,,,,,,,,,,,,,,,,,,,,,,,,,,,,,,,,,,,,,,,,,,,,,,,,,,,,,,,
,,,,,,,,,66f0a1d13629250f84bc2598,Spanish,13 or older,"no, only English or Spanish",no,2025-08-12_17h14.37.196,empathy_intonation_perc_control,2024.2.4,Win32,144.9275362,66f0a1d13629250f84bc2598,68817205a84113384fffdfe3,689bb0e4099b78b5deeaa84e,,,,,,,,,,,,./stim/wavs/mexican_match_interrogative-total-yn_Mariano-habla-del-tiempo.wav,1,,,144.3763,146.4176,1,1,1.5315,,0,49,49,16,1,17,0,mexican,,,,,,,,,,,,,,,,,,,,,,,,,,,,,,,,,,,,,,,,,,,,,,,,,,,,,,,,
,,,,,,,,,66f0a1d13629250f84bc2598,Spanish,13 or older,"no, only English or Spanish",no,2025-08-12_17h14.37.196,empathy_intonation_perc_control,2024.2.4,Win32,144.9275362,66f0a1d13629250f84bc2598,68817205a84113384fffdfe3,689bb0e4099b78b5deeaa84e,,,,,,,,,,,,./stim/wavs/castilian_mismatch_declarative-broad-focus_La-nina-lava-el-plato.wav,0,,,146.4179,148.619,1,0,1.6915,,0,50,50,70,1,71,0,castilian,,,,,,,,,,,,,,,,,,,,,,,,,,,,,,,,,,,,,,,,,,,,,,,,,,,,,,,,
,,,,,,,,,66f0a1d13629250f84bc2598,Spanish,13 or older,"no, only English or Spanish",no,2025-08-12_17h14.37.196,empathy_intonation_perc_control,2024.2.4,Win32,144.9275362,66f0a1d13629250f84bc2598,68817205a84113384fffdfe3,689bb0e4099b78b5deeaa84e,,,,,,,,,,,,./stim/wavs/puertorican_mismatch_declarative-broad-focus_El-bebe-comia-muy-bien.wav,0,,,148.6194,150.7648,1,0,1.6361,,0,51,51,83,1,84,0,puertorican,,,,,,,,,,,,,,,,,,,,,,,,,,,,,,,,,,,,,,,,,,,,,,,,,,,,,,,,
,,,,,,,,,66f0a1d13629250f84bc2598,Spanish,13 or older,"no, only English or Spanish",no,2025-08-12_17h14.37.196,empathy_intonation_perc_control,2024.2.4,Win32,144.9275362,66f0a1d13629250f84bc2598,68817205a84113384fffdfe3,689bb0e4099b78b5deeaa84e,,,,,,,,,,,,./stim/wavs/cuban_match_interrogative-total-yn_Ana-lleva-el-abrigo.wav,1,,,150.765,152.9384,0,0,1.6597,,0,52,52,6,1,7,1,cuban,,,,,,,,,,,,,,,,,,,,,,,,,,,,,,,,,,,,,,,,,,,,,,,,,,,,,,,,
,,,,,,,,,66f0a1d13629250f84bc2598,Spanish,13 or older,"no, only English or Spanish",no,2025-08-12_17h14.37.196,empathy_intonation_perc_control,2024.2.4,Win32,144.9275362,66f0a1d13629250f84bc2598,68817205a84113384fffdfe3,689bb0e4099b78b5deeaa84e,,,,,,,,,,,,./stim/wavs/puertorican_mismatch_declarative-broad-focus_El-nino-oye-el-rio.wav,0,,,152.9387,155.0912,0,1,1.6397,,0,53,53,85,1,86,0,puertorican,,,,,,,,,,,,,,,,,,,,,,,,,,,,,,,,,,,,,,,,,,,,,,,,,,,,,,,,
,,,,,,,,,66f0a1d13629250f84bc2598,Spanish,13 or older,"no, only English or Spanish",no,2025-08-12_17h14.37.196,empathy_intonation_perc_control,2024.2.4,Win32,144.9275362,66f0a1d13629250f84bc2598,68817205a84113384fffdfe3,689bb0e4099b78b5deeaa84e,,,,,,,,,,,,./stim/wavs/castilian_match_interrogative-total-yn_Marta-abre-el-regalo.wav,1,,,155.0914,157.5772,1,1,1.9752,,0,54,54,5,1,6,0,castilian,,,,,,,,,,,,,,,,,,,,,,,,,,,,,,,,,,,,,,,,,,,,,,,,,,,,,,,,
,,,,,,,,,66f0a1d13629250f84bc2598,Spanish,13 or older,"no, only English or Spanish",no,2025-08-12_17h14.37.196,empathy_intonation_perc_control,2024.2.4,Win32,144.9275362,66f0a1d13629250f84bc2598,68817205a84113384fffdfe3,689bb0e4099b78b5deeaa84e,,,,,,,,,,,,./stim/wavs/puertorican_mismatch_declarative-broad-focus_La-nina-lava-el-plato.wav,0,,,157.5775,159.9453,1,0,1.8569,,0,55,55,87,1,88,0,puertorican,,,,,,,,,,,,,,,,,,,,,,,,,,,,,,,,,,,,,,,,,,,,,,,,,,,,,,,,
,,,,,,,,,66f0a1d13629250f84bc2598,Spanish,13 or older,"no, only English or Spanish",no,2025-08-12_17h14.37.196,empathy_intonation_perc_control,2024.2.4,Win32,144.9275362,66f0a1d13629250f84bc2598,68817205a84113384fffdfe3,689bb0e4099b78b5deeaa84e,,,,,,,,,,,,./stim/wavs/castilian_match_interrogative-total-yn_Mariano-habla-del-tiempo.wav,1,,,159.9455,161.7647,1,1,1.3109,,0,56,56,4,1,5,0,castilian,,,,,,,,,,,,,,,,,,,,,,,,,,,,,,,,,,,,,,,,,,,,,,,,,,,,,,,,
,,,,,,,,,66f0a1d13629250f84bc2598,Spanish,13 or older,"no, only English or Spanish",no,2025-08-12_17h14.37.196,empathy_intonation_perc_control,2024.2.4,Win32,144.9275362,66f0a1d13629250f84bc2598,68817205a84113384fffdfe3,689bb0e4099b78b5deeaa84e,,,,,,,,,,,,./stim/wavs/mexican_match_declarative-broad-focus_Emilio-ama-la-marcha.wav,0,,,161.7651,163.4453,1,0,1.1705,,0,57,57,59,1,60,0,mexican,,,,,,,,,,,,,,,,,,,,,,,,,,,,,,,,,,,,,,,,,,,,,,,,,,,,,,,,
,,,,,,,,,66f0a1d13629250f84bc2598,Spanish,13 or older,"no, only English or Spanish",no,2025-08-12_17h14.37.196,empathy_intonation_perc_control,2024.2.4,Win32,144.9275362,66f0a1d13629250f84bc2598,68817205a84113384fffdfe3,689bb0e4099b78b5deeaa84e,,,,,,,,,,,,./stim/wavs/castilian_match_declarative-broad-focus_Mariano-habla-del-tiempo.wav,0,,,163.4456,166.0493,0,1,2.0929,,0,58,58,48,1,49,0,castilian,,,,,,,,,,,,,,,,,,,,,,,,,,,,,,,,,,,,,,,,,,,,,,,,,,,,,,,,
,,,,,,,,,66f0a1d13629250f84bc2598,Spanish,13 or older,"no, only English or Spanish",no,2025-08-12_17h14.37.196,empathy_intonation_perc_control,2024.2.4,Win32,144.9275362,66f0a1d13629250f84bc2598,68817205a84113384fffdfe3,689bb0e4099b78b5deeaa84e,,,,,,,,,,,,./stim/wavs/castilian_mismatch_interrogative-total-yn_La-maestra-vive-en-Paris.wav,1,,,166.0497,168.591,1,1,2.0309,,0,59,59,24,1,25,0,castilian,,,,,,,,,,,,,,,,,,,,,,,,,,,,,,,,,,,,,,,,,,,,,,,,,,,,,,,,
,,,,,,,,,66f0a1d13629250f84bc2598,Spanish,13 or older,"no, only English or Spanish",no,2025-08-12_17h14.37.196,empathy_intonation_perc_control,2024.2.4,Win32,144.9275362,66f0a1d13629250f84bc2598,68817205a84113384fffdfe3,689bb0e4099b78b5deeaa84e,,,,,,,,,,,,./stim/wavs/castilian_mismatch_interrogative-total-yn_Mi-madre-come-la-fruta.wav,1,,,168.5914,170.7785,1,1,1.6741,,0,60,60,26,1,27,0,castilian,,,,,,,,,,,,,,,,,,,,,,,,,,,,,,,,,,,,,,,,,,,,,,,,,,,,,,,,
,,,,,,,,,66f0a1d13629250f84bc2598,Spanish,13 or older,"no, only English or Spanish",no,2025-08-12_17h14.37.196,empathy_intonation_perc_control,2024.2.4,Win32,144.9275362,66f0a1d13629250f84bc2598,68817205a84113384fffdfe3,689bb0e4099b78b5deeaa84e,,,,,,,,,,,,./stim/wavs/castilian_match_declarative-broad-focus_Emilio-ama-la-marcha.wav,0,,,170.7788,172.9243,1,0,1.6366,,0,61,61,45,1,46,0,castilian,,,,,,,,,,,,,,,,,,,,,,,,,,,,,,,,,,,,,,,,,,,,,,,,,,,,,,,,
,,,,,,,,,66f0a1d13629250f84bc2598,Spanish,13 or older,"no, only English or Spanish",no,2025-08-12_17h14.37.196,empathy_intonation_perc_control,2024.2.4,Win32,144.9275362,66f0a1d13629250f84bc2598,68817205a84113384fffdfe3,689bb0e4099b78b5deeaa84e,,,,,,,,,,,,./stim/wavs/cuban_match_interrogative-total-yn_Marta-abre-el-regalo.wav,1,,,172.9246,175.5633,0,0,2.1309,,0,62,62,11,1,12,1,cuban,,,,,,,,,,,,,,,,,,,,,,,,,,,,,,,,,,,,,,,,,,,,,,,,,,,,,,,,
,,,,,,,,,66f0a1d13629250f84bc2598,Spanish,13 or older,"no, only English or Spanish",no,2025-08-12_17h14.37.196,empathy_intonation_perc_control,2024.2.4,Win32,144.9275362,66f0a1d13629250f84bc2598,68817205a84113384fffdfe3,689bb0e4099b78b5deeaa84e,,,,,,,,,,,,./stim/wavs/cuban_mismatch_declarative-broad-focus_Mi-novio-viene-del-lago.wav,0,,,175.5635,177.8062,0,1,1.7299,,0,63,63,76,1,77,0,cuban,,,,,,,,,,,,,,,,,,,,,,,,,,,,,,,,,,,,,,,,,,,,,,,,,,,,,,,,
,,,,,,,,,66f0a1d13629250f84bc2598,Spanish,13 or older,"no, only English or Spanish",no,2025-08-12_17h14.37.196,empathy_intonation_perc_control,2024.2.4,Win32,144.9275362,66f0a1d13629250f84bc2598,68817205a84113384fffdfe3,689bb0e4099b78b5deeaa84e,,,,,,,,,,,,./stim/wavs/cuban_match_interrogative-total-yn_Daniel-iba-a-Bolivia.wav,1,,,177.8065,179.7575,1,1,1.4381,,0,64,64,7,1,8,1,cuban,,,,,,,,,,,,,,,,,,,,,,,,,,,,,,,,,,,,,,,,,,,,,,,,,,,,,,,,
,,,,,,,,,66f0a1d13629250f84bc2598,Spanish,13 or older,"no, only English or Spanish",no,2025-08-12_17h14.37.196,empathy_intonation_perc_control,2024.2.4,Win32,144.9275362,66f0a1d13629250f84bc2598,68817205a84113384fffdfe3,689bb0e4099b78b5deeaa84e,,,,,,,,,,,,./stim/wavs/mexican_match_declarative-broad-focus_Ana-lleva-el-abrigo.wav,0,,,179.7578,181.4797,0,1,1.2084,,0,65,65,56,1,57,0,mexican,,,,,,,,,,,,,,,,,,,,,,,,,,,,,,,,,,,,,,,,,,,,,,,,,,,,,,,,
,,,,,,,,,66f0a1d13629250f84bc2598,Spanish,13 or older,"no, only English or Spanish",no,2025-08-12_17h14.37.196,empathy_intonation_perc_control,2024.2.4,Win32,144.9275362,66f0a1d13629250f84bc2598,68817205a84113384fffdfe3,689bb0e4099b78b5deeaa84e,,,,,,,,,,,,./stim/wavs/mexican_match_declarative-broad-focus_Daniel-iba-a-Bolivia.wav,0,,,181.4801,183.5423,1,0,1.5555,,0,66,66,57,1,58,0,mexican,,,,,,,,,,,,,,,,,,,,,,,,,,,,,,,,,,,,,,,,,,,,,,,,,,,,,,,,
,,,,,,,,,66f0a1d13629250f84bc2598,Spanish,13 or older,"no, only English or Spanish",no,2025-08-12_17h14.37.196,empathy_intonation_perc_control,2024.2.4,Win32,144.9275362,66f0a1d13629250f84bc2598,68817205a84113384fffdfe3,689bb0e4099b78b5deeaa84e,,,,,,,,,,,,./stim/wavs/cuban_match_declarative-broad-focus_Mariano-habla-del-tiempo.wav,0,,,183.5427,185.8894,0,1,1.834,,0,67,67,54,1,55,0,cuban,,,,,,,,,,,,,,,,,,,,,,,,,,,,,,,,,,,,,,,,,,,,,,,,,,,,,,,,
,,,,,,,,,66f0a1d13629250f84bc2598,Spanish,13 or older,"no, only English or Spanish",no,2025-08-12_17h14.37.196,empathy_intonation_perc_control,2024.2.4,Win32,144.9275362,66f0a1d13629250f84bc2598,68817205a84113384fffdfe3,689bb0e4099b78b5deeaa84e,,,,,,,,,,,,./stim/wavs/puertorican_mismatch_interrogative-total-yn_Mi-madre-come-la-fruta.wav,1,,,185.8897,187.9658,0,0,1.5648,,0,68,68,43,1,44,1,puertorican,,,,,,,,,,,,,,,,,,,,,,,,,,,,,,,,,,,,,,,,,,,,,,,,,,,,,,,,
,,,,,,,,,66f0a1d13629250f84bc2598,Spanish,13 or older,"no, only English or Spanish",no,2025-08-12_17h14.37.196,empathy_intonation_perc_control,2024.2.4,Win32,144.9275362,66f0a1d13629250f84bc2598,68817205a84113384fffdfe3,689bb0e4099b78b5deeaa84e,,,,,,,,,,,,./stim/wavs/castilian_match_declarative-broad-focus_David-leia-el-libro.wav,0,,,187.9661,190.2436,0,1,1.7685,,0,69,69,44,1,45,0,castilian,,,,,,,,,,,,,,,,,,,,,,,,,,,,,,,,,,,,,,,,,,,,,,,,,,,,,,,,
,,,,,,,,,66f0a1d13629250f84bc2598,Spanish,13 or older,"no, only English or Spanish",no,2025-08-12_17h14.37.196,empathy_intonation_perc_control,2024.2.4,Win32,144.9275362,66f0a1d13629250f84bc2598,68817205a84113384fffdfe3,689bb0e4099b78b5deeaa84e,,,,,,,,,,,,./stim/wavs/puertorican_match_interrogative-total-yn_Maria-bebe-el-vino.wav,1,,,190.2438,192.2227,0,0,1.4654,,0,70,70,23,1,24,1,puertorican,,,,,,,,,,,,,,,,,,,,,,,,,,,,,,,,,,,,,,,,,,,,,,,,,,,,,,,,
,,,,,,,,,66f0a1d13629250f84bc2598,Spanish,13 or older,"no, only English or Spanish",no,2025-08-12_17h14.37.196,empathy_intonation_perc_control,2024.2.4,Win32,144.9275362,66f0a1d13629250f84bc2598,68817205a84113384fffdfe3,689bb0e4099b78b5deeaa84e,,,,,,,,,,,,./stim/wavs/cuban_match_declarative-broad-focus_Manuela-vende-el-carro.wav,0,,,192.223,194.3755,0,1,1.6425,,0,71,71,52,1,53,0,cuban,,,,,,,,,,,,,,,,,,,,,,,,,,,,,,,,,,,,,,,,,,,,,,,,,,,,,,,,
,,,,,,,,,66f0a1d13629250f84bc2598,Spanish,13 or older,"no, only English or Spanish",no,2025-08-12_17h14.37.196,empathy_intonation_perc_control,2024.2.4,Win32,144.9275362,66f0a1d13629250f84bc2598,68817205a84113384fffdfe3,689bb0e4099b78b5deeaa84e,,,,,,,,,,,,./stim/wavs/mexican_mismatch_interrogative-total-yn_Mi-tia-odia-la-lluvia.wav,1,,,194.3757,196.4379,1,1,1.5526,,0,72,72,38,1,39,0,mexican,,,,,,,,,,,,,,,,,,,,,,,,,,,,,,,,,,,,,,,,,,,,,,,,,,,,,,,,
,,,,,,,,,66f0a1d13629250f84bc2598,Spanish,13 or older,"no, only English or Spanish",no,2025-08-12_17h14.37.196,empathy_intonation_perc_control,2024.2.4,Win32,144.9275362,66f0a1d13629250f84bc2598,68817205a84113384fffdfe3,689bb0e4099b78b5deeaa84e,,,,,,,,,,,,./stim/wavs/cuban_mismatch_interrogative-total-yn_Mi-tia-odia-la-lluvia.wav,1,,,196.4383,198.3477,1,1,1.3982,,0,73,73,33,1,34,1,cuban,,,,,,,,,,,,,,,,,,,,,,,,,,,,,,,,,,,,,,,,,,,,,,,,,,,,,,,,
,,,,,,,,,66f0a1d13629250f84bc2598,Spanish,13 or older,"no, only English or Spanish",no,2025-08-12_17h14.37.196,empathy_intonation_perc_control,2024.2.4,Win32,144.9275362,66f0a1d13629250f84bc2598,68817205a84113384fffdfe3,689bb0e4099b78b5deeaa84e,,,,,,,,,,,,./stim/wavs/cuban_match_declarative-broad-focus_Marta-abre-el-regalo.wav,0,,,198.348,200.4865,0,1,1.6296,,0,74,74,55,1,56,0,cuban,,,,,,,,,,,,,,,,,,,,,,,,,,,,,,,,,,,,,,,,,,,,,,,,,,,,,,,,
,,,,,,,,,66f0a1d13629250f84bc2598,Spanish,13 or older,"no, only English or Spanish",no,2025-08-12_17h14.37.196,empathy_intonation_perc_control,2024.2.4,Win32,144.9275362,66f0a1d13629250f84bc2598,68817205a84113384fffdfe3,689bb0e4099b78b5deeaa84e,,,,,,,,,,,,./stim/wavs/cuban_mismatch_declarative-broad-focus_Mi-tia-odia-la-lluvia.wav,0,,,200.4868,202.5142,0,1,1.5175,,0,75,75,77,1,78,0,cuban,,,,,,,,,,,,,,,,,,,,,,,,,,,,,,,,,,,,,,,,,,,,,,,,,,,,,,,,
,,,,,,,,,66f0a1d13629250f84bc2598,Spanish,13 or older,"no, only English or Spanish",no,2025-08-12_17h14.37.196,empathy_intonation_perc_control,2024.2.4,Win32,144.9275362,66f0a1d13629250f84bc2598,68817205a84113384fffdfe3,689bb0e4099b78b5deeaa84e,,,,,,,,,,,,./stim/wavs/puertorican_mismatch_declarative-broad-focus_La-maestra-vive-en-Paris.wav,0,,,202.5146,204.6185,0,1,1.5919,,0,76,76,86,1,87,0,puertorican,,,,,,,,,,,,,,,,,,,,,,,,,,,,,,,,,,,,,,,,,,,,,,,,,,,,,,,,
,,,,,,,,,66f0a1d13629250f84bc2598,Spanish,13 or older,"no, only English or Spanish",no,2025-08-12_17h14.37.196,empathy_intonation_perc_control,2024.2.4,Win32,144.9275362,66f0a1d13629250f84bc2598,68817205a84113384fffdfe3,689bb0e4099b78b5deeaa84e,,,,,,,,,,,,./stim/wavs/cuban_mismatch_declarative-broad-focus_El-hombre-mira-la-luna.wav,0,,,204.6189,206.3128,0,1,1.1736,,0,77,77,74,1,75,0,cuban,,,,,,,,,,,,,,,,,,,,,,,,,,,,,,,,,,,,,,,,,,,,,,,,,,,,,,,,
,,,,,,,,,66f0a1d13629250f84bc2598,Spanish,13 or older,"no, only English or Spanish",no,2025-08-12_17h14.37.196,empathy_intonation_perc_control,2024.2.4,Win32,144.9275362,66f0a1d13629250f84bc2598,68817205a84113384fffdfe3,689bb0e4099b78b5deeaa84e,,,,,,,,,,,,./stim/wavs/cuban_match_declarative-broad-focus_Daniel-iba-a-Bolivia.wav,0,,,206.3131,208.3892,0,1,1.5682,,0,78,78,51,1,52,0,cuban,,,,,,,,,,,,,,,,,,,,,,,,,,,,,,,,,,,,,,,,,,,,,,,,,,,,,,,,
,,,,,,,,,66f0a1d13629250f84bc2598,Spanish,13 or older,"no, only English or Spanish",no,2025-08-12_17h14.37.196,empathy_intonation_perc_control,2024.2.4,Win32,144.9275362,66f0a1d13629250f84bc2598,68817205a84113384fffdfe3,689bb0e4099b78b5deeaa84e,,,,,,,,,,,,./stim/wavs/castilian_mismatch_declarative-broad-focus_Mi-tia-odia-la-lluvia.wav,0,,,208.3895,210.4101,1,0,1.5096,,0,79,79,72,1,73,0,castilian,,,,,,,,,,,,,,,,,,,,,,,,,,,,,,,,,,,,,,,,,,,,,,,,,,,,,,,,
,,,,,,,,,66f0a1d13629250f84bc2598,Spanish,13 or older,"no, only English or Spanish",no,2025-08-12_17h14.37.196,empathy_intonation_perc_control,2024.2.4,Win32,144.9275362,66f0a1d13629250f84bc2598,68817205a84113384fffdfe3,689bb0e4099b78b5deeaa84e,,,,,,,,,,,,./stim/wavs/cuban_mismatch_interrogative-total-yn_Mi-madre-come-la-fruta.wav,1,,,210.4104,212.6462,0,0,1.7242,,0,80,80,31,1,32,1,cuban,,,,,,,,,,,,,,,,,,,,,,,,,,,,,,,,,,,,,,,,,,,,,,,,,,,,,,,,
,,,,,,,,,66f0a1d13629250f84bc2598,Spanish,13 or older,"no, only English or Spanish",no,2025-08-12_17h14.37.196,empathy_intonation_perc_control,2024.2.4,Win32,144.9275362,66f0a1d13629250f84bc2598,68817205a84113384fffdfe3,689bb0e4099b78b5deeaa84e,,,,,,,,,,,,./stim/wavs/puertorican_match_declarative-broad-focus_Ana-lleva-el-abrigo.wav,0,,,212.6465,214.5628,0,1,1.4079,,0,81,81,62,1,63,0,puertorican,,,,,,,,,,,,,,,,,,,,,,,,,,,,,,,,,,,,,,,,,,,,,,,,,,,,,,,,
,,,,,,,,,66f0a1d13629250f84bc2598,Spanish,13 or older,"no, only English or Spanish",no,2025-08-12_17h14.37.196,empathy_intonation_perc_control,2024.2.4,Win32,144.9275362,66f0a1d13629250f84bc2598,68817205a84113384fffdfe3,689bb0e4099b78b5deeaa84e,,,,,,,,,,,,./stim/wavs/puertorican_mismatch_interrogative-total-yn_El-hombre-mira-la-luna.wav,1,,,214.5631,216.6807,0,0,1.6063,,0,82,82,39,1,40,1,puertorican,,,,,,,,,,,,,,,,,,,,,,,,,,,,,,,,,,,,,,,,,,,,,,,,,,,,,,,,
,,,,,,,,,66f0a1d13629250f84bc2598,Spanish,13 or older,"no, only English or Spanish",no,2025-08-12_17h14.37.196,empathy_intonation_perc_control,2024.2.4,Win32,144.9275362,66f0a1d13629250f84bc2598,68817205a84113384fffdfe3,689bb0e4099b78b5deeaa84e,,,,,,,,,,,,./stim/wavs/castilian_mismatch_declarative-broad-focus_La-maestra-vive-en-Paris.wav,0,,,216.6811,219.7572,0,1,2.5673,,0,83,83,69,1,70,0,castilian,,,,,,,,,,,,,,,,,,,,,,,,,,,,,,,,,,,,,,,,,,,,,,,,,,,,,,,,
,,,,,,,,,66f0a1d13629250f84bc2598,Spanish,13 or older,"no, only English or Spanish",no,2025-08-12_17h14.37.196,empathy_intonation_perc_control,2024.2.4,Win32,144.9275362,66f0a1d13629250f84bc2598,68817205a84113384fffdfe3,689bb0e4099b78b5deeaa84e,,,,,,,,,,,,./stim/wavs/mexican_match_declarative-broad-focus_Mariano-habla-del-tiempo.wav,0,,,219.7574,221.8474,0,1,1.5791,,0,84,84,60,1,61,0,mexican,,,,,,,,,,,,,,,,,,,,,,,,,,,,,,,,,,,,,,,,,,,,,,,,,,,,,,,,
,,,,,,,,,66f0a1d13629250f84bc2598,Spanish,13 or older,"no, only English or Spanish",no,2025-08-12_17h14.37.196,empathy_intonation_perc_control,2024.2.4,Win32,144.9275362,66f0a1d13629250f84bc2598,68817205a84113384fffdfe3,689bb0e4099b78b5deeaa84e,,,,,,,,,,,,./stim/wavs/cuban_match_interrogative-total-yn_Mariano-habla-del-tiempo.wav,1,,,221.8477,224.0626,0,0,1.7058,,0,85,85,10,1,11,1,cuban,,,,,,,,,,,,,,,,,,,,,,,,,,,,,,,,,,,,,,,,,,,,,,,,,,,,,,,,
,,,,,,,,,66f0a1d13629250f84bc2598,Spanish,13 or older,"no, only English or Spanish",no,2025-08-12_17h14.37.196,empathy_intonation_perc_control,2024.2.4,Win32,144.9275362,66f0a1d13629250f84bc2598,68817205a84113384fffdfe3,689bb0e4099b78b5deeaa84e,,,,,,,,,,,,./stim/wavs/mexican_mismatch_interrogative-total-yn_El-nino-oye-el-rio.wav,1,,,224.063,226.4307,1,1,1.8585,,0,86,86,35,1,36,0,mexican,,,,,,,,,,,,,,,,,,,,,,,,,,,,,,,,,,,,,,,,,,,,,,,,,,,,,,,,
,,,,,,,,,66f0a1d13629250f84bc2598,Spanish,13 or older,"no, only English or Spanish",no,2025-08-12_17h14.37.196,empathy_intonation_perc_control,2024.2.4,Win32,144.9275362,66f0a1d13629250f84bc2598,68817205a84113384fffdfe3,689bb0e4099b78b5deeaa84e,,,,,,,,,,,,./stim/wavs/mexican_match_interrogative-total-yn_Ana-lleva-el-abrigo.wav,1,,,226.4309,229.1877,1,1,2.2465,,0,87,87,12,1,13,0,mexican,,,,,,,,,,,,,,,,,,,,,,,,,,,,,,,,,,,,,,,,,,,,,,,,,,,,,,,,
,,,,,,,"Great! Now we will move on. The next task consists of about 60 trials, in each of which you will see a string of letters. 
  
  Your task is to decide whether this is a real Spanish word or not.", (press the spacebar to continue),66f0a1d13629250f84bc2598,Spanish,13 or older,"no, only English or Spanish",no,2025-08-12_17h14.37.196,empathy_intonation_perc_control,2024.2.4,Win32,144.9275362,66f0a1d13629250f84bc2598,68817205a84113384fffdfe3,689bb0e4099b78b5deeaa84e,,,,,,,,,,,,,,,,,,,,,,,,,,,,,,229.1907,237.0419,0,0,0,0,1,,,,,,,,,,,,,,,,,,,,,,,,,,,,,,,,,,,,,,,,,,,,,,,,,
,,,,,,,"If you think it is an existing Spanish word, you type '1' (for 'REAL'), and if you think it is not an existing Spanish word, you type '0' (for 'FAKE').", (press the spacebar to continue),66f0a1d13629250f84bc2598,Spanish,13 or older,"no, only English or Spanish",no,2025-08-12_17h14.37.196,empathy_intonation_perc_control,2024.2.4,Win32,144.9275362,66f0a1d13629250f84bc2598,68817205a84113384fffdfe3,689bb0e4099b78b5deeaa84e,,,,,,,,,,,,,,,,,,,,,,,,,,,,,,237.0432,239.6389,0,1,1,1,1,,,,,,,,,,,,,,,,,,,,,,,,,,,,,,,,,,,,,,,,,,,,,,,,,
,,,,,,,"If you are sure that the word exists, even though you don’t know its exact meaning, you may still respond '1' (REAL). 
  
  But if you are not sure if it is an existing word, you should respond '0' (FAKE).
  
  Let's do a practice round...", (press the spacebar to continue),66f0a1d13629250f84bc2598,Spanish,13 or older,"no, only English or Spanish",no,2025-08-12_17h14.37.196,empathy_intonation_perc_control,2024.2.4,Win32,144.9275362,66f0a1d13629250f84bc2598,68817205a84113384fffdfe3,689bb0e4099b78b5deeaa84e,,,,,,,,,,,,,,,,,,,,,,,,,,,,,,239.6399,243.007,0,2,2,2,1,,,,,,,,,,,,,,,,,,,,,,,,,,,,,,,,,,,,,,,,,,,,,,,,,
,,,,,,,,,66f0a1d13629250f84bc2598,Spanish,13 or older,"no, only English or Spanish",no,2025-08-12_17h14.37.196,empathy_intonation_perc_control,2024.2.4,Win32,144.9275362,66f0a1d13629250f84bc2598,68817205a84113384fffdfe3,689bb0e4099b78b5deeaa84e,,,,,,,,,,,,,0,,,,,,,,,,,,,,,,,,,,,,,,243.0096,247.5626,1,0,4.0364,,247.5628,248.5624,0,0,0,0,1,0,depiste,REAL,FAKE,,,,,,,,,,,,,,,,,,,,,,,,,,,,,,,,
,,,,,,,,,66f0a1d13629250f84bc2598,Spanish,13 or older,"no, only English or Spanish",no,2025-08-12_17h14.37.196,empathy_intonation_perc_control,2024.2.4,Win32,144.9275362,66f0a1d13629250f84bc2598,68817205a84113384fffdfe3,689bb0e4099b78b5deeaa84e,,,,,,,,,,,,,1,,,,,,,,,,,,,,,,,,,,,,,,248.5634,250.8958,1,1,1.8126,,250.8964,251.8957,0,1,1,1,1,0,sí,REAL,FAKE,,,,,,,,,,,,,,,,,,,,,,,,,,,,,,,,
,,,,,,,,,66f0a1d13629250f84bc2598,Spanish,13 or older,"no, only English or Spanish",no,2025-08-12_17h14.37.196,empathy_intonation_perc_control,2024.2.4,Win32,144.9275362,66f0a1d13629250f84bc2598,68817205a84113384fffdfe3,689bb0e4099b78b5deeaa84e,,,,,,,,,,,,,0,,,,,,,,,,,,,,,,,,,,,,,,251.8967,256.9234,0,1,4.5067,,256.9234,257.9235,0,2,2,2,1,0,coné,REAL,FAKE,,,,,,,,,,,,,,,,,,,,,,,,,,,,,,,,
,,,,,,,,,66f0a1d13629250f84bc2598,Spanish,13 or older,"no, only English or Spanish",no,2025-08-12_17h14.37.196,empathy_intonation_perc_control,2024.2.4,Win32,144.9275362,66f0a1d13629250f84bc2598,68817205a84113384fffdfe3,689bb0e4099b78b5deeaa84e,,,,,,,,,,,,,0,,,,,,,,,,,,,,,,,,,,,,,,257.924,259.5692,0,1,1.1288,,259.5692,260.5703,0,3,3,3,1,0,calpar,REAL,FAKE,,,,,,,,,,,,,,,,,,,,,,,,,,,,,,,,
,,,,,,,,,66f0a1d13629250f84bc2598,Spanish,13 or older,"no, only English or Spanish",no,2025-08-12_17h14.37.196,empathy_intonation_perc_control,2024.2.4,Win32,144.9275362,66f0a1d13629250f84bc2598,68817205a84113384fffdfe3,689bb0e4099b78b5deeaa84e,,,,,,,,,,,,,0,,,,,,,,,,,,,,,,,,,,,,,,260.571,261.8818,0,1,0.792,,261.8818,262.8817,0,4,4,4,1,0,joten,REAL,FAKE,,,,,,,,,,,,,,,,,,,,,,,,,,,,,,,,
,,,,,,,,,66f0a1d13629250f84bc2598,Spanish,13 or older,"no, only English or Spanish",no,2025-08-12_17h14.37.196,empathy_intonation_perc_control,2024.2.4,Win32,144.9275362,66f0a1d13629250f84bc2598,68817205a84113384fffdfe3,689bb0e4099b78b5deeaa84e,,,,,,,,,,,,,1,,,,,,,,,,,,,,,,,,,,,,,,262.8822,264.3957,0,0,0.9962,,264.3961,265.3955,0,5,5,5,1,0,sacapuntas,REAL,FAKE,,,,,,,,,,,,,,,,,,,,,,,,,,,,,,,,
,,,,,,,,,66f0a1d13629250f84bc2598,Spanish,13 or older,"no, only English or Spanish",no,2025-08-12_17h14.37.196,empathy_intonation_perc_control,2024.2.4,Win32,144.9275362,66f0a1d13629250f84bc2598,68817205a84113384fffdfe3,689bb0e4099b78b5deeaa84e,,,,,,,,,,,,,0,,,,,,,,,,,,,,,,,,,,,,,,265.3962,266.9303,1,0,1.0137,,266.9304,267.9303,0,6,6,6,1,0,priba,REAL,FAKE,,,,,,,,,,,,,,,,,,,,,,,,,,,,,,,,
,,,,,,,,,66f0a1d13629250f84bc2598,Spanish,13 or older,"no, only English or Spanish",no,2025-08-12_17h14.37.196,empathy_intonation_perc_control,2024.2.4,Win32,144.9275362,66f0a1d13629250f84bc2598,68817205a84113384fffdfe3,689bb0e4099b78b5deeaa84e,,,,,,,,,,,,,0,,,,,,,,,,,,,,,,,,,,,,,,267.9308,270.6733,1,0,2.2281,,270.6734,271.6732,0,7,7,7,1,0,pelasula,REAL,FAKE,,,,,,,,,,,,,,,,,,,,,,,,,,,,,,,,
,,,,,,,,,66f0a1d13629250f84bc2598,Spanish,13 or older,"no, only English or Spanish",no,2025-08-12_17h14.37.196,empathy_intonation_perc_control,2024.2.4,Win32,144.9275362,66f0a1d13629250f84bc2598,68817205a84113384fffdfe3,689bb0e4099b78b5deeaa84e,,,,,,,,,,,,,1,,,,,,,,,,,,,,,,,,,,,,,,271.6738,273.1593,1,1,0.9699,,273.1597,274.1598,0,8,8,8,1,0,bien,REAL,FAKE,,,,,,,,,,,,,,,,,,,,,,,,,,,,,,,,
,,,,,,,,,66f0a1d13629250f84bc2598,Spanish,13 or older,"no, only English or Spanish",no,2025-08-12_17h14.37.196,empathy_intonation_perc_control,2024.2.4,Win32,144.9275362,66f0a1d13629250f84bc2598,68817205a84113384fffdfe3,689bb0e4099b78b5deeaa84e,,,,,,,,,,,,,1,,,,,,,,,,,,,,,,,,,,,,,,274.1601,275.2288,1,1,0.5529,,275.2288,276.2287,0,9,9,9,1,0,casa,REAL,FAKE,,,,,,,,,,,,,,,,,,,,,,,,,,,,,,,,
,,,,,,,,,66f0a1d13629250f84bc2598,Spanish,13 or older,"no, only English or Spanish",no,2025-08-12_17h14.37.196,empathy_intonation_perc_control,2024.2.4,Win32,144.9275362,66f0a1d13629250f84bc2598,68817205a84113384fffdfe3,689bb0e4099b78b5deeaa84e,,,,,,,,,,,,,0,,,,,,,,,,,,,,,,,,,,,,,,276.2293,277.3885,1,0,0.6424,,277.3889,278.3884,0,10,10,10,1,0,lejo,REAL,FAKE,,,,,,,,,,,,,,,,,,,,,,,,,,,,,,,,
,,,,,,,,,66f0a1d13629250f84bc2598,Spanish,13 or older,"no, only English or Spanish",no,2025-08-12_17h14.37.196,empathy_intonation_perc_control,2024.2.4,Win32,144.9275362,66f0a1d13629250f84bc2598,68817205a84113384fffdfe3,689bb0e4099b78b5deeaa84e,,,,,,,,,,,,,0,,,,,,,,,,,,,,,,,,,,,,,,278.3889,279.6593,1,0,0.7548,,279.6594,280.6593,0,11,11,11,1,0,pretantas,REAL,FAKE,,,,,,,,,,,,,,,,,,,,,,,,,,,,,,,,
,,,,,,,,,66f0a1d13629250f84bc2598,Spanish,13 or older,"no, only English or Spanish",no,2025-08-12_17h14.37.196,empathy_intonation_perc_control,2024.2.4,Win32,144.9275362,66f0a1d13629250f84bc2598,68817205a84113384fffdfe3,689bb0e4099b78b5deeaa84e,,,,,,,,,,,,,,,,,,,,,,,,,,,,,,,,,,,,,,,,,,,,,,,,,,,,,,280.6595,282.0693,,,,,,,,,,,,,,,,,,,,,,,,,,,,,,
,,,,,,,,,66f0a1d13629250f84bc2598,Spanish,13 or older,"no, only English or Spanish",no,2025-08-12_17h14.37.196,empathy_intonation_perc_control,2024.2.4,Win32,144.9275362,66f0a1d13629250f84bc2598,68817205a84113384fffdfe3,689bb0e4099b78b5deeaa84e,,,,,,,,,,,,,1,,,,,,,,,,,,,,,,,,,,,,,,,,,,,,,,,,,,,68,alegre,,,,,282.076,283.7844,0,0,1.1892,,0,0,0,67,1,REAL,FAKE,,,,,,,,,,,,,,,,,
,,,,,,,,,66f0a1d13629250f84bc2598,Spanish,13 or older,"no, only English or Spanish",no,2025-08-12_17h14.37.196,empathy_intonation_perc_control,2024.2.4,Win32,144.9275362,66f0a1d13629250f84bc2598,68817205a84113384fffdfe3,689bb0e4099b78b5deeaa84e,,,,,,,,,,,,,1,,,,,,,,,,,,,,,,,,,,,,,,,,,,,,,,,,,,,40,alfombra,,,,,283.7853,284.9718,0,0,0.6688,,0,1,1,39,1,REAL,FAKE,,,,,,,,,,,,,,,,,
,,,,,,,,,66f0a1d13629250f84bc2598,Spanish,13 or older,"no, only English or Spanish",no,2025-08-12_17h14.37.196,empathy_intonation_perc_control,2024.2.4,Win32,144.9275362,66f0a1d13629250f84bc2598,68817205a84113384fffdfe3,689bb0e4099b78b5deeaa84e,,,,,,,,,,,,,0,,,,,,,,,,,,,,,,,,,,,,,,,,,,,,,,,,,,,84,escuto,,,,,284.9723,286.3814,1,0,0.8935,,0,2,2,83,1,REAL,FAKE,,,,,,,,,,,,,,,,,
,,,,,,,,,66f0a1d13629250f84bc2598,Spanish,13 or older,"no, only English or Spanish",no,2025-08-12_17h14.37.196,empathy_intonation_perc_control,2024.2.4,Win32,144.9275362,66f0a1d13629250f84bc2598,68817205a84113384fffdfe3,689bb0e4099b78b5deeaa84e,,,,,,,,,,,,,1,,,,,,,,,,,,,,,,,,,,,,,,,,,,,,,,,,,,,43,canela,,,,,286.382,287.6453,1,1,0.7453,,0,3,3,42,1,REAL,FAKE,,,,,,,,,,,,,,,,,
,,,,,,,,,66f0a1d13629250f84bc2598,Spanish,13 or older,"no, only English or Spanish",no,2025-08-12_17h14.37.196,empathy_intonation_perc_control,2024.2.4,Win32,144.9275362,66f0a1d13629250f84bc2598,68817205a84113384fffdfe3,689bb0e4099b78b5deeaa84e,,,,,,,,,,,,,1,,,,,,,,,,,,,,,,,,,,,,,,,,,,,,,,,,,,,39,torpe,,,,,287.6458,289.2565,1,1,1.0917,,0,4,4,38,1,REAL,FAKE,,,,,,,,,,,,,,,,,
,,,,,,,,,66f0a1d13629250f84bc2598,Spanish,13 or older,"no, only English or Spanish",no,2025-08-12_17h14.37.196,empathy_intonation_perc_control,2024.2.4,Win32,144.9275362,66f0a1d13629250f84bc2598,68817205a84113384fffdfe3,689bb0e4099b78b5deeaa84e,,,,,,,,,,,,,0,,,,,,,,,,,,,,,,,,,,,,,,,,,,,,,,,,,,,74,cintro,,,,,289.2569,290.4647,1,0,0.6907,,0,5,5,73,1,REAL,FAKE,,,,,,,,,,,,,,,,,
,,,,,,,,,66f0a1d13629250f84bc2598,Spanish,13 or older,"no, only English or Spanish",no,2025-08-12_17h14.37.196,empathy_intonation_perc_control,2024.2.4,Win32,144.9275362,66f0a1d13629250f84bc2598,68817205a84113384fffdfe3,689bb0e4099b78b5deeaa84e,,,,,,,,,,,,,1,,,,,,,,,,,,,,,,,,,,,,,,,,,,,,,,,,,,,75,yacer,,,,,290.4655,291.8606,1,1,0.8754,,0,6,6,74,1,REAL,FAKE,,,,,,,,,,,,,,,,,
,,,,,,,,,66f0a1d13629250f84bc2598,Spanish,13 or older,"no, only English or Spanish",no,2025-08-12_17h14.37.196,empathy_intonation_perc_control,2024.2.4,Win32,144.9275362,66f0a1d13629250f84bc2598,68817205a84113384fffdfe3,689bb0e4099b78b5deeaa84e,,,,,,,,,,,,,1,,,,,,,,,,,,,,,,,,,,,,,,,,,,,,,,,,,,,76,atar,,,,,291.8611,293.0689,1,1,0.6876,,0,7,7,75,1,REAL,FAKE,,,,,,,,,,,,,,,,,
,,,,,,,,,66f0a1d13629250f84bc2598,Spanish,13 or older,"no, only English or Spanish",no,2025-08-12_17h14.37.196,empathy_intonation_perc_control,2024.2.4,Win32,144.9275362,66f0a1d13629250f84bc2598,68817205a84113384fffdfe3,689bb0e4099b78b5deeaa84e,,,,,,,,,,,,,0,,,,,,,,,,,,,,,,,,,,,,,,,,,,,,,,,,,,,16,abracer,,,,,293.0695,294.3953,1,0,0.8093,,0,8,8,15,1,REAL,FAKE,,,,,,,,,,,,,,,,,
,,,,,,,,,66f0a1d13629250f84bc2598,Spanish,13 or older,"no, only English or Spanish",no,2025-08-12_17h14.37.196,empathy_intonation_perc_control,2024.2.4,Win32,144.9275362,66f0a1d13629250f84bc2598,68817205a84113384fffdfe3,689bb0e4099b78b5deeaa84e,,,,,,,,,,,,,1,,,,,,,,,,,,,,,,,,,,,,,,,,,,,,,,,,,,,59,besar,,,,,294.3957,295.6661,1,1,0.7539,,0,9,9,58,1,REAL,FAKE,,,,,,,,,,,,,,,,,
,,,,,,,,,66f0a1d13629250f84bc2598,Spanish,13 or older,"no, only English or Spanish",no,2025-08-12_17h14.37.196,empathy_intonation_perc_control,2024.2.4,Win32,144.9275362,66f0a1d13629250f84bc2598,68817205a84113384fffdfe3,689bb0e4099b78b5deeaa84e,,,,,,,,,,,,,1,,,,,,,,,,,,,,,,,,,,,,,,,,,,,,,,,,,,,80,hormiga,,,,,295.6665,296.9161,1,1,0.733,,0,10,10,79,1,REAL,FAKE,,,,,,,,,,,,,,,,,
,,,,,,,,,66f0a1d13629250f84bc2598,Spanish,13 or older,"no, only English or Spanish",no,2025-08-12_17h14.37.196,empathy_intonation_perc_control,2024.2.4,Win32,144.9275362,66f0a1d13629250f84bc2598,68817205a84113384fffdfe3,689bb0e4099b78b5deeaa84e,,,,,,,,,,,,,0,,,,,,,,,,,,,,,,,,,,,,,,,,,,,,,,,,,,,17,floroso,,,,,296.9166,298.0757,1,0,0.6401,,0,11,11,16,1,REAL,FAKE,,,,,,,,,,,,,,,,,
,,,,,,,,,66f0a1d13629250f84bc2598,Spanish,13 or older,"no, only English or Spanish",no,2025-08-12_17h14.37.196,empathy_intonation_perc_control,2024.2.4,Win32,144.9275362,66f0a1d13629250f84bc2598,68817205a84113384fffdfe3,689bb0e4099b78b5deeaa84e,,,,,,,,,,,,,1,,,,,,,,,,,,,,,,,,,,,,,,,,,,,,,,,,,,,44,cuchara,,,,,298.0763,299.5202,1,1,0.9253,,0,12,12,43,1,REAL,FAKE,,,,,,,,,,,,,,,,,
,,,,,,,,,66f0a1d13629250f84bc2598,Spanish,13 or older,"no, only English or Spanish",no,2025-08-12_17h14.37.196,empathy_intonation_perc_control,2024.2.4,Win32,144.9275362,66f0a1d13629250f84bc2598,68817205a84113384fffdfe3,689bb0e4099b78b5deeaa84e,,,,,,,,,,,,,0,,,,,,,,,,,,,,,,,,,,,,,,,,,,,,,,,,,,,27,acutación,,,,,299.5209,300.8535,1,0,0.8138,,0,13,13,26,1,REAL,FAKE,,,,,,,,,,,,,,,,,
,,,,,,,,,66f0a1d13629250f84bc2598,Spanish,13 or older,"no, only English or Spanish",no,2025-08-12_17h14.37.196,empathy_intonation_perc_control,2024.2.4,Win32,144.9275362,66f0a1d13629250f84bc2598,68817205a84113384fffdfe3,689bb0e4099b78b5deeaa84e,,,,,,,,,,,,,0,,,,,,,,,,,,,,,,,,,,,,,,,,,,,,,,,,,,,35,rompido,,,,,300.8541,302.3327,0,1,0.9582,,0,14,14,34,1,REAL,FAKE,,,,,,,,,,,,,,,,,
,,,,,,,,,66f0a1d13629250f84bc2598,Spanish,13 or older,"no, only English or Spanish",no,2025-08-12_17h14.37.196,empathy_intonation_perc_control,2024.2.4,Win32,144.9275362,66f0a1d13629250f84bc2598,68817205a84113384fffdfe3,689bb0e4099b78b5deeaa84e,,,,,,,,,,,,,1,,,,,,,,,,,,,,,,,,,,,,,,,,,,,,,,,,,,,77,tiburón,,,,,302.3331,303.6382,0,0,0.7906,,0,15,15,76,1,REAL,FAKE,,,,,,,,,,,,,,,,,
,,,,,,,,,66f0a1d13629250f84bc2598,Spanish,13 or older,"no, only English or Spanish",no,2025-08-12_17h14.37.196,empathy_intonation_perc_control,2024.2.4,Win32,144.9275362,66f0a1d13629250f84bc2598,68817205a84113384fffdfe3,689bb0e4099b78b5deeaa84e,,,,,,,,,,,,,1,,,,,,,,,,,,,,,,,,,,,,,,,,,,,,,,,,,,,37,granuja,,,,,303.6387,304.9577,0,0,0.8016,,0,16,16,36,1,REAL,FAKE,,,,,,,,,,,,,,,,,
,,,,,,,,,66f0a1d13629250f84bc2598,Spanish,13 or older,"no, only English or Spanish",no,2025-08-12_17h14.37.196,empathy_intonation_perc_control,2024.2.4,Win32,144.9275362,66f0a1d13629250f84bc2598,68817205a84113384fffdfe3,689bb0e4099b78b5deeaa84e,,,,,,,,,,,,,1,,,,,,,,,,,,,,,,,,,,,,,,,,,,,,,,,,,,,81,pozo,,,,,304.9583,306.4507,1,1,0.9754,,0,17,17,80,1,REAL,FAKE,,,,,,,,,,,,,,,,,
,,,,,,,,,66f0a1d13629250f84bc2598,Spanish,13 or older,"no, only English or Spanish",no,2025-08-12_17h14.37.196,empathy_intonation_perc_control,2024.2.4,Win32,144.9275362,66f0a1d13629250f84bc2598,68817205a84113384fffdfe3,689bb0e4099b78b5deeaa84e,,,,,,,,,,,,,1,,,,,,,,,,,,,,,,,,,,,,,,,,,,,,,,,,,,,12,asesinato,,,,,306.4512,308.0548,1,1,1.0885,,0,18,18,11,1,REAL,FAKE,,,,,,,,,,,,,,,,,
,,,,,,,,,66f0a1d13629250f84bc2598,Spanish,13 or older,"no, only English or Spanish",no,2025-08-12_17h14.37.196,empathy_intonation_perc_control,2024.2.4,Win32,144.9275362,66f0a1d13629250f84bc2598,68817205a84113384fffdfe3,689bb0e4099b78b5deeaa84e,,,,,,,,,,,,,0,,,,,,,,,,,,,,,,,,,,,,,,,,,,,,,,,,,,,92,click the 0 key.,,,,,308.0556,310.7215,0,1,2.1463,,0,19,19,91,1,REAL,FAKE,,,,,,,,,,,,,,,,,
,,,,,,,,,66f0a1d13629250f84bc2598,Spanish,13 or older,"no, only English or Spanish",no,2025-08-12_17h14.37.196,empathy_intonation_perc_control,2024.2.4,Win32,144.9275362,66f0a1d13629250f84bc2598,68817205a84113384fffdfe3,689bb0e4099b78b5deeaa84e,,,,,,,,,,,,,1,,,,,,,,,,,,,,,,,,,,,,,,,,,,,,,,,,,,,2,pellizcar,,,,,310.722,311.9645,0,0,0.7266,,0,20,20,1,1,REAL,FAKE,,,,,,,,,,,,,,,,,
,,,,,,,,,66f0a1d13629250f84bc2598,Spanish,13 or older,"no, only English or Spanish",no,2025-08-12_17h14.37.196,empathy_intonation_perc_control,2024.2.4,Win32,144.9275362,66f0a1d13629250f84bc2598,68817205a84113384fffdfe3,689bb0e4099b78b5deeaa84e,,,,,,,,,,,,,1,,,,,,,,,,,,,,,,,,,,,,,,,,,,,,,,,,,,,83,guante,,,,,311.965,313.2354,0,0,0.7516,,0,21,21,82,1,REAL,FAKE,,,,,,,,,,,,,,,,,
,,,,,,,,,66f0a1d13629250f84bc2598,Spanish,13 or older,"no, only English or Spanish",no,2025-08-12_17h14.37.196,empathy_intonation_perc_control,2024.2.4,Win32,144.9275362,66f0a1d13629250f84bc2598,68817205a84113384fffdfe3,689bb0e4099b78b5deeaa84e,,,,,,,,,,,,,1,,,,,,,,,,,,,,,,,,,,,,,,,,,,,,,,,,,,,86,barato,,,,,313.2358,314.3396,1,1,0.5835,,0,22,22,85,1,REAL,FAKE,,,,,,,,,,,,,,,,,
,,,,,,,,,66f0a1d13629250f84bc2598,Spanish,13 or older,"no, only English or Spanish",no,2025-08-12_17h14.37.196,empathy_intonation_perc_control,2024.2.4,Win32,144.9275362,66f0a1d13629250f84bc2598,68817205a84113384fffdfe3,689bb0e4099b78b5deeaa84e,,,,,,,,,,,,,1,,,,,,,,,,,,,,,,,,,,,,,,,,,,,,,,,,,,,34,aviso,,,,,314.3404,315.4993,0,0,0.6415,,0,23,23,33,1,REAL,FAKE,,,,,,,,,,,,,,,,,
,,,,,,,,,66f0a1d13629250f84bc2598,Spanish,13 or older,"no, only English or Spanish",no,2025-08-12_17h14.37.196,empathy_intonation_perc_control,2024.2.4,Win32,144.9275362,66f0a1d13629250f84bc2598,68817205a84113384fffdfe3,689bb0e4099b78b5deeaa84e,,,,,,,,,,,,,1,,,,,,,,,,,,,,,,,,,,,,,,,,,,,,,,,,,,,90,clavel,,,,,315.4997,316.4575,0,0,0.4378,,0,24,24,89,1,REAL,FAKE,,,,,,,,,,,,,,,,,
,,,,,,,,,66f0a1d13629250f84bc2598,Spanish,13 or older,"no, only English or Spanish",no,2025-08-12_17h14.37.196,empathy_intonation_perc_control,2024.2.4,Win32,144.9275362,66f0a1d13629250f84bc2598,68817205a84113384fffdfe3,689bb0e4099b78b5deeaa84e,,,,,,,,,,,,,0,,,,,,,,,,,,,,,,,,,,,,,,,,,,,,,,,,,,,29,decar,,,,,316.4581,317.6868,0,1,0.7086,,0,25,25,28,1,REAL,FAKE,,,,,,,,,,,,,,,,,
,,,,,,,,,66f0a1d13629250f84bc2598,Spanish,13 or older,"no, only English or Spanish",no,2025-08-12_17h14.37.196,empathy_intonation_perc_control,2024.2.4,Win32,144.9275362,66f0a1d13629250f84bc2598,68817205a84113384fffdfe3,689bb0e4099b78b5deeaa84e,,,,,,,,,,,,,1,,,,,,,,,,,,,,,,,,,,,,,,,,,,,,,,,,,,,60,matar,,,,,317.6872,318.8604,0,0,0.6533,,0,26,26,59,1,REAL,FAKE,,,,,,,,,,,,,,,,,
,,,,,,,,,66f0a1d13629250f84bc2598,Spanish,13 or older,"no, only English or Spanish",no,2025-08-12_17h14.37.196,empathy_intonation_perc_control,2024.2.4,Win32,144.9275362,66f0a1d13629250f84bc2598,68817205a84113384fffdfe3,689bb0e4099b78b5deeaa84e,,,,,,,,,,,,,0,,,,,,,,,,,,,,,,,,,,,,,,,,,,,,,,,,,,,53,vegada,,,,,318.8609,320.1867,1,0,0.8078,,0,27,27,52,1,REAL,FAKE,,,,,,,,,,,,,,,,,
,,,,,,,,,66f0a1d13629250f84bc2598,Spanish,13 or older,"no, only English or Spanish",no,2025-08-12_17h14.37.196,empathy_intonation_perc_control,2024.2.4,Win32,144.9275362,66f0a1d13629250f84bc2598,68817205a84113384fffdfe3,689bb0e4099b78b5deeaa84e,,,,,,,,,,,,,0,,,,,,,,,,,,,,,,,,,,,,,,,,,,,,,,,,,,,42,cadallo,,,,,320.1871,321.3533,1,0,0.6465,,0,28,28,41,1,REAL,FAKE,,,,,,,,,,,,,,,,,
,,,,,,,,,66f0a1d13629250f84bc2598,Spanish,13 or older,"no, only English or Spanish",no,2025-08-12_17h14.37.196,empathy_intonation_perc_control,2024.2.4,Win32,144.9275362,66f0a1d13629250f84bc2598,68817205a84113384fffdfe3,689bb0e4099b78b5deeaa84e,,,,,,,,,,,,,1,,,,,,,,,,,,,,,,,,,,,,,,,,,,,,,,,,,,,14,yunque,,,,,321.3538,322.6589,1,1,0.7855,,0,29,29,13,1,REAL,FAKE,,,,,,,,,,,,,,,,,
,,,,,,,,,66f0a1d13629250f84bc2598,Spanish,13 or older,"no, only English or Spanish",no,2025-08-12_17h14.37.196,empathy_intonation_perc_control,2024.2.4,Win32,144.9275362,66f0a1d13629250f84bc2598,68817205a84113384fffdfe3,689bb0e4099b78b5deeaa84e,,,,,,,,,,,,,1,,,,,,,,,,,,,,,,,,,,,,,,,,,,,,,,,,,,,52,camisa,,,,,322.6594,323.9645,1,1,0.7862,,0,30,30,51,1,REAL,FAKE,,,,,,,,,,,,,,,,,
,,,,,,,,,66f0a1d13629250f84bc2598,Spanish,13 or older,"no, only English or Spanish",no,2025-08-12_17h14.37.196,empathy_intonation_perc_control,2024.2.4,Win32,144.9275362,66f0a1d13629250f84bc2598,68817205a84113384fffdfe3,689bb0e4099b78b5deeaa84e,,,,,,,,,,,,,1,,,,,,,,,,,,,,,,,,,,,,,,,,,,,,,,,,,,,73,hervidor,,,,,323.965,325.1727,1,1,0.6877,,0,31,31,72,1,REAL,FAKE,,,,,,,,,,,,,,,,,
,,,,,,,,,66f0a1d13629250f84bc2598,Spanish,13 or older,"no, only English or Spanish",no,2025-08-12_17h14.37.196,empathy_intonation_perc_control,2024.2.4,Win32,144.9275362,66f0a1d13629250f84bc2598,68817205a84113384fffdfe3,689bb0e4099b78b5deeaa84e,,,,,,,,,,,,,0,,,,,,,,,,,,,,,,,,,,,,,,,,,,,,,,,,,,,30,alardio,,,,,325.1732,326.2699,0,1,0.5794,,0,32,32,29,1,REAL,FAKE,,,,,,,,,,,,,,,,,
,,,,,,,,,66f0a1d13629250f84bc2598,Spanish,13 or older,"no, only English or Spanish",no,2025-08-12_17h14.37.196,empathy_intonation_perc_control,2024.2.4,Win32,144.9275362,66f0a1d13629250f84bc2598,68817205a84113384fffdfe3,689bb0e4099b78b5deeaa84e,,,,,,,,,,,,,1,,,,,,,,,,,,,,,,,,,,,,,,,,,,,,,,,,,,,51,candado,,,,,326.2704,327.1865,0,0,0.401,,0,33,33,50,1,REAL,FAKE,,,,,,,,,,,,,,,,,
,,,,,,,,,66f0a1d13629250f84bc2598,Spanish,13 or older,"no, only English or Spanish",no,2025-08-12_17h14.37.196,empathy_intonation_perc_control,2024.2.4,Win32,144.9275362,66f0a1d13629250f84bc2598,68817205a84113384fffdfe3,689bb0e4099b78b5deeaa84e,,,,,,,,,,,,,0,,,,,,,,,,,,,,,,,,,,,,,,,,,,,,,,,,,,,58,plaudir,,,,,327.187,328.2699,0,1,0.5634,,0,34,34,57,1,REAL,FAKE,,,,,,,,,,,,,,,,,
,,,,,,,,,66f0a1d13629250f84bc2598,Spanish,13 or older,"no, only English or Spanish",no,2025-08-12_17h14.37.196,empathy_intonation_perc_control,2024.2.4,Win32,144.9275362,66f0a1d13629250f84bc2598,68817205a84113384fffdfe3,689bb0e4099b78b5deeaa84e,,,,,,,,,,,,,0,,,,,,,,,,,,,,,,,,,,,,,,,,,,,,,,,,,,,33,pauca,,,,,328.2704,329.0338,1,0,0.2451,,0,35,35,32,1,REAL,FAKE,,,,,,,,,,,,,,,,,
,,,,,,,,,66f0a1d13629250f84bc2598,Spanish,13 or older,"no, only English or Spanish",no,2025-08-12_17h14.37.196,empathy_intonation_perc_control,2024.2.4,Win32,144.9275362,66f0a1d13629250f84bc2598,68817205a84113384fffdfe3,689bb0e4099b78b5deeaa84e,,,,,,,,,,,,,1,,,,,,,,,,,,,,,,,,,,,,,,,,,,,,,,,,,,,46,martillo,,,,,329.0343,329.9574,0,0,0.4073,,0,36,36,45,1,REAL,FAKE,,,,,,,,,,,,,,,,,
,,,,,,,,,66f0a1d13629250f84bc2598,Spanish,13 or older,"no, only English or Spanish",no,2025-08-12_17h14.37.196,empathy_intonation_perc_control,2024.2.4,Win32,144.9275362,66f0a1d13629250f84bc2598,68817205a84113384fffdfe3,689bb0e4099b78b5deeaa84e,,,,,,,,,,,,,0,,,,,,,,,,,,,,,,,,,,,,,,,,,,,,,,,,,,,70,temblo,,,,,329.9578,331.0072,0,1,0.5349,,0,37,37,69,1,REAL,FAKE,,,,,,,,,,,,,,,,,
,,,,,,,,,66f0a1d13629250f84bc2598,Spanish,13 or older,"no, only English or Spanish",no,2025-08-12_17h14.37.196,empathy_intonation_perc_control,2024.2.4,Win32,144.9275362,66f0a1d13629250f84bc2598,68817205a84113384fffdfe3,689bb0e4099b78b5deeaa84e,,,,,,,,,,,,,1,,,,,,,,,,,,,,,,,,,,,,,,,,,,,,,,,,,,,89,prisa,,,,,331.0078,331.8186,0,0,0.2971,,0,38,38,88,1,REAL,FAKE,,,,,,,,,,,,,,,,,
,,,,,,,,,66f0a1d13629250f84bc2598,Spanish,13 or older,"no, only English or Spanish",no,2025-08-12_17h14.37.196,empathy_intonation_perc_control,2024.2.4,Win32,144.9275362,66f0a1d13629250f84bc2598,68817205a84113384fffdfe3,689bb0e4099b78b5deeaa84e,,,,,,,,,,,,,0,,,,,,,,,,,,,,,,,,,,,,,,,,,,,,,,,,,,,66,hacido,,,,,331.819,332.7005,0,1,0.3635,,0,39,39,65,1,REAL,FAKE,,,,,,,,,,,,,,,,,
,,,,,,,,,66f0a1d13629250f84bc2598,Spanish,13 or older,"no, only English or Spanish",no,2025-08-12_17h14.37.196,empathy_intonation_perc_control,2024.2.4,Win32,144.9275362,66f0a1d13629250f84bc2598,68817205a84113384fffdfe3,689bb0e4099b78b5deeaa84e,,,,,,,,,,,,,0,,,,,,,,,,,,,,,,,,,,,,,,,,,,,,,,,,,,,4,batillón,,,,,332.701,333.6102,1,0,0.3917,,0,40,40,3,1,REAL,FAKE,,,,,,,,,,,,,,,,,
,,,,,,,,,66f0a1d13629250f84bc2598,Spanish,13 or older,"no, only English or Spanish",no,2025-08-12_17h14.37.196,empathy_intonation_perc_control,2024.2.4,Win32,144.9275362,66f0a1d13629250f84bc2598,68817205a84113384fffdfe3,689bb0e4099b78b5deeaa84e,,,,,,,,,,,,,0,,,,,,,,,,,,,,,,,,,,,,,,,,,,,,,,,,,,,63,esposante,,,,,333.6107,334.4028,0,1,0.2776,,0,41,41,62,1,REAL,FAKE,,,,,,,,,,,,,,,,,
,,,,,,,,,66f0a1d13629250f84bc2598,Spanish,13 or older,"no, only English or Spanish",no,2025-08-12_17h14.37.196,empathy_intonation_perc_control,2024.2.4,Win32,144.9275362,66f0a1d13629250f84bc2598,68817205a84113384fffdfe3,689bb0e4099b78b5deeaa84e,,,,,,,,,,,,,0,,,,,,,,,,,,,,,,,,,,,,,,,,,,,,,,,,,,,19,brecedad,,,,,334.4031,335.3254,0,1,0.4083,,0,42,42,18,1,REAL,FAKE,,,,,,,,,,,,,,,,,
,,,,,,,,,66f0a1d13629250f84bc2598,Spanish,13 or older,"no, only English or Spanish",no,2025-08-12_17h14.37.196,empathy_intonation_perc_control,2024.2.4,Win32,144.9275362,66f0a1d13629250f84bc2598,68817205a84113384fffdfe3,689bb0e4099b78b5deeaa84e,,,,,,,,,,,,,1,,,,,,,,,,,,,,,,,,,,,,,,,,,,,,,,,,,,,45,jilguero,,,,,335.3259,336.1796,0,0,0.3333,,0,43,43,44,1,REAL,FAKE,,,,,,,,,,,,,,,,,
,,,,,,,,,66f0a1d13629250f84bc2598,Spanish,13 or older,"no, only English or Spanish",no,2025-08-12_17h14.37.196,empathy_intonation_perc_control,2024.2.4,Win32,144.9275362,66f0a1d13629250f84bc2598,68817205a84113384fffdfe3,689bb0e4099b78b5deeaa84e,,,,,,,,,,,,,1,,,,,,,,,,,,,,,,,,,,,,,,,,,,,,,,,,,,,38,estornudar,,,,,336.1801,337.131,0,0,0.4356,,0,44,44,37,1,REAL,FAKE,,,,,,,,,,,,,,,,,
,,,,,,,,,66f0a1d13629250f84bc2598,Spanish,13 or older,"no, only English or Spanish",no,2025-08-12_17h14.37.196,empathy_intonation_perc_control,2024.2.4,Win32,144.9275362,66f0a1d13629250f84bc2598,68817205a84113384fffdfe3,689bb0e4099b78b5deeaa84e,,,,,,,,,,,,,1,,,,,,,,,,,,,,,,,,,,,,,,,,,,,,,,,,,,,6,tergiversar,,,,,337.1315,338.0963,0,0,0.4461,,0,45,45,5,1,REAL,FAKE,,,,,,,,,,,,,,,,,
,,,,,,,,,66f0a1d13629250f84bc2598,Spanish,13 or older,"no, only English or Spanish",no,2025-08-12_17h14.37.196,empathy_intonation_perc_control,2024.2.4,Win32,144.9275362,66f0a1d13629250f84bc2598,68817205a84113384fffdfe3,689bb0e4099b78b5deeaa84e,,,,,,,,,,,,,1,,,,,,,,,,,,,,,,,,,,,,,,,,,,,,,,,,,,,28,merodear,,,,,338.0969,338.9434,0,0,0.3289,,0,46,46,27,1,REAL,FAKE,,,,,,,,,,,,,,,,,
,,,,,,,,,66f0a1d13629250f84bc2598,Spanish,13 or older,"no, only English or Spanish",no,2025-08-12_17h14.37.196,empathy_intonation_perc_control,2024.2.4,Win32,144.9275362,66f0a1d13629250f84bc2598,68817205a84113384fffdfe3,689bb0e4099b78b5deeaa84e,,,,,,,,,,,,,1,,,,,,,,,,,,,,,,,,,,,,,,,,,,,,,,,,,,,91,click the 1 key.,,,,,338.9441,339.7768,1,1,0.3166,,0,47,47,90,1,REAL,FAKE,,,,,,,,,,,,,,,,,
,,,,,,,,,66f0a1d13629250f84bc2598,Spanish,13 or older,"no, only English or Spanish",no,2025-08-12_17h14.37.196,empathy_intonation_perc_control,2024.2.4,Win32,144.9275362,66f0a1d13629250f84bc2598,68817205a84113384fffdfe3,689bb0e4099b78b5deeaa84e,,,,,,,,,,,,,0,,,,,,,,,,,,,,,,,,,,,,,,,,,,,,,,,,,,,79,tropaje,,,,,339.7773,341.0061,1,0,0.7143,,0,48,48,78,1,REAL,FAKE,,,,,,,,,,,,,,,,,
,,,,,,,,,66f0a1d13629250f84bc2598,Spanish,13 or older,"no, only English or Spanish",no,2025-08-12_17h14.37.196,empathy_intonation_perc_control,2024.2.4,Win32,144.9275362,66f0a1d13629250f84bc2598,68817205a84113384fffdfe3,689bb0e4099b78b5deeaa84e,,,,,,,,,,,,,1,,,,,,,,,,,,,,,,,,,,,,,,,,,,,,,,,,,,,20,ávido,,,,,341.0068,342.2211,0,0,0.6951,,0,49,49,19,1,REAL,FAKE,,,,,,,,,,,,,,,,,
,,,,,,,,,66f0a1d13629250f84bc2598,Spanish,13 or older,"no, only English or Spanish",no,2025-08-12_17h14.37.196,empathy_intonation_perc_control,2024.2.4,Win32,144.9275362,66f0a1d13629250f84bc2598,68817205a84113384fffdfe3,689bb0e4099b78b5deeaa84e,,,,,,,,,,,,,1,,,,,,,,,,,,,,,,,,,,,,,,,,,,,,,,,,,,,13,helar,,,,,342.2218,343.2976,1,1,0.5559,,0,50,50,12,1,REAL,FAKE,,,,,,,,,,,,,,,,,
,,,,,,,,,66f0a1d13629250f84bc2598,Spanish,13 or older,"no, only English or Spanish",no,2025-08-12_17h14.37.196,empathy_intonation_perc_control,2024.2.4,Win32,144.9275362,66f0a1d13629250f84bc2598,68817205a84113384fffdfe3,689bb0e4099b78b5deeaa84e,,,,,,,,,,,,,1,,,,,,,,,,,,,,,,,,,,,,,,,,,,,,,,,,,,,31,pandilla,,,,,343.2981,344.3531,0,0,0.5356,,0,51,51,30,1,REAL,FAKE,,,,,,,,,,,,,,,,,
,,,,,,,,,66f0a1d13629250f84bc2598,Spanish,13 or older,"no, only English or Spanish",no,2025-08-12_17h14.37.196,empathy_intonation_perc_control,2024.2.4,Win32,144.9275362,66f0a1d13629250f84bc2598,68817205a84113384fffdfe3,689bb0e4099b78b5deeaa84e,,,,,,,,,,,,,1,,,,,,,,,,,,,,,,,,,,,,,,,,,,,,,,,,,,,71,polvoriento,,,,,344.3536,345.485,1,1,0.614,,0,52,52,70,1,REAL,FAKE,,,,,,,,,,,,,,,,,
,,,,,,,,,66f0a1d13629250f84bc2598,Spanish,13 or older,"no, only English or Spanish",no,2025-08-12_17h14.37.196,empathy_intonation_perc_control,2024.2.4,Win32,144.9275362,66f0a1d13629250f84bc2598,68817205a84113384fffdfe3,689bb0e4099b78b5deeaa84e,,,,,,,,,,,,,1,,,,,,,,,,,,,,,,,,,,,,,,,,,,,,,,,,,,,64,orgulloso,,,,,345.4855,346.7142,1,1,0.7141,,0,53,53,63,1,REAL,FAKE,,,,,,,,,,,,,,,,,
,,,,,,,,,66f0a1d13629250f84bc2598,Spanish,13 or older,"no, only English or Spanish",no,2025-08-12_17h14.37.196,empathy_intonation_perc_control,2024.2.4,Win32,144.9275362,66f0a1d13629250f84bc2598,68817205a84113384fffdfe3,689bb0e4099b78b5deeaa84e,,,,,,,,,,,,,1,,,,,,,,,,,,,,,,,,,,,,,,,,,,,,,,,,,,,9,hacha,,,,,346.7147,347.8183,1,1,0.5889,,0,54,54,8,1,REAL,FAKE,,,,,,,,,,,,,,,,,
,,,,,,,,,66f0a1d13629250f84bc2598,Spanish,13 or older,"no, only English or Spanish",no,2025-08-12_17h14.37.196,empathy_intonation_perc_control,2024.2.4,Win32,144.9275362,66f0a1d13629250f84bc2598,68817205a84113384fffdfe3,689bb0e4099b78b5deeaa84e,,,,,,,,,,,,,1,,,,,,,,,,,,,,,,,,,,,,,,,,,,,,,,,,,,,24,látigo,,,,,347.8187,348.9433,1,1,0.6088,,0,55,55,23,1,REAL,FAKE,,,,,,,,,,,,,,,,,
,,,,,,,,,66f0a1d13629250f84bc2598,Spanish,13 or older,"no, only English or Spanish",no,2025-08-12_17h14.37.196,empathy_intonation_perc_control,2024.2.4,Win32,144.9275362,66f0a1d13629250f84bc2598,68817205a84113384fffdfe3,689bb0e4099b78b5deeaa84e,,,,,,,,,,,,,1,,,,,,,,,,,,,,,,,,,,,,,,,,,,,,,,,,,,,25,bisagra,,,,,348.9438,349.9641,1,1,0.5048,,0,56,56,24,1,REAL,FAKE,,,,,,,,,,,,,,,,,
,,,,,,,,,66f0a1d13629250f84bc2598,Spanish,13 or older,"no, only English or Spanish",no,2025-08-12_17h14.37.196,empathy_intonation_perc_control,2024.2.4,Win32,144.9275362,66f0a1d13629250f84bc2598,68817205a84113384fffdfe3,689bb0e4099b78b5deeaa84e,,,,,,,,,,,,,1,,,,,,,,,,,,,,,,,,,,,,,,,,,,,,,,,,,,,78,frondoso,,,,,349.9646,350.9502,0,0,0.469,,0,57,57,77,1,REAL,FAKE,,,,,,,,,,,,,,,,,
,,,,,,,,,66f0a1d13629250f84bc2598,Spanish,13 or older,"no, only English or Spanish",no,2025-08-12_17h14.37.196,empathy_intonation_perc_control,2024.2.4,Win32,144.9275362,66f0a1d13629250f84bc2598,68817205a84113384fffdfe3,689bb0e4099b78b5deeaa84e,,,,,,,,,,,,,0,,,,,,,,,,,,,,,,,,,,,,,,,,,,,,,,,,,,,21,capillo,,,,,350.9508,352.0127,1,0,0.5449,,0,58,58,20,1,REAL,FAKE,,,,,,,,,,,,,,,,,
,,,,,,,,,66f0a1d13629250f84bc2598,Spanish,13 or older,"no, only English or Spanish",no,2025-08-12_17h14.37.196,empathy_intonation_perc_control,2024.2.4,Win32,144.9275362,66f0a1d13629250f84bc2598,68817205a84113384fffdfe3,689bb0e4099b78b5deeaa84e,,,,,,,,,,,,,0,,,,,,,,,,,,,,,,,,,,,,,,,,,,,,,,,,,,,72,pemición,,,,,352.0134,353.0405,0,1,0.5124,,0,59,59,71,1,REAL,FAKE,,,,,,,,,,,,,,,,,
,,,,,,,,,66f0a1d13629250f84bc2598,Spanish,13 or older,"no, only English or Spanish",no,2025-08-12_17h14.37.196,empathy_intonation_perc_control,2024.2.4,Win32,144.9275362,66f0a1d13629250f84bc2598,68817205a84113384fffdfe3,689bb0e4099b78b5deeaa84e,,,,,,,,,,,,,1,,,,,,,,,,,,,,,,,,,,,,,,,,,,,,,,,,,,,85,laúd,,,,,353.0412,354.1031,1,1,0.5476,,0,60,60,84,1,REAL,FAKE,,,,,,,,,,,,,,,,,
,,,,,,,,,66f0a1d13629250f84bc2598,Spanish,13 or older,"no, only English or Spanish",no,2025-08-12_17h14.37.196,empathy_intonation_perc_control,2024.2.4,Win32,144.9275362,66f0a1d13629250f84bc2598,68817205a84113384fffdfe3,689bb0e4099b78b5deeaa84e,,,,,,,,,,,,,1,,,,,,,,,,,,,,,,,,,,,,,,,,,,,,,,,,,,,15,regar,,,,,354.1036,355.1045,1,1,0.4861,,0,61,61,14,1,REAL,FAKE,,,,,,,,,,,,,,,,,
,,,,,,,,,66f0a1d13629250f84bc2598,Spanish,13 or older,"no, only English or Spanish",no,2025-08-12_17h14.37.196,empathy_intonation_perc_control,2024.2.4,Win32,144.9275362,66f0a1d13629250f84bc2598,68817205a84113384fffdfe3,689bb0e4099b78b5deeaa84e,,,,,,,,,,,,,1,,,,,,,,,,,,,,,,,,,,,,,,,,,,,,,,,,,,,69,engatusar,,,,,355.1049,356.1239,1,1,0.5002,,0,62,62,68,1,REAL,FAKE,,,,,,,,,,,,,,,,,
,,,,,,,,,66f0a1d13629250f84bc2598,Spanish,13 or older,"no, only English or Spanish",no,2025-08-12_17h14.37.196,empathy_intonation_perc_control,2024.2.4,Win32,144.9275362,66f0a1d13629250f84bc2598,68817205a84113384fffdfe3,689bb0e4099b78b5deeaa84e,,,,,,,,,,,,,0,,,,,,,,,,,,,,,,,,,,,,,,,,,,,,,,,,,,,18,arsa,,,,,356.1242,357.1655,1,0,0.5222,,0,63,63,17,1,REAL,FAKE,,,,,,,,,,,,,,,,,
,,,,,,,,,66f0a1d13629250f84bc2598,Spanish,13 or older,"no, only English or Spanish",no,2025-08-12_17h14.37.196,empathy_intonation_perc_control,2024.2.4,Win32,144.9275362,66f0a1d13629250f84bc2598,68817205a84113384fffdfe3,689bb0e4099b78b5deeaa84e,,,,,,,,,,,,,1,,,,,,,,,,,,,,,,,,,,,,,,,,,,,,,,,,,,,48,ladrón,,,,,357.1659,358.1516,1,1,0.4656,,0,64,64,47,1,REAL,FAKE,,,,,,,,,,,,,,,,,
,,,,,,,,,66f0a1d13629250f84bc2598,Spanish,13 or older,"no, only English or Spanish",no,2025-08-12_17h14.37.196,empathy_intonation_perc_control,2024.2.4,Win32,144.9275362,66f0a1d13629250f84bc2598,68817205a84113384fffdfe3,689bb0e4099b78b5deeaa84e,,,,,,,,,,,,,1,,,,,,,,,,,,,,,,,,,,,,,,,,,,,,,,,,,,,26,secuestro,,,,,358.1521,359.0904,0,0,0.4239,,0,65,65,25,1,REAL,FAKE,,,,,,,,,,,,,,,,,
,,,,,,,,,66f0a1d13629250f84bc2598,Spanish,13 or older,"no, only English or Spanish",no,2025-08-12_17h14.37.196,empathy_intonation_perc_control,2024.2.4,Win32,144.9275362,66f0a1d13629250f84bc2598,68817205a84113384fffdfe3,689bb0e4099b78b5deeaa84e,,,,,,,,,,,,,1,,,,,,,,,,,,,,,,,,,,,,,,,,,,,,,,,,,,,7,pésimo,,,,,359.0909,360.2487,1,1,0.639,,0,66,66,6,1,REAL,FAKE,,,,,,,,,,,,,,,,,
,,,,,,,,,66f0a1d13629250f84bc2598,Spanish,13 or older,"no, only English or Spanish",no,2025-08-12_17h14.37.196,empathy_intonation_perc_control,2024.2.4,Win32,144.9275362,66f0a1d13629250f84bc2598,68817205a84113384fffdfe3,689bb0e4099b78b5deeaa84e,,,,,,,,,,,,,1,,,,,,,,,,,,,,,,,,,,,,,,,,,,,,,,,,,,,56,musgo,,,,,360.2492,361.2001,1,1,0.4333,,0,67,67,55,1,REAL,FAKE,,,,,,,,,,,,,,,,,
,,,,,,,,,66f0a1d13629250f84bc2598,Spanish,13 or older,"no, only English or Spanish",no,2025-08-12_17h14.37.196,empathy_intonation_perc_control,2024.2.4,Win32,144.9275362,66f0a1d13629250f84bc2598,68817205a84113384fffdfe3,689bb0e4099b78b5deeaa84e,,,,,,,,,,,,,1,,,,,,,,,,,,,,,,,,,,,,,,,,,,,,,,,,,,,49,ganar,,,,,361.2007,362.2001,0,0,0.4792,,0,68,68,48,1,REAL,FAKE,,,,,,,,,,,,,,,,,
,,,,,,,,,66f0a1d13629250f84bc2598,Spanish,13 or older,"no, only English or Spanish",no,2025-08-12_17h14.37.196,empathy_intonation_perc_control,2024.2.4,Win32,144.9275362,66f0a1d13629250f84bc2598,68817205a84113384fffdfe3,689bb0e4099b78b5deeaa84e,,,,,,,,,,,,,0,,,,,,,,,,,,,,,,,,,,,,,,,,,,,,,,,,,,,8,cadeña,,,,,362.2009,363.1793,1,0,0.4609,,0,69,69,7,1,REAL,FAKE,,,,,,,,,,,,,,,,,
,,,,,,,,,66f0a1d13629250f84bc2598,Spanish,13 or older,"no, only English or Spanish",no,2025-08-12_17h14.37.196,empathy_intonation_perc_control,2024.2.4,Win32,144.9275362,66f0a1d13629250f84bc2598,68817205a84113384fffdfe3,689bb0e4099b78b5deeaa84e,,,,,,,,,,,,,1,,,,,,,,,,,,,,,,,,,,,,,,,,,,,,,,,,,,,3,pulmones,,,,,363.1798,364.2973,1,1,0.5987,,0,70,70,2,1,REAL,FAKE,,,,,,,,,,,,,,,,,
,,,,,,,,,66f0a1d13629250f84bc2598,Spanish,13 or older,"no, only English or Spanish",no,2025-08-12_17h14.37.196,empathy_intonation_perc_control,2024.2.4,Win32,144.9275362,66f0a1d13629250f84bc2598,68817205a84113384fffdfe3,689bb0e4099b78b5deeaa84e,,,,,,,,,,,,,1,,,,,,,,,,,,,,,,,,,,,,,,,,,,,,,,,,,,,57,tacaño,,,,,364.2978,365.2903,1,1,0.4758,,0,71,71,56,1,REAL,FAKE,,,,,,,,,,,,,,,,,
,,,,,,,,,66f0a1d13629250f84bc2598,Spanish,13 or older,"no, only English or Spanish",no,2025-08-12_17h14.37.196,empathy_intonation_perc_control,2024.2.4,Win32,144.9275362,66f0a1d13629250f84bc2598,68817205a84113384fffdfe3,689bb0e4099b78b5deeaa84e,,,,,,,,,,,,,1,,,,,,,,,,,,,,,,,,,,,,,,,,,,,,,,,,,,,67,cabello,,,,,365.2909,366.2695,1,1,0.4585,,0,72,72,66,1,REAL,FAKE,,,,,,,,,,,,,,,,,
,,,,,,,,,66f0a1d13629250f84bc2598,Spanish,13 or older,"no, only English or Spanish",no,2025-08-12_17h14.37.196,empathy_intonation_perc_control,2024.2.4,Win32,144.9275362,66f0a1d13629250f84bc2598,68817205a84113384fffdfe3,689bb0e4099b78b5deeaa84e,,,,,,,,,,,,,0,,,,,,,,,,,,,,,,,,,,,,,,,,,,,,,,,,,,,87,grodo,,,,,366.27,367.3459,0,1,0.5557,,0,73,73,86,1,REAL,FAKE,,,,,,,,,,,,,,,,,
,,,,,,,,,66f0a1d13629250f84bc2598,Spanish,13 or older,"no, only English or Spanish",no,2025-08-12_17h14.37.196,empathy_intonation_perc_control,2024.2.4,Win32,144.9275362,66f0a1d13629250f84bc2598,68817205a84113384fffdfe3,689bb0e4099b78b5deeaa84e,,,,,,,,,,,,,1,,,,,,,,,,,,,,,,,,,,,,,,,,,,,,,,,,,,,36,loro,,,,,367.3464,368.2973,1,1,0.4311,,0,74,74,35,1,REAL,FAKE,,,,,,,,,,,,,,,,,
,,,,,,,,,66f0a1d13629250f84bc2598,Spanish,13 or older,"no, only English or Spanish",no,2025-08-12_17h14.37.196,empathy_intonation_perc_control,2024.2.4,Win32,144.9275362,66f0a1d13629250f84bc2598,68817205a84113384fffdfe3,689bb0e4099b78b5deeaa84e,,,,,,,,,,,,,1,,,,,,,,,,,,,,,,,,,,,,,,,,,,,,,,,,,,,11,cenefa,,,,,368.2978,369.2904,1,1,0.4749,,0,75,75,10,1,REAL,FAKE,,,,,,,,,,,,,,,,,
,,,,,,,,,66f0a1d13629250f84bc2598,Spanish,13 or older,"no, only English or Spanish",no,2025-08-12_17h14.37.196,empathy_intonation_perc_control,2024.2.4,Win32,144.9275362,66f0a1d13629250f84bc2598,68817205a84113384fffdfe3,689bb0e4099b78b5deeaa84e,,,,,,,,,,,,,1,,,,,,,,,,,,,,,,,,,,,,,,,,,,,,,,,,,,,5,zapato,,,,,369.291,370.3529,1,1,0.5418,,0,76,76,4,1,REAL,FAKE,,,,,,,,,,,,,,,,,
,,,,,,,,,66f0a1d13629250f84bc2598,Spanish,13 or older,"no, only English or Spanish",no,2025-08-12_17h14.37.196,empathy_intonation_perc_control,2024.2.4,Win32,144.9275362,66f0a1d13629250f84bc2598,68817205a84113384fffdfe3,689bb0e4099b78b5deeaa84e,,,,,,,,,,,,,0,,,,,,,,,,,,,,,,,,,,,,,,,,,,,,,,,,,,,10,antar,,,,,370.3533,371.4362,1,0,0.567,,0,77,77,9,1,REAL,FAKE,,,,,,,,,,,,,,,,,
,,,,,,,,,66f0a1d13629250f84bc2598,Spanish,13 or older,"no, only English or Spanish",no,2025-08-12_17h14.37.196,empathy_intonation_perc_control,2024.2.4,Win32,144.9275362,66f0a1d13629250f84bc2598,68817205a84113384fffdfe3,689bb0e4099b78b5deeaa84e,,,,,,,,,,,,,0,,,,,,,,,,,,,,,,,,,,,,,,,,,,,,,,,,,,,1,terzo,,,,,371.4366,372.5056,1,0,0.551,,0,78,78,0,1,REAL,FAKE,,,,,,,,,,,,,,,,,
,,,,,,,,,66f0a1d13629250f84bc2598,Spanish,13 or older,"no, only English or Spanish",no,2025-08-12_17h14.37.196,empathy_intonation_perc_control,2024.2.4,Win32,144.9275362,66f0a1d13629250f84bc2598,68817205a84113384fffdfe3,689bb0e4099b78b5deeaa84e,,,,,,,,,,,,,1,,,,,,,,,,,,,,,,,,,,,,,,,,,,,,,,,,,,,62,flaco,,,,,372.506,373.5334,1,1,0.5094,,0,79,79,61,1,REAL,FAKE,,,,,,,,,,,,,,,,,
,,,,,,,,,66f0a1d13629250f84bc2598,Spanish,13 or older,"no, only English or Spanish",no,2025-08-12_17h14.37.196,empathy_intonation_perc_control,2024.2.4,Win32,144.9275362,66f0a1d13629250f84bc2598,68817205a84113384fffdfe3,689bb0e4099b78b5deeaa84e,,,,,,,,,,,,,1,,,,,,,,,,,,,,,,,,,,,,,,,,,,,,,,,,,,,41,rebuscar,,,,,373.5338,374.5542,1,1,0.5037,,0,80,80,40,1,REAL,FAKE,,,,,,,,,,,,,,,,,
,,,,,,,,,66f0a1d13629250f84bc2598,Spanish,13 or older,"no, only English or Spanish",no,2025-08-12_17h14.37.196,empathy_intonation_perc_control,2024.2.4,Win32,144.9275362,66f0a1d13629250f84bc2598,68817205a84113384fffdfe3,689bb0e4099b78b5deeaa84e,,,,,,,,,,,,,1,,,,,,,,,,,,,,,,,,,,,,,,,,,,,,,,,,,,,65,bizcocho,,,,,374.5546,375.4569,0,0,0.3869,,0,81,81,64,1,REAL,FAKE,,,,,,,,,,,,,,,,,
,,,,,,,,,66f0a1d13629250f84bc2598,Spanish,13 or older,"no, only English or Spanish",no,2025-08-12_17h14.37.196,empathy_intonation_perc_control,2024.2.4,Win32,144.9275362,66f0a1d13629250f84bc2598,68817205a84113384fffdfe3,689bb0e4099b78b5deeaa84e,,,,,,,,,,,,,0,,,,,,,,,,,,,,,,,,,,,,,,,,,,,,,,,,,,,23,lampera,,,,,375.4574,376.7069,0,1,0.7311,,0,82,82,22,1,REAL,FAKE,,,,,,,,,,,,,,,,,
,,,,,,,,,66f0a1d13629250f84bc2598,Spanish,13 or older,"no, only English or Spanish",no,2025-08-12_17h14.37.196,empathy_intonation_perc_control,2024.2.4,Win32,144.9275362,66f0a1d13629250f84bc2598,68817205a84113384fffdfe3,689bb0e4099b78b5deeaa84e,,,,,,,,,,,,,0,,,,,,,,,,,,,,,,,,,,,,,,,,,,,,,,,,,,,47,cartinar,,,,,376.7074,377.7694,0,1,0.545,,0,83,83,46,1,REAL,FAKE,,,,,,,,,,,,,,,,,
,,,,,,,,,66f0a1d13629250f84bc2598,Spanish,13 or older,"no, only English or Spanish",no,2025-08-12_17h14.37.196,empathy_intonation_perc_control,2024.2.4,Win32,144.9275362,66f0a1d13629250f84bc2598,68817205a84113384fffdfe3,689bb0e4099b78b5deeaa84e,,,,,,,,,,,,,0,,,,,,,,,,,,,,,,,,,,,,,,,,,,,,,,,,,,,32,fatacidad,,,,,377.7699,378.8249,0,1,0.5349,,0,84,84,31,1,REAL,FAKE,,,,,,,,,,,,,,,,,
,,,,,,,,,66f0a1d13629250f84bc2598,Spanish,13 or older,"no, only English or Spanish",no,2025-08-12_17h14.37.196,empathy_intonation_perc_control,2024.2.4,Win32,144.9275362,66f0a1d13629250f84bc2598,68817205a84113384fffdfe3,689bb0e4099b78b5deeaa84e,,,,,,,,,,,,,1,,,,,,,,,,,,,,,,,,,,,,,,,,,,,,,,,,,,,54,fomentar,,,,,378.8255,379.832,0,0,0.492,,0,85,85,53,1,REAL,FAKE,,,,,,,,,,,,,,,,,
,,,,,,,,,66f0a1d13629250f84bc2598,Spanish,13 or older,"no, only English or Spanish",no,2025-08-12_17h14.37.196,empathy_intonation_perc_control,2024.2.4,Win32,144.9275362,66f0a1d13629250f84bc2598,68817205a84113384fffdfe3,689bb0e4099b78b5deeaa84e,,,,,,,,,,,,,1,,,,,,,,,,,,,,,,,,,,,,,,,,,,,,,,,,,,,88,acantilado,,,,,379.8325,380.9499,0,0,0.598,,0,86,86,87,1,REAL,FAKE,,,,,,,,,,,,,,,,,
,,,,,,,,,66f0a1d13629250f84bc2598,Spanish,13 or older,"no, only English or Spanish",no,2025-08-12_17h14.37.196,empathy_intonation_perc_control,2024.2.4,Win32,144.9275362,66f0a1d13629250f84bc2598,68817205a84113384fffdfe3,689bb0e4099b78b5deeaa84e,,,,,,,,,,,,,1,,,,,,,,,,,,,,,,,,,,,,,,,,,,,,,,,,,,,55,nevar,,,,,380.9504,381.9916,0,0,0.5251,,0,87,87,54,1,REAL,FAKE,,,,,,,,,,,,,,,,,
,,,,,,,,,66f0a1d13629250f84bc2598,Spanish,13 or older,"no, only English or Spanish",no,2025-08-12_17h14.37.196,empathy_intonation_perc_control,2024.2.4,Win32,144.9275362,66f0a1d13629250f84bc2598,68817205a84113384fffdfe3,689bb0e4099b78b5deeaa84e,,,,,,,,,,,,,0,,,,,,,,,,,,,,,,,,,,,,,,,,,,,,,,,,,,,50,flamida,,,,,381.992,383.0333,0,1,0.5214,,0,88,88,49,1,REAL,FAKE,,,,,,,,,,,,,,,,,
,,,,,,,,,66f0a1d13629250f84bc2598,Spanish,13 or older,"no, only English or Spanish",no,2025-08-12_17h14.37.196,empathy_intonation_perc_control,2024.2.4,Win32,144.9275362,66f0a1d13629250f84bc2598,68817205a84113384fffdfe3,689bb0e4099b78b5deeaa84e,,,,,,,,,,,,,0,,,,,,,,,,,,,,,,,,,,,,,,,,,,,,,,,,,,,82,empirador,,,,,383.0337,384.0818,0,1,0.5288,,0,89,89,81,1,REAL,FAKE,,,,,,,,,,,,,,,,,
,,,,,,,,,66f0a1d13629250f84bc2598,Spanish,13 or older,"no, only English or Spanish",no,2025-08-12_17h14.37.196,empathy_intonation_perc_control,2024.2.4,Win32,144.9275362,66f0a1d13629250f84bc2598,68817205a84113384fffdfe3,689bb0e4099b78b5deeaa84e,,,,,,,,,,,,,1,,,,,,,,,,,,,,,,,,,,,,,,,,,,,,,,,,,,,61,seda,,,,,384.0823,385.061,0,0,0.4612,,0,90,90,60,1,REAL,FAKE,,,,,,,,,,,,,,,,,
,,,,,,,,,66f0a1d13629250f84bc2598,Spanish,13 or older,"no, only English or Spanish",no,2025-08-12_17h14.37.196,empathy_intonation_perc_control,2024.2.4,Win32,144.9275362,66f0a1d13629250f84bc2598,68817205a84113384fffdfe3,689bb0e4099b78b5deeaa84e,,,,,,,,,,,,,1,,,,,,,,,,,,,,,,,,,,,,,,,,,,,,,,,,,,,22,lacayo,,,,,385.0615,386.0123,0,0,0.433,,0,91,91,21,1,REAL,FAKE,,,,,,,,,,,,,,,,,
,,,,,,,,,66f0a1d13629250f84bc2598,Spanish,13 or older,"no, only English or Spanish",no,2025-08-12_17h14.37.196,empathy_intonation_perc_control,2024.2.4,Win32,144.9275362,66f0a1d13629250f84bc2598,68817205a84113384fffdfe3,689bb0e4099b78b5deeaa84e,,,,,,,,,,,,,,,,,,,,,,,,,,,,,,,,,,,,,,,,,,,,,,,,,,,,,,,,,,,,,,,,,,,,,386.0126,399.1172,,,,,,,,,,,,,,,
,,,,,,,,,66f0a1d13629250f84bc2598,Spanish,13 or older,"no, only English or Spanish",no,2025-08-12_17h14.37.196,empathy_intonation_perc_control,2024.2.4,Win32,144.9275362,66f0a1d13629250f84bc2598,68817205a84113384fffdfe3,689bb0e4099b78b5deeaa84e,,,,,,,,,,,,,,,,,,,,,,,,,,,1,,,,,,,,,,,,,,,,,,,,,,,,,,,,,,,,,,,,,,,,,,,,399.1247,405.2554,strongly agree,0,0,0,0,1,I can easily tell if someone else wants to enter a conversation.,1,0,1,0,,
,,,,,,,,,66f0a1d13629250f84bc2598,Spanish,13 or older,"no, only English or Spanish",no,2025-08-12_17h14.37.196,empathy_intonation_perc_control,2024.2.4,Win32,144.9275362,66f0a1d13629250f84bc2598,68817205a84113384fffdfe3,689bb0e4099b78b5deeaa84e,,,,,,,,,,,,,,,,,,,,,,,,,,,2,,,,,,,,,,,,,,,,,,,,,,,,,,,,,,,,,,,,,,,,,,,,405.2563,408.4983,strongly disagree,0,1,1,1,1,I prefer animals to humans.,0,1,0,0,,
,,,,,,,,,66f0a1d13629250f84bc2598,Spanish,13 or older,"no, only English or Spanish",no,2025-08-12_17h14.37.196,empathy_intonation_perc_control,2024.2.4,Win32,144.9275362,66f0a1d13629250f84bc2598,68817205a84113384fffdfe3,689bb0e4099b78b5deeaa84e,,,,,,,,,,,,,,,,,,,,,,,,,,,3,,,,,,,,,,,,,,,,,,,,,,,,,,,,,,,,,,,,,,,,,,,,408.4992,411.5468,slightly disagree,0,2,2,2,1,I try to keep up with the current trends and fashions.,0,1,0,0,,
,,,,,,,,,66f0a1d13629250f84bc2598,Spanish,13 or older,"no, only English or Spanish",no,2025-08-12_17h14.37.196,empathy_intonation_perc_control,2024.2.4,Win32,144.9275362,66f0a1d13629250f84bc2598,68817205a84113384fffdfe3,689bb0e4099b78b5deeaa84e,,,,,,,,,,,,,,,,,,,,,,,,,,,4,,,,,,,,,,,,,,,,,,,,,,,,,,,,,,,,,,,,,,,,,,,,411.5479,413.2482,slightly disagree,0,3,3,3,1,"I find it difficult to explain to others things that I understand easily,   when they don't understand it first time.",1,0,0,1,,
,,,,,,,,,66f0a1d13629250f84bc2598,Spanish,13 or older,"no, only English or Spanish",no,2025-08-12_17h14.37.196,empathy_intonation_perc_control,2024.2.4,Win32,144.9275362,66f0a1d13629250f84bc2598,68817205a84113384fffdfe3,689bb0e4099b78b5deeaa84e,,,,,,,,,,,,,,,,,,,,,,,,,,,5,,,,,,,,,,,,,,,,,,,,,,,,,,,,,,,,,,,,,,,,,,,,413.2488,415.3801,slightly agree,0,4,4,4,1,I dream most nights.,0,1,0,0,,
,,,,,,,,,66f0a1d13629250f84bc2598,Spanish,13 or older,"no, only English or Spanish",no,2025-08-12_17h14.37.196,empathy_intonation_perc_control,2024.2.4,Win32,144.9275362,66f0a1d13629250f84bc2598,68817205a84113384fffdfe3,689bb0e4099b78b5deeaa84e,,,,,,,,,,,,,,,,,,,,,,,,,,,6,,,,,,,,,,,,,,,,,,,,,,,,,,,,,,,,,,,,,,,,,,,,415.3809,417.8941,slightly agree,0,5,5,5,1,I really enjoy caring for other people.,1,0,1,0,,
,,,,,,,,,66f0a1d13629250f84bc2598,Spanish,13 or older,"no, only English or Spanish",no,2025-08-12_17h14.37.196,empathy_intonation_perc_control,2024.2.4,Win32,144.9275362,66f0a1d13629250f84bc2598,68817205a84113384fffdfe3,689bb0e4099b78b5deeaa84e,,,,,,,,,,,,,,,,,,,,,,,,,,,7,,,,,,,,,,,,,,,,,,,,,,,,,,,,,,,,,,,,,,,,,,,,417.8949,421.0329,strongly agree,0,6,6,6,1,I try to solve my own problems rather than discussing them with others.,0,1,0,0,,
,,,,,,,,,66f0a1d13629250f84bc2598,Spanish,13 or older,"no, only English or Spanish",no,2025-08-12_17h14.37.196,empathy_intonation_perc_control,2024.2.4,Win32,144.9275362,66f0a1d13629250f84bc2598,68817205a84113384fffdfe3,689bb0e4099b78b5deeaa84e,,,,,,,,,,,,,,,,,,,,,,,,,,,8,,,,,,,,,,,,,,,,,,,,,,,,,,,,,,,,,,,,,,,,,,,,421.0335,422.0884,strongly agree,0,7,7,7,1,I find it hard to know what to do in a social situation.,1,0,0,1,,
,,,,,,,,,66f0a1d13629250f84bc2598,Spanish,13 or older,"no, only English or Spanish",no,2025-08-12_17h14.37.196,empathy_intonation_perc_control,2024.2.4,Win32,144.9275362,66f0a1d13629250f84bc2598,68817205a84113384fffdfe3,689bb0e4099b78b5deeaa84e,,,,,,,,,,,,,,,,,,,,,,,,,,,9,,,,,,,,,,,,,,,,,,,,,,,,,,,,,,,,,,,,,,,,,,,,422.0889,425.1786,slightly agree,0,8,8,8,1,I am at my best first thing in the morning.,0,1,0,0,,
,,,,,,,,,66f0a1d13629250f84bc2598,Spanish,13 or older,"no, only English or Spanish",no,2025-08-12_17h14.37.196,empathy_intonation_perc_control,2024.2.4,Win32,144.9275362,66f0a1d13629250f84bc2598,68817205a84113384fffdfe3,689bb0e4099b78b5deeaa84e,,,,,,,,,,,,,,,,,,,,,,,,,,,10,,,,,,,,,,,,,,,,,,,,,,,,,,,,,,,,,,,,,,,,,,,,425.1795,427.6092,slightly agree,0,9,9,9,1,People often tell me that I went too far in driving my point home in a discussion.,1,0,0,1,,
,,,,,,,,,66f0a1d13629250f84bc2598,Spanish,13 or older,"no, only English or Spanish",no,2025-08-12_17h14.37.196,empathy_intonation_perc_control,2024.2.4,Win32,144.9275362,66f0a1d13629250f84bc2598,68817205a84113384fffdfe3,689bb0e4099b78b5deeaa84e,,,,,,,,,,,,,,,,,,,,,,,,,,,11,,,,,,,,,,,,,,,,,,,,,,,,,,,,,,,,,,,,,,,,,,,,427.6101,431.1022,strongly agree,0,10,10,10,1,It doesn't bother me too much if I am late meeting a friend.,1,0,0,1,,
,,,,,,,,,66f0a1d13629250f84bc2598,Spanish,13 or older,"no, only English or Spanish",no,2025-08-12_17h14.37.196,empathy_intonation_perc_control,2024.2.4,Win32,144.9275362,66f0a1d13629250f84bc2598,68817205a84113384fffdfe3,689bb0e4099b78b5deeaa84e,,,,,,,,,,,,,,,,,,,,,,,,,,,12,,,,,,,,,,,,,,,,,,,,,,,,,,,,,,,,,,,,,,,,,,,,431.103,432.5188,slightly agree,0,11,11,11,1,"Friendships and relationships are just too difficult, so I tend not to 
  bother with them.",1,0,0,1,,
,,,,,,,,,66f0a1d13629250f84bc2598,Spanish,13 or older,"no, only English or Spanish",no,2025-08-12_17h14.37.196,empathy_intonation_perc_control,2024.2.4,Win32,144.9275362,66f0a1d13629250f84bc2598,68817205a84113384fffdfe3,689bb0e4099b78b5deeaa84e,,,,,,,,,,,,,,,,,,,,,,,,,,,13,,,,,,,,,,,,,,,,,,,,,,,,,,,,,,,,,,,,,,,,,,,,432.5193,435.623,strongly agree,0,12,12,12,1,"I would never break a law, no matter how minor.",0,1,0,0,,
,,,,,,,,,66f0a1d13629250f84bc2598,Spanish,13 or older,"no, only English or Spanish",no,2025-08-12_17h14.37.196,empathy_intonation_perc_control,2024.2.4,Win32,144.9275362,66f0a1d13629250f84bc2598,68817205a84113384fffdfe3,689bb0e4099b78b5deeaa84e,,,,,,,,,,,,,,,,,,,,,,,,,,,14,,,,,,,,,,,,,,,,,,,,,,,,,,,,,,,,,,,,,,,,,,,,435.6236,437.8384,slightly agree,0,13,13,13,1,I often find it difficult to judge if something is rude or polite.,1,0,0,1,,
,,,,,,,,,66f0a1d13629250f84bc2598,Spanish,13 or older,"no, only English or Spanish",no,2025-08-12_17h14.37.196,empathy_intonation_perc_control,2024.2.4,Win32,144.9275362,66f0a1d13629250f84bc2598,68817205a84113384fffdfe3,689bb0e4099b78b5deeaa84e,,,,,,,,,,,,,,,,,,,,,,,,,,,15,,,,,,,,,,,,,,,,,,,,,,,,,,,,,,,,,,,,,,,,,,,,437.839,440.6229,slightly disagree,0,14,14,14,1,"In a conversation, I tend to focus on my own thoughts rather than on what 
  my listener might be thinking.",1,0,0,1,,
,,,,,,,,,66f0a1d13629250f84bc2598,Spanish,13 or older,"no, only English or Spanish",no,2025-08-12_17h14.37.196,empathy_intonation_perc_control,2024.2.4,Win32,144.9275362,66f0a1d13629250f84bc2598,68817205a84113384fffdfe3,689bb0e4099b78b5deeaa84e,,,,,,,,,,,,,,,,,,,,,,,,,,,16,,,,,,,,,,,,,,,,,,,,,,,,,,,,,,,,,,,,,,,,,,,,440.6235,442.6229,slightly agree,0,15,15,15,1,I prefer practical jokes to verbal humor.,0,1,0,0,,
,,,,,,,,,66f0a1d13629250f84bc2598,Spanish,13 or older,"no, only English or Spanish",no,2025-08-12_17h14.37.196,empathy_intonation_perc_control,2024.2.4,Win32,144.9275362,66f0a1d13629250f84bc2598,68817205a84113384fffdfe3,689bb0e4099b78b5deeaa84e,,,,,,,,,,,,,,,,,,,,,,,,,,,17,,,,,,,,,,,,,,,,,,,,,,,,,,,,,,,,,,,,,,,,,,,,442.6235,445.5951,strongly agree,0,16,16,16,1,I live life for today rather than the future.,0,1,0,0,,
,,,,,,,,,66f0a1d13629250f84bc2598,Spanish,13 or older,"no, only English or Spanish",no,2025-08-12_17h14.37.196,empathy_intonation_perc_control,2024.2.4,Win32,144.9275362,66f0a1d13629250f84bc2598,68817205a84113384fffdfe3,689bb0e4099b78b5deeaa84e,,,,,,,,,,,,,,,,,,,,,,,,,,,18,,,,,,,,,,,,,,,,,,,,,,,,,,,,,,,,,,,,,,,,,,,,445.5961,447.1923,slightly agree,0,17,17,17,1,"When I was a child, I enjoyed cutting up worms to see what would happen.",1,0,0,1,,
,,,,,,,,,66f0a1d13629250f84bc2598,Spanish,13 or older,"no, only English or Spanish",no,2025-08-12_17h14.37.196,empathy_intonation_perc_control,2024.2.4,Win32,144.9275362,66f0a1d13629250f84bc2598,68817205a84113384fffdfe3,689bb0e4099b78b5deeaa84e,,,,,,,,,,,,,,,,,,,,,,,,,,,19,,,,,,,,,,,,,,,,,,,,,,,,,,,,,,,,,,,,,,,,,,,,447.1931,450.4978,strongly agree,0,18,18,18,1,I can pick up quickly if someone says one thing but means another.,1,0,1,0,,
,,,,,,,,,66f0a1d13629250f84bc2598,Spanish,13 or older,"no, only English or Spanish",no,2025-08-12_17h14.37.196,empathy_intonation_perc_control,2024.2.4,Win32,144.9275362,66f0a1d13629250f84bc2598,68817205a84113384fffdfe3,689bb0e4099b78b5deeaa84e,,,,,,,,,,,,,,,,,,,,,,,,,,,20,,,,,,,,,,,,,,,,,,,,,,,,,,,,,,,,,,,,,,,,,,,,450.4984,455.7341,slightly disagree,0,19,19,19,1,I tend to have very strong opinions about morality.,0,1,0,0,,
,,,,,,,,,66f0a1d13629250f84bc2598,Spanish,13 or older,"no, only English or Spanish",no,2025-08-12_17h14.37.196,empathy_intonation_perc_control,2024.2.4,Win32,144.9275362,66f0a1d13629250f84bc2598,68817205a84113384fffdfe3,689bb0e4099b78b5deeaa84e,,,,,,,,,,,,,,,,,,,,,,,,,,,21,,,,,,,,,,,,,,,,,,,,,,,,,,,,,,,,,,,,,,,,,,,,455.7347,459.4352,slightly agree,0,20,20,20,1,It is hard for me to see why some things upset people so much.,1,0,0,1,,
,,,,,,,,,66f0a1d13629250f84bc2598,Spanish,13 or older,"no, only English or Spanish",no,2025-08-12_17h14.37.196,empathy_intonation_perc_control,2024.2.4,Win32,144.9275362,66f0a1d13629250f84bc2598,68817205a84113384fffdfe3,689bb0e4099b78b5deeaa84e,,,,,,,,,,,,,,,,,,,,,,,,,,,22,,,,,,,,,,,,,,,,,,,,,,,,,,,,,,,,,,,,,,,,,,,,459.4359,460.7546,slightly agree,0,21,21,21,1,I find it easy to put myself in somebody else's shoes.,1,0,1,0,,
,,,,,,,,,66f0a1d13629250f84bc2598,Spanish,13 or older,"no, only English or Spanish",no,2025-08-12_17h14.37.196,empathy_intonation_perc_control,2024.2.4,Win32,144.9275362,66f0a1d13629250f84bc2598,68817205a84113384fffdfe3,689bb0e4099b78b5deeaa84e,,,,,,,,,,,,,,,,,,,,,,,,,,,23,,,,,,,,,,,,,,,,,,,,,,,,,,,,,,,,,,,,,,,,,,,,460.7553,461.9908,slightly disagree,0,22,22,22,1,I think that good manners are the most important thing a parent can teach their child.,0,1,0,0,,
,,,,,,,,,66f0a1d13629250f84bc2598,Spanish,13 or older,"no, only English or Spanish",no,2025-08-12_17h14.37.196,empathy_intonation_perc_control,2024.2.4,Win32,144.9275362,66f0a1d13629250f84bc2598,68817205a84113384fffdfe3,689bb0e4099b78b5deeaa84e,,,,,,,,,,,,,,,,,,,,,,,,,,,24,,,,,,,,,,,,,,,,,,,,,,,,,,,,,,,,,,,,,,,,,,,,461.9915,465.3936,slightly agree,0,23,23,23,1,I like to do things on the spur of the moment.,0,1,0,0,,
,,,,,,,,,66f0a1d13629250f84bc2598,Spanish,13 or older,"no, only English or Spanish",no,2025-08-12_17h14.37.196,empathy_intonation_perc_control,2024.2.4,Win32,144.9275362,66f0a1d13629250f84bc2598,68817205a84113384fffdfe3,689bb0e4099b78b5deeaa84e,,,,,,,,,,,,,,,,,,,,,,,,,,,25,,,,,,,,,,,,,,,,,,,,,,,,,,,,,,,,,,,,,,,,,,,,465.3942,472.2545,slightly agree,0,24,24,24,1,I am good at predicting how someone will feel.,1,0,1,0,,
