instructions_2afc.started,instructions_2afc.stopped,instructions_2afc_loop.thisRepN,instructions_2afc_loop.thisTrialN,instructions_2afc_loop.thisN,instructions_2afc_loop.thisIndex,instructions_2afc_loop.ran,instructions_text,continue_text,participant_id,"What variety of Spanish are you most familiar with? (e.g., Peruvian, Spanish, Mexican)",At what age did you begin learning Spanish?,Are you proficient in any languages other than English/Spanish?,"Are you familiar with Caribbean (e.g., Caribbean, Puerto Rican) or Galician Spanish?",date,expName,psychopyVersion,OS,frameRate,id,study_id,session,practice_2afc.started,practice_2afc.stopped,key_resp_2afc_practice.keys,key_resp_2afc_practice.corr,key_resp_2afc_practice.rt,key_resp_2afc_practice.duration,trials_2afc_practice_loop.thisRepN,trials_2afc_practice_loop.thisTrialN,trials_2afc_practice_loop.thisN,trials_2afc_practice_loop.thisIndex,trials_2afc_practice_loop.ran,path,correct_response,check_2afc.started,check_2afc.stopped,trial_2afc.started,trial_2afc.stopped,key_resp_2afc_trial.keys,key_resp_2afc_trial.corr,key_resp_2afc_trial.rt,key_resp_2afc_trial.duration,trials_2afc_loop.thisRepN,trials_2afc_loop.thisTrialN,trials_2afc_loop.thisN,trials_2afc_loop.thisIndex,trials_2afc_loop.ran,item_num,target,variety,instructions_lextale.started,instructions_lextale.stopped,instructions_lextale_loop.thisRepN,instructions_lextale_loop.thisTrialN,instructions_lextale_loop.thisN,instructions_lextale_loop.thisIndex,instructions_lextale_loop.ran,practice_lextale.started,practice_lextale.stopped,key_resp_lextale_practice.keys,key_resp_lextale_practice.corr,key_resp_lextale_practice.rt,key_resp_lextale_practice.duration,practice_feedback_lextale.started,practice_feedback_lextale.stopped,trials_lextale_practice_loop.thisRepN,trials_lextale_practice_loop.thisTrialN,trials_lextale_practice_loop.thisN,trials_lextale_practice_loop.thisIndex,trials_lextale_practice_loop.ran,stim,word,prac_button_real,prac_button_false,check_lextale.started,check_lextale.stopped,trial_lextale.started,trial_lextale.stopped,key_resp_lextale_trial.keys,key_resp_lextale_trial.corr,key_resp_lextale_trial.rt,key_resp_lextale_trial.duration,trials_lextale_loop.thisRepN,trials_lextale_loop.thisTrialN,trials_lextale_loop.thisN,trials_lextale_loop.thisIndex,trials_lextale_loop.ran,button_real,button_false,instructions_eq.started,instructions_eq.stopped,trial_eq.started,trial_eq.stopped,slider_eq_trial.response,trials_eq_loop.thisRepN,trials_eq_loop.thisTrialN,trials_eq_loop.thisN,trials_eq_loop.thisIndex,trials_eq_loop.ran,item,is_test_item,is_distractor,is_agree_score,is_disagree_score,end_exp.started,end_exp.stopped
0.031,6.9357,0,0,0,0,1,"In the following task you are going to hear a series of utterances. 

  You will decide if the utterances sound like questions or not using your keyboard.", (press the spacebar to continue),66f9a40196d53f05f2232cff,,click here to respond,click here to respond,click here to respond,2025-08-12_14h24.31.669,empathy_intonation_perc_control,2024.2.4,Linux x86_64,59.88023952,66f9a40196d53f05f2232cff,68817205a84113384fffdfe3,689b8671e76bb0771cb3cfc8,,,,,,,,,,,,,,,,,,,,,,,,,,,,,,,,,,,,,,,,,,,,,,,,,,,,,,,,,,,,,,,,,,,,,,,,,,,,,,,,,,,,,
6.9552,15.2852,0,1,1,1,1,"If you believe the utterance is a question, type '1' (for 'yes') and if you do not 
  believe it is a question type '0' (for 'no').

  Let's practice a bit...", (press the spacebar to continue),66f9a40196d53f05f2232cff,,click here to respond,click here to respond,click here to respond,2025-08-12_14h24.31.669,empathy_intonation_perc_control,2024.2.4,Linux x86_64,59.88023952,66f9a40196d53f05f2232cff,68817205a84113384fffdfe3,689b8671e76bb0771cb3cfc8,,,,,,,,,,,,,,,,,,,,,,,,,,,,,,,,,,,,,,,,,,,,,,,,,,,,,,,,,,,,,,,,,,,,,,,,,,,,,,,,,,,,,
,,,,,,,,,66f9a40196d53f05f2232cff,,click here to respond,click here to respond,click here to respond,2025-08-12_14h24.31.669,empathy_intonation_perc_control,2024.2.4,Linux x86_64,59.88023952,66f9a40196d53f05f2232cff,68817205a84113384fffdfe3,689b8671e76bb0771cb3cfc8,15.3205,20.6573,0,1,4.804,,0,0,0,5,1,./stim/wavs/andalusian_statement_filler_Alberto-nunca-se-afeita.wav,0,,,,,,,,,,,,,,,,,,,,,,,,,,,,,,,,,,,,,,,,,,,,,,,,,,,,,,,,,,,,,,,,,,,,,,,,
,,,,,,,,,66f9a40196d53f05f2232cff,,click here to respond,click here to respond,click here to respond,2025-08-12_14h24.31.669,empathy_intonation_perc_control,2024.2.4,Linux x86_64,59.88023952,66f9a40196d53f05f2232cff,68817205a84113384fffdfe3,689b8671e76bb0771cb3cfc8,20.6745,24.7011,0,1,3.4973,,0,1,1,7,1,./stim/wavs/puertorican_statement_filler_La-nina-pinta-con-su-amiga.wav,0,,,,,,,,,,,,,,,,,,,,,,,,,,,,,,,,,,,,,,,,,,,,,,,,,,,,,,,,,,,,,,,,,,,,,,,,
,,,,,,,,,66f9a40196d53f05f2232cff,,click here to respond,click here to respond,click here to respond,2025-08-12_14h24.31.669,empathy_intonation_perc_control,2024.2.4,Linux x86_64,59.88023952,66f9a40196d53f05f2232cff,68817205a84113384fffdfe3,689b8671e76bb0771cb3cfc8,24.7162,28.2177,1,1,2.9827,,0,2,2,0,1,./stim/wavs/castilian_question_filler_Mi-esposo-conoce-al-chico.wav,1,,,,,,,,,,,,,,,,,,,,,,,,,,,,,,,,,,,,,,,,,,,,,,,,,,,,,,,,,,,,,,,,,,,,,,,,
,,,,,,,,,66f9a40196d53f05f2232cff,,click here to respond,click here to respond,click here to respond,2025-08-12_14h24.31.669,empathy_intonation_perc_control,2024.2.4,Linux x86_64,59.88023952,66f9a40196d53f05f2232cff,68817205a84113384fffdfe3,689b8671e76bb0771cb3cfc8,28.2323,32.3184,1,1,3.5723,,0,3,3,2,1,./stim/wavs/chilean_question_filler_Mi-padre-cantaba-bien.wav,1,,,,,,,,,,,,,,,,,,,,,,,,,,,,,,,,,,,,,,,,,,,,,,,,,,,,,,,,,,,,,,,,,,,,,,,,
,,,,,,,,,66f9a40196d53f05f2232cff,,click here to respond,click here to respond,click here to respond,2025-08-12_14h24.31.669,empathy_intonation_perc_control,2024.2.4,Linux x86_64,59.88023952,66f9a40196d53f05f2232cff,68817205a84113384fffdfe3,689b8671e76bb0771cb3cfc8,32.3344,34.9371,1,1,2.0714,,0,4,4,1,1,./stim/wavs/argentine_question_filler_Mi-vecino-habla-mucho.wav,1,,,,,,,,,,,,,,,,,,,,,,,,,,,,,,,,,,,,,,,,,,,,,,,,,,,,,,,,,,,,,,,,,,,,,,,,
,,,,,,,,,66f9a40196d53f05f2232cff,,click here to respond,click here to respond,click here to respond,2025-08-12_14h24.31.669,empathy_intonation_perc_control,2024.2.4,Linux x86_64,59.88023952,66f9a40196d53f05f2232cff,68817205a84113384fffdfe3,689b8671e76bb0771cb3cfc8,34.9384,38.7685,1,1,3.3051,,0,5,5,3,1,./stim/wavs/mexican_question_filler_Felipe-no-tiene-contrasena.wav,1,,,,,,,,,,,,,,,,,,,,,,,,,,,,,,,,,,,,,,,,,,,,,,,,,,,,,,,,,,,,,,,,,,,,,,,,
,,,,,,,,,66f9a40196d53f05f2232cff,,click here to respond,click here to respond,click here to respond,2025-08-12_14h24.31.669,empathy_intonation_perc_control,2024.2.4,Linux x86_64,59.88023952,66f9a40196d53f05f2232cff,68817205a84113384fffdfe3,689b8671e76bb0771cb3cfc8,38.7838,42.0512,0,1,2.7503,,0,6,6,4,1,./stim/wavs/cuban_statement_filler_Cocinabas-por-la-noche.wav,0,,,,,,,,,,,,,,,,,,,,,,,,,,,,,,,,,,,,,,,,,,,,,,,,,,,,,,,,,,,,,,,,,,,,,,,,
,,,,,,,,,66f9a40196d53f05f2232cff,,click here to respond,click here to respond,click here to respond,2025-08-12_14h24.31.669,empathy_intonation_perc_control,2024.2.4,Linux x86_64,59.88023952,66f9a40196d53f05f2232cff,68817205a84113384fffdfe3,689b8671e76bb0771cb3cfc8,42.0651,45.4338,0,1,2.8501,,0,7,7,6,1,./stim/wavs/peruvian_statement_filler_El-nino-habla-con-su-madre.wav,0,,,,,,,,,,,,,,,,,,,,,,,,,,,,,,,,,,,,,,,,,,,,,,,,,,,,,,,,,,,,,,,,,,,,,,,,
,,,,,,,,,66f9a40196d53f05f2232cff,,click here to respond,click here to respond,click here to respond,2025-08-12_14h24.31.669,empathy_intonation_perc_control,2024.2.4,Linux x86_64,59.88023952,66f9a40196d53f05f2232cff,68817205a84113384fffdfe3,689b8671e76bb0771cb3cfc8,,,,,,,,,,,,,,45.4351,54.1674,,,,,,,,,,,,,,,,,,,,,,,,,,,,,,,,,,,,,,,,,,,,,,,,,,,,,,,,,,,,,,,,,,,,,,
,,,,,,,,,66f9a40196d53f05f2232cff,,click here to respond,click here to respond,click here to respond,2025-08-12_14h24.31.669,empathy_intonation_perc_control,2024.2.4,Linux x86_64,59.88023952,66f9a40196d53f05f2232cff,68817205a84113384fffdfe3,689b8671e76bb0771cb3cfc8,,,,,,,,,,,,./stim/wavs/mexican_match_interrogative-total-yn_Emilio-ama-la-marcha.wav,1,,,54.2144,57.0504,1,1,2.3135,,0,0,0,15,1,16,0,mexican,,,,,,,,,,,,,,,,,,,,,,,,,,,,,,,,,,,,,,,,,,,,,,,,,,,,,,,,
,,,,,,,,,66f9a40196d53f05f2232cff,,click here to respond,click here to respond,click here to respond,2025-08-12_14h24.31.669,empathy_intonation_perc_control,2024.2.4,Linux x86_64,59.88023952,66f9a40196d53f05f2232cff,68817205a84113384fffdfe3,689b8671e76bb0771cb3cfc8,,,,,,,,,,,,./stim/wavs/cuban_mismatch_interrogative-total-yn_El-hombre-mira-la-luna.wav,1,,,57.0523,60.5338,0,0,2.9458,,0,1,1,29,1,30,1,cuban,,,,,,,,,,,,,,,,,,,,,,,,,,,,,,,,,,,,,,,,,,,,,,,,,,,,,,,,
,,,,,,,,,66f9a40196d53f05f2232cff,,click here to respond,click here to respond,click here to respond,2025-08-12_14h24.31.669,empathy_intonation_perc_control,2024.2.4,Linux x86_64,59.88023952,66f9a40196d53f05f2232cff,68817205a84113384fffdfe3,689b8671e76bb0771cb3cfc8,,,,,,,,,,,,./stim/wavs/castilian_match_interrogative-total-yn_Emilio-ama-la-marcha.wav,1,,,60.5487,63.4336,1,1,2.3723,,0,2,2,1,1,2,0,castilian,,,,,,,,,,,,,,,,,,,,,,,,,,,,,,,,,,,,,,,,,,,,,,,,,,,,,,,,
,,,,,,,,,66f9a40196d53f05f2232cff,,click here to respond,click here to respond,click here to respond,2025-08-12_14h24.31.669,empathy_intonation_perc_control,2024.2.4,Linux x86_64,59.88023952,66f9a40196d53f05f2232cff,68817205a84113384fffdfe3,689b8671e76bb0771cb3cfc8,,,,,,,,,,,,./stim/wavs/puertorican_match_interrogative-total-yn_Emilio-ama-la-marcha.wav,1,,,63.4351,67.8507,0,0,3.8842,,0,3,3,21,1,22,1,puertorican,,,,,,,,,,,,,,,,,,,,,,,,,,,,,,,,,,,,,,,,,,,,,,,,,,,,,,,,
,,,,,,,,,66f9a40196d53f05f2232cff,,click here to respond,click here to respond,click here to respond,2025-08-12_14h24.31.669,empathy_intonation_perc_control,2024.2.4,Linux x86_64,59.88023952,66f9a40196d53f05f2232cff,68817205a84113384fffdfe3,689b8671e76bb0771cb3cfc8,,,,,,,,,,,,./stim/wavs/cuban_mismatch_interrogative-total-yn_Mi-novio-viene-del-lago.wav,1,,,67.8653,70.6495,0,0,2.2651,,0,4,4,32,1,33,1,cuban,,,,,,,,,,,,,,,,,,,,,,,,,,,,,,,,,,,,,,,,,,,,,,,,,,,,,,,,
,,,,,,,,,66f9a40196d53f05f2232cff,,click here to respond,click here to respond,click here to respond,2025-08-12_14h24.31.669,empathy_intonation_perc_control,2024.2.4,Linux x86_64,59.88023952,66f9a40196d53f05f2232cff,68817205a84113384fffdfe3,689b8671e76bb0771cb3cfc8,,,,,,,,,,,,./stim/wavs/cuban_mismatch_declarative-broad-focus_Mi-tia-odia-la-lluvia.wav,0,,,70.6647,75.5819,1,0,4.3997,,0,5,5,77,1,78,0,cuban,,,,,,,,,,,,,,,,,,,,,,,,,,,,,,,,,,,,,,,,,,,,,,,,,,,,,,,,
,,,,,,,,,66f9a40196d53f05f2232cff,,click here to respond,click here to respond,click here to respond,2025-08-12_14h24.31.669,empathy_intonation_perc_control,2024.2.4,Linux x86_64,59.88023952,66f9a40196d53f05f2232cff,68817205a84113384fffdfe3,689b8671e76bb0771cb3cfc8,,,,,,,,,,,,./stim/wavs/cuban_match_interrogative-total-yn_Maria-bebe-el-vino.wav,1,,,75.5964,80.9819,0,0,4.8642,,0,6,6,9,1,10,1,cuban,,,,,,,,,,,,,,,,,,,,,,,,,,,,,,,,,,,,,,,,,,,,,,,,,,,,,,,,
,,,,,,,,,66f9a40196d53f05f2232cff,,click here to respond,click here to respond,click here to respond,2025-08-12_14h24.31.669,empathy_intonation_perc_control,2024.2.4,Linux x86_64,59.88023952,66f9a40196d53f05f2232cff,68817205a84113384fffdfe3,689b8671e76bb0771cb3cfc8,,,,,,,,,,,,./stim/wavs/mexican_match_interrogative-total-yn_David-leia-el-libro.wav,1,,,80.9966,83.7188,1,1,2.197,,0,7,7,14,1,15,0,mexican,,,,,,,,,,,,,,,,,,,,,,,,,,,,,,,,,,,,,,,,,,,,,,,,,,,,,,,,
,,,,,,,,,66f9a40196d53f05f2232cff,,click here to respond,click here to respond,click here to respond,2025-08-12_14h24.31.669,empathy_intonation_perc_control,2024.2.4,Linux x86_64,59.88023952,66f9a40196d53f05f2232cff,68817205a84113384fffdfe3,689b8671e76bb0771cb3cfc8,,,,,,,,,,,,./stim/wavs/castilian_match_declarative-broad-focus_Marta-abre-el-regalo.wav,0,,,83.72,86.2823,0,1,2.0268,,0,8,8,49,1,50,0,castilian,,,,,,,,,,,,,,,,,,,,,,,,,,,,,,,,,,,,,,,,,,,,,,,,,,,,,,,,
,,,,,,,,,66f9a40196d53f05f2232cff,,click here to respond,click here to respond,click here to respond,2025-08-12_14h24.31.669,empathy_intonation_perc_control,2024.2.4,Linux x86_64,59.88023952,66f9a40196d53f05f2232cff,68817205a84113384fffdfe3,689b8671e76bb0771cb3cfc8,,,,,,,,,,,,./stim/wavs/castilian_mismatch_interrogative-total-yn_Mi-tia-odia-la-lluvia.wav,1,,,86.2834,88.7485,1,1,1.9331,,0,9,9,28,1,29,0,castilian,,,,,,,,,,,,,,,,,,,,,,,,,,,,,,,,,,,,,,,,,,,,,,,,,,,,,,,,
,,,,,,,,,66f9a40196d53f05f2232cff,,click here to respond,click here to respond,click here to respond,2025-08-12_14h24.31.669,empathy_intonation_perc_control,2024.2.4,Linux x86_64,59.88023952,66f9a40196d53f05f2232cff,68817205a84113384fffdfe3,689b8671e76bb0771cb3cfc8,,,,,,,,,,,,./stim/wavs/cuban_match_declarative-broad-focus_Manuela-vende-el-carro.wav,0,,,88.7641,91.5147,0,1,2.2364,,0,10,10,52,1,53,0,cuban,,,,,,,,,,,,,,,,,,,,,,,,,,,,,,,,,,,,,,,,,,,,,,,,,,,,,,,,
,,,,,,,,,66f9a40196d53f05f2232cff,,click here to respond,click here to respond,click here to respond,2025-08-12_14h24.31.669,empathy_intonation_perc_control,2024.2.4,Linux x86_64,59.88023952,66f9a40196d53f05f2232cff,68817205a84113384fffdfe3,689b8671e76bb0771cb3cfc8,,,,,,,,,,,,./stim/wavs/puertorican_mismatch_declarative-broad-focus_El-bebe-comia-muy-bien.wav,0,,,91.5158,94.0988,0,1,2.0467,,0,11,11,83,1,84,0,puertorican,,,,,,,,,,,,,,,,,,,,,,,,,,,,,,,,,,,,,,,,,,,,,,,,,,,,,,,,
,,,,,,,,,66f9a40196d53f05f2232cff,,click here to respond,click here to respond,click here to respond,2025-08-12_14h24.31.669,empathy_intonation_perc_control,2024.2.4,Linux x86_64,59.88023952,66f9a40196d53f05f2232cff,68817205a84113384fffdfe3,689b8671e76bb0771cb3cfc8,,,,,,,,,,,,./stim/wavs/puertorican_match_declarative-broad-focus_Ana-lleva-el-abrigo.wav,0,,,94.1008,96.5474,0,1,1.9176,,0,12,12,62,1,63,0,puertorican,,,,,,,,,,,,,,,,,,,,,,,,,,,,,,,,,,,,,,,,,,,,,,,,,,,,,,,,
,,,,,,,,,66f9a40196d53f05f2232cff,,click here to respond,click here to respond,click here to respond,2025-08-12_14h24.31.669,empathy_intonation_perc_control,2024.2.4,Linux x86_64,59.88023952,66f9a40196d53f05f2232cff,68817205a84113384fffdfe3,689b8671e76bb0771cb3cfc8,,,,,,,,,,,,./stim/wavs/castilian_match_declarative-broad-focus_Manuela-vende-el-carro.wav,0,,,96.5647,99.9314,0,1,2.8308,,0,13,13,46,1,47,0,castilian,,,,,,,,,,,,,,,,,,,,,,,,,,,,,,,,,,,,,,,,,,,,,,,,,,,,,,,,
,,,,,,,,,66f9a40196d53f05f2232cff,,click here to respond,click here to respond,click here to respond,2025-08-12_14h24.31.669,empathy_intonation_perc_control,2024.2.4,Linux x86_64,59.88023952,66f9a40196d53f05f2232cff,68817205a84113384fffdfe3,689b8671e76bb0771cb3cfc8,,,,,,,,,,,,./stim/wavs/mexican_mismatch_interrogative-total-yn_Mi-novio-viene-del-lago.wav,1,,,99.9325,102.3473,1,1,1.8844,,0,14,14,37,1,38,0,mexican,,,,,,,,,,,,,,,,,,,,,,,,,,,,,,,,,,,,,,,,,,,,,,,,,,,,,,,,
,,,,,,,,,66f9a40196d53f05f2232cff,,click here to respond,click here to respond,click here to respond,2025-08-12_14h24.31.669,empathy_intonation_perc_control,2024.2.4,Linux x86_64,59.88023952,66f9a40196d53f05f2232cff,68817205a84113384fffdfe3,689b8671e76bb0771cb3cfc8,,,,,,,,,,,,./stim/wavs/puertorican_mismatch_declarative-broad-focus_El-nino-oye-el-rio.wav,0,,,102.3611,104.9309,0,1,2.0488,,0,15,15,85,1,86,0,puertorican,,,,,,,,,,,,,,,,,,,,,,,,,,,,,,,,,,,,,,,,,,,,,,,,,,,,,,,,
,,,,,,,,,66f9a40196d53f05f2232cff,,click here to respond,click here to respond,click here to respond,2025-08-12_14h24.31.669,empathy_intonation_perc_control,2024.2.4,Linux x86_64,59.88023952,66f9a40196d53f05f2232cff,68817205a84113384fffdfe3,689b8671e76bb0771cb3cfc8,,,,,,,,,,,,./stim/wavs/puertorican_match_interrogative-total-yn_David-leia-el-libro.wav,1,,,104.9321,108.3644,0,0,2.9078,,0,16,16,20,1,21,1,puertorican,,,,,,,,,,,,,,,,,,,,,,,,,,,,,,,,,,,,,,,,,,,,,,,,,,,,,,,,
,,,,,,,,,66f9a40196d53f05f2232cff,,click here to respond,click here to respond,click here to respond,2025-08-12_14h24.31.669,empathy_intonation_perc_control,2024.2.4,Linux x86_64,59.88023952,66f9a40196d53f05f2232cff,68817205a84113384fffdfe3,689b8671e76bb0771cb3cfc8,,,,,,,,,,,,./stim/wavs/cuban_mismatch_interrogative-total-yn_Mi-madre-come-la-fruta.wav,1,,,108.3658,110.9166,0,0,2.0254,,0,17,17,31,1,32,1,cuban,,,,,,,,,,,,,,,,,,,,,,,,,,,,,,,,,,,,,,,,,,,,,,,,,,,,,,,,
,,,,,,,,,66f9a40196d53f05f2232cff,,click here to respond,click here to respond,click here to respond,2025-08-12_14h24.31.669,empathy_intonation_perc_control,2024.2.4,Linux x86_64,59.88023952,66f9a40196d53f05f2232cff,68817205a84113384fffdfe3,689b8671e76bb0771cb3cfc8,,,,,,,,,,,,./stim/wavs/cuban_match_declarative-broad-focus_Mariano-habla-del-tiempo.wav,0,,,110.9314,113.9805,0,1,2.5232,,0,18,18,54,1,55,0,cuban,,,,,,,,,,,,,,,,,,,,,,,,,,,,,,,,,,,,,,,,,,,,,,,,,,,,,,,,
,,,,,,,,,66f9a40196d53f05f2232cff,,click here to respond,click here to respond,click here to respond,2025-08-12_14h24.31.669,empathy_intonation_perc_control,2024.2.4,Linux x86_64,59.88023952,66f9a40196d53f05f2232cff,68817205a84113384fffdfe3,689b8671e76bb0771cb3cfc8,,,,,,,,,,,,./stim/wavs/puertorican_match_interrogative-total-yn_Daniel-iba-a-Bolivia.wav,1,,,113.9815,116.7967,0,0,2.2824,,0,19,19,19,1,20,1,puertorican,,,,,,,,,,,,,,,,,,,,,,,,,,,,,,,,,,,,,,,,,,,,,,,,,,,,,,,,
,,,,,,,,,66f9a40196d53f05f2232cff,,click here to respond,click here to respond,click here to respond,2025-08-12_14h24.31.669,empathy_intonation_perc_control,2024.2.4,Linux x86_64,59.88023952,66f9a40196d53f05f2232cff,68817205a84113384fffdfe3,689b8671e76bb0771cb3cfc8,,,,,,,,,,,,./stim/wavs/cuban_match_declarative-broad-focus_Maria-bebe-el-vino.wav,0,,,116.8121,119.3469,0,1,2.0173,,0,20,20,53,1,54,0,cuban,,,,,,,,,,,,,,,,,,,,,,,,,,,,,,,,,,,,,,,,,,,,,,,,,,,,,,,,
,,,,,,,,,66f9a40196d53f05f2232cff,,click here to respond,click here to respond,click here to respond,2025-08-12_14h24.31.669,empathy_intonation_perc_control,2024.2.4,Linux x86_64,59.88023952,66f9a40196d53f05f2232cff,68817205a84113384fffdfe3,689b8671e76bb0771cb3cfc8,,,,,,,,,,,,./stim/wavs/mexican_mismatch_declarative-broad-focus_Mi-tia-odia-la-lluvia.wav,0,,,119.3486,122.0969,0,1,2.2208,,0,21,21,82,1,83,0,mexican,,,,,,,,,,,,,,,,,,,,,,,,,,,,,,,,,,,,,,,,,,,,,,,,,,,,,,,,
,,,,,,,,,66f9a40196d53f05f2232cff,,click here to respond,click here to respond,click here to respond,2025-08-12_14h24.31.669,empathy_intonation_perc_control,2024.2.4,Linux x86_64,59.88023952,66f9a40196d53f05f2232cff,68817205a84113384fffdfe3,689b8671e76bb0771cb3cfc8,,,,,,,,,,,,./stim/wavs/cuban_mismatch_interrogative-total-yn_El-nino-oye-el-rio.wav,1,,,122.0995,124.5528,0,0,1.9212,,0,22,22,30,1,31,1,cuban,,,,,,,,,,,,,,,,,,,,,,,,,,,,,,,,,,,,,,,,,,,,,,,,,,,,,,,,
,,,,,,,,,66f9a40196d53f05f2232cff,,click here to respond,click here to respond,click here to respond,2025-08-12_14h24.31.669,empathy_intonation_perc_control,2024.2.4,Linux x86_64,59.88023952,66f9a40196d53f05f2232cff,68817205a84113384fffdfe3,689b8671e76bb0771cb3cfc8,,,,,,,,,,,,./stim/wavs/cuban_match_declarative-broad-focus_Ana-lleva-el-abrigo.wav,0,,,124.5675,127.13,0,1,2.0311,,0,23,23,50,1,51,0,cuban,,,,,,,,,,,,,,,,,,,,,,,,,,,,,,,,,,,,,,,,,,,,,,,,,,,,,,,,
,,,,,,,,,66f9a40196d53f05f2232cff,,click here to respond,click here to respond,click here to respond,2025-08-12_14h24.31.669,empathy_intonation_perc_control,2024.2.4,Linux x86_64,59.88023952,66f9a40196d53f05f2232cff,68817205a84113384fffdfe3,689b8671e76bb0771cb3cfc8,,,,,,,,,,,,./stim/wavs/cuban_mismatch_declarative-broad-focus_La-nina-lava-el-plato.wav,0,,,127.1312,130.2131,0,1,2.5669,,0,24,24,75,1,76,0,cuban,,,,,,,,,,,,,,,,,,,,,,,,,,,,,,,,,,,,,,,,,,,,,,,,,,,,,,,,
,,,,,,,,,66f9a40196d53f05f2232cff,,click here to respond,click here to respond,click here to respond,2025-08-12_14h24.31.669,empathy_intonation_perc_control,2024.2.4,Linux x86_64,59.88023952,66f9a40196d53f05f2232cff,68817205a84113384fffdfe3,689b8671e76bb0771cb3cfc8,,,,,,,,,,,,./stim/wavs/castilian_match_interrogative-total-yn_Manuela-vende-el-carro.wav,1,,,130.2143,132.6973,1,1,1.9676,,0,25,25,2,1,3,0,castilian,,,,,,,,,,,,,,,,,,,,,,,,,,,,,,,,,,,,,,,,,,,,,,,,,,,,,,,,
,,,,,,,,,66f9a40196d53f05f2232cff,,click here to respond,click here to respond,click here to respond,2025-08-12_14h24.31.669,empathy_intonation_perc_control,2024.2.4,Linux x86_64,59.88023952,66f9a40196d53f05f2232cff,68817205a84113384fffdfe3,689b8671e76bb0771cb3cfc8,,,,,,,,,,,,./stim/wavs/mexican_match_declarative-broad-focus_Mariano-habla-del-tiempo.wav,0,,,132.7124,136.3966,0,1,3.1683,,0,26,26,60,1,61,0,mexican,,,,,,,,,,,,,,,,,,,,,,,,,,,,,,,,,,,,,,,,,,,,,,,,,,,,,,,,
,,,,,,,,,66f9a40196d53f05f2232cff,,click here to respond,click here to respond,click here to respond,2025-08-12_14h24.31.669,empathy_intonation_perc_control,2024.2.4,Linux x86_64,59.88023952,66f9a40196d53f05f2232cff,68817205a84113384fffdfe3,689b8671e76bb0771cb3cfc8,,,,,,,,,,,,./stim/wavs/castilian_mismatch_declarative-broad-focus_La-nina-lava-el-plato.wav,0,,,136.3981,139.514,1,0,2.5798,,0,27,27,70,1,71,0,castilian,,,,,,,,,,,,,,,,,,,,,,,,,,,,,,,,,,,,,,,,,,,,,,,,,,,,,,,,
,,,,,,,,,66f9a40196d53f05f2232cff,,click here to respond,click here to respond,click here to respond,2025-08-12_14h24.31.669,empathy_intonation_perc_control,2024.2.4,Linux x86_64,59.88023952,66f9a40196d53f05f2232cff,68817205a84113384fffdfe3,689b8671e76bb0771cb3cfc8,,,,,,,,,,,,./stim/wavs/castilian_mismatch_interrogative-total-yn_Mi-novio-viene-del-lago.wav,1,,,139.5288,141.8471,1,1,1.8026,,0,28,28,27,1,28,0,castilian,,,,,,,,,,,,,,,,,,,,,,,,,,,,,,,,,,,,,,,,,,,,,,,,,,,,,,,,
,,,,,,,,,66f9a40196d53f05f2232cff,,click here to respond,click here to respond,click here to respond,2025-08-12_14h24.31.669,empathy_intonation_perc_control,2024.2.4,Linux x86_64,59.88023952,66f9a40196d53f05f2232cff,68817205a84113384fffdfe3,689b8671e76bb0771cb3cfc8,,,,,,,,,,,,./stim/wavs/mexican_match_declarative-broad-focus_David-leia-el-libro.wav,0,,,141.8482,144.3958,0,1,2.0168,,0,29,29,58,1,59,0,mexican,,,,,,,,,,,,,,,,,,,,,,,,,,,,,,,,,,,,,,,,,,,,,,,,,,,,,,,,
,,,,,,,,,66f9a40196d53f05f2232cff,,click here to respond,click here to respond,click here to respond,2025-08-12_14h24.31.669,empathy_intonation_perc_control,2024.2.4,Linux x86_64,59.88023952,66f9a40196d53f05f2232cff,68817205a84113384fffdfe3,689b8671e76bb0771cb3cfc8,,,,,,,,,,,,./stim/wavs/puertorican_match_declarative-broad-focus_Daniel-iba-a-Bolivia.wav,0,,,144.397,147.0304,0,1,2.114,,0,30,30,63,1,64,0,puertorican,,,,,,,,,,,,,,,,,,,,,,,,,,,,,,,,,,,,,,,,,,,,,,,,,,,,,,,,
,,,,,,,,,66f9a40196d53f05f2232cff,,click here to respond,click here to respond,click here to respond,2025-08-12_14h24.31.669,empathy_intonation_perc_control,2024.2.4,Linux x86_64,59.88023952,66f9a40196d53f05f2232cff,68817205a84113384fffdfe3,689b8671e76bb0771cb3cfc8,,,,,,,,,,,,./stim/wavs/castilian_match_interrogative-total-yn_Maria-bebe-el-vino.wav,1,,,147.0448,149.0458,1,1,1.4793,,0,31,31,3,1,4,0,castilian,,,,,,,,,,,,,,,,,,,,,,,,,,,,,,,,,,,,,,,,,,,,,,,,,,,,,,,,
,,,,,,,,,66f9a40196d53f05f2232cff,,click here to respond,click here to respond,click here to respond,2025-08-12_14h24.31.669,empathy_intonation_perc_control,2024.2.4,Linux x86_64,59.88023952,66f9a40196d53f05f2232cff,68817205a84113384fffdfe3,689b8671e76bb0771cb3cfc8,,,,,,,,,,,,./stim/wavs/castilian_mismatch_declarative-broad-focus_La-maestra-vive-en-Paris.wav,0,,,149.0469,152.0287,0,1,2.453,,0,32,32,69,1,70,0,castilian,,,,,,,,,,,,,,,,,,,,,,,,,,,,,,,,,,,,,,,,,,,,,,,,,,,,,,,,
,,,,,,,,,66f9a40196d53f05f2232cff,,click here to respond,click here to respond,click here to respond,2025-08-12_14h24.31.669,empathy_intonation_perc_control,2024.2.4,Linux x86_64,59.88023952,66f9a40196d53f05f2232cff,68817205a84113384fffdfe3,689b8671e76bb0771cb3cfc8,,,,,,,,,,,,./stim/wavs/mexican_mismatch_interrogative-total-yn_La-maestra-vive-en-Paris.wav,1,,,152.0297,154.4473,1,1,1.8965,,0,33,33,36,1,37,0,mexican,,,,,,,,,,,,,,,,,,,,,,,,,,,,,,,,,,,,,,,,,,,,,,,,,,,,,,,,
,,,,,,,,,66f9a40196d53f05f2232cff,,click here to respond,click here to respond,click here to respond,2025-08-12_14h24.31.669,empathy_intonation_perc_control,2024.2.4,Linux x86_64,59.88023952,66f9a40196d53f05f2232cff,68817205a84113384fffdfe3,689b8671e76bb0771cb3cfc8,,,,,,,,,,,,./stim/wavs/mexican_mismatch_declarative-broad-focus_Mi-novio-viene-del-lago.wav,0,,,154.4485,156.9121,0,1,1.9297,,0,34,34,81,1,82,0,mexican,,,,,,,,,,,,,,,,,,,,,,,,,,,,,,,,,,,,,,,,,,,,,,,,,,,,,,,,
,,,,,,,,,66f9a40196d53f05f2232cff,,click here to respond,click here to respond,click here to respond,2025-08-12_14h24.31.669,empathy_intonation_perc_control,2024.2.4,Linux x86_64,59.88023952,66f9a40196d53f05f2232cff,68817205a84113384fffdfe3,689b8671e76bb0771cb3cfc8,,,,,,,,,,,,./stim/wavs/puertorican_mismatch_declarative-broad-focus_La-nina-lava-el-plato.wav,0,,,156.9265,159.3119,0,1,1.8676,,0,35,35,87,1,88,0,puertorican,,,,,,,,,,,,,,,,,,,,,,,,,,,,,,,,,,,,,,,,,,,,,,,,,,,,,,,,
,,,,,,,,,66f9a40196d53f05f2232cff,,click here to respond,click here to respond,click here to respond,2025-08-12_14h24.31.669,empathy_intonation_perc_control,2024.2.4,Linux x86_64,59.88023952,66f9a40196d53f05f2232cff,68817205a84113384fffdfe3,689b8671e76bb0771cb3cfc8,,,,,,,,,,,,./stim/wavs/mexican_match_interrogative-total-yn_Daniel-iba-a-Bolivia.wav,1,,,159.313,161.5295,1,1,1.6855,,0,36,36,13,1,14,0,mexican,,,,,,,,,,,,,,,,,,,,,,,,,,,,,,,,,,,,,,,,,,,,,,,,,,,,,,,,
,,,,,,,,,66f9a40196d53f05f2232cff,,click here to respond,click here to respond,click here to respond,2025-08-12_14h24.31.669,empathy_intonation_perc_control,2024.2.4,Linux x86_64,59.88023952,66f9a40196d53f05f2232cff,68817205a84113384fffdfe3,689b8671e76bb0771cb3cfc8,,,,,,,,,,,,./stim/wavs/cuban_mismatch_declarative-broad-focus_El-hombre-mira-la-luna.wav,0,,,161.5305,163.9965,0,1,1.9396,,0,37,37,74,1,75,0,cuban,,,,,,,,,,,,,,,,,,,,,,,,,,,,,,,,,,,,,,,,,,,,,,,,,,,,,,,,
,,,,,,,,,66f9a40196d53f05f2232cff,,click here to respond,click here to respond,click here to respond,2025-08-12_14h24.31.669,empathy_intonation_perc_control,2024.2.4,Linux x86_64,59.88023952,66f9a40196d53f05f2232cff,68817205a84113384fffdfe3,689b8671e76bb0771cb3cfc8,,,,,,,,,,,,./stim/wavs/mexican_mismatch_interrogative-total-yn_Mi-tia-odia-la-lluvia.wav,1,,,164.0002,165.9611,1,1,1.4354,,0,38,38,38,1,39,0,mexican,,,,,,,,,,,,,,,,,,,,,,,,,,,,,,,,,,,,,,,,,,,,,,,,,,,,,,,,
,,,,,,,,,66f9a40196d53f05f2232cff,,click here to respond,click here to respond,click here to respond,2025-08-12_14h24.31.669,empathy_intonation_perc_control,2024.2.4,Linux x86_64,59.88023952,66f9a40196d53f05f2232cff,68817205a84113384fffdfe3,689b8671e76bb0771cb3cfc8,,,,,,,,,,,,./stim/wavs/puertorican_mismatch_declarative-broad-focus_El-hombre-mira-la-luna.wav,0,,,165.9627,168.9623,0,1,2.4633,,0,39,39,84,1,85,0,puertorican,,,,,,,,,,,,,,,,,,,,,,,,,,,,,,,,,,,,,,,,,,,,,,,,,,,,,,,,
,,,,,,,,,66f9a40196d53f05f2232cff,,click here to respond,click here to respond,click here to respond,2025-08-12_14h24.31.669,empathy_intonation_perc_control,2024.2.4,Linux x86_64,59.88023952,66f9a40196d53f05f2232cff,68817205a84113384fffdfe3,689b8671e76bb0771cb3cfc8,,,,,,,,,,,,./stim/wavs/cuban_mismatch_interrogative-total-yn_Mi-tia-odia-la-lluvia.wav,1,,,168.9786,172.6638,0,0,3.1504,,0,40,40,33,1,34,1,cuban,,,,,,,,,,,,,,,,,,,,,,,,,,,,,,,,,,,,,,,,,,,,,,,,,,,,,,,,
,,,,,,,,,66f9a40196d53f05f2232cff,,click here to respond,click here to respond,click here to respond,2025-08-12_14h24.31.669,empathy_intonation_perc_control,2024.2.4,Linux x86_64,59.88023952,66f9a40196d53f05f2232cff,68817205a84113384fffdfe3,689b8671e76bb0771cb3cfc8,,,,,,,,,,,,./stim/wavs/puertorican_mismatch_declarative-broad-focus_La-maestra-vive-en-Paris.wav,0,,,172.6795,175.0307,0,1,1.8347,,0,41,41,86,1,87,0,puertorican,,,,,,,,,,,,,,,,,,,,,,,,,,,,,,,,,,,,,,,,,,,,,,,,,,,,,,,,
,,,,,,,,,66f9a40196d53f05f2232cff,,click here to respond,click here to respond,click here to respond,2025-08-12_14h24.31.669,empathy_intonation_perc_control,2024.2.4,Linux x86_64,59.88023952,66f9a40196d53f05f2232cff,68817205a84113384fffdfe3,689b8671e76bb0771cb3cfc8,,,,,,,,,,,,./stim/wavs/puertorican_mismatch_interrogative-total-yn_El-nino-oye-el-rio.wav,1,,,175.0318,180.345,1,1,4.7899,,0,42,42,40,1,41,1,puertorican,,,,,,,,,,,,,,,,,,,,,,,,,,,,,,,,,,,,,,,,,,,,,,,,,,,,,,,,
,,,,,,,,,66f9a40196d53f05f2232cff,,click here to respond,click here to respond,click here to respond,2025-08-12_14h24.31.669,empathy_intonation_perc_control,2024.2.4,Linux x86_64,59.88023952,66f9a40196d53f05f2232cff,68817205a84113384fffdfe3,689b8671e76bb0771cb3cfc8,,,,,,,,,,,,./stim/wavs/puertorican_mismatch_interrogative-total-yn_El-hombre-mira-la-luna.wav,1,,,180.3592,182.6951,1,1,1.8153,,0,43,43,39,1,40,1,puertorican,,,,,,,,,,,,,,,,,,,,,,,,,,,,,,,,,,,,,,,,,,,,,,,,,,,,,,,,
,,,,,,,,,66f9a40196d53f05f2232cff,,click here to respond,click here to respond,click here to respond,2025-08-12_14h24.31.669,empathy_intonation_perc_control,2024.2.4,Linux x86_64,59.88023952,66f9a40196d53f05f2232cff,68817205a84113384fffdfe3,689b8671e76bb0771cb3cfc8,,,,,,,,,,,,./stim/wavs/mexican_mismatch_declarative-broad-focus_El-hombre-mira-la-luna.wav,0,,,182.6962,185.1467,0,1,1.9177,,0,44,44,79,1,80,0,mexican,,,,,,,,,,,,,,,,,,,,,,,,,,,,,,,,,,,,,,,,,,,,,,,,,,,,,,,,
,,,,,,,,,66f9a40196d53f05f2232cff,,click here to respond,click here to respond,click here to respond,2025-08-12_14h24.31.669,empathy_intonation_perc_control,2024.2.4,Linux x86_64,59.88023952,66f9a40196d53f05f2232cff,68817205a84113384fffdfe3,689b8671e76bb0771cb3cfc8,,,,,,,,,,,,./stim/wavs/puertorican_match_declarative-broad-focus_David-leia-el-libro.wav,0,,,185.161,187.6942,0,1,1.9949,,0,45,45,64,1,65,0,puertorican,,,,,,,,,,,,,,,,,,,,,,,,,,,,,,,,,,,,,,,,,,,,,,,,,,,,,,,,
,,,,,,,,,66f9a40196d53f05f2232cff,,click here to respond,click here to respond,click here to respond,2025-08-12_14h24.31.669,empathy_intonation_perc_control,2024.2.4,Linux x86_64,59.88023952,66f9a40196d53f05f2232cff,68817205a84113384fffdfe3,689b8671e76bb0771cb3cfc8,,,,,,,,,,,,./stim/wavs/castilian_mismatch_interrogative-total-yn_Mi-madre-come-la-fruta.wav,1,,,187.6953,189.877,1,1,1.654,,0,46,46,26,1,27,0,castilian,,,,,,,,,,,,,,,,,,,,,,,,,,,,,,,,,,,,,,,,,,,,,,,,,,,,,,,,
,,,,,,,,,66f9a40196d53f05f2232cff,,click here to respond,click here to respond,click here to respond,2025-08-12_14h24.31.669,empathy_intonation_perc_control,2024.2.4,Linux x86_64,59.88023952,66f9a40196d53f05f2232cff,68817205a84113384fffdfe3,689b8671e76bb0771cb3cfc8,,,,,,,,,,,,./stim/wavs/mexican_mismatch_interrogative-total-yn_El-hombre-mira-la-luna.wav,1,,,189.878,191.778,1,1,1.3777,,0,47,47,34,1,35,0,mexican,,,,,,,,,,,,,,,,,,,,,,,,,,,,,,,,,,,,,,,,,,,,,,,,,,,,,,,,
,,,,,,,,,66f9a40196d53f05f2232cff,,click here to respond,click here to respond,click here to respond,2025-08-12_14h24.31.669,empathy_intonation_perc_control,2024.2.4,Linux x86_64,59.88023952,66f9a40196d53f05f2232cff,68817205a84113384fffdfe3,689b8671e76bb0771cb3cfc8,,,,,,,,,,,,./stim/wavs/mexican_match_declarative-broad-focus_Ana-lleva-el-abrigo.wav,0,,,191.7792,195.2773,0,1,2.9716,,0,48,48,56,1,57,0,mexican,,,,,,,,,,,,,,,,,,,,,,,,,,,,,,,,,,,,,,,,,,,,,,,,,,,,,,,,
,,,,,,,,,66f9a40196d53f05f2232cff,,click here to respond,click here to respond,click here to respond,2025-08-12_14h24.31.669,empathy_intonation_perc_control,2024.2.4,Linux x86_64,59.88023952,66f9a40196d53f05f2232cff,68817205a84113384fffdfe3,689b8671e76bb0771cb3cfc8,,,,,,,,,,,,./stim/wavs/cuban_match_declarative-broad-focus_Marta-abre-el-regalo.wav,0,,,195.2921,197.727,0,1,1.9151,,0,49,49,55,1,56,0,cuban,,,,,,,,,,,,,,,,,,,,,,,,,,,,,,,,,,,,,,,,,,,,,,,,,,,,,,,,
,,,,,,,,,66f9a40196d53f05f2232cff,,click here to respond,click here to respond,click here to respond,2025-08-12_14h24.31.669,empathy_intonation_perc_control,2024.2.4,Linux x86_64,59.88023952,66f9a40196d53f05f2232cff,68817205a84113384fffdfe3,689b8671e76bb0771cb3cfc8,,,,,,,,,,,,./stim/wavs/mexican_match_declarative-broad-focus_Daniel-iba-a-Bolivia.wav,0,,,197.7282,200.362,0,1,2.107,,0,50,50,57,1,58,0,mexican,,,,,,,,,,,,,,,,,,,,,,,,,,,,,,,,,,,,,,,,,,,,,,,,,,,,,,,,
,,,,,,,,,66f9a40196d53f05f2232cff,,click here to respond,click here to respond,click here to respond,2025-08-12_14h24.31.669,empathy_intonation_perc_control,2024.2.4,Linux x86_64,59.88023952,66f9a40196d53f05f2232cff,68817205a84113384fffdfe3,689b8671e76bb0771cb3cfc8,,,,,,,,,,,,./stim/wavs/cuban_match_interrogative-total-yn_Daniel-iba-a-Bolivia.wav,1,,,200.3631,205.8465,1,1,4.9571,,0,51,51,7,1,8,1,cuban,,,,,,,,,,,,,,,,,,,,,,,,,,,,,,,,,,,,,,,,,,,,,,,,,,,,,,,,
,,,,,,,,,66f9a40196d53f05f2232cff,,click here to respond,click here to respond,click here to respond,2025-08-12_14h24.31.669,empathy_intonation_perc_control,2024.2.4,Linux x86_64,59.88023952,66f9a40196d53f05f2232cff,68817205a84113384fffdfe3,689b8671e76bb0771cb3cfc8,,,,,,,,,,,,./stim/wavs/puertorican_mismatch_interrogative-total-yn_La-nina-lava-el-plato.wav,1,,,205.8615,209.7601,0,0,3.3727,,0,52,52,42,1,43,1,puertorican,,,,,,,,,,,,,,,,,,,,,,,,,,,,,,,,,,,,,,,,,,,,,,,,,,,,,,,,
,,,,,,,,,66f9a40196d53f05f2232cff,,click here to respond,click here to respond,click here to respond,2025-08-12_14h24.31.669,empathy_intonation_perc_control,2024.2.4,Linux x86_64,59.88023952,66f9a40196d53f05f2232cff,68817205a84113384fffdfe3,689b8671e76bb0771cb3cfc8,,,,,,,,,,,,./stim/wavs/puertorican_match_declarative-broad-focus_Maria-bebe-el-vino.wav,0,,,209.774,212.4598,1,0,2.166,,0,53,53,67,1,68,0,puertorican,,,,,,,,,,,,,,,,,,,,,,,,,,,,,,,,,,,,,,,,,,,,,,,,,,,,,,,,
,,,,,,,,,66f9a40196d53f05f2232cff,,click here to respond,click here to respond,click here to respond,2025-08-12_14h24.31.669,empathy_intonation_perc_control,2024.2.4,Linux x86_64,59.88023952,66f9a40196d53f05f2232cff,68817205a84113384fffdfe3,689b8671e76bb0771cb3cfc8,,,,,,,,,,,,./stim/wavs/mexican_match_declarative-broad-focus_Marta-abre-el-regalo.wav,0,,,212.461,214.863,0,1,1.8729,,0,54,54,61,1,62,0,mexican,,,,,,,,,,,,,,,,,,,,,,,,,,,,,,,,,,,,,,,,,,,,,,,,,,,,,,,,
,,,,,,,,,66f9a40196d53f05f2232cff,,click here to respond,click here to respond,click here to respond,2025-08-12_14h24.31.669,empathy_intonation_perc_control,2024.2.4,Linux x86_64,59.88023952,66f9a40196d53f05f2232cff,68817205a84113384fffdfe3,689b8671e76bb0771cb3cfc8,,,,,,,,,,,,./stim/wavs/mexican_match_declarative-broad-focus_Emilio-ama-la-marcha.wav,0,,,214.864,218.0766,0,1,2.6792,,0,55,55,59,1,60,0,mexican,,,,,,,,,,,,,,,,,,,,,,,,,,,,,,,,,,,,,,,,,,,,,,,,,,,,,,,,
,,,,,,,,,66f9a40196d53f05f2232cff,,click here to respond,click here to respond,click here to respond,2025-08-12_14h24.31.669,empathy_intonation_perc_control,2024.2.4,Linux x86_64,59.88023952,66f9a40196d53f05f2232cff,68817205a84113384fffdfe3,689b8671e76bb0771cb3cfc8,,,,,,,,,,,,./stim/wavs/puertorican_match_declarative-broad-focus_Emilio-ama-la-marcha.wav,0,,,218.0929,220.8436,0,1,2.2351,,0,56,56,65,1,66,0,puertorican,,,,,,,,,,,,,,,,,,,,,,,,,,,,,,,,,,,,,,,,,,,,,,,,,,,,,,,,
,,,,,,,,,66f9a40196d53f05f2232cff,,click here to respond,click here to respond,click here to respond,2025-08-12_14h24.31.669,empathy_intonation_perc_control,2024.2.4,Linux x86_64,59.88023952,66f9a40196d53f05f2232cff,68817205a84113384fffdfe3,689b8671e76bb0771cb3cfc8,,,,,,,,,,,,./stim/wavs/cuban_match_interrogative-total-yn_Ana-lleva-el-abrigo.wav,1,,,220.8448,223.0757,1,1,1.7042,,0,57,57,6,1,7,1,cuban,,,,,,,,,,,,,,,,,,,,,,,,,,,,,,,,,,,,,,,,,,,,,,,,,,,,,,,,
,,,,,,,,,66f9a40196d53f05f2232cff,,click here to respond,click here to respond,click here to respond,2025-08-12_14h24.31.669,empathy_intonation_perc_control,2024.2.4,Linux x86_64,59.88023952,66f9a40196d53f05f2232cff,68817205a84113384fffdfe3,689b8671e76bb0771cb3cfc8,,,,,,,,,,,,./stim/wavs/puertorican_match_interrogative-total-yn_Ana-lleva-el-abrigo.wav,1,,,223.0897,225.0801,1,1,1.4762,,0,58,58,18,1,19,1,puertorican,,,,,,,,,,,,,,,,,,,,,,,,,,,,,,,,,,,,,,,,,,,,,,,,,,,,,,,,
,,,,,,,,,66f9a40196d53f05f2232cff,,click here to respond,click here to respond,click here to respond,2025-08-12_14h24.31.669,empathy_intonation_perc_control,2024.2.4,Linux x86_64,59.88023952,66f9a40196d53f05f2232cff,68817205a84113384fffdfe3,689b8671e76bb0771cb3cfc8,,,,,,,,,,,,./stim/wavs/mexican_mismatch_interrogative-total-yn_El-nino-oye-el-rio.wav,1,,,225.0813,227.2432,1,1,1.634,,0,59,59,35,1,36,0,mexican,,,,,,,,,,,,,,,,,,,,,,,,,,,,,,,,,,,,,,,,,,,,,,,,,,,,,,,,
,,,,,,,,,66f9a40196d53f05f2232cff,,click here to respond,click here to respond,click here to respond,2025-08-12_14h24.31.669,empathy_intonation_perc_control,2024.2.4,Linux x86_64,59.88023952,66f9a40196d53f05f2232cff,68817205a84113384fffdfe3,689b8671e76bb0771cb3cfc8,,,,,,,,,,,,./stim/wavs/cuban_match_interrogative-total-yn_Mariano-habla-del-tiempo.wav,1,,,227.2445,231.4752,0,0,3.7033,,0,60,60,10,1,11,1,cuban,,,,,,,,,,,,,,,,,,,,,,,,,,,,,,,,,,,,,,,,,,,,,,,,,,,,,,,,
,,,,,,,,,66f9a40196d53f05f2232cff,,click here to respond,click here to respond,click here to respond,2025-08-12_14h24.31.669,empathy_intonation_perc_control,2024.2.4,Linux x86_64,59.88023952,66f9a40196d53f05f2232cff,68817205a84113384fffdfe3,689b8671e76bb0771cb3cfc8,,,,,,,,,,,,./stim/wavs/puertorican_mismatch_interrogative-total-yn_La-maestra-vive-en-Paris.wav,1,,,231.4897,234.0751,0,0,2.0596,,0,61,61,41,1,42,1,puertorican,,,,,,,,,,,,,,,,,,,,,,,,,,,,,,,,,,,,,,,,,,,,,,,,,,,,,,,,
,,,,,,,,,66f9a40196d53f05f2232cff,,click here to respond,click here to respond,click here to respond,2025-08-12_14h24.31.669,empathy_intonation_perc_control,2024.2.4,Linux x86_64,59.88023952,66f9a40196d53f05f2232cff,68817205a84113384fffdfe3,689b8671e76bb0771cb3cfc8,,,,,,,,,,,,./stim/wavs/puertorican_match_interrogative-total-yn_Manuela-vende-el-carro.wav,1,,,234.0767,236.3752,1,1,1.7654,,0,62,62,22,1,23,1,puertorican,,,,,,,,,,,,,,,,,,,,,,,,,,,,,,,,,,,,,,,,,,,,,,,,,,,,,,,,
,,,,,,,,,66f9a40196d53f05f2232cff,,click here to respond,click here to respond,click here to respond,2025-08-12_14h24.31.669,empathy_intonation_perc_control,2024.2.4,Linux x86_64,59.88023952,66f9a40196d53f05f2232cff,68817205a84113384fffdfe3,689b8671e76bb0771cb3cfc8,,,,,,,,,,,,./stim/wavs/castilian_match_declarative-broad-focus_Mariano-habla-del-tiempo.wav,0,,,236.3763,239.545,0,1,2.6419,,0,63,63,48,1,49,0,castilian,,,,,,,,,,,,,,,,,,,,,,,,,,,,,,,,,,,,,,,,,,,,,,,,,,,,,,,,
,,,,,,,,,66f9a40196d53f05f2232cff,,click here to respond,click here to respond,click here to respond,2025-08-12_14h24.31.669,empathy_intonation_perc_control,2024.2.4,Linux x86_64,59.88023952,66f9a40196d53f05f2232cff,68817205a84113384fffdfe3,689b8671e76bb0771cb3cfc8,,,,,,,,,,,,./stim/wavs/cuban_match_interrogative-total-yn_Manuela-vende-el-carro.wav,1,,,239.5599,242.0078,0,0,1.9159,,0,64,64,8,1,9,1,cuban,,,,,,,,,,,,,,,,,,,,,,,,,,,,,,,,,,,,,,,,,,,,,,,,,,,,,,,,
,,,,,,,,,66f9a40196d53f05f2232cff,,click here to respond,click here to respond,click here to respond,2025-08-12_14h24.31.669,empathy_intonation_perc_control,2024.2.4,Linux x86_64,59.88023952,66f9a40196d53f05f2232cff,68817205a84113384fffdfe3,689b8671e76bb0771cb3cfc8,,,,,,,,,,,,./stim/wavs/cuban_match_declarative-broad-focus_Daniel-iba-a-Bolivia.wav,0,,,242.0088,244.492,0,1,1.9511,,0,65,65,51,1,52,0,cuban,,,,,,,,,,,,,,,,,,,,,,,,,,,,,,,,,,,,,,,,,,,,,,,,,,,,,,,,
,,,,,,,,,66f9a40196d53f05f2232cff,,click here to respond,click here to respond,click here to respond,2025-08-12_14h24.31.669,empathy_intonation_perc_control,2024.2.4,Linux x86_64,59.88023952,66f9a40196d53f05f2232cff,68817205a84113384fffdfe3,689b8671e76bb0771cb3cfc8,,,,,,,,,,,,./stim/wavs/castilian_match_interrogative-total-yn_David-leia-el-libro.wav,1,,,244.493,246.9138,1,1,1.8937,,0,66,66,0,1,1,0,castilian,,,,,,,,,,,,,,,,,,,,,,,,,,,,,,,,,,,,,,,,,,,,,,,,,,,,,,,,
,,,,,,,,,66f9a40196d53f05f2232cff,,click here to respond,click here to respond,click here to respond,2025-08-12_14h24.31.669,empathy_intonation_perc_control,2024.2.4,Linux x86_64,59.88023952,66f9a40196d53f05f2232cff,68817205a84113384fffdfe3,689b8671e76bb0771cb3cfc8,,,,,,,,,,,,./stim/wavs/castilian_match_declarative-broad-focus_David-leia-el-libro.wav,0,,,246.915,251.2076,1,0,3.7709,,0,67,67,44,1,45,0,castilian,,,,,,,,,,,,,,,,,,,,,,,,,,,,,,,,,,,,,,,,,,,,,,,,,,,,,,,,
,,,,,,,,,66f9a40196d53f05f2232cff,,click here to respond,click here to respond,click here to respond,2025-08-12_14h24.31.669,empathy_intonation_perc_control,2024.2.4,Linux x86_64,59.88023952,66f9a40196d53f05f2232cff,68817205a84113384fffdfe3,689b8671e76bb0771cb3cfc8,,,,,,,,,,,,./stim/wavs/mexican_mismatch_declarative-broad-focus_La-maestra-vive-en-Paris.wav,0,,,251.2222,253.7768,0,1,2.0363,,0,68,68,80,1,81,0,mexican,,,,,,,,,,,,,,,,,,,,,,,,,,,,,,,,,,,,,,,,,,,,,,,,,,,,,,,,
,,,,,,,,,66f9a40196d53f05f2232cff,,click here to respond,click here to respond,click here to respond,2025-08-12_14h24.31.669,empathy_intonation_perc_control,2024.2.4,Linux x86_64,59.88023952,66f9a40196d53f05f2232cff,68817205a84113384fffdfe3,689b8671e76bb0771cb3cfc8,,,,,,,,,,,,./stim/wavs/castilian_mismatch_interrogative-total-yn_La-nina-lava-el-plato.wav,1,,,253.7779,255.858,1,1,1.5475,,0,69,69,25,1,26,0,castilian,,,,,,,,,,,,,,,,,,,,,,,,,,,,,,,,,,,,,,,,,,,,,,,,,,,,,,,,
,,,,,,,,,66f9a40196d53f05f2232cff,,click here to respond,click here to respond,click here to respond,2025-08-12_14h24.31.669,empathy_intonation_perc_control,2024.2.4,Linux x86_64,59.88023952,66f9a40196d53f05f2232cff,68817205a84113384fffdfe3,689b8671e76bb0771cb3cfc8,,,,,,,,,,,,./stim/wavs/castilian_mismatch_declarative-broad-focus_Mi-novio-viene-del-lago.wav,0,,,255.8591,258.474,1,0,2.0944,,0,70,70,71,1,72,0,castilian,,,,,,,,,,,,,,,,,,,,,,,,,,,,,,,,,,,,,,,,,,,,,,,,,,,,,,,,
,,,,,,,,,66f9a40196d53f05f2232cff,,click here to respond,click here to respond,click here to respond,2025-08-12_14h24.31.669,empathy_intonation_perc_control,2024.2.4,Linux x86_64,59.88023952,66f9a40196d53f05f2232cff,68817205a84113384fffdfe3,689b8671e76bb0771cb3cfc8,,,,,,,,,,,,./stim/wavs/castilian_match_interrogative-total-yn_Marta-abre-el-regalo.wav,1,,,258.4751,260.6403,1,1,1.6305,,0,71,71,5,1,6,0,castilian,,,,,,,,,,,,,,,,,,,,,,,,,,,,,,,,,,,,,,,,,,,,,,,,,,,,,,,,
,,,,,,,,,66f9a40196d53f05f2232cff,,click here to respond,click here to respond,click here to respond,2025-08-12_14h24.31.669,empathy_intonation_perc_control,2024.2.4,Linux x86_64,59.88023952,66f9a40196d53f05f2232cff,68817205a84113384fffdfe3,689b8671e76bb0771cb3cfc8,,,,,,,,,,,,./stim/wavs/castilian_mismatch_declarative-broad-focus_El-nino-oye-el-rio.wav,0,,,260.6415,264.5242,0,1,3.3481,,0,72,72,68,1,69,0,castilian,,,,,,,,,,,,,,,,,,,,,,,,,,,,,,,,,,,,,,,,,,,,,,,,,,,,,,,,
,,,,,,,,,66f9a40196d53f05f2232cff,,click here to respond,click here to respond,click here to respond,2025-08-12_14h24.31.669,empathy_intonation_perc_control,2024.2.4,Linux x86_64,59.88023952,66f9a40196d53f05f2232cff,68817205a84113384fffdfe3,689b8671e76bb0771cb3cfc8,,,,,,,,,,,,./stim/wavs/castilian_match_declarative-broad-focus_Maria-bebe-el-vino.wav,0,,,264.538,266.9465,0,1,1.8875,,0,73,73,47,1,48,0,castilian,,,,,,,,,,,,,,,,,,,,,,,,,,,,,,,,,,,,,,,,,,,,,,,,,,,,,,,,
,,,,,,,,,66f9a40196d53f05f2232cff,,click here to respond,click here to respond,click here to respond,2025-08-12_14h24.31.669,empathy_intonation_perc_control,2024.2.4,Linux x86_64,59.88023952,66f9a40196d53f05f2232cff,68817205a84113384fffdfe3,689b8671e76bb0771cb3cfc8,,,,,,,,,,,,./stim/wavs/castilian_mismatch_declarative-broad-focus_Mi-tia-odia-la-lluvia.wav,0,,,266.9495,270.0734,0,1,2.604,,0,74,74,72,1,73,0,castilian,,,,,,,,,,,,,,,,,,,,,,,,,,,,,,,,,,,,,,,,,,,,,,,,,,,,,,,,
,,,,,,,,,66f9a40196d53f05f2232cff,,click here to respond,click here to respond,click here to respond,2025-08-12_14h24.31.669,empathy_intonation_perc_control,2024.2.4,Linux x86_64,59.88023952,66f9a40196d53f05f2232cff,68817205a84113384fffdfe3,689b8671e76bb0771cb3cfc8,,,,,,,,,,,,./stim/wavs/cuban_mismatch_declarative-broad-focus_Mi-novio-viene-del-lago.wav,0,,,270.0871,272.6401,0,1,2.0311,,0,75,75,76,1,77,0,cuban,,,,,,,,,,,,,,,,,,,,,,,,,,,,,,,,,,,,,,,,,,,,,,,,,,,,,,,,
,,,,,,,,,66f9a40196d53f05f2232cff,,click here to respond,click here to respond,click here to respond,2025-08-12_14h24.31.669,empathy_intonation_perc_control,2024.2.4,Linux x86_64,59.88023952,66f9a40196d53f05f2232cff,68817205a84113384fffdfe3,689b8671e76bb0771cb3cfc8,,,,,,,,,,,,./stim/wavs/castilian_mismatch_interrogative-total-yn_La-maestra-vive-en-Paris.wav,1,,,272.6413,275.0898,1,1,1.9163,,0,76,76,24,1,25,0,castilian,,,,,,,,,,,,,,,,,,,,,,,,,,,,,,,,,,,,,,,,,,,,,,,,,,,,,,,,
,,,,,,,,,66f9a40196d53f05f2232cff,,click here to respond,click here to respond,click here to respond,2025-08-12_14h24.31.669,empathy_intonation_perc_control,2024.2.4,Linux x86_64,59.88023952,66f9a40196d53f05f2232cff,68817205a84113384fffdfe3,689b8671e76bb0771cb3cfc8,,,,,,,,,,,,./stim/wavs/castilian_match_interrogative-total-yn_Mariano-habla-del-tiempo.wav,1,,,275.1039,277.4559,1,1,1.8364,,0,77,77,4,1,5,0,castilian,,,,,,,,,,,,,,,,,,,,,,,,,,,,,,,,,,,,,,,,,,,,,,,,,,,,,,,,
,,,,,,,,,66f9a40196d53f05f2232cff,,click here to respond,click here to respond,click here to respond,2025-08-12_14h24.31.669,empathy_intonation_perc_control,2024.2.4,Linux x86_64,59.88023952,66f9a40196d53f05f2232cff,68817205a84113384fffdfe3,689b8671e76bb0771cb3cfc8,,,,,,,,,,,,./stim/wavs/castilian_match_declarative-broad-focus_Emilio-ama-la-marcha.wav,0,,,277.4571,280.7561,0,1,2.7652,,0,78,78,45,1,46,0,castilian,,,,,,,,,,,,,,,,,,,,,,,,,,,,,,,,,,,,,,,,,,,,,,,,,,,,,,,,
,,,,,,,,,66f9a40196d53f05f2232cff,,click here to respond,click here to respond,click here to respond,2025-08-12_14h24.31.669,empathy_intonation_perc_control,2024.2.4,Linux x86_64,59.88023952,66f9a40196d53f05f2232cff,68817205a84113384fffdfe3,689b8671e76bb0771cb3cfc8,,,,,,,,,,,,./stim/wavs/cuban_match_interrogative-total-yn_Marta-abre-el-regalo.wav,1,,,280.7575,284.2074,1,1,2.9228,,0,79,79,11,1,12,1,cuban,,,,,,,,,,,,,,,,,,,,,,,,,,,,,,,,,,,,,,,,,,,,,,,,,,,,,,,,
,,,,,,,,,66f9a40196d53f05f2232cff,,click here to respond,click here to respond,click here to respond,2025-08-12_14h24.31.669,empathy_intonation_perc_control,2024.2.4,Linux x86_64,59.88023952,66f9a40196d53f05f2232cff,68817205a84113384fffdfe3,689b8671e76bb0771cb3cfc8,,,,,,,,,,,,./stim/wavs/mexican_match_interrogative-total-yn_Ana-lleva-el-abrigo.wav,1,,,284.2214,286.3565,1,1,1.6162,,0,80,80,12,1,13,0,mexican,,,,,,,,,,,,,,,,,,,,,,,,,,,,,,,,,,,,,,,,,,,,,,,,,,,,,,,,
,,,,,,,,,66f9a40196d53f05f2232cff,,click here to respond,click here to respond,click here to respond,2025-08-12_14h24.31.669,empathy_intonation_perc_control,2024.2.4,Linux x86_64,59.88023952,66f9a40196d53f05f2232cff,68817205a84113384fffdfe3,689b8671e76bb0771cb3cfc8,,,,,,,,,,,,./stim/wavs/cuban_mismatch_declarative-broad-focus_El-bebe-comia-muy-bien.wav,0,,,286.3581,291.9248,0,1,5.0386,,0,81,81,73,1,74,0,cuban,,,,,,,,,,,,,,,,,,,,,,,,,,,,,,,,,,,,,,,,,,,,,,,,,,,,,,,,
,,,,,,,,,66f9a40196d53f05f2232cff,,click here to respond,click here to respond,click here to respond,2025-08-12_14h24.31.669,empathy_intonation_perc_control,2024.2.4,Linux x86_64,59.88023952,66f9a40196d53f05f2232cff,68817205a84113384fffdfe3,689b8671e76bb0771cb3cfc8,,,,,,,,,,,,./stim/wavs/puertorican_match_declarative-broad-focus_Manuela-vende-el-carro.wav,0,,,291.9388,294.3388,0,1,1.8843,,0,82,82,66,1,67,0,puertorican,,,,,,,,,,,,,,,,,,,,,,,,,,,,,,,,,,,,,,,,,,,,,,,,,,,,,,,,
,,,,,,,,,66f9a40196d53f05f2232cff,,click here to respond,click here to respond,click here to respond,2025-08-12_14h24.31.669,empathy_intonation_perc_control,2024.2.4,Linux x86_64,59.88023952,66f9a40196d53f05f2232cff,68817205a84113384fffdfe3,689b8671e76bb0771cb3cfc8,,,,,,,,,,,,./stim/wavs/puertorican_mismatch_interrogative-total-yn_Mi-madre-come-la-fruta.wav,1,,,294.3402,296.7592,0,0,1.8926,,0,83,83,43,1,44,1,puertorican,,,,,,,,,,,,,,,,,,,,,,,,,,,,,,,,,,,,,,,,,,,,,,,,,,,,,,,,
,,,,,,,,,66f9a40196d53f05f2232cff,,click here to respond,click here to respond,click here to respond,2025-08-12_14h24.31.669,empathy_intonation_perc_control,2024.2.4,Linux x86_64,59.88023952,66f9a40196d53f05f2232cff,68817205a84113384fffdfe3,689b8671e76bb0771cb3cfc8,,,,,,,,,,,,./stim/wavs/mexican_match_interrogative-total-yn_Marta-abre-el-regalo.wav,1,,,296.7604,298.7718,1,1,1.4807,,0,84,84,17,1,18,0,mexican,,,,,,,,,,,,,,,,,,,,,,,,,,,,,,,,,,,,,,,,,,,,,,,,,,,,,,,,
,,,,,,,,,66f9a40196d53f05f2232cff,,click here to respond,click here to respond,click here to respond,2025-08-12_14h24.31.669,empathy_intonation_perc_control,2024.2.4,Linux x86_64,59.88023952,66f9a40196d53f05f2232cff,68817205a84113384fffdfe3,689b8671e76bb0771cb3cfc8,,,,,,,,,,,,./stim/wavs/mexican_match_interrogative-total-yn_Mariano-habla-del-tiempo.wav,1,,,298.7731,300.9554,1,1,1.65,,0,85,85,16,1,17,0,mexican,,,,,,,,,,,,,,,,,,,,,,,,,,,,,,,,,,,,,,,,,,,,,,,,,,,,,,,,
,,,,,,,,,66f9a40196d53f05f2232cff,,click here to respond,click here to respond,click here to respond,2025-08-12_14h24.31.669,empathy_intonation_perc_control,2024.2.4,Linux x86_64,59.88023952,66f9a40196d53f05f2232cff,68817205a84113384fffdfe3,689b8671e76bb0771cb3cfc8,,,,,,,,,,,,./stim/wavs/mexican_mismatch_declarative-broad-focus_El-bebe-comia-muy-bien.wav,0,,,300.9568,303.1402,0,1,1.653,,0,86,86,78,1,79,0,mexican,,,,,,,,,,,,,,,,,,,,,,,,,,,,,,,,,,,,,,,,,,,,,,,,,,,,,,,,
,,,,,,,,,66f9a40196d53f05f2232cff,,click here to respond,click here to respond,click here to respond,2025-08-12_14h24.31.669,empathy_intonation_perc_control,2024.2.4,Linux x86_64,59.88023952,66f9a40196d53f05f2232cff,68817205a84113384fffdfe3,689b8671e76bb0771cb3cfc8,,,,,,,,,,,,./stim/wavs/puertorican_match_interrogative-total-yn_Maria-bebe-el-vino.wav,1,,,303.143,305.5421,1,1,1.875,,0,87,87,23,1,24,1,puertorican,,,,,,,,,,,,,,,,,,,,,,,,,,,,,,,,,,,,,,,,,,,,,,,,,,,,,,,,
,,,,,,,"Great! Now we will move on. The next task consists of about 60 trials, in each of which you will see a string of letters. 
  
  Your task is to decide whether this is a real Spanish word or not.", (press the spacebar to continue),66f9a40196d53f05f2232cff,,click here to respond,click here to respond,click here to respond,2025-08-12_14h24.31.669,empathy_intonation_perc_control,2024.2.4,Linux x86_64,59.88023952,66f9a40196d53f05f2232cff,68817205a84113384fffdfe3,689b8671e76bb0771cb3cfc8,,,,,,,,,,,,,,,,,,,,,,,,,,,,,,305.5732,325.0242,0,0,0,0,1,,,,,,,,,,,,,,,,,,,,,,,,,,,,,,,,,,,,,,,,,,,,,,,,,
,,,,,,,"If you think it is an existing Spanish word, you type '1' (for 'REAL'), and if you think it is not an existing Spanish word, you type '0' (for 'FAKE').", (press the spacebar to continue),66f9a40196d53f05f2232cff,,click here to respond,click here to respond,click here to respond,2025-08-12_14h24.31.669,empathy_intonation_perc_control,2024.2.4,Linux x86_64,59.88023952,66f9a40196d53f05f2232cff,68817205a84113384fffdfe3,689b8671e76bb0771cb3cfc8,,,,,,,,,,,,,,,,,,,,,,,,,,,,,,325.0424,333.3083,0,1,1,1,1,,,,,,,,,,,,,,,,,,,,,,,,,,,,,,,,,,,,,,,,,,,,,,,,,
,,,,,,,"If you are sure that the word exists, even though you don’t know its exact meaning, you may still respond '1' (REAL). 
  
  But if you are not sure if it is an existing word, you should respond '0' (FAKE).
  
  Let's do a practice round...", (press the spacebar to continue),66f9a40196d53f05f2232cff,,click here to respond,click here to respond,click here to respond,2025-08-12_14h24.31.669,empathy_intonation_perc_control,2024.2.4,Linux x86_64,59.88023952,66f9a40196d53f05f2232cff,68817205a84113384fffdfe3,689b8671e76bb0771cb3cfc8,,,,,,,,,,,,,,,,,,,,,,,,,,,,,,333.3277,340.839,0,2,2,2,1,,,,,,,,,,,,,,,,,,,,,,,,,,,,,,,,,,,,,,,,,,,,,,,,,
,,,,,,,,,66f9a40196d53f05f2232cff,,click here to respond,click here to respond,click here to respond,2025-08-12_14h24.31.669,empathy_intonation_perc_control,2024.2.4,Linux x86_64,59.88023952,66f9a40196d53f05f2232cff,68817205a84113384fffdfe3,689b8671e76bb0771cb3cfc8,,,,,,,,,,,,,0,,,,,,,,,,,,,,,,,,,,,,,,340.8731,346.5234,0,1,5.1132,,346.5441,347.5208,0,0,0,0,1,0,depiste,REAL,FAKE,,,,,,,,,,,,,,,,,,,,,,,,,,,,,,,,
,,,,,,,,,66f9a40196d53f05f2232cff,,click here to respond,click here to respond,click here to respond,2025-08-12_14h24.31.669,empathy_intonation_perc_control,2024.2.4,Linux x86_64,59.88023952,66f9a40196d53f05f2232cff,68817205a84113384fffdfe3,689b8671e76bb0771cb3cfc8,,,,,,,,,,,,,1,,,,,,,,,,,,,,,,,,,,,,,,347.524,349.5629,1,1,1.5022,,349.563,350.5528,0,1,1,1,1,0,sí,REAL,FAKE,,,,,,,,,,,,,,,,,,,,,,,,,,,,,,,,
,,,,,,,,,66f9a40196d53f05f2232cff,,click here to respond,click here to respond,click here to respond,2025-08-12_14h24.31.669,empathy_intonation_perc_control,2024.2.4,Linux x86_64,59.88023952,66f9a40196d53f05f2232cff,68817205a84113384fffdfe3,689b8671e76bb0771cb3cfc8,,,,,,,,,,,,,0,,,,,,,,,,,,,,,,,,,,,,,,350.5552,352.6002,1,0,1.5167,,352.6029,353.5884,0,2,2,2,1,0,coné,REAL,FAKE,,,,,,,,,,,,,,,,,,,,,,,,,,,,,,,,
,,,,,,,,,66f9a40196d53f05f2232cff,,click here to respond,click here to respond,click here to respond,2025-08-12_14h24.31.669,empathy_intonation_perc_control,2024.2.4,Linux x86_64,59.88023952,66f9a40196d53f05f2232cff,68817205a84113384fffdfe3,689b8671e76bb0771cb3cfc8,,,,,,,,,,,,,0,,,,,,,,,,,,,,,,,,,,,,,,353.6047,355.3879,1,0,1.2607,,355.388,356.3761,0,3,3,3,1,0,calpar,REAL,FAKE,,,,,,,,,,,,,,,,,,,,,,,,,,,,,,,,
,,,,,,,,,66f9a40196d53f05f2232cff,,click here to respond,click here to respond,click here to respond,2025-08-12_14h24.31.669,empathy_intonation_perc_control,2024.2.4,Linux x86_64,59.88023952,66f9a40196d53f05f2232cff,68817205a84113384fffdfe3,689b8671e76bb0771cb3cfc8,,,,,,,,,,,,,0,,,,,,,,,,,,,,,,,,,,,,,,356.3793,358.4567,0,1,1.5375,,358.4584,359.4559,0,4,4,4,1,0,joten,REAL,FAKE,,,,,,,,,,,,,,,,,,,,,,,,,,,,,,,,
,,,,,,,,,66f9a40196d53f05f2232cff,,click here to respond,click here to respond,click here to respond,2025-08-12_14h24.31.669,empathy_intonation_perc_control,2024.2.4,Linux x86_64,59.88023952,66f9a40196d53f05f2232cff,68817205a84113384fffdfe3,689b8671e76bb0771cb3cfc8,,,,,,,,,,,,,1,,,,,,,,,,,,,,,,,,,,,,,,359.4592,363.0191,1,1,3.0259,,363.0192,364.0087,0,5,5,5,1,0,sacapuntas,REAL,FAKE,,,,,,,,,,,,,,,,,,,,,,,,,,,,,,,,
,,,,,,,,,66f9a40196d53f05f2232cff,,click here to respond,click here to respond,click here to respond,2025-08-12_14h24.31.669,empathy_intonation_perc_control,2024.2.4,Linux x86_64,59.88023952,66f9a40196d53f05f2232cff,68817205a84113384fffdfe3,689b8671e76bb0771cb3cfc8,,,,,,,,,,,,,0,,,,,,,,,,,,,,,,,,,,,,,,364.0395,366.6329,0,1,2.0602,,366.633,367.6395,0,6,6,6,1,0,priba,REAL,FAKE,,,,,,,,,,,,,,,,,,,,,,,,,,,,,,,,
,,,,,,,,,66f9a40196d53f05f2232cff,,click here to respond,click here to respond,click here to respond,2025-08-12_14h24.31.669,empathy_intonation_perc_control,2024.2.4,Linux x86_64,59.88023952,66f9a40196d53f05f2232cff,68817205a84113384fffdfe3,689b8671e76bb0771cb3cfc8,,,,,,,,,,,,,0,,,,,,,,,,,,,,,,,,,,,,,,367.6636,370.3693,0,1,2.1778,,370.3695,371.3729,0,7,7,7,1,0,pelasula,REAL,FAKE,,,,,,,,,,,,,,,,,,,,,,,,,,,,,,,,
,,,,,,,,,66f9a40196d53f05f2232cff,,click here to respond,click here to respond,click here to respond,2025-08-12_14h24.31.669,empathy_intonation_perc_control,2024.2.4,Linux x86_64,59.88023952,66f9a40196d53f05f2232cff,68817205a84113384fffdfe3,689b8671e76bb0771cb3cfc8,,,,,,,,,,,,,1,,,,,,,,,,,,,,,,,,,,,,,,371.3755,373.0161,1,1,1.1163,,373.0162,374.0191,0,8,8,8,1,0,bien,REAL,FAKE,,,,,,,,,,,,,,,,,,,,,,,,,,,,,,,,
,,,,,,,,,66f9a40196d53f05f2232cff,,click here to respond,click here to respond,click here to respond,2025-08-12_14h24.31.669,empathy_intonation_perc_control,2024.2.4,Linux x86_64,59.88023952,66f9a40196d53f05f2232cff,68817205a84113384fffdfe3,689b8671e76bb0771cb3cfc8,,,,,,,,,,,,,1,,,,,,,,,,,,,,,,,,,,,,,,374.0337,375.3616,1,1,0.8009,,375.3617,376.3518,0,9,9,9,1,0,casa,REAL,FAKE,,,,,,,,,,,,,,,,,,,,,,,,,,,,,,,,
,,,,,,,,,66f9a40196d53f05f2232cff,,click here to respond,click here to respond,click here to respond,2025-08-12_14h24.31.669,empathy_intonation_perc_control,2024.2.4,Linux x86_64,59.88023952,66f9a40196d53f05f2232cff,68817205a84113384fffdfe3,689b8671e76bb0771cb3cfc8,,,,,,,,,,,,,0,,,,,,,,,,,,,,,,,,,,,,,,376.3544,377.9884,1,0,1.1052,,377.991,378.9859,0,10,10,10,1,0,lejo,REAL,FAKE,,,,,,,,,,,,,,,,,,,,,,,,,,,,,,,,
,,,,,,,,,66f9a40196d53f05f2232cff,,click here to respond,click here to respond,click here to respond,2025-08-12_14h24.31.669,empathy_intonation_perc_control,2024.2.4,Linux x86_64,59.88023952,66f9a40196d53f05f2232cff,68817205a84113384fffdfe3,689b8671e76bb0771cb3cfc8,,,,,,,,,,,,,0,,,,,,,,,,,,,,,,,,,,,,,,378.9892,382.6449,0,1,3.1263,,382.6465,383.6351,0,11,11,11,1,0,pretantas,REAL,FAKE,,,,,,,,,,,,,,,,,,,,,,,,,,,,,,,,
,,,,,,,,,66f9a40196d53f05f2232cff,,click here to respond,click here to respond,click here to respond,2025-08-12_14h24.31.669,empathy_intonation_perc_control,2024.2.4,Linux x86_64,59.88023952,66f9a40196d53f05f2232cff,68817205a84113384fffdfe3,689b8671e76bb0771cb3cfc8,,,,,,,,,,,,,,,,,,,,,,,,,,,,,,,,,,,,,,,,,,,,,,,,,,,,,,383.6369,386.4251,,,,,,,,,,,,,,,,,,,,,,,,,,,,,,
,,,,,,,,,66f9a40196d53f05f2232cff,,click here to respond,click here to respond,click here to respond,2025-08-12_14h24.31.669,empathy_intonation_perc_control,2024.2.4,Linux x86_64,59.88023952,66f9a40196d53f05f2232cff,68817205a84113384fffdfe3,689b8671e76bb0771cb3cfc8,,,,,,,,,,,,,1,,,,,,,,,,,,,,,,,,,,,,,,,,,,,,,,,,,,,86,barato,,,,,386.4824,388.6585,0,0,1.6502,,0,0,0,85,1,REAL,FAKE,,,,,,,,,,,,,,,,,
,,,,,,,,,66f9a40196d53f05f2232cff,,click here to respond,click here to respond,click here to respond,2025-08-12_14h24.31.669,empathy_intonation_perc_control,2024.2.4,Linux x86_64,59.88023952,66f9a40196d53f05f2232cff,68817205a84113384fffdfe3,689b8671e76bb0771cb3cfc8,,,,,,,,,,,,,1,,,,,,,,,,,,,,,,,,,,,,,,,,,,,,,,,,,,,22,lacayo,,,,,388.6619,390.6001,0,0,1.4098,,0,1,1,21,1,REAL,FAKE,,,,,,,,,,,,,,,,,
,,,,,,,,,66f9a40196d53f05f2232cff,,click here to respond,click here to respond,click here to respond,2025-08-12_14h24.31.669,empathy_intonation_perc_control,2024.2.4,Linux x86_64,59.88023952,66f9a40196d53f05f2232cff,68817205a84113384fffdfe3,689b8671e76bb0771cb3cfc8,,,,,,,,,,,,,0,,,,,,,,,,,,,,,,,,,,,,,,,,,,,,,,,,,,,92,click the 0 key.,,,,,390.6069,392.538,0,1,1.415,,0,2,2,91,1,REAL,FAKE,,,,,,,,,,,,,,,,,
,,,,,,,,,66f9a40196d53f05f2232cff,,click here to respond,click here to respond,click here to respond,2025-08-12_14h24.31.669,empathy_intonation_perc_control,2024.2.4,Linux x86_64,59.88023952,66f9a40196d53f05f2232cff,68817205a84113384fffdfe3,689b8671e76bb0771cb3cfc8,,,,,,,,,,,,,1,,,,,,,,,,,,,,,,,,,,,,,,,,,,,,,,,,,,,14,yunque,,,,,392.5428,395.2197,1,1,2.1489,,0,3,3,13,1,REAL,FAKE,,,,,,,,,,,,,,,,,
,,,,,,,,,66f9a40196d53f05f2232cff,,click here to respond,click here to respond,click here to respond,2025-08-12_14h24.31.669,empathy_intonation_perc_control,2024.2.4,Linux x86_64,59.88023952,66f9a40196d53f05f2232cff,68817205a84113384fffdfe3,689b8671e76bb0771cb3cfc8,,,,,,,,,,,,,1,,,,,,,,,,,,,,,,,,,,,,,,,,,,,,,,,,,,,39,torpe,,,,,395.222,398.0352,1,1,2.2737,,0,4,4,38,1,REAL,FAKE,,,,,,,,,,,,,,,,,
,,,,,,,,,66f9a40196d53f05f2232cff,,click here to respond,click here to respond,click here to respond,2025-08-12_14h24.31.669,empathy_intonation_perc_control,2024.2.4,Linux x86_64,59.88023952,66f9a40196d53f05f2232cff,68817205a84113384fffdfe3,689b8671e76bb0771cb3cfc8,,,,,,,,,,,,,1,,,,,,,,,,,,,,,,,,,,,,,,,,,,,,,,,,,,,89,prisa,,,,,398.052,399.8531,1,1,1.2654,,0,5,5,88,1,REAL,FAKE,,,,,,,,,,,,,,,,,
,,,,,,,,,66f9a40196d53f05f2232cff,,click here to respond,click here to respond,click here to respond,2025-08-12_14h24.31.669,empathy_intonation_perc_control,2024.2.4,Linux x86_64,59.88023952,66f9a40196d53f05f2232cff,68817205a84113384fffdfe3,689b8671e76bb0771cb3cfc8,,,,,,,,,,,,,1,,,,,,,,,,,,,,,,,,,,,,,,,,,,,,,,,,,,,62,flaco,,,,,399.857,401.3727,1,1,0.9796,,0,6,6,61,1,REAL,FAKE,,,,,,,,,,,,,,,,,
,,,,,,,,,66f9a40196d53f05f2232cff,,click here to respond,click here to respond,click here to respond,2025-08-12_14h24.31.669,empathy_intonation_perc_control,2024.2.4,Linux x86_64,59.88023952,66f9a40196d53f05f2232cff,68817205a84113384fffdfe3,689b8671e76bb0771cb3cfc8,,,,,,,,,,,,,0,,,,,,,,,,,,,,,,,,,,,,,,,,,,,,,,,,,,,66,hacido,,,,,401.3754,403.2508,1,0,1.3436,,0,7,7,65,1,REAL,FAKE,,,,,,,,,,,,,,,,,
,,,,,,,,,66f9a40196d53f05f2232cff,,click here to respond,click here to respond,click here to respond,2025-08-12_14h24.31.669,empathy_intonation_perc_control,2024.2.4,Linux x86_64,59.88023952,66f9a40196d53f05f2232cff,68817205a84113384fffdfe3,689b8671e76bb0771cb3cfc8,,,,,,,,,,,,,1,,,,,,,,,,,,,,,,,,,,,,,,,,,,,,,,,,,,,61,seda,,,,,403.2548,405.1674,0,0,1.3764,,0,8,8,60,1,REAL,FAKE,,,,,,,,,,,,,,,,,
,,,,,,,,,66f9a40196d53f05f2232cff,,click here to respond,click here to respond,click here to respond,2025-08-12_14h24.31.669,empathy_intonation_perc_control,2024.2.4,Linux x86_64,59.88023952,66f9a40196d53f05f2232cff,68817205a84113384fffdfe3,689b8671e76bb0771cb3cfc8,,,,,,,,,,,,,1,,,,,,,,,,,,,,,,,,,,,,,,,,,,,,,,,,,,,31,pandilla,,,,,405.1703,408.8695,1,1,3.1612,,0,9,9,30,1,REAL,FAKE,,,,,,,,,,,,,,,,,
,,,,,,,,,66f9a40196d53f05f2232cff,,click here to respond,click here to respond,click here to respond,2025-08-12_14h24.31.669,empathy_intonation_perc_control,2024.2.4,Linux x86_64,59.88023952,66f9a40196d53f05f2232cff,68817205a84113384fffdfe3,689b8671e76bb0771cb3cfc8,,,,,,,,,,,,,1,,,,,,,,,,,,,,,,,,,,,,,,,,,,,,,,,,,,,15,regar,,,,,408.8905,410.5899,0,0,1.1692,,0,10,10,14,1,REAL,FAKE,,,,,,,,,,,,,,,,,
,,,,,,,,,66f9a40196d53f05f2232cff,,click here to respond,click here to respond,click here to respond,2025-08-12_14h24.31.669,empathy_intonation_perc_control,2024.2.4,Linux x86_64,59.88023952,66f9a40196d53f05f2232cff,68817205a84113384fffdfe3,689b8671e76bb0771cb3cfc8,,,,,,,,,,,,,0,,,,,,,,,,,,,,,,,,,,,,,,,,,,,,,,,,,,,58,plaudir,,,,,410.593,412.1544,0,1,1.0315,,0,11,11,57,1,REAL,FAKE,,,,,,,,,,,,,,,,,
,,,,,,,,,66f9a40196d53f05f2232cff,,click here to respond,click here to respond,click here to respond,2025-08-12_14h24.31.669,empathy_intonation_perc_control,2024.2.4,Linux x86_64,59.88023952,66f9a40196d53f05f2232cff,68817205a84113384fffdfe3,689b8671e76bb0771cb3cfc8,,,,,,,,,,,,,0,,,,,,,,,,,,,,,,,,,,,,,,,,,,,,,,,,,,,8,cadeña,,,,,412.1566,414.3565,1,0,1.6667,,0,12,12,7,1,REAL,FAKE,,,,,,,,,,,,,,,,,
,,,,,,,,,66f9a40196d53f05f2232cff,,click here to respond,click here to respond,click here to respond,2025-08-12_14h24.31.669,empathy_intonation_perc_control,2024.2.4,Linux x86_64,59.88023952,66f9a40196d53f05f2232cff,68817205a84113384fffdfe3,689b8671e76bb0771cb3cfc8,,,,,,,,,,,,,1,,,,,,,,,,,,,,,,,,,,,,,,,,,,,,,,,,,,,57,tacaño,,,,,414.3588,416.1667,1,1,1.2764,,0,13,13,56,1,REAL,FAKE,,,,,,,,,,,,,,,,,
,,,,,,,,,66f9a40196d53f05f2232cff,,click here to respond,click here to respond,click here to respond,2025-08-12_14h24.31.669,empathy_intonation_perc_control,2024.2.4,Linux x86_64,59.88023952,66f9a40196d53f05f2232cff,68817205a84113384fffdfe3,689b8671e76bb0771cb3cfc8,,,,,,,,,,,,,1,,,,,,,,,,,,,,,,,,,,,,,,,,,,,,,,,,,,,60,matar,,,,,416.1692,417.8723,0,0,1.1692,,0,14,14,59,1,REAL,FAKE,,,,,,,,,,,,,,,,,
,,,,,,,,,66f9a40196d53f05f2232cff,,click here to respond,click here to respond,click here to respond,2025-08-12_14h24.31.669,empathy_intonation_perc_control,2024.2.4,Linux x86_64,59.88023952,66f9a40196d53f05f2232cff,68817205a84113384fffdfe3,689b8671e76bb0771cb3cfc8,,,,,,,,,,,,,1,,,,,,,,,,,,,,,,,,,,,,,,,,,,,,,,,,,,,5,zapato,,,,,417.8749,419.2832,1,1,0.8746,,0,15,15,4,1,REAL,FAKE,,,,,,,,,,,,,,,,,
,,,,,,,,,66f9a40196d53f05f2232cff,,click here to respond,click here to respond,click here to respond,2025-08-12_14h24.31.669,empathy_intonation_perc_control,2024.2.4,Linux x86_64,59.88023952,66f9a40196d53f05f2232cff,68817205a84113384fffdfe3,689b8671e76bb0771cb3cfc8,,,,,,,,,,,,,1,,,,,,,,,,,,,,,,,,,,,,,,,,,,,,,,,,,,,67,cabello,,,,,419.2853,420.741,1,1,0.9199,,0,16,16,66,1,REAL,FAKE,,,,,,,,,,,,,,,,,
,,,,,,,,,66f9a40196d53f05f2232cff,,click here to respond,click here to respond,click here to respond,2025-08-12_14h24.31.669,empathy_intonation_perc_control,2024.2.4,Linux x86_64,59.88023952,66f9a40196d53f05f2232cff,68817205a84113384fffdfe3,689b8671e76bb0771cb3cfc8,,,,,,,,,,,,,1,,,,,,,,,,,,,,,,,,,,,,,,,,,,,,,,,,,,,9,hacha,,,,,420.7433,422.178,1,1,0.9041,,0,17,17,8,1,REAL,FAKE,,,,,,,,,,,,,,,,,
,,,,,,,,,66f9a40196d53f05f2232cff,,click here to respond,click here to respond,click here to respond,2025-08-12_14h24.31.669,empathy_intonation_perc_control,2024.2.4,Linux x86_64,59.88023952,66f9a40196d53f05f2232cff,68817205a84113384fffdfe3,689b8671e76bb0771cb3cfc8,,,,,,,,,,,,,0,,,,,,,,,,,,,,,,,,,,,,,,,,,,,,,,,,,,,72,pemición,,,,,422.181,424.0519,1,0,1.3468,,0,18,18,71,1,REAL,FAKE,,,,,,,,,,,,,,,,,
,,,,,,,,,66f9a40196d53f05f2232cff,,click here to respond,click here to respond,click here to respond,2025-08-12_14h24.31.669,empathy_intonation_perc_control,2024.2.4,Linux x86_64,59.88023952,66f9a40196d53f05f2232cff,68817205a84113384fffdfe3,689b8671e76bb0771cb3cfc8,,,,,,,,,,,,,1,,,,,,,,,,,,,,,,,,,,,,,,,,,,,,,,,,,,,48,ladrón,,,,,424.0549,425.553,0,0,0.9599,,0,19,19,47,1,REAL,FAKE,,,,,,,,,,,,,,,,,
,,,,,,,,,66f9a40196d53f05f2232cff,,click here to respond,click here to respond,click here to respond,2025-08-12_14h24.31.669,empathy_intonation_perc_control,2024.2.4,Linux x86_64,59.88023952,66f9a40196d53f05f2232cff,68817205a84113384fffdfe3,689b8671e76bb0771cb3cfc8,,,,,,,,,,,,,1,,,,,,,,,,,,,,,,,,,,,,,,,,,,,,,,,,,,,6,tergiversar,,,,,425.5569,427.3168,0,0,1.233,,0,20,20,5,1,REAL,FAKE,,,,,,,,,,,,,,,,,
,,,,,,,,,66f9a40196d53f05f2232cff,,click here to respond,click here to respond,click here to respond,2025-08-12_14h24.31.669,empathy_intonation_perc_control,2024.2.4,Linux x86_64,59.88023952,66f9a40196d53f05f2232cff,68817205a84113384fffdfe3,689b8671e76bb0771cb3cfc8,,,,,,,,,,,,,1,,,,,,,,,,,,,,,,,,,,,,,,,,,,,,,,,,,,,52,camisa,,,,,427.3195,429.0159,0,0,1.1587,,0,21,21,51,1,REAL,FAKE,,,,,,,,,,,,,,,,,
,,,,,,,,,66f9a40196d53f05f2232cff,,click here to respond,click here to respond,click here to respond,2025-08-12_14h24.31.669,empathy_intonation_perc_control,2024.2.4,Linux x86_64,59.88023952,66f9a40196d53f05f2232cff,68817205a84113384fffdfe3,689b8671e76bb0771cb3cfc8,,,,,,,,,,,,,0,,,,,,,,,,,,,,,,,,,,,,,,,,,,,,,,,,,,,47,cartinar,,,,,429.0182,430.6696,0,1,1.1164,,0,22,22,46,1,REAL,FAKE,,,,,,,,,,,,,,,,,
,,,,,,,,,66f9a40196d53f05f2232cff,,click here to respond,click here to respond,click here to respond,2025-08-12_14h24.31.669,empathy_intonation_perc_control,2024.2.4,Linux x86_64,59.88023952,66f9a40196d53f05f2232cff,68817205a84113384fffdfe3,689b8671e76bb0771cb3cfc8,,,,,,,,,,,,,0,,,,,,,,,,,,,,,,,,,,,,,,,,,,,,,,,,,,,74,cintro,,,,,430.672,432.1496,1,0,0.9517,,0,23,23,73,1,REAL,FAKE,,,,,,,,,,,,,,,,,
,,,,,,,,,66f9a40196d53f05f2232cff,,click here to respond,click here to respond,click here to respond,2025-08-12_14h24.31.669,empathy_intonation_perc_control,2024.2.4,Linux x86_64,59.88023952,66f9a40196d53f05f2232cff,68817205a84113384fffdfe3,689b8671e76bb0771cb3cfc8,,,,,,,,,,,,,0,,,,,,,,,,,,,,,,,,,,,,,,,,,,,,,,,,,,,70,temblo,,,,,432.1524,433.9845,0,1,1.2975,,0,24,24,69,1,REAL,FAKE,,,,,,,,,,,,,,,,,
,,,,,,,,,66f9a40196d53f05f2232cff,,click here to respond,click here to respond,click here to respond,2025-08-12_14h24.31.669,empathy_intonation_perc_control,2024.2.4,Linux x86_64,59.88023952,66f9a40196d53f05f2232cff,68817205a84113384fffdfe3,689b8671e76bb0771cb3cfc8,,,,,,,,,,,,,0,,,,,,,,,,,,,,,,,,,,,,,,,,,,,,,,,,,,,79,tropaje,,,,,433.9869,436.8826,0,1,2.3718,,0,25,25,78,1,REAL,FAKE,,,,,,,,,,,,,,,,,
,,,,,,,,,66f9a40196d53f05f2232cff,,click here to respond,click here to respond,click here to respond,2025-08-12_14h24.31.669,empathy_intonation_perc_control,2024.2.4,Linux x86_64,59.88023952,66f9a40196d53f05f2232cff,68817205a84113384fffdfe3,689b8671e76bb0771cb3cfc8,,,,,,,,,,,,,1,,,,,,,,,,,,,,,,,,,,,,,,,,,,,,,,,,,,,36,loro,,,,,436.885,438.2495,0,0,0.8262,,0,26,26,35,1,REAL,FAKE,,,,,,,,,,,,,,,,,
,,,,,,,,,66f9a40196d53f05f2232cff,,click here to respond,click here to respond,click here to respond,2025-08-12_14h24.31.669,empathy_intonation_perc_control,2024.2.4,Linux x86_64,59.88023952,66f9a40196d53f05f2232cff,68817205a84113384fffdfe3,689b8671e76bb0771cb3cfc8,,,,,,,,,,,,,1,,,,,,,,,,,,,,,,,,,,,,,,,,,,,,,,,,,,,73,hervidor,,,,,438.2521,439.5785,0,0,0.8033,,0,27,27,72,1,REAL,FAKE,,,,,,,,,,,,,,,,,
,,,,,,,,,66f9a40196d53f05f2232cff,,click here to respond,click here to respond,click here to respond,2025-08-12_14h24.31.669,empathy_intonation_perc_control,2024.2.4,Linux x86_64,59.88023952,66f9a40196d53f05f2232cff,68817205a84113384fffdfe3,689b8671e76bb0771cb3cfc8,,,,,,,,,,,,,1,,,,,,,,,,,,,,,,,,,,,,,,,,,,,,,,,,,,,34,aviso,,,,,439.5823,440.9532,1,1,0.8376,,0,28,28,33,1,REAL,FAKE,,,,,,,,,,,,,,,,,
,,,,,,,,,66f9a40196d53f05f2232cff,,click here to respond,click here to respond,click here to respond,2025-08-12_14h24.31.669,empathy_intonation_perc_control,2024.2.4,Linux x86_64,59.88023952,66f9a40196d53f05f2232cff,68817205a84113384fffdfe3,689b8671e76bb0771cb3cfc8,,,,,,,,,,,,,0,,,,,,,,,,,,,,,,,,,,,,,,,,,,,,,,,,,,,1,terzo,,,,,440.9568,442.9153,1,0,1.4221,,0,29,29,0,1,REAL,FAKE,,,,,,,,,,,,,,,,,
,,,,,,,,,66f9a40196d53f05f2232cff,,click here to respond,click here to respond,click here to respond,2025-08-12_14h24.31.669,empathy_intonation_perc_control,2024.2.4,Linux x86_64,59.88023952,66f9a40196d53f05f2232cff,68817205a84113384fffdfe3,689b8671e76bb0771cb3cfc8,,,,,,,,,,,,,1,,,,,,,,,,,,,,,,,,,,,,,,,,,,,,,,,,,,,55,nevar,,,,,442.9173,444.5821,1,1,1.1249,,0,30,30,54,1,REAL,FAKE,,,,,,,,,,,,,,,,,
,,,,,,,,,66f9a40196d53f05f2232cff,,click here to respond,click here to respond,click here to respond,2025-08-12_14h24.31.669,empathy_intonation_perc_control,2024.2.4,Linux x86_64,59.88023952,66f9a40196d53f05f2232cff,68817205a84113384fffdfe3,689b8671e76bb0771cb3cfc8,,,,,,,,,,,,,1,,,,,,,,,,,,,,,,,,,,,,,,,,,,,,,,,,,,,25,bisagra,,,,,444.5881,445.9154,0,0,0.7903,,0,31,31,24,1,REAL,FAKE,,,,,,,,,,,,,,,,,
,,,,,,,,,66f9a40196d53f05f2232cff,,click here to respond,click here to respond,click here to respond,2025-08-12_14h24.31.669,empathy_intonation_perc_control,2024.2.4,Linux x86_64,59.88023952,66f9a40196d53f05f2232cff,68817205a84113384fffdfe3,689b8671e76bb0771cb3cfc8,,,,,,,,,,,,,1,,,,,,,,,,,,,,,,,,,,,,,,,,,,,,,,,,,,,68,alegre,,,,,445.9183,447.6682,1,1,1.2155,,0,32,32,67,1,REAL,FAKE,,,,,,,,,,,,,,,,,
,,,,,,,,,66f9a40196d53f05f2232cff,,click here to respond,click here to respond,click here to respond,2025-08-12_14h24.31.669,empathy_intonation_perc_control,2024.2.4,Linux x86_64,59.88023952,66f9a40196d53f05f2232cff,68817205a84113384fffdfe3,689b8671e76bb0771cb3cfc8,,,,,,,,,,,,,1,,,,,,,,,,,,,,,,,,,,,,,,,,,,,,,,,,,,,2,pellizcar,,,,,447.6719,449.5152,0,0,1.3133,,0,33,33,1,1,REAL,FAKE,,,,,,,,,,,,,,,,,
,,,,,,,,,66f9a40196d53f05f2232cff,,click here to respond,click here to respond,click here to respond,2025-08-12_14h24.31.669,empathy_intonation_perc_control,2024.2.4,Linux x86_64,59.88023952,66f9a40196d53f05f2232cff,68817205a84113384fffdfe3,689b8671e76bb0771cb3cfc8,,,,,,,,,,,,,1,,,,,,,,,,,,,,,,,,,,,,,,,,,,,,,,,,,,,71,polvoriento,,,,,449.5177,451.0154,0,0,0.9699,,0,34,34,70,1,REAL,FAKE,,,,,,,,,,,,,,,,,
,,,,,,,,,66f9a40196d53f05f2232cff,,click here to respond,click here to respond,click here to respond,2025-08-12_14h24.31.669,empathy_intonation_perc_control,2024.2.4,Linux x86_64,59.88023952,66f9a40196d53f05f2232cff,68817205a84113384fffdfe3,689b8671e76bb0771cb3cfc8,,,,,,,,,,,,,0,,,,,,,,,,,,,,,,,,,,,,,,,,,,,,,,,,,,,53,vegada,,,,,451.0178,452.7147,1,0,1.1638,,0,35,35,52,1,REAL,FAKE,,,,,,,,,,,,,,,,,
,,,,,,,,,66f9a40196d53f05f2232cff,,click here to respond,click here to respond,click here to respond,2025-08-12_14h24.31.669,empathy_intonation_perc_control,2024.2.4,Linux x86_64,59.88023952,66f9a40196d53f05f2232cff,68817205a84113384fffdfe3,689b8671e76bb0771cb3cfc8,,,,,,,,,,,,,1,,,,,,,,,,,,,,,,,,,,,,,,,,,,,,,,,,,,,88,acantilado,,,,,452.7182,454.0839,0,0,0.8319,,0,36,36,87,1,REAL,FAKE,,,,,,,,,,,,,,,,,
,,,,,,,,,66f9a40196d53f05f2232cff,,click here to respond,click here to respond,click here to respond,2025-08-12_14h24.31.669,empathy_intonation_perc_control,2024.2.4,Linux x86_64,59.88023952,66f9a40196d53f05f2232cff,68817205a84113384fffdfe3,689b8671e76bb0771cb3cfc8,,,,,,,,,,,,,0,,,,,,,,,,,,,,,,,,,,,,,,,,,,,,,,,,,,,30,alardio,,,,,454.0881,455.5051,0,1,0.8875,,0,37,37,29,1,REAL,FAKE,,,,,,,,,,,,,,,,,
,,,,,,,,,66f9a40196d53f05f2232cff,,click here to respond,click here to respond,click here to respond,2025-08-12_14h24.31.669,empathy_intonation_perc_control,2024.2.4,Linux x86_64,59.88023952,66f9a40196d53f05f2232cff,68817205a84113384fffdfe3,689b8671e76bb0771cb3cfc8,,,,,,,,,,,,,0,,,,,,,,,,,,,,,,,,,,,,,,,,,,,,,,,,,,,17,floroso,,,,,455.5072,456.8997,0,1,0.8581,,0,38,38,16,1,REAL,FAKE,,,,,,,,,,,,,,,,,
,,,,,,,,,66f9a40196d53f05f2232cff,,click here to respond,click here to respond,click here to respond,2025-08-12_14h24.31.669,empathy_intonation_perc_control,2024.2.4,Linux x86_64,59.88023952,66f9a40196d53f05f2232cff,68817205a84113384fffdfe3,689b8671e76bb0771cb3cfc8,,,,,,,,,,,,,1,,,,,,,,,,,,,,,,,,,,,,,,,,,,,,,,,,,,,77,tiburón,,,,,456.9021,458.1981,0,0,0.7627,,0,39,39,76,1,REAL,FAKE,,,,,,,,,,,,,,,,,
,,,,,,,,,66f9a40196d53f05f2232cff,,click here to respond,click here to respond,click here to respond,2025-08-12_14h24.31.669,empathy_intonation_perc_control,2024.2.4,Linux x86_64,59.88023952,66f9a40196d53f05f2232cff,68817205a84113384fffdfe3,689b8671e76bb0771cb3cfc8,,,,,,,,,,,,,0,,,,,,,,,,,,,,,,,,,,,,,,,,,,,,,,,,,,,50,flamida,,,,,458.2004,459.6493,0,1,0.9166,,0,40,40,49,1,REAL,FAKE,,,,,,,,,,,,,,,,,
,,,,,,,,,66f9a40196d53f05f2232cff,,click here to respond,click here to respond,click here to respond,2025-08-12_14h24.31.669,empathy_intonation_perc_control,2024.2.4,Linux x86_64,59.88023952,66f9a40196d53f05f2232cff,68817205a84113384fffdfe3,689b8671e76bb0771cb3cfc8,,,,,,,,,,,,,0,,,,,,,,,,,,,,,,,,,,,,,,,,,,,,,,,,,,,84,escuto,,,,,459.652,460.9245,1,0,0.7331,,0,41,41,83,1,REAL,FAKE,,,,,,,,,,,,,,,,,
,,,,,,,,,66f9a40196d53f05f2232cff,,click here to respond,click here to respond,click here to respond,2025-08-12_14h24.31.669,empathy_intonation_perc_control,2024.2.4,Linux x86_64,59.88023952,66f9a40196d53f05f2232cff,68817205a84113384fffdfe3,689b8671e76bb0771cb3cfc8,,,,,,,,,,,,,1,,,,,,,,,,,,,,,,,,,,,,,,,,,,,,,,,,,,,76,atar,,,,,460.9269,462.8158,0,0,1.3587,,0,42,42,75,1,REAL,FAKE,,,,,,,,,,,,,,,,,
,,,,,,,,,66f9a40196d53f05f2232cff,,click here to respond,click here to respond,click here to respond,2025-08-12_14h24.31.669,empathy_intonation_perc_control,2024.2.4,Linux x86_64,59.88023952,66f9a40196d53f05f2232cff,68817205a84113384fffdfe3,689b8671e76bb0771cb3cfc8,,,,,,,,,,,,,0,,,,,,,,,,,,,,,,,,,,,,,,,,,,,,,,,,,,,21,capillo,,,,,462.8182,464.2851,1,0,0.9368,,0,43,43,20,1,REAL,FAKE,,,,,,,,,,,,,,,,,
,,,,,,,,,66f9a40196d53f05f2232cff,,click here to respond,click here to respond,click here to respond,2025-08-12_14h24.31.669,empathy_intonation_perc_control,2024.2.4,Linux x86_64,59.88023952,66f9a40196d53f05f2232cff,68817205a84113384fffdfe3,689b8671e76bb0771cb3cfc8,,,,,,,,,,,,,0,,,,,,,,,,,,,,,,,,,,,,,,,,,,,,,,,,,,,23,lampera,,,,,464.2875,465.8923,1,0,1.0731,,0,44,44,22,1,REAL,FAKE,,,,,,,,,,,,,,,,,
,,,,,,,,,66f9a40196d53f05f2232cff,,click here to respond,click here to respond,click here to respond,2025-08-12_14h24.31.669,empathy_intonation_perc_control,2024.2.4,Linux x86_64,59.88023952,66f9a40196d53f05f2232cff,68817205a84113384fffdfe3,689b8671e76bb0771cb3cfc8,,,,,,,,,,,,,1,,,,,,,,,,,,,,,,,,,,,,,,,,,,,,,,,,,,,38,estornudar,,,,,465.896,467.2647,0,0,0.8305,,0,45,45,37,1,REAL,FAKE,,,,,,,,,,,,,,,,,
,,,,,,,,,66f9a40196d53f05f2232cff,,click here to respond,click here to respond,click here to respond,2025-08-12_14h24.31.669,empathy_intonation_perc_control,2024.2.4,Linux x86_64,59.88023952,66f9a40196d53f05f2232cff,68817205a84113384fffdfe3,689b8671e76bb0771cb3cfc8,,,,,,,,,,,,,0,,,,,,,,,,,,,,,,,,,,,,,,,,,,,,,,,,,,,4,batillón,,,,,467.2665,468.7125,1,0,0.9287,,0,46,46,3,1,REAL,FAKE,,,,,,,,,,,,,,,,,
,,,,,,,,,66f9a40196d53f05f2232cff,,click here to respond,click here to respond,click here to respond,2025-08-12_14h24.31.669,empathy_intonation_perc_control,2024.2.4,Linux x86_64,59.88023952,66f9a40196d53f05f2232cff,68817205a84113384fffdfe3,689b8671e76bb0771cb3cfc8,,,,,,,,,,,,,1,,,,,,,,,,,,,,,,,,,,,,,,,,,,,,,,,,,,,7,pésimo,,,,,468.7167,470.1808,1,1,0.9443,,0,47,47,6,1,REAL,FAKE,,,,,,,,,,,,,,,,,
,,,,,,,,,66f9a40196d53f05f2232cff,,click here to respond,click here to respond,click here to respond,2025-08-12_14h24.31.669,empathy_intonation_perc_control,2024.2.4,Linux x86_64,59.88023952,66f9a40196d53f05f2232cff,68817205a84113384fffdfe3,689b8671e76bb0771cb3cfc8,,,,,,,,,,,,,1,,,,,,,,,,,,,,,,,,,,,,,,,,,,,,,,,,,,,80,hormiga,,,,,470.1839,471.5711,0,0,0.8545,,0,48,48,79,1,REAL,FAKE,,,,,,,,,,,,,,,,,
,,,,,,,,,66f9a40196d53f05f2232cff,,click here to respond,click here to respond,click here to respond,2025-08-12_14h24.31.669,empathy_intonation_perc_control,2024.2.4,Linux x86_64,59.88023952,66f9a40196d53f05f2232cff,68817205a84113384fffdfe3,689b8671e76bb0771cb3cfc8,,,,,,,,,,,,,1,,,,,,,,,,,,,,,,,,,,,,,,,,,,,,,,,,,,,75,yacer,,,,,471.5747,473.2552,0,0,1.1458,,0,49,49,74,1,REAL,FAKE,,,,,,,,,,,,,,,,,
,,,,,,,,,66f9a40196d53f05f2232cff,,click here to respond,click here to respond,click here to respond,2025-08-12_14h24.31.669,empathy_intonation_perc_control,2024.2.4,Linux x86_64,59.88023952,66f9a40196d53f05f2232cff,68817205a84113384fffdfe3,689b8671e76bb0771cb3cfc8,,,,,,,,,,,,,1,,,,,,,,,,,,,,,,,,,,,,,,,,,,,,,,,,,,,49,ganar,,,,,473.2577,474.5547,0,0,0.7791,,0,50,50,48,1,REAL,FAKE,,,,,,,,,,,,,,,,,
,,,,,,,,,66f9a40196d53f05f2232cff,,click here to respond,click here to respond,click here to respond,2025-08-12_14h24.31.669,empathy_intonation_perc_control,2024.2.4,Linux x86_64,59.88023952,66f9a40196d53f05f2232cff,68817205a84113384fffdfe3,689b8671e76bb0771cb3cfc8,,,,,,,,,,,,,1,,,,,,,,,,,,,,,,,,,,,,,,,,,,,,,,,,,,,54,fomentar,,,,,474.5573,475.9969,0,0,0.9135,,0,51,51,53,1,REAL,FAKE,,,,,,,,,,,,,,,,,
,,,,,,,,,66f9a40196d53f05f2232cff,,click here to respond,click here to respond,click here to respond,2025-08-12_14h24.31.669,empathy_intonation_perc_control,2024.2.4,Linux x86_64,59.88023952,66f9a40196d53f05f2232cff,68817205a84113384fffdfe3,689b8671e76bb0771cb3cfc8,,,,,,,,,,,,,1,,,,,,,,,,,,,,,,,,,,,,,,,,,,,,,,,,,,,12,asesinato,,,,,475.9996,477.4478,0,0,0.9173,,0,52,52,11,1,REAL,FAKE,,,,,,,,,,,,,,,,,
,,,,,,,,,66f9a40196d53f05f2232cff,,click here to respond,click here to respond,click here to respond,2025-08-12_14h24.31.669,empathy_intonation_perc_control,2024.2.4,Linux x86_64,59.88023952,66f9a40196d53f05f2232cff,68817205a84113384fffdfe3,689b8671e76bb0771cb3cfc8,,,,,,,,,,,,,1,,,,,,,,,,,,,,,,,,,,,,,,,,,,,,,,,,,,,44,cuchara,,,,,477.4503,479.0673,1,1,1.0793,,0,53,53,43,1,REAL,FAKE,,,,,,,,,,,,,,,,,
,,,,,,,,,66f9a40196d53f05f2232cff,,click here to respond,click here to respond,click here to respond,2025-08-12_14h24.31.669,empathy_intonation_perc_control,2024.2.4,Linux x86_64,59.88023952,66f9a40196d53f05f2232cff,68817205a84113384fffdfe3,689b8671e76bb0771cb3cfc8,,,,,,,,,,,,,0,,,,,,,,,,,,,,,,,,,,,,,,,,,,,,,,,,,,,18,arsa,,,,,479.07,480.6841,1,0,1.0744,,0,54,54,17,1,REAL,FAKE,,,,,,,,,,,,,,,,,
,,,,,,,,,66f9a40196d53f05f2232cff,,click here to respond,click here to respond,click here to respond,2025-08-12_14h24.31.669,empathy_intonation_perc_control,2024.2.4,Linux x86_64,59.88023952,66f9a40196d53f05f2232cff,68817205a84113384fffdfe3,689b8671e76bb0771cb3cfc8,,,,,,,,,,,,,1,,,,,,,,,,,,,,,,,,,,,,,,,,,,,,,,,,,,,78,frondoso,,,,,480.6867,481.9969,0,0,0.7743,,0,55,55,77,1,REAL,FAKE,,,,,,,,,,,,,,,,,
,,,,,,,,,66f9a40196d53f05f2232cff,,click here to respond,click here to respond,click here to respond,2025-08-12_14h24.31.669,empathy_intonation_perc_control,2024.2.4,Linux x86_64,59.88023952,66f9a40196d53f05f2232cff,68817205a84113384fffdfe3,689b8671e76bb0771cb3cfc8,,,,,,,,,,,,,1,,,,,,,,,,,,,,,,,,,,,,,,,,,,,,,,,,,,,26,secuestro,,,,,481.999,483.5301,0,0,0.9949,,0,56,56,25,1,REAL,FAKE,,,,,,,,,,,,,,,,,
,,,,,,,,,66f9a40196d53f05f2232cff,,click here to respond,click here to respond,click here to respond,2025-08-12_14h24.31.669,empathy_intonation_perc_control,2024.2.4,Linux x86_64,59.88023952,66f9a40196d53f05f2232cff,68817205a84113384fffdfe3,689b8671e76bb0771cb3cfc8,,,,,,,,,,,,,0,,,,,,,,,,,,,,,,,,,,,,,,,,,,,,,,,,,,,16,abracer,,,,,483.5326,484.9188,0,1,0.8502,,0,57,57,15,1,REAL,FAKE,,,,,,,,,,,,,,,,,
,,,,,,,,,66f9a40196d53f05f2232cff,,click here to respond,click here to respond,click here to respond,2025-08-12_14h24.31.669,empathy_intonation_perc_control,2024.2.4,Linux x86_64,59.88023952,66f9a40196d53f05f2232cff,68817205a84113384fffdfe3,689b8671e76bb0771cb3cfc8,,,,,,,,,,,,,1,,,,,,,,,,,,,,,,,,,,,,,,,,,,,,,,,,,,,45,jilguero,,,,,484.9218,486.2819,0,0,0.8305,,0,58,58,44,1,REAL,FAKE,,,,,,,,,,,,,,,,,
,,,,,,,,,66f9a40196d53f05f2232cff,,click here to respond,click here to respond,click here to respond,2025-08-12_14h24.31.669,empathy_intonation_perc_control,2024.2.4,Linux x86_64,59.88023952,66f9a40196d53f05f2232cff,68817205a84113384fffdfe3,689b8671e76bb0771cb3cfc8,,,,,,,,,,,,,1,,,,,,,,,,,,,,,,,,,,,,,,,,,,,,,,,,,,,41,rebuscar,,,,,486.2847,487.6467,0,0,0.8194,,0,59,59,40,1,REAL,FAKE,,,,,,,,,,,,,,,,,
,,,,,,,,,66f9a40196d53f05f2232cff,,click here to respond,click here to respond,click here to respond,2025-08-12_14h24.31.669,empathy_intonation_perc_control,2024.2.4,Linux x86_64,59.88023952,66f9a40196d53f05f2232cff,68817205a84113384fffdfe3,689b8671e76bb0771cb3cfc8,,,,,,,,,,,,,1,,,,,,,,,,,,,,,,,,,,,,,,,,,,,,,,,,,,,40,alfombra,,,,,487.6487,489.3002,0,0,1.1214,,0,60,60,39,1,REAL,FAKE,,,,,,,,,,,,,,,,,
,,,,,,,,,66f9a40196d53f05f2232cff,,click here to respond,click here to respond,click here to respond,2025-08-12_14h24.31.669,empathy_intonation_perc_control,2024.2.4,Linux x86_64,59.88023952,66f9a40196d53f05f2232cff,68817205a84113384fffdfe3,689b8671e76bb0771cb3cfc8,,,,,,,,,,,,,0,,,,,,,,,,,,,,,,,,,,,,,,,,,,,,,,,,,,,82,empirador,,,,,489.3026,491.0483,0,1,1.2099,,0,61,61,81,1,REAL,FAKE,,,,,,,,,,,,,,,,,
,,,,,,,,,66f9a40196d53f05f2232cff,,click here to respond,click here to respond,click here to respond,2025-08-12_14h24.31.669,empathy_intonation_perc_control,2024.2.4,Linux x86_64,59.88023952,66f9a40196d53f05f2232cff,68817205a84113384fffdfe3,689b8671e76bb0771cb3cfc8,,,,,,,,,,,,,1,,,,,,,,,,,,,,,,,,,,,,,,,,,,,,,,,,,,,51,candado,,,,,491.0513,492.6534,1,1,1.068,,0,62,62,50,1,REAL,FAKE,,,,,,,,,,,,,,,,,
,,,,,,,,,66f9a40196d53f05f2232cff,,click here to respond,click here to respond,click here to respond,2025-08-12_14h24.31.669,empathy_intonation_perc_control,2024.2.4,Linux x86_64,59.88023952,66f9a40196d53f05f2232cff,68817205a84113384fffdfe3,689b8671e76bb0771cb3cfc8,,,,,,,,,,,,,1,,,,,,,,,,,,,,,,,,,,,,,,,,,,,,,,,,,,,43,canela,,,,,492.6563,493.9064,1,1,0.7186,,0,63,63,42,1,REAL,FAKE,,,,,,,,,,,,,,,,,
,,,,,,,,,66f9a40196d53f05f2232cff,,click here to respond,click here to respond,click here to respond,2025-08-12_14h24.31.669,empathy_intonation_perc_control,2024.2.4,Linux x86_64,59.88023952,66f9a40196d53f05f2232cff,68817205a84113384fffdfe3,689b8671e76bb0771cb3cfc8,,,,,,,,,,,,,1,,,,,,,,,,,,,,,,,,,,,,,,,,,,,,,,,,,,,90,clavel,,,,,493.9086,495.2314,0,0,0.7971,,0,64,64,89,1,REAL,FAKE,,,,,,,,,,,,,,,,,
,,,,,,,,,66f9a40196d53f05f2232cff,,click here to respond,click here to respond,click here to respond,2025-08-12_14h24.31.669,empathy_intonation_perc_control,2024.2.4,Linux x86_64,59.88023952,66f9a40196d53f05f2232cff,68817205a84113384fffdfe3,689b8671e76bb0771cb3cfc8,,,,,,,,,,,,,1,,,,,,,,,,,,,,,,,,,,,,,,,,,,,,,,,,,,,65,bizcocho,,,,,495.234,497.1796,0,0,1.4095,,0,65,65,64,1,REAL,FAKE,,,,,,,,,,,,,,,,,
,,,,,,,,,66f9a40196d53f05f2232cff,,click here to respond,click here to respond,click here to respond,2025-08-12_14h24.31.669,empathy_intonation_perc_control,2024.2.4,Linux x86_64,59.88023952,66f9a40196d53f05f2232cff,68817205a84113384fffdfe3,689b8671e76bb0771cb3cfc8,,,,,,,,,,,,,0,,,,,,,,,,,,,,,,,,,,,,,,,,,,,,,,,,,,,10,antar,,,,,497.1822,501.7485,0,1,4.0312,,0,66,66,9,1,REAL,FAKE,,,,,,,,,,,,,,,,,
,,,,,,,,,66f9a40196d53f05f2232cff,,click here to respond,click here to respond,click here to respond,2025-08-12_14h24.31.669,empathy_intonation_perc_control,2024.2.4,Linux x86_64,59.88023952,66f9a40196d53f05f2232cff,68817205a84113384fffdfe3,689b8671e76bb0771cb3cfc8,,,,,,,,,,,,,0,,,,,,,,,,,,,,,,,,,,,,,,,,,,,,,,,,,,,32,fatacidad,,,,,501.7663,503.1378,0,1,0.8446,,0,67,67,31,1,REAL,FAKE,,,,,,,,,,,,,,,,,
,,,,,,,,,66f9a40196d53f05f2232cff,,click here to respond,click here to respond,click here to respond,2025-08-12_14h24.31.669,empathy_intonation_perc_control,2024.2.4,Linux x86_64,59.88023952,66f9a40196d53f05f2232cff,68817205a84113384fffdfe3,689b8671e76bb0771cb3cfc8,,,,,,,,,,,,,1,,,,,,,,,,,,,,,,,,,,,,,,,,,,,,,,,,,,,24,látigo,,,,,503.1404,504.6242,0,0,0.947,,0,68,68,23,1,REAL,FAKE,,,,,,,,,,,,,,,,,
,,,,,,,,,66f9a40196d53f05f2232cff,,click here to respond,click here to respond,click here to respond,2025-08-12_14h24.31.669,empathy_intonation_perc_control,2024.2.4,Linux x86_64,59.88023952,66f9a40196d53f05f2232cff,68817205a84113384fffdfe3,689b8671e76bb0771cb3cfc8,,,,,,,,,,,,,1,,,,,,,,,,,,,,,,,,,,,,,,,,,,,,,,,,,,,85,laúd,,,,,504.6267,505.9795,0,0,0.8247,,0,69,69,84,1,REAL,FAKE,,,,,,,,,,,,,,,,,
,,,,,,,,,66f9a40196d53f05f2232cff,,click here to respond,click here to respond,click here to respond,2025-08-12_14h24.31.669,empathy_intonation_perc_control,2024.2.4,Linux x86_64,59.88023952,66f9a40196d53f05f2232cff,68817205a84113384fffdfe3,689b8671e76bb0771cb3cfc8,,,,,,,,,,,,,0,,,,,,,,,,,,,,,,,,,,,,,,,,,,,,,,,,,,,27,acutación,,,,,505.982,507.3703,0,1,0.8506,,0,70,70,26,1,REAL,FAKE,,,,,,,,,,,,,,,,,
,,,,,,,,,66f9a40196d53f05f2232cff,,click here to respond,click here to respond,click here to respond,2025-08-12_14h24.31.669,empathy_intonation_perc_control,2024.2.4,Linux x86_64,59.88023952,66f9a40196d53f05f2232cff,68817205a84113384fffdfe3,689b8671e76bb0771cb3cfc8,,,,,,,,,,,,,1,,,,,,,,,,,,,,,,,,,,,,,,,,,,,,,,,,,,,64,orgulloso,,,,,507.3723,508.7347,0,0,0.8297,,0,71,71,63,1,REAL,FAKE,,,,,,,,,,,,,,,,,
,,,,,,,,,66f9a40196d53f05f2232cff,,click here to respond,click here to respond,click here to respond,2025-08-12_14h24.31.669,empathy_intonation_perc_control,2024.2.4,Linux x86_64,59.88023952,66f9a40196d53f05f2232cff,68817205a84113384fffdfe3,689b8671e76bb0771cb3cfc8,,,,,,,,,,,,,1,,,,,,,,,,,,,,,,,,,,,,,,,,,,,,,,,,,,,28,merodear,,,,,508.7369,510.1002,0,0,0.8316,,0,72,72,27,1,REAL,FAKE,,,,,,,,,,,,,,,,,
,,,,,,,,,66f9a40196d53f05f2232cff,,click here to respond,click here to respond,click here to respond,2025-08-12_14h24.31.669,empathy_intonation_perc_control,2024.2.4,Linux x86_64,59.88023952,66f9a40196d53f05f2232cff,68817205a84113384fffdfe3,689b8671e76bb0771cb3cfc8,,,,,,,,,,,,,1,,,,,,,,,,,,,,,,,,,,,,,,,,,,,,,,,,,,,37,granuja,,,,,510.1029,511.5623,0,0,0.929,,0,73,73,36,1,REAL,FAKE,,,,,,,,,,,,,,,,,
,,,,,,,,,66f9a40196d53f05f2232cff,,click here to respond,click here to respond,click here to respond,2025-08-12_14h24.31.669,empathy_intonation_perc_control,2024.2.4,Linux x86_64,59.88023952,66f9a40196d53f05f2232cff,68817205a84113384fffdfe3,689b8671e76bb0771cb3cfc8,,,,,,,,,,,,,1,,,,,,,,,,,,,,,,,,,,,,,,,,,,,,,,,,,,,83,guante,,,,,511.5647,513.3143,0,0,1.2146,,0,74,74,82,1,REAL,FAKE,,,,,,,,,,,,,,,,,
,,,,,,,,,66f9a40196d53f05f2232cff,,click here to respond,click here to respond,click here to respond,2025-08-12_14h24.31.669,empathy_intonation_perc_control,2024.2.4,Linux x86_64,59.88023952,66f9a40196d53f05f2232cff,68817205a84113384fffdfe3,689b8671e76bb0771cb3cfc8,,,,,,,,,,,,,1,,,,,,,,,,,,,,,,,,,,,,,,,,,,,,,,,,,,,11,cenefa,,,,,513.3167,514.8622,0,0,1.0115,,0,75,75,10,1,REAL,FAKE,,,,,,,,,,,,,,,,,
,,,,,,,,,66f9a40196d53f05f2232cff,,click here to respond,click here to respond,click here to respond,2025-08-12_14h24.31.669,empathy_intonation_perc_control,2024.2.4,Linux x86_64,59.88023952,66f9a40196d53f05f2232cff,68817205a84113384fffdfe3,689b8671e76bb0771cb3cfc8,,,,,,,,,,,,,1,,,,,,,,,,,,,,,,,,,,,,,,,,,,,,,,,,,,,81,pozo,,,,,514.8644,516.216,1,1,0.8254,,0,76,76,80,1,REAL,FAKE,,,,,,,,,,,,,,,,,
,,,,,,,,,66f9a40196d53f05f2232cff,,click here to respond,click here to respond,click here to respond,2025-08-12_14h24.31.669,empathy_intonation_perc_control,2024.2.4,Linux x86_64,59.88023952,66f9a40196d53f05f2232cff,68817205a84113384fffdfe3,689b8671e76bb0771cb3cfc8,,,,,,,,,,,,,0,,,,,,,,,,,,,,,,,,,,,,,,,,,,,,,,,,,,,19,brecedad,,,,,516.2182,517.4461,0,1,0.6969,,0,77,77,18,1,REAL,FAKE,,,,,,,,,,,,,,,,,
,,,,,,,,,66f9a40196d53f05f2232cff,,click here to respond,click here to respond,click here to respond,2025-08-12_14h24.31.669,empathy_intonation_perc_control,2024.2.4,Linux x86_64,59.88023952,66f9a40196d53f05f2232cff,68817205a84113384fffdfe3,689b8671e76bb0771cb3cfc8,,,,,,,,,,,,,1,,,,,,,,,,,,,,,,,,,,,,,,,,,,,,,,,,,,,46,martillo,,,,,517.4485,518.9798,1,1,0.9961,,0,78,78,45,1,REAL,FAKE,,,,,,,,,,,,,,,,,
,,,,,,,,,66f9a40196d53f05f2232cff,,click here to respond,click here to respond,click here to respond,2025-08-12_14h24.31.669,empathy_intonation_perc_control,2024.2.4,Linux x86_64,59.88023952,66f9a40196d53f05f2232cff,68817205a84113384fffdfe3,689b8671e76bb0771cb3cfc8,,,,,,,,,,,,,1,,,,,,,,,,,,,,,,,,,,,,,,,,,,,,,,,,,,,20,ávido,,,,,518.9826,520.3984,1,1,0.8856,,0,79,79,19,1,REAL,FAKE,,,,,,,,,,,,,,,,,
,,,,,,,,,66f9a40196d53f05f2232cff,,click here to respond,click here to respond,click here to respond,2025-08-12_14h24.31.669,empathy_intonation_perc_control,2024.2.4,Linux x86_64,59.88023952,66f9a40196d53f05f2232cff,68817205a84113384fffdfe3,689b8671e76bb0771cb3cfc8,,,,,,,,,,,,,0,,,,,,,,,,,,,,,,,,,,,,,,,,,,,,,,,,,,,33,pauca,,,,,520.4003,521.7073,0,1,0.7773,,0,80,80,32,1,REAL,FAKE,,,,,,,,,,,,,,,,,
,,,,,,,,,66f9a40196d53f05f2232cff,,click here to respond,click here to respond,click here to respond,2025-08-12_14h24.31.669,empathy_intonation_perc_control,2024.2.4,Linux x86_64,59.88023952,66f9a40196d53f05f2232cff,68817205a84113384fffdfe3,689b8671e76bb0771cb3cfc8,,,,,,,,,,,,,1,,,,,,,,,,,,,,,,,,,,,,,,,,,,,,,,,,,,,56,musgo,,,,,521.7101,523.0462,0,0,0.8158,,0,81,81,55,1,REAL,FAKE,,,,,,,,,,,,,,,,,
,,,,,,,,,66f9a40196d53f05f2232cff,,click here to respond,click here to respond,click here to respond,2025-08-12_14h24.31.669,empathy_intonation_perc_control,2024.2.4,Linux x86_64,59.88023952,66f9a40196d53f05f2232cff,68817205a84113384fffdfe3,689b8671e76bb0771cb3cfc8,,,,,,,,,,,,,1,,,,,,,,,,,,,,,,,,,,,,,,,,,,,,,,,,,,,3,pulmones,,,,,523.0483,524.2204,0,0,0.6463,,0,82,82,2,1,REAL,FAKE,,,,,,,,,,,,,,,,,
,,,,,,,,,66f9a40196d53f05f2232cff,,click here to respond,click here to respond,click here to respond,2025-08-12_14h24.31.669,empathy_intonation_perc_control,2024.2.4,Linux x86_64,59.88023952,66f9a40196d53f05f2232cff,68817205a84113384fffdfe3,689b8671e76bb0771cb3cfc8,,,,,,,,,,,,,1,,,,,,,,,,,,,,,,,,,,,,,,,,,,,,,,,,,,,59,besar,,,,,524.2231,525.8413,0,0,1.0839,,0,83,83,58,1,REAL,FAKE,,,,,,,,,,,,,,,,,
,,,,,,,,,66f9a40196d53f05f2232cff,,click here to respond,click here to respond,click here to respond,2025-08-12_14h24.31.669,empathy_intonation_perc_control,2024.2.4,Linux x86_64,59.88023952,66f9a40196d53f05f2232cff,68817205a84113384fffdfe3,689b8671e76bb0771cb3cfc8,,,,,,,,,,,,,0,,,,,,,,,,,,,,,,,,,,,,,,,,,,,,,,,,,,,35,rompido,,,,,525.8454,527.0802,0,1,0.7007,,0,84,84,34,1,REAL,FAKE,,,,,,,,,,,,,,,,,
,,,,,,,,,66f9a40196d53f05f2232cff,,click here to respond,click here to respond,click here to respond,2025-08-12_14h24.31.669,empathy_intonation_perc_control,2024.2.4,Linux x86_64,59.88023952,66f9a40196d53f05f2232cff,68817205a84113384fffdfe3,689b8671e76bb0771cb3cfc8,,,,,,,,,,,,,0,,,,,,,,,,,,,,,,,,,,,,,,,,,,,,,,,,,,,63,esposante,,,,,527.084,529.8968,1,0,2.2839,,0,85,85,62,1,REAL,FAKE,,,,,,,,,,,,,,,,,
,,,,,,,,,66f9a40196d53f05f2232cff,,click here to respond,click here to respond,click here to respond,2025-08-12_14h24.31.669,empathy_intonation_perc_control,2024.2.4,Linux x86_64,59.88023952,66f9a40196d53f05f2232cff,68817205a84113384fffdfe3,689b8671e76bb0771cb3cfc8,,,,,,,,,,,,,1,,,,,,,,,,,,,,,,,,,,,,,,,,,,,,,,,,,,,13,helar,,,,,529.8993,531.1891,1,1,0.7524,,0,86,86,12,1,REAL,FAKE,,,,,,,,,,,,,,,,,
,,,,,,,,,66f9a40196d53f05f2232cff,,click here to respond,click here to respond,click here to respond,2025-08-12_14h24.31.669,empathy_intonation_perc_control,2024.2.4,Linux x86_64,59.88023952,66f9a40196d53f05f2232cff,68817205a84113384fffdfe3,689b8671e76bb0771cb3cfc8,,,,,,,,,,,,,1,,,,,,,,,,,,,,,,,,,,,,,,,,,,,,,,,,,,,69,engatusar,,,,,531.1918,532.4483,0,0,0.7258,,0,87,87,68,1,REAL,FAKE,,,,,,,,,,,,,,,,,
,,,,,,,,,66f9a40196d53f05f2232cff,,click here to respond,click here to respond,click here to respond,2025-08-12_14h24.31.669,empathy_intonation_perc_control,2024.2.4,Linux x86_64,59.88023952,66f9a40196d53f05f2232cff,68817205a84113384fffdfe3,689b8671e76bb0771cb3cfc8,,,,,,,,,,,,,0,,,,,,,,,,,,,,,,,,,,,,,,,,,,,,,,,,,,,42,cadallo,,,,,532.4511,533.679,1,0,0.6985,,0,88,88,41,1,REAL,FAKE,,,,,,,,,,,,,,,,,
,,,,,,,,,66f9a40196d53f05f2232cff,,click here to respond,click here to respond,click here to respond,2025-08-12_14h24.31.669,empathy_intonation_perc_control,2024.2.4,Linux x86_64,59.88023952,66f9a40196d53f05f2232cff,68817205a84113384fffdfe3,689b8671e76bb0771cb3cfc8,,,,,,,,,,,,,0,,,,,,,,,,,,,,,,,,,,,,,,,,,,,,,,,,,,,87,grodo,,,,,533.6814,535.2198,1,0,1.006,,0,89,89,86,1,REAL,FAKE,,,,,,,,,,,,,,,,,
,,,,,,,,,66f9a40196d53f05f2232cff,,click here to respond,click here to respond,click here to respond,2025-08-12_14h24.31.669,empathy_intonation_perc_control,2024.2.4,Linux x86_64,59.88023952,66f9a40196d53f05f2232cff,68817205a84113384fffdfe3,689b8671e76bb0771cb3cfc8,,,,,,,,,,,,,1,,,,,,,,,,,,,,,,,,,,,,,,,,,,,,,,,,,,,91,click the 1 key.,,,,,535.2236,537.137,1,1,1.3849,,0,90,90,90,1,REAL,FAKE,,,,,,,,,,,,,,,,,
,,,,,,,,,66f9a40196d53f05f2232cff,,click here to respond,click here to respond,click here to respond,2025-08-12_14h24.31.669,empathy_intonation_perc_control,2024.2.4,Linux x86_64,59.88023952,66f9a40196d53f05f2232cff,68817205a84113384fffdfe3,689b8671e76bb0771cb3cfc8,,,,,,,,,,,,,0,,,,,,,,,,,,,,,,,,,,,,,,,,,,,,,,,,,,,29,decar,,,,,537.1395,538.6813,1,0,1.0152,,0,91,91,28,1,REAL,FAKE,,,,,,,,,,,,,,,,,
,,,,,,,,,66f9a40196d53f05f2232cff,,click here to respond,click here to respond,click here to respond,2025-08-12_14h24.31.669,empathy_intonation_perc_control,2024.2.4,Linux x86_64,59.88023952,66f9a40196d53f05f2232cff,68817205a84113384fffdfe3,689b8671e76bb0771cb3cfc8,,,,,,,,,,,,,,,,,,,,,,,,,,,,,,,,,,,,,,,,,,,,,,,,,,,,,,,,,,,,,,,,,,,,,538.683,545.62,,,,,,,,,,,,,,,
,,,,,,,,,66f9a40196d53f05f2232cff,,click here to respond,click here to respond,click here to respond,2025-08-12_14h24.31.669,empathy_intonation_perc_control,2024.2.4,Linux x86_64,59.88023952,66f9a40196d53f05f2232cff,68817205a84113384fffdfe3,689b8671e76bb0771cb3cfc8,,,,,,,,,,,,,,,,,,,,,,,,,,,1,,,,,,,,,,,,,,,,,,,,,,,,,,,,,,,,,,,,,,,,,,,,545.6801,559.662,slightly disagree,0,0,0,0,1,I can easily tell if someone else wants to enter a conversation.,1,0,1,0,,
,,,,,,,,,66f9a40196d53f05f2232cff,,click here to respond,click here to respond,click here to respond,2025-08-12_14h24.31.669,empathy_intonation_perc_control,2024.2.4,Linux x86_64,59.88023952,66f9a40196d53f05f2232cff,68817205a84113384fffdfe3,689b8671e76bb0771cb3cfc8,,,,,,,,,,,,,,,,,,,,,,,,,,,2,,,,,,,,,,,,,,,,,,,,,,,,,,,,,,,,,,,,,,,,,,,,559.6662,563.5676,slightly disagree,0,1,1,1,1,I prefer animals to humans.,0,1,0,0,,
,,,,,,,,,66f9a40196d53f05f2232cff,,click here to respond,click here to respond,click here to respond,2025-08-12_14h24.31.669,empathy_intonation_perc_control,2024.2.4,Linux x86_64,59.88023952,66f9a40196d53f05f2232cff,68817205a84113384fffdfe3,689b8671e76bb0771cb3cfc8,,,,,,,,,,,,,,,,,,,,,,,,,,,3,,,,,,,,,,,,,,,,,,,,,,,,,,,,,,,,,,,,,,,,,,,,563.5725,567.4438,slightly agree,0,2,2,2,1,I try to keep up with the current trends and fashions.,0,1,0,0,,
,,,,,,,,,66f9a40196d53f05f2232cff,,click here to respond,click here to respond,click here to respond,2025-08-12_14h24.31.669,empathy_intonation_perc_control,2024.2.4,Linux x86_64,59.88023952,66f9a40196d53f05f2232cff,68817205a84113384fffdfe3,689b8671e76bb0771cb3cfc8,,,,,,,,,,,,,,,,,,,,,,,,,,,4,,,,,,,,,,,,,,,,,,,,,,,,,,,,,,,,,,,,,,,,,,,,567.4494,574.3425,slightly agree,0,3,3,3,1,"I find it difficult to explain to others things that I understand easily,   when they don't understand it first time.",1,0,0,1,,
,,,,,,,,,66f9a40196d53f05f2232cff,,click here to respond,click here to respond,click here to respond,2025-08-12_14h24.31.669,empathy_intonation_perc_control,2024.2.4,Linux x86_64,59.88023952,66f9a40196d53f05f2232cff,68817205a84113384fffdfe3,689b8671e76bb0771cb3cfc8,,,,,,,,,,,,,,,,,,,,,,,,,,,5,,,,,,,,,,,,,,,,,,,,,,,,,,,,,,,,,,,,,,,,,,,,574.3463,577.3606,slightly agree,0,4,4,4,1,I dream most nights.,0,1,0,0,,
,,,,,,,,,66f9a40196d53f05f2232cff,,click here to respond,click here to respond,click here to respond,2025-08-12_14h24.31.669,empathy_intonation_perc_control,2024.2.4,Linux x86_64,59.88023952,66f9a40196d53f05f2232cff,68817205a84113384fffdfe3,689b8671e76bb0771cb3cfc8,,,,,,,,,,,,,,,,,,,,,,,,,,,6,,,,,,,,,,,,,,,,,,,,,,,,,,,,,,,,,,,,,,,,,,,,577.364,582.4603,slightly disagree,0,5,5,5,1,I really enjoy caring for other people.,1,0,1,0,,
,,,,,,,,,66f9a40196d53f05f2232cff,,click here to respond,click here to respond,click here to respond,2025-08-12_14h24.31.669,empathy_intonation_perc_control,2024.2.4,Linux x86_64,59.88023952,66f9a40196d53f05f2232cff,68817205a84113384fffdfe3,689b8671e76bb0771cb3cfc8,,,,,,,,,,,,,,,,,,,,,,,,,,,7,,,,,,,,,,,,,,,,,,,,,,,,,,,,,,,,,,,,,,,,,,,,582.4658,585.7159,slightly agree,0,6,6,6,1,I try to solve my own problems rather than discussing them with others.,0,1,0,0,,
,,,,,,,,,66f9a40196d53f05f2232cff,,click here to respond,click here to respond,click here to respond,2025-08-12_14h24.31.669,empathy_intonation_perc_control,2024.2.4,Linux x86_64,59.88023952,66f9a40196d53f05f2232cff,68817205a84113384fffdfe3,689b8671e76bb0771cb3cfc8,,,,,,,,,,,,,,,,,,,,,,,,,,,8,,,,,,,,,,,,,,,,,,,,,,,,,,,,,,,,,,,,,,,,,,,,585.7225,590.4584,slightly disagree,0,7,7,7,1,I find it hard to know what to do in a social situation.,1,0,0,1,,
,,,,,,,,,66f9a40196d53f05f2232cff,,click here to respond,click here to respond,click here to respond,2025-08-12_14h24.31.669,empathy_intonation_perc_control,2024.2.4,Linux x86_64,59.88023952,66f9a40196d53f05f2232cff,68817205a84113384fffdfe3,689b8671e76bb0771cb3cfc8,,,,,,,,,,,,,,,,,,,,,,,,,,,9,,,,,,,,,,,,,,,,,,,,,,,,,,,,,,,,,,,,,,,,,,,,590.4625,593.9272,slightly agree,0,8,8,8,1,I am at my best first thing in the morning.,0,1,0,0,,
,,,,,,,,,66f9a40196d53f05f2232cff,,click here to respond,click here to respond,click here to respond,2025-08-12_14h24.31.669,empathy_intonation_perc_control,2024.2.4,Linux x86_64,59.88023952,66f9a40196d53f05f2232cff,68817205a84113384fffdfe3,689b8671e76bb0771cb3cfc8,,,,,,,,,,,,,,,,,,,,,,,,,,,10,,,,,,,,,,,,,,,,,,,,,,,,,,,,,,,,,,,,,,,,,,,,593.9332,600.1579,strongly disagree,0,9,9,9,1,People often tell me that I went too far in driving my point home in a discussion.,1,0,0,1,,
,,,,,,,,,66f9a40196d53f05f2232cff,,click here to respond,click here to respond,click here to respond,2025-08-12_14h24.31.669,empathy_intonation_perc_control,2024.2.4,Linux x86_64,59.88023952,66f9a40196d53f05f2232cff,68817205a84113384fffdfe3,689b8671e76bb0771cb3cfc8,,,,,,,,,,,,,,,,,,,,,,,,,,,11,,,,,,,,,,,,,,,,,,,,,,,,,,,,,,,,,,,,,,,,,,,,600.1621,604.8452,slightly disagree,0,10,10,10,1,It doesn't bother me too much if I am late meeting a friend.,1,0,0,1,,
,,,,,,,,,66f9a40196d53f05f2232cff,,click here to respond,click here to respond,click here to respond,2025-08-12_14h24.31.669,empathy_intonation_perc_control,2024.2.4,Linux x86_64,59.88023952,66f9a40196d53f05f2232cff,68817205a84113384fffdfe3,689b8671e76bb0771cb3cfc8,,,,,,,,,,,,,,,,,,,,,,,,,,,12,,,,,,,,,,,,,,,,,,,,,,,,,,,,,,,,,,,,,,,,,,,,604.8495,610.0953,slightly disagree,0,11,11,11,1,"Friendships and relationships are just too difficult, so I tend not to 
  bother with them.",1,0,0,1,,
,,,,,,,,,66f9a40196d53f05f2232cff,,click here to respond,click here to respond,click here to respond,2025-08-12_14h24.31.669,empathy_intonation_perc_control,2024.2.4,Linux x86_64,59.88023952,66f9a40196d53f05f2232cff,68817205a84113384fffdfe3,689b8671e76bb0771cb3cfc8,,,,,,,,,,,,,,,,,,,,,,,,,,,13,,,,,,,,,,,,,,,,,,,,,,,,,,,,,,,,,,,,,,,,,,,,610.1001,614.1885,slightly agree,0,12,12,12,1,"I would never break a law, no matter how minor.",0,1,0,0,,
,,,,,,,,,66f9a40196d53f05f2232cff,,click here to respond,click here to respond,click here to respond,2025-08-12_14h24.31.669,empathy_intonation_perc_control,2024.2.4,Linux x86_64,59.88023952,66f9a40196d53f05f2232cff,68817205a84113384fffdfe3,689b8671e76bb0771cb3cfc8,,,,,,,,,,,,,,,,,,,,,,,,,,,14,,,,,,,,,,,,,,,,,,,,,,,,,,,,,,,,,,,,,,,,,,,,614.193,620.0002,strongly disagree,0,13,13,13,1,I often find it difficult to judge if something is rude or polite.,1,0,0,1,,
