instructions_2afc.started,instructions_2afc.stopped,instructions_2afc_loop.thisRepN,instructions_2afc_loop.thisTrialN,instructions_2afc_loop.thisN,instructions_2afc_loop.thisIndex,instructions_2afc_loop.ran,instructions_text,continue_text,participant_id,"What variety of Spanish are you most familiar with? (e.g., Peruvian, Spanish, Mexican)",At what age did you begin learning Spanish?,Are you proficient in any languages other than English/Spanish?,"Are you familiar with Caribbean (e.g., Caribbean, Puerto Rican) or Galician Spanish?",date,expName,psychopyVersion,OS,frameRate,id,study_id,session,practice_2afc.started,practice_2afc.stopped,key_resp_2afc_practice.keys,key_resp_2afc_practice.corr,key_resp_2afc_practice.rt,key_resp_2afc_practice.duration,trials_2afc_practice_loop.thisRepN,trials_2afc_practice_loop.thisTrialN,trials_2afc_practice_loop.thisN,trials_2afc_practice_loop.thisIndex,trials_2afc_practice_loop.ran,path,correct_response,check_2afc.started,check_2afc.stopped,trial_2afc.started,trial_2afc.stopped,key_resp_2afc_trial.keys,key_resp_2afc_trial.corr,key_resp_2afc_trial.rt,key_resp_2afc_trial.duration,trials_2afc_loop.thisRepN,trials_2afc_loop.thisTrialN,trials_2afc_loop.thisN,trials_2afc_loop.thisIndex,trials_2afc_loop.ran,item_num,target,variety,instructions_lextale.started,instructions_lextale.stopped,instructions_lextale_loop.thisRepN,instructions_lextale_loop.thisTrialN,instructions_lextale_loop.thisN,instructions_lextale_loop.thisIndex,instructions_lextale_loop.ran,practice_lextale.started,practice_lextale.stopped,key_resp_lextale_practice.keys,key_resp_lextale_practice.corr,key_resp_lextale_practice.rt,key_resp_lextale_practice.duration,practice_feedback_lextale.started,practice_feedback_lextale.stopped,trials_lextale_practice_loop.thisRepN,trials_lextale_practice_loop.thisTrialN,trials_lextale_practice_loop.thisN,trials_lextale_practice_loop.thisIndex,trials_lextale_practice_loop.ran,stim,word,prac_button_real,prac_button_false,check_lextale.started,check_lextale.stopped,trial_lextale.started,trial_lextale.stopped,key_resp_lextale_trial.keys,key_resp_lextale_trial.corr,key_resp_lextale_trial.rt,key_resp_lextale_trial.duration,trials_lextale_loop.thisRepN,trials_lextale_loop.thisTrialN,trials_lextale_loop.thisN,trials_lextale_loop.thisIndex,trials_lextale_loop.ran,button_real,button_false,instructions_eq.started,instructions_eq.stopped,trial_eq.started,trial_eq.stopped,slider_eq_trial.response,trials_eq_loop.thisRepN,trials_eq_loop.thisTrialN,trials_eq_loop.thisN,trials_eq_loop.thisIndex,trials_eq_loop.ran,item,is_test_item,is_distractor,is_agree_score,is_disagree_score,end_exp.started,end_exp.stopped
0.0953,70.5372,0,0,0,0,1,"In the following task you are going to hear a series of utterances. 

  You will decide if the utterances sound like questions or not using your keyboard.", (press the spacebar to continue),6711e09a6906af2fa5b782bd,Mexican ,13 or older,"yes, I am fluent in another language",no,2025-08-10_14h34.18.304,empathy_intonation_perc_control,2024.2.4,Linux x86_64,60.24096386,6711e09a6906af2fa5b782bd,68817205a84113384fffdfe3,6898e5e69f020e1e52772fe5,,,,,,,,,,,,,,,,,,,,,,,,,,,,,,,,,,,,,,,,,,,,,,,,,,,,,,,,,,,,,,,,,,,,,,,,,,,,,,,,,,,,,
70.539,78.6115,0,1,1,1,1,"If you believe the utterance is a question, type '1' (for 'yes') and if you do not 
  believe it is a question type '0' (for 'no').

  Let's practice a bit...", (press the spacebar to continue),6711e09a6906af2fa5b782bd,Mexican ,13 or older,"yes, I am fluent in another language",no,2025-08-10_14h34.18.304,empathy_intonation_perc_control,2024.2.4,Linux x86_64,60.24096386,6711e09a6906af2fa5b782bd,68817205a84113384fffdfe3,6898e5e69f020e1e52772fe5,,,,,,,,,,,,,,,,,,,,,,,,,,,,,,,,,,,,,,,,,,,,,,,,,,,,,,,,,,,,,,,,,,,,,,,,,,,,,,,,,,,,,
,,,,,,,,,6711e09a6906af2fa5b782bd,Mexican ,13 or older,"yes, I am fluent in another language",no,2025-08-10_14h34.18.304,empathy_intonation_perc_control,2024.2.4,Linux x86_64,60.24096386,6711e09a6906af2fa5b782bd,68817205a84113384fffdfe3,6898e5e69f020e1e52772fe5,78.6563,87.3349,0,1,8.153,,0,0,0,7,1,./stim/wavs/puertorican_statement_filler_La-nina-pinta-con-su-amiga.wav,0,,,,,,,,,,,,,,,,,,,,,,,,,,,,,,,,,,,,,,,,,,,,,,,,,,,,,,,,,,,,,,,,,,,,,,,,
,,,,,,,,,6711e09a6906af2fa5b782bd,Mexican ,13 or older,"yes, I am fluent in another language",no,2025-08-10_14h34.18.304,empathy_intonation_perc_control,2024.2.4,Linux x86_64,60.24096386,6711e09a6906af2fa5b782bd,68817205a84113384fffdfe3,6898e5e69f020e1e52772fe5,87.3368,91.8634,0,1,3.9966,,0,1,1,6,1,./stim/wavs/peruvian_statement_filler_El-nino-habla-con-su-madre.wav,0,,,,,,,,,,,,,,,,,,,,,,,,,,,,,,,,,,,,,,,,,,,,,,,,,,,,,,,,,,,,,,,,,,,,,,,,
,,,,,,,,,6711e09a6906af2fa5b782bd,Mexican ,13 or older,"yes, I am fluent in another language",no,2025-08-10_14h34.18.304,empathy_intonation_perc_control,2024.2.4,Linux x86_64,60.24096386,6711e09a6906af2fa5b782bd,68817205a84113384fffdfe3,6898e5e69f020e1e52772fe5,91.8643,108.7803,1,1,16.3838,,0,2,2,3,1,./stim/wavs/mexican_question_filler_Felipe-no-tiene-contrasena.wav,1,,,,,,,,,,,,,,,,,,,,,,,,,,,,,,,,,,,,,,,,,,,,,,,,,,,,,,,,,,,,,,,,,,,,,,,,
,,,,,,,,,6711e09a6906af2fa5b782bd,Mexican ,13 or older,"yes, I am fluent in another language",no,2025-08-10_14h34.18.304,empathy_intonation_perc_control,2024.2.4,Linux x86_64,60.24096386,6711e09a6906af2fa5b782bd,68817205a84113384fffdfe3,6898e5e69f020e1e52772fe5,108.781,115.7899,0,1,6.4782,,0,3,3,5,1,./stim/wavs/andalusian_statement_filler_Alberto-nunca-se-afeita.wav,0,,,,,,,,,,,,,,,,,,,,,,,,,,,,,,,,,,,,,,,,,,,,,,,,,,,,,,,,,,,,,,,,,,,,,,,,
,,,,,,,,,6711e09a6906af2fa5b782bd,Mexican ,13 or older,"yes, I am fluent in another language",no,2025-08-10_14h34.18.304,empathy_intonation_perc_control,2024.2.4,Linux x86_64,60.24096386,6711e09a6906af2fa5b782bd,68817205a84113384fffdfe3,6898e5e69f020e1e52772fe5,115.7908,119.27,1,1,2.9493,,0,4,4,1,1,./stim/wavs/argentine_question_filler_Mi-vecino-habla-mucho.wav,1,,,,,,,,,,,,,,,,,,,,,,,,,,,,,,,,,,,,,,,,,,,,,,,,,,,,,,,,,,,,,,,,,,,,,,,,
,,,,,,,,,6711e09a6906af2fa5b782bd,Mexican ,13 or older,"yes, I am fluent in another language",no,2025-08-10_14h34.18.304,empathy_intonation_perc_control,2024.2.4,Linux x86_64,60.24096386,6711e09a6906af2fa5b782bd,68817205a84113384fffdfe3,6898e5e69f020e1e52772fe5,119.271,127.5451,1,1,7.745,,0,5,5,0,1,./stim/wavs/castilian_question_filler_Mi-esposo-conoce-al-chico.wav,1,,,,,,,,,,,,,,,,,,,,,,,,,,,,,,,,,,,,,,,,,,,,,,,,,,,,,,,,,,,,,,,,,,,,,,,,
,,,,,,,,,6711e09a6906af2fa5b782bd,Mexican ,13 or older,"yes, I am fluent in another language",no,2025-08-10_14h34.18.304,empathy_intonation_perc_control,2024.2.4,Linux x86_64,60.24096386,6711e09a6906af2fa5b782bd,68817205a84113384fffdfe3,6898e5e69f020e1e52772fe5,127.5462,135.2709,0,1,7.1955,,0,6,6,4,1,./stim/wavs/cuban_statement_filler_Cocinabas-por-la-noche.wav,0,,,,,,,,,,,,,,,,,,,,,,,,,,,,,,,,,,,,,,,,,,,,,,,,,,,,,,,,,,,,,,,,,,,,,,,,
,,,,,,,,,6711e09a6906af2fa5b782bd,Mexican ,13 or older,"yes, I am fluent in another language",no,2025-08-10_14h34.18.304,empathy_intonation_perc_control,2024.2.4,Linux x86_64,60.24096386,6711e09a6906af2fa5b782bd,68817205a84113384fffdfe3,6898e5e69f020e1e52772fe5,135.2716,142.9136,0,0,7.1099,,0,7,7,2,1,./stim/wavs/chilean_question_filler_Mi-padre-cantaba-bien.wav,1,,,,,,,,,,,,,,,,,,,,,,,,,,,,,,,,,,,,,,,,,,,,,,,,,,,,,,,,,,,,,,,,,,,,,,,,
,,,,,,,,,6711e09a6906af2fa5b782bd,Mexican ,13 or older,"yes, I am fluent in another language",no,2025-08-10_14h34.18.304,empathy_intonation_perc_control,2024.2.4,Linux x86_64,60.24096386,6711e09a6906af2fa5b782bd,68817205a84113384fffdfe3,6898e5e69f020e1e52772fe5,,,,,,,,,,,,,,142.9141,146.9763,,,,,,,,,,,,,,,,,,,,,,,,,,,,,,,,,,,,,,,,,,,,,,,,,,,,,,,,,,,,,,,,,,,,,,
,,,,,,,,,6711e09a6906af2fa5b782bd,Mexican ,13 or older,"yes, I am fluent in another language",no,2025-08-10_14h34.18.304,empathy_intonation_perc_control,2024.2.4,Linux x86_64,60.24096386,6711e09a6906af2fa5b782bd,68817205a84113384fffdfe3,6898e5e69f020e1e52772fe5,,,,,,,,,,,,./stim/wavs/mexican_mismatch_interrogative-total-yn_Mi-novio-viene-del-lago.wav,1,,,146.9952,156.3173,1,1,8.7902,,0,0,0,37,1,38,0,mexican,,,,,,,,,,,,,,,,,,,,,,,,,,,,,,,,,,,,,,,,,,,,,,,,,,,,,,,,
,,,,,,,,,6711e09a6906af2fa5b782bd,Mexican ,13 or older,"yes, I am fluent in another language",no,2025-08-10_14h34.18.304,empathy_intonation_perc_control,2024.2.4,Linux x86_64,60.24096386,6711e09a6906af2fa5b782bd,68817205a84113384fffdfe3,6898e5e69f020e1e52772fe5,,,,,,,,,,,,./stim/wavs/cuban_mismatch_interrogative-total-yn_El-hombre-mira-la-luna.wav,1,,,156.3182,162.6609,0,0,5.8171,,0,1,1,29,1,30,1,cuban,,,,,,,,,,,,,,,,,,,,,,,,,,,,,,,,,,,,,,,,,,,,,,,,,,,,,,,,
,,,,,,,,,6711e09a6906af2fa5b782bd,Mexican ,13 or older,"yes, I am fluent in another language",no,2025-08-10_14h34.18.304,empathy_intonation_perc_control,2024.2.4,Linux x86_64,60.24096386,6711e09a6906af2fa5b782bd,68817205a84113384fffdfe3,6898e5e69f020e1e52772fe5,,,,,,,,,,,,./stim/wavs/castilian_mismatch_interrogative-total-yn_Mi-tia-odia-la-lluvia.wav,1,,,162.6616,168.9384,1,1,5.7451,,0,2,2,28,1,29,0,castilian,,,,,,,,,,,,,,,,,,,,,,,,,,,,,,,,,,,,,,,,,,,,,,,,,,,,,,,,
,,,,,,,,,6711e09a6906af2fa5b782bd,Mexican ,13 or older,"yes, I am fluent in another language",no,2025-08-10_14h34.18.304,empathy_intonation_perc_control,2024.2.4,Linux x86_64,60.24096386,6711e09a6906af2fa5b782bd,68817205a84113384fffdfe3,6898e5e69f020e1e52772fe5,,,,,,,,,,,,./stim/wavs/mexican_mismatch_interrogative-total-yn_El-nino-oye-el-rio.wav,1,,,168.9391,175.2152,1,1,5.743,,0,3,3,35,1,36,0,mexican,,,,,,,,,,,,,,,,,,,,,,,,,,,,,,,,,,,,,,,,,,,,,,,,,,,,,,,,
,,,,,,,,,6711e09a6906af2fa5b782bd,Mexican ,13 or older,"yes, I am fluent in another language",no,2025-08-10_14h34.18.304,empathy_intonation_perc_control,2024.2.4,Linux x86_64,60.24096386,6711e09a6906af2fa5b782bd,68817205a84113384fffdfe3,6898e5e69f020e1e52772fe5,,,,,,,,,,,,./stim/wavs/cuban_match_interrogative-total-yn_Maria-bebe-el-vino.wav,1,,,175.2164,181.7255,0,0,5.9786,,0,4,4,9,1,10,1,cuban,,,,,,,,,,,,,,,,,,,,,,,,,,,,,,,,,,,,,,,,,,,,,,,,,,,,,,,,
,,,,,,,,,6711e09a6906af2fa5b782bd,Mexican ,13 or older,"yes, I am fluent in another language",no,2025-08-10_14h34.18.304,empathy_intonation_perc_control,2024.2.4,Linux x86_64,60.24096386,6711e09a6906af2fa5b782bd,68817205a84113384fffdfe3,6898e5e69f020e1e52772fe5,,,,,,,,,,,,./stim/wavs/puertorican_mismatch_interrogative-total-yn_La-maestra-vive-en-Paris.wav,1,,,181.7262,187.2207,0,0,4.9641,,0,5,5,41,1,42,1,puertorican,,,,,,,,,,,,,,,,,,,,,,,,,,,,,,,,,,,,,,,,,,,,,,,,,,,,,,,,
,,,,,,,,,6711e09a6906af2fa5b782bd,Mexican ,13 or older,"yes, I am fluent in another language",no,2025-08-10_14h34.18.304,empathy_intonation_perc_control,2024.2.4,Linux x86_64,60.24096386,6711e09a6906af2fa5b782bd,68817205a84113384fffdfe3,6898e5e69f020e1e52772fe5,,,,,,,,,,,,./stim/wavs/mexican_match_interrogative-total-yn_Emilio-ama-la-marcha.wav,1,,,187.2216,193.081,1,1,5.33,,0,6,6,15,1,16,0,mexican,,,,,,,,,,,,,,,,,,,,,,,,,,,,,,,,,,,,,,,,,,,,,,,,,,,,,,,,
,,,,,,,,,6711e09a6906af2fa5b782bd,Mexican ,13 or older,"yes, I am fluent in another language",no,2025-08-10_14h34.18.304,empathy_intonation_perc_control,2024.2.4,Linux x86_64,60.24096386,6711e09a6906af2fa5b782bd,68817205a84113384fffdfe3,6898e5e69f020e1e52772fe5,,,,,,,,,,,,./stim/wavs/puertorican_mismatch_interrogative-total-yn_La-nina-lava-el-plato.wav,1,,,193.0818,196.4609,0,0,2.8495,,0,7,7,42,1,43,1,puertorican,,,,,,,,,,,,,,,,,,,,,,,,,,,,,,,,,,,,,,,,,,,,,,,,,,,,,,,,
,,,,,,,,,6711e09a6906af2fa5b782bd,Mexican ,13 or older,"yes, I am fluent in another language",no,2025-08-10_14h34.18.304,empathy_intonation_perc_control,2024.2.4,Linux x86_64,60.24096386,6711e09a6906af2fa5b782bd,68817205a84113384fffdfe3,6898e5e69f020e1e52772fe5,,,,,,,,,,,,./stim/wavs/puertorican_match_interrogative-total-yn_Ana-lleva-el-abrigo.wav,1,,,196.4615,202.2221,0,0,5.2318,,0,8,8,18,1,19,1,puertorican,,,,,,,,,,,,,,,,,,,,,,,,,,,,,,,,,,,,,,,,,,,,,,,,,,,,,,,,
,,,,,,,,,6711e09a6906af2fa5b782bd,Mexican ,13 or older,"yes, I am fluent in another language",no,2025-08-10_14h34.18.304,empathy_intonation_perc_control,2024.2.4,Linux x86_64,60.24096386,6711e09a6906af2fa5b782bd,68817205a84113384fffdfe3,6898e5e69f020e1e52772fe5,,,,,,,,,,,,./stim/wavs/puertorican_mismatch_declarative-broad-focus_El-bebe-comia-muy-bien.wav,0,,,202.2229,207.7334,0,1,4.9785,,0,9,9,83,1,84,0,puertorican,,,,,,,,,,,,,,,,,,,,,,,,,,,,,,,,,,,,,,,,,,,,,,,,,,,,,,,,
,,,,,,,,,6711e09a6906af2fa5b782bd,Mexican ,13 or older,"yes, I am fluent in another language",no,2025-08-10_14h34.18.304,empathy_intonation_perc_control,2024.2.4,Linux x86_64,60.24096386,6711e09a6906af2fa5b782bd,68817205a84113384fffdfe3,6898e5e69f020e1e52772fe5,,,,,,,,,,,,./stim/wavs/puertorican_match_declarative-broad-focus_Manuela-vende-el-carro.wav,0,,,207.7341,212.9782,0,1,4.7125,,0,10,10,66,1,67,0,puertorican,,,,,,,,,,,,,,,,,,,,,,,,,,,,,,,,,,,,,,,,,,,,,,,,,,,,,,,,
,,,,,,,,,6711e09a6906af2fa5b782bd,Mexican ,13 or older,"yes, I am fluent in another language",no,2025-08-10_14h34.18.304,empathy_intonation_perc_control,2024.2.4,Linux x86_64,60.24096386,6711e09a6906af2fa5b782bd,68817205a84113384fffdfe3,6898e5e69f020e1e52772fe5,,,,,,,,,,,,./stim/wavs/castilian_mismatch_declarative-broad-focus_La-maestra-vive-en-Paris.wav,0,,,212.9788,216.6587,0,1,3.1467,,0,11,11,69,1,70,0,castilian,,,,,,,,,,,,,,,,,,,,,,,,,,,,,,,,,,,,,,,,,,,,,,,,,,,,,,,,
,,,,,,,,,6711e09a6906af2fa5b782bd,Mexican ,13 or older,"yes, I am fluent in another language",no,2025-08-10_14h34.18.304,empathy_intonation_perc_control,2024.2.4,Linux x86_64,60.24096386,6711e09a6906af2fa5b782bd,68817205a84113384fffdfe3,6898e5e69f020e1e52772fe5,,,,,,,,,,,,./stim/wavs/puertorican_match_interrogative-total-yn_Emilio-ama-la-marcha.wav,1,,,216.6594,220.271,0,0,3.0847,,0,12,12,21,1,22,1,puertorican,,,,,,,,,,,,,,,,,,,,,,,,,,,,,,,,,,,,,,,,,,,,,,,,,,,,,,,,
,,,,,,,,,6711e09a6906af2fa5b782bd,Mexican ,13 or older,"yes, I am fluent in another language",no,2025-08-10_14h34.18.304,empathy_intonation_perc_control,2024.2.4,Linux x86_64,60.24096386,6711e09a6906af2fa5b782bd,68817205a84113384fffdfe3,6898e5e69f020e1e52772fe5,,,,,,,,,,,,./stim/wavs/mexican_match_declarative-broad-focus_Emilio-ama-la-marcha.wav,0,,,220.2718,225.1331,0,1,4.3315,,0,13,13,59,1,60,0,mexican,,,,,,,,,,,,,,,,,,,,,,,,,,,,,,,,,,,,,,,,,,,,,,,,,,,,,,,,
,,,,,,,,,6711e09a6906af2fa5b782bd,Mexican ,13 or older,"yes, I am fluent in another language",no,2025-08-10_14h34.18.304,empathy_intonation_perc_control,2024.2.4,Linux x86_64,60.24096386,6711e09a6906af2fa5b782bd,68817205a84113384fffdfe3,6898e5e69f020e1e52772fe5,,,,,,,,,,,,./stim/wavs/castilian_match_interrogative-total-yn_Maria-bebe-el-vino.wav,1,,,225.1339,227.7303,1,1,2.0629,,0,14,14,3,1,4,0,castilian,,,,,,,,,,,,,,,,,,,,,,,,,,,,,,,,,,,,,,,,,,,,,,,,,,,,,,,,
,,,,,,,,,6711e09a6906af2fa5b782bd,Mexican ,13 or older,"yes, I am fluent in another language",no,2025-08-10_14h34.18.304,empathy_intonation_perc_control,2024.2.4,Linux x86_64,60.24096386,6711e09a6906af2fa5b782bd,68817205a84113384fffdfe3,6898e5e69f020e1e52772fe5,,,,,,,,,,,,./stim/wavs/castilian_match_declarative-broad-focus_Manuela-vende-el-carro.wav,0,,,227.7309,230.6292,0,1,2.3719,,0,15,15,46,1,47,0,castilian,,,,,,,,,,,,,,,,,,,,,,,,,,,,,,,,,,,,,,,,,,,,,,,,,,,,,,,,
,,,,,,,,,6711e09a6906af2fa5b782bd,Mexican ,13 or older,"yes, I am fluent in another language",no,2025-08-10_14h34.18.304,empathy_intonation_perc_control,2024.2.4,Linux x86_64,60.24096386,6711e09a6906af2fa5b782bd,68817205a84113384fffdfe3,6898e5e69f020e1e52772fe5,,,,,,,,,,,,./stim/wavs/mexican_mismatch_interrogative-total-yn_El-hombre-mira-la-luna.wav,1,,,230.6302,233.1419,1,1,1.9834,,0,16,16,34,1,35,0,mexican,,,,,,,,,,,,,,,,,,,,,,,,,,,,,,,,,,,,,,,,,,,,,,,,,,,,,,,,
,,,,,,,,,6711e09a6906af2fa5b782bd,Mexican ,13 or older,"yes, I am fluent in another language",no,2025-08-10_14h34.18.304,empathy_intonation_perc_control,2024.2.4,Linux x86_64,60.24096386,6711e09a6906af2fa5b782bd,68817205a84113384fffdfe3,6898e5e69f020e1e52772fe5,,,,,,,,,,,,./stim/wavs/puertorican_mismatch_declarative-broad-focus_La-maestra-vive-en-Paris.wav,0,,,233.1426,236.1406,0,1,2.4732,,0,17,17,86,1,87,0,puertorican,,,,,,,,,,,,,,,,,,,,,,,,,,,,,,,,,,,,,,,,,,,,,,,,,,,,,,,,
,,,,,,,,,6711e09a6906af2fa5b782bd,Mexican ,13 or older,"yes, I am fluent in another language",no,2025-08-10_14h34.18.304,empathy_intonation_perc_control,2024.2.4,Linux x86_64,60.24096386,6711e09a6906af2fa5b782bd,68817205a84113384fffdfe3,6898e5e69f020e1e52772fe5,,,,,,,,,,,,./stim/wavs/castilian_match_interrogative-total-yn_Emilio-ama-la-marcha.wav,1,,,236.1413,238.9194,1,1,2.2499,,0,18,18,1,1,2,0,castilian,,,,,,,,,,,,,,,,,,,,,,,,,,,,,,,,,,,,,,,,,,,,,,,,,,,,,,,,
,,,,,,,,,6711e09a6906af2fa5b782bd,Mexican ,13 or older,"yes, I am fluent in another language",no,2025-08-10_14h34.18.304,empathy_intonation_perc_control,2024.2.4,Linux x86_64,60.24096386,6711e09a6906af2fa5b782bd,68817205a84113384fffdfe3,6898e5e69f020e1e52772fe5,,,,,,,,,,,,./stim/wavs/mexican_mismatch_declarative-broad-focus_La-maestra-vive-en-Paris.wav,0,,,238.92,241.9664,0,1,2.5169,,0,19,19,80,1,81,0,mexican,,,,,,,,,,,,,,,,,,,,,,,,,,,,,,,,,,,,,,,,,,,,,,,,,,,,,,,,
,,,,,,,,,6711e09a6906af2fa5b782bd,Mexican ,13 or older,"yes, I am fluent in another language",no,2025-08-10_14h34.18.304,empathy_intonation_perc_control,2024.2.4,Linux x86_64,60.24096386,6711e09a6906af2fa5b782bd,68817205a84113384fffdfe3,6898e5e69f020e1e52772fe5,,,,,,,,,,,,./stim/wavs/mexican_match_declarative-broad-focus_Mariano-habla-del-tiempo.wav,0,,,241.9671,244.7305,0,1,2.2308,,0,20,20,60,1,61,0,mexican,,,,,,,,,,,,,,,,,,,,,,,,,,,,,,,,,,,,,,,,,,,,,,,,,,,,,,,,
,,,,,,,,,6711e09a6906af2fa5b782bd,Mexican ,13 or older,"yes, I am fluent in another language",no,2025-08-10_14h34.18.304,empathy_intonation_perc_control,2024.2.4,Linux x86_64,60.24096386,6711e09a6906af2fa5b782bd,68817205a84113384fffdfe3,6898e5e69f020e1e52772fe5,,,,,,,,,,,,./stim/wavs/cuban_mismatch_interrogative-total-yn_El-nino-oye-el-rio.wav,1,,,244.7314,247.261,0,0,1.9999,,0,21,21,30,1,31,1,cuban,,,,,,,,,,,,,,,,,,,,,,,,,,,,,,,,,,,,,,,,,,,,,,,,,,,,,,,,
,,,,,,,,,6711e09a6906af2fa5b782bd,Mexican ,13 or older,"yes, I am fluent in another language",no,2025-08-10_14h34.18.304,empathy_intonation_perc_control,2024.2.4,Linux x86_64,60.24096386,6711e09a6906af2fa5b782bd,68817205a84113384fffdfe3,6898e5e69f020e1e52772fe5,,,,,,,,,,,,./stim/wavs/castilian_mismatch_declarative-broad-focus_Mi-novio-viene-del-lago.wav,0,,,247.2617,250.3083,0,1,2.5167,,0,22,22,71,1,72,0,castilian,,,,,,,,,,,,,,,,,,,,,,,,,,,,,,,,,,,,,,,,,,,,,,,,,,,,,,,,
,,,,,,,,,6711e09a6906af2fa5b782bd,Mexican ,13 or older,"yes, I am fluent in another language",no,2025-08-10_14h34.18.304,empathy_intonation_perc_control,2024.2.4,Linux x86_64,60.24096386,6711e09a6906af2fa5b782bd,68817205a84113384fffdfe3,6898e5e69f020e1e52772fe5,,,,,,,,,,,,./stim/wavs/mexican_mismatch_declarative-broad-focus_El-bebe-comia-muy-bien.wav,0,,,250.309,253.2227,0,1,2.387,,0,23,23,78,1,79,0,mexican,,,,,,,,,,,,,,,,,,,,,,,,,,,,,,,,,,,,,,,,,,,,,,,,,,,,,,,,
,,,,,,,,,6711e09a6906af2fa5b782bd,Mexican ,13 or older,"yes, I am fluent in another language",no,2025-08-10_14h34.18.304,empathy_intonation_perc_control,2024.2.4,Linux x86_64,60.24096386,6711e09a6906af2fa5b782bd,68817205a84113384fffdfe3,6898e5e69f020e1e52772fe5,,,,,,,,,,,,./stim/wavs/cuban_match_interrogative-total-yn_Ana-lleva-el-abrigo.wav,1,,,253.2235,255.8029,0,0,2.0458,,0,24,24,6,1,7,1,cuban,,,,,,,,,,,,,,,,,,,,,,,,,,,,,,,,,,,,,,,,,,,,,,,,,,,,,,,,
,,,,,,,,,6711e09a6906af2fa5b782bd,Mexican ,13 or older,"yes, I am fluent in another language",no,2025-08-10_14h34.18.304,empathy_intonation_perc_control,2024.2.4,Linux x86_64,60.24096386,6711e09a6906af2fa5b782bd,68817205a84113384fffdfe3,6898e5e69f020e1e52772fe5,,,,,,,,,,,,./stim/wavs/puertorican_match_declarative-broad-focus_Daniel-iba-a-Bolivia.wav,0,,,255.8036,258.4854,0,1,2.1532,,0,25,25,63,1,64,0,puertorican,,,,,,,,,,,,,,,,,,,,,,,,,,,,,,,,,,,,,,,,,,,,,,,,,,,,,,,,
,,,,,,,,,6711e09a6906af2fa5b782bd,Mexican ,13 or older,"yes, I am fluent in another language",no,2025-08-10_14h34.18.304,empathy_intonation_perc_control,2024.2.4,Linux x86_64,60.24096386,6711e09a6906af2fa5b782bd,68817205a84113384fffdfe3,6898e5e69f020e1e52772fe5,,,,,,,,,,,,./stim/wavs/cuban_mismatch_declarative-broad-focus_La-nina-lava-el-plato.wav,0,,,258.4864,261.1478,0,1,2.1319,,0,26,26,75,1,76,0,cuban,,,,,,,,,,,,,,,,,,,,,,,,,,,,,,,,,,,,,,,,,,,,,,,,,,,,,,,,
,,,,,,,,,6711e09a6906af2fa5b782bd,Mexican ,13 or older,"yes, I am fluent in another language",no,2025-08-10_14h34.18.304,empathy_intonation_perc_control,2024.2.4,Linux x86_64,60.24096386,6711e09a6906af2fa5b782bd,68817205a84113384fffdfe3,6898e5e69f020e1e52772fe5,,,,,,,,,,,,./stim/wavs/castilian_match_declarative-broad-focus_Mariano-habla-del-tiempo.wav,0,,,261.1486,264.2115,0,1,2.5331,,0,27,27,48,1,49,0,castilian,,,,,,,,,,,,,,,,,,,,,,,,,,,,,,,,,,,,,,,,,,,,,,,,,,,,,,,,
,,,,,,,,,6711e09a6906af2fa5b782bd,Mexican ,13 or older,"yes, I am fluent in another language",no,2025-08-10_14h34.18.304,empathy_intonation_perc_control,2024.2.4,Linux x86_64,60.24096386,6711e09a6906af2fa5b782bd,68817205a84113384fffdfe3,6898e5e69f020e1e52772fe5,,,,,,,,,,,,./stim/wavs/castilian_match_interrogative-total-yn_David-leia-el-libro.wav,1,,,264.2129,267.0429,1,1,2.3046,,0,28,28,0,1,1,0,castilian,,,,,,,,,,,,,,,,,,,,,,,,,,,,,,,,,,,,,,,,,,,,,,,,,,,,,,,,
,,,,,,,,,6711e09a6906af2fa5b782bd,Mexican ,13 or older,"yes, I am fluent in another language",no,2025-08-10_14h34.18.304,empathy_intonation_perc_control,2024.2.4,Linux x86_64,60.24096386,6711e09a6906af2fa5b782bd,68817205a84113384fffdfe3,6898e5e69f020e1e52772fe5,,,,,,,,,,,,./stim/wavs/cuban_match_interrogative-total-yn_Daniel-iba-a-Bolivia.wav,1,,,267.0436,271.2382,0,0,3.6647,,0,29,29,7,1,8,1,cuban,,,,,,,,,,,,,,,,,,,,,,,,,,,,,,,,,,,,,,,,,,,,,,,,,,,,,,,,
,,,,,,,,,6711e09a6906af2fa5b782bd,Mexican ,13 or older,"yes, I am fluent in another language",no,2025-08-10_14h34.18.304,empathy_intonation_perc_control,2024.2.4,Linux x86_64,60.24096386,6711e09a6906af2fa5b782bd,68817205a84113384fffdfe3,6898e5e69f020e1e52772fe5,,,,,,,,,,,,./stim/wavs/puertorican_mismatch_declarative-broad-focus_El-nino-oye-el-rio.wav,0,,,271.239,273.9686,0,1,2.1977,,0,30,30,85,1,86,0,puertorican,,,,,,,,,,,,,,,,,,,,,,,,,,,,,,,,,,,,,,,,,,,,,,,,,,,,,,,,
,,,,,,,,,6711e09a6906af2fa5b782bd,Mexican ,13 or older,"yes, I am fluent in another language",no,2025-08-10_14h34.18.304,empathy_intonation_perc_control,2024.2.4,Linux x86_64,60.24096386,6711e09a6906af2fa5b782bd,68817205a84113384fffdfe3,6898e5e69f020e1e52772fe5,,,,,,,,,,,,./stim/wavs/mexican_match_interrogative-total-yn_David-leia-el-libro.wav,1,,,273.9693,276.4826,1,1,1.9839,,0,31,31,14,1,15,0,mexican,,,,,,,,,,,,,,,,,,,,,,,,,,,,,,,,,,,,,,,,,,,,,,,,,,,,,,,,
,,,,,,,,,6711e09a6906af2fa5b782bd,Mexican ,13 or older,"yes, I am fluent in another language",no,2025-08-10_14h34.18.304,empathy_intonation_perc_control,2024.2.4,Linux x86_64,60.24096386,6711e09a6906af2fa5b782bd,68817205a84113384fffdfe3,6898e5e69f020e1e52772fe5,,,,,,,,,,,,./stim/wavs/mexican_match_declarative-broad-focus_Marta-abre-el-regalo.wav,0,,,276.4846,279.1633,0,1,2.1478,,0,32,32,61,1,62,0,mexican,,,,,,,,,,,,,,,,,,,,,,,,,,,,,,,,,,,,,,,,,,,,,,,,,,,,,,,,
,,,,,,,,,6711e09a6906af2fa5b782bd,Mexican ,13 or older,"yes, I am fluent in another language",no,2025-08-10_14h34.18.304,empathy_intonation_perc_control,2024.2.4,Linux x86_64,60.24096386,6711e09a6906af2fa5b782bd,68817205a84113384fffdfe3,6898e5e69f020e1e52772fe5,,,,,,,,,,,,./stim/wavs/cuban_match_declarative-broad-focus_Mariano-habla-del-tiempo.wav,0,,,279.164,281.8941,0,1,2.1998,,0,33,33,54,1,55,0,cuban,,,,,,,,,,,,,,,,,,,,,,,,,,,,,,,,,,,,,,,,,,,,,,,,,,,,,,,,
,,,,,,,,,6711e09a6906af2fa5b782bd,Mexican ,13 or older,"yes, I am fluent in another language",no,2025-08-10_14h34.18.304,empathy_intonation_perc_control,2024.2.4,Linux x86_64,60.24096386,6711e09a6906af2fa5b782bd,68817205a84113384fffdfe3,6898e5e69f020e1e52772fe5,,,,,,,,,,,,./stim/wavs/cuban_match_interrogative-total-yn_Marta-abre-el-regalo.wav,1,,,281.8947,287.4055,0,0,4.9819,,0,34,34,11,1,12,1,cuban,,,,,,,,,,,,,,,,,,,,,,,,,,,,,,,,,,,,,,,,,,,,,,,,,,,,,,,,
,,,,,,,,,6711e09a6906af2fa5b782bd,Mexican ,13 or older,"yes, I am fluent in another language",no,2025-08-10_14h34.18.304,empathy_intonation_perc_control,2024.2.4,Linux x86_64,60.24096386,6711e09a6906af2fa5b782bd,68817205a84113384fffdfe3,6898e5e69f020e1e52772fe5,,,,,,,,,,,,./stim/wavs/mexican_match_declarative-broad-focus_Daniel-iba-a-Bolivia.wav,0,,,287.4063,290.7354,0,1,2.7976,,0,35,35,57,1,58,0,mexican,,,,,,,,,,,,,,,,,,,,,,,,,,,,,,,,,,,,,,,,,,,,,,,,,,,,,,,,
,,,,,,,,,6711e09a6906af2fa5b782bd,Mexican ,13 or older,"yes, I am fluent in another language",no,2025-08-10_14h34.18.304,empathy_intonation_perc_control,2024.2.4,Linux x86_64,60.24096386,6711e09a6906af2fa5b782bd,68817205a84113384fffdfe3,6898e5e69f020e1e52772fe5,,,,,,,,,,,,./stim/wavs/castilian_mismatch_interrogative-total-yn_La-nina-lava-el-plato.wav,1,,,290.7361,294.2495,1,1,2.9791,,0,36,36,25,1,26,0,castilian,,,,,,,,,,,,,,,,,,,,,,,,,,,,,,,,,,,,,,,,,,,,,,,,,,,,,,,,
,,,,,,,,,6711e09a6906af2fa5b782bd,Mexican ,13 or older,"yes, I am fluent in another language",no,2025-08-10_14h34.18.304,empathy_intonation_perc_control,2024.2.4,Linux x86_64,60.24096386,6711e09a6906af2fa5b782bd,68817205a84113384fffdfe3,6898e5e69f020e1e52772fe5,,,,,,,,,,,,./stim/wavs/castilian_mismatch_interrogative-total-yn_La-maestra-vive-en-Paris.wav,1,,,294.2503,297.5289,1,1,2.7477,,0,37,37,24,1,25,0,castilian,,,,,,,,,,,,,,,,,,,,,,,,,,,,,,,,,,,,,,,,,,,,,,,,,,,,,,,,
,,,,,,,,,6711e09a6906af2fa5b782bd,Mexican ,13 or older,"yes, I am fluent in another language",no,2025-08-10_14h34.18.304,empathy_intonation_perc_control,2024.2.4,Linux x86_64,60.24096386,6711e09a6906af2fa5b782bd,68817205a84113384fffdfe3,6898e5e69f020e1e52772fe5,,,,,,,,,,,,./stim/wavs/castilian_mismatch_declarative-broad-focus_Mi-tia-odia-la-lluvia.wav,0,,,297.5296,300.9919,0,1,2.9355,,0,38,38,72,1,73,0,castilian,,,,,,,,,,,,,,,,,,,,,,,,,,,,,,,,,,,,,,,,,,,,,,,,,,,,,,,,
,,,,,,,,,6711e09a6906af2fa5b782bd,Mexican ,13 or older,"yes, I am fluent in another language",no,2025-08-10_14h34.18.304,empathy_intonation_perc_control,2024.2.4,Linux x86_64,60.24096386,6711e09a6906af2fa5b782bd,68817205a84113384fffdfe3,6898e5e69f020e1e52772fe5,,,,,,,,,,,,./stim/wavs/cuban_match_declarative-broad-focus_Marta-abre-el-regalo.wav,0,,,300.9926,303.7893,0,1,2.2645,,0,39,39,55,1,56,0,cuban,,,,,,,,,,,,,,,,,,,,,,,,,,,,,,,,,,,,,,,,,,,,,,,,,,,,,,,,
,,,,,,,,,6711e09a6906af2fa5b782bd,Mexican ,13 or older,"yes, I am fluent in another language",no,2025-08-10_14h34.18.304,empathy_intonation_perc_control,2024.2.4,Linux x86_64,60.24096386,6711e09a6906af2fa5b782bd,68817205a84113384fffdfe3,6898e5e69f020e1e52772fe5,,,,,,,,,,,,./stim/wavs/mexican_mismatch_declarative-broad-focus_El-hombre-mira-la-luna.wav,0,,,303.79,309.434,0,1,5.1108,,0,40,40,79,1,80,0,mexican,,,,,,,,,,,,,,,,,,,,,,,,,,,,,,,,,,,,,,,,,,,,,,,,,,,,,,,,
,,,,,,,,,6711e09a6906af2fa5b782bd,Mexican ,13 or older,"yes, I am fluent in another language",no,2025-08-10_14h34.18.304,empathy_intonation_perc_control,2024.2.4,Linux x86_64,60.24096386,6711e09a6906af2fa5b782bd,68817205a84113384fffdfe3,6898e5e69f020e1e52772fe5,,,,,,,,,,,,./stim/wavs/puertorican_match_declarative-broad-focus_Emilio-ama-la-marcha.wav,0,,,309.4346,312.2978,0,1,2.3362,,0,41,41,65,1,66,0,puertorican,,,,,,,,,,,,,,,,,,,,,,,,,,,,,,,,,,,,,,,,,,,,,,,,,,,,,,,,
,,,,,,,,,6711e09a6906af2fa5b782bd,Mexican ,13 or older,"yes, I am fluent in another language",no,2025-08-10_14h34.18.304,empathy_intonation_perc_control,2024.2.4,Linux x86_64,60.24096386,6711e09a6906af2fa5b782bd,68817205a84113384fffdfe3,6898e5e69f020e1e52772fe5,,,,,,,,,,,,./stim/wavs/castilian_mismatch_interrogative-total-yn_Mi-novio-viene-del-lago.wav,1,,,312.2984,315.1115,1,1,2.2861,,0,42,42,27,1,28,0,castilian,,,,,,,,,,,,,,,,,,,,,,,,,,,,,,,,,,,,,,,,,,,,,,,,,,,,,,,,
,,,,,,,,,6711e09a6906af2fa5b782bd,Mexican ,13 or older,"yes, I am fluent in another language",no,2025-08-10_14h34.18.304,empathy_intonation_perc_control,2024.2.4,Linux x86_64,60.24096386,6711e09a6906af2fa5b782bd,68817205a84113384fffdfe3,6898e5e69f020e1e52772fe5,,,,,,,,,,,,./stim/wavs/cuban_match_declarative-broad-focus_Daniel-iba-a-Bolivia.wav,0,,,315.1124,317.9921,0,1,2.3464,,0,43,43,51,1,52,0,cuban,,,,,,,,,,,,,,,,,,,,,,,,,,,,,,,,,,,,,,,,,,,,,,,,,,,,,,,,
,,,,,,,,,6711e09a6906af2fa5b782bd,Mexican ,13 or older,"yes, I am fluent in another language",no,2025-08-10_14h34.18.304,empathy_intonation_perc_control,2024.2.4,Linux x86_64,60.24096386,6711e09a6906af2fa5b782bd,68817205a84113384fffdfe3,6898e5e69f020e1e52772fe5,,,,,,,,,,,,./stim/wavs/cuban_match_declarative-broad-focus_Maria-bebe-el-vino.wav,0,,,317.9927,320.7732,0,1,2.2519,,0,44,44,53,1,54,0,cuban,,,,,,,,,,,,,,,,,,,,,,,,,,,,,,,,,,,,,,,,,,,,,,,,,,,,,,,,
,,,,,,,,,6711e09a6906af2fa5b782bd,Mexican ,13 or older,"yes, I am fluent in another language",no,2025-08-10_14h34.18.304,empathy_intonation_perc_control,2024.2.4,Linux x86_64,60.24096386,6711e09a6906af2fa5b782bd,68817205a84113384fffdfe3,6898e5e69f020e1e52772fe5,,,,,,,,,,,,./stim/wavs/cuban_match_interrogative-total-yn_Manuela-vende-el-carro.wav,1,,,320.774,323.7552,0,0,2.4567,,0,45,45,8,1,9,1,cuban,,,,,,,,,,,,,,,,,,,,,,,,,,,,,,,,,,,,,,,,,,,,,,,,,,,,,,,,
,,,,,,,,,6711e09a6906af2fa5b782bd,Mexican ,13 or older,"yes, I am fluent in another language",no,2025-08-10_14h34.18.304,empathy_intonation_perc_control,2024.2.4,Linux x86_64,60.24096386,6711e09a6906af2fa5b782bd,68817205a84113384fffdfe3,6898e5e69f020e1e52772fe5,,,,,,,,,,,,./stim/wavs/cuban_match_declarative-broad-focus_Ana-lleva-el-abrigo.wav,0,,,323.7561,326.3508,0,1,2.067,,0,46,46,50,1,51,0,cuban,,,,,,,,,,,,,,,,,,,,,,,,,,,,,,,,,,,,,,,,,,,,,,,,,,,,,,,,
,,,,,,,,,6711e09a6906af2fa5b782bd,Mexican ,13 or older,"yes, I am fluent in another language",no,2025-08-10_14h34.18.304,empathy_intonation_perc_control,2024.2.4,Linux x86_64,60.24096386,6711e09a6906af2fa5b782bd,68817205a84113384fffdfe3,6898e5e69f020e1e52772fe5,,,,,,,,,,,,./stim/wavs/puertorican_match_interrogative-total-yn_David-leia-el-libro.wav,1,,,326.3515,329.2155,0,0,2.3309,,0,47,47,20,1,21,1,puertorican,,,,,,,,,,,,,,,,,,,,,,,,,,,,,,,,,,,,,,,,,,,,,,,,,,,,,,,,
,,,,,,,,,6711e09a6906af2fa5b782bd,Mexican ,13 or older,"yes, I am fluent in another language",no,2025-08-10_14h34.18.304,empathy_intonation_perc_control,2024.2.4,Linux x86_64,60.24096386,6711e09a6906af2fa5b782bd,68817205a84113384fffdfe3,6898e5e69f020e1e52772fe5,,,,,,,,,,,,./stim/wavs/mexican_match_interrogative-total-yn_Ana-lleva-el-abrigo.wav,1,,,329.2173,331.7135,1,1,1.97,,0,48,48,12,1,13,0,mexican,,,,,,,,,,,,,,,,,,,,,,,,,,,,,,,,,,,,,,,,,,,,,,,,,,,,,,,,
,,,,,,,,,6711e09a6906af2fa5b782bd,Mexican ,13 or older,"yes, I am fluent in another language",no,2025-08-10_14h34.18.304,empathy_intonation_perc_control,2024.2.4,Linux x86_64,60.24096386,6711e09a6906af2fa5b782bd,68817205a84113384fffdfe3,6898e5e69f020e1e52772fe5,,,,,,,,,,,,./stim/wavs/mexican_match_declarative-broad-focus_David-leia-el-libro.wav,0,,,331.7143,334.3595,0,1,2.1145,,0,49,49,58,1,59,0,mexican,,,,,,,,,,,,,,,,,,,,,,,,,,,,,,,,,,,,,,,,,,,,,,,,,,,,,,,,
,,,,,,,,,6711e09a6906af2fa5b782bd,Mexican ,13 or older,"yes, I am fluent in another language",no,2025-08-10_14h34.18.304,empathy_intonation_perc_control,2024.2.4,Linux x86_64,60.24096386,6711e09a6906af2fa5b782bd,68817205a84113384fffdfe3,6898e5e69f020e1e52772fe5,,,,,,,,,,,,./stim/wavs/cuban_match_interrogative-total-yn_Mariano-habla-del-tiempo.wav,1,,,334.3601,337.1901,0,0,2.3008,,0,50,50,10,1,11,1,cuban,,,,,,,,,,,,,,,,,,,,,,,,,,,,,,,,,,,,,,,,,,,,,,,,,,,,,,,,
,,,,,,,,,6711e09a6906af2fa5b782bd,Mexican ,13 or older,"yes, I am fluent in another language",no,2025-08-10_14h34.18.304,empathy_intonation_perc_control,2024.2.4,Linux x86_64,60.24096386,6711e09a6906af2fa5b782bd,68817205a84113384fffdfe3,6898e5e69f020e1e52772fe5,,,,,,,,,,,,./stim/wavs/castilian_mismatch_interrogative-total-yn_Mi-madre-come-la-fruta.wav,1,,,337.1908,340.0208,1,1,2.2975,,0,51,51,26,1,27,0,castilian,,,,,,,,,,,,,,,,,,,,,,,,,,,,,,,,,,,,,,,,,,,,,,,,,,,,,,,,
,,,,,,,,,6711e09a6906af2fa5b782bd,Mexican ,13 or older,"yes, I am fluent in another language",no,2025-08-10_14h34.18.304,empathy_intonation_perc_control,2024.2.4,Linux x86_64,60.24096386,6711e09a6906af2fa5b782bd,68817205a84113384fffdfe3,6898e5e69f020e1e52772fe5,,,,,,,,,,,,./stim/wavs/cuban_mismatch_declarative-broad-focus_Mi-novio-viene-del-lago.wav,0,,,340.0215,342.7679,0,1,2.2173,,0,52,52,76,1,77,0,cuban,,,,,,,,,,,,,,,,,,,,,,,,,,,,,,,,,,,,,,,,,,,,,,,,,,,,,,,,
,,,,,,,,,6711e09a6906af2fa5b782bd,Mexican ,13 or older,"yes, I am fluent in another language",no,2025-08-10_14h34.18.304,empathy_intonation_perc_control,2024.2.4,Linux x86_64,60.24096386,6711e09a6906af2fa5b782bd,68817205a84113384fffdfe3,6898e5e69f020e1e52772fe5,,,,,,,,,,,,./stim/wavs/castilian_mismatch_declarative-broad-focus_El-nino-oye-el-rio.wav,0,,,342.7685,345.6487,0,1,2.3537,,0,53,53,68,1,69,0,castilian,,,,,,,,,,,,,,,,,,,,,,,,,,,,,,,,,,,,,,,,,,,,,,,,,,,,,,,,
,,,,,,,,,6711e09a6906af2fa5b782bd,Mexican ,13 or older,"yes, I am fluent in another language",no,2025-08-10_14h34.18.304,empathy_intonation_perc_control,2024.2.4,Linux x86_64,60.24096386,6711e09a6906af2fa5b782bd,68817205a84113384fffdfe3,6898e5e69f020e1e52772fe5,,,,,,,,,,,,./stim/wavs/puertorican_mismatch_declarative-broad-focus_El-hombre-mira-la-luna.wav,0,,,345.6496,349.2282,0,1,3.0513,,0,54,54,84,1,85,0,puertorican,,,,,,,,,,,,,,,,,,,,,,,,,,,,,,,,,,,,,,,,,,,,,,,,,,,,,,,,
,,,,,,,,,6711e09a6906af2fa5b782bd,Mexican ,13 or older,"yes, I am fluent in another language",no,2025-08-10_14h34.18.304,empathy_intonation_perc_control,2024.2.4,Linux x86_64,60.24096386,6711e09a6906af2fa5b782bd,68817205a84113384fffdfe3,6898e5e69f020e1e52772fe5,,,,,,,,,,,,./stim/wavs/mexican_mismatch_declarative-broad-focus_Mi-novio-viene-del-lago.wav,0,,,349.2289,351.9433,0,1,2.19,,0,55,55,81,1,82,0,mexican,,,,,,,,,,,,,,,,,,,,,,,,,,,,,,,,,,,,,,,,,,,,,,,,,,,,,,,,
,,,,,,,,,6711e09a6906af2fa5b782bd,Mexican ,13 or older,"yes, I am fluent in another language",no,2025-08-10_14h34.18.304,empathy_intonation_perc_control,2024.2.4,Linux x86_64,60.24096386,6711e09a6906af2fa5b782bd,68817205a84113384fffdfe3,6898e5e69f020e1e52772fe5,,,,,,,,,,,,./stim/wavs/mexican_match_interrogative-total-yn_Daniel-iba-a-Bolivia.wav,1,,,351.9443,354.5896,1,1,2.1141,,0,56,56,13,1,14,0,mexican,,,,,,,,,,,,,,,,,,,,,,,,,,,,,,,,,,,,,,,,,,,,,,,,,,,,,,,,
,,,,,,,,,6711e09a6906af2fa5b782bd,Mexican ,13 or older,"yes, I am fluent in another language",no,2025-08-10_14h34.18.304,empathy_intonation_perc_control,2024.2.4,Linux x86_64,60.24096386,6711e09a6906af2fa5b782bd,68817205a84113384fffdfe3,6898e5e69f020e1e52772fe5,,,,,,,,,,,,./stim/wavs/castilian_match_declarative-broad-focus_David-leia-el-libro.wav,0,,,354.5902,357.4202,0,1,2.2986,,0,57,57,44,1,45,0,castilian,,,,,,,,,,,,,,,,,,,,,,,,,,,,,,,,,,,,,,,,,,,,,,,,,,,,,,,,
,,,,,,,,,6711e09a6906af2fa5b782bd,Mexican ,13 or older,"yes, I am fluent in another language",no,2025-08-10_14h34.18.304,empathy_intonation_perc_control,2024.2.4,Linux x86_64,60.24096386,6711e09a6906af2fa5b782bd,68817205a84113384fffdfe3,6898e5e69f020e1e52772fe5,,,,,,,,,,,,./stim/wavs/cuban_mismatch_interrogative-total-yn_Mi-tia-odia-la-lluvia.wav,1,,,357.4208,360.1173,0,0,2.1667,,0,58,58,33,1,34,1,cuban,,,,,,,,,,,,,,,,,,,,,,,,,,,,,,,,,,,,,,,,,,,,,,,,,,,,,,,,
,,,,,,,,,6711e09a6906af2fa5b782bd,Mexican ,13 or older,"yes, I am fluent in another language",no,2025-08-10_14h34.18.304,empathy_intonation_perc_control,2024.2.4,Linux x86_64,60.24096386,6711e09a6906af2fa5b782bd,68817205a84113384fffdfe3,6898e5e69f020e1e52772fe5,,,,,,,,,,,,./stim/wavs/mexican_mismatch_interrogative-total-yn_La-maestra-vive-en-Paris.wav,1,,,360.1179,362.9656,1,1,2.32,,0,59,59,36,1,37,0,mexican,,,,,,,,,,,,,,,,,,,,,,,,,,,,,,,,,,,,,,,,,,,,,,,,,,,,,,,,
,,,,,,,,,6711e09a6906af2fa5b782bd,Mexican ,13 or older,"yes, I am fluent in another language",no,2025-08-10_14h34.18.304,empathy_intonation_perc_control,2024.2.4,Linux x86_64,60.24096386,6711e09a6906af2fa5b782bd,68817205a84113384fffdfe3,6898e5e69f020e1e52772fe5,,,,,,,,,,,,./stim/wavs/castilian_match_interrogative-total-yn_Marta-abre-el-regalo.wav,1,,,362.9663,365.6621,1,1,2.1627,,0,60,60,5,1,6,0,castilian,,,,,,,,,,,,,,,,,,,,,,,,,,,,,,,,,,,,,,,,,,,,,,,,,,,,,,,,
,,,,,,,,,6711e09a6906af2fa5b782bd,Mexican ,13 or older,"yes, I am fluent in another language",no,2025-08-10_14h34.18.304,empathy_intonation_perc_control,2024.2.4,Linux x86_64,60.24096386,6711e09a6906af2fa5b782bd,68817205a84113384fffdfe3,6898e5e69f020e1e52772fe5,,,,,,,,,,,,./stim/wavs/cuban_match_declarative-broad-focus_Manuela-vende-el-carro.wav,0,,,365.6637,368.5261,0,1,2.3299,,0,61,61,52,1,53,0,cuban,,,,,,,,,,,,,,,,,,,,,,,,,,,,,,,,,,,,,,,,,,,,,,,,,,,,,,,,
,,,,,,,,,6711e09a6906af2fa5b782bd,Mexican ,13 or older,"yes, I am fluent in another language",no,2025-08-10_14h34.18.304,empathy_intonation_perc_control,2024.2.4,Linux x86_64,60.24096386,6711e09a6906af2fa5b782bd,68817205a84113384fffdfe3,6898e5e69f020e1e52772fe5,,,,,,,,,,,,./stim/wavs/puertorican_match_interrogative-total-yn_Maria-bebe-el-vino.wav,1,,,368.5269,371.1903,0,0,2.1338,,0,62,62,23,1,24,1,puertorican,,,,,,,,,,,,,,,,,,,,,,,,,,,,,,,,,,,,,,,,,,,,,,,,,,,,,,,,
,,,,,,,,,6711e09a6906af2fa5b782bd,Mexican ,13 or older,"yes, I am fluent in another language",no,2025-08-10_14h34.18.304,empathy_intonation_perc_control,2024.2.4,Linux x86_64,60.24096386,6711e09a6906af2fa5b782bd,68817205a84113384fffdfe3,6898e5e69f020e1e52772fe5,,,,,,,,,,,,./stim/wavs/mexican_match_interrogative-total-yn_Marta-abre-el-regalo.wav,1,,,371.191,373.1548,1,1,1.4325,,0,63,63,17,1,18,0,mexican,,,,,,,,,,,,,,,,,,,,,,,,,,,,,,,,,,,,,,,,,,,,,,,,,,,,,,,,
,,,,,,,,,6711e09a6906af2fa5b782bd,Mexican ,13 or older,"yes, I am fluent in another language",no,2025-08-10_14h34.18.304,empathy_intonation_perc_control,2024.2.4,Linux x86_64,60.24096386,6711e09a6906af2fa5b782bd,68817205a84113384fffdfe3,6898e5e69f020e1e52772fe5,,,,,,,,,,,,./stim/wavs/cuban_mismatch_interrogative-total-yn_Mi-madre-come-la-fruta.wav,1,,,373.1555,378.0835,0,0,4.4024,,0,64,64,31,1,32,1,cuban,,,,,,,,,,,,,,,,,,,,,,,,,,,,,,,,,,,,,,,,,,,,,,,,,,,,,,,,
,,,,,,,,,6711e09a6906af2fa5b782bd,Mexican ,13 or older,"yes, I am fluent in another language",no,2025-08-10_14h34.18.304,empathy_intonation_perc_control,2024.2.4,Linux x86_64,60.24096386,6711e09a6906af2fa5b782bd,68817205a84113384fffdfe3,6898e5e69f020e1e52772fe5,,,,,,,,,,,,./stim/wavs/castilian_match_declarative-broad-focus_Emilio-ama-la-marcha.wav,0,,,378.0842,380.2811,0,1,1.6655,,0,65,65,45,1,46,0,castilian,,,,,,,,,,,,,,,,,,,,,,,,,,,,,,,,,,,,,,,,,,,,,,,,,,,,,,,,
,,,,,,,,,6711e09a6906af2fa5b782bd,Mexican ,13 or older,"yes, I am fluent in another language",no,2025-08-10_14h34.18.304,empathy_intonation_perc_control,2024.2.4,Linux x86_64,60.24096386,6711e09a6906af2fa5b782bd,68817205a84113384fffdfe3,6898e5e69f020e1e52772fe5,,,,,,,,,,,,./stim/wavs/puertorican_match_declarative-broad-focus_Maria-bebe-el-vino.wav,0,,,380.282,382.5292,1,0,1.7176,,0,66,66,67,1,68,0,puertorican,,,,,,,,,,,,,,,,,,,,,,,,,,,,,,,,,,,,,,,,,,,,,,,,,,,,,,,,
,,,,,,,,,6711e09a6906af2fa5b782bd,Mexican ,13 or older,"yes, I am fluent in another language",no,2025-08-10_14h34.18.304,empathy_intonation_perc_control,2024.2.4,Linux x86_64,60.24096386,6711e09a6906af2fa5b782bd,68817205a84113384fffdfe3,6898e5e69f020e1e52772fe5,,,,,,,,,,,,./stim/wavs/puertorican_match_declarative-broad-focus_David-leia-el-libro.wav,0,,,382.5299,384.5769,0,1,1.5149,,0,67,67,64,1,65,0,puertorican,,,,,,,,,,,,,,,,,,,,,,,,,,,,,,,,,,,,,,,,,,,,,,,,,,,,,,,,
,,,,,,,,,6711e09a6906af2fa5b782bd,Mexican ,13 or older,"yes, I am fluent in another language",no,2025-08-10_14h34.18.304,empathy_intonation_perc_control,2024.2.4,Linux x86_64,60.24096386,6711e09a6906af2fa5b782bd,68817205a84113384fffdfe3,6898e5e69f020e1e52772fe5,,,,,,,,,,,,./stim/wavs/castilian_match_interrogative-total-yn_Manuela-vende-el-carro.wav,1,,,384.5776,386.9579,1,1,1.8493,,0,68,68,2,1,3,0,castilian,,,,,,,,,,,,,,,,,,,,,,,,,,,,,,,,,,,,,,,,,,,,,,,,,,,,,,,,
,,,,,,,,,6711e09a6906af2fa5b782bd,Mexican ,13 or older,"yes, I am fluent in another language",no,2025-08-10_14h34.18.304,empathy_intonation_perc_control,2024.2.4,Linux x86_64,60.24096386,6711e09a6906af2fa5b782bd,68817205a84113384fffdfe3,6898e5e69f020e1e52772fe5,,,,,,,,,,,,./stim/wavs/cuban_mismatch_declarative-broad-focus_Mi-tia-odia-la-lluvia.wav,0,,,386.9586,389.3722,0,1,1.8876,,0,69,69,77,1,78,0,cuban,,,,,,,,,,,,,,,,,,,,,,,,,,,,,,,,,,,,,,,,,,,,,,,,,,,,,,,,
,,,,,,,,,6711e09a6906af2fa5b782bd,Mexican ,13 or older,"yes, I am fluent in another language",no,2025-08-10_14h34.18.304,empathy_intonation_perc_control,2024.2.4,Linux x86_64,60.24096386,6711e09a6906af2fa5b782bd,68817205a84113384fffdfe3,6898e5e69f020e1e52772fe5,,,,,,,,,,,,./stim/wavs/cuban_mismatch_declarative-broad-focus_El-hombre-mira-la-luna.wav,0,,,389.3733,391.5702,0,1,1.666,,0,70,70,74,1,75,0,cuban,,,,,,,,,,,,,,,,,,,,,,,,,,,,,,,,,,,,,,,,,,,,,,,,,,,,,,,,
,,,,,,,,,6711e09a6906af2fa5b782bd,Mexican ,13 or older,"yes, I am fluent in another language",no,2025-08-10_14h34.18.304,empathy_intonation_perc_control,2024.2.4,Linux x86_64,60.24096386,6711e09a6906af2fa5b782bd,68817205a84113384fffdfe3,6898e5e69f020e1e52772fe5,,,,,,,,,,,,./stim/wavs/puertorican_mismatch_declarative-broad-focus_La-nina-lava-el-plato.wav,0,,,391.5724,393.6181,0,1,1.5159,,0,71,71,87,1,88,0,puertorican,,,,,,,,,,,,,,,,,,,,,,,,,,,,,,,,,,,,,,,,,,,,,,,,,,,,,,,,
,,,,,,,,,6711e09a6906af2fa5b782bd,Mexican ,13 or older,"yes, I am fluent in another language",no,2025-08-10_14h34.18.304,empathy_intonation_perc_control,2024.2.4,Linux x86_64,60.24096386,6711e09a6906af2fa5b782bd,68817205a84113384fffdfe3,6898e5e69f020e1e52772fe5,,,,,,,,,,,,./stim/wavs/puertorican_match_declarative-broad-focus_Ana-lleva-el-abrigo.wav,0,,,393.6189,395.4996,0,1,1.3509,,0,72,72,62,1,63,0,puertorican,,,,,,,,,,,,,,,,,,,,,,,,,,,,,,,,,,,,,,,,,,,,,,,,,,,,,,,,
,,,,,,,,,6711e09a6906af2fa5b782bd,Mexican ,13 or older,"yes, I am fluent in another language",no,2025-08-10_14h34.18.304,empathy_intonation_perc_control,2024.2.4,Linux x86_64,60.24096386,6711e09a6906af2fa5b782bd,68817205a84113384fffdfe3,6898e5e69f020e1e52772fe5,,,,,,,,,,,,./stim/wavs/castilian_match_interrogative-total-yn_Mariano-habla-del-tiempo.wav,1,,,395.5003,397.9479,1,1,1.9182,,0,73,73,4,1,5,0,castilian,,,,,,,,,,,,,,,,,,,,,,,,,,,,,,,,,,,,,,,,,,,,,,,,,,,,,,,,
,,,,,,,,,6711e09a6906af2fa5b782bd,Mexican ,13 or older,"yes, I am fluent in another language",no,2025-08-10_14h34.18.304,empathy_intonation_perc_control,2024.2.4,Linux x86_64,60.24096386,6711e09a6906af2fa5b782bd,68817205a84113384fffdfe3,6898e5e69f020e1e52772fe5,,,,,,,,,,,,./stim/wavs/puertorican_mismatch_interrogative-total-yn_El-hombre-mira-la-luna.wav,1,,,397.9495,400.345,1,1,1.8684,,0,74,74,39,1,40,1,puertorican,,,,,,,,,,,,,,,,,,,,,,,,,,,,,,,,,,,,,,,,,,,,,,,,,,,,,,,,
,,,,,,,,,6711e09a6906af2fa5b782bd,Mexican ,13 or older,"yes, I am fluent in another language",no,2025-08-10_14h34.18.304,empathy_intonation_perc_control,2024.2.4,Linux x86_64,60.24096386,6711e09a6906af2fa5b782bd,68817205a84113384fffdfe3,6898e5e69f020e1e52772fe5,,,,,,,,,,,,./stim/wavs/castilian_match_declarative-broad-focus_Maria-bebe-el-vino.wav,0,,,400.3456,402.6762,0,1,1.801,,0,75,75,47,1,48,0,castilian,,,,,,,,,,,,,,,,,,,,,,,,,,,,,,,,,,,,,,,,,,,,,,,,,,,,,,,,
,,,,,,,,,6711e09a6906af2fa5b782bd,Mexican ,13 or older,"yes, I am fluent in another language",no,2025-08-10_14h34.18.304,empathy_intonation_perc_control,2024.2.4,Linux x86_64,60.24096386,6711e09a6906af2fa5b782bd,68817205a84113384fffdfe3,6898e5e69f020e1e52772fe5,,,,,,,,,,,,./stim/wavs/castilian_mismatch_declarative-broad-focus_La-nina-lava-el-plato.wav,0,,,402.6769,405.1734,0,1,1.9629,,0,76,76,70,1,71,0,castilian,,,,,,,,,,,,,,,,,,,,,,,,,,,,,,,,,,,,,,,,,,,,,,,,,,,,,,,,
,,,,,,,,,6711e09a6906af2fa5b782bd,Mexican ,13 or older,"yes, I am fluent in another language",no,2025-08-10_14h34.18.304,empathy_intonation_perc_control,2024.2.4,Linux x86_64,60.24096386,6711e09a6906af2fa5b782bd,68817205a84113384fffdfe3,6898e5e69f020e1e52772fe5,,,,,,,,,,,,./stim/wavs/mexican_mismatch_declarative-broad-focus_Mi-tia-odia-la-lluvia.wav,0,,,405.1745,407.5542,0,1,1.8531,,0,77,77,82,1,83,0,mexican,,,,,,,,,,,,,,,,,,,,,,,,,,,,,,,,,,,,,,,,,,,,,,,,,,,,,,,,
,,,,,,,,,6711e09a6906af2fa5b782bd,Mexican ,13 or older,"yes, I am fluent in another language",no,2025-08-10_14h34.18.304,empathy_intonation_perc_control,2024.2.4,Linux x86_64,60.24096386,6711e09a6906af2fa5b782bd,68817205a84113384fffdfe3,6898e5e69f020e1e52772fe5,,,,,,,,,,,,./stim/wavs/puertorican_mismatch_interrogative-total-yn_El-nino-oye-el-rio.wav,1,,,407.5549,410.1855,0,0,2.0974,,0,78,78,40,1,41,1,puertorican,,,,,,,,,,,,,,,,,,,,,,,,,,,,,,,,,,,,,,,,,,,,,,,,,,,,,,,,
,,,,,,,,,6711e09a6906af2fa5b782bd,Mexican ,13 or older,"yes, I am fluent in another language",no,2025-08-10_14h34.18.304,empathy_intonation_perc_control,2024.2.4,Linux x86_64,60.24096386,6711e09a6906af2fa5b782bd,68817205a84113384fffdfe3,6898e5e69f020e1e52772fe5,,,,,,,,,,,,./stim/wavs/puertorican_match_interrogative-total-yn_Daniel-iba-a-Bolivia.wav,1,,,410.1862,412.2335,0,0,1.5158,,0,79,79,19,1,20,1,puertorican,,,,,,,,,,,,,,,,,,,,,,,,,,,,,,,,,,,,,,,,,,,,,,,,,,,,,,,,
,,,,,,,,,6711e09a6906af2fa5b782bd,Mexican ,13 or older,"yes, I am fluent in another language",no,2025-08-10_14h34.18.304,empathy_intonation_perc_control,2024.2.4,Linux x86_64,60.24096386,6711e09a6906af2fa5b782bd,68817205a84113384fffdfe3,6898e5e69f020e1e52772fe5,,,,,,,,,,,,./stim/wavs/castilian_match_declarative-broad-focus_Marta-abre-el-regalo.wav,0,,,412.2342,414.4477,0,1,1.68,,0,80,80,49,1,50,0,castilian,,,,,,,,,,,,,,,,,,,,,,,,,,,,,,,,,,,,,,,,,,,,,,,,,,,,,,,,
,,,,,,,,,6711e09a6906af2fa5b782bd,Mexican ,13 or older,"yes, I am fluent in another language",no,2025-08-10_14h34.18.304,empathy_intonation_perc_control,2024.2.4,Linux x86_64,60.24096386,6711e09a6906af2fa5b782bd,68817205a84113384fffdfe3,6898e5e69f020e1e52772fe5,,,,,,,,,,,,./stim/wavs/mexican_match_interrogative-total-yn_Mariano-habla-del-tiempo.wav,1,,,414.4485,417.5115,1,1,2.5312,,0,81,81,16,1,17,0,mexican,,,,,,,,,,,,,,,,,,,,,,,,,,,,,,,,,,,,,,,,,,,,,,,,,,,,,,,,
,,,,,,,,,6711e09a6906af2fa5b782bd,Mexican ,13 or older,"yes, I am fluent in another language",no,2025-08-10_14h34.18.304,empathy_intonation_perc_control,2024.2.4,Linux x86_64,60.24096386,6711e09a6906af2fa5b782bd,68817205a84113384fffdfe3,6898e5e69f020e1e52772fe5,,,,,,,,,,,,./stim/wavs/mexican_mismatch_interrogative-total-yn_Mi-tia-odia-la-lluvia.wav,1,,,417.5121,419.5094,1,1,1.4639,,0,82,82,38,1,39,0,mexican,,,,,,,,,,,,,,,,,,,,,,,,,,,,,,,,,,,,,,,,,,,,,,,,,,,,,,,,
,,,,,,,,,6711e09a6906af2fa5b782bd,Mexican ,13 or older,"yes, I am fluent in another language",no,2025-08-10_14h34.18.304,empathy_intonation_perc_control,2024.2.4,Linux x86_64,60.24096386,6711e09a6906af2fa5b782bd,68817205a84113384fffdfe3,6898e5e69f020e1e52772fe5,,,,,,,,,,,,./stim/wavs/cuban_mismatch_declarative-broad-focus_El-bebe-comia-muy-bien.wav,0,,,419.5101,421.6574,0,1,1.616,,0,83,83,73,1,74,0,cuban,,,,,,,,,,,,,,,,,,,,,,,,,,,,,,,,,,,,,,,,,,,,,,,,,,,,,,,,
,,,,,,,,,6711e09a6906af2fa5b782bd,Mexican ,13 or older,"yes, I am fluent in another language",no,2025-08-10_14h34.18.304,empathy_intonation_perc_control,2024.2.4,Linux x86_64,60.24096386,6711e09a6906af2fa5b782bd,68817205a84113384fffdfe3,6898e5e69f020e1e52772fe5,,,,,,,,,,,,./stim/wavs/mexican_match_declarative-broad-focus_Ana-lleva-el-abrigo.wav,0,,,421.6582,424.1552,0,1,1.967,,0,84,84,56,1,57,0,mexican,,,,,,,,,,,,,,,,,,,,,,,,,,,,,,,,,,,,,,,,,,,,,,,,,,,,,,,,
,,,,,,,,,6711e09a6906af2fa5b782bd,Mexican ,13 or older,"yes, I am fluent in another language",no,2025-08-10_14h34.18.304,empathy_intonation_perc_control,2024.2.4,Linux x86_64,60.24096386,6711e09a6906af2fa5b782bd,68817205a84113384fffdfe3,6898e5e69f020e1e52772fe5,,,,,,,,,,,,./stim/wavs/puertorican_match_interrogative-total-yn_Manuela-vende-el-carro.wav,1,,,424.156,427.1022,0,0,2.4197,,0,85,85,22,1,23,1,puertorican,,,,,,,,,,,,,,,,,,,,,,,,,,,,,,,,,,,,,,,,,,,,,,,,,,,,,,,,
,,,,,,,,,6711e09a6906af2fa5b782bd,Mexican ,13 or older,"yes, I am fluent in another language",no,2025-08-10_14h34.18.304,empathy_intonation_perc_control,2024.2.4,Linux x86_64,60.24096386,6711e09a6906af2fa5b782bd,68817205a84113384fffdfe3,6898e5e69f020e1e52772fe5,,,,,,,,,,,,./stim/wavs/puertorican_mismatch_interrogative-total-yn_Mi-madre-come-la-fruta.wav,1,,,427.1031,430.8343,0,0,3.206,,0,86,86,43,1,44,1,puertorican,,,,,,,,,,,,,,,,,,,,,,,,,,,,,,,,,,,,,,,,,,,,,,,,,,,,,,,,
,,,,,,,,,6711e09a6906af2fa5b782bd,Mexican ,13 or older,"yes, I am fluent in another language",no,2025-08-10_14h34.18.304,empathy_intonation_perc_control,2024.2.4,Linux x86_64,60.24096386,6711e09a6906af2fa5b782bd,68817205a84113384fffdfe3,6898e5e69f020e1e52772fe5,,,,,,,,,,,,./stim/wavs/cuban_mismatch_interrogative-total-yn_Mi-novio-viene-del-lago.wav,1,,,430.8351,434.378,0,0,3.0161,,0,87,87,32,1,33,1,cuban,,,,,,,,,,,,,,,,,,,,,,,,,,,,,,,,,,,,,,,,,,,,,,,,,,,,,,,,
,,,,,,,"Great! Now we will move on. The next task consists of about 60 trials, in each of which you will see a string of letters. 
  
  Your task is to decide whether this is a real Spanish word or not.", (press the spacebar to continue),6711e09a6906af2fa5b782bd,Mexican ,13 or older,"yes, I am fluent in another language",no,2025-08-10_14h34.18.304,empathy_intonation_perc_control,2024.2.4,Linux x86_64,60.24096386,6711e09a6906af2fa5b782bd,68817205a84113384fffdfe3,6898e5e69f020e1e52772fe5,,,,,,,,,,,,,,,,,,,,,,,,,,,,,,434.3872,449.8299,0,0,0,0,1,,,,,,,,,,,,,,,,,,,,,,,,,,,,,,,,,,,,,,,,,,,,,,,,,
,,,,,,,"If you think it is an existing Spanish word, you type '1' (for 'REAL'), and if you think it is not an existing Spanish word, you type '0' (for 'FAKE').", (press the spacebar to continue),6711e09a6906af2fa5b782bd,Mexican ,13 or older,"yes, I am fluent in another language",no,2025-08-10_14h34.18.304,empathy_intonation_perc_control,2024.2.4,Linux x86_64,60.24096386,6711e09a6906af2fa5b782bd,68817205a84113384fffdfe3,6898e5e69f020e1e52772fe5,,,,,,,,,,,,,,,,,,,,,,,,,,,,,,449.8326,456.8898,0,1,1,1,1,,,,,,,,,,,,,,,,,,,,,,,,,,,,,,,,,,,,,,,,,,,,,,,,,
,,,,,,,"If you are sure that the word exists, even though you don’t know its exact meaning, you may still respond '1' (REAL). 
  
  But if you are not sure if it is an existing word, you should respond '0' (FAKE).
  
  Let's do a practice round...", (press the spacebar to continue),6711e09a6906af2fa5b782bd,Mexican ,13 or older,"yes, I am fluent in another language",no,2025-08-10_14h34.18.304,empathy_intonation_perc_control,2024.2.4,Linux x86_64,60.24096386,6711e09a6906af2fa5b782bd,68817205a84113384fffdfe3,6898e5e69f020e1e52772fe5,,,,,,,,,,,,,,,,,,,,,,,,,,,,,,456.8927,462.9668,0,2,2,2,1,,,,,,,,,,,,,,,,,,,,,,,,,,,,,,,,,,,,,,,,,,,,,,,,,
,,,,,,,,,6711e09a6906af2fa5b782bd,Mexican ,13 or older,"yes, I am fluent in another language",no,2025-08-10_14h34.18.304,empathy_intonation_perc_control,2024.2.4,Linux x86_64,60.24096386,6711e09a6906af2fa5b782bd,68817205a84113384fffdfe3,6898e5e69f020e1e52772fe5,,,,,,,,,,,,,0,,,,,,,,,,,,,,,,,,,,,,,,462.9753,475.9725,0,1,12.4674,,475.9732,476.9715,0,0,0,0,1,0,depiste,REAL,FAKE,,,,,,,,,,,,,,,,,,,,,,,,,,,,,,,,
,,,,,,,,,6711e09a6906af2fa5b782bd,Mexican ,13 or older,"yes, I am fluent in another language",no,2025-08-10_14h34.18.304,empathy_intonation_perc_control,2024.2.4,Linux x86_64,60.24096386,6711e09a6906af2fa5b782bd,68817205a84113384fffdfe3,6898e5e69f020e1e52772fe5,,,,,,,,,,,,,1,,,,,,,,,,,,,,,,,,,,,,,,476.9753,479.2019,1,1,1.7007,,479.202,480.2005,0,1,1,1,1,0,sí,REAL,FAKE,,,,,,,,,,,,,,,,,,,,,,,,,,,,,,,,
,,,,,,,,,6711e09a6906af2fa5b782bd,Mexican ,13 or older,"yes, I am fluent in another language",no,2025-08-10_14h34.18.304,empathy_intonation_perc_control,2024.2.4,Linux x86_64,60.24096386,6711e09a6906af2fa5b782bd,68817205a84113384fffdfe3,6898e5e69f020e1e52772fe5,,,,,,,,,,,,,0,,,,,,,,,,,,,,,,,,,,,,,,480.2019,493.6041,0,1,12.8726,,493.6042,494.6026,0,2,2,2,1,0,coné,REAL,FAKE,,,,,,,,,,,,,,,,,,,,,,,,,,,,,,,,
,,,,,,,,,6711e09a6906af2fa5b782bd,Mexican ,13 or older,"yes, I am fluent in another language",no,2025-08-10_14h34.18.304,empathy_intonation_perc_control,2024.2.4,Linux x86_64,60.24096386,6711e09a6906af2fa5b782bd,68817205a84113384fffdfe3,6898e5e69f020e1e52772fe5,,,,,,,,,,,,,0,,,,,,,,,,,,,,,,,,,,,,,,494.6039,504.6441,0,1,9.5077,,504.6442,505.6423,0,3,3,3,1,0,calpar,REAL,FAKE,,,,,,,,,,,,,,,,,,,,,,,,,,,,,,,,
,,,,,,,,,6711e09a6906af2fa5b782bd,Mexican ,13 or older,"yes, I am fluent in another language",no,2025-08-10_14h34.18.304,empathy_intonation_perc_control,2024.2.4,Linux x86_64,60.24096386,6711e09a6906af2fa5b782bd,68817205a84113384fffdfe3,6898e5e69f020e1e52772fe5,,,,,,,,,,,,,0,,,,,,,,,,,,,,,,,,,,,,,,505.6452,514.9661,0,1,8.7825,,514.9663,515.9655,0,4,4,4,1,0,joten,REAL,FAKE,,,,,,,,,,,,,,,,,,,,,,,,,,,,,,,,
,,,,,,,,,6711e09a6906af2fa5b782bd,Mexican ,13 or older,"yes, I am fluent in another language",no,2025-08-10_14h34.18.304,empathy_intonation_perc_control,2024.2.4,Linux x86_64,60.24096386,6711e09a6906af2fa5b782bd,68817205a84113384fffdfe3,6898e5e69f020e1e52772fe5,,,,,,,,,,,,,1,,,,,,,,,,,,,,,,,,,,,,,,515.9702,519.7782,1,1,3.2753,,519.7785,520.777,0,5,5,5,1,0,sacapuntas,REAL,FAKE,,,,,,,,,,,,,,,,,,,,,,,,,,,,,,,,
,,,,,,,,,6711e09a6906af2fa5b782bd,Mexican ,13 or older,"yes, I am fluent in another language",no,2025-08-10_14h34.18.304,empathy_intonation_perc_control,2024.2.4,Linux x86_64,60.24096386,6711e09a6906af2fa5b782bd,68817205a84113384fffdfe3,6898e5e69f020e1e52772fe5,,,,,,,,,,,,,0,,,,,,,,,,,,,,,,,,,,,,,,520.7783,525.2903,0,1,3.967,,525.2904,526.289,0,6,6,6,1,0,priba,REAL,FAKE,,,,,,,,,,,,,,,,,,,,,,,,,,,,,,,,
,,,,,,,,,6711e09a6906af2fa5b782bd,Mexican ,13 or older,"yes, I am fluent in another language",no,2025-08-10_14h34.18.304,empathy_intonation_perc_control,2024.2.4,Linux x86_64,60.24096386,6711e09a6906af2fa5b782bd,68817205a84113384fffdfe3,6898e5e69f020e1e52772fe5,,,,,,,,,,,,,0,,,,,,,,,,,,,,,,,,,,,,,,526.2903,538.1766,0,1,11.3487,,538.1767,539.1767,0,7,7,7,1,0,pelasula,REAL,FAKE,,,,,,,,,,,,,,,,,,,,,,,,,,,,,,,,
,,,,,,,,,6711e09a6906af2fa5b782bd,Mexican ,13 or older,"yes, I am fluent in another language",no,2025-08-10_14h34.18.304,empathy_intonation_perc_control,2024.2.4,Linux x86_64,60.24096386,6711e09a6906af2fa5b782bd,68817205a84113384fffdfe3,6898e5e69f020e1e52772fe5,,,,,,,,,,,,,1,,,,,,,,,,,,,,,,,,,,,,,,539.1796,540.8261,1,1,1.1143,,540.8263,541.8237,0,8,8,8,1,0,bien,REAL,FAKE,,,,,,,,,,,,,,,,,,,,,,,,,,,,,,,,
,,,,,,,,,6711e09a6906af2fa5b782bd,Mexican ,13 or older,"yes, I am fluent in another language",no,2025-08-10_14h34.18.304,empathy_intonation_perc_control,2024.2.4,Linux x86_64,60.24096386,6711e09a6906af2fa5b782bd,68817205a84113384fffdfe3,6898e5e69f020e1e52772fe5,,,,,,,,,,,,,1,,,,,,,,,,,,,,,,,,,,,,,,541.8268,543.6228,1,1,1.2644,,543.6229,544.6206,0,9,9,9,1,0,casa,REAL,FAKE,,,,,,,,,,,,,,,,,,,,,,,,,,,,,,,,
,,,,,,,,,6711e09a6906af2fa5b782bd,Mexican ,13 or older,"yes, I am fluent in another language",no,2025-08-10_14h34.18.304,empathy_intonation_perc_control,2024.2.4,Linux x86_64,60.24096386,6711e09a6906af2fa5b782bd,68817205a84113384fffdfe3,6898e5e69f020e1e52772fe5,,,,,,,,,,,,,0,,,,,,,,,,,,,,,,,,,,,,,,544.622,547.1011,1,0,1.9407,,547.1021,548.1007,0,10,10,10,1,0,lejo,REAL,FAKE,,,,,,,,,,,,,,,,,,,,,,,,,,,,,,,,
,,,,,,,,,6711e09a6906af2fa5b782bd,Mexican ,13 or older,"yes, I am fluent in another language",no,2025-08-10_14h34.18.304,empathy_intonation_perc_control,2024.2.4,Linux x86_64,60.24096386,6711e09a6906af2fa5b782bd,68817205a84113384fffdfe3,6898e5e69f020e1e52772fe5,,,,,,,,,,,,,0,,,,,,,,,,,,,,,,,,,,,,,,548.1027,560.8882,0,1,12.2572,,560.8891,561.8868,0,11,11,11,1,0,pretantas,REAL,FAKE,,,,,,,,,,,,,,,,,,,,,,,,,,,,,,,,
,,,,,,,,,6711e09a6906af2fa5b782bd,Mexican ,13 or older,"yes, I am fluent in another language",no,2025-08-10_14h34.18.304,empathy_intonation_perc_control,2024.2.4,Linux x86_64,60.24096386,6711e09a6906af2fa5b782bd,68817205a84113384fffdfe3,6898e5e69f020e1e52772fe5,,,,,,,,,,,,,,,,,,,,,,,,,,,,,,,,,,,,,,,,,,,,,,,,,,,,,,561.8872,563.904,,,,,,,,,,,,,,,,,,,,,,,,,,,,,,
,,,,,,,,,6711e09a6906af2fa5b782bd,Mexican ,13 or older,"yes, I am fluent in another language",no,2025-08-10_14h34.18.304,empathy_intonation_perc_control,2024.2.4,Linux x86_64,60.24096386,6711e09a6906af2fa5b782bd,68817205a84113384fffdfe3,6898e5e69f020e1e52772fe5,,,,,,,,,,,,,1,,,,,,,,,,,,,,,,,,,,,,,,,,,,,,,,,,,,,25,bisagra,,,,,563.9466,577.739,0,0,13.2612,,0,0,0,24,1,REAL,FAKE,,,,,,,,,,,,,,,,,
,,,,,,,,,6711e09a6906af2fa5b782bd,Mexican ,13 or older,"yes, I am fluent in another language",no,2025-08-10_14h34.18.304,empathy_intonation_perc_control,2024.2.4,Linux x86_64,60.24096386,6711e09a6906af2fa5b782bd,68817205a84113384fffdfe3,6898e5e69f020e1e52772fe5,,,,,,,,,,,,,1,,,,,,,,,,,,,,,,,,,,,,,,,,,,,,,,,,,,,90,clavel,,,,,577.7407,587.2462,1,1,8.9685,,0,1,1,89,1,REAL,FAKE,,,,,,,,,,,,,,,,,
,,,,,,,,,6711e09a6906af2fa5b782bd,Mexican ,13 or older,"yes, I am fluent in another language",no,2025-08-10_14h34.18.304,empathy_intonation_perc_control,2024.2.4,Linux x86_64,60.24096386,6711e09a6906af2fa5b782bd,68817205a84113384fffdfe3,6898e5e69f020e1e52772fe5,,,,,,,,,,,,,1,,,,,,,,,,,,,,,,,,,,,,,,,,,,,,,,,,,,,7,pésimo,,,,,587.2476,596.2367,0,0,8.4549,,0,2,2,6,1,REAL,FAKE,,,,,,,,,,,,,,,,,
,,,,,,,,,6711e09a6906af2fa5b782bd,Mexican ,13 or older,"yes, I am fluent in another language",no,2025-08-10_14h34.18.304,empathy_intonation_perc_control,2024.2.4,Linux x86_64,60.24096386,6711e09a6906af2fa5b782bd,68817205a84113384fffdfe3,6898e5e69f020e1e52772fe5,,,,,,,,,,,,,1,,,,,,,,,,,,,,,,,,,,,,,,,,,,,,,,,,,,,91,click the 1 key.,,,,,596.2382,600.0164,1,1,3.236,,0,3,3,90,1,REAL,FAKE,,,,,,,,,,,,,,,,,
,,,,,,,,,6711e09a6906af2fa5b782bd,Mexican ,13 or older,"yes, I am fluent in another language",no,2025-08-10_14h34.18.304,empathy_intonation_perc_control,2024.2.4,Linux x86_64,60.24096386,6711e09a6906af2fa5b782bd,68817205a84113384fffdfe3,6898e5e69f020e1e52772fe5,,,,,,,,,,,,,0,,,,,,,,,,,,,,,,,,,,,,,,,,,,,,,,,,,,,35,rompido,,,,,600.0176,611.0728,0,1,10.5183,,0,4,4,34,1,REAL,FAKE,,,,,,,,,,,,,,,,,
,,,,,,,,,6711e09a6906af2fa5b782bd,Mexican ,13 or older,"yes, I am fluent in another language",no,2025-08-10_14h34.18.304,empathy_intonation_perc_control,2024.2.4,Linux x86_64,60.24096386,6711e09a6906af2fa5b782bd,68817205a84113384fffdfe3,6898e5e69f020e1e52772fe5,,,,,,,,,,,,,0,,,,,,,,,,,,,,,,,,,,,,,,,,,,,,,,,,,,,1,terzo,,,,,611.076,618.4149,0,1,6.7988,,0,5,5,0,1,REAL,FAKE,,,,,,,,,,,,,,,,,
,,,,,,,,,6711e09a6906af2fa5b782bd,Mexican ,13 or older,"yes, I am fluent in another language",no,2025-08-10_14h34.18.304,empathy_intonation_perc_control,2024.2.4,Linux x86_64,60.24096386,6711e09a6906af2fa5b782bd,68817205a84113384fffdfe3,6898e5e69f020e1e52772fe5,,,,,,,,,,,,,1,,,,,,,,,,,,,,,,,,,,,,,,,,,,,,,,,,,,,5,zapato,,,,,618.4165,620.5628,1,1,1.6036,,0,6,6,4,1,REAL,FAKE,,,,,,,,,,,,,,,,,
,,,,,,,,,6711e09a6906af2fa5b782bd,Mexican ,13 or older,"yes, I am fluent in another language",no,2025-08-10_14h34.18.304,empathy_intonation_perc_control,2024.2.4,Linux x86_64,60.24096386,6711e09a6906af2fa5b782bd,68817205a84113384fffdfe3,6898e5e69f020e1e52772fe5,,,,,,,,,,,,,1,,,,,,,,,,,,,,,,,,,,,,,,,,,,,,,,,,,,,85,laúd,,,,,620.5641,628.8735,0,0,7.7905,,0,7,7,84,1,REAL,FAKE,,,,,,,,,,,,,,,,,
,,,,,,,,,6711e09a6906af2fa5b782bd,Mexican ,13 or older,"yes, I am fluent in another language",no,2025-08-10_14h34.18.304,empathy_intonation_perc_control,2024.2.4,Linux x86_64,60.24096386,6711e09a6906af2fa5b782bd,68817205a84113384fffdfe3,6898e5e69f020e1e52772fe5,,,,,,,,,,,,,1,,,,,,,,,,,,,,,,,,,,,,,,,,,,,,,,,,,,,40,alfombra,,,,,628.8767,643.1903,0,0,13.7823,,0,8,8,39,1,REAL,FAKE,,,,,,,,,,,,,,,,,
,,,,,,,,,6711e09a6906af2fa5b782bd,Mexican ,13 or older,"yes, I am fluent in another language",no,2025-08-10_14h34.18.304,empathy_intonation_perc_control,2024.2.4,Linux x86_64,60.24096386,6711e09a6906af2fa5b782bd,68817205a84113384fffdfe3,6898e5e69f020e1e52772fe5,,,,,,,,,,,,,1,,,,,,,,,,,,,,,,,,,,,,,,,,,,,,,,,,,,,24,látigo,,,,,643.1917,657.5932,0,0,13.8637,,0,9,9,23,1,REAL,FAKE,,,,,,,,,,,,,,,,,
,,,,,,,,,6711e09a6906af2fa5b782bd,Mexican ,13 or older,"yes, I am fluent in another language",no,2025-08-10_14h34.18.304,empathy_intonation_perc_control,2024.2.4,Linux x86_64,60.24096386,6711e09a6906af2fa5b782bd,68817205a84113384fffdfe3,6898e5e69f020e1e52772fe5,,,,,,,,,,,,,0,,,,,,,,,,,,,,,,,,,,,,,,,,,,,,,,,,,,,42,cadallo,,,,,657.5944,673.6784,0,1,15.5433,,0,10,10,41,1,REAL,FAKE,,,,,,,,,,,,,,,,,
,,,,,,,,,6711e09a6906af2fa5b782bd,Mexican ,13 or older,"yes, I am fluent in another language",no,2025-08-10_14h34.18.304,empathy_intonation_perc_control,2024.2.4,Linux x86_64,60.24096386,6711e09a6906af2fa5b782bd,68817205a84113384fffdfe3,6898e5e69f020e1e52772fe5,,,,,,,,,,,,,0,,,,,,,,,,,,,,,,,,,,,,,,,,,,,,,,,,,,,23,lampera,,,,,673.6812,685.0164,0,1,10.7949,,0,11,11,22,1,REAL,FAKE,,,,,,,,,,,,,,,,,
,,,,,,,,,6711e09a6906af2fa5b782bd,Mexican ,13 or older,"yes, I am fluent in another language",no,2025-08-10_14h34.18.304,empathy_intonation_perc_control,2024.2.4,Linux x86_64,60.24096386,6711e09a6906af2fa5b782bd,68817205a84113384fffdfe3,6898e5e69f020e1e52772fe5,,,,,,,,,,,,,1,,,,,,,,,,,,,,,,,,,,,,,,,,,,,,,,,,,,,76,atar,,,,,685.0177,695.5898,0,0,10.03,,0,12,12,75,1,REAL,FAKE,,,,,,,,,,,,,,,,,
,,,,,,,,,6711e09a6906af2fa5b782bd,Mexican ,13 or older,"yes, I am fluent in another language",no,2025-08-10_14h34.18.304,empathy_intonation_perc_control,2024.2.4,Linux x86_64,60.24096386,6711e09a6906af2fa5b782bd,68817205a84113384fffdfe3,6898e5e69f020e1e52772fe5,,,,,,,,,,,,,1,,,,,,,,,,,,,,,,,,,,,,,,,,,,,,,,,,,,,26,secuestro,,,,,695.5924,719.983,1,1,23.8512,,0,13,13,25,1,REAL,FAKE,,,,,,,,,,,,,,,,,
,,,,,,,,,6711e09a6906af2fa5b782bd,Mexican ,13 or older,"yes, I am fluent in another language",no,2025-08-10_14h34.18.304,empathy_intonation_perc_control,2024.2.4,Linux x86_64,60.24096386,6711e09a6906af2fa5b782bd,68817205a84113384fffdfe3,6898e5e69f020e1e52772fe5,,,,,,,,,,,,,0,,,,,,,,,,,,,,,,,,,,,,,,,,,,,,,,,,,,,72,pemición,,,,,719.9868,753.7326,1,0,33.2126,,0,14,14,71,1,REAL,FAKE,,,,,,,,,,,,,,,,,
,,,,,,,,,6711e09a6906af2fa5b782bd,Mexican ,13 or older,"yes, I am fluent in another language",no,2025-08-10_14h34.18.304,empathy_intonation_perc_control,2024.2.4,Linux x86_64,60.24096386,6711e09a6906af2fa5b782bd,68817205a84113384fffdfe3,6898e5e69f020e1e52772fe5,,,,,,,,,,,,,0,,,,,,,,,,,,,,,,,,,,,,,,,,,,,,,,,,,,,82,empirador,,,,,753.734,774.064,1,0,19.786,,0,15,15,81,1,REAL,FAKE,,,,,,,,,,,,,,,,,
,,,,,,,,,6711e09a6906af2fa5b782bd,Mexican ,13 or older,"yes, I am fluent in another language",no,2025-08-10_14h34.18.304,empathy_intonation_perc_control,2024.2.4,Linux x86_64,60.24096386,6711e09a6906af2fa5b782bd,68817205a84113384fffdfe3,6898e5e69f020e1e52772fe5,,,,,,,,,,,,,1,,,,,,,,,,,,,,,,,,,,,,,,,,,,,,,,,,,,,71,polvoriento,,,,,774.0681,789.6474,1,1,15.047,,0,16,16,70,1,REAL,FAKE,,,,,,,,,,,,,,,,,
,,,,,,,,,6711e09a6906af2fa5b782bd,Mexican ,13 or older,"yes, I am fluent in another language",no,2025-08-10_14h34.18.304,empathy_intonation_perc_control,2024.2.4,Linux x86_64,60.24096386,6711e09a6906af2fa5b782bd,68817205a84113384fffdfe3,6898e5e69f020e1e52772fe5,,,,,,,,,,,,,1,,,,,,,,,,,,,,,,,,,,,,,,,,,,,,,,,,,,,65,bizcocho,,,,,789.6486,804.666,1,1,14.4836,,0,17,17,64,1,REAL,FAKE,,,,,,,,,,,,,,,,,
,,,,,,,,,6711e09a6906af2fa5b782bd,Mexican ,13 or older,"yes, I am fluent in another language",no,2025-08-10_14h34.18.304,empathy_intonation_perc_control,2024.2.4,Linux x86_64,60.24096386,6711e09a6906af2fa5b782bd,68817205a84113384fffdfe3,6898e5e69f020e1e52772fe5,,,,,,,,,,,,,1,,,,,,,,,,,,,,,,,,,,,,,,,,,,,,,,,,,,,55,nevar,,,,,804.6672,823.3653,1,1,18.1594,,0,18,18,54,1,REAL,FAKE,,,,,,,,,,,,,,,,,
,,,,,,,,,6711e09a6906af2fa5b782bd,Mexican ,13 or older,"yes, I am fluent in another language",no,2025-08-10_14h34.18.304,empathy_intonation_perc_control,2024.2.4,Linux x86_64,60.24096386,6711e09a6906af2fa5b782bd,68817205a84113384fffdfe3,6898e5e69f020e1e52772fe5,,,,,,,,,,,,,1,,,,,,,,,,,,,,,,,,,,,,,,,,,,,,,,,,,,,15,regar,,,,,823.3667,840.8807,1,1,16.9692,,0,19,19,14,1,REAL,FAKE,,,,,,,,,,,,,,,,,
,,,,,,,,,6711e09a6906af2fa5b782bd,Mexican ,13 or older,"yes, I am fluent in another language",no,2025-08-10_14h34.18.304,empathy_intonation_perc_control,2024.2.4,Linux x86_64,60.24096386,6711e09a6906af2fa5b782bd,68817205a84113384fffdfe3,6898e5e69f020e1e52772fe5,,,,,,,,,,,,,1,,,,,,,,,,,,,,,,,,,,,,,,,,,,,,,,,,,,,52,camisa,,,,,840.8822,848.5404,1,1,7.1185,,0,20,20,51,1,REAL,FAKE,,,,,,,,,,,,,,,,,
,,,,,,,,,6711e09a6906af2fa5b782bd,Mexican ,13 or older,"yes, I am fluent in another language",no,2025-08-10_14h34.18.304,empathy_intonation_perc_control,2024.2.4,Linux x86_64,60.24096386,6711e09a6906af2fa5b782bd,68817205a84113384fffdfe3,6898e5e69f020e1e52772fe5,,,,,,,,,,,,,0,,,,,,,,,,,,,,,,,,,,,,,,,,,,,,,,,,,,,18,arsa,,,,,848.5418,857.1826,0,1,8.1015,,0,21,21,17,1,REAL,FAKE,,,,,,,,,,,,,,,,,
,,,,,,,,,6711e09a6906af2fa5b782bd,Mexican ,13 or older,"yes, I am fluent in another language",no,2025-08-10_14h34.18.304,empathy_intonation_perc_control,2024.2.4,Linux x86_64,60.24096386,6711e09a6906af2fa5b782bd,68817205a84113384fffdfe3,6898e5e69f020e1e52772fe5,,,,,,,,,,,,,1,,,,,,,,,,,,,,,,,,,,,,,,,,,,,,,,,,,,,39,torpe,,,,,857.1855,864.8405,1,1,7.1198,,0,22,22,38,1,REAL,FAKE,,,,,,,,,,,,,,,,,
,,,,,,,,,6711e09a6906af2fa5b782bd,Mexican ,13 or older,"yes, I am fluent in another language",no,2025-08-10_14h34.18.304,empathy_intonation_perc_control,2024.2.4,Linux x86_64,60.24096386,6711e09a6906af2fa5b782bd,68817205a84113384fffdfe3,6898e5e69f020e1e52772fe5,,,,,,,,,,,,,0,,,,,,,,,,,,,,,,,,,,,,,,,,,,,,,,,,,,,70,temblo,,,,,864.8421,876.912,0,1,11.5374,,0,23,23,69,1,REAL,FAKE,,,,,,,,,,,,,,,,,
,,,,,,,,,6711e09a6906af2fa5b782bd,Mexican ,13 or older,"yes, I am fluent in another language",no,2025-08-10_14h34.18.304,empathy_intonation_perc_control,2024.2.4,Linux x86_64,60.24096386,6711e09a6906af2fa5b782bd,68817205a84113384fffdfe3,6898e5e69f020e1e52772fe5,,,,,,,,,,,,,0,,,,,,,,,,,,,,,,,,,,,,,,,,,,,,,,,,,,,87,grodo,,,,,876.9132,885.3212,0,1,7.8669,,0,24,24,86,1,REAL,FAKE,,,,,,,,,,,,,,,,,
,,,,,,,,,6711e09a6906af2fa5b782bd,Mexican ,13 or older,"yes, I am fluent in another language",no,2025-08-10_14h34.18.304,empathy_intonation_perc_control,2024.2.4,Linux x86_64,60.24096386,6711e09a6906af2fa5b782bd,68817205a84113384fffdfe3,6898e5e69f020e1e52772fe5,,,,,,,,,,,,,0,,,,,,,,,,,,,,,,,,,,,,,,,,,,,,,,,,,,,92,click the 0 key.,,,,,885.3227,887.4359,0,1,1.573,,0,25,25,91,1,REAL,FAKE,,,,,,,,,,,,,,,,,
,,,,,,,,,6711e09a6906af2fa5b782bd,Mexican ,13 or older,"yes, I am fluent in another language",no,2025-08-10_14h34.18.304,empathy_intonation_perc_control,2024.2.4,Linux x86_64,60.24096386,6711e09a6906af2fa5b782bd,68817205a84113384fffdfe3,6898e5e69f020e1e52772fe5,,,,,,,,,,,,,0,,,,,,,,,,,,,,,,,,,,,,,,,,,,,,,,,,,,,30,alardio,,,,,887.4396,902.0049,1,0,14.0318,,0,26,26,29,1,REAL,FAKE,,,,,,,,,,,,,,,,,
,,,,,,,,,6711e09a6906af2fa5b782bd,Mexican ,13 or older,"yes, I am fluent in another language",no,2025-08-10_14h34.18.304,empathy_intonation_perc_control,2024.2.4,Linux x86_64,60.24096386,6711e09a6906af2fa5b782bd,68817205a84113384fffdfe3,6898e5e69f020e1e52772fe5,,,,,,,,,,,,,1,,,,,,,,,,,,,,,,,,,,,,,,,,,,,,,,,,,,,43,canela,,,,,902.0074,905.001,0,0,2.4605,,0,27,27,42,1,REAL,FAKE,,,,,,,,,,,,,,,,,
,,,,,,,,,6711e09a6906af2fa5b782bd,Mexican ,13 or older,"yes, I am fluent in another language",no,2025-08-10_14h34.18.304,empathy_intonation_perc_control,2024.2.4,Linux x86_64,60.24096386,6711e09a6906af2fa5b782bd,68817205a84113384fffdfe3,6898e5e69f020e1e52772fe5,,,,,,,,,,,,,1,,,,,,,,,,,,,,,,,,,,,,,,,,,,,,,,,,,,,62,flaco,,,,,905.0022,918.7724,1,1,13.2313,,0,28,28,61,1,REAL,FAKE,,,,,,,,,,,,,,,,,
,,,,,,,,,6711e09a6906af2fa5b782bd,Mexican ,13 or older,"yes, I am fluent in another language",no,2025-08-10_14h34.18.304,empathy_intonation_perc_control,2024.2.4,Linux x86_64,60.24096386,6711e09a6906af2fa5b782bd,68817205a84113384fffdfe3,6898e5e69f020e1e52772fe5,,,,,,,,,,,,,0,,,,,,,,,,,,,,,,,,,,,,,,,,,,,,,,,,,,,53,vegada,,,,,918.7751,927.0972,0,1,7.7894,,0,29,29,52,1,REAL,FAKE,,,,,,,,,,,,,,,,,
,,,,,,,,,6711e09a6906af2fa5b782bd,Mexican ,13 or older,"yes, I am fluent in another language",no,2025-08-10_14h34.18.304,empathy_intonation_perc_control,2024.2.4,Linux x86_64,60.24096386,6711e09a6906af2fa5b782bd,68817205a84113384fffdfe3,6898e5e69f020e1e52772fe5,,,,,,,,,,,,,1,,,,,,,,,,,,,,,,,,,,,,,,,,,,,,,,,,,,,60,matar,,,,,927.1011,935.0052,1,1,7.3638,,0,30,30,59,1,REAL,FAKE,,,,,,,,,,,,,,,,,
,,,,,,,,,6711e09a6906af2fa5b782bd,Mexican ,13 or older,"yes, I am fluent in another language",no,2025-08-10_14h34.18.304,empathy_intonation_perc_control,2024.2.4,Linux x86_64,60.24096386,6711e09a6906af2fa5b782bd,68817205a84113384fffdfe3,6898e5e69f020e1e52772fe5,,,,,,,,,,,,,1,,,,,,,,,,,,,,,,,,,,,,,,,,,,,,,,,,,,,83,guante,,,,,935.0063,948.0591,1,1,12.5161,,0,31,31,82,1,REAL,FAKE,,,,,,,,,,,,,,,,,
,,,,,,,,,6711e09a6906af2fa5b782bd,Mexican ,13 or older,"yes, I am fluent in another language",no,2025-08-10_14h34.18.304,empathy_intonation_perc_control,2024.2.4,Linux x86_64,60.24096386,6711e09a6906af2fa5b782bd,68817205a84113384fffdfe3,6898e5e69f020e1e52772fe5,,,,,,,,,,,,,1,,,,,,,,,,,,,,,,,,,,,,,,,,,,,,,,,,,,,64,orgulloso,,,,,948.0603,951.4391,0,0,2.8317,,0,32,32,63,1,REAL,FAKE,,,,,,,,,,,,,,,,,
,,,,,,,,,6711e09a6906af2fa5b782bd,Mexican ,13 or older,"yes, I am fluent in another language",no,2025-08-10_14h34.18.304,empathy_intonation_perc_control,2024.2.4,Linux x86_64,60.24096386,6711e09a6906af2fa5b782bd,68817205a84113384fffdfe3,6898e5e69f020e1e52772fe5,,,,,,,,,,,,,1,,,,,,,,,,,,,,,,,,,,,,,,,,,,,,,,,,,,,67,cabello,,,,,951.4402,953.8039,1,1,1.8327,,0,33,33,66,1,REAL,FAKE,,,,,,,,,,,,,,,,,
,,,,,,,,,6711e09a6906af2fa5b782bd,Mexican ,13 or older,"yes, I am fluent in another language",no,2025-08-10_14h34.18.304,empathy_intonation_perc_control,2024.2.4,Linux x86_64,60.24096386,6711e09a6906af2fa5b782bd,68817205a84113384fffdfe3,6898e5e69f020e1e52772fe5,,,,,,,,,,,,,1,,,,,,,,,,,,,,,,,,,,,,,,,,,,,,,,,,,,,44,cuchara,,,,,953.8064,965.1757,1,1,10.8347,,0,34,34,43,1,REAL,FAKE,,,,,,,,,,,,,,,,,
,,,,,,,,,6711e09a6906af2fa5b782bd,Mexican ,13 or older,"yes, I am fluent in another language",no,2025-08-10_14h34.18.304,empathy_intonation_perc_control,2024.2.4,Linux x86_64,60.24096386,6711e09a6906af2fa5b782bd,68817205a84113384fffdfe3,6898e5e69f020e1e52772fe5,,,,,,,,,,,,,1,,,,,,,,,,,,,,,,,,,,,,,,,,,,,,,,,,,,,81,pozo,,,,,965.1774,974.8513,0,0,9.1373,,0,35,35,80,1,REAL,FAKE,,,,,,,,,,,,,,,,,
,,,,,,,,,6711e09a6906af2fa5b782bd,Mexican ,13 or older,"yes, I am fluent in another language",no,2025-08-10_14h34.18.304,empathy_intonation_perc_control,2024.2.4,Linux x86_64,60.24096386,6711e09a6906af2fa5b782bd,68817205a84113384fffdfe3,6898e5e69f020e1e52772fe5,,,,,,,,,,,,,1,,,,,,,,,,,,,,,,,,,,,,,,,,,,,,,,,,,,,28,merodear,,,,,974.855,988.6199,1,1,13.2346,,0,36,36,27,1,REAL,FAKE,,,,,,,,,,,,,,,,,
,,,,,,,,,6711e09a6906af2fa5b782bd,Mexican ,13 or older,"yes, I am fluent in another language",no,2025-08-10_14h34.18.304,empathy_intonation_perc_control,2024.2.4,Linux x86_64,60.24096386,6711e09a6906af2fa5b782bd,68817205a84113384fffdfe3,6898e5e69f020e1e52772fe5,,,,,,,,,,,,,1,,,,,,,,,,,,,,,,,,,,,,,,,,,,,,,,,,,,,61,seda,,,,,988.6231,997.6942,1,1,8.5385,,0,37,37,60,1,REAL,FAKE,,,,,,,,,,,,,,,,,
,,,,,,,,,6711e09a6906af2fa5b782bd,Mexican ,13 or older,"yes, I am fluent in another language",no,2025-08-10_14h34.18.304,empathy_intonation_perc_control,2024.2.4,Linux x86_64,60.24096386,6711e09a6906af2fa5b782bd,68817205a84113384fffdfe3,6898e5e69f020e1e52772fe5,,,,,,,,,,,,,1,,,,,,,,,,,,,,,,,,,,,,,,,,,,,,,,,,,,,14,yunque,,,,,997.6974,999.9432,0,0,1.7142,,0,38,38,13,1,REAL,FAKE,,,,,,,,,,,,,,,,,
,,,,,,,,,6711e09a6906af2fa5b782bd,Mexican ,13 or older,"yes, I am fluent in another language",no,2025-08-10_14h34.18.304,empathy_intonation_perc_control,2024.2.4,Linux x86_64,60.24096386,6711e09a6906af2fa5b782bd,68817205a84113384fffdfe3,6898e5e69f020e1e52772fe5,,,,,,,,,,,,,1,,,,,,,,,,,,,,,,,,,,,,,,,,,,,,,,,,,,,88,acantilado,,,,,999.9459,1013.7298,1,1,13.2564,,0,39,39,87,1,REAL,FAKE,,,,,,,,,,,,,,,,,
,,,,,,,,,6711e09a6906af2fa5b782bd,Mexican ,13 or older,"yes, I am fluent in another language",no,2025-08-10_14h34.18.304,empathy_intonation_perc_control,2024.2.4,Linux x86_64,60.24096386,6711e09a6906af2fa5b782bd,68817205a84113384fffdfe3,6898e5e69f020e1e52772fe5,,,,,,,,,,,,,0,,,,,,,,,,,,,,,,,,,,,,,,,,,,,,,,,,,,,84,escuto,,,,,1013.7327,1015.9772,1,0,1.7119,,0,40,40,83,1,REAL,FAKE,,,,,,,,,,,,,,,,,
,,,,,,,,,6711e09a6906af2fa5b782bd,Mexican ,13 or older,"yes, I am fluent in another language",no,2025-08-10_14h34.18.304,empathy_intonation_perc_control,2024.2.4,Linux x86_64,60.24096386,6711e09a6906af2fa5b782bd,68817205a84113384fffdfe3,6898e5e69f020e1e52772fe5,,,,,,,,,,,,,1,,,,,,,,,,,,,,,,,,,,,,,,,,,,,,,,,,,,,22,lacayo,,,,,1015.9797,1030.9796,0,0,14.4684,,0,41,41,21,1,REAL,FAKE,,,,,,,,,,,,,,,,,
,,,,,,,,,6711e09a6906af2fa5b782bd,Mexican ,13 or older,"yes, I am fluent in another language",no,2025-08-10_14h34.18.304,empathy_intonation_perc_control,2024.2.4,Linux x86_64,60.24096386,6711e09a6906af2fa5b782bd,68817205a84113384fffdfe3,6898e5e69f020e1e52772fe5,,,,,,,,,,,,,1,,,,,,,,,,,,,,,,,,,,,,,,,,,,,,,,,,,,,2,pellizcar,,,,,1030.9814,1046.6799,0,0,15.1553,,0,42,42,1,1,REAL,FAKE,,,,,,,,,,,,,,,,,
,,,,,,,,,6711e09a6906af2fa5b782bd,Mexican ,13 or older,"yes, I am fluent in another language",no,2025-08-10_14h34.18.304,empathy_intonation_perc_control,2024.2.4,Linux x86_64,60.24096386,6711e09a6906af2fa5b782bd,68817205a84113384fffdfe3,6898e5e69f020e1e52772fe5,,,,,,,,,,,,,0,,,,,,,,,,,,,,,,,,,,,,,,,,,,,,,,,,,,,47,cartinar,,,,,1046.6829,1067.0431,0,1,19.8264,,0,43,43,46,1,REAL,FAKE,,,,,,,,,,,,,,,,,
,,,,,,,,,6711e09a6906af2fa5b782bd,Mexican ,13 or older,"yes, I am fluent in another language",no,2025-08-10_14h34.18.304,empathy_intonation_perc_control,2024.2.4,Linux x86_64,60.24096386,6711e09a6906af2fa5b782bd,68817205a84113384fffdfe3,6898e5e69f020e1e52772fe5,,,,,,,,,,,,,1,,,,,,,,,,,,,,,,,,,,,,,,,,,,,,,,,,,,,77,tiburón,,,,,1067.045,1088.8545,0,0,21.2717,,0,44,44,76,1,REAL,FAKE,,,,,,,,,,,,,,,,,
,,,,,,,,,6711e09a6906af2fa5b782bd,Mexican ,13 or older,"yes, I am fluent in another language",no,2025-08-10_14h34.18.304,empathy_intonation_perc_control,2024.2.4,Linux x86_64,60.24096386,6711e09a6906af2fa5b782bd,68817205a84113384fffdfe3,6898e5e69f020e1e52772fe5,,,,,,,,,,,,,0,,,,,,,,,,,,,,,,,,,,,,,,,,,,,,,,,,,,,17,floroso,,,,,1088.8558,1111.9182,0,1,22.5307,,0,45,45,16,1,REAL,FAKE,,,,,,,,,,,,,,,,,
,,,,,,,,,6711e09a6906af2fa5b782bd,Mexican ,13 or older,"yes, I am fluent in another language",no,2025-08-10_14h34.18.304,empathy_intonation_perc_control,2024.2.4,Linux x86_64,60.24096386,6711e09a6906af2fa5b782bd,68817205a84113384fffdfe3,6898e5e69f020e1e52772fe5,,,,,,,,,,,,,1,,,,,,,,,,,,,,,,,,,,,,,,,,,,,,,,,,,,,9,hacha,,,,,1111.9231,1118.859,1,1,6.4009,,0,46,46,8,1,REAL,FAKE,,,,,,,,,,,,,,,,,
,,,,,,,,,6711e09a6906af2fa5b782bd,Mexican ,13 or older,"yes, I am fluent in another language",no,2025-08-10_14h34.18.304,empathy_intonation_perc_control,2024.2.4,Linux x86_64,60.24096386,6711e09a6906af2fa5b782bd,68817205a84113384fffdfe3,6898e5e69f020e1e52772fe5,,,,,,,,,,,,,1,,,,,,,,,,,,,,,,,,,,,,,,,,,,,,,,,,,,,68,alegre,,,,,1118.8603,1137.5072,1,1,18.1094,,0,47,47,67,1,REAL,FAKE,,,,,,,,,,,,,,,,,
,,,,,,,,,6711e09a6906af2fa5b782bd,Mexican ,13 or older,"yes, I am fluent in another language",no,2025-08-10_14h34.18.304,empathy_intonation_perc_control,2024.2.4,Linux x86_64,60.24096386,6711e09a6906af2fa5b782bd,68817205a84113384fffdfe3,6898e5e69f020e1e52772fe5,,,,,,,,,,,,,1,,,,,,,,,,,,,,,,,,,,,,,,,,,,,,,,,,,,,36,loro,,,,,1137.5086,1145.017,1,1,6.9688,,0,48,48,35,1,REAL,FAKE,,,,,,,,,,,,,,,,,
,,,,,,,,,6711e09a6906af2fa5b782bd,Mexican ,13 or older,"yes, I am fluent in another language",no,2025-08-10_14h34.18.304,empathy_intonation_perc_control,2024.2.4,Linux x86_64,60.24096386,6711e09a6906af2fa5b782bd,68817205a84113384fffdfe3,6898e5e69f020e1e52772fe5,,,,,,,,,,,,,0,,,,,,,,,,,,,,,,,,,,,,,,,,,,,,,,,,,,,29,decar,,,,,1145.0194,1153.8623,0,1,8.3104,,0,49,49,28,1,REAL,FAKE,,,,,,,,,,,,,,,,,
,,,,,,,,,6711e09a6906af2fa5b782bd,Mexican ,13 or older,"yes, I am fluent in another language",no,2025-08-10_14h34.18.304,empathy_intonation_perc_control,2024.2.4,Linux x86_64,60.24096386,6711e09a6906af2fa5b782bd,68817205a84113384fffdfe3,6898e5e69f020e1e52772fe5,,,,,,,,,,,,,1,,,,,,,,,,,,,,,,,,,,,,,,,,,,,,,,,,,,,51,candado,,,,,1153.8661,1159.1027,1,1,4.6994,,0,50,50,50,1,REAL,FAKE,,,,,,,,,,,,,,,,,
,,,,,,,,,6711e09a6906af2fa5b782bd,Mexican ,13 or older,"yes, I am fluent in another language",no,2025-08-10_14h34.18.304,empathy_intonation_perc_control,2024.2.4,Linux x86_64,60.24096386,6711e09a6906af2fa5b782bd,68817205a84113384fffdfe3,6898e5e69f020e1e52772fe5,,,,,,,,,,,,,0,,,,,,,,,,,,,,,,,,,,,,,,,,,,,,,,,,,,,74,cintro,,,,,1159.1041,1176.169,0,1,16.5308,,0,51,51,73,1,REAL,FAKE,,,,,,,,,,,,,,,,,
,,,,,,,,,6711e09a6906af2fa5b782bd,Mexican ,13 or older,"yes, I am fluent in another language",no,2025-08-10_14h34.18.304,empathy_intonation_perc_control,2024.2.4,Linux x86_64,60.24096386,6711e09a6906af2fa5b782bd,68817205a84113384fffdfe3,6898e5e69f020e1e52772fe5,,,,,,,,,,,,,1,,,,,,,,,,,,,,,,,,,,,,,,,,,,,,,,,,,,,89,prisa,,,,,1176.1704,1179.3327,1,1,2.6239,,0,52,52,88,1,REAL,FAKE,,,,,,,,,,,,,,,,,
,,,,,,,,,6711e09a6906af2fa5b782bd,Mexican ,13 or older,"yes, I am fluent in another language",no,2025-08-10_14h34.18.304,empathy_intonation_perc_control,2024.2.4,Linux x86_64,60.24096386,6711e09a6906af2fa5b782bd,68817205a84113384fffdfe3,6898e5e69f020e1e52772fe5,,,,,,,,,,,,,1,,,,,,,,,,,,,,,,,,,,,,,,,,,,,,,,,,,,,73,hervidor,,,,,1179.3338,1190.1566,1,1,10.2814,,0,53,53,72,1,REAL,FAKE,,,,,,,,,,,,,,,,,
,,,,,,,,,6711e09a6906af2fa5b782bd,Mexican ,13 or older,"yes, I am fluent in another language",no,2025-08-10_14h34.18.304,empathy_intonation_perc_control,2024.2.4,Linux x86_64,60.24096386,6711e09a6906af2fa5b782bd,68817205a84113384fffdfe3,6898e5e69f020e1e52772fe5,,,,,,,,,,,,,1,,,,,,,,,,,,,,,,,,,,,,,,,,,,,,,,,,,,,57,tacaño,,,,,1190.1582,1203.426,0,0,12.7305,,0,54,54,56,1,REAL,FAKE,,,,,,,,,,,,,,,,,
,,,,,,,,,6711e09a6906af2fa5b782bd,Mexican ,13 or older,"yes, I am fluent in another language",no,2025-08-10_14h34.18.304,empathy_intonation_perc_control,2024.2.4,Linux x86_64,60.24096386,6711e09a6906af2fa5b782bd,68817205a84113384fffdfe3,6898e5e69f020e1e52772fe5,,,,,,,,,,,,,1,,,,,,,,,,,,,,,,,,,,,,,,,,,,,,,,,,,,,34,aviso,,,,,1203.4302,1211.3846,1,1,7.4235,,0,55,55,33,1,REAL,FAKE,,,,,,,,,,,,,,,,,
,,,,,,,,,6711e09a6906af2fa5b782bd,Mexican ,13 or older,"yes, I am fluent in another language",no,2025-08-10_14h34.18.304,empathy_intonation_perc_control,2024.2.4,Linux x86_64,60.24096386,6711e09a6906af2fa5b782bd,68817205a84113384fffdfe3,6898e5e69f020e1e52772fe5,,,,,,,,,,,,,0,,,,,,,,,,,,,,,,,,,,,,,,,,,,,,,,,,,,,50,flamida,,,,,1211.3861,1222.8069,0,1,10.8804,,0,56,56,49,1,REAL,FAKE,,,,,,,,,,,,,,,,,
,,,,,,,,,6711e09a6906af2fa5b782bd,Mexican ,13 or older,"yes, I am fluent in another language",no,2025-08-10_14h34.18.304,empathy_intonation_perc_control,2024.2.4,Linux x86_64,60.24096386,6711e09a6906af2fa5b782bd,68817205a84113384fffdfe3,6898e5e69f020e1e52772fe5,,,,,,,,,,,,,1,,,,,,,,,,,,,,,,,,,,,,,,,,,,,,,,,,,,,48,ladrón,,,,,1222.8082,1229.6681,1,1,6.3311,,0,57,57,47,1,REAL,FAKE,,,,,,,,,,,,,,,,,
,,,,,,,,,6711e09a6906af2fa5b782bd,Mexican ,13 or older,"yes, I am fluent in another language",no,2025-08-10_14h34.18.304,empathy_intonation_perc_control,2024.2.4,Linux x86_64,60.24096386,6711e09a6906af2fa5b782bd,68817205a84113384fffdfe3,6898e5e69f020e1e52772fe5,,,,,,,,,,,,,1,,,,,,,,,,,,,,,,,,,,,,,,,,,,,,,,,,,,,49,ganar,,,,,1229.6695,1240.9723,1,1,10.7633,,0,58,58,48,1,REAL,FAKE,,,,,,,,,,,,,,,,,
,,,,,,,,,6711e09a6906af2fa5b782bd,Mexican ,13 or older,"yes, I am fluent in another language",no,2025-08-10_14h34.18.304,empathy_intonation_perc_control,2024.2.4,Linux x86_64,60.24096386,6711e09a6906af2fa5b782bd,68817205a84113384fffdfe3,6898e5e69f020e1e52772fe5,,,,,,,,,,,,,1,,,,,,,,,,,,,,,,,,,,,,,,,,,,,,,,,,,,,13,helar,,,,,1240.9743,1247.5328,1,1,6.0253,,0,59,59,12,1,REAL,FAKE,,,,,,,,,,,,,,,,,
,,,,,,,,,6711e09a6906af2fa5b782bd,Mexican ,13 or older,"yes, I am fluent in another language",no,2025-08-10_14h34.18.304,empathy_intonation_perc_control,2024.2.4,Linux x86_64,60.24096386,6711e09a6906af2fa5b782bd,68817205a84113384fffdfe3,6898e5e69f020e1e52772fe5,,,,,,,,,,,,,1,,,,,,,,,,,,,,,,,,,,,,,,,,,,,,,,,,,,,80,hormiga,,,,,1247.5353,1254.7594,1,1,6.6849,,0,60,60,79,1,REAL,FAKE,,,,,,,,,,,,,,,,,
,,,,,,,,,6711e09a6906af2fa5b782bd,Mexican ,13 or older,"yes, I am fluent in another language",no,2025-08-10_14h34.18.304,empathy_intonation_perc_control,2024.2.4,Linux x86_64,60.24096386,6711e09a6906af2fa5b782bd,68817205a84113384fffdfe3,6898e5e69f020e1e52772fe5,,,,,,,,,,,,,1,,,,,,,,,,,,,,,,,,,,,,,,,,,,,,,,,,,,,11,cenefa,,,,,1254.7605,1268.1791,1,1,12.8854,,0,61,61,10,1,REAL,FAKE,,,,,,,,,,,,,,,,,
,,,,,,,,,6711e09a6906af2fa5b782bd,Mexican ,13 or older,"yes, I am fluent in another language",no,2025-08-10_14h34.18.304,empathy_intonation_perc_control,2024.2.4,Linux x86_64,60.24096386,6711e09a6906af2fa5b782bd,68817205a84113384fffdfe3,6898e5e69f020e1e52772fe5,,,,,,,,,,,,,1,,,,,,,,,,,,,,,,,,,,,,,,,,,,,,,,,,,,,41,rebuscar,,,,,1268.1807,1278.5711,0,0,9.8596,,0,62,62,40,1,REAL,FAKE,,,,,,,,,,,,,,,,,
,,,,,,,,,6711e09a6906af2fa5b782bd,Mexican ,13 or older,"yes, I am fluent in another language",no,2025-08-10_14h34.18.304,empathy_intonation_perc_control,2024.2.4,Linux x86_64,60.24096386,6711e09a6906af2fa5b782bd,68817205a84113384fffdfe3,6898e5e69f020e1e52772fe5,,,,,,,,,,,,,1,,,,,,,,,,,,,,,,,,,,,,,,,,,,,,,,,,,,,78,frondoso,,,,,1278.5724,1288.6761,1,1,9.5673,,0,63,63,77,1,REAL,FAKE,,,,,,,,,,,,,,,,,
,,,,,,,,,6711e09a6906af2fa5b782bd,Mexican ,13 or older,"yes, I am fluent in another language",no,2025-08-10_14h34.18.304,empathy_intonation_perc_control,2024.2.4,Linux x86_64,60.24096386,6711e09a6906af2fa5b782bd,68817205a84113384fffdfe3,6898e5e69f020e1e52772fe5,,,,,,,,,,,,,0,,,,,,,,,,,,,,,,,,,,,,,,,,,,,,,,,,,,,32,fatacidad,,,,,1288.6775,1292.8885,1,0,3.6738,,0,64,64,31,1,REAL,FAKE,,,,,,,,,,,,,,,,,
,,,,,,,,,6711e09a6906af2fa5b782bd,Mexican ,13 or older,"yes, I am fluent in another language",no,2025-08-10_14h34.18.304,empathy_intonation_perc_control,2024.2.4,Linux x86_64,60.24096386,6711e09a6906af2fa5b782bd,68817205a84113384fffdfe3,6898e5e69f020e1e52772fe5,,,,,,,,,,,,,1,,,,,,,,,,,,,,,,,,,,,,,,,,,,,,,,,,,,,37,granuja,,,,,1292.8897,1301.1994,1,1,7.775,,0,65,65,36,1,REAL,FAKE,,,,,,,,,,,,,,,,,
,,,,,,,,,6711e09a6906af2fa5b782bd,Mexican ,13 or older,"yes, I am fluent in another language",no,2025-08-10_14h34.18.304,empathy_intonation_perc_control,2024.2.4,Linux x86_64,60.24096386,6711e09a6906af2fa5b782bd,68817205a84113384fffdfe3,6898e5e69f020e1e52772fe5,,,,,,,,,,,,,1,,,,,,,,,,,,,,,,,,,,,,,,,,,,,,,,,,,,,54,fomentar,,,,,1301.2061,1311.8865,1,1,10.1551,,0,66,66,53,1,REAL,FAKE,,,,,,,,,,,,,,,,,
,,,,,,,,,6711e09a6906af2fa5b782bd,Mexican ,13 or older,"yes, I am fluent in another language",no,2025-08-10_14h34.18.304,empathy_intonation_perc_control,2024.2.4,Linux x86_64,60.24096386,6711e09a6906af2fa5b782bd,68817205a84113384fffdfe3,6898e5e69f020e1e52772fe5,,,,,,,,,,,,,1,,,,,,,,,,,,,,,,,,,,,,,,,,,,,,,,,,,,,12,asesinato,,,,,1311.8878,1315.4995,1,1,3.0787,,0,67,67,11,1,REAL,FAKE,,,,,,,,,,,,,,,,,
,,,,,,,,,6711e09a6906af2fa5b782bd,Mexican ,13 or older,"yes, I am fluent in another language",no,2025-08-10_14h34.18.304,empathy_intonation_perc_control,2024.2.4,Linux x86_64,60.24096386,6711e09a6906af2fa5b782bd,68817205a84113384fffdfe3,6898e5e69f020e1e52772fe5,,,,,,,,,,,,,0,,,,,,,,,,,,,,,,,,,,,,,,,,,,,,,,,,,,,27,acutación,,,,,1315.5007,1327.4383,1,0,11.4011,,0,68,68,26,1,REAL,FAKE,,,,,,,,,,,,,,,,,
,,,,,,,,,6711e09a6906af2fa5b782bd,Mexican ,13 or older,"yes, I am fluent in another language",no,2025-08-10_14h34.18.304,empathy_intonation_perc_control,2024.2.4,Linux x86_64,60.24096386,6711e09a6906af2fa5b782bd,68817205a84113384fffdfe3,6898e5e69f020e1e52772fe5,,,,,,,,,,,,,1,,,,,,,,,,,,,,,,,,,,,,,,,,,,,,,,,,,,,86,barato,,,,,1327.4395,1336.1313,1,1,8.1601,,0,69,69,85,1,REAL,FAKE,,,,,,,,,,,,,,,,,
,,,,,,,,,6711e09a6906af2fa5b782bd,Mexican ,13 or older,"yes, I am fluent in another language",no,2025-08-10_14h34.18.304,empathy_intonation_perc_control,2024.2.4,Linux x86_64,60.24096386,6711e09a6906af2fa5b782bd,68817205a84113384fffdfe3,6898e5e69f020e1e52772fe5,,,,,,,,,,,,,1,,,,,,,,,,,,,,,,,,,,,,,,,,,,,,,,,,,,,75,yacer,,,,,1336.137,1342.9071,1,1,6.2429,,0,70,70,74,1,REAL,FAKE,,,,,,,,,,,,,,,,,
,,,,,,,,,6711e09a6906af2fa5b782bd,Mexican ,13 or older,"yes, I am fluent in another language",no,2025-08-10_14h34.18.304,empathy_intonation_perc_control,2024.2.4,Linux x86_64,60.24096386,6711e09a6906af2fa5b782bd,68817205a84113384fffdfe3,6898e5e69f020e1e52772fe5,,,,,,,,,,,,,1,,,,,,,,,,,,,,,,,,,,,,,,,,,,,,,,,,,,,45,jilguero,,,,,1342.9099,1353.6296,0,0,10.1855,,0,71,71,44,1,REAL,FAKE,,,,,,,,,,,,,,,,,
,,,,,,,,,6711e09a6906af2fa5b782bd,Mexican ,13 or older,"yes, I am fluent in another language",no,2025-08-10_14h34.18.304,empathy_intonation_perc_control,2024.2.4,Linux x86_64,60.24096386,6711e09a6906af2fa5b782bd,68817205a84113384fffdfe3,6898e5e69f020e1e52772fe5,,,,,,,,,,,,,1,,,,,,,,,,,,,,,,,,,,,,,,,,,,,,,,,,,,,20,ávido,,,,,1353.6308,1359.1416,1,1,4.979,,0,72,72,19,1,REAL,FAKE,,,,,,,,,,,,,,,,,
,,,,,,,,,6711e09a6906af2fa5b782bd,Mexican ,13 or older,"yes, I am fluent in another language",no,2025-08-10_14h34.18.304,empathy_intonation_perc_control,2024.2.4,Linux x86_64,60.24096386,6711e09a6906af2fa5b782bd,68817205a84113384fffdfe3,6898e5e69f020e1e52772fe5,,,,,,,,,,,,,1,,,,,,,,,,,,,,,,,,,,,,,,,,,,,,,,,,,,,69,engatusar,,,,,1359.1428,1369.7143,1,1,10.031,,0,73,73,68,1,REAL,FAKE,,,,,,,,,,,,,,,,,
,,,,,,,,,6711e09a6906af2fa5b782bd,Mexican ,13 or older,"yes, I am fluent in another language",no,2025-08-10_14h34.18.304,empathy_intonation_perc_control,2024.2.4,Linux x86_64,60.24096386,6711e09a6906af2fa5b782bd,68817205a84113384fffdfe3,6898e5e69f020e1e52772fe5,,,,,,,,,,,,,1,,,,,,,,,,,,,,,,,,,,,,,,,,,,,,,,,,,,,6,tergiversar,,,,,1369.7156,1377.905,1,1,7.6572,,0,74,74,5,1,REAL,FAKE,,,,,,,,,,,,,,,,,
,,,,,,,,,6711e09a6906af2fa5b782bd,Mexican ,13 or older,"yes, I am fluent in another language",no,2025-08-10_14h34.18.304,empathy_intonation_perc_control,2024.2.4,Linux x86_64,60.24096386,6711e09a6906af2fa5b782bd,68817205a84113384fffdfe3,6898e5e69f020e1e52772fe5,,,,,,,,,,,,,0,,,,,,,,,,,,,,,,,,,,,,,,,,,,,,,,,,,,,63,esposante,,,,,1377.9068,1379.8535,1,0,1.4109,,0,75,75,62,1,REAL,FAKE,,,,,,,,,,,,,,,,,
,,,,,,,,,6711e09a6906af2fa5b782bd,Mexican ,13 or older,"yes, I am fluent in another language",no,2025-08-10_14h34.18.304,empathy_intonation_perc_control,2024.2.4,Linux x86_64,60.24096386,6711e09a6906af2fa5b782bd,68817205a84113384fffdfe3,6898e5e69f020e1e52772fe5,,,,,,,,,,,,,1,,,,,,,,,,,,,,,,,,,,,,,,,,,,,,,,,,,,,59,besar,,,,,1379.8548,1382.2177,1,1,1.8282,,0,76,76,58,1,REAL,FAKE,,,,,,,,,,,,,,,,,
,,,,,,,,,6711e09a6906af2fa5b782bd,Mexican ,13 or older,"yes, I am fluent in another language",no,2025-08-10_14h34.18.304,empathy_intonation_perc_control,2024.2.4,Linux x86_64,60.24096386,6711e09a6906af2fa5b782bd,68817205a84113384fffdfe3,6898e5e69f020e1e52772fe5,,,,,,,,,,,,,1,,,,,,,,,,,,,,,,,,,,,,,,,,,,,,,,,,,,,38,estornudar,,,,,1382.219,1392.7241,1,1,9.9853,,0,77,77,37,1,REAL,FAKE,,,,,,,,,,,,,,,,,
,,,,,,,,,6711e09a6906af2fa5b782bd,Mexican ,13 or older,"yes, I am fluent in another language",no,2025-08-10_14h34.18.304,empathy_intonation_perc_control,2024.2.4,Linux x86_64,60.24096386,6711e09a6906af2fa5b782bd,68817205a84113384fffdfe3,6898e5e69f020e1e52772fe5,,,,,,,,,,,,,0,,,,,,,,,,,,,,,,,,,,,,,,,,,,,,,,,,,,,16,abracer,,,,,1392.7256,1395.4879,1,0,2.2305,,0,78,78,15,1,REAL,FAKE,,,,,,,,,,,,,,,,,
,,,,,,,,,6711e09a6906af2fa5b782bd,Mexican ,13 or older,"yes, I am fluent in another language",no,2025-08-10_14h34.18.304,empathy_intonation_perc_control,2024.2.4,Linux x86_64,60.24096386,6711e09a6906af2fa5b782bd,68817205a84113384fffdfe3,6898e5e69f020e1e52772fe5,,,,,,,,,,,,,0,,,,,,,,,,,,,,,,,,,,,,,,,,,,,,,,,,,,,79,tropaje,,,,,1395.4893,1409.7906,0,1,13.7682,,0,79,79,78,1,REAL,FAKE,,,,,,,,,,,,,,,,,
,,,,,,,,,6711e09a6906af2fa5b782bd,Mexican ,13 or older,"yes, I am fluent in another language",no,2025-08-10_14h34.18.304,empathy_intonation_perc_control,2024.2.4,Linux x86_64,60.24096386,6711e09a6906af2fa5b782bd,68817205a84113384fffdfe3,6898e5e69f020e1e52772fe5,,,,,,,,,,,,,0,,,,,,,,,,,,,,,,,,,,,,,,,,,,,,,,,,,,,21,capillo,,,,,1409.792,1418.5655,0,1,8.235,,0,80,80,20,1,REAL,FAKE,,,,,,,,,,,,,,,,,
,,,,,,,,,6711e09a6906af2fa5b782bd,Mexican ,13 or older,"yes, I am fluent in another language",no,2025-08-10_14h34.18.304,empathy_intonation_perc_control,2024.2.4,Linux x86_64,60.24096386,6711e09a6906af2fa5b782bd,68817205a84113384fffdfe3,6898e5e69f020e1e52772fe5,,,,,,,,,,,,,1,,,,,,,,,,,,,,,,,,,,,,,,,,,,,,,,,,,,,3,pulmones,,,,,1418.567,1427.9572,1,1,8.8551,,0,81,81,2,1,REAL,FAKE,,,,,,,,,,,,,,,,,
,,,,,,,,,6711e09a6906af2fa5b782bd,Mexican ,13 or older,"yes, I am fluent in another language",no,2025-08-10_14h34.18.304,empathy_intonation_perc_control,2024.2.4,Linux x86_64,60.24096386,6711e09a6906af2fa5b782bd,68817205a84113384fffdfe3,6898e5e69f020e1e52772fe5,,,,,,,,,,,,,0,,,,,,,,,,,,,,,,,,,,,,,,,,,,,,,,,,,,,19,brecedad,,,,,1427.9587,1447.9202,0,1,19.4205,,0,82,82,18,1,REAL,FAKE,,,,,,,,,,,,,,,,,
,,,,,,,,,6711e09a6906af2fa5b782bd,Mexican ,13 or older,"yes, I am fluent in another language",no,2025-08-10_14h34.18.304,empathy_intonation_perc_control,2024.2.4,Linux x86_64,60.24096386,6711e09a6906af2fa5b782bd,68817205a84113384fffdfe3,6898e5e69f020e1e52772fe5,,,,,,,,,,,,,0,,,,,,,,,,,,,,,,,,,,,,,,,,,,,,,,,,,,,58,plaudir,,,,,1447.9218,1453.9487,0,1,5.5088,,0,83,83,57,1,REAL,FAKE,,,,,,,,,,,,,,,,,
,,,,,,,,,6711e09a6906af2fa5b782bd,Mexican ,13 or older,"yes, I am fluent in another language",no,2025-08-10_14h34.18.304,empathy_intonation_perc_control,2024.2.4,Linux x86_64,60.24096386,6711e09a6906af2fa5b782bd,68817205a84113384fffdfe3,6898e5e69f020e1e52772fe5,,,,,,,,,,,,,0,,,,,,,,,,,,,,,,,,,,,,,,,,,,,,,,,,,,,66,hacido,,,,,1453.9523,1461.7568,0,1,7.2717,,0,84,84,65,1,REAL,FAKE,,,,,,,,,,,,,,,,,
,,,,,,,,,6711e09a6906af2fa5b782bd,Mexican ,13 or older,"yes, I am fluent in another language",no,2025-08-10_14h34.18.304,empathy_intonation_perc_control,2024.2.4,Linux x86_64,60.24096386,6711e09a6906af2fa5b782bd,68817205a84113384fffdfe3,6898e5e69f020e1e52772fe5,,,,,,,,,,,,,0,,,,,,,,,,,,,,,,,,,,,,,,,,,,,,,,,,,,,33,pauca,,,,,1461.7583,1467.7175,0,1,5.4162,,0,85,85,32,1,REAL,FAKE,,,,,,,,,,,,,,,,,
,,,,,,,,,6711e09a6906af2fa5b782bd,Mexican ,13 or older,"yes, I am fluent in another language",no,2025-08-10_14h34.18.304,empathy_intonation_perc_control,2024.2.4,Linux x86_64,60.24096386,6711e09a6906af2fa5b782bd,68817205a84113384fffdfe3,6898e5e69f020e1e52772fe5,,,,,,,,,,,,,1,,,,,,,,,,,,,,,,,,,,,,,,,,,,,,,,,,,,,56,musgo,,,,,1467.7191,1469.9485,0,0,1.6902,,0,86,86,55,1,REAL,FAKE,,,,,,,,,,,,,,,,,
,,,,,,,,,6711e09a6906af2fa5b782bd,Mexican ,13 or older,"yes, I am fluent in another language",no,2025-08-10_14h34.18.304,empathy_intonation_perc_control,2024.2.4,Linux x86_64,60.24096386,6711e09a6906af2fa5b782bd,68817205a84113384fffdfe3,6898e5e69f020e1e52772fe5,,,,,,,,,,,,,1,,,,,,,,,,,,,,,,,,,,,,,,,,,,,,,,,,,,,46,martillo,,,,,1469.9502,1476.6879,0,0,6.2105,,0,87,87,45,1,REAL,FAKE,,,,,,,,,,,,,,,,,
,,,,,,,,,6711e09a6906af2fa5b782bd,Mexican ,13 or older,"yes, I am fluent in another language",no,2025-08-10_14h34.18.304,empathy_intonation_perc_control,2024.2.4,Linux x86_64,60.24096386,6711e09a6906af2fa5b782bd,68817205a84113384fffdfe3,6898e5e69f020e1e52772fe5,,,,,,,,,,,,,1,,,,,,,,,,,,,,,,,,,,,,,,,,,,,,,,,,,,,31,pandilla,,,,,1476.6902,1483.9097,1,1,6.6925,,0,88,88,30,1,REAL,FAKE,,,,,,,,,,,,,,,,,
,,,,,,,,,6711e09a6906af2fa5b782bd,Mexican ,13 or older,"yes, I am fluent in another language",no,2025-08-10_14h34.18.304,empathy_intonation_perc_control,2024.2.4,Linux x86_64,60.24096386,6711e09a6906af2fa5b782bd,68817205a84113384fffdfe3,6898e5e69f020e1e52772fe5,,,,,,,,,,,,,0,,,,,,,,,,,,,,,,,,,,,,,,,,,,,,,,,,,,,4,batillón,,,,,1483.9133,1491.2122,0,1,6.7575,,0,89,89,3,1,REAL,FAKE,,,,,,,,,,,,,,,,,
,,,,,,,,,6711e09a6906af2fa5b782bd,Mexican ,13 or older,"yes, I am fluent in another language",no,2025-08-10_14h34.18.304,empathy_intonation_perc_control,2024.2.4,Linux x86_64,60.24096386,6711e09a6906af2fa5b782bd,68817205a84113384fffdfe3,6898e5e69f020e1e52772fe5,,,,,,,,,,,,,0,,,,,,,,,,,,,,,,,,,,,,,,,,,,,,,,,,,,,8,cadeña,,,,,1491.2144,1499.4197,1,0,7.6661,,0,90,90,7,1,REAL,FAKE,,,,,,,,,,,,,,,,,
,,,,,,,,,6711e09a6906af2fa5b782bd,Mexican ,13 or older,"yes, I am fluent in another language",no,2025-08-10_14h34.18.304,empathy_intonation_perc_control,2024.2.4,Linux x86_64,60.24096386,6711e09a6906af2fa5b782bd,68817205a84113384fffdfe3,6898e5e69f020e1e52772fe5,,,,,,,,,,,,,0,,,,,,,,,,,,,,,,,,,,,,,,,,,,,,,,,,,,,10,antar,,,,,1499.4219,1501.5181,1,0,1.5591,,0,91,91,9,1,REAL,FAKE,,,,,,,,,,,,,,,,,
,,,,,,,,,6711e09a6906af2fa5b782bd,Mexican ,13 or older,"yes, I am fluent in another language",no,2025-08-10_14h34.18.304,empathy_intonation_perc_control,2024.2.4,Linux x86_64,60.24096386,6711e09a6906af2fa5b782bd,68817205a84113384fffdfe3,6898e5e69f020e1e52772fe5,,,,,,,,,,,,,,,,,,,,,,,,,,,,,,,,,,,,,,,,,,,,,,,,,,,,,,,,,,,,,,,,,,,,,1501.5198,1509.6103,,,,,,,,,,,,,,,
,,,,,,,,,6711e09a6906af2fa5b782bd,Mexican ,13 or older,"yes, I am fluent in another language",no,2025-08-10_14h34.18.304,empathy_intonation_perc_control,2024.2.4,Linux x86_64,60.24096386,6711e09a6906af2fa5b782bd,68817205a84113384fffdfe3,6898e5e69f020e1e52772fe5,,,,,,,,,,,,,,,,,,,,,,,,,,,1,,,,,,,,,,,,,,,,,,,,,,,,,,,,,,,,,,,,,,,,,,,,1509.6449,1514.7158,slightly agree,0,0,0,0,1,I can easily tell if someone else wants to enter a conversation.,1,0,1,0,,
,,,,,,,,,6711e09a6906af2fa5b782bd,Mexican ,13 or older,"yes, I am fluent in another language",no,2025-08-10_14h34.18.304,empathy_intonation_perc_control,2024.2.4,Linux x86_64,60.24096386,6711e09a6906af2fa5b782bd,68817205a84113384fffdfe3,6898e5e69f020e1e52772fe5,,,,,,,,,,,,,,,,,,,,,,,,,,,2,,,,,,,,,,,,,,,,,,,,,,,,,,,,,,,,,,,,,,,,,,,,1514.7183,1517.3539,strongly agree,0,1,1,1,1,I prefer animals to humans.,0,1,0,0,,
,,,,,,,,,6711e09a6906af2fa5b782bd,Mexican ,13 or older,"yes, I am fluent in another language",no,2025-08-10_14h34.18.304,empathy_intonation_perc_control,2024.2.4,Linux x86_64,60.24096386,6711e09a6906af2fa5b782bd,68817205a84113384fffdfe3,6898e5e69f020e1e52772fe5,,,,,,,,,,,,,,,,,,,,,,,,,,,3,,,,,,,,,,,,,,,,,,,,,,,,,,,,,,,,,,,,,,,,,,,,1517.3583,1520.5657,slightly disagree,0,2,2,2,1,I try to keep up with the current trends and fashions.,0,1,0,0,,
,,,,,,,,,6711e09a6906af2fa5b782bd,Mexican ,13 or older,"yes, I am fluent in another language",no,2025-08-10_14h34.18.304,empathy_intonation_perc_control,2024.2.4,Linux x86_64,60.24096386,6711e09a6906af2fa5b782bd,68817205a84113384fffdfe3,6898e5e69f020e1e52772fe5,,,,,,,,,,,,,,,,,,,,,,,,,,,4,,,,,,,,,,,,,,,,,,,,,,,,,,,,,,,,,,,,,,,,,,,,1520.5684,1529.5066,slightly disagree,0,3,3,3,1,"I find it difficult to explain to others things that I understand easily,   when they don't understand it first time.",1,0,0,1,,
,,,,,,,,,6711e09a6906af2fa5b782bd,Mexican ,13 or older,"yes, I am fluent in another language",no,2025-08-10_14h34.18.304,empathy_intonation_perc_control,2024.2.4,Linux x86_64,60.24096386,6711e09a6906af2fa5b782bd,68817205a84113384fffdfe3,6898e5e69f020e1e52772fe5,,,,,,,,,,,,,,,,,,,,,,,,,,,5,,,,,,,,,,,,,,,,,,,,,,,,,,,,,,,,,,,,,,,,,,,,1529.5088,1532.4883,strongly agree,0,4,4,4,1,I dream most nights.,0,1,0,0,,
,,,,,,,,,6711e09a6906af2fa5b782bd,Mexican ,13 or older,"yes, I am fluent in another language",no,2025-08-10_14h34.18.304,empathy_intonation_perc_control,2024.2.4,Linux x86_64,60.24096386,6711e09a6906af2fa5b782bd,68817205a84113384fffdfe3,6898e5e69f020e1e52772fe5,,,,,,,,,,,,,,,,,,,,,,,,,,,6,,,,,,,,,,,,,,,,,,,,,,,,,,,,,,,,,,,,,,,,,,,,1532.4907,1535.1681,slightly agree,0,5,5,5,1,I really enjoy caring for other people.,1,0,1,0,,
,,,,,,,,,6711e09a6906af2fa5b782bd,Mexican ,13 or older,"yes, I am fluent in another language",no,2025-08-10_14h34.18.304,empathy_intonation_perc_control,2024.2.4,Linux x86_64,60.24096386,6711e09a6906af2fa5b782bd,68817205a84113384fffdfe3,6898e5e69f020e1e52772fe5,,,,,,,,,,,,,,,,,,,,,,,,,,,7,,,,,,,,,,,,,,,,,,,,,,,,,,,,,,,,,,,,,,,,,,,,1535.1706,1539.4805,slightly agree,0,6,6,6,1,I try to solve my own problems rather than discussing them with others.,0,1,0,0,,
,,,,,,,,,6711e09a6906af2fa5b782bd,Mexican ,13 or older,"yes, I am fluent in another language",no,2025-08-10_14h34.18.304,empathy_intonation_perc_control,2024.2.4,Linux x86_64,60.24096386,6711e09a6906af2fa5b782bd,68817205a84113384fffdfe3,6898e5e69f020e1e52772fe5,,,,,,,,,,,,,,,,,,,,,,,,,,,8,,,,,,,,,,,,,,,,,,,,,,,,,,,,,,,,,,,,,,,,,,,,1539.4844,1542.8945,strongly agree,0,7,7,7,1,I find it hard to know what to do in a social situation.,1,0,0,1,,
,,,,,,,,,6711e09a6906af2fa5b782bd,Mexican ,13 or older,"yes, I am fluent in another language",no,2025-08-10_14h34.18.304,empathy_intonation_perc_control,2024.2.4,Linux x86_64,60.24096386,6711e09a6906af2fa5b782bd,68817205a84113384fffdfe3,6898e5e69f020e1e52772fe5,,,,,,,,,,,,,,,,,,,,,,,,,,,9,,,,,,,,,,,,,,,,,,,,,,,,,,,,,,,,,,,,,,,,,,,,1542.8971,1546.3257,strongly disagree,0,8,8,8,1,I am at my best first thing in the morning.,0,1,0,0,,
,,,,,,,,,6711e09a6906af2fa5b782bd,Mexican ,13 or older,"yes, I am fluent in another language",no,2025-08-10_14h34.18.304,empathy_intonation_perc_control,2024.2.4,Linux x86_64,60.24096386,6711e09a6906af2fa5b782bd,68817205a84113384fffdfe3,6898e5e69f020e1e52772fe5,,,,,,,,,,,,,,,,,,,,,,,,,,,10,,,,,,,,,,,,,,,,,,,,,,,,,,,,,,,,,,,,,,,,,,,,1546.3284,1551.4855,slightly agree,0,9,9,9,1,People often tell me that I went too far in driving my point home in a discussion.,1,0,0,1,,
,,,,,,,,,6711e09a6906af2fa5b782bd,Mexican ,13 or older,"yes, I am fluent in another language",no,2025-08-10_14h34.18.304,empathy_intonation_perc_control,2024.2.4,Linux x86_64,60.24096386,6711e09a6906af2fa5b782bd,68817205a84113384fffdfe3,6898e5e69f020e1e52772fe5,,,,,,,,,,,,,,,,,,,,,,,,,,,11,,,,,,,,,,,,,,,,,,,,,,,,,,,,,,,,,,,,,,,,,,,,1551.4917,1555.3984,slightly disagree,0,10,10,10,1,It doesn't bother me too much if I am late meeting a friend.,1,0,0,1,,
,,,,,,,,,6711e09a6906af2fa5b782bd,Mexican ,13 or older,"yes, I am fluent in another language",no,2025-08-10_14h34.18.304,empathy_intonation_perc_control,2024.2.4,Linux x86_64,60.24096386,6711e09a6906af2fa5b782bd,68817205a84113384fffdfe3,6898e5e69f020e1e52772fe5,,,,,,,,,,,,,,,,,,,,,,,,,,,12,,,,,,,,,,,,,,,,,,,,,,,,,,,,,,,,,,,,,,,,,,,,1555.4009,1560.0628,slightly disagree,0,11,11,11,1,"Friendships and relationships are just too difficult, so I tend not to 
  bother with them.",1,0,0,1,,
,,,,,,,,,6711e09a6906af2fa5b782bd,Mexican ,13 or older,"yes, I am fluent in another language",no,2025-08-10_14h34.18.304,empathy_intonation_perc_control,2024.2.4,Linux x86_64,60.24096386,6711e09a6906af2fa5b782bd,68817205a84113384fffdfe3,6898e5e69f020e1e52772fe5,,,,,,,,,,,,,,,,,,,,,,,,,,,13,,,,,,,,,,,,,,,,,,,,,,,,,,,,,,,,,,,,,,,,,,,,1560.0665,1562.7909,slightly disagree,0,12,12,12,1,"I would never break a law, no matter how minor.",0,1,0,0,,
,,,,,,,,,6711e09a6906af2fa5b782bd,Mexican ,13 or older,"yes, I am fluent in another language",no,2025-08-10_14h34.18.304,empathy_intonation_perc_control,2024.2.4,Linux x86_64,60.24096386,6711e09a6906af2fa5b782bd,68817205a84113384fffdfe3,6898e5e69f020e1e52772fe5,,,,,,,,,,,,,,,,,,,,,,,,,,,14,,,,,,,,,,,,,,,,,,,,,,,,,,,,,,,,,,,,,,,,,,,,1562.7947,1567.8027,slightly disagree,0,13,13,13,1,I often find it difficult to judge if something is rude or polite.,1,0,0,1,,
,,,,,,,,,6711e09a6906af2fa5b782bd,Mexican ,13 or older,"yes, I am fluent in another language",no,2025-08-10_14h34.18.304,empathy_intonation_perc_control,2024.2.4,Linux x86_64,60.24096386,6711e09a6906af2fa5b782bd,68817205a84113384fffdfe3,6898e5e69f020e1e52772fe5,,,,,,,,,,,,,,,,,,,,,,,,,,,15,,,,,,,,,,,,,,,,,,,,,,,,,,,,,,,,,,,,,,,,,,,,1567.8065,1574.6966,slightly disagree,0,14,14,14,1,"In a conversation, I tend to focus on my own thoughts rather than on what 
  my listener might be thinking.",1,0,0,1,,
