instructions_2afc.started,instructions_2afc.stopped,instructions_2afc_loop.thisRepN,instructions_2afc_loop.thisTrialN,instructions_2afc_loop.thisN,instructions_2afc_loop.thisIndex,instructions_2afc_loop.ran,instructions_text,continue_text,participant_id,"What variety of Spanish are you most familiar with? (e.g., Peruvian, Spanish, Mexican)",At what age did you begin learning Spanish?,Are you proficient in any languages other than English/Spanish?,"Are you familiar with Caribbean (e.g., Caribbean, Puerto Rican) or Galician Spanish?",date,expName,psychopyVersion,OS,frameRate,id,study_id,session,practice_2afc.started,practice_2afc.stopped,key_resp_2afc_practice.keys,key_resp_2afc_practice.corr,key_resp_2afc_practice.rt,key_resp_2afc_practice.duration,trials_2afc_practice_loop.thisRepN,trials_2afc_practice_loop.thisTrialN,trials_2afc_practice_loop.thisN,trials_2afc_practice_loop.thisIndex,trials_2afc_practice_loop.ran,path,correct_response,check_2afc.started,check_2afc.stopped,trial_2afc.started,trial_2afc.stopped,key_resp_2afc_trial.keys,key_resp_2afc_trial.corr,key_resp_2afc_trial.rt,key_resp_2afc_trial.duration,trials_2afc_loop.thisRepN,trials_2afc_loop.thisTrialN,trials_2afc_loop.thisN,trials_2afc_loop.thisIndex,trials_2afc_loop.ran,item_num,target,variety,instructions_lextale.started,instructions_lextale.stopped,instructions_lextale_loop.thisRepN,instructions_lextale_loop.thisTrialN,instructions_lextale_loop.thisN,instructions_lextale_loop.thisIndex,instructions_lextale_loop.ran,practice_lextale.started,practice_lextale.stopped,key_resp_lextale_practice.keys,key_resp_lextale_practice.corr,key_resp_lextale_practice.rt,key_resp_lextale_practice.duration,practice_feedback_lextale.started,practice_feedback_lextale.stopped,trials_lextale_practice_loop.thisRepN,trials_lextale_practice_loop.thisTrialN,trials_lextale_practice_loop.thisN,trials_lextale_practice_loop.thisIndex,trials_lextale_practice_loop.ran,stim,word,prac_button_real,prac_button_false,check_lextale.started,check_lextale.stopped,trial_lextale.started,trial_lextale.stopped,key_resp_lextale_trial.keys,key_resp_lextale_trial.corr,key_resp_lextale_trial.rt,key_resp_lextale_trial.duration,trials_lextale_loop.thisRepN,trials_lextale_loop.thisTrialN,trials_lextale_loop.thisN,trials_lextale_loop.thisIndex,trials_lextale_loop.ran,button_real,button_false,instructions_eq.started,instructions_eq.stopped,trial_eq.started,trial_eq.stopped,slider_eq_trial.response,trials_eq_loop.thisRepN,trials_eq_loop.thisTrialN,trials_eq_loop.thisN,trials_eq_loop.thisIndex,trials_eq_loop.ran,item,is_test_item,is_distractor,is_agree_score,is_disagree_score,end_exp.started,end_exp.stopped
0.0333,3.9555,0,0,0,0,1,"In the following task you are going to hear a series of utterances. 

  You will decide if the utterances sound like questions or not using your keyboard.", (press the spacebar to continue),6712acd49ca5448a6e983e6c,USA,13 or older,"no, only English or Spanish",no,2025-07-24_09h12.56.641,empathy_intonation_perc_control,2024.2.4,Win32,60.60606061,6712acd49ca5448a6e983e6c,68817205a84113384fffdfe3,68823081ec036908c4a329f6,,,,,,,,,,,,,,,,,,,,,,,,,,,,,,,,,,,,,,,,,,,,,,,,,,,,,,,,,,,,,,,,,,,,,,,,,,,,,,,,,,,,,
3.9565,7.8008,0,1,1,1,1,"If you believe the utterance is a question, type '1' (for 'yes') and if you do not 
  believe it is a question type '0' (for 'no').

  Let's practice a bit...", (press the spacebar to continue),6712acd49ca5448a6e983e6c,USA,13 or older,"no, only English or Spanish",no,2025-07-24_09h12.56.641,empathy_intonation_perc_control,2024.2.4,Win32,60.60606061,6712acd49ca5448a6e983e6c,68817205a84113384fffdfe3,68823081ec036908c4a329f6,,,,,,,,,,,,,,,,,,,,,,,,,,,,,,,,,,,,,,,,,,,,,,,,,,,,,,,,,,,,,,,,,,,,,,,,,,,,,,,,,,,,,
,,,,,,,,,6712acd49ca5448a6e983e6c,USA,13 or older,"no, only English or Spanish",no,2025-07-24_09h12.56.641,empathy_intonation_perc_control,2024.2.4,Win32,60.60606061,6712acd49ca5448a6e983e6c,68817205a84113384fffdfe3,68823081ec036908c4a329f6,7.8367,12.0438,1,1,3.6816,,0,0,0,1,1,./stim/wavs/argentine_question_filler_Mi-vecino-habla-mucho.wav,1,,,,,,,,,,,,,,,,,,,,,,,,,,,,,,,,,,,,,,,,,,,,,,,,,,,,,,,,,,,,,,,,,,,,,,,,
,,,,,,,,,6712acd49ca5448a6e983e6c,USA,13 or older,"no, only English or Spanish",no,2025-07-24_09h12.56.641,empathy_intonation_perc_control,2024.2.4,Win32,60.60606061,6712acd49ca5448a6e983e6c,68817205a84113384fffdfe3,68823081ec036908c4a329f6,12.0451,14.3287,1,1,1.7624,,0,1,1,2,1,./stim/wavs/chilean_question_filler_Mi-padre-cantaba-bien.wav,1,,,,,,,,,,,,,,,,,,,,,,,,,,,,,,,,,,,,,,,,,,,,,,,,,,,,,,,,,,,,,,,,,,,,,,,,
,,,,,,,,,6712acd49ca5448a6e983e6c,USA,13 or older,"no, only English or Spanish",no,2025-07-24_09h12.56.641,empathy_intonation_perc_control,2024.2.4,Win32,60.60606061,6712acd49ca5448a6e983e6c,68817205a84113384fffdfe3,68823081ec036908c4a329f6,14.33,16.9913,1,1,2.129,,0,2,2,0,1,./stim/wavs/castilian_question_filler_Mi-esposo-conoce-al-chico.wav,1,,,,,,,,,,,,,,,,,,,,,,,,,,,,,,,,,,,,,,,,,,,,,,,,,,,,,,,,,,,,,,,,,,,,,,,,
,,,,,,,,,6712acd49ca5448a6e983e6c,USA,13 or older,"no, only English or Spanish",no,2025-07-24_09h12.56.641,empathy_intonation_perc_control,2024.2.4,Win32,60.60606061,6712acd49ca5448a6e983e6c,68817205a84113384fffdfe3,68823081ec036908c4a329f6,16.9928,22.3937,0,1,4.8767,,0,3,3,7,1,./stim/wavs/puertorican_statement_filler_La-nina-pinta-con-su-amiga.wav,0,,,,,,,,,,,,,,,,,,,,,,,,,,,,,,,,,,,,,,,,,,,,,,,,,,,,,,,,,,,,,,,,,,,,,,,,
,,,,,,,,,6712acd49ca5448a6e983e6c,USA,13 or older,"no, only English or Spanish",no,2025-07-24_09h12.56.641,empathy_intonation_perc_control,2024.2.4,Win32,60.60606061,6712acd49ca5448a6e983e6c,68817205a84113384fffdfe3,68823081ec036908c4a329f6,22.3952,25.1259,0,1,2.2112,,0,4,4,6,1,./stim/wavs/peruvian_statement_filler_El-nino-habla-con-su-madre.wav,0,,,,,,,,,,,,,,,,,,,,,,,,,,,,,,,,,,,,,,,,,,,,,,,,,,,,,,,,,,,,,,,,,,,,,,,,
,,,,,,,,,6712acd49ca5448a6e983e6c,USA,13 or older,"no, only English or Spanish",no,2025-07-24_09h12.56.641,empathy_intonation_perc_control,2024.2.4,Win32,60.60606061,6712acd49ca5448a6e983e6c,68817205a84113384fffdfe3,68823081ec036908c4a329f6,25.1267,27.5044,0,1,1.8414,,0,5,5,4,1,./stim/wavs/cuban_statement_filler_Cocinabas-por-la-noche.wav,0,,,,,,,,,,,,,,,,,,,,,,,,,,,,,,,,,,,,,,,,,,,,,,,,,,,,,,,,,,,,,,,,,,,,,,,,
,,,,,,,,,6712acd49ca5448a6e983e6c,USA,13 or older,"no, only English or Spanish",no,2025-07-24_09h12.56.641,empathy_intonation_perc_control,2024.2.4,Win32,60.60606061,6712acd49ca5448a6e983e6c,68817205a84113384fffdfe3,68823081ec036908c4a329f6,27.5062,29.7994,1,1,1.7669,,0,6,6,3,1,./stim/wavs/mexican_question_filler_Felipe-no-tiene-contrasena.wav,1,,,,,,,,,,,,,,,,,,,,,,,,,,,,,,,,,,,,,,,,,,,,,,,,,,,,,,,,,,,,,,,,,,,,,,,,
,,,,,,,,,6712acd49ca5448a6e983e6c,USA,13 or older,"no, only English or Spanish",no,2025-07-24_09h12.56.641,empathy_intonation_perc_control,2024.2.4,Win32,60.60606061,6712acd49ca5448a6e983e6c,68817205a84113384fffdfe3,68823081ec036908c4a329f6,29.8009,32.0845,0,1,1.777,,0,7,7,5,1,./stim/wavs/andalusian_statement_filler_Alberto-nunca-se-afeita.wav,0,,,,,,,,,,,,,,,,,,,,,,,,,,,,,,,,,,,,,,,,,,,,,,,,,,,,,,,,,,,,,,,,,,,,,,,,
,,,,,,,,,6712acd49ca5448a6e983e6c,USA,13 or older,"no, only English or Spanish",no,2025-07-24_09h12.56.641,empathy_intonation_perc_control,2024.2.4,Win32,60.60606061,6712acd49ca5448a6e983e6c,68817205a84113384fffdfe3,68823081ec036908c4a329f6,,,,,,,,,,,,,,32.0857,33.9992,,,,,,,,,,,,,,,,,,,,,,,,,,,,,,,,,,,,,,,,,,,,,,,,,,,,,,,,,,,,,,,,,,,,,,
,,,,,,,,,6712acd49ca5448a6e983e6c,USA,13 or older,"no, only English or Spanish",no,2025-07-24_09h12.56.641,empathy_intonation_perc_control,2024.2.4,Win32,60.60606061,6712acd49ca5448a6e983e6c,68817205a84113384fffdfe3,68823081ec036908c4a329f6,,,,,,,,,,,,./stim/wavs/castilian_match_interrogative-total-yn_David-leia-el-libro.wav,1,,,34.0688,36.3938,1,1,1.8098,,0,0,0,0,1,1,0,castilian,,,,,,,,,,,,,,,,,,,,,,,,,,,,,,,,,,,,,,,,,,,,,,,,,,,,,,,,
,,,,,,,,,6712acd49ca5448a6e983e6c,USA,13 or older,"no, only English or Spanish",no,2025-07-24_09h12.56.641,empathy_intonation_perc_control,2024.2.4,Win32,60.60606061,6712acd49ca5448a6e983e6c,68817205a84113384fffdfe3,68823081ec036908c4a329f6,,,,,,,,,,,,./stim/wavs/cuban_match_interrogative-total-yn_Daniel-iba-a-Bolivia.wav,1,,,36.3963,39.1187,0,0,2.2083,,0,1,1,7,1,8,1,cuban,,,,,,,,,,,,,,,,,,,,,,,,,,,,,,,,,,,,,,,,,,,,,,,,,,,,,,,,
,,,,,,,,,6712acd49ca5448a6e983e6c,USA,13 or older,"no, only English or Spanish",no,2025-07-24_09h12.56.641,empathy_intonation_perc_control,2024.2.4,Win32,60.60606061,6712acd49ca5448a6e983e6c,68817205a84113384fffdfe3,68823081ec036908c4a329f6,,,,,,,,,,,,./stim/wavs/puertorican_match_interrogative-total-yn_David-leia-el-libro.wav,1,,,39.1193,41.0316,1,1,1.3824,,0,2,2,20,1,21,1,puertorican,,,,,,,,,,,,,,,,,,,,,,,,,,,,,,,,,,,,,,,,,,,,,,,,,,,,,,,,
,,,,,,,,,6712acd49ca5448a6e983e6c,USA,13 or older,"no, only English or Spanish",no,2025-07-24_09h12.56.641,empathy_intonation_perc_control,2024.2.4,Win32,60.60606061,6712acd49ca5448a6e983e6c,68817205a84113384fffdfe3,68823081ec036908c4a329f6,,,,,,,,,,,,./stim/wavs/castilian_mismatch_interrogative-total-yn_La-maestra-vive-en-Paris.wav,1,,,41.0326,43.6437,1,1,2.0775,,0,3,3,24,1,25,0,castilian,,,,,,,,,,,,,,,,,,,,,,,,,,,,,,,,,,,,,,,,,,,,,,,,,,,,,,,,
,,,,,,,,,6712acd49ca5448a6e983e6c,USA,13 or older,"no, only English or Spanish",no,2025-07-24_09h12.56.641,empathy_intonation_perc_control,2024.2.4,Win32,60.60606061,6712acd49ca5448a6e983e6c,68817205a84113384fffdfe3,68823081ec036908c4a329f6,,,,,,,,,,,,./stim/wavs/puertorican_match_interrogative-total-yn_Maria-bebe-el-vino.wav,1,,,43.6444,45.7921,1,1,1.6171,,0,4,4,23,1,24,1,puertorican,,,,,,,,,,,,,,,,,,,,,,,,,,,,,,,,,,,,,,,,,,,,,,,,,,,,,,,,
,,,,,,,,,6712acd49ca5448a6e983e6c,USA,13 or older,"no, only English or Spanish",no,2025-07-24_09h12.56.641,empathy_intonation_perc_control,2024.2.4,Win32,60.60606061,6712acd49ca5448a6e983e6c,68817205a84113384fffdfe3,68823081ec036908c4a329f6,,,,,,,,,,,,./stim/wavs/castilian_match_interrogative-total-yn_Emilio-ama-la-marcha.wav,1,,,45.7943,48.1539,1,1,1.842,,0,5,5,1,1,2,0,castilian,,,,,,,,,,,,,,,,,,,,,,,,,,,,,,,,,,,,,,,,,,,,,,,,,,,,,,,,
,,,,,,,,,6712acd49ca5448a6e983e6c,USA,13 or older,"no, only English or Spanish",no,2025-07-24_09h12.56.641,empathy_intonation_perc_control,2024.2.4,Win32,60.60606061,6712acd49ca5448a6e983e6c,68817205a84113384fffdfe3,68823081ec036908c4a329f6,,,,,,,,,,,,./stim/wavs/cuban_match_declarative-broad-focus_Daniel-iba-a-Bolivia.wav,0,,,48.1554,50.9844,0,1,2.3051,,0,6,6,51,1,52,0,cuban,,,,,,,,,,,,,,,,,,,,,,,,,,,,,,,,,,,,,,,,,,,,,,,,,,,,,,,,
,,,,,,,,,6712acd49ca5448a6e983e6c,USA,13 or older,"no, only English or Spanish",no,2025-07-24_09h12.56.641,empathy_intonation_perc_control,2024.2.4,Win32,60.60606061,6712acd49ca5448a6e983e6c,68817205a84113384fffdfe3,68823081ec036908c4a329f6,,,,,,,,,,,,./stim/wavs/castilian_match_interrogative-total-yn_Marta-abre-el-regalo.wav,1,,,50.9861,53.8016,1,1,2.296,,0,7,7,5,1,6,0,castilian,,,,,,,,,,,,,,,,,,,,,,,,,,,,,,,,,,,,,,,,,,,,,,,,,,,,,,,,
,,,,,,,,,6712acd49ca5448a6e983e6c,USA,13 or older,"no, only English or Spanish",no,2025-07-24_09h12.56.641,empathy_intonation_perc_control,2024.2.4,Win32,60.60606061,6712acd49ca5448a6e983e6c,68817205a84113384fffdfe3,68823081ec036908c4a329f6,,,,,,,,,,,,./stim/wavs/castilian_match_declarative-broad-focus_Mariano-habla-del-tiempo.wav,0,,,53.8024,57.3569,0,1,3.032,,0,8,8,48,1,49,0,castilian,,,,,,,,,,,,,,,,,,,,,,,,,,,,,,,,,,,,,,,,,,,,,,,,,,,,,,,,
,,,,,,,,,6712acd49ca5448a6e983e6c,USA,13 or older,"no, only English or Spanish",no,2025-07-24_09h12.56.641,empathy_intonation_perc_control,2024.2.4,Win32,60.60606061,6712acd49ca5448a6e983e6c,68817205a84113384fffdfe3,68823081ec036908c4a329f6,,,,,,,,,,,,./stim/wavs/mexican_match_declarative-broad-focus_Mariano-habla-del-tiempo.wav,0,,,57.3588,60.2187,0,1,2.3344,,0,9,9,60,1,61,0,mexican,,,,,,,,,,,,,,,,,,,,,,,,,,,,,,,,,,,,,,,,,,,,,,,,,,,,,,,,
,,,,,,,,,6712acd49ca5448a6e983e6c,USA,13 or older,"no, only English or Spanish",no,2025-07-24_09h12.56.641,empathy_intonation_perc_control,2024.2.4,Win32,60.60606061,6712acd49ca5448a6e983e6c,68817205a84113384fffdfe3,68823081ec036908c4a329f6,,,,,,,,,,,,./stim/wavs/mexican_mismatch_declarative-broad-focus_El-hombre-mira-la-luna.wav,0,,,60.2196,69.3383,1,0,8.5978,,0,10,10,79,1,80,0,mexican,,,,,,,,,,,,,,,,,,,,,,,,,,,,,,,,,,,,,,,,,,,,,,,,,,,,,,,,
,,,,,,,,,6712acd49ca5448a6e983e6c,USA,13 or older,"no, only English or Spanish",no,2025-07-24_09h12.56.641,empathy_intonation_perc_control,2024.2.4,Win32,60.60606061,6712acd49ca5448a6e983e6c,68817205a84113384fffdfe3,68823081ec036908c4a329f6,,,,,,,,,,,,./stim/wavs/mexican_mismatch_interrogative-total-yn_El-nino-oye-el-rio.wav,1,,,69.3406,71.4679,0,0,1.5979,,0,11,11,35,1,36,0,mexican,,,,,,,,,,,,,,,,,,,,,,,,,,,,,,,,,,,,,,,,,,,,,,,,,,,,,,,,
,,,,,,,,,6712acd49ca5448a6e983e6c,USA,13 or older,"no, only English or Spanish",no,2025-07-24_09h12.56.641,empathy_intonation_perc_control,2024.2.4,Win32,60.60606061,6712acd49ca5448a6e983e6c,68817205a84113384fffdfe3,68823081ec036908c4a329f6,,,,,,,,,,,,./stim/wavs/puertorican_match_interrogative-total-yn_Daniel-iba-a-Bolivia.wav,1,,,71.4691,73.8308,1,1,1.8348,,0,12,12,19,1,20,1,puertorican,,,,,,,,,,,,,,,,,,,,,,,,,,,,,,,,,,,,,,,,,,,,,,,,,,,,,,,,
,,,,,,,,,6712acd49ca5448a6e983e6c,USA,13 or older,"no, only English or Spanish",no,2025-07-24_09h12.56.641,empathy_intonation_perc_control,2024.2.4,Win32,60.60606061,6712acd49ca5448a6e983e6c,68817205a84113384fffdfe3,68823081ec036908c4a329f6,,,,,,,,,,,,./stim/wavs/castilian_match_declarative-broad-focus_Maria-bebe-el-vino.wav,0,,,73.8326,76.0604,0,1,1.7016,,0,13,13,47,1,48,0,castilian,,,,,,,,,,,,,,,,,,,,,,,,,,,,,,,,,,,,,,,,,,,,,,,,,,,,,,,,
,,,,,,,,,6712acd49ca5448a6e983e6c,USA,13 or older,"no, only English or Spanish",no,2025-07-24_09h12.56.641,empathy_intonation_perc_control,2024.2.4,Win32,60.60606061,6712acd49ca5448a6e983e6c,68817205a84113384fffdfe3,68823081ec036908c4a329f6,,,,,,,,,,,,./stim/wavs/cuban_match_interrogative-total-yn_Ana-lleva-el-abrigo.wav,1,,,76.0615,78.5236,0,0,1.9337,,0,14,14,6,1,7,1,cuban,,,,,,,,,,,,,,,,,,,,,,,,,,,,,,,,,,,,,,,,,,,,,,,,,,,,,,,,
,,,,,,,,,6712acd49ca5448a6e983e6c,USA,13 or older,"no, only English or Spanish",no,2025-07-24_09h12.56.641,empathy_intonation_perc_control,2024.2.4,Win32,60.60606061,6712acd49ca5448a6e983e6c,68817205a84113384fffdfe3,68823081ec036908c4a329f6,,,,,,,,,,,,./stim/wavs/castilian_mismatch_declarative-broad-focus_Mi-novio-viene-del-lago.wav,0,,,78.525,81.5021,0,1,2.4487,,0,15,15,71,1,72,0,castilian,,,,,,,,,,,,,,,,,,,,,,,,,,,,,,,,,,,,,,,,,,,,,,,,,,,,,,,,
,,,,,,,,,6712acd49ca5448a6e983e6c,USA,13 or older,"no, only English or Spanish",no,2025-07-24_09h12.56.641,empathy_intonation_perc_control,2024.2.4,Win32,60.60606061,6712acd49ca5448a6e983e6c,68817205a84113384fffdfe3,68823081ec036908c4a329f6,,,,,,,,,,,,./stim/wavs/puertorican_mismatch_declarative-broad-focus_La-maestra-vive-en-Paris.wav,0,,,81.5039,83.7151,0,1,1.6841,,0,16,16,86,1,87,0,puertorican,,,,,,,,,,,,,,,,,,,,,,,,,,,,,,,,,,,,,,,,,,,,,,,,,,,,,,,,
,,,,,,,,,6712acd49ca5448a6e983e6c,USA,13 or older,"no, only English or Spanish",no,2025-07-24_09h12.56.641,empathy_intonation_perc_control,2024.2.4,Win32,60.60606061,6712acd49ca5448a6e983e6c,68817205a84113384fffdfe3,68823081ec036908c4a329f6,,,,,,,,,,,,./stim/wavs/cuban_match_declarative-broad-focus_Ana-lleva-el-abrigo.wav,0,,,83.7157,85.8127,0,1,1.5705,,0,17,17,50,1,51,0,cuban,,,,,,,,,,,,,,,,,,,,,,,,,,,,,,,,,,,,,,,,,,,,,,,,,,,,,,,,
,,,,,,,,,6712acd49ca5448a6e983e6c,USA,13 or older,"no, only English or Spanish",no,2025-07-24_09h12.56.641,empathy_intonation_perc_control,2024.2.4,Win32,60.60606061,6712acd49ca5448a6e983e6c,68817205a84113384fffdfe3,68823081ec036908c4a329f6,,,,,,,,,,,,./stim/wavs/mexican_match_interrogative-total-yn_Daniel-iba-a-Bolivia.wav,1,,,85.8142,88.1419,1,1,1.8008,,0,18,18,13,1,14,0,mexican,,,,,,,,,,,,,,,,,,,,,,,,,,,,,,,,,,,,,,,,,,,,,,,,,,,,,,,,
,,,,,,,,,6712acd49ca5448a6e983e6c,USA,13 or older,"no, only English or Spanish",no,2025-07-24_09h12.56.641,empathy_intonation_perc_control,2024.2.4,Win32,60.60606061,6712acd49ca5448a6e983e6c,68817205a84113384fffdfe3,68823081ec036908c4a329f6,,,,,,,,,,,,./stim/wavs/castilian_match_declarative-broad-focus_Marta-abre-el-regalo.wav,0,,,88.1436,91.3535,1,0,2.6782,,0,19,19,49,1,50,0,castilian,,,,,,,,,,,,,,,,,,,,,,,,,,,,,,,,,,,,,,,,,,,,,,,,,,,,,,,,
,,,,,,,,,6712acd49ca5448a6e983e6c,USA,13 or older,"no, only English or Spanish",no,2025-07-24_09h12.56.641,empathy_intonation_perc_control,2024.2.4,Win32,60.60606061,6712acd49ca5448a6e983e6c,68817205a84113384fffdfe3,68823081ec036908c4a329f6,,,,,,,,,,,,./stim/wavs/cuban_mismatch_interrogative-total-yn_El-hombre-mira-la-luna.wav,1,,,91.3547,95.1477,1,1,3.279,,0,20,20,29,1,30,1,cuban,,,,,,,,,,,,,,,,,,,,,,,,,,,,,,,,,,,,,,,,,,,,,,,,,,,,,,,,
,,,,,,,,,6712acd49ca5448a6e983e6c,USA,13 or older,"no, only English or Spanish",no,2025-07-24_09h12.56.641,empathy_intonation_perc_control,2024.2.4,Win32,60.60606061,6712acd49ca5448a6e983e6c,68817205a84113384fffdfe3,68823081ec036908c4a329f6,,,,,,,,,,,,./stim/wavs/mexican_mismatch_interrogative-total-yn_Mi-tia-odia-la-lluvia.wav,1,,,95.1486,97.6767,1,1,2.0057,,0,21,21,38,1,39,0,mexican,,,,,,,,,,,,,,,,,,,,,,,,,,,,,,,,,,,,,,,,,,,,,,,,,,,,,,,,
,,,,,,,,,6712acd49ca5448a6e983e6c,USA,13 or older,"no, only English or Spanish",no,2025-07-24_09h12.56.641,empathy_intonation_perc_control,2024.2.4,Win32,60.60606061,6712acd49ca5448a6e983e6c,68817205a84113384fffdfe3,68823081ec036908c4a329f6,,,,,,,,,,,,./stim/wavs/castilian_match_interrogative-total-yn_Mariano-habla-del-tiempo.wav,1,,,97.6781,101.8539,1,1,3.6459,,0,22,22,4,1,5,0,castilian,,,,,,,,,,,,,,,,,,,,,,,,,,,,,,,,,,,,,,,,,,,,,,,,,,,,,,,,
,,,,,,,,,6712acd49ca5448a6e983e6c,USA,13 or older,"no, only English or Spanish",no,2025-07-24_09h12.56.641,empathy_intonation_perc_control,2024.2.4,Win32,60.60606061,6712acd49ca5448a6e983e6c,68817205a84113384fffdfe3,68823081ec036908c4a329f6,,,,,,,,,,,,./stim/wavs/mexican_match_interrogative-total-yn_Emilio-ama-la-marcha.wav,1,,,101.8554,103.9514,1,1,1.5701,,0,23,23,15,1,16,0,mexican,,,,,,,,,,,,,,,,,,,,,,,,,,,,,,,,,,,,,,,,,,,,,,,,,,,,,,,,
,,,,,,,,,6712acd49ca5448a6e983e6c,USA,13 or older,"no, only English or Spanish",no,2025-07-24_09h12.56.641,empathy_intonation_perc_control,2024.2.4,Win32,60.60606061,6712acd49ca5448a6e983e6c,68817205a84113384fffdfe3,68823081ec036908c4a329f6,,,,,,,,,,,,./stim/wavs/castilian_match_interrogative-total-yn_Maria-bebe-el-vino.wav,1,,,103.9531,106.7969,1,1,2.3189,,0,24,24,3,1,4,0,castilian,,,,,,,,,,,,,,,,,,,,,,,,,,,,,,,,,,,,,,,,,,,,,,,,,,,,,,,,
,,,,,,,,,6712acd49ca5448a6e983e6c,USA,13 or older,"no, only English or Spanish",no,2025-07-24_09h12.56.641,empathy_intonation_perc_control,2024.2.4,Win32,60.60606061,6712acd49ca5448a6e983e6c,68817205a84113384fffdfe3,68823081ec036908c4a329f6,,,,,,,,,,,,./stim/wavs/cuban_mismatch_declarative-broad-focus_El-bebe-comia-muy-bien.wav,0,,,106.8001,109.5921,0,1,2.2656,,0,25,25,73,1,74,0,cuban,,,,,,,,,,,,,,,,,,,,,,,,,,,,,,,,,,,,,,,,,,,,,,,,,,,,,,,,
,,,,,,,,,6712acd49ca5448a6e983e6c,USA,13 or older,"no, only English or Spanish",no,2025-07-24_09h12.56.641,empathy_intonation_perc_control,2024.2.4,Win32,60.60606061,6712acd49ca5448a6e983e6c,68817205a84113384fffdfe3,68823081ec036908c4a329f6,,,,,,,,,,,,./stim/wavs/cuban_mismatch_interrogative-total-yn_El-nino-oye-el-rio.wav,1,,,109.5937,112.0054,1,1,1.8831,,0,26,26,30,1,31,1,cuban,,,,,,,,,,,,,,,,,,,,,,,,,,,,,,,,,,,,,,,,,,,,,,,,,,,,,,,,
,,,,,,,,,6712acd49ca5448a6e983e6c,USA,13 or older,"no, only English or Spanish",no,2025-07-24_09h12.56.641,empathy_intonation_perc_control,2024.2.4,Win32,60.60606061,6712acd49ca5448a6e983e6c,68817205a84113384fffdfe3,68823081ec036908c4a329f6,,,,,,,,,,,,./stim/wavs/mexican_match_interrogative-total-yn_Marta-abre-el-regalo.wav,1,,,112.0069,115.2006,1,1,2.6647,,0,27,27,17,1,18,0,mexican,,,,,,,,,,,,,,,,,,,,,,,,,,,,,,,,,,,,,,,,,,,,,,,,,,,,,,,,
,,,,,,,,,6712acd49ca5448a6e983e6c,USA,13 or older,"no, only English or Spanish",no,2025-07-24_09h12.56.641,empathy_intonation_perc_control,2024.2.4,Win32,60.60606061,6712acd49ca5448a6e983e6c,68817205a84113384fffdfe3,68823081ec036908c4a329f6,,,,,,,,,,,,./stim/wavs/puertorican_match_declarative-broad-focus_Manuela-vende-el-carro.wav,0,,,115.202,117.5838,0,1,1.8532,,0,28,28,66,1,67,0,puertorican,,,,,,,,,,,,,,,,,,,,,,,,,,,,,,,,,,,,,,,,,,,,,,,,,,,,,,,,
,,,,,,,,,6712acd49ca5448a6e983e6c,USA,13 or older,"no, only English or Spanish",no,2025-07-24_09h12.56.641,empathy_intonation_perc_control,2024.2.4,Win32,60.60606061,6712acd49ca5448a6e983e6c,68817205a84113384fffdfe3,68823081ec036908c4a329f6,,,,,,,,,,,,./stim/wavs/mexican_match_declarative-broad-focus_Marta-abre-el-regalo.wav,0,,,117.5852,119.5104,0,1,1.396,,0,29,29,61,1,62,0,mexican,,,,,,,,,,,,,,,,,,,,,,,,,,,,,,,,,,,,,,,,,,,,,,,,,,,,,,,,
,,,,,,,,,6712acd49ca5448a6e983e6c,USA,13 or older,"no, only English or Spanish",no,2025-07-24_09h12.56.641,empathy_intonation_perc_control,2024.2.4,Win32,60.60606061,6712acd49ca5448a6e983e6c,68817205a84113384fffdfe3,68823081ec036908c4a329f6,,,,,,,,,,,,./stim/wavs/puertorican_mismatch_interrogative-total-yn_La-maestra-vive-en-Paris.wav,1,,,119.5125,121.7901,1,1,1.7577,,0,30,30,41,1,42,1,puertorican,,,,,,,,,,,,,,,,,,,,,,,,,,,,,,,,,,,,,,,,,,,,,,,,,,,,,,,,
,,,,,,,,,6712acd49ca5448a6e983e6c,USA,13 or older,"no, only English or Spanish",no,2025-07-24_09h12.56.641,empathy_intonation_perc_control,2024.2.4,Win32,60.60606061,6712acd49ca5448a6e983e6c,68817205a84113384fffdfe3,68823081ec036908c4a329f6,,,,,,,,,,,,./stim/wavs/puertorican_match_declarative-broad-focus_David-leia-el-libro.wav,0,,,121.7919,124.9033,0,1,2.5869,,0,31,31,64,1,65,0,puertorican,,,,,,,,,,,,,,,,,,,,,,,,,,,,,,,,,,,,,,,,,,,,,,,,,,,,,,,,
,,,,,,,,,6712acd49ca5448a6e983e6c,USA,13 or older,"no, only English or Spanish",no,2025-07-24_09h12.56.641,empathy_intonation_perc_control,2024.2.4,Win32,60.60606061,6712acd49ca5448a6e983e6c,68817205a84113384fffdfe3,68823081ec036908c4a329f6,,,,,,,,,,,,./stim/wavs/puertorican_match_declarative-broad-focus_Ana-lleva-el-abrigo.wav,0,,,124.9057,127.1665,0,1,1.7335,,0,32,32,62,1,63,0,puertorican,,,,,,,,,,,,,,,,,,,,,,,,,,,,,,,,,,,,,,,,,,,,,,,,,,,,,,,,
,,,,,,,,,6712acd49ca5448a6e983e6c,USA,13 or older,"no, only English or Spanish",no,2025-07-24_09h12.56.641,empathy_intonation_perc_control,2024.2.4,Win32,60.60606061,6712acd49ca5448a6e983e6c,68817205a84113384fffdfe3,68823081ec036908c4a329f6,,,,,,,,,,,,./stim/wavs/cuban_match_declarative-broad-focus_Maria-bebe-el-vino.wav,0,,,127.1693,129.1306,0,1,1.443,,0,33,33,53,1,54,0,cuban,,,,,,,,,,,,,,,,,,,,,,,,,,,,,,,,,,,,,,,,,,,,,,,,,,,,,,,,
,,,,,,,,,6712acd49ca5448a6e983e6c,USA,13 or older,"no, only English or Spanish",no,2025-07-24_09h12.56.641,empathy_intonation_perc_control,2024.2.4,Win32,60.60606061,6712acd49ca5448a6e983e6c,68817205a84113384fffdfe3,68823081ec036908c4a329f6,,,,,,,,,,,,./stim/wavs/mexican_match_declarative-broad-focus_Daniel-iba-a-Bolivia.wav,0,,,129.1328,131.1592,0,1,1.5035,,0,34,34,57,1,58,0,mexican,,,,,,,,,,,,,,,,,,,,,,,,,,,,,,,,,,,,,,,,,,,,,,,,,,,,,,,,
,,,,,,,,,6712acd49ca5448a6e983e6c,USA,13 or older,"no, only English or Spanish",no,2025-07-24_09h12.56.641,empathy_intonation_perc_control,2024.2.4,Win32,60.60606061,6712acd49ca5448a6e983e6c,68817205a84113384fffdfe3,68823081ec036908c4a329f6,,,,,,,,,,,,./stim/wavs/puertorican_match_declarative-broad-focus_Emilio-ama-la-marcha.wav,0,,,131.1603,133.4097,0,1,1.726,,0,35,35,65,1,66,0,puertorican,,,,,,,,,,,,,,,,,,,,,,,,,,,,,,,,,,,,,,,,,,,,,,,,,,,,,,,,
,,,,,,,,,6712acd49ca5448a6e983e6c,USA,13 or older,"no, only English or Spanish",no,2025-07-24_09h12.56.641,empathy_intonation_perc_control,2024.2.4,Win32,60.60606061,6712acd49ca5448a6e983e6c,68817205a84113384fffdfe3,68823081ec036908c4a329f6,,,,,,,,,,,,./stim/wavs/cuban_match_declarative-broad-focus_Mariano-habla-del-tiempo.wav,0,,,133.4109,136.1007,1,0,2.1655,,0,36,36,54,1,55,0,cuban,,,,,,,,,,,,,,,,,,,,,,,,,,,,,,,,,,,,,,,,,,,,,,,,,,,,,,,,
,,,,,,,,,6712acd49ca5448a6e983e6c,USA,13 or older,"no, only English or Spanish",no,2025-07-24_09h12.56.641,empathy_intonation_perc_control,2024.2.4,Win32,60.60606061,6712acd49ca5448a6e983e6c,68817205a84113384fffdfe3,68823081ec036908c4a329f6,,,,,,,,,,,,./stim/wavs/castilian_mismatch_interrogative-total-yn_La-nina-lava-el-plato.wav,1,,,136.102,138.1645,1,1,1.5331,,0,37,37,25,1,26,0,castilian,,,,,,,,,,,,,,,,,,,,,,,,,,,,,,,,,,,,,,,,,,,,,,,,,,,,,,,,
,,,,,,,,,6712acd49ca5448a6e983e6c,USA,13 or older,"no, only English or Spanish",no,2025-07-24_09h12.56.641,empathy_intonation_perc_control,2024.2.4,Win32,60.60606061,6712acd49ca5448a6e983e6c,68817205a84113384fffdfe3,68823081ec036908c4a329f6,,,,,,,,,,,,./stim/wavs/cuban_mismatch_declarative-broad-focus_El-hombre-mira-la-luna.wav,0,,,138.1659,144.4553,1,0,5.764,,0,38,38,74,1,75,0,cuban,,,,,,,,,,,,,,,,,,,,,,,,,,,,,,,,,,,,,,,,,,,,,,,,,,,,,,,,
,,,,,,,,,6712acd49ca5448a6e983e6c,USA,13 or older,"no, only English or Spanish",no,2025-07-24_09h12.56.641,empathy_intonation_perc_control,2024.2.4,Win32,60.60606061,6712acd49ca5448a6e983e6c,68817205a84113384fffdfe3,68823081ec036908c4a329f6,,,,,,,,,,,,./stim/wavs/cuban_mismatch_declarative-broad-focus_La-nina-lava-el-plato.wav,0,,,144.4583,146.6847,0,1,1.6964,,0,39,39,75,1,76,0,cuban,,,,,,,,,,,,,,,,,,,,,,,,,,,,,,,,,,,,,,,,,,,,,,,,,,,,,,,,
,,,,,,,,,6712acd49ca5448a6e983e6c,USA,13 or older,"no, only English or Spanish",no,2025-07-24_09h12.56.641,empathy_intonation_perc_control,2024.2.4,Win32,60.60606061,6712acd49ca5448a6e983e6c,68817205a84113384fffdfe3,68823081ec036908c4a329f6,,,,,,,,,,,,./stim/wavs/cuban_mismatch_interrogative-total-yn_Mi-novio-viene-del-lago.wav,1,,,146.6867,149.6173,0,0,2.4123,,0,40,40,32,1,33,1,cuban,,,,,,,,,,,,,,,,,,,,,,,,,,,,,,,,,,,,,,,,,,,,,,,,,,,,,,,,
,,,,,,,,,6712acd49ca5448a6e983e6c,USA,13 or older,"no, only English or Spanish",no,2025-07-24_09h12.56.641,empathy_intonation_perc_control,2024.2.4,Win32,60.60606061,6712acd49ca5448a6e983e6c,68817205a84113384fffdfe3,68823081ec036908c4a329f6,,,,,,,,,,,,./stim/wavs/puertorican_mismatch_declarative-broad-focus_El-nino-oye-el-rio.wav,0,,,149.6199,152.0601,1,0,1.9188,,0,41,41,85,1,86,0,puertorican,,,,,,,,,,,,,,,,,,,,,,,,,,,,,,,,,,,,,,,,,,,,,,,,,,,,,,,,
,,,,,,,,,6712acd49ca5448a6e983e6c,USA,13 or older,"no, only English or Spanish",no,2025-07-24_09h12.56.641,empathy_intonation_perc_control,2024.2.4,Win32,60.60606061,6712acd49ca5448a6e983e6c,68817205a84113384fffdfe3,68823081ec036908c4a329f6,,,,,,,,,,,,./stim/wavs/mexican_match_declarative-broad-focus_Ana-lleva-el-abrigo.wav,0,,,152.0622,154.4913,0,1,1.9067,,0,42,42,56,1,57,0,mexican,,,,,,,,,,,,,,,,,,,,,,,,,,,,,,,,,,,,,,,,,,,,,,,,,,,,,,,,
,,,,,,,,,6712acd49ca5448a6e983e6c,USA,13 or older,"no, only English or Spanish",no,2025-07-24_09h12.56.641,empathy_intonation_perc_control,2024.2.4,Win32,60.60606061,6712acd49ca5448a6e983e6c,68817205a84113384fffdfe3,68823081ec036908c4a329f6,,,,,,,,,,,,./stim/wavs/mexican_mismatch_declarative-broad-focus_El-bebe-comia-muy-bien.wav,0,,,154.493,156.4695,1,0,1.4455,,0,43,43,78,1,79,0,mexican,,,,,,,,,,,,,,,,,,,,,,,,,,,,,,,,,,,,,,,,,,,,,,,,,,,,,,,,
,,,,,,,,,6712acd49ca5448a6e983e6c,USA,13 or older,"no, only English or Spanish",no,2025-07-24_09h12.56.641,empathy_intonation_perc_control,2024.2.4,Win32,60.60606061,6712acd49ca5448a6e983e6c,68817205a84113384fffdfe3,68823081ec036908c4a329f6,,,,,,,,,,,,./stim/wavs/cuban_match_interrogative-total-yn_Manuela-vende-el-carro.wav,1,,,156.4703,158.8161,0,0,1.818,,0,44,44,8,1,9,1,cuban,,,,,,,,,,,,,,,,,,,,,,,,,,,,,,,,,,,,,,,,,,,,,,,,,,,,,,,,
,,,,,,,,,6712acd49ca5448a6e983e6c,USA,13 or older,"no, only English or Spanish",no,2025-07-24_09h12.56.641,empathy_intonation_perc_control,2024.2.4,Win32,60.60606061,6712acd49ca5448a6e983e6c,68817205a84113384fffdfe3,68823081ec036908c4a329f6,,,,,,,,,,,,./stim/wavs/cuban_match_declarative-broad-focus_Manuela-vende-el-carro.wav,0,,,158.8192,161.1452,0,1,1.796,,0,45,45,52,1,53,0,cuban,,,,,,,,,,,,,,,,,,,,,,,,,,,,,,,,,,,,,,,,,,,,,,,,,,,,,,,,
,,,,,,,,,6712acd49ca5448a6e983e6c,USA,13 or older,"no, only English or Spanish",no,2025-07-24_09h12.56.641,empathy_intonation_perc_control,2024.2.4,Win32,60.60606061,6712acd49ca5448a6e983e6c,68817205a84113384fffdfe3,68823081ec036908c4a329f6,,,,,,,,,,,,./stim/wavs/puertorican_mismatch_interrogative-total-yn_El-hombre-mira-la-luna.wav,1,,,161.1467,163.3785,1,1,1.7053,,0,46,46,39,1,40,1,puertorican,,,,,,,,,,,,,,,,,,,,,,,,,,,,,,,,,,,,,,,,,,,,,,,,,,,,,,,,
,,,,,,,,,6712acd49ca5448a6e983e6c,USA,13 or older,"no, only English or Spanish",no,2025-07-24_09h12.56.641,empathy_intonation_perc_control,2024.2.4,Win32,60.60606061,6712acd49ca5448a6e983e6c,68817205a84113384fffdfe3,68823081ec036908c4a329f6,,,,,,,,,,,,./stim/wavs/castilian_match_declarative-broad-focus_Manuela-vende-el-carro.wav,0,,,163.3813,165.7722,0,1,1.8631,,0,47,47,46,1,47,0,castilian,,,,,,,,,,,,,,,,,,,,,,,,,,,,,,,,,,,,,,,,,,,,,,,,,,,,,,,,
,,,,,,,,,6712acd49ca5448a6e983e6c,USA,13 or older,"no, only English or Spanish",no,2025-07-24_09h12.56.641,empathy_intonation_perc_control,2024.2.4,Win32,60.60606061,6712acd49ca5448a6e983e6c,68817205a84113384fffdfe3,68823081ec036908c4a329f6,,,,,,,,,,,,./stim/wavs/mexican_mismatch_interrogative-total-yn_La-maestra-vive-en-Paris.wav,1,,,165.7742,167.9691,1,1,1.6663,,0,48,48,36,1,37,0,mexican,,,,,,,,,,,,,,,,,,,,,,,,,,,,,,,,,,,,,,,,,,,,,,,,,,,,,,,,
,,,,,,,,,6712acd49ca5448a6e983e6c,USA,13 or older,"no, only English or Spanish",no,2025-07-24_09h12.56.641,empathy_intonation_perc_control,2024.2.4,Win32,60.60606061,6712acd49ca5448a6e983e6c,68817205a84113384fffdfe3,68823081ec036908c4a329f6,,,,,,,,,,,,./stim/wavs/castilian_mismatch_declarative-broad-focus_Mi-tia-odia-la-lluvia.wav,0,,,167.9707,170.4649,0,1,1.9668,,0,49,49,72,1,73,0,castilian,,,,,,,,,,,,,,,,,,,,,,,,,,,,,,,,,,,,,,,,,,,,,,,,,,,,,,,,
,,,,,,,,,6712acd49ca5448a6e983e6c,USA,13 or older,"no, only English or Spanish",no,2025-07-24_09h12.56.641,empathy_intonation_perc_control,2024.2.4,Win32,60.60606061,6712acd49ca5448a6e983e6c,68817205a84113384fffdfe3,68823081ec036908c4a329f6,,,,,,,,,,,,./stim/wavs/cuban_mismatch_interrogative-total-yn_Mi-tia-odia-la-lluvia.wav,1,,,170.4685,172.5285,1,1,1.5309,,0,50,50,33,1,34,1,cuban,,,,,,,,,,,,,,,,,,,,,,,,,,,,,,,,,,,,,,,,,,,,,,,,,,,,,,,,
,,,,,,,,,6712acd49ca5448a6e983e6c,USA,13 or older,"no, only English or Spanish",no,2025-07-24_09h12.56.641,empathy_intonation_perc_control,2024.2.4,Win32,60.60606061,6712acd49ca5448a6e983e6c,68817205a84113384fffdfe3,68823081ec036908c4a329f6,,,,,,,,,,,,./stim/wavs/mexican_mismatch_declarative-broad-focus_Mi-tia-odia-la-lluvia.wav,0,,,172.5299,174.5251,0,1,1.4686,,0,51,51,82,1,83,0,mexican,,,,,,,,,,,,,,,,,,,,,,,,,,,,,,,,,,,,,,,,,,,,,,,,,,,,,,,,
,,,,,,,,,6712acd49ca5448a6e983e6c,USA,13 or older,"no, only English or Spanish",no,2025-07-24_09h12.56.641,empathy_intonation_perc_control,2024.2.4,Win32,60.60606061,6712acd49ca5448a6e983e6c,68817205a84113384fffdfe3,68823081ec036908c4a329f6,,,,,,,,,,,,./stim/wavs/puertorican_mismatch_interrogative-total-yn_El-nino-oye-el-rio.wav,1,,,174.527,176.7233,0,0,1.6717,,0,52,52,40,1,41,1,puertorican,,,,,,,,,,,,,,,,,,,,,,,,,,,,,,,,,,,,,,,,,,,,,,,,,,,,,,,,
,,,,,,,,,6712acd49ca5448a6e983e6c,USA,13 or older,"no, only English or Spanish",no,2025-07-24_09h12.56.641,empathy_intonation_perc_control,2024.2.4,Win32,60.60606061,6712acd49ca5448a6e983e6c,68817205a84113384fffdfe3,68823081ec036908c4a329f6,,,,,,,,,,,,./stim/wavs/puertorican_match_interrogative-total-yn_Manuela-vende-el-carro.wav,1,,,176.7251,178.6347,1,1,1.3844,,0,53,53,22,1,23,1,puertorican,,,,,,,,,,,,,,,,,,,,,,,,,,,,,,,,,,,,,,,,,,,,,,,,,,,,,,,,
,,,,,,,,,6712acd49ca5448a6e983e6c,USA,13 or older,"no, only English or Spanish",no,2025-07-24_09h12.56.641,empathy_intonation_perc_control,2024.2.4,Win32,60.60606061,6712acd49ca5448a6e983e6c,68817205a84113384fffdfe3,68823081ec036908c4a329f6,,,,,,,,,,,,./stim/wavs/mexican_match_declarative-broad-focus_Emilio-ama-la-marcha.wav,0,,,178.6355,180.9646,0,1,1.7974,,0,54,54,59,1,60,0,mexican,,,,,,,,,,,,,,,,,,,,,,,,,,,,,,,,,,,,,,,,,,,,,,,,,,,,,,,,
,,,,,,,,,6712acd49ca5448a6e983e6c,USA,13 or older,"no, only English or Spanish",no,2025-07-24_09h12.56.641,empathy_intonation_perc_control,2024.2.4,Win32,60.60606061,6712acd49ca5448a6e983e6c,68817205a84113384fffdfe3,68823081ec036908c4a329f6,,,,,,,,,,,,./stim/wavs/cuban_match_interrogative-total-yn_Maria-bebe-el-vino.wav,1,,,180.9657,183.4272,0,0,1.9377,,0,55,55,9,1,10,1,cuban,,,,,,,,,,,,,,,,,,,,,,,,,,,,,,,,,,,,,,,,,,,,,,,,,,,,,,,,
,,,,,,,,,6712acd49ca5448a6e983e6c,USA,13 or older,"no, only English or Spanish",no,2025-07-24_09h12.56.641,empathy_intonation_perc_control,2024.2.4,Win32,60.60606061,6712acd49ca5448a6e983e6c,68817205a84113384fffdfe3,68823081ec036908c4a329f6,,,,,,,,,,,,./stim/wavs/castilian_match_interrogative-total-yn_Manuela-vende-el-carro.wav,1,,,183.428,185.9575,0,0,1.9985,,0,56,56,2,1,3,0,castilian,,,,,,,,,,,,,,,,,,,,,,,,,,,,,,,,,,,,,,,,,,,,,,,,,,,,,,,,
,,,,,,,,,6712acd49ca5448a6e983e6c,USA,13 or older,"no, only English or Spanish",no,2025-07-24_09h12.56.641,empathy_intonation_perc_control,2024.2.4,Win32,60.60606061,6712acd49ca5448a6e983e6c,68817205a84113384fffdfe3,68823081ec036908c4a329f6,,,,,,,,,,,,./stim/wavs/mexican_match_interrogative-total-yn_Ana-lleva-el-abrigo.wav,1,,,185.9583,188.3381,0,0,1.8432,,0,57,57,12,1,13,0,mexican,,,,,,,,,,,,,,,,,,,,,,,,,,,,,,,,,,,,,,,,,,,,,,,,,,,,,,,,
,,,,,,,,,6712acd49ca5448a6e983e6c,USA,13 or older,"no, only English or Spanish",no,2025-07-24_09h12.56.641,empathy_intonation_perc_control,2024.2.4,Win32,60.60606061,6712acd49ca5448a6e983e6c,68817205a84113384fffdfe3,68823081ec036908c4a329f6,,,,,,,,,,,,./stim/wavs/mexican_match_declarative-broad-focus_David-leia-el-libro.wav,0,,,188.3394,190.4333,0,1,1.5659,,0,58,58,58,1,59,0,mexican,,,,,,,,,,,,,,,,,,,,,,,,,,,,,,,,,,,,,,,,,,,,,,,,,,,,,,,,
,,,,,,,,,6712acd49ca5448a6e983e6c,USA,13 or older,"no, only English or Spanish",no,2025-07-24_09h12.56.641,empathy_intonation_perc_control,2024.2.4,Win32,60.60606061,6712acd49ca5448a6e983e6c,68817205a84113384fffdfe3,68823081ec036908c4a329f6,,,,,,,,,,,,./stim/wavs/puertorican_mismatch_declarative-broad-focus_La-nina-lava-el-plato.wav,0,,,190.4342,192.447,0,1,1.4809,,0,59,59,87,1,88,0,puertorican,,,,,,,,,,,,,,,,,,,,,,,,,,,,,,,,,,,,,,,,,,,,,,,,,,,,,,,,
,,,,,,,,,6712acd49ca5448a6e983e6c,USA,13 or older,"no, only English or Spanish",no,2025-07-24_09h12.56.641,empathy_intonation_perc_control,2024.2.4,Win32,60.60606061,6712acd49ca5448a6e983e6c,68817205a84113384fffdfe3,68823081ec036908c4a329f6,,,,,,,,,,,,./stim/wavs/cuban_match_interrogative-total-yn_Marta-abre-el-regalo.wav,1,,,192.4481,194.3606,0,0,1.3836,,0,60,60,11,1,12,1,cuban,,,,,,,,,,,,,,,,,,,,,,,,,,,,,,,,,,,,,,,,,,,,,,,,,,,,,,,,
,,,,,,,,,6712acd49ca5448a6e983e6c,USA,13 or older,"no, only English or Spanish",no,2025-07-24_09h12.56.641,empathy_intonation_perc_control,2024.2.4,Win32,60.60606061,6712acd49ca5448a6e983e6c,68817205a84113384fffdfe3,68823081ec036908c4a329f6,,,,,,,,,,,,./stim/wavs/mexican_match_interrogative-total-yn_David-leia-el-libro.wav,1,,,194.3613,196.2755,1,1,1.3815,,0,61,61,14,1,15,0,mexican,,,,,,,,,,,,,,,,,,,,,,,,,,,,,,,,,,,,,,,,,,,,,,,,,,,,,,,,
,,,,,,,,,6712acd49ca5448a6e983e6c,USA,13 or older,"no, only English or Spanish",no,2025-07-24_09h12.56.641,empathy_intonation_perc_control,2024.2.4,Win32,60.60606061,6712acd49ca5448a6e983e6c,68817205a84113384fffdfe3,68823081ec036908c4a329f6,,,,,,,,,,,,./stim/wavs/cuban_match_declarative-broad-focus_Marta-abre-el-regalo.wav,0,,,196.2765,198.4713,0,1,1.6635,,0,62,62,55,1,56,0,cuban,,,,,,,,,,,,,,,,,,,,,,,,,,,,,,,,,,,,,,,,,,,,,,,,,,,,,,,,
,,,,,,,,,6712acd49ca5448a6e983e6c,USA,13 or older,"no, only English or Spanish",no,2025-07-24_09h12.56.641,empathy_intonation_perc_control,2024.2.4,Win32,60.60606061,6712acd49ca5448a6e983e6c,68817205a84113384fffdfe3,68823081ec036908c4a329f6,,,,,,,,,,,,./stim/wavs/castilian_mismatch_interrogative-total-yn_Mi-novio-viene-del-lago.wav,1,,,198.473,200.6513,1,1,1.6511,,0,63,63,27,1,28,0,castilian,,,,,,,,,,,,,,,,,,,,,,,,,,,,,,,,,,,,,,,,,,,,,,,,,,,,,,,,
,,,,,,,,,6712acd49ca5448a6e983e6c,USA,13 or older,"no, only English or Spanish",no,2025-07-24_09h12.56.641,empathy_intonation_perc_control,2024.2.4,Win32,60.60606061,6712acd49ca5448a6e983e6c,68817205a84113384fffdfe3,68823081ec036908c4a329f6,,,,,,,,,,,,./stim/wavs/cuban_mismatch_interrogative-total-yn_Mi-madre-come-la-fruta.wav,1,,,200.653,202.9644,0,0,1.7841,,0,64,64,31,1,32,1,cuban,,,,,,,,,,,,,,,,,,,,,,,,,,,,,,,,,,,,,,,,,,,,,,,,,,,,,,,,
,,,,,,,,,6712acd49ca5448a6e983e6c,USA,13 or older,"no, only English or Spanish",no,2025-07-24_09h12.56.641,empathy_intonation_perc_control,2024.2.4,Win32,60.60606061,6712acd49ca5448a6e983e6c,68817205a84113384fffdfe3,68823081ec036908c4a329f6,,,,,,,,,,,,./stim/wavs/mexican_mismatch_interrogative-total-yn_Mi-novio-viene-del-lago.wav,1,,,202.966,205.0282,1,1,1.5385,,0,65,65,37,1,38,0,mexican,,,,,,,,,,,,,,,,,,,,,,,,,,,,,,,,,,,,,,,,,,,,,,,,,,,,,,,,
,,,,,,,,,6712acd49ca5448a6e983e6c,USA,13 or older,"no, only English or Spanish",no,2025-07-24_09h12.56.641,empathy_intonation_perc_control,2024.2.4,Win32,60.60606061,6712acd49ca5448a6e983e6c,68817205a84113384fffdfe3,68823081ec036908c4a329f6,,,,,,,,,,,,./stim/wavs/puertorican_mismatch_declarative-broad-focus_El-bebe-comia-muy-bien.wav,0,,,205.0295,208.111,0,1,2.5529,,0,66,66,83,1,84,0,puertorican,,,,,,,,,,,,,,,,,,,,,,,,,,,,,,,,,,,,,,,,,,,,,,,,,,,,,,,,
,,,,,,,,,6712acd49ca5448a6e983e6c,USA,13 or older,"no, only English or Spanish",no,2025-07-24_09h12.56.641,empathy_intonation_perc_control,2024.2.4,Win32,60.60606061,6712acd49ca5448a6e983e6c,68817205a84113384fffdfe3,68823081ec036908c4a329f6,,,,,,,,,,,,./stim/wavs/puertorican_mismatch_declarative-broad-focus_El-hombre-mira-la-luna.wav,0,,,208.1127,210.6719,1,0,2.0402,,0,67,67,84,1,85,0,puertorican,,,,,,,,,,,,,,,,,,,,,,,,,,,,,,,,,,,,,,,,,,,,,,,,,,,,,,,,
,,,,,,,,,6712acd49ca5448a6e983e6c,USA,13 or older,"no, only English or Spanish",no,2025-07-24_09h12.56.641,empathy_intonation_perc_control,2024.2.4,Win32,60.60606061,6712acd49ca5448a6e983e6c,68817205a84113384fffdfe3,68823081ec036908c4a329f6,,,,,,,,,,,,./stim/wavs/puertorican_mismatch_interrogative-total-yn_La-nina-lava-el-plato.wav,1,,,210.6735,212.5498,1,1,1.3556,,0,68,68,42,1,43,1,puertorican,,,,,,,,,,,,,,,,,,,,,,,,,,,,,,,,,,,,,,,,,,,,,,,,,,,,,,,,
,,,,,,,,,6712acd49ca5448a6e983e6c,USA,13 or older,"no, only English or Spanish",no,2025-07-24_09h12.56.641,empathy_intonation_perc_control,2024.2.4,Win32,60.60606061,6712acd49ca5448a6e983e6c,68817205a84113384fffdfe3,68823081ec036908c4a329f6,,,,,,,,,,,,./stim/wavs/castilian_match_declarative-broad-focus_David-leia-el-libro.wav,0,,,212.5523,214.6799,0,1,1.5976,,0,69,69,44,1,45,0,castilian,,,,,,,,,,,,,,,,,,,,,,,,,,,,,,,,,,,,,,,,,,,,,,,,,,,,,,,,
,,,,,,,,,6712acd49ca5448a6e983e6c,USA,13 or older,"no, only English or Spanish",no,2025-07-24_09h12.56.641,empathy_intonation_perc_control,2024.2.4,Win32,60.60606061,6712acd49ca5448a6e983e6c,68817205a84113384fffdfe3,68823081ec036908c4a329f6,,,,,,,,,,,,./stim/wavs/cuban_match_interrogative-total-yn_Mariano-habla-del-tiempo.wav,1,,,214.6822,216.9599,0,0,1.7502,,0,70,70,10,1,11,1,cuban,,,,,,,,,,,,,,,,,,,,,,,,,,,,,,,,,,,,,,,,,,,,,,,,,,,,,,,,
,,,,,,,,,6712acd49ca5448a6e983e6c,USA,13 or older,"no, only English or Spanish",no,2025-07-24_09h12.56.641,empathy_intonation_perc_control,2024.2.4,Win32,60.60606061,6712acd49ca5448a6e983e6c,68817205a84113384fffdfe3,68823081ec036908c4a329f6,,,,,,,,,,,,./stim/wavs/mexican_mismatch_declarative-broad-focus_Mi-novio-viene-del-lago.wav,0,,,216.9623,219.2887,0,1,1.7987,,0,71,71,81,1,82,0,mexican,,,,,,,,,,,,,,,,,,,,,,,,,,,,,,,,,,,,,,,,,,,,,,,,,,,,,,,,
,,,,,,,,,6712acd49ca5448a6e983e6c,USA,13 or older,"no, only English or Spanish",no,2025-07-24_09h12.56.641,empathy_intonation_perc_control,2024.2.4,Win32,60.60606061,6712acd49ca5448a6e983e6c,68817205a84113384fffdfe3,68823081ec036908c4a329f6,,,,,,,,,,,,./stim/wavs/puertorican_match_declarative-broad-focus_Maria-bebe-el-vino.wav,0,,,219.2902,221.2696,1,0,1.4493,,0,72,72,67,1,68,0,puertorican,,,,,,,,,,,,,,,,,,,,,,,,,,,,,,,,,,,,,,,,,,,,,,,,,,,,,,,,
,,,,,,,,,6712acd49ca5448a6e983e6c,USA,13 or older,"no, only English or Spanish",no,2025-07-24_09h12.56.641,empathy_intonation_perc_control,2024.2.4,Win32,60.60606061,6712acd49ca5448a6e983e6c,68817205a84113384fffdfe3,68823081ec036908c4a329f6,,,,,,,,,,,,./stim/wavs/mexican_mismatch_declarative-broad-focus_La-maestra-vive-en-Paris.wav,0,,,221.2715,223.5992,1,0,1.796,,0,73,73,80,1,81,0,mexican,,,,,,,,,,,,,,,,,,,,,,,,,,,,,,,,,,,,,,,,,,,,,,,,,,,,,,,,
,,,,,,,,,6712acd49ca5448a6e983e6c,USA,13 or older,"no, only English or Spanish",no,2025-07-24_09h12.56.641,empathy_intonation_perc_control,2024.2.4,Win32,60.60606061,6712acd49ca5448a6e983e6c,68817205a84113384fffdfe3,68823081ec036908c4a329f6,,,,,,,,,,,,./stim/wavs/castilian_mismatch_declarative-broad-focus_La-nina-lava-el-plato.wav,0,,,223.601,225.9953,0,1,1.865,,0,74,74,70,1,71,0,castilian,,,,,,,,,,,,,,,,,,,,,,,,,,,,,,,,,,,,,,,,,,,,,,,,,,,,,,,,
,,,,,,,,,6712acd49ca5448a6e983e6c,USA,13 or older,"no, only English or Spanish",no,2025-07-24_09h12.56.641,empathy_intonation_perc_control,2024.2.4,Win32,60.60606061,6712acd49ca5448a6e983e6c,68817205a84113384fffdfe3,68823081ec036908c4a329f6,,,,,,,,,,,,./stim/wavs/castilian_mismatch_interrogative-total-yn_Mi-madre-come-la-fruta.wav,1,,,225.997,228.2099,1,1,1.6902,,0,75,75,26,1,27,0,castilian,,,,,,,,,,,,,,,,,,,,,,,,,,,,,,,,,,,,,,,,,,,,,,,,,,,,,,,,
,,,,,,,,,6712acd49ca5448a6e983e6c,USA,13 or older,"no, only English or Spanish",no,2025-07-24_09h12.56.641,empathy_intonation_perc_control,2024.2.4,Win32,60.60606061,6712acd49ca5448a6e983e6c,68817205a84113384fffdfe3,68823081ec036908c4a329f6,,,,,,,,,,,,./stim/wavs/puertorican_mismatch_interrogative-total-yn_Mi-madre-come-la-fruta.wav,1,,,228.2124,230.759,0,0,2.0281,,0,76,76,43,1,44,1,puertorican,,,,,,,,,,,,,,,,,,,,,,,,,,,,,,,,,,,,,,,,,,,,,,,,,,,,,,,,
,,,,,,,,,6712acd49ca5448a6e983e6c,USA,13 or older,"no, only English or Spanish",no,2025-07-24_09h12.56.641,empathy_intonation_perc_control,2024.2.4,Win32,60.60606061,6712acd49ca5448a6e983e6c,68817205a84113384fffdfe3,68823081ec036908c4a329f6,,,,,,,,,,,,./stim/wavs/mexican_match_interrogative-total-yn_Mariano-habla-del-tiempo.wav,1,,,230.7603,232.9515,1,1,1.6719,,0,77,77,16,1,17,0,mexican,,,,,,,,,,,,,,,,,,,,,,,,,,,,,,,,,,,,,,,,,,,,,,,,,,,,,,,,
,,,,,,,,,6712acd49ca5448a6e983e6c,USA,13 or older,"no, only English or Spanish",no,2025-07-24_09h12.56.641,empathy_intonation_perc_control,2024.2.4,Win32,60.60606061,6712acd49ca5448a6e983e6c,68817205a84113384fffdfe3,68823081ec036908c4a329f6,,,,,,,,,,,,./stim/wavs/cuban_mismatch_declarative-broad-focus_Mi-tia-odia-la-lluvia.wav,0,,,232.953,235.1315,0,1,1.6534,,0,78,78,77,1,78,0,cuban,,,,,,,,,,,,,,,,,,,,,,,,,,,,,,,,,,,,,,,,,,,,,,,,,,,,,,,,
,,,,,,,,,6712acd49ca5448a6e983e6c,USA,13 or older,"no, only English or Spanish",no,2025-07-24_09h12.56.641,empathy_intonation_perc_control,2024.2.4,Win32,60.60606061,6712acd49ca5448a6e983e6c,68817205a84113384fffdfe3,68823081ec036908c4a329f6,,,,,,,,,,,,./stim/wavs/castilian_mismatch_declarative-broad-focus_El-nino-oye-el-rio.wav,0,,,235.1338,237.3446,0,1,1.6835,,0,79,79,68,1,69,0,castilian,,,,,,,,,,,,,,,,,,,,,,,,,,,,,,,,,,,,,,,,,,,,,,,,,,,,,,,,
,,,,,,,,,6712acd49ca5448a6e983e6c,USA,13 or older,"no, only English or Spanish",no,2025-07-24_09h12.56.641,empathy_intonation_perc_control,2024.2.4,Win32,60.60606061,6712acd49ca5448a6e983e6c,68817205a84113384fffdfe3,68823081ec036908c4a329f6,,,,,,,,,,,,./stim/wavs/castilian_mismatch_declarative-broad-focus_La-maestra-vive-en-Paris.wav,0,,,237.3466,240.39,0,1,2.5141,,0,80,80,69,1,70,0,castilian,,,,,,,,,,,,,,,,,,,,,,,,,,,,,,,,,,,,,,,,,,,,,,,,,,,,,,,,
,,,,,,,,,6712acd49ca5448a6e983e6c,USA,13 or older,"no, only English or Spanish",no,2025-07-24_09h12.56.641,empathy_intonation_perc_control,2024.2.4,Win32,60.60606061,6712acd49ca5448a6e983e6c,68817205a84113384fffdfe3,68823081ec036908c4a329f6,,,,,,,,,,,,./stim/wavs/castilian_mismatch_interrogative-total-yn_Mi-tia-odia-la-lluvia.wav,1,,,240.3923,242.5698,1,1,1.6653,,0,81,81,28,1,29,0,castilian,,,,,,,,,,,,,,,,,,,,,,,,,,,,,,,,,,,,,,,,,,,,,,,,,,,,,,,,
,,,,,,,,,6712acd49ca5448a6e983e6c,USA,13 or older,"no, only English or Spanish",no,2025-07-24_09h12.56.641,empathy_intonation_perc_control,2024.2.4,Win32,60.60606061,6712acd49ca5448a6e983e6c,68817205a84113384fffdfe3,68823081ec036908c4a329f6,,,,,,,,,,,,./stim/wavs/puertorican_match_interrogative-total-yn_Emilio-ama-la-marcha.wav,1,,,242.5716,244.7999,0,0,1.7039,,0,82,82,21,1,22,1,puertorican,,,,,,,,,,,,,,,,,,,,,,,,,,,,,,,,,,,,,,,,,,,,,,,,,,,,,,,,
,,,,,,,,,6712acd49ca5448a6e983e6c,USA,13 or older,"no, only English or Spanish",no,2025-07-24_09h12.56.641,empathy_intonation_perc_control,2024.2.4,Win32,60.60606061,6712acd49ca5448a6e983e6c,68817205a84113384fffdfe3,68823081ec036908c4a329f6,,,,,,,,,,,,./stim/wavs/puertorican_match_declarative-broad-focus_Daniel-iba-a-Bolivia.wav,0,,,244.8015,246.9199,0,1,1.5944,,0,83,83,63,1,64,0,puertorican,,,,,,,,,,,,,,,,,,,,,,,,,,,,,,,,,,,,,,,,,,,,,,,,,,,,,,,,
,,,,,,,,,6712acd49ca5448a6e983e6c,USA,13 or older,"no, only English or Spanish",no,2025-07-24_09h12.56.641,empathy_intonation_perc_control,2024.2.4,Win32,60.60606061,6712acd49ca5448a6e983e6c,68817205a84113384fffdfe3,68823081ec036908c4a329f6,,,,,,,,,,,,./stim/wavs/mexican_mismatch_interrogative-total-yn_El-hombre-mira-la-luna.wav,1,,,246.9226,248.8132,1,1,1.3777,,0,84,84,34,1,35,0,mexican,,,,,,,,,,,,,,,,,,,,,,,,,,,,,,,,,,,,,,,,,,,,,,,,,,,,,,,,
,,,,,,,,,6712acd49ca5448a6e983e6c,USA,13 or older,"no, only English or Spanish",no,2025-07-24_09h12.56.641,empathy_intonation_perc_control,2024.2.4,Win32,60.60606061,6712acd49ca5448a6e983e6c,68817205a84113384fffdfe3,68823081ec036908c4a329f6,,,,,,,,,,,,./stim/wavs/puertorican_match_interrogative-total-yn_Ana-lleva-el-abrigo.wav,1,,,248.8161,250.7909,0,0,1.4457,,0,85,85,18,1,19,1,puertorican,,,,,,,,,,,,,,,,,,,,,,,,,,,,,,,,,,,,,,,,,,,,,,,,,,,,,,,,
,,,,,,,,,6712acd49ca5448a6e983e6c,USA,13 or older,"no, only English or Spanish",no,2025-07-24_09h12.56.641,empathy_intonation_perc_control,2024.2.4,Win32,60.60606061,6712acd49ca5448a6e983e6c,68817205a84113384fffdfe3,68823081ec036908c4a329f6,,,,,,,,,,,,./stim/wavs/castilian_match_declarative-broad-focus_Emilio-ama-la-marcha.wav,0,,,250.7925,253.3035,0,1,1.984,,0,86,86,45,1,46,0,castilian,,,,,,,,,,,,,,,,,,,,,,,,,,,,,,,,,,,,,,,,,,,,,,,,,,,,,,,,
,,,,,,,,,6712acd49ca5448a6e983e6c,USA,13 or older,"no, only English or Spanish",no,2025-07-24_09h12.56.641,empathy_intonation_perc_control,2024.2.4,Win32,60.60606061,6712acd49ca5448a6e983e6c,68817205a84113384fffdfe3,68823081ec036908c4a329f6,,,,,,,,,,,,./stim/wavs/cuban_mismatch_declarative-broad-focus_Mi-novio-viene-del-lago.wav,0,,,253.3053,255.3839,0,1,1.5556,,0,87,87,76,1,77,0,cuban,,,,,,,,,,,,,,,,,,,,,,,,,,,,,,,,,,,,,,,,,,,,,,,,,,,,,,,,
,,,,,,,"Great! Now we will move on. The next task consists of about 60 trials, in each of which you will see a string of letters. 
  
  Your task is to decide whether this is a real Spanish word or not.", (press the spacebar to continue),6712acd49ca5448a6e983e6c,USA,13 or older,"no, only English or Spanish",no,2025-07-24_09h12.56.641,empathy_intonation_perc_control,2024.2.4,Win32,60.60606061,6712acd49ca5448a6e983e6c,68817205a84113384fffdfe3,68823081ec036908c4a329f6,,,,,,,,,,,,,,,,,,,,,,,,,,,,,,255.4053,259.8441,0,0,0,0,1,,,,,,,,,,,,,,,,,,,,,,,,,,,,,,,,,,,,,,,,,,,,,,,,,
,,,,,,,"If you think it is an existing Spanish word, you type '1' (for 'REAL'), and if you think it is not an existing Spanish word, you type '0' (for 'FAKE').", (press the spacebar to continue),6712acd49ca5448a6e983e6c,USA,13 or older,"no, only English or Spanish",no,2025-07-24_09h12.56.641,empathy_intonation_perc_control,2024.2.4,Win32,60.60606061,6712acd49ca5448a6e983e6c,68817205a84113384fffdfe3,68823081ec036908c4a329f6,,,,,,,,,,,,,,,,,,,,,,,,,,,,,,259.8521,262.0906,0,1,1,1,1,,,,,,,,,,,,,,,,,,,,,,,,,,,,,,,,,,,,,,,,,,,,,,,,,
,,,,,,,"If you are sure that the word exists, even though you don’t know its exact meaning, you may still respond '1' (REAL). 
  
  But if you are not sure if it is an existing word, you should respond '0' (FAKE).
  
  Let's do a practice round...", (press the spacebar to continue),6712acd49ca5448a6e983e6c,USA,13 or older,"no, only English or Spanish",no,2025-07-24_09h12.56.641,empathy_intonation_perc_control,2024.2.4,Win32,60.60606061,6712acd49ca5448a6e983e6c,68817205a84113384fffdfe3,68823081ec036908c4a329f6,,,,,,,,,,,,,,,,,,,,,,,,,,,,,,262.0981,268.7314,0,2,2,2,1,,,,,,,,,,,,,,,,,,,,,,,,,,,,,,,,,,,,,,,,,,,,,,,,,
,,,,,,,,,6712acd49ca5448a6e983e6c,USA,13 or older,"no, only English or Spanish",no,2025-07-24_09h12.56.641,empathy_intonation_perc_control,2024.2.4,Win32,60.60606061,6712acd49ca5448a6e983e6c,68817205a84113384fffdfe3,68823081ec036908c4a329f6,,,,,,,,,,,,,0,,,,,,,,,,,,,,,,,,,,,,,,268.7561,270.5286,0,1,1.2552,,270.5292,271.5262,0,0,0,0,1,0,depiste,REAL,FAKE,,,,,,,,,,,,,,,,,,,,,,,,,,,,,,,,
,,,,,,,,,6712acd49ca5448a6e983e6c,USA,13 or older,"no, only English or Spanish",no,2025-07-24_09h12.56.641,empathy_intonation_perc_control,2024.2.4,Win32,60.60606061,6712acd49ca5448a6e983e6c,68817205a84113384fffdfe3,68823081ec036908c4a329f6,,,,,,,,,,,,,1,,,,,,,,,,,,,,,,,,,,,,,,271.5337,272.7234,1,1,0.6643,,272.7236,273.7218,0,1,1,1,1,0,sí,REAL,FAKE,,,,,,,,,,,,,,,,,,,,,,,,,,,,,,,,
,,,,,,,,,6712acd49ca5448a6e983e6c,USA,13 or older,"no, only English or Spanish",no,2025-07-24_09h12.56.641,empathy_intonation_perc_control,2024.2.4,Win32,60.60606061,6712acd49ca5448a6e983e6c,68817205a84113384fffdfe3,68823081ec036908c4a329f6,,,,,,,,,,,,,0,,,,,,,,,,,,,,,,,,,,,,,,273.727,275.4687,0,1,1.2108,,275.4689,276.4679,0,2,2,2,1,0,coné,REAL,FAKE,,,,,,,,,,,,,,,,,,,,,,,,,,,,,,,,
,,,,,,,,,6712acd49ca5448a6e983e6c,USA,13 or older,"no, only English or Spanish",no,2025-07-24_09h12.56.641,empathy_intonation_perc_control,2024.2.4,Win32,60.60606061,6712acd49ca5448a6e983e6c,68817205a84113384fffdfe3,68823081ec036908c4a329f6,,,,,,,,,,,,,0,,,,,,,,,,,,,,,,,,,,,,,,276.4707,277.7497,0,1,0.7528,,277.7498,278.7469,0,3,3,3,1,0,calpar,REAL,FAKE,,,,,,,,,,,,,,,,,,,,,,,,,,,,,,,,
,,,,,,,,,6712acd49ca5448a6e983e6c,USA,13 or older,"no, only English or Spanish",no,2025-07-24_09h12.56.641,empathy_intonation_perc_control,2024.2.4,Win32,60.60606061,6712acd49ca5448a6e983e6c,68817205a84113384fffdfe3,68823081ec036908c4a329f6,,,,,,,,,,,,,0,,,,,,,,,,,,,,,,,,,,,,,,278.7508,280.0451,0,1,0.7623,,280.0452,281.0428,0,4,4,4,1,0,joten,REAL,FAKE,,,,,,,,,,,,,,,,,,,,,,,,,,,,,,,,
,,,,,,,,,6712acd49ca5448a6e983e6c,USA,13 or older,"no, only English or Spanish",no,2025-07-24_09h12.56.641,empathy_intonation_perc_control,2024.2.4,Win32,60.60606061,6712acd49ca5448a6e983e6c,68817205a84113384fffdfe3,68823081ec036908c4a329f6,,,,,,,,,,,,,1,,,,,,,,,,,,,,,,,,,,,,,,281.0446,282.2427,0,0,0.66,,282.2479,283.2401,0,5,5,5,1,0,sacapuntas,REAL,FAKE,,,,,,,,,,,,,,,,,,,,,,,,,,,,,,,,
,,,,,,,,,6712acd49ca5448a6e983e6c,USA,13 or older,"no, only English or Spanish",no,2025-07-24_09h12.56.641,empathy_intonation_perc_control,2024.2.4,Win32,60.60606061,6712acd49ca5448a6e983e6c,68817205a84113384fffdfe3,68823081ec036908c4a329f6,,,,,,,,,,,,,0,,,,,,,,,,,,,,,,,,,,,,,,283.2436,284.4549,1,0,0.6874,,284.4552,285.4538,0,6,6,6,1,0,priba,REAL,FAKE,,,,,,,,,,,,,,,,,,,,,,,,,,,,,,,,
,,,,,,,,,6712acd49ca5448a6e983e6c,USA,13 or older,"no, only English or Spanish",no,2025-07-24_09h12.56.641,empathy_intonation_perc_control,2024.2.4,Win32,60.60606061,6712acd49ca5448a6e983e6c,68817205a84113384fffdfe3,68823081ec036908c4a329f6,,,,,,,,,,,,,0,,,,,,,,,,,,,,,,,,,,,,,,285.4574,287.101,1,0,1.1175,,287.1013,288.0997,0,7,7,7,1,0,pelasula,REAL,FAKE,,,,,,,,,,,,,,,,,,,,,,,,,,,,,,,,
,,,,,,,,,6712acd49ca5448a6e983e6c,USA,13 or older,"no, only English or Spanish",no,2025-07-24_09h12.56.641,empathy_intonation_perc_control,2024.2.4,Win32,60.60606061,6712acd49ca5448a6e983e6c,68817205a84113384fffdfe3,68823081ec036908c4a329f6,,,,,,,,,,,,,1,,,,,,,,,,,,,,,,,,,,,,,,288.1037,289.2828,1,1,0.6517,,289.2849,290.2813,0,8,8,8,1,0,bien,REAL,FAKE,,,,,,,,,,,,,,,,,,,,,,,,,,,,,,,,
,,,,,,,,,6712acd49ca5448a6e983e6c,USA,13 or older,"no, only English or Spanish",no,2025-07-24_09h12.56.641,empathy_intonation_perc_control,2024.2.4,Win32,60.60606061,6712acd49ca5448a6e983e6c,68817205a84113384fffdfe3,68823081ec036908c4a329f6,,,,,,,,,,,,,1,,,,,,,,,,,,,,,,,,,,,,,,290.2828,291.578,1,1,0.7691,,291.5782,292.5753,0,9,9,9,1,0,casa,REAL,FAKE,,,,,,,,,,,,,,,,,,,,,,,,,,,,,,,,
,,,,,,,,,6712acd49ca5448a6e983e6c,USA,13 or older,"no, only English or Spanish",no,2025-07-24_09h12.56.641,empathy_intonation_perc_control,2024.2.4,Win32,60.60606061,6712acd49ca5448a6e983e6c,68817205a84113384fffdfe3,68823081ec036908c4a329f6,,,,,,,,,,,,,0,,,,,,,,,,,,,,,,,,,,,,,,292.5769,293.6741,1,0,0.5674,,293.6763,294.6723,0,10,10,10,1,0,lejo,REAL,FAKE,,,,,,,,,,,,,,,,,,,,,,,,,,,,,,,,
,,,,,,,,,6712acd49ca5448a6e983e6c,USA,13 or older,"no, only English or Spanish",no,2025-07-24_09h12.56.641,empathy_intonation_perc_control,2024.2.4,Win32,60.60606061,6712acd49ca5448a6e983e6c,68817205a84113384fffdfe3,68823081ec036908c4a329f6,,,,,,,,,,,,,0,,,,,,,,,,,,,,,,,,,,,,,,294.6742,295.9378,0,1,0.7361,,295.9386,296.9364,0,11,11,11,1,0,pretantas,REAL,FAKE,,,,,,,,,,,,,,,,,,,,,,,,,,,,,,,,
,,,,,,,,,6712acd49ca5448a6e983e6c,USA,13 or older,"no, only English or Spanish",no,2025-07-24_09h12.56.641,empathy_intonation_perc_control,2024.2.4,Win32,60.60606061,6712acd49ca5448a6e983e6c,68817205a84113384fffdfe3,68823081ec036908c4a329f6,,,,,,,,,,,,,,,,,,,,,,,,,,,,,,,,,,,,,,,,,,,,,,,,,,,,,,296.9376,297.8687,,,,,,,,,,,,,,,,,,,,,,,,,,,,,,
,,,,,,,,,6712acd49ca5448a6e983e6c,USA,13 or older,"no, only English or Spanish",no,2025-07-24_09h12.56.641,empathy_intonation_perc_control,2024.2.4,Win32,60.60606061,6712acd49ca5448a6e983e6c,68817205a84113384fffdfe3,68823081ec036908c4a329f6,,,,,,,,,,,,,1,,,,,,,,,,,,,,,,,,,,,,,,,,,,,,,,,,,,,54,fomentar,,,,,297.9371,299.7526,0,0,1.2852,,0,0,0,53,1,REAL,FAKE,,,,,,,,,,,,,,,,,
,,,,,,,,,6712acd49ca5448a6e983e6c,USA,13 or older,"no, only English or Spanish",no,2025-07-24_09h12.56.641,empathy_intonation_perc_control,2024.2.4,Win32,60.60606061,6712acd49ca5448a6e983e6c,68817205a84113384fffdfe3,68823081ec036908c4a329f6,,,,,,,,,,,,,0,,,,,,,,,,,,,,,,,,,,,,,,,,,,,,,,,,,,,16,abracer,,,,,299.7559,300.9646,1,0,0.6884,,0,1,1,15,1,REAL,FAKE,,,,,,,,,,,,,,,,,
,,,,,,,,,6712acd49ca5448a6e983e6c,USA,13 or older,"no, only English or Spanish",no,2025-07-24_09h12.56.641,empathy_intonation_perc_control,2024.2.4,Win32,60.60606061,6712acd49ca5448a6e983e6c,68817205a84113384fffdfe3,68823081ec036908c4a329f6,,,,,,,,,,,,,1,,,,,,,,,,,,,,,,,,,,,,,,,,,,,,,,,,,,,36,loro,,,,,300.9662,302.1619,1,1,0.6734,,0,2,2,35,1,REAL,FAKE,,,,,,,,,,,,,,,,,
,,,,,,,,,6712acd49ca5448a6e983e6c,USA,13 or older,"no, only English or Spanish",no,2025-07-24_09h12.56.641,empathy_intonation_perc_control,2024.2.4,Win32,60.60606061,6712acd49ca5448a6e983e6c,68817205a84113384fffdfe3,68823081ec036908c4a329f6,,,,,,,,,,,,,0,,,,,,,,,,,,,,,,,,,,,,,,,,,,,,,,,,,,,8,cadeña,,,,,302.165,303.3263,1,0,0.6329,,0,3,3,7,1,REAL,FAKE,,,,,,,,,,,,,,,,,
,,,,,,,,,6712acd49ca5448a6e983e6c,USA,13 or older,"no, only English or Spanish",no,2025-07-24_09h12.56.641,empathy_intonation_perc_control,2024.2.4,Win32,60.60606061,6712acd49ca5448a6e983e6c,68817205a84113384fffdfe3,68823081ec036908c4a329f6,,,,,,,,,,,,,1,,,,,,,,,,,,,,,,,,,,,,,,,,,,,,,,,,,,,57,tacaño,,,,,303.3293,304.624,1,1,0.7633,,0,4,4,56,1,REAL,FAKE,,,,,,,,,,,,,,,,,
,,,,,,,,,6712acd49ca5448a6e983e6c,USA,13 or older,"no, only English or Spanish",no,2025-07-24_09h12.56.641,empathy_intonation_perc_control,2024.2.4,Win32,60.60606061,6712acd49ca5448a6e983e6c,68817205a84113384fffdfe3,68823081ec036908c4a329f6,,,,,,,,,,,,,1,,,,,,,,,,,,,,,,,,,,,,,,,,,,,,,,,,,,,25,bisagra,,,,,304.6286,305.8249,0,0,0.6756,,0,5,5,24,1,REAL,FAKE,,,,,,,,,,,,,,,,,
,,,,,,,,,6712acd49ca5448a6e983e6c,USA,13 or older,"no, only English or Spanish",no,2025-07-24_09h12.56.641,empathy_intonation_perc_control,2024.2.4,Win32,60.60606061,6712acd49ca5448a6e983e6c,68817205a84113384fffdfe3,68823081ec036908c4a329f6,,,,,,,,,,,,,1,,,,,,,,,,,,,,,,,,,,,,,,,,,,,,,,,,,,,24,látigo,,,,,305.8306,307.2024,0,0,0.8569,,0,6,6,23,1,REAL,FAKE,,,,,,,,,,,,,,,,,
,,,,,,,,,6712acd49ca5448a6e983e6c,USA,13 or older,"no, only English or Spanish",no,2025-07-24_09h12.56.641,empathy_intonation_perc_control,2024.2.4,Win32,60.60606061,6712acd49ca5448a6e983e6c,68817205a84113384fffdfe3,68823081ec036908c4a329f6,,,,,,,,,,,,,0,,,,,,,,,,,,,,,,,,,,,,,,,,,,,,,,,,,,,35,rompido,,,,,307.2036,308.3676,0,1,0.6396,,0,7,7,34,1,REAL,FAKE,,,,,,,,,,,,,,,,,
,,,,,,,,,6712acd49ca5448a6e983e6c,USA,13 or older,"no, only English or Spanish",no,2025-07-24_09h12.56.641,empathy_intonation_perc_control,2024.2.4,Win32,60.60606061,6712acd49ca5448a6e983e6c,68817205a84113384fffdfe3,68823081ec036908c4a329f6,,,,,,,,,,,,,1,,,,,,,,,,,,,,,,,,,,,,,,,,,,,,,,,,,,,14,yunque,,,,,308.3699,309.6998,0,0,0.7968,,0,8,8,13,1,REAL,FAKE,,,,,,,,,,,,,,,,,
,,,,,,,,,6712acd49ca5448a6e983e6c,USA,13 or older,"no, only English or Spanish",no,2025-07-24_09h12.56.641,empathy_intonation_perc_control,2024.2.4,Win32,60.60606061,6712acd49ca5448a6e983e6c,68817205a84113384fffdfe3,68823081ec036908c4a329f6,,,,,,,,,,,,,1,,,,,,,,,,,,,,,,,,,,,,,,,,,,,,,,,,,,,49,ganar,,,,,309.7029,310.98,1,1,0.7437,,0,9,9,48,1,REAL,FAKE,,,,,,,,,,,,,,,,,
,,,,,,,,,6712acd49ca5448a6e983e6c,USA,13 or older,"no, only English or Spanish",no,2025-07-24_09h12.56.641,empathy_intonation_perc_control,2024.2.4,Win32,60.60606061,6712acd49ca5448a6e983e6c,68817205a84113384fffdfe3,68823081ec036908c4a329f6,,,,,,,,,,,,,1,,,,,,,,,,,,,,,,,,,,,,,,,,,,,,,,,,,,,90,clavel,,,,,310.9822,312.2957,0,0,0.7856,,0,10,10,89,1,REAL,FAKE,,,,,,,,,,,,,,,,,
,,,,,,,,,6712acd49ca5448a6e983e6c,USA,13 or older,"no, only English or Spanish",no,2025-07-24_09h12.56.641,empathy_intonation_perc_control,2024.2.4,Win32,60.60606061,6712acd49ca5448a6e983e6c,68817205a84113384fffdfe3,68823081ec036908c4a329f6,,,,,,,,,,,,,0,,,,,,,,,,,,,,,,,,,,,,,,,,,,,,,,,,,,,50,flamida,,,,,312.3017,313.8596,1,0,1.0267,,0,11,11,49,1,REAL,FAKE,,,,,,,,,,,,,,,,,
,,,,,,,,,6712acd49ca5448a6e983e6c,USA,13 or older,"no, only English or Spanish",no,2025-07-24_09h12.56.641,empathy_intonation_perc_control,2024.2.4,Win32,60.60606061,6712acd49ca5448a6e983e6c,68817205a84113384fffdfe3,68823081ec036908c4a329f6,,,,,,,,,,,,,1,,,,,,,,,,,,,,,,,,,,,,,,,,,,,,,,,,,,,86,barato,,,,,313.8622,315.1092,1,1,0.7185,,0,12,12,85,1,REAL,FAKE,,,,,,,,,,,,,,,,,
,,,,,,,,,6712acd49ca5448a6e983e6c,USA,13 or older,"no, only English or Spanish",no,2025-07-24_09h12.56.641,empathy_intonation_perc_control,2024.2.4,Win32,60.60606061,6712acd49ca5448a6e983e6c,68817205a84113384fffdfe3,68823081ec036908c4a329f6,,,,,,,,,,,,,1,,,,,,,,,,,,,,,,,,,,,,,,,,,,,,,,,,,,,77,tiburón,,,,,315.1164,316.2589,1,1,0.6087,,0,13,13,76,1,REAL,FAKE,,,,,,,,,,,,,,,,,
,,,,,,,,,6712acd49ca5448a6e983e6c,USA,13 or older,"no, only English or Spanish",no,2025-07-24_09h12.56.641,empathy_intonation_perc_control,2024.2.4,Win32,60.60606061,6712acd49ca5448a6e983e6c,68817205a84113384fffdfe3,68823081ec036908c4a329f6,,,,,,,,,,,,,1,,,,,,,,,,,,,,,,,,,,,,,,,,,,,,,,,,,,,9,hacha,,,,,316.2613,317.4207,1,1,0.6254,,0,14,14,8,1,REAL,FAKE,,,,,,,,,,,,,,,,,
,,,,,,,,,6712acd49ca5448a6e983e6c,USA,13 or older,"no, only English or Spanish",no,2025-07-24_09h12.56.641,empathy_intonation_perc_control,2024.2.4,Win32,60.60606061,6712acd49ca5448a6e983e6c,68817205a84113384fffdfe3,68823081ec036908c4a329f6,,,,,,,,,,,,,1,,,,,,,,,,,,,,,,,,,,,,,,,,,,,,,,,,,,,52,camisa,,,,,317.4239,318.8862,1,1,0.9356,,0,15,15,51,1,REAL,FAKE,,,,,,,,,,,,,,,,,
,,,,,,,,,6712acd49ca5448a6e983e6c,USA,13 or older,"no, only English or Spanish",no,2025-07-24_09h12.56.641,empathy_intonation_perc_control,2024.2.4,Win32,60.60606061,6712acd49ca5448a6e983e6c,68817205a84113384fffdfe3,68823081ec036908c4a329f6,,,,,,,,,,,,,1,,,,,,,,,,,,,,,,,,,,,,,,,,,,,,,,,,,,,3,pulmones,,,,,318.8889,320.3164,1,1,0.8923,,0,16,16,2,1,REAL,FAKE,,,,,,,,,,,,,,,,,
,,,,,,,,,6712acd49ca5448a6e983e6c,USA,13 or older,"no, only English or Spanish",no,2025-07-24_09h12.56.641,empathy_intonation_perc_control,2024.2.4,Win32,60.60606061,6712acd49ca5448a6e983e6c,68817205a84113384fffdfe3,68823081ec036908c4a329f6,,,,,,,,,,,,,1,,,,,,,,,,,,,,,,,,,,,,,,,,,,,,,,,,,,,65,bizcocho,,,,,320.3199,321.4643,0,0,0.6176,,0,17,17,64,1,REAL,FAKE,,,,,,,,,,,,,,,,,
,,,,,,,,,6712acd49ca5448a6e983e6c,USA,13 or older,"no, only English or Spanish",no,2025-07-24_09h12.56.641,empathy_intonation_perc_control,2024.2.4,Win32,60.60606061,6712acd49ca5448a6e983e6c,68817205a84113384fffdfe3,68823081ec036908c4a329f6,,,,,,,,,,,,,1,,,,,,,,,,,,,,,,,,,,,,,,,,,,,,,,,,,,,91,click the 1 key.,,,,,321.4705,322.8122,1,1,0.8213,,0,18,18,90,1,REAL,FAKE,,,,,,,,,,,,,,,,,
,,,,,,,,,6712acd49ca5448a6e983e6c,USA,13 or older,"no, only English or Spanish",no,2025-07-24_09h12.56.641,empathy_intonation_perc_control,2024.2.4,Win32,60.60606061,6712acd49ca5448a6e983e6c,68817205a84113384fffdfe3,68823081ec036908c4a329f6,,,,,,,,,,,,,1,,,,,,,,,,,,,,,,,,,,,,,,,,,,,,,,,,,,,28,merodear,,,,,322.815,324.2434,0,0,0.8981,,0,19,19,27,1,REAL,FAKE,,,,,,,,,,,,,,,,,
,,,,,,,,,6712acd49ca5448a6e983e6c,USA,13 or older,"no, only English or Spanish",no,2025-07-24_09h12.56.641,empathy_intonation_perc_control,2024.2.4,Win32,60.60606061,6712acd49ca5448a6e983e6c,68817205a84113384fffdfe3,68823081ec036908c4a329f6,,,,,,,,,,,,,1,,,,,,,,,,,,,,,,,,,,,,,,,,,,,,,,,,,,,11,cenefa,,,,,324.2454,325.4747,0,0,0.6959,,0,20,20,10,1,REAL,FAKE,,,,,,,,,,,,,,,,,
,,,,,,,,,6712acd49ca5448a6e983e6c,USA,13 or older,"no, only English or Spanish",no,2025-07-24_09h12.56.641,empathy_intonation_perc_control,2024.2.4,Win32,60.60606061,6712acd49ca5448a6e983e6c,68817205a84113384fffdfe3,68823081ec036908c4a329f6,,,,,,,,,,,,,0,,,,,,,,,,,,,,,,,,,,,,,,,,,,,,,,,,,,,84,escuto,,,,,325.4777,326.7894,0,1,0.7839,,0,21,21,83,1,REAL,FAKE,,,,,,,,,,,,,,,,,
,,,,,,,,,6712acd49ca5448a6e983e6c,USA,13 or older,"no, only English or Spanish",no,2025-07-24_09h12.56.641,empathy_intonation_perc_control,2024.2.4,Win32,60.60606061,6712acd49ca5448a6e983e6c,68817205a84113384fffdfe3,68823081ec036908c4a329f6,,,,,,,,,,,,,1,,,,,,,,,,,,,,,,,,,,,,,,,,,,,,,,,,,,,12,asesinato,,,,,326.7924,328.1381,1,1,0.8158,,0,22,22,11,1,REAL,FAKE,,,,,,,,,,,,,,,,,
,,,,,,,,,6712acd49ca5448a6e983e6c,USA,13 or older,"no, only English or Spanish",no,2025-07-24_09h12.56.641,empathy_intonation_perc_control,2024.2.4,Win32,60.60606061,6712acd49ca5448a6e983e6c,68817205a84113384fffdfe3,68823081ec036908c4a329f6,,,,,,,,,,,,,1,,,,,,,,,,,,,,,,,,,,,,,,,,,,,,,,,,,,,41,rebuscar,,,,,328.1415,329.3356,1,1,0.6594,,0,23,23,40,1,REAL,FAKE,,,,,,,,,,,,,,,,,
,,,,,,,,,6712acd49ca5448a6e983e6c,USA,13 or older,"no, only English or Spanish",no,2025-07-24_09h12.56.641,empathy_intonation_perc_control,2024.2.4,Win32,60.60606061,6712acd49ca5448a6e983e6c,68817205a84113384fffdfe3,68823081ec036908c4a329f6,,,,,,,,,,,,,1,,,,,,,,,,,,,,,,,,,,,,,,,,,,,,,,,,,,,6,tergiversar,,,,,329.3385,330.8336,0,0,0.9664,,0,24,24,5,1,REAL,FAKE,,,,,,,,,,,,,,,,,
,,,,,,,,,6712acd49ca5448a6e983e6c,USA,13 or older,"no, only English or Spanish",no,2025-07-24_09h12.56.641,empathy_intonation_perc_control,2024.2.4,Win32,60.60606061,6712acd49ca5448a6e983e6c,68817205a84113384fffdfe3,68823081ec036908c4a329f6,,,,,,,,,,,,,0,,,,,,,,,,,,,,,,,,,,,,,,,,,,,,,,,,,,,53,vegada,,,,,330.8364,332.1647,0,1,0.798,,0,25,25,52,1,REAL,FAKE,,,,,,,,,,,,,,,,,
,,,,,,,,,6712acd49ca5448a6e983e6c,USA,13 or older,"no, only English or Spanish",no,2025-07-24_09h12.56.641,empathy_intonation_perc_control,2024.2.4,Win32,60.60606061,6712acd49ca5448a6e983e6c,68817205a84113384fffdfe3,68823081ec036908c4a329f6,,,,,,,,,,,,,1,,,,,,,,,,,,,,,,,,,,,,,,,,,,,,,,,,,,,45,jilguero,,,,,332.1673,333.4627,0,0,0.7604,,0,26,26,44,1,REAL,FAKE,,,,,,,,,,,,,,,,,
,,,,,,,,,6712acd49ca5448a6e983e6c,USA,13 or older,"no, only English or Spanish",no,2025-07-24_09h12.56.641,empathy_intonation_perc_control,2024.2.4,Win32,60.60606061,6712acd49ca5448a6e983e6c,68817205a84113384fffdfe3,68823081ec036908c4a329f6,,,,,,,,,,,,,1,,,,,,,,,,,,,,,,,,,,,,,,,,,,,,,,,,,,,20,ávido,,,,,333.4655,334.7444,1,1,0.7486,,0,27,27,19,1,REAL,FAKE,,,,,,,,,,,,,,,,,
,,,,,,,,,6712acd49ca5448a6e983e6c,USA,13 or older,"no, only English or Spanish",no,2025-07-24_09h12.56.641,empathy_intonation_perc_control,2024.2.4,Win32,60.60606061,6712acd49ca5448a6e983e6c,68817205a84113384fffdfe3,68823081ec036908c4a329f6,,,,,,,,,,,,,0,,,,,,,,,,,,,,,,,,,,,,,,,,,,,,,,,,,,,58,plaudir,,,,,334.7488,336.0412,0,1,0.766,,0,28,28,57,1,REAL,FAKE,,,,,,,,,,,,,,,,,
,,,,,,,,,6712acd49ca5448a6e983e6c,USA,13 or older,"no, only English or Spanish",no,2025-07-24_09h12.56.641,empathy_intonation_perc_control,2024.2.4,Win32,60.60606061,6712acd49ca5448a6e983e6c,68817205a84113384fffdfe3,68823081ec036908c4a329f6,,,,,,,,,,,,,0,,,,,,,,,,,,,,,,,,,,,,,,,,,,,,,,,,,,,70,temblo,,,,,336.043,337.2567,0,1,0.6735,,0,29,29,69,1,REAL,FAKE,,,,,,,,,,,,,,,,,
,,,,,,,,,6712acd49ca5448a6e983e6c,USA,13 or older,"no, only English or Spanish",no,2025-07-24_09h12.56.641,empathy_intonation_perc_control,2024.2.4,Win32,60.60606061,6712acd49ca5448a6e983e6c,68817205a84113384fffdfe3,68823081ec036908c4a329f6,,,,,,,,,,,,,0,,,,,,,,,,,,,,,,,,,,,,,,,,,,,,,,,,,,,4,batillón,,,,,337.2592,338.4375,0,1,0.6472,,0,30,30,3,1,REAL,FAKE,,,,,,,,,,,,,,,,,
,,,,,,,,,6712acd49ca5448a6e983e6c,USA,13 or older,"no, only English or Spanish",no,2025-07-24_09h12.56.641,empathy_intonation_perc_control,2024.2.4,Win32,60.60606061,6712acd49ca5448a6e983e6c,68817205a84113384fffdfe3,68823081ec036908c4a329f6,,,,,,,,,,,,,0,,,,,,,,,,,,,,,,,,,,,,,,,,,,,,,,,,,,,42,cadallo,,,,,338.4389,339.5867,1,0,0.6129,,0,31,31,41,1,REAL,FAKE,,,,,,,,,,,,,,,,,
,,,,,,,,,6712acd49ca5448a6e983e6c,USA,13 or older,"no, only English or Spanish",no,2025-07-24_09h12.56.641,empathy_intonation_perc_control,2024.2.4,Win32,60.60606061,6712acd49ca5448a6e983e6c,68817205a84113384fffdfe3,68823081ec036908c4a329f6,,,,,,,,,,,,,0,,,,,,,,,,,,,,,,,,,,,,,,,,,,,,,,,,,,,63,esposante,,,,,339.5903,341.0503,0,1,0.9451,,0,32,32,62,1,REAL,FAKE,,,,,,,,,,,,,,,,,
,,,,,,,,,6712acd49ca5448a6e983e6c,USA,13 or older,"no, only English or Spanish",no,2025-07-24_09h12.56.641,empathy_intonation_perc_control,2024.2.4,Win32,60.60606061,6712acd49ca5448a6e983e6c,68817205a84113384fffdfe3,68823081ec036908c4a329f6,,,,,,,,,,,,,1,,,,,,,,,,,,,,,,,,,,,,,,,,,,,,,,,,,,,59,besar,,,,,341.0517,342.2987,1,1,0.7078,,0,33,33,58,1,REAL,FAKE,,,,,,,,,,,,,,,,,
,,,,,,,,,6712acd49ca5448a6e983e6c,USA,13 or older,"no, only English or Spanish",no,2025-07-24_09h12.56.641,empathy_intonation_perc_control,2024.2.4,Win32,60.60606061,6712acd49ca5448a6e983e6c,68817205a84113384fffdfe3,68823081ec036908c4a329f6,,,,,,,,,,,,,1,,,,,,,,,,,,,,,,,,,,,,,,,,,,,,,,,,,,,39,torpe,,,,,342.3005,343.4977,0,0,0.6681,,0,34,34,38,1,REAL,FAKE,,,,,,,,,,,,,,,,,
,,,,,,,,,6712acd49ca5448a6e983e6c,USA,13 or older,"no, only English or Spanish",no,2025-07-24_09h12.56.641,empathy_intonation_perc_control,2024.2.4,Win32,60.60606061,6712acd49ca5448a6e983e6c,68817205a84113384fffdfe3,68823081ec036908c4a329f6,,,,,,,,,,,,,1,,,,,,,,,,,,,,,,,,,,,,,,,,,,,,,,,,,,,88,acantilado,,,,,343.5024,344.6628,0,0,0.6336,,0,35,35,87,1,REAL,FAKE,,,,,,,,,,,,,,,,,
,,,,,,,,,6712acd49ca5448a6e983e6c,USA,13 or older,"no, only English or Spanish",no,2025-07-24_09h12.56.641,empathy_intonation_perc_control,2024.2.4,Win32,60.60606061,6712acd49ca5448a6e983e6c,68817205a84113384fffdfe3,68823081ec036908c4a329f6,,,,,,,,,,,,,1,,,,,,,,,,,,,,,,,,,,,,,,,,,,,,,,,,,,,73,hervidor,,,,,344.6678,345.9284,0,0,0.725,,0,36,36,72,1,REAL,FAKE,,,,,,,,,,,,,,,,,
,,,,,,,,,6712acd49ca5448a6e983e6c,USA,13 or older,"no, only English or Spanish",no,2025-07-24_09h12.56.641,empathy_intonation_perc_control,2024.2.4,Win32,60.60606061,6712acd49ca5448a6e983e6c,68817205a84113384fffdfe3,68823081ec036908c4a329f6,,,,,,,,,,,,,1,,,,,,,,,,,,,,,,,,,,,,,,,,,,,,,,,,,,,68,alegre,,,,,345.9323,347.1091,0,0,0.6568,,0,37,37,67,1,REAL,FAKE,,,,,,,,,,,,,,,,,
,,,,,,,,,6712acd49ca5448a6e983e6c,USA,13 or older,"no, only English or Spanish",no,2025-07-24_09h12.56.641,empathy_intonation_perc_control,2024.2.4,Win32,60.60606061,6712acd49ca5448a6e983e6c,68817205a84113384fffdfe3,68823081ec036908c4a329f6,,,,,,,,,,,,,1,,,,,,,,,,,,,,,,,,,,,,,,,,,,,,,,,,,,,13,helar,,,,,347.1117,348.2903,0,0,0.6434,,0,38,38,12,1,REAL,FAKE,,,,,,,,,,,,,,,,,
,,,,,,,,,6712acd49ca5448a6e983e6c,USA,13 or older,"no, only English or Spanish",no,2025-07-24_09h12.56.641,empathy_intonation_perc_control,2024.2.4,Win32,60.60606061,6712acd49ca5448a6e983e6c,68817205a84113384fffdfe3,68823081ec036908c4a329f6,,,,,,,,,,,,,1,,,,,,,,,,,,,,,,,,,,,,,,,,,,,,,,,,,,,26,secuestro,,,,,348.2934,349.6213,0,0,0.7962,,0,39,39,25,1,REAL,FAKE,,,,,,,,,,,,,,,,,
,,,,,,,,,6712acd49ca5448a6e983e6c,USA,13 or older,"no, only English or Spanish",no,2025-07-24_09h12.56.641,empathy_intonation_perc_control,2024.2.4,Win32,60.60606061,6712acd49ca5448a6e983e6c,68817205a84113384fffdfe3,68823081ec036908c4a329f6,,,,,,,,,,,,,1,,,,,,,,,,,,,,,,,,,,,,,,,,,,,,,,,,,,,46,martillo,,,,,349.6257,351.0051,1,1,0.8598,,0,40,40,45,1,REAL,FAKE,,,,,,,,,,,,,,,,,
,,,,,,,,,6712acd49ca5448a6e983e6c,USA,13 or older,"no, only English or Spanish",no,2025-07-24_09h12.56.641,empathy_intonation_perc_control,2024.2.4,Win32,60.60606061,6712acd49ca5448a6e983e6c,68817205a84113384fffdfe3,68823081ec036908c4a329f6,,,,,,,,,,,,,1,,,,,,,,,,,,,,,,,,,,,,,,,,,,,,,,,,,,,62,flaco,,,,,351.0068,352.2005,0,0,0.6596,,0,41,41,61,1,REAL,FAKE,,,,,,,,,,,,,,,,,
,,,,,,,,,6712acd49ca5448a6e983e6c,USA,13 or older,"no, only English or Spanish",no,2025-07-24_09h12.56.641,empathy_intonation_perc_control,2024.2.4,Win32,60.60606061,6712acd49ca5448a6e983e6c,68817205a84113384fffdfe3,68823081ec036908c4a329f6,,,,,,,,,,,,,0,,,,,,,,,,,,,,,,,,,,,,,,,,,,,,,,,,,,,1,terzo,,,,,352.2027,353.5479,0,1,0.8143,,0,42,42,0,1,REAL,FAKE,,,,,,,,,,,,,,,,,
,,,,,,,,,6712acd49ca5448a6e983e6c,USA,13 or older,"no, only English or Spanish",no,2025-07-24_09h12.56.641,empathy_intonation_perc_control,2024.2.4,Win32,60.60606061,6712acd49ca5448a6e983e6c,68817205a84113384fffdfe3,68823081ec036908c4a329f6,,,,,,,,,,,,,1,,,,,,,,,,,,,,,,,,,,,,,,,,,,,,,,,,,,,60,matar,,,,,353.5508,354.8977,0,0,0.8205,,0,43,43,59,1,REAL,FAKE,,,,,,,,,,,,,,,,,
,,,,,,,,,6712acd49ca5448a6e983e6c,USA,13 or older,"no, only English or Spanish",no,2025-07-24_09h12.56.641,empathy_intonation_perc_control,2024.2.4,Win32,60.60606061,6712acd49ca5448a6e983e6c,68817205a84113384fffdfe3,68823081ec036908c4a329f6,,,,,,,,,,,,,0,,,,,,,,,,,,,,,,,,,,,,,,,,,,,,,,,,,,,47,cartinar,,,,,354.9013,356.2943,1,0,0.8642,,0,44,44,46,1,REAL,FAKE,,,,,,,,,,,,,,,,,
,,,,,,,,,6712acd49ca5448a6e983e6c,USA,13 or older,"no, only English or Spanish",no,2025-07-24_09h12.56.641,empathy_intonation_perc_control,2024.2.4,Win32,60.60606061,6712acd49ca5448a6e983e6c,68817205a84113384fffdfe3,68823081ec036908c4a329f6,,,,,,,,,,,,,0,,,,,,,,,,,,,,,,,,,,,,,,,,,,,,,,,,,,,74,cintro,,,,,356.2963,357.5848,1,0,0.758,,0,45,45,73,1,REAL,FAKE,,,,,,,,,,,,,,,,,
,,,,,,,,,6712acd49ca5448a6e983e6c,USA,13 or older,"no, only English or Spanish",no,2025-07-24_09h12.56.641,empathy_intonation_perc_control,2024.2.4,Win32,60.60606061,6712acd49ca5448a6e983e6c,68817205a84113384fffdfe3,68823081ec036908c4a329f6,,,,,,,,,,,,,1,,,,,,,,,,,,,,,,,,,,,,,,,,,,,,,,,,,,,67,cabello,,,,,357.5879,358.8067,1,1,0.7015,,0,46,46,66,1,REAL,FAKE,,,,,,,,,,,,,,,,,
,,,,,,,,,6712acd49ca5448a6e983e6c,USA,13 or older,"no, only English or Spanish",no,2025-07-24_09h12.56.641,empathy_intonation_perc_control,2024.2.4,Win32,60.60606061,6712acd49ca5448a6e983e6c,68817205a84113384fffdfe3,68823081ec036908c4a329f6,,,,,,,,,,,,,0,,,,,,,,,,,,,,,,,,,,,,,,,,,,,,,,,,,,,82,empirador,,,,,358.8096,360.2378,1,0,0.901,,0,47,47,81,1,REAL,FAKE,,,,,,,,,,,,,,,,,
,,,,,,,,,6712acd49ca5448a6e983e6c,USA,13 or older,"no, only English or Spanish",no,2025-07-24_09h12.56.641,empathy_intonation_perc_control,2024.2.4,Win32,60.60606061,6712acd49ca5448a6e983e6c,68817205a84113384fffdfe3,68823081ec036908c4a329f6,,,,,,,,,,,,,1,,,,,,,,,,,,,,,,,,,,,,,,,,,,,,,,,,,,,80,hormiga,,,,,360.2406,361.3858,0,0,0.6071,,0,48,48,79,1,REAL,FAKE,,,,,,,,,,,,,,,,,
,,,,,,,,,6712acd49ca5448a6e983e6c,USA,13 or older,"no, only English or Spanish",no,2025-07-24_09h12.56.641,empathy_intonation_perc_control,2024.2.4,Win32,60.60606061,6712acd49ca5448a6e983e6c,68817205a84113384fffdfe3,68823081ec036908c4a329f6,,,,,,,,,,,,,1,,,,,,,,,,,,,,,,,,,,,,,,,,,,,,,,,,,,,40,alfombra,,,,,361.3878,362.6344,0,0,0.7174,,0,49,49,39,1,REAL,FAKE,,,,,,,,,,,,,,,,,
,,,,,,,,,6712acd49ca5448a6e983e6c,USA,13 or older,"no, only English or Spanish",no,2025-07-24_09h12.56.641,empathy_intonation_perc_control,2024.2.4,Win32,60.60606061,6712acd49ca5448a6e983e6c,68817205a84113384fffdfe3,68823081ec036908c4a329f6,,,,,,,,,,,,,1,,,,,,,,,,,,,,,,,,,,,,,,,,,,,,,,,,,,,56,musgo,,,,,362.6394,364.0654,0,0,0.8981,,0,50,50,55,1,REAL,FAKE,,,,,,,,,,,,,,,,,
,,,,,,,,,6712acd49ca5448a6e983e6c,USA,13 or older,"no, only English or Spanish",no,2025-07-24_09h12.56.641,empathy_intonation_perc_control,2024.2.4,Win32,60.60606061,6712acd49ca5448a6e983e6c,68817205a84113384fffdfe3,68823081ec036908c4a329f6,,,,,,,,,,,,,1,,,,,,,,,,,,,,,,,,,,,,,,,,,,,,,,,,,,,43,canela,,,,,364.069,365.3142,1,1,0.7146,,0,51,51,42,1,REAL,FAKE,,,,,,,,,,,,,,,,,
,,,,,,,,,6712acd49ca5448a6e983e6c,USA,13 or older,"no, only English or Spanish",no,2025-07-24_09h12.56.641,empathy_intonation_perc_control,2024.2.4,Win32,60.60606061,6712acd49ca5448a6e983e6c,68817205a84113384fffdfe3,68823081ec036908c4a329f6,,,,,,,,,,,,,1,,,,,,,,,,,,,,,,,,,,,,,,,,,,,,,,,,,,,75,yacer,,,,,365.3178,366.546,1,1,0.7001,,0,52,52,74,1,REAL,FAKE,,,,,,,,,,,,,,,,,
,,,,,,,,,6712acd49ca5448a6e983e6c,USA,13 or older,"no, only English or Spanish",no,2025-07-24_09h12.56.641,empathy_intonation_perc_control,2024.2.4,Win32,60.60606061,6712acd49ca5448a6e983e6c,68817205a84113384fffdfe3,68823081ec036908c4a329f6,,,,,,,,,,,,,1,,,,,,,,,,,,,,,,,,,,,,,,,,,,,,,,,,,,,83,guante,,,,,366.5489,367.7098,0,0,0.6299,,0,53,53,82,1,REAL,FAKE,,,,,,,,,,,,,,,,,
,,,,,,,,,6712acd49ca5448a6e983e6c,USA,13 or older,"no, only English or Spanish",no,2025-07-24_09h12.56.641,empathy_intonation_perc_control,2024.2.4,Win32,60.60606061,6712acd49ca5448a6e983e6c,68817205a84113384fffdfe3,68823081ec036908c4a329f6,,,,,,,,,,,,,0,,,,,,,,,,,,,,,,,,,,,,,,,,,,,,,,,,,,,33,pauca,,,,,367.7141,369.1429,1,0,0.9024,,0,54,54,32,1,REAL,FAKE,,,,,,,,,,,,,,,,,
,,,,,,,,,6712acd49ca5448a6e983e6c,USA,13 or older,"no, only English or Spanish",no,2025-07-24_09h12.56.641,empathy_intonation_perc_control,2024.2.4,Win32,60.60606061,6712acd49ca5448a6e983e6c,68817205a84113384fffdfe3,68823081ec036908c4a329f6,,,,,,,,,,,,,0,,,,,,,,,,,,,,,,,,,,,,,,,,,,,,,,,,,,,92,click the 0 key.,,,,,369.1479,370.7553,0,1,1.0777,,0,55,55,91,1,REAL,FAKE,,,,,,,,,,,,,,,,,
,,,,,,,,,6712acd49ca5448a6e983e6c,USA,13 or older,"no, only English or Spanish",no,2025-07-24_09h12.56.641,empathy_intonation_perc_control,2024.2.4,Win32,60.60606061,6712acd49ca5448a6e983e6c,68817205a84113384fffdfe3,68823081ec036908c4a329f6,,,,,,,,,,,,,1,,,,,,,,,,,,,,,,,,,,,,,,,,,,,,,,,,,,,2,pellizcar,,,,,370.7604,372.2866,0,0,0.9996,,0,56,56,1,1,REAL,FAKE,,,,,,,,,,,,,,,,,
,,,,,,,,,6712acd49ca5448a6e983e6c,USA,13 or older,"no, only English or Spanish",no,2025-07-24_09h12.56.641,empathy_intonation_perc_control,2024.2.4,Win32,60.60606061,6712acd49ca5448a6e983e6c,68817205a84113384fffdfe3,68823081ec036908c4a329f6,,,,,,,,,,,,,0,,,,,,,,,,,,,,,,,,,,,,,,,,,,,,,,,,,,,21,capillo,,,,,372.2895,373.4671,1,0,0.6459,,0,57,57,20,1,REAL,FAKE,,,,,,,,,,,,,,,,,
,,,,,,,,,6712acd49ca5448a6e983e6c,USA,13 or older,"no, only English or Spanish",no,2025-07-24_09h12.56.641,empathy_intonation_perc_control,2024.2.4,Win32,60.60606061,6712acd49ca5448a6e983e6c,68817205a84113384fffdfe3,68823081ec036908c4a329f6,,,,,,,,,,,,,0,,,,,,,,,,,,,,,,,,,,,,,,,,,,,,,,,,,,,18,arsa,,,,,373.4694,374.6651,0,1,0.6646,,0,58,58,17,1,REAL,FAKE,,,,,,,,,,,,,,,,,
,,,,,,,,,6712acd49ca5448a6e983e6c,USA,13 or older,"no, only English or Spanish",no,2025-07-24_09h12.56.641,empathy_intonation_perc_control,2024.2.4,Win32,60.60606061,6712acd49ca5448a6e983e6c,68817205a84113384fffdfe3,68823081ec036908c4a329f6,,,,,,,,,,,,,0,,,,,,,,,,,,,,,,,,,,,,,,,,,,,,,,,,,,,10,antar,,,,,374.6684,375.897,0,1,0.7033,,0,59,59,9,1,REAL,FAKE,,,,,,,,,,,,,,,,,
,,,,,,,,,6712acd49ca5448a6e983e6c,USA,13 or older,"no, only English or Spanish",no,2025-07-24_09h12.56.641,empathy_intonation_perc_control,2024.2.4,Win32,60.60606061,6712acd49ca5448a6e983e6c,68817205a84113384fffdfe3,68823081ec036908c4a329f6,,,,,,,,,,,,,1,,,,,,,,,,,,,,,,,,,,,,,,,,,,,,,,,,,,,38,estornudar,,,,,375.9003,377.1785,0,0,0.7503,,0,60,60,37,1,REAL,FAKE,,,,,,,,,,,,,,,,,
,,,,,,,,,6712acd49ca5448a6e983e6c,USA,13 or older,"no, only English or Spanish",no,2025-07-24_09h12.56.641,empathy_intonation_perc_control,2024.2.4,Win32,60.60606061,6712acd49ca5448a6e983e6c,68817205a84113384fffdfe3,68823081ec036908c4a329f6,,,,,,,,,,,,,0,,,,,,,,,,,,,,,,,,,,,,,,,,,,,,,,,,,,,27,acutación,,,,,377.1819,378.4932,0,1,0.786,,0,61,61,26,1,REAL,FAKE,,,,,,,,,,,,,,,,,
,,,,,,,,,6712acd49ca5448a6e983e6c,USA,13 or older,"no, only English or Spanish",no,2025-07-24_09h12.56.641,empathy_intonation_perc_control,2024.2.4,Win32,60.60606061,6712acd49ca5448a6e983e6c,68817205a84113384fffdfe3,68823081ec036908c4a329f6,,,,,,,,,,,,,1,,,,,,,,,,,,,,,,,,,,,,,,,,,,,,,,,,,,,61,seda,,,,,378.4983,379.6416,1,1,0.6155,,0,62,62,60,1,REAL,FAKE,,,,,,,,,,,,,,,,,
,,,,,,,,,6712acd49ca5448a6e983e6c,USA,13 or older,"no, only English or Spanish",no,2025-07-24_09h12.56.641,empathy_intonation_perc_control,2024.2.4,Win32,60.60606061,6712acd49ca5448a6e983e6c,68817205a84113384fffdfe3,68823081ec036908c4a329f6,,,,,,,,,,,,,1,,,,,,,,,,,,,,,,,,,,,,,,,,,,,,,,,,,,,71,polvoriento,,,,,379.6448,380.775,0,0,0.6065,,0,63,63,70,1,REAL,FAKE,,,,,,,,,,,,,,,,,
,,,,,,,,,6712acd49ca5448a6e983e6c,USA,13 or older,"no, only English or Spanish",no,2025-07-24_09h12.56.641,empathy_intonation_perc_control,2024.2.4,Win32,60.60606061,6712acd49ca5448a6e983e6c,68817205a84113384fffdfe3,68823081ec036908c4a329f6,,,,,,,,,,,,,0,,,,,,,,,,,,,,,,,,,,,,,,,,,,,,,,,,,,,23,lampera,,,,,380.7776,381.9542,0,1,0.65,,0,64,64,22,1,REAL,FAKE,,,,,,,,,,,,,,,,,
,,,,,,,,,6712acd49ca5448a6e983e6c,USA,13 or older,"no, only English or Spanish",no,2025-07-24_09h12.56.641,empathy_intonation_perc_control,2024.2.4,Win32,60.60606061,6712acd49ca5448a6e983e6c,68817205a84113384fffdfe3,68823081ec036908c4a329f6,,,,,,,,,,,,,1,,,,,,,,,,,,,,,,,,,,,,,,,,,,,,,,,,,,,15,regar,,,,,381.9563,383.1519,1,1,0.6661,,0,65,65,14,1,REAL,FAKE,,,,,,,,,,,,,,,,,
,,,,,,,,,6712acd49ca5448a6e983e6c,USA,13 or older,"no, only English or Spanish",no,2025-07-24_09h12.56.641,empathy_intonation_perc_control,2024.2.4,Win32,60.60606061,6712acd49ca5448a6e983e6c,68817205a84113384fffdfe3,68823081ec036908c4a329f6,,,,,,,,,,,,,1,,,,,,,,,,,,,,,,,,,,,,,,,,,,,,,,,,,,,5,zapato,,,,,383.1538,384.3668,1,1,0.6799,,0,66,66,4,1,REAL,FAKE,,,,,,,,,,,,,,,,,
,,,,,,,,,6712acd49ca5448a6e983e6c,USA,13 or older,"no, only English or Spanish",no,2025-07-24_09h12.56.641,empathy_intonation_perc_control,2024.2.4,Win32,60.60606061,6712acd49ca5448a6e983e6c,68817205a84113384fffdfe3,68823081ec036908c4a329f6,,,,,,,,,,,,,0,,,,,,,,,,,,,,,,,,,,,,,,,,,,,,,,,,,,,32,fatacidad,,,,,384.3679,385.631,0,1,0.7412,,0,67,67,31,1,REAL,FAKE,,,,,,,,,,,,,,,,,
,,,,,,,,,6712acd49ca5448a6e983e6c,USA,13 or older,"no, only English or Spanish",no,2025-07-24_09h12.56.641,empathy_intonation_perc_control,2024.2.4,Win32,60.60606061,6712acd49ca5448a6e983e6c,68817205a84113384fffdfe3,68823081ec036908c4a329f6,,,,,,,,,,,,,0,,,,,,,,,,,,,,,,,,,,,,,,,,,,,,,,,,,,,30,alardio,,,,,385.6323,386.9796,0,1,0.8197,,0,68,68,29,1,REAL,FAKE,,,,,,,,,,,,,,,,,
,,,,,,,,,6712acd49ca5448a6e983e6c,USA,13 or older,"no, only English or Spanish",no,2025-07-24_09h12.56.641,empathy_intonation_perc_control,2024.2.4,Win32,60.60606061,6712acd49ca5448a6e983e6c,68817205a84113384fffdfe3,68823081ec036908c4a329f6,,,,,,,,,,,,,1,,,,,,,,,,,,,,,,,,,,,,,,,,,,,,,,,,,,,81,pozo,,,,,386.9827,388.4104,0,0,0.8952,,0,69,69,80,1,REAL,FAKE,,,,,,,,,,,,,,,,,
,,,,,,,,,6712acd49ca5448a6e983e6c,USA,13 or older,"no, only English or Spanish",no,2025-07-24_09h12.56.641,empathy_intonation_perc_control,2024.2.4,Win32,60.60606061,6712acd49ca5448a6e983e6c,68817205a84113384fffdfe3,68823081ec036908c4a329f6,,,,,,,,,,,,,1,,,,,,,,,,,,,,,,,,,,,,,,,,,,,,,,,,,,,48,ladrón,,,,,388.4126,389.7268,0,0,0.7839,,0,70,70,47,1,REAL,FAKE,,,,,,,,,,,,,,,,,
,,,,,,,,,6712acd49ca5448a6e983e6c,USA,13 or older,"no, only English or Spanish",no,2025-07-24_09h12.56.641,empathy_intonation_perc_control,2024.2.4,Win32,60.60606061,6712acd49ca5448a6e983e6c,68817205a84113384fffdfe3,68823081ec036908c4a329f6,,,,,,,,,,,,,1,,,,,,,,,,,,,,,,,,,,,,,,,,,,,,,,,,,,,37,granuja,,,,,389.7295,390.923,0,0,0.6683,,0,71,71,36,1,REAL,FAKE,,,,,,,,,,,,,,,,,
,,,,,,,,,6712acd49ca5448a6e983e6c,USA,13 or older,"no, only English or Spanish",no,2025-07-24_09h12.56.641,empathy_intonation_perc_control,2024.2.4,Win32,60.60606061,6712acd49ca5448a6e983e6c,68817205a84113384fffdfe3,68823081ec036908c4a329f6,,,,,,,,,,,,,0,,,,,,,,,,,,,,,,,,,,,,,,,,,,,,,,,,,,,87,grodo,,,,,390.9258,392.2222,1,0,0.7628,,0,72,72,86,1,REAL,FAKE,,,,,,,,,,,,,,,,,
,,,,,,,,,6712acd49ca5448a6e983e6c,USA,13 or older,"no, only English or Spanish",no,2025-07-24_09h12.56.641,empathy_intonation_perc_control,2024.2.4,Win32,60.60606061,6712acd49ca5448a6e983e6c,68817205a84113384fffdfe3,68823081ec036908c4a329f6,,,,,,,,,,,,,1,,,,,,,,,,,,,,,,,,,,,,,,,,,,,,,,,,,,,76,atar,,,,,392.2264,393.4695,0,0,0.7165,,0,73,73,75,1,REAL,FAKE,,,,,,,,,,,,,,,,,
,,,,,,,,,6712acd49ca5448a6e983e6c,USA,13 or older,"no, only English or Spanish",no,2025-07-24_09h12.56.641,empathy_intonation_perc_control,2024.2.4,Win32,60.60606061,6712acd49ca5448a6e983e6c,68817205a84113384fffdfe3,68823081ec036908c4a329f6,,,,,,,,,,,,,0,,,,,,,,,,,,,,,,,,,,,,,,,,,,,,,,,,,,,66,hacido,,,,,393.4724,394.6016,1,0,0.5933,,0,74,74,65,1,REAL,FAKE,,,,,,,,,,,,,,,,,
,,,,,,,,,6712acd49ca5448a6e983e6c,USA,13 or older,"no, only English or Spanish",no,2025-07-24_09h12.56.641,empathy_intonation_perc_control,2024.2.4,Win32,60.60606061,6712acd49ca5448a6e983e6c,68817205a84113384fffdfe3,68823081ec036908c4a329f6,,,,,,,,,,,,,1,,,,,,,,,,,,,,,,,,,,,,,,,,,,,,,,,,,,,44,cuchara,,,,,394.6059,395.982,1,1,0.85,,0,75,75,43,1,REAL,FAKE,,,,,,,,,,,,,,,,,
,,,,,,,,,6712acd49ca5448a6e983e6c,USA,13 or older,"no, only English or Spanish",no,2025-07-24_09h12.56.641,empathy_intonation_perc_control,2024.2.4,Win32,60.60606061,6712acd49ca5448a6e983e6c,68817205a84113384fffdfe3,68823081ec036908c4a329f6,,,,,,,,,,,,,1,,,,,,,,,,,,,,,,,,,,,,,,,,,,,,,,,,,,,22,lacayo,,,,,395.9838,397.0983,0,0,0.587,,0,76,76,21,1,REAL,FAKE,,,,,,,,,,,,,,,,,
,,,,,,,,,6712acd49ca5448a6e983e6c,USA,13 or older,"no, only English or Spanish",no,2025-07-24_09h12.56.641,empathy_intonation_perc_control,2024.2.4,Win32,60.60606061,6712acd49ca5448a6e983e6c,68817205a84113384fffdfe3,68823081ec036908c4a329f6,,,,,,,,,,,,,0,,,,,,,,,,,,,,,,,,,,,,,,,,,,,,,,,,,,,79,tropaje,,,,,397.1004,398.2953,0,1,0.6595,,0,77,77,78,1,REAL,FAKE,,,,,,,,,,,,,,,,,
,,,,,,,,,6712acd49ca5448a6e983e6c,USA,13 or older,"no, only English or Spanish",no,2025-07-24_09h12.56.641,empathy_intonation_perc_control,2024.2.4,Win32,60.60606061,6712acd49ca5448a6e983e6c,68817205a84113384fffdfe3,68823081ec036908c4a329f6,,,,,,,,,,,,,0,,,,,,,,,,,,,,,,,,,,,,,,,,,,,,,,,,,,,19,brecedad,,,,,398.2979,399.61,0,1,0.7898,,0,78,78,18,1,REAL,FAKE,,,,,,,,,,,,,,,,,
,,,,,,,,,6712acd49ca5448a6e983e6c,USA,13 or older,"no, only English or Spanish",no,2025-07-24_09h12.56.641,empathy_intonation_perc_control,2024.2.4,Win32,60.60606061,6712acd49ca5448a6e983e6c,68817205a84113384fffdfe3,68823081ec036908c4a329f6,,,,,,,,,,,,,1,,,,,,,,,,,,,,,,,,,,,,,,,,,,,,,,,,,,,51,candado,,,,,399.6127,400.8083,1,1,0.6618,,0,79,79,50,1,REAL,FAKE,,,,,,,,,,,,,,,,,
,,,,,,,,,6712acd49ca5448a6e983e6c,USA,13 or older,"no, only English or Spanish",no,2025-07-24_09h12.56.641,empathy_intonation_perc_control,2024.2.4,Win32,60.60606061,6712acd49ca5448a6e983e6c,68817205a84113384fffdfe3,68823081ec036908c4a329f6,,,,,,,,,,,,,1,,,,,,,,,,,,,,,,,,,,,,,,,,,,,,,,,,,,,55,nevar,,,,,400.8119,401.973,1,1,0.6332,,0,80,80,54,1,REAL,FAKE,,,,,,,,,,,,,,,,,
,,,,,,,,,6712acd49ca5448a6e983e6c,USA,13 or older,"no, only English or Spanish",no,2025-07-24_09h12.56.641,empathy_intonation_perc_control,2024.2.4,Win32,60.60606061,6712acd49ca5448a6e983e6c,68817205a84113384fffdfe3,68823081ec036908c4a329f6,,,,,,,,,,,,,1,,,,,,,,,,,,,,,,,,,,,,,,,,,,,,,,,,,,,7,pésimo,,,,,401.9773,403.2372,1,1,0.7308,,0,81,81,6,1,REAL,FAKE,,,,,,,,,,,,,,,,,
,,,,,,,,,6712acd49ca5448a6e983e6c,USA,13 or older,"no, only English or Spanish",no,2025-07-24_09h12.56.641,empathy_intonation_perc_control,2024.2.4,Win32,60.60606061,6712acd49ca5448a6e983e6c,68817205a84113384fffdfe3,68823081ec036908c4a329f6,,,,,,,,,,,,,1,,,,,,,,,,,,,,,,,,,,,,,,,,,,,,,,,,,,,64,orgulloso,,,,,403.2386,404.4697,0,0,0.698,,0,82,82,63,1,REAL,FAKE,,,,,,,,,,,,,,,,,
,,,,,,,,,6712acd49ca5448a6e983e6c,USA,13 or older,"no, only English or Spanish",no,2025-07-24_09h12.56.641,empathy_intonation_perc_control,2024.2.4,Win32,60.60606061,6712acd49ca5448a6e983e6c,68817205a84113384fffdfe3,68823081ec036908c4a329f6,,,,,,,,,,,,,1,,,,,,,,,,,,,,,,,,,,,,,,,,,,,,,,,,,,,31,pandilla,,,,,404.4719,405.7511,1,1,0.7496,,0,83,83,30,1,REAL,FAKE,,,,,,,,,,,,,,,,,
,,,,,,,,,6712acd49ca5448a6e983e6c,USA,13 or older,"no, only English or Spanish",no,2025-07-24_09h12.56.641,empathy_intonation_perc_control,2024.2.4,Win32,60.60606061,6712acd49ca5448a6e983e6c,68817205a84113384fffdfe3,68823081ec036908c4a329f6,,,,,,,,,,,,,0,,,,,,,,,,,,,,,,,,,,,,,,,,,,,,,,,,,,,72,pemición,,,,,405.7553,407.0329,1,0,0.7464,,0,84,84,71,1,REAL,FAKE,,,,,,,,,,,,,,,,,
,,,,,,,,,6712acd49ca5448a6e983e6c,USA,13 or older,"no, only English or Spanish",no,2025-07-24_09h12.56.641,empathy_intonation_perc_control,2024.2.4,Win32,60.60606061,6712acd49ca5448a6e983e6c,68817205a84113384fffdfe3,68823081ec036908c4a329f6,,,,,,,,,,,,,1,,,,,,,,,,,,,,,,,,,,,,,,,,,,,,,,,,,,,78,frondoso,,,,,407.0355,408.1974,0,0,0.6292,,0,85,85,77,1,REAL,FAKE,,,,,,,,,,,,,,,,,
,,,,,,,,,6712acd49ca5448a6e983e6c,USA,13 or older,"no, only English or Spanish",no,2025-07-24_09h12.56.641,empathy_intonation_perc_control,2024.2.4,Win32,60.60606061,6712acd49ca5448a6e983e6c,68817205a84113384fffdfe3,68823081ec036908c4a329f6,,,,,,,,,,,,,1,,,,,,,,,,,,,,,,,,,,,,,,,,,,,,,,,,,,,89,prisa,,,,,408.2009,409.6614,0,0,0.931,,0,86,86,88,1,REAL,FAKE,,,,,,,,,,,,,,,,,
,,,,,,,,,6712acd49ca5448a6e983e6c,USA,13 or older,"no, only English or Spanish",no,2025-07-24_09h12.56.641,empathy_intonation_perc_control,2024.2.4,Win32,60.60606061,6712acd49ca5448a6e983e6c,68817205a84113384fffdfe3,68823081ec036908c4a329f6,,,,,,,,,,,,,1,,,,,,,,,,,,,,,,,,,,,,,,,,,,,,,,,,,,,34,aviso,,,,,409.6646,410.8435,1,1,0.6565,,0,87,87,33,1,REAL,FAKE,,,,,,,,,,,,,,,,,
,,,,,,,,,6712acd49ca5448a6e983e6c,USA,13 or older,"no, only English or Spanish",no,2025-07-24_09h12.56.641,empathy_intonation_perc_control,2024.2.4,Win32,60.60606061,6712acd49ca5448a6e983e6c,68817205a84113384fffdfe3,68823081ec036908c4a329f6,,,,,,,,,,,,,0,,,,,,,,,,,,,,,,,,,,,,,,,,,,,,,,,,,,,17,floroso,,,,,410.8478,412.3737,0,1,1.0045,,0,88,88,16,1,REAL,FAKE,,,,,,,,,,,,,,,,,
,,,,,,,,,6712acd49ca5448a6e983e6c,USA,13 or older,"no, only English or Spanish",no,2025-07-24_09h12.56.641,empathy_intonation_perc_control,2024.2.4,Win32,60.60606061,6712acd49ca5448a6e983e6c,68817205a84113384fffdfe3,68823081ec036908c4a329f6,,,,,,,,,,,,,1,,,,,,,,,,,,,,,,,,,,,,,,,,,,,,,,,,,,,69,engatusar,,,,,412.376,413.5712,0,0,0.6633,,0,89,89,68,1,REAL,FAKE,,,,,,,,,,,,,,,,,
,,,,,,,,,6712acd49ca5448a6e983e6c,USA,13 or older,"no, only English or Spanish",no,2025-07-24_09h12.56.641,empathy_intonation_perc_control,2024.2.4,Win32,60.60606061,6712acd49ca5448a6e983e6c,68817205a84113384fffdfe3,68823081ec036908c4a329f6,,,,,,,,,,,,,1,,,,,,,,,,,,,,,,,,,,,,,,,,,,,,,,,,,,,85,laúd,,,,,413.574,414.7535,0,0,0.6479,,0,90,90,84,1,REAL,FAKE,,,,,,,,,,,,,,,,,
,,,,,,,,,6712acd49ca5448a6e983e6c,USA,13 or older,"no, only English or Spanish",no,2025-07-24_09h12.56.641,empathy_intonation_perc_control,2024.2.4,Win32,60.60606061,6712acd49ca5448a6e983e6c,68817205a84113384fffdfe3,68823081ec036908c4a329f6,,,,,,,,,,,,,0,,,,,,,,,,,,,,,,,,,,,,,,,,,,,,,,,,,,,29,decar,,,,,414.7569,416.3186,1,0,1.0303,,0,91,91,28,1,REAL,FAKE,,,,,,,,,,,,,,,,,
,,,,,,,,,6712acd49ca5448a6e983e6c,USA,13 or older,"no, only English or Spanish",no,2025-07-24_09h12.56.641,empathy_intonation_perc_control,2024.2.4,Win32,60.60606061,6712acd49ca5448a6e983e6c,68817205a84113384fffdfe3,68823081ec036908c4a329f6,,,,,,,,,,,,,,,,,,,,,,,,,,,,,,,,,,,,,,,,,,,,,,,,,,,,,,,,,,,,,,,,,,,,,416.3195,419.5138,,,,,,,,,,,,,,,
,,,,,,,,,6712acd49ca5448a6e983e6c,USA,13 or older,"no, only English or Spanish",no,2025-07-24_09h12.56.641,empathy_intonation_perc_control,2024.2.4,Win32,60.60606061,6712acd49ca5448a6e983e6c,68817205a84113384fffdfe3,68823081ec036908c4a329f6,,,,,,,,,,,,,,,,,,,,,,,,,,,1,,,,,,,,,,,,,,,,,,,,,,,,,,,,,,,,,,,,,,,,,,,,419.5798,425.6194,slightly agree,0,0,0,0,1,I can easily tell if someone else wants to enter a conversation.,1,0,1,0,,
,,,,,,,,,6712acd49ca5448a6e983e6c,USA,13 or older,"no, only English or Spanish",no,2025-07-24_09h12.56.641,empathy_intonation_perc_control,2024.2.4,Win32,60.60606061,6712acd49ca5448a6e983e6c,68817205a84113384fffdfe3,68823081ec036908c4a329f6,,,,,,,,,,,,,,,,,,,,,,,,,,,2,,,,,,,,,,,,,,,,,,,,,,,,,,,,,,,,,,,,,,,,,,,,425.6225,430.6447,slightly disagree,0,1,1,1,1,I prefer animals to humans.,0,1,0,0,,
,,,,,,,,,6712acd49ca5448a6e983e6c,USA,13 or older,"no, only English or Spanish",no,2025-07-24_09h12.56.641,empathy_intonation_perc_control,2024.2.4,Win32,60.60606061,6712acd49ca5448a6e983e6c,68817205a84113384fffdfe3,68823081ec036908c4a329f6,,,,,,,,,,,,,,,,,,,,,,,,,,,3,,,,,,,,,,,,,,,,,,,,,,,,,,,,,,,,,,,,,,,,,,,,430.6473,432.8579,slightly agree,0,2,2,2,1,I try to keep up with the current trends and fashions.,0,1,0,0,,
,,,,,,,,,6712acd49ca5448a6e983e6c,USA,13 or older,"no, only English or Spanish",no,2025-07-24_09h12.56.641,empathy_intonation_perc_control,2024.2.4,Win32,60.60606061,6712acd49ca5448a6e983e6c,68817205a84113384fffdfe3,68823081ec036908c4a329f6,,,,,,,,,,,,,,,,,,,,,,,,,,,4,,,,,,,,,,,,,,,,,,,,,,,,,,,,,,,,,,,,,,,,,,,,432.861,435.1046,slightly agree,0,3,3,3,1,"I find it difficult to explain to others things that I understand easily,   when they don't understand it first time.",1,0,0,1,,
,,,,,,,,,6712acd49ca5448a6e983e6c,USA,13 or older,"no, only English or Spanish",no,2025-07-24_09h12.56.641,empathy_intonation_perc_control,2024.2.4,Win32,60.60606061,6712acd49ca5448a6e983e6c,68817205a84113384fffdfe3,68823081ec036908c4a329f6,,,,,,,,,,,,,,,,,,,,,,,,,,,5,,,,,,,,,,,,,,,,,,,,,,,,,,,,,,,,,,,,,,,,,,,,435.1065,438.0666,strongly agree,0,4,4,4,1,I dream most nights.,0,1,0,0,,
,,,,,,,,,6712acd49ca5448a6e983e6c,USA,13 or older,"no, only English or Spanish",no,2025-07-24_09h12.56.641,empathy_intonation_perc_control,2024.2.4,Win32,60.60606061,6712acd49ca5448a6e983e6c,68817205a84113384fffdfe3,68823081ec036908c4a329f6,,,,,,,,,,,,,,,,,,,,,,,,,,,6,,,,,,,,,,,,,,,,,,,,,,,,,,,,,,,,,,,,,,,,,,,,438.0698,440.2646,slightly agree,0,5,5,5,1,I really enjoy caring for other people.,1,0,1,0,,
,,,,,,,,,6712acd49ca5448a6e983e6c,USA,13 or older,"no, only English or Spanish",no,2025-07-24_09h12.56.641,empathy_intonation_perc_control,2024.2.4,Win32,60.60606061,6712acd49ca5448a6e983e6c,68817205a84113384fffdfe3,68823081ec036908c4a329f6,,,,,,,,,,,,,,,,,,,,,,,,,,,7,,,,,,,,,,,,,,,,,,,,,,,,,,,,,,,,,,,,,,,,,,,,440.267,442.3598,slightly agree,0,6,6,6,1,I try to solve my own problems rather than discussing them with others.,0,1,0,0,,
,,,,,,,,,6712acd49ca5448a6e983e6c,USA,13 or older,"no, only English or Spanish",no,2025-07-24_09h12.56.641,empathy_intonation_perc_control,2024.2.4,Win32,60.60606061,6712acd49ca5448a6e983e6c,68817205a84113384fffdfe3,68823081ec036908c4a329f6,,,,,,,,,,,,,,,,,,,,,,,,,,,8,,,,,,,,,,,,,,,,,,,,,,,,,,,,,,,,,,,,,,,,,,,,442.3621,444.3573,slightly agree,0,7,7,7,1,I find it hard to know what to do in a social situation.,1,0,0,1,,
,,,,,,,,,6712acd49ca5448a6e983e6c,USA,13 or older,"no, only English or Spanish",no,2025-07-24_09h12.56.641,empathy_intonation_perc_control,2024.2.4,Win32,60.60606061,6712acd49ca5448a6e983e6c,68817205a84113384fffdfe3,68823081ec036908c4a329f6,,,,,,,,,,,,,,,,,,,,,,,,,,,9,,,,,,,,,,,,,,,,,,,,,,,,,,,,,,,,,,,,,,,,,,,,444.3591,447.4354,slightly disagree,0,8,8,8,1,I am at my best first thing in the morning.,0,1,0,0,,
,,,,,,,,,6712acd49ca5448a6e983e6c,USA,13 or older,"no, only English or Spanish",no,2025-07-24_09h12.56.641,empathy_intonation_perc_control,2024.2.4,Win32,60.60606061,6712acd49ca5448a6e983e6c,68817205a84113384fffdfe3,68823081ec036908c4a329f6,,,,,,,,,,,,,,,,,,,,,,,,,,,10,,,,,,,,,,,,,,,,,,,,,,,,,,,,,,,,,,,,,,,,,,,,447.4378,450.697,slightly disagree,0,9,9,9,1,People often tell me that I went too far in driving my point home in a discussion.,1,0,0,1,,
,,,,,,,,,6712acd49ca5448a6e983e6c,USA,13 or older,"no, only English or Spanish",no,2025-07-24_09h12.56.641,empathy_intonation_perc_control,2024.2.4,Win32,60.60606061,6712acd49ca5448a6e983e6c,68817205a84113384fffdfe3,68823081ec036908c4a329f6,,,,,,,,,,,,,,,,,,,,,,,,,,,11,,,,,,,,,,,,,,,,,,,,,,,,,,,,,,,,,,,,,,,,,,,,450.699,453.9253,slightly disagree,0,10,10,10,1,It doesn't bother me too much if I am late meeting a friend.,1,0,0,1,,
,,,,,,,,,6712acd49ca5448a6e983e6c,USA,13 or older,"no, only English or Spanish",no,2025-07-24_09h12.56.641,empathy_intonation_perc_control,2024.2.4,Win32,60.60606061,6712acd49ca5448a6e983e6c,68817205a84113384fffdfe3,68823081ec036908c4a329f6,,,,,,,,,,,,,,,,,,,,,,,,,,,12,,,,,,,,,,,,,,,,,,,,,,,,,,,,,,,,,,,,,,,,,,,,453.9283,457.187,slightly agree,0,11,11,11,1,"Friendships and relationships are just too difficult, so I tend not to 
  bother with them.",1,0,0,1,,
,,,,,,,,,6712acd49ca5448a6e983e6c,USA,13 or older,"no, only English or Spanish",no,2025-07-24_09h12.56.641,empathy_intonation_perc_control,2024.2.4,Win32,60.60606061,6712acd49ca5448a6e983e6c,68817205a84113384fffdfe3,68823081ec036908c4a329f6,,,,,,,,,,,,,,,,,,,,,,,,,,,13,,,,,,,,,,,,,,,,,,,,,,,,,,,,,,,,,,,,,,,,,,,,457.189,459.5501,slightly disagree,0,12,12,12,1,"I would never break a law, no matter how minor.",0,1,0,0,,
,,,,,,,,,6712acd49ca5448a6e983e6c,USA,13 or older,"no, only English or Spanish",no,2025-07-24_09h12.56.641,empathy_intonation_perc_control,2024.2.4,Win32,60.60606061,6712acd49ca5448a6e983e6c,68817205a84113384fffdfe3,68823081ec036908c4a329f6,,,,,,,,,,,,,,,,,,,,,,,,,,,14,,,,,,,,,,,,,,,,,,,,,,,,,,,,,,,,,,,,,,,,,,,,459.5522,463.9602,slightly agree,0,13,13,13,1,I often find it difficult to judge if something is rude or polite.,1,0,0,1,,
,,,,,,,,,6712acd49ca5448a6e983e6c,USA,13 or older,"no, only English or Spanish",no,2025-07-24_09h12.56.641,empathy_intonation_perc_control,2024.2.4,Win32,60.60606061,6712acd49ca5448a6e983e6c,68817205a84113384fffdfe3,68823081ec036908c4a329f6,,,,,,,,,,,,,,,,,,,,,,,,,,,15,,,,,,,,,,,,,,,,,,,,,,,,,,,,,,,,,,,,,,,,,,,,463.9632,469.8341,slightly disagree,0,14,14,14,1,"In a conversation, I tend to focus on my own thoughts rather than on what 
  my listener might be thinking.",1,0,0,1,,
,,,,,,,,,6712acd49ca5448a6e983e6c,USA,13 or older,"no, only English or Spanish",no,2025-07-24_09h12.56.641,empathy_intonation_perc_control,2024.2.4,Win32,60.60606061,6712acd49ca5448a6e983e6c,68817205a84113384fffdfe3,68823081ec036908c4a329f6,,,,,,,,,,,,,,,,,,,,,,,,,,,16,,,,,,,,,,,,,,,,,,,,,,,,,,,,,,,,,,,,,,,,,,,,469.8361,474.6933,slightly disagree,0,15,15,15,1,I prefer practical jokes to verbal humor.,0,1,0,0,,
,,,,,,,,,6712acd49ca5448a6e983e6c,USA,13 or older,"no, only English or Spanish",no,2025-07-24_09h12.56.641,empathy_intonation_perc_control,2024.2.4,Win32,60.60606061,6712acd49ca5448a6e983e6c,68817205a84113384fffdfe3,68823081ec036908c4a329f6,,,,,,,,,,,,,,,,,,,,,,,,,,,17,,,,,,,,,,,,,,,,,,,,,,,,,,,,,,,,,,,,,,,,,,,,474.6953,476.8066,slightly disagree,0,16,16,16,1,I live life for today rather than the future.,0,1,0,0,,
,,,,,,,,,6712acd49ca5448a6e983e6c,USA,13 or older,"no, only English or Spanish",no,2025-07-24_09h12.56.641,empathy_intonation_perc_control,2024.2.4,Win32,60.60606061,6712acd49ca5448a6e983e6c,68817205a84113384fffdfe3,68823081ec036908c4a329f6,,,,,,,,,,,,,,,,,,,,,,,,,,,18,,,,,,,,,,,,,,,,,,,,,,,,,,,,,,,,,,,,,,,,,,,,476.8091,492.2494,slightly disagree,0,17,17,17,1,"When I was a child, I enjoyed cutting up worms to see what would happen.",1,0,0,1,,
,,,,,,,,,6712acd49ca5448a6e983e6c,USA,13 or older,"no, only English or Spanish",no,2025-07-24_09h12.56.641,empathy_intonation_perc_control,2024.2.4,Win32,60.60606061,6712acd49ca5448a6e983e6c,68817205a84113384fffdfe3,68823081ec036908c4a329f6,,,,,,,,,,,,,,,,,,,,,,,,,,,19,,,,,,,,,,,,,,,,,,,,,,,,,,,,,,,,,,,,,,,,,,,,492.2506,497.5753,slightly agree,0,18,18,18,1,I can pick up quickly if someone says one thing but means another.,1,0,1,0,,
,,,,,,,,,6712acd49ca5448a6e983e6c,USA,13 or older,"no, only English or Spanish",no,2025-07-24_09h12.56.641,empathy_intonation_perc_control,2024.2.4,Win32,60.60606061,6712acd49ca5448a6e983e6c,68817205a84113384fffdfe3,68823081ec036908c4a329f6,,,,,,,,,,,,,,,,,,,,,,,,,,,20,,,,,,,,,,,,,,,,,,,,,,,,,,,,,,,,,,,,,,,,,,,,497.5767,501.0536,slightly disagree,0,19,19,19,1,I tend to have very strong opinions about morality.,0,1,0,0,,
,,,,,,,,,6712acd49ca5448a6e983e6c,USA,13 or older,"no, only English or Spanish",no,2025-07-24_09h12.56.641,empathy_intonation_perc_control,2024.2.4,Win32,60.60606061,6712acd49ca5448a6e983e6c,68817205a84113384fffdfe3,68823081ec036908c4a329f6,,,,,,,,,,,,,,,,,,,,,,,,,,,21,,,,,,,,,,,,,,,,,,,,,,,,,,,,,,,,,,,,,,,,,,,,501.0557,505.7785,slightly disagree,0,20,20,20,1,It is hard for me to see why some things upset people so much.,1,0,0,1,,
,,,,,,,,,6712acd49ca5448a6e983e6c,USA,13 or older,"no, only English or Spanish",no,2025-07-24_09h12.56.641,empathy_intonation_perc_control,2024.2.4,Win32,60.60606061,6712acd49ca5448a6e983e6c,68817205a84113384fffdfe3,68823081ec036908c4a329f6,,,,,,,,,,,,,,,,,,,,,,,,,,,22,,,,,,,,,,,,,,,,,,,,,,,,,,,,,,,,,,,,,,,,,,,,505.7808,508.3909,slightly agree,0,21,21,21,1,I find it easy to put myself in somebody else's shoes.,1,0,1,0,,
,,,,,,,,,6712acd49ca5448a6e983e6c,USA,13 or older,"no, only English or Spanish",no,2025-07-24_09h12.56.641,empathy_intonation_perc_control,2024.2.4,Win32,60.60606061,6712acd49ca5448a6e983e6c,68817205a84113384fffdfe3,68823081ec036908c4a329f6,,,,,,,,,,,,,,,,,,,,,,,,,,,23,,,,,,,,,,,,,,,,,,,,,,,,,,,,,,,,,,,,,,,,,,,,508.3931,510.4544,slightly agree,0,22,22,22,1,I think that good manners are the most important thing a parent can teach their child.,0,1,0,0,,
,,,,,,,,,6712acd49ca5448a6e983e6c,USA,13 or older,"no, only English or Spanish",no,2025-07-24_09h12.56.641,empathy_intonation_perc_control,2024.2.4,Win32,60.60606061,6712acd49ca5448a6e983e6c,68817205a84113384fffdfe3,68823081ec036908c4a329f6,,,,,,,,,,,,,,,,,,,,,,,,,,,24,,,,,,,,,,,,,,,,,,,,,,,,,,,,,,,,,,,,,,,,,,,,510.4562,513.1504,slightly disagree,0,23,23,23,1,I like to do things on the spur of the moment.,0,1,0,0,,
,,,,,,,,,6712acd49ca5448a6e983e6c,USA,13 or older,"no, only English or Spanish",no,2025-07-24_09h12.56.641,empathy_intonation_perc_control,2024.2.4,Win32,60.60606061,6712acd49ca5448a6e983e6c,68817205a84113384fffdfe3,68823081ec036908c4a329f6,,,,,,,,,,,,,,,,,,,,,,,,,,,25,,,,,,,,,,,,,,,,,,,,,,,,,,,,,,,,,,,,,,,,,,,,513.1525,516.4951,slightly disagree,0,24,24,24,1,I am good at predicting how someone will feel.,1,0,1,0,,
,,,,,,,,,6712acd49ca5448a6e983e6c,USA,13 or older,"no, only English or Spanish",no,2025-07-24_09h12.56.641,empathy_intonation_perc_control,2024.2.4,Win32,60.60606061,6712acd49ca5448a6e983e6c,68817205a84113384fffdfe3,68823081ec036908c4a329f6,,,,,,,,,,,,,,,,,,,,,,,,,,,26,,,,,,,,,,,,,,,,,,,,,,,,,,,,,,,,,,,,,,,,,,,,516.4975,519.9233,strongly agree,0,25,25,25,1,I am quick to spot when someone in a group is feeling awkward or uncomfortable.,1,0,1,0,,
,,,,,,,,,6712acd49ca5448a6e983e6c,USA,13 or older,"no, only English or Spanish",no,2025-07-24_09h12.56.641,empathy_intonation_perc_control,2024.2.4,Win32,60.60606061,6712acd49ca5448a6e983e6c,68817205a84113384fffdfe3,68823081ec036908c4a329f6,,,,,,,,,,,,,,,,,,,,,,,,,,,27,,,,,,,,,,,,,,,,,,,,,,,,,,,,,,,,,,,,,,,,,,,,519.9256,524.8989,slightly disagree,0,26,26,26,1,"If I say something that someone else is offended by, I think that that's their problem, not mine.",1,0,0,1,,
