instructions_2afc.started,instructions_2afc.stopped,instructions_2afc_loop.thisRepN,instructions_2afc_loop.thisTrialN,instructions_2afc_loop.thisN,instructions_2afc_loop.thisIndex,instructions_2afc_loop.ran,instructions_text,continue_text,participant_id,"What variety of Spanish are you most familiar with? (e.g., Peruvian, Spanish, Mexican)",At what age did you begin learning Spanish?,Are you proficient in any languages other than English/Spanish?,"Are you familiar with Caribbean (e.g., Caribbean, Puerto Rican) or Galician Spanish?",date,expName,psychopyVersion,OS,frameRate,id,study_id,session,practice_2afc.started,practice_2afc.stopped,key_resp_2afc_practice.keys,key_resp_2afc_practice.corr,key_resp_2afc_practice.rt,key_resp_2afc_practice.duration,trials_2afc_practice_loop.thisRepN,trials_2afc_practice_loop.thisTrialN,trials_2afc_practice_loop.thisN,trials_2afc_practice_loop.thisIndex,trials_2afc_practice_loop.ran,path,correct_response,check_2afc.started,check_2afc.stopped,trial_2afc.started,trial_2afc.stopped,key_resp_2afc_trial.keys,key_resp_2afc_trial.corr,key_resp_2afc_trial.rt,key_resp_2afc_trial.duration,trials_2afc_loop.thisRepN,trials_2afc_loop.thisTrialN,trials_2afc_loop.thisN,trials_2afc_loop.thisIndex,trials_2afc_loop.ran,item_num,target,variety,instructions_lextale.started,instructions_lextale.stopped,instructions_lextale_loop.thisRepN,instructions_lextale_loop.thisTrialN,instructions_lextale_loop.thisN,instructions_lextale_loop.thisIndex,instructions_lextale_loop.ran,practice_lextale.started,practice_lextale.stopped,key_resp_lextale_practice.keys,key_resp_lextale_practice.corr,key_resp_lextale_practice.rt,key_resp_lextale_practice.duration,practice_feedback_lextale.started,practice_feedback_lextale.stopped,trials_lextale_practice_loop.thisRepN,trials_lextale_practice_loop.thisTrialN,trials_lextale_practice_loop.thisN,trials_lextale_practice_loop.thisIndex,trials_lextale_practice_loop.ran,stim,word,prac_button_real,prac_button_false,check_lextale.started,check_lextale.stopped,trial_lextale.started,trial_lextale.stopped,key_resp_lextale_trial.keys,key_resp_lextale_trial.corr,key_resp_lextale_trial.rt,key_resp_lextale_trial.duration,trials_lextale_loop.thisRepN,trials_lextale_loop.thisTrialN,trials_lextale_loop.thisN,trials_lextale_loop.thisIndex,trials_lextale_loop.ran,button_real,button_false,instructions_eq.started,instructions_eq.stopped,trial_eq.started,trial_eq.stopped,slider_eq_trial.response,trials_eq_loop.thisRepN,trials_eq_loop.thisTrialN,trials_eq_loop.thisN,trials_eq_loop.thisIndex,trials_eq_loop.ran,item,is_test_item,is_distractor,is_agree_score,is_disagree_score,end_exp.started,end_exp.stopped
0.0111,4.0508,0,0,0,0,1,"In the following task you are going to hear a series of utterances. 

  You will decide if the utterances sound like questions or not using your keyboard.", (press the spacebar to continue),67164c92298409e37c670b3d,Spanish,13 or older,"no, only English or Spanish",yes,2026-01-21_17h09.23.691,empathy_intonation_perc_control,2024.2.4,Win32,59.88023952,67164c92298409e37c670b3d,69712dc693a3960bdb483245,69714f7936fb382e28d16d38,,,,,,,,,,,,,,,,,,,,,,,,,,,,,,,,,,,,,,,,,,,,,,,,,,,,,,,,,,,,,,,,,,,,,,,,,,,,,,,,,,,,,
4.0526,9.4293,0,1,1,1,1,"If you believe the utterance is a question, type '1' (for 'yes') and if you do not 
  believe it is a question type '0' (for 'no').

  Let's practice a bit...", (press the spacebar to continue),67164c92298409e37c670b3d,Spanish,13 or older,"no, only English or Spanish",yes,2026-01-21_17h09.23.691,empathy_intonation_perc_control,2024.2.4,Win32,59.88023952,67164c92298409e37c670b3d,69712dc693a3960bdb483245,69714f7936fb382e28d16d38,,,,,,,,,,,,,,,,,,,,,,,,,,,,,,,,,,,,,,,,,,,,,,,,,,,,,,,,,,,,,,,,,,,,,,,,,,,,,,,,,,,,,
,,,,,,,,,67164c92298409e37c670b3d,Spanish,13 or older,"no, only English or Spanish",yes,2026-01-21_17h09.23.691,empathy_intonation_perc_control,2024.2.4,Win32,59.88023952,67164c92298409e37c670b3d,69712dc693a3960bdb483245,69714f7936fb382e28d16d38,9.4352,14.465,0,0,4.5109,,0,0,0,0,1,./stim/wavs/castilian_question_filler_Mi-esposo-conoce-al-chico.wav,1,,,,,,,,,,,,,,,,,,,,,,,,,,,,,,,,,,,,,,,,,,,,,,,,,,,,,,,,,,,,,,,,,,,,,,,,
,,,,,,,,,67164c92298409e37c670b3d,Spanish,13 or older,"no, only English or Spanish",yes,2026-01-21_17h09.23.691,empathy_intonation_perc_control,2024.2.4,Win32,59.88023952,67164c92298409e37c670b3d,69712dc693a3960bdb483245,69714f7936fb382e28d16d38,14.4655,18.2895,1,1,3.3117,,0,1,1,2,1,./stim/wavs/chilean_question_filler_Mi-padre-cantaba-bien.wav,1,,,,,,,,,,,,,,,,,,,,,,,,,,,,,,,,,,,,,,,,,,,,,,,,,,,,,,,,,,,,,,,,,,,,,,,,
,,,,,,,,,67164c92298409e37c670b3d,Spanish,13 or older,"no, only English or Spanish",yes,2026-01-21_17h09.23.691,empathy_intonation_perc_control,2024.2.4,Win32,59.88023952,67164c92298409e37c670b3d,69712dc693a3960bdb483245,69714f7936fb382e28d16d38,18.2898,21.7067,1,1,2.8954,,0,2,2,3,1,./stim/wavs/mexican_question_filler_Felipe-no-tiene-contrasena.wav,1,,,,,,,,,,,,,,,,,,,,,,,,,,,,,,,,,,,,,,,,,,,,,,,,,,,,,,,,,,,,,,,,,,,,,,,,
,,,,,,,,,67164c92298409e37c670b3d,Spanish,13 or older,"no, only English or Spanish",yes,2026-01-21_17h09.23.691,empathy_intonation_perc_control,2024.2.4,Win32,59.88023952,67164c92298409e37c670b3d,69712dc693a3960bdb483245,69714f7936fb382e28d16d38,21.707,24.0106,0,1,1.7784,,0,3,3,7,1,./stim/wavs/puertorican_statement_filler_La-nina-pinta-con-su-amiga.wav,0,,,,,,,,,,,,,,,,,,,,,,,,,,,,,,,,,,,,,,,,,,,,,,,,,,,,,,,,,,,,,,,,,,,,,,,,
,,,,,,,,,67164c92298409e37c670b3d,Spanish,13 or older,"no, only English or Spanish",yes,2026-01-21_17h09.23.691,empathy_intonation_perc_control,2024.2.4,Win32,59.88023952,67164c92298409e37c670b3d,69712dc693a3960bdb483245,69714f7936fb382e28d16d38,24.0109,26.9052,0,1,2.3737,,0,4,4,6,1,./stim/wavs/peruvian_statement_filler_El-nino-habla-con-su-madre.wav,0,,,,,,,,,,,,,,,,,,,,,,,,,,,,,,,,,,,,,,,,,,,,,,,,,,,,,,,,,,,,,,,,,,,,,,,,
,,,,,,,,,67164c92298409e37c670b3d,Spanish,13 or older,"no, only English or Spanish",yes,2026-01-21_17h09.23.691,empathy_intonation_perc_control,2024.2.4,Win32,59.88023952,67164c92298409e37c670b3d,69712dc693a3960bdb483245,69714f7936fb382e28d16d38,26.9056,29.0055,1,1,1.5787,,0,5,5,1,1,./stim/wavs/argentine_question_filler_Mi-vecino-habla-mucho.wav,1,,,,,,,,,,,,,,,,,,,,,,,,,,,,,,,,,,,,,,,,,,,,,,,,,,,,,,,,,,,,,,,,,,,,,,,,
,,,,,,,,,67164c92298409e37c670b3d,Spanish,13 or older,"no, only English or Spanish",yes,2026-01-21_17h09.23.691,empathy_intonation_perc_control,2024.2.4,Win32,59.88023952,67164c92298409e37c670b3d,69712dc693a3960bdb483245,69714f7936fb382e28d16d38,29.0058,31.0886,1,0,1.5609,,0,6,6,5,1,./stim/wavs/andalusian_statement_filler_Alberto-nunca-se-afeita.wav,0,,,,,,,,,,,,,,,,,,,,,,,,,,,,,,,,,,,,,,,,,,,,,,,,,,,,,,,,,,,,,,,,,,,,,,,,
,,,,,,,,,67164c92298409e37c670b3d,Spanish,13 or older,"no, only English or Spanish",yes,2026-01-21_17h09.23.691,empathy_intonation_perc_control,2024.2.4,Win32,59.88023952,67164c92298409e37c670b3d,69712dc693a3960bdb483245,69714f7936fb382e28d16d38,31.0889,33.2325,0,1,1.6219,,0,7,7,4,1,./stim/wavs/cuban_statement_filler_Cocinabas-por-la-noche.wav,0,,,,,,,,,,,,,,,,,,,,,,,,,,,,,,,,,,,,,,,,,,,,,,,,,,,,,,,,,,,,,,,,,,,,,,,,
,,,,,,,,,67164c92298409e37c670b3d,Spanish,13 or older,"no, only English or Spanish",yes,2026-01-21_17h09.23.691,empathy_intonation_perc_control,2024.2.4,Win32,59.88023952,67164c92298409e37c670b3d,69712dc693a3960bdb483245,69714f7936fb382e28d16d38,,,,,,,,,,,,,,33.2326,35.2009,,,,,,,,,,,,,,,,,,,,,,,,,,,,,,,,,,,,,,,,,,,,,,,,,,,,,,,,,,,,,,,,,,,,,,
,,,,,,,,,67164c92298409e37c670b3d,Spanish,13 or older,"no, only English or Spanish",yes,2026-01-21_17h09.23.691,empathy_intonation_perc_control,2024.2.4,Win32,59.88023952,67164c92298409e37c670b3d,69712dc693a3960bdb483245,69714f7936fb382e28d16d38,,,,,,,,,,,,./stim/wavs/puertorican_match_declarative-broad-focus_Emilio-ama-la-marcha.wav,0,,,35.2054,38.271,0,1,2.5421,,0,0,0,65,1,66,0,puertorican,,,,,,,,,,,,,,,,,,,,,,,,,,,,,,,,,,,,,,,,,,,,,,,,,,,,,,,,
,,,,,,,,,67164c92298409e37c670b3d,Spanish,13 or older,"no, only English or Spanish",yes,2026-01-21_17h09.23.691,empathy_intonation_perc_control,2024.2.4,Win32,59.88023952,67164c92298409e37c670b3d,69712dc693a3960bdb483245,69714f7936fb382e28d16d38,,,,,,,,,,,,./stim/wavs/puertorican_mismatch_interrogative-total-yn_El-hombre-mira-la-luna.wav,1,,,38.2713,40.2986,1,1,1.5084,,0,1,1,39,1,40,1,puertorican,,,,,,,,,,,,,,,,,,,,,,,,,,,,,,,,,,,,,,,,,,,,,,,,,,,,,,,,
,,,,,,,,,67164c92298409e37c670b3d,Spanish,13 or older,"no, only English or Spanish",yes,2026-01-21_17h09.23.691,empathy_intonation_perc_control,2024.2.4,Win32,59.88023952,67164c92298409e37c670b3d,69712dc693a3960bdb483245,69714f7936fb382e28d16d38,,,,,,,,,,,,./stim/wavs/castilian_mismatch_declarative-broad-focus_La-maestra-vive-en-Paris.wav,0,,,40.2989,42.6222,0,1,1.8075,,0,2,2,69,1,70,0,castilian,,,,,,,,,,,,,,,,,,,,,,,,,,,,,,,,,,,,,,,,,,,,,,,,,,,,,,,,
,,,,,,,,,67164c92298409e37c670b3d,Spanish,13 or older,"no, only English or Spanish",yes,2026-01-21_17h09.23.691,empathy_intonation_perc_control,2024.2.4,Win32,59.88023952,67164c92298409e37c670b3d,69712dc693a3960bdb483245,69714f7936fb382e28d16d38,,,,,,,,,,,,./stim/wavs/cuban_match_declarative-broad-focus_Maria-bebe-el-vino.wav,0,,,42.6226,44.6169,0,1,1.4733,,0,3,3,53,1,54,0,cuban,,,,,,,,,,,,,,,,,,,,,,,,,,,,,,,,,,,,,,,,,,,,,,,,,,,,,,,,
,,,,,,,,,67164c92298409e37c670b3d,Spanish,13 or older,"no, only English or Spanish",yes,2026-01-21_17h09.23.691,empathy_intonation_perc_control,2024.2.4,Win32,59.88023952,67164c92298409e37c670b3d,69712dc693a3960bdb483245,69714f7936fb382e28d16d38,,,,,,,,,,,,./stim/wavs/castilian_match_declarative-broad-focus_Manuela-vende-el-carro.wav,0,,,44.6172,47.2557,0,1,2.1135,,0,4,4,46,1,47,0,castilian,,,,,,,,,,,,,,,,,,,,,,,,,,,,,,,,,,,,,,,,,,,,,,,,,,,,,,,,
,,,,,,,,,67164c92298409e37c670b3d,Spanish,13 or older,"no, only English or Spanish",yes,2026-01-21_17h09.23.691,empathy_intonation_perc_control,2024.2.4,Win32,59.88023952,67164c92298409e37c670b3d,69712dc693a3960bdb483245,69714f7936fb382e28d16d38,,,,,,,,,,,,./stim/wavs/cuban_match_declarative-broad-focus_Mariano-habla-del-tiempo.wav,0,,,47.256,49.9534,0,1,2.1865,,0,5,5,54,1,55,0,cuban,,,,,,,,,,,,,,,,,,,,,,,,,,,,,,,,,,,,,,,,,,,,,,,,,,,,,,,,
,,,,,,,,,67164c92298409e37c670b3d,Spanish,13 or older,"no, only English or Spanish",yes,2026-01-21_17h09.23.691,empathy_intonation_perc_control,2024.2.4,Win32,59.88023952,67164c92298409e37c670b3d,69712dc693a3960bdb483245,69714f7936fb382e28d16d38,,,,,,,,,,,,./stim/wavs/cuban_match_interrogative-total-yn_Marta-abre-el-regalo.wav,1,,,49.9537,52.0337,1,1,1.5571,,0,6,6,11,1,12,1,cuban,,,,,,,,,,,,,,,,,,,,,,,,,,,,,,,,,,,,,,,,,,,,,,,,,,,,,,,,
,,,,,,,,,67164c92298409e37c670b3d,Spanish,13 or older,"no, only English or Spanish",yes,2026-01-21_17h09.23.691,empathy_intonation_perc_control,2024.2.4,Win32,59.88023952,67164c92298409e37c670b3d,69712dc693a3960bdb483245,69714f7936fb382e28d16d38,,,,,,,,,,,,./stim/wavs/puertorican_match_interrogative-total-yn_David-leia-el-libro.wav,1,,,52.034,53.8678,0,0,1.3142,,0,7,7,20,1,21,1,puertorican,,,,,,,,,,,,,,,,,,,,,,,,,,,,,,,,,,,,,,,,,,,,,,,,,,,,,,,,
,,,,,,,,,67164c92298409e37c670b3d,Spanish,13 or older,"no, only English or Spanish",yes,2026-01-21_17h09.23.691,empathy_intonation_perc_control,2024.2.4,Win32,59.88023952,67164c92298409e37c670b3d,69712dc693a3960bdb483245,69714f7936fb382e28d16d38,,,,,,,,,,,,./stim/wavs/castilian_mismatch_interrogative-total-yn_Mi-madre-come-la-fruta.wav,1,,,53.8681,56.1503,1,1,1.7595,,0,8,8,26,1,27,0,castilian,,,,,,,,,,,,,,,,,,,,,,,,,,,,,,,,,,,,,,,,,,,,,,,,,,,,,,,,
,,,,,,,,,67164c92298409e37c670b3d,Spanish,13 or older,"no, only English or Spanish",yes,2026-01-21_17h09.23.691,empathy_intonation_perc_control,2024.2.4,Win32,59.88023952,67164c92298409e37c670b3d,69712dc693a3960bdb483245,69714f7936fb382e28d16d38,,,,,,,,,,,,./stim/wavs/cuban_mismatch_interrogative-total-yn_Mi-novio-viene-del-lago.wav,1,,,56.1506,58.6323,0,0,1.9603,,0,9,9,32,1,33,1,cuban,,,,,,,,,,,,,,,,,,,,,,,,,,,,,,,,,,,,,,,,,,,,,,,,,,,,,,,,
,,,,,,,,,67164c92298409e37c670b3d,Spanish,13 or older,"no, only English or Spanish",yes,2026-01-21_17h09.23.691,empathy_intonation_perc_control,2024.2.4,Win32,59.88023952,67164c92298409e37c670b3d,69712dc693a3960bdb483245,69714f7936fb382e28d16d38,,,,,,,,,,,,./stim/wavs/cuban_match_interrogative-total-yn_Ana-lleva-el-abrigo.wav,1,,,58.6326,60.6637,0,0,1.5098,,0,10,10,6,1,7,1,cuban,,,,,,,,,,,,,,,,,,,,,,,,,,,,,,,,,,,,,,,,,,,,,,,,,,,,,,,,
,,,,,,,,,67164c92298409e37c670b3d,Spanish,13 or older,"no, only English or Spanish",yes,2026-01-21_17h09.23.691,empathy_intonation_perc_control,2024.2.4,Win32,59.88023952,67164c92298409e37c670b3d,69712dc693a3960bdb483245,69714f7936fb382e28d16d38,,,,,,,,,,,,./stim/wavs/puertorican_match_interrogative-total-yn_Ana-lleva-el-abrigo.wav,1,,,60.6639,62.5681,1,1,1.3897,,0,11,11,18,1,19,1,puertorican,,,,,,,,,,,,,,,,,,,,,,,,,,,,,,,,,,,,,,,,,,,,,,,,,,,,,,,,
,,,,,,,,,67164c92298409e37c670b3d,Spanish,13 or older,"no, only English or Spanish",yes,2026-01-21_17h09.23.691,empathy_intonation_perc_control,2024.2.4,Win32,59.88023952,67164c92298409e37c670b3d,69712dc693a3960bdb483245,69714f7936fb382e28d16d38,,,,,,,,,,,,./stim/wavs/mexican_match_interrogative-total-yn_Mariano-habla-del-tiempo.wav,1,,,62.5683,65.1739,1,1,2.0874,,0,12,12,16,1,17,0,mexican,,,,,,,,,,,,,,,,,,,,,,,,,,,,,,,,,,,,,,,,,,,,,,,,,,,,,,,,
,,,,,,,,,67164c92298409e37c670b3d,Spanish,13 or older,"no, only English or Spanish",yes,2026-01-21_17h09.23.691,empathy_intonation_perc_control,2024.2.4,Win32,59.88023952,67164c92298409e37c670b3d,69712dc693a3960bdb483245,69714f7936fb382e28d16d38,,,,,,,,,,,,./stim/wavs/cuban_mismatch_declarative-broad-focus_Mi-novio-viene-del-lago.wav,0,,,65.1742,67.4883,0,1,1.7912,,0,13,13,76,1,77,0,cuban,,,,,,,,,,,,,,,,,,,,,,,,,,,,,,,,,,,,,,,,,,,,,,,,,,,,,,,,
,,,,,,,,,67164c92298409e37c670b3d,Spanish,13 or older,"no, only English or Spanish",yes,2026-01-21_17h09.23.691,empathy_intonation_perc_control,2024.2.4,Win32,59.88023952,67164c92298409e37c670b3d,69712dc693a3960bdb483245,69714f7936fb382e28d16d38,,,,,,,,,,,,./stim/wavs/puertorican_mismatch_declarative-broad-focus_El-bebe-comia-muy-bien.wav,0,,,67.4885,69.6211,0,1,1.6083,,0,14,14,83,1,84,0,puertorican,,,,,,,,,,,,,,,,,,,,,,,,,,,,,,,,,,,,,,,,,,,,,,,,,,,,,,,,
,,,,,,,,,67164c92298409e37c670b3d,Spanish,13 or older,"no, only English or Spanish",yes,2026-01-21_17h09.23.691,empathy_intonation_perc_control,2024.2.4,Win32,59.88023952,67164c92298409e37c670b3d,69712dc693a3960bdb483245,69714f7936fb382e28d16d38,,,,,,,,,,,,./stim/wavs/puertorican_match_interrogative-total-yn_Manuela-vende-el-carro.wav,1,,,69.6214,71.6317,1,1,1.488,,0,15,15,22,1,23,1,puertorican,,,,,,,,,,,,,,,,,,,,,,,,,,,,,,,,,,,,,,,,,,,,,,,,,,,,,,,,
,,,,,,,,,67164c92298409e37c670b3d,Spanish,13 or older,"no, only English or Spanish",yes,2026-01-21_17h09.23.691,empathy_intonation_perc_control,2024.2.4,Win32,59.88023952,67164c92298409e37c670b3d,69712dc693a3960bdb483245,69714f7936fb382e28d16d38,,,,,,,,,,,,./stim/wavs/cuban_match_interrogative-total-yn_Mariano-habla-del-tiempo.wav,1,,,71.632,74.1593,1,1,2.0062,,0,16,16,10,1,11,1,cuban,,,,,,,,,,,,,,,,,,,,,,,,,,,,,,,,,,,,,,,,,,,,,,,,,,,,,,,,
,,,,,,,,,67164c92298409e37c670b3d,Spanish,13 or older,"no, only English or Spanish",yes,2026-01-21_17h09.23.691,empathy_intonation_perc_control,2024.2.4,Win32,59.88023952,67164c92298409e37c670b3d,69712dc693a3960bdb483245,69714f7936fb382e28d16d38,,,,,,,,,,,,./stim/wavs/puertorican_match_interrogative-total-yn_Daniel-iba-a-Bolivia.wav,1,,,74.1595,76.0994,0,0,1.4209,,0,17,17,19,1,20,1,puertorican,,,,,,,,,,,,,,,,,,,,,,,,,,,,,,,,,,,,,,,,,,,,,,,,,,,,,,,,
,,,,,,,,,67164c92298409e37c670b3d,Spanish,13 or older,"no, only English or Spanish",yes,2026-01-21_17h09.23.691,empathy_intonation_perc_control,2024.2.4,Win32,59.88023952,67164c92298409e37c670b3d,69712dc693a3960bdb483245,69714f7936fb382e28d16d38,,,,,,,,,,,,./stim/wavs/castilian_match_interrogative-total-yn_Manuela-vende-el-carro.wav,1,,,76.0997,78.2584,0,0,1.6309,,0,18,18,2,1,3,0,castilian,,,,,,,,,,,,,,,,,,,,,,,,,,,,,,,,,,,,,,,,,,,,,,,,,,,,,,,,
,,,,,,,,,67164c92298409e37c670b3d,Spanish,13 or older,"no, only English or Spanish",yes,2026-01-21_17h09.23.691,empathy_intonation_perc_control,2024.2.4,Win32,59.88023952,67164c92298409e37c670b3d,69712dc693a3960bdb483245,69714f7936fb382e28d16d38,,,,,,,,,,,,./stim/wavs/mexican_mismatch_interrogative-total-yn_La-maestra-vive-en-Paris.wav,1,,,78.2588,80.4719,1,1,1.6942,,0,19,19,36,1,37,0,mexican,,,,,,,,,,,,,,,,,,,,,,,,,,,,,,,,,,,,,,,,,,,,,,,,,,,,,,,,
,,,,,,,,,67164c92298409e37c670b3d,Spanish,13 or older,"no, only English or Spanish",yes,2026-01-21_17h09.23.691,empathy_intonation_perc_control,2024.2.4,Win32,59.88023952,67164c92298409e37c670b3d,69712dc693a3960bdb483245,69714f7936fb382e28d16d38,,,,,,,,,,,,./stim/wavs/mexican_match_interrogative-total-yn_Ana-lleva-el-abrigo.wav,1,,,80.4723,82.397,1,1,1.4065,,0,20,20,12,1,13,0,mexican,,,,,,,,,,,,,,,,,,,,,,,,,,,,,,,,,,,,,,,,,,,,,,,,,,,,,,,,
,,,,,,,,,67164c92298409e37c670b3d,Spanish,13 or older,"no, only English or Spanish",yes,2026-01-21_17h09.23.691,empathy_intonation_perc_control,2024.2.4,Win32,59.88023952,67164c92298409e37c670b3d,69712dc693a3960bdb483245,69714f7936fb382e28d16d38,,,,,,,,,,,,./stim/wavs/mexican_match_declarative-broad-focus_David-leia-el-libro.wav,0,,,82.3972,84.4979,0,1,1.5755,,0,21,21,58,1,59,0,mexican,,,,,,,,,,,,,,,,,,,,,,,,,,,,,,,,,,,,,,,,,,,,,,,,,,,,,,,,
,,,,,,,,,67164c92298409e37c670b3d,Spanish,13 or older,"no, only English or Spanish",yes,2026-01-21_17h09.23.691,empathy_intonation_perc_control,2024.2.4,Win32,59.88023952,67164c92298409e37c670b3d,69712dc693a3960bdb483245,69714f7936fb382e28d16d38,,,,,,,,,,,,./stim/wavs/puertorican_mismatch_interrogative-total-yn_El-nino-oye-el-rio.wav,1,,,84.4982,86.3797,0,0,1.359,,0,22,22,40,1,41,1,puertorican,,,,,,,,,,,,,,,,,,,,,,,,,,,,,,,,,,,,,,,,,,,,,,,,,,,,,,,,
,,,,,,,,,67164c92298409e37c670b3d,Spanish,13 or older,"no, only English or Spanish",yes,2026-01-21_17h09.23.691,empathy_intonation_perc_control,2024.2.4,Win32,59.88023952,67164c92298409e37c670b3d,69712dc693a3960bdb483245,69714f7936fb382e28d16d38,,,,,,,,,,,,./stim/wavs/cuban_match_interrogative-total-yn_Maria-bebe-el-vino.wav,1,,,86.38,88.4021,0,0,1.5008,,0,23,23,9,1,10,1,cuban,,,,,,,,,,,,,,,,,,,,,,,,,,,,,,,,,,,,,,,,,,,,,,,,,,,,,,,,
,,,,,,,,,67164c92298409e37c670b3d,Spanish,13 or older,"no, only English or Spanish",yes,2026-01-21_17h09.23.691,empathy_intonation_perc_control,2024.2.4,Win32,59.88023952,67164c92298409e37c670b3d,69712dc693a3960bdb483245,69714f7936fb382e28d16d38,,,,,,,,,,,,./stim/wavs/mexican_mismatch_declarative-broad-focus_El-hombre-mira-la-luna.wav,0,,,88.4024,90.6246,0,1,1.7038,,0,24,24,79,1,80,0,mexican,,,,,,,,,,,,,,,,,,,,,,,,,,,,,,,,,,,,,,,,,,,,,,,,,,,,,,,,
,,,,,,,,,67164c92298409e37c670b3d,Spanish,13 or older,"no, only English or Spanish",yes,2026-01-21_17h09.23.691,empathy_intonation_perc_control,2024.2.4,Win32,59.88023952,67164c92298409e37c670b3d,69712dc693a3960bdb483245,69714f7936fb382e28d16d38,,,,,,,,,,,,./stim/wavs/puertorican_match_interrogative-total-yn_Emilio-ama-la-marcha.wav,1,,,90.625,92.9211,0,0,1.7719,,0,25,25,21,1,22,1,puertorican,,,,,,,,,,,,,,,,,,,,,,,,,,,,,,,,,,,,,,,,,,,,,,,,,,,,,,,,
,,,,,,,,,67164c92298409e37c670b3d,Spanish,13 or older,"no, only English or Spanish",yes,2026-01-21_17h09.23.691,empathy_intonation_perc_control,2024.2.4,Win32,59.88023952,67164c92298409e37c670b3d,69712dc693a3960bdb483245,69714f7936fb382e28d16d38,,,,,,,,,,,,./stim/wavs/castilian_match_declarative-broad-focus_Emilio-ama-la-marcha.wav,0,,,92.9213,95.0642,0,1,1.6187,,0,26,26,45,1,46,0,castilian,,,,,,,,,,,,,,,,,,,,,,,,,,,,,,,,,,,,,,,,,,,,,,,,,,,,,,,,
,,,,,,,,,67164c92298409e37c670b3d,Spanish,13 or older,"no, only English or Spanish",yes,2026-01-21_17h09.23.691,empathy_intonation_perc_control,2024.2.4,Win32,59.88023952,67164c92298409e37c670b3d,69712dc693a3960bdb483245,69714f7936fb382e28d16d38,,,,,,,,,,,,./stim/wavs/cuban_mismatch_declarative-broad-focus_El-hombre-mira-la-luna.wav,0,,,95.0645,97.0131,0,1,1.4286,,0,27,27,74,1,75,0,cuban,,,,,,,,,,,,,,,,,,,,,,,,,,,,,,,,,,,,,,,,,,,,,,,,,,,,,,,,
,,,,,,,,,67164c92298409e37c670b3d,Spanish,13 or older,"no, only English or Spanish",yes,2026-01-21_17h09.23.691,empathy_intonation_perc_control,2024.2.4,Win32,59.88023952,67164c92298409e37c670b3d,69712dc693a3960bdb483245,69714f7936fb382e28d16d38,,,,,,,,,,,,./stim/wavs/mexican_match_declarative-broad-focus_Daniel-iba-a-Bolivia.wav,0,,,97.0133,99.0906,0,1,1.5561,,0,28,28,57,1,58,0,mexican,,,,,,,,,,,,,,,,,,,,,,,,,,,,,,,,,,,,,,,,,,,,,,,,,,,,,,,,
,,,,,,,,,67164c92298409e37c670b3d,Spanish,13 or older,"no, only English or Spanish",yes,2026-01-21_17h09.23.691,empathy_intonation_perc_control,2024.2.4,Win32,59.88023952,67164c92298409e37c670b3d,69712dc693a3960bdb483245,69714f7936fb382e28d16d38,,,,,,,,,,,,./stim/wavs/cuban_mismatch_interrogative-total-yn_El-nino-oye-el-rio.wav,1,,,99.0909,101.0672,1,1,1.4504,,0,29,29,30,1,31,1,cuban,,,,,,,,,,,,,,,,,,,,,,,,,,,,,,,,,,,,,,,,,,,,,,,,,,,,,,,,
,,,,,,,,,67164c92298409e37c670b3d,Spanish,13 or older,"no, only English or Spanish",yes,2026-01-21_17h09.23.691,empathy_intonation_perc_control,2024.2.4,Win32,59.88023952,67164c92298409e37c670b3d,69712dc693a3960bdb483245,69714f7936fb382e28d16d38,,,,,,,,,,,,./stim/wavs/mexican_match_declarative-broad-focus_Mariano-habla-del-tiempo.wav,0,,,101.0675,103.0912,0,1,1.5002,,0,30,30,60,1,61,0,mexican,,,,,,,,,,,,,,,,,,,,,,,,,,,,,,,,,,,,,,,,,,,,,,,,,,,,,,,,
,,,,,,,,,67164c92298409e37c670b3d,Spanish,13 or older,"no, only English or Spanish",yes,2026-01-21_17h09.23.691,empathy_intonation_perc_control,2024.2.4,Win32,59.88023952,67164c92298409e37c670b3d,69712dc693a3960bdb483245,69714f7936fb382e28d16d38,,,,,,,,,,,,./stim/wavs/castilian_mismatch_interrogative-total-yn_Mi-tia-odia-la-lluvia.wav,1,,,103.0915,105.2077,1,1,1.5933,,0,31,31,28,1,29,0,castilian,,,,,,,,,,,,,,,,,,,,,,,,,,,,,,,,,,,,,,,,,,,,,,,,,,,,,,,,
,,,,,,,,,67164c92298409e37c670b3d,Spanish,13 or older,"no, only English or Spanish",yes,2026-01-21_17h09.23.691,empathy_intonation_perc_control,2024.2.4,Win32,59.88023952,67164c92298409e37c670b3d,69712dc693a3960bdb483245,69714f7936fb382e28d16d38,,,,,,,,,,,,./stim/wavs/puertorican_mismatch_interrogative-total-yn_Mi-madre-come-la-fruta.wav,1,,,105.208,107.418,0,0,1.6983,,0,32,32,43,1,44,1,puertorican,,,,,,,,,,,,,,,,,,,,,,,,,,,,,,,,,,,,,,,,,,,,,,,,,,,,,,,,
,,,,,,,,,67164c92298409e37c670b3d,Spanish,13 or older,"no, only English or Spanish",yes,2026-01-21_17h09.23.691,empathy_intonation_perc_control,2024.2.4,Win32,59.88023952,67164c92298409e37c670b3d,69712dc693a3960bdb483245,69714f7936fb382e28d16d38,,,,,,,,,,,,./stim/wavs/cuban_mismatch_declarative-broad-focus_El-bebe-comia-muy-bien.wav,0,,,107.4183,109.4654,0,1,1.5204,,0,33,33,73,1,74,0,cuban,,,,,,,,,,,,,,,,,,,,,,,,,,,,,,,,,,,,,,,,,,,,,,,,,,,,,,,,
,,,,,,,,,67164c92298409e37c670b3d,Spanish,13 or older,"no, only English or Spanish",yes,2026-01-21_17h09.23.691,empathy_intonation_perc_control,2024.2.4,Win32,59.88023952,67164c92298409e37c670b3d,69712dc693a3960bdb483245,69714f7936fb382e28d16d38,,,,,,,,,,,,./stim/wavs/puertorican_mismatch_declarative-broad-focus_El-hombre-mira-la-luna.wav,0,,,109.4656,111.4633,0,1,1.4734,,0,34,34,84,1,85,0,puertorican,,,,,,,,,,,,,,,,,,,,,,,,,,,,,,,,,,,,,,,,,,,,,,,,,,,,,,,,
,,,,,,,,,67164c92298409e37c670b3d,Spanish,13 or older,"no, only English or Spanish",yes,2026-01-21_17h09.23.691,empathy_intonation_perc_control,2024.2.4,Win32,59.88023952,67164c92298409e37c670b3d,69712dc693a3960bdb483245,69714f7936fb382e28d16d38,,,,,,,,,,,,./stim/wavs/puertorican_mismatch_interrogative-total-yn_La-maestra-vive-en-Paris.wav,1,,,111.4636,113.6821,0,0,1.696,,0,35,35,41,1,42,1,puertorican,,,,,,,,,,,,,,,,,,,,,,,,,,,,,,,,,,,,,,,,,,,,,,,,,,,,,,,,
,,,,,,,,,67164c92298409e37c670b3d,Spanish,13 or older,"no, only English or Spanish",yes,2026-01-21_17h09.23.691,empathy_intonation_perc_control,2024.2.4,Win32,59.88023952,67164c92298409e37c670b3d,69712dc693a3960bdb483245,69714f7936fb382e28d16d38,,,,,,,,,,,,./stim/wavs/puertorican_match_declarative-broad-focus_Daniel-iba-a-Bolivia.wav,0,,,113.6824,115.6264,0,1,1.4249,,0,36,36,63,1,64,0,puertorican,,,,,,,,,,,,,,,,,,,,,,,,,,,,,,,,,,,,,,,,,,,,,,,,,,,,,,,,
,,,,,,,,,67164c92298409e37c670b3d,Spanish,13 or older,"no, only English or Spanish",yes,2026-01-21_17h09.23.691,empathy_intonation_perc_control,2024.2.4,Win32,59.88023952,67164c92298409e37c670b3d,69712dc693a3960bdb483245,69714f7936fb382e28d16d38,,,,,,,,,,,,./stim/wavs/puertorican_match_interrogative-total-yn_Maria-bebe-el-vino.wav,1,,,115.6267,117.3764,1,1,1.2271,,0,37,37,23,1,24,1,puertorican,,,,,,,,,,,,,,,,,,,,,,,,,,,,,,,,,,,,,,,,,,,,,,,,,,,,,,,,
,,,,,,,,,67164c92298409e37c670b3d,Spanish,13 or older,"no, only English or Spanish",yes,2026-01-21_17h09.23.691,empathy_intonation_perc_control,2024.2.4,Win32,59.88023952,67164c92298409e37c670b3d,69712dc693a3960bdb483245,69714f7936fb382e28d16d38,,,,,,,,,,,,./stim/wavs/cuban_match_declarative-broad-focus_Manuela-vende-el-carro.wav,0,,,117.3766,119.5121,0,1,1.6155,,0,38,38,52,1,53,0,cuban,,,,,,,,,,,,,,,,,,,,,,,,,,,,,,,,,,,,,,,,,,,,,,,,,,,,,,,,
,,,,,,,,,67164c92298409e37c670b3d,Spanish,13 or older,"no, only English or Spanish",yes,2026-01-21_17h09.23.691,empathy_intonation_perc_control,2024.2.4,Win32,59.88023952,67164c92298409e37c670b3d,69712dc693a3960bdb483245,69714f7936fb382e28d16d38,,,,,,,,,,,,./stim/wavs/cuban_mismatch_interrogative-total-yn_Mi-madre-come-la-fruta.wav,1,,,119.5123,121.633,0,0,1.6025,,0,39,39,31,1,32,1,cuban,,,,,,,,,,,,,,,,,,,,,,,,,,,,,,,,,,,,,,,,,,,,,,,,,,,,,,,,
,,,,,,,,,67164c92298409e37c670b3d,Spanish,13 or older,"no, only English or Spanish",yes,2026-01-21_17h09.23.691,empathy_intonation_perc_control,2024.2.4,Win32,59.88023952,67164c92298409e37c670b3d,69712dc693a3960bdb483245,69714f7936fb382e28d16d38,,,,,,,,,,,,./stim/wavs/mexican_mismatch_interrogative-total-yn_El-hombre-mira-la-luna.wav,1,,,121.6334,123.5411,1,1,1.3871,,0,40,40,34,1,35,0,mexican,,,,,,,,,,,,,,,,,,,,,,,,,,,,,,,,,,,,,,,,,,,,,,,,,,,,,,,,
,,,,,,,,,67164c92298409e37c670b3d,Spanish,13 or older,"no, only English or Spanish",yes,2026-01-21_17h09.23.691,empathy_intonation_perc_control,2024.2.4,Win32,59.88023952,67164c92298409e37c670b3d,69712dc693a3960bdb483245,69714f7936fb382e28d16d38,,,,,,,,,,,,./stim/wavs/cuban_match_interrogative-total-yn_Manuela-vende-el-carro.wav,1,,,123.5413,125.46,0,0,1.4015,,0,41,41,8,1,9,1,cuban,,,,,,,,,,,,,,,,,,,,,,,,,,,,,,,,,,,,,,,,,,,,,,,,,,,,,,,,
,,,,,,,,,67164c92298409e37c670b3d,Spanish,13 or older,"no, only English or Spanish",yes,2026-01-21_17h09.23.691,empathy_intonation_perc_control,2024.2.4,Win32,59.88023952,67164c92298409e37c670b3d,69712dc693a3960bdb483245,69714f7936fb382e28d16d38,,,,,,,,,,,,./stim/wavs/castilian_match_declarative-broad-focus_Marta-abre-el-regalo.wav,0,,,125.4603,127.5488,0,1,1.5707,,0,42,42,49,1,50,0,castilian,,,,,,,,,,,,,,,,,,,,,,,,,,,,,,,,,,,,,,,,,,,,,,,,,,,,,,,,
,,,,,,,,,67164c92298409e37c670b3d,Spanish,13 or older,"no, only English or Spanish",yes,2026-01-21_17h09.23.691,empathy_intonation_perc_control,2024.2.4,Win32,59.88023952,67164c92298409e37c670b3d,69712dc693a3960bdb483245,69714f7936fb382e28d16d38,,,,,,,,,,,,./stim/wavs/castilian_mismatch_declarative-broad-focus_Mi-tia-odia-la-lluvia.wav,0,,,127.5491,129.643,0,1,1.5731,,0,43,43,72,1,73,0,castilian,,,,,,,,,,,,,,,,,,,,,,,,,,,,,,,,,,,,,,,,,,,,,,,,,,,,,,,,
,,,,,,,,,67164c92298409e37c670b3d,Spanish,13 or older,"no, only English or Spanish",yes,2026-01-21_17h09.23.691,empathy_intonation_perc_control,2024.2.4,Win32,59.88023952,67164c92298409e37c670b3d,69712dc693a3960bdb483245,69714f7936fb382e28d16d38,,,,,,,,,,,,./stim/wavs/mexican_match_interrogative-total-yn_Marta-abre-el-regalo.wav,1,,,129.6433,131.5353,1,1,1.3707,,0,44,44,17,1,18,0,mexican,,,,,,,,,,,,,,,,,,,,,,,,,,,,,,,,,,,,,,,,,,,,,,,,,,,,,,,,
,,,,,,,,,67164c92298409e37c670b3d,Spanish,13 or older,"no, only English or Spanish",yes,2026-01-21_17h09.23.691,empathy_intonation_perc_control,2024.2.4,Win32,59.88023952,67164c92298409e37c670b3d,69712dc693a3960bdb483245,69714f7936fb382e28d16d38,,,,,,,,,,,,./stim/wavs/cuban_match_interrogative-total-yn_Daniel-iba-a-Bolivia.wav,1,,,131.5356,133.4972,0,0,1.4378,,0,45,45,7,1,8,1,cuban,,,,,,,,,,,,,,,,,,,,,,,,,,,,,,,,,,,,,,,,,,,,,,,,,,,,,,,,
,,,,,,,,,67164c92298409e37c670b3d,Spanish,13 or older,"no, only English or Spanish",yes,2026-01-21_17h09.23.691,empathy_intonation_perc_control,2024.2.4,Win32,59.88023952,67164c92298409e37c670b3d,69712dc693a3960bdb483245,69714f7936fb382e28d16d38,,,,,,,,,,,,./stim/wavs/castilian_match_interrogative-total-yn_Maria-bebe-el-vino.wav,1,,,133.4974,135.492,1,1,1.4748,,0,46,46,3,1,4,0,castilian,,,,,,,,,,,,,,,,,,,,,,,,,,,,,,,,,,,,,,,,,,,,,,,,,,,,,,,,
,,,,,,,,,67164c92298409e37c670b3d,Spanish,13 or older,"no, only English or Spanish",yes,2026-01-21_17h09.23.691,empathy_intonation_perc_control,2024.2.4,Win32,59.88023952,67164c92298409e37c670b3d,69712dc693a3960bdb483245,69714f7936fb382e28d16d38,,,,,,,,,,,,./stim/wavs/puertorican_match_declarative-broad-focus_Ana-lleva-el-abrigo.wav,0,,,135.4925,137.2585,0,1,1.2469,,0,47,47,62,1,63,0,puertorican,,,,,,,,,,,,,,,,,,,,,,,,,,,,,,,,,,,,,,,,,,,,,,,,,,,,,,,,
,,,,,,,,,67164c92298409e37c670b3d,Spanish,13 or older,"no, only English or Spanish",yes,2026-01-21_17h09.23.691,empathy_intonation_perc_control,2024.2.4,Win32,59.88023952,67164c92298409e37c670b3d,69712dc693a3960bdb483245,69714f7936fb382e28d16d38,,,,,,,,,,,,./stim/wavs/castilian_match_declarative-broad-focus_Mariano-habla-del-tiempo.wav,0,,,137.259,139.6131,0,1,1.8363,,0,48,48,48,1,49,0,castilian,,,,,,,,,,,,,,,,,,,,,,,,,,,,,,,,,,,,,,,,,,,,,,,,,,,,,,,,
,,,,,,,,,67164c92298409e37c670b3d,Spanish,13 or older,"no, only English or Spanish",yes,2026-01-21_17h09.23.691,empathy_intonation_perc_control,2024.2.4,Win32,59.88023952,67164c92298409e37c670b3d,69712dc693a3960bdb483245,69714f7936fb382e28d16d38,,,,,,,,,,,,./stim/wavs/mexican_mismatch_interrogative-total-yn_Mi-tia-odia-la-lluvia.wav,1,,,139.6133,141.6673,1,1,1.5303,,0,49,49,38,1,39,0,mexican,,,,,,,,,,,,,,,,,,,,,,,,,,,,,,,,,,,,,,,,,,,,,,,,,,,,,,,,
,,,,,,,,,67164c92298409e37c670b3d,Spanish,13 or older,"no, only English or Spanish",yes,2026-01-21_17h09.23.691,empathy_intonation_perc_control,2024.2.4,Win32,59.88023952,67164c92298409e37c670b3d,69712dc693a3960bdb483245,69714f7936fb382e28d16d38,,,,,,,,,,,,./stim/wavs/castilian_match_declarative-broad-focus_Maria-bebe-el-vino.wav,0,,,141.6676,143.608,0,1,1.4189,,0,50,50,47,1,48,0,castilian,,,,,,,,,,,,,,,,,,,,,,,,,,,,,,,,,,,,,,,,,,,,,,,,,,,,,,,,
,,,,,,,,,67164c92298409e37c670b3d,Spanish,13 or older,"no, only English or Spanish",yes,2026-01-21_17h09.23.691,empathy_intonation_perc_control,2024.2.4,Win32,59.88023952,67164c92298409e37c670b3d,69712dc693a3960bdb483245,69714f7936fb382e28d16d38,,,,,,,,,,,,./stim/wavs/puertorican_mismatch_declarative-broad-focus_El-nino-oye-el-rio.wav,0,,,143.6083,145.6342,0,1,1.5065,,0,51,51,85,1,86,0,puertorican,,,,,,,,,,,,,,,,,,,,,,,,,,,,,,,,,,,,,,,,,,,,,,,,,,,,,,,,
,,,,,,,,,67164c92298409e37c670b3d,Spanish,13 or older,"no, only English or Spanish",yes,2026-01-21_17h09.23.691,empathy_intonation_perc_control,2024.2.4,Win32,59.88023952,67164c92298409e37c670b3d,69712dc693a3960bdb483245,69714f7936fb382e28d16d38,,,,,,,,,,,,./stim/wavs/mexican_match_declarative-broad-focus_Marta-abre-el-regalo.wav,0,,,145.6345,147.4784,0,1,1.3207,,0,52,52,61,1,62,0,mexican,,,,,,,,,,,,,,,,,,,,,,,,,,,,,,,,,,,,,,,,,,,,,,,,,,,,,,,,
,,,,,,,,,67164c92298409e37c670b3d,Spanish,13 or older,"no, only English or Spanish",yes,2026-01-21_17h09.23.691,empathy_intonation_perc_control,2024.2.4,Win32,59.88023952,67164c92298409e37c670b3d,69712dc693a3960bdb483245,69714f7936fb382e28d16d38,,,,,,,,,,,,./stim/wavs/cuban_match_declarative-broad-focus_Marta-abre-el-regalo.wav,0,,,147.4786,149.5206,0,1,1.5216,,0,53,53,55,1,56,0,cuban,,,,,,,,,,,,,,,,,,,,,,,,,,,,,,,,,,,,,,,,,,,,,,,,,,,,,,,,
,,,,,,,,,67164c92298409e37c670b3d,Spanish,13 or older,"no, only English or Spanish",yes,2026-01-21_17h09.23.691,empathy_intonation_perc_control,2024.2.4,Win32,59.88023952,67164c92298409e37c670b3d,69712dc693a3960bdb483245,69714f7936fb382e28d16d38,,,,,,,,,,,,./stim/wavs/cuban_mismatch_declarative-broad-focus_Mi-tia-odia-la-lluvia.wav,0,,,149.5208,151.9497,0,1,1.9104,,0,54,54,77,1,78,0,cuban,,,,,,,,,,,,,,,,,,,,,,,,,,,,,,,,,,,,,,,,,,,,,,,,,,,,,,,,
,,,,,,,,,67164c92298409e37c670b3d,Spanish,13 or older,"no, only English or Spanish",yes,2026-01-21_17h09.23.691,empathy_intonation_perc_control,2024.2.4,Win32,59.88023952,67164c92298409e37c670b3d,69712dc693a3960bdb483245,69714f7936fb382e28d16d38,,,,,,,,,,,,./stim/wavs/cuban_match_declarative-broad-focus_Ana-lleva-el-abrigo.wav,0,,,151.9499,154.0603,0,1,1.5879,,0,55,55,50,1,51,0,cuban,,,,,,,,,,,,,,,,,,,,,,,,,,,,,,,,,,,,,,,,,,,,,,,,,,,,,,,,
,,,,,,,,,67164c92298409e37c670b3d,Spanish,13 or older,"no, only English or Spanish",yes,2026-01-21_17h09.23.691,empathy_intonation_perc_control,2024.2.4,Win32,59.88023952,67164c92298409e37c670b3d,69712dc693a3960bdb483245,69714f7936fb382e28d16d38,,,,,,,,,,,,./stim/wavs/mexican_mismatch_interrogative-total-yn_Mi-novio-viene-del-lago.wav,1,,,154.0605,156.1535,1,1,1.5714,,0,56,56,37,1,38,0,mexican,,,,,,,,,,,,,,,,,,,,,,,,,,,,,,,,,,,,,,,,,,,,,,,,,,,,,,,,
,,,,,,,,,67164c92298409e37c670b3d,Spanish,13 or older,"no, only English or Spanish",yes,2026-01-21_17h09.23.691,empathy_intonation_perc_control,2024.2.4,Win32,59.88023952,67164c92298409e37c670b3d,69712dc693a3960bdb483245,69714f7936fb382e28d16d38,,,,,,,,,,,,./stim/wavs/puertorican_mismatch_declarative-broad-focus_La-nina-lava-el-plato.wav,0,,,156.1537,158.2498,0,1,1.5851,,0,57,57,87,1,88,0,puertorican,,,,,,,,,,,,,,,,,,,,,,,,,,,,,,,,,,,,,,,,,,,,,,,,,,,,,,,,
,,,,,,,,,67164c92298409e37c670b3d,Spanish,13 or older,"no, only English or Spanish",yes,2026-01-21_17h09.23.691,empathy_intonation_perc_control,2024.2.4,Win32,59.88023952,67164c92298409e37c670b3d,69712dc693a3960bdb483245,69714f7936fb382e28d16d38,,,,,,,,,,,,./stim/wavs/mexican_mismatch_declarative-broad-focus_Mi-tia-odia-la-lluvia.wav,0,,,158.2501,160.2423,0,1,1.4729,,0,58,58,82,1,83,0,mexican,,,,,,,,,,,,,,,,,,,,,,,,,,,,,,,,,,,,,,,,,,,,,,,,,,,,,,,,
,,,,,,,,,67164c92298409e37c670b3d,Spanish,13 or older,"no, only English or Spanish",yes,2026-01-21_17h09.23.691,empathy_intonation_perc_control,2024.2.4,Win32,59.88023952,67164c92298409e37c670b3d,69712dc693a3960bdb483245,69714f7936fb382e28d16d38,,,,,,,,,,,,./stim/wavs/cuban_match_declarative-broad-focus_Daniel-iba-a-Bolivia.wav,0,,,160.2427,162.4278,0,1,1.6615,,0,59,59,51,1,52,0,cuban,,,,,,,,,,,,,,,,,,,,,,,,,,,,,,,,,,,,,,,,,,,,,,,,,,,,,,,,
,,,,,,,,,67164c92298409e37c670b3d,Spanish,13 or older,"no, only English or Spanish",yes,2026-01-21_17h09.23.691,empathy_intonation_perc_control,2024.2.4,Win32,59.88023952,67164c92298409e37c670b3d,69712dc693a3960bdb483245,69714f7936fb382e28d16d38,,,,,,,,,,,,./stim/wavs/cuban_mismatch_interrogative-total-yn_Mi-tia-odia-la-lluvia.wav,1,,,162.4281,164.7242,0,0,1.7717,,0,60,60,33,1,34,1,cuban,,,,,,,,,,,,,,,,,,,,,,,,,,,,,,,,,,,,,,,,,,,,,,,,,,,,,,,,
,,,,,,,,,67164c92298409e37c670b3d,Spanish,13 or older,"no, only English or Spanish",yes,2026-01-21_17h09.23.691,empathy_intonation_perc_control,2024.2.4,Win32,59.88023952,67164c92298409e37c670b3d,69712dc693a3960bdb483245,69714f7936fb382e28d16d38,,,,,,,,,,,,./stim/wavs/castilian_match_interrogative-total-yn_Emilio-ama-la-marcha.wav,1,,,164.7245,167.075,1,1,1.831,,0,61,61,1,1,2,0,castilian,,,,,,,,,,,,,,,,,,,,,,,,,,,,,,,,,,,,,,,,,,,,,,,,,,,,,,,,
,,,,,,,,,67164c92298409e37c670b3d,Spanish,13 or older,"no, only English or Spanish",yes,2026-01-21_17h09.23.691,empathy_intonation_perc_control,2024.2.4,Win32,59.88023952,67164c92298409e37c670b3d,69712dc693a3960bdb483245,69714f7936fb382e28d16d38,,,,,,,,,,,,./stim/wavs/mexican_mismatch_interrogative-total-yn_El-nino-oye-el-rio.wav,1,,,167.0753,169.0736,0,0,1.4728,,0,62,62,35,1,36,0,mexican,,,,,,,,,,,,,,,,,,,,,,,,,,,,,,,,,,,,,,,,,,,,,,,,,,,,,,,,
,,,,,,,,,67164c92298409e37c670b3d,Spanish,13 or older,"no, only English or Spanish",yes,2026-01-21_17h09.23.691,empathy_intonation_perc_control,2024.2.4,Win32,59.88023952,67164c92298409e37c670b3d,69712dc693a3960bdb483245,69714f7936fb382e28d16d38,,,,,,,,,,,,./stim/wavs/mexican_match_declarative-broad-focus_Ana-lleva-el-abrigo.wav,0,,,169.0739,170.9063,0,1,1.309,,0,63,63,56,1,57,0,mexican,,,,,,,,,,,,,,,,,,,,,,,,,,,,,,,,,,,,,,,,,,,,,,,,,,,,,,,,
,,,,,,,,,67164c92298409e37c670b3d,Spanish,13 or older,"no, only English or Spanish",yes,2026-01-21_17h09.23.691,empathy_intonation_perc_control,2024.2.4,Win32,59.88023952,67164c92298409e37c670b3d,69712dc693a3960bdb483245,69714f7936fb382e28d16d38,,,,,,,,,,,,./stim/wavs/mexican_mismatch_declarative-broad-focus_Mi-novio-viene-del-lago.wav,0,,,170.9066,172.9809,0,1,1.5524,,0,64,64,81,1,82,0,mexican,,,,,,,,,,,,,,,,,,,,,,,,,,,,,,,,,,,,,,,,,,,,,,,,,,,,,,,,
,,,,,,,,,67164c92298409e37c670b3d,Spanish,13 or older,"no, only English or Spanish",yes,2026-01-21_17h09.23.691,empathy_intonation_perc_control,2024.2.4,Win32,59.88023952,67164c92298409e37c670b3d,69712dc693a3960bdb483245,69714f7936fb382e28d16d38,,,,,,,,,,,,./stim/wavs/mexican_mismatch_declarative-broad-focus_La-maestra-vive-en-Paris.wav,0,,,172.9812,175.0215,0,1,1.5186,,0,65,65,80,1,81,0,mexican,,,,,,,,,,,,,,,,,,,,,,,,,,,,,,,,,,,,,,,,,,,,,,,,,,,,,,,,
,,,,,,,,,67164c92298409e37c670b3d,Spanish,13 or older,"no, only English or Spanish",yes,2026-01-21_17h09.23.691,empathy_intonation_perc_control,2024.2.4,Win32,59.88023952,67164c92298409e37c670b3d,69712dc693a3960bdb483245,69714f7936fb382e28d16d38,,,,,,,,,,,,./stim/wavs/castilian_mismatch_declarative-broad-focus_El-nino-oye-el-rio.wav,0,,,175.0219,177.4788,0,1,1.9349,,0,66,66,68,1,69,0,castilian,,,,,,,,,,,,,,,,,,,,,,,,,,,,,,,,,,,,,,,,,,,,,,,,,,,,,,,,
,,,,,,,,,67164c92298409e37c670b3d,Spanish,13 or older,"no, only English or Spanish",yes,2026-01-21_17h09.23.691,empathy_intonation_perc_control,2024.2.4,Win32,59.88023952,67164c92298409e37c670b3d,69712dc693a3960bdb483245,69714f7936fb382e28d16d38,,,,,,,,,,,,./stim/wavs/mexican_match_declarative-broad-focus_Emilio-ama-la-marcha.wav,0,,,177.4791,179.5865,0,1,1.5867,,0,67,67,59,1,60,0,mexican,,,,,,,,,,,,,,,,,,,,,,,,,,,,,,,,,,,,,,,,,,,,,,,,,,,,,,,,
,,,,,,,,,67164c92298409e37c670b3d,Spanish,13 or older,"no, only English or Spanish",yes,2026-01-21_17h09.23.691,empathy_intonation_perc_control,2024.2.4,Win32,59.88023952,67164c92298409e37c670b3d,69712dc693a3960bdb483245,69714f7936fb382e28d16d38,,,,,,,,,,,,./stim/wavs/puertorican_match_declarative-broad-focus_David-leia-el-libro.wav,0,,,179.5867,181.4523,0,1,1.3424,,0,68,68,64,1,65,0,puertorican,,,,,,,,,,,,,,,,,,,,,,,,,,,,,,,,,,,,,,,,,,,,,,,,,,,,,,,,
,,,,,,,,,67164c92298409e37c670b3d,Spanish,13 or older,"no, only English or Spanish",yes,2026-01-21_17h09.23.691,empathy_intonation_perc_control,2024.2.4,Win32,59.88023952,67164c92298409e37c670b3d,69712dc693a3960bdb483245,69714f7936fb382e28d16d38,,,,,,,,,,,,./stim/wavs/castilian_mismatch_interrogative-total-yn_La-nina-lava-el-plato.wav,1,,,181.4525,183.4877,1,1,1.5213,,0,69,69,25,1,26,0,castilian,,,,,,,,,,,,,,,,,,,,,,,,,,,,,,,,,,,,,,,,,,,,,,,,,,,,,,,,
,,,,,,,,,67164c92298409e37c670b3d,Spanish,13 or older,"no, only English or Spanish",yes,2026-01-21_17h09.23.691,empathy_intonation_perc_control,2024.2.4,Win32,59.88023952,67164c92298409e37c670b3d,69712dc693a3960bdb483245,69714f7936fb382e28d16d38,,,,,,,,,,,,./stim/wavs/puertorican_match_declarative-broad-focus_Manuela-vende-el-carro.wav,0,,,183.488,185.6885,0,1,1.6802,,0,70,70,66,1,67,0,puertorican,,,,,,,,,,,,,,,,,,,,,,,,,,,,,,,,,,,,,,,,,,,,,,,,,,,,,,,,
,,,,,,,,,67164c92298409e37c670b3d,Spanish,13 or older,"no, only English or Spanish",yes,2026-01-21_17h09.23.691,empathy_intonation_perc_control,2024.2.4,Win32,59.88023952,67164c92298409e37c670b3d,69712dc693a3960bdb483245,69714f7936fb382e28d16d38,,,,,,,,,,,,./stim/wavs/cuban_mismatch_declarative-broad-focus_La-nina-lava-el-plato.wav,0,,,185.6887,187.7339,0,1,1.5239,,0,71,71,75,1,76,0,cuban,,,,,,,,,,,,,,,,,,,,,,,,,,,,,,,,,,,,,,,,,,,,,,,,,,,,,,,,
,,,,,,,,,67164c92298409e37c670b3d,Spanish,13 or older,"no, only English or Spanish",yes,2026-01-21_17h09.23.691,empathy_intonation_perc_control,2024.2.4,Win32,59.88023952,67164c92298409e37c670b3d,69712dc693a3960bdb483245,69714f7936fb382e28d16d38,,,,,,,,,,,,./stim/wavs/mexican_match_interrogative-total-yn_David-leia-el-libro.wav,1,,,187.7343,190.2139,1,1,1.9654,,0,72,72,14,1,15,0,mexican,,,,,,,,,,,,,,,,,,,,,,,,,,,,,,,,,,,,,,,,,,,,,,,,,,,,,,,,
,,,,,,,,,67164c92298409e37c670b3d,Spanish,13 or older,"no, only English or Spanish",yes,2026-01-21_17h09.23.691,empathy_intonation_perc_control,2024.2.4,Win32,59.88023952,67164c92298409e37c670b3d,69712dc693a3960bdb483245,69714f7936fb382e28d16d38,,,,,,,,,,,,./stim/wavs/puertorican_match_declarative-broad-focus_Maria-bebe-el-vino.wav,0,,,190.214,192.2479,0,1,1.5112,,0,73,73,67,1,68,0,puertorican,,,,,,,,,,,,,,,,,,,,,,,,,,,,,,,,,,,,,,,,,,,,,,,,,,,,,,,,
,,,,,,,,,67164c92298409e37c670b3d,Spanish,13 or older,"no, only English or Spanish",yes,2026-01-21_17h09.23.691,empathy_intonation_perc_control,2024.2.4,Win32,59.88023952,67164c92298409e37c670b3d,69712dc693a3960bdb483245,69714f7936fb382e28d16d38,,,,,,,,,,,,./stim/wavs/mexican_match_interrogative-total-yn_Daniel-iba-a-Bolivia.wav,1,,,192.2482,194.3587,1,1,1.5876,,0,74,74,13,1,14,0,mexican,,,,,,,,,,,,,,,,,,,,,,,,,,,,,,,,,,,,,,,,,,,,,,,,,,,,,,,,
,,,,,,,,,67164c92298409e37c670b3d,Spanish,13 or older,"no, only English or Spanish",yes,2026-01-21_17h09.23.691,empathy_intonation_perc_control,2024.2.4,Win32,59.88023952,67164c92298409e37c670b3d,69712dc693a3960bdb483245,69714f7936fb382e28d16d38,,,,,,,,,,,,./stim/wavs/puertorican_mismatch_interrogative-total-yn_La-nina-lava-el-plato.wav,1,,,194.359,196.7436,1,1,1.8649,,0,75,75,42,1,43,1,puertorican,,,,,,,,,,,,,,,,,,,,,,,,,,,,,,,,,,,,,,,,,,,,,,,,,,,,,,,,
,,,,,,,,,67164c92298409e37c670b3d,Spanish,13 or older,"no, only English or Spanish",yes,2026-01-21_17h09.23.691,empathy_intonation_perc_control,2024.2.4,Win32,59.88023952,67164c92298409e37c670b3d,69712dc693a3960bdb483245,69714f7936fb382e28d16d38,,,,,,,,,,,,./stim/wavs/castilian_match_interrogative-total-yn_David-leia-el-libro.wav,1,,,196.7439,199.1443,1,1,1.8781,,0,76,76,0,1,1,0,castilian,,,,,,,,,,,,,,,,,,,,,,,,,,,,,,,,,,,,,,,,,,,,,,,,,,,,,,,,
,,,,,,,,,67164c92298409e37c670b3d,Spanish,13 or older,"no, only English or Spanish",yes,2026-01-21_17h09.23.691,empathy_intonation_perc_control,2024.2.4,Win32,59.88023952,67164c92298409e37c670b3d,69712dc693a3960bdb483245,69714f7936fb382e28d16d38,,,,,,,,,,,,./stim/wavs/castilian_match_interrogative-total-yn_Mariano-habla-del-tiempo.wav,1,,,199.1446,201.483,1,1,1.8152,,0,77,77,4,1,5,0,castilian,,,,,,,,,,,,,,,,,,,,,,,,,,,,,,,,,,,,,,,,,,,,,,,,,,,,,,,,
,,,,,,,,,67164c92298409e37c670b3d,Spanish,13 or older,"no, only English or Spanish",yes,2026-01-21_17h09.23.691,empathy_intonation_perc_control,2024.2.4,Win32,59.88023952,67164c92298409e37c670b3d,69712dc693a3960bdb483245,69714f7936fb382e28d16d38,,,,,,,,,,,,./stim/wavs/cuban_mismatch_interrogative-total-yn_El-hombre-mira-la-luna.wav,1,,,201.4832,203.4923,0,0,1.4856,,0,78,78,29,1,30,1,cuban,,,,,,,,,,,,,,,,,,,,,,,,,,,,,,,,,,,,,,,,,,,,,,,,,,,,,,,,
,,,,,,,,,67164c92298409e37c670b3d,Spanish,13 or older,"no, only English or Spanish",yes,2026-01-21_17h09.23.691,empathy_intonation_perc_control,2024.2.4,Win32,59.88023952,67164c92298409e37c670b3d,69712dc693a3960bdb483245,69714f7936fb382e28d16d38,,,,,,,,,,,,./stim/wavs/castilian_mismatch_declarative-broad-focus_La-nina-lava-el-plato.wav,0,,,203.4926,206.4831,0,1,2.464,,0,79,79,70,1,71,0,castilian,,,,,,,,,,,,,,,,,,,,,,,,,,,,,,,,,,,,,,,,,,,,,,,,,,,,,,,,
,,,,,,,,,67164c92298409e37c670b3d,Spanish,13 or older,"no, only English or Spanish",yes,2026-01-21_17h09.23.691,empathy_intonation_perc_control,2024.2.4,Win32,59.88023952,67164c92298409e37c670b3d,69712dc693a3960bdb483245,69714f7936fb382e28d16d38,,,,,,,,,,,,./stim/wavs/castilian_mismatch_declarative-broad-focus_Mi-novio-viene-del-lago.wav,0,,,206.4834,208.8514,0,1,1.8417,,0,80,80,71,1,72,0,castilian,,,,,,,,,,,,,,,,,,,,,,,,,,,,,,,,,,,,,,,,,,,,,,,,,,,,,,,,
,,,,,,,,,67164c92298409e37c670b3d,Spanish,13 or older,"no, only English or Spanish",yes,2026-01-21_17h09.23.691,empathy_intonation_perc_control,2024.2.4,Win32,59.88023952,67164c92298409e37c670b3d,69712dc693a3960bdb483245,69714f7936fb382e28d16d38,,,,,,,,,,,,./stim/wavs/castilian_mismatch_interrogative-total-yn_Mi-novio-viene-del-lago.wav,1,,,208.8518,211.1015,1,1,1.7267,,0,81,81,27,1,28,0,castilian,,,,,,,,,,,,,,,,,,,,,,,,,,,,,,,,,,,,,,,,,,,,,,,,,,,,,,,,
,,,,,,,,,67164c92298409e37c670b3d,Spanish,13 or older,"no, only English or Spanish",yes,2026-01-21_17h09.23.691,empathy_intonation_perc_control,2024.2.4,Win32,59.88023952,67164c92298409e37c670b3d,69712dc693a3960bdb483245,69714f7936fb382e28d16d38,,,,,,,,,,,,./stim/wavs/castilian_match_declarative-broad-focus_David-leia-el-libro.wav,0,,,211.102,213.4424,0,1,1.8258,,0,82,82,44,1,45,0,castilian,,,,,,,,,,,,,,,,,,,,,,,,,,,,,,,,,,,,,,,,,,,,,,,,,,,,,,,,
,,,,,,,,,67164c92298409e37c670b3d,Spanish,13 or older,"no, only English or Spanish",yes,2026-01-21_17h09.23.691,empathy_intonation_perc_control,2024.2.4,Win32,59.88023952,67164c92298409e37c670b3d,69712dc693a3960bdb483245,69714f7936fb382e28d16d38,,,,,,,,,,,,./stim/wavs/mexican_match_interrogative-total-yn_Emilio-ama-la-marcha.wav,1,,,213.4428,215.7481,1,1,1.7883,,0,83,83,15,1,16,0,mexican,,,,,,,,,,,,,,,,,,,,,,,,,,,,,,,,,,,,,,,,,,,,,,,,,,,,,,,,
,,,,,,,,,67164c92298409e37c670b3d,Spanish,13 or older,"no, only English or Spanish",yes,2026-01-21_17h09.23.691,empathy_intonation_perc_control,2024.2.4,Win32,59.88023952,67164c92298409e37c670b3d,69712dc693a3960bdb483245,69714f7936fb382e28d16d38,,,,,,,,,,,,./stim/wavs/castilian_match_interrogative-total-yn_Marta-abre-el-regalo.wav,1,,,215.7484,217.8897,1,1,1.6292,,0,84,84,5,1,6,0,castilian,,,,,,,,,,,,,,,,,,,,,,,,,,,,,,,,,,,,,,,,,,,,,,,,,,,,,,,,
,,,,,,,,,67164c92298409e37c670b3d,Spanish,13 or older,"no, only English or Spanish",yes,2026-01-21_17h09.23.691,empathy_intonation_perc_control,2024.2.4,Win32,59.88023952,67164c92298409e37c670b3d,69712dc693a3960bdb483245,69714f7936fb382e28d16d38,,,,,,,,,,,,./stim/wavs/mexican_mismatch_declarative-broad-focus_El-bebe-comia-muy-bien.wav,0,,,217.89,219.9382,0,1,1.5227,,0,85,85,78,1,79,0,mexican,,,,,,,,,,,,,,,,,,,,,,,,,,,,,,,,,,,,,,,,,,,,,,,,,,,,,,,,
,,,,,,,,,67164c92298409e37c670b3d,Spanish,13 or older,"no, only English or Spanish",yes,2026-01-21_17h09.23.691,empathy_intonation_perc_control,2024.2.4,Win32,59.88023952,67164c92298409e37c670b3d,69712dc693a3960bdb483245,69714f7936fb382e28d16d38,,,,,,,,,,,,./stim/wavs/castilian_mismatch_interrogative-total-yn_La-maestra-vive-en-Paris.wav,1,,,219.9385,222.3237,1,1,1.863,,0,86,86,24,1,25,0,castilian,,,,,,,,,,,,,,,,,,,,,,,,,,,,,,,,,,,,,,,,,,,,,,,,,,,,,,,,
,,,,,,,,,67164c92298409e37c670b3d,Spanish,13 or older,"no, only English or Spanish",yes,2026-01-21_17h09.23.691,empathy_intonation_perc_control,2024.2.4,Win32,59.88023952,67164c92298409e37c670b3d,69712dc693a3960bdb483245,69714f7936fb382e28d16d38,,,,,,,,,,,,./stim/wavs/puertorican_mismatch_declarative-broad-focus_La-maestra-vive-en-Paris.wav,0,,,222.324,224.4426,0,1,1.6041,,0,87,87,86,1,87,0,puertorican,,,,,,,,,,,,,,,,,,,,,,,,,,,,,,,,,,,,,,,,,,,,,,,,,,,,,,,,
,,,,,,,"Great! Now we will move on. The next task consists of about 60 trials, in each of which you will see a string of letters. 
  
  Your task is to decide whether this is a real Spanish word or not.", (press the spacebar to continue),67164c92298409e37c670b3d,Spanish,13 or older,"no, only English or Spanish",yes,2026-01-21_17h09.23.691,empathy_intonation_perc_control,2024.2.4,Win32,59.88023952,67164c92298409e37c670b3d,69712dc693a3960bdb483245,69714f7936fb382e28d16d38,,,,,,,,,,,,,,,,,,,,,,,,,,,,,,224.4456,230.3574,0,0,0,0,1,,,,,,,,,,,,,,,,,,,,,,,,,,,,,,,,,,,,,,,,,,,,,,,,,
,,,,,,,"If you think it is an existing Spanish word, you type '1' (for 'REAL'), and if you think it is not an existing Spanish word, you type '0' (for 'FAKE').", (press the spacebar to continue),67164c92298409e37c670b3d,Spanish,13 or older,"no, only English or Spanish",yes,2026-01-21_17h09.23.691,empathy_intonation_perc_control,2024.2.4,Win32,59.88023952,67164c92298409e37c670b3d,69712dc693a3960bdb483245,69714f7936fb382e28d16d38,,,,,,,,,,,,,,,,,,,,,,,,,,,,,,230.3585,233.5574,0,1,1,1,1,,,,,,,,,,,,,,,,,,,,,,,,,,,,,,,,,,,,,,,,,,,,,,,,,
,,,,,,,"If you are sure that the word exists, even though you don’t know its exact meaning, you may still respond '1' (REAL). 
  
  But if you are not sure if it is an existing word, you should respond '0' (FAKE).
  
  Let's do a practice round...", (press the spacebar to continue),67164c92298409e37c670b3d,Spanish,13 or older,"no, only English or Spanish",yes,2026-01-21_17h09.23.691,empathy_intonation_perc_control,2024.2.4,Win32,59.88023952,67164c92298409e37c670b3d,69712dc693a3960bdb483245,69714f7936fb382e28d16d38,,,,,,,,,,,,,,,,,,,,,,,,,,,,,,233.5583,240.906,0,2,2,2,1,,,,,,,,,,,,,,,,,,,,,,,,,,,,,,,,,,,,,,,,,,,,,,,,,
,,,,,,,,,67164c92298409e37c670b3d,Spanish,13 or older,"no, only English or Spanish",yes,2026-01-21_17h09.23.691,empathy_intonation_perc_control,2024.2.4,Win32,59.88023952,67164c92298409e37c670b3d,69712dc693a3960bdb483245,69714f7936fb382e28d16d38,,,,,,,,,,,,,0,,,,,,,,,,,,,,,,,,,,,,,,240.9084,242.6808,0,1,1.2411,,242.6808,243.6833,0,0,0,0,1,0,depiste,REAL,FAKE,,,,,,,,,,,,,,,,,,,,,,,,,,,,,,,,
,,,,,,,,,67164c92298409e37c670b3d,Spanish,13 or older,"no, only English or Spanish",yes,2026-01-21_17h09.23.691,empathy_intonation_perc_control,2024.2.4,Win32,59.88023952,67164c92298409e37c670b3d,69712dc693a3960bdb483245,69714f7936fb382e28d16d38,,,,,,,,,,,,,1,,,,,,,,,,,,,,,,,,,,,,,,243.6839,244.9484,1,1,0.7388,,244.9484,245.9394,0,1,1,1,1,0,sí,REAL,FAKE,,,,,,,,,,,,,,,,,,,,,,,,,,,,,,,,
,,,,,,,,,67164c92298409e37c670b3d,Spanish,13 or older,"no, only English or Spanish",yes,2026-01-21_17h09.23.691,empathy_intonation_perc_control,2024.2.4,Win32,59.88023952,67164c92298409e37c670b3d,69712dc693a3960bdb483245,69714f7936fb382e28d16d38,,,,,,,,,,,,,0,,,,,,,,,,,,,,,,,,,,,,,,245.94,247.4181,0,1,0.9562,,247.4181,248.4203,0,2,2,2,1,0,coné,REAL,FAKE,,,,,,,,,,,,,,,,,,,,,,,,,,,,,,,,
,,,,,,,,,67164c92298409e37c670b3d,Spanish,13 or older,"no, only English or Spanish",yes,2026-01-21_17h09.23.691,empathy_intonation_perc_control,2024.2.4,Win32,59.88023952,67164c92298409e37c670b3d,69712dc693a3960bdb483245,69714f7936fb382e28d16d38,,,,,,,,,,,,,0,,,,,,,,,,,,,,,,,,,,,,,,248.4209,249.7881,0,1,0.8471,,249.7881,250.7766,0,3,3,3,1,0,calpar,REAL,FAKE,,,,,,,,,,,,,,,,,,,,,,,,,,,,,,,,
,,,,,,,,,67164c92298409e37c670b3d,Spanish,13 or older,"no, only English or Spanish",yes,2026-01-21_17h09.23.691,empathy_intonation_perc_control,2024.2.4,Win32,59.88023952,67164c92298409e37c670b3d,69712dc693a3960bdb483245,69714f7936fb382e28d16d38,,,,,,,,,,,,,0,,,,,,,,,,,,,,,,,,,,,,,,250.7773,252.2218,0,1,0.9242,,252.2218,253.2124,0,4,4,4,1,0,joten,REAL,FAKE,,,,,,,,,,,,,,,,,,,,,,,,,,,,,,,,
,,,,,,,,,67164c92298409e37c670b3d,Spanish,13 or older,"no, only English or Spanish",yes,2026-01-21_17h09.23.691,empathy_intonation_perc_control,2024.2.4,Win32,59.88023952,67164c92298409e37c670b3d,69712dc693a3960bdb483245,69714f7936fb382e28d16d38,,,,,,,,,,,,,1,,,,,,,,,,,,,,,,,,,,,,,,253.2129,254.4639,0,0,0.7262,,254.4647,255.4518,0,5,5,5,1,0,sacapuntas,REAL,FAKE,,,,,,,,,,,,,,,,,,,,,,,,,,,,,,,,
,,,,,,,,,67164c92298409e37c670b3d,Spanish,13 or older,"no, only English or Spanish",yes,2026-01-21_17h09.23.691,empathy_intonation_perc_control,2024.2.4,Win32,59.88023952,67164c92298409e37c670b3d,69712dc693a3960bdb483245,69714f7936fb382e28d16d38,,,,,,,,,,,,,0,,,,,,,,,,,,,,,,,,,,,,,,255.4526,256.7371,0,1,0.7635,,256.7374,257.741,0,6,6,6,1,0,priba,REAL,FAKE,,,,,,,,,,,,,,,,,,,,,,,,,,,,,,,,
,,,,,,,,,67164c92298409e37c670b3d,Spanish,13 or older,"no, only English or Spanish",yes,2026-01-21_17h09.23.691,empathy_intonation_perc_control,2024.2.4,Win32,59.88023952,67164c92298409e37c670b3d,69712dc693a3960bdb483245,69714f7936fb382e28d16d38,,,,,,,,,,,,,0,,,,,,,,,,,,,,,,,,,,,,,,257.7415,259.2668,1,0,1.0042,,259.2672,260.2568,0,7,7,7,1,0,pelasula,REAL,FAKE,,,,,,,,,,,,,,,,,,,,,,,,,,,,,,,,
,,,,,,,,,67164c92298409e37c670b3d,Spanish,13 or older,"no, only English or Spanish",yes,2026-01-21_17h09.23.691,empathy_intonation_perc_control,2024.2.4,Win32,59.88023952,67164c92298409e37c670b3d,69712dc693a3960bdb483245,69714f7936fb382e28d16d38,,,,,,,,,,,,,1,,,,,,,,,,,,,,,,,,,,,,,,260.2572,261.3839,1,1,0.6098,,261.3842,262.3832,0,8,8,8,1,0,bien,REAL,FAKE,,,,,,,,,,,,,,,,,,,,,,,,,,,,,,,,
,,,,,,,,,67164c92298409e37c670b3d,Spanish,13 or older,"no, only English or Spanish",yes,2026-01-21_17h09.23.691,empathy_intonation_perc_control,2024.2.4,Win32,59.88023952,67164c92298409e37c670b3d,69712dc693a3960bdb483245,69714f7936fb382e28d16d38,,,,,,,,,,,,,1,,,,,,,,,,,,,,,,,,,,,,,,262.3838,263.4126,1,1,0.5153,,263.4126,264.4149,0,9,9,9,1,0,casa,REAL,FAKE,,,,,,,,,,,,,,,,,,,,,,,,,,,,,,,,
,,,,,,,,,67164c92298409e37c670b3d,Spanish,13 or older,"no, only English or Spanish",yes,2026-01-21_17h09.23.691,empathy_intonation_perc_control,2024.2.4,Win32,59.88023952,67164c92298409e37c670b3d,69712dc693a3960bdb483245,69714f7936fb382e28d16d38,,,,,,,,,,,,,0,,,,,,,,,,,,,,,,,,,,,,,,264.4154,265.7381,0,1,0.806,,265.7381,266.7415,0,10,10,10,1,0,lejo,REAL,FAKE,,,,,,,,,,,,,,,,,,,,,,,,,,,,,,,,
,,,,,,,,,67164c92298409e37c670b3d,Spanish,13 or older,"no, only English or Spanish",yes,2026-01-21_17h09.23.691,empathy_intonation_perc_control,2024.2.4,Win32,59.88023952,67164c92298409e37c670b3d,69712dc693a3960bdb483245,69714f7936fb382e28d16d38,,,,,,,,,,,,,0,,,,,,,,,,,,,,,,,,,,,,,,266.7419,268.4155,0,1,1.1548,,268.4155,269.4129,0,11,11,11,1,0,pretantas,REAL,FAKE,,,,,,,,,,,,,,,,,,,,,,,,,,,,,,,,
,,,,,,,,,67164c92298409e37c670b3d,Spanish,13 or older,"no, only English or Spanish",yes,2026-01-21_17h09.23.691,empathy_intonation_perc_control,2024.2.4,Win32,59.88023952,67164c92298409e37c670b3d,69712dc693a3960bdb483245,69714f7936fb382e28d16d38,,,,,,,,,,,,,,,,,,,,,,,,,,,,,,,,,,,,,,,,,,,,,,,,,,,,,,269.4131,270.2907,,,,,,,,,,,,,,,,,,,,,,,,,,,,,,
,,,,,,,,,67164c92298409e37c670b3d,Spanish,13 or older,"no, only English or Spanish",yes,2026-01-21_17h09.23.691,empathy_intonation_perc_control,2024.2.4,Win32,59.88023952,67164c92298409e37c670b3d,69712dc693a3960bdb483245,69714f7936fb382e28d16d38,,,,,,,,,,,,,0,,,,,,,,,,,,,,,,,,,,,,,,,,,,,,,,,,,,,16,abracer,,,,,270.295,271.4653,0,1,0.6533,,0,0,0,15,1,REAL,FAKE,,,,,,,,,,,,,,,,,
,,,,,,,,,67164c92298409e37c670b3d,Spanish,13 or older,"no, only English or Spanish",yes,2026-01-21_17h09.23.691,empathy_intonation_perc_control,2024.2.4,Win32,59.88023952,67164c92298409e37c670b3d,69712dc693a3960bdb483245,69714f7936fb382e28d16d38,,,,,,,,,,,,,1,,,,,,,,,,,,,,,,,,,,,,,,,,,,,,,,,,,,,48,ladrón,,,,,271.4659,272.6965,0,0,0.7147,,0,1,1,47,1,REAL,FAKE,,,,,,,,,,,,,,,,,
,,,,,,,,,67164c92298409e37c670b3d,Spanish,13 or older,"no, only English or Spanish",yes,2026-01-21_17h09.23.691,empathy_intonation_perc_control,2024.2.4,Win32,59.88023952,67164c92298409e37c670b3d,69712dc693a3960bdb483245,69714f7936fb382e28d16d38,,,,,,,,,,,,,1,,,,,,,,,,,,,,,,,,,,,,,,,,,,,,,,,,,,,65,bizcocho,,,,,272.6971,273.8679,0,0,0.6515,,0,2,2,64,1,REAL,FAKE,,,,,,,,,,,,,,,,,
,,,,,,,,,67164c92298409e37c670b3d,Spanish,13 or older,"no, only English or Spanish",yes,2026-01-21_17h09.23.691,empathy_intonation_perc_control,2024.2.4,Win32,59.88023952,67164c92298409e37c670b3d,69712dc693a3960bdb483245,69714f7936fb382e28d16d38,,,,,,,,,,,,,1,,,,,,,,,,,,,,,,,,,,,,,,,,,,,,,,,,,,,76,atar,,,,,273.8684,275.2106,0,0,0.8241,,0,3,3,75,1,REAL,FAKE,,,,,,,,,,,,,,,,,
,,,,,,,,,67164c92298409e37c670b3d,Spanish,13 or older,"no, only English or Spanish",yes,2026-01-21_17h09.23.691,empathy_intonation_perc_control,2024.2.4,Win32,59.88023952,67164c92298409e37c670b3d,69712dc693a3960bdb483245,69714f7936fb382e28d16d38,,,,,,,,,,,,,0,,,,,,,,,,,,,,,,,,,,,,,,,,,,,,,,,,,,,47,cartinar,,,,,275.2111,276.831,1,0,1.1025,,0,4,4,46,1,REAL,FAKE,,,,,,,,,,,,,,,,,
,,,,,,,,,67164c92298409e37c670b3d,Spanish,13 or older,"no, only English or Spanish",yes,2026-01-21_17h09.23.691,empathy_intonation_perc_control,2024.2.4,Win32,59.88023952,67164c92298409e37c670b3d,69712dc693a3960bdb483245,69714f7936fb382e28d16d38,,,,,,,,,,,,,0,,,,,,,,,,,,,,,,,,,,,,,,,,,,,,,,,,,,,50,flamida,,,,,276.8318,278.4131,0,1,1.0697,,0,5,5,49,1,REAL,FAKE,,,,,,,,,,,,,,,,,
,,,,,,,,,67164c92298409e37c670b3d,Spanish,13 or older,"no, only English or Spanish",yes,2026-01-21_17h09.23.691,empathy_intonation_perc_control,2024.2.4,Win32,59.88023952,67164c92298409e37c670b3d,69712dc693a3960bdb483245,69714f7936fb382e28d16d38,,,,,,,,,,,,,1,,,,,,,,,,,,,,,,,,,,,,,,,,,,,,,,,,,,,2,pellizcar,,,,,278.4136,280.269,0,0,1.3372,,0,6,6,1,1,REAL,FAKE,,,,,,,,,,,,,,,,,
,,,,,,,,,67164c92298409e37c670b3d,Spanish,13 or older,"no, only English or Spanish",yes,2026-01-21_17h09.23.691,empathy_intonation_perc_control,2024.2.4,Win32,59.88023952,67164c92298409e37c670b3d,69712dc693a3960bdb483245,69714f7936fb382e28d16d38,,,,,,,,,,,,,0,,,,,,,,,,,,,,,,,,,,,,,,,,,,,,,,,,,,,32,fatacidad,,,,,280.2696,282.3456,1,0,1.5595,,0,7,7,31,1,REAL,FAKE,,,,,,,,,,,,,,,,,
,,,,,,,,,67164c92298409e37c670b3d,Spanish,13 or older,"no, only English or Spanish",yes,2026-01-21_17h09.23.691,empathy_intonation_perc_control,2024.2.4,Win32,59.88023952,67164c92298409e37c670b3d,69712dc693a3960bdb483245,69714f7936fb382e28d16d38,,,,,,,,,,,,,1,,,,,,,,,,,,,,,,,,,,,,,,,,,,,,,,,,,,,64,orgulloso,,,,,282.3464,283.662,0,0,0.7955,,0,8,8,63,1,REAL,FAKE,,,,,,,,,,,,,,,,,
,,,,,,,,,67164c92298409e37c670b3d,Spanish,13 or older,"no, only English or Spanish",yes,2026-01-21_17h09.23.691,empathy_intonation_perc_control,2024.2.4,Win32,59.88023952,67164c92298409e37c670b3d,69712dc693a3960bdb483245,69714f7936fb382e28d16d38,,,,,,,,,,,,,1,,,,,,,,,,,,,,,,,,,,,,,,,,,,,,,,,,,,,41,rebuscar,,,,,283.6624,284.9281,0,0,0.7382,,0,9,9,40,1,REAL,FAKE,,,,,,,,,,,,,,,,,
,,,,,,,,,67164c92298409e37c670b3d,Spanish,13 or older,"no, only English or Spanish",yes,2026-01-21_17h09.23.691,empathy_intonation_perc_control,2024.2.4,Win32,59.88023952,67164c92298409e37c670b3d,69712dc693a3960bdb483245,69714f7936fb382e28d16d38,,,,,,,,,,,,,1,,,,,,,,,,,,,,,,,,,,,,,,,,,,,,,,,,,,,67,cabello,,,,,284.9285,286.1651,1,1,0.7183,,0,10,10,66,1,REAL,FAKE,,,,,,,,,,,,,,,,,
,,,,,,,,,67164c92298409e37c670b3d,Spanish,13 or older,"no, only English or Spanish",yes,2026-01-21_17h09.23.691,empathy_intonation_perc_control,2024.2.4,Win32,59.88023952,67164c92298409e37c670b3d,69712dc693a3960bdb483245,69714f7936fb382e28d16d38,,,,,,,,,,,,,0,,,,,,,,,,,,,,,,,,,,,,,,,,,,,,,,,,,,,23,lampera,,,,,286.1656,287.4188,1,0,0.7353,,0,11,11,22,1,REAL,FAKE,,,,,,,,,,,,,,,,,
,,,,,,,,,67164c92298409e37c670b3d,Spanish,13 or older,"no, only English or Spanish",yes,2026-01-21_17h09.23.691,empathy_intonation_perc_control,2024.2.4,Win32,59.88023952,67164c92298409e37c670b3d,69712dc693a3960bdb483245,69714f7936fb382e28d16d38,,,,,,,,,,,,,1,,,,,,,,,,,,,,,,,,,,,,,,,,,,,,,,,,,,,31,pandilla,,,,,287.4195,288.9022,1,1,0.9638,,0,12,12,30,1,REAL,FAKE,,,,,,,,,,,,,,,,,
,,,,,,,,,67164c92298409e37c670b3d,Spanish,13 or older,"no, only English or Spanish",yes,2026-01-21_17h09.23.691,empathy_intonation_perc_control,2024.2.4,Win32,59.88023952,67164c92298409e37c670b3d,69712dc693a3960bdb483245,69714f7936fb382e28d16d38,,,,,,,,,,,,,1,,,,,,,,,,,,,,,,,,,,,,,,,,,,,,,,,,,,,40,alfombra,,,,,288.9028,290.2306,0,0,0.8121,,0,13,13,39,1,REAL,FAKE,,,,,,,,,,,,,,,,,
,,,,,,,,,67164c92298409e37c670b3d,Spanish,13 or older,"no, only English or Spanish",yes,2026-01-21_17h09.23.691,empathy_intonation_perc_control,2024.2.4,Win32,59.88023952,67164c92298409e37c670b3d,69712dc693a3960bdb483245,69714f7936fb382e28d16d38,,,,,,,,,,,,,1,,,,,,,,,,,,,,,,,,,,,,,,,,,,,,,,,,,,,60,matar,,,,,290.231,291.5246,0,0,0.774,,0,14,14,59,1,REAL,FAKE,,,,,,,,,,,,,,,,,
,,,,,,,,,67164c92298409e37c670b3d,Spanish,13 or older,"no, only English or Spanish",yes,2026-01-21_17h09.23.691,empathy_intonation_perc_control,2024.2.4,Win32,59.88023952,67164c92298409e37c670b3d,69712dc693a3960bdb483245,69714f7936fb382e28d16d38,,,,,,,,,,,,,1,,,,,,,,,,,,,,,,,,,,,,,,,,,,,,,,,,,,,88,acantilado,,,,,291.525,292.6745,0,0,0.6256,,0,15,15,87,1,REAL,FAKE,,,,,,,,,,,,,,,,,
,,,,,,,,,67164c92298409e37c670b3d,Spanish,13 or older,"no, only English or Spanish",yes,2026-01-21_17h09.23.691,empathy_intonation_perc_control,2024.2.4,Win32,59.88023952,67164c92298409e37c670b3d,69712dc693a3960bdb483245,69714f7936fb382e28d16d38,,,,,,,,,,,,,0,,,,,,,,,,,,,,,,,,,,,,,,,,,,,,,,,,,,,82,empirador,,,,,292.675,294.0601,0,1,0.8584,,0,16,16,81,1,REAL,FAKE,,,,,,,,,,,,,,,,,
,,,,,,,,,67164c92298409e37c670b3d,Spanish,13 or older,"no, only English or Spanish",yes,2026-01-21_17h09.23.691,empathy_intonation_perc_control,2024.2.4,Win32,59.88023952,67164c92298409e37c670b3d,69712dc693a3960bdb483245,69714f7936fb382e28d16d38,,,,,,,,,,,,,0,,,,,,,,,,,,,,,,,,,,,,,,,,,,,,,,,,,,,58,plaudir,,,,,294.0607,295.2032,0,1,0.6222,,0,17,17,57,1,REAL,FAKE,,,,,,,,,,,,,,,,,
,,,,,,,,,67164c92298409e37c670b3d,Spanish,13 or older,"no, only English or Spanish",yes,2026-01-21_17h09.23.691,empathy_intonation_perc_control,2024.2.4,Win32,59.88023952,67164c92298409e37c670b3d,69712dc693a3960bdb483245,69714f7936fb382e28d16d38,,,,,,,,,,,,,1,,,,,,,,,,,,,,,,,,,,,,,,,,,,,,,,,,,,,9,hacha,,,,,295.2036,296.856,0,0,1.1338,,0,18,18,8,1,REAL,FAKE,,,,,,,,,,,,,,,,,
,,,,,,,,,67164c92298409e37c670b3d,Spanish,13 or older,"no, only English or Spanish",yes,2026-01-21_17h09.23.691,empathy_intonation_perc_control,2024.2.4,Win32,59.88023952,67164c92298409e37c670b3d,69712dc693a3960bdb483245,69714f7936fb382e28d16d38,,,,,,,,,,,,,1,,,,,,,,,,,,,,,,,,,,,,,,,,,,,,,,,,,,,36,loro,,,,,296.8564,298.7374,0,0,1.3671,,0,19,19,35,1,REAL,FAKE,,,,,,,,,,,,,,,,,
,,,,,,,,,67164c92298409e37c670b3d,Spanish,13 or older,"no, only English or Spanish",yes,2026-01-21_17h09.23.691,empathy_intonation_perc_control,2024.2.4,Win32,59.88023952,67164c92298409e37c670b3d,69712dc693a3960bdb483245,69714f7936fb382e28d16d38,,,,,,,,,,,,,1,,,,,,,,,,,,,,,,,,,,,,,,,,,,,,,,,,,,,68,alegre,,,,,298.7377,300.0969,1,1,0.8419,,0,20,20,67,1,REAL,FAKE,,,,,,,,,,,,,,,,,
,,,,,,,,,67164c92298409e37c670b3d,Spanish,13 or older,"no, only English or Spanish",yes,2026-01-21_17h09.23.691,empathy_intonation_perc_control,2024.2.4,Win32,59.88023952,67164c92298409e37c670b3d,69712dc693a3960bdb483245,69714f7936fb382e28d16d38,,,,,,,,,,,,,1,,,,,,,,,,,,,,,,,,,,,,,,,,,,,,,,,,,,,39,torpe,,,,,300.0975,301.9571,1,1,1.3452,,0,21,21,38,1,REAL,FAKE,,,,,,,,,,,,,,,,,
,,,,,,,,,67164c92298409e37c670b3d,Spanish,13 or older,"no, only English or Spanish",yes,2026-01-21_17h09.23.691,empathy_intonation_perc_control,2024.2.4,Win32,59.88023952,67164c92298409e37c670b3d,69712dc693a3960bdb483245,69714f7936fb382e28d16d38,,,,,,,,,,,,,1,,,,,,,,,,,,,,,,,,,,,,,,,,,,,,,,,,,,,12,asesinato,,,,,301.9576,303.6221,1,1,1.1474,,0,22,22,11,1,REAL,FAKE,,,,,,,,,,,,,,,,,
,,,,,,,,,67164c92298409e37c670b3d,Spanish,13 or older,"no, only English or Spanish",yes,2026-01-21_17h09.23.691,empathy_intonation_perc_control,2024.2.4,Win32,59.88023952,67164c92298409e37c670b3d,69712dc693a3960bdb483245,69714f7936fb382e28d16d38,,,,,,,,,,,,,0,,,,,,,,,,,,,,,,,,,,,,,,,,,,,,,,,,,,,19,brecedad,,,,,303.6226,304.8102,0,1,0.6717,,0,23,23,18,1,REAL,FAKE,,,,,,,,,,,,,,,,,
,,,,,,,,,67164c92298409e37c670b3d,Spanish,13 or older,"no, only English or Spanish",yes,2026-01-21_17h09.23.691,empathy_intonation_perc_control,2024.2.4,Win32,59.88023952,67164c92298409e37c670b3d,69712dc693a3960bdb483245,69714f7936fb382e28d16d38,,,,,,,,,,,,,1,,,,,,,,,,,,,,,,,,,,,,,,,,,,,,,,,,,,,45,jilguero,,,,,304.8109,306.0324,0,0,0.7031,,0,24,24,44,1,REAL,FAKE,,,,,,,,,,,,,,,,,
,,,,,,,,,67164c92298409e37c670b3d,Spanish,13 or older,"no, only English or Spanish",yes,2026-01-21_17h09.23.691,empathy_intonation_perc_control,2024.2.4,Win32,59.88023952,67164c92298409e37c670b3d,69712dc693a3960bdb483245,69714f7936fb382e28d16d38,,,,,,,,,,,,,0,,,,,,,,,,,,,,,,,,,,,,,,,,,,,,,,,,,,,70,temblo,,,,,306.0328,308.2262,0,1,1.6776,,0,25,25,69,1,REAL,FAKE,,,,,,,,,,,,,,,,,
,,,,,,,,,67164c92298409e37c670b3d,Spanish,13 or older,"no, only English or Spanish",yes,2026-01-21_17h09.23.691,empathy_intonation_perc_control,2024.2.4,Win32,59.88023952,67164c92298409e37c670b3d,69712dc693a3960bdb483245,69714f7936fb382e28d16d38,,,,,,,,,,,,,1,,,,,,,,,,,,,,,,,,,,,,,,,,,,,,,,,,,,,49,ganar,,,,,308.2267,309.5668,0,0,0.823,,0,26,26,48,1,REAL,FAKE,,,,,,,,,,,,,,,,,
,,,,,,,,,67164c92298409e37c670b3d,Spanish,13 or older,"no, only English or Spanish",yes,2026-01-21_17h09.23.691,empathy_intonation_perc_control,2024.2.4,Win32,59.88023952,67164c92298409e37c670b3d,69712dc693a3960bdb483245,69714f7936fb382e28d16d38,,,,,,,,,,,,,1,,,,,,,,,,,,,,,,,,,,,,,,,,,,,,,,,,,,,62,flaco,,,,,309.5672,310.961,1,1,0.8708,,0,27,27,61,1,REAL,FAKE,,,,,,,,,,,,,,,,,
,,,,,,,,,67164c92298409e37c670b3d,Spanish,13 or older,"no, only English or Spanish",yes,2026-01-21_17h09.23.691,empathy_intonation_perc_control,2024.2.4,Win32,59.88023952,67164c92298409e37c670b3d,69712dc693a3960bdb483245,69714f7936fb382e28d16d38,,,,,,,,,,,,,0,,,,,,,,,,,,,,,,,,,,,,,,,,,,,,,,,,,,,66,hacido,,,,,310.9615,312.1512,1,0,0.6759,,0,28,28,65,1,REAL,FAKE,,,,,,,,,,,,,,,,,
,,,,,,,,,67164c92298409e37c670b3d,Spanish,13 or older,"no, only English or Spanish",yes,2026-01-21_17h09.23.691,empathy_intonation_perc_control,2024.2.4,Win32,59.88023952,67164c92298409e37c670b3d,69712dc693a3960bdb483245,69714f7936fb382e28d16d38,,,,,,,,,,,,,0,,,,,,,,,,,,,,,,,,,,,,,,,,,,,,,,,,,,,17,floroso,,,,,312.1516,313.3264,0,1,0.6572,,0,29,29,16,1,REAL,FAKE,,,,,,,,,,,,,,,,,
,,,,,,,,,67164c92298409e37c670b3d,Spanish,13 or older,"no, only English or Spanish",yes,2026-01-21_17h09.23.691,empathy_intonation_perc_control,2024.2.4,Win32,59.88023952,67164c92298409e37c670b3d,69712dc693a3960bdb483245,69714f7936fb382e28d16d38,,,,,,,,,,,,,0,,,,,,,,,,,,,,,,,,,,,,,,,,,,,,,,,,,,,53,vegada,,,,,313.327,314.6377,0,1,0.7939,,0,30,30,52,1,REAL,FAKE,,,,,,,,,,,,,,,,,
,,,,,,,,,67164c92298409e37c670b3d,Spanish,13 or older,"no, only English or Spanish",yes,2026-01-21_17h09.23.691,empathy_intonation_perc_control,2024.2.4,Win32,59.88023952,67164c92298409e37c670b3d,69712dc693a3960bdb483245,69714f7936fb382e28d16d38,,,,,,,,,,,,,0,,,,,,,,,,,,,,,,,,,,,,,,,,,,,,,,,,,,,33,pauca,,,,,314.6381,315.8119,0,1,0.6537,,0,31,31,32,1,REAL,FAKE,,,,,,,,,,,,,,,,,
,,,,,,,,,67164c92298409e37c670b3d,Spanish,13 or older,"no, only English or Spanish",yes,2026-01-21_17h09.23.691,empathy_intonation_perc_control,2024.2.4,Win32,59.88023952,67164c92298409e37c670b3d,69712dc693a3960bdb483245,69714f7936fb382e28d16d38,,,,,,,,,,,,,0,,,,,,,,,,,,,,,,,,,,,,,,,,,,,,,,,,,,,42,cadallo,,,,,315.8124,318.3138,1,0,1.9828,,0,32,32,41,1,REAL,FAKE,,,,,,,,,,,,,,,,,
,,,,,,,,,67164c92298409e37c670b3d,Spanish,13 or older,"no, only English or Spanish",yes,2026-01-21_17h09.23.691,empathy_intonation_perc_control,2024.2.4,Win32,59.88023952,67164c92298409e37c670b3d,69712dc693a3960bdb483245,69714f7936fb382e28d16d38,,,,,,,,,,,,,1,,,,,,,,,,,,,,,,,,,,,,,,,,,,,,,,,,,,,77,tiburón,,,,,318.3142,320.0172,0,0,1.1866,,0,33,33,76,1,REAL,FAKE,,,,,,,,,,,,,,,,,
,,,,,,,,,67164c92298409e37c670b3d,Spanish,13 or older,"no, only English or Spanish",yes,2026-01-21_17h09.23.691,empathy_intonation_perc_control,2024.2.4,Win32,59.88023952,67164c92298409e37c670b3d,69712dc693a3960bdb483245,69714f7936fb382e28d16d38,,,,,,,,,,,,,0,,,,,,,,,,,,,,,,,,,,,,,,,,,,,,,,,,,,,18,arsa,,,,,320.0176,322.2896,1,0,1.7547,,0,34,34,17,1,REAL,FAKE,,,,,,,,,,,,,,,,,
,,,,,,,,,67164c92298409e37c670b3d,Spanish,13 or older,"no, only English or Spanish",yes,2026-01-21_17h09.23.691,empathy_intonation_perc_control,2024.2.4,Win32,59.88023952,67164c92298409e37c670b3d,69712dc693a3960bdb483245,69714f7936fb382e28d16d38,,,,,,,,,,,,,0,,,,,,,,,,,,,,,,,,,,,,,,,,,,,,,,,,,,,84,escuto,,,,,322.29,323.9583,1,0,1.1503,,0,35,35,83,1,REAL,FAKE,,,,,,,,,,,,,,,,,
,,,,,,,,,67164c92298409e37c670b3d,Spanish,13 or older,"no, only English or Spanish",yes,2026-01-21_17h09.23.691,empathy_intonation_perc_control,2024.2.4,Win32,59.88023952,67164c92298409e37c670b3d,69712dc693a3960bdb483245,69714f7936fb382e28d16d38,,,,,,,,,,,,,1,,,,,,,,,,,,,,,,,,,,,,,,,,,,,,,,,,,,,51,candado,,,,,323.9588,326.4956,1,1,2.0191,,0,36,36,50,1,REAL,FAKE,,,,,,,,,,,,,,,,,
,,,,,,,,,67164c92298409e37c670b3d,Spanish,13 or older,"no, only English or Spanish",yes,2026-01-21_17h09.23.691,empathy_intonation_perc_control,2024.2.4,Win32,59.88023952,67164c92298409e37c670b3d,69712dc693a3960bdb483245,69714f7936fb382e28d16d38,,,,,,,,,,,,,1,,,,,,,,,,,,,,,,,,,,,,,,,,,,,,,,,,,,,83,guante,,,,,326.4961,327.9629,0,0,0.95,,0,37,37,82,1,REAL,FAKE,,,,,,,,,,,,,,,,,
,,,,,,,,,67164c92298409e37c670b3d,Spanish,13 or older,"no, only English or Spanish",yes,2026-01-21_17h09.23.691,empathy_intonation_perc_control,2024.2.4,Win32,59.88023952,67164c92298409e37c670b3d,69712dc693a3960bdb483245,69714f7936fb382e28d16d38,,,,,,,,,,,,,1,,,,,,,,,,,,,,,,,,,,,,,,,,,,,,,,,,,,,5,zapato,,,,,327.9634,329.4212,1,1,0.9404,,0,38,38,4,1,REAL,FAKE,,,,,,,,,,,,,,,,,
,,,,,,,,,67164c92298409e37c670b3d,Spanish,13 or older,"no, only English or Spanish",yes,2026-01-21_17h09.23.691,empathy_intonation_perc_control,2024.2.4,Win32,59.88023952,67164c92298409e37c670b3d,69712dc693a3960bdb483245,69714f7936fb382e28d16d38,,,,,,,,,,,,,1,,,,,,,,,,,,,,,,,,,,,,,,,,,,,,,,,,,,,54,fomentar,,,,,329.4217,330.7341,0,0,0.795,,0,39,39,53,1,REAL,FAKE,,,,,,,,,,,,,,,,,
,,,,,,,,,67164c92298409e37c670b3d,Spanish,13 or older,"no, only English or Spanish",yes,2026-01-21_17h09.23.691,empathy_intonation_perc_control,2024.2.4,Win32,59.88023952,67164c92298409e37c670b3d,69712dc693a3960bdb483245,69714f7936fb382e28d16d38,,,,,,,,,,,,,1,,,,,,,,,,,,,,,,,,,,,,,,,,,,,,,,,,,,,81,pozo,,,,,330.7345,332.0258,0,0,0.7749,,0,40,40,80,1,REAL,FAKE,,,,,,,,,,,,,,,,,
,,,,,,,,,67164c92298409e37c670b3d,Spanish,13 or older,"no, only English or Spanish",yes,2026-01-21_17h09.23.691,empathy_intonation_perc_control,2024.2.4,Win32,59.88023952,67164c92298409e37c670b3d,69712dc693a3960bdb483245,69714f7936fb382e28d16d38,,,,,,,,,,,,,0,,,,,,,,,,,,,,,,,,,,,,,,,,,,,,,,,,,,,79,tropaje,,,,,332.0262,333.1447,0,1,0.5974,,0,41,41,78,1,REAL,FAKE,,,,,,,,,,,,,,,,,
,,,,,,,,,67164c92298409e37c670b3d,Spanish,13 or older,"no, only English or Spanish",yes,2026-01-21_17h09.23.691,empathy_intonation_perc_control,2024.2.4,Win32,59.88023952,67164c92298409e37c670b3d,69712dc693a3960bdb483245,69714f7936fb382e28d16d38,,,,,,,,,,,,,1,,,,,,,,,,,,,,,,,,,,,,,,,,,,,,,,,,,,,55,nevar,,,,,333.1453,334.7193,1,1,1.0563,,0,42,42,54,1,REAL,FAKE,,,,,,,,,,,,,,,,,
,,,,,,,,,67164c92298409e37c670b3d,Spanish,13 or older,"no, only English or Spanish",yes,2026-01-21_17h09.23.691,empathy_intonation_perc_control,2024.2.4,Win32,59.88023952,67164c92298409e37c670b3d,69712dc693a3960bdb483245,69714f7936fb382e28d16d38,,,,,,,,,,,,,0,,,,,,,,,,,,,,,,,,,,,,,,,,,,,,,,,,,,,4,batillón,,,,,334.72,336.1229,1,0,0.8765,,0,43,43,3,1,REAL,FAKE,,,,,,,,,,,,,,,,,
,,,,,,,,,67164c92298409e37c670b3d,Spanish,13 or older,"no, only English or Spanish",yes,2026-01-21_17h09.23.691,empathy_intonation_perc_control,2024.2.4,Win32,59.88023952,67164c92298409e37c670b3d,69712dc693a3960bdb483245,69714f7936fb382e28d16d38,,,,,,,,,,,,,0,,,,,,,,,,,,,,,,,,,,,,,,,,,,,,,,,,,,,72,pemición,,,,,336.1233,337.261,0,1,0.614,,0,44,44,71,1,REAL,FAKE,,,,,,,,,,,,,,,,,
,,,,,,,,,67164c92298409e37c670b3d,Spanish,13 or older,"no, only English or Spanish",yes,2026-01-21_17h09.23.691,empathy_intonation_perc_control,2024.2.4,Win32,59.88023952,67164c92298409e37c670b3d,69712dc693a3960bdb483245,69714f7936fb382e28d16d38,,,,,,,,,,,,,0,,,,,,,,,,,,,,,,,,,,,,,,,,,,,,,,,,,,,29,decar,,,,,337.2615,338.8816,0,1,1.1026,,0,45,45,28,1,REAL,FAKE,,,,,,,,,,,,,,,,,
,,,,,,,,,67164c92298409e37c670b3d,Spanish,13 or older,"no, only English or Spanish",yes,2026-01-21_17h09.23.691,empathy_intonation_perc_control,2024.2.4,Win32,59.88023952,67164c92298409e37c670b3d,69712dc693a3960bdb483245,69714f7936fb382e28d16d38,,,,,,,,,,,,,1,,,,,,,,,,,,,,,,,,,,,,,,,,,,,,,,,,,,,89,prisa,,,,,338.8819,340.157,0,0,0.7515,,0,46,46,88,1,REAL,FAKE,,,,,,,,,,,,,,,,,
,,,,,,,,,67164c92298409e37c670b3d,Spanish,13 or older,"no, only English or Spanish",yes,2026-01-21_17h09.23.691,empathy_intonation_perc_control,2024.2.4,Win32,59.88023952,67164c92298409e37c670b3d,69712dc693a3960bdb483245,69714f7936fb382e28d16d38,,,,,,,,,,,,,1,,,,,,,,,,,,,,,,,,,,,,,,,,,,,,,,,,,,,28,merodear,,,,,340.1573,341.2243,0,0,0.5496,,0,47,47,27,1,REAL,FAKE,,,,,,,,,,,,,,,,,
,,,,,,,,,67164c92298409e37c670b3d,Spanish,13 or older,"no, only English or Spanish",yes,2026-01-21_17h09.23.691,empathy_intonation_perc_control,2024.2.4,Win32,59.88023952,67164c92298409e37c670b3d,69712dc693a3960bdb483245,69714f7936fb382e28d16d38,,,,,,,,,,,,,0,,,,,,,,,,,,,,,,,,,,,,,,,,,,,,,,,,,,,74,cintro,,,,,341.2248,342.6854,1,0,0.9448,,0,48,48,73,1,REAL,FAKE,,,,,,,,,,,,,,,,,
,,,,,,,,,67164c92298409e37c670b3d,Spanish,13 or older,"no, only English or Spanish",yes,2026-01-21_17h09.23.691,empathy_intonation_perc_control,2024.2.4,Win32,59.88023952,67164c92298409e37c670b3d,69712dc693a3960bdb483245,69714f7936fb382e28d16d38,,,,,,,,,,,,,1,,,,,,,,,,,,,,,,,,,,,,,,,,,,,,,,,,,,,71,polvoriento,,,,,342.6859,343.803,0,0,0.5926,,0,49,49,70,1,REAL,FAKE,,,,,,,,,,,,,,,,,
,,,,,,,,,67164c92298409e37c670b3d,Spanish,13 or older,"no, only English or Spanish",yes,2026-01-21_17h09.23.691,empathy_intonation_perc_control,2024.2.4,Win32,59.88023952,67164c92298409e37c670b3d,69712dc693a3960bdb483245,69714f7936fb382e28d16d38,,,,,,,,,,,,,1,,,,,,,,,,,,,,,,,,,,,,,,,,,,,,,,,,,,,69,engatusar,,,,,343.8035,344.867,0,0,0.5448,,0,50,50,68,1,REAL,FAKE,,,,,,,,,,,,,,,,,
,,,,,,,,,67164c92298409e37c670b3d,Spanish,13 or older,"no, only English or Spanish",yes,2026-01-21_17h09.23.691,empathy_intonation_perc_control,2024.2.4,Win32,59.88023952,67164c92298409e37c670b3d,69712dc693a3960bdb483245,69714f7936fb382e28d16d38,,,,,,,,,,,,,1,,,,,,,,,,,,,,,,,,,,,,,,,,,,,,,,,,,,,46,martillo,,,,,344.8674,346.0409,0,0,0.6562,,0,51,51,45,1,REAL,FAKE,,,,,,,,,,,,,,,,,
,,,,,,,,,67164c92298409e37c670b3d,Spanish,13 or older,"no, only English or Spanish",yes,2026-01-21_17h09.23.691,empathy_intonation_perc_control,2024.2.4,Win32,59.88023952,67164c92298409e37c670b3d,69712dc693a3960bdb483245,69714f7936fb382e28d16d38,,,,,,,,,,,,,1,,,,,,,,,,,,,,,,,,,,,,,,,,,,,,,,,,,,,73,hervidor,,,,,346.0413,347.1183,0,0,0.5599,,0,52,52,72,1,REAL,FAKE,,,,,,,,,,,,,,,,,
,,,,,,,,,67164c92298409e37c670b3d,Spanish,13 or older,"no, only English or Spanish",yes,2026-01-21_17h09.23.691,empathy_intonation_perc_control,2024.2.4,Win32,59.88023952,67164c92298409e37c670b3d,69712dc693a3960bdb483245,69714f7936fb382e28d16d38,,,,,,,,,,,,,1,,,,,,,,,,,,,,,,,,,,,,,,,,,,,,,,,,,,,14,yunque,,,,,347.119,348.1075,0,0,0.4721,,0,53,53,13,1,REAL,FAKE,,,,,,,,,,,,,,,,,
,,,,,,,,,67164c92298409e37c670b3d,Spanish,13 or older,"no, only English or Spanish",yes,2026-01-21_17h09.23.691,empathy_intonation_perc_control,2024.2.4,Win32,59.88023952,67164c92298409e37c670b3d,69712dc693a3960bdb483245,69714f7936fb382e28d16d38,,,,,,,,,,,,,0,,,,,,,,,,,,,,,,,,,,,,,,,,,,,,,,,,,,,63,esposante,,,,,348.108,349.867,1,0,1.2424,,0,54,54,62,1,REAL,FAKE,,,,,,,,,,,,,,,,,
,,,,,,,,,67164c92298409e37c670b3d,Spanish,13 or older,"no, only English or Spanish",yes,2026-01-21_17h09.23.691,empathy_intonation_perc_control,2024.2.4,Win32,59.88023952,67164c92298409e37c670b3d,69712dc693a3960bdb483245,69714f7936fb382e28d16d38,,,,,,,,,,,,,0,,,,,,,,,,,,,,,,,,,,,,,,,,,,,,,,,,,,,21,capillo,,,,,349.8674,351.4254,1,0,1.0417,,0,55,55,20,1,REAL,FAKE,,,,,,,,,,,,,,,,,
,,,,,,,,,67164c92298409e37c670b3d,Spanish,13 or older,"no, only English or Spanish",yes,2026-01-21_17h09.23.691,empathy_intonation_perc_control,2024.2.4,Win32,59.88023952,67164c92298409e37c670b3d,69712dc693a3960bdb483245,69714f7936fb382e28d16d38,,,,,,,,,,,,,0,,,,,,,,,,,,,,,,,,,,,,,,,,,,,,,,,,,,,8,cadeña,,,,,351.426,352.7025,1,0,0.7601,,0,56,56,7,1,REAL,FAKE,,,,,,,,,,,,,,,,,
,,,,,,,,,67164c92298409e37c670b3d,Spanish,13 or older,"no, only English or Spanish",yes,2026-01-21_17h09.23.691,empathy_intonation_perc_control,2024.2.4,Win32,59.88023952,67164c92298409e37c670b3d,69712dc693a3960bdb483245,69714f7936fb382e28d16d38,,,,,,,,,,,,,1,,,,,,,,,,,,,,,,,,,,,,,,,,,,,,,,,,,,,80,hormiga,,,,,352.7033,353.9764,0,0,0.757,,0,57,57,79,1,REAL,FAKE,,,,,,,,,,,,,,,,,
,,,,,,,,,67164c92298409e37c670b3d,Spanish,13 or older,"no, only English or Spanish",yes,2026-01-21_17h09.23.691,empathy_intonation_perc_control,2024.2.4,Win32,59.88023952,67164c92298409e37c670b3d,69712dc693a3960bdb483245,69714f7936fb382e28d16d38,,,,,,,,,,,,,1,,,,,,,,,,,,,,,,,,,,,,,,,,,,,,,,,,,,,85,laúd,,,,,353.977,355.0712,0,0,0.5772,,0,58,58,84,1,REAL,FAKE,,,,,,,,,,,,,,,,,
,,,,,,,,,67164c92298409e37c670b3d,Spanish,13 or older,"no, only English or Spanish",yes,2026-01-21_17h09.23.691,empathy_intonation_perc_control,2024.2.4,Win32,59.88023952,67164c92298409e37c670b3d,69712dc693a3960bdb483245,69714f7936fb382e28d16d38,,,,,,,,,,,,,1,,,,,,,,,,,,,,,,,,,,,,,,,,,,,,,,,,,,,78,frondoso,,,,,355.0719,356.2462,0,0,0.6566,,0,59,59,77,1,REAL,FAKE,,,,,,,,,,,,,,,,,
,,,,,,,,,67164c92298409e37c670b3d,Spanish,13 or older,"no, only English or Spanish",yes,2026-01-21_17h09.23.691,empathy_intonation_perc_control,2024.2.4,Win32,59.88023952,67164c92298409e37c670b3d,69712dc693a3960bdb483245,69714f7936fb382e28d16d38,,,,,,,,,,,,,1,,,,,,,,,,,,,,,,,,,,,,,,,,,,,,,,,,,,,7,pésimo,,,,,356.2466,357.3993,0,0,0.6366,,0,60,60,6,1,REAL,FAKE,,,,,,,,,,,,,,,,,
,,,,,,,,,67164c92298409e37c670b3d,Spanish,13 or older,"no, only English or Spanish",yes,2026-01-21_17h09.23.691,empathy_intonation_perc_control,2024.2.4,Win32,59.88023952,67164c92298409e37c670b3d,69712dc693a3960bdb483245,69714f7936fb382e28d16d38,,,,,,,,,,,,,1,,,,,,,,,,,,,,,,,,,,,,,,,,,,,,,,,,,,,75,yacer,,,,,357.3997,358.7384,0,0,0.8234,,0,61,61,74,1,REAL,FAKE,,,,,,,,,,,,,,,,,
,,,,,,,,,67164c92298409e37c670b3d,Spanish,13 or older,"no, only English or Spanish",yes,2026-01-21_17h09.23.691,empathy_intonation_perc_control,2024.2.4,Win32,59.88023952,67164c92298409e37c670b3d,69712dc693a3960bdb483245,69714f7936fb382e28d16d38,,,,,,,,,,,,,1,,,,,,,,,,,,,,,,,,,,,,,,,,,,,,,,,,,,,86,barato,,,,,358.7389,359.9423,1,1,0.6847,,0,62,62,85,1,REAL,FAKE,,,,,,,,,,,,,,,,,
,,,,,,,,,67164c92298409e37c670b3d,Spanish,13 or older,"no, only English or Spanish",yes,2026-01-21_17h09.23.691,empathy_intonation_perc_control,2024.2.4,Win32,59.88023952,67164c92298409e37c670b3d,69712dc693a3960bdb483245,69714f7936fb382e28d16d38,,,,,,,,,,,,,0,,,,,,,,,,,,,,,,,,,,,,,,,,,,,,,,,,,,,35,rompido,,,,,359.9427,361.2601,1,0,0.797,,0,63,63,34,1,REAL,FAKE,,,,,,,,,,,,,,,,,
,,,,,,,,,67164c92298409e37c670b3d,Spanish,13 or older,"no, only English or Spanish",yes,2026-01-21_17h09.23.691,empathy_intonation_perc_control,2024.2.4,Win32,59.88023952,67164c92298409e37c670b3d,69712dc693a3960bdb483245,69714f7936fb382e28d16d38,,,,,,,,,,,,,1,,,,,,,,,,,,,,,,,,,,,,,,,,,,,,,,,,,,,56,musgo,,,,,361.2605,362.2659,0,0,0.489,,0,64,64,55,1,REAL,FAKE,,,,,,,,,,,,,,,,,
,,,,,,,,,67164c92298409e37c670b3d,Spanish,13 or older,"no, only English or Spanish",yes,2026-01-21_17h09.23.691,empathy_intonation_perc_control,2024.2.4,Win32,59.88023952,67164c92298409e37c670b3d,69712dc693a3960bdb483245,69714f7936fb382e28d16d38,,,,,,,,,,,,,0,,,,,,,,,,,,,,,,,,,,,,,,,,,,,,,,,,,,,1,terzo,,,,,362.2664,363.3184,0,1,0.5311,,0,65,65,0,1,REAL,FAKE,,,,,,,,,,,,,,,,,
,,,,,,,,,67164c92298409e37c670b3d,Spanish,13 or older,"no, only English or Spanish",yes,2026-01-21_17h09.23.691,empathy_intonation_perc_control,2024.2.4,Win32,59.88023952,67164c92298409e37c670b3d,69712dc693a3960bdb483245,69714f7936fb382e28d16d38,,,,,,,,,,,,,1,,,,,,,,,,,,,,,,,,,,,,,,,,,,,,,,,,,,,57,tacaño,,,,,363.3189,365.063,0,0,1.2277,,0,66,66,56,1,REAL,FAKE,,,,,,,,,,,,,,,,,
,,,,,,,,,67164c92298409e37c670b3d,Spanish,13 or older,"no, only English or Spanish",yes,2026-01-21_17h09.23.691,empathy_intonation_perc_control,2024.2.4,Win32,59.88023952,67164c92298409e37c670b3d,69712dc693a3960bdb483245,69714f7936fb382e28d16d38,,,,,,,,,,,,,1,,,,,,,,,,,,,,,,,,,,,,,,,,,,,,,,,,,,,43,canela,,,,,365.0635,366.2054,0,0,0.627,,0,67,67,42,1,REAL,FAKE,,,,,,,,,,,,,,,,,
,,,,,,,,,67164c92298409e37c670b3d,Spanish,13 or older,"no, only English or Spanish",yes,2026-01-21_17h09.23.691,empathy_intonation_perc_control,2024.2.4,Win32,59.88023952,67164c92298409e37c670b3d,69712dc693a3960bdb483245,69714f7936fb382e28d16d38,,,,,,,,,,,,,1,,,,,,,,,,,,,,,,,,,,,,,,,,,,,,,,,,,,,90,clavel,,,,,366.2058,367.578,0,0,0.8522,,0,68,68,89,1,REAL,FAKE,,,,,,,,,,,,,,,,,
,,,,,,,,,67164c92298409e37c670b3d,Spanish,13 or older,"no, only English or Spanish",yes,2026-01-21_17h09.23.691,empathy_intonation_perc_control,2024.2.4,Win32,59.88023952,67164c92298409e37c670b3d,69712dc693a3960bdb483245,69714f7936fb382e28d16d38,,,,,,,,,,,,,1,,,,,,,,,,,,,,,,,,,,,,,,,,,,,,,,,,,,,11,cenefa,,,,,367.5786,369.0729,0,0,0.9791,,0,69,69,10,1,REAL,FAKE,,,,,,,,,,,,,,,,,
,,,,,,,,,67164c92298409e37c670b3d,Spanish,13 or older,"no, only English or Spanish",yes,2026-01-21_17h09.23.691,empathy_intonation_perc_control,2024.2.4,Win32,59.88023952,67164c92298409e37c670b3d,69712dc693a3960bdb483245,69714f7936fb382e28d16d38,,,,,,,,,,,,,1,,,,,,,,,,,,,,,,,,,,,,,,,,,,,,,,,,,,,61,seda,,,,,369.0735,370.2015,0,0,0.6116,,0,70,70,60,1,REAL,FAKE,,,,,,,,,,,,,,,,,
,,,,,,,,,67164c92298409e37c670b3d,Spanish,13 or older,"no, only English or Spanish",yes,2026-01-21_17h09.23.691,empathy_intonation_perc_control,2024.2.4,Win32,59.88023952,67164c92298409e37c670b3d,69712dc693a3960bdb483245,69714f7936fb382e28d16d38,,,,,,,,,,,,,1,,,,,,,,,,,,,,,,,,,,,,,,,,,,,,,,,,,,,37,granuja,,,,,370.2019,371.5686,1,1,0.8457,,0,71,71,36,1,REAL,FAKE,,,,,,,,,,,,,,,,,
,,,,,,,,,67164c92298409e37c670b3d,Spanish,13 or older,"no, only English or Spanish",yes,2026-01-21_17h09.23.691,empathy_intonation_perc_control,2024.2.4,Win32,59.88023952,67164c92298409e37c670b3d,69712dc693a3960bdb483245,69714f7936fb382e28d16d38,,,,,,,,,,,,,1,,,,,,,,,,,,,,,,,,,,,,,,,,,,,,,,,,,,,24,látigo,,,,,371.5694,372.8621,0,0,0.7759,,0,72,72,23,1,REAL,FAKE,,,,,,,,,,,,,,,,,
,,,,,,,,,67164c92298409e37c670b3d,Spanish,13 or older,"no, only English or Spanish",yes,2026-01-21_17h09.23.691,empathy_intonation_perc_control,2024.2.4,Win32,59.88023952,67164c92298409e37c670b3d,69712dc693a3960bdb483245,69714f7936fb382e28d16d38,,,,,,,,,,,,,1,,,,,,,,,,,,,,,,,,,,,,,,,,,,,,,,,,,,,6,tergiversar,,,,,372.8624,373.8666,0,0,0.4891,,0,73,73,5,1,REAL,FAKE,,,,,,,,,,,,,,,,,
,,,,,,,,,67164c92298409e37c670b3d,Spanish,13 or older,"no, only English or Spanish",yes,2026-01-21_17h09.23.691,empathy_intonation_perc_control,2024.2.4,Win32,59.88023952,67164c92298409e37c670b3d,69712dc693a3960bdb483245,69714f7936fb382e28d16d38,,,,,,,,,,,,,1,,,,,,,,,,,,,,,,,,,,,,,,,,,,,,,,,,,,,59,besar,,,,,373.867,375.3672,0,0,0.9846,,0,74,74,58,1,REAL,FAKE,,,,,,,,,,,,,,,,,
,,,,,,,,,67164c92298409e37c670b3d,Spanish,13 or older,"no, only English or Spanish",yes,2026-01-21_17h09.23.691,empathy_intonation_perc_control,2024.2.4,Win32,59.88023952,67164c92298409e37c670b3d,69712dc693a3960bdb483245,69714f7936fb382e28d16d38,,,,,,,,,,,,,0,,,,,,,,,,,,,,,,,,,,,,,,,,,,,,,,,,,,,10,antar,,,,,375.3676,376.586,0,1,0.6991,,0,75,75,9,1,REAL,FAKE,,,,,,,,,,,,,,,,,
,,,,,,,,,67164c92298409e37c670b3d,Spanish,13 or older,"no, only English or Spanish",yes,2026-01-21_17h09.23.691,empathy_intonation_perc_control,2024.2.4,Win32,59.88023952,67164c92298409e37c670b3d,69712dc693a3960bdb483245,69714f7936fb382e28d16d38,,,,,,,,,,,,,1,,,,,,,,,,,,,,,,,,,,,,,,,,,,,,,,,,,,,15,regar,,,,,376.5865,377.5929,0,0,0.4865,,0,76,76,14,1,REAL,FAKE,,,,,,,,,,,,,,,,,
,,,,,,,,,67164c92298409e37c670b3d,Spanish,13 or older,"no, only English or Spanish",yes,2026-01-21_17h09.23.691,empathy_intonation_perc_control,2024.2.4,Win32,59.88023952,67164c92298409e37c670b3d,69712dc693a3960bdb483245,69714f7936fb382e28d16d38,,,,,,,,,,,,,1,,,,,,,,,,,,,,,,,,,,,,,,,,,,,,,,,,,,,52,camisa,,,,,377.5933,378.9509,1,1,0.8374,,0,77,77,51,1,REAL,FAKE,,,,,,,,,,,,,,,,,
,,,,,,,,,67164c92298409e37c670b3d,Spanish,13 or older,"no, only English or Spanish",yes,2026-01-21_17h09.23.691,empathy_intonation_perc_control,2024.2.4,Win32,59.88023952,67164c92298409e37c670b3d,69712dc693a3960bdb483245,69714f7936fb382e28d16d38,,,,,,,,,,,,,1,,,,,,,,,,,,,,,,,,,,,,,,,,,,,,,,,,,,,13,helar,,,,,378.9514,380.1089,0,0,0.6382,,0,78,78,12,1,REAL,FAKE,,,,,,,,,,,,,,,,,
,,,,,,,,,67164c92298409e37c670b3d,Spanish,13 or older,"no, only English or Spanish",yes,2026-01-21_17h09.23.691,empathy_intonation_perc_control,2024.2.4,Win32,59.88023952,67164c92298409e37c670b3d,69712dc693a3960bdb483245,69714f7936fb382e28d16d38,,,,,,,,,,,,,1,,,,,,,,,,,,,,,,,,,,,,,,,,,,,,,,,,,,,44,cuchara,,,,,380.1093,381.2045,0,0,0.5769,,0,79,79,43,1,REAL,FAKE,,,,,,,,,,,,,,,,,
,,,,,,,,,67164c92298409e37c670b3d,Spanish,13 or older,"no, only English or Spanish",yes,2026-01-21_17h09.23.691,empathy_intonation_perc_control,2024.2.4,Win32,59.88023952,67164c92298409e37c670b3d,69712dc693a3960bdb483245,69714f7936fb382e28d16d38,,,,,,,,,,,,,1,,,,,,,,,,,,,,,,,,,,,,,,,,,,,,,,,,,,,3,pulmones,,,,,381.2049,382.3048,0,0,0.5825,,0,80,80,2,1,REAL,FAKE,,,,,,,,,,,,,,,,,
,,,,,,,,,67164c92298409e37c670b3d,Spanish,13 or older,"no, only English or Spanish",yes,2026-01-21_17h09.23.691,empathy_intonation_perc_control,2024.2.4,Win32,59.88023952,67164c92298409e37c670b3d,69712dc693a3960bdb483245,69714f7936fb382e28d16d38,,,,,,,,,,,,,0,,,,,,,,,,,,,,,,,,,,,,,,,,,,,,,,,,,,,30,alardio,,,,,382.3052,383.3579,0,1,0.5345,,0,81,81,29,1,REAL,FAKE,,,,,,,,,,,,,,,,,
,,,,,,,,,67164c92298409e37c670b3d,Spanish,13 or older,"no, only English or Spanish",yes,2026-01-21_17h09.23.691,empathy_intonation_perc_control,2024.2.4,Win32,59.88023952,67164c92298409e37c670b3d,69712dc693a3960bdb483245,69714f7936fb382e28d16d38,,,,,,,,,,,,,1,,,,,,,,,,,,,,,,,,,,,,,,,,,,,,,,,,,,,38,estornudar,,,,,383.3584,384.8228,0,0,0.95,,0,82,82,37,1,REAL,FAKE,,,,,,,,,,,,,,,,,
,,,,,,,,,67164c92298409e37c670b3d,Spanish,13 or older,"no, only English or Spanish",yes,2026-01-21_17h09.23.691,empathy_intonation_perc_control,2024.2.4,Win32,59.88023952,67164c92298409e37c670b3d,69712dc693a3960bdb483245,69714f7936fb382e28d16d38,,,,,,,,,,,,,1,,,,,,,,,,,,,,,,,,,,,,,,,,,,,,,,,,,,,22,lacayo,,,,,384.8232,385.8927,0,0,0.5498,,0,83,83,21,1,REAL,FAKE,,,,,,,,,,,,,,,,,
,,,,,,,,,67164c92298409e37c670b3d,Spanish,13 or older,"no, only English or Spanish",yes,2026-01-21_17h09.23.691,empathy_intonation_perc_control,2024.2.4,Win32,59.88023952,67164c92298409e37c670b3d,69712dc693a3960bdb483245,69714f7936fb382e28d16d38,,,,,,,,,,,,,0,,,,,,,,,,,,,,,,,,,,,,,,,,,,,,,,,,,,,92,click the 0 key.,,,,,385.8933,387.6497,0,1,1.2324,,0,84,84,91,1,REAL,FAKE,,,,,,,,,,,,,,,,,
,,,,,,,,,67164c92298409e37c670b3d,Spanish,13 or older,"no, only English or Spanish",yes,2026-01-21_17h09.23.691,empathy_intonation_perc_control,2024.2.4,Win32,59.88023952,67164c92298409e37c670b3d,69712dc693a3960bdb483245,69714f7936fb382e28d16d38,,,,,,,,,,,,,1,,,,,,,,,,,,,,,,,,,,,,,,,,,,,,,,,,,,,34,aviso,,,,,387.6502,388.9611,0,0,0.7945,,0,85,85,33,1,REAL,FAKE,,,,,,,,,,,,,,,,,
,,,,,,,,,67164c92298409e37c670b3d,Spanish,13 or older,"no, only English or Spanish",yes,2026-01-21_17h09.23.691,empathy_intonation_perc_control,2024.2.4,Win32,59.88023952,67164c92298409e37c670b3d,69712dc693a3960bdb483245,69714f7936fb382e28d16d38,,,,,,,,,,,,,0,,,,,,,,,,,,,,,,,,,,,,,,,,,,,,,,,,,,,27,acutación,,,,,388.9616,391.401,1,0,1.9236,,0,86,86,26,1,REAL,FAKE,,,,,,,,,,,,,,,,,
,,,,,,,,,67164c92298409e37c670b3d,Spanish,13 or older,"no, only English or Spanish",yes,2026-01-21_17h09.23.691,empathy_intonation_perc_control,2024.2.4,Win32,59.88023952,67164c92298409e37c670b3d,69712dc693a3960bdb483245,69714f7936fb382e28d16d38,,,,,,,,,,,,,1,,,,,,,,,,,,,,,,,,,,,,,,,,,,,,,,,,,,,20,ávido,,,,,391.4015,392.5985,1,1,0.6853,,0,87,87,19,1,REAL,FAKE,,,,,,,,,,,,,,,,,
,,,,,,,,,67164c92298409e37c670b3d,Spanish,13 or older,"no, only English or Spanish",yes,2026-01-21_17h09.23.691,empathy_intonation_perc_control,2024.2.4,Win32,59.88023952,67164c92298409e37c670b3d,69712dc693a3960bdb483245,69714f7936fb382e28d16d38,,,,,,,,,,,,,0,,,,,,,,,,,,,,,,,,,,,,,,,,,,,,,,,,,,,87,grodo,,,,,392.599,393.8761,0,1,0.7621,,0,88,88,86,1,REAL,FAKE,,,,,,,,,,,,,,,,,
,,,,,,,,,67164c92298409e37c670b3d,Spanish,13 or older,"no, only English or Spanish",yes,2026-01-21_17h09.23.691,empathy_intonation_perc_control,2024.2.4,Win32,59.88023952,67164c92298409e37c670b3d,69712dc693a3960bdb483245,69714f7936fb382e28d16d38,,,,,,,,,,,,,1,,,,,,,,,,,,,,,,,,,,,,,,,,,,,,,,,,,,,91,click the 1 key.,,,,,393.8766,395.1162,1,1,0.7213,,0,89,89,90,1,REAL,FAKE,,,,,,,,,,,,,,,,,
,,,,,,,,,67164c92298409e37c670b3d,Spanish,13 or older,"no, only English or Spanish",yes,2026-01-21_17h09.23.691,empathy_intonation_perc_control,2024.2.4,Win32,59.88023952,67164c92298409e37c670b3d,69712dc693a3960bdb483245,69714f7936fb382e28d16d38,,,,,,,,,,,,,1,,,,,,,,,,,,,,,,,,,,,,,,,,,,,,,,,,,,,26,secuestro,,,,,395.1167,396.3203,0,0,0.6885,,0,90,90,25,1,REAL,FAKE,,,,,,,,,,,,,,,,,
,,,,,,,,,67164c92298409e37c670b3d,Spanish,13 or older,"no, only English or Spanish",yes,2026-01-21_17h09.23.691,empathy_intonation_perc_control,2024.2.4,Win32,59.88023952,67164c92298409e37c670b3d,69712dc693a3960bdb483245,69714f7936fb382e28d16d38,,,,,,,,,,,,,1,,,,,,,,,,,,,,,,,,,,,,,,,,,,,,,,,,,,,25,bisagra,,,,,396.3207,398.1874,0,0,1.3476,,0,91,91,24,1,REAL,FAKE,,,,,,,,,,,,,,,,,
,,,,,,,,,67164c92298409e37c670b3d,Spanish,13 or older,"no, only English or Spanish",yes,2026-01-21_17h09.23.691,empathy_intonation_perc_control,2024.2.4,Win32,59.88023952,67164c92298409e37c670b3d,69712dc693a3960bdb483245,69714f7936fb382e28d16d38,,,,,,,,,,,,,,,,,,,,,,,,,,,,,,,,,,,,,,,,,,,,,,,,,,,,,,,,,,,,,,,,,,,,,398.1876,406.4711,,,,,,,,,,,,,,,
,,,,,,,,,67164c92298409e37c670b3d,Spanish,13 or older,"no, only English or Spanish",yes,2026-01-21_17h09.23.691,empathy_intonation_perc_control,2024.2.4,Win32,59.88023952,67164c92298409e37c670b3d,69712dc693a3960bdb483245,69714f7936fb382e28d16d38,,,,,,,,,,,,,,,,,,,,,,,,,,,1,,,,,,,,,,,,,,,,,,,,,,,,,,,,,,,,,,,,,,,,,,,,406.476,410.3574,slightly agree,0,0,0,0,1,I can easily tell if someone else wants to enter a conversation.,1,0,1,0,,
,,,,,,,,,67164c92298409e37c670b3d,Spanish,13 or older,"no, only English or Spanish",yes,2026-01-21_17h09.23.691,empathy_intonation_perc_control,2024.2.4,Win32,59.88023952,67164c92298409e37c670b3d,69712dc693a3960bdb483245,69714f7936fb382e28d16d38,,,,,,,,,,,,,,,,,,,,,,,,,,,2,,,,,,,,,,,,,,,,,,,,,,,,,,,,,,,,,,,,,,,,,,,,410.3582,412.2595,strongly agree,0,1,1,1,1,I prefer animals to humans.,0,1,0,0,,
,,,,,,,,,67164c92298409e37c670b3d,Spanish,13 or older,"no, only English or Spanish",yes,2026-01-21_17h09.23.691,empathy_intonation_perc_control,2024.2.4,Win32,59.88023952,67164c92298409e37c670b3d,69712dc693a3960bdb483245,69714f7936fb382e28d16d38,,,,,,,,,,,,,,,,,,,,,,,,,,,3,,,,,,,,,,,,,,,,,,,,,,,,,,,,,,,,,,,,,,,,,,,,412.2602,415.1651,strongly disagree,0,2,2,2,1,I try to keep up with the current trends and fashions.,0,1,0,0,,
,,,,,,,,,67164c92298409e37c670b3d,Spanish,13 or older,"no, only English or Spanish",yes,2026-01-21_17h09.23.691,empathy_intonation_perc_control,2024.2.4,Win32,59.88023952,67164c92298409e37c670b3d,69712dc693a3960bdb483245,69714f7936fb382e28d16d38,,,,,,,,,,,,,,,,,,,,,,,,,,,4,,,,,,,,,,,,,,,,,,,,,,,,,,,,,,,,,,,,,,,,,,,,415.1659,425.9139,slightly agree,0,3,3,3,1,"I find it difficult to explain to others things that I understand easily,   when they don't understand it first time.",1,0,0,1,,
,,,,,,,,,67164c92298409e37c670b3d,Spanish,13 or older,"no, only English or Spanish",yes,2026-01-21_17h09.23.691,empathy_intonation_perc_control,2024.2.4,Win32,59.88023952,67164c92298409e37c670b3d,69712dc693a3960bdb483245,69714f7936fb382e28d16d38,,,,,,,,,,,,,,,,,,,,,,,,,,,5,,,,,,,,,,,,,,,,,,,,,,,,,,,,,,,,,,,,,,,,,,,,425.9144,427.4795,strongly agree,0,4,4,4,1,I dream most nights.,0,1,0,0,,
,,,,,,,,,67164c92298409e37c670b3d,Spanish,13 or older,"no, only English or Spanish",yes,2026-01-21_17h09.23.691,empathy_intonation_perc_control,2024.2.4,Win32,59.88023952,67164c92298409e37c670b3d,69712dc693a3960bdb483245,69714f7936fb382e28d16d38,,,,,,,,,,,,,,,,,,,,,,,,,,,6,,,,,,,,,,,,,,,,,,,,,,,,,,,,,,,,,,,,,,,,,,,,427.4801,429.8578,strongly agree,0,5,5,5,1,I really enjoy caring for other people.,1,0,1,0,,
,,,,,,,,,67164c92298409e37c670b3d,Spanish,13 or older,"no, only English or Spanish",yes,2026-01-21_17h09.23.691,empathy_intonation_perc_control,2024.2.4,Win32,59.88023952,67164c92298409e37c670b3d,69712dc693a3960bdb483245,69714f7936fb382e28d16d38,,,,,,,,,,,,,,,,,,,,,,,,,,,7,,,,,,,,,,,,,,,,,,,,,,,,,,,,,,,,,,,,,,,,,,,,429.8585,431.9735,strongly agree,0,6,6,6,1,I try to solve my own problems rather than discussing them with others.,0,1,0,0,,
,,,,,,,,,67164c92298409e37c670b3d,Spanish,13 or older,"no, only English or Spanish",yes,2026-01-21_17h09.23.691,empathy_intonation_perc_control,2024.2.4,Win32,59.88023952,67164c92298409e37c670b3d,69712dc693a3960bdb483245,69714f7936fb382e28d16d38,,,,,,,,,,,,,,,,,,,,,,,,,,,8,,,,,,,,,,,,,,,,,,,,,,,,,,,,,,,,,,,,,,,,,,,,431.9739,434.8391,slightly disagree,0,7,7,7,1,I find it hard to know what to do in a social situation.,1,0,0,1,,
,,,,,,,,,67164c92298409e37c670b3d,Spanish,13 or older,"no, only English or Spanish",yes,2026-01-21_17h09.23.691,empathy_intonation_perc_control,2024.2.4,Win32,59.88023952,67164c92298409e37c670b3d,69712dc693a3960bdb483245,69714f7936fb382e28d16d38,,,,,,,,,,,,,,,,,,,,,,,,,,,9,,,,,,,,,,,,,,,,,,,,,,,,,,,,,,,,,,,,,,,,,,,,434.8396,437.9359,strongly disagree,0,8,8,8,1,I am at my best first thing in the morning.,0,1,0,0,,
,,,,,,,,,67164c92298409e37c670b3d,Spanish,13 or older,"no, only English or Spanish",yes,2026-01-21_17h09.23.691,empathy_intonation_perc_control,2024.2.4,Win32,59.88023952,67164c92298409e37c670b3d,69712dc693a3960bdb483245,69714f7936fb382e28d16d38,,,,,,,,,,,,,,,,,,,,,,,,,,,10,,,,,,,,,,,,,,,,,,,,,,,,,,,,,,,,,,,,,,,,,,,,437.9367,442.3048,slightly agree,0,9,9,9,1,People often tell me that I went too far in driving my point home in a discussion.,1,0,0,1,,
,,,,,,,,,67164c92298409e37c670b3d,Spanish,13 or older,"no, only English or Spanish",yes,2026-01-21_17h09.23.691,empathy_intonation_perc_control,2024.2.4,Win32,59.88023952,67164c92298409e37c670b3d,69712dc693a3960bdb483245,69714f7936fb382e28d16d38,,,,,,,,,,,,,,,,,,,,,,,,,,,11,,,,,,,,,,,,,,,,,,,,,,,,,,,,,,,,,,,,,,,,,,,,442.3052,445.1174,strongly disagree,0,10,10,10,1,It doesn't bother me too much if I am late meeting a friend.,1,0,0,1,,
,,,,,,,,,67164c92298409e37c670b3d,Spanish,13 or older,"no, only English or Spanish",yes,2026-01-21_17h09.23.691,empathy_intonation_perc_control,2024.2.4,Win32,59.88023952,67164c92298409e37c670b3d,69712dc693a3960bdb483245,69714f7936fb382e28d16d38,,,,,,,,,,,,,,,,,,,,,,,,,,,12,,,,,,,,,,,,,,,,,,,,,,,,,,,,,,,,,,,,,,,,,,,,445.118,447.3026,strongly disagree,0,11,11,11,1,"Friendships and relationships are just too difficult, so I tend not to 
  bother with them.",1,0,0,1,,
,,,,,,,,,67164c92298409e37c670b3d,Spanish,13 or older,"no, only English or Spanish",yes,2026-01-21_17h09.23.691,empathy_intonation_perc_control,2024.2.4,Win32,59.88023952,67164c92298409e37c670b3d,69712dc693a3960bdb483245,69714f7936fb382e28d16d38,,,,,,,,,,,,,,,,,,,,,,,,,,,13,,,,,,,,,,,,,,,,,,,,,,,,,,,,,,,,,,,,,,,,,,,,447.303,449.9807,slightly disagree,0,12,12,12,1,"I would never break a law, no matter how minor.",0,1,0,0,,
,,,,,,,,,67164c92298409e37c670b3d,Spanish,13 or older,"no, only English or Spanish",yes,2026-01-21_17h09.23.691,empathy_intonation_perc_control,2024.2.4,Win32,59.88023952,67164c92298409e37c670b3d,69712dc693a3960bdb483245,69714f7936fb382e28d16d38,,,,,,,,,,,,,,,,,,,,,,,,,,,14,,,,,,,,,,,,,,,,,,,,,,,,,,,,,,,,,,,,,,,,,,,,449.9812,459.02,strongly disagree,0,13,13,13,1,I often find it difficult to judge if something is rude or polite.,1,0,0,1,,
,,,,,,,,,67164c92298409e37c670b3d,Spanish,13 or older,"no, only English or Spanish",yes,2026-01-21_17h09.23.691,empathy_intonation_perc_control,2024.2.4,Win32,59.88023952,67164c92298409e37c670b3d,69712dc693a3960bdb483245,69714f7936fb382e28d16d38,,,,,,,,,,,,,,,,,,,,,,,,,,,15,,,,,,,,,,,,,,,,,,,,,,,,,,,,,,,,,,,,,,,,,,,,459.0205,463.4822,strongly disagree,0,14,14,14,1,"In a conversation, I tend to focus on my own thoughts rather than on what 
  my listener might be thinking.",1,0,0,1,,
,,,,,,,,,67164c92298409e37c670b3d,Spanish,13 or older,"no, only English or Spanish",yes,2026-01-21_17h09.23.691,empathy_intonation_perc_control,2024.2.4,Win32,59.88023952,67164c92298409e37c670b3d,69712dc693a3960bdb483245,69714f7936fb382e28d16d38,,,,,,,,,,,,,,,,,,,,,,,,,,,16,,,,,,,,,,,,,,,,,,,,,,,,,,,,,,,,,,,,,,,,,,,,463.4827,468.4355,strongly disagree,0,15,15,15,1,I prefer practical jokes to verbal humor.,0,1,0,0,,
,,,,,,,,,67164c92298409e37c670b3d,Spanish,13 or older,"no, only English or Spanish",yes,2026-01-21_17h09.23.691,empathy_intonation_perc_control,2024.2.4,Win32,59.88023952,67164c92298409e37c670b3d,69712dc693a3960bdb483245,69714f7936fb382e28d16d38,,,,,,,,,,,,,,,,,,,,,,,,,,,17,,,,,,,,,,,,,,,,,,,,,,,,,,,,,,,,,,,,,,,,,,,,468.4359,472.6832,strongly agree,0,16,16,16,1,I live life for today rather than the future.,0,1,0,0,,
,,,,,,,,,67164c92298409e37c670b3d,Spanish,13 or older,"no, only English or Spanish",yes,2026-01-21_17h09.23.691,empathy_intonation_perc_control,2024.2.4,Win32,59.88023952,67164c92298409e37c670b3d,69712dc693a3960bdb483245,69714f7936fb382e28d16d38,,,,,,,,,,,,,,,,,,,,,,,,,,,18,,,,,,,,,,,,,,,,,,,,,,,,,,,,,,,,,,,,,,,,,,,,472.6839,476.4572,strongly disagree,0,17,17,17,1,"When I was a child, I enjoyed cutting up worms to see what would happen.",1,0,0,1,,
,,,,,,,,,67164c92298409e37c670b3d,Spanish,13 or older,"no, only English or Spanish",yes,2026-01-21_17h09.23.691,empathy_intonation_perc_control,2024.2.4,Win32,59.88023952,67164c92298409e37c670b3d,69712dc693a3960bdb483245,69714f7936fb382e28d16d38,,,,,,,,,,,,,,,,,,,,,,,,,,,19,,,,,,,,,,,,,,,,,,,,,,,,,,,,,,,,,,,,,,,,,,,,476.4577,483.9954,slightly agree,0,18,18,18,1,I can pick up quickly if someone says one thing but means another.,1,0,1,0,,
,,,,,,,,,67164c92298409e37c670b3d,Spanish,13 or older,"no, only English or Spanish",yes,2026-01-21_17h09.23.691,empathy_intonation_perc_control,2024.2.4,Win32,59.88023952,67164c92298409e37c670b3d,69712dc693a3960bdb483245,69714f7936fb382e28d16d38,,,,,,,,,,,,,,,,,,,,,,,,,,,20,,,,,,,,,,,,,,,,,,,,,,,,,,,,,,,,,,,,,,,,,,,,483.9961,486.5471,strongly agree,0,19,19,19,1,I tend to have very strong opinions about morality.,0,1,0,0,,
,,,,,,,,,67164c92298409e37c670b3d,Spanish,13 or older,"no, only English or Spanish",yes,2026-01-21_17h09.23.691,empathy_intonation_perc_control,2024.2.4,Win32,59.88023952,67164c92298409e37c670b3d,69712dc693a3960bdb483245,69714f7936fb382e28d16d38,,,,,,,,,,,,,,,,,,,,,,,,,,,21,,,,,,,,,,,,,,,,,,,,,,,,,,,,,,,,,,,,,,,,,,,,486.5475,491.6947,strongly agree,0,20,20,20,1,It is hard for me to see why some things upset people so much.,1,0,0,1,,
,,,,,,,,,67164c92298409e37c670b3d,Spanish,13 or older,"no, only English or Spanish",yes,2026-01-21_17h09.23.691,empathy_intonation_perc_control,2024.2.4,Win32,59.88023952,67164c92298409e37c670b3d,69712dc693a3960bdb483245,69714f7936fb382e28d16d38,,,,,,,,,,,,,,,,,,,,,,,,,,,22,,,,,,,,,,,,,,,,,,,,,,,,,,,,,,,,,,,,,,,,,,,,491.6952,493.9425,slightly disagree,0,21,21,21,1,I find it easy to put myself in somebody else's shoes.,1,0,1,0,,
,,,,,,,,,67164c92298409e37c670b3d,Spanish,13 or older,"no, only English or Spanish",yes,2026-01-21_17h09.23.691,empathy_intonation_perc_control,2024.2.4,Win32,59.88023952,67164c92298409e37c670b3d,69712dc693a3960bdb483245,69714f7936fb382e28d16d38,,,,,,,,,,,,,,,,,,,,,,,,,,,23,,,,,,,,,,,,,,,,,,,,,,,,,,,,,,,,,,,,,,,,,,,,493.943,497.1577,strongly agree,0,22,22,22,1,I think that good manners are the most important thing a parent can teach their child.,0,1,0,0,,
,,,,,,,,,67164c92298409e37c670b3d,Spanish,13 or older,"no, only English or Spanish",yes,2026-01-21_17h09.23.691,empathy_intonation_perc_control,2024.2.4,Win32,59.88023952,67164c92298409e37c670b3d,69712dc693a3960bdb483245,69714f7936fb382e28d16d38,,,,,,,,,,,,,,,,,,,,,,,,,,,24,,,,,,,,,,,,,,,,,,,,,,,,,,,,,,,,,,,,,,,,,,,,497.1582,499.2693,strongly disagree,0,23,23,23,1,I like to do things on the spur of the moment.,0,1,0,0,,
