instructions_2afc.started,instructions_2afc.stopped,instructions_2afc_loop.thisRepN,instructions_2afc_loop.thisTrialN,instructions_2afc_loop.thisN,instructions_2afc_loop.thisIndex,instructions_2afc_loop.ran,instructions_text,continue_text,participant_id,"What variety of Spanish are you most familiar with? (e.g., Peruvian, Spanish, Mexican)",At what age did you begin learning Spanish?,Are you proficient in any languages other than English/Spanish?,"Are you familiar with Caribbean (e.g., Caribbean, Puerto Rican) or Galician Spanish?",date,expName,psychopyVersion,OS,frameRate,id,study_id,session,practice_2afc.started,practice_2afc.stopped,key_resp_2afc_practice.keys,key_resp_2afc_practice.corr,key_resp_2afc_practice.rt,key_resp_2afc_practice.duration,trials_2afc_practice_loop.thisRepN,trials_2afc_practice_loop.thisTrialN,trials_2afc_practice_loop.thisN,trials_2afc_practice_loop.thisIndex,trials_2afc_practice_loop.ran,path,correct_response,check_2afc.started,check_2afc.stopped,trial_2afc.started,trial_2afc.stopped,key_resp_2afc_trial.keys,key_resp_2afc_trial.corr,key_resp_2afc_trial.rt,key_resp_2afc_trial.duration,trials_2afc_loop.thisRepN,trials_2afc_loop.thisTrialN,trials_2afc_loop.thisN,trials_2afc_loop.thisIndex,trials_2afc_loop.ran,item_num,target,variety,instructions_lextale.started,instructions_lextale.stopped,instructions_lextale_loop.thisRepN,instructions_lextale_loop.thisTrialN,instructions_lextale_loop.thisN,instructions_lextale_loop.thisIndex,instructions_lextale_loop.ran,practice_lextale.started,practice_lextale.stopped,key_resp_lextale_practice.keys,key_resp_lextale_practice.corr,key_resp_lextale_practice.rt,key_resp_lextale_practice.duration,practice_feedback_lextale.started,practice_feedback_lextale.stopped,trials_lextale_practice_loop.thisRepN,trials_lextale_practice_loop.thisTrialN,trials_lextale_practice_loop.thisN,trials_lextale_practice_loop.thisIndex,trials_lextale_practice_loop.ran,stim,word,prac_button_real,prac_button_false,check_lextale.started,check_lextale.stopped,trial_lextale.started,trial_lextale.stopped,key_resp_lextale_trial.keys,key_resp_lextale_trial.corr,key_resp_lextale_trial.rt,key_resp_lextale_trial.duration,trials_lextale_loop.thisRepN,trials_lextale_loop.thisTrialN,trials_lextale_loop.thisN,trials_lextale_loop.thisIndex,trials_lextale_loop.ran,button_real,button_false,instructions_eq.started,instructions_eq.stopped,trial_eq.started,trial_eq.stopped,slider_eq_trial.response,trials_eq_loop.thisRepN,trials_eq_loop.thisTrialN,trials_eq_loop.thisN,trials_eq_loop.thisIndex,trials_eq_loop.ran,item,is_test_item,is_distractor,is_agree_score,is_disagree_score,end_exp.started,end_exp.stopped
0.0423,8.5715,0,0,0,0,1,"In the following task you are going to hear a series of utterances. 

  You will decide if the utterances sound like questions or not using your keyboard.", (press the spacebar to continue),67180c619687ce86be82b29f,spanish,13 or older,"no, only English or Spanish",yes,2025-07-24_10h37.50.701,empathy_intonation_perc_control,2024.2.4,Win32,59.88023952,67180c619687ce86be82b29f,68817205a84113384fffdfe3,688244fccc9ca2917fb858d8,,,,,,,,,,,,,,,,,,,,,,,,,,,,,,,,,,,,,,,,,,,,,,,,,,,,,,,,,,,,,,,,,,,,,,,,,,,,,,,,,,,,,
8.5767,18.1817,0,1,1,1,1,"If you believe the utterance is a question, type '1' (for 'yes') and if you do not 
  believe it is a question type '0' (for 'no').

  Let's practice a bit...", (press the spacebar to continue),67180c619687ce86be82b29f,spanish,13 or older,"no, only English or Spanish",yes,2025-07-24_10h37.50.701,empathy_intonation_perc_control,2024.2.4,Win32,59.88023952,67180c619687ce86be82b29f,68817205a84113384fffdfe3,688244fccc9ca2917fb858d8,,,,,,,,,,,,,,,,,,,,,,,,,,,,,,,,,,,,,,,,,,,,,,,,,,,,,,,,,,,,,,,,,,,,,,,,,,,,,,,,,,,,,
,,,,,,,,,67180c619687ce86be82b29f,spanish,13 or older,"no, only English or Spanish",yes,2025-07-24_10h37.50.701,empathy_intonation_perc_control,2024.2.4,Win32,59.88023952,67180c619687ce86be82b29f,68817205a84113384fffdfe3,688244fccc9ca2917fb858d8,18.1992,22.2892,1,1,3.5395,,0,0,0,2,1,./stim/wavs/chilean_question_filler_Mi-padre-cantaba-bien.wav,1,,,,,,,,,,,,,,,,,,,,,,,,,,,,,,,,,,,,,,,,,,,,,,,,,,,,,,,,,,,,,,,,,,,,,,,,
,,,,,,,,,67180c619687ce86be82b29f,spanish,13 or older,"no, only English or Spanish",yes,2025-07-24_10h37.50.701,empathy_intonation_perc_control,2024.2.4,Win32,59.88023952,67180c619687ce86be82b29f,68817205a84113384fffdfe3,688244fccc9ca2917fb858d8,22.2905,26.24,0,1,3.4039,,0,1,1,4,1,./stim/wavs/cuban_statement_filler_Cocinabas-por-la-noche.wav,0,,,,,,,,,,,,,,,,,,,,,,,,,,,,,,,,,,,,,,,,,,,,,,,,,,,,,,,,,,,,,,,,,,,,,,,,
,,,,,,,,,67180c619687ce86be82b29f,spanish,13 or older,"no, only English or Spanish",yes,2025-07-24_10h37.50.701,empathy_intonation_perc_control,2024.2.4,Win32,59.88023952,67180c619687ce86be82b29f,68817205a84113384fffdfe3,688244fccc9ca2917fb858d8,26.2411,30.5252,0,1,3.7352,,0,2,2,5,1,./stim/wavs/andalusian_statement_filler_Alberto-nunca-se-afeita.wav,0,,,,,,,,,,,,,,,,,,,,,,,,,,,,,,,,,,,,,,,,,,,,,,,,,,,,,,,,,,,,,,,,,,,,,,,,
,,,,,,,,,67180c619687ce86be82b29f,spanish,13 or older,"no, only English or Spanish",yes,2025-07-24_10h37.50.701,empathy_intonation_perc_control,2024.2.4,Win32,59.88023952,67180c619687ce86be82b29f,68817205a84113384fffdfe3,688244fccc9ca2917fb858d8,30.5269,34.0966,0,1,3.039,,0,3,3,6,1,./stim/wavs/peruvian_statement_filler_El-nino-habla-con-su-madre.wav,0,,,,,,,,,,,,,,,,,,,,,,,,,,,,,,,,,,,,,,,,,,,,,,,,,,,,,,,,,,,,,,,,,,,,,,,,
,,,,,,,,,67180c619687ce86be82b29f,spanish,13 or older,"no, only English or Spanish",yes,2025-07-24_10h37.50.701,empathy_intonation_perc_control,2024.2.4,Win32,59.88023952,67180c619687ce86be82b29f,68817205a84113384fffdfe3,688244fccc9ca2917fb858d8,34.0982,37.4971,1,1,2.8613,,0,4,4,3,1,./stim/wavs/mexican_question_filler_Felipe-no-tiene-contrasena.wav,1,,,,,,,,,,,,,,,,,,,,,,,,,,,,,,,,,,,,,,,,,,,,,,,,,,,,,,,,,,,,,,,,,,,,,,,,
,,,,,,,,,67180c619687ce86be82b29f,spanish,13 or older,"no, only English or Spanish",yes,2025-07-24_10h37.50.701,empathy_intonation_perc_control,2024.2.4,Win32,59.88023952,67180c619687ce86be82b29f,68817205a84113384fffdfe3,688244fccc9ca2917fb858d8,37.4983,43.8705,0,0,5.8238,,0,5,5,0,1,./stim/wavs/castilian_question_filler_Mi-esposo-conoce-al-chico.wav,1,,,,,,,,,,,,,,,,,,,,,,,,,,,,,,,,,,,,,,,,,,,,,,,,,,,,,,,,,,,,,,,,,,,,,,,,
,,,,,,,,,67180c619687ce86be82b29f,spanish,13 or older,"no, only English or Spanish",yes,2025-07-24_10h37.50.701,empathy_intonation_perc_control,2024.2.4,Win32,59.88023952,67180c619687ce86be82b29f,68817205a84113384fffdfe3,688244fccc9ca2917fb858d8,43.8722,46.7809,1,1,2.3739,,0,6,6,1,1,./stim/wavs/argentine_question_filler_Mi-vecino-habla-mucho.wav,1,,,,,,,,,,,,,,,,,,,,,,,,,,,,,,,,,,,,,,,,,,,,,,,,,,,,,,,,,,,,,,,,,,,,,,,,
,,,,,,,,,67180c619687ce86be82b29f,spanish,13 or older,"no, only English or Spanish",yes,2025-07-24_10h37.50.701,empathy_intonation_perc_control,2024.2.4,Win32,59.88023952,67180c619687ce86be82b29f,68817205a84113384fffdfe3,688244fccc9ca2917fb858d8,46.7817,49.8815,0,1,2.5691,,0,7,7,7,1,./stim/wavs/puertorican_statement_filler_La-nina-pinta-con-su-amiga.wav,0,,,,,,,,,,,,,,,,,,,,,,,,,,,,,,,,,,,,,,,,,,,,,,,,,,,,,,,,,,,,,,,,,,,,,,,,
,,,,,,,,,67180c619687ce86be82b29f,spanish,13 or older,"no, only English or Spanish",yes,2025-07-24_10h37.50.701,empathy_intonation_perc_control,2024.2.4,Win32,59.88023952,67180c619687ce86be82b29f,68817205a84113384fffdfe3,688244fccc9ca2917fb858d8,,,,,,,,,,,,,,49.882,53.5172,,,,,,,,,,,,,,,,,,,,,,,,,,,,,,,,,,,,,,,,,,,,,,,,,,,,,,,,,,,,,,,,,,,,,,
,,,,,,,,,67180c619687ce86be82b29f,spanish,13 or older,"no, only English or Spanish",yes,2025-07-24_10h37.50.701,empathy_intonation_perc_control,2024.2.4,Win32,59.88023952,67180c619687ce86be82b29f,68817205a84113384fffdfe3,688244fccc9ca2917fb858d8,,,,,,,,,,,,./stim/wavs/mexican_mismatch_declarative-broad-focus_El-bebe-comia-muy-bien.wav,0,,,53.5326,56.8519,0,1,2.7805,,0,0,0,78,1,79,0,mexican,,,,,,,,,,,,,,,,,,,,,,,,,,,,,,,,,,,,,,,,,,,,,,,,,,,,,,,,
,,,,,,,,,67180c619687ce86be82b29f,spanish,13 or older,"no, only English or Spanish",yes,2025-07-24_10h37.50.701,empathy_intonation_perc_control,2024.2.4,Win32,59.88023952,67180c619687ce86be82b29f,68817205a84113384fffdfe3,688244fccc9ca2917fb858d8,,,,,,,,,,,,./stim/wavs/mexican_match_interrogative-total-yn_Ana-lleva-el-abrigo.wav,1,,,56.8527,59.6567,1,1,2.2707,,0,1,1,12,1,13,0,mexican,,,,,,,,,,,,,,,,,,,,,,,,,,,,,,,,,,,,,,,,,,,,,,,,,,,,,,,,
,,,,,,,,,67180c619687ce86be82b29f,spanish,13 or older,"no, only English or Spanish",yes,2025-07-24_10h37.50.701,empathy_intonation_perc_control,2024.2.4,Win32,59.88023952,67180c619687ce86be82b29f,68817205a84113384fffdfe3,688244fccc9ca2917fb858d8,,,,,,,,,,,,./stim/wavs/cuban_match_interrogative-total-yn_Manuela-vende-el-carro.wav,1,,,59.6576,62.2095,0,0,2.0023,,0,2,2,8,1,9,1,cuban,,,,,,,,,,,,,,,,,,,,,,,,,,,,,,,,,,,,,,,,,,,,,,,,,,,,,,,,
,,,,,,,,,67180c619687ce86be82b29f,spanish,13 or older,"no, only English or Spanish",yes,2025-07-24_10h37.50.701,empathy_intonation_perc_control,2024.2.4,Win32,59.88023952,67180c619687ce86be82b29f,68817205a84113384fffdfe3,688244fccc9ca2917fb858d8,,,,,,,,,,,,./stim/wavs/castilian_mismatch_declarative-broad-focus_Mi-tia-odia-la-lluvia.wav,0,,,62.2106,64.6806,0,1,1.9352,,0,3,3,72,1,73,0,castilian,,,,,,,,,,,,,,,,,,,,,,,,,,,,,,,,,,,,,,,,,,,,,,,,,,,,,,,,
,,,,,,,,,67180c619687ce86be82b29f,spanish,13 or older,"no, only English or Spanish",yes,2025-07-24_10h37.50.701,empathy_intonation_perc_control,2024.2.4,Win32,59.88023952,67180c619687ce86be82b29f,68817205a84113384fffdfe3,688244fccc9ca2917fb858d8,,,,,,,,,,,,./stim/wavs/cuban_match_interrogative-total-yn_Daniel-iba-a-Bolivia.wav,1,,,64.6815,67.2462,0,0,2.018,,0,4,4,7,1,8,1,cuban,,,,,,,,,,,,,,,,,,,,,,,,,,,,,,,,,,,,,,,,,,,,,,,,,,,,,,,,
,,,,,,,,,67180c619687ce86be82b29f,spanish,13 or older,"no, only English or Spanish",yes,2025-07-24_10h37.50.701,empathy_intonation_perc_control,2024.2.4,Win32,59.88023952,67180c619687ce86be82b29f,68817205a84113384fffdfe3,688244fccc9ca2917fb858d8,,,,,,,,,,,,./stim/wavs/mexican_mismatch_declarative-broad-focus_El-hombre-mira-la-luna.wav,0,,,67.2472,69.6966,0,1,1.9009,,0,5,5,79,1,80,0,mexican,,,,,,,,,,,,,,,,,,,,,,,,,,,,,,,,,,,,,,,,,,,,,,,,,,,,,,,,
,,,,,,,,,67180c619687ce86be82b29f,spanish,13 or older,"no, only English or Spanish",yes,2025-07-24_10h37.50.701,empathy_intonation_perc_control,2024.2.4,Win32,59.88023952,67180c619687ce86be82b29f,68817205a84113384fffdfe3,688244fccc9ca2917fb858d8,,,,,,,,,,,,./stim/wavs/mexican_mismatch_declarative-broad-focus_Mi-novio-viene-del-lago.wav,0,,,69.6974,72.2682,0,1,2.0227,,0,6,6,81,1,82,0,mexican,,,,,,,,,,,,,,,,,,,,,,,,,,,,,,,,,,,,,,,,,,,,,,,,,,,,,,,,
,,,,,,,,,67180c619687ce86be82b29f,spanish,13 or older,"no, only English or Spanish",yes,2025-07-24_10h37.50.701,empathy_intonation_perc_control,2024.2.4,Win32,59.88023952,67180c619687ce86be82b29f,68817205a84113384fffdfe3,688244fccc9ca2917fb858d8,,,,,,,,,,,,./stim/wavs/mexican_match_declarative-broad-focus_Emilio-ama-la-marcha.wav,0,,,72.2692,74.9863,0,1,2.188,,0,7,7,59,1,60,0,mexican,,,,,,,,,,,,,,,,,,,,,,,,,,,,,,,,,,,,,,,,,,,,,,,,,,,,,,,,
,,,,,,,,,67180c619687ce86be82b29f,spanish,13 or older,"no, only English or Spanish",yes,2025-07-24_10h37.50.701,empathy_intonation_perc_control,2024.2.4,Win32,59.88023952,67180c619687ce86be82b29f,68817205a84113384fffdfe3,688244fccc9ca2917fb858d8,,,,,,,,,,,,./stim/wavs/cuban_mismatch_interrogative-total-yn_El-hombre-mira-la-luna.wav,1,,,74.9877,77.5903,0,0,2.0545,,0,8,8,29,1,30,1,cuban,,,,,,,,,,,,,,,,,,,,,,,,,,,,,,,,,,,,,,,,,,,,,,,,,,,,,,,,
,,,,,,,,,67180c619687ce86be82b29f,spanish,13 or older,"no, only English or Spanish",yes,2025-07-24_10h37.50.701,empathy_intonation_perc_control,2024.2.4,Win32,59.88023952,67180c619687ce86be82b29f,68817205a84113384fffdfe3,688244fccc9ca2917fb858d8,,,,,,,,,,,,./stim/wavs/cuban_match_interrogative-total-yn_Mariano-habla-del-tiempo.wav,1,,,77.5918,80.6808,0,0,2.5396,,0,9,9,10,1,11,1,cuban,,,,,,,,,,,,,,,,,,,,,,,,,,,,,,,,,,,,,,,,,,,,,,,,,,,,,,,,
,,,,,,,,,67180c619687ce86be82b29f,spanish,13 or older,"no, only English or Spanish",yes,2025-07-24_10h37.50.701,empathy_intonation_perc_control,2024.2.4,Win32,59.88023952,67180c619687ce86be82b29f,68817205a84113384fffdfe3,688244fccc9ca2917fb858d8,,,,,,,,,,,,./stim/wavs/castilian_mismatch_declarative-broad-focus_La-maestra-vive-en-Paris.wav,0,,,80.6814,83.5002,0,1,2.2726,,0,10,10,69,1,70,0,castilian,,,,,,,,,,,,,,,,,,,,,,,,,,,,,,,,,,,,,,,,,,,,,,,,,,,,,,,,
,,,,,,,,,67180c619687ce86be82b29f,spanish,13 or older,"no, only English or Spanish",yes,2025-07-24_10h37.50.701,empathy_intonation_perc_control,2024.2.4,Win32,59.88023952,67180c619687ce86be82b29f,68817205a84113384fffdfe3,688244fccc9ca2917fb858d8,,,,,,,,,,,,./stim/wavs/cuban_mismatch_declarative-broad-focus_El-hombre-mira-la-luna.wav,0,,,83.5009,85.936,0,1,1.9007,,0,11,11,74,1,75,0,cuban,,,,,,,,,,,,,,,,,,,,,,,,,,,,,,,,,,,,,,,,,,,,,,,,,,,,,,,,
,,,,,,,,,67180c619687ce86be82b29f,spanish,13 or older,"no, only English or Spanish",yes,2025-07-24_10h37.50.701,empathy_intonation_perc_control,2024.2.4,Win32,59.88023952,67180c619687ce86be82b29f,68817205a84113384fffdfe3,688244fccc9ca2917fb858d8,,,,,,,,,,,,./stim/wavs/mexican_mismatch_interrogative-total-yn_Mi-novio-viene-del-lago.wav,1,,,85.9371,88.7066,1,1,2.2205,,0,12,12,37,1,38,0,mexican,,,,,,,,,,,,,,,,,,,,,,,,,,,,,,,,,,,,,,,,,,,,,,,,,,,,,,,,
,,,,,,,,,67180c619687ce86be82b29f,spanish,13 or older,"no, only English or Spanish",yes,2025-07-24_10h37.50.701,empathy_intonation_perc_control,2024.2.4,Win32,59.88023952,67180c619687ce86be82b29f,68817205a84113384fffdfe3,688244fccc9ca2917fb858d8,,,,,,,,,,,,./stim/wavs/puertorican_mismatch_declarative-broad-focus_El-hombre-mira-la-luna.wav,0,,,88.7074,92.6719,0,1,3.4205,,0,13,13,84,1,85,0,puertorican,,,,,,,,,,,,,,,,,,,,,,,,,,,,,,,,,,,,,,,,,,,,,,,,,,,,,,,,
,,,,,,,,,67180c619687ce86be82b29f,spanish,13 or older,"no, only English or Spanish",yes,2025-07-24_10h37.50.701,empathy_intonation_perc_control,2024.2.4,Win32,59.88023952,67180c619687ce86be82b29f,68817205a84113384fffdfe3,688244fccc9ca2917fb858d8,,,,,,,,,,,,./stim/wavs/castilian_match_interrogative-total-yn_Maria-bebe-el-vino.wav,1,,,92.674,95.2592,1,1,2.0535,,0,14,14,3,1,4,0,castilian,,,,,,,,,,,,,,,,,,,,,,,,,,,,,,,,,,,,,,,,,,,,,,,,,,,,,,,,
,,,,,,,,,67180c619687ce86be82b29f,spanish,13 or older,"no, only English or Spanish",yes,2025-07-24_10h37.50.701,empathy_intonation_perc_control,2024.2.4,Win32,59.88023952,67180c619687ce86be82b29f,68817205a84113384fffdfe3,688244fccc9ca2917fb858d8,,,,,,,,,,,,./stim/wavs/cuban_match_declarative-broad-focus_Manuela-vende-el-carro.wav,0,,,95.2601,97.8937,0,1,2.1051,,0,15,15,52,1,53,0,cuban,,,,,,,,,,,,,,,,,,,,,,,,,,,,,,,,,,,,,,,,,,,,,,,,,,,,,,,,
,,,,,,,,,67180c619687ce86be82b29f,spanish,13 or older,"no, only English or Spanish",yes,2025-07-24_10h37.50.701,empathy_intonation_perc_control,2024.2.4,Win32,59.88023952,67180c619687ce86be82b29f,68817205a84113384fffdfe3,688244fccc9ca2917fb858d8,,,,,,,,,,,,./stim/wavs/puertorican_match_interrogative-total-yn_Maria-bebe-el-vino.wav,1,,,97.8951,100.2265,1,1,1.7958,,0,16,16,23,1,24,1,puertorican,,,,,,,,,,,,,,,,,,,,,,,,,,,,,,,,,,,,,,,,,,,,,,,,,,,,,,,,
,,,,,,,,,67180c619687ce86be82b29f,spanish,13 or older,"no, only English or Spanish",yes,2025-07-24_10h37.50.701,empathy_intonation_perc_control,2024.2.4,Win32,59.88023952,67180c619687ce86be82b29f,68817205a84113384fffdfe3,688244fccc9ca2917fb858d8,,,,,,,,,,,,./stim/wavs/cuban_mismatch_interrogative-total-yn_El-nino-oye-el-rio.wav,1,,,100.2275,103.0296,0,0,2.2537,,0,17,17,30,1,31,1,cuban,,,,,,,,,,,,,,,,,,,,,,,,,,,,,,,,,,,,,,,,,,,,,,,,,,,,,,,,
,,,,,,,,,67180c619687ce86be82b29f,spanish,13 or older,"no, only English or Spanish",yes,2025-07-24_10h37.50.701,empathy_intonation_perc_control,2024.2.4,Win32,59.88023952,67180c619687ce86be82b29f,68817205a84113384fffdfe3,688244fccc9ca2917fb858d8,,,,,,,,,,,,./stim/wavs/puertorican_match_declarative-broad-focus_Ana-lleva-el-abrigo.wav,0,,,103.0302,105.4183,0,1,1.8479,,0,18,18,62,1,63,0,puertorican,,,,,,,,,,,,,,,,,,,,,,,,,,,,,,,,,,,,,,,,,,,,,,,,,,,,,,,,
,,,,,,,,,67180c619687ce86be82b29f,spanish,13 or older,"no, only English or Spanish",yes,2025-07-24_10h37.50.701,empathy_intonation_perc_control,2024.2.4,Win32,59.88023952,67180c619687ce86be82b29f,68817205a84113384fffdfe3,688244fccc9ca2917fb858d8,,,,,,,,,,,,./stim/wavs/castilian_match_declarative-broad-focus_Manuela-vende-el-carro.wav,0,,,105.4192,108.136,0,1,2.1662,,0,19,19,46,1,47,0,castilian,,,,,,,,,,,,,,,,,,,,,,,,,,,,,,,,,,,,,,,,,,,,,,,,,,,,,,,,
,,,,,,,,,67180c619687ce86be82b29f,spanish,13 or older,"no, only English or Spanish",yes,2025-07-24_10h37.50.701,empathy_intonation_perc_control,2024.2.4,Win32,59.88023952,67180c619687ce86be82b29f,68817205a84113384fffdfe3,688244fccc9ca2917fb858d8,,,,,,,,,,,,./stim/wavs/castilian_mismatch_interrogative-total-yn_Mi-tia-odia-la-lluvia.wav,1,,,108.1367,110.8618,1,1,2.1832,,0,20,20,28,1,29,0,castilian,,,,,,,,,,,,,,,,,,,,,,,,,,,,,,,,,,,,,,,,,,,,,,,,,,,,,,,,
,,,,,,,,,67180c619687ce86be82b29f,spanish,13 or older,"no, only English or Spanish",yes,2025-07-24_10h37.50.701,empathy_intonation_perc_control,2024.2.4,Win32,59.88023952,67180c619687ce86be82b29f,68817205a84113384fffdfe3,688244fccc9ca2917fb858d8,,,,,,,,,,,,./stim/wavs/castilian_match_declarative-broad-focus_Mariano-habla-del-tiempo.wav,0,,,110.8628,113.71,0,1,2.316,,0,21,21,48,1,49,0,castilian,,,,,,,,,,,,,,,,,,,,,,,,,,,,,,,,,,,,,,,,,,,,,,,,,,,,,,,,
,,,,,,,,,67180c619687ce86be82b29f,spanish,13 or older,"no, only English or Spanish",yes,2025-07-24_10h37.50.701,empathy_intonation_perc_control,2024.2.4,Win32,59.88023952,67180c619687ce86be82b29f,68817205a84113384fffdfe3,688244fccc9ca2917fb858d8,,,,,,,,,,,,./stim/wavs/mexican_match_declarative-broad-focus_David-leia-el-libro.wav,0,,,113.711,116.4088,0,1,2.1624,,0,22,22,58,1,59,0,mexican,,,,,,,,,,,,,,,,,,,,,,,,,,,,,,,,,,,,,,,,,,,,,,,,,,,,,,,,
,,,,,,,,,67180c619687ce86be82b29f,spanish,13 or older,"no, only English or Spanish",yes,2025-07-24_10h37.50.701,empathy_intonation_perc_control,2024.2.4,Win32,59.88023952,67180c619687ce86be82b29f,68817205a84113384fffdfe3,688244fccc9ca2917fb858d8,,,,,,,,,,,,./stim/wavs/mexican_match_declarative-broad-focus_Ana-lleva-el-abrigo.wav,0,,,116.4098,118.7782,0,1,1.8193,,0,23,23,56,1,57,0,mexican,,,,,,,,,,,,,,,,,,,,,,,,,,,,,,,,,,,,,,,,,,,,,,,,,,,,,,,,
,,,,,,,,,67180c619687ce86be82b29f,spanish,13 or older,"no, only English or Spanish",yes,2025-07-24_10h37.50.701,empathy_intonation_perc_control,2024.2.4,Win32,59.88023952,67180c619687ce86be82b29f,68817205a84113384fffdfe3,688244fccc9ca2917fb858d8,,,,,,,,,,,,./stim/wavs/mexican_match_declarative-broad-focus_Daniel-iba-a-Bolivia.wav,0,,,118.7791,121.105,0,1,1.7803,,0,24,24,57,1,58,0,mexican,,,,,,,,,,,,,,,,,,,,,,,,,,,,,,,,,,,,,,,,,,,,,,,,,,,,,,,,
,,,,,,,,,67180c619687ce86be82b29f,spanish,13 or older,"no, only English or Spanish",yes,2025-07-24_10h37.50.701,empathy_intonation_perc_control,2024.2.4,Win32,59.88023952,67180c619687ce86be82b29f,68817205a84113384fffdfe3,688244fccc9ca2917fb858d8,,,,,,,,,,,,./stim/wavs/cuban_mismatch_interrogative-total-yn_Mi-madre-come-la-fruta.wav,1,,,121.1058,123.7847,0,0,2.1341,,0,25,25,31,1,32,1,cuban,,,,,,,,,,,,,,,,,,,,,,,,,,,,,,,,,,,,,,,,,,,,,,,,,,,,,,,,
,,,,,,,,,67180c619687ce86be82b29f,spanish,13 or older,"no, only English or Spanish",yes,2025-07-24_10h37.50.701,empathy_intonation_perc_control,2024.2.4,Win32,59.88023952,67180c619687ce86be82b29f,68817205a84113384fffdfe3,688244fccc9ca2917fb858d8,,,,,,,,,,,,./stim/wavs/puertorican_mismatch_declarative-broad-focus_La-maestra-vive-en-Paris.wav,0,,,123.7857,126.5258,0,1,2.2056,,0,26,26,86,1,87,0,puertorican,,,,,,,,,,,,,,,,,,,,,,,,,,,,,,,,,,,,,,,,,,,,,,,,,,,,,,,,
,,,,,,,,,67180c619687ce86be82b29f,spanish,13 or older,"no, only English or Spanish",yes,2025-07-24_10h37.50.701,empathy_intonation_perc_control,2024.2.4,Win32,59.88023952,67180c619687ce86be82b29f,68817205a84113384fffdfe3,688244fccc9ca2917fb858d8,,,,,,,,,,,,./stim/wavs/puertorican_mismatch_interrogative-total-yn_Mi-madre-come-la-fruta.wav,1,,,126.5269,128.8922,0,0,1.818,,0,27,27,43,1,44,1,puertorican,,,,,,,,,,,,,,,,,,,,,,,,,,,,,,,,,,,,,,,,,,,,,,,,,,,,,,,,
,,,,,,,,,67180c619687ce86be82b29f,spanish,13 or older,"no, only English or Spanish",yes,2025-07-24_10h37.50.701,empathy_intonation_perc_control,2024.2.4,Win32,59.88023952,67180c619687ce86be82b29f,68817205a84113384fffdfe3,688244fccc9ca2917fb858d8,,,,,,,,,,,,./stim/wavs/cuban_match_interrogative-total-yn_Maria-bebe-el-vino.wav,1,,,128.8937,131.4102,0,0,1.9831,,0,28,28,9,1,10,1,cuban,,,,,,,,,,,,,,,,,,,,,,,,,,,,,,,,,,,,,,,,,,,,,,,,,,,,,,,,
,,,,,,,,,67180c619687ce86be82b29f,spanish,13 or older,"no, only English or Spanish",yes,2025-07-24_10h37.50.701,empathy_intonation_perc_control,2024.2.4,Win32,59.88023952,67180c619687ce86be82b29f,68817205a84113384fffdfe3,688244fccc9ca2917fb858d8,,,,,,,,,,,,./stim/wavs/cuban_mismatch_interrogative-total-yn_Mi-tia-odia-la-lluvia.wav,1,,,131.4111,133.9786,0,0,2.0325,,0,29,29,33,1,34,1,cuban,,,,,,,,,,,,,,,,,,,,,,,,,,,,,,,,,,,,,,,,,,,,,,,,,,,,,,,,
,,,,,,,,,67180c619687ce86be82b29f,spanish,13 or older,"no, only English or Spanish",yes,2025-07-24_10h37.50.701,empathy_intonation_perc_control,2024.2.4,Win32,59.88023952,67180c619687ce86be82b29f,68817205a84113384fffdfe3,688244fccc9ca2917fb858d8,,,,,,,,,,,,./stim/wavs/cuban_mismatch_declarative-broad-focus_Mi-tia-odia-la-lluvia.wav,0,,,133.9793,136.5503,0,1,2.0246,,0,30,30,77,1,78,0,cuban,,,,,,,,,,,,,,,,,,,,,,,,,,,,,,,,,,,,,,,,,,,,,,,,,,,,,,,,
,,,,,,,,,67180c619687ce86be82b29f,spanish,13 or older,"no, only English or Spanish",yes,2025-07-24_10h37.50.701,empathy_intonation_perc_control,2024.2.4,Win32,59.88023952,67180c619687ce86be82b29f,68817205a84113384fffdfe3,688244fccc9ca2917fb858d8,,,,,,,,,,,,./stim/wavs/castilian_match_interrogative-total-yn_Marta-abre-el-regalo.wav,1,,,136.5511,139.2662,1,1,2.1851,,0,31,31,5,1,6,0,castilian,,,,,,,,,,,,,,,,,,,,,,,,,,,,,,,,,,,,,,,,,,,,,,,,,,,,,,,,
,,,,,,,,,67180c619687ce86be82b29f,spanish,13 or older,"no, only English or Spanish",yes,2025-07-24_10h37.50.701,empathy_intonation_perc_control,2024.2.4,Win32,59.88023952,67180c619687ce86be82b29f,68817205a84113384fffdfe3,688244fccc9ca2917fb858d8,,,,,,,,,,,,./stim/wavs/cuban_match_declarative-broad-focus_Daniel-iba-a-Bolivia.wav,0,,,139.2672,141.8567,0,1,2.0407,,0,32,32,51,1,52,0,cuban,,,,,,,,,,,,,,,,,,,,,,,,,,,,,,,,,,,,,,,,,,,,,,,,,,,,,,,,
,,,,,,,,,67180c619687ce86be82b29f,spanish,13 or older,"no, only English or Spanish",yes,2025-07-24_10h37.50.701,empathy_intonation_perc_control,2024.2.4,Win32,59.88023952,67180c619687ce86be82b29f,68817205a84113384fffdfe3,688244fccc9ca2917fb858d8,,,,,,,,,,,,./stim/wavs/puertorican_match_interrogative-total-yn_Daniel-iba-a-Bolivia.wav,1,,,141.858,144.1363,0,0,1.7259,,0,33,33,19,1,20,1,puertorican,,,,,,,,,,,,,,,,,,,,,,,,,,,,,,,,,,,,,,,,,,,,,,,,,,,,,,,,
,,,,,,,,,67180c619687ce86be82b29f,spanish,13 or older,"no, only English or Spanish",yes,2025-07-24_10h37.50.701,empathy_intonation_perc_control,2024.2.4,Win32,59.88023952,67180c619687ce86be82b29f,68817205a84113384fffdfe3,688244fccc9ca2917fb858d8,,,,,,,,,,,,./stim/wavs/cuban_match_declarative-broad-focus_Ana-lleva-el-abrigo.wav,0,,,144.1373,146.8782,0,1,2.2048,,0,34,34,50,1,51,0,cuban,,,,,,,,,,,,,,,,,,,,,,,,,,,,,,,,,,,,,,,,,,,,,,,,,,,,,,,,
,,,,,,,,,67180c619687ce86be82b29f,spanish,13 or older,"no, only English or Spanish",yes,2025-07-24_10h37.50.701,empathy_intonation_perc_control,2024.2.4,Win32,59.88023952,67180c619687ce86be82b29f,68817205a84113384fffdfe3,688244fccc9ca2917fb858d8,,,,,,,,,,,,./stim/wavs/mexican_match_interrogative-total-yn_David-leia-el-libro.wav,1,,,146.8791,149.684,1,1,2.2725,,0,35,35,14,1,15,0,mexican,,,,,,,,,,,,,,,,,,,,,,,,,,,,,,,,,,,,,,,,,,,,,,,,,,,,,,,,
,,,,,,,,,67180c619687ce86be82b29f,spanish,13 or older,"no, only English or Spanish",yes,2025-07-24_10h37.50.701,empathy_intonation_perc_control,2024.2.4,Win32,59.88023952,67180c619687ce86be82b29f,68817205a84113384fffdfe3,688244fccc9ca2917fb858d8,,,,,,,,,,,,./stim/wavs/castilian_mismatch_declarative-broad-focus_La-nina-lava-el-plato.wav,0,,,149.6848,152.4895,0,1,2.2379,,0,36,36,70,1,71,0,castilian,,,,,,,,,,,,,,,,,,,,,,,,,,,,,,,,,,,,,,,,,,,,,,,,,,,,,,,,
,,,,,,,,,67180c619687ce86be82b29f,spanish,13 or older,"no, only English or Spanish",yes,2025-07-24_10h37.50.701,empathy_intonation_perc_control,2024.2.4,Win32,59.88023952,67180c619687ce86be82b29f,68817205a84113384fffdfe3,688244fccc9ca2917fb858d8,,,,,,,,,,,,./stim/wavs/cuban_mismatch_declarative-broad-focus_La-nina-lava-el-plato.wav,0,,,152.4903,154.9951,0,1,1.9684,,0,37,37,75,1,76,0,cuban,,,,,,,,,,,,,,,,,,,,,,,,,,,,,,,,,,,,,,,,,,,,,,,,,,,,,,,,
,,,,,,,,,67180c619687ce86be82b29f,spanish,13 or older,"no, only English or Spanish",yes,2025-07-24_10h37.50.701,empathy_intonation_perc_control,2024.2.4,Win32,59.88023952,67180c619687ce86be82b29f,68817205a84113384fffdfe3,688244fccc9ca2917fb858d8,,,,,,,,,,,,./stim/wavs/puertorican_match_interrogative-total-yn_Emilio-ama-la-marcha.wav,1,,,154.9964,157.6081,0,0,2.0621,,0,38,38,21,1,22,1,puertorican,,,,,,,,,,,,,,,,,,,,,,,,,,,,,,,,,,,,,,,,,,,,,,,,,,,,,,,,
,,,,,,,,,67180c619687ce86be82b29f,spanish,13 or older,"no, only English or Spanish",yes,2025-07-24_10h37.50.701,empathy_intonation_perc_control,2024.2.4,Win32,59.88023952,67180c619687ce86be82b29f,68817205a84113384fffdfe3,688244fccc9ca2917fb858d8,,,,,,,,,,,,./stim/wavs/castilian_mismatch_interrogative-total-yn_La-maestra-vive-en-Paris.wav,1,,,157.6089,161.0564,1,1,2.9096,,0,39,39,24,1,25,0,castilian,,,,,,,,,,,,,,,,,,,,,,,,,,,,,,,,,,,,,,,,,,,,,,,,,,,,,,,,
,,,,,,,,,67180c619687ce86be82b29f,spanish,13 or older,"no, only English or Spanish",yes,2025-07-24_10h37.50.701,empathy_intonation_perc_control,2024.2.4,Win32,59.88023952,67180c619687ce86be82b29f,68817205a84113384fffdfe3,688244fccc9ca2917fb858d8,,,,,,,,,,,,./stim/wavs/puertorican_mismatch_interrogative-total-yn_La-maestra-vive-en-Paris.wav,1,,,161.0573,163.6574,0,0,2.0526,,0,40,40,41,1,42,1,puertorican,,,,,,,,,,,,,,,,,,,,,,,,,,,,,,,,,,,,,,,,,,,,,,,,,,,,,,,,
,,,,,,,,,67180c619687ce86be82b29f,spanish,13 or older,"no, only English or Spanish",yes,2025-07-24_10h37.50.701,empathy_intonation_perc_control,2024.2.4,Win32,59.88023952,67180c619687ce86be82b29f,68817205a84113384fffdfe3,688244fccc9ca2917fb858d8,,,,,,,,,,,,./stim/wavs/mexican_match_interrogative-total-yn_Mariano-habla-del-tiempo.wav,1,,,163.6589,166.747,1,1,2.5539,,0,41,41,16,1,17,0,mexican,,,,,,,,,,,,,,,,,,,,,,,,,,,,,,,,,,,,,,,,,,,,,,,,,,,,,,,,
,,,,,,,,,67180c619687ce86be82b29f,spanish,13 or older,"no, only English or Spanish",yes,2025-07-24_10h37.50.701,empathy_intonation_perc_control,2024.2.4,Win32,59.88023952,67180c619687ce86be82b29f,68817205a84113384fffdfe3,688244fccc9ca2917fb858d8,,,,,,,,,,,,./stim/wavs/puertorican_match_declarative-broad-focus_Manuela-vende-el-carro.wav,0,,,166.7477,169.1981,0,1,1.918,,0,42,42,66,1,67,0,puertorican,,,,,,,,,,,,,,,,,,,,,,,,,,,,,,,,,,,,,,,,,,,,,,,,,,,,,,,,
,,,,,,,,,67180c619687ce86be82b29f,spanish,13 or older,"no, only English or Spanish",yes,2025-07-24_10h37.50.701,empathy_intonation_perc_control,2024.2.4,Win32,59.88023952,67180c619687ce86be82b29f,68817205a84113384fffdfe3,688244fccc9ca2917fb858d8,,,,,,,,,,,,./stim/wavs/castilian_mismatch_interrogative-total-yn_Mi-madre-come-la-fruta.wav,1,,,169.1991,172.505,1,1,2.767,,0,43,43,26,1,27,0,castilian,,,,,,,,,,,,,,,,,,,,,,,,,,,,,,,,,,,,,,,,,,,,,,,,,,,,,,,,
,,,,,,,,,67180c619687ce86be82b29f,spanish,13 or older,"no, only English or Spanish",yes,2025-07-24_10h37.50.701,empathy_intonation_perc_control,2024.2.4,Win32,59.88023952,67180c619687ce86be82b29f,68817205a84113384fffdfe3,688244fccc9ca2917fb858d8,,,,,,,,,,,,./stim/wavs/mexican_mismatch_interrogative-total-yn_El-hombre-mira-la-luna.wav,1,,,172.5063,175.2661,1,1,2.2183,,0,44,44,34,1,35,0,mexican,,,,,,,,,,,,,,,,,,,,,,,,,,,,,,,,,,,,,,,,,,,,,,,,,,,,,,,,
,,,,,,,,,67180c619687ce86be82b29f,spanish,13 or older,"no, only English or Spanish",yes,2025-07-24_10h37.50.701,empathy_intonation_perc_control,2024.2.4,Win32,59.88023952,67180c619687ce86be82b29f,68817205a84113384fffdfe3,688244fccc9ca2917fb858d8,,,,,,,,,,,,./stim/wavs/mexican_match_interrogative-total-yn_Daniel-iba-a-Bolivia.wav,1,,,175.268,177.8416,1,1,2.0341,,0,45,45,13,1,14,0,mexican,,,,,,,,,,,,,,,,,,,,,,,,,,,,,,,,,,,,,,,,,,,,,,,,,,,,,,,,
,,,,,,,,,67180c619687ce86be82b29f,spanish,13 or older,"no, only English or Spanish",yes,2025-07-24_10h37.50.701,empathy_intonation_perc_control,2024.2.4,Win32,59.88023952,67180c619687ce86be82b29f,68817205a84113384fffdfe3,688244fccc9ca2917fb858d8,,,,,,,,,,,,./stim/wavs/castilian_match_interrogative-total-yn_Emilio-ama-la-marcha.wav,1,,,177.8423,180.5568,1,1,2.1676,,0,46,46,1,1,2,0,castilian,,,,,,,,,,,,,,,,,,,,,,,,,,,,,,,,,,,,,,,,,,,,,,,,,,,,,,,,
,,,,,,,,,67180c619687ce86be82b29f,spanish,13 or older,"no, only English or Spanish",yes,2025-07-24_10h37.50.701,empathy_intonation_perc_control,2024.2.4,Win32,59.88023952,67180c619687ce86be82b29f,68817205a84113384fffdfe3,688244fccc9ca2917fb858d8,,,,,,,,,,,,./stim/wavs/mexican_match_declarative-broad-focus_Marta-abre-el-regalo.wav,0,,,180.5579,182.9183,0,1,1.8209,,0,47,47,61,1,62,0,mexican,,,,,,,,,,,,,,,,,,,,,,,,,,,,,,,,,,,,,,,,,,,,,,,,,,,,,,,,
,,,,,,,,,67180c619687ce86be82b29f,spanish,13 or older,"no, only English or Spanish",yes,2025-07-24_10h37.50.701,empathy_intonation_perc_control,2024.2.4,Win32,59.88023952,67180c619687ce86be82b29f,68817205a84113384fffdfe3,688244fccc9ca2917fb858d8,,,,,,,,,,,,./stim/wavs/castilian_mismatch_interrogative-total-yn_La-nina-lava-el-plato.wav,1,,,182.9202,185.6042,1,1,2.1439,,0,48,48,25,1,26,0,castilian,,,,,,,,,,,,,,,,,,,,,,,,,,,,,,,,,,,,,,,,,,,,,,,,,,,,,,,,
,,,,,,,,,67180c619687ce86be82b29f,spanish,13 or older,"no, only English or Spanish",yes,2025-07-24_10h37.50.701,empathy_intonation_perc_control,2024.2.4,Win32,59.88023952,67180c619687ce86be82b29f,68817205a84113384fffdfe3,688244fccc9ca2917fb858d8,,,,,,,,,,,,./stim/wavs/mexican_mismatch_declarative-broad-focus_La-maestra-vive-en-Paris.wav,0,,,185.6056,188.2965,0,1,2.1599,,0,49,49,80,1,81,0,mexican,,,,,,,,,,,,,,,,,,,,,,,,,,,,,,,,,,,,,,,,,,,,,,,,,,,,,,,,
,,,,,,,,,67180c619687ce86be82b29f,spanish,13 or older,"no, only English or Spanish",yes,2025-07-24_10h37.50.701,empathy_intonation_perc_control,2024.2.4,Win32,59.88023952,67180c619687ce86be82b29f,68817205a84113384fffdfe3,688244fccc9ca2917fb858d8,,,,,,,,,,,,./stim/wavs/puertorican_match_declarative-broad-focus_Daniel-iba-a-Bolivia.wav,0,,,188.2982,190.9187,0,1,2.0834,,0,50,50,63,1,64,0,puertorican,,,,,,,,,,,,,,,,,,,,,,,,,,,,,,,,,,,,,,,,,,,,,,,,,,,,,,,,
,,,,,,,,,67180c619687ce86be82b29f,spanish,13 or older,"no, only English or Spanish",yes,2025-07-24_10h37.50.701,empathy_intonation_perc_control,2024.2.4,Win32,59.88023952,67180c619687ce86be82b29f,68817205a84113384fffdfe3,688244fccc9ca2917fb858d8,,,,,,,,,,,,./stim/wavs/cuban_match_interrogative-total-yn_Ana-lleva-el-abrigo.wav,1,,,190.9202,193.5439,0,0,2.0865,,0,51,51,6,1,7,1,cuban,,,,,,,,,,,,,,,,,,,,,,,,,,,,,,,,,,,,,,,,,,,,,,,,,,,,,,,,
,,,,,,,,,67180c619687ce86be82b29f,spanish,13 or older,"no, only English or Spanish",yes,2025-07-24_10h37.50.701,empathy_intonation_perc_control,2024.2.4,Win32,59.88023952,67180c619687ce86be82b29f,68817205a84113384fffdfe3,688244fccc9ca2917fb858d8,,,,,,,,,,,,./stim/wavs/castilian_match_interrogative-total-yn_Mariano-habla-del-tiempo.wav,1,,,193.545,196.263,1,1,2.1876,,0,52,52,4,1,5,0,castilian,,,,,,,,,,,,,,,,,,,,,,,,,,,,,,,,,,,,,,,,,,,,,,,,,,,,,,,,
,,,,,,,,,67180c619687ce86be82b29f,spanish,13 or older,"no, only English or Spanish",yes,2025-07-24_10h37.50.701,empathy_intonation_perc_control,2024.2.4,Win32,59.88023952,67180c619687ce86be82b29f,68817205a84113384fffdfe3,688244fccc9ca2917fb858d8,,,,,,,,,,,,./stim/wavs/castilian_match_declarative-broad-focus_David-leia-el-libro.wav,0,,,196.2647,198.9651,0,1,2.1554,,0,53,53,44,1,45,0,castilian,,,,,,,,,,,,,,,,,,,,,,,,,,,,,,,,,,,,,,,,,,,,,,,,,,,,,,,,
,,,,,,,,,67180c619687ce86be82b29f,spanish,13 or older,"no, only English or Spanish",yes,2025-07-24_10h37.50.701,empathy_intonation_perc_control,2024.2.4,Win32,59.88023952,67180c619687ce86be82b29f,68817205a84113384fffdfe3,688244fccc9ca2917fb858d8,,,,,,,,,,,,./stim/wavs/cuban_match_declarative-broad-focus_Mariano-habla-del-tiempo.wav,0,,,198.9662,201.816,0,1,2.2992,,0,54,54,54,1,55,0,cuban,,,,,,,,,,,,,,,,,,,,,,,,,,,,,,,,,,,,,,,,,,,,,,,,,,,,,,,,
,,,,,,,,,67180c619687ce86be82b29f,spanish,13 or older,"no, only English or Spanish",yes,2025-07-24_10h37.50.701,empathy_intonation_perc_control,2024.2.4,Win32,59.88023952,67180c619687ce86be82b29f,68817205a84113384fffdfe3,688244fccc9ca2917fb858d8,,,,,,,,,,,,./stim/wavs/castilian_mismatch_declarative-broad-focus_El-nino-oye-el-rio.wav,0,,,201.8172,204.4866,0,1,2.1449,,0,55,55,68,1,69,0,castilian,,,,,,,,,,,,,,,,,,,,,,,,,,,,,,,,,,,,,,,,,,,,,,,,,,,,,,,,
,,,,,,,,,67180c619687ce86be82b29f,spanish,13 or older,"no, only English or Spanish",yes,2025-07-24_10h37.50.701,empathy_intonation_perc_control,2024.2.4,Win32,59.88023952,67180c619687ce86be82b29f,68817205a84113384fffdfe3,688244fccc9ca2917fb858d8,,,,,,,,,,,,./stim/wavs/cuban_mismatch_declarative-broad-focus_El-bebe-comia-muy-bien.wav,0,,,204.4875,207.3202,0,1,2.3131,,0,56,56,73,1,74,0,cuban,,,,,,,,,,,,,,,,,,,,,,,,,,,,,,,,,,,,,,,,,,,,,,,,,,,,,,,,
,,,,,,,,,67180c619687ce86be82b29f,spanish,13 or older,"no, only English or Spanish",yes,2025-07-24_10h37.50.701,empathy_intonation_perc_control,2024.2.4,Win32,59.88023952,67180c619687ce86be82b29f,68817205a84113384fffdfe3,688244fccc9ca2917fb858d8,,,,,,,,,,,,./stim/wavs/cuban_mismatch_declarative-broad-focus_Mi-novio-viene-del-lago.wav,0,,,207.3217,209.8563,0,1,2.0008,,0,57,57,76,1,77,0,cuban,,,,,,,,,,,,,,,,,,,,,,,,,,,,,,,,,,,,,,,,,,,,,,,,,,,,,,,,
,,,,,,,,,67180c619687ce86be82b29f,spanish,13 or older,"no, only English or Spanish",yes,2025-07-24_10h37.50.701,empathy_intonation_perc_control,2024.2.4,Win32,59.88023952,67180c619687ce86be82b29f,68817205a84113384fffdfe3,688244fccc9ca2917fb858d8,,,,,,,,,,,,./stim/wavs/puertorican_match_interrogative-total-yn_Ana-lleva-el-abrigo.wav,1,,,209.8571,212.9042,1,1,2.5134,,0,58,58,18,1,19,1,puertorican,,,,,,,,,,,,,,,,,,,,,,,,,,,,,,,,,,,,,,,,,,,,,,,,,,,,,,,,
,,,,,,,,,67180c619687ce86be82b29f,spanish,13 or older,"no, only English or Spanish",yes,2025-07-24_10h37.50.701,empathy_intonation_perc_control,2024.2.4,Win32,59.88023952,67180c619687ce86be82b29f,68817205a84113384fffdfe3,688244fccc9ca2917fb858d8,,,,,,,,,,,,./stim/wavs/puertorican_mismatch_interrogative-total-yn_El-hombre-mira-la-luna.wav,1,,,212.9054,215.5566,1,1,2.1231,,0,59,59,39,1,40,1,puertorican,,,,,,,,,,,,,,,,,,,,,,,,,,,,,,,,,,,,,,,,,,,,,,,,,,,,,,,,
,,,,,,,,,67180c619687ce86be82b29f,spanish,13 or older,"no, only English or Spanish",yes,2025-07-24_10h37.50.701,empathy_intonation_perc_control,2024.2.4,Win32,59.88023952,67180c619687ce86be82b29f,68817205a84113384fffdfe3,688244fccc9ca2917fb858d8,,,,,,,,,,,,./stim/wavs/puertorican_match_interrogative-total-yn_Manuela-vende-el-carro.wav,1,,,215.5576,220.1021,1,1,4.009,,0,60,60,22,1,23,1,puertorican,,,,,,,,,,,,,,,,,,,,,,,,,,,,,,,,,,,,,,,,,,,,,,,,,,,,,,,,
,,,,,,,,,67180c619687ce86be82b29f,spanish,13 or older,"no, only English or Spanish",yes,2025-07-24_10h37.50.701,empathy_intonation_perc_control,2024.2.4,Win32,59.88023952,67180c619687ce86be82b29f,68817205a84113384fffdfe3,688244fccc9ca2917fb858d8,,,,,,,,,,,,./stim/wavs/cuban_mismatch_interrogative-total-yn_Mi-novio-viene-del-lago.wav,1,,,220.1032,222.6076,0,0,1.9558,,0,61,61,32,1,33,1,cuban,,,,,,,,,,,,,,,,,,,,,,,,,,,,,,,,,,,,,,,,,,,,,,,,,,,,,,,,
,,,,,,,,,67180c619687ce86be82b29f,spanish,13 or older,"no, only English or Spanish",yes,2025-07-24_10h37.50.701,empathy_intonation_perc_control,2024.2.4,Win32,59.88023952,67180c619687ce86be82b29f,68817205a84113384fffdfe3,688244fccc9ca2917fb858d8,,,,,,,,,,,,./stim/wavs/mexican_match_interrogative-total-yn_Emilio-ama-la-marcha.wav,1,,,222.6087,225.2216,1,1,2.0798,,0,62,62,15,1,16,0,mexican,,,,,,,,,,,,,,,,,,,,,,,,,,,,,,,,,,,,,,,,,,,,,,,,,,,,,,,,
,,,,,,,,,67180c619687ce86be82b29f,spanish,13 or older,"no, only English or Spanish",yes,2025-07-24_10h37.50.701,empathy_intonation_perc_control,2024.2.4,Win32,59.88023952,67180c619687ce86be82b29f,68817205a84113384fffdfe3,688244fccc9ca2917fb858d8,,,,,,,,,,,,./stim/wavs/cuban_match_declarative-broad-focus_Marta-abre-el-regalo.wav,0,,,225.2225,227.7411,0,1,1.9903,,0,63,63,55,1,56,0,cuban,,,,,,,,,,,,,,,,,,,,,,,,,,,,,,,,,,,,,,,,,,,,,,,,,,,,,,,,
,,,,,,,,,67180c619687ce86be82b29f,spanish,13 or older,"no, only English or Spanish",yes,2025-07-24_10h37.50.701,empathy_intonation_perc_control,2024.2.4,Win32,59.88023952,67180c619687ce86be82b29f,68817205a84113384fffdfe3,688244fccc9ca2917fb858d8,,,,,,,,,,,,./stim/wavs/mexican_mismatch_interrogative-total-yn_Mi-tia-odia-la-lluvia.wav,1,,,227.742,230.3606,1,1,2.0807,,0,64,64,38,1,39,0,mexican,,,,,,,,,,,,,,,,,,,,,,,,,,,,,,,,,,,,,,,,,,,,,,,,,,,,,,,,
,,,,,,,,,67180c619687ce86be82b29f,spanish,13 or older,"no, only English or Spanish",yes,2025-07-24_10h37.50.701,empathy_intonation_perc_control,2024.2.4,Win32,59.88023952,67180c619687ce86be82b29f,68817205a84113384fffdfe3,688244fccc9ca2917fb858d8,,,,,,,,,,,,./stim/wavs/cuban_match_declarative-broad-focus_Maria-bebe-el-vino.wav,0,,,230.3613,233.1587,0,1,2.2452,,0,65,65,53,1,54,0,cuban,,,,,,,,,,,,,,,,,,,,,,,,,,,,,,,,,,,,,,,,,,,,,,,,,,,,,,,,
,,,,,,,,,67180c619687ce86be82b29f,spanish,13 or older,"no, only English or Spanish",yes,2025-07-24_10h37.50.701,empathy_intonation_perc_control,2024.2.4,Win32,59.88023952,67180c619687ce86be82b29f,68817205a84113384fffdfe3,688244fccc9ca2917fb858d8,,,,,,,,,,,,./stim/wavs/puertorican_mismatch_declarative-broad-focus_La-nina-lava-el-plato.wav,0,,,233.1616,235.6456,0,1,1.9387,,0,66,66,87,1,88,0,puertorican,,,,,,,,,,,,,,,,,,,,,,,,,,,,,,,,,,,,,,,,,,,,,,,,,,,,,,,,
,,,,,,,,,67180c619687ce86be82b29f,spanish,13 or older,"no, only English or Spanish",yes,2025-07-24_10h37.50.701,empathy_intonation_perc_control,2024.2.4,Win32,59.88023952,67180c619687ce86be82b29f,68817205a84113384fffdfe3,688244fccc9ca2917fb858d8,,,,,,,,,,,,./stim/wavs/puertorican_mismatch_interrogative-total-yn_La-nina-lava-el-plato.wav,1,,,235.6474,238.0517,0,0,1.8718,,0,67,67,42,1,43,1,puertorican,,,,,,,,,,,,,,,,,,,,,,,,,,,,,,,,,,,,,,,,,,,,,,,,,,,,,,,,
,,,,,,,,,67180c619687ce86be82b29f,spanish,13 or older,"no, only English or Spanish",yes,2025-07-24_10h37.50.701,empathy_intonation_perc_control,2024.2.4,Win32,59.88023952,67180c619687ce86be82b29f,68817205a84113384fffdfe3,688244fccc9ca2917fb858d8,,,,,,,,,,,,./stim/wavs/mexican_match_interrogative-total-yn_Marta-abre-el-regalo.wav,1,,,238.0526,240.5512,1,1,1.9649,,0,68,68,17,1,18,0,mexican,,,,,,,,,,,,,,,,,,,,,,,,,,,,,,,,,,,,,,,,,,,,,,,,,,,,,,,,
,,,,,,,,,67180c619687ce86be82b29f,spanish,13 or older,"no, only English or Spanish",yes,2025-07-24_10h37.50.701,empathy_intonation_perc_control,2024.2.4,Win32,59.88023952,67180c619687ce86be82b29f,68817205a84113384fffdfe3,688244fccc9ca2917fb858d8,,,,,,,,,,,,./stim/wavs/mexican_mismatch_interrogative-total-yn_La-maestra-vive-en-Paris.wav,1,,,240.552,243.3169,1,1,2.2278,,0,69,69,36,1,37,0,mexican,,,,,,,,,,,,,,,,,,,,,,,,,,,,,,,,,,,,,,,,,,,,,,,,,,,,,,,,
,,,,,,,,,67180c619687ce86be82b29f,spanish,13 or older,"no, only English or Spanish",yes,2025-07-24_10h37.50.701,empathy_intonation_perc_control,2024.2.4,Win32,59.88023952,67180c619687ce86be82b29f,68817205a84113384fffdfe3,688244fccc9ca2917fb858d8,,,,,,,,,,,,./stim/wavs/puertorican_match_declarative-broad-focus_Emilio-ama-la-marcha.wav,0,,,243.3181,245.7409,0,1,1.8959,,0,70,70,65,1,66,0,puertorican,,,,,,,,,,,,,,,,,,,,,,,,,,,,,,,,,,,,,,,,,,,,,,,,,,,,,,,,
,,,,,,,,,67180c619687ce86be82b29f,spanish,13 or older,"no, only English or Spanish",yes,2025-07-24_10h37.50.701,empathy_intonation_perc_control,2024.2.4,Win32,59.88023952,67180c619687ce86be82b29f,68817205a84113384fffdfe3,688244fccc9ca2917fb858d8,,,,,,,,,,,,./stim/wavs/castilian_match_declarative-broad-focus_Emilio-ama-la-marcha.wav,0,,,245.7417,248.3414,0,1,2.0511,,0,71,71,45,1,46,0,castilian,,,,,,,,,,,,,,,,,,,,,,,,,,,,,,,,,,,,,,,,,,,,,,,,,,,,,,,,
,,,,,,,,,67180c619687ce86be82b29f,spanish,13 or older,"no, only English or Spanish",yes,2025-07-24_10h37.50.701,empathy_intonation_perc_control,2024.2.4,Win32,59.88023952,67180c619687ce86be82b29f,68817205a84113384fffdfe3,688244fccc9ca2917fb858d8,,,,,,,,,,,,./stim/wavs/castilian_match_declarative-broad-focus_Marta-abre-el-regalo.wav,0,,,248.3443,250.7964,0,1,1.9122,,0,72,72,49,1,50,0,castilian,,,,,,,,,,,,,,,,,,,,,,,,,,,,,,,,,,,,,,,,,,,,,,,,,,,,,,,,
,,,,,,,,,67180c619687ce86be82b29f,spanish,13 or older,"no, only English or Spanish",yes,2025-07-24_10h37.50.701,empathy_intonation_perc_control,2024.2.4,Win32,59.88023952,67180c619687ce86be82b29f,68817205a84113384fffdfe3,688244fccc9ca2917fb858d8,,,,,,,,,,,,./stim/wavs/castilian_match_declarative-broad-focus_Maria-bebe-el-vino.wav,0,,,250.7974,253.5506,0,1,2.2276,,0,73,73,47,1,48,0,castilian,,,,,,,,,,,,,,,,,,,,,,,,,,,,,,,,,,,,,,,,,,,,,,,,,,,,,,,,
,,,,,,,,,67180c619687ce86be82b29f,spanish,13 or older,"no, only English or Spanish",yes,2025-07-24_10h37.50.701,empathy_intonation_perc_control,2024.2.4,Win32,59.88023952,67180c619687ce86be82b29f,68817205a84113384fffdfe3,688244fccc9ca2917fb858d8,,,,,,,,,,,,./stim/wavs/mexican_match_declarative-broad-focus_Mariano-habla-del-tiempo.wav,0,,,253.5513,256.0534,0,1,1.9565,,0,74,74,60,1,61,0,mexican,,,,,,,,,,,,,,,,,,,,,,,,,,,,,,,,,,,,,,,,,,,,,,,,,,,,,,,,
,,,,,,,,,67180c619687ce86be82b29f,spanish,13 or older,"no, only English or Spanish",yes,2025-07-24_10h37.50.701,empathy_intonation_perc_control,2024.2.4,Win32,59.88023952,67180c619687ce86be82b29f,68817205a84113384fffdfe3,688244fccc9ca2917fb858d8,,,,,,,,,,,,./stim/wavs/castilian_mismatch_interrogative-total-yn_Mi-novio-viene-del-lago.wav,1,,,256.0541,258.8557,0,0,2.2701,,0,75,75,27,1,28,0,castilian,,,,,,,,,,,,,,,,,,,,,,,,,,,,,,,,,,,,,,,,,,,,,,,,,,,,,,,,
,,,,,,,,,67180c619687ce86be82b29f,spanish,13 or older,"no, only English or Spanish",yes,2025-07-24_10h37.50.701,empathy_intonation_perc_control,2024.2.4,Win32,59.88023952,67180c619687ce86be82b29f,68817205a84113384fffdfe3,688244fccc9ca2917fb858d8,,,,,,,,,,,,./stim/wavs/puertorican_mismatch_declarative-broad-focus_El-bebe-comia-muy-bien.wav,0,,,258.857,261.5733,0,1,2.1653,,0,76,76,83,1,84,0,puertorican,,,,,,,,,,,,,,,,,,,,,,,,,,,,,,,,,,,,,,,,,,,,,,,,,,,,,,,,
,,,,,,,,,67180c619687ce86be82b29f,spanish,13 or older,"no, only English or Spanish",yes,2025-07-24_10h37.50.701,empathy_intonation_perc_control,2024.2.4,Win32,59.88023952,67180c619687ce86be82b29f,68817205a84113384fffdfe3,688244fccc9ca2917fb858d8,,,,,,,,,,,,./stim/wavs/puertorican_match_declarative-broad-focus_David-leia-el-libro.wav,0,,,261.5745,263.9656,0,1,1.8562,,0,77,77,64,1,65,0,puertorican,,,,,,,,,,,,,,,,,,,,,,,,,,,,,,,,,,,,,,,,,,,,,,,,,,,,,,,,
,,,,,,,,,67180c619687ce86be82b29f,spanish,13 or older,"no, only English or Spanish",yes,2025-07-24_10h37.50.701,empathy_intonation_perc_control,2024.2.4,Win32,59.88023952,67180c619687ce86be82b29f,68817205a84113384fffdfe3,688244fccc9ca2917fb858d8,,,,,,,,,,,,./stim/wavs/puertorican_match_interrogative-total-yn_David-leia-el-libro.wav,1,,,263.9671,267.1992,0,0,2.6865,,0,78,78,20,1,21,1,puertorican,,,,,,,,,,,,,,,,,,,,,,,,,,,,,,,,,,,,,,,,,,,,,,,,,,,,,,,,
,,,,,,,,,67180c619687ce86be82b29f,spanish,13 or older,"no, only English or Spanish",yes,2025-07-24_10h37.50.701,empathy_intonation_perc_control,2024.2.4,Win32,59.88023952,67180c619687ce86be82b29f,68817205a84113384fffdfe3,688244fccc9ca2917fb858d8,,,,,,,,,,,,./stim/wavs/castilian_mismatch_declarative-broad-focus_Mi-novio-viene-del-lago.wav,0,,,267.2,270.2024,0,1,2.4578,,0,79,79,71,1,72,0,castilian,,,,,,,,,,,,,,,,,,,,,,,,,,,,,,,,,,,,,,,,,,,,,,,,,,,,,,,,
,,,,,,,,,67180c619687ce86be82b29f,spanish,13 or older,"no, only English or Spanish",yes,2025-07-24_10h37.50.701,empathy_intonation_perc_control,2024.2.4,Win32,59.88023952,67180c619687ce86be82b29f,68817205a84113384fffdfe3,688244fccc9ca2917fb858d8,,,,,,,,,,,,./stim/wavs/puertorican_mismatch_declarative-broad-focus_El-nino-oye-el-rio.wav,0,,,270.204,272.5412,0,1,1.7916,,0,80,80,85,1,86,0,puertorican,,,,,,,,,,,,,,,,,,,,,,,,,,,,,,,,,,,,,,,,,,,,,,,,,,,,,,,,
,,,,,,,,,67180c619687ce86be82b29f,spanish,13 or older,"no, only English or Spanish",yes,2025-07-24_10h37.50.701,empathy_intonation_perc_control,2024.2.4,Win32,59.88023952,67180c619687ce86be82b29f,68817205a84113384fffdfe3,688244fccc9ca2917fb858d8,,,,,,,,,,,,./stim/wavs/mexican_mismatch_interrogative-total-yn_El-nino-oye-el-rio.wav,1,,,272.5421,274.8224,1,1,1.7321,,0,81,81,35,1,36,0,mexican,,,,,,,,,,,,,,,,,,,,,,,,,,,,,,,,,,,,,,,,,,,,,,,,,,,,,,,,
,,,,,,,,,67180c619687ce86be82b29f,spanish,13 or older,"no, only English or Spanish",yes,2025-07-24_10h37.50.701,empathy_intonation_perc_control,2024.2.4,Win32,59.88023952,67180c619687ce86be82b29f,68817205a84113384fffdfe3,688244fccc9ca2917fb858d8,,,,,,,,,,,,./stim/wavs/puertorican_mismatch_interrogative-total-yn_El-nino-oye-el-rio.wav,1,,,274.8234,277.2396,0,0,1.8795,,0,82,82,40,1,41,1,puertorican,,,,,,,,,,,,,,,,,,,,,,,,,,,,,,,,,,,,,,,,,,,,,,,,,,,,,,,,
,,,,,,,,,67180c619687ce86be82b29f,spanish,13 or older,"no, only English or Spanish",yes,2025-07-24_10h37.50.701,empathy_intonation_perc_control,2024.2.4,Win32,59.88023952,67180c619687ce86be82b29f,68817205a84113384fffdfe3,688244fccc9ca2917fb858d8,,,,,,,,,,,,./stim/wavs/castilian_match_interrogative-total-yn_Manuela-vende-el-carro.wav,1,,,277.2403,279.6904,1,1,1.9101,,0,83,83,2,1,3,0,castilian,,,,,,,,,,,,,,,,,,,,,,,,,,,,,,,,,,,,,,,,,,,,,,,,,,,,,,,,
,,,,,,,,,67180c619687ce86be82b29f,spanish,13 or older,"no, only English or Spanish",yes,2025-07-24_10h37.50.701,empathy_intonation_perc_control,2024.2.4,Win32,59.88023952,67180c619687ce86be82b29f,68817205a84113384fffdfe3,688244fccc9ca2917fb858d8,,,,,,,,,,,,./stim/wavs/cuban_match_interrogative-total-yn_Marta-abre-el-regalo.wav,1,,,279.6911,282.2235,0,0,1.9829,,0,84,84,11,1,12,1,cuban,,,,,,,,,,,,,,,,,,,,,,,,,,,,,,,,,,,,,,,,,,,,,,,,,,,,,,,,
,,,,,,,,,67180c619687ce86be82b29f,spanish,13 or older,"no, only English or Spanish",yes,2025-07-24_10h37.50.701,empathy_intonation_perc_control,2024.2.4,Win32,59.88023952,67180c619687ce86be82b29f,68817205a84113384fffdfe3,688244fccc9ca2917fb858d8,,,,,,,,,,,,./stim/wavs/puertorican_match_declarative-broad-focus_Maria-bebe-el-vino.wav,0,,,282.2243,284.5097,0,1,1.7442,,0,85,85,67,1,68,0,puertorican,,,,,,,,,,,,,,,,,,,,,,,,,,,,,,,,,,,,,,,,,,,,,,,,,,,,,,,,
,,,,,,,,,67180c619687ce86be82b29f,spanish,13 or older,"no, only English or Spanish",yes,2025-07-24_10h37.50.701,empathy_intonation_perc_control,2024.2.4,Win32,59.88023952,67180c619687ce86be82b29f,68817205a84113384fffdfe3,688244fccc9ca2917fb858d8,,,,,,,,,,,,./stim/wavs/castilian_match_interrogative-total-yn_David-leia-el-libro.wav,1,,,284.511,287.2289,1,1,2.1758,,0,86,86,0,1,1,0,castilian,,,,,,,,,,,,,,,,,,,,,,,,,,,,,,,,,,,,,,,,,,,,,,,,,,,,,,,,
,,,,,,,,,67180c619687ce86be82b29f,spanish,13 or older,"no, only English or Spanish",yes,2025-07-24_10h37.50.701,empathy_intonation_perc_control,2024.2.4,Win32,59.88023952,67180c619687ce86be82b29f,68817205a84113384fffdfe3,688244fccc9ca2917fb858d8,,,,,,,,,,,,./stim/wavs/mexican_mismatch_declarative-broad-focus_Mi-tia-odia-la-lluvia.wav,0,,,287.2303,289.6403,0,1,1.8707,,0,87,87,82,1,83,0,mexican,,,,,,,,,,,,,,,,,,,,,,,,,,,,,,,,,,,,,,,,,,,,,,,,,,,,,,,,
,,,,,,,"Great! Now we will move on. The next task consists of about 60 trials, in each of which you will see a string of letters. 
  
  Your task is to decide whether this is a real Spanish word or not.", (press the spacebar to continue),67180c619687ce86be82b29f,spanish,13 or older,"no, only English or Spanish",yes,2025-07-24_10h37.50.701,empathy_intonation_perc_control,2024.2.4,Win32,59.88023952,67180c619687ce86be82b29f,68817205a84113384fffdfe3,688244fccc9ca2917fb858d8,,,,,,,,,,,,,,,,,,,,,,,,,,,,,,289.6511,296.9133,0,0,0,0,1,,,,,,,,,,,,,,,,,,,,,,,,,,,,,,,,,,,,,,,,,,,,,,,,,
,,,,,,,"If you think it is an existing Spanish word, you type '1' (for 'REAL'), and if you think it is not an existing Spanish word, you type '0' (for 'FAKE').", (press the spacebar to continue),67180c619687ce86be82b29f,spanish,13 or older,"no, only English or Spanish",yes,2025-07-24_10h37.50.701,empathy_intonation_perc_control,2024.2.4,Win32,59.88023952,67180c619687ce86be82b29f,68817205a84113384fffdfe3,688244fccc9ca2917fb858d8,,,,,,,,,,,,,,,,,,,,,,,,,,,,,,296.9179,301.1117,0,1,1,1,1,,,,,,,,,,,,,,,,,,,,,,,,,,,,,,,,,,,,,,,,,,,,,,,,,
,,,,,,,"If you are sure that the word exists, even though you don’t know its exact meaning, you may still respond '1' (REAL). 
  
  But if you are not sure if it is an existing word, you should respond '0' (FAKE).
  
  Let's do a practice round...", (press the spacebar to continue),67180c619687ce86be82b29f,spanish,13 or older,"no, only English or Spanish",yes,2025-07-24_10h37.50.701,empathy_intonation_perc_control,2024.2.4,Win32,59.88023952,67180c619687ce86be82b29f,68817205a84113384fffdfe3,688244fccc9ca2917fb858d8,,,,,,,,,,,,,,,,,,,,,,,,,,,,,,301.1162,307.9824,0,2,2,2,1,,,,,,,,,,,,,,,,,,,,,,,,,,,,,,,,,,,,,,,,,,,,,,,,,
,,,,,,,,,67180c619687ce86be82b29f,spanish,13 or older,"no, only English or Spanish",yes,2025-07-24_10h37.50.701,empathy_intonation_perc_control,2024.2.4,Win32,59.88023952,67180c619687ce86be82b29f,68817205a84113384fffdfe3,688244fccc9ca2917fb858d8,,,,,,,,,,,,,0,,,,,,,,,,,,,,,,,,,,,,,,307.9934,312.4142,1,0,3.8911,,312.4145,313.4093,0,0,0,0,1,0,depiste,REAL,FAKE,,,,,,,,,,,,,,,,,,,,,,,,,,,,,,,,
,,,,,,,,,67180c619687ce86be82b29f,spanish,13 or older,"no, only English or Spanish",yes,2025-07-24_10h37.50.701,empathy_intonation_perc_control,2024.2.4,Win32,59.88023952,67180c619687ce86be82b29f,68817205a84113384fffdfe3,688244fccc9ca2917fb858d8,,,,,,,,,,,,,1,,,,,,,,,,,,,,,,,,,,,,,,313.4112,315.3276,1,1,1.3721,,315.3299,316.3423,0,1,1,1,1,0,sí,REAL,FAKE,,,,,,,,,,,,,,,,,,,,,,,,,,,,,,,,
,,,,,,,,,67180c619687ce86be82b29f,spanish,13 or older,"no, only English or Spanish",yes,2025-07-24_10h37.50.701,empathy_intonation_perc_control,2024.2.4,Win32,59.88023952,67180c619687ce86be82b29f,68817205a84113384fffdfe3,688244fccc9ca2917fb858d8,,,,,,,,,,,,,0,,,,,,,,,,,,,,,,,,,,,,,,316.3459,318.7357,1,0,1.8599,,318.7372,319.7427,0,2,2,2,1,0,coné,REAL,FAKE,,,,,,,,,,,,,,,,,,,,,,,,,,,,,,,,
,,,,,,,,,67180c619687ce86be82b29f,spanish,13 or older,"no, only English or Spanish",yes,2025-07-24_10h37.50.701,empathy_intonation_perc_control,2024.2.4,Win32,59.88023952,67180c619687ce86be82b29f,68817205a84113384fffdfe3,688244fccc9ca2917fb858d8,,,,,,,,,,,,,0,,,,,,,,,,,,,,,,,,,,,,,,319.7452,321.9522,1,0,1.6713,,321.9524,322.9524,0,3,3,3,1,0,calpar,REAL,FAKE,,,,,,,,,,,,,,,,,,,,,,,,,,,,,,,,
,,,,,,,,,67180c619687ce86be82b29f,spanish,13 or older,"no, only English or Spanish",yes,2025-07-24_10h37.50.701,empathy_intonation_perc_control,2024.2.4,Win32,59.88023952,67180c619687ce86be82b29f,68817205a84113384fffdfe3,688244fccc9ca2917fb858d8,,,,,,,,,,,,,0,,,,,,,,,,,,,,,,,,,,,,,,322.9548,324.9999,0,1,1.5149,,325.001,326.008,0,4,4,4,1,0,joten,REAL,FAKE,,,,,,,,,,,,,,,,,,,,,,,,,,,,,,,,
,,,,,,,,,67180c619687ce86be82b29f,spanish,13 or older,"no, only English or Spanish",yes,2025-07-24_10h37.50.701,empathy_intonation_perc_control,2024.2.4,Win32,59.88023952,67180c619687ce86be82b29f,68817205a84113384fffdfe3,688244fccc9ca2917fb858d8,,,,,,,,,,,,,1,,,,,,,,,,,,,,,,,,,,,,,,326.0099,329.138,1,1,2.5799,,329.138,330.1262,0,5,5,5,1,0,sacapuntas,REAL,FAKE,,,,,,,,,,,,,,,,,,,,,,,,,,,,,,,,
,,,,,,,,,67180c619687ce86be82b29f,spanish,13 or older,"no, only English or Spanish",yes,2025-07-24_10h37.50.701,empathy_intonation_perc_control,2024.2.4,Win32,59.88023952,67180c619687ce86be82b29f,68817205a84113384fffdfe3,688244fccc9ca2917fb858d8,,,,,,,,,,,,,0,,,,,,,,,,,,,,,,,,,,,,,,330.1286,332.3459,0,1,1.6845,,332.346,333.3413,0,6,6,6,1,0,priba,REAL,FAKE,,,,,,,,,,,,,,,,,,,,,,,,,,,,,,,,
,,,,,,,,,67180c619687ce86be82b29f,spanish,13 or older,"no, only English or Spanish",yes,2025-07-24_10h37.50.701,empathy_intonation_perc_control,2024.2.4,Win32,59.88023952,67180c619687ce86be82b29f,68817205a84113384fffdfe3,688244fccc9ca2917fb858d8,,,,,,,,,,,,,0,,,,,,,,,,,,,,,,,,,,,,,,333.3441,336.0005,1,0,2.1038,,336.0018,337.0014,0,7,7,7,1,0,pelasula,REAL,FAKE,,,,,,,,,,,,,,,,,,,,,,,,,,,,,,,,
,,,,,,,,,67180c619687ce86be82b29f,spanish,13 or older,"no, only English or Spanish",yes,2025-07-24_10h37.50.701,empathy_intonation_perc_control,2024.2.4,Win32,59.88023952,67180c619687ce86be82b29f,68817205a84113384fffdfe3,688244fccc9ca2917fb858d8,,,,,,,,,,,,,1,,,,,,,,,,,,,,,,,,,,,,,,337.0033,338.6096,1,1,1.0542,,338.6106,339.6028,0,8,8,8,1,0,bien,REAL,FAKE,,,,,,,,,,,,,,,,,,,,,,,,,,,,,,,,
,,,,,,,,,67180c619687ce86be82b29f,spanish,13 or older,"no, only English or Spanish",yes,2025-07-24_10h37.50.701,empathy_intonation_perc_control,2024.2.4,Win32,59.88023952,67180c619687ce86be82b29f,68817205a84113384fffdfe3,688244fccc9ca2917fb858d8,,,,,,,,,,,,,1,,,,,,,,,,,,,,,,,,,,,,,,339.6048,341.0206,1,1,0.8848,,341.0207,342.0072,0,9,9,9,1,0,casa,REAL,FAKE,,,,,,,,,,,,,,,,,,,,,,,,,,,,,,,,
,,,,,,,,,67180c619687ce86be82b29f,spanish,13 or older,"no, only English or Spanish",yes,2025-07-24_10h37.50.701,empathy_intonation_perc_control,2024.2.4,Win32,59.88023952,67180c619687ce86be82b29f,68817205a84113384fffdfe3,688244fccc9ca2917fb858d8,,,,,,,,,,,,,0,,,,,,,,,,,,,,,,,,,,,,,,342.0092,343.7546,1,0,1.2037,,343.756,344.7373,0,10,10,10,1,0,lejo,REAL,FAKE,,,,,,,,,,,,,,,,,,,,,,,,,,,,,,,,
,,,,,,,,,67180c619687ce86be82b29f,spanish,13 or older,"no, only English or Spanish",yes,2025-07-24_10h37.50.701,empathy_intonation_perc_control,2024.2.4,Win32,59.88023952,67180c619687ce86be82b29f,68817205a84113384fffdfe3,688244fccc9ca2917fb858d8,,,,,,,,,,,,,0,,,,,,,,,,,,,,,,,,,,,,,,344.7401,347.7592,0,1,2.4721,,347.7608,348.7672,0,11,11,11,1,0,pretantas,REAL,FAKE,,,,,,,,,,,,,,,,,,,,,,,,,,,,,,,,
,,,,,,,,,67180c619687ce86be82b29f,spanish,13 or older,"no, only English or Spanish",yes,2025-07-24_10h37.50.701,empathy_intonation_perc_control,2024.2.4,Win32,59.88023952,67180c619687ce86be82b29f,68817205a84113384fffdfe3,688244fccc9ca2917fb858d8,,,,,,,,,,,,,,,,,,,,,,,,,,,,,,,,,,,,,,,,,,,,,,,,,,,,,,348.7676,351.0354,,,,,,,,,,,,,,,,,,,,,,,,,,,,,,
,,,,,,,,,67180c619687ce86be82b29f,spanish,13 or older,"no, only English or Spanish",yes,2025-07-24_10h37.50.701,empathy_intonation_perc_control,2024.2.4,Win32,59.88023952,67180c619687ce86be82b29f,68817205a84113384fffdfe3,688244fccc9ca2917fb858d8,,,,,,,,,,,,,1,,,,,,,,,,,,,,,,,,,,,,,,,,,,,,,,,,,,,52,camisa,,,,,351.0506,352.6997,1,1,1.0979,,0,0,0,51,1,REAL,FAKE,,,,,,,,,,,,,,,,,
,,,,,,,,,67180c619687ce86be82b29f,spanish,13 or older,"no, only English or Spanish",yes,2025-07-24_10h37.50.701,empathy_intonation_perc_control,2024.2.4,Win32,59.88023952,67180c619687ce86be82b29f,68817205a84113384fffdfe3,688244fccc9ca2917fb858d8,,,,,,,,,,,,,1,,,,,,,,,,,,,,,,,,,,,,,,,,,,,,,,,,,,,20,ávido,,,,,352.7021,354.1333,1,1,0.9,,0,1,1,19,1,REAL,FAKE,,,,,,,,,,,,,,,,,
,,,,,,,,,67180c619687ce86be82b29f,spanish,13 or older,"no, only English or Spanish",yes,2025-07-24_10h37.50.701,empathy_intonation_perc_control,2024.2.4,Win32,59.88023952,67180c619687ce86be82b29f,68817205a84113384fffdfe3,688244fccc9ca2917fb858d8,,,,,,,,,,,,,1,,,,,,,,,,,,,,,,,,,,,,,,,,,,,,,,,,,,,55,nevar,,,,,354.1349,355.6568,1,1,0.9733,,0,2,2,54,1,REAL,FAKE,,,,,,,,,,,,,,,,,
,,,,,,,,,67180c619687ce86be82b29f,spanish,13 or older,"no, only English or Spanish",yes,2025-07-24_10h37.50.701,empathy_intonation_perc_control,2024.2.4,Win32,59.88023952,67180c619687ce86be82b29f,68817205a84113384fffdfe3,688244fccc9ca2917fb858d8,,,,,,,,,,,,,0,,,,,,,,,,,,,,,,,,,,,,,,,,,,,,,,,,,,,35,rompido,,,,,355.6581,357.6959,1,0,1.5087,,0,3,3,34,1,REAL,FAKE,,,,,,,,,,,,,,,,,
,,,,,,,,,67180c619687ce86be82b29f,spanish,13 or older,"no, only English or Spanish",yes,2025-07-24_10h37.50.701,empathy_intonation_perc_control,2024.2.4,Win32,59.88023952,67180c619687ce86be82b29f,68817205a84113384fffdfe3,688244fccc9ca2917fb858d8,,,,,,,,,,,,,1,,,,,,,,,,,,,,,,,,,,,,,,,,,,,,,,,,,,,36,loro,,,,,357.6975,359.2812,1,1,1.0573,,0,4,4,35,1,REAL,FAKE,,,,,,,,,,,,,,,,,
,,,,,,,,,67180c619687ce86be82b29f,spanish,13 or older,"no, only English or Spanish",yes,2025-07-24_10h37.50.701,empathy_intonation_perc_control,2024.2.4,Win32,59.88023952,67180c619687ce86be82b29f,68817205a84113384fffdfe3,688244fccc9ca2917fb858d8,,,,,,,,,,,,,1,,,,,,,,,,,,,,,,,,,,,,,,,,,,,,,,,,,,,9,hacha,,,,,359.2828,361.6108,1,1,1.7787,,0,5,5,8,1,REAL,FAKE,,,,,,,,,,,,,,,,,
,,,,,,,,,67180c619687ce86be82b29f,spanish,13 or older,"no, only English or Spanish",yes,2025-07-24_10h37.50.701,empathy_intonation_perc_control,2024.2.4,Win32,59.88023952,67180c619687ce86be82b29f,68817205a84113384fffdfe3,688244fccc9ca2917fb858d8,,,,,,,,,,,,,1,,,,,,,,,,,,,,,,,,,,,,,,,,,,,,,,,,,,,73,hervidor,,,,,361.6123,364.2401,1,1,2.0971,,0,6,6,72,1,REAL,FAKE,,,,,,,,,,,,,,,,,
,,,,,,,,,67180c619687ce86be82b29f,spanish,13 or older,"no, only English or Spanish",yes,2025-07-24_10h37.50.701,empathy_intonation_perc_control,2024.2.4,Win32,59.88023952,67180c619687ce86be82b29f,68817205a84113384fffdfe3,688244fccc9ca2917fb858d8,,,,,,,,,,,,,1,,,,,,,,,,,,,,,,,,,,,,,,,,,,,,,,,,,,,40,alfombra,,,,,364.2429,366.463,1,1,1.6721,,0,7,7,39,1,REAL,FAKE,,,,,,,,,,,,,,,,,
,,,,,,,,,67180c619687ce86be82b29f,spanish,13 or older,"no, only English or Spanish",yes,2025-07-24_10h37.50.701,empathy_intonation_perc_control,2024.2.4,Win32,59.88023952,67180c619687ce86be82b29f,68817205a84113384fffdfe3,688244fccc9ca2917fb858d8,,,,,,,,,,,,,1,,,,,,,,,,,,,,,,,,,,,,,,,,,,,,,,,,,,,60,matar,,,,,366.4646,368.0009,1,1,1.0028,,0,8,8,59,1,REAL,FAKE,,,,,,,,,,,,,,,,,
,,,,,,,,,67180c619687ce86be82b29f,spanish,13 or older,"no, only English or Spanish",yes,2025-07-24_10h37.50.701,empathy_intonation_perc_control,2024.2.4,Win32,59.88023952,67180c619687ce86be82b29f,68817205a84113384fffdfe3,688244fccc9ca2917fb858d8,,,,,,,,,,,,,1,,,,,,,,,,,,,,,,,,,,,,,,,,,,,,,,,,,,,39,torpe,,,,,368.0029,369.7185,0,0,1.1869,,0,9,9,38,1,REAL,FAKE,,,,,,,,,,,,,,,,,
,,,,,,,,,67180c619687ce86be82b29f,spanish,13 or older,"no, only English or Spanish",yes,2025-07-24_10h37.50.701,empathy_intonation_perc_control,2024.2.4,Win32,59.88023952,67180c619687ce86be82b29f,68817205a84113384fffdfe3,688244fccc9ca2917fb858d8,,,,,,,,,,,,,1,,,,,,,,,,,,,,,,,,,,,,,,,,,,,,,,,,,,,49,ganar,,,,,369.7216,371.1006,1,1,0.85,,0,10,10,48,1,REAL,FAKE,,,,,,,,,,,,,,,,,
,,,,,,,,,67180c619687ce86be82b29f,spanish,13 or older,"no, only English or Spanish",yes,2025-07-24_10h37.50.701,empathy_intonation_perc_control,2024.2.4,Win32,59.88023952,67180c619687ce86be82b29f,68817205a84113384fffdfe3,688244fccc9ca2917fb858d8,,,,,,,,,,,,,0,,,,,,,,,,,,,,,,,,,,,,,,,,,,,,,,,,,,,18,arsa,,,,,371.1024,372.6111,0,1,0.9602,,0,11,11,17,1,REAL,FAKE,,,,,,,,,,,,,,,,,
,,,,,,,,,67180c619687ce86be82b29f,spanish,13 or older,"no, only English or Spanish",yes,2025-07-24_10h37.50.701,empathy_intonation_perc_control,2024.2.4,Win32,59.88023952,67180c619687ce86be82b29f,68817205a84113384fffdfe3,688244fccc9ca2917fb858d8,,,,,,,,,,,,,1,,,,,,,,,,,,,,,,,,,,,,,,,,,,,,,,,,,,,83,guante,,,,,372.6125,374.5337,1,1,1.3863,,0,12,12,82,1,REAL,FAKE,,,,,,,,,,,,,,,,,
,,,,,,,,,67180c619687ce86be82b29f,spanish,13 or older,"no, only English or Spanish",yes,2025-07-24_10h37.50.701,empathy_intonation_perc_control,2024.2.4,Win32,59.88023952,67180c619687ce86be82b29f,68817205a84113384fffdfe3,688244fccc9ca2917fb858d8,,,,,,,,,,,,,1,,,,,,,,,,,,,,,,,,,,,,,,,,,,,,,,,,,,,11,cenefa,,,,,374.5351,376.9896,0,0,1.9053,,0,13,13,10,1,REAL,FAKE,,,,,,,,,,,,,,,,,
,,,,,,,,,67180c619687ce86be82b29f,spanish,13 or older,"no, only English or Spanish",yes,2025-07-24_10h37.50.701,empathy_intonation_perc_control,2024.2.4,Win32,59.88023952,67180c619687ce86be82b29f,68817205a84113384fffdfe3,688244fccc9ca2917fb858d8,,,,,,,,,,,,,0,,,,,,,,,,,,,,,,,,,,,,,,,,,,,,,,,,,,,47,cartinar,,,,,376.991,379.5204,0,1,1.9847,,0,14,14,46,1,REAL,FAKE,,,,,,,,,,,,,,,,,
,,,,,,,,,67180c619687ce86be82b29f,spanish,13 or older,"no, only English or Spanish",yes,2025-07-24_10h37.50.701,empathy_intonation_perc_control,2024.2.4,Win32,59.88023952,67180c619687ce86be82b29f,68817205a84113384fffdfe3,688244fccc9ca2917fb858d8,,,,,,,,,,,,,0,,,,,,,,,,,,,,,,,,,,,,,,,,,,,,,,,,,,,10,antar,,,,,379.5233,381.4093,1,0,1.3361,,0,15,15,9,1,REAL,FAKE,,,,,,,,,,,,,,,,,
,,,,,,,,,67180c619687ce86be82b29f,spanish,13 or older,"no, only English or Spanish",yes,2025-07-24_10h37.50.701,empathy_intonation_perc_control,2024.2.4,Win32,59.88023952,67180c619687ce86be82b29f,68817205a84113384fffdfe3,688244fccc9ca2917fb858d8,,,,,,,,,,,,,1,,,,,,,,,,,,,,,,,,,,,,,,,,,,,,,,,,,,,22,lacayo,,,,,381.4111,383.1823,0,0,1.2518,,0,16,16,21,1,REAL,FAKE,,,,,,,,,,,,,,,,,
,,,,,,,,,67180c619687ce86be82b29f,spanish,13 or older,"no, only English or Spanish",yes,2025-07-24_10h37.50.701,empathy_intonation_perc_control,2024.2.4,Win32,59.88023952,67180c619687ce86be82b29f,68817205a84113384fffdfe3,688244fccc9ca2917fb858d8,,,,,,,,,,,,,1,,,,,,,,,,,,,,,,,,,,,,,,,,,,,,,,,,,,,14,yunque,,,,,383.1844,385.0643,1,1,1.3501,,0,17,17,13,1,REAL,FAKE,,,,,,,,,,,,,,,,,
,,,,,,,,,67180c619687ce86be82b29f,spanish,13 or older,"no, only English or Spanish",yes,2025-07-24_10h37.50.701,empathy_intonation_perc_control,2024.2.4,Win32,59.88023952,67180c619687ce86be82b29f,68817205a84113384fffdfe3,688244fccc9ca2917fb858d8,,,,,,,,,,,,,1,,,,,,,,,,,,,,,,,,,,,,,,,,,,,,,,,,,,,78,frondoso,,,,,385.0664,386.7994,0,0,1.2036,,0,18,18,77,1,REAL,FAKE,,,,,,,,,,,,,,,,,
,,,,,,,,,67180c619687ce86be82b29f,spanish,13 or older,"no, only English or Spanish",yes,2025-07-24_10h37.50.701,empathy_intonation_perc_control,2024.2.4,Win32,59.88023952,67180c619687ce86be82b29f,68817205a84113384fffdfe3,688244fccc9ca2917fb858d8,,,,,,,,,,,,,0,,,,,,,,,,,,,,,,,,,,,,,,,,,,,,,,,,,,,17,floroso,,,,,386.8016,389.4021,1,0,2.0684,,0,19,19,16,1,REAL,FAKE,,,,,,,,,,,,,,,,,
,,,,,,,,,67180c619687ce86be82b29f,spanish,13 or older,"no, only English or Spanish",yes,2025-07-24_10h37.50.701,empathy_intonation_perc_control,2024.2.4,Win32,59.88023952,67180c619687ce86be82b29f,68817205a84113384fffdfe3,688244fccc9ca2917fb858d8,,,,,,,,,,,,,0,,,,,,,,,,,,,,,,,,,,,,,,,,,,,,,,,,,,,23,lampera,,,,,389.4062,391.8004,1,0,1.8577,,0,20,20,22,1,REAL,FAKE,,,,,,,,,,,,,,,,,
,,,,,,,,,67180c619687ce86be82b29f,spanish,13 or older,"no, only English or Spanish",yes,2025-07-24_10h37.50.701,empathy_intonation_perc_control,2024.2.4,Win32,59.88023952,67180c619687ce86be82b29f,68817205a84113384fffdfe3,688244fccc9ca2917fb858d8,,,,,,,,,,,,,1,,,,,,,,,,,,,,,,,,,,,,,,,,,,,,,,,,,,,85,laúd,,,,,391.8024,393.2647,0,0,0.9122,,0,21,21,84,1,REAL,FAKE,,,,,,,,,,,,,,,,,
,,,,,,,,,67180c619687ce86be82b29f,spanish,13 or older,"no, only English or Spanish",yes,2025-07-24_10h37.50.701,empathy_intonation_perc_control,2024.2.4,Win32,59.88023952,67180c619687ce86be82b29f,68817205a84113384fffdfe3,688244fccc9ca2917fb858d8,,,,,,,,,,,,,0,,,,,,,,,,,,,,,,,,,,,,,,,,,,,,,,,,,,,33,pauca,,,,,393.2667,395.2805,0,1,1.489,,0,22,22,32,1,REAL,FAKE,,,,,,,,,,,,,,,,,
,,,,,,,,,67180c619687ce86be82b29f,spanish,13 or older,"no, only English or Spanish",yes,2025-07-24_10h37.50.701,empathy_intonation_perc_control,2024.2.4,Win32,59.88023952,67180c619687ce86be82b29f,68817205a84113384fffdfe3,688244fccc9ca2917fb858d8,,,,,,,,,,,,,1,,,,,,,,,,,,,,,,,,,,,,,,,,,,,,,,,,,,,43,canela,,,,,395.2828,396.735,1,1,0.9244,,0,23,23,42,1,REAL,FAKE,,,,,,,,,,,,,,,,,
,,,,,,,,,67180c619687ce86be82b29f,spanish,13 or older,"no, only English or Spanish",yes,2025-07-24_10h37.50.701,empathy_intonation_perc_control,2024.2.4,Win32,59.88023952,67180c619687ce86be82b29f,68817205a84113384fffdfe3,688244fccc9ca2917fb858d8,,,,,,,,,,,,,1,,,,,,,,,,,,,,,,,,,,,,,,,,,,,,,,,,,,,6,tergiversar,,,,,396.7364,398.43,0,0,1.1587,,0,24,24,5,1,REAL,FAKE,,,,,,,,,,,,,,,,,
,,,,,,,,,67180c619687ce86be82b29f,spanish,13 or older,"no, only English or Spanish",yes,2025-07-24_10h37.50.701,empathy_intonation_perc_control,2024.2.4,Win32,59.88023952,67180c619687ce86be82b29f,68817205a84113384fffdfe3,688244fccc9ca2917fb858d8,,,,,,,,,,,,,1,,,,,,,,,,,,,,,,,,,,,,,,,,,,,,,,,,,,,5,zapato,,,,,398.432,400.1505,1,1,1.1658,,0,25,25,4,1,REAL,FAKE,,,,,,,,,,,,,,,,,
,,,,,,,,,67180c619687ce86be82b29f,spanish,13 or older,"no, only English or Spanish",yes,2025-07-24_10h37.50.701,empathy_intonation_perc_control,2024.2.4,Win32,59.88023952,67180c619687ce86be82b29f,68817205a84113384fffdfe3,688244fccc9ca2917fb858d8,,,,,,,,,,,,,0,,,,,,,,,,,,,,,,,,,,,,,,,,,,,,,,,,,,,27,acutación,,,,,400.1522,402.3654,0,1,1.6657,,0,26,26,26,1,REAL,FAKE,,,,,,,,,,,,,,,,,
,,,,,,,,,67180c619687ce86be82b29f,spanish,13 or older,"no, only English or Spanish",yes,2025-07-24_10h37.50.701,empathy_intonation_perc_control,2024.2.4,Win32,59.88023952,67180c619687ce86be82b29f,68817205a84113384fffdfe3,688244fccc9ca2917fb858d8,,,,,,,,,,,,,0,,,,,,,,,,,,,,,,,,,,,,,,,,,,,,,,,,,,,4,batillón,,,,,402.3667,404.0721,1,0,1.1705,,0,27,27,3,1,REAL,FAKE,,,,,,,,,,,,,,,,,
,,,,,,,,,67180c619687ce86be82b29f,spanish,13 or older,"no, only English or Spanish",yes,2025-07-24_10h37.50.701,empathy_intonation_perc_control,2024.2.4,Win32,59.88023952,67180c619687ce86be82b29f,68817205a84113384fffdfe3,688244fccc9ca2917fb858d8,,,,,,,,,,,,,1,,,,,,,,,,,,,,,,,,,,,,,,,,,,,,,,,,,,,24,látigo,,,,,404.0737,406.1317,0,0,1.5095,,0,28,28,23,1,REAL,FAKE,,,,,,,,,,,,,,,,,
,,,,,,,,,67180c619687ce86be82b29f,spanish,13 or older,"no, only English or Spanish",yes,2025-07-24_10h37.50.701,empathy_intonation_perc_control,2024.2.4,Win32,59.88023952,67180c619687ce86be82b29f,68817205a84113384fffdfe3,688244fccc9ca2917fb858d8,,,,,,,,,,,,,1,,,,,,,,,,,,,,,,,,,,,,,,,,,,,,,,,,,,,80,hormiga,,,,,406.1336,407.8718,1,1,1.1995,,0,29,29,79,1,REAL,FAKE,,,,,,,,,,,,,,,,,
,,,,,,,,,67180c619687ce86be82b29f,spanish,13 or older,"no, only English or Spanish",yes,2025-07-24_10h37.50.701,empathy_intonation_perc_control,2024.2.4,Win32,59.88023952,67180c619687ce86be82b29f,68817205a84113384fffdfe3,688244fccc9ca2917fb858d8,,,,,,,,,,,,,0,,,,,,,,,,,,,,,,,,,,,,,,,,,,,,,,,,,,,70,temblo,,,,,407.8736,409.7595,0,1,1.3413,,0,30,30,69,1,REAL,FAKE,,,,,,,,,,,,,,,,,
,,,,,,,,,67180c619687ce86be82b29f,spanish,13 or older,"no, only English or Spanish",yes,2025-07-24_10h37.50.701,empathy_intonation_perc_control,2024.2.4,Win32,59.88023952,67180c619687ce86be82b29f,68817205a84113384fffdfe3,688244fccc9ca2917fb858d8,,,,,,,,,,,,,0,,,,,,,,,,,,,,,,,,,,,,,,,,,,,,,,,,,,,42,cadallo,,,,,409.7608,411.9383,1,0,1.6297,,0,31,31,41,1,REAL,FAKE,,,,,,,,,,,,,,,,,
,,,,,,,,,67180c619687ce86be82b29f,spanish,13 or older,"no, only English or Spanish",yes,2025-07-24_10h37.50.701,empathy_intonation_perc_control,2024.2.4,Win32,59.88023952,67180c619687ce86be82b29f,68817205a84113384fffdfe3,688244fccc9ca2917fb858d8,,,,,,,,,,,,,0,,,,,,,,,,,,,,,,,,,,,,,,,,,,,,,,,,,,,79,tropaje,,,,,411.9395,413.6081,0,1,1.1312,,0,32,32,78,1,REAL,FAKE,,,,,,,,,,,,,,,,,
,,,,,,,,,67180c619687ce86be82b29f,spanish,13 or older,"no, only English or Spanish",yes,2025-07-24_10h37.50.701,empathy_intonation_perc_control,2024.2.4,Win32,59.88023952,67180c619687ce86be82b29f,68817205a84113384fffdfe3,688244fccc9ca2917fb858d8,,,,,,,,,,,,,1,,,,,,,,,,,,,,,,,,,,,,,,,,,,,,,,,,,,,77,tiburón,,,,,413.6101,415.7118,1,1,1.5487,,0,33,33,76,1,REAL,FAKE,,,,,,,,,,,,,,,,,
,,,,,,,,,67180c619687ce86be82b29f,spanish,13 or older,"no, only English or Spanish",yes,2025-07-24_10h37.50.701,empathy_intonation_perc_control,2024.2.4,Win32,59.88023952,67180c619687ce86be82b29f,68817205a84113384fffdfe3,688244fccc9ca2917fb858d8,,,,,,,,,,,,,1,,,,,,,,,,,,,,,,,,,,,,,,,,,,,,,,,,,,,64,orgulloso,,,,,415.7134,417.2631,1,1,1.0196,,0,34,34,63,1,REAL,FAKE,,,,,,,,,,,,,,,,,
,,,,,,,,,67180c619687ce86be82b29f,spanish,13 or older,"no, only English or Spanish",yes,2025-07-24_10h37.50.701,empathy_intonation_perc_control,2024.2.4,Win32,59.88023952,67180c619687ce86be82b29f,68817205a84113384fffdfe3,688244fccc9ca2917fb858d8,,,,,,,,,,,,,0,,,,,,,,,,,,,,,,,,,,,,,,,,,,,,,,,,,,,16,abracer,,,,,417.2655,418.6462,1,0,0.8499,,0,35,35,15,1,REAL,FAKE,,,,,,,,,,,,,,,,,
,,,,,,,,,67180c619687ce86be82b29f,spanish,13 or older,"no, only English or Spanish",yes,2025-07-24_10h37.50.701,empathy_intonation_perc_control,2024.2.4,Win32,59.88023952,67180c619687ce86be82b29f,68817205a84113384fffdfe3,688244fccc9ca2917fb858d8,,,,,,,,,,,,,1,,,,,,,,,,,,,,,,,,,,,,,,,,,,,,,,,,,,,15,regar,,,,,418.6479,420.1997,1,1,1.0024,,0,36,36,14,1,REAL,FAKE,,,,,,,,,,,,,,,,,
,,,,,,,,,67180c619687ce86be82b29f,spanish,13 or older,"no, only English or Spanish",yes,2025-07-24_10h37.50.701,empathy_intonation_perc_control,2024.2.4,Win32,59.88023952,67180c619687ce86be82b29f,68817205a84113384fffdfe3,688244fccc9ca2917fb858d8,,,,,,,,,,,,,1,,,,,,,,,,,,,,,,,,,,,,,,,,,,,,,,,,,,,68,alegre,,,,,420.2012,421.6393,1,1,0.9058,,0,37,37,67,1,REAL,FAKE,,,,,,,,,,,,,,,,,
,,,,,,,,,67180c619687ce86be82b29f,spanish,13 or older,"no, only English or Spanish",yes,2025-07-24_10h37.50.701,empathy_intonation_perc_control,2024.2.4,Win32,59.88023952,67180c619687ce86be82b29f,68817205a84113384fffdfe3,688244fccc9ca2917fb858d8,,,,,,,,,,,,,0,,,,,,,,,,,,,,,,,,,,,,,,,,,,,,,,,,,,,21,capillo,,,,,421.6411,423.2726,0,1,1.0848,,0,38,38,20,1,REAL,FAKE,,,,,,,,,,,,,,,,,
,,,,,,,,,67180c619687ce86be82b29f,spanish,13 or older,"no, only English or Spanish",yes,2025-07-24_10h37.50.701,empathy_intonation_perc_control,2024.2.4,Win32,59.88023952,67180c619687ce86be82b29f,68817205a84113384fffdfe3,688244fccc9ca2917fb858d8,,,,,,,,,,,,,1,,,,,,,,,,,,,,,,,,,,,,,,,,,,,,,,,,,,,25,bisagra,,,,,423.274,425.0731,0,0,1.2568,,0,39,39,24,1,REAL,FAKE,,,,,,,,,,,,,,,,,
,,,,,,,,,67180c619687ce86be82b29f,spanish,13 or older,"no, only English or Spanish",yes,2025-07-24_10h37.50.701,empathy_intonation_perc_control,2024.2.4,Win32,59.88023952,67180c619687ce86be82b29f,68817205a84113384fffdfe3,688244fccc9ca2917fb858d8,,,,,,,,,,,,,1,,,,,,,,,,,,,,,,,,,,,,,,,,,,,,,,,,,,,65,bizcocho,,,,,425.0744,426.916,1,1,1.2979,,0,40,40,64,1,REAL,FAKE,,,,,,,,,,,,,,,,,
,,,,,,,,,67180c619687ce86be82b29f,spanish,13 or older,"no, only English or Spanish",yes,2025-07-24_10h37.50.701,empathy_intonation_perc_control,2024.2.4,Win32,59.88023952,67180c619687ce86be82b29f,68817205a84113384fffdfe3,688244fccc9ca2917fb858d8,,,,,,,,,,,,,1,,,,,,,,,,,,,,,,,,,,,,,,,,,,,,,,,,,,,81,pozo,,,,,426.9182,428.6581,0,0,1.1982,,0,41,41,80,1,REAL,FAKE,,,,,,,,,,,,,,,,,
,,,,,,,,,67180c619687ce86be82b29f,spanish,13 or older,"no, only English or Spanish",yes,2025-07-24_10h37.50.701,empathy_intonation_perc_control,2024.2.4,Win32,59.88023952,67180c619687ce86be82b29f,68817205a84113384fffdfe3,688244fccc9ca2917fb858d8,,,,,,,,,,,,,1,,,,,,,,,,,,,,,,,,,,,,,,,,,,,,,,,,,,,59,besar,,,,,428.66,430.143,1,1,0.9553,,0,42,42,58,1,REAL,FAKE,,,,,,,,,,,,,,,,,
,,,,,,,,,67180c619687ce86be82b29f,spanish,13 or older,"no, only English or Spanish",yes,2025-07-24_10h37.50.701,empathy_intonation_perc_control,2024.2.4,Win32,59.88023952,67180c619687ce86be82b29f,68817205a84113384fffdfe3,688244fccc9ca2917fb858d8,,,,,,,,,,,,,0,,,,,,,,,,,,,,,,,,,,,,,,,,,,,,,,,,,,,74,cintro,,,,,430.145,431.7938,0,1,1.1001,,0,43,43,73,1,REAL,FAKE,,,,,,,,,,,,,,,,,
,,,,,,,,,67180c619687ce86be82b29f,spanish,13 or older,"no, only English or Spanish",yes,2025-07-24_10h37.50.701,empathy_intonation_perc_control,2024.2.4,Win32,59.88023952,67180c619687ce86be82b29f,68817205a84113384fffdfe3,688244fccc9ca2917fb858d8,,,,,,,,,,,,,1,,,,,,,,,,,,,,,,,,,,,,,,,,,,,,,,,,,,,41,rebuscar,,,,,431.7954,433.7978,1,1,1.4678,,0,44,44,40,1,REAL,FAKE,,,,,,,,,,,,,,,,,
,,,,,,,,,67180c619687ce86be82b29f,spanish,13 or older,"no, only English or Spanish",yes,2025-07-24_10h37.50.701,empathy_intonation_perc_control,2024.2.4,Win32,59.88023952,67180c619687ce86be82b29f,68817205a84113384fffdfe3,688244fccc9ca2917fb858d8,,,,,,,,,,,,,1,,,,,,,,,,,,,,,,,,,,,,,,,,,,,,,,,,,,,37,granuja,,,,,433.7992,435.3666,1,1,1.0377,,0,45,45,36,1,REAL,FAKE,,,,,,,,,,,,,,,,,
,,,,,,,,,67180c619687ce86be82b29f,spanish,13 or older,"no, only English or Spanish",yes,2025-07-24_10h37.50.701,empathy_intonation_perc_control,2024.2.4,Win32,59.88023952,67180c619687ce86be82b29f,68817205a84113384fffdfe3,688244fccc9ca2917fb858d8,,,,,,,,,,,,,0,,,,,,,,,,,,,,,,,,,,,,,,,,,,,,,,,,,,,72,pemición,,,,,435.3686,437.2001,1,0,1.281,,0,46,46,71,1,REAL,FAKE,,,,,,,,,,,,,,,,,
,,,,,,,,,67180c619687ce86be82b29f,spanish,13 or older,"no, only English or Spanish",yes,2025-07-24_10h37.50.701,empathy_intonation_perc_control,2024.2.4,Win32,59.88023952,67180c619687ce86be82b29f,68817205a84113384fffdfe3,688244fccc9ca2917fb858d8,,,,,,,,,,,,,1,,,,,,,,,,,,,,,,,,,,,,,,,,,,,,,,,,,,,45,jilguero,,,,,437.2025,438.9658,0,0,1.2203,,0,47,47,44,1,REAL,FAKE,,,,,,,,,,,,,,,,,
,,,,,,,,,67180c619687ce86be82b29f,spanish,13 or older,"no, only English or Spanish",yes,2025-07-24_10h37.50.701,empathy_intonation_perc_control,2024.2.4,Win32,59.88023952,67180c619687ce86be82b29f,68817205a84113384fffdfe3,688244fccc9ca2917fb858d8,,,,,,,,,,,,,1,,,,,,,,,,,,,,,,,,,,,,,,,,,,,,,,,,,,,12,asesinato,,,,,438.9671,440.756,1,1,1.2391,,0,48,48,11,1,REAL,FAKE,,,,,,,,,,,,,,,,,
,,,,,,,,,67180c619687ce86be82b29f,spanish,13 or older,"no, only English or Spanish",yes,2025-07-24_10h37.50.701,empathy_intonation_perc_control,2024.2.4,Win32,59.88023952,67180c619687ce86be82b29f,68817205a84113384fffdfe3,688244fccc9ca2917fb858d8,,,,,,,,,,,,,0,,,,,,,,,,,,,,,,,,,,,,,,,,,,,,,,,,,,,66,hacido,,,,,440.7575,442.1702,1,0,0.8699,,0,49,49,65,1,REAL,FAKE,,,,,,,,,,,,,,,,,
,,,,,,,,,67180c619687ce86be82b29f,spanish,13 or older,"no, only English or Spanish",yes,2025-07-24_10h37.50.701,empathy_intonation_perc_control,2024.2.4,Win32,59.88023952,67180c619687ce86be82b29f,68817205a84113384fffdfe3,688244fccc9ca2917fb858d8,,,,,,,,,,,,,1,,,,,,,,,,,,,,,,,,,,,,,,,,,,,,,,,,,,,38,estornudar,,,,,442.172,443.8588,1,1,1.1405,,0,50,50,37,1,REAL,FAKE,,,,,,,,,,,,,,,,,
,,,,,,,,,67180c619687ce86be82b29f,spanish,13 or older,"no, only English or Spanish",yes,2025-07-24_10h37.50.701,empathy_intonation_perc_control,2024.2.4,Win32,59.88023952,67180c619687ce86be82b29f,68817205a84113384fffdfe3,688244fccc9ca2917fb858d8,,,,,,,,,,,,,1,,,,,,,,,,,,,,,,,,,,,,,,,,,,,,,,,,,,,28,merodear,,,,,443.8603,445.5712,0,0,1.1655,,0,51,51,27,1,REAL,FAKE,,,,,,,,,,,,,,,,,
,,,,,,,,,67180c619687ce86be82b29f,spanish,13 or older,"no, only English or Spanish",yes,2025-07-24_10h37.50.701,empathy_intonation_perc_control,2024.2.4,Win32,59.88023952,67180c619687ce86be82b29f,68817205a84113384fffdfe3,688244fccc9ca2917fb858d8,,,,,,,,,,,,,1,,,,,,,,,,,,,,,,,,,,,,,,,,,,,,,,,,,,,91,click the 1 key.,,,,,445.5744,448.3267,1,1,2.2022,,0,52,52,90,1,REAL,FAKE,,,,,,,,,,,,,,,,,
,,,,,,,,,67180c619687ce86be82b29f,spanish,13 or older,"no, only English or Spanish",yes,2025-07-24_10h37.50.701,empathy_intonation_perc_control,2024.2.4,Win32,59.88023952,67180c619687ce86be82b29f,68817205a84113384fffdfe3,688244fccc9ca2917fb858d8,,,,,,,,,,,,,0,,,,,,,,,,,,,,,,,,,,,,,,,,,,,,,,,,,,,58,plaudir,,,,,448.3284,449.863,0,1,0.9988,,0,53,53,57,1,REAL,FAKE,,,,,,,,,,,,,,,,,
,,,,,,,,,67180c619687ce86be82b29f,spanish,13 or older,"no, only English or Spanish",yes,2025-07-24_10h37.50.701,empathy_intonation_perc_control,2024.2.4,Win32,59.88023952,67180c619687ce86be82b29f,68817205a84113384fffdfe3,688244fccc9ca2917fb858d8,,,,,,,,,,,,,1,,,,,,,,,,,,,,,,,,,,,,,,,,,,,,,,,,,,,71,polvoriento,,,,,449.8643,452.3315,1,1,1.9333,,0,54,54,70,1,REAL,FAKE,,,,,,,,,,,,,,,,,
,,,,,,,,,67180c619687ce86be82b29f,spanish,13 or older,"no, only English or Spanish",yes,2025-07-24_10h37.50.701,empathy_intonation_perc_control,2024.2.4,Win32,59.88023952,67180c619687ce86be82b29f,68817205a84113384fffdfe3,688244fccc9ca2917fb858d8,,,,,,,,,,,,,0,,,,,,,,,,,,,,,,,,,,,,,,,,,,,,,,,,,,,29,decar,,,,,452.333,453.6127,1,0,0.7312,,0,55,55,28,1,REAL,FAKE,,,,,,,,,,,,,,,,,
,,,,,,,,,67180c619687ce86be82b29f,spanish,13 or older,"no, only English or Spanish",yes,2025-07-24_10h37.50.701,empathy_intonation_perc_control,2024.2.4,Win32,59.88023952,67180c619687ce86be82b29f,68817205a84113384fffdfe3,688244fccc9ca2917fb858d8,,,,,,,,,,,,,0,,,,,,,,,,,,,,,,,,,,,,,,,,,,,,,,,,,,,19,brecedad,,,,,453.6141,455.3547,0,1,1.2014,,0,56,56,18,1,REAL,FAKE,,,,,,,,,,,,,,,,,
,,,,,,,,,67180c619687ce86be82b29f,spanish,13 or older,"no, only English or Spanish",yes,2025-07-24_10h37.50.701,empathy_intonation_perc_control,2024.2.4,Win32,59.88023952,67180c619687ce86be82b29f,68817205a84113384fffdfe3,688244fccc9ca2917fb858d8,,,,,,,,,,,,,1,,,,,,,,,,,,,,,,,,,,,,,,,,,,,,,,,,,,,54,fomentar,,,,,455.356,456.9396,1,1,1.039,,0,57,57,53,1,REAL,FAKE,,,,,,,,,,,,,,,,,
,,,,,,,,,67180c619687ce86be82b29f,spanish,13 or older,"no, only English or Spanish",yes,2025-07-24_10h37.50.701,empathy_intonation_perc_control,2024.2.4,Win32,59.88023952,67180c619687ce86be82b29f,68817205a84113384fffdfe3,688244fccc9ca2917fb858d8,,,,,,,,,,,,,0,,,,,,,,,,,,,,,,,,,,,,,,,,,,,,,,,,,,,92,click the 0 key.,,,,,456.9413,458.7143,0,1,1.2296,,0,58,58,91,1,REAL,FAKE,,,,,,,,,,,,,,,,,
,,,,,,,,,67180c619687ce86be82b29f,spanish,13 or older,"no, only English or Spanish",yes,2025-07-24_10h37.50.701,empathy_intonation_perc_control,2024.2.4,Win32,59.88023952,67180c619687ce86be82b29f,68817205a84113384fffdfe3,688244fccc9ca2917fb858d8,,,,,,,,,,,,,1,,,,,,,,,,,,,,,,,,,,,,,,,,,,,,,,,,,,,75,yacer,,,,,458.716,460.0912,0,0,0.8517,,0,59,59,74,1,REAL,FAKE,,,,,,,,,,,,,,,,,
,,,,,,,,,67180c619687ce86be82b29f,spanish,13 or older,"no, only English or Spanish",yes,2025-07-24_10h37.50.701,empathy_intonation_perc_control,2024.2.4,Win32,59.88023952,67180c619687ce86be82b29f,68817205a84113384fffdfe3,688244fccc9ca2917fb858d8,,,,,,,,,,,,,1,,,,,,,,,,,,,,,,,,,,,,,,,,,,,,,,,,,,,7,pésimo,,,,,460.0926,461.9854,0,0,1.3599,,0,60,60,6,1,REAL,FAKE,,,,,,,,,,,,,,,,,
,,,,,,,,,67180c619687ce86be82b29f,spanish,13 or older,"no, only English or Spanish",yes,2025-07-24_10h37.50.701,empathy_intonation_perc_control,2024.2.4,Win32,59.88023952,67180c619687ce86be82b29f,68817205a84113384fffdfe3,688244fccc9ca2917fb858d8,,,,,,,,,,,,,1,,,,,,,,,,,,,,,,,,,,,,,,,,,,,,,,,,,,,88,acantilado,,,,,461.9876,463.5125,1,1,0.9874,,0,61,61,87,1,REAL,FAKE,,,,,,,,,,,,,,,,,
,,,,,,,,,67180c619687ce86be82b29f,spanish,13 or older,"no, only English or Spanish",yes,2025-07-24_10h37.50.701,empathy_intonation_perc_control,2024.2.4,Win32,59.88023952,67180c619687ce86be82b29f,68817205a84113384fffdfe3,688244fccc9ca2917fb858d8,,,,,,,,,,,,,1,,,,,,,,,,,,,,,,,,,,,,,,,,,,,,,,,,,,,56,musgo,,,,,463.5141,465.194,0,0,1.1353,,0,62,62,55,1,REAL,FAKE,,,,,,,,,,,,,,,,,
,,,,,,,,,67180c619687ce86be82b29f,spanish,13 or older,"no, only English or Spanish",yes,2025-07-24_10h37.50.701,empathy_intonation_perc_control,2024.2.4,Win32,59.88023952,67180c619687ce86be82b29f,68817205a84113384fffdfe3,688244fccc9ca2917fb858d8,,,,,,,,,,,,,1,,,,,,,,,,,,,,,,,,,,,,,,,,,,,,,,,,,,,31,pandilla,,,,,465.1955,466.7499,1,1,1.0025,,0,63,63,30,1,REAL,FAKE,,,,,,,,,,,,,,,,,
,,,,,,,,,67180c619687ce86be82b29f,spanish,13 or older,"no, only English or Spanish",yes,2025-07-24_10h37.50.701,empathy_intonation_perc_control,2024.2.4,Win32,59.88023952,67180c619687ce86be82b29f,68817205a84113384fffdfe3,688244fccc9ca2917fb858d8,,,,,,,,,,,,,0,,,,,,,,,,,,,,,,,,,,,,,,,,,,,,,,,,,,,82,empirador,,,,,466.7519,468.4712,1,0,1.1748,,0,64,64,81,1,REAL,FAKE,,,,,,,,,,,,,,,,,
,,,,,,,,,67180c619687ce86be82b29f,spanish,13 or older,"no, only English or Spanish",yes,2025-07-24_10h37.50.701,empathy_intonation_perc_control,2024.2.4,Win32,59.88023952,67180c619687ce86be82b29f,68817205a84113384fffdfe3,688244fccc9ca2917fb858d8,,,,,,,,,,,,,0,,,,,,,,,,,,,,,,,,,,,,,,,,,,,,,,,,,,,87,grodo,,,,,468.4733,470.272,0,1,1.2594,,0,65,65,86,1,REAL,FAKE,,,,,,,,,,,,,,,,,
,,,,,,,,,67180c619687ce86be82b29f,spanish,13 or older,"no, only English or Spanish",yes,2025-07-24_10h37.50.701,empathy_intonation_perc_control,2024.2.4,Win32,59.88023952,67180c619687ce86be82b29f,68817205a84113384fffdfe3,688244fccc9ca2917fb858d8,,,,,,,,,,,,,1,,,,,,,,,,,,,,,,,,,,,,,,,,,,,,,,,,,,,26,secuestro,,,,,470.2748,472.2858,1,1,1.4645,,0,66,66,25,1,REAL,FAKE,,,,,,,,,,,,,,,,,
,,,,,,,,,67180c619687ce86be82b29f,spanish,13 or older,"no, only English or Spanish",yes,2025-07-24_10h37.50.701,empathy_intonation_perc_control,2024.2.4,Win32,59.88023952,67180c619687ce86be82b29f,68817205a84113384fffdfe3,688244fccc9ca2917fb858d8,,,,,,,,,,,,,1,,,,,,,,,,,,,,,,,,,,,,,,,,,,,,,,,,,,,48,ladrón,,,,,472.2872,473.5997,1,1,0.7691,,0,67,67,47,1,REAL,FAKE,,,,,,,,,,,,,,,,,
,,,,,,,,,67180c619687ce86be82b29f,spanish,13 or older,"no, only English or Spanish",yes,2025-07-24_10h37.50.701,empathy_intonation_perc_control,2024.2.4,Win32,59.88023952,67180c619687ce86be82b29f,68817205a84113384fffdfe3,688244fccc9ca2917fb858d8,,,,,,,,,,,,,0,,,,,,,,,,,,,,,,,,,,,,,,,,,,,,,,,,,,,50,flamida,,,,,473.6024,475.2911,0,1,1.143,,0,68,68,49,1,REAL,FAKE,,,,,,,,,,,,,,,,,
,,,,,,,,,67180c619687ce86be82b29f,spanish,13 or older,"no, only English or Spanish",yes,2025-07-24_10h37.50.701,empathy_intonation_perc_control,2024.2.4,Win32,59.88023952,67180c619687ce86be82b29f,68817205a84113384fffdfe3,688244fccc9ca2917fb858d8,,,,,,,,,,,,,1,,,,,,,,,,,,,,,,,,,,,,,,,,,,,,,,,,,,,51,candado,,,,,475.2925,476.7577,1,1,0.9215,,0,69,69,50,1,REAL,FAKE,,,,,,,,,,,,,,,,,
,,,,,,,,,67180c619687ce86be82b29f,spanish,13 or older,"no, only English or Spanish",yes,2025-07-24_10h37.50.701,empathy_intonation_perc_control,2024.2.4,Win32,59.88023952,67180c619687ce86be82b29f,68817205a84113384fffdfe3,688244fccc9ca2917fb858d8,,,,,,,,,,,,,0,,,,,,,,,,,,,,,,,,,,,,,,,,,,,,,,,,,,,8,cadeña,,,,,476.7596,479.6143,1,0,2.3131,,0,70,70,7,1,REAL,FAKE,,,,,,,,,,,,,,,,,
,,,,,,,,,67180c619687ce86be82b29f,spanish,13 or older,"no, only English or Spanish",yes,2025-07-24_10h37.50.701,empathy_intonation_perc_control,2024.2.4,Win32,59.88023952,67180c619687ce86be82b29f,68817205a84113384fffdfe3,688244fccc9ca2917fb858d8,,,,,,,,,,,,,1,,,,,,,,,,,,,,,,,,,,,,,,,,,,,,,,,,,,,2,pellizcar,,,,,479.6159,481.3427,1,1,1.1666,,0,71,71,1,1,REAL,FAKE,,,,,,,,,,,,,,,,,
,,,,,,,,,67180c619687ce86be82b29f,spanish,13 or older,"no, only English or Spanish",yes,2025-07-24_10h37.50.701,empathy_intonation_perc_control,2024.2.4,Win32,59.88023952,67180c619687ce86be82b29f,68817205a84113384fffdfe3,688244fccc9ca2917fb858d8,,,,,,,,,,,,,1,,,,,,,,,,,,,,,,,,,,,,,,,,,,,,,,,,,,,34,aviso,,,,,481.3444,482.6611,1,1,0.7836,,0,72,72,33,1,REAL,FAKE,,,,,,,,,,,,,,,,,
,,,,,,,,,67180c619687ce86be82b29f,spanish,13 or older,"no, only English or Spanish",yes,2025-07-24_10h37.50.701,empathy_intonation_perc_control,2024.2.4,Win32,59.88023952,67180c619687ce86be82b29f,68817205a84113384fffdfe3,688244fccc9ca2917fb858d8,,,,,,,,,,,,,1,,,,,,,,,,,,,,,,,,,,,,,,,,,,,,,,,,,,,46,martillo,,,,,482.6632,485.1799,0,0,1.9821,,0,73,73,45,1,REAL,FAKE,,,,,,,,,,,,,,,,,
,,,,,,,,,67180c619687ce86be82b29f,spanish,13 or older,"no, only English or Spanish",yes,2025-07-24_10h37.50.701,empathy_intonation_perc_control,2024.2.4,Win32,59.88023952,67180c619687ce86be82b29f,68817205a84113384fffdfe3,688244fccc9ca2917fb858d8,,,,,,,,,,,,,1,,,,,,,,,,,,,,,,,,,,,,,,,,,,,,,,,,,,,62,flaco,,,,,485.1819,486.6529,1,1,0.9259,,0,74,74,61,1,REAL,FAKE,,,,,,,,,,,,,,,,,
,,,,,,,,,67180c619687ce86be82b29f,spanish,13 or older,"no, only English or Spanish",yes,2025-07-24_10h37.50.701,empathy_intonation_perc_control,2024.2.4,Win32,59.88023952,67180c619687ce86be82b29f,68817205a84113384fffdfe3,688244fccc9ca2917fb858d8,,,,,,,,,,,,,0,,,,,,,,,,,,,,,,,,,,,,,,,,,,,,,,,,,,,32,fatacidad,,,,,486.6543,488.4387,0,1,1.255,,0,75,75,31,1,REAL,FAKE,,,,,,,,,,,,,,,,,
,,,,,,,,,67180c619687ce86be82b29f,spanish,13 or older,"no, only English or Spanish",yes,2025-07-24_10h37.50.701,empathy_intonation_perc_control,2024.2.4,Win32,59.88023952,67180c619687ce86be82b29f,68817205a84113384fffdfe3,688244fccc9ca2917fb858d8,,,,,,,,,,,,,0,,,,,,,,,,,,,,,,,,,,,,,,,,,,,,,,,,,,,1,terzo,,,,,488.4408,490.3701,1,0,1.3838,,0,76,76,0,1,REAL,FAKE,,,,,,,,,,,,,,,,,
,,,,,,,,,67180c619687ce86be82b29f,spanish,13 or older,"no, only English or Spanish",yes,2025-07-24_10h37.50.701,empathy_intonation_perc_control,2024.2.4,Win32,59.88023952,67180c619687ce86be82b29f,68817205a84113384fffdfe3,688244fccc9ca2917fb858d8,,,,,,,,,,,,,0,,,,,,,,,,,,,,,,,,,,,,,,,,,,,,,,,,,,,84,escuto,,,,,490.3715,492.0066,1,0,1.0844,,0,77,77,83,1,REAL,FAKE,,,,,,,,,,,,,,,,,
,,,,,,,,,67180c619687ce86be82b29f,spanish,13 or older,"no, only English or Spanish",yes,2025-07-24_10h37.50.701,empathy_intonation_perc_control,2024.2.4,Win32,59.88023952,67180c619687ce86be82b29f,68817205a84113384fffdfe3,688244fccc9ca2917fb858d8,,,,,,,,,,,,,1,,,,,,,,,,,,,,,,,,,,,,,,,,,,,,,,,,,,,89,prisa,,,,,492.008,493.5408,0,0,0.984,,0,78,78,88,1,REAL,FAKE,,,,,,,,,,,,,,,,,
,,,,,,,,,67180c619687ce86be82b29f,spanish,13 or older,"no, only English or Spanish",yes,2025-07-24_10h37.50.701,empathy_intonation_perc_control,2024.2.4,Win32,59.88023952,67180c619687ce86be82b29f,68817205a84113384fffdfe3,688244fccc9ca2917fb858d8,,,,,,,,,,,,,0,,,,,,,,,,,,,,,,,,,,,,,,,,,,,,,,,,,,,63,esposante,,,,,493.5422,495.0771,1,0,0.9878,,0,79,79,62,1,REAL,FAKE,,,,,,,,,,,,,,,,,
,,,,,,,,,67180c619687ce86be82b29f,spanish,13 or older,"no, only English or Spanish",yes,2025-07-24_10h37.50.701,empathy_intonation_perc_control,2024.2.4,Win32,59.88023952,67180c619687ce86be82b29f,68817205a84113384fffdfe3,688244fccc9ca2917fb858d8,,,,,,,,,,,,,1,,,,,,,,,,,,,,,,,,,,,,,,,,,,,,,,,,,,,13,helar,,,,,495.0785,496.7289,1,1,1.1161,,0,80,80,12,1,REAL,FAKE,,,,,,,,,,,,,,,,,
,,,,,,,,,67180c619687ce86be82b29f,spanish,13 or older,"no, only English or Spanish",yes,2025-07-24_10h37.50.701,empathy_intonation_perc_control,2024.2.4,Win32,59.88023952,67180c619687ce86be82b29f,68817205a84113384fffdfe3,688244fccc9ca2917fb858d8,,,,,,,,,,,,,1,,,,,,,,,,,,,,,,,,,,,,,,,,,,,,,,,,,,,86,barato,,,,,496.7302,498.1939,1,1,0.9198,,0,81,81,85,1,REAL,FAKE,,,,,,,,,,,,,,,,,
,,,,,,,,,67180c619687ce86be82b29f,spanish,13 or older,"no, only English or Spanish",yes,2025-07-24_10h37.50.701,empathy_intonation_perc_control,2024.2.4,Win32,59.88023952,67180c619687ce86be82b29f,68817205a84113384fffdfe3,688244fccc9ca2917fb858d8,,,,,,,,,,,,,0,,,,,,,,,,,,,,,,,,,,,,,,,,,,,,,,,,,,,53,vegada,,,,,498.195,500.1346,0,1,1.3915,,0,82,82,52,1,REAL,FAKE,,,,,,,,,,,,,,,,,
,,,,,,,,,67180c619687ce86be82b29f,spanish,13 or older,"no, only English or Spanish",yes,2025-07-24_10h37.50.701,empathy_intonation_perc_control,2024.2.4,Win32,59.88023952,67180c619687ce86be82b29f,68817205a84113384fffdfe3,688244fccc9ca2917fb858d8,,,,,,,,,,,,,1,,,,,,,,,,,,,,,,,,,,,,,,,,,,,,,,,,,,,3,pulmones,,,,,500.1381,502.1122,1,1,1.4489,,0,83,83,2,1,REAL,FAKE,,,,,,,,,,,,,,,,,
,,,,,,,,,67180c619687ce86be82b29f,spanish,13 or older,"no, only English or Spanish",yes,2025-07-24_10h37.50.701,empathy_intonation_perc_control,2024.2.4,Win32,59.88023952,67180c619687ce86be82b29f,68817205a84113384fffdfe3,688244fccc9ca2917fb858d8,,,,,,,,,,,,,1,,,,,,,,,,,,,,,,,,,,,,,,,,,,,,,,,,,,,76,atar,,,,,502.1136,503.6188,1,1,0.9583,,0,84,84,75,1,REAL,FAKE,,,,,,,,,,,,,,,,,
,,,,,,,,,67180c619687ce86be82b29f,spanish,13 or older,"no, only English or Spanish",yes,2025-07-24_10h37.50.701,empathy_intonation_perc_control,2024.2.4,Win32,59.88023952,67180c619687ce86be82b29f,68817205a84113384fffdfe3,688244fccc9ca2917fb858d8,,,,,,,,,,,,,0,,,,,,,,,,,,,,,,,,,,,,,,,,,,,,,,,,,,,30,alardio,,,,,503.6203,505.8556,0,1,1.6869,,0,85,85,29,1,REAL,FAKE,,,,,,,,,,,,,,,,,
,,,,,,,,,67180c619687ce86be82b29f,spanish,13 or older,"no, only English or Spanish",yes,2025-07-24_10h37.50.701,empathy_intonation_perc_control,2024.2.4,Win32,59.88023952,67180c619687ce86be82b29f,68817205a84113384fffdfe3,688244fccc9ca2917fb858d8,,,,,,,,,,,,,1,,,,,,,,,,,,,,,,,,,,,,,,,,,,,,,,,,,,,61,seda,,,,,505.8569,507.7174,1,1,1.3146,,0,86,86,60,1,REAL,FAKE,,,,,,,,,,,,,,,,,
,,,,,,,,,67180c619687ce86be82b29f,spanish,13 or older,"no, only English or Spanish",yes,2025-07-24_10h37.50.701,empathy_intonation_perc_control,2024.2.4,Win32,59.88023952,67180c619687ce86be82b29f,68817205a84113384fffdfe3,688244fccc9ca2917fb858d8,,,,,,,,,,,,,1,,,,,,,,,,,,,,,,,,,,,,,,,,,,,,,,,,,,,90,clavel,,,,,507.7188,509.1651,1,1,0.8962,,0,87,87,89,1,REAL,FAKE,,,,,,,,,,,,,,,,,
,,,,,,,,,67180c619687ce86be82b29f,spanish,13 or older,"no, only English or Spanish",yes,2025-07-24_10h37.50.701,empathy_intonation_perc_control,2024.2.4,Win32,59.88023952,67180c619687ce86be82b29f,68817205a84113384fffdfe3,688244fccc9ca2917fb858d8,,,,,,,,,,,,,1,,,,,,,,,,,,,,,,,,,,,,,,,,,,,,,,,,,,,69,engatusar,,,,,509.1671,510.8543,0,0,1.1487,,0,88,88,68,1,REAL,FAKE,,,,,,,,,,,,,,,,,
,,,,,,,,,67180c619687ce86be82b29f,spanish,13 or older,"no, only English or Spanish",yes,2025-07-24_10h37.50.701,empathy_intonation_perc_control,2024.2.4,Win32,59.88023952,67180c619687ce86be82b29f,68817205a84113384fffdfe3,688244fccc9ca2917fb858d8,,,,,,,,,,,,,1,,,,,,,,,,,,,,,,,,,,,,,,,,,,,,,,,,,,,57,tacaño,,,,,510.8558,513.0044,1,1,1.6122,,0,89,89,56,1,REAL,FAKE,,,,,,,,,,,,,,,,,
,,,,,,,,,67180c619687ce86be82b29f,spanish,13 or older,"no, only English or Spanish",yes,2025-07-24_10h37.50.701,empathy_intonation_perc_control,2024.2.4,Win32,59.88023952,67180c619687ce86be82b29f,68817205a84113384fffdfe3,688244fccc9ca2917fb858d8,,,,,,,,,,,,,1,,,,,,,,,,,,,,,,,,,,,,,,,,,,,,,,,,,,,44,cuchara,,,,,513.0057,514.446,1,1,0.9023,,0,90,90,43,1,REAL,FAKE,,,,,,,,,,,,,,,,,
,,,,,,,,,67180c619687ce86be82b29f,spanish,13 or older,"no, only English or Spanish",yes,2025-07-24_10h37.50.701,empathy_intonation_perc_control,2024.2.4,Win32,59.88023952,67180c619687ce86be82b29f,68817205a84113384fffdfe3,688244fccc9ca2917fb858d8,,,,,,,,,,,,,1,,,,,,,,,,,,,,,,,,,,,,,,,,,,,,,,,,,,,67,cabello,,,,,514.4474,515.8318,1,1,0.8388,,0,91,91,66,1,REAL,FAKE,,,,,,,,,,,,,,,,,
,,,,,,,,,67180c619687ce86be82b29f,spanish,13 or older,"no, only English or Spanish",yes,2025-07-24_10h37.50.701,empathy_intonation_perc_control,2024.2.4,Win32,59.88023952,67180c619687ce86be82b29f,68817205a84113384fffdfe3,688244fccc9ca2917fb858d8,,,,,,,,,,,,,,,,,,,,,,,,,,,,,,,,,,,,,,,,,,,,,,,,,,,,,,,,,,,,,,,,,,,,,515.8323,524.1506,,,,,,,,,,,,,,,
,,,,,,,,,67180c619687ce86be82b29f,spanish,13 or older,"no, only English or Spanish",yes,2025-07-24_10h37.50.701,empathy_intonation_perc_control,2024.2.4,Win32,59.88023952,67180c619687ce86be82b29f,68817205a84113384fffdfe3,688244fccc9ca2917fb858d8,,,,,,,,,,,,,,,,,,,,,,,,,,,1,,,,,,,,,,,,,,,,,,,,,,,,,,,,,,,,,,,,,,,,,,,,524.1681,534.487,strongly agree,0,0,0,0,1,I can easily tell if someone else wants to enter a conversation.,1,0,1,0,,
,,,,,,,,,67180c619687ce86be82b29f,spanish,13 or older,"no, only English or Spanish",yes,2025-07-24_10h37.50.701,empathy_intonation_perc_control,2024.2.4,Win32,59.88023952,67180c619687ce86be82b29f,68817205a84113384fffdfe3,688244fccc9ca2917fb858d8,,,,,,,,,,,,,,,,,,,,,,,,,,,2,,,,,,,,,,,,,,,,,,,,,,,,,,,,,,,,,,,,,,,,,,,,534.4906,537.9394,slightly disagree,0,1,1,1,1,I prefer animals to humans.,0,1,0,0,,
,,,,,,,,,67180c619687ce86be82b29f,spanish,13 or older,"no, only English or Spanish",yes,2025-07-24_10h37.50.701,empathy_intonation_perc_control,2024.2.4,Win32,59.88023952,67180c619687ce86be82b29f,68817205a84113384fffdfe3,688244fccc9ca2917fb858d8,,,,,,,,,,,,,,,,,,,,,,,,,,,3,,,,,,,,,,,,,,,,,,,,,,,,,,,,,,,,,,,,,,,,,,,,537.9428,542.2066,strongly disagree,0,2,2,2,1,I try to keep up with the current trends and fashions.,0,1,0,0,,
,,,,,,,,,67180c619687ce86be82b29f,spanish,13 or older,"no, only English or Spanish",yes,2025-07-24_10h37.50.701,empathy_intonation_perc_control,2024.2.4,Win32,59.88023952,67180c619687ce86be82b29f,68817205a84113384fffdfe3,688244fccc9ca2917fb858d8,,,,,,,,,,,,,,,,,,,,,,,,,,,4,,,,,,,,,,,,,,,,,,,,,,,,,,,,,,,,,,,,,,,,,,,,542.2094,547.652,strongly disagree,0,3,3,3,1,"I find it difficult to explain to others things that I understand easily,   when they don't understand it first time.",1,0,0,1,,
,,,,,,,,,67180c619687ce86be82b29f,spanish,13 or older,"no, only English or Spanish",yes,2025-07-24_10h37.50.701,empathy_intonation_perc_control,2024.2.4,Win32,59.88023952,67180c619687ce86be82b29f,68817205a84113384fffdfe3,688244fccc9ca2917fb858d8,,,,,,,,,,,,,,,,,,,,,,,,,,,5,,,,,,,,,,,,,,,,,,,,,,,,,,,,,,,,,,,,,,,,,,,,547.6536,550.7861,strongly agree,0,4,4,4,1,I dream most nights.,0,1,0,0,,
,,,,,,,,,67180c619687ce86be82b29f,spanish,13 or older,"no, only English or Spanish",yes,2025-07-24_10h37.50.701,empathy_intonation_perc_control,2024.2.4,Win32,59.88023952,67180c619687ce86be82b29f,68817205a84113384fffdfe3,688244fccc9ca2917fb858d8,,,,,,,,,,,,,,,,,,,,,,,,,,,6,,,,,,,,,,,,,,,,,,,,,,,,,,,,,,,,,,,,,,,,,,,,550.7891,553.8221,slightly agree,0,5,5,5,1,I really enjoy caring for other people.,1,0,1,0,,
,,,,,,,,,67180c619687ce86be82b29f,spanish,13 or older,"no, only English or Spanish",yes,2025-07-24_10h37.50.701,empathy_intonation_perc_control,2024.2.4,Win32,59.88023952,67180c619687ce86be82b29f,68817205a84113384fffdfe3,688244fccc9ca2917fb858d8,,,,,,,,,,,,,,,,,,,,,,,,,,,7,,,,,,,,,,,,,,,,,,,,,,,,,,,,,,,,,,,,,,,,,,,,553.8253,558.1907,slightly disagree,0,6,6,6,1,I try to solve my own problems rather than discussing them with others.,0,1,0,0,,
,,,,,,,,,67180c619687ce86be82b29f,spanish,13 or older,"no, only English or Spanish",yes,2025-07-24_10h37.50.701,empathy_intonation_perc_control,2024.2.4,Win32,59.88023952,67180c619687ce86be82b29f,68817205a84113384fffdfe3,688244fccc9ca2917fb858d8,,,,,,,,,,,,,,,,,,,,,,,,,,,8,,,,,,,,,,,,,,,,,,,,,,,,,,,,,,,,,,,,,,,,,,,,558.1928,561.7424,strongly disagree,0,7,7,7,1,I find it hard to know what to do in a social situation.,1,0,0,1,,
,,,,,,,,,67180c619687ce86be82b29f,spanish,13 or older,"no, only English or Spanish",yes,2025-07-24_10h37.50.701,empathy_intonation_perc_control,2024.2.4,Win32,59.88023952,67180c619687ce86be82b29f,68817205a84113384fffdfe3,688244fccc9ca2917fb858d8,,,,,,,,,,,,,,,,,,,,,,,,,,,9,,,,,,,,,,,,,,,,,,,,,,,,,,,,,,,,,,,,,,,,,,,,561.744,565.7429,slightly agree,0,8,8,8,1,I am at my best first thing in the morning.,0,1,0,0,,
,,,,,,,,,67180c619687ce86be82b29f,spanish,13 or older,"no, only English or Spanish",yes,2025-07-24_10h37.50.701,empathy_intonation_perc_control,2024.2.4,Win32,59.88023952,67180c619687ce86be82b29f,68817205a84113384fffdfe3,688244fccc9ca2917fb858d8,,,,,,,,,,,,,,,,,,,,,,,,,,,10,,,,,,,,,,,,,,,,,,,,,,,,,,,,,,,,,,,,,,,,,,,,565.7453,570.9221,strongly agree,0,9,9,9,1,People often tell me that I went too far in driving my point home in a discussion.,1,0,0,1,,
,,,,,,,,,67180c619687ce86be82b29f,spanish,13 or older,"no, only English or Spanish",yes,2025-07-24_10h37.50.701,empathy_intonation_perc_control,2024.2.4,Win32,59.88023952,67180c619687ce86be82b29f,68817205a84113384fffdfe3,688244fccc9ca2917fb858d8,,,,,,,,,,,,,,,,,,,,,,,,,,,11,,,,,,,,,,,,,,,,,,,,,,,,,,,,,,,,,,,,,,,,,,,,570.9248,575.8159,strongly disagree,0,10,10,10,1,It doesn't bother me too much if I am late meeting a friend.,1,0,0,1,,
,,,,,,,,,67180c619687ce86be82b29f,spanish,13 or older,"no, only English or Spanish",yes,2025-07-24_10h37.50.701,empathy_intonation_perc_control,2024.2.4,Win32,59.88023952,67180c619687ce86be82b29f,68817205a84113384fffdfe3,688244fccc9ca2917fb858d8,,,,,,,,,,,,,,,,,,,,,,,,,,,12,,,,,,,,,,,,,,,,,,,,,,,,,,,,,,,,,,,,,,,,,,,,575.82,580.8193,strongly disagree,0,11,11,11,1,"Friendships and relationships are just too difficult, so I tend not to 
  bother with them.",1,0,0,1,,
,,,,,,,,,67180c619687ce86be82b29f,spanish,13 or older,"no, only English or Spanish",yes,2025-07-24_10h37.50.701,empathy_intonation_perc_control,2024.2.4,Win32,59.88023952,67180c619687ce86be82b29f,68817205a84113384fffdfe3,688244fccc9ca2917fb858d8,,,,,,,,,,,,,,,,,,,,,,,,,,,13,,,,,,,,,,,,,,,,,,,,,,,,,,,,,,,,,,,,,,,,,,,,580.8225,585.4624,strongly agree,0,12,12,12,1,"I would never break a law, no matter how minor.",0,1,0,0,,
,,,,,,,,,67180c619687ce86be82b29f,spanish,13 or older,"no, only English or Spanish",yes,2025-07-24_10h37.50.701,empathy_intonation_perc_control,2024.2.4,Win32,59.88023952,67180c619687ce86be82b29f,68817205a84113384fffdfe3,688244fccc9ca2917fb858d8,,,,,,,,,,,,,,,,,,,,,,,,,,,14,,,,,,,,,,,,,,,,,,,,,,,,,,,,,,,,,,,,,,,,,,,,585.4654,589.3776,strongly disagree,0,13,13,13,1,I often find it difficult to judge if something is rude or polite.,1,0,0,1,,
,,,,,,,,,67180c619687ce86be82b29f,spanish,13 or older,"no, only English or Spanish",yes,2025-07-24_10h37.50.701,empathy_intonation_perc_control,2024.2.4,Win32,59.88023952,67180c619687ce86be82b29f,68817205a84113384fffdfe3,688244fccc9ca2917fb858d8,,,,,,,,,,,,,,,,,,,,,,,,,,,15,,,,,,,,,,,,,,,,,,,,,,,,,,,,,,,,,,,,,,,,,,,,589.3822,595.2137,slightly disagree,0,14,14,14,1,"In a conversation, I tend to focus on my own thoughts rather than on what 
  my listener might be thinking.",1,0,0,1,,
,,,,,,,,,67180c619687ce86be82b29f,spanish,13 or older,"no, only English or Spanish",yes,2025-07-24_10h37.50.701,empathy_intonation_perc_control,2024.2.4,Win32,59.88023952,67180c619687ce86be82b29f,68817205a84113384fffdfe3,688244fccc9ca2917fb858d8,,,,,,,,,,,,,,,,,,,,,,,,,,,16,,,,,,,,,,,,,,,,,,,,,,,,,,,,,,,,,,,,,,,,,,,,595.2165,601.6485,strongly disagree,0,15,15,15,1,I prefer practical jokes to verbal humor.,0,1,0,0,,
,,,,,,,,,67180c619687ce86be82b29f,spanish,13 or older,"no, only English or Spanish",yes,2025-07-24_10h37.50.701,empathy_intonation_perc_control,2024.2.4,Win32,59.88023952,67180c619687ce86be82b29f,68817205a84113384fffdfe3,688244fccc9ca2917fb858d8,,,,,,,,,,,,,,,,,,,,,,,,,,,17,,,,,,,,,,,,,,,,,,,,,,,,,,,,,,,,,,,,,,,,,,,,601.6502,604.7675,strongly disagree,0,16,16,16,1,I live life for today rather than the future.,0,1,0,0,,
,,,,,,,,,67180c619687ce86be82b29f,spanish,13 or older,"no, only English or Spanish",yes,2025-07-24_10h37.50.701,empathy_intonation_perc_control,2024.2.4,Win32,59.88023952,67180c619687ce86be82b29f,68817205a84113384fffdfe3,688244fccc9ca2917fb858d8,,,,,,,,,,,,,,,,,,,,,,,,,,,18,,,,,,,,,,,,,,,,,,,,,,,,,,,,,,,,,,,,,,,,,,,,604.7701,608.1599,strongly disagree,0,17,17,17,1,"When I was a child, I enjoyed cutting up worms to see what would happen.",1,0,0,1,,
,,,,,,,,,67180c619687ce86be82b29f,spanish,13 or older,"no, only English or Spanish",yes,2025-07-24_10h37.50.701,empathy_intonation_perc_control,2024.2.4,Win32,59.88023952,67180c619687ce86be82b29f,68817205a84113384fffdfe3,688244fccc9ca2917fb858d8,,,,,,,,,,,,,,,,,,,,,,,,,,,19,,,,,,,,,,,,,,,,,,,,,,,,,,,,,,,,,,,,,,,,,,,,608.1637,612.2267,strongly agree,0,18,18,18,1,I can pick up quickly if someone says one thing but means another.,1,0,1,0,,
,,,,,,,,,67180c619687ce86be82b29f,spanish,13 or older,"no, only English or Spanish",yes,2025-07-24_10h37.50.701,empathy_intonation_perc_control,2024.2.4,Win32,59.88023952,67180c619687ce86be82b29f,68817205a84113384fffdfe3,688244fccc9ca2917fb858d8,,,,,,,,,,,,,,,,,,,,,,,,,,,20,,,,,,,,,,,,,,,,,,,,,,,,,,,,,,,,,,,,,,,,,,,,612.2285,615.5834,slightly agree,0,19,19,19,1,I tend to have very strong opinions about morality.,0,1,0,0,,
,,,,,,,,,67180c619687ce86be82b29f,spanish,13 or older,"no, only English or Spanish",yes,2025-07-24_10h37.50.701,empathy_intonation_perc_control,2024.2.4,Win32,59.88023952,67180c619687ce86be82b29f,68817205a84113384fffdfe3,688244fccc9ca2917fb858d8,,,,,,,,,,,,,,,,,,,,,,,,,,,21,,,,,,,,,,,,,,,,,,,,,,,,,,,,,,,,,,,,,,,,,,,,615.5854,622.2202,strongly agree,0,20,20,20,1,It is hard for me to see why some things upset people so much.,1,0,0,1,,
,,,,,,,,,67180c619687ce86be82b29f,spanish,13 or older,"no, only English or Spanish",yes,2025-07-24_10h37.50.701,empathy_intonation_perc_control,2024.2.4,Win32,59.88023952,67180c619687ce86be82b29f,68817205a84113384fffdfe3,688244fccc9ca2917fb858d8,,,,,,,,,,,,,,,,,,,,,,,,,,,22,,,,,,,,,,,,,,,,,,,,,,,,,,,,,,,,,,,,,,,,,,,,622.2219,626.0433,strongly agree,0,21,21,21,1,I find it easy to put myself in somebody else's shoes.,1,0,1,0,,
,,,,,,,,,67180c619687ce86be82b29f,spanish,13 or older,"no, only English or Spanish",yes,2025-07-24_10h37.50.701,empathy_intonation_perc_control,2024.2.4,Win32,59.88023952,67180c619687ce86be82b29f,68817205a84113384fffdfe3,688244fccc9ca2917fb858d8,,,,,,,,,,,,,,,,,,,,,,,,,,,23,,,,,,,,,,,,,,,,,,,,,,,,,,,,,,,,,,,,,,,,,,,,626.047,630.6416,slightly disagree,0,22,22,22,1,I think that good manners are the most important thing a parent can teach their child.,0,1,0,0,,
,,,,,,,,,67180c619687ce86be82b29f,spanish,13 or older,"no, only English or Spanish",yes,2025-07-24_10h37.50.701,empathy_intonation_perc_control,2024.2.4,Win32,59.88023952,67180c619687ce86be82b29f,68817205a84113384fffdfe3,688244fccc9ca2917fb858d8,,,,,,,,,,,,,,,,,,,,,,,,,,,24,,,,,,,,,,,,,,,,,,,,,,,,,,,,,,,,,,,,,,,,,,,,630.6446,633.4444,slightly disagree,0,23,23,23,1,I like to do things on the spur of the moment.,0,1,0,0,,
