instructions_2afc.started,instructions_2afc.stopped,instructions_2afc_loop.thisRepN,instructions_2afc_loop.thisTrialN,instructions_2afc_loop.thisN,instructions_2afc_loop.thisIndex,instructions_2afc_loop.ran,instructions_text,continue_text,participant_id,"What variety of Spanish are you most familiar with? (e.g., Peruvian, Spanish, Mexican)",At what age did you begin learning Spanish?,Are you proficient in any languages other than English/Spanish?,"Are you familiar with Caribbean (e.g., Caribbean, Puerto Rican) or Galician Spanish?",date,expName,psychopyVersion,OS,frameRate,id,study_id,session,practice_2afc.started,practice_2afc.stopped,key_resp_2afc_practice.keys,key_resp_2afc_practice.corr,key_resp_2afc_practice.rt,key_resp_2afc_practice.duration,trials_2afc_practice_loop.thisRepN,trials_2afc_practice_loop.thisTrialN,trials_2afc_practice_loop.thisN,trials_2afc_practice_loop.thisIndex,trials_2afc_practice_loop.ran,path,correct_response,check_2afc.started,check_2afc.stopped,trial_2afc.started,trial_2afc.stopped,key_resp_2afc_trial.keys,key_resp_2afc_trial.corr,key_resp_2afc_trial.rt,key_resp_2afc_trial.duration,trials_2afc_loop.thisRepN,trials_2afc_loop.thisTrialN,trials_2afc_loop.thisN,trials_2afc_loop.thisIndex,trials_2afc_loop.ran,item_num,target,variety,instructions_lextale.started,instructions_lextale.stopped,instructions_lextale_loop.thisRepN,instructions_lextale_loop.thisTrialN,instructions_lextale_loop.thisN,instructions_lextale_loop.thisIndex,instructions_lextale_loop.ran,practice_lextale.started,practice_lextale.stopped,key_resp_lextale_practice.keys,key_resp_lextale_practice.corr,key_resp_lextale_practice.rt,key_resp_lextale_practice.duration,practice_feedback_lextale.started,practice_feedback_lextale.stopped,trials_lextale_practice_loop.thisRepN,trials_lextale_practice_loop.thisTrialN,trials_lextale_practice_loop.thisN,trials_lextale_practice_loop.thisIndex,trials_lextale_practice_loop.ran,stim,word,prac_button_real,prac_button_false,check_lextale.started,check_lextale.stopped,trial_lextale.started,trial_lextale.stopped,key_resp_lextale_trial.keys,key_resp_lextale_trial.corr,key_resp_lextale_trial.rt,key_resp_lextale_trial.duration,trials_lextale_loop.thisRepN,trials_lextale_loop.thisTrialN,trials_lextale_loop.thisN,trials_lextale_loop.thisIndex,trials_lextale_loop.ran,button_real,button_false,instructions_eq.started,instructions_eq.stopped,trial_eq.started,trial_eq.stopped,slider_eq_trial.response,trials_eq_loop.thisRepN,trials_eq_loop.thisTrialN,trials_eq_loop.thisN,trials_eq_loop.thisIndex,trials_eq_loop.ran,item,is_test_item,is_distractor,is_agree_score,is_disagree_score,end_exp.started,end_exp.stopped
0.0284,8.3153,0,0,0,0,1,"In the following task you are going to hear a series of utterances. 

  You will decide if the utterances sound like questions or not using your keyboard.", (press the spacebar to continue),6718fc8e87940911f7093cfd,mexican,13 or older,"no, only English or Spanish",no,2025-07-23_22h20.43.412,empathy_intonation_perc_control,2024.2.4,MacIntel,62.5,6718fc8e87940911f7093cfd,68817205a84113384fffdfe3,68819824c078969b1c050068,,,,,,,,,,,,,,,,,,,,,,,,,,,,,,,,,,,,,,,,,,,,,,,,,,,,,,,,,,,,,,,,,,,,,,,,,,,,,,,,,,,,,
8.3175,18.2998,0,1,1,1,1,"If you believe the utterance is a question, type '1' (for 'yes') and if you do not 
  believe it is a question type '0' (for 'no').

  Let's practice a bit...", (press the spacebar to continue),6718fc8e87940911f7093cfd,mexican,13 or older,"no, only English or Spanish",no,2025-07-23_22h20.43.412,empathy_intonation_perc_control,2024.2.4,MacIntel,62.5,6718fc8e87940911f7093cfd,68817205a84113384fffdfe3,68819824c078969b1c050068,,,,,,,,,,,,,,,,,,,,,,,,,,,,,,,,,,,,,,,,,,,,,,,,,,,,,,,,,,,,,,,,,,,,,,,,,,,,,,,,,,,,,
,,,,,,,,,6718fc8e87940911f7093cfd,mexican,13 or older,"no, only English or Spanish",no,2025-07-23_22h20.43.412,empathy_intonation_perc_control,2024.2.4,MacIntel,62.5,6718fc8e87940911f7093cfd,68817205a84113384fffdfe3,68819824c078969b1c050068,18.3124,22.8331,1,1,4.0036,,0,0,0,0,1,./stim/wavs/castilian_question_filler_Mi-esposo-conoce-al-chico.wav,1,,,,,,,,,,,,,,,,,,,,,,,,,,,,,,,,,,,,,,,,,,,,,,,,,,,,,,,,,,,,,,,,,,,,,,,,
,,,,,,,,,6718fc8e87940911f7093cfd,mexican,13 or older,"no, only English or Spanish",no,2025-07-23_22h20.43.412,empathy_intonation_perc_control,2024.2.4,MacIntel,62.5,6718fc8e87940911f7093cfd,68817205a84113384fffdfe3,68819824c078969b1c050068,22.8343,29.7838,0,0,6.4226,,0,1,1,2,1,./stim/wavs/chilean_question_filler_Mi-padre-cantaba-bien.wav,1,,,,,,,,,,,,,,,,,,,,,,,,,,,,,,,,,,,,,,,,,,,,,,,,,,,,,,,,,,,,,,,,,,,,,,,,
,,,,,,,,,6718fc8e87940911f7093cfd,mexican,13 or older,"no, only English or Spanish",no,2025-07-23_22h20.43.412,empathy_intonation_perc_control,2024.2.4,MacIntel,62.5,6718fc8e87940911f7093cfd,68817205a84113384fffdfe3,68819824c078969b1c050068,29.7846,34.3678,0,1,4.0504,,0,2,2,6,1,./stim/wavs/peruvian_statement_filler_El-nino-habla-con-su-madre.wav,0,,,,,,,,,,,,,,,,,,,,,,,,,,,,,,,,,,,,,,,,,,,,,,,,,,,,,,,,,,,,,,,,,,,,,,,,
,,,,,,,,,6718fc8e87940911f7093cfd,mexican,13 or older,"no, only English or Spanish",no,2025-07-23_22h20.43.412,empathy_intonation_perc_control,2024.2.4,MacIntel,62.5,6718fc8e87940911f7093cfd,68817205a84113384fffdfe3,68819824c078969b1c050068,34.3686,37.7667,1,1,2.8701,,0,3,3,1,1,./stim/wavs/argentine_question_filler_Mi-vecino-habla-mucho.wav,1,,,,,,,,,,,,,,,,,,,,,,,,,,,,,,,,,,,,,,,,,,,,,,,,,,,,,,,,,,,,,,,,,,,,,,,,
,,,,,,,,,6718fc8e87940911f7093cfd,mexican,13 or older,"no, only English or Spanish",no,2025-07-23_22h20.43.412,empathy_intonation_perc_control,2024.2.4,MacIntel,62.5,6718fc8e87940911f7093cfd,68817205a84113384fffdfe3,68819824c078969b1c050068,37.7673,40.9681,0,1,2.6849,,0,4,4,5,1,./stim/wavs/andalusian_statement_filler_Alberto-nunca-se-afeita.wav,0,,,,,,,,,,,,,,,,,,,,,,,,,,,,,,,,,,,,,,,,,,,,,,,,,,,,,,,,,,,,,,,,,,,,,,,,
,,,,,,,,,6718fc8e87940911f7093cfd,mexican,13 or older,"no, only English or Spanish",no,2025-07-23_22h20.43.412,empathy_intonation_perc_control,2024.2.4,MacIntel,62.5,6718fc8e87940911f7093cfd,68817205a84113384fffdfe3,68819824c078969b1c050068,40.9685,44.9508,0,0,3.4577,,0,5,5,3,1,./stim/wavs/mexican_question_filler_Felipe-no-tiene-contrasena.wav,1,,,,,,,,,,,,,,,,,,,,,,,,,,,,,,,,,,,,,,,,,,,,,,,,,,,,,,,,,,,,,,,,,,,,,,,,
,,,,,,,,,6718fc8e87940911f7093cfd,mexican,13 or older,"no, only English or Spanish",no,2025-07-23_22h20.43.412,empathy_intonation_perc_control,2024.2.4,MacIntel,62.5,6718fc8e87940911f7093cfd,68817205a84113384fffdfe3,68819824c078969b1c050068,44.9517,48.8512,0,1,3.3828,,0,6,6,4,1,./stim/wavs/cuban_statement_filler_Cocinabas-por-la-noche.wav,0,,,,,,,,,,,,,,,,,,,,,,,,,,,,,,,,,,,,,,,,,,,,,,,,,,,,,,,,,,,,,,,,,,,,,,,,
,,,,,,,,,6718fc8e87940911f7093cfd,mexican,13 or older,"no, only English or Spanish",no,2025-07-23_22h20.43.412,empathy_intonation_perc_control,2024.2.4,MacIntel,62.5,6718fc8e87940911f7093cfd,68817205a84113384fffdfe3,68819824c078969b1c050068,48.8518,53.6019,0,1,4.2228,,0,7,7,7,1,./stim/wavs/puertorican_statement_filler_La-nina-pinta-con-su-amiga.wav,0,,,,,,,,,,,,,,,,,,,,,,,,,,,,,,,,,,,,,,,,,,,,,,,,,,,,,,,,,,,,,,,,,,,,,,,,
,,,,,,,,,6718fc8e87940911f7093cfd,mexican,13 or older,"no, only English or Spanish",no,2025-07-23_22h20.43.412,empathy_intonation_perc_control,2024.2.4,MacIntel,62.5,6718fc8e87940911f7093cfd,68817205a84113384fffdfe3,68819824c078969b1c050068,,,,,,,,,,,,,,53.6023,60.4358,,,,,,,,,,,,,,,,,,,,,,,,,,,,,,,,,,,,,,,,,,,,,,,,,,,,,,,,,,,,,,,,,,,,,,
,,,,,,,,,6718fc8e87940911f7093cfd,mexican,13 or older,"no, only English or Spanish",no,2025-07-23_22h20.43.412,empathy_intonation_perc_control,2024.2.4,MacIntel,62.5,6718fc8e87940911f7093cfd,68817205a84113384fffdfe3,68819824c078969b1c050068,,,,,,,,,,,,./stim/wavs/puertorican_match_interrogative-total-yn_Manuela-vende-el-carro.wav,1,,,60.4474,65.8025,1,1,4.8354,,0,0,0,22,1,23,1,puertorican,,,,,,,,,,,,,,,,,,,,,,,,,,,,,,,,,,,,,,,,,,,,,,,,,,,,,,,,
,,,,,,,,,6718fc8e87940911f7093cfd,mexican,13 or older,"no, only English or Spanish",no,2025-07-23_22h20.43.412,empathy_intonation_perc_control,2024.2.4,MacIntel,62.5,6718fc8e87940911f7093cfd,68817205a84113384fffdfe3,68819824c078969b1c050068,,,,,,,,,,,,./stim/wavs/cuban_match_declarative-broad-focus_Marta-abre-el-regalo.wav,0,,,65.8033,69.6694,0,1,3.3591,,0,1,1,55,1,56,0,cuban,,,,,,,,,,,,,,,,,,,,,,,,,,,,,,,,,,,,,,,,,,,,,,,,,,,,,,,,
,,,,,,,,,6718fc8e87940911f7093cfd,mexican,13 or older,"no, only English or Spanish",no,2025-07-23_22h20.43.412,empathy_intonation_perc_control,2024.2.4,MacIntel,62.5,6718fc8e87940911f7093cfd,68817205a84113384fffdfe3,68819824c078969b1c050068,,,,,,,,,,,,./stim/wavs/cuban_match_interrogative-total-yn_Daniel-iba-a-Bolivia.wav,1,,,69.6701,76.7374,0,0,6.5392,,0,2,2,7,1,8,1,cuban,,,,,,,,,,,,,,,,,,,,,,,,,,,,,,,,,,,,,,,,,,,,,,,,,,,,,,,,
,,,,,,,,,6718fc8e87940911f7093cfd,mexican,13 or older,"no, only English or Spanish",no,2025-07-23_22h20.43.412,empathy_intonation_perc_control,2024.2.4,MacIntel,62.5,6718fc8e87940911f7093cfd,68817205a84113384fffdfe3,68819824c078969b1c050068,,,,,,,,,,,,./stim/wavs/puertorican_match_interrogative-total-yn_Emilio-ama-la-marcha.wav,1,,,76.7385,80.6208,0,0,3.3555,,0,3,3,21,1,22,1,puertorican,,,,,,,,,,,,,,,,,,,,,,,,,,,,,,,,,,,,,,,,,,,,,,,,,,,,,,,,
,,,,,,,,,6718fc8e87940911f7093cfd,mexican,13 or older,"no, only English or Spanish",no,2025-07-23_22h20.43.412,empathy_intonation_perc_control,2024.2.4,MacIntel,62.5,6718fc8e87940911f7093cfd,68817205a84113384fffdfe3,68819824c078969b1c050068,,,,,,,,,,,,./stim/wavs/puertorican_match_declarative-broad-focus_Emilio-ama-la-marcha.wav,0,,,80.6216,85.9544,0,1,4.8044,,0,4,4,65,1,66,0,puertorican,,,,,,,,,,,,,,,,,,,,,,,,,,,,,,,,,,,,,,,,,,,,,,,,,,,,,,,,
,,,,,,,,,6718fc8e87940911f7093cfd,mexican,13 or older,"no, only English or Spanish",no,2025-07-23_22h20.43.412,empathy_intonation_perc_control,2024.2.4,MacIntel,62.5,6718fc8e87940911f7093cfd,68817205a84113384fffdfe3,68819824c078969b1c050068,,,,,,,,,,,,./stim/wavs/puertorican_mismatch_interrogative-total-yn_El-hombre-mira-la-luna.wav,1,,,85.9553,89.0044,0,0,2.5163,,0,5,5,39,1,40,1,puertorican,,,,,,,,,,,,,,,,,,,,,,,,,,,,,,,,,,,,,,,,,,,,,,,,,,,,,,,,
,,,,,,,,,6718fc8e87940911f7093cfd,mexican,13 or older,"no, only English or Spanish",no,2025-07-23_22h20.43.412,empathy_intonation_perc_control,2024.2.4,MacIntel,62.5,6718fc8e87940911f7093cfd,68817205a84113384fffdfe3,68819824c078969b1c050068,,,,,,,,,,,,./stim/wavs/cuban_match_declarative-broad-focus_Ana-lleva-el-abrigo.wav,0,,,89.005,92.7715,0,1,3.2333,,0,6,6,50,1,51,0,cuban,,,,,,,,,,,,,,,,,,,,,,,,,,,,,,,,,,,,,,,,,,,,,,,,,,,,,,,,
,,,,,,,,,6718fc8e87940911f7093cfd,mexican,13 or older,"no, only English or Spanish",no,2025-07-23_22h20.43.412,empathy_intonation_perc_control,2024.2.4,MacIntel,62.5,6718fc8e87940911f7093cfd,68817205a84113384fffdfe3,68819824c078969b1c050068,,,,,,,,,,,,./stim/wavs/mexican_mismatch_interrogative-total-yn_El-nino-oye-el-rio.wav,1,,,92.7722,97.7549,1,1,4.4527,,0,7,7,35,1,36,0,mexican,,,,,,,,,,,,,,,,,,,,,,,,,,,,,,,,,,,,,,,,,,,,,,,,,,,,,,,,
,,,,,,,,,6718fc8e87940911f7093cfd,mexican,13 or older,"no, only English or Spanish",no,2025-07-23_22h20.43.412,empathy_intonation_perc_control,2024.2.4,MacIntel,62.5,6718fc8e87940911f7093cfd,68817205a84113384fffdfe3,68819824c078969b1c050068,,,,,,,,,,,,./stim/wavs/mexican_match_declarative-broad-focus_Mariano-habla-del-tiempo.wav,0,,,97.7555,103.4548,0,1,5.1729,,0,8,8,60,1,61,0,mexican,,,,,,,,,,,,,,,,,,,,,,,,,,,,,,,,,,,,,,,,,,,,,,,,,,,,,,,,
,,,,,,,,,6718fc8e87940911f7093cfd,mexican,13 or older,"no, only English or Spanish",no,2025-07-23_22h20.43.412,empathy_intonation_perc_control,2024.2.4,MacIntel,62.5,6718fc8e87940911f7093cfd,68817205a84113384fffdfe3,68819824c078969b1c050068,,,,,,,,,,,,./stim/wavs/castilian_mismatch_interrogative-total-yn_Mi-novio-viene-del-lago.wav,1,,,103.4555,106.9387,0,0,2.9518,,0,9,9,27,1,28,0,castilian,,,,,,,,,,,,,,,,,,,,,,,,,,,,,,,,,,,,,,,,,,,,,,,,,,,,,,,,
,,,,,,,,,6718fc8e87940911f7093cfd,mexican,13 or older,"no, only English or Spanish",no,2025-07-23_22h20.43.412,empathy_intonation_perc_control,2024.2.4,MacIntel,62.5,6718fc8e87940911f7093cfd,68817205a84113384fffdfe3,68819824c078969b1c050068,,,,,,,,,,,,./stim/wavs/castilian_mismatch_declarative-broad-focus_La-nina-lava-el-plato.wav,0,,,106.9394,111.1224,0,1,3.6736,,0,10,10,70,1,71,0,castilian,,,,,,,,,,,,,,,,,,,,,,,,,,,,,,,,,,,,,,,,,,,,,,,,,,,,,,,,
,,,,,,,,,6718fc8e87940911f7093cfd,mexican,13 or older,"no, only English or Spanish",no,2025-07-23_22h20.43.412,empathy_intonation_perc_control,2024.2.4,MacIntel,62.5,6718fc8e87940911f7093cfd,68817205a84113384fffdfe3,68819824c078969b1c050068,,,,,,,,,,,,./stim/wavs/cuban_match_interrogative-total-yn_Mariano-habla-del-tiempo.wav,1,,,111.1234,118.6228,0,0,6.9723,,0,11,11,10,1,11,1,cuban,,,,,,,,,,,,,,,,,,,,,,,,,,,,,,,,,,,,,,,,,,,,,,,,,,,,,,,,
,,,,,,,,,6718fc8e87940911f7093cfd,mexican,13 or older,"no, only English or Spanish",no,2025-07-23_22h20.43.412,empathy_intonation_perc_control,2024.2.4,MacIntel,62.5,6718fc8e87940911f7093cfd,68817205a84113384fffdfe3,68819824c078969b1c050068,,,,,,,,,,,,./stim/wavs/castilian_match_interrogative-total-yn_Mariano-habla-del-tiempo.wav,1,,,118.6235,123.6562,1,1,4.5251,,0,12,12,4,1,5,0,castilian,,,,,,,,,,,,,,,,,,,,,,,,,,,,,,,,,,,,,,,,,,,,,,,,,,,,,,,,
,,,,,,,,,6718fc8e87940911f7093cfd,mexican,13 or older,"no, only English or Spanish",no,2025-07-23_22h20.43.412,empathy_intonation_perc_control,2024.2.4,MacIntel,62.5,6718fc8e87940911f7093cfd,68817205a84113384fffdfe3,68819824c078969b1c050068,,,,,,,,,,,,./stim/wavs/mexican_mismatch_interrogative-total-yn_Mi-novio-viene-del-lago.wav,1,,,123.657,127.84,0,0,3.6749,,0,13,13,37,1,38,0,mexican,,,,,,,,,,,,,,,,,,,,,,,,,,,,,,,,,,,,,,,,,,,,,,,,,,,,,,,,
,,,,,,,,,6718fc8e87940911f7093cfd,mexican,13 or older,"no, only English or Spanish",no,2025-07-23_22h20.43.412,empathy_intonation_perc_control,2024.2.4,MacIntel,62.5,6718fc8e87940911f7093cfd,68817205a84113384fffdfe3,68819824c078969b1c050068,,,,,,,,,,,,./stim/wavs/puertorican_mismatch_declarative-broad-focus_El-bebe-comia-muy-bien.wav,0,,,127.8409,130.3576,0,1,1.9995,,0,14,14,83,1,84,0,puertorican,,,,,,,,,,,,,,,,,,,,,,,,,,,,,,,,,,,,,,,,,,,,,,,,,,,,,,,,
,,,,,,,,,6718fc8e87940911f7093cfd,mexican,13 or older,"no, only English or Spanish",no,2025-07-23_22h20.43.412,empathy_intonation_perc_control,2024.2.4,MacIntel,62.5,6718fc8e87940911f7093cfd,68817205a84113384fffdfe3,68819824c078969b1c050068,,,,,,,,,,,,./stim/wavs/mexican_match_interrogative-total-yn_Mariano-habla-del-tiempo.wav,1,,,130.3584,136.5747,1,1,5.6877,,0,15,15,16,1,17,0,mexican,,,,,,,,,,,,,,,,,,,,,,,,,,,,,,,,,,,,,,,,,,,,,,,,,,,,,,,,
,,,,,,,,,6718fc8e87940911f7093cfd,mexican,13 or older,"no, only English or Spanish",no,2025-07-23_22h20.43.412,empathy_intonation_perc_control,2024.2.4,MacIntel,62.5,6718fc8e87940911f7093cfd,68817205a84113384fffdfe3,68819824c078969b1c050068,,,,,,,,,,,,./stim/wavs/cuban_match_declarative-broad-focus_Manuela-vende-el-carro.wav,0,,,136.5753,139.0408,0,1,1.9341,,0,16,16,52,1,53,0,cuban,,,,,,,,,,,,,,,,,,,,,,,,,,,,,,,,,,,,,,,,,,,,,,,,,,,,,,,,
,,,,,,,,,6718fc8e87940911f7093cfd,mexican,13 or older,"no, only English or Spanish",no,2025-07-23_22h20.43.412,empathy_intonation_perc_control,2024.2.4,MacIntel,62.5,6718fc8e87940911f7093cfd,68817205a84113384fffdfe3,68819824c078969b1c050068,,,,,,,,,,,,./stim/wavs/castilian_mismatch_declarative-broad-focus_Mi-tia-odia-la-lluvia.wav,0,,,139.0414,141.9578,0,1,2.4004,,0,17,17,72,1,73,0,castilian,,,,,,,,,,,,,,,,,,,,,,,,,,,,,,,,,,,,,,,,,,,,,,,,,,,,,,,,
,,,,,,,,,6718fc8e87940911f7093cfd,mexican,13 or older,"no, only English or Spanish",no,2025-07-23_22h20.43.412,empathy_intonation_perc_control,2024.2.4,MacIntel,62.5,6718fc8e87940911f7093cfd,68817205a84113384fffdfe3,68819824c078969b1c050068,,,,,,,,,,,,./stim/wavs/puertorican_mismatch_interrogative-total-yn_La-maestra-vive-en-Paris.wav,1,,,141.9588,144.642,0,0,2.1737,,0,18,18,41,1,42,1,puertorican,,,,,,,,,,,,,,,,,,,,,,,,,,,,,,,,,,,,,,,,,,,,,,,,,,,,,,,,
,,,,,,,,,6718fc8e87940911f7093cfd,mexican,13 or older,"no, only English or Spanish",no,2025-07-23_22h20.43.412,empathy_intonation_perc_control,2024.2.4,MacIntel,62.5,6718fc8e87940911f7093cfd,68817205a84113384fffdfe3,68819824c078969b1c050068,,,,,,,,,,,,./stim/wavs/puertorican_match_interrogative-total-yn_David-leia-el-libro.wav,1,,,144.6425,146.8087,1,1,1.6416,,0,19,19,20,1,21,1,puertorican,,,,,,,,,,,,,,,,,,,,,,,,,,,,,,,,,,,,,,,,,,,,,,,,,,,,,,,,
,,,,,,,,,6718fc8e87940911f7093cfd,mexican,13 or older,"no, only English or Spanish",no,2025-07-23_22h20.43.412,empathy_intonation_perc_control,2024.2.4,MacIntel,62.5,6718fc8e87940911f7093cfd,68817205a84113384fffdfe3,68819824c078969b1c050068,,,,,,,,,,,,./stim/wavs/puertorican_mismatch_declarative-broad-focus_El-hombre-mira-la-luna.wav,0,,,146.8093,151.0419,0,1,3.7072,,0,20,20,84,1,85,0,puertorican,,,,,,,,,,,,,,,,,,,,,,,,,,,,,,,,,,,,,,,,,,,,,,,,,,,,,,,,
,,,,,,,,,6718fc8e87940911f7093cfd,mexican,13 or older,"no, only English or Spanish",no,2025-07-23_22h20.43.412,empathy_intonation_perc_control,2024.2.4,MacIntel,62.5,6718fc8e87940911f7093cfd,68817205a84113384fffdfe3,68819824c078969b1c050068,,,,,,,,,,,,./stim/wavs/puertorican_mismatch_interrogative-total-yn_La-nina-lava-el-plato.wav,1,,,151.0425,153.309,0,0,1.7387,,0,21,21,42,1,43,1,puertorican,,,,,,,,,,,,,,,,,,,,,,,,,,,,,,,,,,,,,,,,,,,,,,,,,,,,,,,,
,,,,,,,,,6718fc8e87940911f7093cfd,mexican,13 or older,"no, only English or Spanish",no,2025-07-23_22h20.43.412,empathy_intonation_perc_control,2024.2.4,MacIntel,62.5,6718fc8e87940911f7093cfd,68817205a84113384fffdfe3,68819824c078969b1c050068,,,,,,,,,,,,./stim/wavs/cuban_mismatch_declarative-broad-focus_El-hombre-mira-la-luna.wav,0,,,153.3096,157.8594,0,1,4.0365,,0,22,22,74,1,75,0,cuban,,,,,,,,,,,,,,,,,,,,,,,,,,,,,,,,,,,,,,,,,,,,,,,,,,,,,,,,
,,,,,,,,,6718fc8e87940911f7093cfd,mexican,13 or older,"no, only English or Spanish",no,2025-07-23_22h20.43.412,empathy_intonation_perc_control,2024.2.4,MacIntel,62.5,6718fc8e87940911f7093cfd,68817205a84113384fffdfe3,68819824c078969b1c050068,,,,,,,,,,,,./stim/wavs/puertorican_match_declarative-broad-focus_Manuela-vende-el-carro.wav,0,,,157.86,161.4595,0,1,3.074,,0,23,23,66,1,67,0,puertorican,,,,,,,,,,,,,,,,,,,,,,,,,,,,,,,,,,,,,,,,,,,,,,,,,,,,,,,,
,,,,,,,,,6718fc8e87940911f7093cfd,mexican,13 or older,"no, only English or Spanish",no,2025-07-23_22h20.43.412,empathy_intonation_perc_control,2024.2.4,MacIntel,62.5,6718fc8e87940911f7093cfd,68817205a84113384fffdfe3,68819824c078969b1c050068,,,,,,,,,,,,./stim/wavs/castilian_mismatch_interrogative-total-yn_Mi-madre-come-la-fruta.wav,1,,,161.4601,166.1938,1,1,4.2108,,0,24,24,26,1,27,0,castilian,,,,,,,,,,,,,,,,,,,,,,,,,,,,,,,,,,,,,,,,,,,,,,,,,,,,,,,,
,,,,,,,,,6718fc8e87940911f7093cfd,mexican,13 or older,"no, only English or Spanish",no,2025-07-23_22h20.43.412,empathy_intonation_perc_control,2024.2.4,MacIntel,62.5,6718fc8e87940911f7093cfd,68817205a84113384fffdfe3,68819824c078969b1c050068,,,,,,,,,,,,./stim/wavs/mexican_mismatch_declarative-broad-focus_Mi-tia-odia-la-lluvia.wav,0,,,166.1944,170.1269,0,1,3.4063,,0,25,25,82,1,83,0,mexican,,,,,,,,,,,,,,,,,,,,,,,,,,,,,,,,,,,,,,,,,,,,,,,,,,,,,,,,
,,,,,,,,,6718fc8e87940911f7093cfd,mexican,13 or older,"no, only English or Spanish",no,2025-07-23_22h20.43.412,empathy_intonation_perc_control,2024.2.4,MacIntel,62.5,6718fc8e87940911f7093cfd,68817205a84113384fffdfe3,68819824c078969b1c050068,,,,,,,,,,,,./stim/wavs/cuban_mismatch_interrogative-total-yn_Mi-novio-viene-del-lago.wav,1,,,170.1277,172.7938,0,0,2.1391,,0,26,26,32,1,33,1,cuban,,,,,,,,,,,,,,,,,,,,,,,,,,,,,,,,,,,,,,,,,,,,,,,,,,,,,,,,
,,,,,,,,,6718fc8e87940911f7093cfd,mexican,13 or older,"no, only English or Spanish",no,2025-07-23_22h20.43.412,empathy_intonation_perc_control,2024.2.4,MacIntel,62.5,6718fc8e87940911f7093cfd,68817205a84113384fffdfe3,68819824c078969b1c050068,,,,,,,,,,,,./stim/wavs/mexican_mismatch_interrogative-total-yn_El-hombre-mira-la-luna.wav,1,,,172.7947,174.8429,1,1,1.5179,,0,27,27,34,1,35,0,mexican,,,,,,,,,,,,,,,,,,,,,,,,,,,,,,,,,,,,,,,,,,,,,,,,,,,,,,,,
,,,,,,,,,6718fc8e87940911f7093cfd,mexican,13 or older,"no, only English or Spanish",no,2025-07-23_22h20.43.412,empathy_intonation_perc_control,2024.2.4,MacIntel,62.5,6718fc8e87940911f7093cfd,68817205a84113384fffdfe3,68819824c078969b1c050068,,,,,,,,,,,,./stim/wavs/mexican_mismatch_interrogative-total-yn_Mi-tia-odia-la-lluvia.wav,1,,,174.8435,178.3434,1,1,2.983,,0,28,28,38,1,39,0,mexican,,,,,,,,,,,,,,,,,,,,,,,,,,,,,,,,,,,,,,,,,,,,,,,,,,,,,,,,
,,,,,,,,,6718fc8e87940911f7093cfd,mexican,13 or older,"no, only English or Spanish",no,2025-07-23_22h20.43.412,empathy_intonation_perc_control,2024.2.4,MacIntel,62.5,6718fc8e87940911f7093cfd,68817205a84113384fffdfe3,68819824c078969b1c050068,,,,,,,,,,,,./stim/wavs/mexican_match_declarative-broad-focus_Daniel-iba-a-Bolivia.wav,0,,,178.3441,180.8282,0,1,1.9768,,0,29,29,57,1,58,0,mexican,,,,,,,,,,,,,,,,,,,,,,,,,,,,,,,,,,,,,,,,,,,,,,,,,,,,,,,,
,,,,,,,,,6718fc8e87940911f7093cfd,mexican,13 or older,"no, only English or Spanish",no,2025-07-23_22h20.43.412,empathy_intonation_perc_control,2024.2.4,MacIntel,62.5,6718fc8e87940911f7093cfd,68817205a84113384fffdfe3,68819824c078969b1c050068,,,,,,,,,,,,./stim/wavs/puertorican_mismatch_declarative-broad-focus_La-nina-lava-el-plato.wav,0,,,180.8294,183.6279,0,1,2.2738,,0,30,30,87,1,88,0,puertorican,,,,,,,,,,,,,,,,,,,,,,,,,,,,,,,,,,,,,,,,,,,,,,,,,,,,,,,,
,,,,,,,,,6718fc8e87940911f7093cfd,mexican,13 or older,"no, only English or Spanish",no,2025-07-23_22h20.43.412,empathy_intonation_perc_control,2024.2.4,MacIntel,62.5,6718fc8e87940911f7093cfd,68817205a84113384fffdfe3,68819824c078969b1c050068,,,,,,,,,,,,./stim/wavs/castilian_match_declarative-broad-focus_Manuela-vende-el-carro.wav,0,,,183.6286,186.8771,0,1,2.72,,0,31,31,46,1,47,0,castilian,,,,,,,,,,,,,,,,,,,,,,,,,,,,,,,,,,,,,,,,,,,,,,,,,,,,,,,,
,,,,,,,,,6718fc8e87940911f7093cfd,mexican,13 or older,"no, only English or Spanish",no,2025-07-23_22h20.43.412,empathy_intonation_perc_control,2024.2.4,MacIntel,62.5,6718fc8e87940911f7093cfd,68817205a84113384fffdfe3,68819824c078969b1c050068,,,,,,,,,,,,./stim/wavs/mexican_match_interrogative-total-yn_Marta-abre-el-regalo.wav,1,,,186.8775,190.7274,0,0,3.3358,,0,32,32,17,1,18,0,mexican,,,,,,,,,,,,,,,,,,,,,,,,,,,,,,,,,,,,,,,,,,,,,,,,,,,,,,,,
,,,,,,,,,6718fc8e87940911f7093cfd,mexican,13 or older,"no, only English or Spanish",no,2025-07-23_22h20.43.412,empathy_intonation_perc_control,2024.2.4,MacIntel,62.5,6718fc8e87940911f7093cfd,68817205a84113384fffdfe3,68819824c078969b1c050068,,,,,,,,,,,,./stim/wavs/puertorican_match_declarative-broad-focus_Maria-bebe-el-vino.wav,0,,,190.7281,193.1112,1,0,1.8731,,0,33,33,67,1,68,0,puertorican,,,,,,,,,,,,,,,,,,,,,,,,,,,,,,,,,,,,,,,,,,,,,,,,,,,,,,,,
,,,,,,,,,6718fc8e87940911f7093cfd,mexican,13 or older,"no, only English or Spanish",no,2025-07-23_22h20.43.412,empathy_intonation_perc_control,2024.2.4,MacIntel,62.5,6718fc8e87940911f7093cfd,68817205a84113384fffdfe3,68819824c078969b1c050068,,,,,,,,,,,,./stim/wavs/cuban_match_interrogative-total-yn_Ana-lleva-el-abrigo.wav,1,,,193.112,195.5454,0,0,1.9187,,0,34,34,6,1,7,1,cuban,,,,,,,,,,,,,,,,,,,,,,,,,,,,,,,,,,,,,,,,,,,,,,,,,,,,,,,,
,,,,,,,,,6718fc8e87940911f7093cfd,mexican,13 or older,"no, only English or Spanish",no,2025-07-23_22h20.43.412,empathy_intonation_perc_control,2024.2.4,MacIntel,62.5,6718fc8e87940911f7093cfd,68817205a84113384fffdfe3,68819824c078969b1c050068,,,,,,,,,,,,./stim/wavs/castilian_match_interrogative-total-yn_Emilio-ama-la-marcha.wav,1,,,195.546,198.3791,1,1,2.2995,,0,35,35,1,1,2,0,castilian,,,,,,,,,,,,,,,,,,,,,,,,,,,,,,,,,,,,,,,,,,,,,,,,,,,,,,,,
,,,,,,,,,6718fc8e87940911f7093cfd,mexican,13 or older,"no, only English or Spanish",no,2025-07-23_22h20.43.412,empathy_intonation_perc_control,2024.2.4,MacIntel,62.5,6718fc8e87940911f7093cfd,68817205a84113384fffdfe3,68819824c078969b1c050068,,,,,,,,,,,,./stim/wavs/mexican_match_declarative-broad-focus_Emilio-ama-la-marcha.wav,0,,,198.3799,200.745,0,1,1.8356,,0,36,36,59,1,60,0,mexican,,,,,,,,,,,,,,,,,,,,,,,,,,,,,,,,,,,,,,,,,,,,,,,,,,,,,,,,
,,,,,,,,,6718fc8e87940911f7093cfd,mexican,13 or older,"no, only English or Spanish",no,2025-07-23_22h20.43.412,empathy_intonation_perc_control,2024.2.4,MacIntel,62.5,6718fc8e87940911f7093cfd,68817205a84113384fffdfe3,68819824c078969b1c050068,,,,,,,,,,,,./stim/wavs/mexican_match_declarative-broad-focus_Ana-lleva-el-abrigo.wav,0,,,200.7458,203.0959,1,0,1.8408,,0,37,37,56,1,57,0,mexican,,,,,,,,,,,,,,,,,,,,,,,,,,,,,,,,,,,,,,,,,,,,,,,,,,,,,,,,
,,,,,,,,,6718fc8e87940911f7093cfd,mexican,13 or older,"no, only English or Spanish",no,2025-07-23_22h20.43.412,empathy_intonation_perc_control,2024.2.4,MacIntel,62.5,6718fc8e87940911f7093cfd,68817205a84113384fffdfe3,68819824c078969b1c050068,,,,,,,,,,,,./stim/wavs/puertorican_mismatch_declarative-broad-focus_La-maestra-vive-en-Paris.wav,0,,,203.0967,205.2624,0,1,1.6339,,0,38,38,86,1,87,0,puertorican,,,,,,,,,,,,,,,,,,,,,,,,,,,,,,,,,,,,,,,,,,,,,,,,,,,,,,,,
,,,,,,,,,6718fc8e87940911f7093cfd,mexican,13 or older,"no, only English or Spanish",no,2025-07-23_22h20.43.412,empathy_intonation_perc_control,2024.2.4,MacIntel,62.5,6718fc8e87940911f7093cfd,68817205a84113384fffdfe3,68819824c078969b1c050068,,,,,,,,,,,,./stim/wavs/castilian_match_declarative-broad-focus_David-leia-el-libro.wav,0,,,205.2631,207.7964,0,1,1.9999,,0,39,39,44,1,45,0,castilian,,,,,,,,,,,,,,,,,,,,,,,,,,,,,,,,,,,,,,,,,,,,,,,,,,,,,,,,
,,,,,,,,,6718fc8e87940911f7093cfd,mexican,13 or older,"no, only English or Spanish",no,2025-07-23_22h20.43.412,empathy_intonation_perc_control,2024.2.4,MacIntel,62.5,6718fc8e87940911f7093cfd,68817205a84113384fffdfe3,68819824c078969b1c050068,,,,,,,,,,,,./stim/wavs/castilian_mismatch_declarative-broad-focus_El-nino-oye-el-rio.wav,0,,,207.7973,210.762,0,1,2.4363,,0,40,40,68,1,69,0,castilian,,,,,,,,,,,,,,,,,,,,,,,,,,,,,,,,,,,,,,,,,,,,,,,,,,,,,,,,
,,,,,,,,,6718fc8e87940911f7093cfd,mexican,13 or older,"no, only English or Spanish",no,2025-07-23_22h20.43.412,empathy_intonation_perc_control,2024.2.4,MacIntel,62.5,6718fc8e87940911f7093cfd,68817205a84113384fffdfe3,68819824c078969b1c050068,,,,,,,,,,,,./stim/wavs/castilian_match_interrogative-total-yn_David-leia-el-libro.wav,1,,,210.7626,213.2469,1,1,1.967,,0,41,41,0,1,1,0,castilian,,,,,,,,,,,,,,,,,,,,,,,,,,,,,,,,,,,,,,,,,,,,,,,,,,,,,,,,
,,,,,,,,,6718fc8e87940911f7093cfd,mexican,13 or older,"no, only English or Spanish",no,2025-07-23_22h20.43.412,empathy_intonation_perc_control,2024.2.4,MacIntel,62.5,6718fc8e87940911f7093cfd,68817205a84113384fffdfe3,68819824c078969b1c050068,,,,,,,,,,,,./stim/wavs/cuban_match_declarative-broad-focus_Maria-bebe-el-vino.wav,0,,,213.2475,216.2289,0,1,2.4515,,0,42,42,53,1,54,0,cuban,,,,,,,,,,,,,,,,,,,,,,,,,,,,,,,,,,,,,,,,,,,,,,,,,,,,,,,,
,,,,,,,,,6718fc8e87940911f7093cfd,mexican,13 or older,"no, only English or Spanish",no,2025-07-23_22h20.43.412,empathy_intonation_perc_control,2024.2.4,MacIntel,62.5,6718fc8e87940911f7093cfd,68817205a84113384fffdfe3,68819824c078969b1c050068,,,,,,,,,,,,./stim/wavs/cuban_match_declarative-broad-focus_Daniel-iba-a-Bolivia.wav,0,,,216.2296,219.0639,0,1,2.3205,,0,43,43,51,1,52,0,cuban,,,,,,,,,,,,,,,,,,,,,,,,,,,,,,,,,,,,,,,,,,,,,,,,,,,,,,,,
,,,,,,,,,6718fc8e87940911f7093cfd,mexican,13 or older,"no, only English or Spanish",no,2025-07-23_22h20.43.412,empathy_intonation_perc_control,2024.2.4,MacIntel,62.5,6718fc8e87940911f7093cfd,68817205a84113384fffdfe3,68819824c078969b1c050068,,,,,,,,,,,,./stim/wavs/mexican_mismatch_declarative-broad-focus_La-maestra-vive-en-Paris.wav,0,,,219.0648,221.864,0,1,2.276,,0,44,44,80,1,81,0,mexican,,,,,,,,,,,,,,,,,,,,,,,,,,,,,,,,,,,,,,,,,,,,,,,,,,,,,,,,
,,,,,,,,,6718fc8e87940911f7093cfd,mexican,13 or older,"no, only English or Spanish",no,2025-07-23_22h20.43.412,empathy_intonation_perc_control,2024.2.4,MacIntel,62.5,6718fc8e87940911f7093cfd,68817205a84113384fffdfe3,68819824c078969b1c050068,,,,,,,,,,,,./stim/wavs/mexican_match_interrogative-total-yn_David-leia-el-libro.wav,1,,,221.8649,224.0302,1,1,1.641,,0,45,45,14,1,15,0,mexican,,,,,,,,,,,,,,,,,,,,,,,,,,,,,,,,,,,,,,,,,,,,,,,,,,,,,,,,
,,,,,,,,,6718fc8e87940911f7093cfd,mexican,13 or older,"no, only English or Spanish",no,2025-07-23_22h20.43.412,empathy_intonation_perc_control,2024.2.4,MacIntel,62.5,6718fc8e87940911f7093cfd,68817205a84113384fffdfe3,68819824c078969b1c050068,,,,,,,,,,,,./stim/wavs/puertorican_match_interrogative-total-yn_Maria-bebe-el-vino.wav,1,,,224.0307,226.0808,0,0,1.518,,0,46,46,23,1,24,1,puertorican,,,,,,,,,,,,,,,,,,,,,,,,,,,,,,,,,,,,,,,,,,,,,,,,,,,,,,,,
,,,,,,,,,6718fc8e87940911f7093cfd,mexican,13 or older,"no, only English or Spanish",no,2025-07-23_22h20.43.412,empathy_intonation_perc_control,2024.2.4,MacIntel,62.5,6718fc8e87940911f7093cfd,68817205a84113384fffdfe3,68819824c078969b1c050068,,,,,,,,,,,,./stim/wavs/cuban_mismatch_interrogative-total-yn_El-nino-oye-el-rio.wav,1,,,226.0815,228.497,0,0,1.884,,0,47,47,30,1,31,1,cuban,,,,,,,,,,,,,,,,,,,,,,,,,,,,,,,,,,,,,,,,,,,,,,,,,,,,,,,,
,,,,,,,,,6718fc8e87940911f7093cfd,mexican,13 or older,"no, only English or Spanish",no,2025-07-23_22h20.43.412,empathy_intonation_perc_control,2024.2.4,MacIntel,62.5,6718fc8e87940911f7093cfd,68817205a84113384fffdfe3,68819824c078969b1c050068,,,,,,,,,,,,./stim/wavs/cuban_mismatch_declarative-broad-focus_Mi-tia-odia-la-lluvia.wav,0,,,228.4977,231.1312,0,1,2.0999,,0,48,48,77,1,78,0,cuban,,,,,,,,,,,,,,,,,,,,,,,,,,,,,,,,,,,,,,,,,,,,,,,,,,,,,,,,
,,,,,,,,,6718fc8e87940911f7093cfd,mexican,13 or older,"no, only English or Spanish",no,2025-07-23_22h20.43.412,empathy_intonation_perc_control,2024.2.4,MacIntel,62.5,6718fc8e87940911f7093cfd,68817205a84113384fffdfe3,68819824c078969b1c050068,,,,,,,,,,,,./stim/wavs/mexican_match_interrogative-total-yn_Ana-lleva-el-abrigo.wav,1,,,231.1319,233.148,1,1,1.49,,0,49,49,12,1,13,0,mexican,,,,,,,,,,,,,,,,,,,,,,,,,,,,,,,,,,,,,,,,,,,,,,,,,,,,,,,,
,,,,,,,,,6718fc8e87940911f7093cfd,mexican,13 or older,"no, only English or Spanish",no,2025-07-23_22h20.43.412,empathy_intonation_perc_control,2024.2.4,MacIntel,62.5,6718fc8e87940911f7093cfd,68817205a84113384fffdfe3,68819824c078969b1c050068,,,,,,,,,,,,./stim/wavs/mexican_match_interrogative-total-yn_Emilio-ama-la-marcha.wav,1,,,233.149,235.3306,0,0,1.658,,0,50,50,15,1,16,0,mexican,,,,,,,,,,,,,,,,,,,,,,,,,,,,,,,,,,,,,,,,,,,,,,,,,,,,,,,,
,,,,,,,,,6718fc8e87940911f7093cfd,mexican,13 or older,"no, only English or Spanish",no,2025-07-23_22h20.43.412,empathy_intonation_perc_control,2024.2.4,MacIntel,62.5,6718fc8e87940911f7093cfd,68817205a84113384fffdfe3,68819824c078969b1c050068,,,,,,,,,,,,./stim/wavs/cuban_mismatch_interrogative-total-yn_Mi-tia-odia-la-lluvia.wav,1,,,235.3312,237.2302,0,0,1.3745,,0,51,51,33,1,34,1,cuban,,,,,,,,,,,,,,,,,,,,,,,,,,,,,,,,,,,,,,,,,,,,,,,,,,,,,,,,
,,,,,,,,,6718fc8e87940911f7093cfd,mexican,13 or older,"no, only English or Spanish",no,2025-07-23_22h20.43.412,empathy_intonation_perc_control,2024.2.4,MacIntel,62.5,6718fc8e87940911f7093cfd,68817205a84113384fffdfe3,68819824c078969b1c050068,,,,,,,,,,,,./stim/wavs/cuban_mismatch_declarative-broad-focus_Mi-novio-viene-del-lago.wav,0,,,237.2307,240.8643,0,1,3.1107,,0,52,52,76,1,77,0,cuban,,,,,,,,,,,,,,,,,,,,,,,,,,,,,,,,,,,,,,,,,,,,,,,,,,,,,,,,
,,,,,,,,,6718fc8e87940911f7093cfd,mexican,13 or older,"no, only English or Spanish",no,2025-07-23_22h20.43.412,empathy_intonation_perc_control,2024.2.4,MacIntel,62.5,6718fc8e87940911f7093cfd,68817205a84113384fffdfe3,68819824c078969b1c050068,,,,,,,,,,,,./stim/wavs/castilian_mismatch_declarative-broad-focus_Mi-novio-viene-del-lago.wav,0,,,240.865,243.0477,1,0,1.6512,,0,53,53,71,1,72,0,castilian,,,,,,,,,,,,,,,,,,,,,,,,,,,,,,,,,,,,,,,,,,,,,,,,,,,,,,,,
,,,,,,,,,6718fc8e87940911f7093cfd,mexican,13 or older,"no, only English or Spanish",no,2025-07-23_22h20.43.412,empathy_intonation_perc_control,2024.2.4,MacIntel,62.5,6718fc8e87940911f7093cfd,68817205a84113384fffdfe3,68819824c078969b1c050068,,,,,,,,,,,,./stim/wavs/cuban_match_declarative-broad-focus_Mariano-habla-del-tiempo.wav,0,,,243.0485,245.4986,0,1,1.9404,,0,54,54,54,1,55,0,cuban,,,,,,,,,,,,,,,,,,,,,,,,,,,,,,,,,,,,,,,,,,,,,,,,,,,,,,,,
,,,,,,,,,6718fc8e87940911f7093cfd,mexican,13 or older,"no, only English or Spanish",no,2025-07-23_22h20.43.412,empathy_intonation_perc_control,2024.2.4,MacIntel,62.5,6718fc8e87940911f7093cfd,68817205a84113384fffdfe3,68819824c078969b1c050068,,,,,,,,,,,,./stim/wavs/puertorican_mismatch_interrogative-total-yn_El-nino-oye-el-rio.wav,1,,,245.4991,247.9323,1,1,1.9079,,0,55,55,40,1,41,1,puertorican,,,,,,,,,,,,,,,,,,,,,,,,,,,,,,,,,,,,,,,,,,,,,,,,,,,,,,,,
,,,,,,,,,6718fc8e87940911f7093cfd,mexican,13 or older,"no, only English or Spanish",no,2025-07-23_22h20.43.412,empathy_intonation_perc_control,2024.2.4,MacIntel,62.5,6718fc8e87940911f7093cfd,68817205a84113384fffdfe3,68819824c078969b1c050068,,,,,,,,,,,,./stim/wavs/castilian_mismatch_interrogative-total-yn_Mi-tia-odia-la-lluvia.wav,1,,,247.9331,249.9981,1,1,1.5356,,0,56,56,28,1,29,0,castilian,,,,,,,,,,,,,,,,,,,,,,,,,,,,,,,,,,,,,,,,,,,,,,,,,,,,,,,,
,,,,,,,,,6718fc8e87940911f7093cfd,mexican,13 or older,"no, only English or Spanish",no,2025-07-23_22h20.43.412,empathy_intonation_perc_control,2024.2.4,MacIntel,62.5,6718fc8e87940911f7093cfd,68817205a84113384fffdfe3,68819824c078969b1c050068,,,,,,,,,,,,./stim/wavs/castilian_match_declarative-broad-focus_Mariano-habla-del-tiempo.wav,0,,,249.9985,252.6996,0,1,2.1825,,0,57,57,48,1,49,0,castilian,,,,,,,,,,,,,,,,,,,,,,,,,,,,,,,,,,,,,,,,,,,,,,,,,,,,,,,,
,,,,,,,,,6718fc8e87940911f7093cfd,mexican,13 or older,"no, only English or Spanish",no,2025-07-23_22h20.43.412,empathy_intonation_perc_control,2024.2.4,MacIntel,62.5,6718fc8e87940911f7093cfd,68817205a84113384fffdfe3,68819824c078969b1c050068,,,,,,,,,,,,./stim/wavs/cuban_match_interrogative-total-yn_Manuela-vende-el-carro.wav,1,,,252.7004,254.6651,0,0,1.4351,,0,58,58,8,1,9,1,cuban,,,,,,,,,,,,,,,,,,,,,,,,,,,,,,,,,,,,,,,,,,,,,,,,,,,,,,,,
,,,,,,,,,6718fc8e87940911f7093cfd,mexican,13 or older,"no, only English or Spanish",no,2025-07-23_22h20.43.412,empathy_intonation_perc_control,2024.2.4,MacIntel,62.5,6718fc8e87940911f7093cfd,68817205a84113384fffdfe3,68819824c078969b1c050068,,,,,,,,,,,,./stim/wavs/puertorican_match_interrogative-total-yn_Ana-lleva-el-abrigo.wav,1,,,254.6656,256.7496,1,1,1.574,,0,59,59,18,1,19,1,puertorican,,,,,,,,,,,,,,,,,,,,,,,,,,,,,,,,,,,,,,,,,,,,,,,,,,,,,,,,
,,,,,,,,,6718fc8e87940911f7093cfd,mexican,13 or older,"no, only English or Spanish",no,2025-07-23_22h20.43.412,empathy_intonation_perc_control,2024.2.4,MacIntel,62.5,6718fc8e87940911f7093cfd,68817205a84113384fffdfe3,68819824c078969b1c050068,,,,,,,,,,,,./stim/wavs/cuban_mismatch_interrogative-total-yn_El-hombre-mira-la-luna.wav,1,,,256.7503,258.8819,0,0,1.5994,,0,60,60,29,1,30,1,cuban,,,,,,,,,,,,,,,,,,,,,,,,,,,,,,,,,,,,,,,,,,,,,,,,,,,,,,,,
,,,,,,,,,6718fc8e87940911f7093cfd,mexican,13 or older,"no, only English or Spanish",no,2025-07-23_22h20.43.412,empathy_intonation_perc_control,2024.2.4,MacIntel,62.5,6718fc8e87940911f7093cfd,68817205a84113384fffdfe3,68819824c078969b1c050068,,,,,,,,,,,,./stim/wavs/castilian_match_declarative-broad-focus_Maria-bebe-el-vino.wav,0,,,258.8828,260.8498,1,0,1.4548,,0,61,61,47,1,48,0,castilian,,,,,,,,,,,,,,,,,,,,,,,,,,,,,,,,,,,,,,,,,,,,,,,,,,,,,,,,
,,,,,,,,,6718fc8e87940911f7093cfd,mexican,13 or older,"no, only English or Spanish",no,2025-07-23_22h20.43.412,empathy_intonation_perc_control,2024.2.4,MacIntel,62.5,6718fc8e87940911f7093cfd,68817205a84113384fffdfe3,68819824c078969b1c050068,,,,,,,,,,,,./stim/wavs/cuban_mismatch_declarative-broad-focus_El-bebe-comia-muy-bien.wav,0,,,260.8505,262.8171,0,1,1.4361,,0,62,62,73,1,74,0,cuban,,,,,,,,,,,,,,,,,,,,,,,,,,,,,,,,,,,,,,,,,,,,,,,,,,,,,,,,
,,,,,,,,,6718fc8e87940911f7093cfd,mexican,13 or older,"no, only English or Spanish",no,2025-07-23_22h20.43.412,empathy_intonation_perc_control,2024.2.4,MacIntel,62.5,6718fc8e87940911f7093cfd,68817205a84113384fffdfe3,68819824c078969b1c050068,,,,,,,,,,,,./stim/wavs/puertorican_mismatch_declarative-broad-focus_El-nino-oye-el-rio.wav,0,,,262.8177,265.0157,0,1,1.6665,,0,63,63,85,1,86,0,puertorican,,,,,,,,,,,,,,,,,,,,,,,,,,,,,,,,,,,,,,,,,,,,,,,,,,,,,,,,
,,,,,,,,,6718fc8e87940911f7093cfd,mexican,13 or older,"no, only English or Spanish",no,2025-07-23_22h20.43.412,empathy_intonation_perc_control,2024.2.4,MacIntel,62.5,6718fc8e87940911f7093cfd,68817205a84113384fffdfe3,68819824c078969b1c050068,,,,,,,,,,,,./stim/wavs/cuban_match_interrogative-total-yn_Maria-bebe-el-vino.wav,1,,,265.0165,266.9334,0,0,1.4057,,0,64,64,9,1,10,1,cuban,,,,,,,,,,,,,,,,,,,,,,,,,,,,,,,,,,,,,,,,,,,,,,,,,,,,,,,,
,,,,,,,,,6718fc8e87940911f7093cfd,mexican,13 or older,"no, only English or Spanish",no,2025-07-23_22h20.43.412,empathy_intonation_perc_control,2024.2.4,MacIntel,62.5,6718fc8e87940911f7093cfd,68817205a84113384fffdfe3,68819824c078969b1c050068,,,,,,,,,,,,./stim/wavs/castilian_mismatch_interrogative-total-yn_La-maestra-vive-en-Paris.wav,1,,,266.9342,269.7501,1,1,2.2906,,0,65,65,24,1,25,0,castilian,,,,,,,,,,,,,,,,,,,,,,,,,,,,,,,,,,,,,,,,,,,,,,,,,,,,,,,,
,,,,,,,,,6718fc8e87940911f7093cfd,mexican,13 or older,"no, only English or Spanish",no,2025-07-23_22h20.43.412,empathy_intonation_perc_control,2024.2.4,MacIntel,62.5,6718fc8e87940911f7093cfd,68817205a84113384fffdfe3,68819824c078969b1c050068,,,,,,,,,,,,./stim/wavs/castilian_match_interrogative-total-yn_Maria-bebe-el-vino.wav,1,,,269.7509,272.1342,0,0,1.8597,,0,66,66,3,1,4,0,castilian,,,,,,,,,,,,,,,,,,,,,,,,,,,,,,,,,,,,,,,,,,,,,,,,,,,,,,,,
,,,,,,,,,6718fc8e87940911f7093cfd,mexican,13 or older,"no, only English or Spanish",no,2025-07-23_22h20.43.412,empathy_intonation_perc_control,2024.2.4,MacIntel,62.5,6718fc8e87940911f7093cfd,68817205a84113384fffdfe3,68819824c078969b1c050068,,,,,,,,,,,,./stim/wavs/puertorican_mismatch_interrogative-total-yn_Mi-madre-come-la-fruta.wav,1,,,272.1351,274.6177,0,0,1.9548,,0,67,67,43,1,44,1,puertorican,,,,,,,,,,,,,,,,,,,,,,,,,,,,,,,,,,,,,,,,,,,,,,,,,,,,,,,,
,,,,,,,,,6718fc8e87940911f7093cfd,mexican,13 or older,"no, only English or Spanish",no,2025-07-23_22h20.43.412,empathy_intonation_perc_control,2024.2.4,MacIntel,62.5,6718fc8e87940911f7093cfd,68817205a84113384fffdfe3,68819824c078969b1c050068,,,,,,,,,,,,./stim/wavs/mexican_mismatch_declarative-broad-focus_El-hombre-mira-la-luna.wav,0,,,274.6183,277.8843,0,1,2.742,,0,68,68,79,1,80,0,mexican,,,,,,,,,,,,,,,,,,,,,,,,,,,,,,,,,,,,,,,,,,,,,,,,,,,,,,,,
,,,,,,,,,6718fc8e87940911f7093cfd,mexican,13 or older,"no, only English or Spanish",no,2025-07-23_22h20.43.412,empathy_intonation_perc_control,2024.2.4,MacIntel,62.5,6718fc8e87940911f7093cfd,68817205a84113384fffdfe3,68819824c078969b1c050068,,,,,,,,,,,,./stim/wavs/mexican_match_interrogative-total-yn_Daniel-iba-a-Bolivia.wav,1,,,277.885,283.9013,0,0,5.4867,,0,69,69,13,1,14,0,mexican,,,,,,,,,,,,,,,,,,,,,,,,,,,,,,,,,,,,,,,,,,,,,,,,,,,,,,,,
,,,,,,,,,6718fc8e87940911f7093cfd,mexican,13 or older,"no, only English or Spanish",no,2025-07-23_22h20.43.412,empathy_intonation_perc_control,2024.2.4,MacIntel,62.5,6718fc8e87940911f7093cfd,68817205a84113384fffdfe3,68819824c078969b1c050068,,,,,,,,,,,,./stim/wavs/puertorican_match_declarative-broad-focus_Ana-lleva-el-abrigo.wav,0,,,283.902,285.9182,0,1,1.4879,,0,70,70,62,1,63,0,puertorican,,,,,,,,,,,,,,,,,,,,,,,,,,,,,,,,,,,,,,,,,,,,,,,,,,,,,,,,
,,,,,,,,,6718fc8e87940911f7093cfd,mexican,13 or older,"no, only English or Spanish",no,2025-07-23_22h20.43.412,empathy_intonation_perc_control,2024.2.4,MacIntel,62.5,6718fc8e87940911f7093cfd,68817205a84113384fffdfe3,68819824c078969b1c050068,,,,,,,,,,,,./stim/wavs/castilian_match_interrogative-total-yn_Manuela-vende-el-carro.wav,1,,,285.9189,288.9856,0,0,2.5344,,0,71,71,2,1,3,0,castilian,,,,,,,,,,,,,,,,,,,,,,,,,,,,,,,,,,,,,,,,,,,,,,,,,,,,,,,,
,,,,,,,,,6718fc8e87940911f7093cfd,mexican,13 or older,"no, only English or Spanish",no,2025-07-23_22h20.43.412,empathy_intonation_perc_control,2024.2.4,MacIntel,62.5,6718fc8e87940911f7093cfd,68817205a84113384fffdfe3,68819824c078969b1c050068,,,,,,,,,,,,./stim/wavs/castilian_match_declarative-broad-focus_Marta-abre-el-regalo.wav,0,,,288.9866,291.3842,0,1,1.8671,,0,72,72,49,1,50,0,castilian,,,,,,,,,,,,,,,,,,,,,,,,,,,,,,,,,,,,,,,,,,,,,,,,,,,,,,,,
,,,,,,,,,6718fc8e87940911f7093cfd,mexican,13 or older,"no, only English or Spanish",no,2025-07-23_22h20.43.412,empathy_intonation_perc_control,2024.2.4,MacIntel,62.5,6718fc8e87940911f7093cfd,68817205a84113384fffdfe3,68819824c078969b1c050068,,,,,,,,,,,,./stim/wavs/puertorican_match_declarative-broad-focus_Daniel-iba-a-Bolivia.wav,0,,,291.3849,293.4189,0,1,1.5177,,0,73,73,63,1,64,0,puertorican,,,,,,,,,,,,,,,,,,,,,,,,,,,,,,,,,,,,,,,,,,,,,,,,,,,,,,,,
,,,,,,,,,6718fc8e87940911f7093cfd,mexican,13 or older,"no, only English or Spanish",no,2025-07-23_22h20.43.412,empathy_intonation_perc_control,2024.2.4,MacIntel,62.5,6718fc8e87940911f7093cfd,68817205a84113384fffdfe3,68819824c078969b1c050068,,,,,,,,,,,,./stim/wavs/castilian_match_declarative-broad-focus_Emilio-ama-la-marcha.wav,0,,,293.4196,295.7516,0,1,1.8089,,0,74,74,45,1,46,0,castilian,,,,,,,,,,,,,,,,,,,,,,,,,,,,,,,,,,,,,,,,,,,,,,,,,,,,,,,,
,,,,,,,,,6718fc8e87940911f7093cfd,mexican,13 or older,"no, only English or Spanish",no,2025-07-23_22h20.43.412,empathy_intonation_perc_control,2024.2.4,MacIntel,62.5,6718fc8e87940911f7093cfd,68817205a84113384fffdfe3,68819824c078969b1c050068,,,,,,,,,,,,./stim/wavs/mexican_mismatch_declarative-broad-focus_El-bebe-comia-muy-bien.wav,0,,,295.7522,299.9853,1,0,3.7251,,0,75,75,78,1,79,0,mexican,,,,,,,,,,,,,,,,,,,,,,,,,,,,,,,,,,,,,,,,,,,,,,,,,,,,,,,,
,,,,,,,,,6718fc8e87940911f7093cfd,mexican,13 or older,"no, only English or Spanish",no,2025-07-23_22h20.43.412,empathy_intonation_perc_control,2024.2.4,MacIntel,62.5,6718fc8e87940911f7093cfd,68817205a84113384fffdfe3,68819824c078969b1c050068,,,,,,,,,,,,./stim/wavs/castilian_match_interrogative-total-yn_Marta-abre-el-regalo.wav,1,,,299.9861,303.1852,1,1,2.6878,,0,76,76,5,1,6,0,castilian,,,,,,,,,,,,,,,,,,,,,,,,,,,,,,,,,,,,,,,,,,,,,,,,,,,,,,,,
,,,,,,,,,6718fc8e87940911f7093cfd,mexican,13 or older,"no, only English or Spanish",no,2025-07-23_22h20.43.412,empathy_intonation_perc_control,2024.2.4,MacIntel,62.5,6718fc8e87940911f7093cfd,68817205a84113384fffdfe3,68819824c078969b1c050068,,,,,,,,,,,,./stim/wavs/cuban_mismatch_declarative-broad-focus_La-nina-lava-el-plato.wav,0,,,303.186,305.8199,0,1,2.1166,,0,77,77,75,1,76,0,cuban,,,,,,,,,,,,,,,,,,,,,,,,,,,,,,,,,,,,,,,,,,,,,,,,,,,,,,,,
,,,,,,,,,6718fc8e87940911f7093cfd,mexican,13 or older,"no, only English or Spanish",no,2025-07-23_22h20.43.412,empathy_intonation_perc_control,2024.2.4,MacIntel,62.5,6718fc8e87940911f7093cfd,68817205a84113384fffdfe3,68819824c078969b1c050068,,,,,,,,,,,,./stim/wavs/mexican_mismatch_declarative-broad-focus_Mi-novio-viene-del-lago.wav,0,,,305.8208,307.7522,1,0,1.4053,,0,78,78,81,1,82,0,mexican,,,,,,,,,,,,,,,,,,,,,,,,,,,,,,,,,,,,,,,,,,,,,,,,,,,,,,,,
,,,,,,,,,6718fc8e87940911f7093cfd,mexican,13 or older,"no, only English or Spanish",no,2025-07-23_22h20.43.412,empathy_intonation_perc_control,2024.2.4,MacIntel,62.5,6718fc8e87940911f7093cfd,68817205a84113384fffdfe3,68819824c078969b1c050068,,,,,,,,,,,,./stim/wavs/castilian_mismatch_declarative-broad-focus_La-maestra-vive-en-Paris.wav,0,,,307.7527,310.3202,0,1,2.0604,,0,79,79,69,1,70,0,castilian,,,,,,,,,,,,,,,,,,,,,,,,,,,,,,,,,,,,,,,,,,,,,,,,,,,,,,,,
,,,,,,,,,6718fc8e87940911f7093cfd,mexican,13 or older,"no, only English or Spanish",no,2025-07-23_22h20.43.412,empathy_intonation_perc_control,2024.2.4,MacIntel,62.5,6718fc8e87940911f7093cfd,68817205a84113384fffdfe3,68819824c078969b1c050068,,,,,,,,,,,,./stim/wavs/cuban_match_interrogative-total-yn_Marta-abre-el-regalo.wav,1,,,310.3208,312.3204,0,0,1.4727,,0,80,80,11,1,12,1,cuban,,,,,,,,,,,,,,,,,,,,,,,,,,,,,,,,,,,,,,,,,,,,,,,,,,,,,,,,
,,,,,,,,,6718fc8e87940911f7093cfd,mexican,13 or older,"no, only English or Spanish",no,2025-07-23_22h20.43.412,empathy_intonation_perc_control,2024.2.4,MacIntel,62.5,6718fc8e87940911f7093cfd,68817205a84113384fffdfe3,68819824c078969b1c050068,,,,,,,,,,,,./stim/wavs/mexican_match_declarative-broad-focus_Marta-abre-el-regalo.wav,0,,,312.3213,314.4701,0,1,1.6164,,0,81,81,61,1,62,0,mexican,,,,,,,,,,,,,,,,,,,,,,,,,,,,,,,,,,,,,,,,,,,,,,,,,,,,,,,,
,,,,,,,,,6718fc8e87940911f7093cfd,mexican,13 or older,"no, only English or Spanish",no,2025-07-23_22h20.43.412,empathy_intonation_perc_control,2024.2.4,MacIntel,62.5,6718fc8e87940911f7093cfd,68817205a84113384fffdfe3,68819824c078969b1c050068,,,,,,,,,,,,./stim/wavs/castilian_mismatch_interrogative-total-yn_La-nina-lava-el-plato.wav,1,,,314.4706,316.6372,1,1,1.6332,,0,82,82,25,1,26,0,castilian,,,,,,,,,,,,,,,,,,,,,,,,,,,,,,,,,,,,,,,,,,,,,,,,,,,,,,,,
,,,,,,,,,6718fc8e87940911f7093cfd,mexican,13 or older,"no, only English or Spanish",no,2025-07-23_22h20.43.412,empathy_intonation_perc_control,2024.2.4,MacIntel,62.5,6718fc8e87940911f7093cfd,68817205a84113384fffdfe3,68819824c078969b1c050068,,,,,,,,,,,,./stim/wavs/puertorican_match_declarative-broad-focus_David-leia-el-libro.wav,0,,,316.6379,318.5033,0,1,1.3424,,0,83,83,64,1,65,0,puertorican,,,,,,,,,,,,,,,,,,,,,,,,,,,,,,,,,,,,,,,,,,,,,,,,,,,,,,,,
,,,,,,,,,6718fc8e87940911f7093cfd,mexican,13 or older,"no, only English or Spanish",no,2025-07-23_22h20.43.412,empathy_intonation_perc_control,2024.2.4,MacIntel,62.5,6718fc8e87940911f7093cfd,68817205a84113384fffdfe3,68819824c078969b1c050068,,,,,,,,,,,,./stim/wavs/cuban_mismatch_interrogative-total-yn_Mi-madre-come-la-fruta.wav,1,,,318.5044,320.5209,0,0,1.51,,0,84,84,31,1,32,1,cuban,,,,,,,,,,,,,,,,,,,,,,,,,,,,,,,,,,,,,,,,,,,,,,,,,,,,,,,,
,,,,,,,,,6718fc8e87940911f7093cfd,mexican,13 or older,"no, only English or Spanish",no,2025-07-23_22h20.43.412,empathy_intonation_perc_control,2024.2.4,MacIntel,62.5,6718fc8e87940911f7093cfd,68817205a84113384fffdfe3,68819824c078969b1c050068,,,,,,,,,,,,./stim/wavs/puertorican_match_interrogative-total-yn_Daniel-iba-a-Bolivia.wav,1,,,320.5217,323.2709,0,0,2.2186,,0,85,85,19,1,20,1,puertorican,,,,,,,,,,,,,,,,,,,,,,,,,,,,,,,,,,,,,,,,,,,,,,,,,,,,,,,,
,,,,,,,,,6718fc8e87940911f7093cfd,mexican,13 or older,"no, only English or Spanish",no,2025-07-23_22h20.43.412,empathy_intonation_perc_control,2024.2.4,MacIntel,62.5,6718fc8e87940911f7093cfd,68817205a84113384fffdfe3,68819824c078969b1c050068,,,,,,,,,,,,./stim/wavs/mexican_match_declarative-broad-focus_David-leia-el-libro.wav,0,,,323.2719,325.4706,0,1,1.6675,,0,86,86,58,1,59,0,mexican,,,,,,,,,,,,,,,,,,,,,,,,,,,,,,,,,,,,,,,,,,,,,,,,,,,,,,,,
,,,,,,,,,6718fc8e87940911f7093cfd,mexican,13 or older,"no, only English or Spanish",no,2025-07-23_22h20.43.412,empathy_intonation_perc_control,2024.2.4,MacIntel,62.5,6718fc8e87940911f7093cfd,68817205a84113384fffdfe3,68819824c078969b1c050068,,,,,,,,,,,,./stim/wavs/mexican_mismatch_interrogative-total-yn_La-maestra-vive-en-Paris.wav,1,,,325.4713,330.1881,0,0,4.1882,,0,87,87,36,1,37,0,mexican,,,,,,,,,,,,,,,,,,,,,,,,,,,,,,,,,,,,,,,,,,,,,,,,,,,,,,,,
,,,,,,,"Great! Now we will move on. The next task consists of about 60 trials, in each of which you will see a string of letters. 
  
  Your task is to decide whether this is a real Spanish word or not.", (press the spacebar to continue),6718fc8e87940911f7093cfd,mexican,13 or older,"no, only English or Spanish",no,2025-07-23_22h20.43.412,empathy_intonation_perc_control,2024.2.4,MacIntel,62.5,6718fc8e87940911f7093cfd,68817205a84113384fffdfe3,68819824c078969b1c050068,,,,,,,,,,,,,,,,,,,,,,,,,,,,,,330.1944,338.321,0,0,0,0,1,,,,,,,,,,,,,,,,,,,,,,,,,,,,,,,,,,,,,,,,,,,,,,,,,
,,,,,,,"If you think it is an existing Spanish word, you type '1' (for 'REAL'), and if you think it is not an existing Spanish word, you type '0' (for 'FAKE').", (press the spacebar to continue),6718fc8e87940911f7093cfd,mexican,13 or older,"no, only English or Spanish",no,2025-07-23_22h20.43.412,empathy_intonation_perc_control,2024.2.4,MacIntel,62.5,6718fc8e87940911f7093cfd,68817205a84113384fffdfe3,68819824c078969b1c050068,,,,,,,,,,,,,,,,,,,,,,,,,,,,,,338.3229,344.6726,0,1,1,1,1,,,,,,,,,,,,,,,,,,,,,,,,,,,,,,,,,,,,,,,,,,,,,,,,,
,,,,,,,"If you are sure that the word exists, even though you don’t know its exact meaning, you may still respond '1' (REAL). 
  
  But if you are not sure if it is an existing word, you should respond '0' (FAKE).
  
  Let's do a practice round...", (press the spacebar to continue),6718fc8e87940911f7093cfd,mexican,13 or older,"no, only English or Spanish",no,2025-07-23_22h20.43.412,empathy_intonation_perc_control,2024.2.4,MacIntel,62.5,6718fc8e87940911f7093cfd,68817205a84113384fffdfe3,68819824c078969b1c050068,,,,,,,,,,,,,,,,,,,,,,,,,,,,,,344.6758,346.5891,0,2,2,2,1,,,,,,,,,,,,,,,,,,,,,,,,,,,,,,,,,,,,,,,,,,,,,,,,,
,,,,,,,,,6718fc8e87940911f7093cfd,mexican,13 or older,"no, only English or Spanish",no,2025-07-23_22h20.43.412,empathy_intonation_perc_control,2024.2.4,MacIntel,62.5,6718fc8e87940911f7093cfd,68817205a84113384fffdfe3,68819824c078969b1c050068,,,,,,,,,,,,,0,,,,,,,,,,,,,,,,,,,,,,,,346.5939,349.4897,1,0,2.3654,,349.4902,350.49,0,0,0,0,1,0,depiste,REAL,FAKE,,,,,,,,,,,,,,,,,,,,,,,,,,,,,,,,
,,,,,,,,,6718fc8e87940911f7093cfd,mexican,13 or older,"no, only English or Spanish",no,2025-07-23_22h20.43.412,empathy_intonation_perc_control,2024.2.4,MacIntel,62.5,6718fc8e87940911f7093cfd,68817205a84113384fffdfe3,68819824c078969b1c050068,,,,,,,,,,,,,1,,,,,,,,,,,,,,,,,,,,,,,,350.4917,352.6051,1,1,1.5848,,352.6057,353.6064,0,1,1,1,1,0,sí,REAL,FAKE,,,,,,,,,,,,,,,,,,,,,,,,,,,,,,,,
,,,,,,,,,6718fc8e87940911f7093cfd,mexican,13 or older,"no, only English or Spanish",no,2025-07-23_22h20.43.412,empathy_intonation_perc_control,2024.2.4,MacIntel,62.5,6718fc8e87940911f7093cfd,68817205a84113384fffdfe3,68819824c078969b1c050068,,,,,,,,,,,,,0,,,,,,,,,,,,,,,,,,,,,,,,353.6082,356.5565,1,0,2.4224,,356.5576,357.556,0,2,2,2,1,0,coné,REAL,FAKE,,,,,,,,,,,,,,,,,,,,,,,,,,,,,,,,
,,,,,,,,,6718fc8e87940911f7093cfd,mexican,13 or older,"no, only English or Spanish",no,2025-07-23_22h20.43.412,empathy_intonation_perc_control,2024.2.4,MacIntel,62.5,6718fc8e87940911f7093cfd,68817205a84113384fffdfe3,68819824c078969b1c050068,,,,,,,,,,,,,0,,,,,,,,,,,,,,,,,,,,,,,,357.5572,359.9237,1,0,1.8365,,359.9238,360.9236,0,3,3,3,1,0,calpar,REAL,FAKE,,,,,,,,,,,,,,,,,,,,,,,,,,,,,,,,
,,,,,,,,,6718fc8e87940911f7093cfd,mexican,13 or older,"no, only English or Spanish",no,2025-07-23_22h20.43.412,empathy_intonation_perc_control,2024.2.4,MacIntel,62.5,6718fc8e87940911f7093cfd,68817205a84113384fffdfe3,68819824c078969b1c050068,,,,,,,,,,,,,0,,,,,,,,,,,,,,,,,,,,,,,,360.9252,364.7399,0,1,3.2881,,364.7409,365.7408,0,4,4,4,1,0,joten,REAL,FAKE,,,,,,,,,,,,,,,,,,,,,,,,,,,,,,,,
,,,,,,,,,6718fc8e87940911f7093cfd,mexican,13 or older,"no, only English or Spanish",no,2025-07-23_22h20.43.412,empathy_intonation_perc_control,2024.2.4,MacIntel,62.5,6718fc8e87940911f7093cfd,68817205a84113384fffdfe3,68819824c078969b1c050068,,,,,,,,,,,,,1,,,,,,,,,,,,,,,,,,,,,,,,365.7421,370.2567,1,1,3.9887,,370.2568,371.2567,0,5,5,5,1,0,sacapuntas,REAL,FAKE,,,,,,,,,,,,,,,,,,,,,,,,,,,,,,,,
,,,,,,,,,6718fc8e87940911f7093cfd,mexican,13 or older,"no, only English or Spanish",no,2025-07-23_22h20.43.412,empathy_intonation_perc_control,2024.2.4,MacIntel,62.5,6718fc8e87940911f7093cfd,68817205a84113384fffdfe3,68819824c078969b1c050068,,,,,,,,,,,,,0,,,,,,,,,,,,,,,,,,,,,,,,371.2582,373.0066,1,0,1.2299,,373.0075,374.008,0,6,6,6,1,0,priba,REAL,FAKE,,,,,,,,,,,,,,,,,,,,,,,,,,,,,,,,
,,,,,,,,,6718fc8e87940911f7093cfd,mexican,13 or older,"no, only English or Spanish",no,2025-07-23_22h20.43.412,empathy_intonation_perc_control,2024.2.4,MacIntel,62.5,6718fc8e87940911f7093cfd,68817205a84113384fffdfe3,68819824c078969b1c050068,,,,,,,,,,,,,0,,,,,,,,,,,,,,,,,,,,,,,,374.0093,376.3749,1,0,1.8349,,376.375,377.3747,0,7,7,7,1,0,pelasula,REAL,FAKE,,,,,,,,,,,,,,,,,,,,,,,,,,,,,,,,
,,,,,,,,,6718fc8e87940911f7093cfd,mexican,13 or older,"no, only English or Spanish",no,2025-07-23_22h20.43.412,empathy_intonation_perc_control,2024.2.4,MacIntel,62.5,6718fc8e87940911f7093cfd,68817205a84113384fffdfe3,68819824c078969b1c050068,,,,,,,,,,,,,1,,,,,,,,,,,,,,,,,,,,,,,,377.3762,378.6568,1,1,0.749,,378.6573,379.6578,0,8,8,8,1,0,bien,REAL,FAKE,,,,,,,,,,,,,,,,,,,,,,,,,,,,,,,,
,,,,,,,,,6718fc8e87940911f7093cfd,mexican,13 or older,"no, only English or Spanish",no,2025-07-23_22h20.43.412,empathy_intonation_perc_control,2024.2.4,MacIntel,62.5,6718fc8e87940911f7093cfd,68817205a84113384fffdfe3,68819824c078969b1c050068,,,,,,,,,,,,,1,,,,,,,,,,,,,,,,,,,,,,,,379.6589,380.891,1,1,0.7216,,380.8912,381.8916,0,9,9,9,1,0,casa,REAL,FAKE,,,,,,,,,,,,,,,,,,,,,,,,,,,,,,,,
,,,,,,,,,6718fc8e87940911f7093cfd,mexican,13 or older,"no, only English or Spanish",no,2025-07-23_22h20.43.412,empathy_intonation_perc_control,2024.2.4,MacIntel,62.5,6718fc8e87940911f7093cfd,68817205a84113384fffdfe3,68819824c078969b1c050068,,,,,,,,,,,,,0,,,,,,,,,,,,,,,,,,,,,,,,381.8931,383.7085,0,1,1.2874,,383.7086,384.7087,0,10,10,10,1,0,lejo,REAL,FAKE,,,,,,,,,,,,,,,,,,,,,,,,,,,,,,,,
,,,,,,,,,6718fc8e87940911f7093cfd,mexican,13 or older,"no, only English or Spanish",no,2025-07-23_22h20.43.412,empathy_intonation_perc_control,2024.2.4,MacIntel,62.5,6718fc8e87940911f7093cfd,68817205a84113384fffdfe3,68819824c078969b1c050068,,,,,,,,,,,,,0,,,,,,,,,,,,,,,,,,,,,,,,384.71,386.808,1,0,1.571,,386.8091,387.809,0,11,11,11,1,0,pretantas,REAL,FAKE,,,,,,,,,,,,,,,,,,,,,,,,,,,,,,,,
,,,,,,,,,6718fc8e87940911f7093cfd,mexican,13 or older,"no, only English or Spanish",no,2025-07-23_22h20.43.412,empathy_intonation_perc_control,2024.2.4,MacIntel,62.5,6718fc8e87940911f7093cfd,68817205a84113384fffdfe3,68819824c078969b1c050068,,,,,,,,,,,,,,,,,,,,,,,,,,,,,,,,,,,,,,,,,,,,,,,,,,,,,,387.8094,389.2927,,,,,,,,,,,,,,,,,,,,,,,,,,,,,,
,,,,,,,,,6718fc8e87940911f7093cfd,mexican,13 or older,"no, only English or Spanish",no,2025-07-23_22h20.43.412,empathy_intonation_perc_control,2024.2.4,MacIntel,62.5,6718fc8e87940911f7093cfd,68817205a84113384fffdfe3,68819824c078969b1c050068,,,,,,,,,,,,,1,,,,,,,,,,,,,,,,,,,,,,,,,,,,,,,,,,,,,12,asesinato,,,,,389.3036,392.2591,1,1,2.4387,,0,0,0,11,1,REAL,FAKE,,,,,,,,,,,,,,,,,
,,,,,,,,,6718fc8e87940911f7093cfd,mexican,13 or older,"no, only English or Spanish",no,2025-07-23_22h20.43.412,empathy_intonation_perc_control,2024.2.4,MacIntel,62.5,6718fc8e87940911f7093cfd,68817205a84113384fffdfe3,68819824c078969b1c050068,,,,,,,,,,,,,0,,,,,,,,,,,,,,,,,,,,,,,,,,,,,,,,,,,,,42,cadallo,,,,,392.2603,395.2917,1,0,2.5025,,0,1,1,41,1,REAL,FAKE,,,,,,,,,,,,,,,,,
,,,,,,,,,6718fc8e87940911f7093cfd,mexican,13 or older,"no, only English or Spanish",no,2025-07-23_22h20.43.412,empathy_intonation_perc_control,2024.2.4,MacIntel,62.5,6718fc8e87940911f7093cfd,68817205a84113384fffdfe3,68819824c078969b1c050068,,,,,,,,,,,,,1,,,,,,,,,,,,,,,,,,,,,,,,,,,,,,,,,,,,,83,guante,,,,,395.2926,398.2423,0,0,2.4367,,0,2,2,82,1,REAL,FAKE,,,,,,,,,,,,,,,,,
,,,,,,,,,6718fc8e87940911f7093cfd,mexican,13 or older,"no, only English or Spanish",no,2025-07-23_22h20.43.412,empathy_intonation_perc_control,2024.2.4,MacIntel,62.5,6718fc8e87940911f7093cfd,68817205a84113384fffdfe3,68819824c078969b1c050068,,,,,,,,,,,,,0,,,,,,,,,,,,,,,,,,,,,,,,,,,,,,,,,,,,,74,cintro,,,,,398.2435,399.9091,1,0,1.156,,0,3,3,73,1,REAL,FAKE,,,,,,,,,,,,,,,,,
,,,,,,,,,6718fc8e87940911f7093cfd,mexican,13 or older,"no, only English or Spanish",no,2025-07-23_22h20.43.412,empathy_intonation_perc_control,2024.2.4,MacIntel,62.5,6718fc8e87940911f7093cfd,68817205a84113384fffdfe3,68819824c078969b1c050068,,,,,,,,,,,,,1,,,,,,,,,,,,,,,,,,,,,,,,,,,,,,,,,,,,,51,candado,,,,,399.9105,401.5431,1,1,1.0964,,0,4,4,50,1,REAL,FAKE,,,,,,,,,,,,,,,,,
,,,,,,,,,6718fc8e87940911f7093cfd,mexican,13 or older,"no, only English or Spanish",no,2025-07-23_22h20.43.412,empathy_intonation_perc_control,2024.2.4,MacIntel,62.5,6718fc8e87940911f7093cfd,68817205a84113384fffdfe3,68819824c078969b1c050068,,,,,,,,,,,,,0,,,,,,,,,,,,,,,,,,,,,,,,,,,,,,,,,,,,,79,tropaje,,,,,401.5445,404.0419,0,1,1.9694,,0,5,5,78,1,REAL,FAKE,,,,,,,,,,,,,,,,,
,,,,,,,,,6718fc8e87940911f7093cfd,mexican,13 or older,"no, only English or Spanish",no,2025-07-23_22h20.43.412,empathy_intonation_perc_control,2024.2.4,MacIntel,62.5,6718fc8e87940911f7093cfd,68817205a84113384fffdfe3,68819824c078969b1c050068,,,,,,,,,,,,,1,,,,,,,,,,,,,,,,,,,,,,,,,,,,,,,,,,,,,34,aviso,,,,,404.043,406.9101,0,0,2.3512,,0,6,6,33,1,REAL,FAKE,,,,,,,,,,,,,,,,,
,,,,,,,,,6718fc8e87940911f7093cfd,mexican,13 or older,"no, only English or Spanish",no,2025-07-23_22h20.43.412,empathy_intonation_perc_control,2024.2.4,MacIntel,62.5,6718fc8e87940911f7093cfd,68817205a84113384fffdfe3,68819824c078969b1c050068,,,,,,,,,,,,,1,,,,,,,,,,,,,,,,,,,,,,,,,,,,,,,,,,,,,67,cabello,,,,,406.911,408.3269,1,1,0.8885,,0,7,7,66,1,REAL,FAKE,,,,,,,,,,,,,,,,,
,,,,,,,,,6718fc8e87940911f7093cfd,mexican,13 or older,"no, only English or Spanish",no,2025-07-23_22h20.43.412,empathy_intonation_perc_control,2024.2.4,MacIntel,62.5,6718fc8e87940911f7093cfd,68817205a84113384fffdfe3,68819824c078969b1c050068,,,,,,,,,,,,,0,,,,,,,,,,,,,,,,,,,,,,,,,,,,,,,,,,,,,10,antar,,,,,408.3281,410.9593,0,1,2.0962,,0,8,8,9,1,REAL,FAKE,,,,,,,,,,,,,,,,,
,,,,,,,,,6718fc8e87940911f7093cfd,mexican,13 or older,"no, only English or Spanish",no,2025-07-23_22h20.43.412,empathy_intonation_perc_control,2024.2.4,MacIntel,62.5,6718fc8e87940911f7093cfd,68817205a84113384fffdfe3,68819824c078969b1c050068,,,,,,,,,,,,,0,,,,,,,,,,,,,,,,,,,,,,,,,,,,,,,,,,,,,17,floroso,,,,,410.9607,412.4272,1,0,0.9458,,0,9,9,16,1,REAL,FAKE,,,,,,,,,,,,,,,,,
,,,,,,,,,6718fc8e87940911f7093cfd,mexican,13 or older,"no, only English or Spanish",no,2025-07-23_22h20.43.412,empathy_intonation_perc_control,2024.2.4,MacIntel,62.5,6718fc8e87940911f7093cfd,68817205a84113384fffdfe3,68819824c078969b1c050068,,,,,,,,,,,,,1,,,,,,,,,,,,,,,,,,,,,,,,,,,,,,,,,,,,,28,merodear,,,,,412.4286,413.8934,0,0,0.9383,,0,10,10,27,1,REAL,FAKE,,,,,,,,,,,,,,,,,
,,,,,,,,,6718fc8e87940911f7093cfd,mexican,13 or older,"no, only English or Spanish",no,2025-07-23_22h20.43.412,empathy_intonation_perc_control,2024.2.4,MacIntel,62.5,6718fc8e87940911f7093cfd,68817205a84113384fffdfe3,68819824c078969b1c050068,,,,,,,,,,,,,1,,,,,,,,,,,,,,,,,,,,,,,,,,,,,,,,,,,,,25,bisagra,,,,,413.8946,416.1941,0,0,1.7734,,0,11,11,24,1,REAL,FAKE,,,,,,,,,,,,,,,,,
,,,,,,,,,6718fc8e87940911f7093cfd,mexican,13 or older,"no, only English or Spanish",no,2025-07-23_22h20.43.412,empathy_intonation_perc_control,2024.2.4,MacIntel,62.5,6718fc8e87940911f7093cfd,68817205a84113384fffdfe3,68819824c078969b1c050068,,,,,,,,,,,,,1,,,,,,,,,,,,,,,,,,,,,,,,,,,,,,,,,,,,,69,engatusar,,,,,416.1954,417.9942,1,1,1.2693,,0,12,12,68,1,REAL,FAKE,,,,,,,,,,,,,,,,,
,,,,,,,,,6718fc8e87940911f7093cfd,mexican,13 or older,"no, only English or Spanish",no,2025-07-23_22h20.43.412,empathy_intonation_perc_control,2024.2.4,MacIntel,62.5,6718fc8e87940911f7093cfd,68817205a84113384fffdfe3,68819824c078969b1c050068,,,,,,,,,,,,,1,,,,,,,,,,,,,,,,,,,,,,,,,,,,,,,,,,,,,52,camisa,,,,,417.9957,419.9438,1,1,1.4198,,0,13,13,51,1,REAL,FAKE,,,,,,,,,,,,,,,,,
,,,,,,,,,6718fc8e87940911f7093cfd,mexican,13 or older,"no, only English or Spanish",no,2025-07-23_22h20.43.412,empathy_intonation_perc_control,2024.2.4,MacIntel,62.5,6718fc8e87940911f7093cfd,68817205a84113384fffdfe3,68819824c078969b1c050068,,,,,,,,,,,,,1,,,,,,,,,,,,,,,,,,,,,,,,,,,,,,,,,,,,,57,tacaño,,,,,419.9449,422.3278,0,0,1.8675,,0,14,14,56,1,REAL,FAKE,,,,,,,,,,,,,,,,,
,,,,,,,,,6718fc8e87940911f7093cfd,mexican,13 or older,"no, only English or Spanish",no,2025-07-23_22h20.43.412,empathy_intonation_perc_control,2024.2.4,MacIntel,62.5,6718fc8e87940911f7093cfd,68817205a84113384fffdfe3,68819824c078969b1c050068,,,,,,,,,,,,,1,,,,,,,,,,,,,,,,,,,,,,,,,,,,,,,,,,,,,65,bizcocho,,,,,422.3293,423.761,0,0,0.9021,,0,15,15,64,1,REAL,FAKE,,,,,,,,,,,,,,,,,
,,,,,,,,,6718fc8e87940911f7093cfd,mexican,13 or older,"no, only English or Spanish",no,2025-07-23_22h20.43.412,empathy_intonation_perc_control,2024.2.4,MacIntel,62.5,6718fc8e87940911f7093cfd,68817205a84113384fffdfe3,68819824c078969b1c050068,,,,,,,,,,,,,0,,,,,,,,,,,,,,,,,,,,,,,,,,,,,,,,,,,,,58,plaudir,,,,,423.7623,425.4949,1,0,1.2021,,0,16,16,57,1,REAL,FAKE,,,,,,,,,,,,,,,,,
,,,,,,,,,6718fc8e87940911f7093cfd,mexican,13 or older,"no, only English or Spanish",no,2025-07-23_22h20.43.412,empathy_intonation_perc_control,2024.2.4,MacIntel,62.5,6718fc8e87940911f7093cfd,68817205a84113384fffdfe3,68819824c078969b1c050068,,,,,,,,,,,,,1,,,,,,,,,,,,,,,,,,,,,,,,,,,,,,,,,,,,,11,cenefa,,,,,425.4964,426.8279,0,0,0.8043,,0,17,17,10,1,REAL,FAKE,,,,,,,,,,,,,,,,,
,,,,,,,,,6718fc8e87940911f7093cfd,mexican,13 or older,"no, only English or Spanish",no,2025-07-23_22h20.43.412,empathy_intonation_perc_control,2024.2.4,MacIntel,62.5,6718fc8e87940911f7093cfd,68817205a84113384fffdfe3,68819824c078969b1c050068,,,,,,,,,,,,,1,,,,,,,,,,,,,,,,,,,,,,,,,,,,,,,,,,,,,31,pandilla,,,,,426.8293,428.5946,1,1,1.2364,,0,18,18,30,1,REAL,FAKE,,,,,,,,,,,,,,,,,
,,,,,,,,,6718fc8e87940911f7093cfd,mexican,13 or older,"no, only English or Spanish",no,2025-07-23_22h20.43.412,empathy_intonation_perc_control,2024.2.4,MacIntel,62.5,6718fc8e87940911f7093cfd,68817205a84113384fffdfe3,68819824c078969b1c050068,,,,,,,,,,,,,0,,,,,,,,,,,,,,,,,,,,,,,,,,,,,,,,,,,,,1,terzo,,,,,428.5959,430.6451,0,1,1.5317,,0,19,19,0,1,REAL,FAKE,,,,,,,,,,,,,,,,,
,,,,,,,,,6718fc8e87940911f7093cfd,mexican,13 or older,"no, only English or Spanish",no,2025-07-23_22h20.43.412,empathy_intonation_perc_control,2024.2.4,MacIntel,62.5,6718fc8e87940911f7093cfd,68817205a84113384fffdfe3,68819824c078969b1c050068,,,,,,,,,,,,,1,,,,,,,,,,,,,,,,,,,,,,,,,,,,,,,,,,,,,80,hormiga,,,,,430.6465,432.0954,0,0,0.9163,,0,20,20,79,1,REAL,FAKE,,,,,,,,,,,,,,,,,
,,,,,,,,,6718fc8e87940911f7093cfd,mexican,13 or older,"no, only English or Spanish",no,2025-07-23_22h20.43.412,empathy_intonation_perc_control,2024.2.4,MacIntel,62.5,6718fc8e87940911f7093cfd,68817205a84113384fffdfe3,68819824c078969b1c050068,,,,,,,,,,,,,0,,,,,,,,,,,,,,,,,,,,,,,,,,,,,,,,,,,,,33,pauca,,,,,432.0967,434.7774,0,1,2.149,,0,21,21,32,1,REAL,FAKE,,,,,,,,,,,,,,,,,
,,,,,,,,,6718fc8e87940911f7093cfd,mexican,13 or older,"no, only English or Spanish",no,2025-07-23_22h20.43.412,empathy_intonation_perc_control,2024.2.4,MacIntel,62.5,6718fc8e87940911f7093cfd,68817205a84113384fffdfe3,68819824c078969b1c050068,,,,,,,,,,,,,1,,,,,,,,,,,,,,,,,,,,,,,,,,,,,,,,,,,,,85,laúd,,,,,434.7786,438.962,0,0,3.6719,,0,22,22,84,1,REAL,FAKE,,,,,,,,,,,,,,,,,
,,,,,,,,,6718fc8e87940911f7093cfd,mexican,13 or older,"no, only English or Spanish",no,2025-07-23_22h20.43.412,empathy_intonation_perc_control,2024.2.4,MacIntel,62.5,6718fc8e87940911f7093cfd,68817205a84113384fffdfe3,68819824c078969b1c050068,,,,,,,,,,,,,1,,,,,,,,,,,,,,,,,,,,,,,,,,,,,,,,,,,,,20,ávido,,,,,438.9636,441.228,1,1,1.7346,,0,23,23,19,1,REAL,FAKE,,,,,,,,,,,,,,,,,
,,,,,,,,,6718fc8e87940911f7093cfd,mexican,13 or older,"no, only English or Spanish",no,2025-07-23_22h20.43.412,empathy_intonation_perc_control,2024.2.4,MacIntel,62.5,6718fc8e87940911f7093cfd,68817205a84113384fffdfe3,68819824c078969b1c050068,,,,,,,,,,,,,1,,,,,,,,,,,,,,,,,,,,,,,,,,,,,,,,,,,,,6,tergiversar,,,,,441.2292,443.0627,0,0,1.3121,,0,24,24,5,1,REAL,FAKE,,,,,,,,,,,,,,,,,
,,,,,,,,,6718fc8e87940911f7093cfd,mexican,13 or older,"no, only English or Spanish",no,2025-07-23_22h20.43.412,empathy_intonation_perc_control,2024.2.4,MacIntel,62.5,6718fc8e87940911f7093cfd,68817205a84113384fffdfe3,68819824c078969b1c050068,,,,,,,,,,,,,0,,,,,,,,,,,,,,,,,,,,,,,,,,,,,,,,,,,,,21,capillo,,,,,443.0642,444.6459,1,0,1.0538,,0,25,25,20,1,REAL,FAKE,,,,,,,,,,,,,,,,,
,,,,,,,,,6718fc8e87940911f7093cfd,mexican,13 or older,"no, only English or Spanish",no,2025-07-23_22h20.43.412,empathy_intonation_perc_control,2024.2.4,MacIntel,62.5,6718fc8e87940911f7093cfd,68817205a84113384fffdfe3,68819824c078969b1c050068,,,,,,,,,,,,,1,,,,,,,,,,,,,,,,,,,,,,,,,,,,,,,,,,,,,43,canela,,,,,444.6471,446.5628,1,1,1.3795,,0,26,26,42,1,REAL,FAKE,,,,,,,,,,,,,,,,,
,,,,,,,,,6718fc8e87940911f7093cfd,mexican,13 or older,"no, only English or Spanish",no,2025-07-23_22h20.43.412,empathy_intonation_perc_control,2024.2.4,MacIntel,62.5,6718fc8e87940911f7093cfd,68817205a84113384fffdfe3,68819824c078969b1c050068,,,,,,,,,,,,,0,,,,,,,,,,,,,,,,,,,,,,,,,,,,,,,,,,,,,29,decar,,,,,446.5641,448.2627,1,0,1.17,,0,27,27,28,1,REAL,FAKE,,,,,,,,,,,,,,,,,
,,,,,,,,,6718fc8e87940911f7093cfd,mexican,13 or older,"no, only English or Spanish",no,2025-07-23_22h20.43.412,empathy_intonation_perc_control,2024.2.4,MacIntel,62.5,6718fc8e87940911f7093cfd,68817205a84113384fffdfe3,68819824c078969b1c050068,,,,,,,,,,,,,1,,,,,,,,,,,,,,,,,,,,,,,,,,,,,,,,,,,,,73,hervidor,,,,,448.2641,449.6298,0,0,0.8311,,0,28,28,72,1,REAL,FAKE,,,,,,,,,,,,,,,,,
,,,,,,,,,6718fc8e87940911f7093cfd,mexican,13 or older,"no, only English or Spanish",no,2025-07-23_22h20.43.412,empathy_intonation_perc_control,2024.2.4,MacIntel,62.5,6718fc8e87940911f7093cfd,68817205a84113384fffdfe3,68819824c078969b1c050068,,,,,,,,,,,,,1,,,,,,,,,,,,,,,,,,,,,,,,,,,,,,,,,,,,,3,pulmones,,,,,449.6312,451.8797,0,0,1.7131,,0,29,29,2,1,REAL,FAKE,,,,,,,,,,,,,,,,,
,,,,,,,,,6718fc8e87940911f7093cfd,mexican,13 or older,"no, only English or Spanish",no,2025-07-23_22h20.43.412,empathy_intonation_perc_control,2024.2.4,MacIntel,62.5,6718fc8e87940911f7093cfd,68817205a84113384fffdfe3,68819824c078969b1c050068,,,,,,,,,,,,,1,,,,,,,,,,,,,,,,,,,,,,,,,,,,,,,,,,,,,38,estornudar,,,,,451.8809,454.0298,0,0,1.6196,,0,30,30,37,1,REAL,FAKE,,,,,,,,,,,,,,,,,
,,,,,,,,,6718fc8e87940911f7093cfd,mexican,13 or older,"no, only English or Spanish",no,2025-07-23_22h20.43.412,empathy_intonation_perc_control,2024.2.4,MacIntel,62.5,6718fc8e87940911f7093cfd,68817205a84113384fffdfe3,68819824c078969b1c050068,,,,,,,,,,,,,1,,,,,,,,,,,,,,,,,,,,,,,,,,,,,,,,,,,,,59,besar,,,,,454.0311,455.8471,1,1,1.289,,0,31,31,58,1,REAL,FAKE,,,,,,,,,,,,,,,,,
,,,,,,,,,6718fc8e87940911f7093cfd,mexican,13 or older,"no, only English or Spanish",no,2025-07-23_22h20.43.412,empathy_intonation_perc_control,2024.2.4,MacIntel,62.5,6718fc8e87940911f7093cfd,68817205a84113384fffdfe3,68819824c078969b1c050068,,,,,,,,,,,,,1,,,,,,,,,,,,,,,,,,,,,,,,,,,,,,,,,,,,,68,alegre,,,,,455.8483,457.4636,1,1,1.0883,,0,32,32,67,1,REAL,FAKE,,,,,,,,,,,,,,,,,
,,,,,,,,,6718fc8e87940911f7093cfd,mexican,13 or older,"no, only English or Spanish",no,2025-07-23_22h20.43.412,empathy_intonation_perc_control,2024.2.4,MacIntel,62.5,6718fc8e87940911f7093cfd,68817205a84113384fffdfe3,68819824c078969b1c050068,,,,,,,,,,,,,0,,,,,,,,,,,,,,,,,,,,,,,,,,,,,,,,,,,,,53,vegada,,,,,457.4648,459.0304,0,1,1.039,,0,33,33,52,1,REAL,FAKE,,,,,,,,,,,,,,,,,
,,,,,,,,,6718fc8e87940911f7093cfd,mexican,13 or older,"no, only English or Spanish",no,2025-07-23_22h20.43.412,empathy_intonation_perc_control,2024.2.4,MacIntel,62.5,6718fc8e87940911f7093cfd,68817205a84113384fffdfe3,68819824c078969b1c050068,,,,,,,,,,,,,0,,,,,,,,,,,,,,,,,,,,,,,,,,,,,,,,,,,,,4,batillón,,,,,459.0317,461.5971,0,1,2.0374,,0,34,34,3,1,REAL,FAKE,,,,,,,,,,,,,,,,,
,,,,,,,,,6718fc8e87940911f7093cfd,mexican,13 or older,"no, only English or Spanish",no,2025-07-23_22h20.43.412,empathy_intonation_perc_control,2024.2.4,MacIntel,62.5,6718fc8e87940911f7093cfd,68817205a84113384fffdfe3,68819824c078969b1c050068,,,,,,,,,,,,,1,,,,,,,,,,,,,,,,,,,,,,,,,,,,,,,,,,,,,90,clavel,,,,,461.5987,463.281,0,0,1.1517,,0,35,35,89,1,REAL,FAKE,,,,,,,,,,,,,,,,,
,,,,,,,,,6718fc8e87940911f7093cfd,mexican,13 or older,"no, only English or Spanish",no,2025-07-23_22h20.43.412,empathy_intonation_perc_control,2024.2.4,MacIntel,62.5,6718fc8e87940911f7093cfd,68817205a84113384fffdfe3,68819824c078969b1c050068,,,,,,,,,,,,,0,,,,,,,,,,,,,,,,,,,,,,,,,,,,,,,,,,,,,63,esposante,,,,,463.2822,465.3462,1,0,1.5319,,0,36,36,62,1,REAL,FAKE,,,,,,,,,,,,,,,,,
,,,,,,,,,6718fc8e87940911f7093cfd,mexican,13 or older,"no, only English or Spanish",no,2025-07-23_22h20.43.412,empathy_intonation_perc_control,2024.2.4,MacIntel,62.5,6718fc8e87940911f7093cfd,68817205a84113384fffdfe3,68819824c078969b1c050068,,,,,,,,,,,,,1,,,,,,,,,,,,,,,,,,,,,,,,,,,,,,,,,,,,,13,helar,,,,,465.3473,468.5964,1,1,2.7378,,0,37,37,12,1,REAL,FAKE,,,,,,,,,,,,,,,,,
,,,,,,,,,6718fc8e87940911f7093cfd,mexican,13 or older,"no, only English or Spanish",no,2025-07-23_22h20.43.412,empathy_intonation_perc_control,2024.2.4,MacIntel,62.5,6718fc8e87940911f7093cfd,68817205a84113384fffdfe3,68819824c078969b1c050068,,,,,,,,,,,,,0,,,,,,,,,,,,,,,,,,,,,,,,,,,,,,,,,,,,,23,lampera,,,,,468.5976,470.2309,0,1,1.103,,0,38,38,22,1,REAL,FAKE,,,,,,,,,,,,,,,,,
,,,,,,,,,6718fc8e87940911f7093cfd,mexican,13 or older,"no, only English or Spanish",no,2025-07-23_22h20.43.412,empathy_intonation_perc_control,2024.2.4,MacIntel,62.5,6718fc8e87940911f7093cfd,68817205a84113384fffdfe3,68819824c078969b1c050068,,,,,,,,,,,,,0,,,,,,,,,,,,,,,,,,,,,,,,,,,,,,,,,,,,,66,hacido,,,,,470.2321,472.9973,1,0,2.2364,,0,39,39,65,1,REAL,FAKE,,,,,,,,,,,,,,,,,
,,,,,,,,,6718fc8e87940911f7093cfd,mexican,13 or older,"no, only English or Spanish",no,2025-07-23_22h20.43.412,empathy_intonation_perc_control,2024.2.4,MacIntel,62.5,6718fc8e87940911f7093cfd,68817205a84113384fffdfe3,68819824c078969b1c050068,,,,,,,,,,,,,1,,,,,,,,,,,,,,,,,,,,,,,,,,,,,,,,,,,,,45,jilguero,,,,,472.9986,474.4321,0,0,0.9228,,0,40,40,44,1,REAL,FAKE,,,,,,,,,,,,,,,,,
,,,,,,,,,6718fc8e87940911f7093cfd,mexican,13 or older,"no, only English or Spanish",no,2025-07-23_22h20.43.412,empathy_intonation_perc_control,2024.2.4,MacIntel,62.5,6718fc8e87940911f7093cfd,68817205a84113384fffdfe3,68819824c078969b1c050068,,,,,,,,,,,,,1,,,,,,,,,,,,,,,,,,,,,,,,,,,,,,,,,,,,,41,rebuscar,,,,,474.4337,476.147,1,1,1.1815,,0,41,41,40,1,REAL,FAKE,,,,,,,,,,,,,,,,,
,,,,,,,,,6718fc8e87940911f7093cfd,mexican,13 or older,"no, only English or Spanish",no,2025-07-23_22h20.43.412,empathy_intonation_perc_control,2024.2.4,MacIntel,62.5,6718fc8e87940911f7093cfd,68817205a84113384fffdfe3,68819824c078969b1c050068,,,,,,,,,,,,,1,,,,,,,,,,,,,,,,,,,,,,,,,,,,,,,,,,,,,26,secuestro,,,,,476.1478,477.9139,0,0,1.2479,,0,42,42,25,1,REAL,FAKE,,,,,,,,,,,,,,,,,
,,,,,,,,,6718fc8e87940911f7093cfd,mexican,13 or older,"no, only English or Spanish",no,2025-07-23_22h20.43.412,empathy_intonation_perc_control,2024.2.4,MacIntel,62.5,6718fc8e87940911f7093cfd,68817205a84113384fffdfe3,68819824c078969b1c050068,,,,,,,,,,,,,1,,,,,,,,,,,,,,,,,,,,,,,,,,,,,,,,,,,,,86,barato,,,,,477.9152,479.3154,0,0,0.8812,,0,43,43,85,1,REAL,FAKE,,,,,,,,,,,,,,,,,
,,,,,,,,,6718fc8e87940911f7093cfd,mexican,13 or older,"no, only English or Spanish",no,2025-07-23_22h20.43.412,empathy_intonation_perc_control,2024.2.4,MacIntel,62.5,6718fc8e87940911f7093cfd,68817205a84113384fffdfe3,68819824c078969b1c050068,,,,,,,,,,,,,0,,,,,,,,,,,,,,,,,,,,,,,,,,,,,,,,,,,,,30,alardio,,,,,479.3166,480.7652,0,1,0.9181,,0,44,44,29,1,REAL,FAKE,,,,,,,,,,,,,,,,,
,,,,,,,,,6718fc8e87940911f7093cfd,mexican,13 or older,"no, only English or Spanish",no,2025-07-23_22h20.43.412,empathy_intonation_perc_control,2024.2.4,MacIntel,62.5,6718fc8e87940911f7093cfd,68817205a84113384fffdfe3,68819824c078969b1c050068,,,,,,,,,,,,,0,,,,,,,,,,,,,,,,,,,,,,,,,,,,,,,,,,,,,87,grodo,,,,,480.7665,482.7642,1,0,1.4689,,0,45,45,86,1,REAL,FAKE,,,,,,,,,,,,,,,,,
,,,,,,,,,6718fc8e87940911f7093cfd,mexican,13 or older,"no, only English or Spanish",no,2025-07-23_22h20.43.412,empathy_intonation_perc_control,2024.2.4,MacIntel,62.5,6718fc8e87940911f7093cfd,68817205a84113384fffdfe3,68819824c078969b1c050068,,,,,,,,,,,,,1,,,,,,,,,,,,,,,,,,,,,,,,,,,,,,,,,,,,,88,acantilado,,,,,482.7653,484.298,1,1,1.0186,,0,46,46,87,1,REAL,FAKE,,,,,,,,,,,,,,,,,
,,,,,,,,,6718fc8e87940911f7093cfd,mexican,13 or older,"no, only English or Spanish",no,2025-07-23_22h20.43.412,empathy_intonation_perc_control,2024.2.4,MacIntel,62.5,6718fc8e87940911f7093cfd,68817205a84113384fffdfe3,68819824c078969b1c050068,,,,,,,,,,,,,1,,,,,,,,,,,,,,,,,,,,,,,,,,,,,,,,,,,,,75,yacer,,,,,484.2992,485.7821,0,0,0.9673,,0,47,47,74,1,REAL,FAKE,,,,,,,,,,,,,,,,,
,,,,,,,,,6718fc8e87940911f7093cfd,mexican,13 or older,"no, only English or Spanish",no,2025-07-23_22h20.43.412,empathy_intonation_perc_control,2024.2.4,MacIntel,62.5,6718fc8e87940911f7093cfd,68817205a84113384fffdfe3,68819824c078969b1c050068,,,,,,,,,,,,,1,,,,,,,,,,,,,,,,,,,,,,,,,,,,,,,,,,,,,22,lacayo,,,,,485.7838,487.0157,0,0,0.7025,,0,48,48,21,1,REAL,FAKE,,,,,,,,,,,,,,,,,
,,,,,,,,,6718fc8e87940911f7093cfd,mexican,13 or older,"no, only English or Spanish",no,2025-07-23_22h20.43.412,empathy_intonation_perc_control,2024.2.4,MacIntel,62.5,6718fc8e87940911f7093cfd,68817205a84113384fffdfe3,68819824c078969b1c050068,,,,,,,,,,,,,1,,,,,,,,,,,,,,,,,,,,,,,,,,,,,,,,,,,,,37,granuja,,,,,487.017,488.9324,0,0,1.3901,,0,49,49,36,1,REAL,FAKE,,,,,,,,,,,,,,,,,
,,,,,,,,,6718fc8e87940911f7093cfd,mexican,13 or older,"no, only English or Spanish",no,2025-07-23_22h20.43.412,empathy_intonation_perc_control,2024.2.4,MacIntel,62.5,6718fc8e87940911f7093cfd,68817205a84113384fffdfe3,68819824c078969b1c050068,,,,,,,,,,,,,0,,,,,,,,,,,,,,,,,,,,,,,,,,,,,,,,,,,,,8,cadeña,,,,,488.9338,490.7482,1,0,1.2849,,0,50,50,7,1,REAL,FAKE,,,,,,,,,,,,,,,,,
,,,,,,,,,6718fc8e87940911f7093cfd,mexican,13 or older,"no, only English or Spanish",no,2025-07-23_22h20.43.412,empathy_intonation_perc_control,2024.2.4,MacIntel,62.5,6718fc8e87940911f7093cfd,68817205a84113384fffdfe3,68819824c078969b1c050068,,,,,,,,,,,,,1,,,,,,,,,,,,,,,,,,,,,,,,,,,,,,,,,,,,,60,matar,,,,,490.7494,492.4823,0,0,1.1982,,0,51,51,59,1,REAL,FAKE,,,,,,,,,,,,,,,,,
,,,,,,,,,6718fc8e87940911f7093cfd,mexican,13 or older,"no, only English or Spanish",no,2025-07-23_22h20.43.412,empathy_intonation_perc_control,2024.2.4,MacIntel,62.5,6718fc8e87940911f7093cfd,68817205a84113384fffdfe3,68819824c078969b1c050068,,,,,,,,,,,,,1,,,,,,,,,,,,,,,,,,,,,,,,,,,,,,,,,,,,,2,pellizcar,,,,,492.4835,493.8985,0,0,0.8963,,0,52,52,1,1,REAL,FAKE,,,,,,,,,,,,,,,,,
,,,,,,,,,6718fc8e87940911f7093cfd,mexican,13 or older,"no, only English or Spanish",no,2025-07-23_22h20.43.412,empathy_intonation_perc_control,2024.2.4,MacIntel,62.5,6718fc8e87940911f7093cfd,68817205a84113384fffdfe3,68819824c078969b1c050068,,,,,,,,,,,,,1,,,,,,,,,,,,,,,,,,,,,,,,,,,,,,,,,,,,,54,fomentar,,,,,493.8997,495.8663,0,0,1.4555,,0,53,53,53,1,REAL,FAKE,,,,,,,,,,,,,,,,,
,,,,,,,,,6718fc8e87940911f7093cfd,mexican,13 or older,"no, only English or Spanish",no,2025-07-23_22h20.43.412,empathy_intonation_perc_control,2024.2.4,MacIntel,62.5,6718fc8e87940911f7093cfd,68817205a84113384fffdfe3,68819824c078969b1c050068,,,,,,,,,,,,,1,,,,,,,,,,,,,,,,,,,,,,,,,,,,,,,,,,,,,55,nevar,,,,,495.8675,497.1494,0,0,0.7489,,0,54,54,54,1,REAL,FAKE,,,,,,,,,,,,,,,,,
,,,,,,,,,6718fc8e87940911f7093cfd,mexican,13 or older,"no, only English or Spanish",no,2025-07-23_22h20.43.412,empathy_intonation_perc_control,2024.2.4,MacIntel,62.5,6718fc8e87940911f7093cfd,68817205a84113384fffdfe3,68819824c078969b1c050068,,,,,,,,,,,,,1,,,,,,,,,,,,,,,,,,,,,,,,,,,,,,,,,,,,,48,ladrón,,,,,497.151,498.4825,0,0,0.7967,,0,55,55,47,1,REAL,FAKE,,,,,,,,,,,,,,,,,
,,,,,,,,,6718fc8e87940911f7093cfd,mexican,13 or older,"no, only English or Spanish",no,2025-07-23_22h20.43.412,empathy_intonation_perc_control,2024.2.4,MacIntel,62.5,6718fc8e87940911f7093cfd,68817205a84113384fffdfe3,68819824c078969b1c050068,,,,,,,,,,,,,1,,,,,,,,,,,,,,,,,,,,,,,,,,,,,,,,,,,,,36,loro,,,,,498.4834,499.9323,0,0,0.9385,,0,56,56,35,1,REAL,FAKE,,,,,,,,,,,,,,,,,
,,,,,,,,,6718fc8e87940911f7093cfd,mexican,13 or older,"no, only English or Spanish",no,2025-07-23_22h20.43.412,empathy_intonation_perc_control,2024.2.4,MacIntel,62.5,6718fc8e87940911f7093cfd,68817205a84113384fffdfe3,68819824c078969b1c050068,,,,,,,,,,,,,1,,,,,,,,,,,,,,,,,,,,,,,,,,,,,,,,,,,,,64,orgulloso,,,,,499.9337,501.2332,0,0,0.7692,,0,57,57,63,1,REAL,FAKE,,,,,,,,,,,,,,,,,
,,,,,,,,,6718fc8e87940911f7093cfd,mexican,13 or older,"no, only English or Spanish",no,2025-07-23_22h20.43.412,empathy_intonation_perc_control,2024.2.4,MacIntel,62.5,6718fc8e87940911f7093cfd,68817205a84113384fffdfe3,68819824c078969b1c050068,,,,,,,,,,,,,1,,,,,,,,,,,,,,,,,,,,,,,,,,,,,,,,,,,,,77,tiburón,,,,,501.2344,503.5657,0,0,1.7992,,0,58,58,76,1,REAL,FAKE,,,,,,,,,,,,,,,,,
,,,,,,,,,6718fc8e87940911f7093cfd,mexican,13 or older,"no, only English or Spanish",no,2025-07-23_22h20.43.412,empathy_intonation_perc_control,2024.2.4,MacIntel,62.5,6718fc8e87940911f7093cfd,68817205a84113384fffdfe3,68819824c078969b1c050068,,,,,,,,,,,,,0,,,,,,,,,,,,,,,,,,,,,,,,,,,,,,,,,,,,,32,fatacidad,,,,,503.5666,505.3503,0,1,1.2681,,0,59,59,31,1,REAL,FAKE,,,,,,,,,,,,,,,,,
,,,,,,,,,6718fc8e87940911f7093cfd,mexican,13 or older,"no, only English or Spanish",no,2025-07-23_22h20.43.412,empathy_intonation_perc_control,2024.2.4,MacIntel,62.5,6718fc8e87940911f7093cfd,68817205a84113384fffdfe3,68819824c078969b1c050068,,,,,,,,,,,,,1,,,,,,,,,,,,,,,,,,,,,,,,,,,,,,,,,,,,,5,zapato,,,,,505.3518,506.7334,0,0,0.8493,,0,60,60,4,1,REAL,FAKE,,,,,,,,,,,,,,,,,
,,,,,,,,,6718fc8e87940911f7093cfd,mexican,13 or older,"no, only English or Spanish",no,2025-07-23_22h20.43.412,empathy_intonation_perc_control,2024.2.4,MacIntel,62.5,6718fc8e87940911f7093cfd,68817205a84113384fffdfe3,68819824c078969b1c050068,,,,,,,,,,,,,0,,,,,,,,,,,,,,,,,,,,,,,,,,,,,,,,,,,,,50,flamida,,,,,506.7349,508.1824,0,1,0.9177,,0,61,61,49,1,REAL,FAKE,,,,,,,,,,,,,,,,,
,,,,,,,,,6718fc8e87940911f7093cfd,mexican,13 or older,"no, only English or Spanish",no,2025-07-23_22h20.43.412,empathy_intonation_perc_control,2024.2.4,MacIntel,62.5,6718fc8e87940911f7093cfd,68817205a84113384fffdfe3,68819824c078969b1c050068,,,,,,,,,,,,,1,,,,,,,,,,,,,,,,,,,,,,,,,,,,,,,,,,,,,46,martillo,,,,,508.1835,509.7505,0,0,1.053,,0,62,62,45,1,REAL,FAKE,,,,,,,,,,,,,,,,,
,,,,,,,,,6718fc8e87940911f7093cfd,mexican,13 or older,"no, only English or Spanish",no,2025-07-23_22h20.43.412,empathy_intonation_perc_control,2024.2.4,MacIntel,62.5,6718fc8e87940911f7093cfd,68817205a84113384fffdfe3,68819824c078969b1c050068,,,,,,,,,,,,,0,,,,,,,,,,,,,,,,,,,,,,,,,,,,,,,,,,,,,84,escuto,,,,,509.7518,511.6174,1,0,1.3363,,0,63,63,83,1,REAL,FAKE,,,,,,,,,,,,,,,,,
,,,,,,,,,6718fc8e87940911f7093cfd,mexican,13 or older,"no, only English or Spanish",no,2025-07-23_22h20.43.412,empathy_intonation_perc_control,2024.2.4,MacIntel,62.5,6718fc8e87940911f7093cfd,68817205a84113384fffdfe3,68819824c078969b1c050068,,,,,,,,,,,,,1,,,,,,,,,,,,,,,,,,,,,,,,,,,,,,,,,,,,,91,click the 1 key.,,,,,511.6191,515.2337,1,1,3.0878,,0,64,64,90,1,REAL,FAKE,,,,,,,,,,,,,,,,,
,,,,,,,,,6718fc8e87940911f7093cfd,mexican,13 or older,"no, only English or Spanish",no,2025-07-23_22h20.43.412,empathy_intonation_perc_control,2024.2.4,MacIntel,62.5,6718fc8e87940911f7093cfd,68817205a84113384fffdfe3,68819824c078969b1c050068,,,,,,,,,,,,,1,,,,,,,,,,,,,,,,,,,,,,,,,,,,,,,,,,,,,7,pésimo,,,,,515.2349,521.5171,0,0,5.7713,,0,65,65,6,1,REAL,FAKE,,,,,,,,,,,,,,,,,
,,,,,,,,,6718fc8e87940911f7093cfd,mexican,13 or older,"no, only English or Spanish",no,2025-07-23_22h20.43.412,empathy_intonation_perc_control,2024.2.4,MacIntel,62.5,6718fc8e87940911f7093cfd,68817205a84113384fffdfe3,68819824c078969b1c050068,,,,,,,,,,,,,0,,,,,,,,,,,,,,,,,,,,,,,,,,,,,,,,,,,,,16,abracer,,,,,521.5182,523.4838,0,1,1.4514,,0,66,66,15,1,REAL,FAKE,,,,,,,,,,,,,,,,,
,,,,,,,,,6718fc8e87940911f7093cfd,mexican,13 or older,"no, only English or Spanish",no,2025-07-23_22h20.43.412,empathy_intonation_perc_control,2024.2.4,MacIntel,62.5,6718fc8e87940911f7093cfd,68817205a84113384fffdfe3,68819824c078969b1c050068,,,,,,,,,,,,,1,,,,,,,,,,,,,,,,,,,,,,,,,,,,,,,,,,,,,9,hacha,,,,,523.485,525.085,0,0,1.0876,,0,67,67,8,1,REAL,FAKE,,,,,,,,,,,,,,,,,
,,,,,,,,,6718fc8e87940911f7093cfd,mexican,13 or older,"no, only English or Spanish",no,2025-07-23_22h20.43.412,empathy_intonation_perc_control,2024.2.4,MacIntel,62.5,6718fc8e87940911f7093cfd,68817205a84113384fffdfe3,68819824c078969b1c050068,,,,,,,,,,,,,1,,,,,,,,,,,,,,,,,,,,,,,,,,,,,,,,,,,,,14,yunque,,,,,525.0862,526.2351,0,0,0.6126,,0,68,68,13,1,REAL,FAKE,,,,,,,,,,,,,,,,,
,,,,,,,,,6718fc8e87940911f7093cfd,mexican,13 or older,"no, only English or Spanish",no,2025-07-23_22h20.43.412,empathy_intonation_perc_control,2024.2.4,MacIntel,62.5,6718fc8e87940911f7093cfd,68817205a84113384fffdfe3,68819824c078969b1c050068,,,,,,,,,,,,,1,,,,,,,,,,,,,,,,,,,,,,,,,,,,,,,,,,,,,78,frondoso,,,,,526.2365,527.7685,0,0,0.999,,0,69,69,77,1,REAL,FAKE,,,,,,,,,,,,,,,,,
,,,,,,,,,6718fc8e87940911f7093cfd,mexican,13 or older,"no, only English or Spanish",no,2025-07-23_22h20.43.412,empathy_intonation_perc_control,2024.2.4,MacIntel,62.5,6718fc8e87940911f7093cfd,68817205a84113384fffdfe3,68819824c078969b1c050068,,,,,,,,,,,,,0,,,,,,,,,,,,,,,,,,,,,,,,,,,,,,,,,,,,,35,rompido,,,,,527.77,529.5017,1,0,1.2023,,0,70,70,34,1,REAL,FAKE,,,,,,,,,,,,,,,,,
,,,,,,,,,6718fc8e87940911f7093cfd,mexican,13 or older,"no, only English or Spanish",no,2025-07-23_22h20.43.412,empathy_intonation_perc_control,2024.2.4,MacIntel,62.5,6718fc8e87940911f7093cfd,68817205a84113384fffdfe3,68819824c078969b1c050068,,,,,,,,,,,,,0,,,,,,,,,,,,,,,,,,,,,,,,,,,,,,,,,,,,,72,pemición,,,,,529.5029,534.0525,0,1,4.0229,,0,71,71,71,1,REAL,FAKE,,,,,,,,,,,,,,,,,
,,,,,,,,,6718fc8e87940911f7093cfd,mexican,13 or older,"no, only English or Spanish",no,2025-07-23_22h20.43.412,empathy_intonation_perc_control,2024.2.4,MacIntel,62.5,6718fc8e87940911f7093cfd,68817205a84113384fffdfe3,68819824c078969b1c050068,,,,,,,,,,,,,0,,,,,,,,,,,,,,,,,,,,,,,,,,,,,,,,,,,,,27,acutación,,,,,534.0538,535.9511,0,1,1.3627,,0,72,72,26,1,REAL,FAKE,,,,,,,,,,,,,,,,,
,,,,,,,,,6718fc8e87940911f7093cfd,mexican,13 or older,"no, only English or Spanish",no,2025-07-23_22h20.43.412,empathy_intonation_perc_control,2024.2.4,MacIntel,62.5,6718fc8e87940911f7093cfd,68817205a84113384fffdfe3,68819824c078969b1c050068,,,,,,,,,,,,,0,,,,,,,,,,,,,,,,,,,,,,,,,,,,,,,,,,,,,47,cartinar,,,,,535.9522,537.5352,1,0,1.0661,,0,73,73,46,1,REAL,FAKE,,,,,,,,,,,,,,,,,
,,,,,,,,,6718fc8e87940911f7093cfd,mexican,13 or older,"no, only English or Spanish",no,2025-07-23_22h20.43.412,empathy_intonation_perc_control,2024.2.4,MacIntel,62.5,6718fc8e87940911f7093cfd,68817205a84113384fffdfe3,68819824c078969b1c050068,,,,,,,,,,,,,1,,,,,,,,,,,,,,,,,,,,,,,,,,,,,,,,,,,,,24,látigo,,,,,537.5361,539.5024,1,1,1.4521,,0,74,74,23,1,REAL,FAKE,,,,,,,,,,,,,,,,,
,,,,,,,,,6718fc8e87940911f7093cfd,mexican,13 or older,"no, only English or Spanish",no,2025-07-23_22h20.43.412,empathy_intonation_perc_control,2024.2.4,MacIntel,62.5,6718fc8e87940911f7093cfd,68817205a84113384fffdfe3,68819824c078969b1c050068,,,,,,,,,,,,,0,,,,,,,,,,,,,,,,,,,,,,,,,,,,,,,,,,,,,92,click the 0 key.,,,,,539.5038,541.4527,0,1,1.4131,,0,75,75,91,1,REAL,FAKE,,,,,,,,,,,,,,,,,
,,,,,,,,,6718fc8e87940911f7093cfd,mexican,13 or older,"no, only English or Spanish",no,2025-07-23_22h20.43.412,empathy_intonation_perc_control,2024.2.4,MacIntel,62.5,6718fc8e87940911f7093cfd,68817205a84113384fffdfe3,68819824c078969b1c050068,,,,,,,,,,,,,0,,,,,,,,,,,,,,,,,,,,,,,,,,,,,,,,,,,,,18,arsa,,,,,541.454,543.8532,1,0,1.8686,,0,76,76,17,1,REAL,FAKE,,,,,,,,,,,,,,,,,
,,,,,,,,,6718fc8e87940911f7093cfd,mexican,13 or older,"no, only English or Spanish",no,2025-07-23_22h20.43.412,empathy_intonation_perc_control,2024.2.4,MacIntel,62.5,6718fc8e87940911f7093cfd,68817205a84113384fffdfe3,68819824c078969b1c050068,,,,,,,,,,,,,1,,,,,,,,,,,,,,,,,,,,,,,,,,,,,,,,,,,,,40,alfombra,,,,,543.8545,545.5529,0,0,1.1621,,0,77,77,39,1,REAL,FAKE,,,,,,,,,,,,,,,,,
,,,,,,,,,6718fc8e87940911f7093cfd,mexican,13 or older,"no, only English or Spanish",no,2025-07-23_22h20.43.412,empathy_intonation_perc_control,2024.2.4,MacIntel,62.5,6718fc8e87940911f7093cfd,68817205a84113384fffdfe3,68819824c078969b1c050068,,,,,,,,,,,,,1,,,,,,,,,,,,,,,,,,,,,,,,,,,,,,,,,,,,,61,seda,,,,,545.5538,546.8199,0,0,0.7315,,0,78,78,60,1,REAL,FAKE,,,,,,,,,,,,,,,,,
,,,,,,,,,6718fc8e87940911f7093cfd,mexican,13 or older,"no, only English or Spanish",no,2025-07-23_22h20.43.412,empathy_intonation_perc_control,2024.2.4,MacIntel,62.5,6718fc8e87940911f7093cfd,68817205a84113384fffdfe3,68819824c078969b1c050068,,,,,,,,,,,,,1,,,,,,,,,,,,,,,,,,,,,,,,,,,,,,,,,,,,,39,torpe,,,,,546.8211,548.1357,0,0,0.7855,,0,79,79,38,1,REAL,FAKE,,,,,,,,,,,,,,,,,
,,,,,,,,,6718fc8e87940911f7093cfd,mexican,13 or older,"no, only English or Spanish",no,2025-07-23_22h20.43.412,empathy_intonation_perc_control,2024.2.4,MacIntel,62.5,6718fc8e87940911f7093cfd,68817205a84113384fffdfe3,68819824c078969b1c050068,,,,,,,,,,,,,1,,,,,,,,,,,,,,,,,,,,,,,,,,,,,,,,,,,,,49,ganar,,,,,548.1368,549.3363,0,0,0.6869,,0,80,80,48,1,REAL,FAKE,,,,,,,,,,,,,,,,,
,,,,,,,,,6718fc8e87940911f7093cfd,mexican,13 or older,"no, only English or Spanish",no,2025-07-23_22h20.43.412,empathy_intonation_perc_control,2024.2.4,MacIntel,62.5,6718fc8e87940911f7093cfd,68817205a84113384fffdfe3,68819824c078969b1c050068,,,,,,,,,,,,,1,,,,,,,,,,,,,,,,,,,,,,,,,,,,,,,,,,,,,44,cuchara,,,,,549.3375,550.5202,0,0,0.6631,,0,81,81,43,1,REAL,FAKE,,,,,,,,,,,,,,,,,
,,,,,,,,,6718fc8e87940911f7093cfd,mexican,13 or older,"no, only English or Spanish",no,2025-07-23_22h20.43.412,empathy_intonation_perc_control,2024.2.4,MacIntel,62.5,6718fc8e87940911f7093cfd,68817205a84113384fffdfe3,68819824c078969b1c050068,,,,,,,,,,,,,0,,,,,,,,,,,,,,,,,,,,,,,,,,,,,,,,,,,,,82,empirador,,,,,550.5214,551.7861,1,0,0.7318,,0,82,82,81,1,REAL,FAKE,,,,,,,,,,,,,,,,,
,,,,,,,,,6718fc8e87940911f7093cfd,mexican,13 or older,"no, only English or Spanish",no,2025-07-23_22h20.43.412,empathy_intonation_perc_control,2024.2.4,MacIntel,62.5,6718fc8e87940911f7093cfd,68817205a84113384fffdfe3,68819824c078969b1c050068,,,,,,,,,,,,,1,,,,,,,,,,,,,,,,,,,,,,,,,,,,,,,,,,,,,62,flaco,,,,,551.7876,553.6534,1,1,1.3464,,0,83,83,61,1,REAL,FAKE,,,,,,,,,,,,,,,,,
,,,,,,,,,6718fc8e87940911f7093cfd,mexican,13 or older,"no, only English or Spanish",no,2025-07-23_22h20.43.412,empathy_intonation_perc_control,2024.2.4,MacIntel,62.5,6718fc8e87940911f7093cfd,68817205a84113384fffdfe3,68819824c078969b1c050068,,,,,,,,,,,,,1,,,,,,,,,,,,,,,,,,,,,,,,,,,,,,,,,,,,,76,atar,,,,,553.6549,556.2023,0,0,2.0202,,0,84,84,75,1,REAL,FAKE,,,,,,,,,,,,,,,,,
,,,,,,,,,6718fc8e87940911f7093cfd,mexican,13 or older,"no, only English or Spanish",no,2025-07-23_22h20.43.412,empathy_intonation_perc_control,2024.2.4,MacIntel,62.5,6718fc8e87940911f7093cfd,68817205a84113384fffdfe3,68819824c078969b1c050068,,,,,,,,,,,,,1,,,,,,,,,,,,,,,,,,,,,,,,,,,,,,,,,,,,,71,polvoriento,,,,,556.2034,557.5873,0,0,0.8447,,0,85,85,70,1,REAL,FAKE,,,,,,,,,,,,,,,,,
,,,,,,,,,6718fc8e87940911f7093cfd,mexican,13 or older,"no, only English or Spanish",no,2025-07-23_22h20.43.412,empathy_intonation_perc_control,2024.2.4,MacIntel,62.5,6718fc8e87940911f7093cfd,68817205a84113384fffdfe3,68819824c078969b1c050068,,,,,,,,,,,,,1,,,,,,,,,,,,,,,,,,,,,,,,,,,,,,,,,,,,,89,prisa,,,,,557.5885,559.0029,0,0,0.8814,,0,86,86,88,1,REAL,FAKE,,,,,,,,,,,,,,,,,
,,,,,,,,,6718fc8e87940911f7093cfd,mexican,13 or older,"no, only English or Spanish",no,2025-07-23_22h20.43.412,empathy_intonation_perc_control,2024.2.4,MacIntel,62.5,6718fc8e87940911f7093cfd,68817205a84113384fffdfe3,68819824c078969b1c050068,,,,,,,,,,,,,0,,,,,,,,,,,,,,,,,,,,,,,,,,,,,,,,,,,,,70,temblo,,,,,559.004,560.5372,0,1,1.0195,,0,87,87,69,1,REAL,FAKE,,,,,,,,,,,,,,,,,
,,,,,,,,,6718fc8e87940911f7093cfd,mexican,13 or older,"no, only English or Spanish",no,2025-07-23_22h20.43.412,empathy_intonation_perc_control,2024.2.4,MacIntel,62.5,6718fc8e87940911f7093cfd,68817205a84113384fffdfe3,68819824c078969b1c050068,,,,,,,,,,,,,1,,,,,,,,,,,,,,,,,,,,,,,,,,,,,,,,,,,,,81,pozo,,,,,560.5386,561.721,0,0,0.6471,,0,88,88,80,1,REAL,FAKE,,,,,,,,,,,,,,,,,
,,,,,,,,,6718fc8e87940911f7093cfd,mexican,13 or older,"no, only English or Spanish",no,2025-07-23_22h20.43.412,empathy_intonation_perc_control,2024.2.4,MacIntel,62.5,6718fc8e87940911f7093cfd,68817205a84113384fffdfe3,68819824c078969b1c050068,,,,,,,,,,,,,1,,,,,,,,,,,,,,,,,,,,,,,,,,,,,,,,,,,,,15,regar,,,,,561.7223,562.9869,0,0,0.73,,0,89,89,14,1,REAL,FAKE,,,,,,,,,,,,,,,,,
,,,,,,,,,6718fc8e87940911f7093cfd,mexican,13 or older,"no, only English or Spanish",no,2025-07-23_22h20.43.412,empathy_intonation_perc_control,2024.2.4,MacIntel,62.5,6718fc8e87940911f7093cfd,68817205a84113384fffdfe3,68819824c078969b1c050068,,,,,,,,,,,,,1,,,,,,,,,,,,,,,,,,,,,,,,,,,,,,,,,,,,,56,musgo,,,,,562.9879,564.47,0,0,0.9688,,0,90,90,55,1,REAL,FAKE,,,,,,,,,,,,,,,,,
,,,,,,,,,6718fc8e87940911f7093cfd,mexican,13 or older,"no, only English or Spanish",no,2025-07-23_22h20.43.412,empathy_intonation_perc_control,2024.2.4,MacIntel,62.5,6718fc8e87940911f7093cfd,68817205a84113384fffdfe3,68819824c078969b1c050068,,,,,,,,,,,,,0,,,,,,,,,,,,,,,,,,,,,,,,,,,,,,,,,,,,,19,brecedad,,,,,564.4712,566.1377,0,1,1.153,,0,91,91,18,1,REAL,FAKE,,,,,,,,,,,,,,,,,
,,,,,,,,,6718fc8e87940911f7093cfd,mexican,13 or older,"no, only English or Spanish",no,2025-07-23_22h20.43.412,empathy_intonation_perc_control,2024.2.4,MacIntel,62.5,6718fc8e87940911f7093cfd,68817205a84113384fffdfe3,68819824c078969b1c050068,,,,,,,,,,,,,,,,,,,,,,,,,,,,,,,,,,,,,,,,,,,,,,,,,,,,,,,,,,,,,,,,,,,,,566.1382,572.7374,,,,,,,,,,,,,,,
,,,,,,,,,6718fc8e87940911f7093cfd,mexican,13 or older,"no, only English or Spanish",no,2025-07-23_22h20.43.412,empathy_intonation_perc_control,2024.2.4,MacIntel,62.5,6718fc8e87940911f7093cfd,68817205a84113384fffdfe3,68819824c078969b1c050068,,,,,,,,,,,,,,,,,,,,,,,,,,,1,,,,,,,,,,,,,,,,,,,,,,,,,,,,,,,,,,,,,,,,,,,,572.7481,580.4047,slightly agree,0,0,0,0,1,I can easily tell if someone else wants to enter a conversation.,1,0,1,0,,
,,,,,,,,,6718fc8e87940911f7093cfd,mexican,13 or older,"no, only English or Spanish",no,2025-07-23_22h20.43.412,empathy_intonation_perc_control,2024.2.4,MacIntel,62.5,6718fc8e87940911f7093cfd,68817205a84113384fffdfe3,68819824c078969b1c050068,,,,,,,,,,,,,,,,,,,,,,,,,,,2,,,,,,,,,,,,,,,,,,,,,,,,,,,,,,,,,,,,,,,,,,,,580.4068,583.4713,slightly agree,0,1,1,1,1,I prefer animals to humans.,0,1,0,0,,
,,,,,,,,,6718fc8e87940911f7093cfd,mexican,13 or older,"no, only English or Spanish",no,2025-07-23_22h20.43.412,empathy_intonation_perc_control,2024.2.4,MacIntel,62.5,6718fc8e87940911f7093cfd,68817205a84113384fffdfe3,68819824c078969b1c050068,,,,,,,,,,,,,,,,,,,,,,,,,,,3,,,,,,,,,,,,,,,,,,,,,,,,,,,,,,,,,,,,,,,,,,,,583.4734,586.3392,strongly agree,0,2,2,2,1,I try to keep up with the current trends and fashions.,0,1,0,0,,
,,,,,,,,,6718fc8e87940911f7093cfd,mexican,13 or older,"no, only English or Spanish",no,2025-07-23_22h20.43.412,empathy_intonation_perc_control,2024.2.4,MacIntel,62.5,6718fc8e87940911f7093cfd,68817205a84113384fffdfe3,68819824c078969b1c050068,,,,,,,,,,,,,,,,,,,,,,,,,,,4,,,,,,,,,,,,,,,,,,,,,,,,,,,,,,,,,,,,,,,,,,,,586.3415,593.3061,slightly agree,0,3,3,3,1,"I find it difficult to explain to others things that I understand easily,   when they don't understand it first time.",1,0,0,1,,
,,,,,,,,,6718fc8e87940911f7093cfd,mexican,13 or older,"no, only English or Spanish",no,2025-07-23_22h20.43.412,empathy_intonation_perc_control,2024.2.4,MacIntel,62.5,6718fc8e87940911f7093cfd,68817205a84113384fffdfe3,68819824c078969b1c050068,,,,,,,,,,,,,,,,,,,,,,,,,,,5,,,,,,,,,,,,,,,,,,,,,,,,,,,,,,,,,,,,,,,,,,,,593.3078,595.4899,slightly agree,0,4,4,4,1,I dream most nights.,0,1,0,0,,
,,,,,,,,,6718fc8e87940911f7093cfd,mexican,13 or older,"no, only English or Spanish",no,2025-07-23_22h20.43.412,empathy_intonation_perc_control,2024.2.4,MacIntel,62.5,6718fc8e87940911f7093cfd,68817205a84113384fffdfe3,68819824c078969b1c050068,,,,,,,,,,,,,,,,,,,,,,,,,,,6,,,,,,,,,,,,,,,,,,,,,,,,,,,,,,,,,,,,,,,,,,,,595.4917,600.523,slightly agree,0,5,5,5,1,I really enjoy caring for other people.,1,0,1,0,,
,,,,,,,,,6718fc8e87940911f7093cfd,mexican,13 or older,"no, only English or Spanish",no,2025-07-23_22h20.43.412,empathy_intonation_perc_control,2024.2.4,MacIntel,62.5,6718fc8e87940911f7093cfd,68817205a84113384fffdfe3,68819824c078969b1c050068,,,,,,,,,,,,,,,,,,,,,,,,,,,7,,,,,,,,,,,,,,,,,,,,,,,,,,,,,,,,,,,,,,,,,,,,600.5253,604.6067,slightly agree,0,6,6,6,1,I try to solve my own problems rather than discussing them with others.,0,1,0,0,,
,,,,,,,,,6718fc8e87940911f7093cfd,mexican,13 or older,"no, only English or Spanish",no,2025-07-23_22h20.43.412,empathy_intonation_perc_control,2024.2.4,MacIntel,62.5,6718fc8e87940911f7093cfd,68817205a84113384fffdfe3,68819824c078969b1c050068,,,,,,,,,,,,,,,,,,,,,,,,,,,8,,,,,,,,,,,,,,,,,,,,,,,,,,,,,,,,,,,,,,,,,,,,604.6087,608.1904,slightly disagree,0,7,7,7,1,I find it hard to know what to do in a social situation.,1,0,0,1,,
,,,,,,,,,6718fc8e87940911f7093cfd,mexican,13 or older,"no, only English or Spanish",no,2025-07-23_22h20.43.412,empathy_intonation_perc_control,2024.2.4,MacIntel,62.5,6718fc8e87940911f7093cfd,68817205a84113384fffdfe3,68819824c078969b1c050068,,,,,,,,,,,,,,,,,,,,,,,,,,,9,,,,,,,,,,,,,,,,,,,,,,,,,,,,,,,,,,,,,,,,,,,,608.1924,612.9575,slightly disagree,0,8,8,8,1,I am at my best first thing in the morning.,0,1,0,0,,
,,,,,,,,,6718fc8e87940911f7093cfd,mexican,13 or older,"no, only English or Spanish",no,2025-07-23_22h20.43.412,empathy_intonation_perc_control,2024.2.4,MacIntel,62.5,6718fc8e87940911f7093cfd,68817205a84113384fffdfe3,68819824c078969b1c050068,,,,,,,,,,,,,,,,,,,,,,,,,,,10,,,,,,,,,,,,,,,,,,,,,,,,,,,,,,,,,,,,,,,,,,,,612.9607,621.7245,slightly agree,0,9,9,9,1,People often tell me that I went too far in driving my point home in a discussion.,1,0,0,1,,
,,,,,,,,,6718fc8e87940911f7093cfd,mexican,13 or older,"no, only English or Spanish",no,2025-07-23_22h20.43.412,empathy_intonation_perc_control,2024.2.4,MacIntel,62.5,6718fc8e87940911f7093cfd,68817205a84113384fffdfe3,68819824c078969b1c050068,,,,,,,,,,,,,,,,,,,,,,,,,,,11,,,,,,,,,,,,,,,,,,,,,,,,,,,,,,,,,,,,,,,,,,,,621.7265,625.5918,slightly disagree,0,10,10,10,1,It doesn't bother me too much if I am late meeting a friend.,1,0,0,1,,
,,,,,,,,,6718fc8e87940911f7093cfd,mexican,13 or older,"no, only English or Spanish",no,2025-07-23_22h20.43.412,empathy_intonation_perc_control,2024.2.4,MacIntel,62.5,6718fc8e87940911f7093cfd,68817205a84113384fffdfe3,68819824c078969b1c050068,,,,,,,,,,,,,,,,,,,,,,,,,,,12,,,,,,,,,,,,,,,,,,,,,,,,,,,,,,,,,,,,,,,,,,,,625.5942,630.7254,slightly disagree,0,11,11,11,1,"Friendships and relationships are just too difficult, so I tend not to 
  bother with them.",1,0,0,1,,
,,,,,,,,,6718fc8e87940911f7093cfd,mexican,13 or older,"no, only English or Spanish",no,2025-07-23_22h20.43.412,empathy_intonation_perc_control,2024.2.4,MacIntel,62.5,6718fc8e87940911f7093cfd,68817205a84113384fffdfe3,68819824c078969b1c050068,,,,,,,,,,,,,,,,,,,,,,,,,,,13,,,,,,,,,,,,,,,,,,,,,,,,,,,,,,,,,,,,,,,,,,,,630.7272,633.3751,slightly disagree,0,12,12,12,1,"I would never break a law, no matter how minor.",0,1,0,0,,
,,,,,,,,,6718fc8e87940911f7093cfd,mexican,13 or older,"no, only English or Spanish",no,2025-07-23_22h20.43.412,empathy_intonation_perc_control,2024.2.4,MacIntel,62.5,6718fc8e87940911f7093cfd,68817205a84113384fffdfe3,68819824c078969b1c050068,,,,,,,,,,,,,,,,,,,,,,,,,,,14,,,,,,,,,,,,,,,,,,,,,,,,,,,,,,,,,,,,,,,,,,,,633.3768,639.7254,slightly disagree,0,13,13,13,1,I often find it difficult to judge if something is rude or polite.,1,0,0,1,,
,,,,,,,,,6718fc8e87940911f7093cfd,mexican,13 or older,"no, only English or Spanish",no,2025-07-23_22h20.43.412,empathy_intonation_perc_control,2024.2.4,MacIntel,62.5,6718fc8e87940911f7093cfd,68817205a84113384fffdfe3,68819824c078969b1c050068,,,,,,,,,,,,,,,,,,,,,,,,,,,15,,,,,,,,,,,,,,,,,,,,,,,,,,,,,,,,,,,,,,,,,,,,639.7278,647.1429,strongly disagree,0,14,14,14,1,"In a conversation, I tend to focus on my own thoughts rather than on what 
  my listener might be thinking.",1,0,0,1,,
,,,,,,,,,6718fc8e87940911f7093cfd,mexican,13 or older,"no, only English or Spanish",no,2025-07-23_22h20.43.412,empathy_intonation_perc_control,2024.2.4,MacIntel,62.5,6718fc8e87940911f7093cfd,68817205a84113384fffdfe3,68819824c078969b1c050068,,,,,,,,,,,,,,,,,,,,,,,,,,,16,,,,,,,,,,,,,,,,,,,,,,,,,,,,,,,,,,,,,,,,,,,,647.1446,653.7427,slightly agree,0,15,15,15,1,I prefer practical jokes to verbal humor.,0,1,0,0,,
,,,,,,,,,6718fc8e87940911f7093cfd,mexican,13 or older,"no, only English or Spanish",no,2025-07-23_22h20.43.412,empathy_intonation_perc_control,2024.2.4,MacIntel,62.5,6718fc8e87940911f7093cfd,68817205a84113384fffdfe3,68819824c078969b1c050068,,,,,,,,,,,,,,,,,,,,,,,,,,,17,,,,,,,,,,,,,,,,,,,,,,,,,,,,,,,,,,,,,,,,,,,,653.7448,655.7939,slightly agree,0,16,16,16,1,I live life for today rather than the future.,0,1,0,0,,
,,,,,,,,,6718fc8e87940911f7093cfd,mexican,13 or older,"no, only English or Spanish",no,2025-07-23_22h20.43.412,empathy_intonation_perc_control,2024.2.4,MacIntel,62.5,6718fc8e87940911f7093cfd,68817205a84113384fffdfe3,68819824c078969b1c050068,,,,,,,,,,,,,,,,,,,,,,,,,,,18,,,,,,,,,,,,,,,,,,,,,,,,,,,,,,,,,,,,,,,,,,,,655.796,660.3274,slightly disagree,0,17,17,17,1,"When I was a child, I enjoyed cutting up worms to see what would happen.",1,0,0,1,,
,,,,,,,,,6718fc8e87940911f7093cfd,mexican,13 or older,"no, only English or Spanish",no,2025-07-23_22h20.43.412,empathy_intonation_perc_control,2024.2.4,MacIntel,62.5,6718fc8e87940911f7093cfd,68817205a84113384fffdfe3,68819824c078969b1c050068,,,,,,,,,,,,,,,,,,,,,,,,,,,19,,,,,,,,,,,,,,,,,,,,,,,,,,,,,,,,,,,,,,,,,,,,660.3294,669.844,slightly agree,0,18,18,18,1,I can pick up quickly if someone says one thing but means another.,1,0,1,0,,
,,,,,,,,,6718fc8e87940911f7093cfd,mexican,13 or older,"no, only English or Spanish",no,2025-07-23_22h20.43.412,empathy_intonation_perc_control,2024.2.4,MacIntel,62.5,6718fc8e87940911f7093cfd,68817205a84113384fffdfe3,68819824c078969b1c050068,,,,,,,,,,,,,,,,,,,,,,,,,,,20,,,,,,,,,,,,,,,,,,,,,,,,,,,,,,,,,,,,,,,,,,,,669.8457,675.9951,slightly disagree,0,19,19,19,1,I tend to have very strong opinions about morality.,0,1,0,0,,
,,,,,,,,,6718fc8e87940911f7093cfd,mexican,13 or older,"no, only English or Spanish",no,2025-07-23_22h20.43.412,empathy_intonation_perc_control,2024.2.4,MacIntel,62.5,6718fc8e87940911f7093cfd,68817205a84113384fffdfe3,68819824c078969b1c050068,,,,,,,,,,,,,,,,,,,,,,,,,,,21,,,,,,,,,,,,,,,,,,,,,,,,,,,,,,,,,,,,,,,,,,,,675.9972,681.579,slightly disagree,0,20,20,20,1,It is hard for me to see why some things upset people so much.,1,0,0,1,,
,,,,,,,,,6718fc8e87940911f7093cfd,mexican,13 or older,"no, only English or Spanish",no,2025-07-23_22h20.43.412,empathy_intonation_perc_control,2024.2.4,MacIntel,62.5,6718fc8e87940911f7093cfd,68817205a84113384fffdfe3,68819824c078969b1c050068,,,,,,,,,,,,,,,,,,,,,,,,,,,22,,,,,,,,,,,,,,,,,,,,,,,,,,,,,,,,,,,,,,,,,,,,681.5809,684.9282,strongly agree,0,21,21,21,1,I find it easy to put myself in somebody else's shoes.,1,0,1,0,,
,,,,,,,,,6718fc8e87940911f7093cfd,mexican,13 or older,"no, only English or Spanish",no,2025-07-23_22h20.43.412,empathy_intonation_perc_control,2024.2.4,MacIntel,62.5,6718fc8e87940911f7093cfd,68817205a84113384fffdfe3,68819824c078969b1c050068,,,,,,,,,,,,,,,,,,,,,,,,,,,23,,,,,,,,,,,,,,,,,,,,,,,,,,,,,,,,,,,,,,,,,,,,684.9303,690.0295,slightly agree,0,22,22,22,1,I think that good manners are the most important thing a parent can teach their child.,0,1,0,0,,
,,,,,,,,,6718fc8e87940911f7093cfd,mexican,13 or older,"no, only English or Spanish",no,2025-07-23_22h20.43.412,empathy_intonation_perc_control,2024.2.4,MacIntel,62.5,6718fc8e87940911f7093cfd,68817205a84113384fffdfe3,68819824c078969b1c050068,,,,,,,,,,,,,,,,,,,,,,,,,,,24,,,,,,,,,,,,,,,,,,,,,,,,,,,,,,,,,,,,,,,,,,,,690.0314,693.8797,slightly agree,0,23,23,23,1,I like to do things on the spur of the moment.,0,1,0,0,,
,,,,,,,,,6718fc8e87940911f7093cfd,mexican,13 or older,"no, only English or Spanish",no,2025-07-23_22h20.43.412,empathy_intonation_perc_control,2024.2.4,MacIntel,62.5,6718fc8e87940911f7093cfd,68817205a84113384fffdfe3,68819824c078969b1c050068,,,,,,,,,,,,,,,,,,,,,,,,,,,25,,,,,,,,,,,,,,,,,,,,,,,,,,,,,,,,,,,,,,,,,,,,693.8816,696.0457,slightly agree,0,24,24,24,1,I am good at predicting how someone will feel.,1,0,1,0,,
,,,,,,,,,6718fc8e87940911f7093cfd,mexican,13 or older,"no, only English or Spanish",no,2025-07-23_22h20.43.412,empathy_intonation_perc_control,2024.2.4,MacIntel,62.5,6718fc8e87940911f7093cfd,68817205a84113384fffdfe3,68819824c078969b1c050068,,,,,,,,,,,,,,,,,,,,,,,,,,,26,,,,,,,,,,,,,,,,,,,,,,,,,,,,,,,,,,,,,,,,,,,,696.0477,698.4128,slightly agree,0,25,25,25,1,I am quick to spot when someone in a group is feeling awkward or uncomfortable.,1,0,1,0,,
,,,,,,,,,6718fc8e87940911f7093cfd,mexican,13 or older,"no, only English or Spanish",no,2025-07-23_22h20.43.412,empathy_intonation_perc_control,2024.2.4,MacIntel,62.5,6718fc8e87940911f7093cfd,68817205a84113384fffdfe3,68819824c078969b1c050068,,,,,,,,,,,,,,,,,,,,,,,,,,,27,,,,,,,,,,,,,,,,,,,,,,,,,,,,,,,,,,,,,,,,,,,,698.4148,703.4133,slightly disagree,0,26,26,26,1,"If I say something that someone else is offended by, I think that that's their problem, not mine.",1,0,0,1,,
