instructions_2afc.started,instructions_2afc.stopped,instructions_2afc_loop.thisRepN,instructions_2afc_loop.thisTrialN,instructions_2afc_loop.thisN,instructions_2afc_loop.thisIndex,instructions_2afc_loop.ran,instructions_text,continue_text,participant_id,"What variety of Spanish are you most familiar with? (e.g., Peruvian, Spanish, Mexican)",At what age did you begin learning Spanish?,Are you proficient in any languages other than English/Spanish?,"Are you familiar with Caribbean (e.g., Caribbean, Puerto Rican) or Galician Spanish?",date,expName,psychopyVersion,OS,frameRate,id,study_id,session,practice_2afc.started,practice_2afc.stopped,key_resp_2afc_practice.keys,key_resp_2afc_practice.corr,key_resp_2afc_practice.rt,key_resp_2afc_practice.duration,trials_2afc_practice_loop.thisRepN,trials_2afc_practice_loop.thisTrialN,trials_2afc_practice_loop.thisN,trials_2afc_practice_loop.thisIndex,trials_2afc_practice_loop.ran,path,correct_response,check_2afc.started,check_2afc.stopped,trial_2afc.started,trial_2afc.stopped,key_resp_2afc_trial.keys,key_resp_2afc_trial.corr,key_resp_2afc_trial.rt,key_resp_2afc_trial.duration,trials_2afc_loop.thisRepN,trials_2afc_loop.thisTrialN,trials_2afc_loop.thisN,trials_2afc_loop.thisIndex,trials_2afc_loop.ran,item_num,target,variety,instructions_lextale.started,instructions_lextale.stopped,instructions_lextale_loop.thisRepN,instructions_lextale_loop.thisTrialN,instructions_lextale_loop.thisN,instructions_lextale_loop.thisIndex,instructions_lextale_loop.ran,practice_lextale.started,practice_lextale.stopped,key_resp_lextale_practice.keys,key_resp_lextale_practice.corr,key_resp_lextale_practice.rt,key_resp_lextale_practice.duration,practice_feedback_lextale.started,practice_feedback_lextale.stopped,trials_lextale_practice_loop.thisRepN,trials_lextale_practice_loop.thisTrialN,trials_lextale_practice_loop.thisN,trials_lextale_practice_loop.thisIndex,trials_lextale_practice_loop.ran,stim,word,prac_button_real,prac_button_false,check_lextale.started,check_lextale.stopped,trial_lextale.started,trial_lextale.stopped,key_resp_lextale_trial.keys,key_resp_lextale_trial.corr,key_resp_lextale_trial.rt,key_resp_lextale_trial.duration,trials_lextale_loop.thisRepN,trials_lextale_loop.thisTrialN,trials_lextale_loop.thisN,trials_lextale_loop.thisIndex,trials_lextale_loop.ran,button_real,button_false,instructions_eq.started,instructions_eq.stopped,trial_eq.started,trial_eq.stopped,slider_eq_trial.response,trials_eq_loop.thisRepN,trials_eq_loop.thisTrialN,trials_eq_loop.thisN,trials_eq_loop.thisIndex,trials_eq_loop.ran,item,is_test_item,is_distractor,is_agree_score,is_disagree_score,end_exp.started,end_exp.stopped
0.0171,7.0128,0,0,0,0,1,"In the following task you are going to hear a series of utterances. 

  You will decide if the utterances sound like questions or not using your keyboard.", (press the spacebar to continue),671ad1c838354923130def37,spanish,13 or older,"no, only English or Spanish",no,2025-08-12_16h54.27.029,empathy_intonation_perc_control,2024.2.4,MacIntel,60.0024001,671ad1c838354923130def37,68817205a84113384fffdfe3,689ba9d5596455e7510a0676,,,,,,,,,,,,,,,,,,,,,,,,,,,,,,,,,,,,,,,,,,,,,,,,,,,,,,,,,,,,,,,,,,,,,,,,,,,,,,,,,,,,,
7.0142,15.6784,0,1,1,1,1,"If you believe the utterance is a question, type '1' (for 'yes') and if you do not 
  believe it is a question type '0' (for 'no').

  Let's practice a bit...", (press the spacebar to continue),671ad1c838354923130def37,spanish,13 or older,"no, only English or Spanish",no,2025-08-12_16h54.27.029,empathy_intonation_perc_control,2024.2.4,MacIntel,60.0024001,671ad1c838354923130def37,68817205a84113384fffdfe3,689ba9d5596455e7510a0676,,,,,,,,,,,,,,,,,,,,,,,,,,,,,,,,,,,,,,,,,,,,,,,,,,,,,,,,,,,,,,,,,,,,,,,,,,,,,,,,,,,,,
,,,,,,,,,671ad1c838354923130def37,spanish,13 or older,"no, only English or Spanish",no,2025-08-12_16h54.27.029,empathy_intonation_perc_control,2024.2.4,MacIntel,60.0024001,671ad1c838354923130def37,68817205a84113384fffdfe3,689ba9d5596455e7510a0676,15.6878,21.2473,1,1,5.0399,,0,0,0,2,1,./stim/wavs/chilean_question_filler_Mi-padre-cantaba-bien.wav,1,,,,,,,,,,,,,,,,,,,,,,,,,,,,,,,,,,,,,,,,,,,,,,,,,,,,,,,,,,,,,,,,,,,,,,,,
,,,,,,,,,671ad1c838354923130def37,spanish,13 or older,"no, only English or Spanish",no,2025-08-12_16h54.27.029,empathy_intonation_perc_control,2024.2.4,MacIntel,60.0024001,671ad1c838354923130def37,68817205a84113384fffdfe3,689ba9d5596455e7510a0676,21.2479,24.2444,1,1,2.4763,,0,1,1,3,1,./stim/wavs/mexican_question_filler_Felipe-no-tiene-contrasena.wav,1,,,,,,,,,,,,,,,,,,,,,,,,,,,,,,,,,,,,,,,,,,,,,,,,,,,,,,,,,,,,,,,,,,,,,,,,
,,,,,,,,,671ad1c838354923130def37,spanish,13 or older,"no, only English or Spanish",no,2025-08-12_16h54.27.029,empathy_intonation_perc_control,2024.2.4,MacIntel,60.0024001,671ad1c838354923130def37,68817205a84113384fffdfe3,689ba9d5596455e7510a0676,24.2449,26.6972,0,1,1.9335,,0,2,2,4,1,./stim/wavs/cuban_statement_filler_Cocinabas-por-la-noche.wav,0,,,,,,,,,,,,,,,,,,,,,,,,,,,,,,,,,,,,,,,,,,,,,,,,,,,,,,,,,,,,,,,,,,,,,,,,
,,,,,,,,,671ad1c838354923130def37,spanish,13 or older,"no, only English or Spanish",no,2025-08-12_16h54.27.029,empathy_intonation_perc_control,2024.2.4,MacIntel,60.0024001,671ad1c838354923130def37,68817205a84113384fffdfe3,689ba9d5596455e7510a0676,26.6978,29.4816,1,1,2.2482,,0,3,3,0,1,./stim/wavs/castilian_question_filler_Mi-esposo-conoce-al-chico.wav,1,,,,,,,,,,,,,,,,,,,,,,,,,,,,,,,,,,,,,,,,,,,,,,,,,,,,,,,,,,,,,,,,,,,,,,,,
,,,,,,,,,671ad1c838354923130def37,spanish,13 or older,"no, only English or Spanish",no,2025-08-12_16h54.27.029,empathy_intonation_perc_control,2024.2.4,MacIntel,60.0024001,671ad1c838354923130def37,68817205a84113384fffdfe3,689ba9d5596455e7510a0676,29.4821,32.3294,0,1,2.3189,,0,4,4,6,1,./stim/wavs/peruvian_statement_filler_El-nino-habla-con-su-madre.wav,0,,,,,,,,,,,,,,,,,,,,,,,,,,,,,,,,,,,,,,,,,,,,,,,,,,,,,,,,,,,,,,,,,,,,,,,,
,,,,,,,,,671ad1c838354923130def37,spanish,13 or older,"no, only English or Spanish",no,2025-08-12_16h54.27.029,empathy_intonation_perc_control,2024.2.4,MacIntel,60.0024001,671ad1c838354923130def37,68817205a84113384fffdfe3,689ba9d5596455e7510a0676,32.3299,34.8107,0,1,1.9514,,0,5,5,7,1,./stim/wavs/puertorican_statement_filler_La-nina-pinta-con-su-amiga.wav,0,,,,,,,,,,,,,,,,,,,,,,,,,,,,,,,,,,,,,,,,,,,,,,,,,,,,,,,,,,,,,,,,,,,,,,,,
,,,,,,,,,671ad1c838354923130def37,spanish,13 or older,"no, only English or Spanish",no,2025-08-12_16h54.27.029,empathy_intonation_perc_control,2024.2.4,MacIntel,60.0024001,671ad1c838354923130def37,68817205a84113384fffdfe3,689ba9d5596455e7510a0676,34.8112,36.9803,0,1,1.6506,,0,6,6,5,1,./stim/wavs/andalusian_statement_filler_Alberto-nunca-se-afeita.wav,0,,,,,,,,,,,,,,,,,,,,,,,,,,,,,,,,,,,,,,,,,,,,,,,,,,,,,,,,,,,,,,,,,,,,,,,,
,,,,,,,,,671ad1c838354923130def37,spanish,13 or older,"no, only English or Spanish",no,2025-08-12_16h54.27.029,empathy_intonation_perc_control,2024.2.4,MacIntel,60.0024001,671ad1c838354923130def37,68817205a84113384fffdfe3,689ba9d5596455e7510a0676,36.9807,40.4125,1,1,2.8993,,0,7,7,1,1,./stim/wavs/argentine_question_filler_Mi-vecino-habla-mucho.wav,1,,,,,,,,,,,,,,,,,,,,,,,,,,,,,,,,,,,,,,,,,,,,,,,,,,,,,,,,,,,,,,,,,,,,,,,,
,,,,,,,,,671ad1c838354923130def37,spanish,13 or older,"no, only English or Spanish",no,2025-08-12_16h54.27.029,empathy_intonation_perc_control,2024.2.4,MacIntel,60.0024001,671ad1c838354923130def37,68817205a84113384fffdfe3,689ba9d5596455e7510a0676,,,,,,,,,,,,,,40.4132,47.3776,,,,,,,,,,,,,,,,,,,,,,,,,,,,,,,,,,,,,,,,,,,,,,,,,,,,,,,,,,,,,,,,,,,,,,
,,,,,,,,,671ad1c838354923130def37,spanish,13 or older,"no, only English or Spanish",no,2025-08-12_16h54.27.029,empathy_intonation_perc_control,2024.2.4,MacIntel,60.0024001,671ad1c838354923130def37,68817205a84113384fffdfe3,689ba9d5596455e7510a0676,,,,,,,,,,,,./stim/wavs/puertorican_match_declarative-broad-focus_Ana-lleva-el-abrigo.wav,0,,,47.3861,50.5619,0,1,2.6499,,0,0,0,62,1,63,0,puertorican,,,,,,,,,,,,,,,,,,,,,,,,,,,,,,,,,,,,,,,,,,,,,,,,,,,,,,,,
,,,,,,,,,671ad1c838354923130def37,spanish,13 or older,"no, only English or Spanish",no,2025-08-12_16h54.27.029,empathy_intonation_perc_control,2024.2.4,MacIntel,60.0024001,671ad1c838354923130def37,68817205a84113384fffdfe3,689ba9d5596455e7510a0676,,,,,,,,,,,,./stim/wavs/cuban_match_interrogative-total-yn_Maria-bebe-el-vino.wav,1,,,50.5623,53.7613,0,0,2.6729,,0,1,1,9,1,10,1,cuban,,,,,,,,,,,,,,,,,,,,,,,,,,,,,,,,,,,,,,,,,,,,,,,,,,,,,,,,
,,,,,,,,,671ad1c838354923130def37,spanish,13 or older,"no, only English or Spanish",no,2025-08-12_16h54.27.029,empathy_intonation_perc_control,2024.2.4,MacIntel,60.0024001,671ad1c838354923130def37,68817205a84113384fffdfe3,689ba9d5596455e7510a0676,,,,,,,,,,,,./stim/wavs/castilian_mismatch_declarative-broad-focus_Mi-tia-odia-la-lluvia.wav,0,,,53.7618,56.212,0,1,1.9329,,0,2,2,72,1,73,0,castilian,,,,,,,,,,,,,,,,,,,,,,,,,,,,,,,,,,,,,,,,,,,,,,,,,,,,,,,,
,,,,,,,,,671ad1c838354923130def37,spanish,13 or older,"no, only English or Spanish",no,2025-08-12_16h54.27.029,empathy_intonation_perc_control,2024.2.4,MacIntel,60.0024001,671ad1c838354923130def37,68817205a84113384fffdfe3,689ba9d5596455e7510a0676,,,,,,,,,,,,./stim/wavs/puertorican_match_declarative-broad-focus_Maria-bebe-el-vino.wav,0,,,56.2123,58.562,1,0,1.8257,,0,3,3,67,1,68,0,puertorican,,,,,,,,,,,,,,,,,,,,,,,,,,,,,,,,,,,,,,,,,,,,,,,,,,,,,,,,
,,,,,,,,,671ad1c838354923130def37,spanish,13 or older,"no, only English or Spanish",no,2025-08-12_16h54.27.029,empathy_intonation_perc_control,2024.2.4,MacIntel,60.0024001,671ad1c838354923130def37,68817205a84113384fffdfe3,689ba9d5596455e7510a0676,,,,,,,,,,,,./stim/wavs/mexican_match_interrogative-total-yn_Mariano-habla-del-tiempo.wav,1,,,58.5623,60.6598,1,1,1.567,,0,4,4,16,1,17,0,mexican,,,,,,,,,,,,,,,,,,,,,,,,,,,,,,,,,,,,,,,,,,,,,,,,,,,,,,,,
,,,,,,,,,671ad1c838354923130def37,spanish,13 or older,"no, only English or Spanish",no,2025-08-12_16h54.27.029,empathy_intonation_perc_control,2024.2.4,MacIntel,60.0024001,671ad1c838354923130def37,68817205a84113384fffdfe3,689ba9d5596455e7510a0676,,,,,,,,,,,,./stim/wavs/castilian_mismatch_interrogative-total-yn_La-maestra-vive-en-Paris.wav,1,,,60.6602,62.8932,1,1,1.7177,,0,5,5,24,1,25,0,castilian,,,,,,,,,,,,,,,,,,,,,,,,,,,,,,,,,,,,,,,,,,,,,,,,,,,,,,,,
,,,,,,,,,671ad1c838354923130def37,spanish,13 or older,"no, only English or Spanish",no,2025-08-12_16h54.27.029,empathy_intonation_perc_control,2024.2.4,MacIntel,60.0024001,671ad1c838354923130def37,68817205a84113384fffdfe3,689ba9d5596455e7510a0676,,,,,,,,,,,,./stim/wavs/cuban_match_declarative-broad-focus_Daniel-iba-a-Bolivia.wav,0,,,62.8936,66.061,0,1,2.6318,,0,6,6,51,1,52,0,cuban,,,,,,,,,,,,,,,,,,,,,,,,,,,,,,,,,,,,,,,,,,,,,,,,,,,,,,,,
,,,,,,,,,671ad1c838354923130def37,spanish,13 or older,"no, only English or Spanish",no,2025-08-12_16h54.27.029,empathy_intonation_perc_control,2024.2.4,MacIntel,60.0024001,671ad1c838354923130def37,68817205a84113384fffdfe3,689ba9d5596455e7510a0676,,,,,,,,,,,,./stim/wavs/cuban_match_interrogative-total-yn_Marta-abre-el-regalo.wav,1,,,66.0614,68.4443,0,0,1.8546,,0,7,7,11,1,12,1,cuban,,,,,,,,,,,,,,,,,,,,,,,,,,,,,,,,,,,,,,,,,,,,,,,,,,,,,,,,
,,,,,,,,,671ad1c838354923130def37,spanish,13 or older,"no, only English or Spanish",no,2025-08-12_16h54.27.029,empathy_intonation_perc_control,2024.2.4,MacIntel,60.0024001,671ad1c838354923130def37,68817205a84113384fffdfe3,689ba9d5596455e7510a0676,,,,,,,,,,,,./stim/wavs/puertorican_mismatch_declarative-broad-focus_La-maestra-vive-en-Paris.wav,0,,,68.4449,70.8605,0,1,1.9057,,0,8,8,86,1,87,0,puertorican,,,,,,,,,,,,,,,,,,,,,,,,,,,,,,,,,,,,,,,,,,,,,,,,,,,,,,,,
,,,,,,,,,671ad1c838354923130def37,spanish,13 or older,"no, only English or Spanish",no,2025-08-12_16h54.27.029,empathy_intonation_perc_control,2024.2.4,MacIntel,60.0024001,671ad1c838354923130def37,68817205a84113384fffdfe3,689ba9d5596455e7510a0676,,,,,,,,,,,,./stim/wavs/mexican_mismatch_interrogative-total-yn_Mi-novio-viene-del-lago.wav,1,,,70.8609,73.243,0,0,1.8587,,0,9,9,37,1,38,0,mexican,,,,,,,,,,,,,,,,,,,,,,,,,,,,,,,,,,,,,,,,,,,,,,,,,,,,,,,,
,,,,,,,,,671ad1c838354923130def37,spanish,13 or older,"no, only English or Spanish",no,2025-08-12_16h54.27.029,empathy_intonation_perc_control,2024.2.4,MacIntel,60.0024001,671ad1c838354923130def37,68817205a84113384fffdfe3,689ba9d5596455e7510a0676,,,,,,,,,,,,./stim/wavs/cuban_mismatch_declarative-broad-focus_Mi-tia-odia-la-lluvia.wav,0,,,73.2433,75.3796,0,1,1.6165,,0,10,10,77,1,78,0,cuban,,,,,,,,,,,,,,,,,,,,,,,,,,,,,,,,,,,,,,,,,,,,,,,,,,,,,,,,
,,,,,,,,,671ad1c838354923130def37,spanish,13 or older,"no, only English or Spanish",no,2025-08-12_16h54.27.029,empathy_intonation_perc_control,2024.2.4,MacIntel,60.0024001,671ad1c838354923130def37,68817205a84113384fffdfe3,689ba9d5596455e7510a0676,,,,,,,,,,,,./stim/wavs/cuban_match_interrogative-total-yn_Manuela-vende-el-carro.wav,1,,,75.3799,77.4947,0,0,1.5832,,0,11,11,8,1,9,1,cuban,,,,,,,,,,,,,,,,,,,,,,,,,,,,,,,,,,,,,,,,,,,,,,,,,,,,,,,,
,,,,,,,,,671ad1c838354923130def37,spanish,13 or older,"no, only English or Spanish",no,2025-08-12_16h54.27.029,empathy_intonation_perc_control,2024.2.4,MacIntel,60.0024001,671ad1c838354923130def37,68817205a84113384fffdfe3,689ba9d5596455e7510a0676,,,,,,,,,,,,./stim/wavs/puertorican_match_declarative-broad-focus_David-leia-el-libro.wav,0,,,77.4952,79.41,0,1,1.3837,,0,12,12,64,1,65,0,puertorican,,,,,,,,,,,,,,,,,,,,,,,,,,,,,,,,,,,,,,,,,,,,,,,,,,,,,,,,
,,,,,,,,,671ad1c838354923130def37,spanish,13 or older,"no, only English or Spanish",no,2025-08-12_16h54.27.029,empathy_intonation_perc_control,2024.2.4,MacIntel,60.0024001,671ad1c838354923130def37,68817205a84113384fffdfe3,689ba9d5596455e7510a0676,,,,,,,,,,,,./stim/wavs/puertorican_match_declarative-broad-focus_Daniel-iba-a-Bolivia.wav,0,,,79.4103,81.8115,0,1,1.8607,,0,13,13,63,1,64,0,puertorican,,,,,,,,,,,,,,,,,,,,,,,,,,,,,,,,,,,,,,,,,,,,,,,,,,,,,,,,
,,,,,,,,,671ad1c838354923130def37,spanish,13 or older,"no, only English or Spanish",no,2025-08-12_16h54.27.029,empathy_intonation_perc_control,2024.2.4,MacIntel,60.0024001,671ad1c838354923130def37,68817205a84113384fffdfe3,689ba9d5596455e7510a0676,,,,,,,,,,,,./stim/wavs/cuban_match_interrogative-total-yn_Daniel-iba-a-Bolivia.wav,1,,,81.8119,84.1775,0,0,1.8397,,0,14,14,7,1,8,1,cuban,,,,,,,,,,,,,,,,,,,,,,,,,,,,,,,,,,,,,,,,,,,,,,,,,,,,,,,,
,,,,,,,,,671ad1c838354923130def37,spanish,13 or older,"no, only English or Spanish",no,2025-08-12_16h54.27.029,empathy_intonation_perc_control,2024.2.4,MacIntel,60.0024001,671ad1c838354923130def37,68817205a84113384fffdfe3,689ba9d5596455e7510a0676,,,,,,,,,,,,./stim/wavs/cuban_mismatch_declarative-broad-focus_Mi-novio-viene-del-lago.wav,0,,,84.178,86.329,0,1,1.6107,,0,15,15,76,1,77,0,cuban,,,,,,,,,,,,,,,,,,,,,,,,,,,,,,,,,,,,,,,,,,,,,,,,,,,,,,,,
,,,,,,,,,671ad1c838354923130def37,spanish,13 or older,"no, only English or Spanish",no,2025-08-12_16h54.27.029,empathy_intonation_perc_control,2024.2.4,MacIntel,60.0024001,671ad1c838354923130def37,68817205a84113384fffdfe3,689ba9d5596455e7510a0676,,,,,,,,,,,,./stim/wavs/castilian_match_declarative-broad-focus_Maria-bebe-el-vino.wav,0,,,86.3293,88.3096,0,1,1.4719,,0,16,16,47,1,48,0,castilian,,,,,,,,,,,,,,,,,,,,,,,,,,,,,,,,,,,,,,,,,,,,,,,,,,,,,,,,
,,,,,,,,,671ad1c838354923130def37,spanish,13 or older,"no, only English or Spanish",no,2025-08-12_16h54.27.029,empathy_intonation_perc_control,2024.2.4,MacIntel,60.0024001,671ad1c838354923130def37,68817205a84113384fffdfe3,689ba9d5596455e7510a0676,,,,,,,,,,,,./stim/wavs/castilian_match_declarative-broad-focus_Manuela-vende-el-carro.wav,0,,,88.31,90.4766,0,1,1.6337,,0,17,17,46,1,47,0,castilian,,,,,,,,,,,,,,,,,,,,,,,,,,,,,,,,,,,,,,,,,,,,,,,,,,,,,,,,
,,,,,,,,,671ad1c838354923130def37,spanish,13 or older,"no, only English or Spanish",no,2025-08-12_16h54.27.029,empathy_intonation_perc_control,2024.2.4,MacIntel,60.0024001,671ad1c838354923130def37,68817205a84113384fffdfe3,689ba9d5596455e7510a0676,,,,,,,,,,,,./stim/wavs/puertorican_match_interrogative-total-yn_Emilio-ama-la-marcha.wav,1,,,90.477,94.193,0,0,3.1901,,0,18,18,21,1,22,1,puertorican,,,,,,,,,,,,,,,,,,,,,,,,,,,,,,,,,,,,,,,,,,,,,,,,,,,,,,,,
,,,,,,,,,671ad1c838354923130def37,spanish,13 or older,"no, only English or Spanish",no,2025-08-12_16h54.27.029,empathy_intonation_perc_control,2024.2.4,MacIntel,60.0024001,671ad1c838354923130def37,68817205a84113384fffdfe3,689ba9d5596455e7510a0676,,,,,,,,,,,,./stim/wavs/cuban_mismatch_interrogative-total-yn_Mi-novio-viene-del-lago.wav,1,,,94.1933,96.5103,0,0,1.7953,,0,19,19,32,1,33,1,cuban,,,,,,,,,,,,,,,,,,,,,,,,,,,,,,,,,,,,,,,,,,,,,,,,,,,,,,,,
,,,,,,,,,671ad1c838354923130def37,spanish,13 or older,"no, only English or Spanish",no,2025-08-12_16h54.27.029,empathy_intonation_perc_control,2024.2.4,MacIntel,60.0024001,671ad1c838354923130def37,68817205a84113384fffdfe3,689ba9d5596455e7510a0676,,,,,,,,,,,,./stim/wavs/cuban_match_declarative-broad-focus_Mariano-habla-del-tiempo.wav,0,,,96.5106,98.793,0,1,1.7447,,0,20,20,54,1,55,0,cuban,,,,,,,,,,,,,,,,,,,,,,,,,,,,,,,,,,,,,,,,,,,,,,,,,,,,,,,,
,,,,,,,,,671ad1c838354923130def37,spanish,13 or older,"no, only English or Spanish",no,2025-08-12_16h54.27.029,empathy_intonation_perc_control,2024.2.4,MacIntel,60.0024001,671ad1c838354923130def37,68817205a84113384fffdfe3,689ba9d5596455e7510a0676,,,,,,,,,,,,./stim/wavs/puertorican_mismatch_declarative-broad-focus_El-bebe-comia-muy-bien.wav,0,,,98.7934,100.8101,0,1,1.4998,,0,21,21,83,1,84,0,puertorican,,,,,,,,,,,,,,,,,,,,,,,,,,,,,,,,,,,,,,,,,,,,,,,,,,,,,,,,
,,,,,,,,,671ad1c838354923130def37,spanish,13 or older,"no, only English or Spanish",no,2025-08-12_16h54.27.029,empathy_intonation_perc_control,2024.2.4,MacIntel,60.0024001,671ad1c838354923130def37,68817205a84113384fffdfe3,689ba9d5596455e7510a0676,,,,,,,,,,,,./stim/wavs/mexican_mismatch_declarative-broad-focus_Mi-tia-odia-la-lluvia.wav,0,,,100.8105,102.8102,0,1,1.4672,,0,22,22,82,1,83,0,mexican,,,,,,,,,,,,,,,,,,,,,,,,,,,,,,,,,,,,,,,,,,,,,,,,,,,,,,,,
,,,,,,,,,671ad1c838354923130def37,spanish,13 or older,"no, only English or Spanish",no,2025-08-12_16h54.27.029,empathy_intonation_perc_control,2024.2.4,MacIntel,60.0024001,671ad1c838354923130def37,68817205a84113384fffdfe3,689ba9d5596455e7510a0676,,,,,,,,,,,,./stim/wavs/puertorican_match_declarative-broad-focus_Manuela-vende-el-carro.wav,0,,,102.8106,104.8592,0,1,1.5168,,0,23,23,66,1,67,0,puertorican,,,,,,,,,,,,,,,,,,,,,,,,,,,,,,,,,,,,,,,,,,,,,,,,,,,,,,,,
,,,,,,,,,671ad1c838354923130def37,spanish,13 or older,"no, only English or Spanish",no,2025-08-12_16h54.27.029,empathy_intonation_perc_control,2024.2.4,MacIntel,60.0024001,671ad1c838354923130def37,68817205a84113384fffdfe3,689ba9d5596455e7510a0676,,,,,,,,,,,,./stim/wavs/castilian_match_interrogative-total-yn_Maria-bebe-el-vino.wav,1,,,104.8595,107.3099,1,1,1.9266,,0,24,24,3,1,4,0,castilian,,,,,,,,,,,,,,,,,,,,,,,,,,,,,,,,,,,,,,,,,,,,,,,,,,,,,,,,
,,,,,,,,,671ad1c838354923130def37,spanish,13 or older,"no, only English or Spanish",no,2025-08-12_16h54.27.029,empathy_intonation_perc_control,2024.2.4,MacIntel,60.0024001,671ad1c838354923130def37,68817205a84113384fffdfe3,689ba9d5596455e7510a0676,,,,,,,,,,,,./stim/wavs/mexican_mismatch_interrogative-total-yn_El-nino-oye-el-rio.wav,1,,,107.3103,109.7099,1,1,1.8837,,0,25,25,35,1,36,0,mexican,,,,,,,,,,,,,,,,,,,,,,,,,,,,,,,,,,,,,,,,,,,,,,,,,,,,,,,,
,,,,,,,,,671ad1c838354923130def37,spanish,13 or older,"no, only English or Spanish",no,2025-08-12_16h54.27.029,empathy_intonation_perc_control,2024.2.4,MacIntel,60.0024001,671ad1c838354923130def37,68817205a84113384fffdfe3,689ba9d5596455e7510a0676,,,,,,,,,,,,./stim/wavs/castilian_mismatch_declarative-broad-focus_La-maestra-vive-en-Paris.wav,0,,,109.7103,112.2938,0,1,2.0716,,0,26,26,69,1,70,0,castilian,,,,,,,,,,,,,,,,,,,,,,,,,,,,,,,,,,,,,,,,,,,,,,,,,,,,,,,,
,,,,,,,,,671ad1c838354923130def37,spanish,13 or older,"no, only English or Spanish",no,2025-08-12_16h54.27.029,empathy_intonation_perc_control,2024.2.4,MacIntel,60.0024001,671ad1c838354923130def37,68817205a84113384fffdfe3,689ba9d5596455e7510a0676,,,,,,,,,,,,./stim/wavs/puertorican_mismatch_declarative-broad-focus_El-nino-oye-el-rio.wav,0,,,112.2942,114.3605,0,1,1.5394,,0,27,27,85,1,86,0,puertorican,,,,,,,,,,,,,,,,,,,,,,,,,,,,,,,,,,,,,,,,,,,,,,,,,,,,,,,,
,,,,,,,,,671ad1c838354923130def37,spanish,13 or older,"no, only English or Spanish",no,2025-08-12_16h54.27.029,empathy_intonation_perc_control,2024.2.4,MacIntel,60.0024001,671ad1c838354923130def37,68817205a84113384fffdfe3,689ba9d5596455e7510a0676,,,,,,,,,,,,./stim/wavs/mexican_match_interrogative-total-yn_Daniel-iba-a-Bolivia.wav,1,,,114.3609,116.3445,1,1,1.4616,,0,28,28,13,1,14,0,mexican,,,,,,,,,,,,,,,,,,,,,,,,,,,,,,,,,,,,,,,,,,,,,,,,,,,,,,,,
,,,,,,,,,671ad1c838354923130def37,spanish,13 or older,"no, only English or Spanish",no,2025-08-12_16h54.27.029,empathy_intonation_perc_control,2024.2.4,MacIntel,60.0024001,671ad1c838354923130def37,68817205a84113384fffdfe3,689ba9d5596455e7510a0676,,,,,,,,,,,,./stim/wavs/puertorican_mismatch_declarative-broad-focus_La-nina-lava-el-plato.wav,0,,,116.3448,118.6758,0,1,1.8072,,0,29,29,87,1,88,0,puertorican,,,,,,,,,,,,,,,,,,,,,,,,,,,,,,,,,,,,,,,,,,,,,,,,,,,,,,,,
,,,,,,,,,671ad1c838354923130def37,spanish,13 or older,"no, only English or Spanish",no,2025-08-12_16h54.27.029,empathy_intonation_perc_control,2024.2.4,MacIntel,60.0024001,671ad1c838354923130def37,68817205a84113384fffdfe3,689ba9d5596455e7510a0676,,,,,,,,,,,,./stim/wavs/puertorican_match_interrogative-total-yn_David-leia-el-libro.wav,1,,,118.6761,120.8265,1,1,1.6406,,0,30,30,20,1,21,1,puertorican,,,,,,,,,,,,,,,,,,,,,,,,,,,,,,,,,,,,,,,,,,,,,,,,,,,,,,,,
,,,,,,,,,671ad1c838354923130def37,spanish,13 or older,"no, only English or Spanish",no,2025-08-12_16h54.27.029,empathy_intonation_perc_control,2024.2.4,MacIntel,60.0024001,671ad1c838354923130def37,68817205a84113384fffdfe3,689ba9d5596455e7510a0676,,,,,,,,,,,,./stim/wavs/castilian_mismatch_interrogative-total-yn_Mi-madre-come-la-fruta.wav,1,,,120.8269,123.0945,1,1,1.7335,,0,31,31,26,1,27,0,castilian,,,,,,,,,,,,,,,,,,,,,,,,,,,,,,,,,,,,,,,,,,,,,,,,,,,,,,,,
,,,,,,,,,671ad1c838354923130def37,spanish,13 or older,"no, only English or Spanish",no,2025-08-12_16h54.27.029,empathy_intonation_perc_control,2024.2.4,MacIntel,60.0024001,671ad1c838354923130def37,68817205a84113384fffdfe3,689ba9d5596455e7510a0676,,,,,,,,,,,,./stim/wavs/castilian_match_declarative-broad-focus_Marta-abre-el-regalo.wav,0,,,123.0949,125.5932,0,1,1.9659,,0,32,32,49,1,50,0,castilian,,,,,,,,,,,,,,,,,,,,,,,,,,,,,,,,,,,,,,,,,,,,,,,,,,,,,,,,
,,,,,,,,,671ad1c838354923130def37,spanish,13 or older,"no, only English or Spanish",no,2025-08-12_16h54.27.029,empathy_intonation_perc_control,2024.2.4,MacIntel,60.0024001,671ad1c838354923130def37,68817205a84113384fffdfe3,689ba9d5596455e7510a0676,,,,,,,,,,,,./stim/wavs/mexican_match_declarative-broad-focus_Marta-abre-el-regalo.wav,0,,,125.5937,127.9122,0,1,1.7837,,0,33,33,61,1,62,0,mexican,,,,,,,,,,,,,,,,,,,,,,,,,,,,,,,,,,,,,,,,,,,,,,,,,,,,,,,,
,,,,,,,,,671ad1c838354923130def37,spanish,13 or older,"no, only English or Spanish",no,2025-08-12_16h54.27.029,empathy_intonation_perc_control,2024.2.4,MacIntel,60.0024001,671ad1c838354923130def37,68817205a84113384fffdfe3,689ba9d5596455e7510a0676,,,,,,,,,,,,./stim/wavs/castilian_mismatch_declarative-broad-focus_Mi-novio-viene-del-lago.wav,0,,,127.9125,130.5431,0,1,2.1013,,0,34,34,71,1,72,0,castilian,,,,,,,,,,,,,,,,,,,,,,,,,,,,,,,,,,,,,,,,,,,,,,,,,,,,,,,,
,,,,,,,,,671ad1c838354923130def37,spanish,13 or older,"no, only English or Spanish",no,2025-08-12_16h54.27.029,empathy_intonation_perc_control,2024.2.4,MacIntel,60.0024001,671ad1c838354923130def37,68817205a84113384fffdfe3,689ba9d5596455e7510a0676,,,,,,,,,,,,./stim/wavs/castilian_match_interrogative-total-yn_Mariano-habla-del-tiempo.wav,1,,,130.5435,132.9448,1,1,1.8679,,0,35,35,4,1,5,0,castilian,,,,,,,,,,,,,,,,,,,,,,,,,,,,,,,,,,,,,,,,,,,,,,,,,,,,,,,,
,,,,,,,,,671ad1c838354923130def37,spanish,13 or older,"no, only English or Spanish",no,2025-08-12_16h54.27.029,empathy_intonation_perc_control,2024.2.4,MacIntel,60.0024001,671ad1c838354923130def37,68817205a84113384fffdfe3,689ba9d5596455e7510a0676,,,,,,,,,,,,./stim/wavs/castilian_match_declarative-broad-focus_David-leia-el-libro.wav,0,,,132.9452,135.7095,0,1,2.2335,,0,36,36,44,1,45,0,castilian,,,,,,,,,,,,,,,,,,,,,,,,,,,,,,,,,,,,,,,,,,,,,,,,,,,,,,,,
,,,,,,,,,671ad1c838354923130def37,spanish,13 or older,"no, only English or Spanish",no,2025-08-12_16h54.27.029,empathy_intonation_perc_control,2024.2.4,MacIntel,60.0024001,671ad1c838354923130def37,68817205a84113384fffdfe3,689ba9d5596455e7510a0676,,,,,,,,,,,,./stim/wavs/mexican_mismatch_declarative-broad-focus_El-bebe-comia-muy-bien.wav,0,,,135.7099,137.812,0,1,1.5648,,0,37,37,78,1,79,0,mexican,,,,,,,,,,,,,,,,,,,,,,,,,,,,,,,,,,,,,,,,,,,,,,,,,,,,,,,,
,,,,,,,,,671ad1c838354923130def37,spanish,13 or older,"no, only English or Spanish",no,2025-08-12_16h54.27.029,empathy_intonation_perc_control,2024.2.4,MacIntel,60.0024001,671ad1c838354923130def37,68817205a84113384fffdfe3,689ba9d5596455e7510a0676,,,,,,,,,,,,./stim/wavs/puertorican_mismatch_interrogative-total-yn_Mi-madre-come-la-fruta.wav,1,,,137.8123,139.8787,0,0,1.5257,,0,38,38,43,1,44,1,puertorican,,,,,,,,,,,,,,,,,,,,,,,,,,,,,,,,,,,,,,,,,,,,,,,,,,,,,,,,
,,,,,,,,,671ad1c838354923130def37,spanish,13 or older,"no, only English or Spanish",no,2025-08-12_16h54.27.029,empathy_intonation_perc_control,2024.2.4,MacIntel,60.0024001,671ad1c838354923130def37,68817205a84113384fffdfe3,689ba9d5596455e7510a0676,,,,,,,,,,,,./stim/wavs/puertorican_mismatch_interrogative-total-yn_El-hombre-mira-la-luna.wav,1,,,139.8793,141.8922,0,0,1.4826,,0,39,39,39,1,40,1,puertorican,,,,,,,,,,,,,,,,,,,,,,,,,,,,,,,,,,,,,,,,,,,,,,,,,,,,,,,,
,,,,,,,,,671ad1c838354923130def37,spanish,13 or older,"no, only English or Spanish",no,2025-08-12_16h54.27.029,empathy_intonation_perc_control,2024.2.4,MacIntel,60.0024001,671ad1c838354923130def37,68817205a84113384fffdfe3,689ba9d5596455e7510a0676,,,,,,,,,,,,./stim/wavs/castilian_match_declarative-broad-focus_Emilio-ama-la-marcha.wav,0,,,141.8926,144.043,0,1,1.6184,,0,40,40,45,1,46,0,castilian,,,,,,,,,,,,,,,,,,,,,,,,,,,,,,,,,,,,,,,,,,,,,,,,,,,,,,,,
,,,,,,,,,671ad1c838354923130def37,spanish,13 or older,"no, only English or Spanish",no,2025-08-12_16h54.27.029,empathy_intonation_perc_control,2024.2.4,MacIntel,60.0024001,671ad1c838354923130def37,68817205a84113384fffdfe3,689ba9d5596455e7510a0676,,,,,,,,,,,,./stim/wavs/mexican_mismatch_declarative-broad-focus_El-hombre-mira-la-luna.wav,0,,,144.0435,146.1426,0,1,1.5667,,0,41,41,79,1,80,0,mexican,,,,,,,,,,,,,,,,,,,,,,,,,,,,,,,,,,,,,,,,,,,,,,,,,,,,,,,,
,,,,,,,,,671ad1c838354923130def37,spanish,13 or older,"no, only English or Spanish",no,2025-08-12_16h54.27.029,empathy_intonation_perc_control,2024.2.4,MacIntel,60.0024001,671ad1c838354923130def37,68817205a84113384fffdfe3,689ba9d5596455e7510a0676,,,,,,,,,,,,./stim/wavs/mexican_match_declarative-broad-focus_Mariano-habla-del-tiempo.wav,0,,,146.143,148.3595,0,1,1.6959,,0,42,42,60,1,61,0,mexican,,,,,,,,,,,,,,,,,,,,,,,,,,,,,,,,,,,,,,,,,,,,,,,,,,,,,,,,
,,,,,,,,,671ad1c838354923130def37,spanish,13 or older,"no, only English or Spanish",no,2025-08-12_16h54.27.029,empathy_intonation_perc_control,2024.2.4,MacIntel,60.0024001,671ad1c838354923130def37,68817205a84113384fffdfe3,689ba9d5596455e7510a0676,,,,,,,,,,,,./stim/wavs/puertorican_match_interrogative-total-yn_Ana-lleva-el-abrigo.wav,1,,,148.3601,150.2254,0,0,1.3403,,0,43,43,18,1,19,1,puertorican,,,,,,,,,,,,,,,,,,,,,,,,,,,,,,,,,,,,,,,,,,,,,,,,,,,,,,,,
,,,,,,,,,671ad1c838354923130def37,spanish,13 or older,"no, only English or Spanish",no,2025-08-12_16h54.27.029,empathy_intonation_perc_control,2024.2.4,MacIntel,60.0024001,671ad1c838354923130def37,68817205a84113384fffdfe3,689ba9d5596455e7510a0676,,,,,,,,,,,,./stim/wavs/cuban_match_declarative-broad-focus_Ana-lleva-el-abrigo.wav,0,,,150.2258,152.0098,0,1,1.2562,,0,44,44,50,1,51,0,cuban,,,,,,,,,,,,,,,,,,,,,,,,,,,,,,,,,,,,,,,,,,,,,,,,,,,,,,,,
,,,,,,,,,671ad1c838354923130def37,spanish,13 or older,"no, only English or Spanish",no,2025-08-12_16h54.27.029,empathy_intonation_perc_control,2024.2.4,MacIntel,60.0024001,671ad1c838354923130def37,68817205a84113384fffdfe3,689ba9d5596455e7510a0676,,,,,,,,,,,,./stim/wavs/puertorican_match_interrogative-total-yn_Daniel-iba-a-Bolivia.wav,1,,,152.0102,155.6083,0,0,3.0676,,0,45,45,19,1,20,1,puertorican,,,,,,,,,,,,,,,,,,,,,,,,,,,,,,,,,,,,,,,,,,,,,,,,,,,,,,,,
,,,,,,,,,671ad1c838354923130def37,spanish,13 or older,"no, only English or Spanish",no,2025-08-12_16h54.27.029,empathy_intonation_perc_control,2024.2.4,MacIntel,60.0024001,671ad1c838354923130def37,68817205a84113384fffdfe3,689ba9d5596455e7510a0676,,,,,,,,,,,,./stim/wavs/puertorican_mismatch_interrogative-total-yn_La-nina-lava-el-plato.wav,1,,,155.6086,157.5117,0,0,1.387,,0,46,46,42,1,43,1,puertorican,,,,,,,,,,,,,,,,,,,,,,,,,,,,,,,,,,,,,,,,,,,,,,,,,,,,,,,,
,,,,,,,,,671ad1c838354923130def37,spanish,13 or older,"no, only English or Spanish",no,2025-08-12_16h54.27.029,empathy_intonation_perc_control,2024.2.4,MacIntel,60.0024001,671ad1c838354923130def37,68817205a84113384fffdfe3,689ba9d5596455e7510a0676,,,,,,,,,,,,./stim/wavs/mexican_match_declarative-broad-focus_Ana-lleva-el-abrigo.wav,0,,,157.5121,159.326,0,1,1.2835,,0,47,47,56,1,57,0,mexican,,,,,,,,,,,,,,,,,,,,,,,,,,,,,,,,,,,,,,,,,,,,,,,,,,,,,,,,
,,,,,,,,,671ad1c838354923130def37,spanish,13 or older,"no, only English or Spanish",no,2025-08-12_16h54.27.029,empathy_intonation_perc_control,2024.2.4,MacIntel,60.0024001,671ad1c838354923130def37,68817205a84113384fffdfe3,689ba9d5596455e7510a0676,,,,,,,,,,,,./stim/wavs/puertorican_match_interrogative-total-yn_Maria-bebe-el-vino.wav,1,,,159.3265,161.2094,0,0,1.3504,,0,48,48,23,1,24,1,puertorican,,,,,,,,,,,,,,,,,,,,,,,,,,,,,,,,,,,,,,,,,,,,,,,,,,,,,,,,
,,,,,,,,,671ad1c838354923130def37,spanish,13 or older,"no, only English or Spanish",no,2025-08-12_16h54.27.029,empathy_intonation_perc_control,2024.2.4,MacIntel,60.0024001,671ad1c838354923130def37,68817205a84113384fffdfe3,689ba9d5596455e7510a0676,,,,,,,,,,,,./stim/wavs/puertorican_mismatch_declarative-broad-focus_El-hombre-mira-la-luna.wav,0,,,161.2098,163.1089,0,1,1.3663,,0,49,49,84,1,85,0,puertorican,,,,,,,,,,,,,,,,,,,,,,,,,,,,,,,,,,,,,,,,,,,,,,,,,,,,,,,,
,,,,,,,,,671ad1c838354923130def37,spanish,13 or older,"no, only English or Spanish",no,2025-08-12_16h54.27.029,empathy_intonation_perc_control,2024.2.4,MacIntel,60.0024001,671ad1c838354923130def37,68817205a84113384fffdfe3,689ba9d5596455e7510a0676,,,,,,,,,,,,./stim/wavs/castilian_mismatch_interrogative-total-yn_La-nina-lava-el-plato.wav,1,,,163.1093,165.142,1,1,1.4987,,0,50,50,25,1,26,0,castilian,,,,,,,,,,,,,,,,,,,,,,,,,,,,,,,,,,,,,,,,,,,,,,,,,,,,,,,,
,,,,,,,,,671ad1c838354923130def37,spanish,13 or older,"no, only English or Spanish",no,2025-08-12_16h54.27.029,empathy_intonation_perc_control,2024.2.4,MacIntel,60.0024001,671ad1c838354923130def37,68817205a84113384fffdfe3,689ba9d5596455e7510a0676,,,,,,,,,,,,./stim/wavs/castilian_match_interrogative-total-yn_Emilio-ama-la-marcha.wav,1,,,165.1424,167.1752,1,1,1.5182,,0,51,51,1,1,2,0,castilian,,,,,,,,,,,,,,,,,,,,,,,,,,,,,,,,,,,,,,,,,,,,,,,,,,,,,,,,
,,,,,,,,,671ad1c838354923130def37,spanish,13 or older,"no, only English or Spanish",no,2025-08-12_16h54.27.029,empathy_intonation_perc_control,2024.2.4,MacIntel,60.0024001,671ad1c838354923130def37,68817205a84113384fffdfe3,689ba9d5596455e7510a0676,,,,,,,,,,,,./stim/wavs/cuban_match_interrogative-total-yn_Mariano-habla-del-tiempo.wav,1,,,167.1756,170.3761,0,0,2.682,,0,52,52,10,1,11,1,cuban,,,,,,,,,,,,,,,,,,,,,,,,,,,,,,,,,,,,,,,,,,,,,,,,,,,,,,,,
,,,,,,,,,671ad1c838354923130def37,spanish,13 or older,"no, only English or Spanish",no,2025-08-12_16h54.27.029,empathy_intonation_perc_control,2024.2.4,MacIntel,60.0024001,671ad1c838354923130def37,68817205a84113384fffdfe3,689ba9d5596455e7510a0676,,,,,,,,,,,,./stim/wavs/cuban_mismatch_declarative-broad-focus_El-hombre-mira-la-luna.wav,0,,,170.3765,172.8258,0,1,1.9238,,0,53,53,74,1,75,0,cuban,,,,,,,,,,,,,,,,,,,,,,,,,,,,,,,,,,,,,,,,,,,,,,,,,,,,,,,,
,,,,,,,,,671ad1c838354923130def37,spanish,13 or older,"no, only English or Spanish",no,2025-08-12_16h54.27.029,empathy_intonation_perc_control,2024.2.4,MacIntel,60.0024001,671ad1c838354923130def37,68817205a84113384fffdfe3,689ba9d5596455e7510a0676,,,,,,,,,,,,./stim/wavs/mexican_match_interrogative-total-yn_Emilio-ama-la-marcha.wav,1,,,172.8261,175.8099,1,1,2.4489,,0,54,54,15,1,16,0,mexican,,,,,,,,,,,,,,,,,,,,,,,,,,,,,,,,,,,,,,,,,,,,,,,,,,,,,,,,
,,,,,,,,,671ad1c838354923130def37,spanish,13 or older,"no, only English or Spanish",no,2025-08-12_16h54.27.029,empathy_intonation_perc_control,2024.2.4,MacIntel,60.0024001,671ad1c838354923130def37,68817205a84113384fffdfe3,689ba9d5596455e7510a0676,,,,,,,,,,,,./stim/wavs/puertorican_mismatch_interrogative-total-yn_La-maestra-vive-en-Paris.wav,1,,,175.8105,178.7747,0,0,2.4491,,0,55,55,41,1,42,1,puertorican,,,,,,,,,,,,,,,,,,,,,,,,,,,,,,,,,,,,,,,,,,,,,,,,,,,,,,,,
,,,,,,,,,671ad1c838354923130def37,spanish,13 or older,"no, only English or Spanish",no,2025-08-12_16h54.27.029,empathy_intonation_perc_control,2024.2.4,MacIntel,60.0024001,671ad1c838354923130def37,68817205a84113384fffdfe3,689ba9d5596455e7510a0676,,,,,,,,,,,,./stim/wavs/castilian_match_interrogative-total-yn_David-leia-el-libro.wav,1,,,178.7751,180.9092,1,1,1.617,,0,56,56,0,1,1,0,castilian,,,,,,,,,,,,,,,,,,,,,,,,,,,,,,,,,,,,,,,,,,,,,,,,,,,,,,,,
,,,,,,,,,671ad1c838354923130def37,spanish,13 or older,"no, only English or Spanish",no,2025-08-12_16h54.27.029,empathy_intonation_perc_control,2024.2.4,MacIntel,60.0024001,671ad1c838354923130def37,68817205a84113384fffdfe3,689ba9d5596455e7510a0676,,,,,,,,,,,,./stim/wavs/mexican_mismatch_interrogative-total-yn_La-maestra-vive-en-Paris.wav,1,,,180.9096,183.0584,1,1,1.6247,,0,57,57,36,1,37,0,mexican,,,,,,,,,,,,,,,,,,,,,,,,,,,,,,,,,,,,,,,,,,,,,,,,,,,,,,,,
,,,,,,,,,671ad1c838354923130def37,spanish,13 or older,"no, only English or Spanish",no,2025-08-12_16h54.27.029,empathy_intonation_perc_control,2024.2.4,MacIntel,60.0024001,671ad1c838354923130def37,68817205a84113384fffdfe3,689ba9d5596455e7510a0676,,,,,,,,,,,,./stim/wavs/mexican_mismatch_declarative-broad-focus_La-maestra-vive-en-Paris.wav,0,,,183.0588,185.5414,0,1,1.967,,0,58,58,80,1,81,0,mexican,,,,,,,,,,,,,,,,,,,,,,,,,,,,,,,,,,,,,,,,,,,,,,,,,,,,,,,,
,,,,,,,,,671ad1c838354923130def37,spanish,13 or older,"no, only English or Spanish",no,2025-08-12_16h54.27.029,empathy_intonation_perc_control,2024.2.4,MacIntel,60.0024001,671ad1c838354923130def37,68817205a84113384fffdfe3,689ba9d5596455e7510a0676,,,,,,,,,,,,./stim/wavs/puertorican_match_declarative-broad-focus_Emilio-ama-la-marcha.wav,0,,,185.5417,187.6755,0,1,1.6176,,0,59,59,65,1,66,0,puertorican,,,,,,,,,,,,,,,,,,,,,,,,,,,,,,,,,,,,,,,,,,,,,,,,,,,,,,,,
,,,,,,,,,671ad1c838354923130def37,spanish,13 or older,"no, only English or Spanish",no,2025-08-12_16h54.27.029,empathy_intonation_perc_control,2024.2.4,MacIntel,60.0024001,671ad1c838354923130def37,68817205a84113384fffdfe3,689ba9d5596455e7510a0676,,,,,,,,,,,,./stim/wavs/mexican_mismatch_interrogative-total-yn_El-hombre-mira-la-luna.wav,1,,,187.6759,189.6277,0,0,1.4084,,0,60,60,34,1,35,0,mexican,,,,,,,,,,,,,,,,,,,,,,,,,,,,,,,,,,,,,,,,,,,,,,,,,,,,,,,,
,,,,,,,,,671ad1c838354923130def37,spanish,13 or older,"no, only English or Spanish",no,2025-08-12_16h54.27.029,empathy_intonation_perc_control,2024.2.4,MacIntel,60.0024001,671ad1c838354923130def37,68817205a84113384fffdfe3,689ba9d5596455e7510a0676,,,,,,,,,,,,./stim/wavs/mexican_match_declarative-broad-focus_David-leia-el-libro.wav,0,,,189.6281,191.7423,0,1,1.5836,,0,61,61,58,1,59,0,mexican,,,,,,,,,,,,,,,,,,,,,,,,,,,,,,,,,,,,,,,,,,,,,,,,,,,,,,,,
,,,,,,,,,671ad1c838354923130def37,spanish,13 or older,"no, only English or Spanish",no,2025-08-12_16h54.27.029,empathy_intonation_perc_control,2024.2.4,MacIntel,60.0024001,671ad1c838354923130def37,68817205a84113384fffdfe3,689ba9d5596455e7510a0676,,,,,,,,,,,,./stim/wavs/cuban_mismatch_interrogative-total-yn_Mi-madre-come-la-fruta.wav,1,,,191.7427,193.9422,0,0,1.674,,0,62,62,31,1,32,1,cuban,,,,,,,,,,,,,,,,,,,,,,,,,,,,,,,,,,,,,,,,,,,,,,,,,,,,,,,,
,,,,,,,,,671ad1c838354923130def37,spanish,13 or older,"no, only English or Spanish",no,2025-08-12_16h54.27.029,empathy_intonation_perc_control,2024.2.4,MacIntel,60.0024001,671ad1c838354923130def37,68817205a84113384fffdfe3,689ba9d5596455e7510a0676,,,,,,,,,,,,./stim/wavs/cuban_mismatch_interrogative-total-yn_Mi-tia-odia-la-lluvia.wav,1,,,193.9425,195.9082,0,0,1.4332,,0,63,63,33,1,34,1,cuban,,,,,,,,,,,,,,,,,,,,,,,,,,,,,,,,,,,,,,,,,,,,,,,,,,,,,,,,
,,,,,,,,,671ad1c838354923130def37,spanish,13 or older,"no, only English or Spanish",no,2025-08-12_16h54.27.029,empathy_intonation_perc_control,2024.2.4,MacIntel,60.0024001,671ad1c838354923130def37,68817205a84113384fffdfe3,689ba9d5596455e7510a0676,,,,,,,,,,,,./stim/wavs/puertorican_mismatch_interrogative-total-yn_El-nino-oye-el-rio.wav,1,,,195.9085,197.9748,0,0,1.5503,,0,64,64,40,1,41,1,puertorican,,,,,,,,,,,,,,,,,,,,,,,,,,,,,,,,,,,,,,,,,,,,,,,,,,,,,,,,
,,,,,,,,,671ad1c838354923130def37,spanish,13 or older,"no, only English or Spanish",no,2025-08-12_16h54.27.029,empathy_intonation_perc_control,2024.2.4,MacIntel,60.0024001,671ad1c838354923130def37,68817205a84113384fffdfe3,689ba9d5596455e7510a0676,,,,,,,,,,,,./stim/wavs/castilian_match_declarative-broad-focus_Mariano-habla-del-tiempo.wav,0,,,197.9752,200.1917,0,1,1.684,,0,65,65,48,1,49,0,castilian,,,,,,,,,,,,,,,,,,,,,,,,,,,,,,,,,,,,,,,,,,,,,,,,,,,,,,,,
,,,,,,,,,671ad1c838354923130def37,spanish,13 or older,"no, only English or Spanish",no,2025-08-12_16h54.27.029,empathy_intonation_perc_control,2024.2.4,MacIntel,60.0024001,671ad1c838354923130def37,68817205a84113384fffdfe3,689ba9d5596455e7510a0676,,,,,,,,,,,,./stim/wavs/mexican_match_interrogative-total-yn_Marta-abre-el-regalo.wav,1,,,200.1922,202.1246,0,0,1.4139,,0,66,66,17,1,18,0,mexican,,,,,,,,,,,,,,,,,,,,,,,,,,,,,,,,,,,,,,,,,,,,,,,,,,,,,,,,
,,,,,,,,,671ad1c838354923130def37,spanish,13 or older,"no, only English or Spanish",no,2025-08-12_16h54.27.029,empathy_intonation_perc_control,2024.2.4,MacIntel,60.0024001,671ad1c838354923130def37,68817205a84113384fffdfe3,689ba9d5596455e7510a0676,,,,,,,,,,,,./stim/wavs/mexican_match_interrogative-total-yn_Ana-lleva-el-abrigo.wav,1,,,202.125,204.3088,0,0,1.6698,,0,67,67,12,1,13,0,mexican,,,,,,,,,,,,,,,,,,,,,,,,,,,,,,,,,,,,,,,,,,,,,,,,,,,,,,,,
,,,,,,,,,671ad1c838354923130def37,spanish,13 or older,"no, only English or Spanish",no,2025-08-12_16h54.27.029,empathy_intonation_perc_control,2024.2.4,MacIntel,60.0024001,671ad1c838354923130def37,68817205a84113384fffdfe3,689ba9d5596455e7510a0676,,,,,,,,,,,,./stim/wavs/cuban_match_declarative-broad-focus_Maria-bebe-el-vino.wav,0,,,204.3092,206.2754,0,1,1.4502,,0,68,68,53,1,54,0,cuban,,,,,,,,,,,,,,,,,,,,,,,,,,,,,,,,,,,,,,,,,,,,,,,,,,,,,,,,
,,,,,,,,,671ad1c838354923130def37,spanish,13 or older,"no, only English or Spanish",no,2025-08-12_16h54.27.029,empathy_intonation_perc_control,2024.2.4,MacIntel,60.0024001,671ad1c838354923130def37,68817205a84113384fffdfe3,689ba9d5596455e7510a0676,,,,,,,,,,,,./stim/wavs/mexican_mismatch_declarative-broad-focus_Mi-novio-viene-del-lago.wav,0,,,206.2759,208.758,0,1,1.949,,0,69,69,81,1,82,0,mexican,,,,,,,,,,,,,,,,,,,,,,,,,,,,,,,,,,,,,,,,,,,,,,,,,,,,,,,,
,,,,,,,,,671ad1c838354923130def37,spanish,13 or older,"no, only English or Spanish",no,2025-08-12_16h54.27.029,empathy_intonation_perc_control,2024.2.4,MacIntel,60.0024001,671ad1c838354923130def37,68817205a84113384fffdfe3,689ba9d5596455e7510a0676,,,,,,,,,,,,./stim/wavs/cuban_mismatch_interrogative-total-yn_El-nino-oye-el-rio.wav,1,,,208.7583,210.642,0,0,1.3737,,0,70,70,30,1,31,1,cuban,,,,,,,,,,,,,,,,,,,,,,,,,,,,,,,,,,,,,,,,,,,,,,,,,,,,,,,,
,,,,,,,,,671ad1c838354923130def37,spanish,13 or older,"no, only English or Spanish",no,2025-08-12_16h54.27.029,empathy_intonation_perc_control,2024.2.4,MacIntel,60.0024001,671ad1c838354923130def37,68817205a84113384fffdfe3,689ba9d5596455e7510a0676,,,,,,,,,,,,./stim/wavs/castilian_match_interrogative-total-yn_Marta-abre-el-regalo.wav,1,,,210.6424,212.7411,1,1,1.5673,,0,71,71,5,1,6,0,castilian,,,,,,,,,,,,,,,,,,,,,,,,,,,,,,,,,,,,,,,,,,,,,,,,,,,,,,,,
,,,,,,,,,671ad1c838354923130def37,spanish,13 or older,"no, only English or Spanish",no,2025-08-12_16h54.27.029,empathy_intonation_perc_control,2024.2.4,MacIntel,60.0024001,671ad1c838354923130def37,68817205a84113384fffdfe3,689ba9d5596455e7510a0676,,,,,,,,,,,,./stim/wavs/castilian_mismatch_interrogative-total-yn_Mi-tia-odia-la-lluvia.wav,1,,,212.7414,214.8085,1,1,1.5486,,0,72,72,28,1,29,0,castilian,,,,,,,,,,,,,,,,,,,,,,,,,,,,,,,,,,,,,,,,,,,,,,,,,,,,,,,,
,,,,,,,,,671ad1c838354923130def37,spanish,13 or older,"no, only English or Spanish",no,2025-08-12_16h54.27.029,empathy_intonation_perc_control,2024.2.4,MacIntel,60.0024001,671ad1c838354923130def37,68817205a84113384fffdfe3,689ba9d5596455e7510a0676,,,,,,,,,,,,./stim/wavs/mexican_mismatch_interrogative-total-yn_Mi-tia-odia-la-lluvia.wav,1,,,214.8088,217.1413,1,1,1.8007,,0,73,73,38,1,39,0,mexican,,,,,,,,,,,,,,,,,,,,,,,,,,,,,,,,,,,,,,,,,,,,,,,,,,,,,,,,
,,,,,,,,,671ad1c838354923130def37,spanish,13 or older,"no, only English or Spanish",no,2025-08-12_16h54.27.029,empathy_intonation_perc_control,2024.2.4,MacIntel,60.0024001,671ad1c838354923130def37,68817205a84113384fffdfe3,689ba9d5596455e7510a0676,,,,,,,,,,,,./stim/wavs/mexican_match_declarative-broad-focus_Daniel-iba-a-Bolivia.wav,0,,,217.1416,219.7753,0,1,2.1164,,0,74,74,57,1,58,0,mexican,,,,,,,,,,,,,,,,,,,,,,,,,,,,,,,,,,,,,,,,,,,,,,,,,,,,,,,,
,,,,,,,,,671ad1c838354923130def37,spanish,13 or older,"no, only English or Spanish",no,2025-08-12_16h54.27.029,empathy_intonation_perc_control,2024.2.4,MacIntel,60.0024001,671ad1c838354923130def37,68817205a84113384fffdfe3,689ba9d5596455e7510a0676,,,,,,,,,,,,./stim/wavs/mexican_match_declarative-broad-focus_Emilio-ama-la-marcha.wav,0,,,219.7758,222.3078,0,1,2.0097,,0,75,75,59,1,60,0,mexican,,,,,,,,,,,,,,,,,,,,,,,,,,,,,,,,,,,,,,,,,,,,,,,,,,,,,,,,
,,,,,,,,,671ad1c838354923130def37,spanish,13 or older,"no, only English or Spanish",no,2025-08-12_16h54.27.029,empathy_intonation_perc_control,2024.2.4,MacIntel,60.0024001,671ad1c838354923130def37,68817205a84113384fffdfe3,689ba9d5596455e7510a0676,,,,,,,,,,,,./stim/wavs/cuban_mismatch_interrogative-total-yn_El-hombre-mira-la-luna.wav,1,,,222.3082,224.1091,0,0,1.2828,,0,76,76,29,1,30,1,cuban,,,,,,,,,,,,,,,,,,,,,,,,,,,,,,,,,,,,,,,,,,,,,,,,,,,,,,,,
,,,,,,,,,671ad1c838354923130def37,spanish,13 or older,"no, only English or Spanish",no,2025-08-12_16h54.27.029,empathy_intonation_perc_control,2024.2.4,MacIntel,60.0024001,671ad1c838354923130def37,68817205a84113384fffdfe3,689ba9d5596455e7510a0676,,,,,,,,,,,,./stim/wavs/cuban_match_declarative-broad-focus_Manuela-vende-el-carro.wav,0,,,224.1094,226.2253,0,1,1.5817,,0,77,77,52,1,53,0,cuban,,,,,,,,,,,,,,,,,,,,,,,,,,,,,,,,,,,,,,,,,,,,,,,,,,,,,,,,
,,,,,,,,,671ad1c838354923130def37,spanish,13 or older,"no, only English or Spanish",no,2025-08-12_16h54.27.029,empathy_intonation_perc_control,2024.2.4,MacIntel,60.0024001,671ad1c838354923130def37,68817205a84113384fffdfe3,689ba9d5596455e7510a0676,,,,,,,,,,,,./stim/wavs/castilian_match_interrogative-total-yn_Manuela-vende-el-carro.wav,1,,,226.2258,228.311,0,0,1.5426,,0,78,78,2,1,3,0,castilian,,,,,,,,,,,,,,,,,,,,,,,,,,,,,,,,,,,,,,,,,,,,,,,,,,,,,,,,
,,,,,,,,,671ad1c838354923130def37,spanish,13 or older,"no, only English or Spanish",no,2025-08-12_16h54.27.029,empathy_intonation_perc_control,2024.2.4,MacIntel,60.0024001,671ad1c838354923130def37,68817205a84113384fffdfe3,689ba9d5596455e7510a0676,,,,,,,,,,,,./stim/wavs/castilian_mismatch_interrogative-total-yn_Mi-novio-viene-del-lago.wav,1,,,228.3114,230.6931,1,1,1.8425,,0,79,79,27,1,28,0,castilian,,,,,,,,,,,,,,,,,,,,,,,,,,,,,,,,,,,,,,,,,,,,,,,,,,,,,,,,
,,,,,,,,,671ad1c838354923130def37,spanish,13 or older,"no, only English or Spanish",no,2025-08-12_16h54.27.029,empathy_intonation_perc_control,2024.2.4,MacIntel,60.0024001,671ad1c838354923130def37,68817205a84113384fffdfe3,689ba9d5596455e7510a0676,,,,,,,,,,,,./stim/wavs/cuban_match_interrogative-total-yn_Ana-lleva-el-abrigo.wav,1,,,230.6935,232.8085,0,0,1.5993,,0,80,80,6,1,7,1,cuban,,,,,,,,,,,,,,,,,,,,,,,,,,,,,,,,,,,,,,,,,,,,,,,,,,,,,,,,
,,,,,,,,,671ad1c838354923130def37,spanish,13 or older,"no, only English or Spanish",no,2025-08-12_16h54.27.029,empathy_intonation_perc_control,2024.2.4,MacIntel,60.0024001,671ad1c838354923130def37,68817205a84113384fffdfe3,689ba9d5596455e7510a0676,,,,,,,,,,,,./stim/wavs/cuban_mismatch_declarative-broad-focus_El-bebe-comia-muy-bien.wav,0,,,232.809,235.3579,0,1,2.0169,,0,81,81,73,1,74,0,cuban,,,,,,,,,,,,,,,,,,,,,,,,,,,,,,,,,,,,,,,,,,,,,,,,,,,,,,,,
,,,,,,,,,671ad1c838354923130def37,spanish,13 or older,"no, only English or Spanish",no,2025-08-12_16h54.27.029,empathy_intonation_perc_control,2024.2.4,MacIntel,60.0024001,671ad1c838354923130def37,68817205a84113384fffdfe3,689ba9d5596455e7510a0676,,,,,,,,,,,,./stim/wavs/cuban_mismatch_declarative-broad-focus_La-nina-lava-el-plato.wav,0,,,235.3583,238.3084,0,1,2.4242,,0,82,82,75,1,76,0,cuban,,,,,,,,,,,,,,,,,,,,,,,,,,,,,,,,,,,,,,,,,,,,,,,,,,,,,,,,
,,,,,,,,,671ad1c838354923130def37,spanish,13 or older,"no, only English or Spanish",no,2025-08-12_16h54.27.029,empathy_intonation_perc_control,2024.2.4,MacIntel,60.0024001,671ad1c838354923130def37,68817205a84113384fffdfe3,689ba9d5596455e7510a0676,,,,,,,,,,,,./stim/wavs/puertorican_match_interrogative-total-yn_Manuela-vende-el-carro.wav,1,,,238.3089,240.8074,0,0,1.9673,,0,83,83,22,1,23,1,puertorican,,,,,,,,,,,,,,,,,,,,,,,,,,,,,,,,,,,,,,,,,,,,,,,,,,,,,,,,
,,,,,,,,,671ad1c838354923130def37,spanish,13 or older,"no, only English or Spanish",no,2025-08-12_16h54.27.029,empathy_intonation_perc_control,2024.2.4,MacIntel,60.0024001,671ad1c838354923130def37,68817205a84113384fffdfe3,689ba9d5596455e7510a0676,,,,,,,,,,,,./stim/wavs/castilian_mismatch_declarative-broad-focus_El-nino-oye-el-rio.wav,0,,,240.8077,244.6916,0,1,3.367,,0,84,84,68,1,69,0,castilian,,,,,,,,,,,,,,,,,,,,,,,,,,,,,,,,,,,,,,,,,,,,,,,,,,,,,,,,
,,,,,,,,,671ad1c838354923130def37,spanish,13 or older,"no, only English or Spanish",no,2025-08-12_16h54.27.029,empathy_intonation_perc_control,2024.2.4,MacIntel,60.0024001,671ad1c838354923130def37,68817205a84113384fffdfe3,689ba9d5596455e7510a0676,,,,,,,,,,,,./stim/wavs/mexican_match_interrogative-total-yn_David-leia-el-libro.wav,1,,,244.6919,248.5415,0,0,3.3164,,0,85,85,14,1,15,0,mexican,,,,,,,,,,,,,,,,,,,,,,,,,,,,,,,,,,,,,,,,,,,,,,,,,,,,,,,,
,,,,,,,,,671ad1c838354923130def37,spanish,13 or older,"no, only English or Spanish",no,2025-08-12_16h54.27.029,empathy_intonation_perc_control,2024.2.4,MacIntel,60.0024001,671ad1c838354923130def37,68817205a84113384fffdfe3,689ba9d5596455e7510a0676,,,,,,,,,,,,./stim/wavs/castilian_mismatch_declarative-broad-focus_La-nina-lava-el-plato.wav,0,,,248.542,257.0595,0,1,7.9813,,0,86,86,70,1,71,0,castilian,,,,,,,,,,,,,,,,,,,,,,,,,,,,,,,,,,,,,,,,,,,,,,,,,,,,,,,,
,,,,,,,,,671ad1c838354923130def37,spanish,13 or older,"no, only English or Spanish",no,2025-08-12_16h54.27.029,empathy_intonation_perc_control,2024.2.4,MacIntel,60.0024001,671ad1c838354923130def37,68817205a84113384fffdfe3,689ba9d5596455e7510a0676,,,,,,,,,,,,./stim/wavs/cuban_match_declarative-broad-focus_Marta-abre-el-regalo.wav,0,,,257.0598,260.2405,0,1,2.6505,,0,87,87,55,1,56,0,cuban,,,,,,,,,,,,,,,,,,,,,,,,,,,,,,,,,,,,,,,,,,,,,,,,,,,,,,,,
,,,,,,,"Great! Now we will move on. The next task consists of about 60 trials, in each of which you will see a string of letters. 
  
  Your task is to decide whether this is a real Spanish word or not.", (press the spacebar to continue),671ad1c838354923130def37,spanish,13 or older,"no, only English or Spanish",no,2025-08-12_16h54.27.029,empathy_intonation_perc_control,2024.2.4,MacIntel,60.0024001,671ad1c838354923130def37,68817205a84113384fffdfe3,689ba9d5596455e7510a0676,,,,,,,,,,,,,,,,,,,,,,,,,,,,,,260.2451,270.1421,0,0,0,0,1,,,,,,,,,,,,,,,,,,,,,,,,,,,,,,,,,,,,,,,,,,,,,,,,,
,,,,,,,"If you think it is an existing Spanish word, you type '1' (for 'REAL'), and if you think it is not an existing Spanish word, you type '0' (for 'FAKE').", (press the spacebar to continue),671ad1c838354923130def37,spanish,13 or older,"no, only English or Spanish",no,2025-08-12_16h54.27.029,empathy_intonation_perc_control,2024.2.4,MacIntel,60.0024001,671ad1c838354923130def37,68817205a84113384fffdfe3,689ba9d5596455e7510a0676,,,,,,,,,,,,,,,,,,,,,,,,,,,,,,270.1432,275.8245,0,1,1,1,1,,,,,,,,,,,,,,,,,,,,,,,,,,,,,,,,,,,,,,,,,,,,,,,,,
,,,,,,,"If you are sure that the word exists, even though you don’t know its exact meaning, you may still respond '1' (REAL). 
  
  But if you are not sure if it is an existing word, you should respond '0' (FAKE).
  
  Let's do a practice round...", (press the spacebar to continue),671ad1c838354923130def37,spanish,13 or older,"no, only English or Spanish",no,2025-08-12_16h54.27.029,empathy_intonation_perc_control,2024.2.4,MacIntel,60.0024001,671ad1c838354923130def37,68817205a84113384fffdfe3,689ba9d5596455e7510a0676,,,,,,,,,,,,,,,,,,,,,,,,,,,,,,275.8257,282.1425,0,2,2,2,1,,,,,,,,,,,,,,,,,,,,,,,,,,,,,,,,,,,,,,,,,,,,,,,,,
,,,,,,,,,671ad1c838354923130def37,spanish,13 or older,"no, only English or Spanish",no,2025-08-12_16h54.27.029,empathy_intonation_perc_control,2024.2.4,MacIntel,60.0024001,671ad1c838354923130def37,68817205a84113384fffdfe3,689ba9d5596455e7510a0676,,,,,,,,,,,,,0,,,,,,,,,,,,,,,,,,,,,,,,282.147,286.0242,1,0,3.3348,,286.0244,287.0246,0,0,0,0,1,0,depiste,REAL,FAKE,,,,,,,,,,,,,,,,,,,,,,,,,,,,,,,,
,,,,,,,,,671ad1c838354923130def37,spanish,13 or older,"no, only English or Spanish",no,2025-08-12_16h54.27.029,empathy_intonation_perc_control,2024.2.4,MacIntel,60.0024001,671ad1c838354923130def37,68817205a84113384fffdfe3,689ba9d5596455e7510a0676,,,,,,,,,,,,,1,,,,,,,,,,,,,,,,,,,,,,,,287.0256,288.9412,1,1,1.3814,,288.9419,289.9446,0,1,1,1,1,0,sí,REAL,FAKE,,,,,,,,,,,,,,,,,,,,,,,,,,,,,,,,
,,,,,,,,,671ad1c838354923130def37,spanish,13 or older,"no, only English or Spanish",no,2025-08-12_16h54.27.029,empathy_intonation_perc_control,2024.2.4,MacIntel,60.0024001,671ad1c838354923130def37,68817205a84113384fffdfe3,689ba9d5596455e7510a0676,,,,,,,,,,,,,0,,,,,,,,,,,,,,,,,,,,,,,,289.9457,291.5908,1,0,1.115,,291.5917,292.5904,0,2,2,2,1,0,coné,REAL,FAKE,,,,,,,,,,,,,,,,,,,,,,,,,,,,,,,,
,,,,,,,,,671ad1c838354923130def37,spanish,13 or older,"no, only English or Spanish",no,2025-08-12_16h54.27.029,empathy_intonation_perc_control,2024.2.4,MacIntel,60.0024001,671ad1c838354923130def37,68817205a84113384fffdfe3,689ba9d5596455e7510a0676,,,,,,,,,,,,,0,,,,,,,,,,,,,,,,,,,,,,,,292.5917,294.8243,1,0,1.6945,,294.8243,295.8243,0,3,3,3,1,0,calpar,REAL,FAKE,,,,,,,,,,,,,,,,,,,,,,,,,,,,,,,,
,,,,,,,,,671ad1c838354923130def37,spanish,13 or older,"no, only English or Spanish",no,2025-08-12_16h54.27.029,empathy_intonation_perc_control,2024.2.4,MacIntel,60.0024001,671ad1c838354923130def37,68817205a84113384fffdfe3,689ba9d5596455e7510a0676,,,,,,,,,,,,,0,,,,,,,,,,,,,,,,,,,,,,,,295.825,298.4236,1,0,2.0592,,298.4236,299.4246,0,4,4,4,1,0,joten,REAL,FAKE,,,,,,,,,,,,,,,,,,,,,,,,,,,,,,,,
,,,,,,,,,671ad1c838354923130def37,spanish,13 or older,"no, only English or Spanish",no,2025-08-12_16h54.27.029,empathy_intonation_perc_control,2024.2.4,MacIntel,60.0024001,671ad1c838354923130def37,68817205a84113384fffdfe3,689ba9d5596455e7510a0676,,,,,,,,,,,,,1,,,,,,,,,,,,,,,,,,,,,,,,299.4252,301.6761,1,1,1.7099,,301.6763,302.6752,0,5,5,5,1,0,sacapuntas,REAL,FAKE,,,,,,,,,,,,,,,,,,,,,,,,,,,,,,,,
,,,,,,,,,671ad1c838354923130def37,spanish,13 or older,"no, only English or Spanish",no,2025-08-12_16h54.27.029,empathy_intonation_perc_control,2024.2.4,MacIntel,60.0024001,671ad1c838354923130def37,68817205a84113384fffdfe3,689ba9d5596455e7510a0676,,,,,,,,,,,,,0,,,,,,,,,,,,,,,,,,,,,,,,302.6765,304.4072,1,0,1.2014,,304.4081,305.4072,0,6,6,6,1,0,priba,REAL,FAKE,,,,,,,,,,,,,,,,,,,,,,,,,,,,,,,,
,,,,,,,,,671ad1c838354923130def37,spanish,13 or older,"no, only English or Spanish",no,2025-08-12_16h54.27.029,empathy_intonation_perc_control,2024.2.4,MacIntel,60.0024001,671ad1c838354923130def37,68817205a84113384fffdfe3,689ba9d5596455e7510a0676,,,,,,,,,,,,,0,,,,,,,,,,,,,,,,,,,,,,,,305.4084,307.3076,1,0,1.3527,,307.3076,308.3077,0,7,7,7,1,0,pelasula,REAL,FAKE,,,,,,,,,,,,,,,,,,,,,,,,,,,,,,,,
,,,,,,,,,671ad1c838354923130def37,spanish,13 or older,"no, only English or Spanish",no,2025-08-12_16h54.27.029,empathy_intonation_perc_control,2024.2.4,MacIntel,60.0024001,671ad1c838354923130def37,68817205a84113384fffdfe3,689ba9d5596455e7510a0676,,,,,,,,,,,,,1,,,,,,,,,,,,,,,,,,,,,,,,308.309,309.9593,1,1,1.1113,,309.9599,310.959,0,8,8,8,1,0,bien,REAL,FAKE,,,,,,,,,,,,,,,,,,,,,,,,,,,,,,,,
,,,,,,,,,671ad1c838354923130def37,spanish,13 or older,"no, only English or Spanish",no,2025-08-12_16h54.27.029,empathy_intonation_perc_control,2024.2.4,MacIntel,60.0024001,671ad1c838354923130def37,68817205a84113384fffdfe3,689ba9d5596455e7510a0676,,,,,,,,,,,,,1,,,,,,,,,,,,,,,,,,,,,,,,310.96,312.5066,1,1,1.0052,,312.5066,313.5076,0,9,9,9,1,0,casa,REAL,FAKE,,,,,,,,,,,,,,,,,,,,,,,,,,,,,,,,
,,,,,,,,,671ad1c838354923130def37,spanish,13 or older,"no, only English or Spanish",no,2025-08-12_16h54.27.029,empathy_intonation_perc_control,2024.2.4,MacIntel,60.0024001,671ad1c838354923130def37,68817205a84113384fffdfe3,689ba9d5596455e7510a0676,,,,,,,,,,,,,0,,,,,,,,,,,,,,,,,,,,,,,,313.5088,314.9263,1,0,0.87,,314.9269,315.926,0,10,10,10,1,0,lejo,REAL,FAKE,,,,,,,,,,,,,,,,,,,,,,,,,,,,,,,,
,,,,,,,,,671ad1c838354923130def37,spanish,13 or older,"no, only English or Spanish",no,2025-08-12_16h54.27.029,empathy_intonation_perc_control,2024.2.4,MacIntel,60.0024001,671ad1c838354923130def37,68817205a84113384fffdfe3,689ba9d5596455e7510a0676,,,,,,,,,,,,,0,,,,,,,,,,,,,,,,,,,,,,,,315.9273,317.3584,1,0,0.8923,,317.3584,318.3588,0,11,11,11,1,0,pretantas,REAL,FAKE,,,,,,,,,,,,,,,,,,,,,,,,,,,,,,,,
,,,,,,,,,671ad1c838354923130def37,spanish,13 or older,"no, only English or Spanish",no,2025-08-12_16h54.27.029,empathy_intonation_perc_control,2024.2.4,MacIntel,60.0024001,671ad1c838354923130def37,68817205a84113384fffdfe3,689ba9d5596455e7510a0676,,,,,,,,,,,,,,,,,,,,,,,,,,,,,,,,,,,,,,,,,,,,,,,,,,,,,,318.3597,322.8915,,,,,,,,,,,,,,,,,,,,,,,,,,,,,,
,,,,,,,,,671ad1c838354923130def37,spanish,13 or older,"no, only English or Spanish",no,2025-08-12_16h54.27.029,empathy_intonation_perc_control,2024.2.4,MacIntel,60.0024001,671ad1c838354923130def37,68817205a84113384fffdfe3,689ba9d5596455e7510a0676,,,,,,,,,,,,,1,,,,,,,,,,,,,,,,,,,,,,,,,,,,,,,,,,,,,61,seda,,,,,322.8984,326.5412,1,1,3.1072,,0,0,0,60,1,REAL,FAKE,,,,,,,,,,,,,,,,,
,,,,,,,,,671ad1c838354923130def37,spanish,13 or older,"no, only English or Spanish",no,2025-08-12_16h54.27.029,empathy_intonation_perc_control,2024.2.4,MacIntel,60.0024001,671ad1c838354923130def37,68817205a84113384fffdfe3,689ba9d5596455e7510a0676,,,,,,,,,,,,,1,,,,,,,,,,,,,,,,,,,,,,,,,,,,,,,,,,,,,12,asesinato,,,,,326.5425,328.3571,1,1,1.2856,,0,1,1,11,1,REAL,FAKE,,,,,,,,,,,,,,,,,
,,,,,,,,,671ad1c838354923130def37,spanish,13 or older,"no, only English or Spanish",no,2025-08-12_16h54.27.029,empathy_intonation_perc_control,2024.2.4,MacIntel,60.0024001,671ad1c838354923130def37,68817205a84113384fffdfe3,689ba9d5596455e7510a0676,,,,,,,,,,,,,0,,,,,,,,,,,,,,,,,,,,,,,,,,,,,,,,,,,,,42,cadallo,,,,,328.3584,329.4901,1,0,0.595,,0,2,2,41,1,REAL,FAKE,,,,,,,,,,,,,,,,,
,,,,,,,,,671ad1c838354923130def37,spanish,13 or older,"no, only English or Spanish",no,2025-08-12_16h54.27.029,empathy_intonation_perc_control,2024.2.4,MacIntel,60.0024001,671ad1c838354923130def37,68817205a84113384fffdfe3,689ba9d5596455e7510a0676,,,,,,,,,,,,,1,,,,,,,,,,,,,,,,,,,,,,,,,,,,,,,,,,,,,59,besar,,,,,329.4914,331.457,1,1,1.445,,0,3,3,58,1,REAL,FAKE,,,,,,,,,,,,,,,,,
,,,,,,,,,671ad1c838354923130def37,spanish,13 or older,"no, only English or Spanish",no,2025-08-12_16h54.27.029,empathy_intonation_perc_control,2024.2.4,MacIntel,60.0024001,671ad1c838354923130def37,68817205a84113384fffdfe3,689ba9d5596455e7510a0676,,,,,,,,,,,,,1,,,,,,,,,,,,,,,,,,,,,,,,,,,,,,,,,,,,,69,engatusar,,,,,331.4584,334.0767,0,0,2.076,,0,4,4,68,1,REAL,FAKE,,,,,,,,,,,,,,,,,
,,,,,,,,,671ad1c838354923130def37,spanish,13 or older,"no, only English or Spanish",no,2025-08-12_16h54.27.029,empathy_intonation_perc_control,2024.2.4,MacIntel,60.0024001,671ad1c838354923130def37,68817205a84113384fffdfe3,689ba9d5596455e7510a0676,,,,,,,,,,,,,0,,,,,,,,,,,,,,,,,,,,,,,,,,,,,,,,,,,,,27,acutación,,,,,334.0779,335.4418,1,0,0.8288,,0,5,5,26,1,REAL,FAKE,,,,,,,,,,,,,,,,,
,,,,,,,,,671ad1c838354923130def37,spanish,13 or older,"no, only English or Spanish",no,2025-08-12_16h54.27.029,empathy_intonation_perc_control,2024.2.4,MacIntel,60.0024001,671ad1c838354923130def37,68817205a84113384fffdfe3,689ba9d5596455e7510a0676,,,,,,,,,,,,,1,,,,,,,,,,,,,,,,,,,,,,,,,,,,,,,,,,,,,65,bizcocho,,,,,335.443,336.6737,0,0,0.6882,,0,6,6,64,1,REAL,FAKE,,,,,,,,,,,,,,,,,
,,,,,,,,,671ad1c838354923130def37,spanish,13 or older,"no, only English or Spanish",no,2025-08-12_16h54.27.029,empathy_intonation_perc_control,2024.2.4,MacIntel,60.0024001,671ad1c838354923130def37,68817205a84113384fffdfe3,689ba9d5596455e7510a0676,,,,,,,,,,,,,1,,,,,,,,,,,,,,,,,,,,,,,,,,,,,,,,,,,,,20,ávido,,,,,336.6753,337.9904,1,1,0.7653,,0,7,7,19,1,REAL,FAKE,,,,,,,,,,,,,,,,,
,,,,,,,,,671ad1c838354923130def37,spanish,13 or older,"no, only English or Spanish",no,2025-08-12_16h54.27.029,empathy_intonation_perc_control,2024.2.4,MacIntel,60.0024001,671ad1c838354923130def37,68817205a84113384fffdfe3,689ba9d5596455e7510a0676,,,,,,,,,,,,,1,,,,,,,,,,,,,,,,,,,,,,,,,,,,,,,,,,,,,62,flaco,,,,,337.9916,339.3933,1,1,0.8504,,0,8,8,61,1,REAL,FAKE,,,,,,,,,,,,,,,,,
,,,,,,,,,671ad1c838354923130def37,spanish,13 or older,"no, only English or Spanish",no,2025-08-12_16h54.27.029,empathy_intonation_perc_control,2024.2.4,MacIntel,60.0024001,671ad1c838354923130def37,68817205a84113384fffdfe3,689ba9d5596455e7510a0676,,,,,,,,,,,,,1,,,,,,,,,,,,,,,,,,,,,,,,,,,,,,,,,,,,,34,aviso,,,,,339.3945,340.842,0,0,0.9058,,0,9,9,33,1,REAL,FAKE,,,,,,,,,,,,,,,,,
,,,,,,,,,671ad1c838354923130def37,spanish,13 or older,"no, only English or Spanish",no,2025-08-12_16h54.27.029,empathy_intonation_perc_control,2024.2.4,MacIntel,60.0024001,671ad1c838354923130def37,68817205a84113384fffdfe3,689ba9d5596455e7510a0676,,,,,,,,,,,,,0,,,,,,,,,,,,,,,,,,,,,,,,,,,,,,,,,,,,,18,arsa,,,,,340.8432,343.2923,0,1,1.9118,,0,10,10,17,1,REAL,FAKE,,,,,,,,,,,,,,,,,
,,,,,,,,,671ad1c838354923130def37,spanish,13 or older,"no, only English or Spanish",no,2025-08-12_16h54.27.029,empathy_intonation_perc_control,2024.2.4,MacIntel,60.0024001,671ad1c838354923130def37,68817205a84113384fffdfe3,689ba9d5596455e7510a0676,,,,,,,,,,,,,0,,,,,,,,,,,,,,,,,,,,,,,,,,,,,,,,,,,,,84,escuto,,,,,343.2936,344.8912,0,1,1.0527,,0,11,11,83,1,REAL,FAKE,,,,,,,,,,,,,,,,,
,,,,,,,,,671ad1c838354923130def37,spanish,13 or older,"no, only English or Spanish",no,2025-08-12_16h54.27.029,empathy_intonation_perc_control,2024.2.4,MacIntel,60.0024001,671ad1c838354923130def37,68817205a84113384fffdfe3,689ba9d5596455e7510a0676,,,,,,,,,,,,,1,,,,,,,,,,,,,,,,,,,,,,,,,,,,,,,,,,,,,44,cuchara,,,,,344.8922,346.1243,0,0,0.7091,,0,12,12,43,1,REAL,FAKE,,,,,,,,,,,,,,,,,
,,,,,,,,,671ad1c838354923130def37,spanish,13 or older,"no, only English or Spanish",no,2025-08-12_16h54.27.029,empathy_intonation_perc_control,2024.2.4,MacIntel,60.0024001,671ad1c838354923130def37,68817205a84113384fffdfe3,689ba9d5596455e7510a0676,,,,,,,,,,,,,0,,,,,,,,,,,,,,,,,,,,,,,,,,,,,,,,,,,,,10,antar,,,,,346.1249,347.1735,0,1,0.513,,0,13,13,9,1,REAL,FAKE,,,,,,,,,,,,,,,,,
,,,,,,,,,671ad1c838354923130def37,spanish,13 or older,"no, only English or Spanish",no,2025-08-12_16h54.27.029,empathy_intonation_perc_control,2024.2.4,MacIntel,60.0024001,671ad1c838354923130def37,68817205a84113384fffdfe3,689ba9d5596455e7510a0676,,,,,,,,,,,,,1,,,,,,,,,,,,,,,,,,,,,,,,,,,,,,,,,,,,,15,regar,,,,,347.1747,348.357,0,0,0.6547,,0,14,14,14,1,REAL,FAKE,,,,,,,,,,,,,,,,,
,,,,,,,,,671ad1c838354923130def37,spanish,13 or older,"no, only English or Spanish",no,2025-08-12_16h54.27.029,empathy_intonation_perc_control,2024.2.4,MacIntel,60.0024001,671ad1c838354923130def37,68817205a84113384fffdfe3,689ba9d5596455e7510a0676,,,,,,,,,,,,,0,,,,,,,,,,,,,,,,,,,,,,,,,,,,,,,,,,,,,53,vegada,,,,,348.3581,349.6091,0,1,0.7104,,0,15,15,52,1,REAL,FAKE,,,,,,,,,,,,,,,,,
,,,,,,,,,671ad1c838354923130def37,spanish,13 or older,"no, only English or Spanish",no,2025-08-12_16h54.27.029,empathy_intonation_perc_control,2024.2.4,MacIntel,60.0024001,671ad1c838354923130def37,68817205a84113384fffdfe3,689ba9d5596455e7510a0676,,,,,,,,,,,,,1,,,,,,,,,,,,,,,,,,,,,,,,,,,,,,,,,,,,,9,hacha,,,,,349.6103,350.9404,0,0,0.7949,,0,16,16,8,1,REAL,FAKE,,,,,,,,,,,,,,,,,
,,,,,,,,,671ad1c838354923130def37,spanish,13 or older,"no, only English or Spanish",no,2025-08-12_16h54.27.029,empathy_intonation_perc_control,2024.2.4,MacIntel,60.0024001,671ad1c838354923130def37,68817205a84113384fffdfe3,689ba9d5596455e7510a0676,,,,,,,,,,,,,1,,,,,,,,,,,,,,,,,,,,,,,,,,,,,,,,,,,,,41,rebuscar,,,,,350.9414,352.1562,0,0,0.6815,,0,17,17,40,1,REAL,FAKE,,,,,,,,,,,,,,,,,
,,,,,,,,,671ad1c838354923130def37,spanish,13 or older,"no, only English or Spanish",no,2025-08-12_16h54.27.029,empathy_intonation_perc_control,2024.2.4,MacIntel,60.0024001,671ad1c838354923130def37,68817205a84113384fffdfe3,689ba9d5596455e7510a0676,,,,,,,,,,,,,1,,,,,,,,,,,,,,,,,,,,,,,,,,,,,,,,,,,,,26,secuestro,,,,,352.1575,354.2738,0,0,1.5701,,0,18,18,25,1,REAL,FAKE,,,,,,,,,,,,,,,,,
,,,,,,,,,671ad1c838354923130def37,spanish,13 or older,"no, only English or Spanish",no,2025-08-12_16h54.27.029,empathy_intonation_perc_control,2024.2.4,MacIntel,60.0024001,671ad1c838354923130def37,68817205a84113384fffdfe3,689ba9d5596455e7510a0676,,,,,,,,,,,,,1,,,,,,,,,,,,,,,,,,,,,,,,,,,,,,,,,,,,,85,laúd,,,,,354.2751,355.6066,1,1,0.8012,,0,19,19,84,1,REAL,FAKE,,,,,,,,,,,,,,,,,
,,,,,,,,,671ad1c838354923130def37,spanish,13 or older,"no, only English or Spanish",no,2025-08-12_16h54.27.029,empathy_intonation_perc_control,2024.2.4,MacIntel,60.0024001,671ad1c838354923130def37,68817205a84113384fffdfe3,689ba9d5596455e7510a0676,,,,,,,,,,,,,1,,,,,,,,,,,,,,,,,,,,,,,,,,,,,,,,,,,,,89,prisa,,,,,355.6079,357.1417,1,1,1.0082,,0,20,20,88,1,REAL,FAKE,,,,,,,,,,,,,,,,,
,,,,,,,,,671ad1c838354923130def37,spanish,13 or older,"no, only English or Spanish",no,2025-08-12_16h54.27.029,empathy_intonation_perc_control,2024.2.4,MacIntel,60.0024001,671ad1c838354923130def37,68817205a84113384fffdfe3,689ba9d5596455e7510a0676,,,,,,,,,,,,,0,,,,,,,,,,,,,,,,,,,,,,,,,,,,,,,,,,,,,32,fatacidad,,,,,357.1425,358.4898,0,1,0.812,,0,21,21,31,1,REAL,FAKE,,,,,,,,,,,,,,,,,
,,,,,,,,,671ad1c838354923130def37,spanish,13 or older,"no, only English or Spanish",no,2025-08-12_16h54.27.029,empathy_intonation_perc_control,2024.2.4,MacIntel,60.0024001,671ad1c838354923130def37,68817205a84113384fffdfe3,689ba9d5596455e7510a0676,,,,,,,,,,,,,1,,,,,,,,,,,,,,,,,,,,,,,,,,,,,,,,,,,,,78,frondoso,,,,,358.4909,359.9731,0,0,0.9629,,0,22,22,77,1,REAL,FAKE,,,,,,,,,,,,,,,,,
,,,,,,,,,671ad1c838354923130def37,spanish,13 or older,"no, only English or Spanish",no,2025-08-12_16h54.27.029,empathy_intonation_perc_control,2024.2.4,MacIntel,60.0024001,671ad1c838354923130def37,68817205a84113384fffdfe3,689ba9d5596455e7510a0676,,,,,,,,,,,,,1,,,,,,,,,,,,,,,,,,,,,,,,,,,,,,,,,,,,,81,pozo,,,,,359.9743,361.1575,0,0,0.6446,,0,23,23,80,1,REAL,FAKE,,,,,,,,,,,,,,,,,
,,,,,,,,,671ad1c838354923130def37,spanish,13 or older,"no, only English or Spanish",no,2025-08-12_16h54.27.029,empathy_intonation_perc_control,2024.2.4,MacIntel,60.0024001,671ad1c838354923130def37,68817205a84113384fffdfe3,689ba9d5596455e7510a0676,,,,,,,,,,,,,0,,,,,,,,,,,,,,,,,,,,,,,,,,,,,,,,,,,,,17,floroso,,,,,361.1586,362.9912,1,0,1.292,,0,24,24,16,1,REAL,FAKE,,,,,,,,,,,,,,,,,
,,,,,,,,,671ad1c838354923130def37,spanish,13 or older,"no, only English or Spanish",no,2025-08-12_16h54.27.029,empathy_intonation_perc_control,2024.2.4,MacIntel,60.0024001,671ad1c838354923130def37,68817205a84113384fffdfe3,689ba9d5596455e7510a0676,,,,,,,,,,,,,0,,,,,,,,,,,,,,,,,,,,,,,,,,,,,,,,,,,,,47,cartinar,,,,,362.9924,364.3233,1,0,0.7967,,0,25,25,46,1,REAL,FAKE,,,,,,,,,,,,,,,,,
,,,,,,,,,671ad1c838354923130def37,spanish,13 or older,"no, only English or Spanish",no,2025-08-12_16h54.27.029,empathy_intonation_perc_control,2024.2.4,MacIntel,60.0024001,671ad1c838354923130def37,68817205a84113384fffdfe3,689ba9d5596455e7510a0676,,,,,,,,,,,,,1,,,,,,,,,,,,,,,,,,,,,,,,,,,,,,,,,,,,,14,yunque,,,,,364.3241,365.7246,0,0,0.8527,,0,26,26,13,1,REAL,FAKE,,,,,,,,,,,,,,,,,
,,,,,,,,,671ad1c838354923130def37,spanish,13 or older,"no, only English or Spanish",no,2025-08-12_16h54.27.029,empathy_intonation_perc_control,2024.2.4,MacIntel,60.0024001,671ad1c838354923130def37,68817205a84113384fffdfe3,689ba9d5596455e7510a0676,,,,,,,,,,,,,0,,,,,,,,,,,,,,,,,,,,,,,,,,,,,,,,,,,,,58,plaudir,,,,,365.7257,366.9402,1,0,0.684,,0,27,27,57,1,REAL,FAKE,,,,,,,,,,,,,,,,,
,,,,,,,,,671ad1c838354923130def37,spanish,13 or older,"no, only English or Spanish",no,2025-08-12_16h54.27.029,empathy_intonation_perc_control,2024.2.4,MacIntel,60.0024001,671ad1c838354923130def37,68817205a84113384fffdfe3,689ba9d5596455e7510a0676,,,,,,,,,,,,,0,,,,,,,,,,,,,,,,,,,,,,,,,,,,,,,,,,,,,1,terzo,,,,,366.9414,368.5062,0,1,1.0282,,0,28,28,0,1,REAL,FAKE,,,,,,,,,,,,,,,,,
,,,,,,,,,671ad1c838354923130def37,spanish,13 or older,"no, only English or Spanish",no,2025-08-12_16h54.27.029,empathy_intonation_perc_control,2024.2.4,MacIntel,60.0024001,671ad1c838354923130def37,68817205a84113384fffdfe3,689ba9d5596455e7510a0676,,,,,,,,,,,,,1,,,,,,,,,,,,,,,,,,,,,,,,,,,,,,,,,,,,,45,jilguero,,,,,368.5073,370.1567,1,1,1.107,,0,29,29,44,1,REAL,FAKE,,,,,,,,,,,,,,,,,
,,,,,,,,,671ad1c838354923130def37,spanish,13 or older,"no, only English or Spanish",no,2025-08-12_16h54.27.029,empathy_intonation_perc_control,2024.2.4,MacIntel,60.0024001,671ad1c838354923130def37,68817205a84113384fffdfe3,689ba9d5596455e7510a0676,,,,,,,,,,,,,1,,,,,,,,,,,,,,,,,,,,,,,,,,,,,,,,,,,,,39,torpe,,,,,370.1579,371.642,1,1,0.9429,,0,30,30,38,1,REAL,FAKE,,,,,,,,,,,,,,,,,
,,,,,,,,,671ad1c838354923130def37,spanish,13 or older,"no, only English or Spanish",no,2025-08-12_16h54.27.029,empathy_intonation_perc_control,2024.2.4,MacIntel,60.0024001,671ad1c838354923130def37,68817205a84113384fffdfe3,689ba9d5596455e7510a0676,,,,,,,,,,,,,1,,,,,,,,,,,,,,,,,,,,,,,,,,,,,,,,,,,,,91,click the 1 key.,,,,,371.6434,373.6239,1,1,1.4421,,0,31,31,90,1,REAL,FAKE,,,,,,,,,,,,,,,,,
,,,,,,,,,671ad1c838354923130def37,spanish,13 or older,"no, only English or Spanish",no,2025-08-12_16h54.27.029,empathy_intonation_perc_control,2024.2.4,MacIntel,60.0024001,671ad1c838354923130def37,68817205a84113384fffdfe3,689ba9d5596455e7510a0676,,,,,,,,,,,,,1,,,,,,,,,,,,,,,,,,,,,,,,,,,,,,,,,,,,,68,alegre,,,,,373.6252,378.3899,1,1,4.2284,,0,32,32,67,1,REAL,FAKE,,,,,,,,,,,,,,,,,
,,,,,,,,,671ad1c838354923130def37,spanish,13 or older,"no, only English or Spanish",no,2025-08-12_16h54.27.029,empathy_intonation_perc_control,2024.2.4,MacIntel,60.0024001,671ad1c838354923130def37,68817205a84113384fffdfe3,689ba9d5596455e7510a0676,,,,,,,,,,,,,1,,,,,,,,,,,,,,,,,,,,,,,,,,,,,,,,,,,,,67,cabello,,,,,378.3909,381.8733,0,0,2.9456,,0,33,33,66,1,REAL,FAKE,,,,,,,,,,,,,,,,,
,,,,,,,,,671ad1c838354923130def37,spanish,13 or older,"no, only English or Spanish",no,2025-08-12_16h54.27.029,empathy_intonation_perc_control,2024.2.4,MacIntel,60.0024001,671ad1c838354923130def37,68817205a84113384fffdfe3,689ba9d5596455e7510a0676,,,,,,,,,,,,,1,,,,,,,,,,,,,,,,,,,,,,,,,,,,,,,,,,,,,77,tiburón,,,,,381.8746,383.7899,1,1,1.3859,,0,34,34,76,1,REAL,FAKE,,,,,,,,,,,,,,,,,
,,,,,,,,,671ad1c838354923130def37,spanish,13 or older,"no, only English or Spanish",no,2025-08-12_16h54.27.029,empathy_intonation_perc_control,2024.2.4,MacIntel,60.0024001,671ad1c838354923130def37,68817205a84113384fffdfe3,689ba9d5596455e7510a0676,,,,,,,,,,,,,0,,,,,,,,,,,,,,,,,,,,,,,,,,,,,,,,,,,,,4,batillón,,,,,383.7912,385.5903,1,0,1.2595,,0,35,35,3,1,REAL,FAKE,,,,,,,,,,,,,,,,,
,,,,,,,,,671ad1c838354923130def37,spanish,13 or older,"no, only English or Spanish",no,2025-08-12_16h54.27.029,empathy_intonation_perc_control,2024.2.4,MacIntel,60.0024001,671ad1c838354923130def37,68817205a84113384fffdfe3,689ba9d5596455e7510a0676,,,,,,,,,,,,,1,,,,,,,,,,,,,,,,,,,,,,,,,,,,,,,,,,,,,5,zapato,,,,,385.5911,387.5583,0,0,1.4265,,0,36,36,4,1,REAL,FAKE,,,,,,,,,,,,,,,,,
,,,,,,,,,671ad1c838354923130def37,spanish,13 or older,"no, only English or Spanish",no,2025-08-12_16h54.27.029,empathy_intonation_perc_control,2024.2.4,MacIntel,60.0024001,671ad1c838354923130def37,68817205a84113384fffdfe3,689ba9d5596455e7510a0676,,,,,,,,,,,,,1,,,,,,,,,,,,,,,,,,,,,,,,,,,,,,,,,,,,,43,canela,,,,,387.5594,389.1238,0,0,1.0193,,0,37,37,42,1,REAL,FAKE,,,,,,,,,,,,,,,,,
,,,,,,,,,671ad1c838354923130def37,spanish,13 or older,"no, only English or Spanish",no,2025-08-12_16h54.27.029,empathy_intonation_perc_control,2024.2.4,MacIntel,60.0024001,671ad1c838354923130def37,68817205a84113384fffdfe3,689ba9d5596455e7510a0676,,,,,,,,,,,,,1,,,,,,,,,,,,,,,,,,,,,,,,,,,,,,,,,,,,,38,estornudar,,,,,389.1244,390.4729,0,0,0.8181,,0,38,38,37,1,REAL,FAKE,,,,,,,,,,,,,,,,,
,,,,,,,,,671ad1c838354923130def37,spanish,13 or older,"no, only English or Spanish",no,2025-08-12_16h54.27.029,empathy_intonation_perc_control,2024.2.4,MacIntel,60.0024001,671ad1c838354923130def37,68817205a84113384fffdfe3,689ba9d5596455e7510a0676,,,,,,,,,,,,,1,,,,,,,,,,,,,,,,,,,,,,,,,,,,,,,,,,,,,6,tergiversar,,,,,390.4741,391.8913,0,0,0.8701,,0,39,39,5,1,REAL,FAKE,,,,,,,,,,,,,,,,,
,,,,,,,,,671ad1c838354923130def37,spanish,13 or older,"no, only English or Spanish",no,2025-08-12_16h54.27.029,empathy_intonation_perc_control,2024.2.4,MacIntel,60.0024001,671ad1c838354923130def37,68817205a84113384fffdfe3,689ba9d5596455e7510a0676,,,,,,,,,,,,,1,,,,,,,,,,,,,,,,,,,,,,,,,,,,,,,,,,,,,51,candado,,,,,391.8924,393.1576,0,0,0.7218,,0,40,40,50,1,REAL,FAKE,,,,,,,,,,,,,,,,,
,,,,,,,,,671ad1c838354923130def37,spanish,13 or older,"no, only English or Spanish",no,2025-08-12_16h54.27.029,empathy_intonation_perc_control,2024.2.4,MacIntel,60.0024001,671ad1c838354923130def37,68817205a84113384fffdfe3,689ba9d5596455e7510a0676,,,,,,,,,,,,,1,,,,,,,,,,,,,,,,,,,,,,,,,,,,,,,,,,,,,22,lacayo,,,,,393.1586,396.1397,1,1,2.4485,,0,41,41,21,1,REAL,FAKE,,,,,,,,,,,,,,,,,
,,,,,,,,,671ad1c838354923130def37,spanish,13 or older,"no, only English or Spanish",no,2025-08-12_16h54.27.029,empathy_intonation_perc_control,2024.2.4,MacIntel,60.0024001,671ad1c838354923130def37,68817205a84113384fffdfe3,689ba9d5596455e7510a0676,,,,,,,,,,,,,1,,,,,,,,,,,,,,,,,,,,,,,,,,,,,,,,,,,,,75,yacer,,,,,396.1409,397.5731,0,0,0.9121,,0,42,42,74,1,REAL,FAKE,,,,,,,,,,,,,,,,,
,,,,,,,,,671ad1c838354923130def37,spanish,13 or older,"no, only English or Spanish",no,2025-08-12_16h54.27.029,empathy_intonation_perc_control,2024.2.4,MacIntel,60.0024001,671ad1c838354923130def37,68817205a84113384fffdfe3,689ba9d5596455e7510a0676,,,,,,,,,,,,,0,,,,,,,,,,,,,,,,,,,,,,,,,,,,,,,,,,,,,79,tropaje,,,,,397.5742,398.9898,0,1,0.8864,,0,43,43,78,1,REAL,FAKE,,,,,,,,,,,,,,,,,
,,,,,,,,,671ad1c838354923130def37,spanish,13 or older,"no, only English or Spanish",no,2025-08-12_16h54.27.029,empathy_intonation_perc_control,2024.2.4,MacIntel,60.0024001,671ad1c838354923130def37,68817205a84113384fffdfe3,689ba9d5596455e7510a0676,,,,,,,,,,,,,1,,,,,,,,,,,,,,,,,,,,,,,,,,,,,,,,,,,,,60,matar,,,,,398.9914,400.7071,1,1,1.1743,,0,44,44,59,1,REAL,FAKE,,,,,,,,,,,,,,,,,
,,,,,,,,,671ad1c838354923130def37,spanish,13 or older,"no, only English or Spanish",no,2025-08-12_16h54.27.029,empathy_intonation_perc_control,2024.2.4,MacIntel,60.0024001,671ad1c838354923130def37,68817205a84113384fffdfe3,689ba9d5596455e7510a0676,,,,,,,,,,,,,0,,,,,,,,,,,,,,,,,,,,,,,,,,,,,,,,,,,,,23,lampera,,,,,400.7082,401.9227,1,0,0.678,,0,45,45,22,1,REAL,FAKE,,,,,,,,,,,,,,,,,
,,,,,,,,,671ad1c838354923130def37,spanish,13 or older,"no, only English or Spanish",no,2025-08-12_16h54.27.029,empathy_intonation_perc_control,2024.2.4,MacIntel,60.0024001,671ad1c838354923130def37,68817205a84113384fffdfe3,689ba9d5596455e7510a0676,,,,,,,,,,,,,1,,,,,,,,,,,,,,,,,,,,,,,,,,,,,,,,,,,,,73,hervidor,,,,,401.924,403.1057,1,1,0.6438,,0,46,46,72,1,REAL,FAKE,,,,,,,,,,,,,,,,,
,,,,,,,,,671ad1c838354923130def37,spanish,13 or older,"no, only English or Spanish",no,2025-08-12_16h54.27.029,empathy_intonation_perc_control,2024.2.4,MacIntel,60.0024001,671ad1c838354923130def37,68817205a84113384fffdfe3,689ba9d5596455e7510a0676,,,,,,,,,,,,,1,,,,,,,,,,,,,,,,,,,,,,,,,,,,,,,,,,,,,80,hormiga,,,,,403.1068,404.8224,0,0,1.1943,,0,47,47,79,1,REAL,FAKE,,,,,,,,,,,,,,,,,
,,,,,,,,,671ad1c838354923130def37,spanish,13 or older,"no, only English or Spanish",no,2025-08-12_16h54.27.029,empathy_intonation_perc_control,2024.2.4,MacIntel,60.0024001,671ad1c838354923130def37,68817205a84113384fffdfe3,689ba9d5596455e7510a0676,,,,,,,,,,,,,1,,,,,,,,,,,,,,,,,,,,,,,,,,,,,,,,,,,,,11,cenefa,,,,,404.8232,407.1056,0,0,1.7365,,0,48,48,10,1,REAL,FAKE,,,,,,,,,,,,,,,,,
,,,,,,,,,671ad1c838354923130def37,spanish,13 or older,"no, only English or Spanish",no,2025-08-12_16h54.27.029,empathy_intonation_perc_control,2024.2.4,MacIntel,60.0024001,671ad1c838354923130def37,68817205a84113384fffdfe3,689ba9d5596455e7510a0676,,,,,,,,,,,,,0,,,,,,,,,,,,,,,,,,,,,,,,,,,,,,,,,,,,,30,alardio,,,,,407.1064,408.123,0,1,0.4716,,0,49,49,29,1,REAL,FAKE,,,,,,,,,,,,,,,,,
,,,,,,,,,671ad1c838354923130def37,spanish,13 or older,"no, only English or Spanish",no,2025-08-12_16h54.27.029,empathy_intonation_perc_control,2024.2.4,MacIntel,60.0024001,671ad1c838354923130def37,68817205a84113384fffdfe3,689ba9d5596455e7510a0676,,,,,,,,,,,,,0,,,,,,,,,,,,,,,,,,,,,,,,,,,,,,,,,,,,,21,capillo,,,,,408.1242,409.1749,0,1,0.5056,,0,50,50,20,1,REAL,FAKE,,,,,,,,,,,,,,,,,
,,,,,,,,,671ad1c838354923130def37,spanish,13 or older,"no, only English or Spanish",no,2025-08-12_16h54.27.029,empathy_intonation_perc_control,2024.2.4,MacIntel,60.0024001,671ad1c838354923130def37,68817205a84113384fffdfe3,689ba9d5596455e7510a0676,,,,,,,,,,,,,1,,,,,,,,,,,,,,,,,,,,,,,,,,,,,,,,,,,,,86,barato,,,,,409.1761,410.5243,1,1,0.805,,0,51,51,85,1,REAL,FAKE,,,,,,,,,,,,,,,,,
,,,,,,,,,671ad1c838354923130def37,spanish,13 or older,"no, only English or Spanish",no,2025-08-12_16h54.27.029,empathy_intonation_perc_control,2024.2.4,MacIntel,60.0024001,671ad1c838354923130def37,68817205a84113384fffdfe3,689ba9d5596455e7510a0676,,,,,,,,,,,,,0,,,,,,,,,,,,,,,,,,,,,,,,,,,,,,,,,,,,,50,flamida,,,,,410.5254,411.6728,1,0,0.6106,,0,52,52,49,1,REAL,FAKE,,,,,,,,,,,,,,,,,
,,,,,,,,,671ad1c838354923130def37,spanish,13 or older,"no, only English or Spanish",no,2025-08-12_16h54.27.029,empathy_intonation_perc_control,2024.2.4,MacIntel,60.0024001,671ad1c838354923130def37,68817205a84113384fffdfe3,689ba9d5596455e7510a0676,,,,,,,,,,,,,0,,,,,,,,,,,,,,,,,,,,,,,,,,,,,,,,,,,,,35,rompido,,,,,411.6739,413.0412,1,0,0.8195,,0,53,53,34,1,REAL,FAKE,,,,,,,,,,,,,,,,,
,,,,,,,,,671ad1c838354923130def37,spanish,13 or older,"no, only English or Spanish",no,2025-08-12_16h54.27.029,empathy_intonation_perc_control,2024.2.4,MacIntel,60.0024001,671ad1c838354923130def37,68817205a84113384fffdfe3,689ba9d5596455e7510a0676,,,,,,,,,,,,,1,,,,,,,,,,,,,,,,,,,,,,,,,,,,,,,,,,,,,57,tacaño,,,,,413.0426,414.2569,1,1,0.6694,,0,54,54,56,1,REAL,FAKE,,,,,,,,,,,,,,,,,
,,,,,,,,,671ad1c838354923130def37,spanish,13 or older,"no, only English or Spanish",no,2025-08-12_16h54.27.029,empathy_intonation_perc_control,2024.2.4,MacIntel,60.0024001,671ad1c838354923130def37,68817205a84113384fffdfe3,689ba9d5596455e7510a0676,,,,,,,,,,,,,1,,,,,,,,,,,,,,,,,,,,,,,,,,,,,,,,,,,,,49,ganar,,,,,414.258,415.356,0,0,0.5619,,0,55,55,48,1,REAL,FAKE,,,,,,,,,,,,,,,,,
,,,,,,,,,671ad1c838354923130def37,spanish,13 or older,"no, only English or Spanish",no,2025-08-12_16h54.27.029,empathy_intonation_perc_control,2024.2.4,MacIntel,60.0024001,671ad1c838354923130def37,68817205a84113384fffdfe3,689ba9d5596455e7510a0676,,,,,,,,,,,,,1,,,,,,,,,,,,,,,,,,,,,,,,,,,,,,,,,,,,,56,musgo,,,,,415.3572,416.5914,0,0,0.6935,,0,56,56,55,1,REAL,FAKE,,,,,,,,,,,,,,,,,
,,,,,,,,,671ad1c838354923130def37,spanish,13 or older,"no, only English or Spanish",no,2025-08-12_16h54.27.029,empathy_intonation_perc_control,2024.2.4,MacIntel,60.0024001,671ad1c838354923130def37,68817205a84113384fffdfe3,689ba9d5596455e7510a0676,,,,,,,,,,,,,1,,,,,,,,,,,,,,,,,,,,,,,,,,,,,,,,,,,,,71,polvoriento,,,,,416.5926,420.3891,1,1,3.262,,0,57,57,70,1,REAL,FAKE,,,,,,,,,,,,,,,,,
,,,,,,,,,671ad1c838354923130def37,spanish,13 or older,"no, only English or Spanish",no,2025-08-12_16h54.27.029,empathy_intonation_perc_control,2024.2.4,MacIntel,60.0024001,671ad1c838354923130def37,68817205a84113384fffdfe3,689ba9d5596455e7510a0676,,,,,,,,,,,,,0,,,,,,,,,,,,,,,,,,,,,,,,,,,,,,,,,,,,,63,esposante,,,,,420.3903,422.2061,1,0,1.2692,,0,58,58,62,1,REAL,FAKE,,,,,,,,,,,,,,,,,
,,,,,,,,,671ad1c838354923130def37,spanish,13 or older,"no, only English or Spanish",no,2025-08-12_16h54.27.029,empathy_intonation_perc_control,2024.2.4,MacIntel,60.0024001,671ad1c838354923130def37,68817205a84113384fffdfe3,689ba9d5596455e7510a0676,,,,,,,,,,,,,0,,,,,,,,,,,,,,,,,,,,,,,,,,,,,,,,,,,,,19,brecedad,,,,,422.2073,423.5555,0,1,0.8157,,0,59,59,18,1,REAL,FAKE,,,,,,,,,,,,,,,,,
,,,,,,,,,671ad1c838354923130def37,spanish,13 or older,"no, only English or Spanish",no,2025-08-12_16h54.27.029,empathy_intonation_perc_control,2024.2.4,MacIntel,60.0024001,671ad1c838354923130def37,68817205a84113384fffdfe3,689ba9d5596455e7510a0676,,,,,,,,,,,,,1,,,,,,,,,,,,,,,,,,,,,,,,,,,,,,,,,,,,,90,clavel,,,,,423.556,424.9894,0,0,0.8951,,0,60,60,89,1,REAL,FAKE,,,,,,,,,,,,,,,,,
,,,,,,,,,671ad1c838354923130def37,spanish,13 or older,"no, only English or Spanish",no,2025-08-12_16h54.27.029,empathy_intonation_perc_control,2024.2.4,MacIntel,60.0024001,671ad1c838354923130def37,68817205a84113384fffdfe3,689ba9d5596455e7510a0676,,,,,,,,,,,,,1,,,,,,,,,,,,,,,,,,,,,,,,,,,,,,,,,,,,,25,bisagra,,,,,424.9905,426.1899,0,0,0.6626,,0,61,61,24,1,REAL,FAKE,,,,,,,,,,,,,,,,,
,,,,,,,,,671ad1c838354923130def37,spanish,13 or older,"no, only English or Spanish",no,2025-08-12_16h54.27.029,empathy_intonation_perc_control,2024.2.4,MacIntel,60.0024001,671ad1c838354923130def37,68817205a84113384fffdfe3,689ba9d5596455e7510a0676,,,,,,,,,,,,,1,,,,,,,,,,,,,,,,,,,,,,,,,,,,,,,,,,,,,2,pellizcar,,,,,426.1911,428.0073,0,0,1.2771,,0,62,62,1,1,REAL,FAKE,,,,,,,,,,,,,,,,,
,,,,,,,,,671ad1c838354923130def37,spanish,13 or older,"no, only English or Spanish",no,2025-08-12_16h54.27.029,empathy_intonation_perc_control,2024.2.4,MacIntel,60.0024001,671ad1c838354923130def37,68817205a84113384fffdfe3,689ba9d5596455e7510a0676,,,,,,,,,,,,,1,,,,,,,,,,,,,,,,,,,,,,,,,,,,,,,,,,,,,76,atar,,,,,428.0085,429.1909,0,0,0.6463,,0,63,63,75,1,REAL,FAKE,,,,,,,,,,,,,,,,,
,,,,,,,,,671ad1c838354923130def37,spanish,13 or older,"no, only English or Spanish",no,2025-08-12_16h54.27.029,empathy_intonation_perc_control,2024.2.4,MacIntel,60.0024001,671ad1c838354923130def37,68817205a84113384fffdfe3,689ba9d5596455e7510a0676,,,,,,,,,,,,,1,,,,,,,,,,,,,,,,,,,,,,,,,,,,,,,,,,,,,54,fomentar,,,,,429.192,430.3067,0,0,0.5774,,0,64,64,53,1,REAL,FAKE,,,,,,,,,,,,,,,,,
,,,,,,,,,671ad1c838354923130def37,spanish,13 or older,"no, only English or Spanish",no,2025-08-12_16h54.27.029,empathy_intonation_perc_control,2024.2.4,MacIntel,60.0024001,671ad1c838354923130def37,68817205a84113384fffdfe3,689ba9d5596455e7510a0676,,,,,,,,,,,,,1,,,,,,,,,,,,,,,,,,,,,,,,,,,,,,,,,,,,,52,camisa,,,,,430.3078,431.5232,0,0,0.6771,,0,65,65,51,1,REAL,FAKE,,,,,,,,,,,,,,,,,
,,,,,,,,,671ad1c838354923130def37,spanish,13 or older,"no, only English or Spanish",no,2025-08-12_16h54.27.029,empathy_intonation_perc_control,2024.2.4,MacIntel,60.0024001,671ad1c838354923130def37,68817205a84113384fffdfe3,689ba9d5596455e7510a0676,,,,,,,,,,,,,1,,,,,,,,,,,,,,,,,,,,,,,,,,,,,,,,,,,,,31,pandilla,,,,,431.5244,432.758,0,0,0.7135,,0,66,66,30,1,REAL,FAKE,,,,,,,,,,,,,,,,,
,,,,,,,,,671ad1c838354923130def37,spanish,13 or older,"no, only English or Spanish",no,2025-08-12_16h54.27.029,empathy_intonation_perc_control,2024.2.4,MacIntel,60.0024001,671ad1c838354923130def37,68817205a84113384fffdfe3,689ba9d5596455e7510a0676,,,,,,,,,,,,,0,,,,,,,,,,,,,,,,,,,,,,,,,,,,,,,,,,,,,92,click the 0 key.,,,,,432.7587,434.4725,0,1,1.1803,,0,67,67,91,1,REAL,FAKE,,,,,,,,,,,,,,,,,
,,,,,,,,,671ad1c838354923130def37,spanish,13 or older,"no, only English or Spanish",no,2025-08-12_16h54.27.029,empathy_intonation_perc_control,2024.2.4,MacIntel,60.0024001,671ad1c838354923130def37,68817205a84113384fffdfe3,689ba9d5596455e7510a0676,,,,,,,,,,,,,1,,,,,,,,,,,,,,,,,,,,,,,,,,,,,,,,,,,,,40,alfombra,,,,,434.4732,435.8411,0,0,0.8193,,0,68,68,39,1,REAL,FAKE,,,,,,,,,,,,,,,,,
,,,,,,,,,671ad1c838354923130def37,spanish,13 or older,"no, only English or Spanish",no,2025-08-12_16h54.27.029,empathy_intonation_perc_control,2024.2.4,MacIntel,60.0024001,671ad1c838354923130def37,68817205a84113384fffdfe3,689ba9d5596455e7510a0676,,,,,,,,,,,,,0,,,,,,,,,,,,,,,,,,,,,,,,,,,,,,,,,,,,,66,hacido,,,,,435.8423,439.2221,1,0,2.8452,,0,69,69,65,1,REAL,FAKE,,,,,,,,,,,,,,,,,
,,,,,,,,,671ad1c838354923130def37,spanish,13 or older,"no, only English or Spanish",no,2025-08-12_16h54.27.029,empathy_intonation_perc_control,2024.2.4,MacIntel,60.0024001,671ad1c838354923130def37,68817205a84113384fffdfe3,689ba9d5596455e7510a0676,,,,,,,,,,,,,1,,,,,,,,,,,,,,,,,,,,,,,,,,,,,,,,,,,,,88,acantilado,,,,,439.2226,440.7218,0,0,0.9691,,0,70,70,87,1,REAL,FAKE,,,,,,,,,,,,,,,,,
,,,,,,,,,671ad1c838354923130def37,spanish,13 or older,"no, only English or Spanish",no,2025-08-12_16h54.27.029,empathy_intonation_perc_control,2024.2.4,MacIntel,60.0024001,671ad1c838354923130def37,68817205a84113384fffdfe3,689ba9d5596455e7510a0676,,,,,,,,,,,,,1,,,,,,,,,,,,,,,,,,,,,,,,,,,,,,,,,,,,,46,martillo,,,,,440.7224,444.0387,1,1,2.7783,,0,71,71,45,1,REAL,FAKE,,,,,,,,,,,,,,,,,
,,,,,,,,,671ad1c838354923130def37,spanish,13 or older,"no, only English or Spanish",no,2025-08-12_16h54.27.029,empathy_intonation_perc_control,2024.2.4,MacIntel,60.0024001,671ad1c838354923130def37,68817205a84113384fffdfe3,689ba9d5596455e7510a0676,,,,,,,,,,,,,0,,,,,,,,,,,,,,,,,,,,,,,,,,,,,,,,,,,,,87,grodo,,,,,444.0399,445.4577,1,0,0.883,,0,72,72,86,1,REAL,FAKE,,,,,,,,,,,,,,,,,
,,,,,,,,,671ad1c838354923130def37,spanish,13 or older,"no, only English or Spanish",no,2025-08-12_16h54.27.029,empathy_intonation_perc_control,2024.2.4,MacIntel,60.0024001,671ad1c838354923130def37,68817205a84113384fffdfe3,689ba9d5596455e7510a0676,,,,,,,,,,,,,0,,,,,,,,,,,,,,,,,,,,,,,,,,,,,,,,,,,,,74,cintro,,,,,445.4588,446.6074,1,0,0.6039,,0,73,73,73,1,REAL,FAKE,,,,,,,,,,,,,,,,,
,,,,,,,,,671ad1c838354923130def37,spanish,13 or older,"no, only English or Spanish",no,2025-08-12_16h54.27.029,empathy_intonation_perc_control,2024.2.4,MacIntel,60.0024001,671ad1c838354923130def37,68817205a84113384fffdfe3,689ba9d5596455e7510a0676,,,,,,,,,,,,,1,,,,,,,,,,,,,,,,,,,,,,,,,,,,,,,,,,,,,36,loro,,,,,446.6085,448.372,0,0,1.2277,,0,74,74,35,1,REAL,FAKE,,,,,,,,,,,,,,,,,
,,,,,,,,,671ad1c838354923130def37,spanish,13 or older,"no, only English or Spanish",no,2025-08-12_16h54.27.029,empathy_intonation_perc_control,2024.2.4,MacIntel,60.0024001,671ad1c838354923130def37,68817205a84113384fffdfe3,689ba9d5596455e7510a0676,,,,,,,,,,,,,1,,,,,,,,,,,,,,,,,,,,,,,,,,,,,,,,,,,,,24,látigo,,,,,448.3732,449.6222,1,1,0.7123,,0,75,75,23,1,REAL,FAKE,,,,,,,,,,,,,,,,,
,,,,,,,,,671ad1c838354923130def37,spanish,13 or older,"no, only English or Spanish",no,2025-08-12_16h54.27.029,empathy_intonation_perc_control,2024.2.4,MacIntel,60.0024001,671ad1c838354923130def37,68817205a84113384fffdfe3,689ba9d5596455e7510a0676,,,,,,,,,,,,,0,,,,,,,,,,,,,,,,,,,,,,,,,,,,,,,,,,,,,16,abracer,,,,,449.6234,450.9748,0,1,0.8188,,0,76,76,15,1,REAL,FAKE,,,,,,,,,,,,,,,,,
,,,,,,,,,671ad1c838354923130def37,spanish,13 or older,"no, only English or Spanish",no,2025-08-12_16h54.27.029,empathy_intonation_perc_control,2024.2.4,MacIntel,60.0024001,671ad1c838354923130def37,68817205a84113384fffdfe3,689ba9d5596455e7510a0676,,,,,,,,,,,,,1,,,,,,,,,,,,,,,,,,,,,,,,,,,,,,,,,,,,,83,guante,,,,,450.976,453.2055,1,1,1.6964,,0,77,77,82,1,REAL,FAKE,,,,,,,,,,,,,,,,,
,,,,,,,,,671ad1c838354923130def37,spanish,13 or older,"no, only English or Spanish",no,2025-08-12_16h54.27.029,empathy_intonation_perc_control,2024.2.4,MacIntel,60.0024001,671ad1c838354923130def37,68817205a84113384fffdfe3,689ba9d5596455e7510a0676,,,,,,,,,,,,,1,,,,,,,,,,,,,,,,,,,,,,,,,,,,,,,,,,,,,64,orgulloso,,,,,453.2065,454.5055,0,0,0.7676,,0,78,78,63,1,REAL,FAKE,,,,,,,,,,,,,,,,,
,,,,,,,,,671ad1c838354923130def37,spanish,13 or older,"no, only English or Spanish",no,2025-08-12_16h54.27.029,empathy_intonation_perc_control,2024.2.4,MacIntel,60.0024001,671ad1c838354923130def37,68817205a84113384fffdfe3,689ba9d5596455e7510a0676,,,,,,,,,,,,,0,,,,,,,,,,,,,,,,,,,,,,,,,,,,,,,,,,,,,82,empirador,,,,,454.5064,456.2884,1,0,1.2449,,0,79,79,81,1,REAL,FAKE,,,,,,,,,,,,,,,,,
,,,,,,,,,671ad1c838354923130def37,spanish,13 or older,"no, only English or Spanish",no,2025-08-12_16h54.27.029,empathy_intonation_perc_control,2024.2.4,MacIntel,60.0024001,671ad1c838354923130def37,68817205a84113384fffdfe3,689ba9d5596455e7510a0676,,,,,,,,,,,,,0,,,,,,,,,,,,,,,,,,,,,,,,,,,,,,,,,,,,,8,cadeña,,,,,456.2897,457.3556,1,0,0.5457,,0,80,80,7,1,REAL,FAKE,,,,,,,,,,,,,,,,,
,,,,,,,,,671ad1c838354923130def37,spanish,13 or older,"no, only English or Spanish",no,2025-08-12_16h54.27.029,empathy_intonation_perc_control,2024.2.4,MacIntel,60.0024001,671ad1c838354923130def37,68817205a84113384fffdfe3,689ba9d5596455e7510a0676,,,,,,,,,,,,,1,,,,,,,,,,,,,,,,,,,,,,,,,,,,,,,,,,,,,48,ladrón,,,,,457.3567,458.6549,1,1,0.7686,,0,81,81,47,1,REAL,FAKE,,,,,,,,,,,,,,,,,
,,,,,,,,,671ad1c838354923130def37,spanish,13 or older,"no, only English or Spanish",no,2025-08-12_16h54.27.029,empathy_intonation_perc_control,2024.2.4,MacIntel,60.0024001,671ad1c838354923130def37,68817205a84113384fffdfe3,689ba9d5596455e7510a0676,,,,,,,,,,,,,0,,,,,,,,,,,,,,,,,,,,,,,,,,,,,,,,,,,,,29,decar,,,,,458.656,460.7551,0,1,1.5772,,0,82,82,28,1,REAL,FAKE,,,,,,,,,,,,,,,,,
,,,,,,,,,671ad1c838354923130def37,spanish,13 or older,"no, only English or Spanish",no,2025-08-12_16h54.27.029,empathy_intonation_perc_control,2024.2.4,MacIntel,60.0024001,671ad1c838354923130def37,68817205a84113384fffdfe3,689ba9d5596455e7510a0676,,,,,,,,,,,,,1,,,,,,,,,,,,,,,,,,,,,,,,,,,,,,,,,,,,,7,pésimo,,,,,460.7557,463.139,1,1,1.8461,,0,83,83,6,1,REAL,FAKE,,,,,,,,,,,,,,,,,
,,,,,,,,,671ad1c838354923130def37,spanish,13 or older,"no, only English or Spanish",no,2025-08-12_16h54.27.029,empathy_intonation_perc_control,2024.2.4,MacIntel,60.0024001,671ad1c838354923130def37,68817205a84113384fffdfe3,689ba9d5596455e7510a0676,,,,,,,,,,,,,1,,,,,,,,,,,,,,,,,,,,,,,,,,,,,,,,,,,,,28,merodear,,,,,463.1403,464.7222,0,0,1.0593,,0,84,84,27,1,REAL,FAKE,,,,,,,,,,,,,,,,,
,,,,,,,,,671ad1c838354923130def37,spanish,13 or older,"no, only English or Spanish",no,2025-08-12_16h54.27.029,empathy_intonation_perc_control,2024.2.4,MacIntel,60.0024001,671ad1c838354923130def37,68817205a84113384fffdfe3,689ba9d5596455e7510a0676,,,,,,,,,,,,,1,,,,,,,,,,,,,,,,,,,,,,,,,,,,,,,,,,,,,37,granuja,,,,,464.7234,469.6741,1,1,4.4038,,0,85,85,36,1,REAL,FAKE,,,,,,,,,,,,,,,,,
,,,,,,,,,671ad1c838354923130def37,spanish,13 or older,"no, only English or Spanish",no,2025-08-12_16h54.27.029,empathy_intonation_perc_control,2024.2.4,MacIntel,60.0024001,671ad1c838354923130def37,68817205a84113384fffdfe3,689ba9d5596455e7510a0676,,,,,,,,,,,,,0,,,,,,,,,,,,,,,,,,,,,,,,,,,,,,,,,,,,,72,pemición,,,,,469.6753,471.2573,1,0,1.0444,,0,86,86,71,1,REAL,FAKE,,,,,,,,,,,,,,,,,
,,,,,,,,,671ad1c838354923130def37,spanish,13 or older,"no, only English or Spanish",no,2025-08-12_16h54.27.029,empathy_intonation_perc_control,2024.2.4,MacIntel,60.0024001,671ad1c838354923130def37,68817205a84113384fffdfe3,689ba9d5596455e7510a0676,,,,,,,,,,,,,0,,,,,,,,,,,,,,,,,,,,,,,,,,,,,,,,,,,,,70,temblo,,,,,471.2585,473.4896,0,1,1.6906,,0,87,87,69,1,REAL,FAKE,,,,,,,,,,,,,,,,,
,,,,,,,,,671ad1c838354923130def37,spanish,13 or older,"no, only English or Spanish",no,2025-08-12_16h54.27.029,empathy_intonation_perc_control,2024.2.4,MacIntel,60.0024001,671ad1c838354923130def37,68817205a84113384fffdfe3,689ba9d5596455e7510a0676,,,,,,,,,,,,,1,,,,,,,,,,,,,,,,,,,,,,,,,,,,,,,,,,,,,3,pulmones,,,,,473.4907,475.6553,0,0,1.6284,,0,88,88,2,1,REAL,FAKE,,,,,,,,,,,,,,,,,
,,,,,,,,,671ad1c838354923130def37,spanish,13 or older,"no, only English or Spanish",no,2025-08-12_16h54.27.029,empathy_intonation_perc_control,2024.2.4,MacIntel,60.0024001,671ad1c838354923130def37,68817205a84113384fffdfe3,689ba9d5596455e7510a0676,,,,,,,,,,,,,1,,,,,,,,,,,,,,,,,,,,,,,,,,,,,,,,,,,,,13,helar,,,,,475.6565,476.7883,0,0,0.5954,,0,89,89,12,1,REAL,FAKE,,,,,,,,,,,,,,,,,
,,,,,,,,,671ad1c838354923130def37,spanish,13 or older,"no, only English or Spanish",no,2025-08-12_16h54.27.029,empathy_intonation_perc_control,2024.2.4,MacIntel,60.0024001,671ad1c838354923130def37,68817205a84113384fffdfe3,689ba9d5596455e7510a0676,,,,,,,,,,,,,1,,,,,,,,,,,,,,,,,,,,,,,,,,,,,,,,,,,,,55,nevar,,,,,476.7895,477.7545,0,0,0.4341,,0,90,90,54,1,REAL,FAKE,,,,,,,,,,,,,,,,,
,,,,,,,,,671ad1c838354923130def37,spanish,13 or older,"no, only English or Spanish",no,2025-08-12_16h54.27.029,empathy_intonation_perc_control,2024.2.4,MacIntel,60.0024001,671ad1c838354923130def37,68817205a84113384fffdfe3,689ba9d5596455e7510a0676,,,,,,,,,,,,,0,,,,,,,,,,,,,,,,,,,,,,,,,,,,,,,,,,,,,33,pauca,,,,,477.7557,478.8567,0,1,0.5704,,0,91,91,32,1,REAL,FAKE,,,,,,,,,,,,,,,,,
,,,,,,,,,671ad1c838354923130def37,spanish,13 or older,"no, only English or Spanish",no,2025-08-12_16h54.27.029,empathy_intonation_perc_control,2024.2.4,MacIntel,60.0024001,671ad1c838354923130def37,68817205a84113384fffdfe3,689ba9d5596455e7510a0676,,,,,,,,,,,,,,,,,,,,,,,,,,,,,,,,,,,,,,,,,,,,,,,,,,,,,,,,,,,,,,,,,,,,,478.8576,483.5219,,,,,,,,,,,,,,,
,,,,,,,,,671ad1c838354923130def37,spanish,13 or older,"no, only English or Spanish",no,2025-08-12_16h54.27.029,empathy_intonation_perc_control,2024.2.4,MacIntel,60.0024001,671ad1c838354923130def37,68817205a84113384fffdfe3,689ba9d5596455e7510a0676,,,,,,,,,,,,,,,,,,,,,,,,,,,1,,,,,,,,,,,,,,,,,,,,,,,,,,,,,,,,,,,,,,,,,,,,483.5348,488.4741,slightly agree,0,0,0,0,1,I can easily tell if someone else wants to enter a conversation.,1,0,1,0,,
,,,,,,,,,671ad1c838354923130def37,spanish,13 or older,"no, only English or Spanish",no,2025-08-12_16h54.27.029,empathy_intonation_perc_control,2024.2.4,MacIntel,60.0024001,671ad1c838354923130def37,68817205a84113384fffdfe3,689ba9d5596455e7510a0676,,,,,,,,,,,,,,,,,,,,,,,,,,,2,,,,,,,,,,,,,,,,,,,,,,,,,,,,,,,,,,,,,,,,,,,,488.4761,490.7382,slightly agree,0,1,1,1,1,I prefer animals to humans.,0,1,0,0,,
,,,,,,,,,671ad1c838354923130def37,spanish,13 or older,"no, only English or Spanish",no,2025-08-12_16h54.27.029,empathy_intonation_perc_control,2024.2.4,MacIntel,60.0024001,671ad1c838354923130def37,68817205a84113384fffdfe3,689ba9d5596455e7510a0676,,,,,,,,,,,,,,,,,,,,,,,,,,,3,,,,,,,,,,,,,,,,,,,,,,,,,,,,,,,,,,,,,,,,,,,,490.7391,493.04,slightly agree,0,2,2,2,1,I try to keep up with the current trends and fashions.,0,1,0,0,,
,,,,,,,,,671ad1c838354923130def37,spanish,13 or older,"no, only English or Spanish",no,2025-08-12_16h54.27.029,empathy_intonation_perc_control,2024.2.4,MacIntel,60.0024001,671ad1c838354923130def37,68817205a84113384fffdfe3,689ba9d5596455e7510a0676,,,,,,,,,,,,,,,,,,,,,,,,,,,4,,,,,,,,,,,,,,,,,,,,,,,,,,,,,,,,,,,,,,,,,,,,493.0423,499.8878,strongly agree,0,3,3,3,1,"I find it difficult to explain to others things that I understand easily,   when they don't understand it first time.",1,0,0,1,,
,,,,,,,,,671ad1c838354923130def37,spanish,13 or older,"no, only English or Spanish",no,2025-08-12_16h54.27.029,empathy_intonation_perc_control,2024.2.4,MacIntel,60.0024001,671ad1c838354923130def37,68817205a84113384fffdfe3,689ba9d5596455e7510a0676,,,,,,,,,,,,,,,,,,,,,,,,,,,5,,,,,,,,,,,,,,,,,,,,,,,,,,,,,,,,,,,,,,,,,,,,499.8888,502.4742,slightly agree,0,4,4,4,1,I dream most nights.,0,1,0,0,,
,,,,,,,,,671ad1c838354923130def37,spanish,13 or older,"no, only English or Spanish",no,2025-08-12_16h54.27.029,empathy_intonation_perc_control,2024.2.4,MacIntel,60.0024001,671ad1c838354923130def37,68817205a84113384fffdfe3,689ba9d5596455e7510a0676,,,,,,,,,,,,,,,,,,,,,,,,,,,6,,,,,,,,,,,,,,,,,,,,,,,,,,,,,,,,,,,,,,,,,,,,502.4755,504.206,slightly agree,0,5,5,5,1,I really enjoy caring for other people.,1,0,1,0,,
,,,,,,,,,671ad1c838354923130def37,spanish,13 or older,"no, only English or Spanish",no,2025-08-12_16h54.27.029,empathy_intonation_perc_control,2024.2.4,MacIntel,60.0024001,671ad1c838354923130def37,68817205a84113384fffdfe3,689ba9d5596455e7510a0676,,,,,,,,,,,,,,,,,,,,,,,,,,,7,,,,,,,,,,,,,,,,,,,,,,,,,,,,,,,,,,,,,,,,,,,,504.208,505.7739,slightly agree,0,6,6,6,1,I try to solve my own problems rather than discussing them with others.,0,1,0,0,,
,,,,,,,,,671ad1c838354923130def37,spanish,13 or older,"no, only English or Spanish",no,2025-08-12_16h54.27.029,empathy_intonation_perc_control,2024.2.4,MacIntel,60.0024001,671ad1c838354923130def37,68817205a84113384fffdfe3,689ba9d5596455e7510a0676,,,,,,,,,,,,,,,,,,,,,,,,,,,8,,,,,,,,,,,,,,,,,,,,,,,,,,,,,,,,,,,,,,,,,,,,505.7755,509.6889,slightly disagree,0,7,7,7,1,I find it hard to know what to do in a social situation.,1,0,0,1,,
,,,,,,,,,671ad1c838354923130def37,spanish,13 or older,"no, only English or Spanish",no,2025-08-12_16h54.27.029,empathy_intonation_perc_control,2024.2.4,MacIntel,60.0024001,671ad1c838354923130def37,68817205a84113384fffdfe3,689ba9d5596455e7510a0676,,,,,,,,,,,,,,,,,,,,,,,,,,,9,,,,,,,,,,,,,,,,,,,,,,,,,,,,,,,,,,,,,,,,,,,,509.6906,513.3891,slightly agree,0,8,8,8,1,I am at my best first thing in the morning.,0,1,0,0,,
,,,,,,,,,671ad1c838354923130def37,spanish,13 or older,"no, only English or Spanish",no,2025-08-12_16h54.27.029,empathy_intonation_perc_control,2024.2.4,MacIntel,60.0024001,671ad1c838354923130def37,68817205a84113384fffdfe3,689ba9d5596455e7510a0676,,,,,,,,,,,,,,,,,,,,,,,,,,,10,,,,,,,,,,,,,,,,,,,,,,,,,,,,,,,,,,,,,,,,,,,,513.3911,518.0721,slightly agree,0,9,9,9,1,People often tell me that I went too far in driving my point home in a discussion.,1,0,0,1,,
,,,,,,,,,671ad1c838354923130def37,spanish,13 or older,"no, only English or Spanish",no,2025-08-12_16h54.27.029,empathy_intonation_perc_control,2024.2.4,MacIntel,60.0024001,671ad1c838354923130def37,68817205a84113384fffdfe3,689ba9d5596455e7510a0676,,,,,,,,,,,,,,,,,,,,,,,,,,,11,,,,,,,,,,,,,,,,,,,,,,,,,,,,,,,,,,,,,,,,,,,,518.0741,523.0556,strongly disagree,0,10,10,10,1,It doesn't bother me too much if I am late meeting a friend.,1,0,0,1,,
,,,,,,,,,671ad1c838354923130def37,spanish,13 or older,"no, only English or Spanish",no,2025-08-12_16h54.27.029,empathy_intonation_perc_control,2024.2.4,MacIntel,60.0024001,671ad1c838354923130def37,68817205a84113384fffdfe3,689ba9d5596455e7510a0676,,,,,,,,,,,,,,,,,,,,,,,,,,,12,,,,,,,,,,,,,,,,,,,,,,,,,,,,,,,,,,,,,,,,,,,,523.0575,526.0376,strongly disagree,0,11,11,11,1,"Friendships and relationships are just too difficult, so I tend not to 
  bother with them.",1,0,0,1,,
,,,,,,,,,671ad1c838354923130def37,spanish,13 or older,"no, only English or Spanish",no,2025-08-12_16h54.27.029,empathy_intonation_perc_control,2024.2.4,MacIntel,60.0024001,671ad1c838354923130def37,68817205a84113384fffdfe3,689ba9d5596455e7510a0676,,,,,,,,,,,,,,,,,,,,,,,,,,,13,,,,,,,,,,,,,,,,,,,,,,,,,,,,,,,,,,,,,,,,,,,,526.0393,530.9039,strongly agree,0,12,12,12,1,"I would never break a law, no matter how minor.",0,1,0,0,,
,,,,,,,,,671ad1c838354923130def37,spanish,13 or older,"no, only English or Spanish",no,2025-08-12_16h54.27.029,empathy_intonation_perc_control,2024.2.4,MacIntel,60.0024001,671ad1c838354923130def37,68817205a84113384fffdfe3,689ba9d5596455e7510a0676,,,,,,,,,,,,,,,,,,,,,,,,,,,14,,,,,,,,,,,,,,,,,,,,,,,,,,,,,,,,,,,,,,,,,,,,530.9055,536.6875,slightly disagree,0,13,13,13,1,I often find it difficult to judge if something is rude or polite.,1,0,0,1,,
,,,,,,,,,671ad1c838354923130def37,spanish,13 or older,"no, only English or Spanish",no,2025-08-12_16h54.27.029,empathy_intonation_perc_control,2024.2.4,MacIntel,60.0024001,671ad1c838354923130def37,68817205a84113384fffdfe3,689ba9d5596455e7510a0676,,,,,,,,,,,,,,,,,,,,,,,,,,,15,,,,,,,,,,,,,,,,,,,,,,,,,,,,,,,,,,,,,,,,,,,,536.6885,542.3536,slightly agree,0,14,14,14,1,"In a conversation, I tend to focus on my own thoughts rather than on what 
  my listener might be thinking.",1,0,0,1,,
,,,,,,,,,671ad1c838354923130def37,spanish,13 or older,"no, only English or Spanish",no,2025-08-12_16h54.27.029,empathy_intonation_perc_control,2024.2.4,MacIntel,60.0024001,671ad1c838354923130def37,68817205a84113384fffdfe3,689ba9d5596455e7510a0676,,,,,,,,,,,,,,,,,,,,,,,,,,,16,,,,,,,,,,,,,,,,,,,,,,,,,,,,,,,,,,,,,,,,,,,,542.3552,548.0539,strongly disagree,0,15,15,15,1,I prefer practical jokes to verbal humor.,0,1,0,0,,
,,,,,,,,,671ad1c838354923130def37,spanish,13 or older,"no, only English or Spanish",no,2025-08-12_16h54.27.029,empathy_intonation_perc_control,2024.2.4,MacIntel,60.0024001,671ad1c838354923130def37,68817205a84113384fffdfe3,689ba9d5596455e7510a0676,,,,,,,,,,,,,,,,,,,,,,,,,,,17,,,,,,,,,,,,,,,,,,,,,,,,,,,,,,,,,,,,,,,,,,,,548.0545,551.1201,slightly disagree,0,16,16,16,1,I live life for today rather than the future.,0,1,0,0,,
,,,,,,,,,671ad1c838354923130def37,spanish,13 or older,"no, only English or Spanish",no,2025-08-12_16h54.27.029,empathy_intonation_perc_control,2024.2.4,MacIntel,60.0024001,671ad1c838354923130def37,68817205a84113384fffdfe3,689ba9d5596455e7510a0676,,,,,,,,,,,,,,,,,,,,,,,,,,,18,,,,,,,,,,,,,,,,,,,,,,,,,,,,,,,,,,,,,,,,,,,,551.1215,555.5375,slightly agree,0,17,17,17,1,"When I was a child, I enjoyed cutting up worms to see what would happen.",1,0,0,1,,
,,,,,,,,,671ad1c838354923130def37,spanish,13 or older,"no, only English or Spanish",no,2025-08-12_16h54.27.029,empathy_intonation_perc_control,2024.2.4,MacIntel,60.0024001,671ad1c838354923130def37,68817205a84113384fffdfe3,689ba9d5596455e7510a0676,,,,,,,,,,,,,,,,,,,,,,,,,,,19,,,,,,,,,,,,,,,,,,,,,,,,,,,,,,,,,,,,,,,,,,,,555.5392,565.3714,slightly agree,0,18,18,18,1,I can pick up quickly if someone says one thing but means another.,1,0,1,0,,
,,,,,,,,,671ad1c838354923130def37,spanish,13 or older,"no, only English or Spanish",no,2025-08-12_16h54.27.029,empathy_intonation_perc_control,2024.2.4,MacIntel,60.0024001,671ad1c838354923130def37,68817205a84113384fffdfe3,689ba9d5596455e7510a0676,,,,,,,,,,,,,,,,,,,,,,,,,,,20,,,,,,,,,,,,,,,,,,,,,,,,,,,,,,,,,,,,,,,,,,,,565.3723,567.6382,slightly agree,0,19,19,19,1,I tend to have very strong opinions about morality.,0,1,0,0,,
,,,,,,,,,671ad1c838354923130def37,spanish,13 or older,"no, only English or Spanish",no,2025-08-12_16h54.27.029,empathy_intonation_perc_control,2024.2.4,MacIntel,60.0024001,671ad1c838354923130def37,68817205a84113384fffdfe3,689ba9d5596455e7510a0676,,,,,,,,,,,,,,,,,,,,,,,,,,,21,,,,,,,,,,,,,,,,,,,,,,,,,,,,,,,,,,,,,,,,,,,,567.6397,572.4376,strongly disagree,0,20,20,20,1,It is hard for me to see why some things upset people so much.,1,0,0,1,,
,,,,,,,,,671ad1c838354923130def37,spanish,13 or older,"no, only English or Spanish",no,2025-08-12_16h54.27.029,empathy_intonation_perc_control,2024.2.4,MacIntel,60.0024001,671ad1c838354923130def37,68817205a84113384fffdfe3,689ba9d5596455e7510a0676,,,,,,,,,,,,,,,,,,,,,,,,,,,22,,,,,,,,,,,,,,,,,,,,,,,,,,,,,,,,,,,,,,,,,,,,572.4384,574.9373,strongly agree,0,21,21,21,1,I find it easy to put myself in somebody else's shoes.,1,0,1,0,,
,,,,,,,,,671ad1c838354923130def37,spanish,13 or older,"no, only English or Spanish",no,2025-08-12_16h54.27.029,empathy_intonation_perc_control,2024.2.4,MacIntel,60.0024001,671ad1c838354923130def37,68817205a84113384fffdfe3,689ba9d5596455e7510a0676,,,,,,,,,,,,,,,,,,,,,,,,,,,23,,,,,,,,,,,,,,,,,,,,,,,,,,,,,,,,,,,,,,,,,,,,574.9383,579.5052,slightly disagree,0,22,22,22,1,I think that good manners are the most important thing a parent can teach their child.,0,1,0,0,,
,,,,,,,,,671ad1c838354923130def37,spanish,13 or older,"no, only English or Spanish",no,2025-08-12_16h54.27.029,empathy_intonation_perc_control,2024.2.4,MacIntel,60.0024001,671ad1c838354923130def37,68817205a84113384fffdfe3,689ba9d5596455e7510a0676,,,,,,,,,,,,,,,,,,,,,,,,,,,24,,,,,,,,,,,,,,,,,,,,,,,,,,,,,,,,,,,,,,,,,,,,579.5068,581.5536,slightly disagree,0,23,23,23,1,I like to do things on the spur of the moment.,0,1,0,0,,
