instructions_2afc.started,instructions_2afc.stopped,instructions_2afc_loop.thisRepN,instructions_2afc_loop.thisTrialN,instructions_2afc_loop.thisN,instructions_2afc_loop.thisIndex,instructions_2afc_loop.ran,instructions_text,continue_text,participant_id,"What variety of Spanish are you most familiar with? (e.g., Peruvian, Spanish, Mexican)",At what age did you begin learning Spanish?,Are you proficient in any languages other than English/Spanish?,"Are you familiar with Caribbean (e.g., Caribbean, Puerto Rican) or Galician Spanish?",date,expName,psychopyVersion,OS,frameRate,id,study_id,session,practice_2afc.started,practice_2afc.stopped,key_resp_2afc_practice.keys,key_resp_2afc_practice.corr,key_resp_2afc_practice.rt,key_resp_2afc_practice.duration,trials_2afc_practice_loop.thisRepN,trials_2afc_practice_loop.thisTrialN,trials_2afc_practice_loop.thisN,trials_2afc_practice_loop.thisIndex,trials_2afc_practice_loop.ran,path,correct_response,check_2afc.started,check_2afc.stopped,trial_2afc.started,trial_2afc.stopped,key_resp_2afc_trial.keys,key_resp_2afc_trial.corr,key_resp_2afc_trial.rt,key_resp_2afc_trial.duration,trials_2afc_loop.thisRepN,trials_2afc_loop.thisTrialN,trials_2afc_loop.thisN,trials_2afc_loop.thisIndex,trials_2afc_loop.ran,item_num,target,variety,instructions_lextale.started,instructions_lextale.stopped,instructions_lextale_loop.thisRepN,instructions_lextale_loop.thisTrialN,instructions_lextale_loop.thisN,instructions_lextale_loop.thisIndex,instructions_lextale_loop.ran,practice_lextale.started,practice_lextale.stopped,key_resp_lextale_practice.keys,key_resp_lextale_practice.corr,key_resp_lextale_practice.rt,key_resp_lextale_practice.duration,practice_feedback_lextale.started,practice_feedback_lextale.stopped,trials_lextale_practice_loop.thisRepN,trials_lextale_practice_loop.thisTrialN,trials_lextale_practice_loop.thisN,trials_lextale_practice_loop.thisIndex,trials_lextale_practice_loop.ran,stim,word,prac_button_real,prac_button_false,check_lextale.started,check_lextale.stopped,trial_lextale.started,trial_lextale.stopped,key_resp_lextale_trial.keys,key_resp_lextale_trial.corr,key_resp_lextale_trial.rt,key_resp_lextale_trial.duration,trials_lextale_loop.thisRepN,trials_lextale_loop.thisTrialN,trials_lextale_loop.thisN,trials_lextale_loop.thisIndex,trials_lextale_loop.ran,button_real,button_false,instructions_eq.started,instructions_eq.stopped,trial_eq.started,trial_eq.stopped,slider_eq_trial.response,trials_eq_loop.thisRepN,trials_eq_loop.thisTrialN,trials_eq_loop.thisN,trials_eq_loop.thisIndex,trials_eq_loop.ran,item,is_test_item,is_distractor,is_agree_score,is_disagree_score,end_exp.started,end_exp.stopped
0.0205,32.112,0,0,0,0,1,"In the following task you are going to hear a series of utterances. 

  You will decide if the utterances sound like questions or not using your keyboard.", (press the spacebar to continue),6721467438f857b0641618f5,Puerto Rican Spanish,13 or older,"no, only English or Spanish",yes,2025-08-10_15h57.04.953,empathy_intonation_perc_control,2024.2.4,Win32,60.24096386,6721467438f857b0641618f5,68817205a84113384fffdfe3,6898f94f697f6eafb66bde66,,,,,,,,,,,,,,,,,,,,,,,,,,,,,,,,,,,,,,,,,,,,,,,,,,,,,,,,,,,,,,,,,,,,,,,,,,,,,,,,,,,,,
32.1168,43.7613,0,1,1,1,1,"If you believe the utterance is a question, type '1' (for 'yes') and if you do not 
  believe it is a question type '0' (for 'no').

  Let's practice a bit...", (press the spacebar to continue),6721467438f857b0641618f5,Puerto Rican Spanish,13 or older,"no, only English or Spanish",yes,2025-08-10_15h57.04.953,empathy_intonation_perc_control,2024.2.4,Win32,60.24096386,6721467438f857b0641618f5,68817205a84113384fffdfe3,6898f94f697f6eafb66bde66,,,,,,,,,,,,,,,,,,,,,,,,,,,,,,,,,,,,,,,,,,,,,,,,,,,,,,,,,,,,,,,,,,,,,,,,,,,,,,,,,,,,,
,,,,,,,,,6721467438f857b0641618f5,Puerto Rican Spanish,13 or older,"no, only English or Spanish",yes,2025-08-10_15h57.04.953,empathy_intonation_perc_control,2024.2.4,Win32,60.24096386,6721467438f857b0641618f5,68817205a84113384fffdfe3,6898f94f697f6eafb66bde66,43.7796,46.2444,0,1,1.9343,,0,0,0,4,1,./stim/wavs/cuban_statement_filler_Cocinabas-por-la-noche.wav,0,,,,,,,,,,,,,,,,,,,,,,,,,,,,,,,,,,,,,,,,,,,,,,,,,,,,,,,,,,,,,,,,,,,,,,,,
,,,,,,,,,6721467438f857b0641618f5,Puerto Rican Spanish,13 or older,"no, only English or Spanish",yes,2025-08-10_15h57.04.953,empathy_intonation_perc_control,2024.2.4,Win32,60.24096386,6721467438f857b0641618f5,68817205a84113384fffdfe3,6898f94f697f6eafb66bde66,46.2461,49.0775,1,0,2.302,,0,1,1,7,1,./stim/wavs/puertorican_statement_filler_La-nina-pinta-con-su-amiga.wav,0,,,,,,,,,,,,,,,,,,,,,,,,,,,,,,,,,,,,,,,,,,,,,,,,,,,,,,,,,,,,,,,,,,,,,,,,
,,,,,,,,,6721467438f857b0641618f5,Puerto Rican Spanish,13 or older,"no, only English or Spanish",yes,2025-08-10_15h57.04.953,empathy_intonation_perc_control,2024.2.4,Win32,60.24096386,6721467438f857b0641618f5,68817205a84113384fffdfe3,6898f94f697f6eafb66bde66,49.0789,51.427,0,1,1.815,,0,2,2,5,1,./stim/wavs/andalusian_statement_filler_Alberto-nunca-se-afeita.wav,0,,,,,,,,,,,,,,,,,,,,,,,,,,,,,,,,,,,,,,,,,,,,,,,,,,,,,,,,,,,,,,,,,,,,,,,,
,,,,,,,,,6721467438f857b0641618f5,Puerto Rican Spanish,13 or older,"no, only English or Spanish",yes,2025-08-10_15h57.04.953,empathy_intonation_perc_control,2024.2.4,Win32,60.24096386,6721467438f857b0641618f5,68817205a84113384fffdfe3,6898f94f697f6eafb66bde66,51.4282,55.0937,1,1,3.1422,,0,3,3,0,1,./stim/wavs/castilian_question_filler_Mi-esposo-conoce-al-chico.wav,1,,,,,,,,,,,,,,,,,,,,,,,,,,,,,,,,,,,,,,,,,,,,,,,,,,,,,,,,,,,,,,,,,,,,,,,,
,,,,,,,,,6721467438f857b0641618f5,Puerto Rican Spanish,13 or older,"no, only English or Spanish",yes,2025-08-10_15h57.04.953,empathy_intonation_perc_control,2024.2.4,Win32,60.24096386,6721467438f857b0641618f5,68817205a84113384fffdfe3,6898f94f697f6eafb66bde66,55.0945,57.7266,1,1,2.1112,,0,4,4,3,1,./stim/wavs/mexican_question_filler_Felipe-no-tiene-contrasena.wav,1,,,,,,,,,,,,,,,,,,,,,,,,,,,,,,,,,,,,,,,,,,,,,,,,,,,,,,,,,,,,,,,,,,,,,,,,
,,,,,,,,,6721467438f857b0641618f5,Puerto Rican Spanish,13 or older,"no, only English or Spanish",yes,2025-08-10_15h57.04.953,empathy_intonation_perc_control,2024.2.4,Win32,60.24096386,6721467438f857b0641618f5,68817205a84113384fffdfe3,6898f94f697f6eafb66bde66,57.7286,62.7604,0,1,4.5007,,0,5,5,6,1,./stim/wavs/peruvian_statement_filler_El-nino-habla-con-su-madre.wav,0,,,,,,,,,,,,,,,,,,,,,,,,,,,,,,,,,,,,,,,,,,,,,,,,,,,,,,,,,,,,,,,,,,,,,,,,
,,,,,,,,,6721467438f857b0641618f5,Puerto Rican Spanish,13 or older,"no, only English or Spanish",yes,2025-08-10_15h57.04.953,empathy_intonation_perc_control,2024.2.4,Win32,60.24096386,6721467438f857b0641618f5,68817205a84113384fffdfe3,6898f94f697f6eafb66bde66,62.762,64.7599,1,1,1.4686,,0,6,6,2,1,./stim/wavs/chilean_question_filler_Mi-padre-cantaba-bien.wav,1,,,,,,,,,,,,,,,,,,,,,,,,,,,,,,,,,,,,,,,,,,,,,,,,,,,,,,,,,,,,,,,,,,,,,,,,
,,,,,,,,,6721467438f857b0641618f5,Puerto Rican Spanish,13 or older,"no, only English or Spanish",yes,2025-08-10_15h57.04.953,empathy_intonation_perc_control,2024.2.4,Win32,60.24096386,6721467438f857b0641618f5,68817205a84113384fffdfe3,6898f94f697f6eafb66bde66,64.7616,66.643,1,1,1.351099999,,0,7,7,1,1,./stim/wavs/argentine_question_filler_Mi-vecino-habla-mucho.wav,1,,,,,,,,,,,,,,,,,,,,,,,,,,,,,,,,,,,,,,,,,,,,,,,,,,,,,,,,,,,,,,,,,,,,,,,,
,,,,,,,,,6721467438f857b0641618f5,Puerto Rican Spanish,13 or older,"no, only English or Spanish",yes,2025-08-10_15h57.04.953,empathy_intonation_perc_control,2024.2.4,Win32,60.24096386,6721467438f857b0641618f5,68817205a84113384fffdfe3,6898f94f697f6eafb66bde66,,,,,,,,,,,,,,66.6437,69.5441,,,,,,,,,,,,,,,,,,,,,,,,,,,,,,,,,,,,,,,,,,,,,,,,,,,,,,,,,,,,,,,,,,,,,,
,,,,,,,,,6721467438f857b0641618f5,Puerto Rican Spanish,13 or older,"no, only English or Spanish",yes,2025-08-10_15h57.04.953,empathy_intonation_perc_control,2024.2.4,Win32,60.24096386,6721467438f857b0641618f5,68817205a84113384fffdfe3,6898f94f697f6eafb66bde66,,,,,,,,,,,,./stim/wavs/cuban_mismatch_interrogative-total-yn_Mi-madre-come-la-fruta.wav,1,,,69.5619,74.7263,0,0,4.6437,,0,0,0,31,1,32,1,cuban,,,,,,,,,,,,,,,,,,,,,,,,,,,,,,,,,,,,,,,,,,,,,,,,,,,,,,,,
,,,,,,,,,6721467438f857b0641618f5,Puerto Rican Spanish,13 or older,"no, only English or Spanish",yes,2025-08-10_15h57.04.953,empathy_intonation_perc_control,2024.2.4,Win32,60.24096386,6721467438f857b0641618f5,68817205a84113384fffdfe3,6898f94f697f6eafb66bde66,,,,,,,,,,,,./stim/wavs/cuban_mismatch_interrogative-total-yn_El-hombre-mira-la-luna.wav,1,,,74.7274,76.9425,1,1,1.6917,,0,1,1,29,1,30,1,cuban,,,,,,,,,,,,,,,,,,,,,,,,,,,,,,,,,,,,,,,,,,,,,,,,,,,,,,,,
,,,,,,,,,6721467438f857b0641618f5,Puerto Rican Spanish,13 or older,"no, only English or Spanish",yes,2025-08-10_15h57.04.953,empathy_intonation_perc_control,2024.2.4,Win32,60.24096386,6721467438f857b0641618f5,68817205a84113384fffdfe3,6898f94f697f6eafb66bde66,,,,,,,,,,,,./stim/wavs/cuban_match_declarative-broad-focus_Mariano-habla-del-tiempo.wav,0,,,76.9439,79.7262,0,1,2.2515,,0,2,2,54,1,55,0,cuban,,,,,,,,,,,,,,,,,,,,,,,,,,,,,,,,,,,,,,,,,,,,,,,,,,,,,,,,
,,,,,,,,,6721467438f857b0641618f5,Puerto Rican Spanish,13 or older,"no, only English or Spanish",yes,2025-08-10_15h57.04.953,empathy_intonation_perc_control,2024.2.4,Win32,60.24096386,6721467438f857b0641618f5,68817205a84113384fffdfe3,6898f94f697f6eafb66bde66,,,,,,,,,,,,./stim/wavs/puertorican_mismatch_declarative-broad-focus_El-hombre-mira-la-luna.wav,0,,,79.7272,82.1422,0,1,1.8842,,0,3,3,84,1,85,0,puertorican,,,,,,,,,,,,,,,,,,,,,,,,,,,,,,,,,,,,,,,,,,,,,,,,,,,,,,,,
,,,,,,,,,6721467438f857b0641618f5,Puerto Rican Spanish,13 or older,"no, only English or Spanish",yes,2025-08-10_15h57.04.953,empathy_intonation_perc_control,2024.2.4,Win32,60.24096386,6721467438f857b0641618f5,68817205a84113384fffdfe3,6898f94f697f6eafb66bde66,,,,,,,,,,,,./stim/wavs/puertorican_match_declarative-broad-focus_David-leia-el-libro.wav,0,,,82.1428,84.1756,0,1,1.5016,,0,4,4,64,1,65,0,puertorican,,,,,,,,,,,,,,,,,,,,,,,,,,,,,,,,,,,,,,,,,,,,,,,,,,,,,,,,
,,,,,,,,,6721467438f857b0641618f5,Puerto Rican Spanish,13 or older,"no, only English or Spanish",yes,2025-08-10_15h57.04.953,empathy_intonation_perc_control,2024.2.4,Win32,60.24096386,6721467438f857b0641618f5,68817205a84113384fffdfe3,6898f94f697f6eafb66bde66,,,,,,,,,,,,./stim/wavs/mexican_mismatch_declarative-broad-focus_La-maestra-vive-en-Paris.wav,0,,,84.1769,86.4925,1,0,1.7872,,0,5,5,80,1,81,0,mexican,,,,,,,,,,,,,,,,,,,,,,,,,,,,,,,,,,,,,,,,,,,,,,,,,,,,,,,,
,,,,,,,,,6721467438f857b0641618f5,Puerto Rican Spanish,13 or older,"no, only English or Spanish",yes,2025-08-10_15h57.04.953,empathy_intonation_perc_control,2024.2.4,Win32,60.24096386,6721467438f857b0641618f5,68817205a84113384fffdfe3,6898f94f697f6eafb66bde66,,,,,,,,,,,,./stim/wavs/castilian_mismatch_interrogative-total-yn_La-nina-lava-el-plato.wav,1,,,86.4936,88.7754,1,1,1.751,,0,6,6,25,1,26,0,castilian,,,,,,,,,,,,,,,,,,,,,,,,,,,,,,,,,,,,,,,,,,,,,,,,,,,,,,,,
,,,,,,,,,6721467438f857b0641618f5,Puerto Rican Spanish,13 or older,"no, only English or Spanish",yes,2025-08-10_15h57.04.953,empathy_intonation_perc_control,2024.2.4,Win32,60.24096386,6721467438f857b0641618f5,68817205a84113384fffdfe3,6898f94f697f6eafb66bde66,,,,,,,,,,,,./stim/wavs/puertorican_mismatch_declarative-broad-focus_El-nino-oye-el-rio.wav,0,,,88.7759,90.8419,0,1,1.5415,,0,7,7,85,1,86,0,puertorican,,,,,,,,,,,,,,,,,,,,,,,,,,,,,,,,,,,,,,,,,,,,,,,,,,,,,,,,
,,,,,,,,,6721467438f857b0641618f5,Puerto Rican Spanish,13 or older,"no, only English or Spanish",yes,2025-08-10_15h57.04.953,empathy_intonation_perc_control,2024.2.4,Win32,60.24096386,6721467438f857b0641618f5,68817205a84113384fffdfe3,6898f94f697f6eafb66bde66,,,,,,,,,,,,./stim/wavs/mexican_match_declarative-broad-focus_David-leia-el-libro.wav,0,,,90.843,92.9418,0,1,1.5758,,0,8,8,58,1,59,0,mexican,,,,,,,,,,,,,,,,,,,,,,,,,,,,,,,,,,,,,,,,,,,,,,,,,,,,,,,,
,,,,,,,,,6721467438f857b0641618f5,Puerto Rican Spanish,13 or older,"no, only English or Spanish",yes,2025-08-10_15h57.04.953,empathy_intonation_perc_control,2024.2.4,Win32,60.24096386,6721467438f857b0641618f5,68817205a84113384fffdfe3,6898f94f697f6eafb66bde66,,,,,,,,,,,,./stim/wavs/puertorican_mismatch_interrogative-total-yn_La-nina-lava-el-plato.wav,1,,,92.9429,94.9919,1,1,1.520900001,,0,9,9,42,1,43,1,puertorican,,,,,,,,,,,,,,,,,,,,,,,,,,,,,,,,,,,,,,,,,,,,,,,,,,,,,,,,
,,,,,,,,,6721467438f857b0641618f5,Puerto Rican Spanish,13 or older,"no, only English or Spanish",yes,2025-08-10_15h57.04.953,empathy_intonation_perc_control,2024.2.4,Win32,60.24096386,6721467438f857b0641618f5,68817205a84113384fffdfe3,6898f94f697f6eafb66bde66,,,,,,,,,,,,./stim/wavs/castilian_match_interrogative-total-yn_Emilio-ama-la-marcha.wav,1,,,94.9928,97.3918,1,1,1.8685,,0,10,10,1,1,2,0,castilian,,,,,,,,,,,,,,,,,,,,,,,,,,,,,,,,,,,,,,,,,,,,,,,,,,,,,,,,
,,,,,,,,,6721467438f857b0641618f5,Puerto Rican Spanish,13 or older,"no, only English or Spanish",yes,2025-08-10_15h57.04.953,empathy_intonation_perc_control,2024.2.4,Win32,60.24096386,6721467438f857b0641618f5,68817205a84113384fffdfe3,6898f94f697f6eafb66bde66,,,,,,,,,,,,./stim/wavs/puertorican_mismatch_interrogative-total-yn_Mi-madre-come-la-fruta.wav,1,,,97.3928,99.5418,0,0,1.6247,,0,11,11,43,1,44,1,puertorican,,,,,,,,,,,,,,,,,,,,,,,,,,,,,,,,,,,,,,,,,,,,,,,,,,,,,,,,
,,,,,,,,,6721467438f857b0641618f5,Puerto Rican Spanish,13 or older,"no, only English or Spanish",yes,2025-08-10_15h57.04.953,empathy_intonation_perc_control,2024.2.4,Win32,60.24096386,6721467438f857b0641618f5,68817205a84113384fffdfe3,6898f94f697f6eafb66bde66,,,,,,,,,,,,./stim/wavs/cuban_mismatch_declarative-broad-focus_El-bebe-comia-muy-bien.wav,0,,,99.5428,101.7081,0,1,1.6393,,0,12,12,73,1,74,0,cuban,,,,,,,,,,,,,,,,,,,,,,,,,,,,,,,,,,,,,,,,,,,,,,,,,,,,,,,,
,,,,,,,,,6721467438f857b0641618f5,Puerto Rican Spanish,13 or older,"no, only English or Spanish",yes,2025-08-10_15h57.04.953,empathy_intonation_perc_control,2024.2.4,Win32,60.24096386,6721467438f857b0641618f5,68817205a84113384fffdfe3,6898f94f697f6eafb66bde66,,,,,,,,,,,,./stim/wavs/castilian_match_interrogative-total-yn_Marta-abre-el-regalo.wav,1,,,101.7093,103.9581,1,1,1.717099999,,0,13,13,5,1,6,0,castilian,,,,,,,,,,,,,,,,,,,,,,,,,,,,,,,,,,,,,,,,,,,,,,,,,,,,,,,,
,,,,,,,,,6721467438f857b0641618f5,Puerto Rican Spanish,13 or older,"no, only English or Spanish",yes,2025-08-10_15h57.04.953,empathy_intonation_perc_control,2024.2.4,Win32,60.24096386,6721467438f857b0641618f5,68817205a84113384fffdfe3,6898f94f697f6eafb66bde66,,,,,,,,,,,,./stim/wavs/puertorican_match_interrogative-total-yn_David-leia-el-libro.wav,1,,,103.9591,106.0918,1,1,1.6007,,0,14,14,20,1,21,1,puertorican,,,,,,,,,,,,,,,,,,,,,,,,,,,,,,,,,,,,,,,,,,,,,,,,,,,,,,,,
,,,,,,,,,6721467438f857b0641618f5,Puerto Rican Spanish,13 or older,"no, only English or Spanish",yes,2025-08-10_15h57.04.953,empathy_intonation_perc_control,2024.2.4,Win32,60.24096386,6721467438f857b0641618f5,68817205a84113384fffdfe3,6898f94f697f6eafb66bde66,,,,,,,,,,,,./stim/wavs/mexican_match_interrogative-total-yn_David-leia-el-libro.wav,1,,,106.0926,107.9911,1,1,1.3682,,0,15,15,14,1,15,0,mexican,,,,,,,,,,,,,,,,,,,,,,,,,,,,,,,,,,,,,,,,,,,,,,,,,,,,,,,,
,,,,,,,,,6721467438f857b0641618f5,Puerto Rican Spanish,13 or older,"no, only English or Spanish",yes,2025-08-10_15h57.04.953,empathy_intonation_perc_control,2024.2.4,Win32,60.24096386,6721467438f857b0641618f5,68817205a84113384fffdfe3,6898f94f697f6eafb66bde66,,,,,,,,,,,,./stim/wavs/castilian_mismatch_interrogative-total-yn_Mi-tia-odia-la-lluvia.wav,1,,,107.9921,110.6913,1,1,2.168299999,,0,16,16,28,1,29,0,castilian,,,,,,,,,,,,,,,,,,,,,,,,,,,,,,,,,,,,,,,,,,,,,,,,,,,,,,,,
,,,,,,,,,6721467438f857b0641618f5,Puerto Rican Spanish,13 or older,"no, only English or Spanish",yes,2025-08-10_15h57.04.953,empathy_intonation_perc_control,2024.2.4,Win32,60.24096386,6721467438f857b0641618f5,68817205a84113384fffdfe3,6898f94f697f6eafb66bde66,,,,,,,,,,,,./stim/wavs/mexican_match_interrogative-total-yn_Daniel-iba-a-Bolivia.wav,1,,,110.6921,113.1579,1,1,1.943599999,,0,17,17,13,1,14,0,mexican,,,,,,,,,,,,,,,,,,,,,,,,,,,,,,,,,,,,,,,,,,,,,,,,,,,,,,,,
,,,,,,,,,6721467438f857b0641618f5,Puerto Rican Spanish,13 or older,"no, only English or Spanish",yes,2025-08-10_15h57.04.953,empathy_intonation_perc_control,2024.2.4,Win32,60.24096386,6721467438f857b0641618f5,68817205a84113384fffdfe3,6898f94f697f6eafb66bde66,,,,,,,,,,,,./stim/wavs/cuban_match_declarative-broad-focus_Manuela-vende-el-carro.wav,0,,,113.1587,115.9243,1,0,2.236099999,,0,18,18,52,1,53,0,cuban,,,,,,,,,,,,,,,,,,,,,,,,,,,,,,,,,,,,,,,,,,,,,,,,,,,,,,,,
,,,,,,,,,6721467438f857b0641618f5,Puerto Rican Spanish,13 or older,"no, only English or Spanish",yes,2025-08-10_15h57.04.953,empathy_intonation_perc_control,2024.2.4,Win32,60.24096386,6721467438f857b0641618f5,68817205a84113384fffdfe3,6898f94f697f6eafb66bde66,,,,,,,,,,,,./stim/wavs/puertorican_match_interrogative-total-yn_Ana-lleva-el-abrigo.wav,1,,,115.9262,118.8574,1,1,2.4026,,0,19,19,18,1,19,1,puertorican,,,,,,,,,,,,,,,,,,,,,,,,,,,,,,,,,,,,,,,,,,,,,,,,,,,,,,,,
,,,,,,,,,6721467438f857b0641618f5,Puerto Rican Spanish,13 or older,"no, only English or Spanish",yes,2025-08-10_15h57.04.953,empathy_intonation_perc_control,2024.2.4,Win32,60.24096386,6721467438f857b0641618f5,68817205a84113384fffdfe3,6898f94f697f6eafb66bde66,,,,,,,,,,,,./stim/wavs/mexican_mismatch_declarative-broad-focus_El-bebe-comia-muy-bien.wav,0,,,118.8591,122.4239,0,1,3.0328,,0,20,20,78,1,79,0,mexican,,,,,,,,,,,,,,,,,,,,,,,,,,,,,,,,,,,,,,,,,,,,,,,,,,,,,,,,
,,,,,,,,,6721467438f857b0641618f5,Puerto Rican Spanish,13 or older,"no, only English or Spanish",yes,2025-08-10_15h57.04.953,empathy_intonation_perc_control,2024.2.4,Win32,60.24096386,6721467438f857b0641618f5,68817205a84113384fffdfe3,6898f94f697f6eafb66bde66,,,,,,,,,,,,./stim/wavs/cuban_match_interrogative-total-yn_Manuela-vende-el-carro.wav,1,,,122.4251,124.4405,1,1,1.4853,,0,21,21,8,1,9,1,cuban,,,,,,,,,,,,,,,,,,,,,,,,,,,,,,,,,,,,,,,,,,,,,,,,,,,,,,,,
,,,,,,,,,6721467438f857b0641618f5,Puerto Rican Spanish,13 or older,"no, only English or Spanish",yes,2025-08-10_15h57.04.953,empathy_intonation_perc_control,2024.2.4,Win32,60.24096386,6721467438f857b0641618f5,68817205a84113384fffdfe3,6898f94f697f6eafb66bde66,,,,,,,,,,,,./stim/wavs/cuban_mismatch_interrogative-total-yn_El-nino-oye-el-rio.wav,1,,,124.4416,126.6408,0,0,1.6717,,0,22,22,30,1,31,1,cuban,,,,,,,,,,,,,,,,,,,,,,,,,,,,,,,,,,,,,,,,,,,,,,,,,,,,,,,,
,,,,,,,,,6721467438f857b0641618f5,Puerto Rican Spanish,13 or older,"no, only English or Spanish",yes,2025-08-10_15h57.04.953,empathy_intonation_perc_control,2024.2.4,Win32,60.24096386,6721467438f857b0641618f5,68817205a84113384fffdfe3,6898f94f697f6eafb66bde66,,,,,,,,,,,,./stim/wavs/castilian_match_declarative-broad-focus_David-leia-el-libro.wav,0,,,126.6421,128.9903,0,1,1.8145,,0,23,23,44,1,45,0,castilian,,,,,,,,,,,,,,,,,,,,,,,,,,,,,,,,,,,,,,,,,,,,,,,,,,,,,,,,
,,,,,,,,,6721467438f857b0641618f5,Puerto Rican Spanish,13 or older,"no, only English or Spanish",yes,2025-08-10_15h57.04.953,empathy_intonation_perc_control,2024.2.4,Win32,60.24096386,6721467438f857b0641618f5,68817205a84113384fffdfe3,6898f94f697f6eafb66bde66,,,,,,,,,,,,./stim/wavs/cuban_match_declarative-broad-focus_Marta-abre-el-regalo.wav,0,,,128.9908,131.1572,0,1,1.6349,,0,24,24,55,1,56,0,cuban,,,,,,,,,,,,,,,,,,,,,,,,,,,,,,,,,,,,,,,,,,,,,,,,,,,,,,,,
,,,,,,,,,6721467438f857b0641618f5,Puerto Rican Spanish,13 or older,"no, only English or Spanish",yes,2025-08-10_15h57.04.953,empathy_intonation_perc_control,2024.2.4,Win32,60.24096386,6721467438f857b0641618f5,68817205a84113384fffdfe3,6898f94f697f6eafb66bde66,,,,,,,,,,,,./stim/wavs/castilian_match_declarative-broad-focus_Manuela-vende-el-carro.wav,0,,,131.1582,133.5567,0,1,1.872799999,,0,25,25,46,1,47,0,castilian,,,,,,,,,,,,,,,,,,,,,,,,,,,,,,,,,,,,,,,,,,,,,,,,,,,,,,,,
,,,,,,,,,6721467438f857b0641618f5,Puerto Rican Spanish,13 or older,"no, only English or Spanish",yes,2025-08-10_15h57.04.953,empathy_intonation_perc_control,2024.2.4,Win32,60.24096386,6721467438f857b0641618f5,68817205a84113384fffdfe3,6898f94f697f6eafb66bde66,,,,,,,,,,,,./stim/wavs/castilian_mismatch_interrogative-total-yn_La-maestra-vive-en-Paris.wav,1,,,133.5583,136.2733,1,1,2.1929,,0,26,26,24,1,25,0,castilian,,,,,,,,,,,,,,,,,,,,,,,,,,,,,,,,,,,,,,,,,,,,,,,,,,,,,,,,
,,,,,,,,,6721467438f857b0641618f5,Puerto Rican Spanish,13 or older,"no, only English or Spanish",yes,2025-08-10_15h57.04.953,empathy_intonation_perc_control,2024.2.4,Win32,60.24096386,6721467438f857b0641618f5,68817205a84113384fffdfe3,6898f94f697f6eafb66bde66,,,,,,,,,,,,./stim/wavs/castilian_mismatch_declarative-broad-focus_Mi-tia-odia-la-lluvia.wav,0,,,136.2745,138.6563,0,1,1.8562,,0,27,27,72,1,73,0,castilian,,,,,,,,,,,,,,,,,,,,,,,,,,,,,,,,,,,,,,,,,,,,,,,,,,,,,,,,
,,,,,,,,,6721467438f857b0641618f5,Puerto Rican Spanish,13 or older,"no, only English or Spanish",yes,2025-08-10_15h57.04.953,empathy_intonation_perc_control,2024.2.4,Win32,60.24096386,6721467438f857b0641618f5,68817205a84113384fffdfe3,6898f94f697f6eafb66bde66,,,,,,,,,,,,./stim/wavs/mexican_match_interrogative-total-yn_Ana-lleva-el-abrigo.wav,1,,,138.6569,140.79,1,1,1.607099999,,0,28,28,12,1,13,0,mexican,,,,,,,,,,,,,,,,,,,,,,,,,,,,,,,,,,,,,,,,,,,,,,,,,,,,,,,,
,,,,,,,,,6721467438f857b0641618f5,Puerto Rican Spanish,13 or older,"no, only English or Spanish",yes,2025-08-10_15h57.04.953,empathy_intonation_perc_control,2024.2.4,Win32,60.24096386,6721467438f857b0641618f5,68817205a84113384fffdfe3,6898f94f697f6eafb66bde66,,,,,,,,,,,,./stim/wavs/mexican_mismatch_interrogative-total-yn_Mi-tia-odia-la-lluvia.wav,1,,,140.7909,142.9064,1,1,1.5849,,0,29,29,38,1,39,0,mexican,,,,,,,,,,,,,,,,,,,,,,,,,,,,,,,,,,,,,,,,,,,,,,,,,,,,,,,,
,,,,,,,,,6721467438f857b0641618f5,Puerto Rican Spanish,13 or older,"no, only English or Spanish",yes,2025-08-10_15h57.04.953,empathy_intonation_perc_control,2024.2.4,Win32,60.24096386,6721467438f857b0641618f5,68817205a84113384fffdfe3,6898f94f697f6eafb66bde66,,,,,,,,,,,,./stim/wavs/cuban_mismatch_declarative-broad-focus_La-nina-lava-el-plato.wav,0,,,142.9073,144.9232,0,1,1.4912,,0,30,30,75,1,76,0,cuban,,,,,,,,,,,,,,,,,,,,,,,,,,,,,,,,,,,,,,,,,,,,,,,,,,,,,,,,
,,,,,,,,,6721467438f857b0641618f5,Puerto Rican Spanish,13 or older,"no, only English or Spanish",yes,2025-08-10_15h57.04.953,empathy_intonation_perc_control,2024.2.4,Win32,60.24096386,6721467438f857b0641618f5,68817205a84113384fffdfe3,6898f94f697f6eafb66bde66,,,,,,,,,,,,./stim/wavs/castilian_match_interrogative-total-yn_Mariano-habla-del-tiempo.wav,1,,,144.9242,147.4395,1,1,1.9831,,0,31,31,4,1,5,0,castilian,,,,,,,,,,,,,,,,,,,,,,,,,,,,,,,,,,,,,,,,,,,,,,,,,,,,,,,,
,,,,,,,,,6721467438f857b0641618f5,Puerto Rican Spanish,13 or older,"no, only English or Spanish",yes,2025-08-10_15h57.04.953,empathy_intonation_perc_control,2024.2.4,Win32,60.24096386,6721467438f857b0641618f5,68817205a84113384fffdfe3,6898f94f697f6eafb66bde66,,,,,,,,,,,,./stim/wavs/puertorican_mismatch_declarative-broad-focus_El-bebe-comia-muy-bien.wav,0,,,147.4404,149.6729,0,1,1.7027,,0,32,32,83,1,84,0,puertorican,,,,,,,,,,,,,,,,,,,,,,,,,,,,,,,,,,,,,,,,,,,,,,,,,,,,,,,,
,,,,,,,,,6721467438f857b0641618f5,Puerto Rican Spanish,13 or older,"no, only English or Spanish",yes,2025-08-10_15h57.04.953,empathy_intonation_perc_control,2024.2.4,Win32,60.24096386,6721467438f857b0641618f5,68817205a84113384fffdfe3,6898f94f697f6eafb66bde66,,,,,,,,,,,,./stim/wavs/cuban_match_interrogative-total-yn_Maria-bebe-el-vino.wav,1,,,149.6738,152.1228,1,1,1.9206,,0,33,33,9,1,10,1,cuban,,,,,,,,,,,,,,,,,,,,,,,,,,,,,,,,,,,,,,,,,,,,,,,,,,,,,,,,
,,,,,,,,,6721467438f857b0641618f5,Puerto Rican Spanish,13 or older,"no, only English or Spanish",yes,2025-08-10_15h57.04.953,empathy_intonation_perc_control,2024.2.4,Win32,60.24096386,6721467438f857b0641618f5,68817205a84113384fffdfe3,6898f94f697f6eafb66bde66,,,,,,,,,,,,./stim/wavs/puertorican_match_declarative-broad-focus_Daniel-iba-a-Bolivia.wav,0,,,152.1239,154.7726,0,1,2.1215,,0,34,34,63,1,64,0,puertorican,,,,,,,,,,,,,,,,,,,,,,,,,,,,,,,,,,,,,,,,,,,,,,,,,,,,,,,,
,,,,,,,,,6721467438f857b0641618f5,Puerto Rican Spanish,13 or older,"no, only English or Spanish",yes,2025-08-10_15h57.04.953,empathy_intonation_perc_control,2024.2.4,Win32,60.24096386,6721467438f857b0641618f5,68817205a84113384fffdfe3,6898f94f697f6eafb66bde66,,,,,,,,,,,,./stim/wavs/castilian_mismatch_declarative-broad-focus_La-maestra-vive-en-Paris.wav,0,,,154.7742,160.2389,0,1,4.9339,,0,35,35,69,1,70,0,castilian,,,,,,,,,,,,,,,,,,,,,,,,,,,,,,,,,,,,,,,,,,,,,,,,,,,,,,,,
,,,,,,,,,6721467438f857b0641618f5,Puerto Rican Spanish,13 or older,"no, only English or Spanish",yes,2025-08-10_15h57.04.953,empathy_intonation_perc_control,2024.2.4,Win32,60.24096386,6721467438f857b0641618f5,68817205a84113384fffdfe3,6898f94f697f6eafb66bde66,,,,,,,,,,,,./stim/wavs/mexican_mismatch_declarative-broad-focus_Mi-tia-odia-la-lluvia.wav,0,,,160.2395,162.489,0,1,1.7194,,0,36,36,82,1,83,0,mexican,,,,,,,,,,,,,,,,,,,,,,,,,,,,,,,,,,,,,,,,,,,,,,,,,,,,,,,,
,,,,,,,,,6721467438f857b0641618f5,Puerto Rican Spanish,13 or older,"no, only English or Spanish",yes,2025-08-10_15h57.04.953,empathy_intonation_perc_control,2024.2.4,Win32,60.24096386,6721467438f857b0641618f5,68817205a84113384fffdfe3,6898f94f697f6eafb66bde66,,,,,,,,,,,,./stim/wavs/mexican_match_declarative-broad-focus_Marta-abre-el-regalo.wav,0,,,162.4899,164.4722,0,1,1.449599999,,0,37,37,61,1,62,0,mexican,,,,,,,,,,,,,,,,,,,,,,,,,,,,,,,,,,,,,,,,,,,,,,,,,,,,,,,,
,,,,,,,,,6721467438f857b0641618f5,Puerto Rican Spanish,13 or older,"no, only English or Spanish",yes,2025-08-10_15h57.04.953,empathy_intonation_perc_control,2024.2.4,Win32,60.24096386,6721467438f857b0641618f5,68817205a84113384fffdfe3,6898f94f697f6eafb66bde66,,,,,,,,,,,,./stim/wavs/puertorican_mismatch_interrogative-total-yn_La-maestra-vive-en-Paris.wav,1,,,164.473,166.6385,1,1,1.6439,,0,38,38,41,1,42,1,puertorican,,,,,,,,,,,,,,,,,,,,,,,,,,,,,,,,,,,,,,,,,,,,,,,,,,,,,,,,
,,,,,,,,,6721467438f857b0641618f5,Puerto Rican Spanish,13 or older,"no, only English or Spanish",yes,2025-08-10_15h57.04.953,empathy_intonation_perc_control,2024.2.4,Win32,60.24096386,6721467438f857b0641618f5,68817205a84113384fffdfe3,6898f94f697f6eafb66bde66,,,,,,,,,,,,./stim/wavs/mexican_match_declarative-broad-focus_Mariano-habla-del-tiempo.wav,0,,,166.6395,168.822,0,1,1.6503,,0,39,39,60,1,61,0,mexican,,,,,,,,,,,,,,,,,,,,,,,,,,,,,,,,,,,,,,,,,,,,,,,,,,,,,,,,
,,,,,,,,,6721467438f857b0641618f5,Puerto Rican Spanish,13 or older,"no, only English or Spanish",yes,2025-08-10_15h57.04.953,empathy_intonation_perc_control,2024.2.4,Win32,60.24096386,6721467438f857b0641618f5,68817205a84113384fffdfe3,6898f94f697f6eafb66bde66,,,,,,,,,,,,./stim/wavs/cuban_match_declarative-broad-focus_Maria-bebe-el-vino.wav,0,,,168.8229,171.0722,0,1,1.7175,,0,40,40,53,1,54,0,cuban,,,,,,,,,,,,,,,,,,,,,,,,,,,,,,,,,,,,,,,,,,,,,,,,,,,,,,,,
,,,,,,,,,6721467438f857b0641618f5,Puerto Rican Spanish,13 or older,"no, only English or Spanish",yes,2025-08-10_15h57.04.953,empathy_intonation_perc_control,2024.2.4,Win32,60.24096386,6721467438f857b0641618f5,68817205a84113384fffdfe3,6898f94f697f6eafb66bde66,,,,,,,,,,,,./stim/wavs/mexican_match_declarative-broad-focus_Emilio-ama-la-marcha.wav,0,,,171.0729,173.4554,0,1,1.8545,,0,41,41,59,1,60,0,mexican,,,,,,,,,,,,,,,,,,,,,,,,,,,,,,,,,,,,,,,,,,,,,,,,,,,,,,,,
,,,,,,,,,6721467438f857b0641618f5,Puerto Rican Spanish,13 or older,"no, only English or Spanish",yes,2025-08-10_15h57.04.953,empathy_intonation_perc_control,2024.2.4,Win32,60.24096386,6721467438f857b0641618f5,68817205a84113384fffdfe3,6898f94f697f6eafb66bde66,,,,,,,,,,,,./stim/wavs/cuban_mismatch_declarative-broad-focus_Mi-tia-odia-la-lluvia.wav,0,,,173.4568,175.6551,0,1,1.667099999,,0,42,42,77,1,78,0,cuban,,,,,,,,,,,,,,,,,,,,,,,,,,,,,,,,,,,,,,,,,,,,,,,,,,,,,,,,
,,,,,,,,,6721467438f857b0641618f5,Puerto Rican Spanish,13 or older,"no, only English or Spanish",yes,2025-08-10_15h57.04.953,empathy_intonation_perc_control,2024.2.4,Win32,60.24096386,6721467438f857b0641618f5,68817205a84113384fffdfe3,6898f94f697f6eafb66bde66,,,,,,,,,,,,./stim/wavs/cuban_match_interrogative-total-yn_Daniel-iba-a-Bolivia.wav,1,,,175.6563,178.0552,1,1,1.8853,,0,43,43,7,1,8,1,cuban,,,,,,,,,,,,,,,,,,,,,,,,,,,,,,,,,,,,,,,,,,,,,,,,,,,,,,,,
,,,,,,,,,6721467438f857b0641618f5,Puerto Rican Spanish,13 or older,"no, only English or Spanish",yes,2025-08-10_15h57.04.953,empathy_intonation_perc_control,2024.2.4,Win32,60.24096386,6721467438f857b0641618f5,68817205a84113384fffdfe3,6898f94f697f6eafb66bde66,,,,,,,,,,,,./stim/wavs/castilian_match_declarative-broad-focus_Marta-abre-el-regalo.wav,0,,,178.0558,180.2399,0,1,1.6512,,0,44,44,49,1,50,0,castilian,,,,,,,,,,,,,,,,,,,,,,,,,,,,,,,,,,,,,,,,,,,,,,,,,,,,,,,,
,,,,,,,,,6721467438f857b0641618f5,Puerto Rican Spanish,13 or older,"no, only English or Spanish",yes,2025-08-10_15h57.04.953,empathy_intonation_perc_control,2024.2.4,Win32,60.24096386,6721467438f857b0641618f5,68817205a84113384fffdfe3,6898f94f697f6eafb66bde66,,,,,,,,,,,,./stim/wavs/mexican_match_declarative-broad-focus_Daniel-iba-a-Bolivia.wav,0,,,180.2405,182.4215,0,1,1.6553,,0,45,45,57,1,58,0,mexican,,,,,,,,,,,,,,,,,,,,,,,,,,,,,,,,,,,,,,,,,,,,,,,,,,,,,,,,
,,,,,,,,,6721467438f857b0641618f5,Puerto Rican Spanish,13 or older,"no, only English or Spanish",yes,2025-08-10_15h57.04.953,empathy_intonation_perc_control,2024.2.4,Win32,60.24096386,6721467438f857b0641618f5,68817205a84113384fffdfe3,6898f94f697f6eafb66bde66,,,,,,,,,,,,./stim/wavs/mexican_mismatch_interrogative-total-yn_La-maestra-vive-en-Paris.wav,1,,,182.4221,184.8212,1,1,1.8668,,0,46,46,36,1,37,0,mexican,,,,,,,,,,,,,,,,,,,,,,,,,,,,,,,,,,,,,,,,,,,,,,,,,,,,,,,,
,,,,,,,,,6721467438f857b0641618f5,Puerto Rican Spanish,13 or older,"no, only English or Spanish",yes,2025-08-10_15h57.04.953,empathy_intonation_perc_control,2024.2.4,Win32,60.24096386,6721467438f857b0641618f5,68817205a84113384fffdfe3,6898f94f697f6eafb66bde66,,,,,,,,,,,,./stim/wavs/puertorican_match_interrogative-total-yn_Maria-bebe-el-vino.wav,1,,,184.8229,188.8383,1,1,3.4841,,0,47,47,23,1,24,1,puertorican,,,,,,,,,,,,,,,,,,,,,,,,,,,,,,,,,,,,,,,,,,,,,,,,,,,,,,,,
,,,,,,,,,6721467438f857b0641618f5,Puerto Rican Spanish,13 or older,"no, only English or Spanish",yes,2025-08-10_15h57.04.953,empathy_intonation_perc_control,2024.2.4,Win32,60.24096386,6721467438f857b0641618f5,68817205a84113384fffdfe3,6898f94f697f6eafb66bde66,,,,,,,,,,,,./stim/wavs/mexican_mismatch_declarative-broad-focus_El-hombre-mira-la-luna.wav,0,,,188.8394,190.7876,0,1,1.427599999,,0,48,48,79,1,80,0,mexican,,,,,,,,,,,,,,,,,,,,,,,,,,,,,,,,,,,,,,,,,,,,,,,,,,,,,,,,
,,,,,,,,,6721467438f857b0641618f5,Puerto Rican Spanish,13 or older,"no, only English or Spanish",yes,2025-08-10_15h57.04.953,empathy_intonation_perc_control,2024.2.4,Win32,60.24096386,6721467438f857b0641618f5,68817205a84113384fffdfe3,6898f94f697f6eafb66bde66,,,,,,,,,,,,./stim/wavs/mexican_mismatch_interrogative-total-yn_El-nino-oye-el-rio.wav,1,,,190.7885,192.7892,0,0,1.4804,,0,49,49,35,1,36,0,mexican,,,,,,,,,,,,,,,,,,,,,,,,,,,,,,,,,,,,,,,,,,,,,,,,,,,,,,,,
,,,,,,,,,6721467438f857b0641618f5,Puerto Rican Spanish,13 or older,"no, only English or Spanish",yes,2025-08-10_15h57.04.953,empathy_intonation_perc_control,2024.2.4,Win32,60.24096386,6721467438f857b0641618f5,68817205a84113384fffdfe3,6898f94f697f6eafb66bde66,,,,,,,,,,,,./stim/wavs/castilian_match_declarative-broad-focus_Emilio-ama-la-marcha.wav,0,,,192.7901,195.1707,0,1,1.860400001,,0,50,50,45,1,46,0,castilian,,,,,,,,,,,,,,,,,,,,,,,,,,,,,,,,,,,,,,,,,,,,,,,,,,,,,,,,
,,,,,,,,,6721467438f857b0641618f5,Puerto Rican Spanish,13 or older,"no, only English or Spanish",yes,2025-08-10_15h57.04.953,empathy_intonation_perc_control,2024.2.4,Win32,60.24096386,6721467438f857b0641618f5,68817205a84113384fffdfe3,6898f94f697f6eafb66bde66,,,,,,,,,,,,./stim/wavs/puertorican_match_declarative-broad-focus_Maria-bebe-el-vino.wav,0,,,195.1719,197.8039,1,0,2.1057,,0,51,51,67,1,68,0,puertorican,,,,,,,,,,,,,,,,,,,,,,,,,,,,,,,,,,,,,,,,,,,,,,,,,,,,,,,,
,,,,,,,,,6721467438f857b0641618f5,Puerto Rican Spanish,13 or older,"no, only English or Spanish",yes,2025-08-10_15h57.04.953,empathy_intonation_perc_control,2024.2.4,Win32,60.24096386,6721467438f857b0641618f5,68817205a84113384fffdfe3,6898f94f697f6eafb66bde66,,,,,,,,,,,,./stim/wavs/puertorican_mismatch_declarative-broad-focus_La-maestra-vive-en-Paris.wav,0,,,197.8052,199.8542,0,1,1.5263,,0,52,52,86,1,87,0,puertorican,,,,,,,,,,,,,,,,,,,,,,,,,,,,,,,,,,,,,,,,,,,,,,,,,,,,,,,,
,,,,,,,,,6721467438f857b0641618f5,Puerto Rican Spanish,13 or older,"no, only English or Spanish",yes,2025-08-10_15h57.04.953,empathy_intonation_perc_control,2024.2.4,Win32,60.24096386,6721467438f857b0641618f5,68817205a84113384fffdfe3,6898f94f697f6eafb66bde66,,,,,,,,,,,,./stim/wavs/mexican_mismatch_interrogative-total-yn_Mi-novio-viene-del-lago.wav,1,,,199.8554,203.4371,1,1,3.0547,,0,53,53,37,1,38,0,mexican,,,,,,,,,,,,,,,,,,,,,,,,,,,,,,,,,,,,,,,,,,,,,,,,,,,,,,,,
,,,,,,,,,6721467438f857b0641618f5,Puerto Rican Spanish,13 or older,"no, only English or Spanish",yes,2025-08-10_15h57.04.953,empathy_intonation_perc_control,2024.2.4,Win32,60.24096386,6721467438f857b0641618f5,68817205a84113384fffdfe3,6898f94f697f6eafb66bde66,,,,,,,,,,,,./stim/wavs/puertorican_match_declarative-broad-focus_Ana-lleva-el-abrigo.wav,0,,,203.4383,205.387,0,1,1.4213,,0,54,54,62,1,63,0,puertorican,,,,,,,,,,,,,,,,,,,,,,,,,,,,,,,,,,,,,,,,,,,,,,,,,,,,,,,,
,,,,,,,,,6721467438f857b0641618f5,Puerto Rican Spanish,13 or older,"no, only English or Spanish",yes,2025-08-10_15h57.04.953,empathy_intonation_perc_control,2024.2.4,Win32,60.24096386,6721467438f857b0641618f5,68817205a84113384fffdfe3,6898f94f697f6eafb66bde66,,,,,,,,,,,,./stim/wavs/castilian_match_declarative-broad-focus_Mariano-habla-del-tiempo.wav,0,,,205.3879,209.3035,0,1,3.3902,,0,55,55,48,1,49,0,castilian,,,,,,,,,,,,,,,,,,,,,,,,,,,,,,,,,,,,,,,,,,,,,,,,,,,,,,,,
,,,,,,,,,6721467438f857b0641618f5,Puerto Rican Spanish,13 or older,"no, only English or Spanish",yes,2025-08-10_15h57.04.953,empathy_intonation_perc_control,2024.2.4,Win32,60.24096386,6721467438f857b0641618f5,68817205a84113384fffdfe3,6898f94f697f6eafb66bde66,,,,,,,,,,,,./stim/wavs/cuban_match_interrogative-total-yn_Marta-abre-el-regalo.wav,1,,,209.3047,215.3869,0,0,5.5506,,0,56,56,11,1,12,1,cuban,,,,,,,,,,,,,,,,,,,,,,,,,,,,,,,,,,,,,,,,,,,,,,,,,,,,,,,,
,,,,,,,,,6721467438f857b0641618f5,Puerto Rican Spanish,13 or older,"no, only English or Spanish",yes,2025-08-10_15h57.04.953,empathy_intonation_perc_control,2024.2.4,Win32,60.24096386,6721467438f857b0641618f5,68817205a84113384fffdfe3,6898f94f697f6eafb66bde66,,,,,,,,,,,,./stim/wavs/puertorican_mismatch_interrogative-total-yn_El-nino-oye-el-rio.wav,1,,,215.3881,217.6366,0,0,1.721,,0,57,57,40,1,41,1,puertorican,,,,,,,,,,,,,,,,,,,,,,,,,,,,,,,,,,,,,,,,,,,,,,,,,,,,,,,,
,,,,,,,,,6721467438f857b0641618f5,Puerto Rican Spanish,13 or older,"no, only English or Spanish",yes,2025-08-10_15h57.04.953,empathy_intonation_perc_control,2024.2.4,Win32,60.24096386,6721467438f857b0641618f5,68817205a84113384fffdfe3,6898f94f697f6eafb66bde66,,,,,,,,,,,,./stim/wavs/puertorican_match_interrogative-total-yn_Emilio-ama-la-marcha.wav,1,,,217.6381,222.3197,1,1,4.1583,,0,58,58,21,1,22,1,puertorican,,,,,,,,,,,,,,,,,,,,,,,,,,,,,,,,,,,,,,,,,,,,,,,,,,,,,,,,
,,,,,,,,,6721467438f857b0641618f5,Puerto Rican Spanish,13 or older,"no, only English or Spanish",yes,2025-08-10_15h57.04.953,empathy_intonation_perc_control,2024.2.4,Win32,60.24096386,6721467438f857b0641618f5,68817205a84113384fffdfe3,6898f94f697f6eafb66bde66,,,,,,,,,,,,./stim/wavs/puertorican_match_declarative-broad-focus_Emilio-ama-la-marcha.wav,0,,,222.3205,226.4527,0,1,3.6018,,0,59,59,65,1,66,0,puertorican,,,,,,,,,,,,,,,,,,,,,,,,,,,,,,,,,,,,,,,,,,,,,,,,,,,,,,,,
,,,,,,,,,6721467438f857b0641618f5,Puerto Rican Spanish,13 or older,"no, only English or Spanish",yes,2025-08-10_15h57.04.953,empathy_intonation_perc_control,2024.2.4,Win32,60.24096386,6721467438f857b0641618f5,68817205a84113384fffdfe3,6898f94f697f6eafb66bde66,,,,,,,,,,,,./stim/wavs/puertorican_match_declarative-broad-focus_Manuela-vende-el-carro.wav,0,,,226.4536,228.6526,0,1,1.6739,,0,60,60,66,1,67,0,puertorican,,,,,,,,,,,,,,,,,,,,,,,,,,,,,,,,,,,,,,,,,,,,,,,,,,,,,,,,
,,,,,,,,,6721467438f857b0641618f5,Puerto Rican Spanish,13 or older,"no, only English or Spanish",yes,2025-08-10_15h57.04.953,empathy_intonation_perc_control,2024.2.4,Win32,60.24096386,6721467438f857b0641618f5,68817205a84113384fffdfe3,6898f94f697f6eafb66bde66,,,,,,,,,,,,./stim/wavs/puertorican_match_interrogative-total-yn_Manuela-vende-el-carro.wav,1,,,228.6535,230.5525,1,1,1.3773,,0,61,61,22,1,23,1,puertorican,,,,,,,,,,,,,,,,,,,,,,,,,,,,,,,,,,,,,,,,,,,,,,,,,,,,,,,,
,,,,,,,,,6721467438f857b0641618f5,Puerto Rican Spanish,13 or older,"no, only English or Spanish",yes,2025-08-10_15h57.04.953,empathy_intonation_perc_control,2024.2.4,Win32,60.24096386,6721467438f857b0641618f5,68817205a84113384fffdfe3,6898f94f697f6eafb66bde66,,,,,,,,,,,,./stim/wavs/cuban_mismatch_interrogative-total-yn_Mi-tia-odia-la-lluvia.wav,1,,,230.5534,233.4525,0,0,2.3716,,0,62,62,33,1,34,1,cuban,,,,,,,,,,,,,,,,,,,,,,,,,,,,,,,,,,,,,,,,,,,,,,,,,,,,,,,,
,,,,,,,,,6721467438f857b0641618f5,Puerto Rican Spanish,13 or older,"no, only English or Spanish",yes,2025-08-10_15h57.04.953,empathy_intonation_perc_control,2024.2.4,Win32,60.24096386,6721467438f857b0641618f5,68817205a84113384fffdfe3,6898f94f697f6eafb66bde66,,,,,,,,,,,,./stim/wavs/mexican_match_declarative-broad-focus_Ana-lleva-el-abrigo.wav,0,,,233.4534,235.4857,0,1,1.5103,,0,63,63,56,1,57,0,mexican,,,,,,,,,,,,,,,,,,,,,,,,,,,,,,,,,,,,,,,,,,,,,,,,,,,,,,,,
,,,,,,,,,6721467438f857b0641618f5,Puerto Rican Spanish,13 or older,"no, only English or Spanish",yes,2025-08-10_15h57.04.953,empathy_intonation_perc_control,2024.2.4,Win32,60.24096386,6721467438f857b0641618f5,68817205a84113384fffdfe3,6898f94f697f6eafb66bde66,,,,,,,,,,,,./stim/wavs/cuban_match_declarative-broad-focus_Ana-lleva-el-abrigo.wav,0,,,235.4867,237.9021,0,1,1.8846,,0,64,64,50,1,51,0,cuban,,,,,,,,,,,,,,,,,,,,,,,,,,,,,,,,,,,,,,,,,,,,,,,,,,,,,,,,
,,,,,,,,,6721467438f857b0641618f5,Puerto Rican Spanish,13 or older,"no, only English or Spanish",yes,2025-08-10_15h57.04.953,empathy_intonation_perc_control,2024.2.4,Win32,60.24096386,6721467438f857b0641618f5,68817205a84113384fffdfe3,6898f94f697f6eafb66bde66,,,,,,,,,,,,./stim/wavs/cuban_match_interrogative-total-yn_Ana-lleva-el-abrigo.wav,1,,,237.9033,239.9859,0,0,1.5617,,0,65,65,6,1,7,1,cuban,,,,,,,,,,,,,,,,,,,,,,,,,,,,,,,,,,,,,,,,,,,,,,,,,,,,,,,,
,,,,,,,,,6721467438f857b0641618f5,Puerto Rican Spanish,13 or older,"no, only English or Spanish",yes,2025-08-10_15h57.04.953,empathy_intonation_perc_control,2024.2.4,Win32,60.24096386,6721467438f857b0641618f5,68817205a84113384fffdfe3,6898f94f697f6eafb66bde66,,,,,,,,,,,,./stim/wavs/castilian_mismatch_declarative-broad-focus_El-nino-oye-el-rio.wav,0,,,239.9871,242.4518,0,1,1.945400001,,0,66,66,68,1,69,0,castilian,,,,,,,,,,,,,,,,,,,,,,,,,,,,,,,,,,,,,,,,,,,,,,,,,,,,,,,,
,,,,,,,,,6721467438f857b0641618f5,Puerto Rican Spanish,13 or older,"no, only English or Spanish",yes,2025-08-10_15h57.04.953,empathy_intonation_perc_control,2024.2.4,Win32,60.24096386,6721467438f857b0641618f5,68817205a84113384fffdfe3,6898f94f697f6eafb66bde66,,,,,,,,,,,,./stim/wavs/castilian_match_interrogative-total-yn_Maria-bebe-el-vino.wav,1,,,242.4524,244.5186,1,1,1.534,,0,67,67,3,1,4,0,castilian,,,,,,,,,,,,,,,,,,,,,,,,,,,,,,,,,,,,,,,,,,,,,,,,,,,,,,,,
,,,,,,,,,6721467438f857b0641618f5,Puerto Rican Spanish,13 or older,"no, only English or Spanish",yes,2025-08-10_15h57.04.953,empathy_intonation_perc_control,2024.2.4,Win32,60.24096386,6721467438f857b0641618f5,68817205a84113384fffdfe3,6898f94f697f6eafb66bde66,,,,,,,,,,,,./stim/wavs/castilian_mismatch_interrogative-total-yn_Mi-madre-come-la-fruta.wav,1,,,244.5195,247.9521,1,1,2.9079,,0,68,68,26,1,27,0,castilian,,,,,,,,,,,,,,,,,,,,,,,,,,,,,,,,,,,,,,,,,,,,,,,,,,,,,,,,
,,,,,,,,,6721467438f857b0641618f5,Puerto Rican Spanish,13 or older,"no, only English or Spanish",yes,2025-08-10_15h57.04.953,empathy_intonation_perc_control,2024.2.4,Win32,60.24096386,6721467438f857b0641618f5,68817205a84113384fffdfe3,6898f94f697f6eafb66bde66,,,,,,,,,,,,./stim/wavs/puertorican_match_interrogative-total-yn_Daniel-iba-a-Bolivia.wav,1,,,247.9529,250.086,0,0,1.600400001,,0,69,69,19,1,20,1,puertorican,,,,,,,,,,,,,,,,,,,,,,,,,,,,,,,,,,,,,,,,,,,,,,,,,,,,,,,,
,,,,,,,,,6721467438f857b0641618f5,Puerto Rican Spanish,13 or older,"no, only English or Spanish",yes,2025-08-10_15h57.04.953,empathy_intonation_perc_control,2024.2.4,Win32,60.24096386,6721467438f857b0641618f5,68817205a84113384fffdfe3,6898f94f697f6eafb66bde66,,,,,,,,,,,,./stim/wavs/mexican_match_interrogative-total-yn_Marta-abre-el-regalo.wav,1,,,250.087,252.0352,1,1,1.4205,,0,70,70,17,1,18,0,mexican,,,,,,,,,,,,,,,,,,,,,,,,,,,,,,,,,,,,,,,,,,,,,,,,,,,,,,,,
,,,,,,,,,6721467438f857b0641618f5,Puerto Rican Spanish,13 or older,"no, only English or Spanish",yes,2025-08-10_15h57.04.953,empathy_intonation_perc_control,2024.2.4,Win32,60.24096386,6721467438f857b0641618f5,68817205a84113384fffdfe3,6898f94f697f6eafb66bde66,,,,,,,,,,,,./stim/wavs/castilian_mismatch_interrogative-total-yn_Mi-novio-viene-del-lago.wav,1,,,252.0362,255.6349,1,1,3.0725,,0,71,71,27,1,28,0,castilian,,,,,,,,,,,,,,,,,,,,,,,,,,,,,,,,,,,,,,,,,,,,,,,,,,,,,,,,
,,,,,,,,,6721467438f857b0641618f5,Puerto Rican Spanish,13 or older,"no, only English or Spanish",yes,2025-08-10_15h57.04.953,empathy_intonation_perc_control,2024.2.4,Win32,60.24096386,6721467438f857b0641618f5,68817205a84113384fffdfe3,6898f94f697f6eafb66bde66,,,,,,,,,,,,./stim/wavs/castilian_match_interrogative-total-yn_Manuela-vende-el-carro.wav,1,,,255.6361,259.4845,1,1,3.3258,,0,72,72,2,1,3,0,castilian,,,,,,,,,,,,,,,,,,,,,,,,,,,,,,,,,,,,,,,,,,,,,,,,,,,,,,,,
,,,,,,,,,6721467438f857b0641618f5,Puerto Rican Spanish,13 or older,"no, only English or Spanish",yes,2025-08-10_15h57.04.953,empathy_intonation_perc_control,2024.2.4,Win32,60.24096386,6721467438f857b0641618f5,68817205a84113384fffdfe3,6898f94f697f6eafb66bde66,,,,,,,,,,,,./stim/wavs/cuban_match_interrogative-total-yn_Mariano-habla-del-tiempo.wav,1,,,259.4855,264.0847,0,0,4.066799999,,0,73,73,10,1,11,1,cuban,,,,,,,,,,,,,,,,,,,,,,,,,,,,,,,,,,,,,,,,,,,,,,,,,,,,,,,,
,,,,,,,,,6721467438f857b0641618f5,Puerto Rican Spanish,13 or older,"no, only English or Spanish",yes,2025-08-10_15h57.04.953,empathy_intonation_perc_control,2024.2.4,Win32,60.24096386,6721467438f857b0641618f5,68817205a84113384fffdfe3,6898f94f697f6eafb66bde66,,,,,,,,,,,,./stim/wavs/mexican_mismatch_declarative-broad-focus_Mi-novio-viene-del-lago.wav,0,,,264.0854,268.1011,0,1,3.4864,,0,74,74,81,1,82,0,mexican,,,,,,,,,,,,,,,,,,,,,,,,,,,,,,,,,,,,,,,,,,,,,,,,,,,,,,,,
,,,,,,,,,6721467438f857b0641618f5,Puerto Rican Spanish,13 or older,"no, only English or Spanish",yes,2025-08-10_15h57.04.953,empathy_intonation_perc_control,2024.2.4,Win32,60.24096386,6721467438f857b0641618f5,68817205a84113384fffdfe3,6898f94f697f6eafb66bde66,,,,,,,,,,,,./stim/wavs/cuban_mismatch_interrogative-total-yn_Mi-novio-viene-del-lago.wav,1,,,268.1021,272.8677,1,1,4.243099999,,0,75,75,32,1,33,1,cuban,,,,,,,,,,,,,,,,,,,,,,,,,,,,,,,,,,,,,,,,,,,,,,,,,,,,,,,,
,,,,,,,,,6721467438f857b0641618f5,Puerto Rican Spanish,13 or older,"no, only English or Spanish",yes,2025-08-10_15h57.04.953,empathy_intonation_perc_control,2024.2.4,Win32,60.24096386,6721467438f857b0641618f5,68817205a84113384fffdfe3,6898f94f697f6eafb66bde66,,,,,,,,,,,,./stim/wavs/castilian_mismatch_declarative-broad-focus_Mi-novio-viene-del-lago.wav,0,,,272.8693,277.2673,0,1,3.8702,,0,76,76,71,1,72,0,castilian,,,,,,,,,,,,,,,,,,,,,,,,,,,,,,,,,,,,,,,,,,,,,,,,,,,,,,,,
,,,,,,,,,6721467438f857b0641618f5,Puerto Rican Spanish,13 or older,"no, only English or Spanish",yes,2025-08-10_15h57.04.953,empathy_intonation_perc_control,2024.2.4,Win32,60.24096386,6721467438f857b0641618f5,68817205a84113384fffdfe3,6898f94f697f6eafb66bde66,,,,,,,,,,,,./stim/wavs/castilian_match_declarative-broad-focus_Maria-bebe-el-vino.wav,0,,,277.2684,290.0333,0,1,12.2337,,0,77,77,47,1,48,0,castilian,,,,,,,,,,,,,,,,,,,,,,,,,,,,,,,,,,,,,,,,,,,,,,,,,,,,,,,,
,,,,,,,,,6721467438f857b0641618f5,Puerto Rican Spanish,13 or older,"no, only English or Spanish",yes,2025-08-10_15h57.04.953,empathy_intonation_perc_control,2024.2.4,Win32,60.24096386,6721467438f857b0641618f5,68817205a84113384fffdfe3,6898f94f697f6eafb66bde66,,,,,,,,,,,,./stim/wavs/mexican_match_interrogative-total-yn_Mariano-habla-del-tiempo.wav,1,,,290.0345,292.3833,0,0,1.8204,,0,78,78,16,1,17,0,mexican,,,,,,,,,,,,,,,,,,,,,,,,,,,,,,,,,,,,,,,,,,,,,,,,,,,,,,,,
,,,,,,,,,6721467438f857b0641618f5,Puerto Rican Spanish,13 or older,"no, only English or Spanish",yes,2025-08-10_15h57.04.953,empathy_intonation_perc_control,2024.2.4,Win32,60.24096386,6721467438f857b0641618f5,68817205a84113384fffdfe3,6898f94f697f6eafb66bde66,,,,,,,,,,,,./stim/wavs/mexican_match_interrogative-total-yn_Emilio-ama-la-marcha.wav,1,,,292.3842,294.5831,1,1,1.6715,,0,79,79,15,1,16,0,mexican,,,,,,,,,,,,,,,,,,,,,,,,,,,,,,,,,,,,,,,,,,,,,,,,,,,,,,,,
,,,,,,,,,6721467438f857b0641618f5,Puerto Rican Spanish,13 or older,"no, only English or Spanish",yes,2025-08-10_15h57.04.953,empathy_intonation_perc_control,2024.2.4,Win32,60.24096386,6721467438f857b0641618f5,68817205a84113384fffdfe3,6898f94f697f6eafb66bde66,,,,,,,,,,,,./stim/wavs/cuban_mismatch_declarative-broad-focus_Mi-novio-viene-del-lago.wav,0,,,294.5839,297.1664,0,1,2.0528,,0,80,80,76,1,77,0,cuban,,,,,,,,,,,,,,,,,,,,,,,,,,,,,,,,,,,,,,,,,,,,,,,,,,,,,,,,
,,,,,,,,,6721467438f857b0641618f5,Puerto Rican Spanish,13 or older,"no, only English or Spanish",yes,2025-08-10_15h57.04.953,empathy_intonation_perc_control,2024.2.4,Win32,60.24096386,6721467438f857b0641618f5,68817205a84113384fffdfe3,6898f94f697f6eafb66bde66,,,,,,,,,,,,./stim/wavs/puertorican_mismatch_declarative-broad-focus_La-nina-lava-el-plato.wav,0,,,297.1676,300.6334,0,1,2.935400001,,0,81,81,87,1,88,0,puertorican,,,,,,,,,,,,,,,,,,,,,,,,,,,,,,,,,,,,,,,,,,,,,,,,,,,,,,,,
,,,,,,,,,6721467438f857b0641618f5,Puerto Rican Spanish,13 or older,"no, only English or Spanish",yes,2025-08-10_15h57.04.953,empathy_intonation_perc_control,2024.2.4,Win32,60.24096386,6721467438f857b0641618f5,68817205a84113384fffdfe3,6898f94f697f6eafb66bde66,,,,,,,,,,,,./stim/wavs/puertorican_mismatch_interrogative-total-yn_El-hombre-mira-la-luna.wav,1,,,300.6347,305.7327,1,1,4.5738,,0,82,82,39,1,40,1,puertorican,,,,,,,,,,,,,,,,,,,,,,,,,,,,,,,,,,,,,,,,,,,,,,,,,,,,,,,,
,,,,,,,,,6721467438f857b0641618f5,Puerto Rican Spanish,13 or older,"no, only English or Spanish",yes,2025-08-10_15h57.04.953,empathy_intonation_perc_control,2024.2.4,Win32,60.24096386,6721467438f857b0641618f5,68817205a84113384fffdfe3,6898f94f697f6eafb66bde66,,,,,,,,,,,,./stim/wavs/mexican_mismatch_interrogative-total-yn_El-hombre-mira-la-luna.wav,1,,,305.7338,307.7995,1,1,1.5395,,0,83,83,34,1,35,0,mexican,,,,,,,,,,,,,,,,,,,,,,,,,,,,,,,,,,,,,,,,,,,,,,,,,,,,,,,,
,,,,,,,,,6721467438f857b0641618f5,Puerto Rican Spanish,13 or older,"no, only English or Spanish",yes,2025-08-10_15h57.04.953,empathy_intonation_perc_control,2024.2.4,Win32,60.24096386,6721467438f857b0641618f5,68817205a84113384fffdfe3,6898f94f697f6eafb66bde66,,,,,,,,,,,,./stim/wavs/cuban_match_declarative-broad-focus_Daniel-iba-a-Bolivia.wav,0,,,307.8006,310.2827,0,1,1.951700001,,0,84,84,51,1,52,0,cuban,,,,,,,,,,,,,,,,,,,,,,,,,,,,,,,,,,,,,,,,,,,,,,,,,,,,,,,,
,,,,,,,,,6721467438f857b0641618f5,Puerto Rican Spanish,13 or older,"no, only English or Spanish",yes,2025-08-10_15h57.04.953,empathy_intonation_perc_control,2024.2.4,Win32,60.24096386,6721467438f857b0641618f5,68817205a84113384fffdfe3,6898f94f697f6eafb66bde66,,,,,,,,,,,,./stim/wavs/castilian_match_interrogative-total-yn_David-leia-el-libro.wav,1,,,310.2835,312.699,1,1,1.8858,,0,85,85,0,1,1,0,castilian,,,,,,,,,,,,,,,,,,,,,,,,,,,,,,,,,,,,,,,,,,,,,,,,,,,,,,,,
,,,,,,,,,6721467438f857b0641618f5,Puerto Rican Spanish,13 or older,"no, only English or Spanish",yes,2025-08-10_15h57.04.953,empathy_intonation_perc_control,2024.2.4,Win32,60.24096386,6721467438f857b0641618f5,68817205a84113384fffdfe3,6898f94f697f6eafb66bde66,,,,,,,,,,,,./stim/wavs/castilian_mismatch_declarative-broad-focus_La-nina-lava-el-plato.wav,0,,,312.6999,314.916,1,0,1.682599999,,0,86,86,70,1,71,0,castilian,,,,,,,,,,,,,,,,,,,,,,,,,,,,,,,,,,,,,,,,,,,,,,,,,,,,,,,,
,,,,,,,,,6721467438f857b0641618f5,Puerto Rican Spanish,13 or older,"no, only English or Spanish",yes,2025-08-10_15h57.04.953,empathy_intonation_perc_control,2024.2.4,Win32,60.24096386,6721467438f857b0641618f5,68817205a84113384fffdfe3,6898f94f697f6eafb66bde66,,,,,,,,,,,,./stim/wavs/cuban_mismatch_declarative-broad-focus_El-hombre-mira-la-luna.wav,0,,,314.9175,316.9656,0,1,1.518900001,,0,87,87,74,1,75,0,cuban,,,,,,,,,,,,,,,,,,,,,,,,,,,,,,,,,,,,,,,,,,,,,,,,,,,,,,,,
,,,,,,,"Great! Now we will move on. The next task consists of about 60 trials, in each of which you will see a string of letters. 
  
  Your task is to decide whether this is a real Spanish word or not.", (press the spacebar to continue),6721467438f857b0641618f5,Puerto Rican Spanish,13 or older,"no, only English or Spanish",yes,2025-08-10_15h57.04.953,empathy_intonation_perc_control,2024.2.4,Win32,60.24096386,6721467438f857b0641618f5,68817205a84113384fffdfe3,6898f94f697f6eafb66bde66,,,,,,,,,,,,,,,,,,,,,,,,,,,,,,316.9757,332.6325,0,0,0,0,1,,,,,,,,,,,,,,,,,,,,,,,,,,,,,,,,,,,,,,,,,,,,,,,,,
,,,,,,,"If you think it is an existing Spanish word, you type '1' (for 'REAL'), and if you think it is not an existing Spanish word, you type '0' (for 'FAKE').", (press the spacebar to continue),6721467438f857b0641618f5,Puerto Rican Spanish,13 or older,"no, only English or Spanish",yes,2025-08-10_15h57.04.953,empathy_intonation_perc_control,2024.2.4,Win32,60.24096386,6721467438f857b0641618f5,68817205a84113384fffdfe3,6898f94f697f6eafb66bde66,,,,,,,,,,,,,,,,,,,,,,,,,,,,,,332.6364,336.4982,0,1,1,1,1,,,,,,,,,,,,,,,,,,,,,,,,,,,,,,,,,,,,,,,,,,,,,,,,,
,,,,,,,"If you are sure that the word exists, even though you don’t know its exact meaning, you may still respond '1' (REAL). 
  
  But if you are not sure if it is an existing word, you should respond '0' (FAKE).
  
  Let's do a practice round...", (press the spacebar to continue),6721467438f857b0641618f5,Puerto Rican Spanish,13 or older,"no, only English or Spanish",yes,2025-08-10_15h57.04.953,empathy_intonation_perc_control,2024.2.4,Win32,60.24096386,6721467438f857b0641618f5,68817205a84113384fffdfe3,6898f94f697f6eafb66bde66,,,,,,,,,,,,,,,,,,,,,,,,,,,,,,336.5018,339.5315,0,2,2,2,1,,,,,,,,,,,,,,,,,,,,,,,,,,,,,,,,,,,,,,,,,,,,,,,,,
,,,,,,,,,6721467438f857b0641618f5,Puerto Rican Spanish,13 or older,"no, only English or Spanish",yes,2025-08-10_15h57.04.953,empathy_intonation_perc_control,2024.2.4,Win32,60.24096386,6721467438f857b0641618f5,68817205a84113384fffdfe3,6898f94f697f6eafb66bde66,,,,,,,,,,,,,0,,,,,,,,,,,,,,,,,,,,,,,,339.5407,342.3314,0,1,2.2602,,342.332,343.3314,0,0,0,0,1,0,depiste,REAL,FAKE,,,,,,,,,,,,,,,,,,,,,,,,,,,,,,,,
,,,,,,,,,6721467438f857b0641618f5,Puerto Rican Spanish,13 or older,"no, only English or Spanish",yes,2025-08-10_15h57.04.953,empathy_intonation_perc_control,2024.2.4,Win32,60.24096386,6721467438f857b0641618f5,68817205a84113384fffdfe3,6898f94f697f6eafb66bde66,,,,,,,,,,,,,1,,,,,,,,,,,,,,,,,,,,,,,,343.3343,344.6144,1,1,0.7572,,344.6145,345.6143,0,1,1,1,1,0,sí,REAL,FAKE,,,,,,,,,,,,,,,,,,,,,,,,,,,,,,,,
,,,,,,,,,6721467438f857b0641618f5,Puerto Rican Spanish,13 or older,"no, only English or Spanish",yes,2025-08-10_15h57.04.953,empathy_intonation_perc_control,2024.2.4,Win32,60.24096386,6721467438f857b0641618f5,68817205a84113384fffdfe3,6898f94f697f6eafb66bde66,,,,,,,,,,,,,0,,,,,,,,,,,,,,,,,,,,,,,,345.6171,347.931,0,1,1.7797,,347.9312,348.9311,0,2,2,2,1,0,coné,REAL,FAKE,,,,,,,,,,,,,,,,,,,,,,,,,,,,,,,,
,,,,,,,,,6721467438f857b0641618f5,Puerto Rican Spanish,13 or older,"no, only English or Spanish",yes,2025-08-10_15h57.04.953,empathy_intonation_perc_control,2024.2.4,Win32,60.24096386,6721467438f857b0641618f5,68817205a84113384fffdfe3,6898f94f697f6eafb66bde66,,,,,,,,,,,,,0,,,,,,,,,,,,,,,,,,,,,,,,348.9337,350.2808,0,1,0.821400001,,350.2808,351.2807,0,3,3,3,1,0,calpar,REAL,FAKE,,,,,,,,,,,,,,,,,,,,,,,,,,,,,,,,
,,,,,,,,,6721467438f857b0641618f5,Puerto Rican Spanish,13 or older,"no, only English or Spanish",yes,2025-08-10_15h57.04.953,empathy_intonation_perc_control,2024.2.4,Win32,60.24096386,6721467438f857b0641618f5,68817205a84113384fffdfe3,6898f94f697f6eafb66bde66,,,,,,,,,,,,,0,,,,,,,,,,,,,,,,,,,,,,,,351.2833,352.4976,0,1,0.682099999,,352.4977,353.4973,0,4,4,4,1,0,joten,REAL,FAKE,,,,,,,,,,,,,,,,,,,,,,,,,,,,,,,,
,,,,,,,,,6721467438f857b0641618f5,Puerto Rican Spanish,13 or older,"no, only English or Spanish",yes,2025-08-10_15h57.04.953,empathy_intonation_perc_control,2024.2.4,Win32,60.24096386,6721467438f857b0641618f5,68817205a84113384fffdfe3,6898f94f697f6eafb66bde66,,,,,,,,,,,,,1,,,,,,,,,,,,,,,,,,,,,,,,353.4992,354.9139,0,0,0.882099999,,354.9163,355.9138,0,5,5,5,1,0,sacapuntas,REAL,FAKE,,,,,,,,,,,,,,,,,,,,,,,,,,,,,,,,
,,,,,,,,,6721467438f857b0641618f5,Puerto Rican Spanish,13 or older,"no, only English or Spanish",yes,2025-08-10_15h57.04.953,empathy_intonation_perc_control,2024.2.4,Win32,60.24096386,6721467438f857b0641618f5,68817205a84113384fffdfe3,6898f94f697f6eafb66bde66,,,,,,,,,,,,,0,,,,,,,,,,,,,,,,,,,,,,,,355.9161,357.6638,0,1,1.216799999,,357.6647,358.6638,0,6,6,6,1,0,priba,REAL,FAKE,,,,,,,,,,,,,,,,,,,,,,,,,,,,,,,,
,,,,,,,,,6721467438f857b0641618f5,Puerto Rican Spanish,13 or older,"no, only English or Spanish",yes,2025-08-10_15h57.04.953,empathy_intonation_perc_control,2024.2.4,Win32,60.24096386,6721467438f857b0641618f5,68817205a84113384fffdfe3,6898f94f697f6eafb66bde66,,,,,,,,,,,,,0,,,,,,,,,,,,,,,,,,,,,,,,358.6653,360.1971,1,0,1.003,,360.1978,361.1971,0,7,7,7,1,0,pelasula,REAL,FAKE,,,,,,,,,,,,,,,,,,,,,,,,,,,,,,,,
,,,,,,,,,6721467438f857b0641618f5,Puerto Rican Spanish,13 or older,"no, only English or Spanish",yes,2025-08-10_15h57.04.953,empathy_intonation_perc_control,2024.2.4,Win32,60.24096386,6721467438f857b0641618f5,68817205a84113384fffdfe3,6898f94f697f6eafb66bde66,,,,,,,,,,,,,1,,,,,,,,,,,,,,,,,,,,,,,,361.198,362.6635,1,1,0.9302,,362.6645,363.6636,0,8,8,8,1,0,bien,REAL,FAKE,,,,,,,,,,,,,,,,,,,,,,,,,,,,,,,,
,,,,,,,,,6721467438f857b0641618f5,Puerto Rican Spanish,13 or older,"no, only English or Spanish",yes,2025-08-10_15h57.04.953,empathy_intonation_perc_control,2024.2.4,Win32,60.24096386,6721467438f857b0641618f5,68817205a84113384fffdfe3,6898f94f697f6eafb66bde66,,,,,,,,,,,,,1,,,,,,,,,,,,,,,,,,,,,,,,363.6653,365.0469,1,1,0.8523,,365.047,366.0467,0,9,9,9,1,0,casa,REAL,FAKE,,,,,,,,,,,,,,,,,,,,,,,,,,,,,,,,
,,,,,,,,,6721467438f857b0641618f5,Puerto Rican Spanish,13 or older,"no, only English or Spanish",yes,2025-08-10_15h57.04.953,empathy_intonation_perc_control,2024.2.4,Win32,60.24096386,6721467438f857b0641618f5,68817205a84113384fffdfe3,6898f94f697f6eafb66bde66,,,,,,,,,,,,,0,,,,,,,,,,,,,,,,,,,,,,,,366.0485,368.8299,1,0,2.251599999,,368.8311,369.83,0,10,10,10,1,0,lejo,REAL,FAKE,,,,,,,,,,,,,,,,,,,,,,,,,,,,,,,,
,,,,,,,,,6721467438f857b0641618f5,Puerto Rican Spanish,13 or older,"no, only English or Spanish",yes,2025-08-10_15h57.04.953,empathy_intonation_perc_control,2024.2.4,Win32,60.24096386,6721467438f857b0641618f5,68817205a84113384fffdfe3,6898f94f697f6eafb66bde66,,,,,,,,,,,,,0,,,,,,,,,,,,,,,,,,,,,,,,369.831,372.4297,1,0,2.0666,,372.4298,373.43,0,11,11,11,1,0,pretantas,REAL,FAKE,,,,,,,,,,,,,,,,,,,,,,,,,,,,,,,,
,,,,,,,,,6721467438f857b0641618f5,Puerto Rican Spanish,13 or older,"no, only English or Spanish",yes,2025-08-10_15h57.04.953,empathy_intonation_perc_control,2024.2.4,Win32,60.24096386,6721467438f857b0641618f5,68817205a84113384fffdfe3,6898f94f697f6eafb66bde66,,,,,,,,,,,,,,,,,,,,,,,,,,,,,,,,,,,,,,,,,,,,,,,,,,,,,,373.4305,375.0137,,,,,,,,,,,,,,,,,,,,,,,,,,,,,,
,,,,,,,,,6721467438f857b0641618f5,Puerto Rican Spanish,13 or older,"no, only English or Spanish",yes,2025-08-10_15h57.04.953,empathy_intonation_perc_control,2024.2.4,Win32,60.24096386,6721467438f857b0641618f5,68817205a84113384fffdfe3,6898f94f697f6eafb66bde66,,,,,,,,,,,,,1,,,,,,,,,,,,,,,,,,,,,,,,,,,,,,,,,,,,,37,granuja,,,,,375.0289,377.93,1,1,2.3794,,0,0,0,36,1,REAL,FAKE,,,,,,,,,,,,,,,,,
,,,,,,,,,6721467438f857b0641618f5,Puerto Rican Spanish,13 or older,"no, only English or Spanish",yes,2025-08-10_15h57.04.953,empathy_intonation_perc_control,2024.2.4,Win32,60.24096386,6721467438f857b0641618f5,68817205a84113384fffdfe3,6898f94f697f6eafb66bde66,,,,,,,,,,,,,1,,,,,,,,,,,,,,,,,,,,,,,,,,,,,,,,,,,,,6,tergiversar,,,,,377.9326,388.1628,1,1,9.694,,0,1,1,5,1,REAL,FAKE,,,,,,,,,,,,,,,,,
,,,,,,,,,6721467438f857b0641618f5,Puerto Rican Spanish,13 or older,"no, only English or Spanish",yes,2025-08-10_15h57.04.953,empathy_intonation_perc_control,2024.2.4,Win32,60.24096386,6721467438f857b0641618f5,68817205a84113384fffdfe3,6898f94f697f6eafb66bde66,,,,,,,,,,,,,1,,,,,,,,,,,,,,,,,,,,,,,,,,,,,,,,,,,,,3,pulmones,,,,,388.1649,391.996,0,0,3.296599999,,0,2,2,2,1,REAL,FAKE,,,,,,,,,,,,,,,,,
,,,,,,,,,6721467438f857b0641618f5,Puerto Rican Spanish,13 or older,"no, only English or Spanish",yes,2025-08-10_15h57.04.953,empathy_intonation_perc_control,2024.2.4,Win32,60.24096386,6721467438f857b0641618f5,68817205a84113384fffdfe3,6898f94f697f6eafb66bde66,,,,,,,,,,,,,0,,,,,,,,,,,,,,,,,,,,,,,,,,,,,,,,,,,,,27,acutación,,,,,391.9981,394.0625,1,0,1.539,,0,3,3,26,1,REAL,FAKE,,,,,,,,,,,,,,,,,
,,,,,,,,,6721467438f857b0641618f5,Puerto Rican Spanish,13 or older,"no, only English or Spanish",yes,2025-08-10_15h57.04.953,empathy_intonation_perc_control,2024.2.4,Win32,60.24096386,6721467438f857b0641618f5,68817205a84113384fffdfe3,6898f94f697f6eafb66bde66,,,,,,,,,,,,,0,,,,,,,,,,,,,,,,,,,,,,,,,,,,,,,,,,,,,16,abracer,,,,,394.0644,395.7457,0,1,1.149099999,,0,4,4,15,1,REAL,FAKE,,,,,,,,,,,,,,,,,
,,,,,,,,,6721467438f857b0641618f5,Puerto Rican Spanish,13 or older,"no, only English or Spanish",yes,2025-08-10_15h57.04.953,empathy_intonation_perc_control,2024.2.4,Win32,60.24096386,6721467438f857b0641618f5,68817205a84113384fffdfe3,6898f94f697f6eafb66bde66,,,,,,,,,,,,,1,,,,,,,,,,,,,,,,,,,,,,,,,,,,,,,,,,,,,81,pozo,,,,,395.7487,397.2625,1,1,0.9803,,0,5,5,80,1,REAL,FAKE,,,,,,,,,,,,,,,,,
,,,,,,,,,6721467438f857b0641618f5,Puerto Rican Spanish,13 or older,"no, only English or Spanish",yes,2025-08-10_15h57.04.953,empathy_intonation_perc_control,2024.2.4,Win32,60.24096386,6721467438f857b0641618f5,68817205a84113384fffdfe3,6898f94f697f6eafb66bde66,,,,,,,,,,,,,1,,,,,,,,,,,,,,,,,,,,,,,,,,,,,,,,,,,,,15,regar,,,,,397.2644,399.5624,0,0,1.7625,,0,6,6,14,1,REAL,FAKE,,,,,,,,,,,,,,,,,
,,,,,,,,,6721467438f857b0641618f5,Puerto Rican Spanish,13 or older,"no, only English or Spanish",yes,2025-08-10_15h57.04.953,empathy_intonation_perc_control,2024.2.4,Win32,60.24096386,6721467438f857b0641618f5,68817205a84113384fffdfe3,6898f94f697f6eafb66bde66,,,,,,,,,,,,,1,,,,,,,,,,,,,,,,,,,,,,,,,,,,,,,,,,,,,91,click the 1 key.,,,,,399.5658,402.312,1,1,2.215900001,,0,7,7,90,1,REAL,FAKE,,,,,,,,,,,,,,,,,
,,,,,,,,,6721467438f857b0641618f5,Puerto Rican Spanish,13 or older,"no, only English or Spanish",yes,2025-08-10_15h57.04.953,empathy_intonation_perc_control,2024.2.4,Win32,60.24096386,6721467438f857b0641618f5,68817205a84113384fffdfe3,6898f94f697f6eafb66bde66,,,,,,,,,,,,,0,,,,,,,,,,,,,,,,,,,,,,,,,,,,,,,,,,,,,23,lampera,,,,,402.3138,404.1619,1,0,1.3137,,0,8,8,22,1,REAL,FAKE,,,,,,,,,,,,,,,,,
,,,,,,,,,6721467438f857b0641618f5,Puerto Rican Spanish,13 or older,"no, only English or Spanish",yes,2025-08-10_15h57.04.953,empathy_intonation_perc_control,2024.2.4,Win32,60.24096386,6721467438f857b0641618f5,68817205a84113384fffdfe3,6898f94f697f6eafb66bde66,,,,,,,,,,,,,1,,,,,,,,,,,,,,,,,,,,,,,,,,,,,,,,,,,,,76,atar,,,,,404.1639,405.5963,1,1,0.909,,0,9,9,75,1,REAL,FAKE,,,,,,,,,,,,,,,,,
,,,,,,,,,6721467438f857b0641618f5,Puerto Rican Spanish,13 or older,"no, only English or Spanish",yes,2025-08-10_15h57.04.953,empathy_intonation_perc_control,2024.2.4,Win32,60.24096386,6721467438f857b0641618f5,68817205a84113384fffdfe3,6898f94f697f6eafb66bde66,,,,,,,,,,,,,1,,,,,,,,,,,,,,,,,,,,,,,,,,,,,,,,,,,,,39,torpe,,,,,405.5977,407.612,0,0,1.4881,,0,10,10,38,1,REAL,FAKE,,,,,,,,,,,,,,,,,
,,,,,,,,,6721467438f857b0641618f5,Puerto Rican Spanish,13 or older,"no, only English or Spanish",yes,2025-08-10_15h57.04.953,empathy_intonation_perc_control,2024.2.4,Win32,60.24096386,6721467438f857b0641618f5,68817205a84113384fffdfe3,6898f94f697f6eafb66bde66,,,,,,,,,,,,,1,,,,,,,,,,,,,,,,,,,,,,,,,,,,,,,,,,,,,28,merodear,,,,,407.6137,412.9949,1,1,4.8567,,0,11,11,27,1,REAL,FAKE,,,,,,,,,,,,,,,,,
,,,,,,,,,6721467438f857b0641618f5,Puerto Rican Spanish,13 or older,"no, only English or Spanish",yes,2025-08-10_15h57.04.953,empathy_intonation_perc_control,2024.2.4,Win32,60.24096386,6721467438f857b0641618f5,68817205a84113384fffdfe3,6898f94f697f6eafb66bde66,,,,,,,,,,,,,1,,,,,,,,,,,,,,,,,,,,,,,,,,,,,,,,,,,,,61,seda,,,,,412.9968,414.5447,1,1,1.019400001,,0,12,12,60,1,REAL,FAKE,,,,,,,,,,,,,,,,,
,,,,,,,,,6721467438f857b0641618f5,Puerto Rican Spanish,13 or older,"no, only English or Spanish",yes,2025-08-10_15h57.04.953,empathy_intonation_perc_control,2024.2.4,Win32,60.24096386,6721467438f857b0641618f5,68817205a84113384fffdfe3,6898f94f697f6eafb66bde66,,,,,,,,,,,,,0,,,,,,,,,,,,,,,,,,,,,,,,,,,,,,,,,,,,,84,escuto,,,,,414.5465,417.4283,1,0,2.3531,,0,13,13,83,1,REAL,FAKE,,,,,,,,,,,,,,,,,
,,,,,,,,,6721467438f857b0641618f5,Puerto Rican Spanish,13 or older,"no, only English or Spanish",yes,2025-08-10_15h57.04.953,empathy_intonation_perc_control,2024.2.4,Win32,60.24096386,6721467438f857b0641618f5,68817205a84113384fffdfe3,6898f94f697f6eafb66bde66,,,,,,,,,,,,,1,,,,,,,,,,,,,,,,,,,,,,,,,,,,,,,,,,,,,25,bisagra,,,,,417.4302,419.4778,1,1,1.5165,,0,14,14,24,1,REAL,FAKE,,,,,,,,,,,,,,,,,
,,,,,,,,,6721467438f857b0641618f5,Puerto Rican Spanish,13 or older,"no, only English or Spanish",yes,2025-08-10_15h57.04.953,empathy_intonation_perc_control,2024.2.4,Win32,60.24096386,6721467438f857b0641618f5,68817205a84113384fffdfe3,6898f94f697f6eafb66bde66,,,,,,,,,,,,,1,,,,,,,,,,,,,,,,,,,,,,,,,,,,,,,,,,,,,86,barato,,,,,419.4797,429.2944,0,0,9.285,,0,15,15,85,1,REAL,FAKE,,,,,,,,,,,,,,,,,
,,,,,,,,,6721467438f857b0641618f5,Puerto Rican Spanish,13 or older,"no, only English or Spanish",yes,2025-08-10_15h57.04.953,empathy_intonation_perc_control,2024.2.4,Win32,60.24096386,6721467438f857b0641618f5,68817205a84113384fffdfe3,6898f94f697f6eafb66bde66,,,,,,,,,,,,,0,,,,,,,,,,,,,,,,,,,,,,,,,,,,,,,,,,,,,33,pauca,,,,,429.2959,431.5277,1,0,1.6962,,0,16,16,32,1,REAL,FAKE,,,,,,,,,,,,,,,,,
,,,,,,,,,6721467438f857b0641618f5,Puerto Rican Spanish,13 or older,"no, only English or Spanish",yes,2025-08-10_15h57.04.953,empathy_intonation_perc_control,2024.2.4,Win32,60.24096386,6721467438f857b0641618f5,68817205a84113384fffdfe3,6898f94f697f6eafb66bde66,,,,,,,,,,,,,1,,,,,,,,,,,,,,,,,,,,,,,,,,,,,,,,,,,,,62,flaco,,,,,431.5299,434.0439,1,1,1.981900001,,0,17,17,61,1,REAL,FAKE,,,,,,,,,,,,,,,,,
,,,,,,,,,6721467438f857b0641618f5,Puerto Rican Spanish,13 or older,"no, only English or Spanish",yes,2025-08-10_15h57.04.953,empathy_intonation_perc_control,2024.2.4,Win32,60.24096386,6721467438f857b0641618f5,68817205a84113384fffdfe3,6898f94f697f6eafb66bde66,,,,,,,,,,,,,0,,,,,,,,,,,,,,,,,,,,,,,,,,,,,,,,,,,,,92,click the 0 key.,,,,,434.0457,435.6106,0,1,1.0392,,0,18,18,91,1,REAL,FAKE,,,,,,,,,,,,,,,,,
,,,,,,,,,6721467438f857b0641618f5,Puerto Rican Spanish,13 or older,"no, only English or Spanish",yes,2025-08-10_15h57.04.953,empathy_intonation_perc_control,2024.2.4,Win32,60.24096386,6721467438f857b0641618f5,68817205a84113384fffdfe3,6898f94f697f6eafb66bde66,,,,,,,,,,,,,1,,,,,,,,,,,,,,,,,,,,,,,,,,,,,,,,,,,,,78,frondoso,,,,,435.6124,438.5271,0,0,2.379400001,,0,19,19,77,1,REAL,FAKE,,,,,,,,,,,,,,,,,
,,,,,,,,,6721467438f857b0641618f5,Puerto Rican Spanish,13 or older,"no, only English or Spanish",yes,2025-08-10_15h57.04.953,empathy_intonation_perc_control,2024.2.4,Win32,60.24096386,6721467438f857b0641618f5,68817205a84113384fffdfe3,6898f94f697f6eafb66bde66,,,,,,,,,,,,,1,,,,,,,,,,,,,,,,,,,,,,,,,,,,,,,,,,,,,54,fomentar,,,,,438.5285,440.7615,0,0,1.708400001,,0,20,20,53,1,REAL,FAKE,,,,,,,,,,,,,,,,,
,,,,,,,,,6721467438f857b0641618f5,Puerto Rican Spanish,13 or older,"no, only English or Spanish",yes,2025-08-10_15h57.04.953,empathy_intonation_perc_control,2024.2.4,Win32,60.24096386,6721467438f857b0641618f5,68817205a84113384fffdfe3,6898f94f697f6eafb66bde66,,,,,,,,,,,,,1,,,,,,,,,,,,,,,,,,,,,,,,,,,,,,,,,,,,,75,yacer,,,,,440.7631,459.443,0,0,18.1469,,0,21,21,74,1,REAL,FAKE,,,,,,,,,,,,,,,,,
,,,,,,,,,6721467438f857b0641618f5,Puerto Rican Spanish,13 or older,"no, only English or Spanish",yes,2025-08-10_15h57.04.953,empathy_intonation_perc_control,2024.2.4,Win32,60.24096386,6721467438f857b0641618f5,68817205a84113384fffdfe3,6898f94f697f6eafb66bde66,,,,,,,,,,,,,1,,,,,,,,,,,,,,,,,,,,,,,,,,,,,,,,,,,,,64,orgulloso,,,,,459.4447,461.4927,1,1,1.513200001,,0,22,22,63,1,REAL,FAKE,,,,,,,,,,,,,,,,,
,,,,,,,,,6721467438f857b0641618f5,Puerto Rican Spanish,13 or older,"no, only English or Spanish",yes,2025-08-10_15h57.04.953,empathy_intonation_perc_control,2024.2.4,Win32,60.24096386,6721467438f857b0641618f5,68817205a84113384fffdfe3,6898f94f697f6eafb66bde66,,,,,,,,,,,,,1,,,,,,,,,,,,,,,,,,,,,,,,,,,,,,,,,,,,,71,polvoriento,,,,,461.4946,464.8094,1,1,2.779,,0,23,23,70,1,REAL,FAKE,,,,,,,,,,,,,,,,,
,,,,,,,,,6721467438f857b0641618f5,Puerto Rican Spanish,13 or older,"no, only English or Spanish",yes,2025-08-10_15h57.04.953,empathy_intonation_perc_control,2024.2.4,Win32,60.24096386,6721467438f857b0641618f5,68817205a84113384fffdfe3,6898f94f697f6eafb66bde66,,,,,,,,,,,,,1,,,,,,,,,,,,,,,,,,,,,,,,,,,,,,,,,,,,,11,cenefa,,,,,464.8113,468.6592,1,1,3.323,,0,24,24,10,1,REAL,FAKE,,,,,,,,,,,,,,,,,
,,,,,,,,,6721467438f857b0641618f5,Puerto Rican Spanish,13 or older,"no, only English or Spanish",yes,2025-08-10_15h57.04.953,empathy_intonation_perc_control,2024.2.4,Win32,60.24096386,6721467438f857b0641618f5,68817205a84113384fffdfe3,6898f94f697f6eafb66bde66,,,,,,,,,,,,,1,,,,,,,,,,,,,,,,,,,,,,,,,,,,,,,,,,,,,14,yunque,,,,,468.661,473.9756,0,0,4.7795,,0,25,25,13,1,REAL,FAKE,,,,,,,,,,,,,,,,,
,,,,,,,,,6721467438f857b0641618f5,Puerto Rican Spanish,13 or older,"no, only English or Spanish",yes,2025-08-10_15h57.04.953,empathy_intonation_perc_control,2024.2.4,Win32,60.24096386,6721467438f857b0641618f5,68817205a84113384fffdfe3,6898f94f697f6eafb66bde66,,,,,,,,,,,,,0,,,,,,,,,,,,,,,,,,,,,,,,,,,,,,,,,,,,,18,arsa,,,,,473.9775,475.559,1,0,1.0459,,0,26,26,17,1,REAL,FAKE,,,,,,,,,,,,,,,,,
,,,,,,,,,6721467438f857b0641618f5,Puerto Rican Spanish,13 or older,"no, only English or Spanish",yes,2025-08-10_15h57.04.953,empathy_intonation_perc_control,2024.2.4,Win32,60.24096386,6721467438f857b0641618f5,68817205a84113384fffdfe3,6898f94f697f6eafb66bde66,,,,,,,,,,,,,0,,,,,,,,,,,,,,,,,,,,,,,,,,,,,,,,,,,,,82,empirador,,,,,475.5608,479.092,0,1,3,,0,27,27,81,1,REAL,FAKE,,,,,,,,,,,,,,,,,
,,,,,,,,,6721467438f857b0641618f5,Puerto Rican Spanish,13 or older,"no, only English or Spanish",yes,2025-08-10_15h57.04.953,empathy_intonation_perc_control,2024.2.4,Win32,60.24096386,6721467438f857b0641618f5,68817205a84113384fffdfe3,6898f94f697f6eafb66bde66,,,,,,,,,,,,,0,,,,,,,,,,,,,,,,,,,,,,,,,,,,,,,,,,,,,47,cartinar,,,,,479.0942,484.4756,0,1,4.8516,,0,28,28,46,1,REAL,FAKE,,,,,,,,,,,,,,,,,
,,,,,,,,,6721467438f857b0641618f5,Puerto Rican Spanish,13 or older,"no, only English or Spanish",yes,2025-08-10_15h57.04.953,empathy_intonation_perc_control,2024.2.4,Win32,60.24096386,6721467438f857b0641618f5,68817205a84113384fffdfe3,6898f94f697f6eafb66bde66,,,,,,,,,,,,,0,,,,,,,,,,,,,,,,,,,,,,,,,,,,,,,,,,,,,32,fatacidad,,,,,484.4775,488.7084,1,0,3.7,,0,29,29,31,1,REAL,FAKE,,,,,,,,,,,,,,,,,
,,,,,,,,,6721467438f857b0641618f5,Puerto Rican Spanish,13 or older,"no, only English or Spanish",yes,2025-08-10_15h57.04.953,empathy_intonation_perc_control,2024.2.4,Win32,60.24096386,6721467438f857b0641618f5,68817205a84113384fffdfe3,6898f94f697f6eafb66bde66,,,,,,,,,,,,,1,,,,,,,,,,,,,,,,,,,,,,,,,,,,,,,,,,,,,12,asesinato,,,,,488.7103,490.9582,1,1,1.7124,,0,30,30,11,1,REAL,FAKE,,,,,,,,,,,,,,,,,
,,,,,,,,,6721467438f857b0641618f5,Puerto Rican Spanish,13 or older,"no, only English or Spanish",yes,2025-08-10_15h57.04.953,empathy_intonation_perc_control,2024.2.4,Win32,60.24096386,6721467438f857b0641618f5,68817205a84113384fffdfe3,6898f94f697f6eafb66bde66,,,,,,,,,,,,,1,,,,,,,,,,,,,,,,,,,,,,,,,,,,,,,,,,,,,43,canela,,,,,490.9599,493.9579,0,0,2.473,,0,31,31,42,1,REAL,FAKE,,,,,,,,,,,,,,,,,
,,,,,,,,,6721467438f857b0641618f5,Puerto Rican Spanish,13 or older,"no, only English or Spanish",yes,2025-08-10_15h57.04.953,empathy_intonation_perc_control,2024.2.4,Win32,60.24096386,6721467438f857b0641618f5,68817205a84113384fffdfe3,6898f94f697f6eafb66bde66,,,,,,,,,,,,,1,,,,,,,,,,,,,,,,,,,,,,,,,,,,,,,,,,,,,34,aviso,,,,,493.9594,495.358,1,1,0.8644,,0,32,32,33,1,REAL,FAKE,,,,,,,,,,,,,,,,,
,,,,,,,,,6721467438f857b0641618f5,Puerto Rican Spanish,13 or older,"no, only English or Spanish",yes,2025-08-10_15h57.04.953,empathy_intonation_perc_control,2024.2.4,Win32,60.24096386,6721467438f857b0641618f5,68817205a84113384fffdfe3,6898f94f697f6eafb66bde66,,,,,,,,,,,,,1,,,,,,,,,,,,,,,,,,,,,,,,,,,,,,,,,,,,,22,lacayo,,,,,495.3598,497.0248,1,1,1.1315,,0,33,33,21,1,REAL,FAKE,,,,,,,,,,,,,,,,,
,,,,,,,,,6721467438f857b0641618f5,Puerto Rican Spanish,13 or older,"no, only English or Spanish",yes,2025-08-10_15h57.04.953,empathy_intonation_perc_control,2024.2.4,Win32,60.24096386,6721467438f857b0641618f5,68817205a84113384fffdfe3,6898f94f697f6eafb66bde66,,,,,,,,,,,,,1,,,,,,,,,,,,,,,,,,,,,,,,,,,,,,,,,,,,,5,zapato,,,,,497.0268,498.4248,0,0,0.864,,0,34,34,4,1,REAL,FAKE,,,,,,,,,,,,,,,,,
,,,,,,,,,6721467438f857b0641618f5,Puerto Rican Spanish,13 or older,"no, only English or Spanish",yes,2025-08-10_15h57.04.953,empathy_intonation_perc_control,2024.2.4,Win32,60.24096386,6721467438f857b0641618f5,68817205a84113384fffdfe3,6898f94f697f6eafb66bde66,,,,,,,,,,,,,0,,,,,,,,,,,,,,,,,,,,,,,,,,,,,,,,,,,,,10,antar,,,,,498.4265,499.7413,1,0,0.7841,,0,35,35,9,1,REAL,FAKE,,,,,,,,,,,,,,,,,
,,,,,,,,,6721467438f857b0641618f5,Puerto Rican Spanish,13 or older,"no, only English or Spanish",yes,2025-08-10_15h57.04.953,empathy_intonation_perc_control,2024.2.4,Win32,60.24096386,6721467438f857b0641618f5,68817205a84113384fffdfe3,6898f94f697f6eafb66bde66,,,,,,,,,,,,,0,,,,,,,,,,,,,,,,,,,,,,,,,,,,,,,,,,,,,35,rompido,,,,,499.7432,501.8095,1,0,1.542,,0,36,36,34,1,REAL,FAKE,,,,,,,,,,,,,,,,,
,,,,,,,,,6721467438f857b0641618f5,Puerto Rican Spanish,13 or older,"no, only English or Spanish",yes,2025-08-10_15h57.04.953,empathy_intonation_perc_control,2024.2.4,Win32,60.24096386,6721467438f857b0641618f5,68817205a84113384fffdfe3,6898f94f697f6eafb66bde66,,,,,,,,,,,,,1,,,,,,,,,,,,,,,,,,,,,,,,,,,,,,,,,,,,,55,nevar,,,,,501.8108,503.8409,0,0,1.495400001,,0,37,37,54,1,REAL,FAKE,,,,,,,,,,,,,,,,,
,,,,,,,,,6721467438f857b0641618f5,Puerto Rican Spanish,13 or older,"no, only English or Spanish",yes,2025-08-10_15h57.04.953,empathy_intonation_perc_control,2024.2.4,Win32,60.24096386,6721467438f857b0641618f5,68817205a84113384fffdfe3,6898f94f697f6eafb66bde66,,,,,,,,,,,,,1,,,,,,,,,,,,,,,,,,,,,,,,,,,,,,,,,,,,,31,pandilla,,,,,503.8428,506.5077,0,0,2.1364,,0,38,38,30,1,REAL,FAKE,,,,,,,,,,,,,,,,,
,,,,,,,,,6721467438f857b0641618f5,Puerto Rican Spanish,13 or older,"no, only English or Spanish",yes,2025-08-10_15h57.04.953,empathy_intonation_perc_control,2024.2.4,Win32,60.24096386,6721467438f857b0641618f5,68817205a84113384fffdfe3,6898f94f697f6eafb66bde66,,,,,,,,,,,,,0,,,,,,,,,,,,,,,,,,,,,,,,,,,,,,,,,,,,,4,batillón,,,,,506.5098,507.6578,1,0,0.619900001,,0,39,39,3,1,REAL,FAKE,,,,,,,,,,,,,,,,,
,,,,,,,,,6721467438f857b0641618f5,Puerto Rican Spanish,13 or older,"no, only English or Spanish",yes,2025-08-10_15h57.04.953,empathy_intonation_perc_control,2024.2.4,Win32,60.24096386,6721467438f857b0641618f5,68817205a84113384fffdfe3,6898f94f697f6eafb66bde66,,,,,,,,,,,,,1,,,,,,,,,,,,,,,,,,,,,,,,,,,,,,,,,,,,,20,ávido,,,,,507.6606,508.8741,1,1,0.6813,,0,40,40,19,1,REAL,FAKE,,,,,,,,,,,,,,,,,
,,,,,,,,,6721467438f857b0641618f5,Puerto Rican Spanish,13 or older,"no, only English or Spanish",yes,2025-08-10_15h57.04.953,empathy_intonation_perc_control,2024.2.4,Win32,60.24096386,6721467438f857b0641618f5,68817205a84113384fffdfe3,6898f94f697f6eafb66bde66,,,,,,,,,,,,,1,,,,,,,,,,,,,,,,,,,,,,,,,,,,,,,,,,,,,52,camisa,,,,,508.876,512.2239,1,1,2.8149,,0,41,41,51,1,REAL,FAKE,,,,,,,,,,,,,,,,,
,,,,,,,,,6721467438f857b0641618f5,Puerto Rican Spanish,13 or older,"no, only English or Spanish",yes,2025-08-10_15h57.04.953,empathy_intonation_perc_control,2024.2.4,Win32,60.24096386,6721467438f857b0641618f5,68817205a84113384fffdfe3,6898f94f697f6eafb66bde66,,,,,,,,,,,,,0,,,,,,,,,,,,,,,,,,,,,,,,,,,,,,,,,,,,,29,decar,,,,,512.2257,513.7905,0,1,1.04,,0,42,42,28,1,REAL,FAKE,,,,,,,,,,,,,,,,,
,,,,,,,,,6721467438f857b0641618f5,Puerto Rican Spanish,13 or older,"no, only English or Spanish",yes,2025-08-10_15h57.04.953,empathy_intonation_perc_control,2024.2.4,Win32,60.24096386,6721467438f857b0641618f5,68817205a84113384fffdfe3,6898f94f697f6eafb66bde66,,,,,,,,,,,,,1,,,,,,,,,,,,,,,,,,,,,,,,,,,,,,,,,,,,,80,hormiga,,,,,513.7927,515.3075,1,1,0.987700001,,0,43,43,79,1,REAL,FAKE,,,,,,,,,,,,,,,,,
,,,,,,,,,6721467438f857b0641618f5,Puerto Rican Spanish,13 or older,"no, only English or Spanish",yes,2025-08-10_15h57.04.953,empathy_intonation_perc_control,2024.2.4,Win32,60.24096386,6721467438f857b0641618f5,68817205a84113384fffdfe3,6898f94f697f6eafb66bde66,,,,,,,,,,,,,0,,,,,,,,,,,,,,,,,,,,,,,,,,,,,,,,,,,,,17,floroso,,,,,515.3097,516.9239,0,1,1.0798,,0,44,44,16,1,REAL,FAKE,,,,,,,,,,,,,,,,,
,,,,,,,,,6721467438f857b0641618f5,Puerto Rican Spanish,13 or older,"no, only English or Spanish",yes,2025-08-10_15h57.04.953,empathy_intonation_perc_control,2024.2.4,Win32,60.24096386,6721467438f857b0641618f5,68817205a84113384fffdfe3,6898f94f697f6eafb66bde66,,,,,,,,,,,,,0,,,,,,,,,,,,,,,,,,,,,,,,,,,,,,,,,,,,,72,pemición,,,,,516.9258,518.2071,1,0,0.753400001,,0,45,45,71,1,REAL,FAKE,,,,,,,,,,,,,,,,,
,,,,,,,,,6721467438f857b0641618f5,Puerto Rican Spanish,13 or older,"no, only English or Spanish",yes,2025-08-10_15h57.04.953,empathy_intonation_perc_control,2024.2.4,Win32,60.24096386,6721467438f857b0641618f5,68817205a84113384fffdfe3,6898f94f697f6eafb66bde66,,,,,,,,,,,,,1,,,,,,,,,,,,,,,,,,,,,,,,,,,,,,,,,,,,,13,helar,,,,,518.209,519.6236,0,0,0.884299999,,0,46,46,12,1,REAL,FAKE,,,,,,,,,,,,,,,,,
,,,,,,,,,6721467438f857b0641618f5,Puerto Rican Spanish,13 or older,"no, only English or Spanish",yes,2025-08-10_15h57.04.953,empathy_intonation_perc_control,2024.2.4,Win32,60.24096386,6721467438f857b0641618f5,68817205a84113384fffdfe3,6898f94f697f6eafb66bde66,,,,,,,,,,,,,1,,,,,,,,,,,,,,,,,,,,,,,,,,,,,,,,,,,,,77,tiburón,,,,,519.6255,521.5069,1,1,1.348299999,,0,47,47,76,1,REAL,FAKE,,,,,,,,,,,,,,,,,
,,,,,,,,,6721467438f857b0641618f5,Puerto Rican Spanish,13 or older,"no, only English or Spanish",yes,2025-08-10_15h57.04.953,empathy_intonation_perc_control,2024.2.4,Win32,60.24096386,6721467438f857b0641618f5,68817205a84113384fffdfe3,6898f94f697f6eafb66bde66,,,,,,,,,,,,,1,,,,,,,,,,,,,,,,,,,,,,,,,,,,,,,,,,,,,69,engatusar,,,,,521.5086,523.0403,0,0,1.0047,,0,48,48,68,1,REAL,FAKE,,,,,,,,,,,,,,,,,
,,,,,,,,,6721467438f857b0641618f5,Puerto Rican Spanish,13 or older,"no, only English or Spanish",yes,2025-08-10_15h57.04.953,empathy_intonation_perc_control,2024.2.4,Win32,60.24096386,6721467438f857b0641618f5,68817205a84113384fffdfe3,6898f94f697f6eafb66bde66,,,,,,,,,,,,,1,,,,,,,,,,,,,,,,,,,,,,,,,,,,,,,,,,,,,45,jilguero,,,,,523.0426,526.4233,1,1,2.8571,,0,49,49,44,1,REAL,FAKE,,,,,,,,,,,,,,,,,
,,,,,,,,,6721467438f857b0641618f5,Puerto Rican Spanish,13 or older,"no, only English or Spanish",yes,2025-08-10_15h57.04.953,empathy_intonation_perc_control,2024.2.4,Win32,60.24096386,6721467438f857b0641618f5,68817205a84113384fffdfe3,6898f94f697f6eafb66bde66,,,,,,,,,,,,,1,,,,,,,,,,,,,,,,,,,,,,,,,,,,,,,,,,,,,40,alfombra,,,,,526.4254,528.0736,0,0,1.1207,,0,50,50,39,1,REAL,FAKE,,,,,,,,,,,,,,,,,
,,,,,,,,,6721467438f857b0641618f5,Puerto Rican Spanish,13 or older,"no, only English or Spanish",yes,2025-08-10_15h57.04.953,empathy_intonation_perc_control,2024.2.4,Win32,60.24096386,6721467438f857b0641618f5,68817205a84113384fffdfe3,6898f94f697f6eafb66bde66,,,,,,,,,,,,,0,,,,,,,,,,,,,,,,,,,,,,,,,,,,,,,,,,,,,74,cintro,,,,,528.0755,531.99,0,1,3.3883,,0,51,51,73,1,REAL,FAKE,,,,,,,,,,,,,,,,,
,,,,,,,,,6721467438f857b0641618f5,Puerto Rican Spanish,13 or older,"no, only English or Spanish",yes,2025-08-10_15h57.04.953,empathy_intonation_perc_control,2024.2.4,Win32,60.24096386,6721467438f857b0641618f5,68817205a84113384fffdfe3,6898f94f697f6eafb66bde66,,,,,,,,,,,,,0,,,,,,,,,,,,,,,,,,,,,,,,,,,,,,,,,,,,,79,tropaje,,,,,531.9919,533.3401,1,0,0.819400001,,0,52,52,78,1,REAL,FAKE,,,,,,,,,,,,,,,,,
,,,,,,,,,6721467438f857b0641618f5,Puerto Rican Spanish,13 or older,"no, only English or Spanish",yes,2025-08-10_15h57.04.953,empathy_intonation_perc_control,2024.2.4,Win32,60.24096386,6721467438f857b0641618f5,68817205a84113384fffdfe3,6898f94f697f6eafb66bde66,,,,,,,,,,,,,1,,,,,,,,,,,,,,,,,,,,,,,,,,,,,,,,,,,,,7,pésimo,,,,,533.3419,534.64,1,1,0.763099999,,0,53,53,6,1,REAL,FAKE,,,,,,,,,,,,,,,,,
,,,,,,,,,6721467438f857b0641618f5,Puerto Rican Spanish,13 or older,"no, only English or Spanish",yes,2025-08-10_15h57.04.953,empathy_intonation_perc_control,2024.2.4,Win32,60.24096386,6721467438f857b0641618f5,68817205a84113384fffdfe3,6898f94f697f6eafb66bde66,,,,,,,,,,,,,1,,,,,,,,,,,,,,,,,,,,,,,,,,,,,,,,,,,,,41,rebuscar,,,,,534.6417,536.6395,0,0,1.469900001,,0,54,54,40,1,REAL,FAKE,,,,,,,,,,,,,,,,,
,,,,,,,,,6721467438f857b0641618f5,Puerto Rican Spanish,13 or older,"no, only English or Spanish",yes,2025-08-10_15h57.04.953,empathy_intonation_perc_control,2024.2.4,Win32,60.24096386,6721467438f857b0641618f5,68817205a84113384fffdfe3,6898f94f697f6eafb66bde66,,,,,,,,,,,,,1,,,,,,,,,,,,,,,,,,,,,,,,,,,,,,,,,,,,,90,clavel,,,,,536.6416,538.2245,0,0,1.047,,0,55,55,89,1,REAL,FAKE,,,,,,,,,,,,,,,,,
,,,,,,,,,6721467438f857b0641618f5,Puerto Rican Spanish,13 or older,"no, only English or Spanish",yes,2025-08-10_15h57.04.953,empathy_intonation_perc_control,2024.2.4,Win32,60.24096386,6721467438f857b0641618f5,68817205a84113384fffdfe3,6898f94f697f6eafb66bde66,,,,,,,,,,,,,1,,,,,,,,,,,,,,,,,,,,,,,,,,,,,,,,,,,,,9,hacha,,,,,538.2258,539.7894,1,1,1.0384,,0,56,56,8,1,REAL,FAKE,,,,,,,,,,,,,,,,,
,,,,,,,,,6721467438f857b0641618f5,Puerto Rican Spanish,13 or older,"no, only English or Spanish",yes,2025-08-10_15h57.04.953,empathy_intonation_perc_control,2024.2.4,Win32,60.24096386,6721467438f857b0641618f5,68817205a84113384fffdfe3,6898f94f697f6eafb66bde66,,,,,,,,,,,,,0,,,,,,,,,,,,,,,,,,,,,,,,,,,,,,,,,,,,,63,esposante,,,,,539.7909,541.2559,1,0,0.9323,,0,57,57,62,1,REAL,FAKE,,,,,,,,,,,,,,,,,
,,,,,,,,,6721467438f857b0641618f5,Puerto Rican Spanish,13 or older,"no, only English or Spanish",yes,2025-08-10_15h57.04.953,empathy_intonation_perc_control,2024.2.4,Win32,60.24096386,6721467438f857b0641618f5,68817205a84113384fffdfe3,6898f94f697f6eafb66bde66,,,,,,,,,,,,,1,,,,,,,,,,,,,,,,,,,,,,,,,,,,,,,,,,,,,88,acantilado,,,,,541.2577,543.5558,1,1,1.775,,0,58,58,87,1,REAL,FAKE,,,,,,,,,,,,,,,,,
,,,,,,,,,6721467438f857b0641618f5,Puerto Rican Spanish,13 or older,"no, only English or Spanish",yes,2025-08-10_15h57.04.953,empathy_intonation_perc_control,2024.2.4,Win32,60.24096386,6721467438f857b0641618f5,68817205a84113384fffdfe3,6898f94f697f6eafb66bde66,,,,,,,,,,,,,0,,,,,,,,,,,,,,,,,,,,,,,,,,,,,,,,,,,,,53,vegada,,,,,543.5576,546.3389,1,0,2.2505,,0,59,59,52,1,REAL,FAKE,,,,,,,,,,,,,,,,,
,,,,,,,,,6721467438f857b0641618f5,Puerto Rican Spanish,13 or older,"no, only English or Spanish",yes,2025-08-10_15h57.04.953,empathy_intonation_perc_control,2024.2.4,Win32,60.24096386,6721467438f857b0641618f5,68817205a84113384fffdfe3,6898f94f697f6eafb66bde66,,,,,,,,,,,,,0,,,,,,,,,,,,,,,,,,,,,,,,,,,,,,,,,,,,,30,alardio,,,,,546.3408,548.1057,0,1,1.2378,,0,60,60,29,1,REAL,FAKE,,,,,,,,,,,,,,,,,
,,,,,,,,,6721467438f857b0641618f5,Puerto Rican Spanish,13 or older,"no, only English or Spanish",yes,2025-08-10_15h57.04.953,empathy_intonation_perc_control,2024.2.4,Win32,60.24096386,6721467438f857b0641618f5,68817205a84113384fffdfe3,6898f94f697f6eafb66bde66,,,,,,,,,,,,,0,,,,,,,,,,,,,,,,,,,,,,,,,,,,,,,,,,,,,21,capillo,,,,,548.1079,550.2556,0,1,1.618400001,,0,61,61,20,1,REAL,FAKE,,,,,,,,,,,,,,,,,
,,,,,,,,,6721467438f857b0641618f5,Puerto Rican Spanish,13 or older,"no, only English or Spanish",yes,2025-08-10_15h57.04.953,empathy_intonation_perc_control,2024.2.4,Win32,60.24096386,6721467438f857b0641618f5,68817205a84113384fffdfe3,6898f94f697f6eafb66bde66,,,,,,,,,,,,,0,,,,,,,,,,,,,,,,,,,,,,,,,,,,,,,,,,,,,70,temblo,,,,,550.2567,551.5724,0,1,0.781,,0,62,62,69,1,REAL,FAKE,,,,,,,,,,,,,,,,,
,,,,,,,,,6721467438f857b0641618f5,Puerto Rican Spanish,13 or older,"no, only English or Spanish",yes,2025-08-10_15h57.04.953,empathy_intonation_perc_control,2024.2.4,Win32,60.24096386,6721467438f857b0641618f5,68817205a84113384fffdfe3,6898f94f697f6eafb66bde66,,,,,,,,,,,,,0,,,,,,,,,,,,,,,,,,,,,,,,,,,,,,,,,,,,,87,grodo,,,,,551.5744,553.6385,1,0,1.5343,,0,63,63,86,1,REAL,FAKE,,,,,,,,,,,,,,,,,
,,,,,,,,,6721467438f857b0641618f5,Puerto Rican Spanish,13 or older,"no, only English or Spanish",yes,2025-08-10_15h57.04.953,empathy_intonation_perc_control,2024.2.4,Win32,60.24096386,6721467438f857b0641618f5,68817205a84113384fffdfe3,6898f94f697f6eafb66bde66,,,,,,,,,,,,,0,,,,,,,,,,,,,,,,,,,,,,,,,,,,,,,,,,,,,58,plaudir,,,,,553.6404,555.6219,0,1,1.4463,,0,64,64,57,1,REAL,FAKE,,,,,,,,,,,,,,,,,
,,,,,,,,,6721467438f857b0641618f5,Puerto Rican Spanish,13 or older,"no, only English or Spanish",yes,2025-08-10_15h57.04.953,empathy_intonation_perc_control,2024.2.4,Win32,60.24096386,6721467438f857b0641618f5,68817205a84113384fffdfe3,6898f94f697f6eafb66bde66,,,,,,,,,,,,,0,,,,,,,,,,,,,,,,,,,,,,,,,,,,,,,,,,,,,19,brecedad,,,,,555.623,557.0892,1,0,0.9417,,0,65,65,18,1,REAL,FAKE,,,,,,,,,,,,,,,,,
,,,,,,,,,6721467438f857b0641618f5,Puerto Rican Spanish,13 or older,"no, only English or Spanish",yes,2025-08-10_15h57.04.953,empathy_intonation_perc_control,2024.2.4,Win32,60.24096386,6721467438f857b0641618f5,68817205a84113384fffdfe3,6898f94f697f6eafb66bde66,,,,,,,,,,,,,1,,,,,,,,,,,,,,,,,,,,,,,,,,,,,,,,,,,,,89,prisa,,,,,557.0908,559.8719,0,0,2.2465,,0,66,66,88,1,REAL,FAKE,,,,,,,,,,,,,,,,,
,,,,,,,,,6721467438f857b0641618f5,Puerto Rican Spanish,13 or older,"no, only English or Spanish",yes,2025-08-10_15h57.04.953,empathy_intonation_perc_control,2024.2.4,Win32,60.24096386,6721467438f857b0641618f5,68817205a84113384fffdfe3,6898f94f697f6eafb66bde66,,,,,,,,,,,,,1,,,,,,,,,,,,,,,,,,,,,,,,,,,,,,,,,,,,,26,secuestro,,,,,559.8742,562.0719,1,1,1.6676,,0,67,67,25,1,REAL,FAKE,,,,,,,,,,,,,,,,,
,,,,,,,,,6721467438f857b0641618f5,Puerto Rican Spanish,13 or older,"no, only English or Spanish",yes,2025-08-10_15h57.04.953,empathy_intonation_perc_control,2024.2.4,Win32,60.24096386,6721467438f857b0641618f5,68817205a84113384fffdfe3,6898f94f697f6eafb66bde66,,,,,,,,,,,,,1,,,,,,,,,,,,,,,,,,,,,,,,,,,,,,,,,,,,,38,estornudar,,,,,562.0734,564.1383,0,0,1.5366,,0,68,68,37,1,REAL,FAKE,,,,,,,,,,,,,,,,,
,,,,,,,,,6721467438f857b0641618f5,Puerto Rican Spanish,13 or older,"no, only English or Spanish",yes,2025-08-10_15h57.04.953,empathy_intonation_perc_control,2024.2.4,Win32,60.24096386,6721467438f857b0641618f5,68817205a84113384fffdfe3,6898f94f697f6eafb66bde66,,,,,,,,,,,,,0,,,,,,,,,,,,,,,,,,,,,,,,,,,,,,,,,,,,,66,hacido,,,,,564.1403,567.7382,1,0,3.0703,,0,69,69,65,1,REAL,FAKE,,,,,,,,,,,,,,,,,
,,,,,,,,,6721467438f857b0641618f5,Puerto Rican Spanish,13 or older,"no, only English or Spanish",yes,2025-08-10_15h57.04.953,empathy_intonation_perc_control,2024.2.4,Win32,60.24096386,6721467438f857b0641618f5,68817205a84113384fffdfe3,6898f94f697f6eafb66bde66,,,,,,,,,,,,,1,,,,,,,,,,,,,,,,,,,,,,,,,,,,,,,,,,,,,68,alegre,,,,,567.7406,577.4378,1,1,9.1633,,0,70,70,67,1,REAL,FAKE,,,,,,,,,,,,,,,,,
,,,,,,,,,6721467438f857b0641618f5,Puerto Rican Spanish,13 or older,"no, only English or Spanish",yes,2025-08-10_15h57.04.953,empathy_intonation_perc_control,2024.2.4,Win32,60.24096386,6721467438f857b0641618f5,68817205a84113384fffdfe3,6898f94f697f6eafb66bde66,,,,,,,,,,,,,1,,,,,,,,,,,,,,,,,,,,,,,,,,,,,,,,,,,,,51,candado,,,,,577.4397,580.9544,0,0,2.9853,,0,71,71,50,1,REAL,FAKE,,,,,,,,,,,,,,,,,
,,,,,,,,,6721467438f857b0641618f5,Puerto Rican Spanish,13 or older,"no, only English or Spanish",yes,2025-08-10_15h57.04.953,empathy_intonation_perc_control,2024.2.4,Win32,60.24096386,6721467438f857b0641618f5,68817205a84113384fffdfe3,6898f94f697f6eafb66bde66,,,,,,,,,,,,,1,,,,,,,,,,,,,,,,,,,,,,,,,,,,,,,,,,,,,56,musgo,,,,,580.9566,584.7206,1,1,3.2392,,0,72,72,55,1,REAL,FAKE,,,,,,,,,,,,,,,,,
,,,,,,,,,6721467438f857b0641618f5,Puerto Rican Spanish,13 or older,"no, only English or Spanish",yes,2025-08-10_15h57.04.953,empathy_intonation_perc_control,2024.2.4,Win32,60.24096386,6721467438f857b0641618f5,68817205a84113384fffdfe3,6898f94f697f6eafb66bde66,,,,,,,,,,,,,1,,,,,,,,,,,,,,,,,,,,,,,,,,,,,,,,,,,,,2,pellizcar,,,,,584.7224,587.154,0,0,1.8974,,0,73,73,1,1,REAL,FAKE,,,,,,,,,,,,,,,,,
,,,,,,,,,6721467438f857b0641618f5,Puerto Rican Spanish,13 or older,"no, only English or Spanish",yes,2025-08-10_15h57.04.953,empathy_intonation_perc_control,2024.2.4,Win32,60.24096386,6721467438f857b0641618f5,68817205a84113384fffdfe3,6898f94f697f6eafb66bde66,,,,,,,,,,,,,1,,,,,,,,,,,,,,,,,,,,,,,,,,,,,,,,,,,,,49,ganar,,,,,587.155,588.9706,0,0,1.2809,,0,74,74,48,1,REAL,FAKE,,,,,,,,,,,,,,,,,
,,,,,,,,,6721467438f857b0641618f5,Puerto Rican Spanish,13 or older,"no, only English or Spanish",yes,2025-08-10_15h57.04.953,empathy_intonation_perc_control,2024.2.4,Win32,60.24096386,6721467438f857b0641618f5,68817205a84113384fffdfe3,6898f94f697f6eafb66bde66,,,,,,,,,,,,,1,,,,,,,,,,,,,,,,,,,,,,,,,,,,,,,,,,,,,83,guante,,,,,588.9725,590.2208,1,1,0.7252,,0,75,75,82,1,REAL,FAKE,,,,,,,,,,,,,,,,,
,,,,,,,,,6721467438f857b0641618f5,Puerto Rican Spanish,13 or older,"no, only English or Spanish",yes,2025-08-10_15h57.04.953,empathy_intonation_perc_control,2024.2.4,Win32,60.24096386,6721467438f857b0641618f5,68817205a84113384fffdfe3,6898f94f697f6eafb66bde66,,,,,,,,,,,,,1,,,,,,,,,,,,,,,,,,,,,,,,,,,,,,,,,,,,,65,bizcocho,,,,,590.2225,591.4036,1,1,0.6472,,0,76,76,64,1,REAL,FAKE,,,,,,,,,,,,,,,,,
,,,,,,,,,6721467438f857b0641618f5,Puerto Rican Spanish,13 or older,"no, only English or Spanish",yes,2025-08-10_15h57.04.953,empathy_intonation_perc_control,2024.2.4,Win32,60.24096386,6721467438f857b0641618f5,68817205a84113384fffdfe3,6898f94f697f6eafb66bde66,,,,,,,,,,,,,1,,,,,,,,,,,,,,,,,,,,,,,,,,,,,,,,,,,,,73,hervidor,,,,,591.4054,595.8368,0,0,3.8955,,0,77,77,72,1,REAL,FAKE,,,,,,,,,,,,,,,,,
,,,,,,,,,6721467438f857b0641618f5,Puerto Rican Spanish,13 or older,"no, only English or Spanish",yes,2025-08-10_15h57.04.953,empathy_intonation_perc_control,2024.2.4,Win32,60.24096386,6721467438f857b0641618f5,68817205a84113384fffdfe3,6898f94f697f6eafb66bde66,,,,,,,,,,,,,0,,,,,,,,,,,,,,,,,,,,,,,,,,,,,,,,,,,,,1,terzo,,,,,595.8385,597.4538,1,0,1.0791,,0,78,78,0,1,REAL,FAKE,,,,,,,,,,,,,,,,,
,,,,,,,,,6721467438f857b0641618f5,Puerto Rican Spanish,13 or older,"no, only English or Spanish",yes,2025-08-10_15h57.04.953,empathy_intonation_perc_control,2024.2.4,Win32,60.24096386,6721467438f857b0641618f5,68817205a84113384fffdfe3,6898f94f697f6eafb66bde66,,,,,,,,,,,,,1,,,,,,,,,,,,,,,,,,,,,,,,,,,,,,,,,,,,,60,matar,,,,,597.4559,600.2034,1,1,2.2142,,0,79,79,59,1,REAL,FAKE,,,,,,,,,,,,,,,,,
,,,,,,,,,6721467438f857b0641618f5,Puerto Rican Spanish,13 or older,"no, only English or Spanish",yes,2025-08-10_15h57.04.953,empathy_intonation_perc_control,2024.2.4,Win32,60.24096386,6721467438f857b0641618f5,68817205a84113384fffdfe3,6898f94f697f6eafb66bde66,,,,,,,,,,,,,1,,,,,,,,,,,,,,,,,,,,,,,,,,,,,,,,,,,,,24,látigo,,,,,600.2052,601.62,1,1,0.883,,0,80,80,23,1,REAL,FAKE,,,,,,,,,,,,,,,,,
,,,,,,,,,6721467438f857b0641618f5,Puerto Rican Spanish,13 or older,"no, only English or Spanish",yes,2025-08-10_15h57.04.953,empathy_intonation_perc_control,2024.2.4,Win32,60.24096386,6721467438f857b0641618f5,68817205a84113384fffdfe3,6898f94f697f6eafb66bde66,,,,,,,,,,,,,0,,,,,,,,,,,,,,,,,,,,,,,,,,,,,,,,,,,,,50,flamida,,,,,601.6217,604.0699,1,0,1.9189,,0,81,81,49,1,REAL,FAKE,,,,,,,,,,,,,,,,,
,,,,,,,,,6721467438f857b0641618f5,Puerto Rican Spanish,13 or older,"no, only English or Spanish",yes,2025-08-10_15h57.04.953,empathy_intonation_perc_control,2024.2.4,Win32,60.24096386,6721467438f857b0641618f5,68817205a84113384fffdfe3,6898f94f697f6eafb66bde66,,,,,,,,,,,,,1,,,,,,,,,,,,,,,,,,,,,,,,,,,,,,,,,,,,,48,ladrón,,,,,604.0718,605.8532,1,1,1.2539,,0,82,82,47,1,REAL,FAKE,,,,,,,,,,,,,,,,,
,,,,,,,,,6721467438f857b0641618f5,Puerto Rican Spanish,13 or older,"no, only English or Spanish",yes,2025-08-10_15h57.04.953,empathy_intonation_perc_control,2024.2.4,Win32,60.24096386,6721467438f857b0641618f5,68817205a84113384fffdfe3,6898f94f697f6eafb66bde66,,,,,,,,,,,,,1,,,,,,,,,,,,,,,,,,,,,,,,,,,,,,,,,,,,,44,cuchara,,,,,605.8548,607.6706,1,1,1.2911,,0,83,83,43,1,REAL,FAKE,,,,,,,,,,,,,,,,,
,,,,,,,,,6721467438f857b0641618f5,Puerto Rican Spanish,13 or older,"no, only English or Spanish",yes,2025-08-10_15h57.04.953,empathy_intonation_perc_control,2024.2.4,Win32,60.24096386,6721467438f857b0641618f5,68817205a84113384fffdfe3,6898f94f697f6eafb66bde66,,,,,,,,,,,,,0,,,,,,,,,,,,,,,,,,,,,,,,,,,,,,,,,,,,,8,cadeña,,,,,607.6727,609.1533,1,0,0.945299999,,0,84,84,7,1,REAL,FAKE,,,,,,,,,,,,,,,,,
,,,,,,,,,6721467438f857b0641618f5,Puerto Rican Spanish,13 or older,"no, only English or Spanish",yes,2025-08-10_15h57.04.953,empathy_intonation_perc_control,2024.2.4,Win32,60.24096386,6721467438f857b0641618f5,68817205a84113384fffdfe3,6898f94f697f6eafb66bde66,,,,,,,,,,,,,1,,,,,,,,,,,,,,,,,,,,,,,,,,,,,,,,,,,,,46,martillo,,,,,609.1551,610.3364,0,0,0.6476,,0,85,85,45,1,REAL,FAKE,,,,,,,,,,,,,,,,,
,,,,,,,,,6721467438f857b0641618f5,Puerto Rican Spanish,13 or older,"no, only English or Spanish",yes,2025-08-10_15h57.04.953,empathy_intonation_perc_control,2024.2.4,Win32,60.24096386,6721467438f857b0641618f5,68817205a84113384fffdfe3,6898f94f697f6eafb66bde66,,,,,,,,,,,,,0,,,,,,,,,,,,,,,,,,,,,,,,,,,,,,,,,,,,,42,cadallo,,,,,610.3383,612.6863,0,1,1.821,,0,86,86,41,1,REAL,FAKE,,,,,,,,,,,,,,,,,
,,,,,,,,,6721467438f857b0641618f5,Puerto Rican Spanish,13 or older,"no, only English or Spanish",yes,2025-08-10_15h57.04.953,empathy_intonation_perc_control,2024.2.4,Win32,60.24096386,6721467438f857b0641618f5,68817205a84113384fffdfe3,6898f94f697f6eafb66bde66,,,,,,,,,,,,,1,,,,,,,,,,,,,,,,,,,,,,,,,,,,,,,,,,,,,57,tacaño,,,,,612.6885,614.0532,1,1,0.828599999,,0,87,87,56,1,REAL,FAKE,,,,,,,,,,,,,,,,,
,,,,,,,,,6721467438f857b0641618f5,Puerto Rican Spanish,13 or older,"no, only English or Spanish",yes,2025-08-10_15h57.04.953,empathy_intonation_perc_control,2024.2.4,Win32,60.24096386,6721467438f857b0641618f5,68817205a84113384fffdfe3,6898f94f697f6eafb66bde66,,,,,,,,,,,,,1,,,,,,,,,,,,,,,,,,,,,,,,,,,,,,,,,,,,,85,laúd,,,,,614.0556,615.3192,1,1,0.7397,,0,88,88,84,1,REAL,FAKE,,,,,,,,,,,,,,,,,
,,,,,,,,,6721467438f857b0641618f5,Puerto Rican Spanish,13 or older,"no, only English or Spanish",yes,2025-08-10_15h57.04.953,empathy_intonation_perc_control,2024.2.4,Win32,60.24096386,6721467438f857b0641618f5,68817205a84113384fffdfe3,6898f94f697f6eafb66bde66,,,,,,,,,,,,,1,,,,,,,,,,,,,,,,,,,,,,,,,,,,,,,,,,,,,67,cabello,,,,,615.3211,620.1526,0,0,4.303,,0,89,89,66,1,REAL,FAKE,,,,,,,,,,,,,,,,,
,,,,,,,,,6721467438f857b0641618f5,Puerto Rican Spanish,13 or older,"no, only English or Spanish",yes,2025-08-10_15h57.04.953,empathy_intonation_perc_control,2024.2.4,Win32,60.24096386,6721467438f857b0641618f5,68817205a84113384fffdfe3,6898f94f697f6eafb66bde66,,,,,,,,,,,,,1,,,,,,,,,,,,,,,,,,,,,,,,,,,,,,,,,,,,,36,loro,,,,,620.1542,627.4855,1,1,6.800200001,,0,90,90,35,1,REAL,FAKE,,,,,,,,,,,,,,,,,
,,,,,,,,,6721467438f857b0641618f5,Puerto Rican Spanish,13 or older,"no, only English or Spanish",yes,2025-08-10_15h57.04.953,empathy_intonation_perc_control,2024.2.4,Win32,60.24096386,6721467438f857b0641618f5,68817205a84113384fffdfe3,6898f94f697f6eafb66bde66,,,,,,,,,,,,,1,,,,,,,,,,,,,,,,,,,,,,,,,,,,,,,,,,,,,59,besar,,,,,627.4872,629.0196,1,1,1.008,,0,91,91,58,1,REAL,FAKE,,,,,,,,,,,,,,,,,
,,,,,,,,,6721467438f857b0641618f5,Puerto Rican Spanish,13 or older,"no, only English or Spanish",yes,2025-08-10_15h57.04.953,empathy_intonation_perc_control,2024.2.4,Win32,60.24096386,6721467438f857b0641618f5,68817205a84113384fffdfe3,6898f94f697f6eafb66bde66,,,,,,,,,,,,,,,,,,,,,,,,,,,,,,,,,,,,,,,,,,,,,,,,,,,,,,,,,,,,,,,,,,,,,629.0204,636.869,,,,,,,,,,,,,,,
,,,,,,,,,6721467438f857b0641618f5,Puerto Rican Spanish,13 or older,"no, only English or Spanish",yes,2025-08-10_15h57.04.953,empathy_intonation_perc_control,2024.2.4,Win32,60.24096386,6721467438f857b0641618f5,68817205a84113384fffdfe3,6898f94f697f6eafb66bde66,,,,,,,,,,,,,,,,,,,,,,,,,,,1,,,,,,,,,,,,,,,,,,,,,,,,,,,,,,,,,,,,,,,,,,,,636.8855,643.1185,slightly agree,0,0,0,0,1,I can easily tell if someone else wants to enter a conversation.,1,0,1,0,,
,,,,,,,,,6721467438f857b0641618f5,Puerto Rican Spanish,13 or older,"no, only English or Spanish",yes,2025-08-10_15h57.04.953,empathy_intonation_perc_control,2024.2.4,Win32,60.24096386,6721467438f857b0641618f5,68817205a84113384fffdfe3,6898f94f697f6eafb66bde66,,,,,,,,,,,,,,,,,,,,,,,,,,,2,,,,,,,,,,,,,,,,,,,,,,,,,,,,,,,,,,,,,,,,,,,,643.1217,647.6346,strongly agree,0,1,1,1,1,I prefer animals to humans.,0,1,0,0,,
,,,,,,,,,6721467438f857b0641618f5,Puerto Rican Spanish,13 or older,"no, only English or Spanish",yes,2025-08-10_15h57.04.953,empathy_intonation_perc_control,2024.2.4,Win32,60.24096386,6721467438f857b0641618f5,68817205a84113384fffdfe3,6898f94f697f6eafb66bde66,,,,,,,,,,,,,,,,,,,,,,,,,,,3,,,,,,,,,,,,,,,,,,,,,,,,,,,,,,,,,,,,,,,,,,,,647.6383,650.5177,slightly agree,0,2,2,2,1,I try to keep up with the current trends and fashions.,0,1,0,0,,
,,,,,,,,,6721467438f857b0641618f5,Puerto Rican Spanish,13 or older,"no, only English or Spanish",yes,2025-08-10_15h57.04.953,empathy_intonation_perc_control,2024.2.4,Win32,60.24096386,6721467438f857b0641618f5,68817205a84113384fffdfe3,6898f94f697f6eafb66bde66,,,,,,,,,,,,,,,,,,,,,,,,,,,4,,,,,,,,,,,,,,,,,,,,,,,,,,,,,,,,,,,,,,,,,,,,650.5215,655.0511,slightly agree,0,3,3,3,1,"I find it difficult to explain to others things that I understand easily,   when they don't understand it first time.",1,0,0,1,,
,,,,,,,,,6721467438f857b0641618f5,Puerto Rican Spanish,13 or older,"no, only English or Spanish",yes,2025-08-10_15h57.04.953,empathy_intonation_perc_control,2024.2.4,Win32,60.24096386,6721467438f857b0641618f5,68817205a84113384fffdfe3,6898f94f697f6eafb66bde66,,,,,,,,,,,,,,,,,,,,,,,,,,,5,,,,,,,,,,,,,,,,,,,,,,,,,,,,,,,,,,,,,,,,,,,,655.0527,657.9178,slightly agree,0,4,4,4,1,I dream most nights.,0,1,0,0,,
,,,,,,,,,6721467438f857b0641618f5,Puerto Rican Spanish,13 or older,"no, only English or Spanish",yes,2025-08-10_15h57.04.953,empathy_intonation_perc_control,2024.2.4,Win32,60.24096386,6721467438f857b0641618f5,68817205a84113384fffdfe3,6898f94f697f6eafb66bde66,,,,,,,,,,,,,,,,,,,,,,,,,,,6,,,,,,,,,,,,,,,,,,,,,,,,,,,,,,,,,,,,,,,,,,,,657.9208,660.8678,strongly agree,0,5,5,5,1,I really enjoy caring for other people.,1,0,1,0,,
,,,,,,,,,6721467438f857b0641618f5,Puerto Rican Spanish,13 or older,"no, only English or Spanish",yes,2025-08-10_15h57.04.953,empathy_intonation_perc_control,2024.2.4,Win32,60.24096386,6721467438f857b0641618f5,68817205a84113384fffdfe3,6898f94f697f6eafb66bde66,,,,,,,,,,,,,,,,,,,,,,,,,,,7,,,,,,,,,,,,,,,,,,,,,,,,,,,,,,,,,,,,,,,,,,,,660.871,665.5675,slightly disagree,0,6,6,6,1,I try to solve my own problems rather than discussing them with others.,0,1,0,0,,
,,,,,,,,,6721467438f857b0641618f5,Puerto Rican Spanish,13 or older,"no, only English or Spanish",yes,2025-08-10_15h57.04.953,empathy_intonation_perc_control,2024.2.4,Win32,60.24096386,6721467438f857b0641618f5,68817205a84113384fffdfe3,6898f94f697f6eafb66bde66,,,,,,,,,,,,,,,,,,,,,,,,,,,8,,,,,,,,,,,,,,,,,,,,,,,,,,,,,,,,,,,,,,,,,,,,665.57,673.867,slightly disagree,0,7,7,7,1,I find it hard to know what to do in a social situation.,1,0,0,1,,
,,,,,,,,,6721467438f857b0641618f5,Puerto Rican Spanish,13 or older,"no, only English or Spanish",yes,2025-08-10_15h57.04.953,empathy_intonation_perc_control,2024.2.4,Win32,60.24096386,6721467438f857b0641618f5,68817205a84113384fffdfe3,6898f94f697f6eafb66bde66,,,,,,,,,,,,,,,,,,,,,,,,,,,9,,,,,,,,,,,,,,,,,,,,,,,,,,,,,,,,,,,,,,,,,,,,673.8699,680.7185,slightly disagree,0,8,8,8,1,I am at my best first thing in the morning.,0,1,0,0,,
,,,,,,,,,6721467438f857b0641618f5,Puerto Rican Spanish,13 or older,"no, only English or Spanish",yes,2025-08-10_15h57.04.953,empathy_intonation_perc_control,2024.2.4,Win32,60.24096386,6721467438f857b0641618f5,68817205a84113384fffdfe3,6898f94f697f6eafb66bde66,,,,,,,,,,,,,,,,,,,,,,,,,,,10,,,,,,,,,,,,,,,,,,,,,,,,,,,,,,,,,,,,,,,,,,,,680.7208,685.4501,slightly agree,0,9,9,9,1,People often tell me that I went too far in driving my point home in a discussion.,1,0,0,1,,
,,,,,,,,,6721467438f857b0641618f5,Puerto Rican Spanish,13 or older,"no, only English or Spanish",yes,2025-08-10_15h57.04.953,empathy_intonation_perc_control,2024.2.4,Win32,60.24096386,6721467438f857b0641618f5,68817205a84113384fffdfe3,6898f94f697f6eafb66bde66,,,,,,,,,,,,,,,,,,,,,,,,,,,11,,,,,,,,,,,,,,,,,,,,,,,,,,,,,,,,,,,,,,,,,,,,685.4529,691.6163,slightly agree,0,10,10,10,1,It doesn't bother me too much if I am late meeting a friend.,1,0,0,1,,
,,,,,,,,,6721467438f857b0641618f5,Puerto Rican Spanish,13 or older,"no, only English or Spanish",yes,2025-08-10_15h57.04.953,empathy_intonation_perc_control,2024.2.4,Win32,60.24096386,6721467438f857b0641618f5,68817205a84113384fffdfe3,6898f94f697f6eafb66bde66,,,,,,,,,,,,,,,,,,,,,,,,,,,12,,,,,,,,,,,,,,,,,,,,,,,,,,,,,,,,,,,,,,,,,,,,691.62,699.0659,strongly disagree,0,11,11,11,1,"Friendships and relationships are just too difficult, so I tend not to 
  bother with them.",1,0,0,1,,
,,,,,,,,,6721467438f857b0641618f5,Puerto Rican Spanish,13 or older,"no, only English or Spanish",yes,2025-08-10_15h57.04.953,empathy_intonation_perc_control,2024.2.4,Win32,60.24096386,6721467438f857b0641618f5,68817205a84113384fffdfe3,6898f94f697f6eafb66bde66,,,,,,,,,,,,,,,,,,,,,,,,,,,13,,,,,,,,,,,,,,,,,,,,,,,,,,,,,,,,,,,,,,,,,,,,699.0687,702.2323,slightly disagree,0,12,12,12,1,"I would never break a law, no matter how minor.",0,1,0,0,,
,,,,,,,,,6721467438f857b0641618f5,Puerto Rican Spanish,13 or older,"no, only English or Spanish",yes,2025-08-10_15h57.04.953,empathy_intonation_perc_control,2024.2.4,Win32,60.24096386,6721467438f857b0641618f5,68817205a84113384fffdfe3,6898f94f697f6eafb66bde66,,,,,,,,,,,,,,,,,,,,,,,,,,,14,,,,,,,,,,,,,,,,,,,,,,,,,,,,,,,,,,,,,,,,,,,,702.2354,708.9823,slightly agree,0,13,13,13,1,I often find it difficult to judge if something is rude or polite.,1,0,0,1,,
,,,,,,,,,6721467438f857b0641618f5,Puerto Rican Spanish,13 or older,"no, only English or Spanish",yes,2025-08-10_15h57.04.953,empathy_intonation_perc_control,2024.2.4,Win32,60.24096386,6721467438f857b0641618f5,68817205a84113384fffdfe3,6898f94f697f6eafb66bde66,,,,,,,,,,,,,,,,,,,,,,,,,,,15,,,,,,,,,,,,,,,,,,,,,,,,,,,,,,,,,,,,,,,,,,,,708.9851,717.2152,slightly agree,0,14,14,14,1,"In a conversation, I tend to focus on my own thoughts rather than on what 
  my listener might be thinking.",1,0,0,1,,
,,,,,,,,,6721467438f857b0641618f5,Puerto Rican Spanish,13 or older,"no, only English or Spanish",yes,2025-08-10_15h57.04.953,empathy_intonation_perc_control,2024.2.4,Win32,60.24096386,6721467438f857b0641618f5,68817205a84113384fffdfe3,6898f94f697f6eafb66bde66,,,,,,,,,,,,,,,,,,,,,,,,,,,16,,,,,,,,,,,,,,,,,,,,,,,,,,,,,,,,,,,,,,,,,,,,717.2183,721.0314,slightly disagree,0,15,15,15,1,I prefer practical jokes to verbal humor.,0,1,0,0,,
,,,,,,,,,6721467438f857b0641618f5,Puerto Rican Spanish,13 or older,"no, only English or Spanish",yes,2025-08-10_15h57.04.953,empathy_intonation_perc_control,2024.2.4,Win32,60.24096386,6721467438f857b0641618f5,68817205a84113384fffdfe3,6898f94f697f6eafb66bde66,,,,,,,,,,,,,,,,,,,,,,,,,,,17,,,,,,,,,,,,,,,,,,,,,,,,,,,,,,,,,,,,,,,,,,,,721.0341,725.6314,strongly agree,0,16,16,16,1,I live life for today rather than the future.,0,1,0,0,,
