instructions_2afc.started,instructions_2afc.stopped,instructions_2afc_loop.thisRepN,instructions_2afc_loop.thisTrialN,instructions_2afc_loop.thisN,instructions_2afc_loop.thisIndex,instructions_2afc_loop.ran,instructions_text,continue_text,participant_id,"What variety of Spanish are you most familiar with? (e.g., Peruvian, Spanish, Mexican)",At what age did you begin learning Spanish?,Are you proficient in any languages other than English/Spanish?,"Are you familiar with Caribbean (e.g., Caribbean, Puerto Rican) or Galician Spanish?",date,expName,psychopyVersion,OS,frameRate,id,study_id,session,practice_2afc.started,practice_2afc.stopped,key_resp_2afc_practice.keys,key_resp_2afc_practice.corr,key_resp_2afc_practice.rt,key_resp_2afc_practice.duration,trials_2afc_practice_loop.thisRepN,trials_2afc_practice_loop.thisTrialN,trials_2afc_practice_loop.thisN,trials_2afc_practice_loop.thisIndex,trials_2afc_practice_loop.ran,path,correct_response,check_2afc.started,check_2afc.stopped,trial_2afc.started,trial_2afc.stopped,key_resp_2afc_trial.keys,key_resp_2afc_trial.corr,key_resp_2afc_trial.rt,key_resp_2afc_trial.duration,trials_2afc_loop.thisRepN,trials_2afc_loop.thisTrialN,trials_2afc_loop.thisN,trials_2afc_loop.thisIndex,trials_2afc_loop.ran,item_num,target,variety,instructions_lextale.started,instructions_lextale.stopped,instructions_lextale_loop.thisRepN,instructions_lextale_loop.thisTrialN,instructions_lextale_loop.thisN,instructions_lextale_loop.thisIndex,instructions_lextale_loop.ran,practice_lextale.started,practice_lextale.stopped,key_resp_lextale_practice.keys,key_resp_lextale_practice.corr,key_resp_lextale_practice.rt,key_resp_lextale_practice.duration,practice_feedback_lextale.started,practice_feedback_lextale.stopped,trials_lextale_practice_loop.thisRepN,trials_lextale_practice_loop.thisTrialN,trials_lextale_practice_loop.thisN,trials_lextale_practice_loop.thisIndex,trials_lextale_practice_loop.ran,stim,word,prac_button_real,prac_button_false,check_lextale.started,check_lextale.stopped,trial_lextale.started,trial_lextale.stopped,key_resp_lextale_trial.keys,key_resp_lextale_trial.corr,key_resp_lextale_trial.rt,key_resp_lextale_trial.duration,trials_lextale_loop.thisRepN,trials_lextale_loop.thisTrialN,trials_lextale_loop.thisN,trials_lextale_loop.thisIndex,trials_lextale_loop.ran,button_real,button_false,instructions_eq.started,instructions_eq.stopped,trial_eq.started,trial_eq.stopped,slider_eq_trial.response,trials_eq_loop.thisRepN,trials_eq_loop.thisTrialN,trials_eq_loop.thisN,trials_eq_loop.thisIndex,trials_eq_loop.ran,item,is_test_item,is_distractor,is_agree_score,is_disagree_score,end_exp.started,end_exp.stopped
0.0173,1.825,0,0,0,0,1,"In the following task you are going to hear a series of utterances. 

  You will decide if the utterances sound like questions or not using your keyboard.", (press the spacebar to continue),672bb5dadc26d7849dc27b55,Spanish,13 or older,"no, only English or Spanish",no,2025-08-12_14h24.35.699,empathy_intonation_perc_control,2024.2.4,MacIntel,60.0024001,672bb5dadc26d7849dc27b55,68817205a84113384fffdfe3,689b867f36b9dec7ec09fc2f,,,,,,,,,,,,,,,,,,,,,,,,,,,,,,,,,,,,,,,,,,,,,,,,,,,,,,,,,,,,,,,,,,,,,,,,,,,,,,,,,,,,,
1.8256,6.1413,0,1,1,1,1,"If you believe the utterance is a question, type '1' (for 'yes') and if you do not 
  believe it is a question type '0' (for 'no').

  Let's practice a bit...", (press the spacebar to continue),672bb5dadc26d7849dc27b55,Spanish,13 or older,"no, only English or Spanish",no,2025-08-12_14h24.35.699,empathy_intonation_perc_control,2024.2.4,MacIntel,60.0024001,672bb5dadc26d7849dc27b55,68817205a84113384fffdfe3,689b867f36b9dec7ec09fc2f,,,,,,,,,,,,,,,,,,,,,,,,,,,,,,,,,,,,,,,,,,,,,,,,,,,,,,,,,,,,,,,,,,,,,,,,,,,,,,,,,,,,,
,,,,,,,,,672bb5dadc26d7849dc27b55,Spanish,13 or older,"no, only English or Spanish",no,2025-08-12_14h24.35.699,empathy_intonation_perc_control,2024.2.4,MacIntel,60.0024001,672bb5dadc26d7849dc27b55,68817205a84113384fffdfe3,689b867f36b9dec7ec09fc2f,6.1507,8.9602,0,1,2.2881,,0,0,0,7,1,./stim/wavs/puertorican_statement_filler_La-nina-pinta-con-su-amiga.wav,0,,,,,,,,,,,,,,,,,,,,,,,,,,,,,,,,,,,,,,,,,,,,,,,,,,,,,,,,,,,,,,,,,,,,,,,,
,,,,,,,,,672bb5dadc26d7849dc27b55,Spanish,13 or older,"no, only English or Spanish",no,2025-08-12_14h24.35.699,empathy_intonation_perc_control,2024.2.4,MacIntel,60.0024001,672bb5dadc26d7849dc27b55,68817205a84113384fffdfe3,689b867f36b9dec7ec09fc2f,8.9617,11.4912,1,1,1.9993,,0,1,1,3,1,./stim/wavs/mexican_question_filler_Felipe-no-tiene-contrasena.wav,1,,,,,,,,,,,,,,,,,,,,,,,,,,,,,,,,,,,,,,,,,,,,,,,,,,,,,,,,,,,,,,,,,,,,,,,,
,,,,,,,,,672bb5dadc26d7849dc27b55,Spanish,13 or older,"no, only English or Spanish",no,2025-08-12_14h24.35.699,empathy_intonation_perc_control,2024.2.4,MacIntel,60.0024001,672bb5dadc26d7849dc27b55,68817205a84113384fffdfe3,689b867f36b9dec7ec09fc2f,11.4919,14.9579,0,0,2.9497,,0,2,2,0,1,./stim/wavs/castilian_question_filler_Mi-esposo-conoce-al-chico.wav,1,,,,,,,,,,,,,,,,,,,,,,,,,,,,,,,,,,,,,,,,,,,,,,,,,,,,,,,,,,,,,,,,,,,,,,,,
,,,,,,,,,672bb5dadc26d7849dc27b55,Spanish,13 or older,"no, only English or Spanish",no,2025-08-12_14h24.35.699,empathy_intonation_perc_control,2024.2.4,MacIntel,60.0024001,672bb5dadc26d7849dc27b55,68817205a84113384fffdfe3,689b867f36b9dec7ec09fc2f,14.9584,17.3586,1,1,1.8674,,0,3,3,1,1,./stim/wavs/argentine_question_filler_Mi-vecino-habla-mucho.wav,1,,,,,,,,,,,,,,,,,,,,,,,,,,,,,,,,,,,,,,,,,,,,,,,,,,,,,,,,,,,,,,,,,,,,,,,,
,,,,,,,,,672bb5dadc26d7849dc27b55,Spanish,13 or older,"no, only English or Spanish",no,2025-08-12_14h24.35.699,empathy_intonation_perc_control,2024.2.4,MacIntel,60.0024001,672bb5dadc26d7849dc27b55,68817205a84113384fffdfe3,689b867f36b9dec7ec09fc2f,17.3594,23.8573,0,1,5.9641,,0,4,4,6,1,./stim/wavs/peruvian_statement_filler_El-nino-habla-con-su-madre.wav,0,,,,,,,,,,,,,,,,,,,,,,,,,,,,,,,,,,,,,,,,,,,,,,,,,,,,,,,,,,,,,,,,,,,,,,,,
,,,,,,,,,672bb5dadc26d7849dc27b55,Spanish,13 or older,"no, only English or Spanish",no,2025-08-12_14h24.35.699,empathy_intonation_perc_control,2024.2.4,MacIntel,60.0024001,672bb5dadc26d7849dc27b55,68817205a84113384fffdfe3,689b867f36b9dec7ec09fc2f,23.8578,26.2898,0,1,1.9007,,0,5,5,4,1,./stim/wavs/cuban_statement_filler_Cocinabas-por-la-noche.wav,0,,,,,,,,,,,,,,,,,,,,,,,,,,,,,,,,,,,,,,,,,,,,,,,,,,,,,,,,,,,,,,,,,,,,,,,,
,,,,,,,,,672bb5dadc26d7849dc27b55,Spanish,13 or older,"no, only English or Spanish",no,2025-08-12_14h24.35.699,empathy_intonation_perc_control,2024.2.4,MacIntel,60.0024001,672bb5dadc26d7849dc27b55,68817205a84113384fffdfe3,689b867f36b9dec7ec09fc2f,26.2903,28.9903,0,1,2.1684,,0,6,6,5,1,./stim/wavs/andalusian_statement_filler_Alberto-nunca-se-afeita.wav,0,,,,,,,,,,,,,,,,,,,,,,,,,,,,,,,,,,,,,,,,,,,,,,,,,,,,,,,,,,,,,,,,,,,,,,,,
,,,,,,,,,672bb5dadc26d7849dc27b55,Spanish,13 or older,"no, only English or Spanish",no,2025-08-12_14h24.35.699,empathy_intonation_perc_control,2024.2.4,MacIntel,60.0024001,672bb5dadc26d7849dc27b55,68817205a84113384fffdfe3,689b867f36b9dec7ec09fc2f,28.991,31.193,1,1,1.6906,,0,7,7,2,1,./stim/wavs/chilean_question_filler_Mi-padre-cantaba-bien.wav,1,,,,,,,,,,,,,,,,,,,,,,,,,,,,,,,,,,,,,,,,,,,,,,,,,,,,,,,,,,,,,,,,,,,,,,,,
,,,,,,,,,672bb5dadc26d7849dc27b55,Spanish,13 or older,"no, only English or Spanish",no,2025-08-12_14h24.35.699,empathy_intonation_perc_control,2024.2.4,MacIntel,60.0024001,672bb5dadc26d7849dc27b55,68817205a84113384fffdfe3,689b867f36b9dec7ec09fc2f,,,,,,,,,,,,,,31.1943,33.5584,,,,,,,,,,,,,,,,,,,,,,,,,,,,,,,,,,,,,,,,,,,,,,,,,,,,,,,,,,,,,,,,,,,,,,
,,,,,,,,,672bb5dadc26d7849dc27b55,Spanish,13 or older,"no, only English or Spanish",no,2025-08-12_14h24.35.699,empathy_intonation_perc_control,2024.2.4,MacIntel,60.0024001,672bb5dadc26d7849dc27b55,68817205a84113384fffdfe3,689b867f36b9dec7ec09fc2f,,,,,,,,,,,,./stim/wavs/castilian_match_declarative-broad-focus_Mariano-habla-del-tiempo.wav,0,,,33.567,36.2068,0,1,2.1169,,0,0,0,48,1,49,0,castilian,,,,,,,,,,,,,,,,,,,,,,,,,,,,,,,,,,,,,,,,,,,,,,,,,,,,,,,,
,,,,,,,,,672bb5dadc26d7849dc27b55,Spanish,13 or older,"no, only English or Spanish",no,2025-08-12_14h24.35.699,empathy_intonation_perc_control,2024.2.4,MacIntel,60.0024001,672bb5dadc26d7849dc27b55,68817205a84113384fffdfe3,689b867f36b9dec7ec09fc2f,,,,,,,,,,,,./stim/wavs/puertorican_match_declarative-broad-focus_Maria-bebe-el-vino.wav,0,,,36.2072,38.542,1,0,1.8178,,0,1,1,67,1,68,0,puertorican,,,,,,,,,,,,,,,,,,,,,,,,,,,,,,,,,,,,,,,,,,,,,,,,,,,,,,,,
,,,,,,,,,672bb5dadc26d7849dc27b55,Spanish,13 or older,"no, only English or Spanish",no,2025-08-12_14h24.35.699,empathy_intonation_perc_control,2024.2.4,MacIntel,60.0024001,672bb5dadc26d7849dc27b55,68817205a84113384fffdfe3,689b867f36b9dec7ec09fc2f,,,,,,,,,,,,./stim/wavs/castilian_mismatch_declarative-broad-focus_Mi-tia-odia-la-lluvia.wav,0,,,38.5425,41.3073,0,1,2.237,,0,2,2,72,1,73,0,castilian,,,,,,,,,,,,,,,,,,,,,,,,,,,,,,,,,,,,,,,,,,,,,,,,,,,,,,,,
,,,,,,,,,672bb5dadc26d7849dc27b55,Spanish,13 or older,"no, only English or Spanish",no,2025-08-12_14h24.35.699,empathy_intonation_perc_control,2024.2.4,MacIntel,60.0024001,672bb5dadc26d7849dc27b55,68817205a84113384fffdfe3,689b867f36b9dec7ec09fc2f,,,,,,,,,,,,./stim/wavs/castilian_mismatch_interrogative-total-yn_Mi-madre-come-la-fruta.wav,1,,,41.3078,43.8244,1,1,1.9858,,0,3,3,26,1,27,0,castilian,,,,,,,,,,,,,,,,,,,,,,,,,,,,,,,,,,,,,,,,,,,,,,,,,,,,,,,,
,,,,,,,,,672bb5dadc26d7849dc27b55,Spanish,13 or older,"no, only English or Spanish",no,2025-08-12_14h24.35.699,empathy_intonation_perc_control,2024.2.4,MacIntel,60.0024001,672bb5dadc26d7849dc27b55,68817205a84113384fffdfe3,689b867f36b9dec7ec09fc2f,,,,,,,,,,,,./stim/wavs/cuban_match_interrogative-total-yn_Daniel-iba-a-Bolivia.wav,1,,,43.8249,46.1891,0,0,1.8324,,0,4,4,7,1,8,1,cuban,,,,,,,,,,,,,,,,,,,,,,,,,,,,,,,,,,,,,,,,,,,,,,,,,,,,,,,,
,,,,,,,,,672bb5dadc26d7849dc27b55,Spanish,13 or older,"no, only English or Spanish",no,2025-08-12_14h24.35.699,empathy_intonation_perc_control,2024.2.4,MacIntel,60.0024001,672bb5dadc26d7849dc27b55,68817205a84113384fffdfe3,689b867f36b9dec7ec09fc2f,,,,,,,,,,,,./stim/wavs/mexican_mismatch_interrogative-total-yn_Mi-novio-viene-del-lago.wav,1,,,46.1895,48.3913,1,1,1.6845,,0,5,5,37,1,38,0,mexican,,,,,,,,,,,,,,,,,,,,,,,,,,,,,,,,,,,,,,,,,,,,,,,,,,,,,,,,
,,,,,,,,,672bb5dadc26d7849dc27b55,Spanish,13 or older,"no, only English or Spanish",no,2025-08-12_14h24.35.699,empathy_intonation_perc_control,2024.2.4,MacIntel,60.0024001,672bb5dadc26d7849dc27b55,68817205a84113384fffdfe3,689b867f36b9dec7ec09fc2f,,,,,,,,,,,,./stim/wavs/mexican_mismatch_interrogative-total-yn_El-nino-oye-el-rio.wav,1,,,48.3917,50.4734,1,1,1.5559,,0,6,6,35,1,36,0,mexican,,,,,,,,,,,,,,,,,,,,,,,,,,,,,,,,,,,,,,,,,,,,,,,,,,,,,,,,
,,,,,,,,,672bb5dadc26d7849dc27b55,Spanish,13 or older,"no, only English or Spanish",no,2025-08-12_14h24.35.699,empathy_intonation_perc_control,2024.2.4,MacIntel,60.0024001,672bb5dadc26d7849dc27b55,68817205a84113384fffdfe3,689b867f36b9dec7ec09fc2f,,,,,,,,,,,,./stim/wavs/cuban_match_declarative-broad-focus_Marta-abre-el-regalo.wav,0,,,50.4739,52.6246,0,1,1.6079,,0,7,7,55,1,56,0,cuban,,,,,,,,,,,,,,,,,,,,,,,,,,,,,,,,,,,,,,,,,,,,,,,,,,,,,,,,
,,,,,,,,,672bb5dadc26d7849dc27b55,Spanish,13 or older,"no, only English or Spanish",no,2025-08-12_14h24.35.699,empathy_intonation_perc_control,2024.2.4,MacIntel,60.0024001,672bb5dadc26d7849dc27b55,68817205a84113384fffdfe3,689b867f36b9dec7ec09fc2f,,,,,,,,,,,,./stim/wavs/cuban_match_declarative-broad-focus_Maria-bebe-el-vino.wav,0,,,52.625,54.8896,0,1,1.734,,0,8,8,53,1,54,0,cuban,,,,,,,,,,,,,,,,,,,,,,,,,,,,,,,,,,,,,,,,,,,,,,,,,,,,,,,,
,,,,,,,,,672bb5dadc26d7849dc27b55,Spanish,13 or older,"no, only English or Spanish",no,2025-08-12_14h24.35.699,empathy_intonation_perc_control,2024.2.4,MacIntel,60.0024001,672bb5dadc26d7849dc27b55,68817205a84113384fffdfe3,689b867f36b9dec7ec09fc2f,,,,,,,,,,,,./stim/wavs/cuban_mismatch_declarative-broad-focus_Mi-tia-odia-la-lluvia.wav,0,,,54.8904,57.4062,0,1,1.9883,,0,9,9,77,1,78,0,cuban,,,,,,,,,,,,,,,,,,,,,,,,,,,,,,,,,,,,,,,,,,,,,,,,,,,,,,,,
,,,,,,,,,672bb5dadc26d7849dc27b55,Spanish,13 or older,"no, only English or Spanish",no,2025-08-12_14h24.35.699,empathy_intonation_perc_control,2024.2.4,MacIntel,60.0024001,672bb5dadc26d7849dc27b55,68817205a84113384fffdfe3,689b867f36b9dec7ec09fc2f,,,,,,,,,,,,./stim/wavs/mexican_match_interrogative-total-yn_Ana-lleva-el-abrigo.wav,1,,,57.4065,59.4746,1,1,1.5506,,0,10,10,12,1,13,0,mexican,,,,,,,,,,,,,,,,,,,,,,,,,,,,,,,,,,,,,,,,,,,,,,,,,,,,,,,,
,,,,,,,,,672bb5dadc26d7849dc27b55,Spanish,13 or older,"no, only English or Spanish",no,2025-08-12_14h24.35.699,empathy_intonation_perc_control,2024.2.4,MacIntel,60.0024001,672bb5dadc26d7849dc27b55,68817205a84113384fffdfe3,689b867f36b9dec7ec09fc2f,,,,,,,,,,,,./stim/wavs/mexican_match_declarative-broad-focus_Emilio-ama-la-marcha.wav,0,,,59.4754,61.6575,1,0,1.6426,,0,11,11,59,1,60,0,mexican,,,,,,,,,,,,,,,,,,,,,,,,,,,,,,,,,,,,,,,,,,,,,,,,,,,,,,,,
,,,,,,,,,672bb5dadc26d7849dc27b55,Spanish,13 or older,"no, only English or Spanish",no,2025-08-12_14h24.35.699,empathy_intonation_perc_control,2024.2.4,MacIntel,60.0024001,672bb5dadc26d7849dc27b55,68817205a84113384fffdfe3,689b867f36b9dec7ec09fc2f,,,,,,,,,,,,./stim/wavs/cuban_match_interrogative-total-yn_Maria-bebe-el-vino.wav,1,,,61.6578,64.2907,1,1,2.1049,,0,12,12,9,1,10,1,cuban,,,,,,,,,,,,,,,,,,,,,,,,,,,,,,,,,,,,,,,,,,,,,,,,,,,,,,,,
,,,,,,,,,672bb5dadc26d7849dc27b55,Spanish,13 or older,"no, only English or Spanish",no,2025-08-12_14h24.35.699,empathy_intonation_perc_control,2024.2.4,MacIntel,60.0024001,672bb5dadc26d7849dc27b55,68817205a84113384fffdfe3,689b867f36b9dec7ec09fc2f,,,,,,,,,,,,./stim/wavs/puertorican_mismatch_declarative-broad-focus_La-nina-lava-el-plato.wav,0,,,64.2914,66.1898,0,1,1.3732,,0,13,13,87,1,88,0,puertorican,,,,,,,,,,,,,,,,,,,,,,,,,,,,,,,,,,,,,,,,,,,,,,,,,,,,,,,,
,,,,,,,,,672bb5dadc26d7849dc27b55,Spanish,13 or older,"no, only English or Spanish",no,2025-08-12_14h24.35.699,empathy_intonation_perc_control,2024.2.4,MacIntel,60.0024001,672bb5dadc26d7849dc27b55,68817205a84113384fffdfe3,689b867f36b9dec7ec09fc2f,,,,,,,,,,,,./stim/wavs/mexican_match_declarative-broad-focus_Daniel-iba-a-Bolivia.wav,0,,,66.1902,68.589,0,1,1.8653,,0,14,14,57,1,58,0,mexican,,,,,,,,,,,,,,,,,,,,,,,,,,,,,,,,,,,,,,,,,,,,,,,,,,,,,,,,
,,,,,,,,,672bb5dadc26d7849dc27b55,Spanish,13 or older,"no, only English or Spanish",no,2025-08-12_14h24.35.699,empathy_intonation_perc_control,2024.2.4,MacIntel,60.0024001,672bb5dadc26d7849dc27b55,68817205a84113384fffdfe3,689b867f36b9dec7ec09fc2f,,,,,,,,,,,,./stim/wavs/mexican_mismatch_declarative-broad-focus_El-bebe-comia-muy-bien.wav,0,,,68.5896,71.5247,0,1,2.4142,,0,15,15,78,1,79,0,mexican,,,,,,,,,,,,,,,,,,,,,,,,,,,,,,,,,,,,,,,,,,,,,,,,,,,,,,,,
,,,,,,,,,672bb5dadc26d7849dc27b55,Spanish,13 or older,"no, only English or Spanish",no,2025-08-12_14h24.35.699,empathy_intonation_perc_control,2024.2.4,MacIntel,60.0024001,672bb5dadc26d7849dc27b55,68817205a84113384fffdfe3,689b867f36b9dec7ec09fc2f,,,,,,,,,,,,./stim/wavs/mexican_match_interrogative-total-yn_Mariano-habla-del-tiempo.wav,1,,,71.5263,73.7397,1,1,1.6847,,0,16,16,16,1,17,0,mexican,,,,,,,,,,,,,,,,,,,,,,,,,,,,,,,,,,,,,,,,,,,,,,,,,,,,,,,,
,,,,,,,,,672bb5dadc26d7849dc27b55,Spanish,13 or older,"no, only English or Spanish",no,2025-08-12_14h24.35.699,empathy_intonation_perc_control,2024.2.4,MacIntel,60.0024001,672bb5dadc26d7849dc27b55,68817205a84113384fffdfe3,689b867f36b9dec7ec09fc2f,,,,,,,,,,,,./stim/wavs/castilian_match_declarative-broad-focus_Manuela-vende-el-carro.wav,0,,,73.74,76.0899,0,1,1.8109,,0,17,17,46,1,47,0,castilian,,,,,,,,,,,,,,,,,,,,,,,,,,,,,,,,,,,,,,,,,,,,,,,,,,,,,,,,
,,,,,,,,,672bb5dadc26d7849dc27b55,Spanish,13 or older,"no, only English or Spanish",no,2025-08-12_14h24.35.699,empathy_intonation_perc_control,2024.2.4,MacIntel,60.0024001,672bb5dadc26d7849dc27b55,68817205a84113384fffdfe3,689b867f36b9dec7ec09fc2f,,,,,,,,,,,,./stim/wavs/castilian_match_interrogative-total-yn_Maria-bebe-el-vino.wav,1,,,76.0913,78.4065,1,1,1.7848,,0,18,18,3,1,4,0,castilian,,,,,,,,,,,,,,,,,,,,,,,,,,,,,,,,,,,,,,,,,,,,,,,,,,,,,,,,
,,,,,,,,,672bb5dadc26d7849dc27b55,Spanish,13 or older,"no, only English or Spanish",no,2025-08-12_14h24.35.699,empathy_intonation_perc_control,2024.2.4,MacIntel,60.0024001,672bb5dadc26d7849dc27b55,68817205a84113384fffdfe3,689b867f36b9dec7ec09fc2f,,,,,,,,,,,,./stim/wavs/cuban_mismatch_declarative-broad-focus_Mi-novio-viene-del-lago.wav,0,,,78.4069,80.9067,0,1,1.9668,,0,19,19,76,1,77,0,cuban,,,,,,,,,,,,,,,,,,,,,,,,,,,,,,,,,,,,,,,,,,,,,,,,,,,,,,,,
,,,,,,,,,672bb5dadc26d7849dc27b55,Spanish,13 or older,"no, only English or Spanish",no,2025-08-12_14h24.35.699,empathy_intonation_perc_control,2024.2.4,MacIntel,60.0024001,672bb5dadc26d7849dc27b55,68817205a84113384fffdfe3,689b867f36b9dec7ec09fc2f,,,,,,,,,,,,./stim/wavs/cuban_mismatch_declarative-broad-focus_La-nina-lava-el-plato.wav,0,,,80.9069,83.057,0,1,1.6257,,0,20,20,75,1,76,0,cuban,,,,,,,,,,,,,,,,,,,,,,,,,,,,,,,,,,,,,,,,,,,,,,,,,,,,,,,,
,,,,,,,,,672bb5dadc26d7849dc27b55,Spanish,13 or older,"no, only English or Spanish",no,2025-08-12_14h24.35.699,empathy_intonation_perc_control,2024.2.4,MacIntel,60.0024001,672bb5dadc26d7849dc27b55,68817205a84113384fffdfe3,689b867f36b9dec7ec09fc2f,,,,,,,,,,,,./stim/wavs/castilian_mismatch_declarative-broad-focus_La-nina-lava-el-plato.wav,0,,,83.0573,85.5392,0,1,1.956,,0,21,21,70,1,71,0,castilian,,,,,,,,,,,,,,,,,,,,,,,,,,,,,,,,,,,,,,,,,,,,,,,,,,,,,,,,
,,,,,,,,,672bb5dadc26d7849dc27b55,Spanish,13 or older,"no, only English or Spanish",no,2025-08-12_14h24.35.699,empathy_intonation_perc_control,2024.2.4,MacIntel,60.0024001,672bb5dadc26d7849dc27b55,68817205a84113384fffdfe3,689b867f36b9dec7ec09fc2f,,,,,,,,,,,,./stim/wavs/cuban_match_interrogative-total-yn_Ana-lleva-el-abrigo.wav,1,,,85.5396,88.0235,0,0,1.9674,,0,22,22,6,1,7,1,cuban,,,,,,,,,,,,,,,,,,,,,,,,,,,,,,,,,,,,,,,,,,,,,,,,,,,,,,,,
,,,,,,,,,672bb5dadc26d7849dc27b55,Spanish,13 or older,"no, only English or Spanish",no,2025-08-12_14h24.35.699,empathy_intonation_perc_control,2024.2.4,MacIntel,60.0024001,672bb5dadc26d7849dc27b55,68817205a84113384fffdfe3,689b867f36b9dec7ec09fc2f,,,,,,,,,,,,./stim/wavs/cuban_match_declarative-broad-focus_Ana-lleva-el-abrigo.wav,0,,,88.0238,90.556,0,1,2.0001,,0,23,23,50,1,51,0,cuban,,,,,,,,,,,,,,,,,,,,,,,,,,,,,,,,,,,,,,,,,,,,,,,,,,,,,,,,
,,,,,,,,,672bb5dadc26d7849dc27b55,Spanish,13 or older,"no, only English or Spanish",no,2025-08-12_14h24.35.699,empathy_intonation_perc_control,2024.2.4,MacIntel,60.0024001,672bb5dadc26d7849dc27b55,68817205a84113384fffdfe3,689b867f36b9dec7ec09fc2f,,,,,,,,,,,,./stim/wavs/puertorican_match_interrogative-total-yn_Emilio-ama-la-marcha.wav,1,,,90.5564,92.5222,1,1,1.4529,,0,24,24,21,1,22,1,puertorican,,,,,,,,,,,,,,,,,,,,,,,,,,,,,,,,,,,,,,,,,,,,,,,,,,,,,,,,
,,,,,,,,,672bb5dadc26d7849dc27b55,Spanish,13 or older,"no, only English or Spanish",no,2025-08-12_14h24.35.699,empathy_intonation_perc_control,2024.2.4,MacIntel,60.0024001,672bb5dadc26d7849dc27b55,68817205a84113384fffdfe3,689b867f36b9dec7ec09fc2f,,,,,,,,,,,,./stim/wavs/puertorican_match_interrogative-total-yn_David-leia-el-libro.wav,1,,,92.5225,94.5237,1,1,1.4925,,0,25,25,20,1,21,1,puertorican,,,,,,,,,,,,,,,,,,,,,,,,,,,,,,,,,,,,,,,,,,,,,,,,,,,,,,,,
,,,,,,,,,672bb5dadc26d7849dc27b55,Spanish,13 or older,"no, only English or Spanish",no,2025-08-12_14h24.35.699,empathy_intonation_perc_control,2024.2.4,MacIntel,60.0024001,672bb5dadc26d7849dc27b55,68817205a84113384fffdfe3,689b867f36b9dec7ec09fc2f,,,,,,,,,,,,./stim/wavs/cuban_mismatch_interrogative-total-yn_Mi-tia-odia-la-lluvia.wav,1,,,94.5242,97.3074,1,1,2.2469,,0,26,26,33,1,34,1,cuban,,,,,,,,,,,,,,,,,,,,,,,,,,,,,,,,,,,,,,,,,,,,,,,,,,,,,,,,
,,,,,,,,,672bb5dadc26d7849dc27b55,Spanish,13 or older,"no, only English or Spanish",no,2025-08-12_14h24.35.699,empathy_intonation_perc_control,2024.2.4,MacIntel,60.0024001,672bb5dadc26d7849dc27b55,68817205a84113384fffdfe3,689b867f36b9dec7ec09fc2f,,,,,,,,,,,,./stim/wavs/castilian_match_interrogative-total-yn_Mariano-habla-del-tiempo.wav,1,,,97.3078,99.7064,1,1,1.8652,,0,27,27,4,1,5,0,castilian,,,,,,,,,,,,,,,,,,,,,,,,,,,,,,,,,,,,,,,,,,,,,,,,,,,,,,,,
,,,,,,,,,672bb5dadc26d7849dc27b55,Spanish,13 or older,"no, only English or Spanish",no,2025-08-12_14h24.35.699,empathy_intonation_perc_control,2024.2.4,MacIntel,60.0024001,672bb5dadc26d7849dc27b55,68817205a84113384fffdfe3,689b867f36b9dec7ec09fc2f,,,,,,,,,,,,./stim/wavs/cuban_match_interrogative-total-yn_Mariano-habla-del-tiempo.wav,1,,,99.7068,101.9221,0,0,1.6842,,0,28,28,10,1,11,1,cuban,,,,,,,,,,,,,,,,,,,,,,,,,,,,,,,,,,,,,,,,,,,,,,,,,,,,,,,,
,,,,,,,,,672bb5dadc26d7849dc27b55,Spanish,13 or older,"no, only English or Spanish",no,2025-08-12_14h24.35.699,empathy_intonation_perc_control,2024.2.4,MacIntel,60.0024001,672bb5dadc26d7849dc27b55,68817205a84113384fffdfe3,689b867f36b9dec7ec09fc2f,,,,,,,,,,,,./stim/wavs/cuban_match_declarative-broad-focus_Manuela-vende-el-carro.wav,0,,,101.9223,104.1897,0,1,1.7419,,0,29,29,52,1,53,0,cuban,,,,,,,,,,,,,,,,,,,,,,,,,,,,,,,,,,,,,,,,,,,,,,,,,,,,,,,,
,,,,,,,,,672bb5dadc26d7849dc27b55,Spanish,13 or older,"no, only English or Spanish",no,2025-08-12_14h24.35.699,empathy_intonation_perc_control,2024.2.4,MacIntel,60.0024001,672bb5dadc26d7849dc27b55,68817205a84113384fffdfe3,689b867f36b9dec7ec09fc2f,,,,,,,,,,,,./stim/wavs/castilian_mismatch_declarative-broad-focus_Mi-novio-viene-del-lago.wav,0,,,104.1905,106.7568,0,1,2.0536,,0,30,30,71,1,72,0,castilian,,,,,,,,,,,,,,,,,,,,,,,,,,,,,,,,,,,,,,,,,,,,,,,,,,,,,,,,
,,,,,,,,,672bb5dadc26d7849dc27b55,Spanish,13 or older,"no, only English or Spanish",no,2025-08-12_14h24.35.699,empathy_intonation_perc_control,2024.2.4,MacIntel,60.0024001,672bb5dadc26d7849dc27b55,68817205a84113384fffdfe3,689b867f36b9dec7ec09fc2f,,,,,,,,,,,,./stim/wavs/cuban_mismatch_interrogative-total-yn_Mi-novio-viene-del-lago.wav,1,,,106.7574,108.8554,1,1,1.5681,,0,31,31,32,1,33,1,cuban,,,,,,,,,,,,,,,,,,,,,,,,,,,,,,,,,,,,,,,,,,,,,,,,,,,,,,,,
,,,,,,,,,672bb5dadc26d7849dc27b55,Spanish,13 or older,"no, only English or Spanish",no,2025-08-12_14h24.35.699,empathy_intonation_perc_control,2024.2.4,MacIntel,60.0024001,672bb5dadc26d7849dc27b55,68817205a84113384fffdfe3,689b867f36b9dec7ec09fc2f,,,,,,,,,,,,./stim/wavs/castilian_match_interrogative-total-yn_Manuela-vende-el-carro.wav,1,,,108.8561,111.3586,1,1,1.9826,,0,32,32,2,1,3,0,castilian,,,,,,,,,,,,,,,,,,,,,,,,,,,,,,,,,,,,,,,,,,,,,,,,,,,,,,,,
,,,,,,,,,672bb5dadc26d7849dc27b55,Spanish,13 or older,"no, only English or Spanish",no,2025-08-12_14h24.35.699,empathy_intonation_perc_control,2024.2.4,MacIntel,60.0024001,672bb5dadc26d7849dc27b55,68817205a84113384fffdfe3,689b867f36b9dec7ec09fc2f,,,,,,,,,,,,./stim/wavs/mexican_match_interrogative-total-yn_Marta-abre-el-regalo.wav,1,,,111.3598,113.3393,1,1,1.4426,,0,33,33,17,1,18,0,mexican,,,,,,,,,,,,,,,,,,,,,,,,,,,,,,,,,,,,,,,,,,,,,,,,,,,,,,,,
,,,,,,,,,672bb5dadc26d7849dc27b55,Spanish,13 or older,"no, only English or Spanish",no,2025-08-12_14h24.35.699,empathy_intonation_perc_control,2024.2.4,MacIntel,60.0024001,672bb5dadc26d7849dc27b55,68817205a84113384fffdfe3,689b867f36b9dec7ec09fc2f,,,,,,,,,,,,./stim/wavs/puertorican_match_declarative-broad-focus_Manuela-vende-el-carro.wav,0,,,113.3398,115.6732,0,1,1.8127,,0,34,34,66,1,67,0,puertorican,,,,,,,,,,,,,,,,,,,,,,,,,,,,,,,,,,,,,,,,,,,,,,,,,,,,,,,,
,,,,,,,,,672bb5dadc26d7849dc27b55,Spanish,13 or older,"no, only English or Spanish",no,2025-08-12_14h24.35.699,empathy_intonation_perc_control,2024.2.4,MacIntel,60.0024001,672bb5dadc26d7849dc27b55,68817205a84113384fffdfe3,689b867f36b9dec7ec09fc2f,,,,,,,,,,,,./stim/wavs/cuban_mismatch_declarative-broad-focus_El-bebe-comia-muy-bien.wav,0,,,115.6735,118.2256,0,1,2.0432,,0,35,35,73,1,74,0,cuban,,,,,,,,,,,,,,,,,,,,,,,,,,,,,,,,,,,,,,,,,,,,,,,,,,,,,,,,
,,,,,,,,,672bb5dadc26d7849dc27b55,Spanish,13 or older,"no, only English or Spanish",no,2025-08-12_14h24.35.699,empathy_intonation_perc_control,2024.2.4,MacIntel,60.0024001,672bb5dadc26d7849dc27b55,68817205a84113384fffdfe3,689b867f36b9dec7ec09fc2f,,,,,,,,,,,,./stim/wavs/cuban_mismatch_interrogative-total-yn_El-nino-oye-el-rio.wav,1,,,118.2263,120.1728,1,1,1.4136,,0,36,36,30,1,31,1,cuban,,,,,,,,,,,,,,,,,,,,,,,,,,,,,,,,,,,,,,,,,,,,,,,,,,,,,,,,
,,,,,,,,,672bb5dadc26d7849dc27b55,Spanish,13 or older,"no, only English or Spanish",no,2025-08-12_14h24.35.699,empathy_intonation_perc_control,2024.2.4,MacIntel,60.0024001,672bb5dadc26d7849dc27b55,68817205a84113384fffdfe3,689b867f36b9dec7ec09fc2f,,,,,,,,,,,,./stim/wavs/mexican_mismatch_interrogative-total-yn_La-maestra-vive-en-Paris.wav,1,,,120.1734,122.5051,1,1,1.8113,,0,37,37,36,1,37,0,mexican,,,,,,,,,,,,,,,,,,,,,,,,,,,,,,,,,,,,,,,,,,,,,,,,,,,,,,,,
,,,,,,,,,672bb5dadc26d7849dc27b55,Spanish,13 or older,"no, only English or Spanish",no,2025-08-12_14h24.35.699,empathy_intonation_perc_control,2024.2.4,MacIntel,60.0024001,672bb5dadc26d7849dc27b55,68817205a84113384fffdfe3,689b867f36b9dec7ec09fc2f,,,,,,,,,,,,./stim/wavs/mexican_mismatch_declarative-broad-focus_La-maestra-vive-en-Paris.wav,0,,,122.5054,125.073,0,1,2.0435,,0,38,38,80,1,81,0,mexican,,,,,,,,,,,,,,,,,,,,,,,,,,,,,,,,,,,,,,,,,,,,,,,,,,,,,,,,
,,,,,,,,,672bb5dadc26d7849dc27b55,Spanish,13 or older,"no, only English or Spanish",no,2025-08-12_14h24.35.699,empathy_intonation_perc_control,2024.2.4,MacIntel,60.0024001,672bb5dadc26d7849dc27b55,68817205a84113384fffdfe3,689b867f36b9dec7ec09fc2f,,,,,,,,,,,,./stim/wavs/puertorican_mismatch_interrogative-total-yn_La-nina-lava-el-plato.wav,1,,,125.0733,127.1564,0,0,1.5576,,0,39,39,42,1,43,1,puertorican,,,,,,,,,,,,,,,,,,,,,,,,,,,,,,,,,,,,,,,,,,,,,,,,,,,,,,,,
,,,,,,,,,672bb5dadc26d7849dc27b55,Spanish,13 or older,"no, only English or Spanish",no,2025-08-12_14h24.35.699,empathy_intonation_perc_control,2024.2.4,MacIntel,60.0024001,672bb5dadc26d7849dc27b55,68817205a84113384fffdfe3,689b867f36b9dec7ec09fc2f,,,,,,,,,,,,./stim/wavs/puertorican_mismatch_declarative-broad-focus_El-nino-oye-el-rio.wav,0,,,127.1568,129.142,0,1,1.4468,,0,40,40,85,1,86,0,puertorican,,,,,,,,,,,,,,,,,,,,,,,,,,,,,,,,,,,,,,,,,,,,,,,,,,,,,,,,
,,,,,,,,,672bb5dadc26d7849dc27b55,Spanish,13 or older,"no, only English or Spanish",no,2025-08-12_14h24.35.699,empathy_intonation_perc_control,2024.2.4,MacIntel,60.0024001,672bb5dadc26d7849dc27b55,68817205a84113384fffdfe3,689b867f36b9dec7ec09fc2f,,,,,,,,,,,,./stim/wavs/cuban_match_declarative-broad-focus_Mariano-habla-del-tiempo.wav,0,,,129.1431,131.4729,0,1,1.8082,,0,41,41,54,1,55,0,cuban,,,,,,,,,,,,,,,,,,,,,,,,,,,,,,,,,,,,,,,,,,,,,,,,,,,,,,,,
,,,,,,,,,672bb5dadc26d7849dc27b55,Spanish,13 or older,"no, only English or Spanish",no,2025-08-12_14h24.35.699,empathy_intonation_perc_control,2024.2.4,MacIntel,60.0024001,672bb5dadc26d7849dc27b55,68817205a84113384fffdfe3,689b867f36b9dec7ec09fc2f,,,,,,,,,,,,./stim/wavs/cuban_mismatch_interrogative-total-yn_El-hombre-mira-la-luna.wav,1,,,131.4738,133.3879,1,1,1.3815,,0,42,42,29,1,30,1,cuban,,,,,,,,,,,,,,,,,,,,,,,,,,,,,,,,,,,,,,,,,,,,,,,,,,,,,,,,
,,,,,,,,,672bb5dadc26d7849dc27b55,Spanish,13 or older,"no, only English or Spanish",no,2025-08-12_14h24.35.699,empathy_intonation_perc_control,2024.2.4,MacIntel,60.0024001,672bb5dadc26d7849dc27b55,68817205a84113384fffdfe3,689b867f36b9dec7ec09fc2f,,,,,,,,,,,,./stim/wavs/mexican_match_declarative-broad-focus_David-leia-el-libro.wav,0,,,133.3882,135.2891,0,1,1.3763,,0,43,43,58,1,59,0,mexican,,,,,,,,,,,,,,,,,,,,,,,,,,,,,,,,,,,,,,,,,,,,,,,,,,,,,,,,
,,,,,,,,,672bb5dadc26d7849dc27b55,Spanish,13 or older,"no, only English or Spanish",no,2025-08-12_14h24.35.699,empathy_intonation_perc_control,2024.2.4,MacIntel,60.0024001,672bb5dadc26d7849dc27b55,68817205a84113384fffdfe3,689b867f36b9dec7ec09fc2f,,,,,,,,,,,,./stim/wavs/puertorican_mismatch_interrogative-total-yn_El-nino-oye-el-rio.wav,1,,,135.2896,137.1727,1,1,1.3669,,0,44,44,40,1,41,1,puertorican,,,,,,,,,,,,,,,,,,,,,,,,,,,,,,,,,,,,,,,,,,,,,,,,,,,,,,,,
,,,,,,,,,672bb5dadc26d7849dc27b55,Spanish,13 or older,"no, only English or Spanish",no,2025-08-12_14h24.35.699,empathy_intonation_perc_control,2024.2.4,MacIntel,60.0024001,672bb5dadc26d7849dc27b55,68817205a84113384fffdfe3,689b867f36b9dec7ec09fc2f,,,,,,,,,,,,./stim/wavs/castilian_mismatch_interrogative-total-yn_Mi-tia-odia-la-lluvia.wav,1,,,137.173,139.3891,1,1,1.6975,,0,45,45,28,1,29,0,castilian,,,,,,,,,,,,,,,,,,,,,,,,,,,,,,,,,,,,,,,,,,,,,,,,,,,,,,,,
,,,,,,,,,672bb5dadc26d7849dc27b55,Spanish,13 or older,"no, only English or Spanish",no,2025-08-12_14h24.35.699,empathy_intonation_perc_control,2024.2.4,MacIntel,60.0024001,672bb5dadc26d7849dc27b55,68817205a84113384fffdfe3,689b867f36b9dec7ec09fc2f,,,,,,,,,,,,./stim/wavs/castilian_match_declarative-broad-focus_David-leia-el-libro.wav,0,,,139.3895,142.0229,0,1,2.1006,,0,46,46,44,1,45,0,castilian,,,,,,,,,,,,,,,,,,,,,,,,,,,,,,,,,,,,,,,,,,,,,,,,,,,,,,,,
,,,,,,,,,672bb5dadc26d7849dc27b55,Spanish,13 or older,"no, only English or Spanish",no,2025-08-12_14h24.35.699,empathy_intonation_perc_control,2024.2.4,MacIntel,60.0024001,672bb5dadc26d7849dc27b55,68817205a84113384fffdfe3,689b867f36b9dec7ec09fc2f,,,,,,,,,,,,./stim/wavs/castilian_mismatch_interrogative-total-yn_Mi-novio-viene-del-lago.wav,1,,,142.0234,144.3734,1,1,1.8268,,0,47,47,27,1,28,0,castilian,,,,,,,,,,,,,,,,,,,,,,,,,,,,,,,,,,,,,,,,,,,,,,,,,,,,,,,,
,,,,,,,,,672bb5dadc26d7849dc27b55,Spanish,13 or older,"no, only English or Spanish",no,2025-08-12_14h24.35.699,empathy_intonation_perc_control,2024.2.4,MacIntel,60.0024001,672bb5dadc26d7849dc27b55,68817205a84113384fffdfe3,689b867f36b9dec7ec09fc2f,,,,,,,,,,,,./stim/wavs/castilian_mismatch_interrogative-total-yn_La-nina-lava-el-plato.wav,1,,,144.3739,146.475,1,1,1.5778,,0,48,48,25,1,26,0,castilian,,,,,,,,,,,,,,,,,,,,,,,,,,,,,,,,,,,,,,,,,,,,,,,,,,,,,,,,
,,,,,,,,,672bb5dadc26d7849dc27b55,Spanish,13 or older,"no, only English or Spanish",no,2025-08-12_14h24.35.699,empathy_intonation_perc_control,2024.2.4,MacIntel,60.0024001,672bb5dadc26d7849dc27b55,68817205a84113384fffdfe3,689b867f36b9dec7ec09fc2f,,,,,,,,,,,,./stim/wavs/mexican_mismatch_interrogative-total-yn_El-hombre-mira-la-luna.wav,1,,,146.4754,148.4883,1,1,1.4746,,0,49,49,34,1,35,0,mexican,,,,,,,,,,,,,,,,,,,,,,,,,,,,,,,,,,,,,,,,,,,,,,,,,,,,,,,,
,,,,,,,,,672bb5dadc26d7849dc27b55,Spanish,13 or older,"no, only English or Spanish",no,2025-08-12_14h24.35.699,empathy_intonation_perc_control,2024.2.4,MacIntel,60.0024001,672bb5dadc26d7849dc27b55,68817205a84113384fffdfe3,689b867f36b9dec7ec09fc2f,,,,,,,,,,,,./stim/wavs/castilian_match_interrogative-total-yn_David-leia-el-libro.wav,1,,,148.4887,150.6893,1,1,1.6774,,0,50,50,0,1,1,0,castilian,,,,,,,,,,,,,,,,,,,,,,,,,,,,,,,,,,,,,,,,,,,,,,,,,,,,,,,,
,,,,,,,,,672bb5dadc26d7849dc27b55,Spanish,13 or older,"no, only English or Spanish",no,2025-08-12_14h24.35.699,empathy_intonation_perc_control,2024.2.4,MacIntel,60.0024001,672bb5dadc26d7849dc27b55,68817205a84113384fffdfe3,689b867f36b9dec7ec09fc2f,,,,,,,,,,,,./stim/wavs/puertorican_match_interrogative-total-yn_Ana-lleva-el-abrigo.wav,1,,,150.6899,152.5044,1,1,1.2876,,0,51,51,18,1,19,1,puertorican,,,,,,,,,,,,,,,,,,,,,,,,,,,,,,,,,,,,,,,,,,,,,,,,,,,,,,,,
,,,,,,,,,672bb5dadc26d7849dc27b55,Spanish,13 or older,"no, only English or Spanish",no,2025-08-12_14h24.35.699,empathy_intonation_perc_control,2024.2.4,MacIntel,60.0024001,672bb5dadc26d7849dc27b55,68817205a84113384fffdfe3,689b867f36b9dec7ec09fc2f,,,,,,,,,,,,./stim/wavs/puertorican_mismatch_declarative-broad-focus_El-bebe-comia-muy-bien.wav,0,,,152.5049,154.5055,0,1,1.4855,,0,52,52,83,1,84,0,puertorican,,,,,,,,,,,,,,,,,,,,,,,,,,,,,,,,,,,,,,,,,,,,,,,,,,,,,,,,
,,,,,,,,,672bb5dadc26d7849dc27b55,Spanish,13 or older,"no, only English or Spanish",no,2025-08-12_14h24.35.699,empathy_intonation_perc_control,2024.2.4,MacIntel,60.0024001,672bb5dadc26d7849dc27b55,68817205a84113384fffdfe3,689b867f36b9dec7ec09fc2f,,,,,,,,,,,,./stim/wavs/puertorican_mismatch_interrogative-total-yn_El-hombre-mira-la-luna.wav,1,,,154.506,156.4544,1,1,1.423,,0,53,53,39,1,40,1,puertorican,,,,,,,,,,,,,,,,,,,,,,,,,,,,,,,,,,,,,,,,,,,,,,,,,,,,,,,,
,,,,,,,,,672bb5dadc26d7849dc27b55,Spanish,13 or older,"no, only English or Spanish",no,2025-08-12_14h24.35.699,empathy_intonation_perc_control,2024.2.4,MacIntel,60.0024001,672bb5dadc26d7849dc27b55,68817205a84113384fffdfe3,689b867f36b9dec7ec09fc2f,,,,,,,,,,,,./stim/wavs/puertorican_match_interrogative-total-yn_Manuela-vende-el-carro.wav,1,,,156.4551,158.5721,1,1,1.6064,,0,54,54,22,1,23,1,puertorican,,,,,,,,,,,,,,,,,,,,,,,,,,,,,,,,,,,,,,,,,,,,,,,,,,,,,,,,
,,,,,,,,,672bb5dadc26d7849dc27b55,Spanish,13 or older,"no, only English or Spanish",no,2025-08-12_14h24.35.699,empathy_intonation_perc_control,2024.2.4,MacIntel,60.0024001,672bb5dadc26d7849dc27b55,68817205a84113384fffdfe3,689b867f36b9dec7ec09fc2f,,,,,,,,,,,,./stim/wavs/mexican_match_interrogative-total-yn_David-leia-el-libro.wav,1,,,158.5725,160.7218,1,1,1.6338,,0,55,55,14,1,15,0,mexican,,,,,,,,,,,,,,,,,,,,,,,,,,,,,,,,,,,,,,,,,,,,,,,,,,,,,,,,
,,,,,,,,,672bb5dadc26d7849dc27b55,Spanish,13 or older,"no, only English or Spanish",no,2025-08-12_14h24.35.699,empathy_intonation_perc_control,2024.2.4,MacIntel,60.0024001,672bb5dadc26d7849dc27b55,68817205a84113384fffdfe3,689b867f36b9dec7ec09fc2f,,,,,,,,,,,,./stim/wavs/mexican_match_declarative-broad-focus_Mariano-habla-del-tiempo.wav,0,,,160.7222,163.2734,0,1,2.0165,,0,56,56,60,1,61,0,mexican,,,,,,,,,,,,,,,,,,,,,,,,,,,,,,,,,,,,,,,,,,,,,,,,,,,,,,,,
,,,,,,,,,672bb5dadc26d7849dc27b55,Spanish,13 or older,"no, only English or Spanish",no,2025-08-12_14h24.35.699,empathy_intonation_perc_control,2024.2.4,MacIntel,60.0024001,672bb5dadc26d7849dc27b55,68817205a84113384fffdfe3,689b867f36b9dec7ec09fc2f,,,,,,,,,,,,./stim/wavs/puertorican_match_declarative-broad-focus_Ana-lleva-el-abrigo.wav,0,,,163.2741,165.1222,0,1,1.3138,,0,57,57,62,1,63,0,puertorican,,,,,,,,,,,,,,,,,,,,,,,,,,,,,,,,,,,,,,,,,,,,,,,,,,,,,,,,
,,,,,,,,,672bb5dadc26d7849dc27b55,Spanish,13 or older,"no, only English or Spanish",no,2025-08-12_14h24.35.699,empathy_intonation_perc_control,2024.2.4,MacIntel,60.0024001,672bb5dadc26d7849dc27b55,68817205a84113384fffdfe3,689b867f36b9dec7ec09fc2f,,,,,,,,,,,,./stim/wavs/puertorican_mismatch_interrogative-total-yn_La-maestra-vive-en-Paris.wav,1,,,165.1226,167.2886,1,1,1.6345,,0,58,58,41,1,42,1,puertorican,,,,,,,,,,,,,,,,,,,,,,,,,,,,,,,,,,,,,,,,,,,,,,,,,,,,,,,,
,,,,,,,,,672bb5dadc26d7849dc27b55,Spanish,13 or older,"no, only English or Spanish",no,2025-08-12_14h24.35.699,empathy_intonation_perc_control,2024.2.4,MacIntel,60.0024001,672bb5dadc26d7849dc27b55,68817205a84113384fffdfe3,689b867f36b9dec7ec09fc2f,,,,,,,,,,,,./stim/wavs/castilian_mismatch_interrogative-total-yn_La-maestra-vive-en-Paris.wav,1,,,167.289,169.7732,1,1,1.9691,,0,59,59,24,1,25,0,castilian,,,,,,,,,,,,,,,,,,,,,,,,,,,,,,,,,,,,,,,,,,,,,,,,,,,,,,,,
,,,,,,,,,672bb5dadc26d7849dc27b55,Spanish,13 or older,"no, only English or Spanish",no,2025-08-12_14h24.35.699,empathy_intonation_perc_control,2024.2.4,MacIntel,60.0024001,672bb5dadc26d7849dc27b55,68817205a84113384fffdfe3,689b867f36b9dec7ec09fc2f,,,,,,,,,,,,./stim/wavs/castilian_match_declarative-broad-focus_Emilio-ama-la-marcha.wav,0,,,169.7737,171.9751,0,1,1.6758,,0,60,60,45,1,46,0,castilian,,,,,,,,,,,,,,,,,,,,,,,,,,,,,,,,,,,,,,,,,,,,,,,,,,,,,,,,
,,,,,,,,,672bb5dadc26d7849dc27b55,Spanish,13 or older,"no, only English or Spanish",no,2025-08-12_14h24.35.699,empathy_intonation_perc_control,2024.2.4,MacIntel,60.0024001,672bb5dadc26d7849dc27b55,68817205a84113384fffdfe3,689b867f36b9dec7ec09fc2f,,,,,,,,,,,,./stim/wavs/puertorican_mismatch_interrogative-total-yn_Mi-madre-come-la-fruta.wav,1,,,171.9755,173.9902,0,0,1.4854,,0,61,61,43,1,44,1,puertorican,,,,,,,,,,,,,,,,,,,,,,,,,,,,,,,,,,,,,,,,,,,,,,,,,,,,,,,,
,,,,,,,,,672bb5dadc26d7849dc27b55,Spanish,13 or older,"no, only English or Spanish",no,2025-08-12_14h24.35.699,empathy_intonation_perc_control,2024.2.4,MacIntel,60.0024001,672bb5dadc26d7849dc27b55,68817205a84113384fffdfe3,689b867f36b9dec7ec09fc2f,,,,,,,,,,,,./stim/wavs/puertorican_match_declarative-broad-focus_Daniel-iba-a-Bolivia.wav,0,,,173.9906,175.9054,0,1,1.3895,,0,62,62,63,1,64,0,puertorican,,,,,,,,,,,,,,,,,,,,,,,,,,,,,,,,,,,,,,,,,,,,,,,,,,,,,,,,
,,,,,,,,,672bb5dadc26d7849dc27b55,Spanish,13 or older,"no, only English or Spanish",no,2025-08-12_14h24.35.699,empathy_intonation_perc_control,2024.2.4,MacIntel,60.0024001,672bb5dadc26d7849dc27b55,68817205a84113384fffdfe3,689b867f36b9dec7ec09fc2f,,,,,,,,,,,,./stim/wavs/mexican_mismatch_declarative-broad-focus_Mi-tia-odia-la-lluvia.wav,0,,,175.9058,177.8386,0,1,1.3946,,0,63,63,82,1,83,0,mexican,,,,,,,,,,,,,,,,,,,,,,,,,,,,,,,,,,,,,,,,,,,,,,,,,,,,,,,,
,,,,,,,,,672bb5dadc26d7849dc27b55,Spanish,13 or older,"no, only English or Spanish",no,2025-08-12_14h24.35.699,empathy_intonation_perc_control,2024.2.4,MacIntel,60.0024001,672bb5dadc26d7849dc27b55,68817205a84113384fffdfe3,689b867f36b9dec7ec09fc2f,,,,,,,,,,,,./stim/wavs/castilian_match_declarative-broad-focus_Marta-abre-el-regalo.wav,0,,,177.8391,180.0879,0,1,1.7182,,0,64,64,49,1,50,0,castilian,,,,,,,,,,,,,,,,,,,,,,,,,,,,,,,,,,,,,,,,,,,,,,,,,,,,,,,,
,,,,,,,,,672bb5dadc26d7849dc27b55,Spanish,13 or older,"no, only English or Spanish",no,2025-08-12_14h24.35.699,empathy_intonation_perc_control,2024.2.4,MacIntel,60.0024001,672bb5dadc26d7849dc27b55,68817205a84113384fffdfe3,689b867f36b9dec7ec09fc2f,,,,,,,,,,,,./stim/wavs/castilian_match_interrogative-total-yn_Emilio-ama-la-marcha.wav,1,,,180.0885,182.2222,1,1,1.6089,,0,65,65,1,1,2,0,castilian,,,,,,,,,,,,,,,,,,,,,,,,,,,,,,,,,,,,,,,,,,,,,,,,,,,,,,,,
,,,,,,,,,672bb5dadc26d7849dc27b55,Spanish,13 or older,"no, only English or Spanish",no,2025-08-12_14h24.35.699,empathy_intonation_perc_control,2024.2.4,MacIntel,60.0024001,672bb5dadc26d7849dc27b55,68817205a84113384fffdfe3,689b867f36b9dec7ec09fc2f,,,,,,,,,,,,./stim/wavs/mexican_mismatch_interrogative-total-yn_Mi-tia-odia-la-lluvia.wav,1,,,182.2225,184.104,1,1,1.3476,,0,66,66,38,1,39,0,mexican,,,,,,,,,,,,,,,,,,,,,,,,,,,,,,,,,,,,,,,,,,,,,,,,,,,,,,,,
,,,,,,,,,672bb5dadc26d7849dc27b55,Spanish,13 or older,"no, only English or Spanish",no,2025-08-12_14h24.35.699,empathy_intonation_perc_control,2024.2.4,MacIntel,60.0024001,672bb5dadc26d7849dc27b55,68817205a84113384fffdfe3,689b867f36b9dec7ec09fc2f,,,,,,,,,,,,./stim/wavs/mexican_match_declarative-broad-focus_Marta-abre-el-regalo.wav,0,,,184.1045,185.9375,0,1,1.3187,,0,67,67,61,1,62,0,mexican,,,,,,,,,,,,,,,,,,,,,,,,,,,,,,,,,,,,,,,,,,,,,,,,,,,,,,,,
,,,,,,,,,672bb5dadc26d7849dc27b55,Spanish,13 or older,"no, only English or Spanish",no,2025-08-12_14h24.35.699,empathy_intonation_perc_control,2024.2.4,MacIntel,60.0024001,672bb5dadc26d7849dc27b55,68817205a84113384fffdfe3,689b867f36b9dec7ec09fc2f,,,,,,,,,,,,./stim/wavs/puertorican_mismatch_declarative-broad-focus_La-maestra-vive-en-Paris.wav,0,,,185.9379,188.074,0,1,1.6192,,0,68,68,86,1,87,0,puertorican,,,,,,,,,,,,,,,,,,,,,,,,,,,,,,,,,,,,,,,,,,,,,,,,,,,,,,,,
,,,,,,,,,672bb5dadc26d7849dc27b55,Spanish,13 or older,"no, only English or Spanish",no,2025-08-12_14h24.35.699,empathy_intonation_perc_control,2024.2.4,MacIntel,60.0024001,672bb5dadc26d7849dc27b55,68817205a84113384fffdfe3,689b867f36b9dec7ec09fc2f,,,,,,,,,,,,./stim/wavs/cuban_mismatch_interrogative-total-yn_Mi-madre-come-la-fruta.wav,1,,,188.0745,190.1219,0,0,1.51,,0,69,69,31,1,32,1,cuban,,,,,,,,,,,,,,,,,,,,,,,,,,,,,,,,,,,,,,,,,,,,,,,,,,,,,,,,
,,,,,,,,,672bb5dadc26d7849dc27b55,Spanish,13 or older,"no, only English or Spanish",no,2025-08-12_14h24.35.699,empathy_intonation_perc_control,2024.2.4,MacIntel,60.0024001,672bb5dadc26d7849dc27b55,68817205a84113384fffdfe3,689b867f36b9dec7ec09fc2f,,,,,,,,,,,,./stim/wavs/cuban_mismatch_declarative-broad-focus_El-hombre-mira-la-luna.wav,0,,,190.1224,191.873,0,1,1.225,,0,70,70,74,1,75,0,cuban,,,,,,,,,,,,,,,,,,,,,,,,,,,,,,,,,,,,,,,,,,,,,,,,,,,,,,,,
,,,,,,,,,672bb5dadc26d7849dc27b55,Spanish,13 or older,"no, only English or Spanish",no,2025-08-12_14h24.35.699,empathy_intonation_perc_control,2024.2.4,MacIntel,60.0024001,672bb5dadc26d7849dc27b55,68817205a84113384fffdfe3,689b867f36b9dec7ec09fc2f,,,,,,,,,,,,./stim/wavs/puertorican_match_interrogative-total-yn_Daniel-iba-a-Bolivia.wav,1,,,191.8734,193.7879,0,0,1.3904,,0,71,71,19,1,20,1,puertorican,,,,,,,,,,,,,,,,,,,,,,,,,,,,,,,,,,,,,,,,,,,,,,,,,,,,,,,,
,,,,,,,,,672bb5dadc26d7849dc27b55,Spanish,13 or older,"no, only English or Spanish",no,2025-08-12_14h24.35.699,empathy_intonation_perc_control,2024.2.4,MacIntel,60.0024001,672bb5dadc26d7849dc27b55,68817205a84113384fffdfe3,689b867f36b9dec7ec09fc2f,,,,,,,,,,,,./stim/wavs/puertorican_match_declarative-broad-focus_Emilio-ama-la-marcha.wav,0,,,193.7883,195.7392,0,1,1.4264,,0,72,72,65,1,66,0,puertorican,,,,,,,,,,,,,,,,,,,,,,,,,,,,,,,,,,,,,,,,,,,,,,,,,,,,,,,,
,,,,,,,,,672bb5dadc26d7849dc27b55,Spanish,13 or older,"no, only English or Spanish",no,2025-08-12_14h24.35.699,empathy_intonation_perc_control,2024.2.4,MacIntel,60.0024001,672bb5dadc26d7849dc27b55,68817205a84113384fffdfe3,689b867f36b9dec7ec09fc2f,,,,,,,,,,,,./stim/wavs/castilian_mismatch_declarative-broad-focus_El-nino-oye-el-rio.wav,0,,,195.7396,198.5215,0,1,2.2505,,0,73,73,68,1,69,0,castilian,,,,,,,,,,,,,,,,,,,,,,,,,,,,,,,,,,,,,,,,,,,,,,,,,,,,,,,,
,,,,,,,,,672bb5dadc26d7849dc27b55,Spanish,13 or older,"no, only English or Spanish",no,2025-08-12_14h24.35.699,empathy_intonation_perc_control,2024.2.4,MacIntel,60.0024001,672bb5dadc26d7849dc27b55,68817205a84113384fffdfe3,689b867f36b9dec7ec09fc2f,,,,,,,,,,,,./stim/wavs/castilian_match_declarative-broad-focus_Maria-bebe-el-vino.wav,0,,,198.5219,200.5552,0,1,1.5174,,0,74,74,47,1,48,0,castilian,,,,,,,,,,,,,,,,,,,,,,,,,,,,,,,,,,,,,,,,,,,,,,,,,,,,,,,,
,,,,,,,,,672bb5dadc26d7849dc27b55,Spanish,13 or older,"no, only English or Spanish",no,2025-08-12_14h24.35.699,empathy_intonation_perc_control,2024.2.4,MacIntel,60.0024001,672bb5dadc26d7849dc27b55,68817205a84113384fffdfe3,689b867f36b9dec7ec09fc2f,,,,,,,,,,,,./stim/wavs/mexican_match_declarative-broad-focus_Ana-lleva-el-abrigo.wav,0,,,200.5555,202.3067,0,1,1.2177,,0,75,75,56,1,57,0,mexican,,,,,,,,,,,,,,,,,,,,,,,,,,,,,,,,,,,,,,,,,,,,,,,,,,,,,,,,
,,,,,,,,,672bb5dadc26d7849dc27b55,Spanish,13 or older,"no, only English or Spanish",no,2025-08-12_14h24.35.699,empathy_intonation_perc_control,2024.2.4,MacIntel,60.0024001,672bb5dadc26d7849dc27b55,68817205a84113384fffdfe3,689b867f36b9dec7ec09fc2f,,,,,,,,,,,,./stim/wavs/mexican_mismatch_declarative-broad-focus_El-hombre-mira-la-luna.wav,0,,,202.3071,204.206,0,1,1.3775,,0,76,76,79,1,80,0,mexican,,,,,,,,,,,,,,,,,,,,,,,,,,,,,,,,,,,,,,,,,,,,,,,,,,,,,,,,
,,,,,,,,,672bb5dadc26d7849dc27b55,Spanish,13 or older,"no, only English or Spanish",no,2025-08-12_14h24.35.699,empathy_intonation_perc_control,2024.2.4,MacIntel,60.0024001,672bb5dadc26d7849dc27b55,68817205a84113384fffdfe3,689b867f36b9dec7ec09fc2f,,,,,,,,,,,,./stim/wavs/cuban_match_declarative-broad-focus_Daniel-iba-a-Bolivia.wav,0,,,204.2063,206.3217,0,1,1.5838,,0,77,77,51,1,52,0,cuban,,,,,,,,,,,,,,,,,,,,,,,,,,,,,,,,,,,,,,,,,,,,,,,,,,,,,,,,
,,,,,,,,,672bb5dadc26d7849dc27b55,Spanish,13 or older,"no, only English or Spanish",no,2025-08-12_14h24.35.699,empathy_intonation_perc_control,2024.2.4,MacIntel,60.0024001,672bb5dadc26d7849dc27b55,68817205a84113384fffdfe3,689b867f36b9dec7ec09fc2f,,,,,,,,,,,,./stim/wavs/castilian_mismatch_declarative-broad-focus_La-maestra-vive-en-Paris.wav,0,,,206.322,208.7397,0,1,1.9002,,0,78,78,69,1,70,0,castilian,,,,,,,,,,,,,,,,,,,,,,,,,,,,,,,,,,,,,,,,,,,,,,,,,,,,,,,,
,,,,,,,,,672bb5dadc26d7849dc27b55,Spanish,13 or older,"no, only English or Spanish",no,2025-08-12_14h24.35.699,empathy_intonation_perc_control,2024.2.4,MacIntel,60.0024001,672bb5dadc26d7849dc27b55,68817205a84113384fffdfe3,689b867f36b9dec7ec09fc2f,,,,,,,,,,,,./stim/wavs/puertorican_mismatch_declarative-broad-focus_El-hombre-mira-la-luna.wav,0,,,208.74,210.6054,0,1,1.3343,,0,79,79,84,1,85,0,puertorican,,,,,,,,,,,,,,,,,,,,,,,,,,,,,,,,,,,,,,,,,,,,,,,,,,,,,,,,
,,,,,,,,,672bb5dadc26d7849dc27b55,Spanish,13 or older,"no, only English or Spanish",no,2025-08-12_14h24.35.699,empathy_intonation_perc_control,2024.2.4,MacIntel,60.0024001,672bb5dadc26d7849dc27b55,68817205a84113384fffdfe3,689b867f36b9dec7ec09fc2f,,,,,,,,,,,,./stim/wavs/cuban_match_interrogative-total-yn_Marta-abre-el-regalo.wav,1,,,210.6058,212.4546,0,0,1.317,,0,80,80,11,1,12,1,cuban,,,,,,,,,,,,,,,,,,,,,,,,,,,,,,,,,,,,,,,,,,,,,,,,,,,,,,,,
,,,,,,,,,672bb5dadc26d7849dc27b55,Spanish,13 or older,"no, only English or Spanish",no,2025-08-12_14h24.35.699,empathy_intonation_perc_control,2024.2.4,MacIntel,60.0024001,672bb5dadc26d7849dc27b55,68817205a84113384fffdfe3,689b867f36b9dec7ec09fc2f,,,,,,,,,,,,./stim/wavs/cuban_match_interrogative-total-yn_Manuela-vende-el-carro.wav,1,,,212.455,214.2879,0,0,1.3219,,0,81,81,8,1,9,1,cuban,,,,,,,,,,,,,,,,,,,,,,,,,,,,,,,,,,,,,,,,,,,,,,,,,,,,,,,,
,,,,,,,,,672bb5dadc26d7849dc27b55,Spanish,13 or older,"no, only English or Spanish",no,2025-08-12_14h24.35.699,empathy_intonation_perc_control,2024.2.4,MacIntel,60.0024001,672bb5dadc26d7849dc27b55,68817205a84113384fffdfe3,689b867f36b9dec7ec09fc2f,,,,,,,,,,,,./stim/wavs/puertorican_match_interrogative-total-yn_Maria-bebe-el-vino.wav,1,,,214.2883,216.0217,1,1,1.202,,0,82,82,23,1,24,1,puertorican,,,,,,,,,,,,,,,,,,,,,,,,,,,,,,,,,,,,,,,,,,,,,,,,,,,,,,,,
,,,,,,,,,672bb5dadc26d7849dc27b55,Spanish,13 or older,"no, only English or Spanish",no,2025-08-12_14h24.35.699,empathy_intonation_perc_control,2024.2.4,MacIntel,60.0024001,672bb5dadc26d7849dc27b55,68817205a84113384fffdfe3,689b867f36b9dec7ec09fc2f,,,,,,,,,,,,./stim/wavs/mexican_match_interrogative-total-yn_Emilio-ama-la-marcha.wav,1,,,216.0221,217.9569,1,1,1.3991,,0,83,83,15,1,16,0,mexican,,,,,,,,,,,,,,,,,,,,,,,,,,,,,,,,,,,,,,,,,,,,,,,,,,,,,,,,
,,,,,,,,,672bb5dadc26d7849dc27b55,Spanish,13 or older,"no, only English or Spanish",no,2025-08-12_14h24.35.699,empathy_intonation_perc_control,2024.2.4,MacIntel,60.0024001,672bb5dadc26d7849dc27b55,68817205a84113384fffdfe3,689b867f36b9dec7ec09fc2f,,,,,,,,,,,,./stim/wavs/mexican_mismatch_declarative-broad-focus_Mi-novio-viene-del-lago.wav,0,,,217.958,220.539,0,1,2.0594,,0,84,84,81,1,82,0,mexican,,,,,,,,,,,,,,,,,,,,,,,,,,,,,,,,,,,,,,,,,,,,,,,,,,,,,,,,
,,,,,,,,,672bb5dadc26d7849dc27b55,Spanish,13 or older,"no, only English or Spanish",no,2025-08-12_14h24.35.699,empathy_intonation_perc_control,2024.2.4,MacIntel,60.0024001,672bb5dadc26d7849dc27b55,68817205a84113384fffdfe3,689b867f36b9dec7ec09fc2f,,,,,,,,,,,,./stim/wavs/mexican_match_interrogative-total-yn_Daniel-iba-a-Bolivia.wav,1,,,220.5395,222.705,1,1,1.6342,,0,85,85,13,1,14,0,mexican,,,,,,,,,,,,,,,,,,,,,,,,,,,,,,,,,,,,,,,,,,,,,,,,,,,,,,,,
,,,,,,,,,672bb5dadc26d7849dc27b55,Spanish,13 or older,"no, only English or Spanish",no,2025-08-12_14h24.35.699,empathy_intonation_perc_control,2024.2.4,MacIntel,60.0024001,672bb5dadc26d7849dc27b55,68817205a84113384fffdfe3,689b867f36b9dec7ec09fc2f,,,,,,,,,,,,./stim/wavs/puertorican_match_declarative-broad-focus_David-leia-el-libro.wav,0,,,222.7054,224.5712,0,1,1.337,,0,86,86,64,1,65,0,puertorican,,,,,,,,,,,,,,,,,,,,,,,,,,,,,,,,,,,,,,,,,,,,,,,,,,,,,,,,
,,,,,,,,,672bb5dadc26d7849dc27b55,Spanish,13 or older,"no, only English or Spanish",no,2025-08-12_14h24.35.699,empathy_intonation_perc_control,2024.2.4,MacIntel,60.0024001,672bb5dadc26d7849dc27b55,68817205a84113384fffdfe3,689b867f36b9dec7ec09fc2f,,,,,,,,,,,,./stim/wavs/castilian_match_interrogative-total-yn_Marta-abre-el-regalo.wav,1,,,224.5716,226.7904,1,1,1.7012,,0,87,87,5,1,6,0,castilian,,,,,,,,,,,,,,,,,,,,,,,,,,,,,,,,,,,,,,,,,,,,,,,,,,,,,,,,
,,,,,,,"Great! Now we will move on. The next task consists of about 60 trials, in each of which you will see a string of letters. 
  
  Your task is to decide whether this is a real Spanish word or not.", (press the spacebar to continue),672bb5dadc26d7849dc27b55,Spanish,13 or older,"no, only English or Spanish",no,2025-08-12_14h24.35.699,empathy_intonation_perc_control,2024.2.4,MacIntel,60.0024001,672bb5dadc26d7849dc27b55,68817205a84113384fffdfe3,689b867f36b9dec7ec09fc2f,,,,,,,,,,,,,,,,,,,,,,,,,,,,,,226.7957,323.2036,0,0,0,0,1,,,,,,,,,,,,,,,,,,,,,,,,,,,,,,,,,,,,,,,,,,,,,,,,,
,,,,,,,"If you think it is an existing Spanish word, you type '1' (for 'REAL'), and if you think it is not an existing Spanish word, you type '0' (for 'FAKE').", (press the spacebar to continue),672bb5dadc26d7849dc27b55,Spanish,13 or older,"no, only English or Spanish",no,2025-08-12_14h24.35.699,empathy_intonation_perc_control,2024.2.4,MacIntel,60.0024001,672bb5dadc26d7849dc27b55,68817205a84113384fffdfe3,689b867f36b9dec7ec09fc2f,,,,,,,,,,,,,,,,,,,,,,,,,,,,,,323.205,324.4532,0,1,1,1,1,,,,,,,,,,,,,,,,,,,,,,,,,,,,,,,,,,,,,,,,,,,,,,,,,
,,,,,,,"If you are sure that the word exists, even though you don’t know its exact meaning, you may still respond '1' (REAL). 
  
  But if you are not sure if it is an existing word, you should respond '0' (FAKE).
  
  Let's do a practice round...", (press the spacebar to continue),672bb5dadc26d7849dc27b55,Spanish,13 or older,"no, only English or Spanish",no,2025-08-12_14h24.35.699,empathy_intonation_perc_control,2024.2.4,MacIntel,60.0024001,672bb5dadc26d7849dc27b55,68817205a84113384fffdfe3,689b867f36b9dec7ec09fc2f,,,,,,,,,,,,,,,,,,,,,,,,,,,,,,324.4548,328.6244,0,2,2,2,1,,,,,,,,,,,,,,,,,,,,,,,,,,,,,,,,,,,,,,,,,,,,,,,,,
,,,,,,,,,672bb5dadc26d7849dc27b55,Spanish,13 or older,"no, only English or Spanish",no,2025-08-12_14h24.35.699,empathy_intonation_perc_control,2024.2.4,MacIntel,60.0024001,672bb5dadc26d7849dc27b55,68817205a84113384fffdfe3,689b867f36b9dec7ec09fc2f,,,,,,,,,,,,,0,,,,,,,,,,,,,,,,,,,,,,,,328.6301,331.0536,1,0,1.8683,,331.0537,332.0542,0,0,0,0,1,0,depiste,REAL,FAKE,,,,,,,,,,,,,,,,,,,,,,,,,,,,,,,,
,,,,,,,,,672bb5dadc26d7849dc27b55,Spanish,13 or older,"no, only English or Spanish",no,2025-08-12_14h24.35.699,empathy_intonation_perc_control,2024.2.4,MacIntel,60.0024001,672bb5dadc26d7849dc27b55,68817205a84113384fffdfe3,689b867f36b9dec7ec09fc2f,,,,,,,,,,,,,1,,,,,,,,,,,,,,,,,,,,,,,,332.0558,333.2203,1,1,0.6292,,333.2212,334.2202,0,1,1,1,1,0,sí,REAL,FAKE,,,,,,,,,,,,,,,,,,,,,,,,,,,,,,,,
,,,,,,,,,672bb5dadc26d7849dc27b55,Spanish,13 or older,"no, only English or Spanish",no,2025-08-12_14h24.35.699,empathy_intonation_perc_control,2024.2.4,MacIntel,60.0024001,672bb5dadc26d7849dc27b55,68817205a84113384fffdfe3,689b867f36b9dec7ec09fc2f,,,,,,,,,,,,,0,,,,,,,,,,,,,,,,,,,,,,,,334.2212,337.5038,0,1,2.7468,,337.5038,338.5037,0,2,2,2,1,0,coné,REAL,FAKE,,,,,,,,,,,,,,,,,,,,,,,,,,,,,,,,
,,,,,,,,,672bb5dadc26d7849dc27b55,Spanish,13 or older,"no, only English or Spanish",no,2025-08-12_14h24.35.699,empathy_intonation_perc_control,2024.2.4,MacIntel,60.0024001,672bb5dadc26d7849dc27b55,68817205a84113384fffdfe3,689b867f36b9dec7ec09fc2f,,,,,,,,,,,,,0,,,,,,,,,,,,,,,,,,,,,,,,338.5045,339.8537,0,1,0.8196,,339.8537,340.8537,0,3,3,3,1,0,calpar,REAL,FAKE,,,,,,,,,,,,,,,,,,,,,,,,,,,,,,,,
,,,,,,,,,672bb5dadc26d7849dc27b55,Spanish,13 or older,"no, only English or Spanish",no,2025-08-12_14h24.35.699,empathy_intonation_perc_control,2024.2.4,MacIntel,60.0024001,672bb5dadc26d7849dc27b55,68817205a84113384fffdfe3,689b867f36b9dec7ec09fc2f,,,,,,,,,,,,,0,,,,,,,,,,,,,,,,,,,,,,,,340.8547,341.9886,0,1,0.6009,,341.9886,342.9856,0,4,4,4,1,0,joten,REAL,FAKE,,,,,,,,,,,,,,,,,,,,,,,,,,,,,,,,
,,,,,,,,,672bb5dadc26d7849dc27b55,Spanish,13 or older,"no, only English or Spanish",no,2025-08-12_14h24.35.699,empathy_intonation_perc_control,2024.2.4,MacIntel,60.0024001,672bb5dadc26d7849dc27b55,68817205a84113384fffdfe3,689b867f36b9dec7ec09fc2f,,,,,,,,,,,,,1,,,,,,,,,,,,,,,,,,,,,,,,342.987,344.4034,0,0,0.8812,,344.4041,345.404,0,5,5,5,1,0,sacapuntas,REAL,FAKE,,,,,,,,,,,,,,,,,,,,,,,,,,,,,,,,
,,,,,,,,,672bb5dadc26d7849dc27b55,Spanish,13 or older,"no, only English or Spanish",no,2025-08-12_14h24.35.699,empathy_intonation_perc_control,2024.2.4,MacIntel,60.0024001,672bb5dadc26d7849dc27b55,68817205a84113384fffdfe3,689b867f36b9dec7ec09fc2f,,,,,,,,,,,,,0,,,,,,,,,,,,,,,,,,,,,,,,345.4051,346.937,0,1,0.9953,,346.9375,347.9371,0,6,6,6,1,0,priba,REAL,FAKE,,,,,,,,,,,,,,,,,,,,,,,,,,,,,,,,
,,,,,,,,,672bb5dadc26d7849dc27b55,Spanish,13 or older,"no, only English or Spanish",no,2025-08-12_14h24.35.699,empathy_intonation_perc_control,2024.2.4,MacIntel,60.0024001,672bb5dadc26d7849dc27b55,68817205a84113384fffdfe3,689b867f36b9dec7ec09fc2f,,,,,,,,,,,,,0,,,,,,,,,,,,,,,,,,,,,,,,347.938,349.9206,1,0,1.4534,,349.9217,350.9198,0,7,7,7,1,0,pelasula,REAL,FAKE,,,,,,,,,,,,,,,,,,,,,,,,,,,,,,,,
,,,,,,,,,672bb5dadc26d7849dc27b55,Spanish,13 or older,"no, only English or Spanish",no,2025-08-12_14h24.35.699,empathy_intonation_perc_control,2024.2.4,MacIntel,60.0024001,672bb5dadc26d7849dc27b55,68817205a84113384fffdfe3,689b867f36b9dec7ec09fc2f,,,,,,,,,,,,,1,,,,,,,,,,,,,,,,,,,,,,,,350.9207,352.2192,1,1,0.7533,,352.2196,353.2194,0,8,8,8,1,0,bien,REAL,FAKE,,,,,,,,,,,,,,,,,,,,,,,,,,,,,,,,
,,,,,,,,,672bb5dadc26d7849dc27b55,Spanish,13 or older,"no, only English or Spanish",no,2025-08-12_14h24.35.699,empathy_intonation_perc_control,2024.2.4,MacIntel,60.0024001,672bb5dadc26d7849dc27b55,68817205a84113384fffdfe3,689b867f36b9dec7ec09fc2f,,,,,,,,,,,,,1,,,,,,,,,,,,,,,,,,,,,,,,353.2203,354.3519,1,1,0.6075,,354.3519,355.3541,0,9,9,9,1,0,casa,REAL,FAKE,,,,,,,,,,,,,,,,,,,,,,,,,,,,,,,,
,,,,,,,,,672bb5dadc26d7849dc27b55,Spanish,13 or older,"no, only English or Spanish",no,2025-08-12_14h24.35.699,empathy_intonation_perc_control,2024.2.4,MacIntel,60.0024001,672bb5dadc26d7849dc27b55,68817205a84113384fffdfe3,689b867f36b9dec7ec09fc2f,,,,,,,,,,,,,0,,,,,,,,,,,,,,,,,,,,,,,,355.355,356.5221,0,1,0.6418,,356.5222,357.5195,0,10,10,10,1,0,lejo,REAL,FAKE,,,,,,,,,,,,,,,,,,,,,,,,,,,,,,,,
,,,,,,,,,672bb5dadc26d7849dc27b55,Spanish,13 or older,"no, only English or Spanish",no,2025-08-12_14h24.35.699,empathy_intonation_perc_control,2024.2.4,MacIntel,60.0024001,672bb5dadc26d7849dc27b55,68817205a84113384fffdfe3,689b867f36b9dec7ec09fc2f,,,,,,,,,,,,,0,,,,,,,,,,,,,,,,,,,,,,,,357.5204,359.086,0,1,1.0417,,359.086,360.0867,0,11,11,11,1,0,pretantas,REAL,FAKE,,,,,,,,,,,,,,,,,,,,,,,,,,,,,,,,
,,,,,,,,,672bb5dadc26d7849dc27b55,Spanish,13 or older,"no, only English or Spanish",no,2025-08-12_14h24.35.699,empathy_intonation_perc_control,2024.2.4,MacIntel,60.0024001,672bb5dadc26d7849dc27b55,68817205a84113384fffdfe3,689b867f36b9dec7ec09fc2f,,,,,,,,,,,,,,,,,,,,,,,,,,,,,,,,,,,,,,,,,,,,,,,,,,,,,,360.0872,361.3532,,,,,,,,,,,,,,,,,,,,,,,,,,,,,,
,,,,,,,,,672bb5dadc26d7849dc27b55,Spanish,13 or older,"no, only English or Spanish",no,2025-08-12_14h24.35.699,empathy_intonation_perc_control,2024.2.4,MacIntel,60.0024001,672bb5dadc26d7849dc27b55,68817205a84113384fffdfe3,689b867f36b9dec7ec09fc2f,,,,,,,,,,,,,1,,,,,,,,,,,,,,,,,,,,,,,,,,,,,,,,,,,,,28,merodear,,,,,361.3635,362.7692,0,0,0.8842,,0,0,0,27,1,REAL,FAKE,,,,,,,,,,,,,,,,,
,,,,,,,,,672bb5dadc26d7849dc27b55,Spanish,13 or older,"no, only English or Spanish",no,2025-08-12_14h24.35.699,empathy_intonation_perc_control,2024.2.4,MacIntel,60.0024001,672bb5dadc26d7849dc27b55,68817205a84113384fffdfe3,689b867f36b9dec7ec09fc2f,,,,,,,,,,,,,1,,,,,,,,,,,,,,,,,,,,,,,,,,,,,,,,,,,,,31,pandilla,,,,,362.7701,365.3701,1,1,2.083,,0,1,1,30,1,REAL,FAKE,,,,,,,,,,,,,,,,,
,,,,,,,,,672bb5dadc26d7849dc27b55,Spanish,13 or older,"no, only English or Spanish",no,2025-08-12_14h24.35.699,empathy_intonation_perc_control,2024.2.4,MacIntel,60.0024001,672bb5dadc26d7849dc27b55,68817205a84113384fffdfe3,689b867f36b9dec7ec09fc2f,,,,,,,,,,,,,1,,,,,,,,,,,,,,,,,,,,,,,,,,,,,,,,,,,,,78,frondoso,,,,,365.3713,366.67,0,0,0.7623,,0,2,2,77,1,REAL,FAKE,,,,,,,,,,,,,,,,,
,,,,,,,,,672bb5dadc26d7849dc27b55,Spanish,13 or older,"no, only English or Spanish",no,2025-08-12_14h24.35.699,empathy_intonation_perc_control,2024.2.4,MacIntel,60.0024001,672bb5dadc26d7849dc27b55,68817205a84113384fffdfe3,689b867f36b9dec7ec09fc2f,,,,,,,,,,,,,1,,,,,,,,,,,,,,,,,,,,,,,,,,,,,,,,,,,,,71,polvoriento,,,,,366.6712,368.27,0,0,1.0668,,0,3,3,70,1,REAL,FAKE,,,,,,,,,,,,,,,,,
,,,,,,,,,672bb5dadc26d7849dc27b55,Spanish,13 or older,"no, only English or Spanish",no,2025-08-12_14h24.35.699,empathy_intonation_perc_control,2024.2.4,MacIntel,60.0024001,672bb5dadc26d7849dc27b55,68817205a84113384fffdfe3,689b867f36b9dec7ec09fc2f,,,,,,,,,,,,,1,,,,,,,,,,,,,,,,,,,,,,,,,,,,,,,,,,,,,85,laúd,,,,,368.2713,370.3211,0,0,1.5164,,0,4,4,84,1,REAL,FAKE,,,,,,,,,,,,,,,,,
,,,,,,,,,672bb5dadc26d7849dc27b55,Spanish,13 or older,"no, only English or Spanish",no,2025-08-12_14h24.35.699,empathy_intonation_perc_control,2024.2.4,MacIntel,60.0024001,672bb5dadc26d7849dc27b55,68817205a84113384fffdfe3,689b867f36b9dec7ec09fc2f,,,,,,,,,,,,,1,,,,,,,,,,,,,,,,,,,,,,,,,,,,,,,,,,,,,44,cuchara,,,,,370.3219,372.3368,0,0,1.47,,0,5,5,43,1,REAL,FAKE,,,,,,,,,,,,,,,,,
,,,,,,,,,672bb5dadc26d7849dc27b55,Spanish,13 or older,"no, only English or Spanish",no,2025-08-12_14h24.35.699,empathy_intonation_perc_control,2024.2.4,MacIntel,60.0024001,672bb5dadc26d7849dc27b55,68817205a84113384fffdfe3,689b867f36b9dec7ec09fc2f,,,,,,,,,,,,,1,,,,,,,,,,,,,,,,,,,,,,,,,,,,,,,,,,,,,59,besar,,,,,372.3381,373.7183,0,0,0.8377,,0,6,6,58,1,REAL,FAKE,,,,,,,,,,,,,,,,,
,,,,,,,,,672bb5dadc26d7849dc27b55,Spanish,13 or older,"no, only English or Spanish",no,2025-08-12_14h24.35.699,empathy_intonation_perc_control,2024.2.4,MacIntel,60.0024001,672bb5dadc26d7849dc27b55,68817205a84113384fffdfe3,689b867f36b9dec7ec09fc2f,,,,,,,,,,,,,1,,,,,,,,,,,,,,,,,,,,,,,,,,,,,,,,,,,,,13,helar,,,,,373.7194,375.4186,0,0,1.1847,,0,7,7,12,1,REAL,FAKE,,,,,,,,,,,,,,,,,
,,,,,,,,,672bb5dadc26d7849dc27b55,Spanish,13 or older,"no, only English or Spanish",no,2025-08-12_14h24.35.699,empathy_intonation_perc_control,2024.2.4,MacIntel,60.0024001,672bb5dadc26d7849dc27b55,68817205a84113384fffdfe3,689b867f36b9dec7ec09fc2f,,,,,,,,,,,,,1,,,,,,,,,,,,,,,,,,,,,,,,,,,,,,,,,,,,,51,candado,,,,,375.4194,378.1037,1,1,2.1554,,0,8,8,50,1,REAL,FAKE,,,,,,,,,,,,,,,,,
,,,,,,,,,672bb5dadc26d7849dc27b55,Spanish,13 or older,"no, only English or Spanish",no,2025-08-12_14h24.35.699,empathy_intonation_perc_control,2024.2.4,MacIntel,60.0024001,672bb5dadc26d7849dc27b55,68817205a84113384fffdfe3,689b867f36b9dec7ec09fc2f,,,,,,,,,,,,,0,,,,,,,,,,,,,,,,,,,,,,,,,,,,,,,,,,,,,8,cadeña,,,,,378.1061,380.3853,1,0,1.7416,,0,9,9,7,1,REAL,FAKE,,,,,,,,,,,,,,,,,
,,,,,,,,,672bb5dadc26d7849dc27b55,Spanish,13 or older,"no, only English or Spanish",no,2025-08-12_14h24.35.699,empathy_intonation_perc_control,2024.2.4,MacIntel,60.0024001,672bb5dadc26d7849dc27b55,68817205a84113384fffdfe3,689b867f36b9dec7ec09fc2f,,,,,,,,,,,,,1,,,,,,,,,,,,,,,,,,,,,,,,,,,,,,,,,,,,,14,yunque,,,,,380.3869,381.5194,0,0,0.595,,0,10,10,13,1,REAL,FAKE,,,,,,,,,,,,,,,,,
,,,,,,,,,672bb5dadc26d7849dc27b55,Spanish,13 or older,"no, only English or Spanish",no,2025-08-12_14h24.35.699,empathy_intonation_perc_control,2024.2.4,MacIntel,60.0024001,672bb5dadc26d7849dc27b55,68817205a84113384fffdfe3,689b867f36b9dec7ec09fc2f,,,,,,,,,,,,,0,,,,,,,,,,,,,,,,,,,,,,,,,,,,,,,,,,,,,4,batillón,,,,,381.5205,383.0358,0,1,0.9835,,0,11,11,3,1,REAL,FAKE,,,,,,,,,,,,,,,,,
,,,,,,,,,672bb5dadc26d7849dc27b55,Spanish,13 or older,"no, only English or Spanish",no,2025-08-12_14h24.35.699,empathy_intonation_perc_control,2024.2.4,MacIntel,60.0024001,672bb5dadc26d7849dc27b55,68817205a84113384fffdfe3,689b867f36b9dec7ec09fc2f,,,,,,,,,,,,,1,,,,,,,,,,,,,,,,,,,,,,,,,,,,,,,,,,,,,61,seda,,,,,383.0365,384.4355,0,0,0.8759,,0,12,12,60,1,REAL,FAKE,,,,,,,,,,,,,,,,,
,,,,,,,,,672bb5dadc26d7849dc27b55,Spanish,13 or older,"no, only English or Spanish",no,2025-08-12_14h24.35.699,empathy_intonation_perc_control,2024.2.4,MacIntel,60.0024001,672bb5dadc26d7849dc27b55,68817205a84113384fffdfe3,689b867f36b9dec7ec09fc2f,,,,,,,,,,,,,1,,,,,,,,,,,,,,,,,,,,,,,,,,,,,,,,,,,,,81,pozo,,,,,384.4363,385.9359,0,0,0.9766,,0,13,13,80,1,REAL,FAKE,,,,,,,,,,,,,,,,,
,,,,,,,,,672bb5dadc26d7849dc27b55,Spanish,13 or older,"no, only English or Spanish",no,2025-08-12_14h24.35.699,empathy_intonation_perc_control,2024.2.4,MacIntel,60.0024001,672bb5dadc26d7849dc27b55,68817205a84113384fffdfe3,689b867f36b9dec7ec09fc2f,,,,,,,,,,,,,1,,,,,,,,,,,,,,,,,,,,,,,,,,,,,,,,,,,,,34,aviso,,,,,385.9367,387.1858,0,0,0.7269,,0,14,14,33,1,REAL,FAKE,,,,,,,,,,,,,,,,,
,,,,,,,,,672bb5dadc26d7849dc27b55,Spanish,13 or older,"no, only English or Spanish",no,2025-08-12_14h24.35.699,empathy_intonation_perc_control,2024.2.4,MacIntel,60.0024001,672bb5dadc26d7849dc27b55,68817205a84113384fffdfe3,689b867f36b9dec7ec09fc2f,,,,,,,,,,,,,1,,,,,,,,,,,,,,,,,,,,,,,,,,,,,,,,,,,,,15,regar,,,,,387.187,389.0031,1,1,1.2924,,0,15,15,14,1,REAL,FAKE,,,,,,,,,,,,,,,,,
,,,,,,,,,672bb5dadc26d7849dc27b55,Spanish,13 or older,"no, only English or Spanish",no,2025-08-12_14h24.35.699,empathy_intonation_perc_control,2024.2.4,MacIntel,60.0024001,672bb5dadc26d7849dc27b55,68817205a84113384fffdfe3,689b867f36b9dec7ec09fc2f,,,,,,,,,,,,,0,,,,,,,,,,,,,,,,,,,,,,,,,,,,,,,,,,,,,92,click the 0 key.,,,,,389.0042,391.0116,0,1,1.4593,,0,16,16,91,1,REAL,FAKE,,,,,,,,,,,,,,,,,
,,,,,,,,,672bb5dadc26d7849dc27b55,Spanish,13 or older,"no, only English or Spanish",no,2025-08-12_14h24.35.699,empathy_intonation_perc_control,2024.2.4,MacIntel,60.0024001,672bb5dadc26d7849dc27b55,68817205a84113384fffdfe3,689b867f36b9dec7ec09fc2f,,,,,,,,,,,,,1,,,,,,,,,,,,,,,,,,,,,,,,,,,,,,,,,,,,,80,hormiga,,,,,391.0124,392.3515,0,0,0.7983,,0,17,17,79,1,REAL,FAKE,,,,,,,,,,,,,,,,,
,,,,,,,,,672bb5dadc26d7849dc27b55,Spanish,13 or older,"no, only English or Spanish",no,2025-08-12_14h24.35.699,empathy_intonation_perc_control,2024.2.4,MacIntel,60.0024001,672bb5dadc26d7849dc27b55,68817205a84113384fffdfe3,689b867f36b9dec7ec09fc2f,,,,,,,,,,,,,1,,,,,,,,,,,,,,,,,,,,,,,,,,,,,,,,,,,,,25,bisagra,,,,,392.3528,393.9689,0,0,1.0877,,0,18,18,24,1,REAL,FAKE,,,,,,,,,,,,,,,,,
,,,,,,,,,672bb5dadc26d7849dc27b55,Spanish,13 or older,"no, only English or Spanish",no,2025-08-12_14h24.35.699,empathy_intonation_perc_control,2024.2.4,MacIntel,60.0024001,672bb5dadc26d7849dc27b55,68817205a84113384fffdfe3,689b867f36b9dec7ec09fc2f,,,,,,,,,,,,,0,,,,,,,,,,,,,,,,,,,,,,,,,,,,,,,,,,,,,23,lampera,,,,,393.9695,395.6019,1,0,1.0958,,0,19,19,22,1,REAL,FAKE,,,,,,,,,,,,,,,,,
,,,,,,,,,672bb5dadc26d7849dc27b55,Spanish,13 or older,"no, only English or Spanish",no,2025-08-12_14h24.35.699,empathy_intonation_perc_control,2024.2.4,MacIntel,60.0024001,672bb5dadc26d7849dc27b55,68817205a84113384fffdfe3,689b867f36b9dec7ec09fc2f,,,,,,,,,,,,,1,,,,,,,,,,,,,,,,,,,,,,,,,,,,,,,,,,,,,60,matar,,,,,395.603,396.9881,0,0,0.8609,,0,20,20,59,1,REAL,FAKE,,,,,,,,,,,,,,,,,
,,,,,,,,,672bb5dadc26d7849dc27b55,Spanish,13 or older,"no, only English or Spanish",no,2025-08-12_14h24.35.699,empathy_intonation_perc_control,2024.2.4,MacIntel,60.0024001,672bb5dadc26d7849dc27b55,68817205a84113384fffdfe3,689b867f36b9dec7ec09fc2f,,,,,,,,,,,,,1,,,,,,,,,,,,,,,,,,,,,,,,,,,,,,,,,,,,,3,pulmones,,,,,396.9908,398.1853,0,0,0.6648,,0,21,21,2,1,REAL,FAKE,,,,,,,,,,,,,,,,,
,,,,,,,,,672bb5dadc26d7849dc27b55,Spanish,13 or older,"no, only English or Spanish",no,2025-08-12_14h24.35.699,empathy_intonation_perc_control,2024.2.4,MacIntel,60.0024001,672bb5dadc26d7849dc27b55,68817205a84113384fffdfe3,689b867f36b9dec7ec09fc2f,,,,,,,,,,,,,1,,,,,,,,,,,,,,,,,,,,,,,,,,,,,,,,,,,,,56,musgo,,,,,398.1865,399.8846,0,0,1.168,,0,22,22,55,1,REAL,FAKE,,,,,,,,,,,,,,,,,
,,,,,,,,,672bb5dadc26d7849dc27b55,Spanish,13 or older,"no, only English or Spanish",no,2025-08-12_14h24.35.699,empathy_intonation_perc_control,2024.2.4,MacIntel,60.0024001,672bb5dadc26d7849dc27b55,68817205a84113384fffdfe3,689b867f36b9dec7ec09fc2f,,,,,,,,,,,,,0,,,,,,,,,,,,,,,,,,,,,,,,,,,,,,,,,,,,,27,acutación,,,,,399.8859,401.3531,0,1,0.9467,,0,23,23,26,1,REAL,FAKE,,,,,,,,,,,,,,,,,
,,,,,,,,,672bb5dadc26d7849dc27b55,Spanish,13 or older,"no, only English or Spanish",no,2025-08-12_14h24.35.699,empathy_intonation_perc_control,2024.2.4,MacIntel,60.0024001,672bb5dadc26d7849dc27b55,68817205a84113384fffdfe3,689b867f36b9dec7ec09fc2f,,,,,,,,,,,,,0,,,,,,,,,,,,,,,,,,,,,,,,,,,,,,,,,,,,,18,arsa,,,,,401.3548,402.786,0,1,0.9153,,0,24,24,17,1,REAL,FAKE,,,,,,,,,,,,,,,,,
,,,,,,,,,672bb5dadc26d7849dc27b55,Spanish,13 or older,"no, only English or Spanish",no,2025-08-12_14h24.35.699,empathy_intonation_perc_control,2024.2.4,MacIntel,60.0024001,672bb5dadc26d7849dc27b55,68817205a84113384fffdfe3,689b867f36b9dec7ec09fc2f,,,,,,,,,,,,,1,,,,,,,,,,,,,,,,,,,,,,,,,,,,,,,,,,,,,6,tergiversar,,,,,402.7872,404.8873,0,0,1.5607,,0,25,25,5,1,REAL,FAKE,,,,,,,,,,,,,,,,,
,,,,,,,,,672bb5dadc26d7849dc27b55,Spanish,13 or older,"no, only English or Spanish",no,2025-08-12_14h24.35.699,empathy_intonation_perc_control,2024.2.4,MacIntel,60.0024001,672bb5dadc26d7849dc27b55,68817205a84113384fffdfe3,689b867f36b9dec7ec09fc2f,,,,,,,,,,,,,1,,,,,,,,,,,,,,,,,,,,,,,,,,,,,,,,,,,,,5,zapato,,,,,404.8895,406.5538,1,1,1.1276,,0,26,26,4,1,REAL,FAKE,,,,,,,,,,,,,,,,,
,,,,,,,,,672bb5dadc26d7849dc27b55,Spanish,13 or older,"no, only English or Spanish",no,2025-08-12_14h24.35.699,empathy_intonation_perc_control,2024.2.4,MacIntel,60.0024001,672bb5dadc26d7849dc27b55,68817205a84113384fffdfe3,689b867f36b9dec7ec09fc2f,,,,,,,,,,,,,1,,,,,,,,,,,,,,,,,,,,,,,,,,,,,,,,,,,,,46,martillo,,,,,406.5553,407.9528,0,0,0.8795,,0,27,27,45,1,REAL,FAKE,,,,,,,,,,,,,,,,,
,,,,,,,,,672bb5dadc26d7849dc27b55,Spanish,13 or older,"no, only English or Spanish",no,2025-08-12_14h24.35.699,empathy_intonation_perc_control,2024.2.4,MacIntel,60.0024001,672bb5dadc26d7849dc27b55,68817205a84113384fffdfe3,689b867f36b9dec7ec09fc2f,,,,,,,,,,,,,1,,,,,,,,,,,,,,,,,,,,,,,,,,,,,,,,,,,,,67,cabello,,,,,407.9551,409.2368,1,1,0.7623,,0,28,28,66,1,REAL,FAKE,,,,,,,,,,,,,,,,,
,,,,,,,,,672bb5dadc26d7849dc27b55,Spanish,13 or older,"no, only English or Spanish",no,2025-08-12_14h24.35.699,empathy_intonation_perc_control,2024.2.4,MacIntel,60.0024001,672bb5dadc26d7849dc27b55,68817205a84113384fffdfe3,689b867f36b9dec7ec09fc2f,,,,,,,,,,,,,0,,,,,,,,,,,,,,,,,,,,,,,,,,,,,,,,,,,,,42,cadallo,,,,,409.2377,410.487,0,1,0.7293,,0,29,29,41,1,REAL,FAKE,,,,,,,,,,,,,,,,,
,,,,,,,,,672bb5dadc26d7849dc27b55,Spanish,13 or older,"no, only English or Spanish",no,2025-08-12_14h24.35.699,empathy_intonation_perc_control,2024.2.4,MacIntel,60.0024001,672bb5dadc26d7849dc27b55,68817205a84113384fffdfe3,689b867f36b9dec7ec09fc2f,,,,,,,,,,,,,1,,,,,,,,,,,,,,,,,,,,,,,,,,,,,,,,,,,,,68,alegre,,,,,410.4886,412.3526,1,1,1.3248,,0,30,30,67,1,REAL,FAKE,,,,,,,,,,,,,,,,,
,,,,,,,,,672bb5dadc26d7849dc27b55,Spanish,13 or older,"no, only English or Spanish",no,2025-08-12_14h24.35.699,empathy_intonation_perc_control,2024.2.4,MacIntel,60.0024001,672bb5dadc26d7849dc27b55,68817205a84113384fffdfe3,689b867f36b9dec7ec09fc2f,,,,,,,,,,,,,1,,,,,,,,,,,,,,,,,,,,,,,,,,,,,,,,,,,,,2,pellizcar,,,,,412.3534,413.5027,0,0,0.6123,,0,31,31,1,1,REAL,FAKE,,,,,,,,,,,,,,,,,
,,,,,,,,,672bb5dadc26d7849dc27b55,Spanish,13 or older,"no, only English or Spanish",no,2025-08-12_14h24.35.699,empathy_intonation_perc_control,2024.2.4,MacIntel,60.0024001,672bb5dadc26d7849dc27b55,68817205a84113384fffdfe3,689b867f36b9dec7ec09fc2f,,,,,,,,,,,,,1,,,,,,,,,,,,,,,,,,,,,,,,,,,,,,,,,,,,,41,rebuscar,,,,,413.5036,415.2178,1,1,1.186,,0,32,32,40,1,REAL,FAKE,,,,,,,,,,,,,,,,,
,,,,,,,,,672bb5dadc26d7849dc27b55,Spanish,13 or older,"no, only English or Spanish",no,2025-08-12_14h24.35.699,empathy_intonation_perc_control,2024.2.4,MacIntel,60.0024001,672bb5dadc26d7849dc27b55,68817205a84113384fffdfe3,689b867f36b9dec7ec09fc2f,,,,,,,,,,,,,1,,,,,,,,,,,,,,,,,,,,,,,,,,,,,,,,,,,,,7,pésimo,,,,,415.2194,417.1362,1,1,1.3882,,0,33,33,6,1,REAL,FAKE,,,,,,,,,,,,,,,,,
,,,,,,,,,672bb5dadc26d7849dc27b55,Spanish,13 or older,"no, only English or Spanish",no,2025-08-12_14h24.35.699,empathy_intonation_perc_control,2024.2.4,MacIntel,60.0024001,672bb5dadc26d7849dc27b55,68817205a84113384fffdfe3,689b867f36b9dec7ec09fc2f,,,,,,,,,,,,,1,,,,,,,,,,,,,,,,,,,,,,,,,,,,,,,,,,,,,76,atar,,,,,417.137,418.6198,1,1,0.9549,,0,34,34,75,1,REAL,FAKE,,,,,,,,,,,,,,,,,
,,,,,,,,,672bb5dadc26d7849dc27b55,Spanish,13 or older,"no, only English or Spanish",no,2025-08-12_14h24.35.699,empathy_intonation_perc_control,2024.2.4,MacIntel,60.0024001,672bb5dadc26d7849dc27b55,68817205a84113384fffdfe3,689b867f36b9dec7ec09fc2f,,,,,,,,,,,,,1,,,,,,,,,,,,,,,,,,,,,,,,,,,,,,,,,,,,,36,loro,,,,,418.6208,419.8534,1,1,0.6968,,0,35,35,35,1,REAL,FAKE,,,,,,,,,,,,,,,,,
,,,,,,,,,672bb5dadc26d7849dc27b55,Spanish,13 or older,"no, only English or Spanish",no,2025-08-12_14h24.35.699,empathy_intonation_perc_control,2024.2.4,MacIntel,60.0024001,672bb5dadc26d7849dc27b55,68817205a84113384fffdfe3,689b867f36b9dec7ec09fc2f,,,,,,,,,,,,,0,,,,,,,,,,,,,,,,,,,,,,,,,,,,,,,,,,,,,66,hacido,,,,,419.8543,421.4359,1,0,1.0369,,0,36,36,65,1,REAL,FAKE,,,,,,,,,,,,,,,,,
,,,,,,,,,672bb5dadc26d7849dc27b55,Spanish,13 or older,"no, only English or Spanish",no,2025-08-12_14h24.35.699,empathy_intonation_perc_control,2024.2.4,MacIntel,60.0024001,672bb5dadc26d7849dc27b55,68817205a84113384fffdfe3,689b867f36b9dec7ec09fc2f,,,,,,,,,,,,,1,,,,,,,,,,,,,,,,,,,,,,,,,,,,,,,,,,,,,43,canela,,,,,421.4373,423.6353,1,1,1.6565,,0,37,37,42,1,REAL,FAKE,,,,,,,,,,,,,,,,,
,,,,,,,,,672bb5dadc26d7849dc27b55,Spanish,13 or older,"no, only English or Spanish",no,2025-08-12_14h24.35.699,empathy_intonation_perc_control,2024.2.4,MacIntel,60.0024001,672bb5dadc26d7849dc27b55,68817205a84113384fffdfe3,689b867f36b9dec7ec09fc2f,,,,,,,,,,,,,1,,,,,,,,,,,,,,,,,,,,,,,,,,,,,,,,,,,,,37,granuja,,,,,423.6362,425.0023,0,0,0.8374,,0,38,38,36,1,REAL,FAKE,,,,,,,,,,,,,,,,,
,,,,,,,,,672bb5dadc26d7849dc27b55,Spanish,13 or older,"no, only English or Spanish",no,2025-08-12_14h24.35.699,empathy_intonation_perc_control,2024.2.4,MacIntel,60.0024001,672bb5dadc26d7849dc27b55,68817205a84113384fffdfe3,689b867f36b9dec7ec09fc2f,,,,,,,,,,,,,0,,,,,,,,,,,,,,,,,,,,,,,,,,,,,,,,,,,,,58,plaudir,,,,,425.0031,426.0842,0,1,0.5611,,0,39,39,57,1,REAL,FAKE,,,,,,,,,,,,,,,,,
,,,,,,,,,672bb5dadc26d7849dc27b55,Spanish,13 or older,"no, only English or Spanish",no,2025-08-12_14h24.35.699,empathy_intonation_perc_control,2024.2.4,MacIntel,60.0024001,672bb5dadc26d7849dc27b55,68817205a84113384fffdfe3,689b867f36b9dec7ec09fc2f,,,,,,,,,,,,,1,,,,,,,,,,,,,,,,,,,,,,,,,,,,,,,,,,,,,20,ávido,,,,,426.0855,427.6017,0,0,0.9874,,0,40,40,19,1,REAL,FAKE,,,,,,,,,,,,,,,,,
,,,,,,,,,672bb5dadc26d7849dc27b55,Spanish,13 or older,"no, only English or Spanish",no,2025-08-12_14h24.35.699,empathy_intonation_perc_control,2024.2.4,MacIntel,60.0024001,672bb5dadc26d7849dc27b55,68817205a84113384fffdfe3,689b867f36b9dec7ec09fc2f,,,,,,,,,,,,,0,,,,,,,,,,,,,,,,,,,,,,,,,,,,,,,,,,,,,30,alardio,,,,,427.6028,428.8517,0,1,0.7208,,0,41,41,29,1,REAL,FAKE,,,,,,,,,,,,,,,,,
,,,,,,,,,672bb5dadc26d7849dc27b55,Spanish,13 or older,"no, only English or Spanish",no,2025-08-12_14h24.35.699,empathy_intonation_perc_control,2024.2.4,MacIntel,60.0024001,672bb5dadc26d7849dc27b55,68817205a84113384fffdfe3,689b867f36b9dec7ec09fc2f,,,,,,,,,,,,,1,,,,,,,,,,,,,,,,,,,,,,,,,,,,,,,,,,,,,57,tacaño,,,,,428.8525,430.2029,0,0,0.8111,,0,42,42,56,1,REAL,FAKE,,,,,,,,,,,,,,,,,
,,,,,,,,,672bb5dadc26d7849dc27b55,Spanish,13 or older,"no, only English or Spanish",no,2025-08-12_14h24.35.699,empathy_intonation_perc_control,2024.2.4,MacIntel,60.0024001,672bb5dadc26d7849dc27b55,68817205a84113384fffdfe3,689b867f36b9dec7ec09fc2f,,,,,,,,,,,,,1,,,,,,,,,,,,,,,,,,,,,,,,,,,,,,,,,,,,,73,hervidor,,,,,430.2038,431.4525,0,0,0.7208,,0,43,43,72,1,REAL,FAKE,,,,,,,,,,,,,,,,,
,,,,,,,,,672bb5dadc26d7849dc27b55,Spanish,13 or older,"no, only English or Spanish",no,2025-08-12_14h24.35.699,empathy_intonation_perc_control,2024.2.4,MacIntel,60.0024001,672bb5dadc26d7849dc27b55,68817205a84113384fffdfe3,689b867f36b9dec7ec09fc2f,,,,,,,,,,,,,0,,,,,,,,,,,,,,,,,,,,,,,,,,,,,,,,,,,,,50,flamida,,,,,431.4532,432.818,0,1,0.8184,,0,44,44,49,1,REAL,FAKE,,,,,,,,,,,,,,,,,
,,,,,,,,,672bb5dadc26d7849dc27b55,Spanish,13 or older,"no, only English or Spanish",no,2025-08-12_14h24.35.699,empathy_intonation_perc_control,2024.2.4,MacIntel,60.0024001,672bb5dadc26d7849dc27b55,68817205a84113384fffdfe3,689b867f36b9dec7ec09fc2f,,,,,,,,,,,,,0,,,,,,,,,,,,,,,,,,,,,,,,,,,,,,,,,,,,,17,floroso,,,,,432.8189,434.1199,0,1,0.7874,,0,45,45,16,1,REAL,FAKE,,,,,,,,,,,,,,,,,
,,,,,,,,,672bb5dadc26d7849dc27b55,Spanish,13 or older,"no, only English or Spanish",no,2025-08-12_14h24.35.699,empathy_intonation_perc_control,2024.2.4,MacIntel,60.0024001,672bb5dadc26d7849dc27b55,68817205a84113384fffdfe3,689b867f36b9dec7ec09fc2f,,,,,,,,,,,,,1,,,,,,,,,,,,,,,,,,,,,,,,,,,,,,,,,,,,,88,acantilado,,,,,434.1204,435.6021,0,0,0.9359,,0,46,46,87,1,REAL,FAKE,,,,,,,,,,,,,,,,,
,,,,,,,,,672bb5dadc26d7849dc27b55,Spanish,13 or older,"no, only English or Spanish",no,2025-08-12_14h24.35.699,empathy_intonation_perc_control,2024.2.4,MacIntel,60.0024001,672bb5dadc26d7849dc27b55,68817205a84113384fffdfe3,689b867f36b9dec7ec09fc2f,,,,,,,,,,,,,1,,,,,,,,,,,,,,,,,,,,,,,,,,,,,,,,,,,,,90,clavel,,,,,435.6029,436.771,0,0,0.6241,,0,47,47,89,1,REAL,FAKE,,,,,,,,,,,,,,,,,
,,,,,,,,,672bb5dadc26d7849dc27b55,Spanish,13 or older,"no, only English or Spanish",no,2025-08-12_14h24.35.699,empathy_intonation_perc_control,2024.2.4,MacIntel,60.0024001,672bb5dadc26d7849dc27b55,68817205a84113384fffdfe3,689b867f36b9dec7ec09fc2f,,,,,,,,,,,,,0,,,,,,,,,,,,,,,,,,,,,,,,,,,,,,,,,,,,,74,cintro,,,,,436.773,438.3186,1,0,1.0193,,0,48,48,73,1,REAL,FAKE,,,,,,,,,,,,,,,,,
,,,,,,,,,672bb5dadc26d7849dc27b55,Spanish,13 or older,"no, only English or Spanish",no,2025-08-12_14h24.35.699,empathy_intonation_perc_control,2024.2.4,MacIntel,60.0024001,672bb5dadc26d7849dc27b55,68817205a84113384fffdfe3,689b867f36b9dec7ec09fc2f,,,,,,,,,,,,,0,,,,,,,,,,,,,,,,,,,,,,,,,,,,,,,,,,,,,1,terzo,,,,,438.3194,439.4017,0,1,0.5468,,0,49,49,0,1,REAL,FAKE,,,,,,,,,,,,,,,,,
,,,,,,,,,672bb5dadc26d7849dc27b55,Spanish,13 or older,"no, only English or Spanish",no,2025-08-12_14h24.35.699,empathy_intonation_perc_control,2024.2.4,MacIntel,60.0024001,672bb5dadc26d7849dc27b55,68817205a84113384fffdfe3,689b867f36b9dec7ec09fc2f,,,,,,,,,,,,,0,,,,,,,,,,,,,,,,,,,,,,,,,,,,,,,,,,,,,16,abracer,,,,,439.4027,442.1185,1,0,2.1925,,0,50,50,15,1,REAL,FAKE,,,,,,,,,,,,,,,,,
,,,,,,,,,672bb5dadc26d7849dc27b55,Spanish,13 or older,"no, only English or Spanish",no,2025-08-12_14h24.35.699,empathy_intonation_perc_control,2024.2.4,MacIntel,60.0024001,672bb5dadc26d7849dc27b55,68817205a84113384fffdfe3,689b867f36b9dec7ec09fc2f,,,,,,,,,,,,,0,,,,,,,,,,,,,,,,,,,,,,,,,,,,,,,,,,,,,63,esposante,,,,,442.1194,444.0021,1,0,1.3541,,0,51,51,62,1,REAL,FAKE,,,,,,,,,,,,,,,,,
,,,,,,,,,672bb5dadc26d7849dc27b55,Spanish,13 or older,"no, only English or Spanish",no,2025-08-12_14h24.35.699,empathy_intonation_perc_control,2024.2.4,MacIntel,60.0024001,672bb5dadc26d7849dc27b55,68817205a84113384fffdfe3,689b867f36b9dec7ec09fc2f,,,,,,,,,,,,,1,,,,,,,,,,,,,,,,,,,,,,,,,,,,,,,,,,,,,24,látigo,,,,,444.0034,445.3688,0,0,0.8545,,0,52,52,23,1,REAL,FAKE,,,,,,,,,,,,,,,,,
,,,,,,,,,672bb5dadc26d7849dc27b55,Spanish,13 or older,"no, only English or Spanish",no,2025-08-12_14h24.35.699,empathy_intonation_perc_control,2024.2.4,MacIntel,60.0024001,672bb5dadc26d7849dc27b55,68817205a84113384fffdfe3,689b867f36b9dec7ec09fc2f,,,,,,,,,,,,,1,,,,,,,,,,,,,,,,,,,,,,,,,,,,,,,,,,,,,22,lacayo,,,,,445.3697,447.2347,1,1,1.3277,,0,53,53,21,1,REAL,FAKE,,,,,,,,,,,,,,,,,
,,,,,,,,,672bb5dadc26d7849dc27b55,Spanish,13 or older,"no, only English or Spanish",no,2025-08-12_14h24.35.699,empathy_intonation_perc_control,2024.2.4,MacIntel,60.0024001,672bb5dadc26d7849dc27b55,68817205a84113384fffdfe3,689b867f36b9dec7ec09fc2f,,,,,,,,,,,,,0,,,,,,,,,,,,,,,,,,,,,,,,,,,,,,,,,,,,,19,brecedad,,,,,447.2358,448.7004,0,1,0.9472,,0,54,54,18,1,REAL,FAKE,,,,,,,,,,,,,,,,,
,,,,,,,,,672bb5dadc26d7849dc27b55,Spanish,13 or older,"no, only English or Spanish",no,2025-08-12_14h24.35.699,empathy_intonation_perc_control,2024.2.4,MacIntel,60.0024001,672bb5dadc26d7849dc27b55,68817205a84113384fffdfe3,689b867f36b9dec7ec09fc2f,,,,,,,,,,,,,1,,,,,,,,,,,,,,,,,,,,,,,,,,,,,,,,,,,,,86,barato,,,,,448.7015,450.0674,0,0,0.8458,,0,55,55,85,1,REAL,FAKE,,,,,,,,,,,,,,,,,
,,,,,,,,,672bb5dadc26d7849dc27b55,Spanish,13 or older,"no, only English or Spanish",no,2025-08-12_14h24.35.699,empathy_intonation_perc_control,2024.2.4,MacIntel,60.0024001,672bb5dadc26d7849dc27b55,68817205a84113384fffdfe3,689b867f36b9dec7ec09fc2f,,,,,,,,,,,,,1,,,,,,,,,,,,,,,,,,,,,,,,,,,,,,,,,,,,,49,ganar,,,,,450.0681,451.2205,0,0,0.6308,,0,56,56,48,1,REAL,FAKE,,,,,,,,,,,,,,,,,
,,,,,,,,,672bb5dadc26d7849dc27b55,Spanish,13 or older,"no, only English or Spanish",no,2025-08-12_14h24.35.699,empathy_intonation_perc_control,2024.2.4,MacIntel,60.0024001,672bb5dadc26d7849dc27b55,68817205a84113384fffdfe3,689b867f36b9dec7ec09fc2f,,,,,,,,,,,,,0,,,,,,,,,,,,,,,,,,,,,,,,,,,,,,,,,,,,,21,capillo,,,,,451.2231,452.8176,1,0,1.056,,0,57,57,20,1,REAL,FAKE,,,,,,,,,,,,,,,,,
,,,,,,,,,672bb5dadc26d7849dc27b55,Spanish,13 or older,"no, only English or Spanish",no,2025-08-12_14h24.35.699,empathy_intonation_perc_control,2024.2.4,MacIntel,60.0024001,672bb5dadc26d7849dc27b55,68817205a84113384fffdfe3,689b867f36b9dec7ec09fc2f,,,,,,,,,,,,,1,,,,,,,,,,,,,,,,,,,,,,,,,,,,,,,,,,,,,91,click the 1 key.,,,,,452.8189,454.2356,1,1,0.8998,,0,58,58,90,1,REAL,FAKE,,,,,,,,,,,,,,,,,
,,,,,,,,,672bb5dadc26d7849dc27b55,Spanish,13 or older,"no, only English or Spanish",no,2025-08-12_14h24.35.699,empathy_intonation_perc_control,2024.2.4,MacIntel,60.0024001,672bb5dadc26d7849dc27b55,68817205a84113384fffdfe3,689b867f36b9dec7ec09fc2f,,,,,,,,,,,,,1,,,,,,,,,,,,,,,,,,,,,,,,,,,,,,,,,,,,,48,ladrón,,,,,454.2373,455.4512,0,0,0.6947,,0,59,59,47,1,REAL,FAKE,,,,,,,,,,,,,,,,,
,,,,,,,,,672bb5dadc26d7849dc27b55,Spanish,13 or older,"no, only English or Spanish",no,2025-08-12_14h24.35.699,empathy_intonation_perc_control,2024.2.4,MacIntel,60.0024001,672bb5dadc26d7849dc27b55,68817205a84113384fffdfe3,689b867f36b9dec7ec09fc2f,,,,,,,,,,,,,0,,,,,,,,,,,,,,,,,,,,,,,,,,,,,,,,,,,,,53,vegada,,,,,455.4521,456.7356,0,1,0.7552,,0,60,60,52,1,REAL,FAKE,,,,,,,,,,,,,,,,,
,,,,,,,,,672bb5dadc26d7849dc27b55,Spanish,13 or older,"no, only English or Spanish",no,2025-08-12_14h24.35.699,empathy_intonation_perc_control,2024.2.4,MacIntel,60.0024001,672bb5dadc26d7849dc27b55,68817205a84113384fffdfe3,689b867f36b9dec7ec09fc2f,,,,,,,,,,,,,0,,,,,,,,,,,,,,,,,,,,,,,,,,,,,,,,,,,,,33,pauca,,,,,456.7366,458.0382,0,1,0.7678,,0,61,61,32,1,REAL,FAKE,,,,,,,,,,,,,,,,,
,,,,,,,,,672bb5dadc26d7849dc27b55,Spanish,13 or older,"no, only English or Spanish",no,2025-08-12_14h24.35.699,empathy_intonation_perc_control,2024.2.4,MacIntel,60.0024001,672bb5dadc26d7849dc27b55,68817205a84113384fffdfe3,689b867f36b9dec7ec09fc2f,,,,,,,,,,,,,1,,,,,,,,,,,,,,,,,,,,,,,,,,,,,,,,,,,,,62,flaco,,,,,458.0402,459.1856,0,0,0.6188,,0,62,62,61,1,REAL,FAKE,,,,,,,,,,,,,,,,,
,,,,,,,,,672bb5dadc26d7849dc27b55,Spanish,13 or older,"no, only English or Spanish",no,2025-08-12_14h24.35.699,empathy_intonation_perc_control,2024.2.4,MacIntel,60.0024001,672bb5dadc26d7849dc27b55,68817205a84113384fffdfe3,689b867f36b9dec7ec09fc2f,,,,,,,,,,,,,0,,,,,,,,,,,,,,,,,,,,,,,,,,,,,,,,,,,,,87,grodo,,,,,459.1868,460.3184,0,1,0.5986,,0,63,63,86,1,REAL,FAKE,,,,,,,,,,,,,,,,,
,,,,,,,,,672bb5dadc26d7849dc27b55,Spanish,13 or older,"no, only English or Spanish",no,2025-08-12_14h24.35.699,empathy_intonation_perc_control,2024.2.4,MacIntel,60.0024001,672bb5dadc26d7849dc27b55,68817205a84113384fffdfe3,689b867f36b9dec7ec09fc2f,,,,,,,,,,,,,1,,,,,,,,,,,,,,,,,,,,,,,,,,,,,,,,,,,,,54,fomentar,,,,,460.3194,461.6014,0,0,0.7427,,0,64,64,53,1,REAL,FAKE,,,,,,,,,,,,,,,,,
,,,,,,,,,672bb5dadc26d7849dc27b55,Spanish,13 or older,"no, only English or Spanish",no,2025-08-12_14h24.35.699,empathy_intonation_perc_control,2024.2.4,MacIntel,60.0024001,672bb5dadc26d7849dc27b55,68817205a84113384fffdfe3,689b867f36b9dec7ec09fc2f,,,,,,,,,,,,,1,,,,,,,,,,,,,,,,,,,,,,,,,,,,,,,,,,,,,69,engatusar,,,,,461.6027,462.6688,0,0,0.5438,,0,65,65,68,1,REAL,FAKE,,,,,,,,,,,,,,,,,
,,,,,,,,,672bb5dadc26d7849dc27b55,Spanish,13 or older,"no, only English or Spanish",no,2025-08-12_14h24.35.699,empathy_intonation_perc_control,2024.2.4,MacIntel,60.0024001,672bb5dadc26d7849dc27b55,68817205a84113384fffdfe3,689b867f36b9dec7ec09fc2f,,,,,,,,,,,,,0,,,,,,,,,,,,,,,,,,,,,,,,,,,,,,,,,,,,,72,pemición,,,,,462.6703,463.9174,0,1,0.7301,,0,66,66,71,1,REAL,FAKE,,,,,,,,,,,,,,,,,
,,,,,,,,,672bb5dadc26d7849dc27b55,Spanish,13 or older,"no, only English or Spanish",no,2025-08-12_14h24.35.699,empathy_intonation_perc_control,2024.2.4,MacIntel,60.0024001,672bb5dadc26d7849dc27b55,68817205a84113384fffdfe3,689b867f36b9dec7ec09fc2f,,,,,,,,,,,,,0,,,,,,,,,,,,,,,,,,,,,,,,,,,,,,,,,,,,,70,temblo,,,,,463.9189,465.5683,0,1,1.111,,0,67,67,69,1,REAL,FAKE,,,,,,,,,,,,,,,,,
,,,,,,,,,672bb5dadc26d7849dc27b55,Spanish,13 or older,"no, only English or Spanish",no,2025-08-12_14h24.35.699,empathy_intonation_perc_control,2024.2.4,MacIntel,60.0024001,672bb5dadc26d7849dc27b55,68817205a84113384fffdfe3,689b867f36b9dec7ec09fc2f,,,,,,,,,,,,,0,,,,,,,,,,,,,,,,,,,,,,,,,,,,,,,,,,,,,82,empirador,,,,,465.5693,466.9177,0,1,0.828,,0,68,68,81,1,REAL,FAKE,,,,,,,,,,,,,,,,,
,,,,,,,,,672bb5dadc26d7849dc27b55,Spanish,13 or older,"no, only English or Spanish",no,2025-08-12_14h24.35.699,empathy_intonation_perc_control,2024.2.4,MacIntel,60.0024001,672bb5dadc26d7849dc27b55,68817205a84113384fffdfe3,689b867f36b9dec7ec09fc2f,,,,,,,,,,,,,0,,,,,,,,,,,,,,,,,,,,,,,,,,,,,,,,,,,,,35,rompido,,,,,466.9189,469.0847,1,0,1.6461,,0,69,69,34,1,REAL,FAKE,,,,,,,,,,,,,,,,,
,,,,,,,,,672bb5dadc26d7849dc27b55,Spanish,13 or older,"no, only English or Spanish",no,2025-08-12_14h24.35.699,empathy_intonation_perc_control,2024.2.4,MacIntel,60.0024001,672bb5dadc26d7849dc27b55,68817205a84113384fffdfe3,689b867f36b9dec7ec09fc2f,,,,,,,,,,,,,1,,,,,,,,,,,,,,,,,,,,,,,,,,,,,,,,,,,,,26,secuestro,,,,,469.0855,471.6186,1,1,2.0121,,0,70,70,25,1,REAL,FAKE,,,,,,,,,,,,,,,,,
,,,,,,,,,672bb5dadc26d7849dc27b55,Spanish,13 or older,"no, only English or Spanish",no,2025-08-12_14h24.35.699,empathy_intonation_perc_control,2024.2.4,MacIntel,60.0024001,672bb5dadc26d7849dc27b55,68817205a84113384fffdfe3,689b867f36b9dec7ec09fc2f,,,,,,,,,,,,,1,,,,,,,,,,,,,,,,,,,,,,,,,,,,,,,,,,,,,64,orgulloso,,,,,471.6194,472.6843,0,0,0.538,,0,71,71,63,1,REAL,FAKE,,,,,,,,,,,,,,,,,
,,,,,,,,,672bb5dadc26d7849dc27b55,Spanish,13 or older,"no, only English or Spanish",no,2025-08-12_14h24.35.699,empathy_intonation_perc_control,2024.2.4,MacIntel,60.0024001,672bb5dadc26d7849dc27b55,68817205a84113384fffdfe3,689b867f36b9dec7ec09fc2f,,,,,,,,,,,,,1,,,,,,,,,,,,,,,,,,,,,,,,,,,,,,,,,,,,,65,bizcocho,,,,,472.6857,474.5028,0,0,1.2807,,0,72,72,64,1,REAL,FAKE,,,,,,,,,,,,,,,,,
,,,,,,,,,672bb5dadc26d7849dc27b55,Spanish,13 or older,"no, only English or Spanish",no,2025-08-12_14h24.35.699,empathy_intonation_perc_control,2024.2.4,MacIntel,60.0024001,672bb5dadc26d7849dc27b55,68817205a84113384fffdfe3,689b867f36b9dec7ec09fc2f,,,,,,,,,,,,,1,,,,,,,,,,,,,,,,,,,,,,,,,,,,,,,,,,,,,12,asesinato,,,,,474.5044,475.8512,0,0,0.8062,,0,73,73,11,1,REAL,FAKE,,,,,,,,,,,,,,,,,
,,,,,,,,,672bb5dadc26d7849dc27b55,Spanish,13 or older,"no, only English or Spanish",no,2025-08-12_14h24.35.699,empathy_intonation_perc_control,2024.2.4,MacIntel,60.0024001,672bb5dadc26d7849dc27b55,68817205a84113384fffdfe3,689b867f36b9dec7ec09fc2f,,,,,,,,,,,,,1,,,,,,,,,,,,,,,,,,,,,,,,,,,,,,,,,,,,,45,jilguero,,,,,475.8526,477.0841,0,0,0.7116,,0,74,74,44,1,REAL,FAKE,,,,,,,,,,,,,,,,,
,,,,,,,,,672bb5dadc26d7849dc27b55,Spanish,13 or older,"no, only English or Spanish",no,2025-08-12_14h24.35.699,empathy_intonation_perc_control,2024.2.4,MacIntel,60.0024001,672bb5dadc26d7849dc27b55,68817205a84113384fffdfe3,689b867f36b9dec7ec09fc2f,,,,,,,,,,,,,1,,,,,,,,,,,,,,,,,,,,,,,,,,,,,,,,,,,,,11,cenefa,,,,,477.0851,478.4705,0,0,0.8582,,0,75,75,10,1,REAL,FAKE,,,,,,,,,,,,,,,,,
,,,,,,,,,672bb5dadc26d7849dc27b55,Spanish,13 or older,"no, only English or Spanish",no,2025-08-12_14h24.35.699,empathy_intonation_perc_control,2024.2.4,MacIntel,60.0024001,672bb5dadc26d7849dc27b55,68817205a84113384fffdfe3,689b867f36b9dec7ec09fc2f,,,,,,,,,,,,,1,,,,,,,,,,,,,,,,,,,,,,,,,,,,,,,,,,,,,83,guante,,,,,478.4731,479.7865,0,0,0.781,,0,76,76,82,1,REAL,FAKE,,,,,,,,,,,,,,,,,
,,,,,,,,,672bb5dadc26d7849dc27b55,Spanish,13 or older,"no, only English or Spanish",no,2025-08-12_14h24.35.699,empathy_intonation_perc_control,2024.2.4,MacIntel,60.0024001,672bb5dadc26d7849dc27b55,68817205a84113384fffdfe3,689b867f36b9dec7ec09fc2f,,,,,,,,,,,,,1,,,,,,,,,,,,,,,,,,,,,,,,,,,,,,,,,,,,,77,tiburón,,,,,479.7883,481.1353,0,0,0.809,,0,77,77,76,1,REAL,FAKE,,,,,,,,,,,,,,,,,
,,,,,,,,,672bb5dadc26d7849dc27b55,Spanish,13 or older,"no, only English or Spanish",no,2025-08-12_14h24.35.699,empathy_intonation_perc_control,2024.2.4,MacIntel,60.0024001,672bb5dadc26d7849dc27b55,68817205a84113384fffdfe3,689b867f36b9dec7ec09fc2f,,,,,,,,,,,,,0,,,,,,,,,,,,,,,,,,,,,,,,,,,,,,,,,,,,,32,fatacidad,,,,,481.137,482.354,0,1,0.6771,,0,78,78,31,1,REAL,FAKE,,,,,,,,,,,,,,,,,
,,,,,,,,,672bb5dadc26d7849dc27b55,Spanish,13 or older,"no, only English or Spanish",no,2025-08-12_14h24.35.699,empathy_intonation_perc_control,2024.2.4,MacIntel,60.0024001,672bb5dadc26d7849dc27b55,68817205a84113384fffdfe3,689b867f36b9dec7ec09fc2f,,,,,,,,,,,,,1,,,,,,,,,,,,,,,,,,,,,,,,,,,,,,,,,,,,,9,hacha,,,,,482.3547,483.9003,1,1,1.0123,,0,79,79,8,1,REAL,FAKE,,,,,,,,,,,,,,,,,
,,,,,,,,,672bb5dadc26d7849dc27b55,Spanish,13 or older,"no, only English or Spanish",no,2025-08-12_14h24.35.699,empathy_intonation_perc_control,2024.2.4,MacIntel,60.0024001,672bb5dadc26d7849dc27b55,68817205a84113384fffdfe3,689b867f36b9dec7ec09fc2f,,,,,,,,,,,,,0,,,,,,,,,,,,,,,,,,,,,,,,,,,,,,,,,,,,,84,escuto,,,,,483.9009,485.4013,1,0,0.9773,,0,80,80,83,1,REAL,FAKE,,,,,,,,,,,,,,,,,
,,,,,,,,,672bb5dadc26d7849dc27b55,Spanish,13 or older,"no, only English or Spanish",no,2025-08-12_14h24.35.699,empathy_intonation_perc_control,2024.2.4,MacIntel,60.0024001,672bb5dadc26d7849dc27b55,68817205a84113384fffdfe3,689b867f36b9dec7ec09fc2f,,,,,,,,,,,,,1,,,,,,,,,,,,,,,,,,,,,,,,,,,,,,,,,,,,,38,estornudar,,,,,485.4024,486.5028,0,0,0.5774,,0,81,81,37,1,REAL,FAKE,,,,,,,,,,,,,,,,,
,,,,,,,,,672bb5dadc26d7849dc27b55,Spanish,13 or older,"no, only English or Spanish",no,2025-08-12_14h24.35.699,empathy_intonation_perc_control,2024.2.4,MacIntel,60.0024001,672bb5dadc26d7849dc27b55,68817205a84113384fffdfe3,689b867f36b9dec7ec09fc2f,,,,,,,,,,,,,0,,,,,,,,,,,,,,,,,,,,,,,,,,,,,,,,,,,,,10,antar,,,,,486.5045,487.7365,0,1,0.6731,,0,82,82,9,1,REAL,FAKE,,,,,,,,,,,,,,,,,
,,,,,,,,,672bb5dadc26d7849dc27b55,Spanish,13 or older,"no, only English or Spanish",no,2025-08-12_14h24.35.699,empathy_intonation_perc_control,2024.2.4,MacIntel,60.0024001,672bb5dadc26d7849dc27b55,68817205a84113384fffdfe3,689b867f36b9dec7ec09fc2f,,,,,,,,,,,,,0,,,,,,,,,,,,,,,,,,,,,,,,,,,,,,,,,,,,,29,decar,,,,,487.7382,489.0015,1,0,0.7172,,0,83,83,28,1,REAL,FAKE,,,,,,,,,,,,,,,,,
,,,,,,,,,672bb5dadc26d7849dc27b55,Spanish,13 or older,"no, only English or Spanish",no,2025-08-12_14h24.35.699,empathy_intonation_perc_control,2024.2.4,MacIntel,60.0024001,672bb5dadc26d7849dc27b55,68817205a84113384fffdfe3,689b867f36b9dec7ec09fc2f,,,,,,,,,,,,,1,,,,,,,,,,,,,,,,,,,,,,,,,,,,,,,,,,,,,55,nevar,,,,,489.0025,490.4519,1,1,0.9213,,0,84,84,54,1,REAL,FAKE,,,,,,,,,,,,,,,,,
,,,,,,,,,672bb5dadc26d7849dc27b55,Spanish,13 or older,"no, only English or Spanish",no,2025-08-12_14h24.35.699,empathy_intonation_perc_control,2024.2.4,MacIntel,60.0024001,672bb5dadc26d7849dc27b55,68817205a84113384fffdfe3,689b867f36b9dec7ec09fc2f,,,,,,,,,,,,,1,,,,,,,,,,,,,,,,,,,,,,,,,,,,,,,,,,,,,40,alfombra,,,,,490.4526,491.5692,0,0,0.579,,0,85,85,39,1,REAL,FAKE,,,,,,,,,,,,,,,,,
,,,,,,,,,672bb5dadc26d7849dc27b55,Spanish,13 or older,"no, only English or Spanish",no,2025-08-12_14h24.35.699,empathy_intonation_perc_control,2024.2.4,MacIntel,60.0024001,672bb5dadc26d7849dc27b55,68817205a84113384fffdfe3,689b867f36b9dec7ec09fc2f,,,,,,,,,,,,,1,,,,,,,,,,,,,,,,,,,,,,,,,,,,,,,,,,,,,89,prisa,,,,,491.571,492.767,0,0,0.6523,,0,86,86,88,1,REAL,FAKE,,,,,,,,,,,,,,,,,
,,,,,,,,,672bb5dadc26d7849dc27b55,Spanish,13 or older,"no, only English or Spanish",no,2025-08-12_14h24.35.699,empathy_intonation_perc_control,2024.2.4,MacIntel,60.0024001,672bb5dadc26d7849dc27b55,68817205a84113384fffdfe3,689b867f36b9dec7ec09fc2f,,,,,,,,,,,,,0,,,,,,,,,,,,,,,,,,,,,,,,,,,,,,,,,,,,,47,cartinar,,,,,492.7681,493.9674,0,1,0.6866,,0,87,87,46,1,REAL,FAKE,,,,,,,,,,,,,,,,,
,,,,,,,,,672bb5dadc26d7849dc27b55,Spanish,13 or older,"no, only English or Spanish",no,2025-08-12_14h24.35.699,empathy_intonation_perc_control,2024.2.4,MacIntel,60.0024001,672bb5dadc26d7849dc27b55,68817205a84113384fffdfe3,689b867f36b9dec7ec09fc2f,,,,,,,,,,,,,1,,,,,,,,,,,,,,,,,,,,,,,,,,,,,,,,,,,,,39,torpe,,,,,493.9682,495.1674,0,0,0.6582,,0,88,88,38,1,REAL,FAKE,,,,,,,,,,,,,,,,,
,,,,,,,,,672bb5dadc26d7849dc27b55,Spanish,13 or older,"no, only English or Spanish",no,2025-08-12_14h24.35.699,empathy_intonation_perc_control,2024.2.4,MacIntel,60.0024001,672bb5dadc26d7849dc27b55,68817205a84113384fffdfe3,689b867f36b9dec7ec09fc2f,,,,,,,,,,,,,1,,,,,,,,,,,,,,,,,,,,,,,,,,,,,,,,,,,,,52,camisa,,,,,495.1682,496.6032,0,0,0.9051,,0,89,89,51,1,REAL,FAKE,,,,,,,,,,,,,,,,,
,,,,,,,,,672bb5dadc26d7849dc27b55,Spanish,13 or older,"no, only English or Spanish",no,2025-08-12_14h24.35.699,empathy_intonation_perc_control,2024.2.4,MacIntel,60.0024001,672bb5dadc26d7849dc27b55,68817205a84113384fffdfe3,689b867f36b9dec7ec09fc2f,,,,,,,,,,,,,0,,,,,,,,,,,,,,,,,,,,,,,,,,,,,,,,,,,,,79,tropaje,,,,,496.6043,497.601,0,1,0.4642,,0,90,90,78,1,REAL,FAKE,,,,,,,,,,,,,,,,,
,,,,,,,,,672bb5dadc26d7849dc27b55,Spanish,13 or older,"no, only English or Spanish",no,2025-08-12_14h24.35.699,empathy_intonation_perc_control,2024.2.4,MacIntel,60.0024001,672bb5dadc26d7849dc27b55,68817205a84113384fffdfe3,689b867f36b9dec7ec09fc2f,,,,,,,,,,,,,1,,,,,,,,,,,,,,,,,,,,,,,,,,,,,,,,,,,,,75,yacer,,,,,497.602,498.668,0,0,0.5531,,0,91,91,74,1,REAL,FAKE,,,,,,,,,,,,,,,,,
,,,,,,,,,672bb5dadc26d7849dc27b55,Spanish,13 or older,"no, only English or Spanish",no,2025-08-12_14h24.35.699,empathy_intonation_perc_control,2024.2.4,MacIntel,60.0024001,672bb5dadc26d7849dc27b55,68817205a84113384fffdfe3,689b867f36b9dec7ec09fc2f,,,,,,,,,,,,,,,,,,,,,,,,,,,,,,,,,,,,,,,,,,,,,,,,,,,,,,,,,,,,,,,,,,,,,498.6686,502.9032,,,,,,,,,,,,,,,
,,,,,,,,,672bb5dadc26d7849dc27b55,Spanish,13 or older,"no, only English or Spanish",no,2025-08-12_14h24.35.699,empathy_intonation_perc_control,2024.2.4,MacIntel,60.0024001,672bb5dadc26d7849dc27b55,68817205a84113384fffdfe3,689b867f36b9dec7ec09fc2f,,,,,,,,,,,,,,,,,,,,,,,,,,,1,,,,,,,,,,,,,,,,,,,,,,,,,,,,,,,,,,,,,,,,,,,,502.9112,506.0362,slightly agree,0,0,0,0,1,I can easily tell if someone else wants to enter a conversation.,1,0,1,0,,
,,,,,,,,,672bb5dadc26d7849dc27b55,Spanish,13 or older,"no, only English or Spanish",no,2025-08-12_14h24.35.699,empathy_intonation_perc_control,2024.2.4,MacIntel,60.0024001,672bb5dadc26d7849dc27b55,68817205a84113384fffdfe3,689b867f36b9dec7ec09fc2f,,,,,,,,,,,,,,,,,,,,,,,,,,,2,,,,,,,,,,,,,,,,,,,,,,,,,,,,,,,,,,,,,,,,,,,,506.0375,507.9685,slightly disagree,0,1,1,1,1,I prefer animals to humans.,0,1,0,0,,
,,,,,,,,,672bb5dadc26d7849dc27b55,Spanish,13 or older,"no, only English or Spanish",no,2025-08-12_14h24.35.699,empathy_intonation_perc_control,2024.2.4,MacIntel,60.0024001,672bb5dadc26d7849dc27b55,68817205a84113384fffdfe3,689b867f36b9dec7ec09fc2f,,,,,,,,,,,,,,,,,,,,,,,,,,,3,,,,,,,,,,,,,,,,,,,,,,,,,,,,,,,,,,,,,,,,,,,,507.9698,511.1342,slightly disagree,0,2,2,2,1,I try to keep up with the current trends and fashions.,0,1,0,0,,
,,,,,,,,,672bb5dadc26d7849dc27b55,Spanish,13 or older,"no, only English or Spanish",no,2025-08-12_14h24.35.699,empathy_intonation_perc_control,2024.2.4,MacIntel,60.0024001,672bb5dadc26d7849dc27b55,68817205a84113384fffdfe3,689b867f36b9dec7ec09fc2f,,,,,,,,,,,,,,,,,,,,,,,,,,,4,,,,,,,,,,,,,,,,,,,,,,,,,,,,,,,,,,,,,,,,,,,,511.1365,523.6509,slightly agree,0,3,3,3,1,"I find it difficult to explain to others things that I understand easily,   when they don't understand it first time.",1,0,0,1,,
,,,,,,,,,672bb5dadc26d7849dc27b55,Spanish,13 or older,"no, only English or Spanish",no,2025-08-12_14h24.35.699,empathy_intonation_perc_control,2024.2.4,MacIntel,60.0024001,672bb5dadc26d7849dc27b55,68817205a84113384fffdfe3,689b867f36b9dec7ec09fc2f,,,,,,,,,,,,,,,,,,,,,,,,,,,5,,,,,,,,,,,,,,,,,,,,,,,,,,,,,,,,,,,,,,,,,,,,523.6521,526.1501,slightly agree,0,4,4,4,1,I dream most nights.,0,1,0,0,,
,,,,,,,,,672bb5dadc26d7849dc27b55,Spanish,13 or older,"no, only English or Spanish",no,2025-08-12_14h24.35.699,empathy_intonation_perc_control,2024.2.4,MacIntel,60.0024001,672bb5dadc26d7849dc27b55,68817205a84113384fffdfe3,689b867f36b9dec7ec09fc2f,,,,,,,,,,,,,,,,,,,,,,,,,,,6,,,,,,,,,,,,,,,,,,,,,,,,,,,,,,,,,,,,,,,,,,,,526.1513,528.1534,slightly agree,0,5,5,5,1,I really enjoy caring for other people.,1,0,1,0,,
,,,,,,,,,672bb5dadc26d7849dc27b55,Spanish,13 or older,"no, only English or Spanish",no,2025-08-12_14h24.35.699,empathy_intonation_perc_control,2024.2.4,MacIntel,60.0024001,672bb5dadc26d7849dc27b55,68817205a84113384fffdfe3,689b867f36b9dec7ec09fc2f,,,,,,,,,,,,,,,,,,,,,,,,,,,7,,,,,,,,,,,,,,,,,,,,,,,,,,,,,,,,,,,,,,,,,,,,528.156,530.484,slightly agree,0,6,6,6,1,I try to solve my own problems rather than discussing them with others.,0,1,0,0,,
,,,,,,,,,672bb5dadc26d7849dc27b55,Spanish,13 or older,"no, only English or Spanish",no,2025-08-12_14h24.35.699,empathy_intonation_perc_control,2024.2.4,MacIntel,60.0024001,672bb5dadc26d7849dc27b55,68817205a84113384fffdfe3,689b867f36b9dec7ec09fc2f,,,,,,,,,,,,,,,,,,,,,,,,,,,8,,,,,,,,,,,,,,,,,,,,,,,,,,,,,,,,,,,,,,,,,,,,530.4855,532.7844,slightly disagree,0,7,7,7,1,I find it hard to know what to do in a social situation.,1,0,0,1,,
,,,,,,,,,672bb5dadc26d7849dc27b55,Spanish,13 or older,"no, only English or Spanish",no,2025-08-12_14h24.35.699,empathy_intonation_perc_control,2024.2.4,MacIntel,60.0024001,672bb5dadc26d7849dc27b55,68817205a84113384fffdfe3,689b867f36b9dec7ec09fc2f,,,,,,,,,,,,,,,,,,,,,,,,,,,9,,,,,,,,,,,,,,,,,,,,,,,,,,,,,,,,,,,,,,,,,,,,532.786,534.6023,slightly disagree,0,8,8,8,1,I am at my best first thing in the morning.,0,1,0,0,,
,,,,,,,,,672bb5dadc26d7849dc27b55,Spanish,13 or older,"no, only English or Spanish",no,2025-08-12_14h24.35.699,empathy_intonation_perc_control,2024.2.4,MacIntel,60.0024001,672bb5dadc26d7849dc27b55,68817205a84113384fffdfe3,689b867f36b9dec7ec09fc2f,,,,,,,,,,,,,,,,,,,,,,,,,,,10,,,,,,,,,,,,,,,,,,,,,,,,,,,,,,,,,,,,,,,,,,,,534.6037,539.3345,slightly disagree,0,9,9,9,1,People often tell me that I went too far in driving my point home in a discussion.,1,0,0,1,,
,,,,,,,,,672bb5dadc26d7849dc27b55,Spanish,13 or older,"no, only English or Spanish",no,2025-08-12_14h24.35.699,empathy_intonation_perc_control,2024.2.4,MacIntel,60.0024001,672bb5dadc26d7849dc27b55,68817205a84113384fffdfe3,689b867f36b9dec7ec09fc2f,,,,,,,,,,,,,,,,,,,,,,,,,,,11,,,,,,,,,,,,,,,,,,,,,,,,,,,,,,,,,,,,,,,,,,,,539.3361,543.6662,slightly disagree,0,10,10,10,1,It doesn't bother me too much if I am late meeting a friend.,1,0,0,1,,
,,,,,,,,,672bb5dadc26d7849dc27b55,Spanish,13 or older,"no, only English or Spanish",no,2025-08-12_14h24.35.699,empathy_intonation_perc_control,2024.2.4,MacIntel,60.0024001,672bb5dadc26d7849dc27b55,68817205a84113384fffdfe3,689b867f36b9dec7ec09fc2f,,,,,,,,,,,,,,,,,,,,,,,,,,,12,,,,,,,,,,,,,,,,,,,,,,,,,,,,,,,,,,,,,,,,,,,,543.6673,546.3348,strongly disagree,0,11,11,11,1,"Friendships and relationships are just too difficult, so I tend not to 
  bother with them.",1,0,0,1,,
,,,,,,,,,672bb5dadc26d7849dc27b55,Spanish,13 or older,"no, only English or Spanish",no,2025-08-12_14h24.35.699,empathy_intonation_perc_control,2024.2.4,MacIntel,60.0024001,672bb5dadc26d7849dc27b55,68817205a84113384fffdfe3,689b867f36b9dec7ec09fc2f,,,,,,,,,,,,,,,,,,,,,,,,,,,13,,,,,,,,,,,,,,,,,,,,,,,,,,,,,,,,,,,,,,,,,,,,546.3376,549.1676,slightly agree,0,12,12,12,1,"I would never break a law, no matter how minor.",0,1,0,0,,
,,,,,,,,,672bb5dadc26d7849dc27b55,Spanish,13 or older,"no, only English or Spanish",no,2025-08-12_14h24.35.699,empathy_intonation_perc_control,2024.2.4,MacIntel,60.0024001,672bb5dadc26d7849dc27b55,68817205a84113384fffdfe3,689b867f36b9dec7ec09fc2f,,,,,,,,,,,,,,,,,,,,,,,,,,,14,,,,,,,,,,,,,,,,,,,,,,,,,,,,,,,,,,,,,,,,,,,,549.1707,552.1675,strongly disagree,0,13,13,13,1,I often find it difficult to judge if something is rude or polite.,1,0,0,1,,
,,,,,,,,,672bb5dadc26d7849dc27b55,Spanish,13 or older,"no, only English or Spanish",no,2025-08-12_14h24.35.699,empathy_intonation_perc_control,2024.2.4,MacIntel,60.0024001,672bb5dadc26d7849dc27b55,68817205a84113384fffdfe3,689b867f36b9dec7ec09fc2f,,,,,,,,,,,,,,,,,,,,,,,,,,,15,,,,,,,,,,,,,,,,,,,,,,,,,,,,,,,,,,,,,,,,,,,,552.1692,555.567,strongly disagree,0,14,14,14,1,"In a conversation, I tend to focus on my own thoughts rather than on what 
  my listener might be thinking.",1,0,0,1,,
,,,,,,,,,672bb5dadc26d7849dc27b55,Spanish,13 or older,"no, only English or Spanish",no,2025-08-12_14h24.35.699,empathy_intonation_perc_control,2024.2.4,MacIntel,60.0024001,672bb5dadc26d7849dc27b55,68817205a84113384fffdfe3,689b867f36b9dec7ec09fc2f,,,,,,,,,,,,,,,,,,,,,,,,,,,16,,,,,,,,,,,,,,,,,,,,,,,,,,,,,,,,,,,,,,,,,,,,555.5682,561.2664,strongly disagree,0,15,15,15,1,I prefer practical jokes to verbal humor.,0,1,0,0,,
,,,,,,,,,672bb5dadc26d7849dc27b55,Spanish,13 or older,"no, only English or Spanish",no,2025-08-12_14h24.35.699,empathy_intonation_perc_control,2024.2.4,MacIntel,60.0024001,672bb5dadc26d7849dc27b55,68817205a84113384fffdfe3,689b867f36b9dec7ec09fc2f,,,,,,,,,,,,,,,,,,,,,,,,,,,17,,,,,,,,,,,,,,,,,,,,,,,,,,,,,,,,,,,,,,,,,,,,561.2675,563.5205,slightly agree,0,16,16,16,1,I live life for today rather than the future.,0,1,0,0,,
,,,,,,,,,672bb5dadc26d7849dc27b55,Spanish,13 or older,"no, only English or Spanish",no,2025-08-12_14h24.35.699,empathy_intonation_perc_control,2024.2.4,MacIntel,60.0024001,672bb5dadc26d7849dc27b55,68817205a84113384fffdfe3,689b867f36b9dec7ec09fc2f,,,,,,,,,,,,,,,,,,,,,,,,,,,18,,,,,,,,,,,,,,,,,,,,,,,,,,,,,,,,,,,,,,,,,,,,563.5219,566.3019,strongly disagree,0,17,17,17,1,"When I was a child, I enjoyed cutting up worms to see what would happen.",1,0,0,1,,
,,,,,,,,,672bb5dadc26d7849dc27b55,Spanish,13 or older,"no, only English or Spanish",no,2025-08-12_14h24.35.699,empathy_intonation_perc_control,2024.2.4,MacIntel,60.0024001,672bb5dadc26d7849dc27b55,68817205a84113384fffdfe3,689b867f36b9dec7ec09fc2f,,,,,,,,,,,,,,,,,,,,,,,,,,,19,,,,,,,,,,,,,,,,,,,,,,,,,,,,,,,,,,,,,,,,,,,,566.3033,570.2339,slightly agree,0,18,18,18,1,I can pick up quickly if someone says one thing but means another.,1,0,1,0,,
,,,,,,,,,672bb5dadc26d7849dc27b55,Spanish,13 or older,"no, only English or Spanish",no,2025-08-12_14h24.35.699,empathy_intonation_perc_control,2024.2.4,MacIntel,60.0024001,672bb5dadc26d7849dc27b55,68817205a84113384fffdfe3,689b867f36b9dec7ec09fc2f,,,,,,,,,,,,,,,,,,,,,,,,,,,20,,,,,,,,,,,,,,,,,,,,,,,,,,,,,,,,,,,,,,,,,,,,570.236,573.6662,slightly disagree,0,19,19,19,1,I tend to have very strong opinions about morality.,0,1,0,0,,
,,,,,,,,,672bb5dadc26d7849dc27b55,Spanish,13 or older,"no, only English or Spanish",no,2025-08-12_14h24.35.699,empathy_intonation_perc_control,2024.2.4,MacIntel,60.0024001,672bb5dadc26d7849dc27b55,68817205a84113384fffdfe3,689b867f36b9dec7ec09fc2f,,,,,,,,,,,,,,,,,,,,,,,,,,,21,,,,,,,,,,,,,,,,,,,,,,,,,,,,,,,,,,,,,,,,,,,,573.6675,575.9692,slightly disagree,0,20,20,20,1,It is hard for me to see why some things upset people so much.,1,0,0,1,,
,,,,,,,,,672bb5dadc26d7849dc27b55,Spanish,13 or older,"no, only English or Spanish",no,2025-08-12_14h24.35.699,empathy_intonation_perc_control,2024.2.4,MacIntel,60.0024001,672bb5dadc26d7849dc27b55,68817205a84113384fffdfe3,689b867f36b9dec7ec09fc2f,,,,,,,,,,,,,,,,,,,,,,,,,,,22,,,,,,,,,,,,,,,,,,,,,,,,,,,,,,,,,,,,,,,,,,,,575.9707,577.8333,slightly agree,0,21,21,21,1,I find it easy to put myself in somebody else's shoes.,1,0,1,0,,
,,,,,,,,,672bb5dadc26d7849dc27b55,Spanish,13 or older,"no, only English or Spanish",no,2025-08-12_14h24.35.699,empathy_intonation_perc_control,2024.2.4,MacIntel,60.0024001,672bb5dadc26d7849dc27b55,68817205a84113384fffdfe3,689b867f36b9dec7ec09fc2f,,,,,,,,,,,,,,,,,,,,,,,,,,,23,,,,,,,,,,,,,,,,,,,,,,,,,,,,,,,,,,,,,,,,,,,,577.8348,580.1852,slightly agree,0,22,22,22,1,I think that good manners are the most important thing a parent can teach their child.,0,1,0,0,,
,,,,,,,,,672bb5dadc26d7849dc27b55,Spanish,13 or older,"no, only English or Spanish",no,2025-08-12_14h24.35.699,empathy_intonation_perc_control,2024.2.4,MacIntel,60.0024001,672bb5dadc26d7849dc27b55,68817205a84113384fffdfe3,689b867f36b9dec7ec09fc2f,,,,,,,,,,,,,,,,,,,,,,,,,,,24,,,,,,,,,,,,,,,,,,,,,,,,,,,,,,,,,,,,,,,,,,,,580.1865,582.35,slightly disagree,0,23,23,23,1,I like to do things on the spur of the moment.,0,1,0,0,,
