instructions_2afc.started,instructions_2afc.stopped,instructions_2afc_loop.thisRepN,instructions_2afc_loop.thisTrialN,instructions_2afc_loop.thisN,instructions_2afc_loop.thisIndex,instructions_2afc_loop.ran,instructions_text,continue_text,participant_id,"What variety of Spanish are you most familiar with? (e.g., Peruvian, Spanish, Mexican)",At what age did you begin learning Spanish?,Are you proficient in any languages other than English/Spanish?,"Are you familiar with Caribbean (e.g., Caribbean, Puerto Rican) or Galician Spanish?",date,expName,psychopyVersion,OS,frameRate,id,study_id,session,practice_2afc.started,practice_2afc.stopped,key_resp_2afc_practice.keys,key_resp_2afc_practice.corr,key_resp_2afc_practice.rt,key_resp_2afc_practice.duration,trials_2afc_practice_loop.thisRepN,trials_2afc_practice_loop.thisTrialN,trials_2afc_practice_loop.thisN,trials_2afc_practice_loop.thisIndex,trials_2afc_practice_loop.ran,path,correct_response,check_2afc.started,check_2afc.stopped,trial_2afc.started,trial_2afc.stopped,key_resp_2afc_trial.keys,key_resp_2afc_trial.corr,key_resp_2afc_trial.rt,key_resp_2afc_trial.duration,trials_2afc_loop.thisRepN,trials_2afc_loop.thisTrialN,trials_2afc_loop.thisN,trials_2afc_loop.thisIndex,trials_2afc_loop.ran,item_num,target,variety,instructions_lextale.started,instructions_lextale.stopped,instructions_lextale_loop.thisRepN,instructions_lextale_loop.thisTrialN,instructions_lextale_loop.thisN,instructions_lextale_loop.thisIndex,instructions_lextale_loop.ran,practice_lextale.started,practice_lextale.stopped,key_resp_lextale_practice.keys,key_resp_lextale_practice.corr,key_resp_lextale_practice.rt,key_resp_lextale_practice.duration,practice_feedback_lextale.started,practice_feedback_lextale.stopped,trials_lextale_practice_loop.thisRepN,trials_lextale_practice_loop.thisTrialN,trials_lextale_practice_loop.thisN,trials_lextale_practice_loop.thisIndex,trials_lextale_practice_loop.ran,stim,word,prac_button_real,prac_button_false,check_lextale.started,check_lextale.stopped,trial_lextale.started,trial_lextale.stopped,key_resp_lextale_trial.keys,key_resp_lextale_trial.corr,key_resp_lextale_trial.rt,key_resp_lextale_trial.duration,trials_lextale_loop.thisRepN,trials_lextale_loop.thisTrialN,trials_lextale_loop.thisN,trials_lextale_loop.thisIndex,trials_lextale_loop.ran,button_real,button_false,instructions_eq.started,instructions_eq.stopped,trial_eq.started,trial_eq.stopped,slider_eq_trial.response,trials_eq_loop.thisRepN,trials_eq_loop.thisTrialN,trials_eq_loop.thisN,trials_eq_loop.thisIndex,trials_eq_loop.ran,item,is_test_item,is_distractor,is_agree_score,is_disagree_score,end_exp.started,end_exp.stopped
0.0148,6.9151,0,0,0,0,1,"In the following task you are going to hear a series of utterances. 

  You will decide if the utterances sound like questions or not using your keyboard.", (press the spacebar to continue),672e1c2422a33b09d7be4701,Spanish,13 or older,"no, only English or Spanish",no,2025-07-24_09h08.17.155,empathy_intonation_perc_control,2024.2.4,Win32,60.97560976,672e1c2422a33b09d7be4701,68817205a84113384fffdfe3,6882300ccade961f6ccf8bfd,,,,,,,,,,,,,,,,,,,,,,,,,,,,,,,,,,,,,,,,,,,,,,,,,,,,,,,,,,,,,,,,,,,,,,,,,,,,,,,,,,,,,
6.9179,13.4824,0,1,1,1,1,"If you believe the utterance is a question, type '1' (for 'yes') and if you do not 
  believe it is a question type '0' (for 'no').

  Let's practice a bit...", (press the spacebar to continue),672e1c2422a33b09d7be4701,Spanish,13 or older,"no, only English or Spanish",no,2025-07-24_09h08.17.155,empathy_intonation_perc_control,2024.2.4,Win32,60.97560976,672e1c2422a33b09d7be4701,68817205a84113384fffdfe3,6882300ccade961f6ccf8bfd,,,,,,,,,,,,,,,,,,,,,,,,,,,,,,,,,,,,,,,,,,,,,,,,,,,,,,,,,,,,,,,,,,,,,,,,,,,,,,,,,,,,,
,,,,,,,,,672e1c2422a33b09d7be4701,Spanish,13 or older,"no, only English or Spanish",no,2025-07-24_09h08.17.155,empathy_intonation_perc_control,2024.2.4,Win32,60.97560976,672e1c2422a33b09d7be4701,68817205a84113384fffdfe3,6882300ccade961f6ccf8bfd,13.4923,17.5977,0,0,3.5888,,0,0,0,2,1,./stim/wavs/chilean_question_filler_Mi-padre-cantaba-bien.wav,1,,,,,,,,,,,,,,,,,,,,,,,,,,,,,,,,,,,,,,,,,,,,,,,,,,,,,,,,,,,,,,,,,,,,,,,,
,,,,,,,,,672e1c2422a33b09d7be4701,Spanish,13 or older,"no, only English or Spanish",no,2025-07-24_09h08.17.155,empathy_intonation_perc_control,2024.2.4,Win32,60.97560976,672e1c2422a33b09d7be4701,68817205a84113384fffdfe3,6882300ccade961f6ccf8bfd,17.5992,20.4305,0,1,2.3032,,0,1,1,6,1,./stim/wavs/peruvian_statement_filler_El-nino-habla-con-su-madre.wav,0,,,,,,,,,,,,,,,,,,,,,,,,,,,,,,,,,,,,,,,,,,,,,,,,,,,,,,,,,,,,,,,,,,,,,,,,
,,,,,,,,,672e1c2422a33b09d7be4701,Spanish,13 or older,"no, only English or Spanish",no,2025-07-24_09h08.17.155,empathy_intonation_perc_control,2024.2.4,Win32,60.97560976,672e1c2422a33b09d7be4701,68817205a84113384fffdfe3,6882300ccade961f6ccf8bfd,20.4312,23.0636,1,1,2.1129,,0,2,2,1,1,./stim/wavs/argentine_question_filler_Mi-vecino-habla-mucho.wav,1,,,,,,,,,,,,,,,,,,,,,,,,,,,,,,,,,,,,,,,,,,,,,,,,,,,,,,,,,,,,,,,,,,,,,,,,
,,,,,,,,,672e1c2422a33b09d7be4701,Spanish,13 or older,"no, only English or Spanish",no,2025-07-24_09h08.17.155,empathy_intonation_perc_control,2024.2.4,Win32,60.97560976,672e1c2422a33b09d7be4701,68817205a84113384fffdfe3,6882300ccade961f6ccf8bfd,23.0642,25.6139,0,1,2.0298,,0,3,3,5,1,./stim/wavs/andalusian_statement_filler_Alberto-nunca-se-afeita.wav,0,,,,,,,,,,,,,,,,,,,,,,,,,,,,,,,,,,,,,,,,,,,,,,,,,,,,,,,,,,,,,,,,,,,,,,,,
,,,,,,,,,672e1c2422a33b09d7be4701,Spanish,13 or older,"no, only English or Spanish",no,2025-07-24_09h08.17.155,empathy_intonation_perc_control,2024.2.4,Win32,60.97560976,672e1c2422a33b09d7be4701,68817205a84113384fffdfe3,6882300ccade961f6ccf8bfd,25.6149,28.0969,0,0,1.9504,,0,4,4,3,1,./stim/wavs/mexican_question_filler_Felipe-no-tiene-contrasena.wav,1,,,,,,,,,,,,,,,,,,,,,,,,,,,,,,,,,,,,,,,,,,,,,,,,,,,,,,,,,,,,,,,,,,,,,,,,
,,,,,,,,,672e1c2422a33b09d7be4701,Spanish,13 or older,"no, only English or Spanish",no,2025-07-24_09h08.17.155,empathy_intonation_perc_control,2024.2.4,Win32,60.97560976,672e1c2422a33b09d7be4701,68817205a84113384fffdfe3,6882300ccade961f6ccf8bfd,28.0975,30.7133,0,1,2.0924,,0,5,5,4,1,./stim/wavs/cuban_statement_filler_Cocinabas-por-la-noche.wav,0,,,,,,,,,,,,,,,,,,,,,,,,,,,,,,,,,,,,,,,,,,,,,,,,,,,,,,,,,,,,,,,,,,,,,,,,
,,,,,,,,,672e1c2422a33b09d7be4701,Spanish,13 or older,"no, only English or Spanish",no,2025-07-24_09h08.17.155,empathy_intonation_perc_control,2024.2.4,Win32,60.97560976,672e1c2422a33b09d7be4701,68817205a84113384fffdfe3,6882300ccade961f6ccf8bfd,30.714,33.6296,0,1,2.3949,,0,6,6,7,1,./stim/wavs/puertorican_statement_filler_La-nina-pinta-con-su-amiga.wav,0,,,,,,,,,,,,,,,,,,,,,,,,,,,,,,,,,,,,,,,,,,,,,,,,,,,,,,,,,,,,,,,,,,,,,,,,
,,,,,,,,,672e1c2422a33b09d7be4701,Spanish,13 or older,"no, only English or Spanish",no,2025-07-24_09h08.17.155,empathy_intonation_perc_control,2024.2.4,Win32,60.97560976,672e1c2422a33b09d7be4701,68817205a84113384fffdfe3,6882300ccade961f6ccf8bfd,33.6302,36.646,1,1,2.4839,,0,7,7,0,1,./stim/wavs/castilian_question_filler_Mi-esposo-conoce-al-chico.wav,1,,,,,,,,,,,,,,,,,,,,,,,,,,,,,,,,,,,,,,,,,,,,,,,,,,,,,,,,,,,,,,,,,,,,,,,,
,,,,,,,,,672e1c2422a33b09d7be4701,Spanish,13 or older,"no, only English or Spanish",no,2025-07-24_09h08.17.155,empathy_intonation_perc_control,2024.2.4,Win32,60.97560976,672e1c2422a33b09d7be4701,68817205a84113384fffdfe3,6882300ccade961f6ccf8bfd,,,,,,,,,,,,,,36.6465,40.0801,,,,,,,,,,,,,,,,,,,,,,,,,,,,,,,,,,,,,,,,,,,,,,,,,,,,,,,,,,,,,,,,,,,,,,
,,,,,,,,,672e1c2422a33b09d7be4701,Spanish,13 or older,"no, only English or Spanish",no,2025-07-24_09h08.17.155,empathy_intonation_perc_control,2024.2.4,Win32,60.97560976,672e1c2422a33b09d7be4701,68817205a84113384fffdfe3,6882300ccade961f6ccf8bfd,,,,,,,,,,,,./stim/wavs/cuban_match_interrogative-total-yn_Maria-bebe-el-vino.wav,1,,,40.089,43.0292,0,0,2.421,,0,0,0,9,1,10,1,cuban,,,,,,,,,,,,,,,,,,,,,,,,,,,,,,,,,,,,,,,,,,,,,,,,,,,,,,,,
,,,,,,,,,672e1c2422a33b09d7be4701,Spanish,13 or older,"no, only English or Spanish",no,2025-07-24_09h08.17.155,empathy_intonation_perc_control,2024.2.4,Win32,60.97560976,672e1c2422a33b09d7be4701,68817205a84113384fffdfe3,6882300ccade961f6ccf8bfd,,,,,,,,,,,,./stim/wavs/puertorican_match_interrogative-total-yn_Daniel-iba-a-Bolivia.wav,1,,,43.03,45.2988,0,0,1.7507,,0,1,1,19,1,20,1,puertorican,,,,,,,,,,,,,,,,,,,,,,,,,,,,,,,,,,,,,,,,,,,,,,,,,,,,,,,,
,,,,,,,,,672e1c2422a33b09d7be4701,Spanish,13 or older,"no, only English or Spanish",no,2025-07-24_09h08.17.155,empathy_intonation_perc_control,2024.2.4,Win32,60.97560976,672e1c2422a33b09d7be4701,68817205a84113384fffdfe3,6882300ccade961f6ccf8bfd,,,,,,,,,,,,./stim/wavs/puertorican_mismatch_interrogative-total-yn_El-nino-oye-el-rio.wav,1,,,45.2994,48.2995,1,1,2.4669,,0,2,2,40,1,41,1,puertorican,,,,,,,,,,,,,,,,,,,,,,,,,,,,,,,,,,,,,,,,,,,,,,,,,,,,,,,,
,,,,,,,,,672e1c2422a33b09d7be4701,Spanish,13 or older,"no, only English or Spanish",no,2025-07-24_09h08.17.155,empathy_intonation_perc_control,2024.2.4,Win32,60.97560976,672e1c2422a33b09d7be4701,68817205a84113384fffdfe3,6882300ccade961f6ccf8bfd,,,,,,,,,,,,./stim/wavs/castilian_mismatch_declarative-broad-focus_El-nino-oye-el-rio.wav,0,,,48.3001,50.9625,0,1,2.1462,,0,3,3,68,1,69,0,castilian,,,,,,,,,,,,,,,,,,,,,,,,,,,,,,,,,,,,,,,,,,,,,,,,,,,,,,,,
,,,,,,,,,672e1c2422a33b09d7be4701,Spanish,13 or older,"no, only English or Spanish",no,2025-07-24_09h08.17.155,empathy_intonation_perc_control,2024.2.4,Win32,60.97560976,672e1c2422a33b09d7be4701,68817205a84113384fffdfe3,6882300ccade961f6ccf8bfd,,,,,,,,,,,,./stim/wavs/puertorican_mismatch_interrogative-total-yn_La-nina-lava-el-plato.wav,1,,,50.9631,54.0787,0,0,2.5832,,0,4,4,42,1,43,1,puertorican,,,,,,,,,,,,,,,,,,,,,,,,,,,,,,,,,,,,,,,,,,,,,,,,,,,,,,,,
,,,,,,,,,672e1c2422a33b09d7be4701,Spanish,13 or older,"no, only English or Spanish",no,2025-07-24_09h08.17.155,empathy_intonation_perc_control,2024.2.4,Win32,60.97560976,672e1c2422a33b09d7be4701,68817205a84113384fffdfe3,6882300ccade961f6ccf8bfd,,,,,,,,,,,,./stim/wavs/puertorican_match_declarative-broad-focus_Ana-lleva-el-abrigo.wav,0,,,54.0794,56.0478,0,1,1.4635,,0,5,5,62,1,63,0,puertorican,,,,,,,,,,,,,,,,,,,,,,,,,,,,,,,,,,,,,,,,,,,,,,,,,,,,,,,,
,,,,,,,,,672e1c2422a33b09d7be4701,Spanish,13 or older,"no, only English or Spanish",no,2025-07-24_09h08.17.155,empathy_intonation_perc_control,2024.2.4,Win32,60.97560976,672e1c2422a33b09d7be4701,68817205a84113384fffdfe3,6882300ccade961f6ccf8bfd,,,,,,,,,,,,./stim/wavs/puertorican_mismatch_interrogative-total-yn_El-hombre-mira-la-luna.wav,1,,,56.0484,58.3288,1,1,1.7548,,0,6,6,39,1,40,1,puertorican,,,,,,,,,,,,,,,,,,,,,,,,,,,,,,,,,,,,,,,,,,,,,,,,,,,,,,,,
,,,,,,,,,672e1c2422a33b09d7be4701,Spanish,13 or older,"no, only English or Spanish",no,2025-07-24_09h08.17.155,empathy_intonation_perc_control,2024.2.4,Win32,60.97560976,672e1c2422a33b09d7be4701,68817205a84113384fffdfe3,6882300ccade961f6ccf8bfd,,,,,,,,,,,,./stim/wavs/puertorican_mismatch_declarative-broad-focus_El-bebe-comia-muy-bien.wav,0,,,58.3296,60.7318,0,1,1.8977,,0,7,7,83,1,84,0,puertorican,,,,,,,,,,,,,,,,,,,,,,,,,,,,,,,,,,,,,,,,,,,,,,,,,,,,,,,,
,,,,,,,,,672e1c2422a33b09d7be4701,Spanish,13 or older,"no, only English or Spanish",no,2025-07-24_09h08.17.155,empathy_intonation_perc_control,2024.2.4,Win32,60.97560976,672e1c2422a33b09d7be4701,68817205a84113384fffdfe3,6882300ccade961f6ccf8bfd,,,,,,,,,,,,./stim/wavs/castilian_match_declarative-broad-focus_Mariano-habla-del-tiempo.wav,0,,,60.7323,63.3478,0,1,2.0965,,0,8,8,48,1,49,0,castilian,,,,,,,,,,,,,,,,,,,,,,,,,,,,,,,,,,,,,,,,,,,,,,,,,,,,,,,,
,,,,,,,,,672e1c2422a33b09d7be4701,Spanish,13 or older,"no, only English or Spanish",no,2025-07-24_09h08.17.155,empathy_intonation_perc_control,2024.2.4,Win32,60.97560976,672e1c2422a33b09d7be4701,68817205a84113384fffdfe3,6882300ccade961f6ccf8bfd,,,,,,,,,,,,./stim/wavs/cuban_match_declarative-broad-focus_Manuela-vende-el-carro.wav,0,,,63.3484,65.9975,0,1,2.1298,,0,9,9,52,1,53,0,cuban,,,,,,,,,,,,,,,,,,,,,,,,,,,,,,,,,,,,,,,,,,,,,,,,,,,,,,,,
,,,,,,,,,672e1c2422a33b09d7be4701,Spanish,13 or older,"no, only English or Spanish",no,2025-07-24_09h08.17.155,empathy_intonation_perc_control,2024.2.4,Win32,60.97560976,672e1c2422a33b09d7be4701,68817205a84113384fffdfe3,6882300ccade961f6ccf8bfd,,,,,,,,,,,,./stim/wavs/mexican_match_interrogative-total-yn_Emilio-ama-la-marcha.wav,1,,,65.9981,68.681,1,1,2.1641,,0,10,10,15,1,16,0,mexican,,,,,,,,,,,,,,,,,,,,,,,,,,,,,,,,,,,,,,,,,,,,,,,,,,,,,,,,
,,,,,,,,,672e1c2422a33b09d7be4701,Spanish,13 or older,"no, only English or Spanish",no,2025-07-24_09h08.17.155,empathy_intonation_perc_control,2024.2.4,Win32,60.97560976,672e1c2422a33b09d7be4701,68817205a84113384fffdfe3,6882300ccade961f6ccf8bfd,,,,,,,,,,,,./stim/wavs/puertorican_mismatch_interrogative-total-yn_Mi-madre-come-la-fruta.wav,1,,,68.6815,71.2609,0,0,2.0554,,0,11,11,43,1,44,1,puertorican,,,,,,,,,,,,,,,,,,,,,,,,,,,,,,,,,,,,,,,,,,,,,,,,,,,,,,,,
,,,,,,,,,672e1c2422a33b09d7be4701,Spanish,13 or older,"no, only English or Spanish",no,2025-07-24_09h08.17.155,empathy_intonation_perc_control,2024.2.4,Win32,60.97560976,672e1c2422a33b09d7be4701,68817205a84113384fffdfe3,6882300ccade961f6ccf8bfd,,,,,,,,,,,,./stim/wavs/castilian_match_declarative-broad-focus_Emilio-ama-la-marcha.wav,0,,,71.2621,74.9947,0,1,3.1906,,0,12,12,45,1,46,0,castilian,,,,,,,,,,,,,,,,,,,,,,,,,,,,,,,,,,,,,,,,,,,,,,,,,,,,,,,,
,,,,,,,,,672e1c2422a33b09d7be4701,Spanish,13 or older,"no, only English or Spanish",no,2025-07-24_09h08.17.155,empathy_intonation_perc_control,2024.2.4,Win32,60.97560976,672e1c2422a33b09d7be4701,68817205a84113384fffdfe3,6882300ccade961f6ccf8bfd,,,,,,,,,,,,./stim/wavs/castilian_match_declarative-broad-focus_Marta-abre-el-regalo.wav,0,,,74.9957,77.5109,0,1,1.9914,,0,13,13,49,1,50,0,castilian,,,,,,,,,,,,,,,,,,,,,,,,,,,,,,,,,,,,,,,,,,,,,,,,,,,,,,,,
,,,,,,,,,672e1c2422a33b09d7be4701,Spanish,13 or older,"no, only English or Spanish",no,2025-07-24_09h08.17.155,empathy_intonation_perc_control,2024.2.4,Win32,60.97560976,672e1c2422a33b09d7be4701,68817205a84113384fffdfe3,6882300ccade961f6ccf8bfd,,,,,,,,,,,,./stim/wavs/castilian_mismatch_interrogative-total-yn_Mi-novio-viene-del-lago.wav,1,,,77.5117,80.6107,1,1,2.5755,,0,14,14,27,1,28,0,castilian,,,,,,,,,,,,,,,,,,,,,,,,,,,,,,,,,,,,,,,,,,,,,,,,,,,,,,,,
,,,,,,,,,672e1c2422a33b09d7be4701,Spanish,13 or older,"no, only English or Spanish",no,2025-07-24_09h08.17.155,empathy_intonation_perc_control,2024.2.4,Win32,60.97560976,672e1c2422a33b09d7be4701,68817205a84113384fffdfe3,6882300ccade961f6ccf8bfd,,,,,,,,,,,,./stim/wavs/mexican_match_declarative-broad-focus_Marta-abre-el-regalo.wav,0,,,80.6118,83.0106,0,1,1.8839,,0,15,15,61,1,62,0,mexican,,,,,,,,,,,,,,,,,,,,,,,,,,,,,,,,,,,,,,,,,,,,,,,,,,,,,,,,
,,,,,,,,,672e1c2422a33b09d7be4701,Spanish,13 or older,"no, only English or Spanish",no,2025-07-24_09h08.17.155,empathy_intonation_perc_control,2024.2.4,Win32,60.97560976,672e1c2422a33b09d7be4701,68817205a84113384fffdfe3,6882300ccade961f6ccf8bfd,,,,,,,,,,,,./stim/wavs/castilian_match_declarative-broad-focus_David-leia-el-libro.wav,0,,,83.0116,85.5134,0,1,1.9814,,0,16,16,44,1,45,0,castilian,,,,,,,,,,,,,,,,,,,,,,,,,,,,,,,,,,,,,,,,,,,,,,,,,,,,,,,,
,,,,,,,,,672e1c2422a33b09d7be4701,Spanish,13 or older,"no, only English or Spanish",no,2025-07-24_09h08.17.155,empathy_intonation_perc_control,2024.2.4,Win32,60.97560976,672e1c2422a33b09d7be4701,68817205a84113384fffdfe3,6882300ccade961f6ccf8bfd,,,,,,,,,,,,./stim/wavs/cuban_mismatch_declarative-broad-focus_La-nina-lava-el-plato.wav,0,,,85.514,87.6777,0,1,1.6283,,0,17,17,75,1,76,0,cuban,,,,,,,,,,,,,,,,,,,,,,,,,,,,,,,,,,,,,,,,,,,,,,,,,,,,,,,,
,,,,,,,,,672e1c2422a33b09d7be4701,Spanish,13 or older,"no, only English or Spanish",no,2025-07-24_09h08.17.155,empathy_intonation_perc_control,2024.2.4,Win32,60.97560976,672e1c2422a33b09d7be4701,68817205a84113384fffdfe3,6882300ccade961f6ccf8bfd,,,,,,,,,,,,./stim/wavs/puertorican_match_interrogative-total-yn_David-leia-el-libro.wav,1,,,87.6783,90.8601,0,0,2.6378,,0,18,18,20,1,21,1,puertorican,,,,,,,,,,,,,,,,,,,,,,,,,,,,,,,,,,,,,,,,,,,,,,,,,,,,,,,,
,,,,,,,,,672e1c2422a33b09d7be4701,Spanish,13 or older,"no, only English or Spanish",no,2025-07-24_09h08.17.155,empathy_intonation_perc_control,2024.2.4,Win32,60.97560976,672e1c2422a33b09d7be4701,68817205a84113384fffdfe3,6882300ccade961f6ccf8bfd,,,,,,,,,,,,./stim/wavs/castilian_match_declarative-broad-focus_Maria-bebe-el-vino.wav,0,,,90.8607,93.2258,0,1,1.8473,,0,19,19,47,1,48,0,castilian,,,,,,,,,,,,,,,,,,,,,,,,,,,,,,,,,,,,,,,,,,,,,,,,,,,,,,,,
,,,,,,,,,672e1c2422a33b09d7be4701,Spanish,13 or older,"no, only English or Spanish",no,2025-07-24_09h08.17.155,empathy_intonation_perc_control,2024.2.4,Win32,60.97560976,672e1c2422a33b09d7be4701,68817205a84113384fffdfe3,6882300ccade961f6ccf8bfd,,,,,,,,,,,,./stim/wavs/castilian_match_interrogative-total-yn_Emilio-ama-la-marcha.wav,1,,,93.2271,96.1256,1,1,2.3616,,0,20,20,1,1,2,0,castilian,,,,,,,,,,,,,,,,,,,,,,,,,,,,,,,,,,,,,,,,,,,,,,,,,,,,,,,,
,,,,,,,,,672e1c2422a33b09d7be4701,Spanish,13 or older,"no, only English or Spanish",no,2025-07-24_09h08.17.155,empathy_intonation_perc_control,2024.2.4,Win32,60.97560976,672e1c2422a33b09d7be4701,68817205a84113384fffdfe3,6882300ccade961f6ccf8bfd,,,,,,,,,,,,./stim/wavs/cuban_match_interrogative-total-yn_Mariano-habla-del-tiempo.wav,1,,,96.127,98.5595,0,0,1.9098,,0,21,21,10,1,11,1,cuban,,,,,,,,,,,,,,,,,,,,,,,,,,,,,,,,,,,,,,,,,,,,,,,,,,,,,,,,
,,,,,,,,,672e1c2422a33b09d7be4701,Spanish,13 or older,"no, only English or Spanish",no,2025-07-24_09h08.17.155,empathy_intonation_perc_control,2024.2.4,Win32,60.97560976,672e1c2422a33b09d7be4701,68817205a84113384fffdfe3,6882300ccade961f6ccf8bfd,,,,,,,,,,,,./stim/wavs/castilian_match_interrogative-total-yn_Manuela-vende-el-carro.wav,1,,,98.5605,101.1096,1,1,2.0113,,0,22,22,2,1,3,0,castilian,,,,,,,,,,,,,,,,,,,,,,,,,,,,,,,,,,,,,,,,,,,,,,,,,,,,,,,,
,,,,,,,,,672e1c2422a33b09d7be4701,Spanish,13 or older,"no, only English or Spanish",no,2025-07-24_09h08.17.155,empathy_intonation_perc_control,2024.2.4,Win32,60.97560976,672e1c2422a33b09d7be4701,68817205a84113384fffdfe3,6882300ccade961f6ccf8bfd,,,,,,,,,,,,./stim/wavs/castilian_match_interrogative-total-yn_Marta-abre-el-regalo.wav,1,,,101.1102,104.1759,1,1,2.5209,,0,23,23,5,1,6,0,castilian,,,,,,,,,,,,,,,,,,,,,,,,,,,,,,,,,,,,,,,,,,,,,,,,,,,,,,,,
,,,,,,,,,672e1c2422a33b09d7be4701,Spanish,13 or older,"no, only English or Spanish",no,2025-07-24_09h08.17.155,empathy_intonation_perc_control,2024.2.4,Win32,60.97560976,672e1c2422a33b09d7be4701,68817205a84113384fffdfe3,6882300ccade961f6ccf8bfd,,,,,,,,,,,,./stim/wavs/cuban_mismatch_interrogative-total-yn_El-hombre-mira-la-luna.wav,1,,,104.1768,106.2124,0,0,1.517,,0,24,24,29,1,30,1,cuban,,,,,,,,,,,,,,,,,,,,,,,,,,,,,,,,,,,,,,,,,,,,,,,,,,,,,,,,
,,,,,,,,,672e1c2422a33b09d7be4701,Spanish,13 or older,"no, only English or Spanish",no,2025-07-24_09h08.17.155,empathy_intonation_perc_control,2024.2.4,Win32,60.97560976,672e1c2422a33b09d7be4701,68817205a84113384fffdfe3,6882300ccade961f6ccf8bfd,,,,,,,,,,,,./stim/wavs/castilian_mismatch_declarative-broad-focus_Mi-tia-odia-la-lluvia.wav,0,,,106.2129,108.8091,0,1,2.0574,,0,25,25,72,1,73,0,castilian,,,,,,,,,,,,,,,,,,,,,,,,,,,,,,,,,,,,,,,,,,,,,,,,,,,,,,,,
,,,,,,,,,672e1c2422a33b09d7be4701,Spanish,13 or older,"no, only English or Spanish",no,2025-07-24_09h08.17.155,empathy_intonation_perc_control,2024.2.4,Win32,60.97560976,672e1c2422a33b09d7be4701,68817205a84113384fffdfe3,6882300ccade961f6ccf8bfd,,,,,,,,,,,,./stim/wavs/castilian_mismatch_interrogative-total-yn_La-nina-lava-el-plato.wav,1,,,108.8101,111.445,1,1,2.1306,,0,26,26,25,1,26,0,castilian,,,,,,,,,,,,,,,,,,,,,,,,,,,,,,,,,,,,,,,,,,,,,,,,,,,,,,,,
,,,,,,,,,672e1c2422a33b09d7be4701,Spanish,13 or older,"no, only English or Spanish",no,2025-07-24_09h08.17.155,empathy_intonation_perc_control,2024.2.4,Win32,60.97560976,672e1c2422a33b09d7be4701,68817205a84113384fffdfe3,6882300ccade961f6ccf8bfd,,,,,,,,,,,,./stim/wavs/castilian_mismatch_declarative-broad-focus_La-maestra-vive-en-Paris.wav,0,,,111.4455,114.6585,0,1,2.68,,0,27,27,69,1,70,0,castilian,,,,,,,,,,,,,,,,,,,,,,,,,,,,,,,,,,,,,,,,,,,,,,,,,,,,,,,,
,,,,,,,,,672e1c2422a33b09d7be4701,Spanish,13 or older,"no, only English or Spanish",no,2025-07-24_09h08.17.155,empathy_intonation_perc_control,2024.2.4,Win32,60.97560976,672e1c2422a33b09d7be4701,68817205a84113384fffdfe3,6882300ccade961f6ccf8bfd,,,,,,,,,,,,./stim/wavs/cuban_mismatch_interrogative-total-yn_Mi-novio-viene-del-lago.wav,1,,,114.6591,117.2741,0,0,2.0781,,0,28,28,32,1,33,1,cuban,,,,,,,,,,,,,,,,,,,,,,,,,,,,,,,,,,,,,,,,,,,,,,,,,,,,,,,,
,,,,,,,,,672e1c2422a33b09d7be4701,Spanish,13 or older,"no, only English or Spanish",no,2025-07-24_09h08.17.155,empathy_intonation_perc_control,2024.2.4,Win32,60.97560976,672e1c2422a33b09d7be4701,68817205a84113384fffdfe3,6882300ccade961f6ccf8bfd,,,,,,,,,,,,./stim/wavs/cuban_mismatch_declarative-broad-focus_El-hombre-mira-la-luna.wav,0,,,117.2756,119.3418,0,1,1.5344,,0,29,29,74,1,75,0,cuban,,,,,,,,,,,,,,,,,,,,,,,,,,,,,,,,,,,,,,,,,,,,,,,,,,,,,,,,
,,,,,,,,,672e1c2422a33b09d7be4701,Spanish,13 or older,"no, only English or Spanish",no,2025-07-24_09h08.17.155,empathy_intonation_perc_control,2024.2.4,Win32,60.97560976,672e1c2422a33b09d7be4701,68817205a84113384fffdfe3,6882300ccade961f6ccf8bfd,,,,,,,,,,,,./stim/wavs/puertorican_mismatch_declarative-broad-focus_La-maestra-vive-en-Paris.wav,0,,,119.3425,121.628,0,1,1.781,,0,30,30,86,1,87,0,puertorican,,,,,,,,,,,,,,,,,,,,,,,,,,,,,,,,,,,,,,,,,,,,,,,,,,,,,,,,
,,,,,,,,,672e1c2422a33b09d7be4701,Spanish,13 or older,"no, only English or Spanish",no,2025-07-24_09h08.17.155,empathy_intonation_perc_control,2024.2.4,Win32,60.97560976,672e1c2422a33b09d7be4701,68817205a84113384fffdfe3,6882300ccade961f6ccf8bfd,,,,,,,,,,,,./stim/wavs/mexican_mismatch_declarative-broad-focus_Mi-tia-odia-la-lluvia.wav,0,,,121.6285,124.2115,0,1,2.0507,,0,31,31,82,1,83,0,mexican,,,,,,,,,,,,,,,,,,,,,,,,,,,,,,,,,,,,,,,,,,,,,,,,,,,,,,,,
,,,,,,,,,672e1c2422a33b09d7be4701,Spanish,13 or older,"no, only English or Spanish",no,2025-07-24_09h08.17.155,empathy_intonation_perc_control,2024.2.4,Win32,60.97560976,672e1c2422a33b09d7be4701,68817205a84113384fffdfe3,6882300ccade961f6ccf8bfd,,,,,,,,,,,,./stim/wavs/puertorican_mismatch_declarative-broad-focus_La-nina-lava-el-plato.wav,0,,,124.2122,126.9268,0,1,2.1988,,0,32,32,87,1,88,0,puertorican,,,,,,,,,,,,,,,,,,,,,,,,,,,,,,,,,,,,,,,,,,,,,,,,,,,,,,,,
,,,,,,,,,672e1c2422a33b09d7be4701,Spanish,13 or older,"no, only English or Spanish",no,2025-07-24_09h08.17.155,empathy_intonation_perc_control,2024.2.4,Win32,60.97560976,672e1c2422a33b09d7be4701,68817205a84113384fffdfe3,6882300ccade961f6ccf8bfd,,,,,,,,,,,,./stim/wavs/puertorican_mismatch_declarative-broad-focus_El-hombre-mira-la-luna.wav,0,,,126.9275,128.9906,0,1,1.5598,,0,33,33,84,1,85,0,puertorican,,,,,,,,,,,,,,,,,,,,,,,,,,,,,,,,,,,,,,,,,,,,,,,,,,,,,,,,
,,,,,,,,,672e1c2422a33b09d7be4701,Spanish,13 or older,"no, only English or Spanish",no,2025-07-24_09h08.17.155,empathy_intonation_perc_control,2024.2.4,Win32,60.97560976,672e1c2422a33b09d7be4701,68817205a84113384fffdfe3,6882300ccade961f6ccf8bfd,,,,,,,,,,,,./stim/wavs/cuban_match_declarative-broad-focus_Daniel-iba-a-Bolivia.wav,0,,,128.9915,131.6578,0,1,2.1522,,0,34,34,51,1,52,0,cuban,,,,,,,,,,,,,,,,,,,,,,,,,,,,,,,,,,,,,,,,,,,,,,,,,,,,,,,,
,,,,,,,,,672e1c2422a33b09d7be4701,Spanish,13 or older,"no, only English or Spanish",no,2025-07-24_09h08.17.155,empathy_intonation_perc_control,2024.2.4,Win32,60.97560976,672e1c2422a33b09d7be4701,68817205a84113384fffdfe3,6882300ccade961f6ccf8bfd,,,,,,,,,,,,./stim/wavs/cuban_match_interrogative-total-yn_Manuela-vende-el-carro.wav,1,,,131.6589,133.9741,0,0,1.8038,,0,35,35,8,1,9,1,cuban,,,,,,,,,,,,,,,,,,,,,,,,,,,,,,,,,,,,,,,,,,,,,,,,,,,,,,,,
,,,,,,,,,672e1c2422a33b09d7be4701,Spanish,13 or older,"no, only English or Spanish",no,2025-07-24_09h08.17.155,empathy_intonation_perc_control,2024.2.4,Win32,60.97560976,672e1c2422a33b09d7be4701,68817205a84113384fffdfe3,6882300ccade961f6ccf8bfd,,,,,,,,,,,,./stim/wavs/castilian_mismatch_interrogative-total-yn_Mi-madre-come-la-fruta.wav,1,,,133.9749,139.2241,1,1,4.7255,,0,36,36,26,1,27,0,castilian,,,,,,,,,,,,,,,,,,,,,,,,,,,,,,,,,,,,,,,,,,,,,,,,,,,,,,,,
,,,,,,,,,672e1c2422a33b09d7be4701,Spanish,13 or older,"no, only English or Spanish",no,2025-07-24_09h08.17.155,empathy_intonation_perc_control,2024.2.4,Win32,60.97560976,672e1c2422a33b09d7be4701,68817205a84113384fffdfe3,6882300ccade961f6ccf8bfd,,,,,,,,,,,,./stim/wavs/cuban_mismatch_interrogative-total-yn_El-nino-oye-el-rio.wav,1,,,139.2249,141.1572,0,0,1.3934,,0,37,37,30,1,31,1,cuban,,,,,,,,,,,,,,,,,,,,,,,,,,,,,,,,,,,,,,,,,,,,,,,,,,,,,,,,
,,,,,,,,,672e1c2422a33b09d7be4701,Spanish,13 or older,"no, only English or Spanish",no,2025-07-24_09h08.17.155,empathy_intonation_perc_control,2024.2.4,Win32,60.97560976,672e1c2422a33b09d7be4701,68817205a84113384fffdfe3,6882300ccade961f6ccf8bfd,,,,,,,,,,,,./stim/wavs/castilian_match_interrogative-total-yn_David-leia-el-libro.wav,1,,,141.158,143.7934,1,1,2.1304,,0,38,38,0,1,1,0,castilian,,,,,,,,,,,,,,,,,,,,,,,,,,,,,,,,,,,,,,,,,,,,,,,,,,,,,,,,
,,,,,,,,,672e1c2422a33b09d7be4701,Spanish,13 or older,"no, only English or Spanish",no,2025-07-24_09h08.17.155,empathy_intonation_perc_control,2024.2.4,Win32,60.97560976,672e1c2422a33b09d7be4701,68817205a84113384fffdfe3,6882300ccade961f6ccf8bfd,,,,,,,,,,,,./stim/wavs/mexican_match_declarative-broad-focus_Mariano-habla-del-tiempo.wav,0,,,143.794,145.8737,0,1,1.55,,0,39,39,60,1,61,0,mexican,,,,,,,,,,,,,,,,,,,,,,,,,,,,,,,,,,,,,,,,,,,,,,,,,,,,,,,,
,,,,,,,,,672e1c2422a33b09d7be4701,Spanish,13 or older,"no, only English or Spanish",no,2025-07-24_09h08.17.155,empathy_intonation_perc_control,2024.2.4,Win32,60.97560976,672e1c2422a33b09d7be4701,68817205a84113384fffdfe3,6882300ccade961f6ccf8bfd,,,,,,,,,,,,./stim/wavs/mexican_mismatch_interrogative-total-yn_El-hombre-mira-la-luna.wav,1,,,145.8747,148.493,1,1,2.0999,,0,40,40,34,1,35,0,mexican,,,,,,,,,,,,,,,,,,,,,,,,,,,,,,,,,,,,,,,,,,,,,,,,,,,,,,,,
,,,,,,,,,672e1c2422a33b09d7be4701,Spanish,13 or older,"no, only English or Spanish",no,2025-07-24_09h08.17.155,empathy_intonation_perc_control,2024.2.4,Win32,60.97560976,672e1c2422a33b09d7be4701,68817205a84113384fffdfe3,6882300ccade961f6ccf8bfd,,,,,,,,,,,,./stim/wavs/puertorican_match_interrogative-total-yn_Ana-lleva-el-abrigo.wav,1,,,148.4937,150.6061,0,0,1.5934,,0,41,41,18,1,19,1,puertorican,,,,,,,,,,,,,,,,,,,,,,,,,,,,,,,,,,,,,,,,,,,,,,,,,,,,,,,,
,,,,,,,,,672e1c2422a33b09d7be4701,Spanish,13 or older,"no, only English or Spanish",no,2025-07-24_09h08.17.155,empathy_intonation_perc_control,2024.2.4,Win32,60.97560976,672e1c2422a33b09d7be4701,68817205a84113384fffdfe3,6882300ccade961f6ccf8bfd,,,,,,,,,,,,./stim/wavs/mexican_mismatch_interrogative-total-yn_El-nino-oye-el-rio.wav,1,,,150.6071,153.1426,1,1,2.0141,,0,42,42,35,1,36,0,mexican,,,,,,,,,,,,,,,,,,,,,,,,,,,,,,,,,,,,,,,,,,,,,,,,,,,,,,,,
,,,,,,,,,672e1c2422a33b09d7be4701,Spanish,13 or older,"no, only English or Spanish",no,2025-07-24_09h08.17.155,empathy_intonation_perc_control,2024.2.4,Win32,60.97560976,672e1c2422a33b09d7be4701,68817205a84113384fffdfe3,6882300ccade961f6ccf8bfd,,,,,,,,,,,,./stim/wavs/mexican_match_declarative-broad-focus_Daniel-iba-a-Bolivia.wav,0,,,153.1433,155.3892,0,1,1.7209,,0,43,43,57,1,58,0,mexican,,,,,,,,,,,,,,,,,,,,,,,,,,,,,,,,,,,,,,,,,,,,,,,,,,,,,,,,
,,,,,,,,,672e1c2422a33b09d7be4701,Spanish,13 or older,"no, only English or Spanish",no,2025-07-24_09h08.17.155,empathy_intonation_perc_control,2024.2.4,Win32,60.97560976,672e1c2422a33b09d7be4701,68817205a84113384fffdfe3,6882300ccade961f6ccf8bfd,,,,,,,,,,,,./stim/wavs/mexican_mismatch_interrogative-total-yn_Mi-tia-odia-la-lluvia.wav,1,,,155.3899,159.6729,1,1,3.7665,,0,44,44,38,1,39,0,mexican,,,,,,,,,,,,,,,,,,,,,,,,,,,,,,,,,,,,,,,,,,,,,,,,,,,,,,,,
,,,,,,,,,672e1c2422a33b09d7be4701,Spanish,13 or older,"no, only English or Spanish",no,2025-07-24_09h08.17.155,empathy_intonation_perc_control,2024.2.4,Win32,60.97560976,672e1c2422a33b09d7be4701,68817205a84113384fffdfe3,6882300ccade961f6ccf8bfd,,,,,,,,,,,,./stim/wavs/mexican_match_declarative-broad-focus_Emilio-ama-la-marcha.wav,0,,,159.6737,162.3584,0,1,2.1657,,0,45,45,59,1,60,0,mexican,,,,,,,,,,,,,,,,,,,,,,,,,,,,,,,,,,,,,,,,,,,,,,,,,,,,,,,,
,,,,,,,,,672e1c2422a33b09d7be4701,Spanish,13 or older,"no, only English or Spanish",no,2025-07-24_09h08.17.155,empathy_intonation_perc_control,2024.2.4,Win32,60.97560976,672e1c2422a33b09d7be4701,68817205a84113384fffdfe3,6882300ccade961f6ccf8bfd,,,,,,,,,,,,./stim/wavs/mexican_match_interrogative-total-yn_Mariano-habla-del-tiempo.wav,1,,,162.359,165.1882,1,1,2.3016,,0,46,46,16,1,17,0,mexican,,,,,,,,,,,,,,,,,,,,,,,,,,,,,,,,,,,,,,,,,,,,,,,,,,,,,,,,
,,,,,,,,,672e1c2422a33b09d7be4701,Spanish,13 or older,"no, only English or Spanish",no,2025-07-24_09h08.17.155,empathy_intonation_perc_control,2024.2.4,Win32,60.97560976,672e1c2422a33b09d7be4701,68817205a84113384fffdfe3,6882300ccade961f6ccf8bfd,,,,,,,,,,,,./stim/wavs/puertorican_match_declarative-broad-focus_Manuela-vende-el-carro.wav,0,,,165.1896,167.3253,0,1,1.6146,,0,47,47,66,1,67,0,puertorican,,,,,,,,,,,,,,,,,,,,,,,,,,,,,,,,,,,,,,,,,,,,,,,,,,,,,,,,
,,,,,,,,,672e1c2422a33b09d7be4701,Spanish,13 or older,"no, only English or Spanish",no,2025-07-24_09h08.17.155,empathy_intonation_perc_control,2024.2.4,Win32,60.97560976,672e1c2422a33b09d7be4701,68817205a84113384fffdfe3,6882300ccade961f6ccf8bfd,,,,,,,,,,,,./stim/wavs/mexican_match_interrogative-total-yn_Daniel-iba-a-Bolivia.wav,1,,,167.3259,171.1219,1,1,3.2527,,0,48,48,13,1,14,0,mexican,,,,,,,,,,,,,,,,,,,,,,,,,,,,,,,,,,,,,,,,,,,,,,,,,,,,,,,,
,,,,,,,,,672e1c2422a33b09d7be4701,Spanish,13 or older,"no, only English or Spanish",no,2025-07-24_09h08.17.155,empathy_intonation_perc_control,2024.2.4,Win32,60.97560976,672e1c2422a33b09d7be4701,68817205a84113384fffdfe3,6882300ccade961f6ccf8bfd,,,,,,,,,,,,./stim/wavs/mexican_match_declarative-broad-focus_Ana-lleva-el-abrigo.wav,0,,,171.1231,175.5883,0,1,3.9361,,0,49,49,56,1,57,0,mexican,,,,,,,,,,,,,,,,,,,,,,,,,,,,,,,,,,,,,,,,,,,,,,,,,,,,,,,,
,,,,,,,,,672e1c2422a33b09d7be4701,Spanish,13 or older,"no, only English or Spanish",no,2025-07-24_09h08.17.155,empathy_intonation_perc_control,2024.2.4,Win32,60.97560976,672e1c2422a33b09d7be4701,68817205a84113384fffdfe3,6882300ccade961f6ccf8bfd,,,,,,,,,,,,./stim/wavs/cuban_mismatch_interrogative-total-yn_Mi-madre-come-la-fruta.wav,1,,,175.589,177.9411,0,0,1.817,,0,50,50,31,1,32,1,cuban,,,,,,,,,,,,,,,,,,,,,,,,,,,,,,,,,,,,,,,,,,,,,,,,,,,,,,,,
,,,,,,,,,672e1c2422a33b09d7be4701,Spanish,13 or older,"no, only English or Spanish",no,2025-07-24_09h08.17.155,empathy_intonation_perc_control,2024.2.4,Win32,60.97560976,672e1c2422a33b09d7be4701,68817205a84113384fffdfe3,6882300ccade961f6ccf8bfd,,,,,,,,,,,,./stim/wavs/puertorican_match_declarative-broad-focus_Daniel-iba-a-Bolivia.wav,0,,,177.9416,180.124,0,1,1.6644,,0,51,51,63,1,64,0,puertorican,,,,,,,,,,,,,,,,,,,,,,,,,,,,,,,,,,,,,,,,,,,,,,,,,,,,,,,,
,,,,,,,,,672e1c2422a33b09d7be4701,Spanish,13 or older,"no, only English or Spanish",no,2025-07-24_09h08.17.155,empathy_intonation_perc_control,2024.2.4,Win32,60.97560976,672e1c2422a33b09d7be4701,68817205a84113384fffdfe3,6882300ccade961f6ccf8bfd,,,,,,,,,,,,./stim/wavs/castilian_mismatch_interrogative-total-yn_Mi-tia-odia-la-lluvia.wav,1,,,180.1246,182.9064,1,1,2.265,,0,52,52,28,1,29,0,castilian,,,,,,,,,,,,,,,,,,,,,,,,,,,,,,,,,,,,,,,,,,,,,,,,,,,,,,,,
,,,,,,,,,672e1c2422a33b09d7be4701,Spanish,13 or older,"no, only English or Spanish",no,2025-07-24_09h08.17.155,empathy_intonation_perc_control,2024.2.4,Win32,60.97560976,672e1c2422a33b09d7be4701,68817205a84113384fffdfe3,6882300ccade961f6ccf8bfd,,,,,,,,,,,,./stim/wavs/puertorican_mismatch_interrogative-total-yn_La-maestra-vive-en-Paris.wav,1,,,182.907,185.2042,0,0,1.7737,,0,53,53,41,1,42,1,puertorican,,,,,,,,,,,,,,,,,,,,,,,,,,,,,,,,,,,,,,,,,,,,,,,,,,,,,,,,
,,,,,,,,,672e1c2422a33b09d7be4701,Spanish,13 or older,"no, only English or Spanish",no,2025-07-24_09h08.17.155,empathy_intonation_perc_control,2024.2.4,Win32,60.97560976,672e1c2422a33b09d7be4701,68817205a84113384fffdfe3,6882300ccade961f6ccf8bfd,,,,,,,,,,,,./stim/wavs/cuban_mismatch_declarative-broad-focus_El-bebe-comia-muy-bien.wav,0,,,185.2052,187.3712,0,1,1.6417,,0,54,54,73,1,74,0,cuban,,,,,,,,,,,,,,,,,,,,,,,,,,,,,,,,,,,,,,,,,,,,,,,,,,,,,,,,
,,,,,,,,,672e1c2422a33b09d7be4701,Spanish,13 or older,"no, only English or Spanish",no,2025-07-24_09h08.17.155,empathy_intonation_perc_control,2024.2.4,Win32,60.97560976,672e1c2422a33b09d7be4701,68817205a84113384fffdfe3,6882300ccade961f6ccf8bfd,,,,,,,,,,,,./stim/wavs/castilian_match_interrogative-total-yn_Maria-bebe-el-vino.wav,1,,,187.3719,190.7042,1,1,2.7836,,0,55,55,3,1,4,0,castilian,,,,,,,,,,,,,,,,,,,,,,,,,,,,,,,,,,,,,,,,,,,,,,,,,,,,,,,,
,,,,,,,,,672e1c2422a33b09d7be4701,Spanish,13 or older,"no, only English or Spanish",no,2025-07-24_09h08.17.155,empathy_intonation_perc_control,2024.2.4,Win32,60.97560976,672e1c2422a33b09d7be4701,68817205a84113384fffdfe3,6882300ccade961f6ccf8bfd,,,,,,,,,,,,./stim/wavs/puertorican_match_interrogative-total-yn_Manuela-vende-el-carro.wav,1,,,190.7049,192.8873,0,0,1.6476,,0,56,56,22,1,23,1,puertorican,,,,,,,,,,,,,,,,,,,,,,,,,,,,,,,,,,,,,,,,,,,,,,,,,,,,,,,,
,,,,,,,,,672e1c2422a33b09d7be4701,Spanish,13 or older,"no, only English or Spanish",no,2025-07-24_09h08.17.155,empathy_intonation_perc_control,2024.2.4,Win32,60.97560976,672e1c2422a33b09d7be4701,68817205a84113384fffdfe3,6882300ccade961f6ccf8bfd,,,,,,,,,,,,./stim/wavs/mexican_match_interrogative-total-yn_David-leia-el-libro.wav,1,,,192.8882,195.7205,1,1,2.3166,,0,57,57,14,1,15,0,mexican,,,,,,,,,,,,,,,,,,,,,,,,,,,,,,,,,,,,,,,,,,,,,,,,,,,,,,,,
,,,,,,,,,672e1c2422a33b09d7be4701,Spanish,13 or older,"no, only English or Spanish",no,2025-07-24_09h08.17.155,empathy_intonation_perc_control,2024.2.4,Win32,60.97560976,672e1c2422a33b09d7be4701,68817205a84113384fffdfe3,6882300ccade961f6ccf8bfd,,,,,,,,,,,,./stim/wavs/castilian_match_interrogative-total-yn_Mariano-habla-del-tiempo.wav,1,,,195.7215,198.6395,1,1,2.3991,,0,58,58,4,1,5,0,castilian,,,,,,,,,,,,,,,,,,,,,,,,,,,,,,,,,,,,,,,,,,,,,,,,,,,,,,,,
,,,,,,,,,672e1c2422a33b09d7be4701,Spanish,13 or older,"no, only English or Spanish",no,2025-07-24_09h08.17.155,empathy_intonation_perc_control,2024.2.4,Win32,60.97560976,672e1c2422a33b09d7be4701,68817205a84113384fffdfe3,6882300ccade961f6ccf8bfd,,,,,,,,,,,,./stim/wavs/mexican_mismatch_interrogative-total-yn_La-maestra-vive-en-Paris.wav,1,,,198.64,201.1192,1,1,1.9589,,0,59,59,36,1,37,0,mexican,,,,,,,,,,,,,,,,,,,,,,,,,,,,,,,,,,,,,,,,,,,,,,,,,,,,,,,,
,,,,,,,,,672e1c2422a33b09d7be4701,Spanish,13 or older,"no, only English or Spanish",no,2025-07-24_09h08.17.155,empathy_intonation_perc_control,2024.2.4,Win32,60.97560976,672e1c2422a33b09d7be4701,68817205a84113384fffdfe3,6882300ccade961f6ccf8bfd,,,,,,,,,,,,./stim/wavs/mexican_mismatch_interrogative-total-yn_Mi-novio-viene-del-lago.wav,1,,,201.1205,204.0063,1,1,2.3672,,0,60,60,37,1,38,0,mexican,,,,,,,,,,,,,,,,,,,,,,,,,,,,,,,,,,,,,,,,,,,,,,,,,,,,,,,,
,,,,,,,,,672e1c2422a33b09d7be4701,Spanish,13 or older,"no, only English or Spanish",no,2025-07-24_09h08.17.155,empathy_intonation_perc_control,2024.2.4,Win32,60.97560976,672e1c2422a33b09d7be4701,68817205a84113384fffdfe3,6882300ccade961f6ccf8bfd,,,,,,,,,,,,./stim/wavs/castilian_match_declarative-broad-focus_Manuela-vende-el-carro.wav,0,,,204.0069,207.2729,0,1,2.7475,,0,61,61,46,1,47,0,castilian,,,,,,,,,,,,,,,,,,,,,,,,,,,,,,,,,,,,,,,,,,,,,,,,,,,,,,,,
,,,,,,,,,672e1c2422a33b09d7be4701,Spanish,13 or older,"no, only English or Spanish",no,2025-07-24_09h08.17.155,empathy_intonation_perc_control,2024.2.4,Win32,60.97560976,672e1c2422a33b09d7be4701,68817205a84113384fffdfe3,6882300ccade961f6ccf8bfd,,,,,,,,,,,,./stim/wavs/puertorican_match_declarative-broad-focus_David-leia-el-libro.wav,0,,,207.2734,209.3188,0,1,1.5118,,0,62,62,64,1,65,0,puertorican,,,,,,,,,,,,,,,,,,,,,,,,,,,,,,,,,,,,,,,,,,,,,,,,,,,,,,,,
,,,,,,,,,672e1c2422a33b09d7be4701,Spanish,13 or older,"no, only English or Spanish",no,2025-07-24_09h08.17.155,empathy_intonation_perc_control,2024.2.4,Win32,60.97560976,672e1c2422a33b09d7be4701,68817205a84113384fffdfe3,6882300ccade961f6ccf8bfd,,,,,,,,,,,,./stim/wavs/castilian_mismatch_declarative-broad-focus_La-nina-lava-el-plato.wav,0,,,209.3197,211.953,0,1,2.1214,,0,63,63,70,1,71,0,castilian,,,,,,,,,,,,,,,,,,,,,,,,,,,,,,,,,,,,,,,,,,,,,,,,,,,,,,,,
,,,,,,,,,672e1c2422a33b09d7be4701,Spanish,13 or older,"no, only English or Spanish",no,2025-07-24_09h08.17.155,empathy_intonation_perc_control,2024.2.4,Win32,60.97560976,672e1c2422a33b09d7be4701,68817205a84113384fffdfe3,6882300ccade961f6ccf8bfd,,,,,,,,,,,,./stim/wavs/cuban_mismatch_interrogative-total-yn_Mi-tia-odia-la-lluvia.wav,1,,,211.954,214.5028,0,0,2.0147,,0,64,64,33,1,34,1,cuban,,,,,,,,,,,,,,,,,,,,,,,,,,,,,,,,,,,,,,,,,,,,,,,,,,,,,,,,
,,,,,,,,,672e1c2422a33b09d7be4701,Spanish,13 or older,"no, only English or Spanish",no,2025-07-24_09h08.17.155,empathy_intonation_perc_control,2024.2.4,Win32,60.97560976,672e1c2422a33b09d7be4701,68817205a84113384fffdfe3,6882300ccade961f6ccf8bfd,,,,,,,,,,,,./stim/wavs/castilian_mismatch_interrogative-total-yn_La-maestra-vive-en-Paris.wav,1,,,214.5038,217.4524,0,0,2.4353,,0,65,65,24,1,25,0,castilian,,,,,,,,,,,,,,,,,,,,,,,,,,,,,,,,,,,,,,,,,,,,,,,,,,,,,,,,
,,,,,,,,,672e1c2422a33b09d7be4701,Spanish,13 or older,"no, only English or Spanish",no,2025-07-24_09h08.17.155,empathy_intonation_perc_control,2024.2.4,Win32,60.97560976,672e1c2422a33b09d7be4701,68817205a84113384fffdfe3,6882300ccade961f6ccf8bfd,,,,,,,,,,,,./stim/wavs/cuban_match_interrogative-total-yn_Daniel-iba-a-Bolivia.wav,1,,,217.4532,220.1546,0,0,2.1967,,0,66,66,7,1,8,1,cuban,,,,,,,,,,,,,,,,,,,,,,,,,,,,,,,,,,,,,,,,,,,,,,,,,,,,,,,,
,,,,,,,,,672e1c2422a33b09d7be4701,Spanish,13 or older,"no, only English or Spanish",no,2025-07-24_09h08.17.155,empathy_intonation_perc_control,2024.2.4,Win32,60.97560976,672e1c2422a33b09d7be4701,68817205a84113384fffdfe3,6882300ccade961f6ccf8bfd,,,,,,,,,,,,./stim/wavs/puertorican_match_declarative-broad-focus_Maria-bebe-el-vino.wav,0,,,220.1552,222.1182,0,1,1.4428,,0,67,67,67,1,68,0,puertorican,,,,,,,,,,,,,,,,,,,,,,,,,,,,,,,,,,,,,,,,,,,,,,,,,,,,,,,,
,,,,,,,,,672e1c2422a33b09d7be4701,Spanish,13 or older,"no, only English or Spanish",no,2025-07-24_09h08.17.155,empathy_intonation_perc_control,2024.2.4,Win32,60.97560976,672e1c2422a33b09d7be4701,68817205a84113384fffdfe3,6882300ccade961f6ccf8bfd,,,,,,,,,,,,./stim/wavs/mexican_mismatch_declarative-broad-focus_Mi-novio-viene-del-lago.wav,0,,,222.119,224.1223,0,1,1.4847,,0,68,68,81,1,82,0,mexican,,,,,,,,,,,,,,,,,,,,,,,,,,,,,,,,,,,,,,,,,,,,,,,,,,,,,,,,
,,,,,,,,,672e1c2422a33b09d7be4701,Spanish,13 or older,"no, only English or Spanish",no,2025-07-24_09h08.17.155,empathy_intonation_perc_control,2024.2.4,Win32,60.97560976,672e1c2422a33b09d7be4701,68817205a84113384fffdfe3,6882300ccade961f6ccf8bfd,,,,,,,,,,,,./stim/wavs/puertorican_match_interrogative-total-yn_Emilio-ama-la-marcha.wav,1,,,224.1229,226.1378,0,0,1.4972,,0,69,69,21,1,22,1,puertorican,,,,,,,,,,,,,,,,,,,,,,,,,,,,,,,,,,,,,,,,,,,,,,,,,,,,,,,,
,,,,,,,,,672e1c2422a33b09d7be4701,Spanish,13 or older,"no, only English or Spanish",no,2025-07-24_09h08.17.155,empathy_intonation_perc_control,2024.2.4,Win32,60.97560976,672e1c2422a33b09d7be4701,68817205a84113384fffdfe3,6882300ccade961f6ccf8bfd,,,,,,,,,,,,./stim/wavs/mexican_match_interrogative-total-yn_Ana-lleva-el-abrigo.wav,1,,,226.1384,228.8715,1,1,2.2004,,0,70,70,12,1,13,0,mexican,,,,,,,,,,,,,,,,,,,,,,,,,,,,,,,,,,,,,,,,,,,,,,,,,,,,,,,,
,,,,,,,,,672e1c2422a33b09d7be4701,Spanish,13 or older,"no, only English or Spanish",no,2025-07-24_09h08.17.155,empathy_intonation_perc_control,2024.2.4,Win32,60.97560976,672e1c2422a33b09d7be4701,68817205a84113384fffdfe3,6882300ccade961f6ccf8bfd,,,,,,,,,,,,./stim/wavs/cuban_match_declarative-broad-focus_Ana-lleva-el-abrigo.wav,0,,,228.8721,231.1019,0,1,1.6996,,0,71,71,50,1,51,0,cuban,,,,,,,,,,,,,,,,,,,,,,,,,,,,,,,,,,,,,,,,,,,,,,,,,,,,,,,,
,,,,,,,,,672e1c2422a33b09d7be4701,Spanish,13 or older,"no, only English or Spanish",no,2025-07-24_09h08.17.155,empathy_intonation_perc_control,2024.2.4,Win32,60.97560976,672e1c2422a33b09d7be4701,68817205a84113384fffdfe3,6882300ccade961f6ccf8bfd,,,,,,,,,,,,./stim/wavs/puertorican_match_interrogative-total-yn_Maria-bebe-el-vino.wav,1,,,231.103,233.6845,1,1,2.0363,,0,72,72,23,1,24,1,puertorican,,,,,,,,,,,,,,,,,,,,,,,,,,,,,,,,,,,,,,,,,,,,,,,,,,,,,,,,
,,,,,,,,,672e1c2422a33b09d7be4701,Spanish,13 or older,"no, only English or Spanish",no,2025-07-24_09h08.17.155,empathy_intonation_perc_control,2024.2.4,Win32,60.97560976,672e1c2422a33b09d7be4701,68817205a84113384fffdfe3,6882300ccade961f6ccf8bfd,,,,,,,,,,,,./stim/wavs/mexican_match_declarative-broad-focus_David-leia-el-libro.wav,0,,,233.6852,236.168,0,1,1.9745,,0,73,73,58,1,59,0,mexican,,,,,,,,,,,,,,,,,,,,,,,,,,,,,,,,,,,,,,,,,,,,,,,,,,,,,,,,
,,,,,,,,,672e1c2422a33b09d7be4701,Spanish,13 or older,"no, only English or Spanish",no,2025-07-24_09h08.17.155,empathy_intonation_perc_control,2024.2.4,Win32,60.97560976,672e1c2422a33b09d7be4701,68817205a84113384fffdfe3,6882300ccade961f6ccf8bfd,,,,,,,,,,,,./stim/wavs/puertorican_mismatch_declarative-broad-focus_El-nino-oye-el-rio.wav,0,,,236.1688,238.2342,0,1,1.5336,,0,74,74,85,1,86,0,puertorican,,,,,,,,,,,,,,,,,,,,,,,,,,,,,,,,,,,,,,,,,,,,,,,,,,,,,,,,
,,,,,,,,,672e1c2422a33b09d7be4701,Spanish,13 or older,"no, only English or Spanish",no,2025-07-24_09h08.17.155,empathy_intonation_perc_control,2024.2.4,Win32,60.97560976,672e1c2422a33b09d7be4701,68817205a84113384fffdfe3,6882300ccade961f6ccf8bfd,,,,,,,,,,,,./stim/wavs/cuban_mismatch_declarative-broad-focus_Mi-novio-viene-del-lago.wav,0,,,238.2349,240.6544,0,1,1.9001,,0,75,75,76,1,77,0,cuban,,,,,,,,,,,,,,,,,,,,,,,,,,,,,,,,,,,,,,,,,,,,,,,,,,,,,,,,
,,,,,,,,,672e1c2422a33b09d7be4701,Spanish,13 or older,"no, only English or Spanish",no,2025-07-24_09h08.17.155,empathy_intonation_perc_control,2024.2.4,Win32,60.97560976,672e1c2422a33b09d7be4701,68817205a84113384fffdfe3,6882300ccade961f6ccf8bfd,,,,,,,,,,,,./stim/wavs/cuban_match_interrogative-total-yn_Marta-abre-el-regalo.wav,1,,,240.655,242.901,0,0,1.7063,,0,76,76,11,1,12,1,cuban,,,,,,,,,,,,,,,,,,,,,,,,,,,,,,,,,,,,,,,,,,,,,,,,,,,,,,,,
,,,,,,,,,672e1c2422a33b09d7be4701,Spanish,13 or older,"no, only English or Spanish",no,2025-07-24_09h08.17.155,empathy_intonation_perc_control,2024.2.4,Win32,60.97560976,672e1c2422a33b09d7be4701,68817205a84113384fffdfe3,6882300ccade961f6ccf8bfd,,,,,,,,,,,,./stim/wavs/cuban_match_declarative-broad-focus_Marta-abre-el-regalo.wav,0,,,242.9019,245.37,0,1,1.9467,,0,77,77,55,1,56,0,cuban,,,,,,,,,,,,,,,,,,,,,,,,,,,,,,,,,,,,,,,,,,,,,,,,,,,,,,,,
,,,,,,,,,672e1c2422a33b09d7be4701,Spanish,13 or older,"no, only English or Spanish",no,2025-07-24_09h08.17.155,empathy_intonation_perc_control,2024.2.4,Win32,60.97560976,672e1c2422a33b09d7be4701,68817205a84113384fffdfe3,6882300ccade961f6ccf8bfd,,,,,,,,,,,,./stim/wavs/mexican_mismatch_declarative-broad-focus_La-maestra-vive-en-Paris.wav,0,,,245.3707,247.4862,0,1,1.5822,,0,78,78,80,1,81,0,mexican,,,,,,,,,,,,,,,,,,,,,,,,,,,,,,,,,,,,,,,,,,,,,,,,,,,,,,,,
,,,,,,,,,672e1c2422a33b09d7be4701,Spanish,13 or older,"no, only English or Spanish",no,2025-07-24_09h08.17.155,empathy_intonation_perc_control,2024.2.4,Win32,60.97560976,672e1c2422a33b09d7be4701,68817205a84113384fffdfe3,6882300ccade961f6ccf8bfd,,,,,,,,,,,,./stim/wavs/cuban_mismatch_declarative-broad-focus_Mi-tia-odia-la-lluvia.wav,0,,,247.4869,249.87,0,1,1.85,,0,79,79,77,1,78,0,cuban,,,,,,,,,,,,,,,,,,,,,,,,,,,,,,,,,,,,,,,,,,,,,,,,,,,,,,,,
,,,,,,,,,672e1c2422a33b09d7be4701,Spanish,13 or older,"no, only English or Spanish",no,2025-07-24_09h08.17.155,empathy_intonation_perc_control,2024.2.4,Win32,60.97560976,672e1c2422a33b09d7be4701,68817205a84113384fffdfe3,6882300ccade961f6ccf8bfd,,,,,,,,,,,,./stim/wavs/castilian_mismatch_declarative-broad-focus_Mi-novio-viene-del-lago.wav,0,,,249.8705,252.2533,0,1,1.8641,,0,80,80,71,1,72,0,castilian,,,,,,,,,,,,,,,,,,,,,,,,,,,,,,,,,,,,,,,,,,,,,,,,,,,,,,,,
,,,,,,,,,672e1c2422a33b09d7be4701,Spanish,13 or older,"no, only English or Spanish",no,2025-07-24_09h08.17.155,empathy_intonation_perc_control,2024.2.4,Win32,60.97560976,672e1c2422a33b09d7be4701,68817205a84113384fffdfe3,6882300ccade961f6ccf8bfd,,,,,,,,,,,,./stim/wavs/mexican_mismatch_declarative-broad-focus_El-hombre-mira-la-luna.wav,0,,,252.2538,254.6331,0,1,1.8498,,0,81,81,79,1,80,0,mexican,,,,,,,,,,,,,,,,,,,,,,,,,,,,,,,,,,,,,,,,,,,,,,,,,,,,,,,,
,,,,,,,,,672e1c2422a33b09d7be4701,Spanish,13 or older,"no, only English or Spanish",no,2025-07-24_09h08.17.155,empathy_intonation_perc_control,2024.2.4,Win32,60.97560976,672e1c2422a33b09d7be4701,68817205a84113384fffdfe3,6882300ccade961f6ccf8bfd,,,,,,,,,,,,./stim/wavs/mexican_mismatch_declarative-broad-focus_El-bebe-comia-muy-bien.wav,0,,,254.6339,257.8027,0,1,2.6331,,0,82,82,78,1,79,0,mexican,,,,,,,,,,,,,,,,,,,,,,,,,,,,,,,,,,,,,,,,,,,,,,,,,,,,,,,,
,,,,,,,,,672e1c2422a33b09d7be4701,Spanish,13 or older,"no, only English or Spanish",no,2025-07-24_09h08.17.155,empathy_intonation_perc_control,2024.2.4,Win32,60.97560976,672e1c2422a33b09d7be4701,68817205a84113384fffdfe3,6882300ccade961f6ccf8bfd,,,,,,,,,,,,./stim/wavs/cuban_match_declarative-broad-focus_Mariano-habla-del-tiempo.wav,0,,,257.8033,260.2329,0,1,1.8885,,0,83,83,54,1,55,0,cuban,,,,,,,,,,,,,,,,,,,,,,,,,,,,,,,,,,,,,,,,,,,,,,,,,,,,,,,,
,,,,,,,,,672e1c2422a33b09d7be4701,Spanish,13 or older,"no, only English or Spanish",no,2025-07-24_09h08.17.155,empathy_intonation_perc_control,2024.2.4,Win32,60.97560976,672e1c2422a33b09d7be4701,68817205a84113384fffdfe3,6882300ccade961f6ccf8bfd,,,,,,,,,,,,./stim/wavs/puertorican_match_declarative-broad-focus_Emilio-ama-la-marcha.wav,0,,,260.2336,262.8031,0,1,2.0481,,0,84,84,65,1,66,0,puertorican,,,,,,,,,,,,,,,,,,,,,,,,,,,,,,,,,,,,,,,,,,,,,,,,,,,,,,,,
,,,,,,,,,672e1c2422a33b09d7be4701,Spanish,13 or older,"no, only English or Spanish",no,2025-07-24_09h08.17.155,empathy_intonation_perc_control,2024.2.4,Win32,60.97560976,672e1c2422a33b09d7be4701,68817205a84113384fffdfe3,6882300ccade961f6ccf8bfd,,,,,,,,,,,,./stim/wavs/cuban_match_declarative-broad-focus_Maria-bebe-el-vino.wav,0,,,262.8038,264.9661,0,1,1.6278,,0,85,85,53,1,54,0,cuban,,,,,,,,,,,,,,,,,,,,,,,,,,,,,,,,,,,,,,,,,,,,,,,,,,,,,,,,
,,,,,,,,,672e1c2422a33b09d7be4701,Spanish,13 or older,"no, only English or Spanish",no,2025-07-24_09h08.17.155,empathy_intonation_perc_control,2024.2.4,Win32,60.97560976,672e1c2422a33b09d7be4701,68817205a84113384fffdfe3,6882300ccade961f6ccf8bfd,,,,,,,,,,,,./stim/wavs/cuban_match_interrogative-total-yn_Ana-lleva-el-abrigo.wav,1,,,264.9672,266.9525,0,0,1.4668,,0,86,86,6,1,7,1,cuban,,,,,,,,,,,,,,,,,,,,,,,,,,,,,,,,,,,,,,,,,,,,,,,,,,,,,,,,
,,,,,,,,,672e1c2422a33b09d7be4701,Spanish,13 or older,"no, only English or Spanish",no,2025-07-24_09h08.17.155,empathy_intonation_perc_control,2024.2.4,Win32,60.97560976,672e1c2422a33b09d7be4701,68817205a84113384fffdfe3,6882300ccade961f6ccf8bfd,,,,,,,,,,,,./stim/wavs/mexican_match_interrogative-total-yn_Marta-abre-el-regalo.wav,1,,,266.953,269.7493,1,1,2.2758,,0,87,87,17,1,18,0,mexican,,,,,,,,,,,,,,,,,,,,,,,,,,,,,,,,,,,,,,,,,,,,,,,,,,,,,,,,
,,,,,,,"Great! Now we will move on. The next task consists of about 60 trials, in each of which you will see a string of letters. 
  
  Your task is to decide whether this is a real Spanish word or not.", (press the spacebar to continue),672e1c2422a33b09d7be4701,Spanish,13 or older,"no, only English or Spanish",no,2025-07-24_09h08.17.155,empathy_intonation_perc_control,2024.2.4,Win32,60.97560976,672e1c2422a33b09d7be4701,68817205a84113384fffdfe3,6882300ccade961f6ccf8bfd,,,,,,,,,,,,,,,,,,,,,,,,,,,,,,269.7549,273.8688,0,0,0,0,1,,,,,,,,,,,,,,,,,,,,,,,,,,,,,,,,,,,,,,,,,,,,,,,,,
,,,,,,,"If you think it is an existing Spanish word, you type '1' (for 'REAL'), and if you think it is not an existing Spanish word, you type '0' (for 'FAKE').", (press the spacebar to continue),672e1c2422a33b09d7be4701,Spanish,13 or older,"no, only English or Spanish",no,2025-07-24_09h08.17.155,empathy_intonation_perc_control,2024.2.4,Win32,60.97560976,672e1c2422a33b09d7be4701,68817205a84113384fffdfe3,6882300ccade961f6ccf8bfd,,,,,,,,,,,,,,,,,,,,,,,,,,,,,,273.871,279.5851,0,1,1,1,1,,,,,,,,,,,,,,,,,,,,,,,,,,,,,,,,,,,,,,,,,,,,,,,,,
,,,,,,,"If you are sure that the word exists, even though you don’t know its exact meaning, you may still respond '1' (REAL). 
  
  But if you are not sure if it is an existing word, you should respond '0' (FAKE).
  
  Let's do a practice round...", (press the spacebar to continue),672e1c2422a33b09d7be4701,Spanish,13 or older,"no, only English or Spanish",no,2025-07-24_09h08.17.155,empathy_intonation_perc_control,2024.2.4,Win32,60.97560976,672e1c2422a33b09d7be4701,68817205a84113384fffdfe3,6882300ccade961f6ccf8bfd,,,,,,,,,,,,,,,,,,,,,,,,,,,,,,279.587,287.7815,0,2,2,2,1,,,,,,,,,,,,,,,,,,,,,,,,,,,,,,,,,,,,,,,,,,,,,,,,,
,,,,,,,,,672e1c2422a33b09d7be4701,Spanish,13 or older,"no, only English or Spanish",no,2025-07-24_09h08.17.155,empathy_intonation_perc_control,2024.2.4,Win32,60.97560976,672e1c2422a33b09d7be4701,68817205a84113384fffdfe3,6882300ccade961f6ccf8bfd,,,,,,,,,,,,,0,,,,,,,,,,,,,,,,,,,,,,,,287.7863,290.2182,0,1,1.9007,,290.2185,291.215,0,0,0,0,1,0,depiste,REAL,FAKE,,,,,,,,,,,,,,,,,,,,,,,,,,,,,,,,
,,,,,,,,,672e1c2422a33b09d7be4701,Spanish,13 or older,"no, only English or Spanish",no,2025-07-24_09h08.17.155,empathy_intonation_perc_control,2024.2.4,Win32,60.97560976,672e1c2422a33b09d7be4701,68817205a84113384fffdfe3,6882300ccade961f6ccf8bfd,,,,,,,,,,,,,1,,,,,,,,,,,,,,,,,,,,,,,,291.2165,292.9981,1,1,1.2595,,292.9985,293.9971,0,1,1,1,1,0,sí,REAL,FAKE,,,,,,,,,,,,,,,,,,,,,,,,,,,,,,,,
,,,,,,,,,672e1c2422a33b09d7be4701,Spanish,13 or older,"no, only English or Spanish",no,2025-07-24_09h08.17.155,empathy_intonation_perc_control,2024.2.4,Win32,60.97560976,672e1c2422a33b09d7be4701,68817205a84113384fffdfe3,6882300ccade961f6ccf8bfd,,,,,,,,,,,,,0,,,,,,,,,,,,,,,,,,,,,,,,293.9988,296.0842,0,1,1.5674,,296.0842,297.0835,0,2,2,2,1,0,coné,REAL,FAKE,,,,,,,,,,,,,,,,,,,,,,,,,,,,,,,,
,,,,,,,,,672e1c2422a33b09d7be4701,Spanish,13 or older,"no, only English or Spanish",no,2025-07-24_09h08.17.155,empathy_intonation_perc_control,2024.2.4,Win32,60.97560976,672e1c2422a33b09d7be4701,68817205a84113384fffdfe3,6882300ccade961f6ccf8bfd,,,,,,,,,,,,,0,,,,,,,,,,,,,,,,,,,,,,,,297.0848,298.3642,0,1,0.7385,,298.3646,299.3666,0,3,3,3,1,0,calpar,REAL,FAKE,,,,,,,,,,,,,,,,,,,,,,,,,,,,,,,,
,,,,,,,,,672e1c2422a33b09d7be4701,Spanish,13 or older,"no, only English or Spanish",no,2025-07-24_09h08.17.155,empathy_intonation_perc_control,2024.2.4,Win32,60.97560976,672e1c2422a33b09d7be4701,68817205a84113384fffdfe3,6882300ccade961f6ccf8bfd,,,,,,,,,,,,,0,,,,,,,,,,,,,,,,,,,,,,,,299.368,300.6808,0,1,0.7679,,300.6812,301.6812,0,4,4,4,1,0,joten,REAL,FAKE,,,,,,,,,,,,,,,,,,,,,,,,,,,,,,,,
,,,,,,,,,672e1c2422a33b09d7be4701,Spanish,13 or older,"no, only English or Spanish",no,2025-07-24_09h08.17.155,empathy_intonation_perc_control,2024.2.4,Win32,60.97560976,672e1c2422a33b09d7be4701,68817205a84113384fffdfe3,6882300ccade961f6ccf8bfd,,,,,,,,,,,,,1,,,,,,,,,,,,,,,,,,,,,,,,301.6824,303.4339,1,1,1.2177,,303.4341,304.4304,0,5,5,5,1,0,sacapuntas,REAL,FAKE,,,,,,,,,,,,,,,,,,,,,,,,,,,,,,,,
,,,,,,,,,672e1c2422a33b09d7be4701,Spanish,13 or older,"no, only English or Spanish",no,2025-07-24_09h08.17.155,empathy_intonation_perc_control,2024.2.4,Win32,60.97560976,672e1c2422a33b09d7be4701,68817205a84113384fffdfe3,6882300ccade961f6ccf8bfd,,,,,,,,,,,,,0,,,,,,,,,,,,,,,,,,,,,,,,304.432,305.6643,0,1,0.6888,,305.6644,306.6662,0,6,6,6,1,0,priba,REAL,FAKE,,,,,,,,,,,,,,,,,,,,,,,,,,,,,,,,
,,,,,,,,,672e1c2422a33b09d7be4701,Spanish,13 or older,"no, only English or Spanish",no,2025-07-24_09h08.17.155,empathy_intonation_perc_control,2024.2.4,Win32,60.97560976,672e1c2422a33b09d7be4701,68817205a84113384fffdfe3,6882300ccade961f6ccf8bfd,,,,,,,,,,,,,0,,,,,,,,,,,,,,,,,,,,,,,,306.6673,308.2834,0,1,1.0841,,308.2835,309.283,0,7,7,7,1,0,pelasula,REAL,FAKE,,,,,,,,,,,,,,,,,,,,,,,,,,,,,,,,
,,,,,,,,,672e1c2422a33b09d7be4701,Spanish,13 or older,"no, only English or Spanish",no,2025-07-24_09h08.17.155,empathy_intonation_perc_control,2024.2.4,Win32,60.97560976,672e1c2422a33b09d7be4701,68817205a84113384fffdfe3,6882300ccade961f6ccf8bfd,,,,,,,,,,,,,1,,,,,,,,,,,,,,,,,,,,,,,,309.284,310.5301,1,1,0.7252,,310.5303,311.5299,0,8,8,8,1,0,bien,REAL,FAKE,,,,,,,,,,,,,,,,,,,,,,,,,,,,,,,,
,,,,,,,,,672e1c2422a33b09d7be4701,Spanish,13 or older,"no, only English or Spanish",no,2025-07-24_09h08.17.155,empathy_intonation_perc_control,2024.2.4,Win32,60.97560976,672e1c2422a33b09d7be4701,68817205a84113384fffdfe3,6882300ccade961f6ccf8bfd,,,,,,,,,,,,,1,,,,,,,,,,,,,,,,,,,,,,,,311.5316,312.7301,1,1,0.6746,,312.7305,313.7299,0,9,9,9,1,0,casa,REAL,FAKE,,,,,,,,,,,,,,,,,,,,,,,,,,,,,,,,
,,,,,,,,,672e1c2422a33b09d7be4701,Spanish,13 or older,"no, only English or Spanish",no,2025-07-24_09h08.17.155,empathy_intonation_perc_control,2024.2.4,Win32,60.97560976,672e1c2422a33b09d7be4701,68817205a84113384fffdfe3,6882300ccade961f6ccf8bfd,,,,,,,,,,,,,0,,,,,,,,,,,,,,,,,,,,,,,,313.7315,315.0491,0,1,0.7835,,315.0491,316.0465,0,10,10,10,1,0,lejo,REAL,FAKE,,,,,,,,,,,,,,,,,,,,,,,,,,,,,,,,
,,,,,,,,,672e1c2422a33b09d7be4701,Spanish,13 or older,"no, only English or Spanish",no,2025-07-24_09h08.17.155,empathy_intonation_perc_control,2024.2.4,Win32,60.97560976,672e1c2422a33b09d7be4701,68817205a84113384fffdfe3,6882300ccade961f6ccf8bfd,,,,,,,,,,,,,0,,,,,,,,,,,,,,,,,,,,,,,,316.0479,317.7126,0,1,1.1432,,317.7127,318.7153,0,11,11,11,1,0,pretantas,REAL,FAKE,,,,,,,,,,,,,,,,,,,,,,,,,,,,,,,,
,,,,,,,,,672e1c2422a33b09d7be4701,Spanish,13 or older,"no, only English or Spanish",no,2025-07-24_09h08.17.155,empathy_intonation_perc_control,2024.2.4,Win32,60.97560976,672e1c2422a33b09d7be4701,68817205a84113384fffdfe3,6882300ccade961f6ccf8bfd,,,,,,,,,,,,,,,,,,,,,,,,,,,,,,,,,,,,,,,,,,,,,,,,,,,,,,318.7157,319.7303,,,,,,,,,,,,,,,,,,,,,,,,,,,,,,
,,,,,,,,,672e1c2422a33b09d7be4701,Spanish,13 or older,"no, only English or Spanish",no,2025-07-24_09h08.17.155,empathy_intonation_perc_control,2024.2.4,Win32,60.97560976,672e1c2422a33b09d7be4701,68817205a84113384fffdfe3,6882300ccade961f6ccf8bfd,,,,,,,,,,,,,1,,,,,,,,,,,,,,,,,,,,,,,,,,,,,,,,,,,,,75,yacer,,,,,319.7389,321.0164,0,0,0.7507,,0,0,0,74,1,REAL,FAKE,,,,,,,,,,,,,,,,,
,,,,,,,,,672e1c2422a33b09d7be4701,Spanish,13 or older,"no, only English or Spanish",no,2025-07-24_09h08.17.155,empathy_intonation_perc_control,2024.2.4,Win32,60.97560976,672e1c2422a33b09d7be4701,68817205a84113384fffdfe3,6882300ccade961f6ccf8bfd,,,,,,,,,,,,,0,,,,,,,,,,,,,,,,,,,,,,,,,,,,,,,,,,,,,30,alardio,,,,,321.0174,322.2788,0,1,0.729,,0,1,1,29,1,REAL,FAKE,,,,,,,,,,,,,,,,,
,,,,,,,,,672e1c2422a33b09d7be4701,Spanish,13 or older,"no, only English or Spanish",no,2025-07-24_09h08.17.155,empathy_intonation_perc_control,2024.2.4,Win32,60.97560976,672e1c2422a33b09d7be4701,68817205a84113384fffdfe3,6882300ccade961f6ccf8bfd,,,,,,,,,,,,,1,,,,,,,,,,,,,,,,,,,,,,,,,,,,,,,,,,,,,20,ávido,,,,,322.2807,323.7456,0,0,0.9232,,0,2,2,19,1,REAL,FAKE,,,,,,,,,,,,,,,,,
,,,,,,,,,672e1c2422a33b09d7be4701,Spanish,13 or older,"no, only English or Spanish",no,2025-07-24_09h08.17.155,empathy_intonation_perc_control,2024.2.4,Win32,60.97560976,672e1c2422a33b09d7be4701,68817205a84113384fffdfe3,6882300ccade961f6ccf8bfd,,,,,,,,,,,,,1,,,,,,,,,,,,,,,,,,,,,,,,,,,,,,,,,,,,,71,polvoriento,,,,,323.7467,325.0463,0,0,0.7626,,0,3,3,70,1,REAL,FAKE,,,,,,,,,,,,,,,,,
,,,,,,,,,672e1c2422a33b09d7be4701,Spanish,13 or older,"no, only English or Spanish",no,2025-07-24_09h08.17.155,empathy_intonation_perc_control,2024.2.4,Win32,60.97560976,672e1c2422a33b09d7be4701,68817205a84113384fffdfe3,6882300ccade961f6ccf8bfd,,,,,,,,,,,,,0,,,,,,,,,,,,,,,,,,,,,,,,,,,,,,,,,,,,,18,arsa,,,,,325.048,326.2623,0,1,0.6938,,0,4,4,17,1,REAL,FAKE,,,,,,,,,,,,,,,,,
,,,,,,,,,672e1c2422a33b09d7be4701,Spanish,13 or older,"no, only English or Spanish",no,2025-07-24_09h08.17.155,empathy_intonation_perc_control,2024.2.4,Win32,60.97560976,672e1c2422a33b09d7be4701,68817205a84113384fffdfe3,6882300ccade961f6ccf8bfd,,,,,,,,,,,,,0,,,,,,,,,,,,,,,,,,,,,,,,,,,,,,,,,,,,,82,empirador,,,,,326.2638,328.5456,0,1,1.7371,,0,5,5,81,1,REAL,FAKE,,,,,,,,,,,,,,,,,
,,,,,,,,,672e1c2422a33b09d7be4701,Spanish,13 or older,"no, only English or Spanish",no,2025-07-24_09h08.17.155,empathy_intonation_perc_control,2024.2.4,Win32,60.97560976,672e1c2422a33b09d7be4701,68817205a84113384fffdfe3,6882300ccade961f6ccf8bfd,,,,,,,,,,,,,1,,,,,,,,,,,,,,,,,,,,,,,,,,,,,,,,,,,,,3,pulmones,,,,,328.5469,329.9486,0,0,0.884,,0,6,6,2,1,REAL,FAKE,,,,,,,,,,,,,,,,,
,,,,,,,,,672e1c2422a33b09d7be4701,Spanish,13 or older,"no, only English or Spanish",no,2025-07-24_09h08.17.155,empathy_intonation_perc_control,2024.2.4,Win32,60.97560976,672e1c2422a33b09d7be4701,68817205a84113384fffdfe3,6882300ccade961f6ccf8bfd,,,,,,,,,,,,,0,,,,,,,,,,,,,,,,,,,,,,,,,,,,,,,,,,,,,17,floroso,,,,,329.9498,331.2957,0,1,0.8089,,0,7,7,16,1,REAL,FAKE,,,,,,,,,,,,,,,,,
,,,,,,,,,672e1c2422a33b09d7be4701,Spanish,13 or older,"no, only English or Spanish",no,2025-07-24_09h08.17.155,empathy_intonation_perc_control,2024.2.4,Win32,60.97560976,672e1c2422a33b09d7be4701,68817205a84113384fffdfe3,6882300ccade961f6ccf8bfd,,,,,,,,,,,,,1,,,,,,,,,,,,,,,,,,,,,,,,,,,,,,,,,,,,,9,hacha,,,,,331.2969,332.8449,0,0,1.0249,,0,8,8,8,1,REAL,FAKE,,,,,,,,,,,,,,,,,
,,,,,,,,,672e1c2422a33b09d7be4701,Spanish,13 or older,"no, only English or Spanish",no,2025-07-24_09h08.17.155,empathy_intonation_perc_control,2024.2.4,Win32,60.97560976,672e1c2422a33b09d7be4701,68817205a84113384fffdfe3,6882300ccade961f6ccf8bfd,,,,,,,,,,,,,1,,,,,,,,,,,,,,,,,,,,,,,,,,,,,,,,,,,,,31,pandilla,,,,,332.8464,334.5291,0,0,1.1476,,0,9,9,30,1,REAL,FAKE,,,,,,,,,,,,,,,,,
,,,,,,,,,672e1c2422a33b09d7be4701,Spanish,13 or older,"no, only English or Spanish",no,2025-07-24_09h08.17.155,empathy_intonation_perc_control,2024.2.4,Win32,60.97560976,672e1c2422a33b09d7be4701,68817205a84113384fffdfe3,6882300ccade961f6ccf8bfd,,,,,,,,,,,,,1,,,,,,,,,,,,,,,,,,,,,,,,,,,,,,,,,,,,,22,lacayo,,,,,334.5301,336.2119,0,0,1.1567,,0,10,10,21,1,REAL,FAKE,,,,,,,,,,,,,,,,,
,,,,,,,,,672e1c2422a33b09d7be4701,Spanish,13 or older,"no, only English or Spanish",no,2025-07-24_09h08.17.155,empathy_intonation_perc_control,2024.2.4,Win32,60.97560976,672e1c2422a33b09d7be4701,68817205a84113384fffdfe3,6882300ccade961f6ccf8bfd,,,,,,,,,,,,,1,,,,,,,,,,,,,,,,,,,,,,,,,,,,,,,,,,,,,2,pellizcar,,,,,336.2134,337.8149,0,0,1.0668,,0,11,11,1,1,REAL,FAKE,,,,,,,,,,,,,,,,,
,,,,,,,,,672e1c2422a33b09d7be4701,Spanish,13 or older,"no, only English or Spanish",no,2025-07-24_09h08.17.155,empathy_intonation_perc_control,2024.2.4,Win32,60.97560976,672e1c2422a33b09d7be4701,68817205a84113384fffdfe3,6882300ccade961f6ccf8bfd,,,,,,,,,,,,,1,,,,,,,,,,,,,,,,,,,,,,,,,,,,,,,,,,,,,83,guante,,,,,337.8162,339.1981,0,0,0.8508,,0,12,12,82,1,REAL,FAKE,,,,,,,,,,,,,,,,,
,,,,,,,,,672e1c2422a33b09d7be4701,Spanish,13 or older,"no, only English or Spanish",no,2025-07-24_09h08.17.155,empathy_intonation_perc_control,2024.2.4,Win32,60.97560976,672e1c2422a33b09d7be4701,68817205a84113384fffdfe3,6882300ccade961f6ccf8bfd,,,,,,,,,,,,,1,,,,,,,,,,,,,,,,,,,,,,,,,,,,,,,,,,,,,89,prisa,,,,,339.1992,340.8943,0,0,1.1509,,0,13,13,88,1,REAL,FAKE,,,,,,,,,,,,,,,,,
,,,,,,,,,672e1c2422a33b09d7be4701,Spanish,13 or older,"no, only English or Spanish",no,2025-07-24_09h08.17.155,empathy_intonation_perc_control,2024.2.4,Win32,60.97560976,672e1c2422a33b09d7be4701,68817205a84113384fffdfe3,6882300ccade961f6ccf8bfd,,,,,,,,,,,,,0,,,,,,,,,,,,,,,,,,,,,,,,,,,,,,,,,,,,,1,terzo,,,,,340.8955,343.1279,1,0,1.7079,,0,14,14,0,1,REAL,FAKE,,,,,,,,,,,,,,,,,
,,,,,,,,,672e1c2422a33b09d7be4701,Spanish,13 or older,"no, only English or Spanish",no,2025-07-24_09h08.17.155,empathy_intonation_perc_control,2024.2.4,Win32,60.97560976,672e1c2422a33b09d7be4701,68817205a84113384fffdfe3,6882300ccade961f6ccf8bfd,,,,,,,,,,,,,1,,,,,,,,,,,,,,,,,,,,,,,,,,,,,,,,,,,,,38,estornudar,,,,,343.1291,344.5646,0,0,0.9176,,0,15,15,37,1,REAL,FAKE,,,,,,,,,,,,,,,,,
,,,,,,,,,672e1c2422a33b09d7be4701,Spanish,13 or older,"no, only English or Spanish",no,2025-07-24_09h08.17.155,empathy_intonation_perc_control,2024.2.4,Win32,60.97560976,672e1c2422a33b09d7be4701,68817205a84113384fffdfe3,6882300ccade961f6ccf8bfd,,,,,,,,,,,,,1,,,,,,,,,,,,,,,,,,,,,,,,,,,,,,,,,,,,,80,hormiga,,,,,344.5656,346.4646,0,0,1.3676,,0,16,16,79,1,REAL,FAKE,,,,,,,,,,,,,,,,,
,,,,,,,,,672e1c2422a33b09d7be4701,Spanish,13 or older,"no, only English or Spanish",no,2025-07-24_09h08.17.155,empathy_intonation_perc_control,2024.2.4,Win32,60.97560976,672e1c2422a33b09d7be4701,68817205a84113384fffdfe3,6882300ccade961f6ccf8bfd,,,,,,,,,,,,,1,,,,,,,,,,,,,,,,,,,,,,,,,,,,,,,,,,,,,14,yunque,,,,,346.4656,348.0142,1,1,1.0174,,0,17,17,13,1,REAL,FAKE,,,,,,,,,,,,,,,,,
,,,,,,,,,672e1c2422a33b09d7be4701,Spanish,13 or older,"no, only English or Spanish",no,2025-07-24_09h08.17.155,empathy_intonation_perc_control,2024.2.4,Win32,60.97560976,672e1c2422a33b09d7be4701,68817205a84113384fffdfe3,6882300ccade961f6ccf8bfd,,,,,,,,,,,,,0,,,,,,,,,,,,,,,,,,,,,,,,,,,,,,,,,,,,,63,esposante,,,,,348.0155,351.0944,0,1,2.5353,,0,18,18,62,1,REAL,FAKE,,,,,,,,,,,,,,,,,
,,,,,,,,,672e1c2422a33b09d7be4701,Spanish,13 or older,"no, only English or Spanish",no,2025-07-24_09h08.17.155,empathy_intonation_perc_control,2024.2.4,Win32,60.97560976,672e1c2422a33b09d7be4701,68817205a84113384fffdfe3,6882300ccade961f6ccf8bfd,,,,,,,,,,,,,0,,,,,,,,,,,,,,,,,,,,,,,,,,,,,,,,,,,,,42,cadallo,,,,,351.0954,352.3971,0,1,0.7672,,0,19,19,41,1,REAL,FAKE,,,,,,,,,,,,,,,,,
,,,,,,,,,672e1c2422a33b09d7be4701,Spanish,13 or older,"no, only English or Spanish",no,2025-07-24_09h08.17.155,empathy_intonation_perc_control,2024.2.4,Win32,60.97560976,672e1c2422a33b09d7be4701,68817205a84113384fffdfe3,6882300ccade961f6ccf8bfd,,,,,,,,,,,,,1,,,,,,,,,,,,,,,,,,,,,,,,,,,,,,,,,,,,,59,besar,,,,,352.3981,353.4806,0,0,0.5503,,0,20,20,58,1,REAL,FAKE,,,,,,,,,,,,,,,,,
,,,,,,,,,672e1c2422a33b09d7be4701,Spanish,13 or older,"no, only English or Spanish",no,2025-07-24_09h08.17.155,empathy_intonation_perc_control,2024.2.4,Win32,60.97560976,672e1c2422a33b09d7be4701,68817205a84113384fffdfe3,6882300ccade961f6ccf8bfd,,,,,,,,,,,,,1,,,,,,,,,,,,,,,,,,,,,,,,,,,,,,,,,,,,,56,musgo,,,,,353.4815,354.8302,0,0,0.8176,,0,21,21,55,1,REAL,FAKE,,,,,,,,,,,,,,,,,
,,,,,,,,,672e1c2422a33b09d7be4701,Spanish,13 or older,"no, only English or Spanish",no,2025-07-24_09h08.17.155,empathy_intonation_perc_control,2024.2.4,Win32,60.97560976,672e1c2422a33b09d7be4701,68817205a84113384fffdfe3,6882300ccade961f6ccf8bfd,,,,,,,,,,,,,1,,,,,,,,,,,,,,,,,,,,,,,,,,,,,,,,,,,,,76,atar,,,,,354.8313,356.094,0,0,0.7249,,0,22,22,75,1,REAL,FAKE,,,,,,,,,,,,,,,,,
,,,,,,,,,672e1c2422a33b09d7be4701,Spanish,13 or older,"no, only English or Spanish",no,2025-07-24_09h08.17.155,empathy_intonation_perc_control,2024.2.4,Win32,60.97560976,672e1c2422a33b09d7be4701,68817205a84113384fffdfe3,6882300ccade961f6ccf8bfd,,,,,,,,,,,,,0,,,,,,,,,,,,,,,,,,,,,,,,,,,,,,,,,,,,,16,abracer,,,,,356.0954,358.3303,0,1,1.7174,,0,23,23,15,1,REAL,FAKE,,,,,,,,,,,,,,,,,
,,,,,,,,,672e1c2422a33b09d7be4701,Spanish,13 or older,"no, only English or Spanish",no,2025-07-24_09h08.17.155,empathy_intonation_perc_control,2024.2.4,Win32,60.97560976,672e1c2422a33b09d7be4701,68817205a84113384fffdfe3,6882300ccade961f6ccf8bfd,,,,,,,,,,,,,0,,,,,,,,,,,,,,,,,,,,,,,,,,,,,,,,,,,,,32,fatacidad,,,,,358.3314,359.9303,0,1,1.0673,,0,24,24,31,1,REAL,FAKE,,,,,,,,,,,,,,,,,
,,,,,,,,,672e1c2422a33b09d7be4701,Spanish,13 or older,"no, only English or Spanish",no,2025-07-24_09h08.17.155,empathy_intonation_perc_control,2024.2.4,Win32,60.97560976,672e1c2422a33b09d7be4701,68817205a84113384fffdfe3,6882300ccade961f6ccf8bfd,,,,,,,,,,,,,1,,,,,,,,,,,,,,,,,,,,,,,,,,,,,,,,,,,,,64,orgulloso,,,,,359.9311,361.4636,0,0,1.0008,,0,25,25,63,1,REAL,FAKE,,,,,,,,,,,,,,,,,
,,,,,,,,,672e1c2422a33b09d7be4701,Spanish,13 or older,"no, only English or Spanish",no,2025-07-24_09h08.17.155,empathy_intonation_perc_control,2024.2.4,Win32,60.97560976,672e1c2422a33b09d7be4701,68817205a84113384fffdfe3,6882300ccade961f6ccf8bfd,,,,,,,,,,,,,1,,,,,,,,,,,,,,,,,,,,,,,,,,,,,,,,,,,,,65,bizcocho,,,,,361.4644,362.9435,0,0,0.9361,,0,26,26,64,1,REAL,FAKE,,,,,,,,,,,,,,,,,
,,,,,,,,,672e1c2422a33b09d7be4701,Spanish,13 or older,"no, only English or Spanish",no,2025-07-24_09h08.17.155,empathy_intonation_perc_control,2024.2.4,Win32,60.97560976,672e1c2422a33b09d7be4701,68817205a84113384fffdfe3,6882300ccade961f6ccf8bfd,,,,,,,,,,,,,1,,,,,,,,,,,,,,,,,,,,,,,,,,,,,,,,,,,,,78,frondoso,,,,,362.9452,364.3936,0,0,0.9143,,0,27,27,77,1,REAL,FAKE,,,,,,,,,,,,,,,,,
,,,,,,,,,672e1c2422a33b09d7be4701,Spanish,13 or older,"no, only English or Spanish",no,2025-07-24_09h08.17.155,empathy_intonation_perc_control,2024.2.4,Win32,60.97560976,672e1c2422a33b09d7be4701,68817205a84113384fffdfe3,6882300ccade961f6ccf8bfd,,,,,,,,,,,,,0,,,,,,,,,,,,,,,,,,,,,,,,,,,,,,,,,,,,,58,plaudir,,,,,364.3946,366.2298,0,1,1.3167,,0,28,28,57,1,REAL,FAKE,,,,,,,,,,,,,,,,,
,,,,,,,,,672e1c2422a33b09d7be4701,Spanish,13 or older,"no, only English or Spanish",no,2025-07-24_09h08.17.155,empathy_intonation_perc_control,2024.2.4,Win32,60.97560976,672e1c2422a33b09d7be4701,68817205a84113384fffdfe3,6882300ccade961f6ccf8bfd,,,,,,,,,,,,,1,,,,,,,,,,,,,,,,,,,,,,,,,,,,,,,,,,,,,67,cabello,,,,,366.2307,368.2796,1,1,1.5181,,0,29,29,66,1,REAL,FAKE,,,,,,,,,,,,,,,,,
,,,,,,,,,672e1c2422a33b09d7be4701,Spanish,13 or older,"no, only English or Spanish",no,2025-07-24_09h08.17.155,empathy_intonation_perc_control,2024.2.4,Win32,60.97560976,672e1c2422a33b09d7be4701,68817205a84113384fffdfe3,6882300ccade961f6ccf8bfd,,,,,,,,,,,,,1,,,,,,,,,,,,,,,,,,,,,,,,,,,,,,,,,,,,,69,engatusar,,,,,368.2805,369.5637,0,0,0.7512,,0,30,30,68,1,REAL,FAKE,,,,,,,,,,,,,,,,,
,,,,,,,,,672e1c2422a33b09d7be4701,Spanish,13 or older,"no, only English or Spanish",no,2025-07-24_09h08.17.155,empathy_intonation_perc_control,2024.2.4,Win32,60.97560976,672e1c2422a33b09d7be4701,68817205a84113384fffdfe3,6882300ccade961f6ccf8bfd,,,,,,,,,,,,,1,,,,,,,,,,,,,,,,,,,,,,,,,,,,,,,,,,,,,13,helar,,,,,369.5648,370.759,0,0,0.6625,,0,31,31,12,1,REAL,FAKE,,,,,,,,,,,,,,,,,
,,,,,,,,,672e1c2422a33b09d7be4701,Spanish,13 or older,"no, only English or Spanish",no,2025-07-24_09h08.17.155,empathy_intonation_perc_control,2024.2.4,Win32,60.97560976,672e1c2422a33b09d7be4701,68817205a84113384fffdfe3,6882300ccade961f6ccf8bfd,,,,,,,,,,,,,0,,,,,,,,,,,,,,,,,,,,,,,,,,,,,,,,,,,,,8,cadeña,,,,,370.7606,372.2431,0,1,0.9557,,0,32,32,7,1,REAL,FAKE,,,,,,,,,,,,,,,,,
,,,,,,,,,672e1c2422a33b09d7be4701,Spanish,13 or older,"no, only English or Spanish",no,2025-07-24_09h08.17.155,empathy_intonation_perc_control,2024.2.4,Win32,60.97560976,672e1c2422a33b09d7be4701,68817205a84113384fffdfe3,6882300ccade961f6ccf8bfd,,,,,,,,,,,,,1,,,,,,,,,,,,,,,,,,,,,,,,,,,,,,,,,,,,,7,pésimo,,,,,372.2445,373.6099,0,0,0.8177,,0,33,33,6,1,REAL,FAKE,,,,,,,,,,,,,,,,,
,,,,,,,,,672e1c2422a33b09d7be4701,Spanish,13 or older,"no, only English or Spanish",no,2025-07-24_09h08.17.155,empathy_intonation_perc_control,2024.2.4,Win32,60.97560976,672e1c2422a33b09d7be4701,68817205a84113384fffdfe3,6882300ccade961f6ccf8bfd,,,,,,,,,,,,,0,,,,,,,,,,,,,,,,,,,,,,,,,,,,,,,,,,,,,35,rompido,,,,,373.6109,375.7794,0,1,1.6341,,0,34,34,34,1,REAL,FAKE,,,,,,,,,,,,,,,,,
,,,,,,,,,672e1c2422a33b09d7be4701,Spanish,13 or older,"no, only English or Spanish",no,2025-07-24_09h08.17.155,empathy_intonation_perc_control,2024.2.4,Win32,60.97560976,672e1c2422a33b09d7be4701,68817205a84113384fffdfe3,6882300ccade961f6ccf8bfd,,,,,,,,,,,,,0,,,,,,,,,,,,,,,,,,,,,,,,,,,,,,,,,,,,,19,brecedad,,,,,375.7804,377.6594,0,1,1.3347,,0,35,35,18,1,REAL,FAKE,,,,,,,,,,,,,,,,,
,,,,,,,,,672e1c2422a33b09d7be4701,Spanish,13 or older,"no, only English or Spanish",no,2025-07-24_09h08.17.155,empathy_intonation_perc_control,2024.2.4,Win32,60.97560976,672e1c2422a33b09d7be4701,68817205a84113384fffdfe3,6882300ccade961f6ccf8bfd,,,,,,,,,,,,,0,,,,,,,,,,,,,,,,,,,,,,,,,,,,,,,,,,,,,23,lampera,,,,,377.6607,384.0787,0,1,5.9004,,0,36,36,22,1,REAL,FAKE,,,,,,,,,,,,,,,,,
,,,,,,,,,672e1c2422a33b09d7be4701,Spanish,13 or older,"no, only English or Spanish",no,2025-07-24_09h08.17.155,empathy_intonation_perc_control,2024.2.4,Win32,60.97560976,672e1c2422a33b09d7be4701,68817205a84113384fffdfe3,6882300ccade961f6ccf8bfd,,,,,,,,,,,,,0,,,,,,,,,,,,,,,,,,,,,,,,,,,,,,,,,,,,,87,grodo,,,,,384.0795,385.3121,0,1,0.7007,,0,37,37,86,1,REAL,FAKE,,,,,,,,,,,,,,,,,
,,,,,,,,,672e1c2422a33b09d7be4701,Spanish,13 or older,"no, only English or Spanish",no,2025-07-24_09h08.17.155,empathy_intonation_perc_control,2024.2.4,Win32,60.97560976,672e1c2422a33b09d7be4701,68817205a84113384fffdfe3,6882300ccade961f6ccf8bfd,,,,,,,,,,,,,1,,,,,,,,,,,,,,,,,,,,,,,,,,,,,,,,,,,,,26,secuestro,,,,,385.313,386.3911,0,0,0.5447,,0,38,38,25,1,REAL,FAKE,,,,,,,,,,,,,,,,,
,,,,,,,,,672e1c2422a33b09d7be4701,Spanish,13 or older,"no, only English or Spanish",no,2025-07-24_09h08.17.155,empathy_intonation_perc_control,2024.2.4,Win32,60.97560976,672e1c2422a33b09d7be4701,68817205a84113384fffdfe3,6882300ccade961f6ccf8bfd,,,,,,,,,,,,,0,,,,,,,,,,,,,,,,,,,,,,,,,,,,,,,,,,,,,72,pemición,,,,,386.3929,389.0585,0,1,2.1262,,0,39,39,71,1,REAL,FAKE,,,,,,,,,,,,,,,,,
,,,,,,,,,672e1c2422a33b09d7be4701,Spanish,13 or older,"no, only English or Spanish",no,2025-07-24_09h08.17.155,empathy_intonation_perc_control,2024.2.4,Win32,60.97560976,672e1c2422a33b09d7be4701,68817205a84113384fffdfe3,6882300ccade961f6ccf8bfd,,,,,,,,,,,,,1,,,,,,,,,,,,,,,,,,,,,,,,,,,,,,,,,,,,,68,alegre,,,,,389.0597,390.5281,0,0,0.9503,,0,40,40,67,1,REAL,FAKE,,,,,,,,,,,,,,,,,
,,,,,,,,,672e1c2422a33b09d7be4701,Spanish,13 or older,"no, only English or Spanish",no,2025-07-24_09h08.17.155,empathy_intonation_perc_control,2024.2.4,Win32,60.97560976,672e1c2422a33b09d7be4701,68817205a84113384fffdfe3,6882300ccade961f6ccf8bfd,,,,,,,,,,,,,0,,,,,,,,,,,,,,,,,,,,,,,,,,,,,,,,,,,,,66,hacido,,,,,390.529,392.0419,0,1,0.9745,,0,41,41,65,1,REAL,FAKE,,,,,,,,,,,,,,,,,
,,,,,,,,,672e1c2422a33b09d7be4701,Spanish,13 or older,"no, only English or Spanish",no,2025-07-24_09h08.17.155,empathy_intonation_perc_control,2024.2.4,Win32,60.97560976,672e1c2422a33b09d7be4701,68817205a84113384fffdfe3,6882300ccade961f6ccf8bfd,,,,,,,,,,,,,0,,,,,,,,,,,,,,,,,,,,,,,,,,,,,,,,,,,,,4,batillón,,,,,392.0431,393.7415,0,1,1.1608,,0,42,42,3,1,REAL,FAKE,,,,,,,,,,,,,,,,,
,,,,,,,,,672e1c2422a33b09d7be4701,Spanish,13 or older,"no, only English or Spanish",no,2025-07-24_09h08.17.155,empathy_intonation_perc_control,2024.2.4,Win32,60.97560976,672e1c2422a33b09d7be4701,68817205a84113384fffdfe3,6882300ccade961f6ccf8bfd,,,,,,,,,,,,,1,,,,,,,,,,,,,,,,,,,,,,,,,,,,,,,,,,,,,11,cenefa,,,,,393.7428,394.8278,0,0,0.5671,,0,43,43,10,1,REAL,FAKE,,,,,,,,,,,,,,,,,
,,,,,,,,,672e1c2422a33b09d7be4701,Spanish,13 or older,"no, only English or Spanish",no,2025-07-24_09h08.17.155,empathy_intonation_perc_control,2024.2.4,Win32,60.97560976,672e1c2422a33b09d7be4701,68817205a84113384fffdfe3,6882300ccade961f6ccf8bfd,,,,,,,,,,,,,1,,,,,,,,,,,,,,,,,,,,,,,,,,,,,,,,,,,,,36,loro,,,,,394.8289,396.124,0,0,0.7625,,0,44,44,35,1,REAL,FAKE,,,,,,,,,,,,,,,,,
,,,,,,,,,672e1c2422a33b09d7be4701,Spanish,13 or older,"no, only English or Spanish",no,2025-07-24_09h08.17.155,empathy_intonation_perc_control,2024.2.4,Win32,60.97560976,672e1c2422a33b09d7be4701,68817205a84113384fffdfe3,6882300ccade961f6ccf8bfd,,,,,,,,,,,,,1,,,,,,,,,,,,,,,,,,,,,,,,,,,,,,,,,,,,,45,jilguero,,,,,396.1254,397.8083,0,0,1.1535,,0,45,45,44,1,REAL,FAKE,,,,,,,,,,,,,,,,,
,,,,,,,,,672e1c2422a33b09d7be4701,Spanish,13 or older,"no, only English or Spanish",no,2025-07-24_09h08.17.155,empathy_intonation_perc_control,2024.2.4,Win32,60.97560976,672e1c2422a33b09d7be4701,68817205a84113384fffdfe3,6882300ccade961f6ccf8bfd,,,,,,,,,,,,,1,,,,,,,,,,,,,,,,,,,,,,,,,,,,,,,,,,,,,41,rebuscar,,,,,397.8097,399.1107,0,0,0.7836,,0,46,46,40,1,REAL,FAKE,,,,,,,,,,,,,,,,,
,,,,,,,,,672e1c2422a33b09d7be4701,Spanish,13 or older,"no, only English or Spanish",no,2025-07-24_09h08.17.155,empathy_intonation_perc_control,2024.2.4,Win32,60.97560976,672e1c2422a33b09d7be4701,68817205a84113384fffdfe3,6882300ccade961f6ccf8bfd,,,,,,,,,,,,,1,,,,,,,,,,,,,,,,,,,,,,,,,,,,,,,,,,,,,12,asesinato,,,,,399.1118,401.5107,0,0,1.8669,,0,47,47,11,1,REAL,FAKE,,,,,,,,,,,,,,,,,
,,,,,,,,,672e1c2422a33b09d7be4701,Spanish,13 or older,"no, only English or Spanish",no,2025-07-24_09h08.17.155,empathy_intonation_perc_control,2024.2.4,Win32,60.97560976,672e1c2422a33b09d7be4701,68817205a84113384fffdfe3,6882300ccade961f6ccf8bfd,,,,,,,,,,,,,1,,,,,,,,,,,,,,,,,,,,,,,,,,,,,,,,,,,,,34,aviso,,,,,401.5116,403.5109,1,1,1.4672,,0,48,48,33,1,REAL,FAKE,,,,,,,,,,,,,,,,,
,,,,,,,,,672e1c2422a33b09d7be4701,Spanish,13 or older,"no, only English or Spanish",no,2025-07-24_09h08.17.155,empathy_intonation_perc_control,2024.2.4,Win32,60.97560976,672e1c2422a33b09d7be4701,68817205a84113384fffdfe3,6882300ccade961f6ccf8bfd,,,,,,,,,,,,,1,,,,,,,,,,,,,,,,,,,,,,,,,,,,,,,,,,,,,46,martillo,,,,,403.5118,404.7274,0,0,0.6838,,0,49,49,45,1,REAL,FAKE,,,,,,,,,,,,,,,,,
,,,,,,,,,672e1c2422a33b09d7be4701,Spanish,13 or older,"no, only English or Spanish",no,2025-07-24_09h08.17.155,empathy_intonation_perc_control,2024.2.4,Win32,60.97560976,672e1c2422a33b09d7be4701,68817205a84113384fffdfe3,6882300ccade961f6ccf8bfd,,,,,,,,,,,,,1,,,,,,,,,,,,,,,,,,,,,,,,,,,,,,,,,,,,,90,clavel,,,,,404.7283,406.1103,0,0,0.8502,,0,50,50,89,1,REAL,FAKE,,,,,,,,,,,,,,,,,
,,,,,,,,,672e1c2422a33b09d7be4701,Spanish,13 or older,"no, only English or Spanish",no,2025-07-24_09h08.17.155,empathy_intonation_perc_control,2024.2.4,Win32,60.97560976,672e1c2422a33b09d7be4701,68817205a84113384fffdfe3,6882300ccade961f6ccf8bfd,,,,,,,,,,,,,1,,,,,,,,,,,,,,,,,,,,,,,,,,,,,,,,,,,,,81,pozo,,,,,406.1115,407.2742,0,0,0.6203,,0,51,51,80,1,REAL,FAKE,,,,,,,,,,,,,,,,,
,,,,,,,,,672e1c2422a33b09d7be4701,Spanish,13 or older,"no, only English or Spanish",no,2025-07-24_09h08.17.155,empathy_intonation_perc_control,2024.2.4,Win32,60.97560976,672e1c2422a33b09d7be4701,68817205a84113384fffdfe3,6882300ccade961f6ccf8bfd,,,,,,,,,,,,,0,,,,,,,,,,,,,,,,,,,,,,,,,,,,,,,,,,,,,53,vegada,,,,,407.2756,409.0272,0,1,1.217,,0,52,52,52,1,REAL,FAKE,,,,,,,,,,,,,,,,,
,,,,,,,,,672e1c2422a33b09d7be4701,Spanish,13 or older,"no, only English or Spanish",no,2025-07-24_09h08.17.155,empathy_intonation_perc_control,2024.2.4,Win32,60.97560976,672e1c2422a33b09d7be4701,68817205a84113384fffdfe3,6882300ccade961f6ccf8bfd,,,,,,,,,,,,,0,,,,,,,,,,,,,,,,,,,,,,,,,,,,,,,,,,,,,47,cartinar,,,,,409.0282,410.6909,0,1,1.1248,,0,53,53,46,1,REAL,FAKE,,,,,,,,,,,,,,,,,
,,,,,,,,,672e1c2422a33b09d7be4701,Spanish,13 or older,"no, only English or Spanish",no,2025-07-24_09h08.17.155,empathy_intonation_perc_control,2024.2.4,Win32,60.97560976,672e1c2422a33b09d7be4701,68817205a84113384fffdfe3,6882300ccade961f6ccf8bfd,,,,,,,,,,,,,1,,,,,,,,,,,,,,,,,,,,,,,,,,,,,,,,,,,,,24,látigo,,,,,410.6924,412.1433,0,0,0.917,,0,54,54,23,1,REAL,FAKE,,,,,,,,,,,,,,,,,
,,,,,,,,,672e1c2422a33b09d7be4701,Spanish,13 or older,"no, only English or Spanish",no,2025-07-24_09h08.17.155,empathy_intonation_perc_control,2024.2.4,Win32,60.97560976,672e1c2422a33b09d7be4701,68817205a84113384fffdfe3,6882300ccade961f6ccf8bfd,,,,,,,,,,,,,0,,,,,,,,,,,,,,,,,,,,,,,,,,,,,,,,,,,,,29,decar,,,,,412.1444,413.7906,0,1,1.1051,,0,55,55,28,1,REAL,FAKE,,,,,,,,,,,,,,,,,
,,,,,,,,,672e1c2422a33b09d7be4701,Spanish,13 or older,"no, only English or Spanish",no,2025-07-24_09h08.17.155,empathy_intonation_perc_control,2024.2.4,Win32,60.97560976,672e1c2422a33b09d7be4701,68817205a84113384fffdfe3,6882300ccade961f6ccf8bfd,,,,,,,,,,,,,1,,,,,,,,,,,,,,,,,,,,,,,,,,,,,,,,,,,,,6,tergiversar,,,,,413.7917,415.0895,0,0,0.7785,,0,56,56,5,1,REAL,FAKE,,,,,,,,,,,,,,,,,
,,,,,,,,,672e1c2422a33b09d7be4701,Spanish,13 or older,"no, only English or Spanish",no,2025-07-24_09h08.17.155,empathy_intonation_perc_control,2024.2.4,Win32,60.97560976,672e1c2422a33b09d7be4701,68817205a84113384fffdfe3,6882300ccade961f6ccf8bfd,,,,,,,,,,,,,0,,,,,,,,,,,,,,,,,,,,,,,,,,,,,,,,,,,,,33,pauca,,,,,415.0909,416.6239,0,1,1.0033,,0,57,57,32,1,REAL,FAKE,,,,,,,,,,,,,,,,,
,,,,,,,,,672e1c2422a33b09d7be4701,Spanish,13 or older,"no, only English or Spanish",no,2025-07-24_09h08.17.155,empathy_intonation_perc_control,2024.2.4,Win32,60.97560976,672e1c2422a33b09d7be4701,68817205a84113384fffdfe3,6882300ccade961f6ccf8bfd,,,,,,,,,,,,,1,,,,,,,,,,,,,,,,,,,,,,,,,,,,,,,,,,,,,85,laúd,,,,,416.6256,417.7737,0,0,0.6186,,0,58,58,84,1,REAL,FAKE,,,,,,,,,,,,,,,,,
,,,,,,,,,672e1c2422a33b09d7be4701,Spanish,13 or older,"no, only English or Spanish",no,2025-07-24_09h08.17.155,empathy_intonation_perc_control,2024.2.4,Win32,60.97560976,672e1c2422a33b09d7be4701,68817205a84113384fffdfe3,6882300ccade961f6ccf8bfd,,,,,,,,,,,,,0,,,,,,,,,,,,,,,,,,,,,,,,,,,,,,,,,,,,,92,click the 0 key.,,,,,417.7754,419.9235,0,1,1.6034,,0,59,59,91,1,REAL,FAKE,,,,,,,,,,,,,,,,,
,,,,,,,,,672e1c2422a33b09d7be4701,Spanish,13 or older,"no, only English or Spanish",no,2025-07-24_09h08.17.155,empathy_intonation_perc_control,2024.2.4,Win32,60.97560976,672e1c2422a33b09d7be4701,68817205a84113384fffdfe3,6882300ccade961f6ccf8bfd,,,,,,,,,,,,,1,,,,,,,,,,,,,,,,,,,,,,,,,,,,,,,,,,,,,5,zapato,,,,,419.9249,421.7568,1,1,1.2919,,0,60,60,4,1,REAL,FAKE,,,,,,,,,,,,,,,,,
,,,,,,,,,672e1c2422a33b09d7be4701,Spanish,13 or older,"no, only English or Spanish",no,2025-07-24_09h08.17.155,empathy_intonation_perc_control,2024.2.4,Win32,60.97560976,672e1c2422a33b09d7be4701,68817205a84113384fffdfe3,6882300ccade961f6ccf8bfd,,,,,,,,,,,,,1,,,,,,,,,,,,,,,,,,,,,,,,,,,,,,,,,,,,,73,hervidor,,,,,421.758,423.0599,0,0,0.7675,,0,61,61,72,1,REAL,FAKE,,,,,,,,,,,,,,,,,
,,,,,,,,,672e1c2422a33b09d7be4701,Spanish,13 or older,"no, only English or Spanish",no,2025-07-24_09h08.17.155,empathy_intonation_perc_control,2024.2.4,Win32,60.97560976,672e1c2422a33b09d7be4701,68817205a84113384fffdfe3,6882300ccade961f6ccf8bfd,,,,,,,,,,,,,1,,,,,,,,,,,,,,,,,,,,,,,,,,,,,,,,,,,,,43,canela,,,,,423.0609,425.5095,1,1,1.9172,,0,62,62,42,1,REAL,FAKE,,,,,,,,,,,,,,,,,
,,,,,,,,,672e1c2422a33b09d7be4701,Spanish,13 or older,"no, only English or Spanish",no,2025-07-24_09h08.17.155,empathy_intonation_perc_control,2024.2.4,Win32,60.97560976,672e1c2422a33b09d7be4701,68817205a84113384fffdfe3,6882300ccade961f6ccf8bfd,,,,,,,,,,,,,1,,,,,,,,,,,,,,,,,,,,,,,,,,,,,,,,,,,,,39,torpe,,,,,425.5105,426.8555,0,0,0.8131,,0,63,63,38,1,REAL,FAKE,,,,,,,,,,,,,,,,,
,,,,,,,,,672e1c2422a33b09d7be4701,Spanish,13 or older,"no, only English or Spanish",no,2025-07-24_09h08.17.155,empathy_intonation_perc_control,2024.2.4,Win32,60.97560976,672e1c2422a33b09d7be4701,68817205a84113384fffdfe3,6882300ccade961f6ccf8bfd,,,,,,,,,,,,,1,,,,,,,,,,,,,,,,,,,,,,,,,,,,,,,,,,,,,52,camisa,,,,,426.8571,428.1896,1,1,0.7895,,0,64,64,51,1,REAL,FAKE,,,,,,,,,,,,,,,,,
,,,,,,,,,672e1c2422a33b09d7be4701,Spanish,13 or older,"no, only English or Spanish",no,2025-07-24_09h08.17.155,empathy_intonation_perc_control,2024.2.4,Win32,60.97560976,672e1c2422a33b09d7be4701,68817205a84113384fffdfe3,6882300ccade961f6ccf8bfd,,,,,,,,,,,,,0,,,,,,,,,,,,,,,,,,,,,,,,,,,,,,,,,,,,,84,escuto,,,,,428.1908,429.4225,0,1,0.7088,,0,65,65,83,1,REAL,FAKE,,,,,,,,,,,,,,,,,
,,,,,,,,,672e1c2422a33b09d7be4701,Spanish,13 or older,"no, only English or Spanish",no,2025-07-24_09h08.17.155,empathy_intonation_perc_control,2024.2.4,Win32,60.97560976,672e1c2422a33b09d7be4701,68817205a84113384fffdfe3,6882300ccade961f6ccf8bfd,,,,,,,,,,,,,1,,,,,,,,,,,,,,,,,,,,,,,,,,,,,,,,,,,,,25,bisagra,,,,,429.4238,430.6896,0,0,0.74,,0,66,66,24,1,REAL,FAKE,,,,,,,,,,,,,,,,,
,,,,,,,,,672e1c2422a33b09d7be4701,Spanish,13 or older,"no, only English or Spanish",no,2025-07-24_09h08.17.155,empathy_intonation_perc_control,2024.2.4,Win32,60.97560976,672e1c2422a33b09d7be4701,68817205a84113384fffdfe3,6882300ccade961f6ccf8bfd,,,,,,,,,,,,,1,,,,,,,,,,,,,,,,,,,,,,,,,,,,,,,,,,,,,54,fomentar,,,,,430.6908,432.0258,0,0,0.8169,,0,67,67,53,1,REAL,FAKE,,,,,,,,,,,,,,,,,
,,,,,,,,,672e1c2422a33b09d7be4701,Spanish,13 or older,"no, only English or Spanish",no,2025-07-24_09h08.17.155,empathy_intonation_perc_control,2024.2.4,Win32,60.97560976,672e1c2422a33b09d7be4701,68817205a84113384fffdfe3,6882300ccade961f6ccf8bfd,,,,,,,,,,,,,0,,,,,,,,,,,,,,,,,,,,,,,,,,,,,,,,,,,,,21,capillo,,,,,432.0268,433.5224,0,1,0.9508,,0,68,68,20,1,REAL,FAKE,,,,,,,,,,,,,,,,,
,,,,,,,,,672e1c2422a33b09d7be4701,Spanish,13 or older,"no, only English or Spanish",no,2025-07-24_09h08.17.155,empathy_intonation_perc_control,2024.2.4,Win32,60.97560976,672e1c2422a33b09d7be4701,68817205a84113384fffdfe3,6882300ccade961f6ccf8bfd,,,,,,,,,,,,,0,,,,,,,,,,,,,,,,,,,,,,,,,,,,,,,,,,,,,10,antar,,,,,433.5235,435.0423,1,0,1.0005,,0,69,69,9,1,REAL,FAKE,,,,,,,,,,,,,,,,,
,,,,,,,,,672e1c2422a33b09d7be4701,Spanish,13 or older,"no, only English or Spanish",no,2025-07-24_09h08.17.155,empathy_intonation_perc_control,2024.2.4,Win32,60.97560976,672e1c2422a33b09d7be4701,68817205a84113384fffdfe3,6882300ccade961f6ccf8bfd,,,,,,,,,,,,,1,,,,,,,,,,,,,,,,,,,,,,,,,,,,,,,,,,,,,88,acantilado,,,,,435.0433,436.9256,0,0,1.3504,,0,70,70,87,1,REAL,FAKE,,,,,,,,,,,,,,,,,
,,,,,,,,,672e1c2422a33b09d7be4701,Spanish,13 or older,"no, only English or Spanish",no,2025-07-24_09h08.17.155,empathy_intonation_perc_control,2024.2.4,Win32,60.97560976,672e1c2422a33b09d7be4701,68817205a84113384fffdfe3,6882300ccade961f6ccf8bfd,,,,,,,,,,,,,1,,,,,,,,,,,,,,,,,,,,,,,,,,,,,,,,,,,,,37,granuja,,,,,436.9266,438.4556,0,0,0.9833,,0,71,71,36,1,REAL,FAKE,,,,,,,,,,,,,,,,,
,,,,,,,,,672e1c2422a33b09d7be4701,Spanish,13 or older,"no, only English or Spanish",no,2025-07-24_09h08.17.155,empathy_intonation_perc_control,2024.2.4,Win32,60.97560976,672e1c2422a33b09d7be4701,68817205a84113384fffdfe3,6882300ccade961f6ccf8bfd,,,,,,,,,,,,,1,,,,,,,,,,,,,,,,,,,,,,,,,,,,,,,,,,,,,49,ganar,,,,,438.4567,439.6587,1,1,0.6843,,0,72,72,48,1,REAL,FAKE,,,,,,,,,,,,,,,,,
,,,,,,,,,672e1c2422a33b09d7be4701,Spanish,13 or older,"no, only English or Spanish",no,2025-07-24_09h08.17.155,empathy_intonation_perc_control,2024.2.4,Win32,60.97560976,672e1c2422a33b09d7be4701,68817205a84113384fffdfe3,6882300ccade961f6ccf8bfd,,,,,,,,,,,,,0,,,,,,,,,,,,,,,,,,,,,,,,,,,,,,,,,,,,,79,tropaje,,,,,439.6597,441.1221,0,1,0.9208,,0,73,73,78,1,REAL,FAKE,,,,,,,,,,,,,,,,,
,,,,,,,,,672e1c2422a33b09d7be4701,Spanish,13 or older,"no, only English or Spanish",no,2025-07-24_09h08.17.155,empathy_intonation_perc_control,2024.2.4,Win32,60.97560976,672e1c2422a33b09d7be4701,68817205a84113384fffdfe3,6882300ccade961f6ccf8bfd,,,,,,,,,,,,,1,,,,,,,,,,,,,,,,,,,,,,,,,,,,,,,,,,,,,40,alfombra,,,,,441.1234,442.6752,1,1,1.018,,0,74,74,39,1,REAL,FAKE,,,,,,,,,,,,,,,,,
,,,,,,,,,672e1c2422a33b09d7be4701,Spanish,13 or older,"no, only English or Spanish",no,2025-07-24_09h08.17.155,empathy_intonation_perc_control,2024.2.4,Win32,60.97560976,672e1c2422a33b09d7be4701,68817205a84113384fffdfe3,6882300ccade961f6ccf8bfd,,,,,,,,,,,,,1,,,,,,,,,,,,,,,,,,,,,,,,,,,,,,,,,,,,,28,merodear,,,,,442.6762,444.3053,0,0,1.0901,,0,75,75,27,1,REAL,FAKE,,,,,,,,,,,,,,,,,
,,,,,,,,,672e1c2422a33b09d7be4701,Spanish,13 or older,"no, only English or Spanish",no,2025-07-24_09h08.17.155,empathy_intonation_perc_control,2024.2.4,Win32,60.97560976,672e1c2422a33b09d7be4701,68817205a84113384fffdfe3,6882300ccade961f6ccf8bfd,,,,,,,,,,,,,1,,,,,,,,,,,,,,,,,,,,,,,,,,,,,,,,,,,,,62,flaco,,,,,444.3064,445.8218,1,1,0.9866,,0,76,76,61,1,REAL,FAKE,,,,,,,,,,,,,,,,,
,,,,,,,,,672e1c2422a33b09d7be4701,Spanish,13 or older,"no, only English or Spanish",no,2025-07-24_09h08.17.155,empathy_intonation_perc_control,2024.2.4,Win32,60.97560976,672e1c2422a33b09d7be4701,68817205a84113384fffdfe3,6882300ccade961f6ccf8bfd,,,,,,,,,,,,,1,,,,,,,,,,,,,,,,,,,,,,,,,,,,,,,,,,,,,77,tiburón,,,,,445.8236,447.3719,0,0,1.0228,,0,77,77,76,1,REAL,FAKE,,,,,,,,,,,,,,,,,
,,,,,,,,,672e1c2422a33b09d7be4701,Spanish,13 or older,"no, only English or Spanish",no,2025-07-24_09h08.17.155,empathy_intonation_perc_control,2024.2.4,Win32,60.97560976,672e1c2422a33b09d7be4701,68817205a84113384fffdfe3,6882300ccade961f6ccf8bfd,,,,,,,,,,,,,1,,,,,,,,,,,,,,,,,,,,,,,,,,,,,,,,,,,,,57,tacaño,,,,,447.3731,449.5708,0,0,1.6791,,0,78,78,56,1,REAL,FAKE,,,,,,,,,,,,,,,,,
,,,,,,,,,672e1c2422a33b09d7be4701,Spanish,13 or older,"no, only English or Spanish",no,2025-07-24_09h08.17.155,empathy_intonation_perc_control,2024.2.4,Win32,60.97560976,672e1c2422a33b09d7be4701,68817205a84113384fffdfe3,6882300ccade961f6ccf8bfd,,,,,,,,,,,,,1,,,,,,,,,,,,,,,,,,,,,,,,,,,,,,,,,,,,,60,matar,,,,,449.5724,451.0716,0,0,0.9535,,0,79,79,59,1,REAL,FAKE,,,,,,,,,,,,,,,,,
,,,,,,,,,672e1c2422a33b09d7be4701,Spanish,13 or older,"no, only English or Spanish",no,2025-07-24_09h08.17.155,empathy_intonation_perc_control,2024.2.4,Win32,60.97560976,672e1c2422a33b09d7be4701,68817205a84113384fffdfe3,6882300ccade961f6ccf8bfd,,,,,,,,,,,,,1,,,,,,,,,,,,,,,,,,,,,,,,,,,,,,,,,,,,,15,regar,,,,,451.0727,452.4743,0,0,0.8838,,0,80,80,14,1,REAL,FAKE,,,,,,,,,,,,,,,,,
,,,,,,,,,672e1c2422a33b09d7be4701,Spanish,13 or older,"no, only English or Spanish",no,2025-07-24_09h08.17.155,empathy_intonation_perc_control,2024.2.4,Win32,60.97560976,672e1c2422a33b09d7be4701,68817205a84113384fffdfe3,6882300ccade961f6ccf8bfd,,,,,,,,,,,,,0,,,,,,,,,,,,,,,,,,,,,,,,,,,,,,,,,,,,,27,acutación,,,,,452.4752,454.3743,0,1,1.3674,,0,81,81,26,1,REAL,FAKE,,,,,,,,,,,,,,,,,
,,,,,,,,,672e1c2422a33b09d7be4701,Spanish,13 or older,"no, only English or Spanish",no,2025-07-24_09h08.17.155,empathy_intonation_perc_control,2024.2.4,Win32,60.97560976,672e1c2422a33b09d7be4701,68817205a84113384fffdfe3,6882300ccade961f6ccf8bfd,,,,,,,,,,,,,0,,,,,,,,,,,,,,,,,,,,,,,,,,,,,,,,,,,,,50,flamida,,,,,454.3753,456.1871,0,1,1.2793,,0,82,82,49,1,REAL,FAKE,,,,,,,,,,,,,,,,,
,,,,,,,,,672e1c2422a33b09d7be4701,Spanish,13 or older,"no, only English or Spanish",no,2025-07-24_09h08.17.155,empathy_intonation_perc_control,2024.2.4,Win32,60.97560976,672e1c2422a33b09d7be4701,68817205a84113384fffdfe3,6882300ccade961f6ccf8bfd,,,,,,,,,,,,,1,,,,,,,,,,,,,,,,,,,,,,,,,,,,,,,,,,,,,61,seda,,,,,456.1884,457.588,1,1,0.8678,,0,83,83,60,1,REAL,FAKE,,,,,,,,,,,,,,,,,
,,,,,,,,,672e1c2422a33b09d7be4701,Spanish,13 or older,"no, only English or Spanish",no,2025-07-24_09h08.17.155,empathy_intonation_perc_control,2024.2.4,Win32,60.97560976,672e1c2422a33b09d7be4701,68817205a84113384fffdfe3,6882300ccade961f6ccf8bfd,,,,,,,,,,,,,1,,,,,,,,,,,,,,,,,,,,,,,,,,,,,,,,,,,,,51,candado,,,,,457.5892,459.174,1,1,1.0506,,0,84,84,50,1,REAL,FAKE,,,,,,,,,,,,,,,,,
,,,,,,,,,672e1c2422a33b09d7be4701,Spanish,13 or older,"no, only English or Spanish",no,2025-07-24_09h08.17.155,empathy_intonation_perc_control,2024.2.4,Win32,60.97560976,672e1c2422a33b09d7be4701,68817205a84113384fffdfe3,6882300ccade961f6ccf8bfd,,,,,,,,,,,,,1,,,,,,,,,,,,,,,,,,,,,,,,,,,,,,,,,,,,,55,nevar,,,,,459.1749,460.7075,0,0,1.0007,,0,85,85,54,1,REAL,FAKE,,,,,,,,,,,,,,,,,
,,,,,,,,,672e1c2422a33b09d7be4701,Spanish,13 or older,"no, only English or Spanish",no,2025-07-24_09h08.17.155,empathy_intonation_perc_control,2024.2.4,Win32,60.97560976,672e1c2422a33b09d7be4701,68817205a84113384fffdfe3,6882300ccade961f6ccf8bfd,,,,,,,,,,,,,0,,,,,,,,,,,,,,,,,,,,,,,,,,,,,,,,,,,,,74,cintro,,,,,460.7084,462.5736,0,1,1.3337,,0,86,86,73,1,REAL,FAKE,,,,,,,,,,,,,,,,,
,,,,,,,,,672e1c2422a33b09d7be4701,Spanish,13 or older,"no, only English or Spanish",no,2025-07-24_09h08.17.155,empathy_intonation_perc_control,2024.2.4,Win32,60.97560976,672e1c2422a33b09d7be4701,68817205a84113384fffdfe3,6882300ccade961f6ccf8bfd,,,,,,,,,,,,,1,,,,,,,,,,,,,,,,,,,,,,,,,,,,,,,,,,,,,91,click the 1 key.,,,,,462.5751,464.457,1,1,1.3506,,0,87,87,90,1,REAL,FAKE,,,,,,,,,,,,,,,,,
,,,,,,,,,672e1c2422a33b09d7be4701,Spanish,13 or older,"no, only English or Spanish",no,2025-07-24_09h08.17.155,empathy_intonation_perc_control,2024.2.4,Win32,60.97560976,672e1c2422a33b09d7be4701,68817205a84113384fffdfe3,6882300ccade961f6ccf8bfd,,,,,,,,,,,,,1,,,,,,,,,,,,,,,,,,,,,,,,,,,,,,,,,,,,,44,cuchara,,,,,464.4581,466.7706,1,1,1.7768,,0,88,88,43,1,REAL,FAKE,,,,,,,,,,,,,,,,,
,,,,,,,,,672e1c2422a33b09d7be4701,Spanish,13 or older,"no, only English or Spanish",no,2025-07-24_09h08.17.155,empathy_intonation_perc_control,2024.2.4,Win32,60.97560976,672e1c2422a33b09d7be4701,68817205a84113384fffdfe3,6882300ccade961f6ccf8bfd,,,,,,,,,,,,,1,,,,,,,,,,,,,,,,,,,,,,,,,,,,,,,,,,,,,86,barato,,,,,466.772,468.5729,1,1,1.2834,,0,89,89,85,1,REAL,FAKE,,,,,,,,,,,,,,,,,
,,,,,,,,,672e1c2422a33b09d7be4701,Spanish,13 or older,"no, only English or Spanish",no,2025-07-24_09h08.17.155,empathy_intonation_perc_control,2024.2.4,Win32,60.97560976,672e1c2422a33b09d7be4701,68817205a84113384fffdfe3,6882300ccade961f6ccf8bfd,,,,,,,,,,,,,1,,,,,,,,,,,,,,,,,,,,,,,,,,,,,,,,,,,,,48,ladrón,,,,,468.5738,469.9228,0,0,0.8168,,0,90,90,47,1,REAL,FAKE,,,,,,,,,,,,,,,,,
,,,,,,,,,672e1c2422a33b09d7be4701,Spanish,13 or older,"no, only English or Spanish",no,2025-07-24_09h08.17.155,empathy_intonation_perc_control,2024.2.4,Win32,60.97560976,672e1c2422a33b09d7be4701,68817205a84113384fffdfe3,6882300ccade961f6ccf8bfd,,,,,,,,,,,,,0,,,,,,,,,,,,,,,,,,,,,,,,,,,,,,,,,,,,,70,temblo,,,,,469.9243,471.34,0,1,0.884,,0,91,91,69,1,REAL,FAKE,,,,,,,,,,,,,,,,,
,,,,,,,,,672e1c2422a33b09d7be4701,Spanish,13 or older,"no, only English or Spanish",no,2025-07-24_09h08.17.155,empathy_intonation_perc_control,2024.2.4,Win32,60.97560976,672e1c2422a33b09d7be4701,68817205a84113384fffdfe3,6882300ccade961f6ccf8bfd,,,,,,,,,,,,,,,,,,,,,,,,,,,,,,,,,,,,,,,,,,,,,,,,,,,,,,,,,,,,,,,,,,,,,471.3404,477.0067,,,,,,,,,,,,,,,
,,,,,,,,,672e1c2422a33b09d7be4701,Spanish,13 or older,"no, only English or Spanish",no,2025-07-24_09h08.17.155,empathy_intonation_perc_control,2024.2.4,Win32,60.97560976,672e1c2422a33b09d7be4701,68817205a84113384fffdfe3,6882300ccade961f6ccf8bfd,,,,,,,,,,,,,,,,,,,,,,,,,,,1,,,,,,,,,,,,,,,,,,,,,,,,,,,,,,,,,,,,,,,,,,,,477.0144,480.3568,strongly agree,0,0,0,0,1,I can easily tell if someone else wants to enter a conversation.,1,0,1,0,,
,,,,,,,,,672e1c2422a33b09d7be4701,Spanish,13 or older,"no, only English or Spanish",no,2025-07-24_09h08.17.155,empathy_intonation_perc_control,2024.2.4,Win32,60.97560976,672e1c2422a33b09d7be4701,68817205a84113384fffdfe3,6882300ccade961f6ccf8bfd,,,,,,,,,,,,,,,,,,,,,,,,,,,2,,,,,,,,,,,,,,,,,,,,,,,,,,,,,,,,,,,,,,,,,,,,480.3578,486.5019,slightly agree,0,1,1,1,1,I prefer animals to humans.,0,1,0,0,,
,,,,,,,,,672e1c2422a33b09d7be4701,Spanish,13 or older,"no, only English or Spanish",no,2025-07-24_09h08.17.155,empathy_intonation_perc_control,2024.2.4,Win32,60.97560976,672e1c2422a33b09d7be4701,68817205a84113384fffdfe3,6882300ccade961f6ccf8bfd,,,,,,,,,,,,,,,,,,,,,,,,,,,3,,,,,,,,,,,,,,,,,,,,,,,,,,,,,,,,,,,,,,,,,,,,486.5038,488.3723,slightly agree,0,2,2,2,1,I try to keep up with the current trends and fashions.,0,1,0,0,,
,,,,,,,,,672e1c2422a33b09d7be4701,Spanish,13 or older,"no, only English or Spanish",no,2025-07-24_09h08.17.155,empathy_intonation_perc_control,2024.2.4,Win32,60.97560976,672e1c2422a33b09d7be4701,68817205a84113384fffdfe3,6882300ccade961f6ccf8bfd,,,,,,,,,,,,,,,,,,,,,,,,,,,4,,,,,,,,,,,,,,,,,,,,,,,,,,,,,,,,,,,,,,,,,,,,488.3739,491.7692,strongly agree,0,3,3,3,1,"I find it difficult to explain to others things that I understand easily,   when they don't understand it first time.",1,0,0,1,,
,,,,,,,,,672e1c2422a33b09d7be4701,Spanish,13 or older,"no, only English or Spanish",no,2025-07-24_09h08.17.155,empathy_intonation_perc_control,2024.2.4,Win32,60.97560976,672e1c2422a33b09d7be4701,68817205a84113384fffdfe3,6882300ccade961f6ccf8bfd,,,,,,,,,,,,,,,,,,,,,,,,,,,5,,,,,,,,,,,,,,,,,,,,,,,,,,,,,,,,,,,,,,,,,,,,491.7707,501.0854,strongly disagree,0,4,4,4,1,I dream most nights.,0,1,0,0,,
,,,,,,,,,672e1c2422a33b09d7be4701,Spanish,13 or older,"no, only English or Spanish",no,2025-07-24_09h08.17.155,empathy_intonation_perc_control,2024.2.4,Win32,60.97560976,672e1c2422a33b09d7be4701,68817205a84113384fffdfe3,6882300ccade961f6ccf8bfd,,,,,,,,,,,,,,,,,,,,,,,,,,,6,,,,,,,,,,,,,,,,,,,,,,,,,,,,,,,,,,,,,,,,,,,,501.0873,504.3017,slightly agree,0,5,5,5,1,I really enjoy caring for other people.,1,0,1,0,,
,,,,,,,,,672e1c2422a33b09d7be4701,Spanish,13 or older,"no, only English or Spanish",no,2025-07-24_09h08.17.155,empathy_intonation_perc_control,2024.2.4,Win32,60.97560976,672e1c2422a33b09d7be4701,68817205a84113384fffdfe3,6882300ccade961f6ccf8bfd,,,,,,,,,,,,,,,,,,,,,,,,,,,7,,,,,,,,,,,,,,,,,,,,,,,,,,,,,,,,,,,,,,,,,,,,504.3031,508.7517,strongly agree,0,6,6,6,1,I try to solve my own problems rather than discussing them with others.,0,1,0,0,,
,,,,,,,,,672e1c2422a33b09d7be4701,Spanish,13 or older,"no, only English or Spanish",no,2025-07-24_09h08.17.155,empathy_intonation_perc_control,2024.2.4,Win32,60.97560976,672e1c2422a33b09d7be4701,68817205a84113384fffdfe3,6882300ccade961f6ccf8bfd,,,,,,,,,,,,,,,,,,,,,,,,,,,8,,,,,,,,,,,,,,,,,,,,,,,,,,,,,,,,,,,,,,,,,,,,508.7534,513.1513,slightly disagree,0,7,7,7,1,I find it hard to know what to do in a social situation.,1,0,0,1,,
,,,,,,,,,672e1c2422a33b09d7be4701,Spanish,13 or older,"no, only English or Spanish",no,2025-07-24_09h08.17.155,empathy_intonation_perc_control,2024.2.4,Win32,60.97560976,672e1c2422a33b09d7be4701,68817205a84113384fffdfe3,6882300ccade961f6ccf8bfd,,,,,,,,,,,,,,,,,,,,,,,,,,,9,,,,,,,,,,,,,,,,,,,,,,,,,,,,,,,,,,,,,,,,,,,,513.1532,515.9196,slightly disagree,0,8,8,8,1,I am at my best first thing in the morning.,0,1,0,0,,
,,,,,,,,,672e1c2422a33b09d7be4701,Spanish,13 or older,"no, only English or Spanish",no,2025-07-24_09h08.17.155,empathy_intonation_perc_control,2024.2.4,Win32,60.97560976,672e1c2422a33b09d7be4701,68817205a84113384fffdfe3,6882300ccade961f6ccf8bfd,,,,,,,,,,,,,,,,,,,,,,,,,,,10,,,,,,,,,,,,,,,,,,,,,,,,,,,,,,,,,,,,,,,,,,,,515.9211,519.2704,slightly agree,0,9,9,9,1,People often tell me that I went too far in driving my point home in a discussion.,1,0,0,1,,
,,,,,,,,,672e1c2422a33b09d7be4701,Spanish,13 or older,"no, only English or Spanish",no,2025-07-24_09h08.17.155,empathy_intonation_perc_control,2024.2.4,Win32,60.97560976,672e1c2422a33b09d7be4701,68817205a84113384fffdfe3,6882300ccade961f6ccf8bfd,,,,,,,,,,,,,,,,,,,,,,,,,,,11,,,,,,,,,,,,,,,,,,,,,,,,,,,,,,,,,,,,,,,,,,,,519.2716,538.2991,slightly agree,0,10,10,10,1,It doesn't bother me too much if I am late meeting a friend.,1,0,0,1,,
,,,,,,,,,672e1c2422a33b09d7be4701,Spanish,13 or older,"no, only English or Spanish",no,2025-07-24_09h08.17.155,empathy_intonation_perc_control,2024.2.4,Win32,60.97560976,672e1c2422a33b09d7be4701,68817205a84113384fffdfe3,6882300ccade961f6ccf8bfd,,,,,,,,,,,,,,,,,,,,,,,,,,,12,,,,,,,,,,,,,,,,,,,,,,,,,,,,,,,,,,,,,,,,,,,,538.3011,541.2355,strongly disagree,0,11,11,11,1,"Friendships and relationships are just too difficult, so I tend not to 
  bother with them.",1,0,0,1,,
,,,,,,,,,672e1c2422a33b09d7be4701,Spanish,13 or older,"no, only English or Spanish",no,2025-07-24_09h08.17.155,empathy_intonation_perc_control,2024.2.4,Win32,60.97560976,672e1c2422a33b09d7be4701,68817205a84113384fffdfe3,6882300ccade961f6ccf8bfd,,,,,,,,,,,,,,,,,,,,,,,,,,,13,,,,,,,,,,,,,,,,,,,,,,,,,,,,,,,,,,,,,,,,,,,,541.2366,544.4187,strongly disagree,0,12,12,12,1,"I would never break a law, no matter how minor.",0,1,0,0,,
,,,,,,,,,672e1c2422a33b09d7be4701,Spanish,13 or older,"no, only English or Spanish",no,2025-07-24_09h08.17.155,empathy_intonation_perc_control,2024.2.4,Win32,60.97560976,672e1c2422a33b09d7be4701,68817205a84113384fffdfe3,6882300ccade961f6ccf8bfd,,,,,,,,,,,,,,,,,,,,,,,,,,,14,,,,,,,,,,,,,,,,,,,,,,,,,,,,,,,,,,,,,,,,,,,,544.42,548.5519,slightly disagree,0,13,13,13,1,I often find it difficult to judge if something is rude or polite.,1,0,0,1,,
,,,,,,,,,672e1c2422a33b09d7be4701,Spanish,13 or older,"no, only English or Spanish",no,2025-07-24_09h08.17.155,empathy_intonation_perc_control,2024.2.4,Win32,60.97560976,672e1c2422a33b09d7be4701,68817205a84113384fffdfe3,6882300ccade961f6ccf8bfd,,,,,,,,,,,,,,,,,,,,,,,,,,,15,,,,,,,,,,,,,,,,,,,,,,,,,,,,,,,,,,,,,,,,,,,,548.5531,559.415,slightly disagree,0,14,14,14,1,"In a conversation, I tend to focus on my own thoughts rather than on what 
  my listener might be thinking.",1,0,0,1,,
,,,,,,,,,672e1c2422a33b09d7be4701,Spanish,13 or older,"no, only English or Spanish",no,2025-07-24_09h08.17.155,empathy_intonation_perc_control,2024.2.4,Win32,60.97560976,672e1c2422a33b09d7be4701,68817205a84113384fffdfe3,6882300ccade961f6ccf8bfd,,,,,,,,,,,,,,,,,,,,,,,,,,,16,,,,,,,,,,,,,,,,,,,,,,,,,,,,,,,,,,,,,,,,,,,,559.4166,562.6472,slightly agree,0,15,15,15,1,I prefer practical jokes to verbal humor.,0,1,0,0,,
,,,,,,,,,672e1c2422a33b09d7be4701,Spanish,13 or older,"no, only English or Spanish",no,2025-07-24_09h08.17.155,empathy_intonation_perc_control,2024.2.4,Win32,60.97560976,672e1c2422a33b09d7be4701,68817205a84113384fffdfe3,6882300ccade961f6ccf8bfd,,,,,,,,,,,,,,,,,,,,,,,,,,,17,,,,,,,,,,,,,,,,,,,,,,,,,,,,,,,,,,,,,,,,,,,,562.649,567.182,slightly disagree,0,16,16,16,1,I live life for today rather than the future.,0,1,0,0,,
,,,,,,,,,672e1c2422a33b09d7be4701,Spanish,13 or older,"no, only English or Spanish",no,2025-07-24_09h08.17.155,empathy_intonation_perc_control,2024.2.4,Win32,60.97560976,672e1c2422a33b09d7be4701,68817205a84113384fffdfe3,6882300ccade961f6ccf8bfd,,,,,,,,,,,,,,,,,,,,,,,,,,,18,,,,,,,,,,,,,,,,,,,,,,,,,,,,,,,,,,,,,,,,,,,,567.1838,573.5343,strongly disagree,0,17,17,17,1,"When I was a child, I enjoyed cutting up worms to see what would happen.",1,0,0,1,,
,,,,,,,,,672e1c2422a33b09d7be4701,Spanish,13 or older,"no, only English or Spanish",no,2025-07-24_09h08.17.155,empathy_intonation_perc_control,2024.2.4,Win32,60.97560976,672e1c2422a33b09d7be4701,68817205a84113384fffdfe3,6882300ccade961f6ccf8bfd,,,,,,,,,,,,,,,,,,,,,,,,,,,19,,,,,,,,,,,,,,,,,,,,,,,,,,,,,,,,,,,,,,,,,,,,573.5355,578.197,strongly agree,0,18,18,18,1,I can pick up quickly if someone says one thing but means another.,1,0,1,0,,
,,,,,,,,,672e1c2422a33b09d7be4701,Spanish,13 or older,"no, only English or Spanish",no,2025-07-24_09h08.17.155,empathy_intonation_perc_control,2024.2.4,Win32,60.97560976,672e1c2422a33b09d7be4701,68817205a84113384fffdfe3,6882300ccade961f6ccf8bfd,,,,,,,,,,,,,,,,,,,,,,,,,,,20,,,,,,,,,,,,,,,,,,,,,,,,,,,,,,,,,,,,,,,,,,,,578.1984,580.2168,strongly agree,0,19,19,19,1,I tend to have very strong opinions about morality.,0,1,0,0,,
,,,,,,,,,672e1c2422a33b09d7be4701,Spanish,13 or older,"no, only English or Spanish",no,2025-07-24_09h08.17.155,empathy_intonation_perc_control,2024.2.4,Win32,60.97560976,672e1c2422a33b09d7be4701,68817205a84113384fffdfe3,6882300ccade961f6ccf8bfd,,,,,,,,,,,,,,,,,,,,,,,,,,,21,,,,,,,,,,,,,,,,,,,,,,,,,,,,,,,,,,,,,,,,,,,,580.2179,584.6328,strongly disagree,0,20,20,20,1,It is hard for me to see why some things upset people so much.,1,0,0,1,,
,,,,,,,,,672e1c2422a33b09d7be4701,Spanish,13 or older,"no, only English or Spanish",no,2025-07-24_09h08.17.155,empathy_intonation_perc_control,2024.2.4,Win32,60.97560976,672e1c2422a33b09d7be4701,68817205a84113384fffdfe3,6882300ccade961f6ccf8bfd,,,,,,,,,,,,,,,,,,,,,,,,,,,22,,,,,,,,,,,,,,,,,,,,,,,,,,,,,,,,,,,,,,,,,,,,584.634,588.8297,strongly agree,0,21,21,21,1,I find it easy to put myself in somebody else's shoes.,1,0,1,0,,
,,,,,,,,,672e1c2422a33b09d7be4701,Spanish,13 or older,"no, only English or Spanish",no,2025-07-24_09h08.17.155,empathy_intonation_perc_control,2024.2.4,Win32,60.97560976,672e1c2422a33b09d7be4701,68817205a84113384fffdfe3,6882300ccade961f6ccf8bfd,,,,,,,,,,,,,,,,,,,,,,,,,,,23,,,,,,,,,,,,,,,,,,,,,,,,,,,,,,,,,,,,,,,,,,,,588.8314,591.6327,strongly disagree,0,22,22,22,1,I think that good manners are the most important thing a parent can teach their child.,0,1,0,0,,
,,,,,,,,,672e1c2422a33b09d7be4701,Spanish,13 or older,"no, only English or Spanish",no,2025-07-24_09h08.17.155,empathy_intonation_perc_control,2024.2.4,Win32,60.97560976,672e1c2422a33b09d7be4701,68817205a84113384fffdfe3,6882300ccade961f6ccf8bfd,,,,,,,,,,,,,,,,,,,,,,,,,,,24,,,,,,,,,,,,,,,,,,,,,,,,,,,,,,,,,,,,,,,,,,,,591.6339,594.0152,slightly agree,0,23,23,23,1,I like to do things on the spur of the moment.,0,1,0,0,,
,,,,,,,,,672e1c2422a33b09d7be4701,Spanish,13 or older,"no, only English or Spanish",no,2025-07-24_09h08.17.155,empathy_intonation_perc_control,2024.2.4,Win32,60.97560976,672e1c2422a33b09d7be4701,68817205a84113384fffdfe3,6882300ccade961f6ccf8bfd,,,,,,,,,,,,,,,,,,,,,,,,,,,25,,,,,,,,,,,,,,,,,,,,,,,,,,,,,,,,,,,,,,,,,,,,594.0163,595.6459,slightly agree,0,24,24,24,1,I am good at predicting how someone will feel.,1,0,1,0,,
