instructions_2afc.started,instructions_2afc.stopped,instructions_2afc_loop.thisRepN,instructions_2afc_loop.thisTrialN,instructions_2afc_loop.thisN,instructions_2afc_loop.thisIndex,instructions_2afc_loop.ran,instructions_text,continue_text,participant_id,"What variety of Spanish are you most familiar with? (e.g., Peruvian, Spanish, Mexican)",At what age did you begin learning Spanish?,Are you proficient in any languages other than English/Spanish?,"Are you familiar with Caribbean (e.g., Caribbean, Puerto Rican) or Galician Spanish?",date,expName,psychopyVersion,OS,frameRate,id,study_id,session,practice_2afc.started,practice_2afc.stopped,key_resp_2afc_practice.keys,key_resp_2afc_practice.corr,key_resp_2afc_practice.rt,key_resp_2afc_practice.duration,trials_2afc_practice_loop.thisRepN,trials_2afc_practice_loop.thisTrialN,trials_2afc_practice_loop.thisN,trials_2afc_practice_loop.thisIndex,trials_2afc_practice_loop.ran,path,correct_response,check_2afc.started,check_2afc.stopped,trial_2afc.started,trial_2afc.stopped,key_resp_2afc_trial.keys,key_resp_2afc_trial.corr,key_resp_2afc_trial.rt,key_resp_2afc_trial.duration,trials_2afc_loop.thisRepN,trials_2afc_loop.thisTrialN,trials_2afc_loop.thisN,trials_2afc_loop.thisIndex,trials_2afc_loop.ran,item_num,target,variety,instructions_lextale.started,instructions_lextale.stopped,instructions_lextale_loop.thisRepN,instructions_lextale_loop.thisTrialN,instructions_lextale_loop.thisN,instructions_lextale_loop.thisIndex,instructions_lextale_loop.ran,practice_lextale.started,practice_lextale.stopped,key_resp_lextale_practice.keys,key_resp_lextale_practice.corr,key_resp_lextale_practice.rt,key_resp_lextale_practice.duration,practice_feedback_lextale.started,practice_feedback_lextale.stopped,trials_lextale_practice_loop.thisRepN,trials_lextale_practice_loop.thisTrialN,trials_lextale_practice_loop.thisN,trials_lextale_practice_loop.thisIndex,trials_lextale_practice_loop.ran,stim,word,prac_button_real,prac_button_false,check_lextale.started,check_lextale.stopped,trial_lextale.started,trial_lextale.stopped,key_resp_lextale_trial.keys,key_resp_lextale_trial.corr,key_resp_lextale_trial.rt,key_resp_lextale_trial.duration,trials_lextale_loop.thisRepN,trials_lextale_loop.thisTrialN,trials_lextale_loop.thisN,trials_lextale_loop.thisIndex,trials_lextale_loop.ran,button_real,button_false,instructions_eq.started,instructions_eq.stopped,trial_eq.started,trial_eq.stopped,slider_eq_trial.response,trials_eq_loop.thisRepN,trials_eq_loop.thisTrialN,trials_eq_loop.thisN,trials_eq_loop.thisIndex,trials_eq_loop.ran,item,is_test_item,is_distractor,is_agree_score,is_disagree_score,end_exp.started,end_exp.stopped
0.0122,6.4783,0,0,0,0,1,"In the following task you are going to hear a series of utterances. 

  You will decide if the utterances sound like questions or not using your keyboard.", (press the spacebar to continue),6732736f57f1a61ec4a6db24,Spanish,13 or older,"no, only English or Spanish",no,2025-07-24_09h41.05.626,empathy_intonation_perc_control,2024.2.4,MacIntel,59.88023952,6732736f57f1a61ec4a6db24,68817205a84113384fffdfe3,688237a99fcdeda2b31c7e7a,,,,,,,,,,,,,,,,,,,,,,,,,,,,,,,,,,,,,,,,,,,,,,,,,,,,,,,,,,,,,,,,,,,,,,,,,,,,,,,,,,,,,
6.4793,10.8116,0,1,1,1,1,"If you believe the utterance is a question, type '1' (for 'yes') and if you do not 
  believe it is a question type '0' (for 'no').

  Let's practice a bit...", (press the spacebar to continue),6732736f57f1a61ec4a6db24,Spanish,13 or older,"no, only English or Spanish",no,2025-07-24_09h41.05.626,empathy_intonation_perc_control,2024.2.4,MacIntel,59.88023952,6732736f57f1a61ec4a6db24,68817205a84113384fffdfe3,688237a99fcdeda2b31c7e7a,,,,,,,,,,,,,,,,,,,,,,,,,,,,,,,,,,,,,,,,,,,,,,,,,,,,,,,,,,,,,,,,,,,,,,,,,,,,,,,,,,,,,
,,,,,,,,,6732736f57f1a61ec4a6db24,Spanish,13 or older,"no, only English or Spanish",no,2025-07-24_09h41.05.626,empathy_intonation_perc_control,2024.2.4,MacIntel,59.88023952,6732736f57f1a61ec4a6db24,68817205a84113384fffdfe3,688237a99fcdeda2b31c7e7a,10.8223,13.7453,1,1,2.398,,0,0,0,2,1,./stim/wavs/chilean_question_filler_Mi-padre-cantaba-bien.wav,1,,,,,,,,,,,,,,,,,,,,,,,,,,,,,,,,,,,,,,,,,,,,,,,,,,,,,,,,,,,,,,,,,,,,,,,,
,,,,,,,,,6732736f57f1a61ec4a6db24,Spanish,13 or older,"no, only English or Spanish",no,2025-07-24_09h41.05.626,empathy_intonation_perc_control,2024.2.4,MacIntel,59.88023952,6732736f57f1a61ec4a6db24,68817205a84113384fffdfe3,688237a99fcdeda2b31c7e7a,13.7464,16.0116,1,1,1.7321,,0,1,1,3,1,./stim/wavs/mexican_question_filler_Felipe-no-tiene-contrasena.wav,1,,,,,,,,,,,,,,,,,,,,,,,,,,,,,,,,,,,,,,,,,,,,,,,,,,,,,,,,,,,,,,,,,,,,,,,,
,,,,,,,,,6732736f57f1a61ec4a6db24,Spanish,13 or older,"no, only English or Spanish",no,2025-07-24_09h41.05.626,empathy_intonation_perc_control,2024.2.4,MacIntel,59.88023952,6732736f57f1a61ec4a6db24,68817205a84113384fffdfe3,688237a99fcdeda2b31c7e7a,16.0124,18.2777,0,1,1.7331,,0,2,2,7,1,./stim/wavs/puertorican_statement_filler_La-nina-pinta-con-su-amiga.wav,0,,,,,,,,,,,,,,,,,,,,,,,,,,,,,,,,,,,,,,,,,,,,,,,,,,,,,,,,,,,,,,,,,,,,,,,,
,,,,,,,,,6732736f57f1a61ec4a6db24,Spanish,13 or older,"no, only English or Spanish",no,2025-07-24_09h41.05.626,empathy_intonation_perc_control,2024.2.4,MacIntel,59.88023952,6732736f57f1a61ec4a6db24,68817205a84113384fffdfe3,688237a99fcdeda2b31c7e7a,18.2785,20.9779,0,1,2.1642,,0,3,3,6,1,./stim/wavs/peruvian_statement_filler_El-nino-habla-con-su-madre.wav,0,,,,,,,,,,,,,,,,,,,,,,,,,,,,,,,,,,,,,,,,,,,,,,,,,,,,,,,,,,,,,,,,,,,,,,,,
,,,,,,,,,6732736f57f1a61ec4a6db24,Spanish,13 or older,"no, only English or Spanish",no,2025-07-24_09h41.05.626,empathy_intonation_perc_control,2024.2.4,MacIntel,59.88023952,6732736f57f1a61ec4a6db24,68817205a84113384fffdfe3,688237a99fcdeda2b31c7e7a,20.9782,23.3118,0,1,1.8166,,0,4,4,4,1,./stim/wavs/cuban_statement_filler_Cocinabas-por-la-noche.wav,0,,,,,,,,,,,,,,,,,,,,,,,,,,,,,,,,,,,,,,,,,,,,,,,,,,,,,,,,,,,,,,,,,,,,,,,,
,,,,,,,,,6732736f57f1a61ec4a6db24,Spanish,13 or older,"no, only English or Spanish",no,2025-07-24_09h41.05.626,empathy_intonation_perc_control,2024.2.4,MacIntel,59.88023952,6732736f57f1a61ec4a6db24,68817205a84113384fffdfe3,688237a99fcdeda2b31c7e7a,23.3128,25.1451,1,1,1.3005,,0,5,5,1,1,./stim/wavs/argentine_question_filler_Mi-vecino-habla-mucho.wav,1,,,,,,,,,,,,,,,,,,,,,,,,,,,,,,,,,,,,,,,,,,,,,,,,,,,,,,,,,,,,,,,,,,,,,,,,
,,,,,,,,,6732736f57f1a61ec4a6db24,Spanish,13 or older,"no, only English or Spanish",no,2025-07-24_09h41.05.626,empathy_intonation_perc_control,2024.2.4,MacIntel,59.88023952,6732736f57f1a61ec4a6db24,68817205a84113384fffdfe3,688237a99fcdeda2b31c7e7a,25.1459,27.3953,0,1,1.7165,,0,6,6,5,1,./stim/wavs/andalusian_statement_filler_Alberto-nunca-se-afeita.wav,0,,,,,,,,,,,,,,,,,,,,,,,,,,,,,,,,,,,,,,,,,,,,,,,,,,,,,,,,,,,,,,,,,,,,,,,,
,,,,,,,,,6732736f57f1a61ec4a6db24,Spanish,13 or older,"no, only English or Spanish",no,2025-07-24_09h41.05.626,empathy_intonation_perc_control,2024.2.4,MacIntel,59.88023952,6732736f57f1a61ec4a6db24,68817205a84113384fffdfe3,688237a99fcdeda2b31c7e7a,27.3963,30.0447,1,1,2.1279,,0,7,7,0,1,./stim/wavs/castilian_question_filler_Mi-esposo-conoce-al-chico.wav,1,,,,,,,,,,,,,,,,,,,,,,,,,,,,,,,,,,,,,,,,,,,,,,,,,,,,,,,,,,,,,,,,,,,,,,,,
,,,,,,,,,6732736f57f1a61ec4a6db24,Spanish,13 or older,"no, only English or Spanish",no,2025-07-24_09h41.05.626,empathy_intonation_perc_control,2024.2.4,MacIntel,59.88023952,6732736f57f1a61ec4a6db24,68817205a84113384fffdfe3,688237a99fcdeda2b31c7e7a,,,,,,,,,,,,,,30.045,33.6625,,,,,,,,,,,,,,,,,,,,,,,,,,,,,,,,,,,,,,,,,,,,,,,,,,,,,,,,,,,,,,,,,,,,,,
,,,,,,,,,6732736f57f1a61ec4a6db24,Spanish,13 or older,"no, only English or Spanish",no,2025-07-24_09h41.05.626,empathy_intonation_perc_control,2024.2.4,MacIntel,59.88023952,6732736f57f1a61ec4a6db24,68817205a84113384fffdfe3,688237a99fcdeda2b31c7e7a,,,,,,,,,,,,./stim/wavs/puertorican_mismatch_declarative-broad-focus_La-maestra-vive-en-Paris.wav,0,,,33.6723,35.9458,0,1,1.7606,,0,0,0,86,1,87,0,puertorican,,,,,,,,,,,,,,,,,,,,,,,,,,,,,,,,,,,,,,,,,,,,,,,,,,,,,,,,
,,,,,,,,,6732736f57f1a61ec4a6db24,Spanish,13 or older,"no, only English or Spanish",no,2025-07-24_09h41.05.626,empathy_intonation_perc_control,2024.2.4,MacIntel,59.88023952,6732736f57f1a61ec4a6db24,68817205a84113384fffdfe3,688237a99fcdeda2b31c7e7a,,,,,,,,,,,,./stim/wavs/puertorican_match_declarative-broad-focus_Ana-lleva-el-abrigo.wav,0,,,35.9466,37.9957,0,1,1.5162,,0,1,1,62,1,63,0,puertorican,,,,,,,,,,,,,,,,,,,,,,,,,,,,,,,,,,,,,,,,,,,,,,,,,,,,,,,,
,,,,,,,,,6732736f57f1a61ec4a6db24,Spanish,13 or older,"no, only English or Spanish",no,2025-07-24_09h41.05.626,empathy_intonation_perc_control,2024.2.4,MacIntel,59.88023952,6732736f57f1a61ec4a6db24,68817205a84113384fffdfe3,688237a99fcdeda2b31c7e7a,,,,,,,,,,,,./stim/wavs/puertorican_mismatch_declarative-broad-focus_El-hombre-mira-la-luna.wav,0,,,37.9964,40.4458,0,1,1.9178,,0,2,2,84,1,85,0,puertorican,,,,,,,,,,,,,,,,,,,,,,,,,,,,,,,,,,,,,,,,,,,,,,,,,,,,,,,,
,,,,,,,,,6732736f57f1a61ec4a6db24,Spanish,13 or older,"no, only English or Spanish",no,2025-07-24_09h41.05.626,empathy_intonation_perc_control,2024.2.4,MacIntel,59.88023952,6732736f57f1a61ec4a6db24,68817205a84113384fffdfe3,688237a99fcdeda2b31c7e7a,,,,,,,,,,,,./stim/wavs/mexican_match_interrogative-total-yn_Mariano-habla-del-tiempo.wav,1,,,40.4465,42.6625,1,1,1.6855,,0,3,3,16,1,17,0,mexican,,,,,,,,,,,,,,,,,,,,,,,,,,,,,,,,,,,,,,,,,,,,,,,,,,,,,,,,
,,,,,,,,,6732736f57f1a61ec4a6db24,Spanish,13 or older,"no, only English or Spanish",no,2025-07-24_09h41.05.626,empathy_intonation_perc_control,2024.2.4,MacIntel,59.88023952,6732736f57f1a61ec4a6db24,68817205a84113384fffdfe3,688237a99fcdeda2b31c7e7a,,,,,,,,,,,,./stim/wavs/mexican_mismatch_interrogative-total-yn_Mi-novio-viene-del-lago.wav,1,,,42.6631,44.7286,1,1,1.5357,,0,4,4,37,1,38,0,mexican,,,,,,,,,,,,,,,,,,,,,,,,,,,,,,,,,,,,,,,,,,,,,,,,,,,,,,,,
,,,,,,,,,6732736f57f1a61ec4a6db24,Spanish,13 or older,"no, only English or Spanish",no,2025-07-24_09h41.05.626,empathy_intonation_perc_control,2024.2.4,MacIntel,59.88023952,6732736f57f1a61ec4a6db24,68817205a84113384fffdfe3,688237a99fcdeda2b31c7e7a,,,,,,,,,,,,./stim/wavs/puertorican_match_interrogative-total-yn_Daniel-iba-a-Bolivia.wav,1,,,44.7293,47.0301,0,0,1.7808,,0,5,5,19,1,20,1,puertorican,,,,,,,,,,,,,,,,,,,,,,,,,,,,,,,,,,,,,,,,,,,,,,,,,,,,,,,,
,,,,,,,,,6732736f57f1a61ec4a6db24,Spanish,13 or older,"no, only English or Spanish",no,2025-07-24_09h41.05.626,empathy_intonation_perc_control,2024.2.4,MacIntel,59.88023952,6732736f57f1a61ec4a6db24,68817205a84113384fffdfe3,688237a99fcdeda2b31c7e7a,,,,,,,,,,,,./stim/wavs/mexican_mismatch_declarative-broad-focus_Mi-novio-viene-del-lago.wav,0,,,47.0307,49.0951,0,1,1.5336,,0,6,6,81,1,82,0,mexican,,,,,,,,,,,,,,,,,,,,,,,,,,,,,,,,,,,,,,,,,,,,,,,,,,,,,,,,
,,,,,,,,,6732736f57f1a61ec4a6db24,Spanish,13 or older,"no, only English or Spanish",no,2025-07-24_09h41.05.626,empathy_intonation_perc_control,2024.2.4,MacIntel,59.88023952,6732736f57f1a61ec4a6db24,68817205a84113384fffdfe3,688237a99fcdeda2b31c7e7a,,,,,,,,,,,,./stim/wavs/castilian_match_interrogative-total-yn_David-leia-el-libro.wav,1,,,49.0957,51.4793,1,1,1.8609,,0,7,7,0,1,1,0,castilian,,,,,,,,,,,,,,,,,,,,,,,,,,,,,,,,,,,,,,,,,,,,,,,,,,,,,,,,
,,,,,,,,,6732736f57f1a61ec4a6db24,Spanish,13 or older,"no, only English or Spanish",no,2025-07-24_09h41.05.626,empathy_intonation_perc_control,2024.2.4,MacIntel,59.88023952,6732736f57f1a61ec4a6db24,68817205a84113384fffdfe3,688237a99fcdeda2b31c7e7a,,,,,,,,,,,,./stim/wavs/cuban_match_declarative-broad-focus_Marta-abre-el-regalo.wav,0,,,51.4799,54.0131,0,1,2.0121,,0,8,8,55,1,56,0,cuban,,,,,,,,,,,,,,,,,,,,,,,,,,,,,,,,,,,,,,,,,,,,,,,,,,,,,,,,
,,,,,,,,,6732736f57f1a61ec4a6db24,Spanish,13 or older,"no, only English or Spanish",no,2025-07-24_09h41.05.626,empathy_intonation_perc_control,2024.2.4,MacIntel,59.88023952,6732736f57f1a61ec4a6db24,68817205a84113384fffdfe3,688237a99fcdeda2b31c7e7a,,,,,,,,,,,,./stim/wavs/cuban_match_interrogative-total-yn_Daniel-iba-a-Bolivia.wav,1,,,54.0139,56.4129,0,0,1.8722,,0,9,9,7,1,8,1,cuban,,,,,,,,,,,,,,,,,,,,,,,,,,,,,,,,,,,,,,,,,,,,,,,,,,,,,,,,
,,,,,,,,,6732736f57f1a61ec4a6db24,Spanish,13 or older,"no, only English or Spanish",no,2025-07-24_09h41.05.626,empathy_intonation_perc_control,2024.2.4,MacIntel,59.88023952,6732736f57f1a61ec4a6db24,68817205a84113384fffdfe3,688237a99fcdeda2b31c7e7a,,,,,,,,,,,,./stim/wavs/cuban_match_interrogative-total-yn_Marta-abre-el-regalo.wav,1,,,56.4138,58.3962,0,0,1.4604,,0,10,10,11,1,12,1,cuban,,,,,,,,,,,,,,,,,,,,,,,,,,,,,,,,,,,,,,,,,,,,,,,,,,,,,,,,
,,,,,,,,,6732736f57f1a61ec4a6db24,Spanish,13 or older,"no, only English or Spanish",no,2025-07-24_09h41.05.626,empathy_intonation_perc_control,2024.2.4,MacIntel,59.88023952,6732736f57f1a61ec4a6db24,68817205a84113384fffdfe3,688237a99fcdeda2b31c7e7a,,,,,,,,,,,,./stim/wavs/cuban_mismatch_interrogative-total-yn_Mi-tia-odia-la-lluvia.wav,1,,,58.3967,60.3965,0,0,1.4671,,0,11,11,33,1,34,1,cuban,,,,,,,,,,,,,,,,,,,,,,,,,,,,,,,,,,,,,,,,,,,,,,,,,,,,,,,,
,,,,,,,,,6732736f57f1a61ec4a6db24,Spanish,13 or older,"no, only English or Spanish",no,2025-07-24_09h41.05.626,empathy_intonation_perc_control,2024.2.4,MacIntel,59.88023952,6732736f57f1a61ec4a6db24,68817205a84113384fffdfe3,688237a99fcdeda2b31c7e7a,,,,,,,,,,,,./stim/wavs/cuban_match_declarative-broad-focus_Daniel-iba-a-Bolivia.wav,0,,,60.3971,62.9951,0,1,2.0771,,0,12,12,51,1,52,0,cuban,,,,,,,,,,,,,,,,,,,,,,,,,,,,,,,,,,,,,,,,,,,,,,,,,,,,,,,,
,,,,,,,,,6732736f57f1a61ec4a6db24,Spanish,13 or older,"no, only English or Spanish",no,2025-07-24_09h41.05.626,empathy_intonation_perc_control,2024.2.4,MacIntel,59.88023952,6732736f57f1a61ec4a6db24,68817205a84113384fffdfe3,688237a99fcdeda2b31c7e7a,,,,,,,,,,,,./stim/wavs/cuban_mismatch_declarative-broad-focus_La-nina-lava-el-plato.wav,0,,,62.9954,65.0468,0,1,1.5452,,0,13,13,75,1,76,0,cuban,,,,,,,,,,,,,,,,,,,,,,,,,,,,,,,,,,,,,,,,,,,,,,,,,,,,,,,,
,,,,,,,,,6732736f57f1a61ec4a6db24,Spanish,13 or older,"no, only English or Spanish",no,2025-07-24_09h41.05.626,empathy_intonation_perc_control,2024.2.4,MacIntel,59.88023952,6732736f57f1a61ec4a6db24,68817205a84113384fffdfe3,688237a99fcdeda2b31c7e7a,,,,,,,,,,,,./stim/wavs/castilian_mismatch_interrogative-total-yn_Mi-tia-odia-la-lluvia.wav,1,,,65.0474,67.0967,1,1,1.517,,0,14,14,28,1,29,0,castilian,,,,,,,,,,,,,,,,,,,,,,,,,,,,,,,,,,,,,,,,,,,,,,,,,,,,,,,,
,,,,,,,,,6732736f57f1a61ec4a6db24,Spanish,13 or older,"no, only English or Spanish",no,2025-07-24_09h41.05.626,empathy_intonation_perc_control,2024.2.4,MacIntel,59.88023952,6732736f57f1a61ec4a6db24,68817205a84113384fffdfe3,688237a99fcdeda2b31c7e7a,,,,,,,,,,,,./stim/wavs/castilian_match_declarative-broad-focus_David-leia-el-libro.wav,0,,,67.0974,69.2968,0,1,1.668,,0,15,15,44,1,45,0,castilian,,,,,,,,,,,,,,,,,,,,,,,,,,,,,,,,,,,,,,,,,,,,,,,,,,,,,,,,
,,,,,,,,,6732736f57f1a61ec4a6db24,Spanish,13 or older,"no, only English or Spanish",no,2025-07-24_09h41.05.626,empathy_intonation_perc_control,2024.2.4,MacIntel,59.88023952,6732736f57f1a61ec4a6db24,68817205a84113384fffdfe3,688237a99fcdeda2b31c7e7a,,,,,,,,,,,,./stim/wavs/mexican_mismatch_interrogative-total-yn_El-hombre-mira-la-luna.wav,1,,,69.2978,71.4971,1,1,1.6694,,0,16,16,34,1,35,0,mexican,,,,,,,,,,,,,,,,,,,,,,,,,,,,,,,,,,,,,,,,,,,,,,,,,,,,,,,,
,,,,,,,,,6732736f57f1a61ec4a6db24,Spanish,13 or older,"no, only English or Spanish",no,2025-07-24_09h41.05.626,empathy_intonation_perc_control,2024.2.4,MacIntel,59.88023952,6732736f57f1a61ec4a6db24,68817205a84113384fffdfe3,688237a99fcdeda2b31c7e7a,,,,,,,,,,,,./stim/wavs/castilian_match_interrogative-total-yn_Emilio-ama-la-marcha.wav,1,,,71.4979,73.6634,1,1,1.6333,,0,17,17,1,1,2,0,castilian,,,,,,,,,,,,,,,,,,,,,,,,,,,,,,,,,,,,,,,,,,,,,,,,,,,,,,,,
,,,,,,,,,6732736f57f1a61ec4a6db24,Spanish,13 or older,"no, only English or Spanish",no,2025-07-24_09h41.05.626,empathy_intonation_perc_control,2024.2.4,MacIntel,59.88023952,6732736f57f1a61ec4a6db24,68817205a84113384fffdfe3,688237a99fcdeda2b31c7e7a,,,,,,,,,,,,./stim/wavs/cuban_mismatch_declarative-broad-focus_El-hombre-mira-la-luna.wav,0,,,73.6639,75.4804,0,1,1.2845,,0,18,18,74,1,75,0,cuban,,,,,,,,,,,,,,,,,,,,,,,,,,,,,,,,,,,,,,,,,,,,,,,,,,,,,,,,
,,,,,,,,,6732736f57f1a61ec4a6db24,Spanish,13 or older,"no, only English or Spanish",no,2025-07-24_09h41.05.626,empathy_intonation_perc_control,2024.2.4,MacIntel,59.88023952,6732736f57f1a61ec4a6db24,68817205a84113384fffdfe3,688237a99fcdeda2b31c7e7a,,,,,,,,,,,,./stim/wavs/mexican_mismatch_declarative-broad-focus_El-bebe-comia-muy-bien.wav,0,,,75.481,78.2806,1,0,2.266,,0,19,19,78,1,79,0,mexican,,,,,,,,,,,,,,,,,,,,,,,,,,,,,,,,,,,,,,,,,,,,,,,,,,,,,,,,
,,,,,,,,,6732736f57f1a61ec4a6db24,Spanish,13 or older,"no, only English or Spanish",no,2025-07-24_09h41.05.626,empathy_intonation_perc_control,2024.2.4,MacIntel,59.88023952,6732736f57f1a61ec4a6db24,68817205a84113384fffdfe3,688237a99fcdeda2b31c7e7a,,,,,,,,,,,,./stim/wavs/mexican_match_declarative-broad-focus_Marta-abre-el-regalo.wav,0,,,78.2812,80.3796,0,1,1.5665,,0,20,20,61,1,62,0,mexican,,,,,,,,,,,,,,,,,,,,,,,,,,,,,,,,,,,,,,,,,,,,,,,,,,,,,,,,
,,,,,,,,,6732736f57f1a61ec4a6db24,Spanish,13 or older,"no, only English or Spanish",no,2025-07-24_09h41.05.626,empathy_intonation_perc_control,2024.2.4,MacIntel,59.88023952,6732736f57f1a61ec4a6db24,68817205a84113384fffdfe3,688237a99fcdeda2b31c7e7a,,,,,,,,,,,,./stim/wavs/castilian_mismatch_interrogative-total-yn_Mi-madre-come-la-fruta.wav,1,,,80.3804,82.4809,1,1,1.5839,,0,21,21,26,1,27,0,castilian,,,,,,,,,,,,,,,,,,,,,,,,,,,,,,,,,,,,,,,,,,,,,,,,,,,,,,,,
,,,,,,,,,6732736f57f1a61ec4a6db24,Spanish,13 or older,"no, only English or Spanish",no,2025-07-24_09h41.05.626,empathy_intonation_perc_control,2024.2.4,MacIntel,59.88023952,6732736f57f1a61ec4a6db24,68817205a84113384fffdfe3,688237a99fcdeda2b31c7e7a,,,,,,,,,,,,./stim/wavs/puertorican_match_interrogative-total-yn_Manuela-vende-el-carro.wav,1,,,82.4815,84.4972,1,1,1.4861,,0,22,22,22,1,23,1,puertorican,,,,,,,,,,,,,,,,,,,,,,,,,,,,,,,,,,,,,,,,,,,,,,,,,,,,,,,,
,,,,,,,,,6732736f57f1a61ec4a6db24,Spanish,13 or older,"no, only English or Spanish",no,2025-07-24_09h41.05.626,empathy_intonation_perc_control,2024.2.4,MacIntel,59.88023952,6732736f57f1a61ec4a6db24,68817205a84113384fffdfe3,688237a99fcdeda2b31c7e7a,,,,,,,,,,,,./stim/wavs/mexican_match_declarative-broad-focus_David-leia-el-libro.wav,0,,,84.4979,86.7803,0,1,1.7624,,0,23,23,58,1,59,0,mexican,,,,,,,,,,,,,,,,,,,,,,,,,,,,,,,,,,,,,,,,,,,,,,,,,,,,,,,,
,,,,,,,,,6732736f57f1a61ec4a6db24,Spanish,13 or older,"no, only English or Spanish",no,2025-07-24_09h41.05.626,empathy_intonation_perc_control,2024.2.4,MacIntel,59.88023952,6732736f57f1a61ec4a6db24,68817205a84113384fffdfe3,688237a99fcdeda2b31c7e7a,,,,,,,,,,,,./stim/wavs/castilian_match_declarative-broad-focus_Emilio-ama-la-marcha.wav,0,,,86.7809,88.8317,0,1,1.5288,,0,24,24,45,1,46,0,castilian,,,,,,,,,,,,,,,,,,,,,,,,,,,,,,,,,,,,,,,,,,,,,,,,,,,,,,,,
,,,,,,,,,6732736f57f1a61ec4a6db24,Spanish,13 or older,"no, only English or Spanish",no,2025-07-24_09h41.05.626,empathy_intonation_perc_control,2024.2.4,MacIntel,59.88023952,6732736f57f1a61ec4a6db24,68817205a84113384fffdfe3,688237a99fcdeda2b31c7e7a,,,,,,,,,,,,./stim/wavs/puertorican_mismatch_interrogative-total-yn_El-hombre-mira-la-luna.wav,1,,,88.8325,90.7643,1,1,1.4045,,0,25,25,39,1,40,1,puertorican,,,,,,,,,,,,,,,,,,,,,,,,,,,,,,,,,,,,,,,,,,,,,,,,,,,,,,,,
,,,,,,,,,6732736f57f1a61ec4a6db24,Spanish,13 or older,"no, only English or Spanish",no,2025-07-24_09h41.05.626,empathy_intonation_perc_control,2024.2.4,MacIntel,59.88023952,6732736f57f1a61ec4a6db24,68817205a84113384fffdfe3,688237a99fcdeda2b31c7e7a,,,,,,,,,,,,./stim/wavs/castilian_mismatch_declarative-broad-focus_La-nina-lava-el-plato.wav,0,,,90.7649,93.1645,0,1,1.8684,,0,26,26,70,1,71,0,castilian,,,,,,,,,,,,,,,,,,,,,,,,,,,,,,,,,,,,,,,,,,,,,,,,,,,,,,,,
,,,,,,,,,6732736f57f1a61ec4a6db24,Spanish,13 or older,"no, only English or Spanish",no,2025-07-24_09h41.05.626,empathy_intonation_perc_control,2024.2.4,MacIntel,59.88023952,6732736f57f1a61ec4a6db24,68817205a84113384fffdfe3,688237a99fcdeda2b31c7e7a,,,,,,,,,,,,./stim/wavs/castilian_mismatch_declarative-broad-focus_La-maestra-vive-en-Paris.wav,0,,,93.1653,95.3814,0,1,1.697,,0,27,27,69,1,70,0,castilian,,,,,,,,,,,,,,,,,,,,,,,,,,,,,,,,,,,,,,,,,,,,,,,,,,,,,,,,
,,,,,,,,,6732736f57f1a61ec4a6db24,Spanish,13 or older,"no, only English or Spanish",no,2025-07-24_09h41.05.626,empathy_intonation_perc_control,2024.2.4,MacIntel,59.88023952,6732736f57f1a61ec4a6db24,68817205a84113384fffdfe3,688237a99fcdeda2b31c7e7a,,,,,,,,,,,,./stim/wavs/puertorican_mismatch_declarative-broad-focus_La-nina-lava-el-plato.wav,0,,,95.3821,97.6148,0,1,1.7002,,0,28,28,87,1,88,0,puertorican,,,,,,,,,,,,,,,,,,,,,,,,,,,,,,,,,,,,,,,,,,,,,,,,,,,,,,,,
,,,,,,,,,6732736f57f1a61ec4a6db24,Spanish,13 or older,"no, only English or Spanish",no,2025-07-24_09h41.05.626,empathy_intonation_perc_control,2024.2.4,MacIntel,59.88023952,6732736f57f1a61ec4a6db24,68817205a84113384fffdfe3,688237a99fcdeda2b31c7e7a,,,,,,,,,,,,./stim/wavs/mexican_match_interrogative-total-yn_Marta-abre-el-regalo.wav,1,,,97.6155,99.6813,1,1,1.5454,,0,29,29,17,1,18,0,mexican,,,,,,,,,,,,,,,,,,,,,,,,,,,,,,,,,,,,,,,,,,,,,,,,,,,,,,,,
,,,,,,,,,6732736f57f1a61ec4a6db24,Spanish,13 or older,"no, only English or Spanish",no,2025-07-24_09h41.05.626,empathy_intonation_perc_control,2024.2.4,MacIntel,59.88023952,6732736f57f1a61ec4a6db24,68817205a84113384fffdfe3,688237a99fcdeda2b31c7e7a,,,,,,,,,,,,./stim/wavs/puertorican_match_interrogative-total-yn_Emilio-ama-la-marcha.wav,1,,,99.6819,101.8315,0,0,1.6172,,0,30,30,21,1,22,1,puertorican,,,,,,,,,,,,,,,,,,,,,,,,,,,,,,,,,,,,,,,,,,,,,,,,,,,,,,,,
,,,,,,,,,6732736f57f1a61ec4a6db24,Spanish,13 or older,"no, only English or Spanish",no,2025-07-24_09h41.05.626,empathy_intonation_perc_control,2024.2.4,MacIntel,59.88023952,6732736f57f1a61ec4a6db24,68817205a84113384fffdfe3,688237a99fcdeda2b31c7e7a,,,,,,,,,,,,./stim/wavs/puertorican_match_interrogative-total-yn_Maria-bebe-el-vino.wav,1,,,101.8321,103.7305,1,1,1.3695,,0,31,31,23,1,24,1,puertorican,,,,,,,,,,,,,,,,,,,,,,,,,,,,,,,,,,,,,,,,,,,,,,,,,,,,,,,,
,,,,,,,,,6732736f57f1a61ec4a6db24,Spanish,13 or older,"no, only English or Spanish",no,2025-07-24_09h41.05.626,empathy_intonation_perc_control,2024.2.4,MacIntel,59.88023952,6732736f57f1a61ec4a6db24,68817205a84113384fffdfe3,688237a99fcdeda2b31c7e7a,,,,,,,,,,,,./stim/wavs/castilian_mismatch_declarative-broad-focus_El-nino-oye-el-rio.wav,0,,,103.7312,106.3151,0,1,2.0668,,0,32,32,68,1,69,0,castilian,,,,,,,,,,,,,,,,,,,,,,,,,,,,,,,,,,,,,,,,,,,,,,,,,,,,,,,,
,,,,,,,,,6732736f57f1a61ec4a6db24,Spanish,13 or older,"no, only English or Spanish",no,2025-07-24_09h41.05.626,empathy_intonation_perc_control,2024.2.4,MacIntel,59.88023952,6732736f57f1a61ec4a6db24,68817205a84113384fffdfe3,688237a99fcdeda2b31c7e7a,,,,,,,,,,,,./stim/wavs/cuban_mismatch_interrogative-total-yn_El-nino-oye-el-rio.wav,1,,,106.3157,108.2309,0,0,1.3856,,0,33,33,30,1,31,1,cuban,,,,,,,,,,,,,,,,,,,,,,,,,,,,,,,,,,,,,,,,,,,,,,,,,,,,,,,,
,,,,,,,,,6732736f57f1a61ec4a6db24,Spanish,13 or older,"no, only English or Spanish",no,2025-07-24_09h41.05.626,empathy_intonation_perc_control,2024.2.4,MacIntel,59.88023952,6732736f57f1a61ec4a6db24,68817205a84113384fffdfe3,688237a99fcdeda2b31c7e7a,,,,,,,,,,,,./stim/wavs/puertorican_mismatch_interrogative-total-yn_La-maestra-vive-en-Paris.wav,1,,,108.2315,110.8651,0,0,2.1164,,0,34,34,41,1,42,1,puertorican,,,,,,,,,,,,,,,,,,,,,,,,,,,,,,,,,,,,,,,,,,,,,,,,,,,,,,,,
,,,,,,,,,6732736f57f1a61ec4a6db24,Spanish,13 or older,"no, only English or Spanish",no,2025-07-24_09h41.05.626,empathy_intonation_perc_control,2024.2.4,MacIntel,59.88023952,6732736f57f1a61ec4a6db24,68817205a84113384fffdfe3,688237a99fcdeda2b31c7e7a,,,,,,,,,,,,./stim/wavs/mexican_match_interrogative-total-yn_Emilio-ama-la-marcha.wav,1,,,110.8658,113.1653,1,1,1.7675,,0,35,35,15,1,16,0,mexican,,,,,,,,,,,,,,,,,,,,,,,,,,,,,,,,,,,,,,,,,,,,,,,,,,,,,,,,
,,,,,,,,,6732736f57f1a61ec4a6db24,Spanish,13 or older,"no, only English or Spanish",no,2025-07-24_09h41.05.626,empathy_intonation_perc_control,2024.2.4,MacIntel,59.88023952,6732736f57f1a61ec4a6db24,68817205a84113384fffdfe3,688237a99fcdeda2b31c7e7a,,,,,,,,,,,,./stim/wavs/cuban_mismatch_declarative-broad-focus_El-bebe-comia-muy-bien.wav,0,,,113.166,117.1649,0,1,3.467,,0,36,36,73,1,74,0,cuban,,,,,,,,,,,,,,,,,,,,,,,,,,,,,,,,,,,,,,,,,,,,,,,,,,,,,,,,
,,,,,,,,,6732736f57f1a61ec4a6db24,Spanish,13 or older,"no, only English or Spanish",no,2025-07-24_09h41.05.626,empathy_intonation_perc_control,2024.2.4,MacIntel,59.88023952,6732736f57f1a61ec4a6db24,68817205a84113384fffdfe3,688237a99fcdeda2b31c7e7a,,,,,,,,,,,,./stim/wavs/puertorican_match_declarative-broad-focus_Daniel-iba-a-Bolivia.wav,0,,,117.1656,119.2989,0,1,1.6013,,0,37,37,63,1,64,0,puertorican,,,,,,,,,,,,,,,,,,,,,,,,,,,,,,,,,,,,,,,,,,,,,,,,,,,,,,,,
,,,,,,,,,6732736f57f1a61ec4a6db24,Spanish,13 or older,"no, only English or Spanish",no,2025-07-24_09h41.05.626,empathy_intonation_perc_control,2024.2.4,MacIntel,59.88023952,6732736f57f1a61ec4a6db24,68817205a84113384fffdfe3,688237a99fcdeda2b31c7e7a,,,,,,,,,,,,./stim/wavs/mexican_mismatch_declarative-broad-focus_La-maestra-vive-en-Paris.wav,0,,,119.2995,121.5321,0,1,1.701,,0,38,38,80,1,81,0,mexican,,,,,,,,,,,,,,,,,,,,,,,,,,,,,,,,,,,,,,,,,,,,,,,,,,,,,,,,
,,,,,,,,,6732736f57f1a61ec4a6db24,Spanish,13 or older,"no, only English or Spanish",no,2025-07-24_09h41.05.626,empathy_intonation_perc_control,2024.2.4,MacIntel,59.88023952,6732736f57f1a61ec4a6db24,68817205a84113384fffdfe3,688237a99fcdeda2b31c7e7a,,,,,,,,,,,,./stim/wavs/cuban_mismatch_interrogative-total-yn_El-hombre-mira-la-luna.wav,1,,,121.5328,123.8489,1,1,1.7935,,0,39,39,29,1,30,1,cuban,,,,,,,,,,,,,,,,,,,,,,,,,,,,,,,,,,,,,,,,,,,,,,,,,,,,,,,,
,,,,,,,,,6732736f57f1a61ec4a6db24,Spanish,13 or older,"no, only English or Spanish",no,2025-07-24_09h41.05.626,empathy_intonation_perc_control,2024.2.4,MacIntel,59.88023952,6732736f57f1a61ec4a6db24,68817205a84113384fffdfe3,688237a99fcdeda2b31c7e7a,,,,,,,,,,,,./stim/wavs/mexican_match_interrogative-total-yn_Daniel-iba-a-Bolivia.wav,1,,,123.8495,126.1326,1,1,1.7492,,0,40,40,13,1,14,0,mexican,,,,,,,,,,,,,,,,,,,,,,,,,,,,,,,,,,,,,,,,,,,,,,,,,,,,,,,,
,,,,,,,,,6732736f57f1a61ec4a6db24,Spanish,13 or older,"no, only English or Spanish",no,2025-07-24_09h41.05.626,empathy_intonation_perc_control,2024.2.4,MacIntel,59.88023952,6732736f57f1a61ec4a6db24,68817205a84113384fffdfe3,688237a99fcdeda2b31c7e7a,,,,,,,,,,,,./stim/wavs/cuban_match_declarative-broad-focus_Ana-lleva-el-abrigo.wav,0,,,126.1332,128.3324,0,1,1.6672,,0,41,41,50,1,51,0,cuban,,,,,,,,,,,,,,,,,,,,,,,,,,,,,,,,,,,,,,,,,,,,,,,,,,,,,,,,
,,,,,,,,,6732736f57f1a61ec4a6db24,Spanish,13 or older,"no, only English or Spanish",no,2025-07-24_09h41.05.626,empathy_intonation_perc_control,2024.2.4,MacIntel,59.88023952,6732736f57f1a61ec4a6db24,68817205a84113384fffdfe3,688237a99fcdeda2b31c7e7a,,,,,,,,,,,,./stim/wavs/mexican_match_declarative-broad-focus_Emilio-ama-la-marcha.wav,0,,,128.333,130.3658,0,1,1.4991,,0,42,42,59,1,60,0,mexican,,,,,,,,,,,,,,,,,,,,,,,,,,,,,,,,,,,,,,,,,,,,,,,,,,,,,,,,
,,,,,,,,,6732736f57f1a61ec4a6db24,Spanish,13 or older,"no, only English or Spanish",no,2025-07-24_09h41.05.626,empathy_intonation_perc_control,2024.2.4,MacIntel,59.88023952,6732736f57f1a61ec4a6db24,68817205a84113384fffdfe3,688237a99fcdeda2b31c7e7a,,,,,,,,,,,,./stim/wavs/cuban_mismatch_interrogative-total-yn_Mi-madre-come-la-fruta.wav,1,,,130.3665,132.7988,1,1,1.9002,,0,43,43,31,1,32,1,cuban,,,,,,,,,,,,,,,,,,,,,,,,,,,,,,,,,,,,,,,,,,,,,,,,,,,,,,,,
,,,,,,,,,6732736f57f1a61ec4a6db24,Spanish,13 or older,"no, only English or Spanish",no,2025-07-24_09h41.05.626,empathy_intonation_perc_control,2024.2.4,MacIntel,59.88023952,6732736f57f1a61ec4a6db24,68817205a84113384fffdfe3,688237a99fcdeda2b31c7e7a,,,,,,,,,,,,./stim/wavs/mexican_mismatch_interrogative-total-yn_La-maestra-vive-en-Paris.wav,1,,,132.7994,135.5995,1,1,2.2862,,0,44,44,36,1,37,0,mexican,,,,,,,,,,,,,,,,,,,,,,,,,,,,,,,,,,,,,,,,,,,,,,,,,,,,,,,,
,,,,,,,,,6732736f57f1a61ec4a6db24,Spanish,13 or older,"no, only English or Spanish",no,2025-07-24_09h41.05.626,empathy_intonation_perc_control,2024.2.4,MacIntel,59.88023952,6732736f57f1a61ec4a6db24,68817205a84113384fffdfe3,688237a99fcdeda2b31c7e7a,,,,,,,,,,,,./stim/wavs/cuban_match_declarative-broad-focus_Mariano-habla-del-tiempo.wav,0,,,135.6001,138.9316,0,1,2.8116,,0,45,45,54,1,55,0,cuban,,,,,,,,,,,,,,,,,,,,,,,,,,,,,,,,,,,,,,,,,,,,,,,,,,,,,,,,
,,,,,,,,,6732736f57f1a61ec4a6db24,Spanish,13 or older,"no, only English or Spanish",no,2025-07-24_09h41.05.626,empathy_intonation_perc_control,2024.2.4,MacIntel,59.88023952,6732736f57f1a61ec4a6db24,68817205a84113384fffdfe3,688237a99fcdeda2b31c7e7a,,,,,,,,,,,,./stim/wavs/mexican_match_interrogative-total-yn_David-leia-el-libro.wav,1,,,138.9319,141.1326,1,1,1.6826,,0,46,46,14,1,15,0,mexican,,,,,,,,,,,,,,,,,,,,,,,,,,,,,,,,,,,,,,,,,,,,,,,,,,,,,,,,
,,,,,,,,,6732736f57f1a61ec4a6db24,Spanish,13 or older,"no, only English or Spanish",no,2025-07-24_09h41.05.626,empathy_intonation_perc_control,2024.2.4,MacIntel,59.88023952,6732736f57f1a61ec4a6db24,68817205a84113384fffdfe3,688237a99fcdeda2b31c7e7a,,,,,,,,,,,,./stim/wavs/puertorican_mismatch_interrogative-total-yn_El-nino-oye-el-rio.wav,1,,,141.1334,143.2999,1,1,1.6369,,0,47,47,40,1,41,1,puertorican,,,,,,,,,,,,,,,,,,,,,,,,,,,,,,,,,,,,,,,,,,,,,,,,,,,,,,,,
,,,,,,,,,6732736f57f1a61ec4a6db24,Spanish,13 or older,"no, only English or Spanish",no,2025-07-24_09h41.05.626,empathy_intonation_perc_control,2024.2.4,MacIntel,59.88023952,6732736f57f1a61ec4a6db24,68817205a84113384fffdfe3,688237a99fcdeda2b31c7e7a,,,,,,,,,,,,./stim/wavs/puertorican_mismatch_interrogative-total-yn_Mi-madre-come-la-fruta.wav,1,,,143.3008,145.5665,0,0,1.7466,,0,48,48,43,1,44,1,puertorican,,,,,,,,,,,,,,,,,,,,,,,,,,,,,,,,,,,,,,,,,,,,,,,,,,,,,,,,
,,,,,,,,,6732736f57f1a61ec4a6db24,Spanish,13 or older,"no, only English or Spanish",no,2025-07-24_09h41.05.626,empathy_intonation_perc_control,2024.2.4,MacIntel,59.88023952,6732736f57f1a61ec4a6db24,68817205a84113384fffdfe3,688237a99fcdeda2b31c7e7a,,,,,,,,,,,,./stim/wavs/mexican_match_declarative-broad-focus_Mariano-habla-del-tiempo.wav,0,,,145.5673,148.4997,0,1,2.3985,,0,49,49,60,1,61,0,mexican,,,,,,,,,,,,,,,,,,,,,,,,,,,,,,,,,,,,,,,,,,,,,,,,,,,,,,,,
,,,,,,,,,6732736f57f1a61ec4a6db24,Spanish,13 or older,"no, only English or Spanish",no,2025-07-24_09h41.05.626,empathy_intonation_perc_control,2024.2.4,MacIntel,59.88023952,6732736f57f1a61ec4a6db24,68817205a84113384fffdfe3,688237a99fcdeda2b31c7e7a,,,,,,,,,,,,./stim/wavs/mexican_mismatch_declarative-broad-focus_Mi-tia-odia-la-lluvia.wav,0,,,148.5002,151.6666,0,1,2.6373,,0,50,50,82,1,83,0,mexican,,,,,,,,,,,,,,,,,,,,,,,,,,,,,,,,,,,,,,,,,,,,,,,,,,,,,,,,
,,,,,,,,,6732736f57f1a61ec4a6db24,Spanish,13 or older,"no, only English or Spanish",no,2025-07-24_09h41.05.626,empathy_intonation_perc_control,2024.2.4,MacIntel,59.88023952,6732736f57f1a61ec4a6db24,68817205a84113384fffdfe3,688237a99fcdeda2b31c7e7a,,,,,,,,,,,,./stim/wavs/castilian_mismatch_interrogative-total-yn_La-nina-lava-el-plato.wav,1,,,151.6673,153.6824,1,1,1.4831,,0,51,51,25,1,26,0,castilian,,,,,,,,,,,,,,,,,,,,,,,,,,,,,,,,,,,,,,,,,,,,,,,,,,,,,,,,
,,,,,,,,,6732736f57f1a61ec4a6db24,Spanish,13 or older,"no, only English or Spanish",no,2025-07-24_09h41.05.626,empathy_intonation_perc_control,2024.2.4,MacIntel,59.88023952,6732736f57f1a61ec4a6db24,68817205a84113384fffdfe3,688237a99fcdeda2b31c7e7a,,,,,,,,,,,,./stim/wavs/castilian_match_interrogative-total-yn_Mariano-habla-del-tiempo.wav,1,,,153.6832,155.7669,1,1,1.5672,,0,52,52,4,1,5,0,castilian,,,,,,,,,,,,,,,,,,,,,,,,,,,,,,,,,,,,,,,,,,,,,,,,,,,,,,,,
,,,,,,,,,6732736f57f1a61ec4a6db24,Spanish,13 or older,"no, only English or Spanish",no,2025-07-24_09h41.05.626,empathy_intonation_perc_control,2024.2.4,MacIntel,59.88023952,6732736f57f1a61ec4a6db24,68817205a84113384fffdfe3,688237a99fcdeda2b31c7e7a,,,,,,,,,,,,./stim/wavs/cuban_match_interrogative-total-yn_Maria-bebe-el-vino.wav,1,,,155.7677,157.8335,1,1,1.534,,0,53,53,9,1,10,1,cuban,,,,,,,,,,,,,,,,,,,,,,,,,,,,,,,,,,,,,,,,,,,,,,,,,,,,,,,,
,,,,,,,,,6732736f57f1a61ec4a6db24,Spanish,13 or older,"no, only English or Spanish",no,2025-07-24_09h41.05.626,empathy_intonation_perc_control,2024.2.4,MacIntel,59.88023952,6732736f57f1a61ec4a6db24,68817205a84113384fffdfe3,688237a99fcdeda2b31c7e7a,,,,,,,,,,,,./stim/wavs/cuban_match_interrogative-total-yn_Mariano-habla-del-tiempo.wav,1,,,157.8343,159.8836,0,0,1.5166,,0,54,54,10,1,11,1,cuban,,,,,,,,,,,,,,,,,,,,,,,,,,,,,,,,,,,,,,,,,,,,,,,,,,,,,,,,
,,,,,,,,,6732736f57f1a61ec4a6db24,Spanish,13 or older,"no, only English or Spanish",no,2025-07-24_09h41.05.626,empathy_intonation_perc_control,2024.2.4,MacIntel,59.88023952,6732736f57f1a61ec4a6db24,68817205a84113384fffdfe3,688237a99fcdeda2b31c7e7a,,,,,,,,,,,,./stim/wavs/castilian_match_declarative-broad-focus_Maria-bebe-el-vino.wav,0,,,159.8844,161.9328,0,1,1.5172,,0,55,55,47,1,48,0,castilian,,,,,,,,,,,,,,,,,,,,,,,,,,,,,,,,,,,,,,,,,,,,,,,,,,,,,,,,
,,,,,,,,,6732736f57f1a61ec4a6db24,Spanish,13 or older,"no, only English or Spanish",no,2025-07-24_09h41.05.626,empathy_intonation_perc_control,2024.2.4,MacIntel,59.88023952,6732736f57f1a61ec4a6db24,68817205a84113384fffdfe3,688237a99fcdeda2b31c7e7a,,,,,,,,,,,,./stim/wavs/cuban_mismatch_interrogative-total-yn_Mi-novio-viene-del-lago.wav,1,,,161.9337,164.3828,1,1,1.9172,,0,56,56,32,1,33,1,cuban,,,,,,,,,,,,,,,,,,,,,,,,,,,,,,,,,,,,,,,,,,,,,,,,,,,,,,,,
,,,,,,,,,6732736f57f1a61ec4a6db24,Spanish,13 or older,"no, only English or Spanish",no,2025-07-24_09h41.05.626,empathy_intonation_perc_control,2024.2.4,MacIntel,59.88023952,6732736f57f1a61ec4a6db24,68817205a84113384fffdfe3,688237a99fcdeda2b31c7e7a,,,,,,,,,,,,./stim/wavs/castilian_match_declarative-broad-focus_Manuela-vende-el-carro.wav,0,,,164.3834,166.8839,0,1,1.984,,0,57,57,46,1,47,0,castilian,,,,,,,,,,,,,,,,,,,,,,,,,,,,,,,,,,,,,,,,,,,,,,,,,,,,,,,,
,,,,,,,,,6732736f57f1a61ec4a6db24,Spanish,13 or older,"no, only English or Spanish",no,2025-07-24_09h41.05.626,empathy_intonation_perc_control,2024.2.4,MacIntel,59.88023952,6732736f57f1a61ec4a6db24,68817205a84113384fffdfe3,688237a99fcdeda2b31c7e7a,,,,,,,,,,,,./stim/wavs/cuban_mismatch_declarative-broad-focus_Mi-tia-odia-la-lluvia.wav,0,,,166.8845,169.5163,0,1,2.1003,,0,58,58,77,1,78,0,cuban,,,,,,,,,,,,,,,,,,,,,,,,,,,,,,,,,,,,,,,,,,,,,,,,,,,,,,,,
,,,,,,,,,6732736f57f1a61ec4a6db24,Spanish,13 or older,"no, only English or Spanish",no,2025-07-24_09h41.05.626,empathy_intonation_perc_control,2024.2.4,MacIntel,59.88023952,6732736f57f1a61ec4a6db24,68817205a84113384fffdfe3,688237a99fcdeda2b31c7e7a,,,,,,,,,,,,./stim/wavs/puertorican_match_declarative-broad-focus_David-leia-el-libro.wav,0,,,169.517,171.6342,0,1,1.6024,,0,59,59,64,1,65,0,puertorican,,,,,,,,,,,,,,,,,,,,,,,,,,,,,,,,,,,,,,,,,,,,,,,,,,,,,,,,
,,,,,,,,,6732736f57f1a61ec4a6db24,Spanish,13 or older,"no, only English or Spanish",no,2025-07-24_09h41.05.626,empathy_intonation_perc_control,2024.2.4,MacIntel,59.88023952,6732736f57f1a61ec4a6db24,68817205a84113384fffdfe3,688237a99fcdeda2b31c7e7a,,,,,,,,,,,,./stim/wavs/castilian_match_declarative-broad-focus_Mariano-habla-del-tiempo.wav,0,,,171.6351,174.2501,0,1,2.0851,,0,60,60,48,1,49,0,castilian,,,,,,,,,,,,,,,,,,,,,,,,,,,,,,,,,,,,,,,,,,,,,,,,,,,,,,,,
,,,,,,,,,6732736f57f1a61ec4a6db24,Spanish,13 or older,"no, only English or Spanish",no,2025-07-24_09h41.05.626,empathy_intonation_perc_control,2024.2.4,MacIntel,59.88023952,6732736f57f1a61ec4a6db24,68817205a84113384fffdfe3,688237a99fcdeda2b31c7e7a,,,,,,,,,,,,./stim/wavs/mexican_match_declarative-broad-focus_Ana-lleva-el-abrigo.wav,0,,,174.2508,176.4509,0,1,1.6719,,0,61,61,56,1,57,0,mexican,,,,,,,,,,,,,,,,,,,,,,,,,,,,,,,,,,,,,,,,,,,,,,,,,,,,,,,,
,,,,,,,,,6732736f57f1a61ec4a6db24,Spanish,13 or older,"no, only English or Spanish",no,2025-07-24_09h41.05.626,empathy_intonation_perc_control,2024.2.4,MacIntel,59.88023952,6732736f57f1a61ec4a6db24,68817205a84113384fffdfe3,688237a99fcdeda2b31c7e7a,,,,,,,,,,,,./stim/wavs/puertorican_mismatch_interrogative-total-yn_La-nina-lava-el-plato.wav,1,,,176.4517,178.6508,1,1,1.6794,,0,62,62,42,1,43,1,puertorican,,,,,,,,,,,,,,,,,,,,,,,,,,,,,,,,,,,,,,,,,,,,,,,,,,,,,,,,
,,,,,,,,,6732736f57f1a61ec4a6db24,Spanish,13 or older,"no, only English or Spanish",no,2025-07-24_09h41.05.626,empathy_intonation_perc_control,2024.2.4,MacIntel,59.88023952,6732736f57f1a61ec4a6db24,68817205a84113384fffdfe3,688237a99fcdeda2b31c7e7a,,,,,,,,,,,,./stim/wavs/castilian_match_interrogative-total-yn_Marta-abre-el-regalo.wav,1,,,178.6514,180.7168,1,1,1.5331,,0,63,63,5,1,6,0,castilian,,,,,,,,,,,,,,,,,,,,,,,,,,,,,,,,,,,,,,,,,,,,,,,,,,,,,,,,
,,,,,,,,,6732736f57f1a61ec4a6db24,Spanish,13 or older,"no, only English or Spanish",no,2025-07-24_09h41.05.626,empathy_intonation_perc_control,2024.2.4,MacIntel,59.88023952,6732736f57f1a61ec4a6db24,68817205a84113384fffdfe3,688237a99fcdeda2b31c7e7a,,,,,,,,,,,,./stim/wavs/mexican_match_interrogative-total-yn_Ana-lleva-el-abrigo.wav,1,,,180.7173,182.701,1,1,1.4669,,0,64,64,12,1,13,0,mexican,,,,,,,,,,,,,,,,,,,,,,,,,,,,,,,,,,,,,,,,,,,,,,,,,,,,,,,,
,,,,,,,,,6732736f57f1a61ec4a6db24,Spanish,13 or older,"no, only English or Spanish",no,2025-07-24_09h41.05.626,empathy_intonation_perc_control,2024.2.4,MacIntel,59.88023952,6732736f57f1a61ec4a6db24,68817205a84113384fffdfe3,688237a99fcdeda2b31c7e7a,,,,,,,,,,,,./stim/wavs/cuban_match_interrogative-total-yn_Ana-lleva-el-abrigo.wav,1,,,182.7015,184.7669,0,0,1.5336,,0,65,65,6,1,7,1,cuban,,,,,,,,,,,,,,,,,,,,,,,,,,,,,,,,,,,,,,,,,,,,,,,,,,,,,,,,
,,,,,,,,,6732736f57f1a61ec4a6db24,Spanish,13 or older,"no, only English or Spanish",no,2025-07-24_09h41.05.626,empathy_intonation_perc_control,2024.2.4,MacIntel,59.88023952,6732736f57f1a61ec4a6db24,68817205a84113384fffdfe3,688237a99fcdeda2b31c7e7a,,,,,,,,,,,,./stim/wavs/castilian_mismatch_declarative-broad-focus_Mi-novio-viene-del-lago.wav,0,,,184.7677,188.3004,1,0,3.0205,,0,66,66,71,1,72,0,castilian,,,,,,,,,,,,,,,,,,,,,,,,,,,,,,,,,,,,,,,,,,,,,,,,,,,,,,,,
,,,,,,,,,6732736f57f1a61ec4a6db24,Spanish,13 or older,"no, only English or Spanish",no,2025-07-24_09h41.05.626,empathy_intonation_perc_control,2024.2.4,MacIntel,59.88023952,6732736f57f1a61ec4a6db24,68817205a84113384fffdfe3,688237a99fcdeda2b31c7e7a,,,,,,,,,,,,./stim/wavs/castilian_match_interrogative-total-yn_Maria-bebe-el-vino.wav,1,,,188.301,190.5339,1,1,1.7174,,0,67,67,3,1,4,0,castilian,,,,,,,,,,,,,,,,,,,,,,,,,,,,,,,,,,,,,,,,,,,,,,,,,,,,,,,,
,,,,,,,,,6732736f57f1a61ec4a6db24,Spanish,13 or older,"no, only English or Spanish",no,2025-07-24_09h41.05.626,empathy_intonation_perc_control,2024.2.4,MacIntel,59.88023952,6732736f57f1a61ec4a6db24,68817205a84113384fffdfe3,688237a99fcdeda2b31c7e7a,,,,,,,,,,,,./stim/wavs/cuban_mismatch_declarative-broad-focus_Mi-novio-viene-del-lago.wav,0,,,190.5347,192.7171,0,1,1.6664,,0,68,68,76,1,77,0,cuban,,,,,,,,,,,,,,,,,,,,,,,,,,,,,,,,,,,,,,,,,,,,,,,,,,,,,,,,
,,,,,,,,,6732736f57f1a61ec4a6db24,Spanish,13 or older,"no, only English or Spanish",no,2025-07-24_09h41.05.626,empathy_intonation_perc_control,2024.2.4,MacIntel,59.88023952,6732736f57f1a61ec4a6db24,68817205a84113384fffdfe3,688237a99fcdeda2b31c7e7a,,,,,,,,,,,,./stim/wavs/puertorican_mismatch_declarative-broad-focus_El-nino-oye-el-rio.wav,0,,,192.7177,195.0685,0,1,1.8343,,0,69,69,85,1,86,0,puertorican,,,,,,,,,,,,,,,,,,,,,,,,,,,,,,,,,,,,,,,,,,,,,,,,,,,,,,,,
,,,,,,,,,6732736f57f1a61ec4a6db24,Spanish,13 or older,"no, only English or Spanish",no,2025-07-24_09h41.05.626,empathy_intonation_perc_control,2024.2.4,MacIntel,59.88023952,6732736f57f1a61ec4a6db24,68817205a84113384fffdfe3,688237a99fcdeda2b31c7e7a,,,,,,,,,,,,./stim/wavs/puertorican_match_declarative-broad-focus_Emilio-ama-la-marcha.wav,0,,,195.0691,197.585,0,1,1.9834,,0,70,70,65,1,66,0,puertorican,,,,,,,,,,,,,,,,,,,,,,,,,,,,,,,,,,,,,,,,,,,,,,,,,,,,,,,,
,,,,,,,,,6732736f57f1a61ec4a6db24,Spanish,13 or older,"no, only English or Spanish",no,2025-07-24_09h41.05.626,empathy_intonation_perc_control,2024.2.4,MacIntel,59.88023952,6732736f57f1a61ec4a6db24,68817205a84113384fffdfe3,688237a99fcdeda2b31c7e7a,,,,,,,,,,,,./stim/wavs/mexican_match_declarative-broad-focus_Daniel-iba-a-Bolivia.wav,0,,,197.5856,199.7351,0,1,1.6161,,0,71,71,57,1,58,0,mexican,,,,,,,,,,,,,,,,,,,,,,,,,,,,,,,,,,,,,,,,,,,,,,,,,,,,,,,,
,,,,,,,,,6732736f57f1a61ec4a6db24,Spanish,13 or older,"no, only English or Spanish",no,2025-07-24_09h41.05.626,empathy_intonation_perc_control,2024.2.4,MacIntel,59.88023952,6732736f57f1a61ec4a6db24,68817205a84113384fffdfe3,688237a99fcdeda2b31c7e7a,,,,,,,,,,,,./stim/wavs/puertorican_match_interrogative-total-yn_Ana-lleva-el-abrigo.wav,1,,,199.7358,201.5519,1,1,1.2848,,0,72,72,18,1,19,1,puertorican,,,,,,,,,,,,,,,,,,,,,,,,,,,,,,,,,,,,,,,,,,,,,,,,,,,,,,,,
,,,,,,,,,6732736f57f1a61ec4a6db24,Spanish,13 or older,"no, only English or Spanish",no,2025-07-24_09h41.05.626,empathy_intonation_perc_control,2024.2.4,MacIntel,59.88023952,6732736f57f1a61ec4a6db24,68817205a84113384fffdfe3,688237a99fcdeda2b31c7e7a,,,,,,,,,,,,./stim/wavs/cuban_match_declarative-broad-focus_Maria-bebe-el-vino.wav,0,,,201.5523,203.6353,0,1,1.5503,,0,73,73,53,1,54,0,cuban,,,,,,,,,,,,,,,,,,,,,,,,,,,,,,,,,,,,,,,,,,,,,,,,,,,,,,,,
,,,,,,,,,6732736f57f1a61ec4a6db24,Spanish,13 or older,"no, only English or Spanish",no,2025-07-24_09h41.05.626,empathy_intonation_perc_control,2024.2.4,MacIntel,59.88023952,6732736f57f1a61ec4a6db24,68817205a84113384fffdfe3,688237a99fcdeda2b31c7e7a,,,,,,,,,,,,./stim/wavs/castilian_mismatch_declarative-broad-focus_Mi-tia-odia-la-lluvia.wav,0,,,203.6359,205.7851,0,1,1.628,,0,74,74,72,1,73,0,castilian,,,,,,,,,,,,,,,,,,,,,,,,,,,,,,,,,,,,,,,,,,,,,,,,,,,,,,,,
,,,,,,,,,6732736f57f1a61ec4a6db24,Spanish,13 or older,"no, only English or Spanish",no,2025-07-24_09h41.05.626,empathy_intonation_perc_control,2024.2.4,MacIntel,59.88023952,6732736f57f1a61ec4a6db24,68817205a84113384fffdfe3,688237a99fcdeda2b31c7e7a,,,,,,,,,,,,./stim/wavs/puertorican_mismatch_declarative-broad-focus_El-bebe-comia-muy-bien.wav,0,,,205.7857,208.3352,0,1,2.0175,,0,75,75,83,1,84,0,puertorican,,,,,,,,,,,,,,,,,,,,,,,,,,,,,,,,,,,,,,,,,,,,,,,,,,,,,,,,
,,,,,,,,,6732736f57f1a61ec4a6db24,Spanish,13 or older,"no, only English or Spanish",no,2025-07-24_09h41.05.626,empathy_intonation_perc_control,2024.2.4,MacIntel,59.88023952,6732736f57f1a61ec4a6db24,68817205a84113384fffdfe3,688237a99fcdeda2b31c7e7a,,,,,,,,,,,,./stim/wavs/cuban_match_interrogative-total-yn_Manuela-vende-el-carro.wav,1,,,208.3357,210.5514,1,1,1.6839,,0,76,76,8,1,9,1,cuban,,,,,,,,,,,,,,,,,,,,,,,,,,,,,,,,,,,,,,,,,,,,,,,,,,,,,,,,
,,,,,,,,,6732736f57f1a61ec4a6db24,Spanish,13 or older,"no, only English or Spanish",no,2025-07-24_09h41.05.626,empathy_intonation_perc_control,2024.2.4,MacIntel,59.88023952,6732736f57f1a61ec4a6db24,68817205a84113384fffdfe3,688237a99fcdeda2b31c7e7a,,,,,,,,,,,,./stim/wavs/cuban_match_declarative-broad-focus_Manuela-vende-el-carro.wav,0,,,210.5521,212.7021,0,1,1.6444,,0,77,77,52,1,53,0,cuban,,,,,,,,,,,,,,,,,,,,,,,,,,,,,,,,,,,,,,,,,,,,,,,,,,,,,,,,
,,,,,,,,,6732736f57f1a61ec4a6db24,Spanish,13 or older,"no, only English or Spanish",no,2025-07-24_09h41.05.626,empathy_intonation_perc_control,2024.2.4,MacIntel,59.88023952,6732736f57f1a61ec4a6db24,68817205a84113384fffdfe3,688237a99fcdeda2b31c7e7a,,,,,,,,,,,,./stim/wavs/castilian_match_declarative-broad-focus_Marta-abre-el-regalo.wav,0,,,212.7026,215.1193,0,1,1.8832,,0,78,78,49,1,50,0,castilian,,,,,,,,,,,,,,,,,,,,,,,,,,,,,,,,,,,,,,,,,,,,,,,,,,,,,,,,
,,,,,,,,,6732736f57f1a61ec4a6db24,Spanish,13 or older,"no, only English or Spanish",no,2025-07-24_09h41.05.626,empathy_intonation_perc_control,2024.2.4,MacIntel,59.88023952,6732736f57f1a61ec4a6db24,68817205a84113384fffdfe3,688237a99fcdeda2b31c7e7a,,,,,,,,,,,,./stim/wavs/puertorican_match_declarative-broad-focus_Maria-bebe-el-vino.wav,0,,,215.1199,216.9016,0,1,1.2501,,0,79,79,67,1,68,0,puertorican,,,,,,,,,,,,,,,,,,,,,,,,,,,,,,,,,,,,,,,,,,,,,,,,,,,,,,,,
,,,,,,,,,6732736f57f1a61ec4a6db24,Spanish,13 or older,"no, only English or Spanish",no,2025-07-24_09h41.05.626,empathy_intonation_perc_control,2024.2.4,MacIntel,59.88023952,6732736f57f1a61ec4a6db24,68817205a84113384fffdfe3,688237a99fcdeda2b31c7e7a,,,,,,,,,,,,./stim/wavs/castilian_mismatch_interrogative-total-yn_La-maestra-vive-en-Paris.wav,1,,,216.9023,219.2025,1,1,1.7871,,0,80,80,24,1,25,0,castilian,,,,,,,,,,,,,,,,,,,,,,,,,,,,,,,,,,,,,,,,,,,,,,,,,,,,,,,,
,,,,,,,,,6732736f57f1a61ec4a6db24,Spanish,13 or older,"no, only English or Spanish",no,2025-07-24_09h41.05.626,empathy_intonation_perc_control,2024.2.4,MacIntel,59.88023952,6732736f57f1a61ec4a6db24,68817205a84113384fffdfe3,688237a99fcdeda2b31c7e7a,,,,,,,,,,,,./stim/wavs/puertorican_match_interrogative-total-yn_David-leia-el-libro.wav,1,,,219.2031,221.1029,1,1,1.3665,,0,81,81,20,1,21,1,puertorican,,,,,,,,,,,,,,,,,,,,,,,,,,,,,,,,,,,,,,,,,,,,,,,,,,,,,,,,
,,,,,,,,,6732736f57f1a61ec4a6db24,Spanish,13 or older,"no, only English or Spanish",no,2025-07-24_09h41.05.626,empathy_intonation_perc_control,2024.2.4,MacIntel,59.88023952,6732736f57f1a61ec4a6db24,68817205a84113384fffdfe3,688237a99fcdeda2b31c7e7a,,,,,,,,,,,,./stim/wavs/mexican_mismatch_interrogative-total-yn_El-nino-oye-el-rio.wav,1,,,221.1036,223.0693,1,1,1.434,,0,82,82,35,1,36,0,mexican,,,,,,,,,,,,,,,,,,,,,,,,,,,,,,,,,,,,,,,,,,,,,,,,,,,,,,,,
,,,,,,,,,6732736f57f1a61ec4a6db24,Spanish,13 or older,"no, only English or Spanish",no,2025-07-24_09h41.05.626,empathy_intonation_perc_control,2024.2.4,MacIntel,59.88023952,6732736f57f1a61ec4a6db24,68817205a84113384fffdfe3,688237a99fcdeda2b31c7e7a,,,,,,,,,,,,./stim/wavs/castilian_match_interrogative-total-yn_Manuela-vende-el-carro.wav,1,,,223.0701,225.2528,1,1,1.6499,,0,83,83,2,1,3,0,castilian,,,,,,,,,,,,,,,,,,,,,,,,,,,,,,,,,,,,,,,,,,,,,,,,,,,,,,,,
,,,,,,,,,6732736f57f1a61ec4a6db24,Spanish,13 or older,"no, only English or Spanish",no,2025-07-24_09h41.05.626,empathy_intonation_perc_control,2024.2.4,MacIntel,59.88023952,6732736f57f1a61ec4a6db24,68817205a84113384fffdfe3,688237a99fcdeda2b31c7e7a,,,,,,,,,,,,./stim/wavs/castilian_mismatch_interrogative-total-yn_Mi-novio-viene-del-lago.wav,1,,,225.2534,227.3861,1,1,1.6016,,0,84,84,27,1,28,0,castilian,,,,,,,,,,,,,,,,,,,,,,,,,,,,,,,,,,,,,,,,,,,,,,,,,,,,,,,,
,,,,,,,,,6732736f57f1a61ec4a6db24,Spanish,13 or older,"no, only English or Spanish",no,2025-07-24_09h41.05.626,empathy_intonation_perc_control,2024.2.4,MacIntel,59.88023952,6732736f57f1a61ec4a6db24,68817205a84113384fffdfe3,688237a99fcdeda2b31c7e7a,,,,,,,,,,,,./stim/wavs/mexican_mismatch_declarative-broad-focus_El-hombre-mira-la-luna.wav,0,,,227.3867,229.8862,0,1,1.9721,,0,85,85,79,1,80,0,mexican,,,,,,,,,,,,,,,,,,,,,,,,,,,,,,,,,,,,,,,,,,,,,,,,,,,,,,,,
,,,,,,,,,6732736f57f1a61ec4a6db24,Spanish,13 or older,"no, only English or Spanish",no,2025-07-24_09h41.05.626,empathy_intonation_perc_control,2024.2.4,MacIntel,59.88023952,6732736f57f1a61ec4a6db24,68817205a84113384fffdfe3,688237a99fcdeda2b31c7e7a,,,,,,,,,,,,./stim/wavs/mexican_mismatch_interrogative-total-yn_Mi-tia-odia-la-lluvia.wav,1,,,229.8869,231.7029,0,0,1.2844,,0,86,86,38,1,39,0,mexican,,,,,,,,,,,,,,,,,,,,,,,,,,,,,,,,,,,,,,,,,,,,,,,,,,,,,,,,
,,,,,,,,,6732736f57f1a61ec4a6db24,Spanish,13 or older,"no, only English or Spanish",no,2025-07-24_09h41.05.626,empathy_intonation_perc_control,2024.2.4,MacIntel,59.88023952,6732736f57f1a61ec4a6db24,68817205a84113384fffdfe3,688237a99fcdeda2b31c7e7a,,,,,,,,,,,,./stim/wavs/puertorican_match_declarative-broad-focus_Manuela-vende-el-carro.wav,0,,,231.7036,233.9697,0,1,1.7332,,0,87,87,66,1,67,0,puertorican,,,,,,,,,,,,,,,,,,,,,,,,,,,,,,,,,,,,,,,,,,,,,,,,,,,,,,,,
,,,,,,,"Great! Now we will move on. The next task consists of about 60 trials, in each of which you will see a string of letters. 
  
  Your task is to decide whether this is a real Spanish word or not.", (press the spacebar to continue),6732736f57f1a61ec4a6db24,Spanish,13 or older,"no, only English or Spanish",no,2025-07-24_09h41.05.626,empathy_intonation_perc_control,2024.2.4,MacIntel,59.88023952,6732736f57f1a61ec4a6db24,68817205a84113384fffdfe3,688237a99fcdeda2b31c7e7a,,,,,,,,,,,,,,,,,,,,,,,,,,,,,,233.9823,239.3536,0,0,0,0,1,,,,,,,,,,,,,,,,,,,,,,,,,,,,,,,,,,,,,,,,,,,,,,,,,
,,,,,,,"If you think it is an existing Spanish word, you type '1' (for 'REAL'), and if you think it is not an existing Spanish word, you type '0' (for 'FAKE').", (press the spacebar to continue),6732736f57f1a61ec4a6db24,Spanish,13 or older,"no, only English or Spanish",no,2025-07-24_09h41.05.626,empathy_intonation_perc_control,2024.2.4,MacIntel,59.88023952,6732736f57f1a61ec4a6db24,68817205a84113384fffdfe3,688237a99fcdeda2b31c7e7a,,,,,,,,,,,,,,,,,,,,,,,,,,,,,,239.3557,242.8369,0,1,1,1,1,,,,,,,,,,,,,,,,,,,,,,,,,,,,,,,,,,,,,,,,,,,,,,,,,
,,,,,,,"If you are sure that the word exists, even though you don’t know its exact meaning, you may still respond '1' (REAL). 
  
  But if you are not sure if it is an existing word, you should respond '0' (FAKE).
  
  Let's do a practice round...", (press the spacebar to continue),6732736f57f1a61ec4a6db24,Spanish,13 or older,"no, only English or Spanish",no,2025-07-24_09h41.05.626,empathy_intonation_perc_control,2024.2.4,MacIntel,59.88023952,6732736f57f1a61ec4a6db24,68817205a84113384fffdfe3,688237a99fcdeda2b31c7e7a,,,,,,,,,,,,,,,,,,,,,,,,,,,,,,242.839,244.5361,0,2,2,2,1,,,,,,,,,,,,,,,,,,,,,,,,,,,,,,,,,,,,,,,,,,,,,,,,,
,,,,,,,,,6732736f57f1a61ec4a6db24,Spanish,13 or older,"no, only English or Spanish",no,2025-07-24_09h41.05.626,empathy_intonation_perc_control,2024.2.4,MacIntel,59.88023952,6732736f57f1a61ec4a6db24,68817205a84113384fffdfe3,688237a99fcdeda2b31c7e7a,,,,,,,,,,,,,0,,,,,,,,,,,,,,,,,,,,,,,,244.5426,246.554,1,0,1.4758,,246.5542,247.5537,0,0,0,0,1,0,depiste,REAL,FAKE,,,,,,,,,,,,,,,,,,,,,,,,,,,,,,,,
,,,,,,,,,6732736f57f1a61ec4a6db24,Spanish,13 or older,"no, only English or Spanish",no,2025-07-24_09h41.05.626,empathy_intonation_perc_control,2024.2.4,MacIntel,59.88023952,6732736f57f1a61ec4a6db24,68817205a84113384fffdfe3,688237a99fcdeda2b31c7e7a,,,,,,,,,,,,,1,,,,,,,,,,,,,,,,,,,,,,,,247.5554,249.0203,1,1,0.9317,,249.0211,250.0202,0,1,1,1,1,0,sí,REAL,FAKE,,,,,,,,,,,,,,,,,,,,,,,,,,,,,,,,
,,,,,,,,,6732736f57f1a61ec4a6db24,Spanish,13 or older,"no, only English or Spanish",no,2025-07-24_09h41.05.626,empathy_intonation_perc_control,2024.2.4,MacIntel,59.88023952,6732736f57f1a61ec4a6db24,68817205a84113384fffdfe3,688237a99fcdeda2b31c7e7a,,,,,,,,,,,,,0,,,,,,,,,,,,,,,,,,,,,,,,250.0216,251.6201,1,0,1.0597,,251.6205,252.6204,0,2,2,2,1,0,coné,REAL,FAKE,,,,,,,,,,,,,,,,,,,,,,,,,,,,,,,,
,,,,,,,,,6732736f57f1a61ec4a6db24,Spanish,13 or older,"no, only English or Spanish",no,2025-07-24_09h41.05.626,empathy_intonation_perc_control,2024.2.4,MacIntel,59.88023952,6732736f57f1a61ec4a6db24,68817205a84113384fffdfe3,688237a99fcdeda2b31c7e7a,,,,,,,,,,,,,0,,,,,,,,,,,,,,,,,,,,,,,,252.6217,254.2538,1,0,1.0891,,254.2539,255.2529,0,3,3,3,1,0,calpar,REAL,FAKE,,,,,,,,,,,,,,,,,,,,,,,,,,,,,,,,
,,,,,,,,,6732736f57f1a61ec4a6db24,Spanish,13 or older,"no, only English or Spanish",no,2025-07-24_09h41.05.626,empathy_intonation_perc_control,2024.2.4,MacIntel,59.88023952,6732736f57f1a61ec4a6db24,68817205a84113384fffdfe3,688237a99fcdeda2b31c7e7a,,,,,,,,,,,,,0,,,,,,,,,,,,,,,,,,,,,,,,255.2541,257.1864,0,1,1.4077,,257.1872,258.1865,0,4,4,4,1,0,joten,REAL,FAKE,,,,,,,,,,,,,,,,,,,,,,,,,,,,,,,,
,,,,,,,,,6732736f57f1a61ec4a6db24,Spanish,13 or older,"no, only English or Spanish",no,2025-07-24_09h41.05.626,empathy_intonation_perc_control,2024.2.4,MacIntel,59.88023952,6732736f57f1a61ec4a6db24,68817205a84113384fffdfe3,688237a99fcdeda2b31c7e7a,,,,,,,,,,,,,1,,,,,,,,,,,,,,,,,,,,,,,,258.1876,260.6378,0,0,1.9249,,260.6386,261.6376,0,5,5,5,1,0,sacapuntas,REAL,FAKE,,,,,,,,,,,,,,,,,,,,,,,,,,,,,,,,
,,,,,,,,,6732736f57f1a61ec4a6db24,Spanish,13 or older,"no, only English or Spanish",no,2025-07-24_09h41.05.626,empathy_intonation_perc_control,2024.2.4,MacIntel,59.88023952,6732736f57f1a61ec4a6db24,68817205a84113384fffdfe3,688237a99fcdeda2b31c7e7a,,,,,,,,,,,,,0,,,,,,,,,,,,,,,,,,,,,,,,261.6392,262.904,0,1,0.7216,,262.9047,263.9032,0,6,6,6,1,0,priba,REAL,FAKE,,,,,,,,,,,,,,,,,,,,,,,,,,,,,,,,
,,,,,,,,,6732736f57f1a61ec4a6db24,Spanish,13 or older,"no, only English or Spanish",no,2025-07-24_09h41.05.626,empathy_intonation_perc_control,2024.2.4,MacIntel,59.88023952,6732736f57f1a61ec4a6db24,68817205a84113384fffdfe3,688237a99fcdeda2b31c7e7a,,,,,,,,,,,,,0,,,,,,,,,,,,,,,,,,,,,,,,263.9042,265.8209,1,0,1.3971,,265.8222,266.8209,0,7,7,7,1,0,pelasula,REAL,FAKE,,,,,,,,,,,,,,,,,,,,,,,,,,,,,,,,
,,,,,,,,,6732736f57f1a61ec4a6db24,Spanish,13 or older,"no, only English or Spanish",no,2025-07-24_09h41.05.626,empathy_intonation_perc_control,2024.2.4,MacIntel,59.88023952,6732736f57f1a61ec4a6db24,68817205a84113384fffdfe3,688237a99fcdeda2b31c7e7a,,,,,,,,,,,,,1,,,,,,,,,,,,,,,,,,,,,,,,266.8221,268.07,1,1,0.7107,,268.0708,269.071,0,8,8,8,1,0,bien,REAL,FAKE,,,,,,,,,,,,,,,,,,,,,,,,,,,,,,,,
,,,,,,,,,6732736f57f1a61ec4a6db24,Spanish,13 or older,"no, only English or Spanish",no,2025-07-24_09h41.05.626,empathy_intonation_perc_control,2024.2.4,MacIntel,59.88023952,6732736f57f1a61ec4a6db24,68817205a84113384fffdfe3,688237a99fcdeda2b31c7e7a,,,,,,,,,,,,,1,,,,,,,,,,,,,,,,,,,,,,,,269.0723,270.3045,1,1,0.6969,,270.3046,271.3044,0,9,9,9,1,0,casa,REAL,FAKE,,,,,,,,,,,,,,,,,,,,,,,,,,,,,,,,
,,,,,,,,,6732736f57f1a61ec4a6db24,Spanish,13 or older,"no, only English or Spanish",no,2025-07-24_09h41.05.626,empathy_intonation_perc_control,2024.2.4,MacIntel,59.88023952,6732736f57f1a61ec4a6db24,68817205a84113384fffdfe3,688237a99fcdeda2b31c7e7a,,,,,,,,,,,,,0,,,,,,,,,,,,,,,,,,,,,,,,271.3058,273.1879,1,0,1.3438,,273.189,274.1878,0,10,10,10,1,0,lejo,REAL,FAKE,,,,,,,,,,,,,,,,,,,,,,,,,,,,,,,,
,,,,,,,,,6732736f57f1a61ec4a6db24,Spanish,13 or older,"no, only English or Spanish",no,2025-07-24_09h41.05.626,empathy_intonation_perc_control,2024.2.4,MacIntel,59.88023952,6732736f57f1a61ec4a6db24,68817205a84113384fffdfe3,688237a99fcdeda2b31c7e7a,,,,,,,,,,,,,0,,,,,,,,,,,,,,,,,,,,,,,,274.1888,275.687,0,1,0.9611,,275.6879,276.6878,0,11,11,11,1,0,pretantas,REAL,FAKE,,,,,,,,,,,,,,,,,,,,,,,,,,,,,,,,
,,,,,,,,,6732736f57f1a61ec4a6db24,Spanish,13 or older,"no, only English or Spanish",no,2025-07-24_09h41.05.626,empathy_intonation_perc_control,2024.2.4,MacIntel,59.88023952,6732736f57f1a61ec4a6db24,68817205a84113384fffdfe3,688237a99fcdeda2b31c7e7a,,,,,,,,,,,,,,,,,,,,,,,,,,,,,,,,,,,,,,,,,,,,,,,,,,,,,,276.6881,277.4884,,,,,,,,,,,,,,,,,,,,,,,,,,,,,,
,,,,,,,,,6732736f57f1a61ec4a6db24,Spanish,13 or older,"no, only English or Spanish",no,2025-07-24_09h41.05.626,empathy_intonation_perc_control,2024.2.4,MacIntel,59.88023952,6732736f57f1a61ec4a6db24,68817205a84113384fffdfe3,688237a99fcdeda2b31c7e7a,,,,,,,,,,,,,1,,,,,,,,,,,,,,,,,,,,,,,,,,,,,,,,,,,,,83,guante,,,,,277.4987,279.405,0,0,1.377,,0,0,0,82,1,REAL,FAKE,,,,,,,,,,,,,,,,,
,,,,,,,,,6732736f57f1a61ec4a6db24,Spanish,13 or older,"no, only English or Spanish",no,2025-07-24_09h41.05.626,empathy_intonation_perc_control,2024.2.4,MacIntel,59.88023952,6732736f57f1a61ec4a6db24,68817205a84113384fffdfe3,688237a99fcdeda2b31c7e7a,,,,,,,,,,,,,1,,,,,,,,,,,,,,,,,,,,,,,,,,,,,,,,,,,,,46,martillo,,,,,279.4063,282.438,0,0,2.4999,,0,1,1,45,1,REAL,FAKE,,,,,,,,,,,,,,,,,
,,,,,,,,,6732736f57f1a61ec4a6db24,Spanish,13 or older,"no, only English or Spanish",no,2025-07-24_09h41.05.626,empathy_intonation_perc_control,2024.2.4,MacIntel,59.88023952,6732736f57f1a61ec4a6db24,68817205a84113384fffdfe3,688237a99fcdeda2b31c7e7a,,,,,,,,,,,,,1,,,,,,,,,,,,,,,,,,,,,,,,,,,,,,,,,,,,,89,prisa,,,,,282.4389,283.7216,0,0,0.7588,,0,2,2,88,1,REAL,FAKE,,,,,,,,,,,,,,,,,
,,,,,,,,,6732736f57f1a61ec4a6db24,Spanish,13 or older,"no, only English or Spanish",no,2025-07-24_09h41.05.626,empathy_intonation_perc_control,2024.2.4,MacIntel,59.88023952,6732736f57f1a61ec4a6db24,68817205a84113384fffdfe3,688237a99fcdeda2b31c7e7a,,,,,,,,,,,,,1,,,,,,,,,,,,,,,,,,,,,,,,,,,,,,,,,,,,,88,acantilado,,,,,283.7225,285.3882,0,0,1.1289,,0,3,3,87,1,REAL,FAKE,,,,,,,,,,,,,,,,,
,,,,,,,,,6732736f57f1a61ec4a6db24,Spanish,13 or older,"no, only English or Spanish",no,2025-07-24_09h41.05.626,empathy_intonation_perc_control,2024.2.4,MacIntel,59.88023952,6732736f57f1a61ec4a6db24,68817205a84113384fffdfe3,688237a99fcdeda2b31c7e7a,,,,,,,,,,,,,1,,,,,,,,,,,,,,,,,,,,,,,,,,,,,,,,,,,,,38,estornudar,,,,,285.3893,287.2376,0,0,1.3139,,0,4,4,37,1,REAL,FAKE,,,,,,,,,,,,,,,,,
,,,,,,,,,6732736f57f1a61ec4a6db24,Spanish,13 or older,"no, only English or Spanish",no,2025-07-24_09h41.05.626,empathy_intonation_perc_control,2024.2.4,MacIntel,59.88023952,6732736f57f1a61ec4a6db24,68817205a84113384fffdfe3,688237a99fcdeda2b31c7e7a,,,,,,,,,,,,,0,,,,,,,,,,,,,,,,,,,,,,,,,,,,,,,,,,,,,10,antar,,,,,287.2387,289.3045,1,0,1.5441,,0,5,5,9,1,REAL,FAKE,,,,,,,,,,,,,,,,,
,,,,,,,,,6732736f57f1a61ec4a6db24,Spanish,13 or older,"no, only English or Spanish",no,2025-07-24_09h41.05.626,empathy_intonation_perc_control,2024.2.4,MacIntel,59.88023952,6732736f57f1a61ec4a6db24,68817205a84113384fffdfe3,688237a99fcdeda2b31c7e7a,,,,,,,,,,,,,1,,,,,,,,,,,,,,,,,,,,,,,,,,,,,,,,,,,,,90,clavel,,,,,289.3058,290.9053,0,0,1.0713,,0,6,6,89,1,REAL,FAKE,,,,,,,,,,,,,,,,,
,,,,,,,,,6732736f57f1a61ec4a6db24,Spanish,13 or older,"no, only English or Spanish",no,2025-07-24_09h41.05.626,empathy_intonation_perc_control,2024.2.4,MacIntel,59.88023952,6732736f57f1a61ec4a6db24,68817205a84113384fffdfe3,688237a99fcdeda2b31c7e7a,,,,,,,,,,,,,0,,,,,,,,,,,,,,,,,,,,,,,,,,,,,,,,,,,,,63,esposante,,,,,290.9064,293.1889,1,0,1.746,,0,7,7,62,1,REAL,FAKE,,,,,,,,,,,,,,,,,
,,,,,,,,,6732736f57f1a61ec4a6db24,Spanish,13 or older,"no, only English or Spanish",no,2025-07-24_09h41.05.626,empathy_intonation_perc_control,2024.2.4,MacIntel,59.88023952,6732736f57f1a61ec4a6db24,68817205a84113384fffdfe3,688237a99fcdeda2b31c7e7a,,,,,,,,,,,,,0,,,,,,,,,,,,,,,,,,,,,,,,,,,,,,,,,,,,,82,empirador,,,,,293.1902,295.6386,0,1,1.9107,,0,8,8,81,1,REAL,FAKE,,,,,,,,,,,,,,,,,
,,,,,,,,,6732736f57f1a61ec4a6db24,Spanish,13 or older,"no, only English or Spanish",no,2025-07-24_09h41.05.626,empathy_intonation_perc_control,2024.2.4,MacIntel,59.88023952,6732736f57f1a61ec4a6db24,68817205a84113384fffdfe3,688237a99fcdeda2b31c7e7a,,,,,,,,,,,,,1,,,,,,,,,,,,,,,,,,,,,,,,,,,,,,,,,,,,,39,torpe,,,,,295.64,296.8882,0,0,0.7118,,0,9,9,38,1,REAL,FAKE,,,,,,,,,,,,,,,,,
,,,,,,,,,6732736f57f1a61ec4a6db24,Spanish,13 or older,"no, only English or Spanish",no,2025-07-24_09h41.05.626,empathy_intonation_perc_control,2024.2.4,MacIntel,59.88023952,6732736f57f1a61ec4a6db24,68817205a84113384fffdfe3,688237a99fcdeda2b31c7e7a,,,,,,,,,,,,,1,,,,,,,,,,,,,,,,,,,,,,,,,,,,,,,,,,,,,36,loro,,,,,296.8894,298.0053,1,1,0.5716,,0,10,10,35,1,REAL,FAKE,,,,,,,,,,,,,,,,,
,,,,,,,,,6732736f57f1a61ec4a6db24,Spanish,13 or older,"no, only English or Spanish",no,2025-07-24_09h41.05.626,empathy_intonation_perc_control,2024.2.4,MacIntel,59.88023952,6732736f57f1a61ec4a6db24,68817205a84113384fffdfe3,688237a99fcdeda2b31c7e7a,,,,,,,,,,,,,1,,,,,,,,,,,,,,,,,,,,,,,,,,,,,,,,,,,,,76,atar,,,,,298.0063,299.6391,0,0,1.0987,,0,11,11,75,1,REAL,FAKE,,,,,,,,,,,,,,,,,
,,,,,,,,,6732736f57f1a61ec4a6db24,Spanish,13 or older,"no, only English or Spanish",no,2025-07-24_09h41.05.626,empathy_intonation_perc_control,2024.2.4,MacIntel,59.88023952,6732736f57f1a61ec4a6db24,68817205a84113384fffdfe3,688237a99fcdeda2b31c7e7a,,,,,,,,,,,,,1,,,,,,,,,,,,,,,,,,,,,,,,,,,,,,,,,,,,,91,click the 1 key.,,,,,299.6402,301.5889,1,1,1.4015,,0,12,12,90,1,REAL,FAKE,,,,,,,,,,,,,,,,,
,,,,,,,,,6732736f57f1a61ec4a6db24,Spanish,13 or older,"no, only English or Spanish",no,2025-07-24_09h41.05.626,empathy_intonation_perc_control,2024.2.4,MacIntel,59.88023952,6732736f57f1a61ec4a6db24,68817205a84113384fffdfe3,688237a99fcdeda2b31c7e7a,,,,,,,,,,,,,1,,,,,,,,,,,,,,,,,,,,,,,,,,,,,,,,,,,,,11,cenefa,,,,,301.5899,305.1057,0,0,2.9774,,0,13,13,10,1,REAL,FAKE,,,,,,,,,,,,,,,,,
,,,,,,,,,6732736f57f1a61ec4a6db24,Spanish,13 or older,"no, only English or Spanish",no,2025-07-24_09h41.05.626,empathy_intonation_perc_control,2024.2.4,MacIntel,59.88023952,6732736f57f1a61ec4a6db24,68817205a84113384fffdfe3,688237a99fcdeda2b31c7e7a,,,,,,,,,,,,,0,,,,,,,,,,,,,,,,,,,,,,,,,,,,,,,,,,,,,32,fatacidad,,,,,305.1069,306.6557,0,1,1.0118,,0,14,14,31,1,REAL,FAKE,,,,,,,,,,,,,,,,,
,,,,,,,,,6732736f57f1a61ec4a6db24,Spanish,13 or older,"no, only English or Spanish",no,2025-07-24_09h41.05.626,empathy_intonation_perc_control,2024.2.4,MacIntel,59.88023952,6732736f57f1a61ec4a6db24,68817205a84113384fffdfe3,688237a99fcdeda2b31c7e7a,,,,,,,,,,,,,1,,,,,,,,,,,,,,,,,,,,,,,,,,,,,,,,,,,,,9,hacha,,,,,306.6568,307.9225,1,1,0.729,,0,15,15,8,1,REAL,FAKE,,,,,,,,,,,,,,,,,
,,,,,,,,,6732736f57f1a61ec4a6db24,Spanish,13 or older,"no, only English or Spanish",no,2025-07-24_09h41.05.626,empathy_intonation_perc_control,2024.2.4,MacIntel,59.88023952,6732736f57f1a61ec4a6db24,68817205a84113384fffdfe3,688237a99fcdeda2b31c7e7a,,,,,,,,,,,,,1,,,,,,,,,,,,,,,,,,,,,,,,,,,,,,,,,,,,,85,laúd,,,,,307.9237,309.439,1,1,0.9774,,0,16,16,84,1,REAL,FAKE,,,,,,,,,,,,,,,,,
,,,,,,,,,6732736f57f1a61ec4a6db24,Spanish,13 or older,"no, only English or Spanish",no,2025-07-24_09h41.05.626,empathy_intonation_perc_control,2024.2.4,MacIntel,59.88023952,6732736f57f1a61ec4a6db24,68817205a84113384fffdfe3,688237a99fcdeda2b31c7e7a,,,,,,,,,,,,,1,,,,,,,,,,,,,,,,,,,,,,,,,,,,,,,,,,,,,25,bisagra,,,,,309.4401,310.8392,0,0,0.8618,,0,17,17,24,1,REAL,FAKE,,,,,,,,,,,,,,,,,
,,,,,,,,,6732736f57f1a61ec4a6db24,Spanish,13 or older,"no, only English or Spanish",no,2025-07-24_09h41.05.626,empathy_intonation_perc_control,2024.2.4,MacIntel,59.88023952,6732736f57f1a61ec4a6db24,68817205a84113384fffdfe3,688237a99fcdeda2b31c7e7a,,,,,,,,,,,,,1,,,,,,,,,,,,,,,,,,,,,,,,,,,,,,,,,,,,,14,yunque,,,,,310.8405,312.3064,1,1,0.9419,,0,18,18,13,1,REAL,FAKE,,,,,,,,,,,,,,,,,
,,,,,,,,,6732736f57f1a61ec4a6db24,Spanish,13 or older,"no, only English or Spanish",no,2025-07-24_09h41.05.626,empathy_intonation_perc_control,2024.2.4,MacIntel,59.88023952,6732736f57f1a61ec4a6db24,68817205a84113384fffdfe3,688237a99fcdeda2b31c7e7a,,,,,,,,,,,,,1,,,,,,,,,,,,,,,,,,,,,,,,,,,,,,,,,,,,,75,yacer,,,,,312.3076,313.6228,1,1,0.7795,,0,19,19,74,1,REAL,FAKE,,,,,,,,,,,,,,,,,
,,,,,,,,,6732736f57f1a61ec4a6db24,Spanish,13 or older,"no, only English or Spanish",no,2025-07-24_09h41.05.626,empathy_intonation_perc_control,2024.2.4,MacIntel,59.88023952,6732736f57f1a61ec4a6db24,68817205a84113384fffdfe3,688237a99fcdeda2b31c7e7a,,,,,,,,,,,,,1,,,,,,,,,,,,,,,,,,,,,,,,,,,,,,,,,,,,,56,musgo,,,,,313.6241,315.1896,0,0,1.0278,,0,20,20,55,1,REAL,FAKE,,,,,,,,,,,,,,,,,
,,,,,,,,,6732736f57f1a61ec4a6db24,Spanish,13 or older,"no, only English or Spanish",no,2025-07-24_09h41.05.626,empathy_intonation_perc_control,2024.2.4,MacIntel,59.88023952,6732736f57f1a61ec4a6db24,68817205a84113384fffdfe3,688237a99fcdeda2b31c7e7a,,,,,,,,,,,,,0,,,,,,,,,,,,,,,,,,,,,,,,,,,,,,,,,,,,,74,cintro,,,,,315.1911,318.9217,0,1,3.1959,,0,21,21,73,1,REAL,FAKE,,,,,,,,,,,,,,,,,
,,,,,,,,,6732736f57f1a61ec4a6db24,Spanish,13 or older,"no, only English or Spanish",no,2025-07-24_09h41.05.626,empathy_intonation_perc_control,2024.2.4,MacIntel,59.88023952,6732736f57f1a61ec4a6db24,68817205a84113384fffdfe3,688237a99fcdeda2b31c7e7a,,,,,,,,,,,,,1,,,,,,,,,,,,,,,,,,,,,,,,,,,,,,,,,,,,,34,aviso,,,,,318.9225,321.2896,1,1,1.841,,0,22,22,33,1,REAL,FAKE,,,,,,,,,,,,,,,,,
,,,,,,,,,6732736f57f1a61ec4a6db24,Spanish,13 or older,"no, only English or Spanish",no,2025-07-24_09h41.05.626,empathy_intonation_perc_control,2024.2.4,MacIntel,59.88023952,6732736f57f1a61ec4a6db24,68817205a84113384fffdfe3,688237a99fcdeda2b31c7e7a,,,,,,,,,,,,,1,,,,,,,,,,,,,,,,,,,,,,,,,,,,,,,,,,,,,37,granuja,,,,,321.2908,322.9727,0,0,1.1551,,0,23,23,36,1,REAL,FAKE,,,,,,,,,,,,,,,,,
,,,,,,,,,6732736f57f1a61ec4a6db24,Spanish,13 or older,"no, only English or Spanish",no,2025-07-24_09h41.05.626,empathy_intonation_perc_control,2024.2.4,MacIntel,59.88023952,6732736f57f1a61ec4a6db24,68817205a84113384fffdfe3,688237a99fcdeda2b31c7e7a,,,,,,,,,,,,,1,,,,,,,,,,,,,,,,,,,,,,,,,,,,,,,,,,,,,62,flaco,,,,,322.9733,324.3055,1,1,0.7938,,0,24,24,61,1,REAL,FAKE,,,,,,,,,,,,,,,,,
,,,,,,,,,6732736f57f1a61ec4a6db24,Spanish,13 or older,"no, only English or Spanish",no,2025-07-24_09h41.05.626,empathy_intonation_perc_control,2024.2.4,MacIntel,59.88023952,6732736f57f1a61ec4a6db24,68817205a84113384fffdfe3,688237a99fcdeda2b31c7e7a,,,,,,,,,,,,,1,,,,,,,,,,,,,,,,,,,,,,,,,,,,,,,,,,,,,24,látigo,,,,,324.3068,325.5731,1,1,0.7426,,0,25,25,23,1,REAL,FAKE,,,,,,,,,,,,,,,,,
,,,,,,,,,6732736f57f1a61ec4a6db24,Spanish,13 or older,"no, only English or Spanish",no,2025-07-24_09h41.05.626,empathy_intonation_perc_control,2024.2.4,MacIntel,59.88023952,6732736f57f1a61ec4a6db24,68817205a84113384fffdfe3,688237a99fcdeda2b31c7e7a,,,,,,,,,,,,,1,,,,,,,,,,,,,,,,,,,,,,,,,,,,,,,,,,,,,65,bizcocho,,,,,325.5747,327.5394,1,1,1.4343,,0,26,26,64,1,REAL,FAKE,,,,,,,,,,,,,,,,,
,,,,,,,,,6732736f57f1a61ec4a6db24,Spanish,13 or older,"no, only English or Spanish",no,2025-07-24_09h41.05.626,empathy_intonation_perc_control,2024.2.4,MacIntel,59.88023952,6732736f57f1a61ec4a6db24,68817205a84113384fffdfe3,688237a99fcdeda2b31c7e7a,,,,,,,,,,,,,0,,,,,,,,,,,,,,,,,,,,,,,,,,,,,,,,,,,,,8,cadeña,,,,,327.5405,328.8064,1,0,0.7499,,0,27,27,7,1,REAL,FAKE,,,,,,,,,,,,,,,,,
,,,,,,,,,6732736f57f1a61ec4a6db24,Spanish,13 or older,"no, only English or Spanish",no,2025-07-24_09h41.05.626,empathy_intonation_perc_control,2024.2.4,MacIntel,59.88023952,6732736f57f1a61ec4a6db24,68817205a84113384fffdfe3,688237a99fcdeda2b31c7e7a,,,,,,,,,,,,,1,,,,,,,,,,,,,,,,,,,,,,,,,,,,,,,,,,,,,55,nevar,,,,,328.8073,330.023,0,0,0.6775,,0,28,28,54,1,REAL,FAKE,,,,,,,,,,,,,,,,,
,,,,,,,,,6732736f57f1a61ec4a6db24,Spanish,13 or older,"no, only English or Spanish",no,2025-07-24_09h41.05.626,empathy_intonation_perc_control,2024.2.4,MacIntel,59.88023952,6732736f57f1a61ec4a6db24,68817205a84113384fffdfe3,688237a99fcdeda2b31c7e7a,,,,,,,,,,,,,1,,,,,,,,,,,,,,,,,,,,,,,,,,,,,,,,,,,,,86,barato,,,,,330.0237,332.1067,1,1,1.554,,0,29,29,85,1,REAL,FAKE,,,,,,,,,,,,,,,,,
,,,,,,,,,6732736f57f1a61ec4a6db24,Spanish,13 or older,"no, only English or Spanish",no,2025-07-24_09h41.05.626,empathy_intonation_perc_control,2024.2.4,MacIntel,59.88023952,6732736f57f1a61ec4a6db24,68817205a84113384fffdfe3,688237a99fcdeda2b31c7e7a,,,,,,,,,,,,,1,,,,,,,,,,,,,,,,,,,,,,,,,,,,,,,,,,,,,48,ladrón,,,,,332.1078,334.1568,1,1,1.5155,,0,30,30,47,1,REAL,FAKE,,,,,,,,,,,,,,,,,
,,,,,,,,,6732736f57f1a61ec4a6db24,Spanish,13 or older,"no, only English or Spanish",no,2025-07-24_09h41.05.626,empathy_intonation_perc_control,2024.2.4,MacIntel,59.88023952,6732736f57f1a61ec4a6db24,68817205a84113384fffdfe3,688237a99fcdeda2b31c7e7a,,,,,,,,,,,,,1,,,,,,,,,,,,,,,,,,,,,,,,,,,,,,,,,,,,,54,fomentar,,,,,334.1578,335.4058,0,0,0.6935,,0,31,31,53,1,REAL,FAKE,,,,,,,,,,,,,,,,,
,,,,,,,,,6732736f57f1a61ec4a6db24,Spanish,13 or older,"no, only English or Spanish",no,2025-07-24_09h41.05.626,empathy_intonation_perc_control,2024.2.4,MacIntel,59.88023952,6732736f57f1a61ec4a6db24,68817205a84113384fffdfe3,688237a99fcdeda2b31c7e7a,,,,,,,,,,,,,0,,,,,,,,,,,,,,,,,,,,,,,,,,,,,,,,,,,,,21,capillo,,,,,335.407,336.6234,0,1,0.689,,0,32,32,20,1,REAL,FAKE,,,,,,,,,,,,,,,,,
,,,,,,,,,6732736f57f1a61ec4a6db24,Spanish,13 or older,"no, only English or Spanish",no,2025-07-24_09h41.05.626,empathy_intonation_perc_control,2024.2.4,MacIntel,59.88023952,6732736f57f1a61ec4a6db24,68817205a84113384fffdfe3,688237a99fcdeda2b31c7e7a,,,,,,,,,,,,,0,,,,,,,,,,,,,,,,,,,,,,,,,,,,,,,,,,,,,4,batillón,,,,,336.6247,338.0059,1,0,0.8484,,0,33,33,3,1,REAL,FAKE,,,,,,,,,,,,,,,,,
,,,,,,,,,6732736f57f1a61ec4a6db24,Spanish,13 or older,"no, only English or Spanish",no,2025-07-24_09h41.05.626,empathy_intonation_perc_control,2024.2.4,MacIntel,59.88023952,6732736f57f1a61ec4a6db24,68817205a84113384fffdfe3,688237a99fcdeda2b31c7e7a,,,,,,,,,,,,,0,,,,,,,,,,,,,,,,,,,,,,,,,,,,,,,,,,,,,33,pauca,,,,,338.0072,339.2404,0,1,0.7136,,0,34,34,32,1,REAL,FAKE,,,,,,,,,,,,,,,,,
,,,,,,,,,6732736f57f1a61ec4a6db24,Spanish,13 or older,"no, only English or Spanish",no,2025-07-24_09h41.05.626,empathy_intonation_perc_control,2024.2.4,MacIntel,59.88023952,6732736f57f1a61ec4a6db24,68817205a84113384fffdfe3,688237a99fcdeda2b31c7e7a,,,,,,,,,,,,,1,,,,,,,,,,,,,,,,,,,,,,,,,,,,,,,,,,,,,13,helar,,,,,339.2418,340.8905,1,1,1.105,,0,35,35,12,1,REAL,FAKE,,,,,,,,,,,,,,,,,
,,,,,,,,,6732736f57f1a61ec4a6db24,Spanish,13 or older,"no, only English or Spanish",no,2025-07-24_09h41.05.626,empathy_intonation_perc_control,2024.2.4,MacIntel,59.88023952,6732736f57f1a61ec4a6db24,68817205a84113384fffdfe3,688237a99fcdeda2b31c7e7a,,,,,,,,,,,,,1,,,,,,,,,,,,,,,,,,,,,,,,,,,,,,,,,,,,,73,hervidor,,,,,340.892,342.3395,0,0,0.9115,,0,36,36,72,1,REAL,FAKE,,,,,,,,,,,,,,,,,
,,,,,,,,,6732736f57f1a61ec4a6db24,Spanish,13 or older,"no, only English or Spanish",no,2025-07-24_09h41.05.626,empathy_intonation_perc_control,2024.2.4,MacIntel,59.88023952,6732736f57f1a61ec4a6db24,68817205a84113384fffdfe3,688237a99fcdeda2b31c7e7a,,,,,,,,,,,,,1,,,,,,,,,,,,,,,,,,,,,,,,,,,,,,,,,,,,,52,camisa,,,,,342.3408,343.6908,1,1,0.8191,,0,37,37,51,1,REAL,FAKE,,,,,,,,,,,,,,,,,
,,,,,,,,,6732736f57f1a61ec4a6db24,Spanish,13 or older,"no, only English or Spanish",no,2025-07-24_09h41.05.626,empathy_intonation_perc_control,2024.2.4,MacIntel,59.88023952,6732736f57f1a61ec4a6db24,68817205a84113384fffdfe3,688237a99fcdeda2b31c7e7a,,,,,,,,,,,,,0,,,,,,,,,,,,,,,,,,,,,,,,,,,,,,,,,,,,,50,flamida,,,,,343.6917,345.3563,0,1,1.1275,,0,38,38,49,1,REAL,FAKE,,,,,,,,,,,,,,,,,
,,,,,,,,,6732736f57f1a61ec4a6db24,Spanish,13 or older,"no, only English or Spanish",no,2025-07-24_09h41.05.626,empathy_intonation_perc_control,2024.2.4,MacIntel,59.88023952,6732736f57f1a61ec4a6db24,68817205a84113384fffdfe3,688237a99fcdeda2b31c7e7a,,,,,,,,,,,,,0,,,,,,,,,,,,,,,,,,,,,,,,,,,,,,,,,,,,,92,click the 0 key.,,,,,345.358,346.9727,0,1,1.0841,,0,39,39,91,1,REAL,FAKE,,,,,,,,,,,,,,,,,
,,,,,,,,,6732736f57f1a61ec4a6db24,Spanish,13 or older,"no, only English or Spanish",no,2025-07-24_09h41.05.626,empathy_intonation_perc_control,2024.2.4,MacIntel,59.88023952,6732736f57f1a61ec4a6db24,68817205a84113384fffdfe3,688237a99fcdeda2b31c7e7a,,,,,,,,,,,,,1,,,,,,,,,,,,,,,,,,,,,,,,,,,,,,,,,,,,,71,polvoriento,,,,,346.9734,348.7409,0,0,1.2446,,0,40,40,70,1,REAL,FAKE,,,,,,,,,,,,,,,,,
,,,,,,,,,6732736f57f1a61ec4a6db24,Spanish,13 or older,"no, only English or Spanish",no,2025-07-24_09h41.05.626,empathy_intonation_perc_control,2024.2.4,MacIntel,59.88023952,6732736f57f1a61ec4a6db24,68817205a84113384fffdfe3,688237a99fcdeda2b31c7e7a,,,,,,,,,,,,,1,,,,,,,,,,,,,,,,,,,,,,,,,,,,,,,,,,,,,80,hormiga,,,,,348.7423,350.0907,0,0,0.8065,,0,41,41,79,1,REAL,FAKE,,,,,,,,,,,,,,,,,
,,,,,,,,,6732736f57f1a61ec4a6db24,Spanish,13 or older,"no, only English or Spanish",no,2025-07-24_09h41.05.626,empathy_intonation_perc_control,2024.2.4,MacIntel,59.88023952,6732736f57f1a61ec4a6db24,68817205a84113384fffdfe3,688237a99fcdeda2b31c7e7a,,,,,,,,,,,,,0,,,,,,,,,,,,,,,,,,,,,,,,,,,,,,,,,,,,,29,decar,,,,,350.092,351.4234,1,0,0.7968,,0,42,42,28,1,REAL,FAKE,,,,,,,,,,,,,,,,,
,,,,,,,,,6732736f57f1a61ec4a6db24,Spanish,13 or older,"no, only English or Spanish",no,2025-07-24_09h41.05.626,empathy_intonation_perc_control,2024.2.4,MacIntel,59.88023952,6732736f57f1a61ec4a6db24,68817205a84113384fffdfe3,688237a99fcdeda2b31c7e7a,,,,,,,,,,,,,1,,,,,,,,,,,,,,,,,,,,,,,,,,,,,,,,,,,,,61,seda,,,,,351.4245,352.8565,0,0,0.8962,,0,43,43,60,1,REAL,FAKE,,,,,,,,,,,,,,,,,
,,,,,,,,,6732736f57f1a61ec4a6db24,Spanish,13 or older,"no, only English or Spanish",no,2025-07-24_09h41.05.626,empathy_intonation_perc_control,2024.2.4,MacIntel,59.88023952,6732736f57f1a61ec4a6db24,68817205a84113384fffdfe3,688237a99fcdeda2b31c7e7a,,,,,,,,,,,,,1,,,,,,,,,,,,,,,,,,,,,,,,,,,,,,,,,,,,,64,orgulloso,,,,,352.8575,354.2241,0,0,0.8453,,0,44,44,63,1,REAL,FAKE,,,,,,,,,,,,,,,,,
,,,,,,,,,6732736f57f1a61ec4a6db24,Spanish,13 or older,"no, only English or Spanish",no,2025-07-24_09h41.05.626,empathy_intonation_perc_control,2024.2.4,MacIntel,59.88023952,6732736f57f1a61ec4a6db24,68817205a84113384fffdfe3,688237a99fcdeda2b31c7e7a,,,,,,,,,,,,,1,,,,,,,,,,,,,,,,,,,,,,,,,,,,,,,,,,,,,12,asesinato,,,,,354.2253,355.5399,0,0,0.78,,0,45,45,11,1,REAL,FAKE,,,,,,,,,,,,,,,,,
,,,,,,,,,6732736f57f1a61ec4a6db24,Spanish,13 or older,"no, only English or Spanish",no,2025-07-24_09h41.05.626,empathy_intonation_perc_control,2024.2.4,MacIntel,59.88023952,6732736f57f1a61ec4a6db24,68817205a84113384fffdfe3,688237a99fcdeda2b31c7e7a,,,,,,,,,,,,,1,,,,,,,,,,,,,,,,,,,,,,,,,,,,,,,,,,,,,7,pésimo,,,,,355.5408,356.8076,1,1,0.7452,,0,46,46,6,1,REAL,FAKE,,,,,,,,,,,,,,,,,
,,,,,,,,,6732736f57f1a61ec4a6db24,Spanish,13 or older,"no, only English or Spanish",no,2025-07-24_09h41.05.626,empathy_intonation_perc_control,2024.2.4,MacIntel,59.88023952,6732736f57f1a61ec4a6db24,68817205a84113384fffdfe3,688237a99fcdeda2b31c7e7a,,,,,,,,,,,,,1,,,,,,,,,,,,,,,,,,,,,,,,,,,,,,,,,,,,,49,ganar,,,,,356.8085,358.1067,1,1,0.764,,0,47,47,48,1,REAL,FAKE,,,,,,,,,,,,,,,,,
,,,,,,,,,6732736f57f1a61ec4a6db24,Spanish,13 or older,"no, only English or Spanish",no,2025-07-24_09h41.05.626,empathy_intonation_perc_control,2024.2.4,MacIntel,59.88023952,6732736f57f1a61ec4a6db24,68817205a84113384fffdfe3,688237a99fcdeda2b31c7e7a,,,,,,,,,,,,,0,,,,,,,,,,,,,,,,,,,,,,,,,,,,,,,,,,,,,70,temblo,,,,,358.1075,360.5578,0,1,1.9286,,0,48,48,69,1,REAL,FAKE,,,,,,,,,,,,,,,,,
,,,,,,,,,6732736f57f1a61ec4a6db24,Spanish,13 or older,"no, only English or Spanish",no,2025-07-24_09h41.05.626,empathy_intonation_perc_control,2024.2.4,MacIntel,59.88023952,6732736f57f1a61ec4a6db24,68817205a84113384fffdfe3,688237a99fcdeda2b31c7e7a,,,,,,,,,,,,,1,,,,,,,,,,,,,,,,,,,,,,,,,,,,,,,,,,,,,78,frondoso,,,,,360.5588,362.0247,0,0,0.93,,0,49,49,77,1,REAL,FAKE,,,,,,,,,,,,,,,,,
,,,,,,,,,6732736f57f1a61ec4a6db24,Spanish,13 or older,"no, only English or Spanish",no,2025-07-24_09h41.05.626,empathy_intonation_perc_control,2024.2.4,MacIntel,59.88023952,6732736f57f1a61ec4a6db24,68817205a84113384fffdfe3,688237a99fcdeda2b31c7e7a,,,,,,,,,,,,,1,,,,,,,,,,,,,,,,,,,,,,,,,,,,,,,,,,,,,43,canela,,,,,362.026,363.2412,1,1,0.6896,,0,50,50,42,1,REAL,FAKE,,,,,,,,,,,,,,,,,
,,,,,,,,,6732736f57f1a61ec4a6db24,Spanish,13 or older,"no, only English or Spanish",no,2025-07-24_09h41.05.626,empathy_intonation_perc_control,2024.2.4,MacIntel,59.88023952,6732736f57f1a61ec4a6db24,68817205a84113384fffdfe3,688237a99fcdeda2b31c7e7a,,,,,,,,,,,,,1,,,,,,,,,,,,,,,,,,,,,,,,,,,,,,,,,,,,,69,engatusar,,,,,363.2422,364.7583,0,0,0.9916,,0,51,51,68,1,REAL,FAKE,,,,,,,,,,,,,,,,,
,,,,,,,,,6732736f57f1a61ec4a6db24,Spanish,13 or older,"no, only English or Spanish",no,2025-07-24_09h41.05.626,empathy_intonation_perc_control,2024.2.4,MacIntel,59.88023952,6732736f57f1a61ec4a6db24,68817205a84113384fffdfe3,688237a99fcdeda2b31c7e7a,,,,,,,,,,,,,1,,,,,,,,,,,,,,,,,,,,,,,,,,,,,,,,,,,,,15,regar,,,,,364.7596,366.3904,0,0,1.0896,,0,52,52,14,1,REAL,FAKE,,,,,,,,,,,,,,,,,
,,,,,,,,,6732736f57f1a61ec4a6db24,Spanish,13 or older,"no, only English or Spanish",no,2025-07-24_09h41.05.626,empathy_intonation_perc_control,2024.2.4,MacIntel,59.88023952,6732736f57f1a61ec4a6db24,68817205a84113384fffdfe3,688237a99fcdeda2b31c7e7a,,,,,,,,,,,,,1,,,,,,,,,,,,,,,,,,,,,,,,,,,,,,,,,,,,,40,alfombra,,,,,366.3916,367.8914,0,0,0.9573,,0,53,53,39,1,REAL,FAKE,,,,,,,,,,,,,,,,,
,,,,,,,,,6732736f57f1a61ec4a6db24,Spanish,13 or older,"no, only English or Spanish",no,2025-07-24_09h41.05.626,empathy_intonation_perc_control,2024.2.4,MacIntel,59.88023952,6732736f57f1a61ec4a6db24,68817205a84113384fffdfe3,688237a99fcdeda2b31c7e7a,,,,,,,,,,,,,1,,,,,,,,,,,,,,,,,,,,,,,,,,,,,,,,,,,,,5,zapato,,,,,367.8925,369.1414,1,1,0.7053,,0,54,54,4,1,REAL,FAKE,,,,,,,,,,,,,,,,,
,,,,,,,,,6732736f57f1a61ec4a6db24,Spanish,13 or older,"no, only English or Spanish",no,2025-07-24_09h41.05.626,empathy_intonation_perc_control,2024.2.4,MacIntel,59.88023952,6732736f57f1a61ec4a6db24,68817205a84113384fffdfe3,688237a99fcdeda2b31c7e7a,,,,,,,,,,,,,0,,,,,,,,,,,,,,,,,,,,,,,,,,,,,,,,,,,,,53,vegada,,,,,369.1425,371.0078,0,1,1.3287,,0,55,55,52,1,REAL,FAKE,,,,,,,,,,,,,,,,,
,,,,,,,,,6732736f57f1a61ec4a6db24,Spanish,13 or older,"no, only English or Spanish",no,2025-07-24_09h41.05.626,empathy_intonation_perc_control,2024.2.4,MacIntel,59.88023952,6732736f57f1a61ec4a6db24,68817205a84113384fffdfe3,688237a99fcdeda2b31c7e7a,,,,,,,,,,,,,0,,,,,,,,,,,,,,,,,,,,,,,,,,,,,,,,,,,,,42,cadallo,,,,,371.0086,372.575,0,1,1.0299,,0,56,56,41,1,REAL,FAKE,,,,,,,,,,,,,,,,,
,,,,,,,,,6732736f57f1a61ec4a6db24,Spanish,13 or older,"no, only English or Spanish",no,2025-07-24_09h41.05.626,empathy_intonation_perc_control,2024.2.4,MacIntel,59.88023952,6732736f57f1a61ec4a6db24,68817205a84113384fffdfe3,688237a99fcdeda2b31c7e7a,,,,,,,,,,,,,0,,,,,,,,,,,,,,,,,,,,,,,,,,,,,,,,,,,,,84,escuto,,,,,372.5762,374.5917,0,1,1.4792,,0,57,57,83,1,REAL,FAKE,,,,,,,,,,,,,,,,,
,,,,,,,,,6732736f57f1a61ec4a6db24,Spanish,13 or older,"no, only English or Spanish",no,2025-07-24_09h41.05.626,empathy_intonation_perc_control,2024.2.4,MacIntel,59.88023952,6732736f57f1a61ec4a6db24,68817205a84113384fffdfe3,688237a99fcdeda2b31c7e7a,,,,,,,,,,,,,0,,,,,,,,,,,,,,,,,,,,,,,,,,,,,,,,,,,,,23,lampera,,,,,374.593,375.825,1,0,0.6865,,0,58,58,22,1,REAL,FAKE,,,,,,,,,,,,,,,,,
,,,,,,,,,6732736f57f1a61ec4a6db24,Spanish,13 or older,"no, only English or Spanish",no,2025-07-24_09h41.05.626,empathy_intonation_perc_control,2024.2.4,MacIntel,59.88023952,6732736f57f1a61ec4a6db24,68817205a84113384fffdfe3,688237a99fcdeda2b31c7e7a,,,,,,,,,,,,,0,,,,,,,,,,,,,,,,,,,,,,,,,,,,,,,,,,,,,35,rompido,,,,,375.826,377.4086,1,0,1.0506,,0,59,59,34,1,REAL,FAKE,,,,,,,,,,,,,,,,,
,,,,,,,,,6732736f57f1a61ec4a6db24,Spanish,13 or older,"no, only English or Spanish",no,2025-07-24_09h41.05.626,empathy_intonation_perc_control,2024.2.4,MacIntel,59.88023952,6732736f57f1a61ec4a6db24,68817205a84113384fffdfe3,688237a99fcdeda2b31c7e7a,,,,,,,,,,,,,1,,,,,,,,,,,,,,,,,,,,,,,,,,,,,,,,,,,,,60,matar,,,,,377.41,378.5419,0,0,0.5952,,0,60,60,59,1,REAL,FAKE,,,,,,,,,,,,,,,,,
,,,,,,,,,6732736f57f1a61ec4a6db24,Spanish,13 or older,"no, only English or Spanish",no,2025-07-24_09h41.05.626,empathy_intonation_perc_control,2024.2.4,MacIntel,59.88023952,6732736f57f1a61ec4a6db24,68817205a84113384fffdfe3,688237a99fcdeda2b31c7e7a,,,,,,,,,,,,,1,,,,,,,,,,,,,,,,,,,,,,,,,,,,,,,,,,,,,57,tacaño,,,,,378.5434,379.9576,1,1,0.8731,,0,61,61,56,1,REAL,FAKE,,,,,,,,,,,,,,,,,
,,,,,,,,,6732736f57f1a61ec4a6db24,Spanish,13 or older,"no, only English or Spanish",no,2025-07-24_09h41.05.626,empathy_intonation_perc_control,2024.2.4,MacIntel,59.88023952,6732736f57f1a61ec4a6db24,68817205a84113384fffdfe3,688237a99fcdeda2b31c7e7a,,,,,,,,,,,,,0,,,,,,,,,,,,,,,,,,,,,,,,,,,,,,,,,,,,,27,acutación,,,,,379.9593,381.5082,0,1,1.0027,,0,62,62,26,1,REAL,FAKE,,,,,,,,,,,,,,,,,
,,,,,,,,,6732736f57f1a61ec4a6db24,Spanish,13 or older,"no, only English or Spanish",no,2025-07-24_09h41.05.626,empathy_intonation_perc_control,2024.2.4,MacIntel,59.88023952,6732736f57f1a61ec4a6db24,68817205a84113384fffdfe3,688237a99fcdeda2b31c7e7a,,,,,,,,,,,,,0,,,,,,,,,,,,,,,,,,,,,,,,,,,,,,,,,,,,,47,cartinar,,,,,381.5096,383.0912,1,0,1.0401,,0,63,63,46,1,REAL,FAKE,,,,,,,,,,,,,,,,,
,,,,,,,,,6732736f57f1a61ec4a6db24,Spanish,13 or older,"no, only English or Spanish",no,2025-07-24_09h41.05.626,empathy_intonation_perc_control,2024.2.4,MacIntel,59.88023952,6732736f57f1a61ec4a6db24,68817205a84113384fffdfe3,688237a99fcdeda2b31c7e7a,,,,,,,,,,,,,1,,,,,,,,,,,,,,,,,,,,,,,,,,,,,,,,,,,,,26,secuestro,,,,,383.0925,384.3756,1,1,0.761,,0,64,64,25,1,REAL,FAKE,,,,,,,,,,,,,,,,,
,,,,,,,,,6732736f57f1a61ec4a6db24,Spanish,13 or older,"no, only English or Spanish",no,2025-07-24_09h41.05.626,empathy_intonation_perc_control,2024.2.4,MacIntel,59.88023952,6732736f57f1a61ec4a6db24,68817205a84113384fffdfe3,688237a99fcdeda2b31c7e7a,,,,,,,,,,,,,1,,,,,,,,,,,,,,,,,,,,,,,,,,,,,,,,,,,,,31,pandilla,,,,,384.3768,386.5256,1,1,1.6122,,0,65,65,30,1,REAL,FAKE,,,,,,,,,,,,,,,,,
,,,,,,,,,6732736f57f1a61ec4a6db24,Spanish,13 or older,"no, only English or Spanish",no,2025-07-24_09h41.05.626,empathy_intonation_perc_control,2024.2.4,MacIntel,59.88023952,6732736f57f1a61ec4a6db24,68817205a84113384fffdfe3,688237a99fcdeda2b31c7e7a,,,,,,,,,,,,,0,,,,,,,,,,,,,,,,,,,,,,,,,,,,,,,,,,,,,18,arsa,,,,,386.5269,388.2244,0,1,1.1518,,0,66,66,17,1,REAL,FAKE,,,,,,,,,,,,,,,,,
,,,,,,,,,6732736f57f1a61ec4a6db24,Spanish,13 or older,"no, only English or Spanish",no,2025-07-24_09h41.05.626,empathy_intonation_perc_control,2024.2.4,MacIntel,59.88023952,6732736f57f1a61ec4a6db24,68817205a84113384fffdfe3,688237a99fcdeda2b31c7e7a,,,,,,,,,,,,,0,,,,,,,,,,,,,,,,,,,,,,,,,,,,,,,,,,,,,1,terzo,,,,,388.2257,389.3756,0,1,0.6129,,0,67,67,0,1,REAL,FAKE,,,,,,,,,,,,,,,,,
,,,,,,,,,6732736f57f1a61ec4a6db24,Spanish,13 or older,"no, only English or Spanish",no,2025-07-24_09h41.05.626,empathy_intonation_perc_control,2024.2.4,MacIntel,59.88023952,6732736f57f1a61ec4a6db24,68817205a84113384fffdfe3,688237a99fcdeda2b31c7e7a,,,,,,,,,,,,,1,,,,,,,,,,,,,,,,,,,,,,,,,,,,,,,,,,,,,20,ávido,,,,,389.3768,390.9253,1,1,1.0234,,0,68,68,19,1,REAL,FAKE,,,,,,,,,,,,,,,,,
,,,,,,,,,6732736f57f1a61ec4a6db24,Spanish,13 or older,"no, only English or Spanish",no,2025-07-24_09h41.05.626,empathy_intonation_perc_control,2024.2.4,MacIntel,59.88023952,6732736f57f1a61ec4a6db24,68817205a84113384fffdfe3,688237a99fcdeda2b31c7e7a,,,,,,,,,,,,,1,,,,,,,,,,,,,,,,,,,,,,,,,,,,,,,,,,,,,45,jilguero,,,,,390.926,392.3422,0,0,0.8926,,0,69,69,44,1,REAL,FAKE,,,,,,,,,,,,,,,,,
,,,,,,,,,6732736f57f1a61ec4a6db24,Spanish,13 or older,"no, only English or Spanish",no,2025-07-24_09h41.05.626,empathy_intonation_perc_control,2024.2.4,MacIntel,59.88023952,6732736f57f1a61ec4a6db24,68817205a84113384fffdfe3,688237a99fcdeda2b31c7e7a,,,,,,,,,,,,,0,,,,,,,,,,,,,,,,,,,,,,,,,,,,,,,,,,,,,17,floroso,,,,,392.3433,393.9091,0,1,1.0283,,0,70,70,16,1,REAL,FAKE,,,,,,,,,,,,,,,,,
,,,,,,,,,6732736f57f1a61ec4a6db24,Spanish,13 or older,"no, only English or Spanish",no,2025-07-24_09h41.05.626,empathy_intonation_perc_control,2024.2.4,MacIntel,59.88023952,6732736f57f1a61ec4a6db24,68817205a84113384fffdfe3,688237a99fcdeda2b31c7e7a,,,,,,,,,,,,,0,,,,,,,,,,,,,,,,,,,,,,,,,,,,,,,,,,,,,79,tropaje,,,,,393.9102,395.3425,0,1,0.8958,,0,71,71,78,1,REAL,FAKE,,,,,,,,,,,,,,,,,
,,,,,,,,,6732736f57f1a61ec4a6db24,Spanish,13 or older,"no, only English or Spanish",no,2025-07-24_09h41.05.626,empathy_intonation_perc_control,2024.2.4,MacIntel,59.88023952,6732736f57f1a61ec4a6db24,68817205a84113384fffdfe3,688237a99fcdeda2b31c7e7a,,,,,,,,,,,,,0,,,,,,,,,,,,,,,,,,,,,,,,,,,,,,,,,,,,,16,abracer,,,,,395.3437,396.909,1,0,1.0329,,0,72,72,15,1,REAL,FAKE,,,,,,,,,,,,,,,,,
,,,,,,,,,6732736f57f1a61ec4a6db24,Spanish,13 or older,"no, only English or Spanish",no,2025-07-24_09h41.05.626,empathy_intonation_perc_control,2024.2.4,MacIntel,59.88023952,6732736f57f1a61ec4a6db24,68817205a84113384fffdfe3,688237a99fcdeda2b31c7e7a,,,,,,,,,,,,,1,,,,,,,,,,,,,,,,,,,,,,,,,,,,,,,,,,,,,59,besar,,,,,396.9098,398.2089,1,1,0.7734,,0,73,73,58,1,REAL,FAKE,,,,,,,,,,,,,,,,,
,,,,,,,,,6732736f57f1a61ec4a6db24,Spanish,13 or older,"no, only English or Spanish",no,2025-07-24_09h41.05.626,empathy_intonation_perc_control,2024.2.4,MacIntel,59.88023952,6732736f57f1a61ec4a6db24,68817205a84113384fffdfe3,688237a99fcdeda2b31c7e7a,,,,,,,,,,,,,1,,,,,,,,,,,,,,,,,,,,,,,,,,,,,,,,,,,,,68,alegre,,,,,398.2096,400.0762,0,0,1.3286,,0,74,74,67,1,REAL,FAKE,,,,,,,,,,,,,,,,,
,,,,,,,,,6732736f57f1a61ec4a6db24,Spanish,13 or older,"no, only English or Spanish",no,2025-07-24_09h41.05.626,empathy_intonation_perc_control,2024.2.4,MacIntel,59.88023952,6732736f57f1a61ec4a6db24,68817205a84113384fffdfe3,688237a99fcdeda2b31c7e7a,,,,,,,,,,,,,1,,,,,,,,,,,,,,,,,,,,,,,,,,,,,,,,,,,,,22,lacayo,,,,,400.0776,401.3261,0,0,0.7117,,0,75,75,21,1,REAL,FAKE,,,,,,,,,,,,,,,,,
,,,,,,,,,6732736f57f1a61ec4a6db24,Spanish,13 or older,"no, only English or Spanish",no,2025-07-24_09h41.05.626,empathy_intonation_perc_control,2024.2.4,MacIntel,59.88023952,6732736f57f1a61ec4a6db24,68817205a84113384fffdfe3,688237a99fcdeda2b31c7e7a,,,,,,,,,,,,,1,,,,,,,,,,,,,,,,,,,,,,,,,,,,,,,,,,,,,77,tiburón,,,,,401.3275,402.7763,1,1,0.9118,,0,76,76,76,1,REAL,FAKE,,,,,,,,,,,,,,,,,
,,,,,,,,,6732736f57f1a61ec4a6db24,Spanish,13 or older,"no, only English or Spanish",no,2025-07-24_09h41.05.626,empathy_intonation_perc_control,2024.2.4,MacIntel,59.88023952,6732736f57f1a61ec4a6db24,68817205a84113384fffdfe3,688237a99fcdeda2b31c7e7a,,,,,,,,,,,,,1,,,,,,,,,,,,,,,,,,,,,,,,,,,,,,,,,,,,,51,candado,,,,,402.7776,404.1258,0,0,0.821,,0,77,77,50,1,REAL,FAKE,,,,,,,,,,,,,,,,,
,,,,,,,,,6732736f57f1a61ec4a6db24,Spanish,13 or older,"no, only English or Spanish",no,2025-07-24_09h41.05.626,empathy_intonation_perc_control,2024.2.4,MacIntel,59.88023952,6732736f57f1a61ec4a6db24,68817205a84113384fffdfe3,688237a99fcdeda2b31c7e7a,,,,,,,,,,,,,1,,,,,,,,,,,,,,,,,,,,,,,,,,,,,,,,,,,,,44,cuchara,,,,,404.1265,406.443,0,0,1.7781,,0,78,78,43,1,REAL,FAKE,,,,,,,,,,,,,,,,,
,,,,,,,,,6732736f57f1a61ec4a6db24,Spanish,13 or older,"no, only English or Spanish",no,2025-07-24_09h41.05.626,empathy_intonation_perc_control,2024.2.4,MacIntel,59.88023952,6732736f57f1a61ec4a6db24,68817205a84113384fffdfe3,688237a99fcdeda2b31c7e7a,,,,,,,,,,,,,1,,,,,,,,,,,,,,,,,,,,,,,,,,,,,,,,,,,,,2,pellizcar,,,,,406.4446,407.8263,0,0,0.8464,,0,79,79,1,1,REAL,FAKE,,,,,,,,,,,,,,,,,
,,,,,,,,,6732736f57f1a61ec4a6db24,Spanish,13 or older,"no, only English or Spanish",no,2025-07-24_09h41.05.626,empathy_intonation_perc_control,2024.2.4,MacIntel,59.88023952,6732736f57f1a61ec4a6db24,68817205a84113384fffdfe3,688237a99fcdeda2b31c7e7a,,,,,,,,,,,,,1,,,,,,,,,,,,,,,,,,,,,,,,,,,,,,,,,,,,,6,tergiversar,,,,,407.8275,409.2595,0,0,0.9065,,0,80,80,5,1,REAL,FAKE,,,,,,,,,,,,,,,,,
,,,,,,,,,6732736f57f1a61ec4a6db24,Spanish,13 or older,"no, only English or Spanish",no,2025-07-24_09h41.05.626,empathy_intonation_perc_control,2024.2.4,MacIntel,59.88023952,6732736f57f1a61ec4a6db24,68817205a84113384fffdfe3,688237a99fcdeda2b31c7e7a,,,,,,,,,,,,,1,,,,,,,,,,,,,,,,,,,,,,,,,,,,,,,,,,,,,41,rebuscar,,,,,409.2607,411.4087,1,1,1.6132,,0,81,81,40,1,REAL,FAKE,,,,,,,,,,,,,,,,,
,,,,,,,,,6732736f57f1a61ec4a6db24,Spanish,13 or older,"no, only English or Spanish",no,2025-07-24_09h41.05.626,empathy_intonation_perc_control,2024.2.4,MacIntel,59.88023952,6732736f57f1a61ec4a6db24,68817205a84113384fffdfe3,688237a99fcdeda2b31c7e7a,,,,,,,,,,,,,1,,,,,,,,,,,,,,,,,,,,,,,,,,,,,,,,,,,,,81,pozo,,,,,411.4097,412.543,0,0,0.6059,,0,82,82,80,1,REAL,FAKE,,,,,,,,,,,,,,,,,
,,,,,,,,,6732736f57f1a61ec4a6db24,Spanish,13 or older,"no, only English or Spanish",no,2025-07-24_09h41.05.626,empathy_intonation_perc_control,2024.2.4,MacIntel,59.88023952,6732736f57f1a61ec4a6db24,68817205a84113384fffdfe3,688237a99fcdeda2b31c7e7a,,,,,,,,,,,,,0,,,,,,,,,,,,,,,,,,,,,,,,,,,,,,,,,,,,,87,grodo,,,,,412.5444,414.2089,0,1,1.1296,,0,83,83,86,1,REAL,FAKE,,,,,,,,,,,,,,,,,
,,,,,,,,,6732736f57f1a61ec4a6db24,Spanish,13 or older,"no, only English or Spanish",no,2025-07-24_09h41.05.626,empathy_intonation_perc_control,2024.2.4,MacIntel,59.88023952,6732736f57f1a61ec4a6db24,68817205a84113384fffdfe3,688237a99fcdeda2b31c7e7a,,,,,,,,,,,,,1,,,,,,,,,,,,,,,,,,,,,,,,,,,,,,,,,,,,,3,pulmones,,,,,414.2105,416.0099,0,0,1.2824,,0,84,84,2,1,REAL,FAKE,,,,,,,,,,,,,,,,,
,,,,,,,,,6732736f57f1a61ec4a6db24,Spanish,13 or older,"no, only English or Spanish",no,2025-07-24_09h41.05.626,empathy_intonation_perc_control,2024.2.4,MacIntel,59.88023952,6732736f57f1a61ec4a6db24,68817205a84113384fffdfe3,688237a99fcdeda2b31c7e7a,,,,,,,,,,,,,1,,,,,,,,,,,,,,,,,,,,,,,,,,,,,,,,,,,,,28,merodear,,,,,416.0113,417.3601,0,0,0.8063,,0,85,85,27,1,REAL,FAKE,,,,,,,,,,,,,,,,,
,,,,,,,,,6732736f57f1a61ec4a6db24,Spanish,13 or older,"no, only English or Spanish",no,2025-07-24_09h41.05.626,empathy_intonation_perc_control,2024.2.4,MacIntel,59.88023952,6732736f57f1a61ec4a6db24,68817205a84113384fffdfe3,688237a99fcdeda2b31c7e7a,,,,,,,,,,,,,0,,,,,,,,,,,,,,,,,,,,,,,,,,,,,,,,,,,,,19,brecedad,,,,,417.3613,419.2763,1,0,1.3807,,0,86,86,18,1,REAL,FAKE,,,,,,,,,,,,,,,,,
,,,,,,,,,6732736f57f1a61ec4a6db24,Spanish,13 or older,"no, only English or Spanish",no,2025-07-24_09h41.05.626,empathy_intonation_perc_control,2024.2.4,MacIntel,59.88023952,6732736f57f1a61ec4a6db24,68817205a84113384fffdfe3,688237a99fcdeda2b31c7e7a,,,,,,,,,,,,,0,,,,,,,,,,,,,,,,,,,,,,,,,,,,,,,,,,,,,58,plaudir,,,,,419.2771,420.5935,1,0,0.7823,,0,87,87,57,1,REAL,FAKE,,,,,,,,,,,,,,,,,
,,,,,,,,,6732736f57f1a61ec4a6db24,Spanish,13 or older,"no, only English or Spanish",no,2025-07-24_09h41.05.626,empathy_intonation_perc_control,2024.2.4,MacIntel,59.88023952,6732736f57f1a61ec4a6db24,68817205a84113384fffdfe3,688237a99fcdeda2b31c7e7a,,,,,,,,,,,,,1,,,,,,,,,,,,,,,,,,,,,,,,,,,,,,,,,,,,,67,cabello,,,,,420.5948,422.059,1,1,0.9286,,0,88,88,66,1,REAL,FAKE,,,,,,,,,,,,,,,,,
,,,,,,,,,6732736f57f1a61ec4a6db24,Spanish,13 or older,"no, only English or Spanish",no,2025-07-24_09h41.05.626,empathy_intonation_perc_control,2024.2.4,MacIntel,59.88023952,6732736f57f1a61ec4a6db24,68817205a84113384fffdfe3,688237a99fcdeda2b31c7e7a,,,,,,,,,,,,,0,,,,,,,,,,,,,,,,,,,,,,,,,,,,,,,,,,,,,66,hacido,,,,,422.0604,423.3592,1,0,0.7607,,0,89,89,65,1,REAL,FAKE,,,,,,,,,,,,,,,,,
,,,,,,,,,6732736f57f1a61ec4a6db24,Spanish,13 or older,"no, only English or Spanish",no,2025-07-24_09h41.05.626,empathy_intonation_perc_control,2024.2.4,MacIntel,59.88023952,6732736f57f1a61ec4a6db24,68817205a84113384fffdfe3,688237a99fcdeda2b31c7e7a,,,,,,,,,,,,,0,,,,,,,,,,,,,,,,,,,,,,,,,,,,,,,,,,,,,30,alardio,,,,,423.3607,425.1103,1,0,1.2234,,0,90,90,29,1,REAL,FAKE,,,,,,,,,,,,,,,,,
,,,,,,,,,6732736f57f1a61ec4a6db24,Spanish,13 or older,"no, only English or Spanish",no,2025-07-24_09h41.05.626,empathy_intonation_perc_control,2024.2.4,MacIntel,59.88023952,6732736f57f1a61ec4a6db24,68817205a84113384fffdfe3,688237a99fcdeda2b31c7e7a,,,,,,,,,,,,,0,,,,,,,,,,,,,,,,,,,,,,,,,,,,,,,,,,,,,72,pemición,,,,,425.1117,427.7268,0,1,2.0889,,0,91,91,71,1,REAL,FAKE,,,,,,,,,,,,,,,,,
,,,,,,,,,6732736f57f1a61ec4a6db24,Spanish,13 or older,"no, only English or Spanish",no,2025-07-24_09h41.05.626,empathy_intonation_perc_control,2024.2.4,MacIntel,59.88023952,6732736f57f1a61ec4a6db24,68817205a84113384fffdfe3,688237a99fcdeda2b31c7e7a,,,,,,,,,,,,,,,,,,,,,,,,,,,,,,,,,,,,,,,,,,,,,,,,,,,,,,,,,,,,,,,,,,,,,427.7273,434.2113,,,,,,,,,,,,,,,
,,,,,,,,,6732736f57f1a61ec4a6db24,Spanish,13 or older,"no, only English or Spanish",no,2025-07-24_09h41.05.626,empathy_intonation_perc_control,2024.2.4,MacIntel,59.88023952,6732736f57f1a61ec4a6db24,68817205a84113384fffdfe3,688237a99fcdeda2b31c7e7a,,,,,,,,,,,,,,,,,,,,,,,,,,,1,,,,,,,,,,,,,,,,,,,,,,,,,,,,,,,,,,,,,,,,,,,,434.2234,438.7276,slightly agree,0,0,0,0,1,I can easily tell if someone else wants to enter a conversation.,1,0,1,0,,
,,,,,,,,,6732736f57f1a61ec4a6db24,Spanish,13 or older,"no, only English or Spanish",no,2025-07-24_09h41.05.626,empathy_intonation_perc_control,2024.2.4,MacIntel,59.88023952,6732736f57f1a61ec4a6db24,68817205a84113384fffdfe3,688237a99fcdeda2b31c7e7a,,,,,,,,,,,,,,,,,,,,,,,,,,,2,,,,,,,,,,,,,,,,,,,,,,,,,,,,,,,,,,,,,,,,,,,,438.7297,441.2443,slightly agree,0,1,1,1,1,I prefer animals to humans.,0,1,0,0,,
,,,,,,,,,6732736f57f1a61ec4a6db24,Spanish,13 or older,"no, only English or Spanish",no,2025-07-24_09h41.05.626,empathy_intonation_perc_control,2024.2.4,MacIntel,59.88023952,6732736f57f1a61ec4a6db24,68817205a84113384fffdfe3,688237a99fcdeda2b31c7e7a,,,,,,,,,,,,,,,,,,,,,,,,,,,3,,,,,,,,,,,,,,,,,,,,,,,,,,,,,,,,,,,,,,,,,,,,441.2461,444.1773,slightly agree,0,2,2,2,1,I try to keep up with the current trends and fashions.,0,1,0,0,,
,,,,,,,,,6732736f57f1a61ec4a6db24,Spanish,13 or older,"no, only English or Spanish",no,2025-07-24_09h41.05.626,empathy_intonation_perc_control,2024.2.4,MacIntel,59.88023952,6732736f57f1a61ec4a6db24,68817205a84113384fffdfe3,688237a99fcdeda2b31c7e7a,,,,,,,,,,,,,,,,,,,,,,,,,,,4,,,,,,,,,,,,,,,,,,,,,,,,,,,,,,,,,,,,,,,,,,,,444.1785,450.5769,strongly agree,0,3,3,3,1,"I find it difficult to explain to others things that I understand easily,   when they don't understand it first time.",1,0,0,1,,
,,,,,,,,,6732736f57f1a61ec4a6db24,Spanish,13 or older,"no, only English or Spanish",no,2025-07-24_09h41.05.626,empathy_intonation_perc_control,2024.2.4,MacIntel,59.88023952,6732736f57f1a61ec4a6db24,68817205a84113384fffdfe3,688237a99fcdeda2b31c7e7a,,,,,,,,,,,,,,,,,,,,,,,,,,,5,,,,,,,,,,,,,,,,,,,,,,,,,,,,,,,,,,,,,,,,,,,,450.5782,453.7111,strongly agree,0,4,4,4,1,I dream most nights.,0,1,0,0,,
,,,,,,,,,6732736f57f1a61ec4a6db24,Spanish,13 or older,"no, only English or Spanish",no,2025-07-24_09h41.05.626,empathy_intonation_perc_control,2024.2.4,MacIntel,59.88023952,6732736f57f1a61ec4a6db24,68817205a84113384fffdfe3,688237a99fcdeda2b31c7e7a,,,,,,,,,,,,,,,,,,,,,,,,,,,6,,,,,,,,,,,,,,,,,,,,,,,,,,,,,,,,,,,,,,,,,,,,453.7123,455.7446,strongly agree,0,5,5,5,1,I really enjoy caring for other people.,1,0,1,0,,
,,,,,,,,,6732736f57f1a61ec4a6db24,Spanish,13 or older,"no, only English or Spanish",no,2025-07-24_09h41.05.626,empathy_intonation_perc_control,2024.2.4,MacIntel,59.88023952,6732736f57f1a61ec4a6db24,68817205a84113384fffdfe3,688237a99fcdeda2b31c7e7a,,,,,,,,,,,,,,,,,,,,,,,,,,,7,,,,,,,,,,,,,,,,,,,,,,,,,,,,,,,,,,,,,,,,,,,,455.7461,460.0612,slightly agree,0,6,6,6,1,I try to solve my own problems rather than discussing them with others.,0,1,0,0,,
,,,,,,,,,6732736f57f1a61ec4a6db24,Spanish,13 or older,"no, only English or Spanish",no,2025-07-24_09h41.05.626,empathy_intonation_perc_control,2024.2.4,MacIntel,59.88023952,6732736f57f1a61ec4a6db24,68817205a84113384fffdfe3,688237a99fcdeda2b31c7e7a,,,,,,,,,,,,,,,,,,,,,,,,,,,8,,,,,,,,,,,,,,,,,,,,,,,,,,,,,,,,,,,,,,,,,,,,460.0623,462.6781,slightly disagree,0,7,7,7,1,I find it hard to know what to do in a social situation.,1,0,0,1,,
,,,,,,,,,6732736f57f1a61ec4a6db24,Spanish,13 or older,"no, only English or Spanish",no,2025-07-24_09h41.05.626,empathy_intonation_perc_control,2024.2.4,MacIntel,59.88023952,6732736f57f1a61ec4a6db24,68817205a84113384fffdfe3,688237a99fcdeda2b31c7e7a,,,,,,,,,,,,,,,,,,,,,,,,,,,9,,,,,,,,,,,,,,,,,,,,,,,,,,,,,,,,,,,,,,,,,,,,462.6795,465.9616,slightly disagree,0,8,8,8,1,I am at my best first thing in the morning.,0,1,0,0,,
,,,,,,,,,6732736f57f1a61ec4a6db24,Spanish,13 or older,"no, only English or Spanish",no,2025-07-24_09h41.05.626,empathy_intonation_perc_control,2024.2.4,MacIntel,59.88023952,6732736f57f1a61ec4a6db24,68817205a84113384fffdfe3,688237a99fcdeda2b31c7e7a,,,,,,,,,,,,,,,,,,,,,,,,,,,10,,,,,,,,,,,,,,,,,,,,,,,,,,,,,,,,,,,,,,,,,,,,465.963,471.0451,strongly disagree,0,9,9,9,1,People often tell me that I went too far in driving my point home in a discussion.,1,0,0,1,,
,,,,,,,,,6732736f57f1a61ec4a6db24,Spanish,13 or older,"no, only English or Spanish",no,2025-07-24_09h41.05.626,empathy_intonation_perc_control,2024.2.4,MacIntel,59.88023952,6732736f57f1a61ec4a6db24,68817205a84113384fffdfe3,688237a99fcdeda2b31c7e7a,,,,,,,,,,,,,,,,,,,,,,,,,,,11,,,,,,,,,,,,,,,,,,,,,,,,,,,,,,,,,,,,,,,,,,,,471.047,474.3489,slightly disagree,0,10,10,10,1,It doesn't bother me too much if I am late meeting a friend.,1,0,0,1,,
,,,,,,,,,6732736f57f1a61ec4a6db24,Spanish,13 or older,"no, only English or Spanish",no,2025-07-24_09h41.05.626,empathy_intonation_perc_control,2024.2.4,MacIntel,59.88023952,6732736f57f1a61ec4a6db24,68817205a84113384fffdfe3,688237a99fcdeda2b31c7e7a,,,,,,,,,,,,,,,,,,,,,,,,,,,12,,,,,,,,,,,,,,,,,,,,,,,,,,,,,,,,,,,,,,,,,,,,474.3513,479.2779,strongly disagree,0,11,11,11,1,"Friendships and relationships are just too difficult, so I tend not to 
  bother with them.",1,0,0,1,,
,,,,,,,,,6732736f57f1a61ec4a6db24,Spanish,13 or older,"no, only English or Spanish",no,2025-07-24_09h41.05.626,empathy_intonation_perc_control,2024.2.4,MacIntel,59.88023952,6732736f57f1a61ec4a6db24,68817205a84113384fffdfe3,688237a99fcdeda2b31c7e7a,,,,,,,,,,,,,,,,,,,,,,,,,,,13,,,,,,,,,,,,,,,,,,,,,,,,,,,,,,,,,,,,,,,,,,,,479.2798,484.0956,slightly disagree,0,12,12,12,1,"I would never break a law, no matter how minor.",0,1,0,0,,
,,,,,,,,,6732736f57f1a61ec4a6db24,Spanish,13 or older,"no, only English or Spanish",no,2025-07-24_09h41.05.626,empathy_intonation_perc_control,2024.2.4,MacIntel,59.88023952,6732736f57f1a61ec4a6db24,68817205a84113384fffdfe3,688237a99fcdeda2b31c7e7a,,,,,,,,,,,,,,,,,,,,,,,,,,,14,,,,,,,,,,,,,,,,,,,,,,,,,,,,,,,,,,,,,,,,,,,,484.097,487.7958,slightly disagree,0,13,13,13,1,I often find it difficult to judge if something is rude or polite.,1,0,0,1,,
,,,,,,,,,6732736f57f1a61ec4a6db24,Spanish,13 or older,"no, only English or Spanish",no,2025-07-24_09h41.05.626,empathy_intonation_perc_control,2024.2.4,MacIntel,59.88023952,6732736f57f1a61ec4a6db24,68817205a84113384fffdfe3,688237a99fcdeda2b31c7e7a,,,,,,,,,,,,,,,,,,,,,,,,,,,15,,,,,,,,,,,,,,,,,,,,,,,,,,,,,,,,,,,,,,,,,,,,487.7976,491.3134,slightly agree,0,14,14,14,1,"In a conversation, I tend to focus on my own thoughts rather than on what 
  my listener might be thinking.",1,0,0,1,,
,,,,,,,,,6732736f57f1a61ec4a6db24,Spanish,13 or older,"no, only English or Spanish",no,2025-07-24_09h41.05.626,empathy_intonation_perc_control,2024.2.4,MacIntel,59.88023952,6732736f57f1a61ec4a6db24,68817205a84113384fffdfe3,688237a99fcdeda2b31c7e7a,,,,,,,,,,,,,,,,,,,,,,,,,,,16,,,,,,,,,,,,,,,,,,,,,,,,,,,,,,,,,,,,,,,,,,,,491.3146,494.3792,strongly disagree,0,15,15,15,1,I prefer practical jokes to verbal humor.,0,1,0,0,,
,,,,,,,,,6732736f57f1a61ec4a6db24,Spanish,13 or older,"no, only English or Spanish",no,2025-07-24_09h41.05.626,empathy_intonation_perc_control,2024.2.4,MacIntel,59.88023952,6732736f57f1a61ec4a6db24,68817205a84113384fffdfe3,688237a99fcdeda2b31c7e7a,,,,,,,,,,,,,,,,,,,,,,,,,,,17,,,,,,,,,,,,,,,,,,,,,,,,,,,,,,,,,,,,,,,,,,,,494.3806,497.5794,slightly agree,0,16,16,16,1,I live life for today rather than the future.,0,1,0,0,,
,,,,,,,,,6732736f57f1a61ec4a6db24,Spanish,13 or older,"no, only English or Spanish",no,2025-07-24_09h41.05.626,empathy_intonation_perc_control,2024.2.4,MacIntel,59.88023952,6732736f57f1a61ec4a6db24,68817205a84113384fffdfe3,688237a99fcdeda2b31c7e7a,,,,,,,,,,,,,,,,,,,,,,,,,,,18,,,,,,,,,,,,,,,,,,,,,,,,,,,,,,,,,,,,,,,,,,,,497.5812,501.5288,strongly disagree,0,17,17,17,1,"When I was a child, I enjoyed cutting up worms to see what would happen.",1,0,0,1,,
,,,,,,,,,6732736f57f1a61ec4a6db24,Spanish,13 or older,"no, only English or Spanish",no,2025-07-24_09h41.05.626,empathy_intonation_perc_control,2024.2.4,MacIntel,59.88023952,6732736f57f1a61ec4a6db24,68817205a84113384fffdfe3,688237a99fcdeda2b31c7e7a,,,,,,,,,,,,,,,,,,,,,,,,,,,19,,,,,,,,,,,,,,,,,,,,,,,,,,,,,,,,,,,,,,,,,,,,501.5301,505.3622,slightly agree,0,18,18,18,1,I can pick up quickly if someone says one thing but means another.,1,0,1,0,,
,,,,,,,,,6732736f57f1a61ec4a6db24,Spanish,13 or older,"no, only English or Spanish",no,2025-07-24_09h41.05.626,empathy_intonation_perc_control,2024.2.4,MacIntel,59.88023952,6732736f57f1a61ec4a6db24,68817205a84113384fffdfe3,688237a99fcdeda2b31c7e7a,,,,,,,,,,,,,,,,,,,,,,,,,,,20,,,,,,,,,,,,,,,,,,,,,,,,,,,,,,,,,,,,,,,,,,,,505.3632,508.9462,strongly agree,0,19,19,19,1,I tend to have very strong opinions about morality.,0,1,0,0,,
,,,,,,,,,6732736f57f1a61ec4a6db24,Spanish,13 or older,"no, only English or Spanish",no,2025-07-24_09h41.05.626,empathy_intonation_perc_control,2024.2.4,MacIntel,59.88023952,6732736f57f1a61ec4a6db24,68817205a84113384fffdfe3,688237a99fcdeda2b31c7e7a,,,,,,,,,,,,,,,,,,,,,,,,,,,21,,,,,,,,,,,,,,,,,,,,,,,,,,,,,,,,,,,,,,,,,,,,508.9466,509.6131,strongly agree,0,20,20,20,1,It is hard for me to see why some things upset people so much.,1,0,0,1,,
,,,,,,,,,6732736f57f1a61ec4a6db24,Spanish,13 or older,"no, only English or Spanish",no,2025-07-24_09h41.05.626,empathy_intonation_perc_control,2024.2.4,MacIntel,59.88023952,6732736f57f1a61ec4a6db24,68817205a84113384fffdfe3,688237a99fcdeda2b31c7e7a,,,,,,,,,,,,,,,,,,,,,,,,,,,22,,,,,,,,,,,,,,,,,,,,,,,,,,,,,,,,,,,,,,,,,,,,509.6144,511.6132,strongly agree,0,21,21,21,1,I find it easy to put myself in somebody else's shoes.,1,0,1,0,,
,,,,,,,,,6732736f57f1a61ec4a6db24,Spanish,13 or older,"no, only English or Spanish",no,2025-07-24_09h41.05.626,empathy_intonation_perc_control,2024.2.4,MacIntel,59.88023952,6732736f57f1a61ec4a6db24,68817205a84113384fffdfe3,688237a99fcdeda2b31c7e7a,,,,,,,,,,,,,,,,,,,,,,,,,,,23,,,,,,,,,,,,,,,,,,,,,,,,,,,,,,,,,,,,,,,,,,,,511.6148,514.4468,slightly agree,0,22,22,22,1,I think that good manners are the most important thing a parent can teach their child.,0,1,0,0,,
