instructions_2afc.started,instructions_2afc.stopped,instructions_2afc_loop.thisRepN,instructions_2afc_loop.thisTrialN,instructions_2afc_loop.thisN,instructions_2afc_loop.thisIndex,instructions_2afc_loop.ran,instructions_text,continue_text,participant_id,"What variety of Spanish are you most familiar with? (e.g., Peruvian, Spanish, Mexican)",At what age did you begin learning Spanish?,Are you proficient in any languages other than English/Spanish?,"Are you familiar with Caribbean (e.g., Caribbean, Puerto Rican) or Galician Spanish?",date,expName,psychopyVersion,OS,frameRate,id,study_id,session,practice_2afc.started,practice_2afc.stopped,key_resp_2afc_practice.keys,key_resp_2afc_practice.corr,key_resp_2afc_practice.rt,key_resp_2afc_practice.duration,trials_2afc_practice_loop.thisRepN,trials_2afc_practice_loop.thisTrialN,trials_2afc_practice_loop.thisN,trials_2afc_practice_loop.thisIndex,trials_2afc_practice_loop.ran,path,correct_response,check_2afc.started,check_2afc.stopped,trial_2afc.started,trial_2afc.stopped,key_resp_2afc_trial.keys,key_resp_2afc_trial.corr,key_resp_2afc_trial.rt,key_resp_2afc_trial.duration,trials_2afc_loop.thisRepN,trials_2afc_loop.thisTrialN,trials_2afc_loop.thisN,trials_2afc_loop.thisIndex,trials_2afc_loop.ran,item_num,target,variety,instructions_lextale.started,instructions_lextale.stopped,instructions_lextale_loop.thisRepN,instructions_lextale_loop.thisTrialN,instructions_lextale_loop.thisN,instructions_lextale_loop.thisIndex,instructions_lextale_loop.ran,practice_lextale.started,practice_lextale.stopped,key_resp_lextale_practice.keys,key_resp_lextale_practice.corr,key_resp_lextale_practice.rt,key_resp_lextale_practice.duration,practice_feedback_lextale.started,practice_feedback_lextale.stopped,trials_lextale_practice_loop.thisRepN,trials_lextale_practice_loop.thisTrialN,trials_lextale_practice_loop.thisN,trials_lextale_practice_loop.thisIndex,trials_lextale_practice_loop.ran,stim,word,prac_button_real,prac_button_false,check_lextale.started,check_lextale.stopped,trial_lextale.started,trial_lextale.stopped,key_resp_lextale_trial.keys,key_resp_lextale_trial.corr,key_resp_lextale_trial.rt,key_resp_lextale_trial.duration,trials_lextale_loop.thisRepN,trials_lextale_loop.thisTrialN,trials_lextale_loop.thisN,trials_lextale_loop.thisIndex,trials_lextale_loop.ran,button_real,button_false,instructions_eq.started,instructions_eq.stopped,trial_eq.started,trial_eq.stopped,slider_eq_trial.response,trials_eq_loop.thisRepN,trials_eq_loop.thisTrialN,trials_eq_loop.thisN,trials_eq_loop.thisIndex,trials_eq_loop.ran,item,is_test_item,is_distractor,is_agree_score,is_disagree_score,end_exp.started,end_exp.stopped
0.0161,6.6473,0,0,0,0,1,"In the following task you are going to hear a series of utterances. 

  You will decide if the utterances sound like questions or not using your keyboard.", (press the spacebar to continue),67364113bdafe2840fa05b69,Mexican,13 or older,"no, only English or Spanish",no,2026-01-21_21h04.20.708,empathy_intonation_perc_control,2024.2.4,Win32,74.62686567,67364113bdafe2840fa05b69,69712dc693a3960bdb483245,697185799b5efcab7be4e1b7,,,,,,,,,,,,,,,,,,,,,,,,,,,,,,,,,,,,,,,,,,,,,,,,,,,,,,,,,,,,,,,,,,,,,,,,,,,,,,,,,,,,,
6.6496,11.4389,0,1,1,1,1,"If you believe the utterance is a question, type '1' (for 'yes') and if you do not 
  believe it is a question type '0' (for 'no').

  Let's practice a bit...", (press the spacebar to continue),67364113bdafe2840fa05b69,Mexican,13 or older,"no, only English or Spanish",no,2026-01-21_21h04.20.708,empathy_intonation_perc_control,2024.2.4,Win32,74.62686567,67364113bdafe2840fa05b69,69712dc693a3960bdb483245,697185799b5efcab7be4e1b7,,,,,,,,,,,,,,,,,,,,,,,,,,,,,,,,,,,,,,,,,,,,,,,,,,,,,,,,,,,,,,,,,,,,,,,,,,,,,,,,,,,,,
,,,,,,,,,67364113bdafe2840fa05b69,Mexican,13 or older,"no, only English or Spanish",no,2026-01-21_21h04.20.708,empathy_intonation_perc_control,2024.2.4,Win32,74.62686567,67364113bdafe2840fa05b69,69712dc693a3960bdb483245,697185799b5efcab7be4e1b7,11.4617,15.7733,1,1,3.7878,,0,0,0,3,1,./stim/wavs/mexican_question_filler_Felipe-no-tiene-contrasena.wav,1,,,,,,,,,,,,,,,,,,,,,,,,,,,,,,,,,,,,,,,,,,,,,,,,,,,,,,,,,,,,,,,,,,,,,,,,
,,,,,,,,,67364113bdafe2840fa05b69,Mexican,13 or older,"no, only English or Spanish",no,2026-01-21_21h04.20.708,empathy_intonation_perc_control,2024.2.4,Win32,74.62686567,67364113bdafe2840fa05b69,69712dc693a3960bdb483245,697185799b5efcab7be4e1b7,15.7738,19.5352,0,1,3.2417,,0,1,1,7,1,./stim/wavs/puertorican_statement_filler_La-nina-pinta-con-su-amiga.wav,0,,,,,,,,,,,,,,,,,,,,,,,,,,,,,,,,,,,,,,,,,,,,,,,,,,,,,,,,,,,,,,,,,,,,,,,,
,,,,,,,,,67364113bdafe2840fa05b69,Mexican,13 or older,"no, only English or Spanish",no,2026-01-21_21h04.20.708,empathy_intonation_perc_control,2024.2.4,Win32,74.62686567,67364113bdafe2840fa05b69,69712dc693a3960bdb483245,697185799b5efcab7be4e1b7,19.5362,22.4002,1,1,2.3595,,0,2,2,0,1,./stim/wavs/castilian_question_filler_Mi-esposo-conoce-al-chico.wav,1,,,,,,,,,,,,,,,,,,,,,,,,,,,,,,,,,,,,,,,,,,,,,,,,,,,,,,,,,,,,,,,,,,,,,,,,
,,,,,,,,,67364113bdafe2840fa05b69,Mexican,13 or older,"no, only English or Spanish",no,2026-01-21_21h04.20.708,empathy_intonation_perc_control,2024.2.4,Win32,74.62686567,67364113bdafe2840fa05b69,69712dc693a3960bdb483245,697185799b5efcab7be4e1b7,22.4008,25.4144,0,1,2.4926,,0,3,3,6,1,./stim/wavs/peruvian_statement_filler_El-nino-habla-con-su-madre.wav,0,,,,,,,,,,,,,,,,,,,,,,,,,,,,,,,,,,,,,,,,,,,,,,,,,,,,,,,,,,,,,,,,,,,,,,,,
,,,,,,,,,67364113bdafe2840fa05b69,Mexican,13 or older,"no, only English or Spanish",no,2026-01-21_21h04.20.708,empathy_intonation_perc_control,2024.2.4,Win32,74.62686567,67364113bdafe2840fa05b69,69712dc693a3960bdb483245,697185799b5efcab7be4e1b7,25.4149,27.6006,1,1,1.6681,,0,4,4,1,1,./stim/wavs/argentine_question_filler_Mi-vecino-habla-mucho.wav,1,,,,,,,,,,,,,,,,,,,,,,,,,,,,,,,,,,,,,,,,,,,,,,,,,,,,,,,,,,,,,,,,,,,,,,,,
,,,,,,,,,67364113bdafe2840fa05b69,Mexican,13 or older,"no, only English or Spanish",no,2026-01-21_21h04.20.708,empathy_intonation_perc_control,2024.2.4,Win32,74.62686567,67364113bdafe2840fa05b69,69712dc693a3960bdb483245,697185799b5efcab7be4e1b7,27.6014,30.5354,1,0,2.4261,,0,5,5,5,1,./stim/wavs/andalusian_statement_filler_Alberto-nunca-se-afeita.wav,0,,,,,,,,,,,,,,,,,,,,,,,,,,,,,,,,,,,,,,,,,,,,,,,,,,,,,,,,,,,,,,,,,,,,,,,,
,,,,,,,,,67364113bdafe2840fa05b69,Mexican,13 or older,"no, only English or Spanish",no,2026-01-21_21h04.20.708,empathy_intonation_perc_control,2024.2.4,Win32,74.62686567,67364113bdafe2840fa05b69,69712dc693a3960bdb483245,697185799b5efcab7be4e1b7,30.5363,32.8572,0,1,1.799,,0,6,6,4,1,./stim/wavs/cuban_statement_filler_Cocinabas-por-la-noche.wav,0,,,,,,,,,,,,,,,,,,,,,,,,,,,,,,,,,,,,,,,,,,,,,,,,,,,,,,,,,,,,,,,,,,,,,,,,
,,,,,,,,,67364113bdafe2840fa05b69,Mexican,13 or older,"no, only English or Spanish",no,2026-01-21_21h04.20.708,empathy_intonation_perc_control,2024.2.4,Win32,74.62686567,67364113bdafe2840fa05b69,69712dc693a3960bdb483245,697185799b5efcab7be4e1b7,32.8582,35.5633,1,1,2.1965,,0,7,7,2,1,./stim/wavs/chilean_question_filler_Mi-padre-cantaba-bien.wav,1,,,,,,,,,,,,,,,,,,,,,,,,,,,,,,,,,,,,,,,,,,,,,,,,,,,,,,,,,,,,,,,,,,,,,,,,
,,,,,,,,,67364113bdafe2840fa05b69,Mexican,13 or older,"no, only English or Spanish",no,2026-01-21_21h04.20.708,empathy_intonation_perc_control,2024.2.4,Win32,74.62686567,67364113bdafe2840fa05b69,69712dc693a3960bdb483245,697185799b5efcab7be4e1b7,,,,,,,,,,,,,,35.5641,40.7416,,,,,,,,,,,,,,,,,,,,,,,,,,,,,,,,,,,,,,,,,,,,,,,,,,,,,,,,,,,,,,,,,,,,,,
,,,,,,,,,67364113bdafe2840fa05b69,Mexican,13 or older,"no, only English or Spanish",no,2026-01-21_21h04.20.708,empathy_intonation_perc_control,2024.2.4,Win32,74.62686567,67364113bdafe2840fa05b69,69712dc693a3960bdb483245,697185799b5efcab7be4e1b7,,,,,,,,,,,,./stim/wavs/castilian_match_declarative-broad-focus_Maria-bebe-el-vino.wav,0,,,40.7665,43.3392,0,1,2.0543,,0,0,0,47,1,48,0,castilian,,,,,,,,,,,,,,,,,,,,,,,,,,,,,,,,,,,,,,,,,,,,,,,,,,,,,,,,
,,,,,,,,,67364113bdafe2840fa05b69,Mexican,13 or older,"no, only English or Spanish",no,2026-01-21_21h04.20.708,empathy_intonation_perc_control,2024.2.4,Win32,74.62686567,67364113bdafe2840fa05b69,69712dc693a3960bdb483245,697185799b5efcab7be4e1b7,,,,,,,,,,,,./stim/wavs/castilian_match_interrogative-total-yn_Manuela-vende-el-carro.wav,1,,,43.3401,45.74,1,1,1.8871,,0,1,1,2,1,3,0,castilian,,,,,,,,,,,,,,,,,,,,,,,,,,,,,,,,,,,,,,,,,,,,,,,,,,,,,,,,
,,,,,,,,,67364113bdafe2840fa05b69,Mexican,13 or older,"no, only English or Spanish",no,2026-01-21_21h04.20.708,empathy_intonation_perc_control,2024.2.4,Win32,74.62686567,67364113bdafe2840fa05b69,69712dc693a3960bdb483245,697185799b5efcab7be4e1b7,,,,,,,,,,,,./stim/wavs/castilian_mismatch_interrogative-total-yn_La-maestra-vive-en-Paris.wav,1,,,45.7408,48.3013,1,1,2.043,,0,2,2,24,1,25,0,castilian,,,,,,,,,,,,,,,,,,,,,,,,,,,,,,,,,,,,,,,,,,,,,,,,,,,,,,,,
,,,,,,,,,67364113bdafe2840fa05b69,Mexican,13 or older,"no, only English or Spanish",no,2026-01-21_21h04.20.708,empathy_intonation_perc_control,2024.2.4,Win32,74.62686567,67364113bdafe2840fa05b69,69712dc693a3960bdb483245,697185799b5efcab7be4e1b7,,,,,,,,,,,,./stim/wavs/mexican_match_declarative-broad-focus_Emilio-ama-la-marcha.wav,0,,,48.3022,50.6485,0,1,1.8276,,0,3,3,59,1,60,0,mexican,,,,,,,,,,,,,,,,,,,,,,,,,,,,,,,,,,,,,,,,,,,,,,,,,,,,,,,,
,,,,,,,,,67364113bdafe2840fa05b69,Mexican,13 or older,"no, only English or Spanish",no,2026-01-21_21h04.20.708,empathy_intonation_perc_control,2024.2.4,Win32,74.62686567,67364113bdafe2840fa05b69,69712dc693a3960bdb483245,697185799b5efcab7be4e1b7,,,,,,,,,,,,./stim/wavs/puertorican_mismatch_declarative-broad-focus_La-nina-lava-el-plato.wav,0,,,50.6498,53.0354,0,1,1.8725,,0,4,4,87,1,88,0,puertorican,,,,,,,,,,,,,,,,,,,,,,,,,,,,,,,,,,,,,,,,,,,,,,,,,,,,,,,,
,,,,,,,,,67364113bdafe2840fa05b69,Mexican,13 or older,"no, only English or Spanish",no,2026-01-21_21h04.20.708,empathy_intonation_perc_control,2024.2.4,Win32,74.62686567,67364113bdafe2840fa05b69,69712dc693a3960bdb483245,697185799b5efcab7be4e1b7,,,,,,,,,,,,./stim/wavs/puertorican_match_interrogative-total-yn_Emilio-ama-la-marcha.wav,1,,,53.0358,55.4497,0,0,1.8985,,0,5,5,21,1,22,1,puertorican,,,,,,,,,,,,,,,,,,,,,,,,,,,,,,,,,,,,,,,,,,,,,,,,,,,,,,,,
,,,,,,,,,67364113bdafe2840fa05b69,Mexican,13 or older,"no, only English or Spanish",no,2026-01-21_21h04.20.708,empathy_intonation_perc_control,2024.2.4,Win32,74.62686567,67364113bdafe2840fa05b69,69712dc693a3960bdb483245,697185799b5efcab7be4e1b7,,,,,,,,,,,,./stim/wavs/cuban_mismatch_interrogative-total-yn_Mi-tia-odia-la-lluvia.wav,1,,,55.4511,57.717,0,0,1.757,,0,6,6,33,1,34,1,cuban,,,,,,,,,,,,,,,,,,,,,,,,,,,,,,,,,,,,,,,,,,,,,,,,,,,,,,,,
,,,,,,,,,67364113bdafe2840fa05b69,Mexican,13 or older,"no, only English or Spanish",no,2026-01-21_21h04.20.708,empathy_intonation_perc_control,2024.2.4,Win32,74.62686567,67364113bdafe2840fa05b69,69712dc693a3960bdb483245,697185799b5efcab7be4e1b7,,,,,,,,,,,,./stim/wavs/castilian_match_declarative-broad-focus_Manuela-vende-el-carro.wav,0,,,57.7176,60.2379,0,1,2.0051,,0,7,7,46,1,47,0,castilian,,,,,,,,,,,,,,,,,,,,,,,,,,,,,,,,,,,,,,,,,,,,,,,,,,,,,,,,
,,,,,,,,,67364113bdafe2840fa05b69,Mexican,13 or older,"no, only English or Spanish",no,2026-01-21_21h04.20.708,empathy_intonation_perc_control,2024.2.4,Win32,74.62686567,67364113bdafe2840fa05b69,69712dc693a3960bdb483245,697185799b5efcab7be4e1b7,,,,,,,,,,,,./stim/wavs/mexican_match_interrogative-total-yn_Daniel-iba-a-Bolivia.wav,1,,,60.2386,62.5586,1,1,1.8058,,0,8,8,13,1,14,0,mexican,,,,,,,,,,,,,,,,,,,,,,,,,,,,,,,,,,,,,,,,,,,,,,,,,,,,,,,,
,,,,,,,,,67364113bdafe2840fa05b69,Mexican,13 or older,"no, only English or Spanish",no,2026-01-21_21h04.20.708,empathy_intonation_perc_control,2024.2.4,Win32,74.62686567,67364113bdafe2840fa05b69,69712dc693a3960bdb483245,697185799b5efcab7be4e1b7,,,,,,,,,,,,./stim/wavs/mexican_mismatch_declarative-broad-focus_La-maestra-vive-en-Paris.wav,0,,,62.5598,65.9463,0,1,2.8759,,0,9,9,80,1,81,0,mexican,,,,,,,,,,,,,,,,,,,,,,,,,,,,,,,,,,,,,,,,,,,,,,,,,,,,,,,,
,,,,,,,,,67364113bdafe2840fa05b69,Mexican,13 or older,"no, only English or Spanish",no,2026-01-21_21h04.20.708,empathy_intonation_perc_control,2024.2.4,Win32,74.62686567,67364113bdafe2840fa05b69,69712dc693a3960bdb483245,697185799b5efcab7be4e1b7,,,,,,,,,,,,./stim/wavs/puertorican_mismatch_interrogative-total-yn_Mi-madre-come-la-fruta.wav,1,,,65.9473,68.5874,0,0,2.1223,,0,10,10,43,1,44,1,puertorican,,,,,,,,,,,,,,,,,,,,,,,,,,,,,,,,,,,,,,,,,,,,,,,,,,,,,,,,
,,,,,,,,,67364113bdafe2840fa05b69,Mexican,13 or older,"no, only English or Spanish",no,2026-01-21_21h04.20.708,empathy_intonation_perc_control,2024.2.4,Win32,74.62686567,67364113bdafe2840fa05b69,69712dc693a3960bdb483245,697185799b5efcab7be4e1b7,,,,,,,,,,,,./stim/wavs/cuban_match_interrogative-total-yn_Marta-abre-el-regalo.wav,1,,,68.5885,71.8152,1,1,2.7148,,0,11,11,11,1,12,1,cuban,,,,,,,,,,,,,,,,,,,,,,,,,,,,,,,,,,,,,,,,,,,,,,,,,,,,,,,,
,,,,,,,,,67364113bdafe2840fa05b69,Mexican,13 or older,"no, only English or Spanish",no,2026-01-21_21h04.20.708,empathy_intonation_perc_control,2024.2.4,Win32,74.62686567,67364113bdafe2840fa05b69,69712dc693a3960bdb483245,697185799b5efcab7be4e1b7,,,,,,,,,,,,./stim/wavs/mexican_match_declarative-broad-focus_Marta-abre-el-regalo.wav,0,,,71.8158,74.3756,0,1,2.0415,,0,12,12,61,1,62,0,mexican,,,,,,,,,,,,,,,,,,,,,,,,,,,,,,,,,,,,,,,,,,,,,,,,,,,,,,,,
,,,,,,,,,67364113bdafe2840fa05b69,Mexican,13 or older,"no, only English or Spanish",no,2026-01-21_21h04.20.708,empathy_intonation_perc_control,2024.2.4,Win32,74.62686567,67364113bdafe2840fa05b69,69712dc693a3960bdb483245,697185799b5efcab7be4e1b7,,,,,,,,,,,,./stim/wavs/mexican_mismatch_interrogative-total-yn_Mi-novio-viene-del-lago.wav,1,,,74.3762,76.9233,1,1,2.0358,,0,13,13,37,1,38,0,mexican,,,,,,,,,,,,,,,,,,,,,,,,,,,,,,,,,,,,,,,,,,,,,,,,,,,,,,,,
,,,,,,,,,67364113bdafe2840fa05b69,Mexican,13 or older,"no, only English or Spanish",no,2026-01-21_21h04.20.708,empathy_intonation_perc_control,2024.2.4,Win32,74.62686567,67364113bdafe2840fa05b69,69712dc693a3960bdb483245,697185799b5efcab7be4e1b7,,,,,,,,,,,,./stim/wavs/puertorican_match_declarative-broad-focus_David-leia-el-libro.wav,0,,,76.924,79.244,0,1,1.8027,,0,14,14,64,1,65,0,puertorican,,,,,,,,,,,,,,,,,,,,,,,,,,,,,,,,,,,,,,,,,,,,,,,,,,,,,,,,
,,,,,,,,,67364113bdafe2840fa05b69,Mexican,13 or older,"no, only English or Spanish",no,2026-01-21_21h04.20.708,empathy_intonation_perc_control,2024.2.4,Win32,74.62686567,67364113bdafe2840fa05b69,69712dc693a3960bdb483245,697185799b5efcab7be4e1b7,,,,,,,,,,,,./stim/wavs/castilian_match_interrogative-total-yn_Marta-abre-el-regalo.wav,1,,,79.2448,81.7252,1,1,1.9687,,0,15,15,5,1,6,0,castilian,,,,,,,,,,,,,,,,,,,,,,,,,,,,,,,,,,,,,,,,,,,,,,,,,,,,,,,,
,,,,,,,,,67364113bdafe2840fa05b69,Mexican,13 or older,"no, only English or Spanish",no,2026-01-21_21h04.20.708,empathy_intonation_perc_control,2024.2.4,Win32,74.62686567,67364113bdafe2840fa05b69,69712dc693a3960bdb483245,697185799b5efcab7be4e1b7,,,,,,,,,,,,./stim/wavs/mexican_mismatch_interrogative-total-yn_El-nino-oye-el-rio.wav,1,,,81.7264,83.9386,1,1,1.6923,,0,16,16,35,1,36,0,mexican,,,,,,,,,,,,,,,,,,,,,,,,,,,,,,,,,,,,,,,,,,,,,,,,,,,,,,,,
,,,,,,,,,67364113bdafe2840fa05b69,Mexican,13 or older,"no, only English or Spanish",no,2026-01-21_21h04.20.708,empathy_intonation_perc_control,2024.2.4,Win32,74.62686567,67364113bdafe2840fa05b69,69712dc693a3960bdb483245,697185799b5efcab7be4e1b7,,,,,,,,,,,,./stim/wavs/castilian_match_declarative-broad-focus_Marta-abre-el-regalo.wav,0,,,83.939,86.3927,0,1,1.9433,,0,17,17,49,1,50,0,castilian,,,,,,,,,,,,,,,,,,,,,,,,,,,,,,,,,,,,,,,,,,,,,,,,,,,,,,,,
,,,,,,,,,67364113bdafe2840fa05b69,Mexican,13 or older,"no, only English or Spanish",no,2026-01-21_21h04.20.708,empathy_intonation_perc_control,2024.2.4,Win32,74.62686567,67364113bdafe2840fa05b69,69712dc693a3960bdb483245,697185799b5efcab7be4e1b7,,,,,,,,,,,,./stim/wavs/mexican_match_interrogative-total-yn_Mariano-habla-del-tiempo.wav,1,,,86.3932,88.8877,1,1,1.9835,,0,18,18,16,1,17,0,mexican,,,,,,,,,,,,,,,,,,,,,,,,,,,,,,,,,,,,,,,,,,,,,,,,,,,,,,,,
,,,,,,,,,67364113bdafe2840fa05b69,Mexican,13 or older,"no, only English or Spanish",no,2026-01-21_21h04.20.708,empathy_intonation_perc_control,2024.2.4,Win32,74.62686567,67364113bdafe2840fa05b69,69712dc693a3960bdb483245,697185799b5efcab7be4e1b7,,,,,,,,,,,,./stim/wavs/puertorican_match_interrogative-total-yn_Ana-lleva-el-abrigo.wav,1,,,88.8884,91.0614,0,0,1.6544,,0,19,19,18,1,19,1,puertorican,,,,,,,,,,,,,,,,,,,,,,,,,,,,,,,,,,,,,,,,,,,,,,,,,,,,,,,,
,,,,,,,,,67364113bdafe2840fa05b69,Mexican,13 or older,"no, only English or Spanish",no,2026-01-21_21h04.20.708,empathy_intonation_perc_control,2024.2.4,Win32,74.62686567,67364113bdafe2840fa05b69,69712dc693a3960bdb483245,697185799b5efcab7be4e1b7,,,,,,,,,,,,./stim/wavs/puertorican_match_interrogative-total-yn_Daniel-iba-a-Bolivia.wav,1,,,91.0624,94.0753,0,0,2.4939,,0,20,20,19,1,20,1,puertorican,,,,,,,,,,,,,,,,,,,,,,,,,,,,,,,,,,,,,,,,,,,,,,,,,,,,,,,,
,,,,,,,,,67364113bdafe2840fa05b69,Mexican,13 or older,"no, only English or Spanish",no,2026-01-21_21h04.20.708,empathy_intonation_perc_control,2024.2.4,Win32,74.62686567,67364113bdafe2840fa05b69,69712dc693a3960bdb483245,697185799b5efcab7be4e1b7,,,,,,,,,,,,./stim/wavs/mexican_match_interrogative-total-yn_Marta-abre-el-regalo.wav,1,,,94.0761,96.1425,1,1,1.5479,,0,21,21,17,1,18,0,mexican,,,,,,,,,,,,,,,,,,,,,,,,,,,,,,,,,,,,,,,,,,,,,,,,,,,,,,,,
,,,,,,,,,67364113bdafe2840fa05b69,Mexican,13 or older,"no, only English or Spanish",no,2026-01-21_21h04.20.708,empathy_intonation_perc_control,2024.2.4,Win32,74.62686567,67364113bdafe2840fa05b69,69712dc693a3960bdb483245,697185799b5efcab7be4e1b7,,,,,,,,,,,,./stim/wavs/puertorican_mismatch_interrogative-total-yn_El-nino-oye-el-rio.wav,1,,,96.1429,98.4236,0,0,1.7674,,0,22,22,40,1,41,1,puertorican,,,,,,,,,,,,,,,,,,,,,,,,,,,,,,,,,,,,,,,,,,,,,,,,,,,,,,,,
,,,,,,,,,67364113bdafe2840fa05b69,Mexican,13 or older,"no, only English or Spanish",no,2026-01-21_21h04.20.708,empathy_intonation_perc_control,2024.2.4,Win32,74.62686567,67364113bdafe2840fa05b69,69712dc693a3960bdb483245,697185799b5efcab7be4e1b7,,,,,,,,,,,,./stim/wavs/mexican_match_interrogative-total-yn_Emilio-ama-la-marcha.wav,1,,,98.4244,100.6111,1,1,1.6699,,0,23,23,15,1,16,0,mexican,,,,,,,,,,,,,,,,,,,,,,,,,,,,,,,,,,,,,,,,,,,,,,,,,,,,,,,,
,,,,,,,,,67364113bdafe2840fa05b69,Mexican,13 or older,"no, only English or Spanish",no,2026-01-21_21h04.20.708,empathy_intonation_perc_control,2024.2.4,Win32,74.62686567,67364113bdafe2840fa05b69,69712dc693a3960bdb483245,697185799b5efcab7be4e1b7,,,,,,,,,,,,./stim/wavs/puertorican_match_declarative-broad-focus_Maria-bebe-el-vino.wav,0,,,100.6125,102.7981,0,1,1.6706,,0,24,24,67,1,68,0,puertorican,,,,,,,,,,,,,,,,,,,,,,,,,,,,,,,,,,,,,,,,,,,,,,,,,,,,,,,,
,,,,,,,,,67364113bdafe2840fa05b69,Mexican,13 or older,"no, only English or Spanish",no,2026-01-21_21h04.20.708,empathy_intonation_perc_control,2024.2.4,Win32,74.62686567,67364113bdafe2840fa05b69,69712dc693a3960bdb483245,697185799b5efcab7be4e1b7,,,,,,,,,,,,./stim/wavs/castilian_mismatch_declarative-broad-focus_Mi-tia-odia-la-lluvia.wav,0,,,102.7992,105.2393,0,1,1.9241,,0,25,25,72,1,73,0,castilian,,,,,,,,,,,,,,,,,,,,,,,,,,,,,,,,,,,,,,,,,,,,,,,,,,,,,,,,
,,,,,,,,,67364113bdafe2840fa05b69,Mexican,13 or older,"no, only English or Spanish",no,2026-01-21_21h04.20.708,empathy_intonation_perc_control,2024.2.4,Win32,74.62686567,67364113bdafe2840fa05b69,69712dc693a3960bdb483245,697185799b5efcab7be4e1b7,,,,,,,,,,,,./stim/wavs/mexican_match_declarative-broad-focus_Mariano-habla-del-tiempo.wav,0,,,105.2403,107.5332,0,1,1.7804,,0,26,26,60,1,61,0,mexican,,,,,,,,,,,,,,,,,,,,,,,,,,,,,,,,,,,,,,,,,,,,,,,,,,,,,,,,
,,,,,,,,,67364113bdafe2840fa05b69,Mexican,13 or older,"no, only English or Spanish",no,2026-01-21_21h04.20.708,empathy_intonation_perc_control,2024.2.4,Win32,74.62686567,67364113bdafe2840fa05b69,69712dc693a3960bdb483245,697185799b5efcab7be4e1b7,,,,,,,,,,,,./stim/wavs/castilian_mismatch_declarative-broad-focus_La-maestra-vive-en-Paris.wav,0,,,107.5343,117.5763,0,1,9.5271,,0,27,27,69,1,70,0,castilian,,,,,,,,,,,,,,,,,,,,,,,,,,,,,,,,,,,,,,,,,,,,,,,,,,,,,,,,
,,,,,,,,,67364113bdafe2840fa05b69,Mexican,13 or older,"no, only English or Spanish",no,2026-01-21_21h04.20.708,empathy_intonation_perc_control,2024.2.4,Win32,74.62686567,67364113bdafe2840fa05b69,69712dc693a3960bdb483245,697185799b5efcab7be4e1b7,,,,,,,,,,,,./stim/wavs/puertorican_mismatch_declarative-broad-focus_El-nino-oye-el-rio.wav,0,,,117.5768,119.7635,0,1,1.6754,,0,28,28,85,1,86,0,puertorican,,,,,,,,,,,,,,,,,,,,,,,,,,,,,,,,,,,,,,,,,,,,,,,,,,,,,,,,
,,,,,,,,,67364113bdafe2840fa05b69,Mexican,13 or older,"no, only English or Spanish",no,2026-01-21_21h04.20.708,empathy_intonation_perc_control,2024.2.4,Win32,74.62686567,67364113bdafe2840fa05b69,69712dc693a3960bdb483245,697185799b5efcab7be4e1b7,,,,,,,,,,,,./stim/wavs/cuban_match_declarative-broad-focus_Marta-abre-el-regalo.wav,0,,,119.764,122.0978,0,1,1.8149,,0,29,29,55,1,56,0,cuban,,,,,,,,,,,,,,,,,,,,,,,,,,,,,,,,,,,,,,,,,,,,,,,,,,,,,,,,
,,,,,,,,,67364113bdafe2840fa05b69,Mexican,13 or older,"no, only English or Spanish",no,2026-01-21_21h04.20.708,empathy_intonation_perc_control,2024.2.4,Win32,74.62686567,67364113bdafe2840fa05b69,69712dc693a3960bdb483245,697185799b5efcab7be4e1b7,,,,,,,,,,,,./stim/wavs/castilian_match_declarative-broad-focus_Emilio-ama-la-marcha.wav,0,,,122.0982,124.4582,0,1,1.8414,,0,30,30,45,1,46,0,castilian,,,,,,,,,,,,,,,,,,,,,,,,,,,,,,,,,,,,,,,,,,,,,,,,,,,,,,,,
,,,,,,,,,67364113bdafe2840fa05b69,Mexican,13 or older,"no, only English or Spanish",no,2026-01-21_21h04.20.708,empathy_intonation_perc_control,2024.2.4,Win32,74.62686567,67364113bdafe2840fa05b69,69712dc693a3960bdb483245,697185799b5efcab7be4e1b7,,,,,,,,,,,,./stim/wavs/mexican_match_interrogative-total-yn_Ana-lleva-el-abrigo.wav,1,,,124.4587,126.6329,1,1,1.6618,,0,31,31,12,1,13,0,mexican,,,,,,,,,,,,,,,,,,,,,,,,,,,,,,,,,,,,,,,,,,,,,,,,,,,,,,,,
,,,,,,,,,67364113bdafe2840fa05b69,Mexican,13 or older,"no, only English or Spanish",no,2026-01-21_21h04.20.708,empathy_intonation_perc_control,2024.2.4,Win32,74.62686567,67364113bdafe2840fa05b69,69712dc693a3960bdb483245,697185799b5efcab7be4e1b7,,,,,,,,,,,,./stim/wavs/cuban_mismatch_interrogative-total-yn_El-hombre-mira-la-luna.wav,1,,,126.6338,128.7933,0,0,1.6484,,0,32,32,29,1,30,1,cuban,,,,,,,,,,,,,,,,,,,,,,,,,,,,,,,,,,,,,,,,,,,,,,,,,,,,,,,,
,,,,,,,,,67364113bdafe2840fa05b69,Mexican,13 or older,"no, only English or Spanish",no,2026-01-21_21h04.20.708,empathy_intonation_perc_control,2024.2.4,Win32,74.62686567,67364113bdafe2840fa05b69,69712dc693a3960bdb483245,697185799b5efcab7be4e1b7,,,,,,,,,,,,./stim/wavs/castilian_match_interrogative-total-yn_Mariano-habla-del-tiempo.wav,1,,,128.7941,131.5675,1,1,2.2539,,0,33,33,4,1,5,0,castilian,,,,,,,,,,,,,,,,,,,,,,,,,,,,,,,,,,,,,,,,,,,,,,,,,,,,,,,,
,,,,,,,,,67364113bdafe2840fa05b69,Mexican,13 or older,"no, only English or Spanish",no,2026-01-21_21h04.20.708,empathy_intonation_perc_control,2024.2.4,Win32,74.62686567,67364113bdafe2840fa05b69,69712dc693a3960bdb483245,697185799b5efcab7be4e1b7,,,,,,,,,,,,./stim/wavs/mexican_mismatch_declarative-broad-focus_Mi-tia-odia-la-lluvia.wav,0,,,131.568,133.8085,0,1,1.7219,,0,34,34,82,1,83,0,mexican,,,,,,,,,,,,,,,,,,,,,,,,,,,,,,,,,,,,,,,,,,,,,,,,,,,,,,,,
,,,,,,,,,67364113bdafe2840fa05b69,Mexican,13 or older,"no, only English or Spanish",no,2026-01-21_21h04.20.708,empathy_intonation_perc_control,2024.2.4,Win32,74.62686567,67364113bdafe2840fa05b69,69712dc693a3960bdb483245,697185799b5efcab7be4e1b7,,,,,,,,,,,,./stim/wavs/puertorican_match_interrogative-total-yn_Manuela-vende-el-carro.wav,1,,,133.8096,136.129,0,0,1.8008,,0,35,35,22,1,23,1,puertorican,,,,,,,,,,,,,,,,,,,,,,,,,,,,,,,,,,,,,,,,,,,,,,,,,,,,,,,,
,,,,,,,,,67364113bdafe2840fa05b69,Mexican,13 or older,"no, only English or Spanish",no,2026-01-21_21h04.20.708,empathy_intonation_perc_control,2024.2.4,Win32,74.62686567,67364113bdafe2840fa05b69,69712dc693a3960bdb483245,697185799b5efcab7be4e1b7,,,,,,,,,,,,./stim/wavs/cuban_mismatch_declarative-broad-focus_La-nina-lava-el-plato.wav,0,,,136.1295,138.6901,0,1,2.0494,,0,36,36,75,1,76,0,cuban,,,,,,,,,,,,,,,,,,,,,,,,,,,,,,,,,,,,,,,,,,,,,,,,,,,,,,,,
,,,,,,,,,67364113bdafe2840fa05b69,Mexican,13 or older,"no, only English or Spanish",no,2026-01-21_21h04.20.708,empathy_intonation_perc_control,2024.2.4,Win32,74.62686567,67364113bdafe2840fa05b69,69712dc693a3960bdb483245,697185799b5efcab7be4e1b7,,,,,,,,,,,,./stim/wavs/cuban_match_interrogative-total-yn_Mariano-habla-del-tiempo.wav,1,,,138.6913,141.0505,0,0,1.8423,,0,37,37,10,1,11,1,cuban,,,,,,,,,,,,,,,,,,,,,,,,,,,,,,,,,,,,,,,,,,,,,,,,,,,,,,,,
,,,,,,,,,67364113bdafe2840fa05b69,Mexican,13 or older,"no, only English or Spanish",no,2026-01-21_21h04.20.708,empathy_intonation_perc_control,2024.2.4,Win32,74.62686567,67364113bdafe2840fa05b69,69712dc693a3960bdb483245,697185799b5efcab7be4e1b7,,,,,,,,,,,,./stim/wavs/cuban_mismatch_interrogative-total-yn_El-nino-oye-el-rio.wav,1,,,141.0514,143.2519,0,0,1.6881,,0,38,38,30,1,31,1,cuban,,,,,,,,,,,,,,,,,,,,,,,,,,,,,,,,,,,,,,,,,,,,,,,,,,,,,,,,
,,,,,,,,,67364113bdafe2840fa05b69,Mexican,13 or older,"no, only English or Spanish",no,2026-01-21_21h04.20.708,empathy_intonation_perc_control,2024.2.4,Win32,74.62686567,67364113bdafe2840fa05b69,69712dc693a3960bdb483245,697185799b5efcab7be4e1b7,,,,,,,,,,,,./stim/wavs/puertorican_match_declarative-broad-focus_Manuela-vende-el-carro.wav,0,,,143.2527,145.4386,0,1,1.6721,,0,39,39,66,1,67,0,puertorican,,,,,,,,,,,,,,,,,,,,,,,,,,,,,,,,,,,,,,,,,,,,,,,,,,,,,,,,
,,,,,,,,,67364113bdafe2840fa05b69,Mexican,13 or older,"no, only English or Spanish",no,2026-01-21_21h04.20.708,empathy_intonation_perc_control,2024.2.4,Win32,74.62686567,67364113bdafe2840fa05b69,69712dc693a3960bdb483245,697185799b5efcab7be4e1b7,,,,,,,,,,,,./stim/wavs/castilian_mismatch_interrogative-total-yn_Mi-novio-viene-del-lago.wav,1,,,145.4394,148.0526,1,1,2.0992,,0,40,40,27,1,28,0,castilian,,,,,,,,,,,,,,,,,,,,,,,,,,,,,,,,,,,,,,,,,,,,,,,,,,,,,,,,
,,,,,,,,,67364113bdafe2840fa05b69,Mexican,13 or older,"no, only English or Spanish",no,2026-01-21_21h04.20.708,empathy_intonation_perc_control,2024.2.4,Win32,74.62686567,67364113bdafe2840fa05b69,69712dc693a3960bdb483245,697185799b5efcab7be4e1b7,,,,,,,,,,,,./stim/wavs/mexican_mismatch_interrogative-total-yn_Mi-tia-odia-la-lluvia.wav,1,,,148.0531,150.0666,1,1,1.5025,,0,41,41,38,1,39,0,mexican,,,,,,,,,,,,,,,,,,,,,,,,,,,,,,,,,,,,,,,,,,,,,,,,,,,,,,,,
,,,,,,,,,67364113bdafe2840fa05b69,Mexican,13 or older,"no, only English or Spanish",no,2026-01-21_21h04.20.708,empathy_intonation_perc_control,2024.2.4,Win32,74.62686567,67364113bdafe2840fa05b69,69712dc693a3960bdb483245,697185799b5efcab7be4e1b7,,,,,,,,,,,,./stim/wavs/mexican_mismatch_interrogative-total-yn_El-hombre-mira-la-luna.wav,1,,,150.0671,152.1209,1,1,1.5341,,0,42,42,34,1,35,0,mexican,,,,,,,,,,,,,,,,,,,,,,,,,,,,,,,,,,,,,,,,,,,,,,,,,,,,,,,,
,,,,,,,,,67364113bdafe2840fa05b69,Mexican,13 or older,"no, only English or Spanish",no,2026-01-21_21h04.20.708,empathy_intonation_perc_control,2024.2.4,Win32,74.62686567,67364113bdafe2840fa05b69,69712dc693a3960bdb483245,697185799b5efcab7be4e1b7,,,,,,,,,,,,./stim/wavs/puertorican_mismatch_declarative-broad-focus_La-maestra-vive-en-Paris.wav,0,,,152.1213,154.4151,0,1,1.7842,,0,43,43,86,1,87,0,puertorican,,,,,,,,,,,,,,,,,,,,,,,,,,,,,,,,,,,,,,,,,,,,,,,,,,,,,,,,
,,,,,,,,,67364113bdafe2840fa05b69,Mexican,13 or older,"no, only English or Spanish",no,2026-01-21_21h04.20.708,empathy_intonation_perc_control,2024.2.4,Win32,74.62686567,67364113bdafe2840fa05b69,69712dc693a3960bdb483245,697185799b5efcab7be4e1b7,,,,,,,,,,,,./stim/wavs/cuban_match_interrogative-total-yn_Manuela-vende-el-carro.wav,1,,,154.4166,156.6424,0,0,1.7168,,0,44,44,8,1,9,1,cuban,,,,,,,,,,,,,,,,,,,,,,,,,,,,,,,,,,,,,,,,,,,,,,,,,,,,,,,,
,,,,,,,,,67364113bdafe2840fa05b69,Mexican,13 or older,"no, only English or Spanish",no,2026-01-21_21h04.20.708,empathy_intonation_perc_control,2024.2.4,Win32,74.62686567,67364113bdafe2840fa05b69,69712dc693a3960bdb483245,697185799b5efcab7be4e1b7,,,,,,,,,,,,./stim/wavs/mexican_mismatch_declarative-broad-focus_Mi-novio-viene-del-lago.wav,0,,,156.6434,158.8305,0,1,1.6694,,0,45,45,81,1,82,0,mexican,,,,,,,,,,,,,,,,,,,,,,,,,,,,,,,,,,,,,,,,,,,,,,,,,,,,,,,,
,,,,,,,,,67364113bdafe2840fa05b69,Mexican,13 or older,"no, only English or Spanish",no,2026-01-21_21h04.20.708,empathy_intonation_perc_control,2024.2.4,Win32,74.62686567,67364113bdafe2840fa05b69,69712dc693a3960bdb483245,697185799b5efcab7be4e1b7,,,,,,,,,,,,./stim/wavs/castilian_mismatch_declarative-broad-focus_Mi-novio-viene-del-lago.wav,0,,,158.8324,161.2169,0,1,1.8689,,0,46,46,71,1,72,0,castilian,,,,,,,,,,,,,,,,,,,,,,,,,,,,,,,,,,,,,,,,,,,,,,,,,,,,,,,,
,,,,,,,,,67364113bdafe2840fa05b69,Mexican,13 or older,"no, only English or Spanish",no,2026-01-21_21h04.20.708,empathy_intonation_perc_control,2024.2.4,Win32,74.62686567,67364113bdafe2840fa05b69,69712dc693a3960bdb483245,697185799b5efcab7be4e1b7,,,,,,,,,,,,./stim/wavs/cuban_mismatch_declarative-broad-focus_Mi-tia-odia-la-lluvia.wav,0,,,161.2177,163.618,0,1,1.8867,,0,47,47,77,1,78,0,cuban,,,,,,,,,,,,,,,,,,,,,,,,,,,,,,,,,,,,,,,,,,,,,,,,,,,,,,,,
,,,,,,,,,67364113bdafe2840fa05b69,Mexican,13 or older,"no, only English or Spanish",no,2026-01-21_21h04.20.708,empathy_intonation_perc_control,2024.2.4,Win32,74.62686567,67364113bdafe2840fa05b69,69712dc693a3960bdb483245,697185799b5efcab7be4e1b7,,,,,,,,,,,,./stim/wavs/cuban_mismatch_declarative-broad-focus_El-bebe-comia-muy-bien.wav,0,,,163.6186,166.0054,0,1,1.8712,,0,48,48,73,1,74,0,cuban,,,,,,,,,,,,,,,,,,,,,,,,,,,,,,,,,,,,,,,,,,,,,,,,,,,,,,,,
,,,,,,,,,67364113bdafe2840fa05b69,Mexican,13 or older,"no, only English or Spanish",no,2026-01-21_21h04.20.708,empathy_intonation_perc_control,2024.2.4,Win32,74.62686567,67364113bdafe2840fa05b69,69712dc693a3960bdb483245,697185799b5efcab7be4e1b7,,,,,,,,,,,,./stim/wavs/mexican_mismatch_declarative-broad-focus_El-hombre-mira-la-luna.wav,0,,,166.0065,168.2191,0,1,1.703,,0,49,49,79,1,80,0,mexican,,,,,,,,,,,,,,,,,,,,,,,,,,,,,,,,,,,,,,,,,,,,,,,,,,,,,,,,
,,,,,,,,,67364113bdafe2840fa05b69,Mexican,13 or older,"no, only English or Spanish",no,2026-01-21_21h04.20.708,empathy_intonation_perc_control,2024.2.4,Win32,74.62686567,67364113bdafe2840fa05b69,69712dc693a3960bdb483245,697185799b5efcab7be4e1b7,,,,,,,,,,,,./stim/wavs/castilian_mismatch_interrogative-total-yn_La-nina-lava-el-plato.wav,1,,,168.2197,170.6203,1,1,1.8822,,0,50,50,25,1,26,0,castilian,,,,,,,,,,,,,,,,,,,,,,,,,,,,,,,,,,,,,,,,,,,,,,,,,,,,,,,,
,,,,,,,,,67364113bdafe2840fa05b69,Mexican,13 or older,"no, only English or Spanish",no,2026-01-21_21h04.20.708,empathy_intonation_perc_control,2024.2.4,Win32,74.62686567,67364113bdafe2840fa05b69,69712dc693a3960bdb483245,697185799b5efcab7be4e1b7,,,,,,,,,,,,./stim/wavs/puertorican_match_interrogative-total-yn_Maria-bebe-el-vino.wav,1,,,170.6222,173.3541,0,0,2.2231,,0,51,51,23,1,24,1,puertorican,,,,,,,,,,,,,,,,,,,,,,,,,,,,,,,,,,,,,,,,,,,,,,,,,,,,,,,,
,,,,,,,,,67364113bdafe2840fa05b69,Mexican,13 or older,"no, only English or Spanish",no,2026-01-21_21h04.20.708,empathy_intonation_perc_control,2024.2.4,Win32,74.62686567,67364113bdafe2840fa05b69,69712dc693a3960bdb483245,697185799b5efcab7be4e1b7,,,,,,,,,,,,./stim/wavs/castilian_match_declarative-broad-focus_David-leia-el-libro.wav,0,,,173.3545,176.0353,0,1,2.1627,,0,52,52,44,1,45,0,castilian,,,,,,,,,,,,,,,,,,,,,,,,,,,,,,,,,,,,,,,,,,,,,,,,,,,,,,,,
,,,,,,,,,67364113bdafe2840fa05b69,Mexican,13 or older,"no, only English or Spanish",no,2026-01-21_21h04.20.708,empathy_intonation_perc_control,2024.2.4,Win32,74.62686567,67364113bdafe2840fa05b69,69712dc693a3960bdb483245,697185799b5efcab7be4e1b7,,,,,,,,,,,,./stim/wavs/mexican_mismatch_declarative-broad-focus_El-bebe-comia-muy-bien.wav,0,,,176.0363,178.3558,0,1,1.8102,,0,53,53,78,1,79,0,mexican,,,,,,,,,,,,,,,,,,,,,,,,,,,,,,,,,,,,,,,,,,,,,,,,,,,,,,,,
,,,,,,,,,67364113bdafe2840fa05b69,Mexican,13 or older,"no, only English or Spanish",no,2026-01-21_21h04.20.708,empathy_intonation_perc_control,2024.2.4,Win32,74.62686567,67364113bdafe2840fa05b69,69712dc693a3960bdb483245,697185799b5efcab7be4e1b7,,,,,,,,,,,,./stim/wavs/puertorican_mismatch_interrogative-total-yn_La-maestra-vive-en-Paris.wav,1,,,178.3562,180.9569,0,0,2.0804,,0,54,54,41,1,42,1,puertorican,,,,,,,,,,,,,,,,,,,,,,,,,,,,,,,,,,,,,,,,,,,,,,,,,,,,,,,,
,,,,,,,,,67364113bdafe2840fa05b69,Mexican,13 or older,"no, only English or Spanish",no,2026-01-21_21h04.20.708,empathy_intonation_perc_control,2024.2.4,Win32,74.62686567,67364113bdafe2840fa05b69,69712dc693a3960bdb483245,697185799b5efcab7be4e1b7,,,,,,,,,,,,./stim/wavs/cuban_match_declarative-broad-focus_Mariano-habla-del-tiempo.wav,0,,,180.9574,183.6377,1,0,2.1635,,0,55,55,54,1,55,0,cuban,,,,,,,,,,,,,,,,,,,,,,,,,,,,,,,,,,,,,,,,,,,,,,,,,,,,,,,,
,,,,,,,,,67364113bdafe2840fa05b69,Mexican,13 or older,"no, only English or Spanish",no,2026-01-21_21h04.20.708,empathy_intonation_perc_control,2024.2.4,Win32,74.62686567,67364113bdafe2840fa05b69,69712dc693a3960bdb483245,697185799b5efcab7be4e1b7,,,,,,,,,,,,./stim/wavs/cuban_match_declarative-broad-focus_Maria-bebe-el-vino.wav,0,,,183.6387,187.8257,1,0,3.6783,,0,56,56,53,1,54,0,cuban,,,,,,,,,,,,,,,,,,,,,,,,,,,,,,,,,,,,,,,,,,,,,,,,,,,,,,,,
,,,,,,,,,67364113bdafe2840fa05b69,Mexican,13 or older,"no, only English or Spanish",no,2026-01-21_21h04.20.708,empathy_intonation_perc_control,2024.2.4,Win32,74.62686567,67364113bdafe2840fa05b69,69712dc693a3960bdb483245,697185799b5efcab7be4e1b7,,,,,,,,,,,,./stim/wavs/castilian_mismatch_declarative-broad-focus_El-nino-oye-el-rio.wav,0,,,187.8264,190.7465,0,1,2.4019,,0,57,57,68,1,69,0,castilian,,,,,,,,,,,,,,,,,,,,,,,,,,,,,,,,,,,,,,,,,,,,,,,,,,,,,,,,
,,,,,,,,,67364113bdafe2840fa05b69,Mexican,13 or older,"no, only English or Spanish",no,2026-01-21_21h04.20.708,empathy_intonation_perc_control,2024.2.4,Win32,74.62686567,67364113bdafe2840fa05b69,69712dc693a3960bdb483245,697185799b5efcab7be4e1b7,,,,,,,,,,,,./stim/wavs/cuban_match_declarative-broad-focus_Daniel-iba-a-Bolivia.wav,0,,,190.7472,194.1616,1,0,2.8995,,0,58,58,51,1,52,0,cuban,,,,,,,,,,,,,,,,,,,,,,,,,,,,,,,,,,,,,,,,,,,,,,,,,,,,,,,,
,,,,,,,,,67364113bdafe2840fa05b69,Mexican,13 or older,"no, only English or Spanish",no,2026-01-21_21h04.20.708,empathy_intonation_perc_control,2024.2.4,Win32,74.62686567,67364113bdafe2840fa05b69,69712dc693a3960bdb483245,697185799b5efcab7be4e1b7,,,,,,,,,,,,./stim/wavs/castilian_match_interrogative-total-yn_Emilio-ama-la-marcha.wav,1,,,194.1625,196.5218,1,1,1.8427,,0,59,59,1,1,2,0,castilian,,,,,,,,,,,,,,,,,,,,,,,,,,,,,,,,,,,,,,,,,,,,,,,,,,,,,,,,
,,,,,,,,,67364113bdafe2840fa05b69,Mexican,13 or older,"no, only English or Spanish",no,2026-01-21_21h04.20.708,empathy_intonation_perc_control,2024.2.4,Win32,74.62686567,67364113bdafe2840fa05b69,69712dc693a3960bdb483245,697185799b5efcab7be4e1b7,,,,,,,,,,,,./stim/wavs/puertorican_mismatch_interrogative-total-yn_La-nina-lava-el-plato.wav,1,,,196.5227,198.856,0,0,1.8155,,0,60,60,42,1,43,1,puertorican,,,,,,,,,,,,,,,,,,,,,,,,,,,,,,,,,,,,,,,,,,,,,,,,,,,,,,,,
,,,,,,,,,67364113bdafe2840fa05b69,Mexican,13 or older,"no, only English or Spanish",no,2026-01-21_21h04.20.708,empathy_intonation_perc_control,2024.2.4,Win32,74.62686567,67364113bdafe2840fa05b69,69712dc693a3960bdb483245,697185799b5efcab7be4e1b7,,,,,,,,,,,,./stim/wavs/castilian_mismatch_interrogative-total-yn_Mi-madre-come-la-fruta.wav,1,,,198.8566,202.0703,1,1,2.697,,0,61,61,26,1,27,0,castilian,,,,,,,,,,,,,,,,,,,,,,,,,,,,,,,,,,,,,,,,,,,,,,,,,,,,,,,,
,,,,,,,,,67364113bdafe2840fa05b69,Mexican,13 or older,"no, only English or Spanish",no,2026-01-21_21h04.20.708,empathy_intonation_perc_control,2024.2.4,Win32,74.62686567,67364113bdafe2840fa05b69,69712dc693a3960bdb483245,697185799b5efcab7be4e1b7,,,,,,,,,,,,./stim/wavs/puertorican_match_declarative-broad-focus_Ana-lleva-el-abrigo.wav,0,,,202.0713,205.0046,0,1,2.416,,0,62,62,62,1,63,0,puertorican,,,,,,,,,,,,,,,,,,,,,,,,,,,,,,,,,,,,,,,,,,,,,,,,,,,,,,,,
,,,,,,,,,67364113bdafe2840fa05b69,Mexican,13 or older,"no, only English or Spanish",no,2026-01-21_21h04.20.708,empathy_intonation_perc_control,2024.2.4,Win32,74.62686567,67364113bdafe2840fa05b69,69712dc693a3960bdb483245,697185799b5efcab7be4e1b7,,,,,,,,,,,,./stim/wavs/cuban_match_declarative-broad-focus_Ana-lleva-el-abrigo.wav,0,,,205.0059,207.6588,1,0,2.1357,,0,63,63,50,1,51,0,cuban,,,,,,,,,,,,,,,,,,,,,,,,,,,,,,,,,,,,,,,,,,,,,,,,,,,,,,,,
,,,,,,,,,67364113bdafe2840fa05b69,Mexican,13 or older,"no, only English or Spanish",no,2026-01-21_21h04.20.708,empathy_intonation_perc_control,2024.2.4,Win32,74.62686567,67364113bdafe2840fa05b69,69712dc693a3960bdb483245,697185799b5efcab7be4e1b7,,,,,,,,,,,,./stim/wavs/mexican_match_declarative-broad-focus_David-leia-el-libro.wav,0,,,207.6598,210.5664,0,1,2.3889,,0,64,64,58,1,59,0,mexican,,,,,,,,,,,,,,,,,,,,,,,,,,,,,,,,,,,,,,,,,,,,,,,,,,,,,,,,
,,,,,,,,,67364113bdafe2840fa05b69,Mexican,13 or older,"no, only English or Spanish",no,2026-01-21_21h04.20.708,empathy_intonation_perc_control,2024.2.4,Win32,74.62686567,67364113bdafe2840fa05b69,69712dc693a3960bdb483245,697185799b5efcab7be4e1b7,,,,,,,,,,,,./stim/wavs/cuban_match_interrogative-total-yn_Daniel-iba-a-Bolivia.wav,1,,,210.5674,213.0212,1,1,1.944,,0,65,65,7,1,8,1,cuban,,,,,,,,,,,,,,,,,,,,,,,,,,,,,,,,,,,,,,,,,,,,,,,,,,,,,,,,
,,,,,,,,,67364113bdafe2840fa05b69,Mexican,13 or older,"no, only English or Spanish",no,2026-01-21_21h04.20.708,empathy_intonation_perc_control,2024.2.4,Win32,74.62686567,67364113bdafe2840fa05b69,69712dc693a3960bdb483245,697185799b5efcab7be4e1b7,,,,,,,,,,,,./stim/wavs/castilian_mismatch_interrogative-total-yn_Mi-tia-odia-la-lluvia.wav,1,,,213.0225,215.728,1,1,2.1895,,0,66,66,28,1,29,0,castilian,,,,,,,,,,,,,,,,,,,,,,,,,,,,,,,,,,,,,,,,,,,,,,,,,,,,,,,,
,,,,,,,,,67364113bdafe2840fa05b69,Mexican,13 or older,"no, only English or Spanish",no,2026-01-21_21h04.20.708,empathy_intonation_perc_control,2024.2.4,Win32,74.62686567,67364113bdafe2840fa05b69,69712dc693a3960bdb483245,697185799b5efcab7be4e1b7,,,,,,,,,,,,./stim/wavs/cuban_match_interrogative-total-yn_Ana-lleva-el-abrigo.wav,1,,,215.7289,218.5022,1,1,2.2591,,0,67,67,6,1,7,1,cuban,,,,,,,,,,,,,,,,,,,,,,,,,,,,,,,,,,,,,,,,,,,,,,,,,,,,,,,,
,,,,,,,,,67364113bdafe2840fa05b69,Mexican,13 or older,"no, only English or Spanish",no,2026-01-21_21h04.20.708,empathy_intonation_perc_control,2024.2.4,Win32,74.62686567,67364113bdafe2840fa05b69,69712dc693a3960bdb483245,697185799b5efcab7be4e1b7,,,,,,,,,,,,./stim/wavs/cuban_mismatch_declarative-broad-focus_El-hombre-mira-la-luna.wav,0,,,218.5029,220.703,0,1,1.6862,,0,68,68,74,1,75,0,cuban,,,,,,,,,,,,,,,,,,,,,,,,,,,,,,,,,,,,,,,,,,,,,,,,,,,,,,,,
,,,,,,,,,67364113bdafe2840fa05b69,Mexican,13 or older,"no, only English or Spanish",no,2026-01-21_21h04.20.708,empathy_intonation_perc_control,2024.2.4,Win32,74.62686567,67364113bdafe2840fa05b69,69712dc693a3960bdb483245,697185799b5efcab7be4e1b7,,,,,,,,,,,,./stim/wavs/castilian_match_interrogative-total-yn_David-leia-el-libro.wav,1,,,220.7041,223.1037,1,1,1.8801,,0,69,69,0,1,1,0,castilian,,,,,,,,,,,,,,,,,,,,,,,,,,,,,,,,,,,,,,,,,,,,,,,,,,,,,,,,
,,,,,,,,,67364113bdafe2840fa05b69,Mexican,13 or older,"no, only English or Spanish",no,2026-01-21_21h04.20.708,empathy_intonation_perc_control,2024.2.4,Win32,74.62686567,67364113bdafe2840fa05b69,69712dc693a3960bdb483245,697185799b5efcab7be4e1b7,,,,,,,,,,,,./stim/wavs/puertorican_mismatch_interrogative-total-yn_El-hombre-mira-la-luna.wav,1,,,223.1045,225.9582,1,1,2.3345,,0,70,70,39,1,40,1,puertorican,,,,,,,,,,,,,,,,,,,,,,,,,,,,,,,,,,,,,,,,,,,,,,,,,,,,,,,,
,,,,,,,,,67364113bdafe2840fa05b69,Mexican,13 or older,"no, only English or Spanish",no,2026-01-21_21h04.20.708,empathy_intonation_perc_control,2024.2.4,Win32,74.62686567,67364113bdafe2840fa05b69,69712dc693a3960bdb483245,697185799b5efcab7be4e1b7,,,,,,,,,,,,./stim/wavs/mexican_match_declarative-broad-focus_Ana-lleva-el-abrigo.wav,0,,,225.9592,228.0252,0,1,1.5476,,0,71,71,56,1,57,0,mexican,,,,,,,,,,,,,,,,,,,,,,,,,,,,,,,,,,,,,,,,,,,,,,,,,,,,,,,,
,,,,,,,,,67364113bdafe2840fa05b69,Mexican,13 or older,"no, only English or Spanish",no,2026-01-21_21h04.20.708,empathy_intonation_perc_control,2024.2.4,Win32,74.62686567,67364113bdafe2840fa05b69,69712dc693a3960bdb483245,697185799b5efcab7be4e1b7,,,,,,,,,,,,./stim/wavs/puertorican_match_interrogative-total-yn_David-leia-el-libro.wav,1,,,228.026,230.6661,1,1,2.1245,,0,72,72,20,1,21,1,puertorican,,,,,,,,,,,,,,,,,,,,,,,,,,,,,,,,,,,,,,,,,,,,,,,,,,,,,,,,
,,,,,,,,,67364113bdafe2840fa05b69,Mexican,13 or older,"no, only English or Spanish",no,2026-01-21_21h04.20.708,empathy_intonation_perc_control,2024.2.4,Win32,74.62686567,67364113bdafe2840fa05b69,69712dc693a3960bdb483245,697185799b5efcab7be4e1b7,,,,,,,,,,,,./stim/wavs/puertorican_match_declarative-broad-focus_Emilio-ama-la-marcha.wav,0,,,230.667,233.3469,1,0,2.1615,,0,73,73,65,1,66,0,puertorican,,,,,,,,,,,,,,,,,,,,,,,,,,,,,,,,,,,,,,,,,,,,,,,,,,,,,,,,
,,,,,,,,,67364113bdafe2840fa05b69,Mexican,13 or older,"no, only English or Spanish",no,2026-01-21_21h04.20.708,empathy_intonation_perc_control,2024.2.4,Win32,74.62686567,67364113bdafe2840fa05b69,69712dc693a3960bdb483245,697185799b5efcab7be4e1b7,,,,,,,,,,,,./stim/wavs/puertorican_mismatch_declarative-broad-focus_El-hombre-mira-la-luna.wav,0,,,233.3476,236.1613,1,0,2.3033,,0,74,74,84,1,85,0,puertorican,,,,,,,,,,,,,,,,,,,,,,,,,,,,,,,,,,,,,,,,,,,,,,,,,,,,,,,,
,,,,,,,,,67364113bdafe2840fa05b69,Mexican,13 or older,"no, only English or Spanish",no,2026-01-21_21h04.20.708,empathy_intonation_perc_control,2024.2.4,Win32,74.62686567,67364113bdafe2840fa05b69,69712dc693a3960bdb483245,697185799b5efcab7be4e1b7,,,,,,,,,,,,./stim/wavs/puertorican_match_declarative-broad-focus_Daniel-iba-a-Bolivia.wav,0,,,236.162,238.8686,1,0,2.1962,,0,75,75,63,1,64,0,puertorican,,,,,,,,,,,,,,,,,,,,,,,,,,,,,,,,,,,,,,,,,,,,,,,,,,,,,,,,
,,,,,,,,,67364113bdafe2840fa05b69,Mexican,13 or older,"no, only English or Spanish",no,2026-01-21_21h04.20.708,empathy_intonation_perc_control,2024.2.4,Win32,74.62686567,67364113bdafe2840fa05b69,69712dc693a3960bdb483245,697185799b5efcab7be4e1b7,,,,,,,,,,,,./stim/wavs/mexican_match_interrogative-total-yn_David-leia-el-libro.wav,1,,,238.869,241.4296,1,1,2.0429,,0,76,76,14,1,15,0,mexican,,,,,,,,,,,,,,,,,,,,,,,,,,,,,,,,,,,,,,,,,,,,,,,,,,,,,,,,
,,,,,,,,,67364113bdafe2840fa05b69,Mexican,13 or older,"no, only English or Spanish",no,2026-01-21_21h04.20.708,empathy_intonation_perc_control,2024.2.4,Win32,74.62686567,67364113bdafe2840fa05b69,69712dc693a3960bdb483245,697185799b5efcab7be4e1b7,,,,,,,,,,,,./stim/wavs/castilian_match_interrogative-total-yn_Maria-bebe-el-vino.wav,1,,,241.4306,243.8573,0,0,1.9168,,0,77,77,3,1,4,0,castilian,,,,,,,,,,,,,,,,,,,,,,,,,,,,,,,,,,,,,,,,,,,,,,,,,,,,,,,,
,,,,,,,,,67364113bdafe2840fa05b69,Mexican,13 or older,"no, only English or Spanish",no,2026-01-21_21h04.20.708,empathy_intonation_perc_control,2024.2.4,Win32,74.62686567,67364113bdafe2840fa05b69,69712dc693a3960bdb483245,697185799b5efcab7be4e1b7,,,,,,,,,,,,./stim/wavs/cuban_mismatch_declarative-broad-focus_Mi-novio-viene-del-lago.wav,0,,,243.8581,246.3647,0,1,1.9892,,0,78,78,76,1,77,0,cuban,,,,,,,,,,,,,,,,,,,,,,,,,,,,,,,,,,,,,,,,,,,,,,,,,,,,,,,,
,,,,,,,,,67364113bdafe2840fa05b69,Mexican,13 or older,"no, only English or Spanish",no,2026-01-21_21h04.20.708,empathy_intonation_perc_control,2024.2.4,Win32,74.62686567,67364113bdafe2840fa05b69,69712dc693a3960bdb483245,697185799b5efcab7be4e1b7,,,,,,,,,,,,./stim/wavs/cuban_match_declarative-broad-focus_Manuela-vende-el-carro.wav,0,,,246.3659,249.8588,0,1,2.9823,,0,79,79,52,1,53,0,cuban,,,,,,,,,,,,,,,,,,,,,,,,,,,,,,,,,,,,,,,,,,,,,,,,,,,,,,,,
,,,,,,,,,67364113bdafe2840fa05b69,Mexican,13 or older,"no, only English or Spanish",no,2026-01-21_21h04.20.708,empathy_intonation_perc_control,2024.2.4,Win32,74.62686567,67364113bdafe2840fa05b69,69712dc693a3960bdb483245,697185799b5efcab7be4e1b7,,,,,,,,,,,,./stim/wavs/cuban_mismatch_interrogative-total-yn_Mi-madre-come-la-fruta.wav,1,,,249.8592,252.6998,0,0,2.3251,,0,80,80,31,1,32,1,cuban,,,,,,,,,,,,,,,,,,,,,,,,,,,,,,,,,,,,,,,,,,,,,,,,,,,,,,,,
,,,,,,,,,67364113bdafe2840fa05b69,Mexican,13 or older,"no, only English or Spanish",no,2026-01-21_21h04.20.708,empathy_intonation_perc_control,2024.2.4,Win32,74.62686567,67364113bdafe2840fa05b69,69712dc693a3960bdb483245,697185799b5efcab7be4e1b7,,,,,,,,,,,,./stim/wavs/mexican_match_declarative-broad-focus_Daniel-iba-a-Bolivia.wav,0,,,252.7005,254.8738,0,1,1.6605,,0,81,81,57,1,58,0,mexican,,,,,,,,,,,,,,,,,,,,,,,,,,,,,,,,,,,,,,,,,,,,,,,,,,,,,,,,
,,,,,,,,,67364113bdafe2840fa05b69,Mexican,13 or older,"no, only English or Spanish",no,2026-01-21_21h04.20.708,empathy_intonation_perc_control,2024.2.4,Win32,74.62686567,67364113bdafe2840fa05b69,69712dc693a3960bdb483245,697185799b5efcab7be4e1b7,,,,,,,,,,,,./stim/wavs/castilian_mismatch_declarative-broad-focus_La-nina-lava-el-plato.wav,0,,,254.8743,258.0751,0,1,2.6843,,0,82,82,70,1,71,0,castilian,,,,,,,,,,,,,,,,,,,,,,,,,,,,,,,,,,,,,,,,,,,,,,,,,,,,,,,,
,,,,,,,,,67364113bdafe2840fa05b69,Mexican,13 or older,"no, only English or Spanish",no,2026-01-21_21h04.20.708,empathy_intonation_perc_control,2024.2.4,Win32,74.62686567,67364113bdafe2840fa05b69,69712dc693a3960bdb483245,697185799b5efcab7be4e1b7,,,,,,,,,,,,./stim/wavs/mexican_mismatch_interrogative-total-yn_La-maestra-vive-en-Paris.wav,1,,,258.0757,260.8495,1,1,2.2583,,0,83,83,36,1,37,0,mexican,,,,,,,,,,,,,,,,,,,,,,,,,,,,,,,,,,,,,,,,,,,,,,,,,,,,,,,,
,,,,,,,,,67364113bdafe2840fa05b69,Mexican,13 or older,"no, only English or Spanish",no,2026-01-21_21h04.20.708,empathy_intonation_perc_control,2024.2.4,Win32,74.62686567,67364113bdafe2840fa05b69,69712dc693a3960bdb483245,697185799b5efcab7be4e1b7,,,,,,,,,,,,./stim/wavs/puertorican_mismatch_declarative-broad-focus_El-bebe-comia-muy-bien.wav,0,,,260.8502,263.41,0,1,2.0493,,0,84,84,83,1,84,0,puertorican,,,,,,,,,,,,,,,,,,,,,,,,,,,,,,,,,,,,,,,,,,,,,,,,,,,,,,,,
,,,,,,,,,67364113bdafe2840fa05b69,Mexican,13 or older,"no, only English or Spanish",no,2026-01-21_21h04.20.708,empathy_intonation_perc_control,2024.2.4,Win32,74.62686567,67364113bdafe2840fa05b69,69712dc693a3960bdb483245,697185799b5efcab7be4e1b7,,,,,,,,,,,,./stim/wavs/castilian_match_declarative-broad-focus_Mariano-habla-del-tiempo.wav,0,,,263.4105,266.0642,0,1,2.1355,,0,85,85,48,1,49,0,castilian,,,,,,,,,,,,,,,,,,,,,,,,,,,,,,,,,,,,,,,,,,,,,,,,,,,,,,,,
,,,,,,,,,67364113bdafe2840fa05b69,Mexican,13 or older,"no, only English or Spanish",no,2026-01-21_21h04.20.708,empathy_intonation_perc_control,2024.2.4,Win32,74.62686567,67364113bdafe2840fa05b69,69712dc693a3960bdb483245,697185799b5efcab7be4e1b7,,,,,,,,,,,,./stim/wavs/cuban_match_interrogative-total-yn_Maria-bebe-el-vino.wav,1,,,266.0649,269.4651,0,0,2.8913,,0,86,86,9,1,10,1,cuban,,,,,,,,,,,,,,,,,,,,,,,,,,,,,,,,,,,,,,,,,,,,,,,,,,,,,,,,
,,,,,,,,,67364113bdafe2840fa05b69,Mexican,13 or older,"no, only English or Spanish",no,2026-01-21_21h04.20.708,empathy_intonation_perc_control,2024.2.4,Win32,74.62686567,67364113bdafe2840fa05b69,69712dc693a3960bdb483245,697185799b5efcab7be4e1b7,,,,,,,,,,,,./stim/wavs/cuban_mismatch_interrogative-total-yn_Mi-novio-viene-del-lago.wav,1,,,269.4656,272.2261,1,1,2.2441,,0,87,87,32,1,33,1,cuban,,,,,,,,,,,,,,,,,,,,,,,,,,,,,,,,,,,,,,,,,,,,,,,,,,,,,,,,
,,,,,,,"Great! Now we will move on. The next task consists of about 60 trials, in each of which you will see a string of letters. 
  
  Your task is to decide whether this is a real Spanish word or not.", (press the spacebar to continue),67364113bdafe2840fa05b69,Mexican,13 or older,"no, only English or Spanish",no,2026-01-21_21h04.20.708,empathy_intonation_perc_control,2024.2.4,Win32,74.62686567,67364113bdafe2840fa05b69,69712dc693a3960bdb483245,697185799b5efcab7be4e1b7,,,,,,,,,,,,,,,,,,,,,,,,,,,,,,272.2353,283.2033,0,0,0,0,1,,,,,,,,,,,,,,,,,,,,,,,,,,,,,,,,,,,,,,,,,,,,,,,,,
,,,,,,,"If you think it is an existing Spanish word, you type '1' (for 'REAL'), and if you think it is not an existing Spanish word, you type '0' (for 'FAKE').", (press the spacebar to continue),67364113bdafe2840fa05b69,Mexican,13 or older,"no, only English or Spanish",no,2026-01-21_21h04.20.708,empathy_intonation_perc_control,2024.2.4,Win32,74.62686567,67364113bdafe2840fa05b69,69712dc693a3960bdb483245,697185799b5efcab7be4e1b7,,,,,,,,,,,,,,,,,,,,,,,,,,,,,,283.2049,286.4844,0,1,1,1,1,,,,,,,,,,,,,,,,,,,,,,,,,,,,,,,,,,,,,,,,,,,,,,,,,
,,,,,,,"If you are sure that the word exists, even though you don’t know its exact meaning, you may still respond '1' (REAL). 
  
  But if you are not sure if it is an existing word, you should respond '0' (FAKE).
  
  Let's do a practice round...", (press the spacebar to continue),67364113bdafe2840fa05b69,Mexican,13 or older,"no, only English or Spanish",no,2026-01-21_21h04.20.708,empathy_intonation_perc_control,2024.2.4,Win32,74.62686567,67364113bdafe2840fa05b69,69712dc693a3960bdb483245,697185799b5efcab7be4e1b7,,,,,,,,,,,,,,,,,,,,,,,,,,,,,,286.4884,294.8354,0,2,2,2,1,,,,,,,,,,,,,,,,,,,,,,,,,,,,,,,,,,,,,,,,,,,,,,,,,
,,,,,,,,,67364113bdafe2840fa05b69,Mexican,13 or older,"no, only English or Spanish",no,2026-01-21_21h04.20.708,empathy_intonation_perc_control,2024.2.4,Win32,74.62686567,67364113bdafe2840fa05b69,69712dc693a3960bdb483245,697185799b5efcab7be4e1b7,,,,,,,,,,,,,0,,,,,,,,,,,,,,,,,,,,,,,,294.8475,298.0881,1,0,2.7208,,298.0885,299.0883,0,0,0,0,1,0,depiste,REAL,FAKE,,,,,,,,,,,,,,,,,,,,,,,,,,,,,,,,
,,,,,,,,,67364113bdafe2840fa05b69,Mexican,13 or older,"no, only English or Spanish",no,2026-01-21_21h04.20.708,empathy_intonation_perc_control,2024.2.4,Win32,74.62686567,67364113bdafe2840fa05b69,69712dc693a3960bdb483245,697185799b5efcab7be4e1b7,,,,,,,,,,,,,1,,,,,,,,,,,,,,,,,,,,,,,,299.0896,300.9689,1,1,1.3552,,300.9702,301.9692,0,1,1,1,1,0,sí,REAL,FAKE,,,,,,,,,,,,,,,,,,,,,,,,,,,,,,,,
,,,,,,,,,67364113bdafe2840fa05b69,Mexican,13 or older,"no, only English or Spanish",no,2026-01-21_21h04.20.708,empathy_intonation_perc_control,2024.2.4,Win32,74.62686567,67364113bdafe2840fa05b69,69712dc693a3960bdb483245,697185799b5efcab7be4e1b7,,,,,,,,,,,,,0,,,,,,,,,,,,,,,,,,,,,,,,301.9707,303.9301,0,1,1.4305,,303.9302,304.9302,0,2,2,2,1,0,coné,REAL,FAKE,,,,,,,,,,,,,,,,,,,,,,,,,,,,,,,,
,,,,,,,,,67364113bdafe2840fa05b69,Mexican,13 or older,"no, only English or Spanish",no,2026-01-21_21h04.20.708,empathy_intonation_perc_control,2024.2.4,Win32,74.62686567,67364113bdafe2840fa05b69,69712dc693a3960bdb483245,697185799b5efcab7be4e1b7,,,,,,,,,,,,,0,,,,,,,,,,,,,,,,,,,,,,,,304.9324,307.0109,0,1,1.5619,,307.011,308.0112,0,3,3,3,1,0,calpar,REAL,FAKE,,,,,,,,,,,,,,,,,,,,,,,,,,,,,,,,
,,,,,,,,,67364113bdafe2840fa05b69,Mexican,13 or older,"no, only English or Spanish",no,2026-01-21_21h04.20.708,empathy_intonation_perc_control,2024.2.4,Win32,74.62686567,67364113bdafe2840fa05b69,69712dc693a3960bdb483245,697185799b5efcab7be4e1b7,,,,,,,,,,,,,0,,,,,,,,,,,,,,,,,,,,,,,,308.0137,310.8521,0,1,2.3157,,310.8522,311.8522,0,4,4,4,1,0,joten,REAL,FAKE,,,,,,,,,,,,,,,,,,,,,,,,,,,,,,,,
,,,,,,,,,67364113bdafe2840fa05b69,Mexican,13 or older,"no, only English or Spanish",no,2026-01-21_21h04.20.708,empathy_intonation_perc_control,2024.2.4,Win32,74.62686567,67364113bdafe2840fa05b69,69712dc693a3960bdb483245,697185799b5efcab7be4e1b7,,,,,,,,,,,,,1,,,,,,,,,,,,,,,,,,,,,,,,311.853,314.6666,1,1,2.2954,,314.6667,315.6671,0,5,5,5,1,0,sacapuntas,REAL,FAKE,,,,,,,,,,,,,,,,,,,,,,,,,,,,,,,,
,,,,,,,,,67364113bdafe2840fa05b69,Mexican,13 or older,"no, only English or Spanish",no,2026-01-21_21h04.20.708,empathy_intonation_perc_control,2024.2.4,Win32,74.62686567,67364113bdafe2840fa05b69,69712dc693a3960bdb483245,697185799b5efcab7be4e1b7,,,,,,,,,,,,,0,,,,,,,,,,,,,,,,,,,,,,,,315.6687,317.2808,1,0,1.0918,,317.2818,318.2814,0,6,6,6,1,0,priba,REAL,FAKE,,,,,,,,,,,,,,,,,,,,,,,,,,,,,,,,
,,,,,,,,,67364113bdafe2840fa05b69,Mexican,13 or older,"no, only English or Spanish",no,2026-01-21_21h04.20.708,empathy_intonation_perc_control,2024.2.4,Win32,74.62686567,67364113bdafe2840fa05b69,69712dc693a3960bdb483245,697185799b5efcab7be4e1b7,,,,,,,,,,,,,0,,,,,,,,,,,,,,,,,,,,,,,,318.2831,320.0817,1,0,1.2757,,320.0819,321.0817,0,7,7,7,1,0,pelasula,REAL,FAKE,,,,,,,,,,,,,,,,,,,,,,,,,,,,,,,,
,,,,,,,,,67364113bdafe2840fa05b69,Mexican,13 or older,"no, only English or Spanish",no,2026-01-21_21h04.20.708,empathy_intonation_perc_control,2024.2.4,Win32,74.62686567,67364113bdafe2840fa05b69,69712dc693a3960bdb483245,697185799b5efcab7be4e1b7,,,,,,,,,,,,,1,,,,,,,,,,,,,,,,,,,,,,,,321.0825,322.6697,1,1,1.0606,,322.6709,323.67,0,8,8,8,1,0,bien,REAL,FAKE,,,,,,,,,,,,,,,,,,,,,,,,,,,,,,,,
,,,,,,,,,67364113bdafe2840fa05b69,Mexican,13 or older,"no, only English or Spanish",no,2026-01-21_21h04.20.708,empathy_intonation_perc_control,2024.2.4,Win32,74.62686567,67364113bdafe2840fa05b69,69712dc693a3960bdb483245,697185799b5efcab7be4e1b7,,,,,,,,,,,,,1,,,,,,,,,,,,,,,,,,,,,,,,323.6727,325.3904,1,1,1.1926,,325.3904,326.3909,0,9,9,9,1,0,casa,REAL,FAKE,,,,,,,,,,,,,,,,,,,,,,,,,,,,,,,,
,,,,,,,,,67364113bdafe2840fa05b69,Mexican,13 or older,"no, only English or Spanish",no,2026-01-21_21h04.20.708,empathy_intonation_perc_control,2024.2.4,Win32,74.62686567,67364113bdafe2840fa05b69,69712dc693a3960bdb483245,697185799b5efcab7be4e1b7,,,,,,,,,,,,,0,,,,,,,,,,,,,,,,,,,,,,,,326.3917,329.8582,1,0,2.9369,,329.8588,330.8584,0,10,10,10,1,0,lejo,REAL,FAKE,,,,,,,,,,,,,,,,,,,,,,,,,,,,,,,,
,,,,,,,,,67364113bdafe2840fa05b69,Mexican,13 or older,"no, only English or Spanish",no,2026-01-21_21h04.20.708,empathy_intonation_perc_control,2024.2.4,Win32,74.62686567,67364113bdafe2840fa05b69,69712dc693a3960bdb483245,697185799b5efcab7be4e1b7,,,,,,,,,,,,,0,,,,,,,,,,,,,,,,,,,,,,,,330.8597,333.4329,0,1,2.05,,333.4339,334.4331,0,11,11,11,1,0,pretantas,REAL,FAKE,,,,,,,,,,,,,,,,,,,,,,,,,,,,,,,,
,,,,,,,,,67364113bdafe2840fa05b69,Mexican,13 or older,"no, only English or Spanish",no,2026-01-21_21h04.20.708,empathy_intonation_perc_control,2024.2.4,Win32,74.62686567,67364113bdafe2840fa05b69,69712dc693a3960bdb483245,697185799b5efcab7be4e1b7,,,,,,,,,,,,,,,,,,,,,,,,,,,,,,,,,,,,,,,,,,,,,,,,,,,,,,334.4337,338.008,,,,,,,,,,,,,,,,,,,,,,,,,,,,,,
,,,,,,,,,67364113bdafe2840fa05b69,Mexican,13 or older,"no, only English or Spanish",no,2026-01-21_21h04.20.708,empathy_intonation_perc_control,2024.2.4,Win32,74.62686567,67364113bdafe2840fa05b69,69712dc693a3960bdb483245,697185799b5efcab7be4e1b7,,,,,,,,,,,,,1,,,,,,,,,,,,,,,,,,,,,,,,,,,,,,,,,,,,,52,camisa,,,,,338.0309,341.1321,1,1,2.5751,,0,0,0,51,1,REAL,FAKE,,,,,,,,,,,,,,,,,
,,,,,,,,,67364113bdafe2840fa05b69,Mexican,13 or older,"no, only English or Spanish",no,2026-01-21_21h04.20.708,empathy_intonation_perc_control,2024.2.4,Win32,74.62686567,67364113bdafe2840fa05b69,69712dc693a3960bdb483245,697185799b5efcab7be4e1b7,,,,,,,,,,,,,1,,,,,,,,,,,,,,,,,,,,,,,,,,,,,,,,,,,,,41,rebuscar,,,,,341.1332,343.0378,0,0,1.3841,,0,1,1,40,1,REAL,FAKE,,,,,,,,,,,,,,,,,
,,,,,,,,,67364113bdafe2840fa05b69,Mexican,13 or older,"no, only English or Spanish",no,2026-01-21_21h04.20.708,empathy_intonation_perc_control,2024.2.4,Win32,74.62686567,67364113bdafe2840fa05b69,69712dc693a3960bdb483245,697185799b5efcab7be4e1b7,,,,,,,,,,,,,1,,,,,,,,,,,,,,,,,,,,,,,,,,,,,,,,,,,,,62,flaco,,,,,343.0391,346.2635,1,1,2.6984,,0,2,2,61,1,REAL,FAKE,,,,,,,,,,,,,,,,,
,,,,,,,,,67364113bdafe2840fa05b69,Mexican,13 or older,"no, only English or Spanish",no,2026-01-21_21h04.20.708,empathy_intonation_perc_control,2024.2.4,Win32,74.62686567,67364113bdafe2840fa05b69,69712dc693a3960bdb483245,697185799b5efcab7be4e1b7,,,,,,,,,,,,,1,,,,,,,,,,,,,,,,,,,,,,,,,,,,,,,,,,,,,60,matar,,,,,346.2654,349.0778,0,0,2.2875,,0,3,3,59,1,REAL,FAKE,,,,,,,,,,,,,,,,,
,,,,,,,,,67364113bdafe2840fa05b69,Mexican,13 or older,"no, only English or Spanish",no,2026-01-21_21h04.20.708,empathy_intonation_perc_control,2024.2.4,Win32,74.62686567,67364113bdafe2840fa05b69,69712dc693a3960bdb483245,697185799b5efcab7be4e1b7,,,,,,,,,,,,,1,,,,,,,,,,,,,,,,,,,,,,,,,,,,,,,,,,,,,49,ganar,,,,,349.0805,351.2384,0,0,1.6281,,0,4,4,48,1,REAL,FAKE,,,,,,,,,,,,,,,,,
,,,,,,,,,67364113bdafe2840fa05b69,Mexican,13 or older,"no, only English or Spanish",no,2026-01-21_21h04.20.708,empathy_intonation_perc_control,2024.2.4,Win32,74.62686567,67364113bdafe2840fa05b69,69712dc693a3960bdb483245,697185799b5efcab7be4e1b7,,,,,,,,,,,,,0,,,,,,,,,,,,,,,,,,,,,,,,,,,,,,,,,,,,,66,hacido,,,,,351.2397,353.813,1,0,2.05,,0,5,5,65,1,REAL,FAKE,,,,,,,,,,,,,,,,,
,,,,,,,,,67364113bdafe2840fa05b69,Mexican,13 or older,"no, only English or Spanish",no,2026-01-21_21h04.20.708,empathy_intonation_perc_control,2024.2.4,Win32,74.62686567,67364113bdafe2840fa05b69,69712dc693a3960bdb483245,697185799b5efcab7be4e1b7,,,,,,,,,,,,,0,,,,,,,,,,,,,,,,,,,,,,,,,,,,,,,,,,,,,92,click the 0 key.,,,,,353.8168,356.3071,0,1,1.9501,,0,6,6,91,1,REAL,FAKE,,,,,,,,,,,,,,,,,
,,,,,,,,,67364113bdafe2840fa05b69,Mexican,13 or older,"no, only English or Spanish",no,2026-01-21_21h04.20.708,empathy_intonation_perc_control,2024.2.4,Win32,74.62686567,67364113bdafe2840fa05b69,69712dc693a3960bdb483245,697185799b5efcab7be4e1b7,,,,,,,,,,,,,1,,,,,,,,,,,,,,,,,,,,,,,,,,,,,,,,,,,,,44,cuchara,,,,,356.3084,359.8678,0,0,3.0376,,0,7,7,43,1,REAL,FAKE,,,,,,,,,,,,,,,,,
,,,,,,,,,67364113bdafe2840fa05b69,Mexican,13 or older,"no, only English or Spanish",no,2026-01-21_21h04.20.708,empathy_intonation_perc_control,2024.2.4,Win32,74.62686567,67364113bdafe2840fa05b69,69712dc693a3960bdb483245,697185799b5efcab7be4e1b7,,,,,,,,,,,,,1,,,,,,,,,,,,,,,,,,,,,,,,,,,,,,,,,,,,,78,frondoso,,,,,359.8685,362.6954,1,1,2.3073,,0,8,8,77,1,REAL,FAKE,,,,,,,,,,,,,,,,,
,,,,,,,,,67364113bdafe2840fa05b69,Mexican,13 or older,"no, only English or Spanish",no,2026-01-21_21h04.20.708,empathy_intonation_perc_control,2024.2.4,Win32,74.62686567,67364113bdafe2840fa05b69,69712dc693a3960bdb483245,697185799b5efcab7be4e1b7,,,,,,,,,,,,,1,,,,,,,,,,,,,,,,,,,,,,,,,,,,,,,,,,,,,31,pandilla,,,,,362.6968,364.8028,1,1,1.5735,,0,9,9,30,1,REAL,FAKE,,,,,,,,,,,,,,,,,
,,,,,,,,,67364113bdafe2840fa05b69,Mexican,13 or older,"no, only English or Spanish",no,2026-01-21_21h04.20.708,empathy_intonation_perc_control,2024.2.4,Win32,74.62686567,67364113bdafe2840fa05b69,69712dc693a3960bdb483245,697185799b5efcab7be4e1b7,,,,,,,,,,,,,1,,,,,,,,,,,,,,,,,,,,,,,,,,,,,,,,,,,,,13,helar,,,,,364.8037,366.6033,0,0,1.2862,,0,10,10,12,1,REAL,FAKE,,,,,,,,,,,,,,,,,
,,,,,,,,,67364113bdafe2840fa05b69,Mexican,13 or older,"no, only English or Spanish",no,2026-01-21_21h04.20.708,empathy_intonation_perc_control,2024.2.4,Win32,74.62686567,67364113bdafe2840fa05b69,69712dc693a3960bdb483245,697185799b5efcab7be4e1b7,,,,,,,,,,,,,1,,,,,,,,,,,,,,,,,,,,,,,,,,,,,,,,,,,,,65,bizcocho,,,,,366.6049,370.4983,0,0,3.3765,,0,11,11,64,1,REAL,FAKE,,,,,,,,,,,,,,,,,
,,,,,,,,,67364113bdafe2840fa05b69,Mexican,13 or older,"no, only English or Spanish",no,2026-01-21_21h04.20.708,empathy_intonation_perc_control,2024.2.4,Win32,74.62686567,67364113bdafe2840fa05b69,69712dc693a3960bdb483245,697185799b5efcab7be4e1b7,,,,,,,,,,,,,1,,,,,,,,,,,,,,,,,,,,,,,,,,,,,,,,,,,,,34,aviso,,,,,370.4994,372.7652,1,1,1.752,,0,12,12,33,1,REAL,FAKE,,,,,,,,,,,,,,,,,
,,,,,,,,,67364113bdafe2840fa05b69,Mexican,13 or older,"no, only English or Spanish",no,2026-01-21_21h04.20.708,empathy_intonation_perc_control,2024.2.4,Win32,74.62686567,67364113bdafe2840fa05b69,69712dc693a3960bdb483245,697185799b5efcab7be4e1b7,,,,,,,,,,,,,0,,,,,,,,,,,,,,,,,,,,,,,,,,,,,,,,,,,,,47,cartinar,,,,,372.7658,375.2861,1,0,1.9983,,0,13,13,46,1,REAL,FAKE,,,,,,,,,,,,,,,,,
,,,,,,,,,67364113bdafe2840fa05b69,Mexican,13 or older,"no, only English or Spanish",no,2026-01-21_21h04.20.708,empathy_intonation_perc_control,2024.2.4,Win32,74.62686567,67364113bdafe2840fa05b69,69712dc693a3960bdb483245,697185799b5efcab7be4e1b7,,,,,,,,,,,,,0,,,,,,,,,,,,,,,,,,,,,,,,,,,,,,,,,,,,,72,pemición,,,,,375.2873,377.5681,0,1,1.7669,,0,14,14,71,1,REAL,FAKE,,,,,,,,,,,,,,,,,
,,,,,,,,,67364113bdafe2840fa05b69,Mexican,13 or older,"no, only English or Spanish",no,2026-01-21_21h04.20.708,empathy_intonation_perc_control,2024.2.4,Win32,74.62686567,67364113bdafe2840fa05b69,69712dc693a3960bdb483245,697185799b5efcab7be4e1b7,,,,,,,,,,,,,1,,,,,,,,,,,,,,,,,,,,,,,,,,,,,,,,,,,,,57,tacaño,,,,,377.571,379.9277,1,1,1.8434,,0,15,15,56,1,REAL,FAKE,,,,,,,,,,,,,,,,,
,,,,,,,,,67364113bdafe2840fa05b69,Mexican,13 or older,"no, only English or Spanish",no,2026-01-21_21h04.20.708,empathy_intonation_perc_control,2024.2.4,Win32,74.62686567,67364113bdafe2840fa05b69,69712dc693a3960bdb483245,697185799b5efcab7be4e1b7,,,,,,,,,,,,,0,,,,,,,,,,,,,,,,,,,,,,,,,,,,,,,,,,,,,29,decar,,,,,379.9291,382.3018,0,1,1.8559,,0,16,16,28,1,REAL,FAKE,,,,,,,,,,,,,,,,,
,,,,,,,,,67364113bdafe2840fa05b69,Mexican,13 or older,"no, only English or Spanish",no,2026-01-21_21h04.20.708,empathy_intonation_perc_control,2024.2.4,Win32,74.62686567,67364113bdafe2840fa05b69,69712dc693a3960bdb483245,697185799b5efcab7be4e1b7,,,,,,,,,,,,,0,,,,,,,,,,,,,,,,,,,,,,,,,,,,,,,,,,,,,32,fatacidad,,,,,382.3034,385.396,0,1,2.5671,,0,17,17,31,1,REAL,FAKE,,,,,,,,,,,,,,,,,
,,,,,,,,,67364113bdafe2840fa05b69,Mexican,13 or older,"no, only English or Spanish",no,2026-01-21_21h04.20.708,empathy_intonation_perc_control,2024.2.4,Win32,74.62686567,67364113bdafe2840fa05b69,69712dc693a3960bdb483245,697185799b5efcab7be4e1b7,,,,,,,,,,,,,1,,,,,,,,,,,,,,,,,,,,,,,,,,,,,,,,,,,,,59,besar,,,,,385.3975,388.5704,0,0,2.6495,,0,18,18,58,1,REAL,FAKE,,,,,,,,,,,,,,,,,
,,,,,,,,,67364113bdafe2840fa05b69,Mexican,13 or older,"no, only English or Spanish",no,2026-01-21_21h04.20.708,empathy_intonation_perc_control,2024.2.4,Win32,74.62686567,67364113bdafe2840fa05b69,69712dc693a3960bdb483245,697185799b5efcab7be4e1b7,,,,,,,,,,,,,1,,,,,,,,,,,,,,,,,,,,,,,,,,,,,,,,,,,,,68,alegre,,,,,388.5716,390.5978,1,1,1.4978,,0,19,19,67,1,REAL,FAKE,,,,,,,,,,,,,,,,,
,,,,,,,,,67364113bdafe2840fa05b69,Mexican,13 or older,"no, only English or Spanish",no,2026-01-21_21h04.20.708,empathy_intonation_perc_control,2024.2.4,Win32,74.62686567,67364113bdafe2840fa05b69,69712dc693a3960bdb483245,697185799b5efcab7be4e1b7,,,,,,,,,,,,,1,,,,,,,,,,,,,,,,,,,,,,,,,,,,,,,,,,,,,90,clavel,,,,,390.599,392.2382,0,0,1.1223,,0,20,20,89,1,REAL,FAKE,,,,,,,,,,,,,,,,,
,,,,,,,,,67364113bdafe2840fa05b69,Mexican,13 or older,"no, only English or Spanish",no,2026-01-21_21h04.20.708,empathy_intonation_perc_control,2024.2.4,Win32,74.62686567,67364113bdafe2840fa05b69,69712dc693a3960bdb483245,697185799b5efcab7be4e1b7,,,,,,,,,,,,,0,,,,,,,,,,,,,,,,,,,,,,,,,,,,,,,,,,,,,1,terzo,,,,,392.2389,394.6525,0,1,1.8963,,0,21,21,0,1,REAL,FAKE,,,,,,,,,,,,,,,,,
,,,,,,,,,67364113bdafe2840fa05b69,Mexican,13 or older,"no, only English or Spanish",no,2026-01-21_21h04.20.708,empathy_intonation_perc_control,2024.2.4,Win32,74.62686567,67364113bdafe2840fa05b69,69712dc693a3960bdb483245,697185799b5efcab7be4e1b7,,,,,,,,,,,,,1,,,,,,,,,,,,,,,,,,,,,,,,,,,,,,,,,,,,,36,loro,,,,,394.6541,396.3732,1,1,1.2066,,0,22,22,35,1,REAL,FAKE,,,,,,,,,,,,,,,,,
,,,,,,,,,67364113bdafe2840fa05b69,Mexican,13 or older,"no, only English or Spanish",no,2026-01-21_21h04.20.708,empathy_intonation_perc_control,2024.2.4,Win32,74.62686567,67364113bdafe2840fa05b69,69712dc693a3960bdb483245,697185799b5efcab7be4e1b7,,,,,,,,,,,,,1,,,,,,,,,,,,,,,,,,,,,,,,,,,,,,,,,,,,,43,canela,,,,,396.375,398.0803,1,1,1.1915,,0,23,23,42,1,REAL,FAKE,,,,,,,,,,,,,,,,,
,,,,,,,,,67364113bdafe2840fa05b69,Mexican,13 or older,"no, only English or Spanish",no,2026-01-21_21h04.20.708,empathy_intonation_perc_control,2024.2.4,Win32,74.62686567,67364113bdafe2840fa05b69,69712dc693a3960bdb483245,697185799b5efcab7be4e1b7,,,,,,,,,,,,,1,,,,,,,,,,,,,,,,,,,,,,,,,,,,,,,,,,,,,69,engatusar,,,,,398.082,399.6942,0,0,1.0834,,0,24,24,68,1,REAL,FAKE,,,,,,,,,,,,,,,,,
,,,,,,,,,67364113bdafe2840fa05b69,Mexican,13 or older,"no, only English or Spanish",no,2026-01-21_21h04.20.708,empathy_intonation_perc_control,2024.2.4,Win32,74.62686567,67364113bdafe2840fa05b69,69712dc693a3960bdb483245,697185799b5efcab7be4e1b7,,,,,,,,,,,,,1,,,,,,,,,,,,,,,,,,,,,,,,,,,,,,,,,,,,,14,yunque,,,,,399.6959,401.4411,0,0,1.2252,,0,25,25,13,1,REAL,FAKE,,,,,,,,,,,,,,,,,
,,,,,,,,,67364113bdafe2840fa05b69,Mexican,13 or older,"no, only English or Spanish",no,2026-01-21_21h04.20.708,empathy_intonation_perc_control,2024.2.4,Win32,74.62686567,67364113bdafe2840fa05b69,69712dc693a3960bdb483245,697185799b5efcab7be4e1b7,,,,,,,,,,,,,1,,,,,,,,,,,,,,,,,,,,,,,,,,,,,,,,,,,,,76,atar,,,,,401.4422,406.2434,1,1,4.2872,,0,26,26,75,1,REAL,FAKE,,,,,,,,,,,,,,,,,
,,,,,,,,,67364113bdafe2840fa05b69,Mexican,13 or older,"no, only English or Spanish",no,2026-01-21_21h04.20.708,empathy_intonation_perc_control,2024.2.4,Win32,74.62686567,67364113bdafe2840fa05b69,69712dc693a3960bdb483245,697185799b5efcab7be4e1b7,,,,,,,,,,,,,0,,,,,,,,,,,,,,,,,,,,,,,,,,,,,,,,,,,,,58,plaudir,,,,,406.2451,408.497,0,1,1.7249,,0,27,27,57,1,REAL,FAKE,,,,,,,,,,,,,,,,,
,,,,,,,,,67364113bdafe2840fa05b69,Mexican,13 or older,"no, only English or Spanish",no,2026-01-21_21h04.20.708,empathy_intonation_perc_control,2024.2.4,Win32,74.62686567,67364113bdafe2840fa05b69,69712dc693a3960bdb483245,697185799b5efcab7be4e1b7,,,,,,,,,,,,,1,,,,,,,,,,,,,,,,,,,,,,,,,,,,,,,,,,,,,81,pozo,,,,,408.4986,412.5516,0,0,3.5346,,0,28,28,80,1,REAL,FAKE,,,,,,,,,,,,,,,,,
,,,,,,,,,67364113bdafe2840fa05b69,Mexican,13 or older,"no, only English or Spanish",no,2026-01-21_21h04.20.708,empathy_intonation_perc_control,2024.2.4,Win32,74.62686567,67364113bdafe2840fa05b69,69712dc693a3960bdb483245,697185799b5efcab7be4e1b7,,,,,,,,,,,,,1,,,,,,,,,,,,,,,,,,,,,,,,,,,,,,,,,,,,,83,guante,,,,,412.5533,417.5667,1,1,4.4924,,0,29,29,82,1,REAL,FAKE,,,,,,,,,,,,,,,,,
,,,,,,,,,67364113bdafe2840fa05b69,Mexican,13 or older,"no, only English or Spanish",no,2026-01-21_21h04.20.708,empathy_intonation_perc_control,2024.2.4,Win32,74.62686567,67364113bdafe2840fa05b69,69712dc693a3960bdb483245,697185799b5efcab7be4e1b7,,,,,,,,,,,,,1,,,,,,,,,,,,,,,,,,,,,,,,,,,,,,,,,,,,,20,ávido,,,,,417.57,419.2873,1,1,1.1889,,0,30,30,19,1,REAL,FAKE,,,,,,,,,,,,,,,,,
,,,,,,,,,67364113bdafe2840fa05b69,Mexican,13 or older,"no, only English or Spanish",no,2026-01-21_21h04.20.708,empathy_intonation_perc_control,2024.2.4,Win32,74.62686567,67364113bdafe2840fa05b69,69712dc693a3960bdb483245,697185799b5efcab7be4e1b7,,,,,,,,,,,,,0,,,,,,,,,,,,,,,,,,,,,,,,,,,,,,,,,,,,,82,empirador,,,,,419.2888,421.6477,0,1,1.8288,,0,31,31,81,1,REAL,FAKE,,,,,,,,,,,,,,,,,
,,,,,,,,,67364113bdafe2840fa05b69,Mexican,13 or older,"no, only English or Spanish",no,2026-01-21_21h04.20.708,empathy_intonation_perc_control,2024.2.4,Win32,74.62686567,67364113bdafe2840fa05b69,69712dc693a3960bdb483245,697185799b5efcab7be4e1b7,,,,,,,,,,,,,1,,,,,,,,,,,,,,,,,,,,,,,,,,,,,,,,,,,,,80,hormiga,,,,,421.6489,424.7819,0,0,2.6101,,0,32,32,79,1,REAL,FAKE,,,,,,,,,,,,,,,,,
,,,,,,,,,67364113bdafe2840fa05b69,Mexican,13 or older,"no, only English or Spanish",no,2026-01-21_21h04.20.708,empathy_intonation_perc_control,2024.2.4,Win32,74.62686567,67364113bdafe2840fa05b69,69712dc693a3960bdb483245,697185799b5efcab7be4e1b7,,,,,,,,,,,,,0,,,,,,,,,,,,,,,,,,,,,,,,,,,,,,,,,,,,,42,cadallo,,,,,424.7826,427.183,1,0,1.8772,,0,33,33,41,1,REAL,FAKE,,,,,,,,,,,,,,,,,
,,,,,,,,,67364113bdafe2840fa05b69,Mexican,13 or older,"no, only English or Spanish",no,2026-01-21_21h04.20.708,empathy_intonation_perc_control,2024.2.4,Win32,74.62686567,67364113bdafe2840fa05b69,69712dc693a3960bdb483245,697185799b5efcab7be4e1b7,,,,,,,,,,,,,1,,,,,,,,,,,,,,,,,,,,,,,,,,,,,,,,,,,,,88,acantilado,,,,,427.1836,433.1583,1,1,5.4591,,0,34,34,87,1,REAL,FAKE,,,,,,,,,,,,,,,,,
,,,,,,,,,67364113bdafe2840fa05b69,Mexican,13 or older,"no, only English or Spanish",no,2026-01-21_21h04.20.708,empathy_intonation_perc_control,2024.2.4,Win32,74.62686567,67364113bdafe2840fa05b69,69712dc693a3960bdb483245,697185799b5efcab7be4e1b7,,,,,,,,,,,,,1,,,,,,,,,,,,,,,,,,,,,,,,,,,,,,,,,,,,,9,hacha,,,,,433.1594,434.972,1,1,1.2912,,0,35,35,8,1,REAL,FAKE,,,,,,,,,,,,,,,,,
,,,,,,,,,67364113bdafe2840fa05b69,Mexican,13 or older,"no, only English or Spanish",no,2026-01-21_21h04.20.708,empathy_intonation_perc_control,2024.2.4,Win32,74.62686567,67364113bdafe2840fa05b69,69712dc693a3960bdb483245,697185799b5efcab7be4e1b7,,,,,,,,,,,,,0,,,,,,,,,,,,,,,,,,,,,,,,,,,,,,,,,,,,,35,rompido,,,,,434.9734,436.586,0,1,1.082,,0,36,36,34,1,REAL,FAKE,,,,,,,,,,,,,,,,,
,,,,,,,,,67364113bdafe2840fa05b69,Mexican,13 or older,"no, only English or Spanish",no,2026-01-21_21h04.20.708,empathy_intonation_perc_control,2024.2.4,Win32,74.62686567,67364113bdafe2840fa05b69,69712dc693a3960bdb483245,697185799b5efcab7be4e1b7,,,,,,,,,,,,,0,,,,,,,,,,,,,,,,,,,,,,,,,,,,,,,,,,,,,19,brecedad,,,,,436.5878,438.5869,0,1,1.4694,,0,37,37,18,1,REAL,FAKE,,,,,,,,,,,,,,,,,
,,,,,,,,,67364113bdafe2840fa05b69,Mexican,13 or older,"no, only English or Spanish",no,2026-01-21_21h04.20.708,empathy_intonation_perc_control,2024.2.4,Win32,74.62686567,67364113bdafe2840fa05b69,69712dc693a3960bdb483245,697185799b5efcab7be4e1b7,,,,,,,,,,,,,0,,,,,,,,,,,,,,,,,,,,,,,,,,,,,,,,,,,,,84,escuto,,,,,438.5886,440.7872,0,1,1.6684,,0,38,38,83,1,REAL,FAKE,,,,,,,,,,,,,,,,,
,,,,,,,,,67364113bdafe2840fa05b69,Mexican,13 or older,"no, only English or Spanish",no,2026-01-21_21h04.20.708,empathy_intonation_perc_control,2024.2.4,Win32,74.62686567,67364113bdafe2840fa05b69,69712dc693a3960bdb483245,697185799b5efcab7be4e1b7,,,,,,,,,,,,,0,,,,,,,,,,,,,,,,,,,,,,,,,,,,,,,,,,,,,4,batillón,,,,,440.7879,442.5347,1,0,1.2285,,0,39,39,3,1,REAL,FAKE,,,,,,,,,,,,,,,,,
,,,,,,,,,67364113bdafe2840fa05b69,Mexican,13 or older,"no, only English or Spanish",no,2026-01-21_21h04.20.708,empathy_intonation_perc_control,2024.2.4,Win32,74.62686567,67364113bdafe2840fa05b69,69712dc693a3960bdb483245,697185799b5efcab7be4e1b7,,,,,,,,,,,,,1,,,,,,,,,,,,,,,,,,,,,,,,,,,,,,,,,,,,,38,estornudar,,,,,442.5363,444.8567,0,0,1.7966,,0,40,40,37,1,REAL,FAKE,,,,,,,,,,,,,,,,,
,,,,,,,,,67364113bdafe2840fa05b69,Mexican,13 or older,"no, only English or Spanish",no,2026-01-21_21h04.20.708,empathy_intonation_perc_control,2024.2.4,Win32,74.62686567,67364113bdafe2840fa05b69,69712dc693a3960bdb483245,697185799b5efcab7be4e1b7,,,,,,,,,,,,,0,,,,,,,,,,,,,,,,,,,,,,,,,,,,,,,,,,,,,50,flamida,,,,,444.8584,446.3635,1,0,0.9922,,0,41,41,49,1,REAL,FAKE,,,,,,,,,,,,,,,,,
,,,,,,,,,67364113bdafe2840fa05b69,Mexican,13 or older,"no, only English or Spanish",no,2026-01-21_21h04.20.708,empathy_intonation_perc_control,2024.2.4,Win32,74.62686567,67364113bdafe2840fa05b69,69712dc693a3960bdb483245,697185799b5efcab7be4e1b7,,,,,,,,,,,,,1,,,,,,,,,,,,,,,,,,,,,,,,,,,,,,,,,,,,,91,click the 1 key.,,,,,446.3657,448.0164,1,1,1.1286,,0,42,42,90,1,REAL,FAKE,,,,,,,,,,,,,,,,,
,,,,,,,,,67364113bdafe2840fa05b69,Mexican,13 or older,"no, only English or Spanish",no,2026-01-21_21h04.20.708,empathy_intonation_perc_control,2024.2.4,Win32,74.62686567,67364113bdafe2840fa05b69,69712dc693a3960bdb483245,697185799b5efcab7be4e1b7,,,,,,,,,,,,,0,,,,,,,,,,,,,,,,,,,,,,,,,,,,,,,,,,,,,33,pauca,,,,,448.0185,451.1387,1,0,2.6055,,0,43,43,32,1,REAL,FAKE,,,,,,,,,,,,,,,,,
,,,,,,,,,67364113bdafe2840fa05b69,Mexican,13 or older,"no, only English or Spanish",no,2026-01-21_21h04.20.708,empathy_intonation_perc_control,2024.2.4,Win32,74.62686567,67364113bdafe2840fa05b69,69712dc693a3960bdb483245,697185799b5efcab7be4e1b7,,,,,,,,,,,,,1,,,,,,,,,,,,,,,,,,,,,,,,,,,,,,,,,,,,,26,secuestro,,,,,451.1404,454.6589,1,1,2.9898,,0,44,44,25,1,REAL,FAKE,,,,,,,,,,,,,,,,,
,,,,,,,,,67364113bdafe2840fa05b69,Mexican,13 or older,"no, only English or Spanish",no,2026-01-21_21h04.20.708,empathy_intonation_perc_control,2024.2.4,Win32,74.62686567,67364113bdafe2840fa05b69,69712dc693a3960bdb483245,697185799b5efcab7be4e1b7,,,,,,,,,,,,,1,,,,,,,,,,,,,,,,,,,,,,,,,,,,,,,,,,,,,22,lacayo,,,,,454.6609,456.299,0,0,1.1111,,0,45,45,21,1,REAL,FAKE,,,,,,,,,,,,,,,,,
,,,,,,,,,67364113bdafe2840fa05b69,Mexican,13 or older,"no, only English or Spanish",no,2026-01-21_21h04.20.708,empathy_intonation_perc_control,2024.2.4,Win32,74.62686567,67364113bdafe2840fa05b69,69712dc693a3960bdb483245,697185799b5efcab7be4e1b7,,,,,,,,,,,,,1,,,,,,,,,,,,,,,,,,,,,,,,,,,,,,,,,,,,,85,laúd,,,,,456.3009,457.8996,0,0,1.0785,,0,46,46,84,1,REAL,FAKE,,,,,,,,,,,,,,,,,
,,,,,,,,,67364113bdafe2840fa05b69,Mexican,13 or older,"no, only English or Spanish",no,2026-01-21_21h04.20.708,empathy_intonation_perc_control,2024.2.4,Win32,74.62686567,67364113bdafe2840fa05b69,69712dc693a3960bdb483245,697185799b5efcab7be4e1b7,,,,,,,,,,,,,1,,,,,,,,,,,,,,,,,,,,,,,,,,,,,,,,,,,,,75,yacer,,,,,457.9012,459.6202,0,0,1.1941,,0,47,47,74,1,REAL,FAKE,,,,,,,,,,,,,,,,,
,,,,,,,,,67364113bdafe2840fa05b69,Mexican,13 or older,"no, only English or Spanish",no,2026-01-21_21h04.20.708,empathy_intonation_perc_control,2024.2.4,Win32,74.62686567,67364113bdafe2840fa05b69,69712dc693a3960bdb483245,697185799b5efcab7be4e1b7,,,,,,,,,,,,,1,,,,,,,,,,,,,,,,,,,,,,,,,,,,,,,,,,,,,5,zapato,,,,,459.6216,461.3941,1,1,1.2536,,0,48,48,4,1,REAL,FAKE,,,,,,,,,,,,,,,,,
,,,,,,,,,67364113bdafe2840fa05b69,Mexican,13 or older,"no, only English or Spanish",no,2026-01-21_21h04.20.708,empathy_intonation_perc_control,2024.2.4,Win32,74.62686567,67364113bdafe2840fa05b69,69712dc693a3960bdb483245,697185799b5efcab7be4e1b7,,,,,,,,,,,,,1,,,,,,,,,,,,,,,,,,,,,,,,,,,,,,,,,,,,,56,musgo,,,,,461.3968,463.3018,1,1,1.3805,,0,49,49,55,1,REAL,FAKE,,,,,,,,,,,,,,,,,
,,,,,,,,,67364113bdafe2840fa05b69,Mexican,13 or older,"no, only English or Spanish",no,2026-01-21_21h04.20.708,empathy_intonation_perc_control,2024.2.4,Win32,74.62686567,67364113bdafe2840fa05b69,69712dc693a3960bdb483245,697185799b5efcab7be4e1b7,,,,,,,,,,,,,1,,,,,,,,,,,,,,,,,,,,,,,,,,,,,,,,,,,,,86,barato,,,,,463.3038,464.8885,1,1,1.0506,,0,50,50,85,1,REAL,FAKE,,,,,,,,,,,,,,,,,
,,,,,,,,,67364113bdafe2840fa05b69,Mexican,13 or older,"no, only English or Spanish",no,2026-01-21_21h04.20.708,empathy_intonation_perc_control,2024.2.4,Win32,74.62686567,67364113bdafe2840fa05b69,69712dc693a3960bdb483245,697185799b5efcab7be4e1b7,,,,,,,,,,,,,0,,,,,,,,,,,,,,,,,,,,,,,,,,,,,,,,,,,,,63,esposante,,,,,464.8893,468.6499,1,0,3.2362,,0,51,51,62,1,REAL,FAKE,,,,,,,,,,,,,,,,,
,,,,,,,,,67364113bdafe2840fa05b69,Mexican,13 or older,"no, only English or Spanish",no,2026-01-21_21h04.20.708,empathy_intonation_perc_control,2024.2.4,Win32,74.62686567,67364113bdafe2840fa05b69,69712dc693a3960bdb483245,697185799b5efcab7be4e1b7,,,,,,,,,,,,,1,,,,,,,,,,,,,,,,,,,,,,,,,,,,,,,,,,,,,54,fomentar,,,,,468.6517,470.5837,0,0,1.4051,,0,52,52,53,1,REAL,FAKE,,,,,,,,,,,,,,,,,
,,,,,,,,,67364113bdafe2840fa05b69,Mexican,13 or older,"no, only English or Spanish",no,2026-01-21_21h04.20.708,empathy_intonation_perc_control,2024.2.4,Win32,74.62686567,67364113bdafe2840fa05b69,69712dc693a3960bdb483245,697185799b5efcab7be4e1b7,,,,,,,,,,,,,0,,,,,,,,,,,,,,,,,,,,,,,,,,,,,,,,,,,,,87,grodo,,,,,470.5857,472.5846,0,1,1.4744,,0,53,53,86,1,REAL,FAKE,,,,,,,,,,,,,,,,,
,,,,,,,,,67364113bdafe2840fa05b69,Mexican,13 or older,"no, only English or Spanish",no,2026-01-21_21h04.20.708,empathy_intonation_perc_control,2024.2.4,Win32,74.62686567,67364113bdafe2840fa05b69,69712dc693a3960bdb483245,697185799b5efcab7be4e1b7,,,,,,,,,,,,,0,,,,,,,,,,,,,,,,,,,,,,,,,,,,,,,,,,,,,10,antar,,,,,472.5864,476.1987,1,0,3.0901,,0,54,54,9,1,REAL,FAKE,,,,,,,,,,,,,,,,,
,,,,,,,,,67364113bdafe2840fa05b69,Mexican,13 or older,"no, only English or Spanish",no,2026-01-21_21h04.20.708,empathy_intonation_perc_control,2024.2.4,Win32,74.62686567,67364113bdafe2840fa05b69,69712dc693a3960bdb483245,697185799b5efcab7be4e1b7,,,,,,,,,,,,,0,,,,,,,,,,,,,,,,,,,,,,,,,,,,,,,,,,,,,53,vegada,,,,,476.1993,477.7591,1,0,1.0431,,0,55,55,52,1,REAL,FAKE,,,,,,,,,,,,,,,,,
,,,,,,,,,67364113bdafe2840fa05b69,Mexican,13 or older,"no, only English or Spanish",no,2026-01-21_21h04.20.708,empathy_intonation_perc_control,2024.2.4,Win32,74.62686567,67364113bdafe2840fa05b69,69712dc693a3960bdb483245,697185799b5efcab7be4e1b7,,,,,,,,,,,,,0,,,,,,,,,,,,,,,,,,,,,,,,,,,,,,,,,,,,,79,tropaje,,,,,477.7598,481.0672,0,1,2.7945,,0,56,56,78,1,REAL,FAKE,,,,,,,,,,,,,,,,,
,,,,,,,,,67364113bdafe2840fa05b69,Mexican,13 or older,"no, only English or Spanish",no,2026-01-21_21h04.20.708,empathy_intonation_perc_control,2024.2.4,Win32,74.62686567,67364113bdafe2840fa05b69,69712dc693a3960bdb483245,697185799b5efcab7be4e1b7,,,,,,,,,,,,,1,,,,,,,,,,,,,,,,,,,,,,,,,,,,,,,,,,,,,73,hervidor,,,,,481.0678,486.0819,0,0,4.4923,,0,57,57,72,1,REAL,FAKE,,,,,,,,,,,,,,,,,
,,,,,,,,,67364113bdafe2840fa05b69,Mexican,13 or older,"no, only English or Spanish",no,2026-01-21_21h04.20.708,empathy_intonation_perc_control,2024.2.4,Win32,74.62686567,67364113bdafe2840fa05b69,69712dc693a3960bdb483245,697185799b5efcab7be4e1b7,,,,,,,,,,,,,0,,,,,,,,,,,,,,,,,,,,,,,,,,,,,,,,,,,,,17,floroso,,,,,486.0829,489.3629,1,0,2.7617,,0,58,58,16,1,REAL,FAKE,,,,,,,,,,,,,,,,,
,,,,,,,,,67364113bdafe2840fa05b69,Mexican,13 or older,"no, only English or Spanish",no,2026-01-21_21h04.20.708,empathy_intonation_perc_control,2024.2.4,Win32,74.62686567,67364113bdafe2840fa05b69,69712dc693a3960bdb483245,697185799b5efcab7be4e1b7,,,,,,,,,,,,,1,,,,,,,,,,,,,,,,,,,,,,,,,,,,,,,,,,,,,89,prisa,,,,,489.3636,491.2303,1,1,1.3339,,0,59,59,88,1,REAL,FAKE,,,,,,,,,,,,,,,,,
,,,,,,,,,67364113bdafe2840fa05b69,Mexican,13 or older,"no, only English or Spanish",no,2026-01-21_21h04.20.708,empathy_intonation_perc_control,2024.2.4,Win32,74.62686567,67364113bdafe2840fa05b69,69712dc693a3960bdb483245,697185799b5efcab7be4e1b7,,,,,,,,,,,,,1,,,,,,,,,,,,,,,,,,,,,,,,,,,,,,,,,,,,,24,látigo,,,,,491.2312,492.964,1,1,1.2191,,0,60,60,23,1,REAL,FAKE,,,,,,,,,,,,,,,,,
,,,,,,,,,67364113bdafe2840fa05b69,Mexican,13 or older,"no, only English or Spanish",no,2026-01-21_21h04.20.708,empathy_intonation_perc_control,2024.2.4,Win32,74.62686567,67364113bdafe2840fa05b69,69712dc693a3960bdb483245,697185799b5efcab7be4e1b7,,,,,,,,,,,,,1,,,,,,,,,,,,,,,,,,,,,,,,,,,,,,,,,,,,,12,asesinato,,,,,492.9647,494.9247,0,0,1.4274,,0,61,61,11,1,REAL,FAKE,,,,,,,,,,,,,,,,,
,,,,,,,,,67364113bdafe2840fa05b69,Mexican,13 or older,"no, only English or Spanish",no,2026-01-21_21h04.20.708,empathy_intonation_perc_control,2024.2.4,Win32,74.62686567,67364113bdafe2840fa05b69,69712dc693a3960bdb483245,697185799b5efcab7be4e1b7,,,,,,,,,,,,,0,,,,,,,,,,,,,,,,,,,,,,,,,,,,,,,,,,,,,70,temblo,,,,,494.9253,497.6459,0,1,2.1992,,0,62,62,69,1,REAL,FAKE,,,,,,,,,,,,,,,,,
,,,,,,,,,67364113bdafe2840fa05b69,Mexican,13 or older,"no, only English or Spanish",no,2026-01-21_21h04.20.708,empathy_intonation_perc_control,2024.2.4,Win32,74.62686567,67364113bdafe2840fa05b69,69712dc693a3960bdb483245,697185799b5efcab7be4e1b7,,,,,,,,,,,,,1,,,,,,,,,,,,,,,,,,,,,,,,,,,,,,,,,,,,,55,nevar,,,,,497.6476,499.3397,0,0,1.1713,,0,63,63,54,1,REAL,FAKE,,,,,,,,,,,,,,,,,
,,,,,,,,,67364113bdafe2840fa05b69,Mexican,13 or older,"no, only English or Spanish",no,2026-01-21_21h04.20.708,empathy_intonation_perc_control,2024.2.4,Win32,74.62686567,67364113bdafe2840fa05b69,69712dc693a3960bdb483245,697185799b5efcab7be4e1b7,,,,,,,,,,,,,0,,,,,,,,,,,,,,,,,,,,,,,,,,,,,,,,,,,,,27,acutación,,,,,499.3413,503.2474,1,0,3.385,,0,64,64,26,1,REAL,FAKE,,,,,,,,,,,,,,,,,
,,,,,,,,,67364113bdafe2840fa05b69,Mexican,13 or older,"no, only English or Spanish",no,2026-01-21_21h04.20.708,empathy_intonation_perc_control,2024.2.4,Win32,74.62686567,67364113bdafe2840fa05b69,69712dc693a3960bdb483245,697185799b5efcab7be4e1b7,,,,,,,,,,,,,1,,,,,,,,,,,,,,,,,,,,,,,,,,,,,,,,,,,,,15,regar,,,,,503.2486,504.835,0,0,1.0641,,0,65,65,14,1,REAL,FAKE,,,,,,,,,,,,,,,,,
,,,,,,,,,67364113bdafe2840fa05b69,Mexican,13 or older,"no, only English or Spanish",no,2026-01-21_21h04.20.708,empathy_intonation_perc_control,2024.2.4,Win32,74.62686567,67364113bdafe2840fa05b69,69712dc693a3960bdb483245,697185799b5efcab7be4e1b7,,,,,,,,,,,,,1,,,,,,,,,,,,,,,,,,,,,,,,,,,,,,,,,,,,,77,tiburón,,,,,504.8362,507.7156,0,0,2.354,,0,66,66,76,1,REAL,FAKE,,,,,,,,,,,,,,,,,
,,,,,,,,,67364113bdafe2840fa05b69,Mexican,13 or older,"no, only English or Spanish",no,2026-01-21_21h04.20.708,empathy_intonation_perc_control,2024.2.4,Win32,74.62686567,67364113bdafe2840fa05b69,69712dc693a3960bdb483245,697185799b5efcab7be4e1b7,,,,,,,,,,,,,1,,,,,,,,,,,,,,,,,,,,,,,,,,,,,,,,,,,,,67,cabello,,,,,507.7166,509.5961,0,0,1.3548,,0,67,67,66,1,REAL,FAKE,,,,,,,,,,,,,,,,,
,,,,,,,,,67364113bdafe2840fa05b69,Mexican,13 or older,"no, only English or Spanish",no,2026-01-21_21h04.20.708,empathy_intonation_perc_control,2024.2.4,Win32,74.62686567,67364113bdafe2840fa05b69,69712dc693a3960bdb483245,697185799b5efcab7be4e1b7,,,,,,,,,,,,,1,,,,,,,,,,,,,,,,,,,,,,,,,,,,,,,,,,,,,28,merodear,,,,,509.597,516.1851,1,1,6.0668,,0,68,68,27,1,REAL,FAKE,,,,,,,,,,,,,,,,,
,,,,,,,,,67364113bdafe2840fa05b69,Mexican,13 or older,"no, only English or Spanish",no,2026-01-21_21h04.20.708,empathy_intonation_perc_control,2024.2.4,Win32,74.62686567,67364113bdafe2840fa05b69,69712dc693a3960bdb483245,697185799b5efcab7be4e1b7,,,,,,,,,,,,,0,,,,,,,,,,,,,,,,,,,,,,,,,,,,,,,,,,,,,21,capillo,,,,,516.1864,517.7324,1,0,1.0112,,0,69,69,20,1,REAL,FAKE,,,,,,,,,,,,,,,,,
,,,,,,,,,67364113bdafe2840fa05b69,Mexican,13 or older,"no, only English or Spanish",no,2026-01-21_21h04.20.708,empathy_intonation_perc_control,2024.2.4,Win32,74.62686567,67364113bdafe2840fa05b69,69712dc693a3960bdb483245,697185799b5efcab7be4e1b7,,,,,,,,,,,,,1,,,,,,,,,,,,,,,,,,,,,,,,,,,,,,,,,,,,,2,pellizcar,,,,,517.7343,519.3324,0,0,1.0859,,0,70,70,1,1,REAL,FAKE,,,,,,,,,,,,,,,,,
,,,,,,,,,67364113bdafe2840fa05b69,Mexican,13 or older,"no, only English or Spanish",no,2026-01-21_21h04.20.708,empathy_intonation_perc_control,2024.2.4,Win32,74.62686567,67364113bdafe2840fa05b69,69712dc693a3960bdb483245,697185799b5efcab7be4e1b7,,,,,,,,,,,,,1,,,,,,,,,,,,,,,,,,,,,,,,,,,,,,,,,,,,,64,orgulloso,,,,,519.3332,525.0277,1,1,5.1788,,0,71,71,63,1,REAL,FAKE,,,,,,,,,,,,,,,,,
,,,,,,,,,67364113bdafe2840fa05b69,Mexican,13 or older,"no, only English or Spanish",no,2026-01-21_21h04.20.708,empathy_intonation_perc_control,2024.2.4,Win32,74.62686567,67364113bdafe2840fa05b69,69712dc693a3960bdb483245,697185799b5efcab7be4e1b7,,,,,,,,,,,,,1,,,,,,,,,,,,,,,,,,,,,,,,,,,,,,,,,,,,,46,martillo,,,,,525.0284,527.6822,1,1,2.1192,,0,72,72,45,1,REAL,FAKE,,,,,,,,,,,,,,,,,
,,,,,,,,,67364113bdafe2840fa05b69,Mexican,13 or older,"no, only English or Spanish",no,2026-01-21_21h04.20.708,empathy_intonation_perc_control,2024.2.4,Win32,74.62686567,67364113bdafe2840fa05b69,69712dc693a3960bdb483245,697185799b5efcab7be4e1b7,,,,,,,,,,,,,0,,,,,,,,,,,,,,,,,,,,,,,,,,,,,,,,,,,,,16,abracer,,,,,527.6836,529.3095,0,1,1.1042,,0,73,73,15,1,REAL,FAKE,,,,,,,,,,,,,,,,,
,,,,,,,,,67364113bdafe2840fa05b69,Mexican,13 or older,"no, only English or Spanish",no,2026-01-21_21h04.20.708,empathy_intonation_perc_control,2024.2.4,Win32,74.62686567,67364113bdafe2840fa05b69,69712dc693a3960bdb483245,697185799b5efcab7be4e1b7,,,,,,,,,,,,,1,,,,,,,,,,,,,,,,,,,,,,,,,,,,,,,,,,,,,37,granuja,,,,,529.311,531.3497,0,0,1.523,,0,74,74,36,1,REAL,FAKE,,,,,,,,,,,,,,,,,
,,,,,,,,,67364113bdafe2840fa05b69,Mexican,13 or older,"no, only English or Spanish",no,2026-01-21_21h04.20.708,empathy_intonation_perc_control,2024.2.4,Win32,74.62686567,67364113bdafe2840fa05b69,69712dc693a3960bdb483245,697185799b5efcab7be4e1b7,,,,,,,,,,,,,1,,,,,,,,,,,,,,,,,,,,,,,,,,,,,,,,,,,,,39,torpe,,,,,531.3504,533.7508,0,0,1.8819,,0,75,75,38,1,REAL,FAKE,,,,,,,,,,,,,,,,,
,,,,,,,,,67364113bdafe2840fa05b69,Mexican,13 or older,"no, only English or Spanish",no,2026-01-21_21h04.20.708,empathy_intonation_perc_control,2024.2.4,Win32,74.62686567,67364113bdafe2840fa05b69,69712dc693a3960bdb483245,697185799b5efcab7be4e1b7,,,,,,,,,,,,,1,,,,,,,,,,,,,,,,,,,,,,,,,,,,,,,,,,,,,71,polvoriento,,,,,533.7524,538.0456,1,1,3.766,,0,76,76,70,1,REAL,FAKE,,,,,,,,,,,,,,,,,
,,,,,,,,,67364113bdafe2840fa05b69,Mexican,13 or older,"no, only English or Spanish",no,2026-01-21_21h04.20.708,empathy_intonation_perc_control,2024.2.4,Win32,74.62686567,67364113bdafe2840fa05b69,69712dc693a3960bdb483245,697185799b5efcab7be4e1b7,,,,,,,,,,,,,0,,,,,,,,,,,,,,,,,,,,,,,,,,,,,,,,,,,,,30,alardio,,,,,538.0472,540.0195,1,0,1.4416,,0,77,77,29,1,REAL,FAKE,,,,,,,,,,,,,,,,,
,,,,,,,,,67364113bdafe2840fa05b69,Mexican,13 or older,"no, only English or Spanish",no,2026-01-21_21h04.20.708,empathy_intonation_perc_control,2024.2.4,Win32,74.62686567,67364113bdafe2840fa05b69,69712dc693a3960bdb483245,697185799b5efcab7be4e1b7,,,,,,,,,,,,,1,,,,,,,,,,,,,,,,,,,,,,,,,,,,,,,,,,,,,7,pésimo,,,,,540.0211,543.2472,0,0,2.7038,,0,78,78,6,1,REAL,FAKE,,,,,,,,,,,,,,,,,
,,,,,,,,,67364113bdafe2840fa05b69,Mexican,13 or older,"no, only English or Spanish",no,2026-01-21_21h04.20.708,empathy_intonation_perc_control,2024.2.4,Win32,74.62686567,67364113bdafe2840fa05b69,69712dc693a3960bdb483245,697185799b5efcab7be4e1b7,,,,,,,,,,,,,1,,,,,,,,,,,,,,,,,,,,,,,,,,,,,,,,,,,,,45,jilguero,,,,,543.2489,545.2742,0,0,1.5003,,0,79,79,44,1,REAL,FAKE,,,,,,,,,,,,,,,,,
,,,,,,,,,67364113bdafe2840fa05b69,Mexican,13 or older,"no, only English or Spanish",no,2026-01-21_21h04.20.708,empathy_intonation_perc_control,2024.2.4,Win32,74.62686567,67364113bdafe2840fa05b69,69712dc693a3960bdb483245,697185799b5efcab7be4e1b7,,,,,,,,,,,,,1,,,,,,,,,,,,,,,,,,,,,,,,,,,,,,,,,,,,,11,cenefa,,,,,545.2749,547.2751,0,0,1.4793,,0,80,80,10,1,REAL,FAKE,,,,,,,,,,,,,,,,,
,,,,,,,,,67364113bdafe2840fa05b69,Mexican,13 or older,"no, only English or Spanish",no,2026-01-21_21h04.20.708,empathy_intonation_perc_control,2024.2.4,Win32,74.62686567,67364113bdafe2840fa05b69,69712dc693a3960bdb483245,697185799b5efcab7be4e1b7,,,,,,,,,,,,,0,,,,,,,,,,,,,,,,,,,,,,,,,,,,,,,,,,,,,8,cadeña,,,,,547.2768,548.7154,1,0,0.9197,,0,81,81,7,1,REAL,FAKE,,,,,,,,,,,,,,,,,
,,,,,,,,,67364113bdafe2840fa05b69,Mexican,13 or older,"no, only English or Spanish",no,2026-01-21_21h04.20.708,empathy_intonation_perc_control,2024.2.4,Win32,74.62686567,67364113bdafe2840fa05b69,69712dc693a3960bdb483245,697185799b5efcab7be4e1b7,,,,,,,,,,,,,1,,,,,,,,,,,,,,,,,,,,,,,,,,,,,,,,,,,,,61,seda,,,,,548.7167,549.9829,1,1,0.7517,,0,82,82,60,1,REAL,FAKE,,,,,,,,,,,,,,,,,
,,,,,,,,,67364113bdafe2840fa05b69,Mexican,13 or older,"no, only English or Spanish",no,2026-01-21_21h04.20.708,empathy_intonation_perc_control,2024.2.4,Win32,74.62686567,67364113bdafe2840fa05b69,69712dc693a3960bdb483245,697185799b5efcab7be4e1b7,,,,,,,,,,,,,1,,,,,,,,,,,,,,,,,,,,,,,,,,,,,,,,,,,,,48,ladrón,,,,,549.9848,552.1034,1,1,1.5952,,0,83,83,47,1,REAL,FAKE,,,,,,,,,,,,,,,,,
,,,,,,,,,67364113bdafe2840fa05b69,Mexican,13 or older,"no, only English or Spanish",no,2026-01-21_21h04.20.708,empathy_intonation_perc_control,2024.2.4,Win32,74.62686567,67364113bdafe2840fa05b69,69712dc693a3960bdb483245,697185799b5efcab7be4e1b7,,,,,,,,,,,,,1,,,,,,,,,,,,,,,,,,,,,,,,,,,,,,,,,,,,,25,bisagra,,,,,552.1051,554.1171,0,0,1.4842,,0,84,84,24,1,REAL,FAKE,,,,,,,,,,,,,,,,,
,,,,,,,,,67364113bdafe2840fa05b69,Mexican,13 or older,"no, only English or Spanish",no,2026-01-21_21h04.20.708,empathy_intonation_perc_control,2024.2.4,Win32,74.62686567,67364113bdafe2840fa05b69,69712dc693a3960bdb483245,697185799b5efcab7be4e1b7,,,,,,,,,,,,,1,,,,,,,,,,,,,,,,,,,,,,,,,,,,,,,,,,,,,3,pulmones,,,,,554.1176,555.9857,0,0,1.3448,,0,85,85,2,1,REAL,FAKE,,,,,,,,,,,,,,,,,
,,,,,,,,,67364113bdafe2840fa05b69,Mexican,13 or older,"no, only English or Spanish",no,2026-01-21_21h04.20.708,empathy_intonation_perc_control,2024.2.4,Win32,74.62686567,67364113bdafe2840fa05b69,69712dc693a3960bdb483245,697185799b5efcab7be4e1b7,,,,,,,,,,,,,1,,,,,,,,,,,,,,,,,,,,,,,,,,,,,,,,,,,,,40,alfombra,,,,,555.9872,559.1455,1,1,2.6395,,0,86,86,39,1,REAL,FAKE,,,,,,,,,,,,,,,,,
,,,,,,,,,67364113bdafe2840fa05b69,Mexican,13 or older,"no, only English or Spanish",no,2026-01-21_21h04.20.708,empathy_intonation_perc_control,2024.2.4,Win32,74.62686567,67364113bdafe2840fa05b69,69712dc693a3960bdb483245,697185799b5efcab7be4e1b7,,,,,,,,,,,,,1,,,,,,,,,,,,,,,,,,,,,,,,,,,,,,,,,,,,,51,candado,,,,,559.1467,561.8931,1,1,2.2213,,0,87,87,50,1,REAL,FAKE,,,,,,,,,,,,,,,,,
,,,,,,,,,67364113bdafe2840fa05b69,Mexican,13 or older,"no, only English or Spanish",no,2026-01-21_21h04.20.708,empathy_intonation_perc_control,2024.2.4,Win32,74.62686567,67364113bdafe2840fa05b69,69712dc693a3960bdb483245,697185799b5efcab7be4e1b7,,,,,,,,,,,,,0,,,,,,,,,,,,,,,,,,,,,,,,,,,,,,,,,,,,,74,cintro,,,,,561.8949,563.6406,1,0,1.2302,,0,88,88,73,1,REAL,FAKE,,,,,,,,,,,,,,,,,
,,,,,,,,,67364113bdafe2840fa05b69,Mexican,13 or older,"no, only English or Spanish",no,2026-01-21_21h04.20.708,empathy_intonation_perc_control,2024.2.4,Win32,74.62686567,67364113bdafe2840fa05b69,69712dc693a3960bdb483245,697185799b5efcab7be4e1b7,,,,,,,,,,,,,0,,,,,,,,,,,,,,,,,,,,,,,,,,,,,,,,,,,,,18,arsa,,,,,563.6425,565.1074,0,1,0.9428,,0,89,89,17,1,REAL,FAKE,,,,,,,,,,,,,,,,,
,,,,,,,,,67364113bdafe2840fa05b69,Mexican,13 or older,"no, only English or Spanish",no,2026-01-21_21h04.20.708,empathy_intonation_perc_control,2024.2.4,Win32,74.62686567,67364113bdafe2840fa05b69,69712dc693a3960bdb483245,697185799b5efcab7be4e1b7,,,,,,,,,,,,,0,,,,,,,,,,,,,,,,,,,,,,,,,,,,,,,,,,,,,23,lampera,,,,,565.1081,567.1757,0,1,1.5398,,0,90,90,22,1,REAL,FAKE,,,,,,,,,,,,,,,,,
,,,,,,,,,67364113bdafe2840fa05b69,Mexican,13 or older,"no, only English or Spanish",no,2026-01-21_21h04.20.708,empathy_intonation_perc_control,2024.2.4,Win32,74.62686567,67364113bdafe2840fa05b69,69712dc693a3960bdb483245,697185799b5efcab7be4e1b7,,,,,,,,,,,,,1,,,,,,,,,,,,,,,,,,,,,,,,,,,,,,,,,,,,,6,tergiversar,,,,,567.1779,569.1887,0,0,1.49,,0,91,91,5,1,REAL,FAKE,,,,,,,,,,,,,,,,,
,,,,,,,,,67364113bdafe2840fa05b69,Mexican,13 or older,"no, only English or Spanish",no,2026-01-21_21h04.20.708,empathy_intonation_perc_control,2024.2.4,Win32,74.62686567,67364113bdafe2840fa05b69,69712dc693a3960bdb483245,697185799b5efcab7be4e1b7,,,,,,,,,,,,,,,,,,,,,,,,,,,,,,,,,,,,,,,,,,,,,,,,,,,,,,,,,,,,,,,,,,,,,569.1889,581.8601,,,,,,,,,,,,,,,
,,,,,,,,,67364113bdafe2840fa05b69,Mexican,13 or older,"no, only English or Spanish",no,2026-01-21_21h04.20.708,empathy_intonation_perc_control,2024.2.4,Win32,74.62686567,67364113bdafe2840fa05b69,69712dc693a3960bdb483245,697185799b5efcab7be4e1b7,,,,,,,,,,,,,,,,,,,,,,,,,,,1,,,,,,,,,,,,,,,,,,,,,,,,,,,,,,,,,,,,,,,,,,,,581.8767,587.3946,slightly agree,0,0,0,0,1,I can easily tell if someone else wants to enter a conversation.,1,0,1,0,,
,,,,,,,,,67364113bdafe2840fa05b69,Mexican,13 or older,"no, only English or Spanish",no,2026-01-21_21h04.20.708,empathy_intonation_perc_control,2024.2.4,Win32,74.62686567,67364113bdafe2840fa05b69,69712dc693a3960bdb483245,697185799b5efcab7be4e1b7,,,,,,,,,,,,,,,,,,,,,,,,,,,2,,,,,,,,,,,,,,,,,,,,,,,,,,,,,,,,,,,,,,,,,,,,587.3961,592.4228,slightly disagree,0,1,1,1,1,I prefer animals to humans.,0,1,0,0,,
,,,,,,,,,67364113bdafe2840fa05b69,Mexican,13 or older,"no, only English or Spanish",no,2026-01-21_21h04.20.708,empathy_intonation_perc_control,2024.2.4,Win32,74.62686567,67364113bdafe2840fa05b69,69712dc693a3960bdb483245,697185799b5efcab7be4e1b7,,,,,,,,,,,,,,,,,,,,,,,,,,,3,,,,,,,,,,,,,,,,,,,,,,,,,,,,,,,,,,,,,,,,,,,,592.4243,595.7439,slightly agree,0,2,2,2,1,I try to keep up with the current trends and fashions.,0,1,0,0,,
,,,,,,,,,67364113bdafe2840fa05b69,Mexican,13 or older,"no, only English or Spanish",no,2026-01-21_21h04.20.708,empathy_intonation_perc_control,2024.2.4,Win32,74.62686567,67364113bdafe2840fa05b69,69712dc693a3960bdb483245,697185799b5efcab7be4e1b7,,,,,,,,,,,,,,,,,,,,,,,,,,,4,,,,,,,,,,,,,,,,,,,,,,,,,,,,,,,,,,,,,,,,,,,,595.7453,601.3594,slightly disagree,0,3,3,3,1,"I find it difficult to explain to others things that I understand easily,   when they don't understand it first time.",1,0,0,1,,
,,,,,,,,,67364113bdafe2840fa05b69,Mexican,13 or older,"no, only English or Spanish",no,2026-01-21_21h04.20.708,empathy_intonation_perc_control,2024.2.4,Win32,74.62686567,67364113bdafe2840fa05b69,69712dc693a3960bdb483245,697185799b5efcab7be4e1b7,,,,,,,,,,,,,,,,,,,,,,,,,,,5,,,,,,,,,,,,,,,,,,,,,,,,,,,,,,,,,,,,,,,,,,,,601.3604,603.7069,strongly agree,0,4,4,4,1,I dream most nights.,0,1,0,0,,
,,,,,,,,,67364113bdafe2840fa05b69,Mexican,13 or older,"no, only English or Spanish",no,2026-01-21_21h04.20.708,empathy_intonation_perc_control,2024.2.4,Win32,74.62686567,67364113bdafe2840fa05b69,69712dc693a3960bdb483245,697185799b5efcab7be4e1b7,,,,,,,,,,,,,,,,,,,,,,,,,,,6,,,,,,,,,,,,,,,,,,,,,,,,,,,,,,,,,,,,,,,,,,,,603.708,606.2811,slightly agree,0,5,5,5,1,I really enjoy caring for other people.,1,0,1,0,,
,,,,,,,,,67364113bdafe2840fa05b69,Mexican,13 or older,"no, only English or Spanish",no,2026-01-21_21h04.20.708,empathy_intonation_perc_control,2024.2.4,Win32,74.62686567,67364113bdafe2840fa05b69,69712dc693a3960bdb483245,697185799b5efcab7be4e1b7,,,,,,,,,,,,,,,,,,,,,,,,,,,7,,,,,,,,,,,,,,,,,,,,,,,,,,,,,,,,,,,,,,,,,,,,606.2822,609.3618,slightly agree,0,6,6,6,1,I try to solve my own problems rather than discussing them with others.,0,1,0,0,,
,,,,,,,,,67364113bdafe2840fa05b69,Mexican,13 or older,"no, only English or Spanish",no,2026-01-21_21h04.20.708,empathy_intonation_perc_control,2024.2.4,Win32,74.62686567,67364113bdafe2840fa05b69,69712dc693a3960bdb483245,697185799b5efcab7be4e1b7,,,,,,,,,,,,,,,,,,,,,,,,,,,8,,,,,,,,,,,,,,,,,,,,,,,,,,,,,,,,,,,,,,,,,,,,609.3628,612.4697,slightly disagree,0,7,7,7,1,I find it hard to know what to do in a social situation.,1,0,0,1,,
,,,,,,,,,67364113bdafe2840fa05b69,Mexican,13 or older,"no, only English or Spanish",no,2026-01-21_21h04.20.708,empathy_intonation_perc_control,2024.2.4,Win32,74.62686567,67364113bdafe2840fa05b69,69712dc693a3960bdb483245,697185799b5efcab7be4e1b7,,,,,,,,,,,,,,,,,,,,,,,,,,,9,,,,,,,,,,,,,,,,,,,,,,,,,,,,,,,,,,,,,,,,,,,,612.4709,615.7105,slightly disagree,0,8,8,8,1,I am at my best first thing in the morning.,0,1,0,0,,
,,,,,,,,,67364113bdafe2840fa05b69,Mexican,13 or older,"no, only English or Spanish",no,2026-01-21_21h04.20.708,empathy_intonation_perc_control,2024.2.4,Win32,74.62686567,67364113bdafe2840fa05b69,69712dc693a3960bdb483245,697185799b5efcab7be4e1b7,,,,,,,,,,,,,,,,,,,,,,,,,,,10,,,,,,,,,,,,,,,,,,,,,,,,,,,,,,,,,,,,,,,,,,,,615.7121,620.2316,slightly disagree,0,9,9,9,1,People often tell me that I went too far in driving my point home in a discussion.,1,0,0,1,,
,,,,,,,,,67364113bdafe2840fa05b69,Mexican,13 or older,"no, only English or Spanish",no,2026-01-21_21h04.20.708,empathy_intonation_perc_control,2024.2.4,Win32,74.62686567,67364113bdafe2840fa05b69,69712dc693a3960bdb483245,697185799b5efcab7be4e1b7,,,,,,,,,,,,,,,,,,,,,,,,,,,11,,,,,,,,,,,,,,,,,,,,,,,,,,,,,,,,,,,,,,,,,,,,620.2327,626.0739,slightly agree,0,10,10,10,1,It doesn't bother me too much if I am late meeting a friend.,1,0,0,1,,
,,,,,,,,,67364113bdafe2840fa05b69,Mexican,13 or older,"no, only English or Spanish",no,2026-01-21_21h04.20.708,empathy_intonation_perc_control,2024.2.4,Win32,74.62686567,67364113bdafe2840fa05b69,69712dc693a3960bdb483245,697185799b5efcab7be4e1b7,,,,,,,,,,,,,,,,,,,,,,,,,,,12,,,,,,,,,,,,,,,,,,,,,,,,,,,,,,,,,,,,,,,,,,,,626.0749,629.9018,slightly disagree,0,11,11,11,1,"Friendships and relationships are just too difficult, so I tend not to 
  bother with them.",1,0,0,1,,
,,,,,,,,,67364113bdafe2840fa05b69,Mexican,13 or older,"no, only English or Spanish",no,2026-01-21_21h04.20.708,empathy_intonation_perc_control,2024.2.4,Win32,74.62686567,67364113bdafe2840fa05b69,69712dc693a3960bdb483245,697185799b5efcab7be4e1b7,,,,,,,,,,,,,,,,,,,,,,,,,,,13,,,,,,,,,,,,,,,,,,,,,,,,,,,,,,,,,,,,,,,,,,,,629.9026,632.7962,slightly disagree,0,12,12,12,1,"I would never break a law, no matter how minor.",0,1,0,0,,
,,,,,,,,,67364113bdafe2840fa05b69,Mexican,13 or older,"no, only English or Spanish",no,2026-01-21_21h04.20.708,empathy_intonation_perc_control,2024.2.4,Win32,74.62686567,67364113bdafe2840fa05b69,69712dc693a3960bdb483245,697185799b5efcab7be4e1b7,,,,,,,,,,,,,,,,,,,,,,,,,,,14,,,,,,,,,,,,,,,,,,,,,,,,,,,,,,,,,,,,,,,,,,,,632.797,637.0906,slightly disagree,0,13,13,13,1,I often find it difficult to judge if something is rude or polite.,1,0,0,1,,
,,,,,,,,,67364113bdafe2840fa05b69,Mexican,13 or older,"no, only English or Spanish",no,2026-01-21_21h04.20.708,empathy_intonation_perc_control,2024.2.4,Win32,74.62686567,67364113bdafe2840fa05b69,69712dc693a3960bdb483245,697185799b5efcab7be4e1b7,,,,,,,,,,,,,,,,,,,,,,,,,,,15,,,,,,,,,,,,,,,,,,,,,,,,,,,,,,,,,,,,,,,,,,,,637.0915,643.3064,slightly disagree,0,14,14,14,1,"In a conversation, I tend to focus on my own thoughts rather than on what 
  my listener might be thinking.",1,0,0,1,,
,,,,,,,,,67364113bdafe2840fa05b69,Mexican,13 or older,"no, only English or Spanish",no,2026-01-21_21h04.20.708,empathy_intonation_perc_control,2024.2.4,Win32,74.62686567,67364113bdafe2840fa05b69,69712dc693a3960bdb483245,697185799b5efcab7be4e1b7,,,,,,,,,,,,,,,,,,,,,,,,,,,16,,,,,,,,,,,,,,,,,,,,,,,,,,,,,,,,,,,,,,,,,,,,643.3071,647.7607,slightly disagree,0,15,15,15,1,I prefer practical jokes to verbal humor.,0,1,0,0,,
,,,,,,,,,67364113bdafe2840fa05b69,Mexican,13 or older,"no, only English or Spanish",no,2026-01-21_21h04.20.708,empathy_intonation_perc_control,2024.2.4,Win32,74.62686567,67364113bdafe2840fa05b69,69712dc693a3960bdb483245,697185799b5efcab7be4e1b7,,,,,,,,,,,,,,,,,,,,,,,,,,,17,,,,,,,,,,,,,,,,,,,,,,,,,,,,,,,,,,,,,,,,,,,,647.7618,654.483,slightly agree,0,16,16,16,1,I live life for today rather than the future.,0,1,0,0,,
,,,,,,,,,67364113bdafe2840fa05b69,Mexican,13 or older,"no, only English or Spanish",no,2026-01-21_21h04.20.708,empathy_intonation_perc_control,2024.2.4,Win32,74.62686567,67364113bdafe2840fa05b69,69712dc693a3960bdb483245,697185799b5efcab7be4e1b7,,,,,,,,,,,,,,,,,,,,,,,,,,,18,,,,,,,,,,,,,,,,,,,,,,,,,,,,,,,,,,,,,,,,,,,,654.4841,658.4175,strongly disagree,0,17,17,17,1,"When I was a child, I enjoyed cutting up worms to see what would happen.",1,0,0,1,,
,,,,,,,,,67364113bdafe2840fa05b69,Mexican,13 or older,"no, only English or Spanish",no,2026-01-21_21h04.20.708,empathy_intonation_perc_control,2024.2.4,Win32,74.62686567,67364113bdafe2840fa05b69,69712dc693a3960bdb483245,697185799b5efcab7be4e1b7,,,,,,,,,,,,,,,,,,,,,,,,,,,19,,,,,,,,,,,,,,,,,,,,,,,,,,,,,,,,,,,,,,,,,,,,658.4184,665.9665,slightly agree,0,18,18,18,1,I can pick up quickly if someone says one thing but means another.,1,0,1,0,,
,,,,,,,,,67364113bdafe2840fa05b69,Mexican,13 or older,"no, only English or Spanish",no,2026-01-21_21h04.20.708,empathy_intonation_perc_control,2024.2.4,Win32,74.62686567,67364113bdafe2840fa05b69,69712dc693a3960bdb483245,697185799b5efcab7be4e1b7,,,,,,,,,,,,,,,,,,,,,,,,,,,20,,,,,,,,,,,,,,,,,,,,,,,,,,,,,,,,,,,,,,,,,,,,665.9677,669.7683,strongly agree,0,19,19,19,1,I tend to have very strong opinions about morality.,0,1,0,0,,
,,,,,,,,,67364113bdafe2840fa05b69,Mexican,13 or older,"no, only English or Spanish",no,2026-01-21_21h04.20.708,empathy_intonation_perc_control,2024.2.4,Win32,74.62686567,67364113bdafe2840fa05b69,69712dc693a3960bdb483245,697185799b5efcab7be4e1b7,,,,,,,,,,,,,,,,,,,,,,,,,,,21,,,,,,,,,,,,,,,,,,,,,,,,,,,,,,,,,,,,,,,,,,,,669.7693,674.2098,slightly agree,0,20,20,20,1,It is hard for me to see why some things upset people so much.,1,0,0,1,,
,,,,,,,,,67364113bdafe2840fa05b69,Mexican,13 or older,"no, only English or Spanish",no,2026-01-21_21h04.20.708,empathy_intonation_perc_control,2024.2.4,Win32,74.62686567,67364113bdafe2840fa05b69,69712dc693a3960bdb483245,697185799b5efcab7be4e1b7,,,,,,,,,,,,,,,,,,,,,,,,,,,22,,,,,,,,,,,,,,,,,,,,,,,,,,,,,,,,,,,,,,,,,,,,674.2105,676.7302,slightly agree,0,21,21,21,1,I find it easy to put myself in somebody else's shoes.,1,0,1,0,,
,,,,,,,,,67364113bdafe2840fa05b69,Mexican,13 or older,"no, only English or Spanish",no,2026-01-21_21h04.20.708,empathy_intonation_perc_control,2024.2.4,Win32,74.62686567,67364113bdafe2840fa05b69,69712dc693a3960bdb483245,697185799b5efcab7be4e1b7,,,,,,,,,,,,,,,,,,,,,,,,,,,23,,,,,,,,,,,,,,,,,,,,,,,,,,,,,,,,,,,,,,,,,,,,676.7313,681.7589,slightly disagree,0,22,22,22,1,I think that good manners are the most important thing a parent can teach their child.,0,1,0,0,,
,,,,,,,,,67364113bdafe2840fa05b69,Mexican,13 or older,"no, only English or Spanish",no,2026-01-21_21h04.20.708,empathy_intonation_perc_control,2024.2.4,Win32,74.62686567,67364113bdafe2840fa05b69,69712dc693a3960bdb483245,697185799b5efcab7be4e1b7,,,,,,,,,,,,,,,,,,,,,,,,,,,24,,,,,,,,,,,,,,,,,,,,,,,,,,,,,,,,,,,,,,,,,,,,681.7598,685.973,slightly agree,0,23,23,23,1,I like to do things on the spur of the moment.,0,1,0,0,,
,,,,,,,,,67364113bdafe2840fa05b69,Mexican,13 or older,"no, only English or Spanish",no,2026-01-21_21h04.20.708,empathy_intonation_perc_control,2024.2.4,Win32,74.62686567,67364113bdafe2840fa05b69,69712dc693a3960bdb483245,697185799b5efcab7be4e1b7,,,,,,,,,,,,,,,,,,,,,,,,,,,25,,,,,,,,,,,,,,,,,,,,,,,,,,,,,,,,,,,,,,,,,,,,685.9738,689.4413,slightly disagree,0,24,24,24,1,I am good at predicting how someone will feel.,1,0,1,0,,
