instructions_2afc.started,instructions_2afc.stopped,instructions_2afc_loop.thisRepN,instructions_2afc_loop.thisTrialN,instructions_2afc_loop.thisN,instructions_2afc_loop.thisIndex,instructions_2afc_loop.ran,instructions_text,continue_text,participant_id,"What variety of Spanish are you most familiar with? (e.g., Peruvian, Spanish, Mexican)",At what age did you begin learning Spanish?,Are you proficient in any languages other than English/Spanish?,"Are you familiar with Caribbean (e.g., Caribbean, Puerto Rican) or Galician Spanish?",date,expName,psychopyVersion,OS,frameRate,id,study_id,session,practice_2afc.started,practice_2afc.stopped,key_resp_2afc_practice.keys,key_resp_2afc_practice.corr,key_resp_2afc_practice.rt,key_resp_2afc_practice.duration,trials_2afc_practice_loop.thisRepN,trials_2afc_practice_loop.thisTrialN,trials_2afc_practice_loop.thisN,trials_2afc_practice_loop.thisIndex,trials_2afc_practice_loop.ran,path,correct_response,check_2afc.started,check_2afc.stopped,trial_2afc.started,trial_2afc.stopped,key_resp_2afc_trial.keys,key_resp_2afc_trial.corr,key_resp_2afc_trial.rt,key_resp_2afc_trial.duration,trials_2afc_loop.thisRepN,trials_2afc_loop.thisTrialN,trials_2afc_loop.thisN,trials_2afc_loop.thisIndex,trials_2afc_loop.ran,item_num,target,variety,instructions_lextale.started,instructions_lextale.stopped,instructions_lextale_loop.thisRepN,instructions_lextale_loop.thisTrialN,instructions_lextale_loop.thisN,instructions_lextale_loop.thisIndex,instructions_lextale_loop.ran,practice_lextale.started,practice_lextale.stopped,key_resp_lextale_practice.keys,key_resp_lextale_practice.corr,key_resp_lextale_practice.rt,key_resp_lextale_practice.duration,practice_feedback_lextale.started,practice_feedback_lextale.stopped,trials_lextale_practice_loop.thisRepN,trials_lextale_practice_loop.thisTrialN,trials_lextale_practice_loop.thisN,trials_lextale_practice_loop.thisIndex,trials_lextale_practice_loop.ran,stim,word,prac_button_real,prac_button_false,check_lextale.started,check_lextale.stopped,trial_lextale.started,trial_lextale.stopped,key_resp_lextale_trial.keys,key_resp_lextale_trial.corr,key_resp_lextale_trial.rt,key_resp_lextale_trial.duration,trials_lextale_loop.thisRepN,trials_lextale_loop.thisTrialN,trials_lextale_loop.thisN,trials_lextale_loop.thisIndex,trials_lextale_loop.ran,button_real,button_false,instructions_eq.started,instructions_eq.stopped,trial_eq.started,trial_eq.stopped,slider_eq_trial.response,trials_eq_loop.thisRepN,trials_eq_loop.thisTrialN,trials_eq_loop.thisN,trials_eq_loop.thisIndex,trials_eq_loop.ran,item,is_test_item,is_distractor,is_agree_score,is_disagree_score,end_exp.started,end_exp.stopped
0.01,5.9853,0,0,0,0,1,"In the following task you are going to hear a series of utterances. 

  You will decide if the utterances sound like questions or not using your keyboard.", (press the spacebar to continue),6740e1e09ca406ab781318cb,Spanish,13 or older,"no, only English or Spanish",no,2025-08-13_17h53.24.238,empathy_intonation_perc_control,2024.2.4,MacIntel,131.5789474,6740e1e09ca406ab781318cb,68817205a84113384fffdfe3,689d0920f75a44d79e3997f4,,,,,,,,,,,,,,,,,,,,,,,,,,,,,,,,,,,,,,,,,,,,,,,,,,,,,,,,,,,,,,,,,,,,,,,,,,,,,,,,,,,,,
5.9859,11.1272,0,1,1,1,1,"If you believe the utterance is a question, type '1' (for 'yes') and if you do not 
  believe it is a question type '0' (for 'no').

  Let's practice a bit...", (press the spacebar to continue),6740e1e09ca406ab781318cb,Spanish,13 or older,"no, only English or Spanish",no,2025-08-13_17h53.24.238,empathy_intonation_perc_control,2024.2.4,MacIntel,131.5789474,6740e1e09ca406ab781318cb,68817205a84113384fffdfe3,689d0920f75a44d79e3997f4,,,,,,,,,,,,,,,,,,,,,,,,,,,,,,,,,,,,,,,,,,,,,,,,,,,,,,,,,,,,,,,,,,,,,,,,,,,,,,,,,,,,,
,,,,,,,,,6740e1e09ca406ab781318cb,Spanish,13 or older,"no, only English or Spanish",no,2025-08-13_17h53.24.238,empathy_intonation_perc_control,2024.2.4,MacIntel,131.5789474,6740e1e09ca406ab781318cb,68817205a84113384fffdfe3,689d0920f75a44d79e3997f4,11.1408,14.462,0,0,2.8099,,0,0,0,0,1,./stim/wavs/castilian_question_filler_Mi-esposo-conoce-al-chico.wav,1,,,,,,,,,,,,,,,,,,,,,,,,,,,,,,,,,,,,,,,,,,,,,,,,,,,,,,,,,,,,,,,,,,,,,,,,
,,,,,,,,,6740e1e09ca406ab781318cb,Spanish,13 or older,"no, only English or Spanish",no,2025-08-13_17h53.24.238,empathy_intonation_perc_control,2024.2.4,MacIntel,131.5789474,6740e1e09ca406ab781318cb,68817205a84113384fffdfe3,689d0920f75a44d79e3997f4,14.4628,17.9199,0,0,2.9377,,0,1,1,3,1,./stim/wavs/mexican_question_filler_Felipe-no-tiene-contrasena.wav,1,,,,,,,,,,,,,,,,,,,,,,,,,,,,,,,,,,,,,,,,,,,,,,,,,,,,,,,,,,,,,,,,,,,,,,,,
,,,,,,,,,6740e1e09ca406ab781318cb,Spanish,13 or older,"no, only English or Spanish",no,2025-08-13_17h53.24.238,empathy_intonation_perc_control,2024.2.4,MacIntel,131.5789474,6740e1e09ca406ab781318cb,68817205a84113384fffdfe3,689d0920f75a44d79e3997f4,17.9207,20.4525,1,1,2.0192,,0,2,2,1,1,./stim/wavs/argentine_question_filler_Mi-vecino-habla-mucho.wav,1,,,,,,,,,,,,,,,,,,,,,,,,,,,,,,,,,,,,,,,,,,,,,,,,,,,,,,,,,,,,,,,,,,,,,,,,
,,,,,,,,,6740e1e09ca406ab781318cb,Spanish,13 or older,"no, only English or Spanish",no,2025-08-13_17h53.24.238,empathy_intonation_perc_control,2024.2.4,MacIntel,131.5789474,6740e1e09ca406ab781318cb,68817205a84113384fffdfe3,689d0920f75a44d79e3997f4,20.4532,23.4535,0,1,2.4873,,0,3,3,6,1,./stim/wavs/peruvian_statement_filler_El-nino-habla-con-su-madre.wav,0,,,,,,,,,,,,,,,,,,,,,,,,,,,,,,,,,,,,,,,,,,,,,,,,,,,,,,,,,,,,,,,,,,,,,,,,
,,,,,,,,,6740e1e09ca406ab781318cb,Spanish,13 or older,"no, only English or Spanish",no,2025-08-13_17h53.24.238,empathy_intonation_perc_control,2024.2.4,MacIntel,131.5789474,6740e1e09ca406ab781318cb,68817205a84113384fffdfe3,689d0920f75a44d79e3997f4,23.454,25.9194,0,1,1.9476,,0,4,4,4,1,./stim/wavs/cuban_statement_filler_Cocinabas-por-la-noche.wav,0,,,,,,,,,,,,,,,,,,,,,,,,,,,,,,,,,,,,,,,,,,,,,,,,,,,,,,,,,,,,,,,,,,,,,,,,
,,,,,,,,,6740e1e09ca406ab781318cb,Spanish,13 or older,"no, only English or Spanish",no,2025-08-13_17h53.24.238,empathy_intonation_perc_control,2024.2.4,MacIntel,131.5789474,6740e1e09ca406ab781318cb,68817205a84113384fffdfe3,689d0920f75a44d79e3997f4,25.9198,28.5532,0,1,2.1244,,0,5,5,7,1,./stim/wavs/puertorican_statement_filler_La-nina-pinta-con-su-amiga.wav,0,,,,,,,,,,,,,,,,,,,,,,,,,,,,,,,,,,,,,,,,,,,,,,,,,,,,,,,,,,,,,,,,,,,,,,,,
,,,,,,,,,6740e1e09ca406ab781318cb,Spanish,13 or older,"no, only English or Spanish",no,2025-08-13_17h53.24.238,empathy_intonation_perc_control,2024.2.4,MacIntel,131.5789474,6740e1e09ca406ab781318cb,68817205a84113384fffdfe3,689d0920f75a44d79e3997f4,28.5537,31.0447,0,1,1.9769,,0,6,6,5,1,./stim/wavs/andalusian_statement_filler_Alberto-nunca-se-afeita.wav,0,,,,,,,,,,,,,,,,,,,,,,,,,,,,,,,,,,,,,,,,,,,,,,,,,,,,,,,,,,,,,,,,,,,,,,,,
,,,,,,,,,6740e1e09ca406ab781318cb,Spanish,13 or older,"no, only English or Spanish",no,2025-08-13_17h53.24.238,empathy_intonation_perc_control,2024.2.4,MacIntel,131.5789474,6740e1e09ca406ab781318cb,68817205a84113384fffdfe3,689d0920f75a44d79e3997f4,31.0453,33.9445,1,1,2.3858,,0,7,7,2,1,./stim/wavs/chilean_question_filler_Mi-padre-cantaba-bien.wav,1,,,,,,,,,,,,,,,,,,,,,,,,,,,,,,,,,,,,,,,,,,,,,,,,,,,,,,,,,,,,,,,,,,,,,,,,
,,,,,,,,,6740e1e09ca406ab781318cb,Spanish,13 or older,"no, only English or Spanish",no,2025-08-13_17h53.24.238,empathy_intonation_perc_control,2024.2.4,MacIntel,131.5789474,6740e1e09ca406ab781318cb,68817205a84113384fffdfe3,689d0920f75a44d79e3997f4,,,,,,,,,,,,,,33.9448,38.3114,,,,,,,,,,,,,,,,,,,,,,,,,,,,,,,,,,,,,,,,,,,,,,,,,,,,,,,,,,,,,,,,,,,,,,
,,,,,,,,,6740e1e09ca406ab781318cb,Spanish,13 or older,"no, only English or Spanish",no,2025-08-13_17h53.24.238,empathy_intonation_perc_control,2024.2.4,MacIntel,131.5789474,6740e1e09ca406ab781318cb,68817205a84113384fffdfe3,689d0920f75a44d79e3997f4,,,,,,,,,,,,./stim/wavs/mexican_match_interrogative-total-yn_Marta-abre-el-regalo.wav,1,,,38.32,40.786,1,1,1.953,,0,0,0,17,1,18,0,mexican,,,,,,,,,,,,,,,,,,,,,,,,,,,,,,,,,,,,,,,,,,,,,,,,,,,,,,,,
,,,,,,,,,6740e1e09ca406ab781318cb,Spanish,13 or older,"no, only English or Spanish",no,2025-08-13_17h53.24.238,empathy_intonation_perc_control,2024.2.4,MacIntel,131.5789474,6740e1e09ca406ab781318cb,68817205a84113384fffdfe3,689d0920f75a44d79e3997f4,,,,,,,,,,,,./stim/wavs/puertorican_mismatch_interrogative-total-yn_El-hombre-mira-la-luna.wav,1,,,40.7865,44.5945,0,0,3.2945,,0,1,1,39,1,40,1,puertorican,,,,,,,,,,,,,,,,,,,,,,,,,,,,,,,,,,,,,,,,,,,,,,,,,,,,,,,,
,,,,,,,,,6740e1e09ca406ab781318cb,Spanish,13 or older,"no, only English or Spanish",no,2025-08-13_17h53.24.238,empathy_intonation_perc_control,2024.2.4,MacIntel,131.5789474,6740e1e09ca406ab781318cb,68817205a84113384fffdfe3,689d0920f75a44d79e3997f4,,,,,,,,,,,,./stim/wavs/mexican_match_declarative-broad-focus_Marta-abre-el-regalo.wav,0,,,44.5949,48.1113,1,0,3.0013,,0,2,2,61,1,62,0,mexican,,,,,,,,,,,,,,,,,,,,,,,,,,,,,,,,,,,,,,,,,,,,,,,,,,,,,,,,
,,,,,,,,,6740e1e09ca406ab781318cb,Spanish,13 or older,"no, only English or Spanish",no,2025-08-13_17h53.24.238,empathy_intonation_perc_control,2024.2.4,MacIntel,131.5789474,6740e1e09ca406ab781318cb,68817205a84113384fffdfe3,689d0920f75a44d79e3997f4,,,,,,,,,,,,./stim/wavs/puertorican_mismatch_interrogative-total-yn_El-nino-oye-el-rio.wav,1,,,48.1115,51.6024,0,0,2.9778,,0,3,3,40,1,41,1,puertorican,,,,,,,,,,,,,,,,,,,,,,,,,,,,,,,,,,,,,,,,,,,,,,,,,,,,,,,,
,,,,,,,,,6740e1e09ca406ab781318cb,Spanish,13 or older,"no, only English or Spanish",no,2025-08-13_17h53.24.238,empathy_intonation_perc_control,2024.2.4,MacIntel,131.5789474,6740e1e09ca406ab781318cb,68817205a84113384fffdfe3,689d0920f75a44d79e3997f4,,,,,,,,,,,,./stim/wavs/cuban_mismatch_declarative-broad-focus_Mi-tia-odia-la-lluvia.wav,0,,,51.6028,54.0197,0,1,1.9096,,0,4,4,77,1,78,0,cuban,,,,,,,,,,,,,,,,,,,,,,,,,,,,,,,,,,,,,,,,,,,,,,,,,,,,,,,,
,,,,,,,,,6740e1e09ca406ab781318cb,Spanish,13 or older,"no, only English or Spanish",no,2025-08-13_17h53.24.238,empathy_intonation_perc_control,2024.2.4,MacIntel,131.5789474,6740e1e09ca406ab781318cb,68817205a84113384fffdfe3,689d0920f75a44d79e3997f4,,,,,,,,,,,,./stim/wavs/mexican_mismatch_interrogative-total-yn_Mi-tia-odia-la-lluvia.wav,1,,,54.0202,56.5022,1,1,1.9739,,0,5,5,38,1,39,0,mexican,,,,,,,,,,,,,,,,,,,,,,,,,,,,,,,,,,,,,,,,,,,,,,,,,,,,,,,,
,,,,,,,,,6740e1e09ca406ab781318cb,Spanish,13 or older,"no, only English or Spanish",no,2025-08-13_17h53.24.238,empathy_intonation_perc_control,2024.2.4,MacIntel,131.5789474,6740e1e09ca406ab781318cb,68817205a84113384fffdfe3,689d0920f75a44d79e3997f4,,,,,,,,,,,,./stim/wavs/mexican_mismatch_interrogative-total-yn_La-maestra-vive-en-Paris.wav,1,,,56.5026,59.2195,1,1,2.2003,,0,6,6,36,1,37,0,mexican,,,,,,,,,,,,,,,,,,,,,,,,,,,,,,,,,,,,,,,,,,,,,,,,,,,,,,,,
,,,,,,,,,6740e1e09ca406ab781318cb,Spanish,13 or older,"no, only English or Spanish",no,2025-08-13_17h53.24.238,empathy_intonation_perc_control,2024.2.4,MacIntel,131.5789474,6740e1e09ca406ab781318cb,68817205a84113384fffdfe3,689d0920f75a44d79e3997f4,,,,,,,,,,,,./stim/wavs/mexican_mismatch_declarative-broad-focus_Mi-novio-viene-del-lago.wav,0,,,59.2198,61.5027,0,1,1.7644,,0,7,7,81,1,82,0,mexican,,,,,,,,,,,,,,,,,,,,,,,,,,,,,,,,,,,,,,,,,,,,,,,,,,,,,,,,
,,,,,,,,,6740e1e09ca406ab781318cb,Spanish,13 or older,"no, only English or Spanish",no,2025-08-13_17h53.24.238,empathy_intonation_perc_control,2024.2.4,MacIntel,131.5789474,6740e1e09ca406ab781318cb,68817205a84113384fffdfe3,689d0920f75a44d79e3997f4,,,,,,,,,,,,./stim/wavs/cuban_match_declarative-broad-focus_Manuela-vende-el-carro.wav,0,,,61.5032,63.9695,0,1,1.9612,,0,8,8,52,1,53,0,cuban,,,,,,,,,,,,,,,,,,,,,,,,,,,,,,,,,,,,,,,,,,,,,,,,,,,,,,,,
,,,,,,,,,6740e1e09ca406ab781318cb,Spanish,13 or older,"no, only English or Spanish",no,2025-08-13_17h53.24.238,empathy_intonation_perc_control,2024.2.4,MacIntel,131.5789474,6740e1e09ca406ab781318cb,68817205a84113384fffdfe3,689d0920f75a44d79e3997f4,,,,,,,,,,,,./stim/wavs/mexican_match_interrogative-total-yn_Ana-lleva-el-abrigo.wav,1,,,63.9699,66.4783,1,1,1.9823,,0,9,9,12,1,13,0,mexican,,,,,,,,,,,,,,,,,,,,,,,,,,,,,,,,,,,,,,,,,,,,,,,,,,,,,,,,
,,,,,,,,,6740e1e09ca406ab781318cb,Spanish,13 or older,"no, only English or Spanish",no,2025-08-13_17h53.24.238,empathy_intonation_perc_control,2024.2.4,MacIntel,131.5789474,6740e1e09ca406ab781318cb,68817205a84113384fffdfe3,689d0920f75a44d79e3997f4,,,,,,,,,,,,./stim/wavs/mexican_mismatch_interrogative-total-yn_El-hombre-mira-la-luna.wav,1,,,66.4786,68.7695,1,1,1.7827,,0,10,10,34,1,35,0,mexican,,,,,,,,,,,,,,,,,,,,,,,,,,,,,,,,,,,,,,,,,,,,,,,,,,,,,,,,
,,,,,,,,,6740e1e09ca406ab781318cb,Spanish,13 or older,"no, only English or Spanish",no,2025-08-13_17h53.24.238,empathy_intonation_perc_control,2024.2.4,MacIntel,131.5789474,6740e1e09ca406ab781318cb,68817205a84113384fffdfe3,689d0920f75a44d79e3997f4,,,,,,,,,,,,./stim/wavs/cuban_match_declarative-broad-focus_Ana-lleva-el-abrigo.wav,0,,,68.77,71.5221,0,1,2.2386,,0,11,11,50,1,51,0,cuban,,,,,,,,,,,,,,,,,,,,,,,,,,,,,,,,,,,,,,,,,,,,,,,,,,,,,,,,
,,,,,,,,,6740e1e09ca406ab781318cb,Spanish,13 or older,"no, only English or Spanish",no,2025-08-13_17h53.24.238,empathy_intonation_perc_control,2024.2.4,MacIntel,131.5789474,6740e1e09ca406ab781318cb,68817205a84113384fffdfe3,689d0920f75a44d79e3997f4,,,,,,,,,,,,./stim/wavs/puertorican_match_interrogative-total-yn_Daniel-iba-a-Bolivia.wav,1,,,71.5235,73.9782,0,0,1.941,,0,12,12,19,1,20,1,puertorican,,,,,,,,,,,,,,,,,,,,,,,,,,,,,,,,,,,,,,,,,,,,,,,,,,,,,,,,
,,,,,,,,,6740e1e09ca406ab781318cb,Spanish,13 or older,"no, only English or Spanish",no,2025-08-13_17h53.24.238,empathy_intonation_perc_control,2024.2.4,MacIntel,131.5789474,6740e1e09ca406ab781318cb,68817205a84113384fffdfe3,689d0920f75a44d79e3997f4,,,,,,,,,,,,./stim/wavs/cuban_match_interrogative-total-yn_Maria-bebe-el-vino.wav,1,,,73.9786,76.9954,0,0,2.5132,,0,13,13,9,1,10,1,cuban,,,,,,,,,,,,,,,,,,,,,,,,,,,,,,,,,,,,,,,,,,,,,,,,,,,,,,,,
,,,,,,,,,6740e1e09ca406ab781318cb,Spanish,13 or older,"no, only English or Spanish",no,2025-08-13_17h53.24.238,empathy_intonation_perc_control,2024.2.4,MacIntel,131.5789474,6740e1e09ca406ab781318cb,68817205a84113384fffdfe3,689d0920f75a44d79e3997f4,,,,,,,,,,,,./stim/wavs/castilian_mismatch_declarative-broad-focus_El-nino-oye-el-rio.wav,0,,,76.9957,79.5033,0,1,1.9922,,0,14,14,68,1,69,0,castilian,,,,,,,,,,,,,,,,,,,,,,,,,,,,,,,,,,,,,,,,,,,,,,,,,,,,,,,,
,,,,,,,,,6740e1e09ca406ab781318cb,Spanish,13 or older,"no, only English or Spanish",no,2025-08-13_17h53.24.238,empathy_intonation_perc_control,2024.2.4,MacIntel,131.5789474,6740e1e09ca406ab781318cb,68817205a84113384fffdfe3,689d0920f75a44d79e3997f4,,,,,,,,,,,,./stim/wavs/puertorican_match_declarative-broad-focus_Daniel-iba-a-Bolivia.wav,0,,,79.5037,81.7616,0,1,1.7425,,0,15,15,63,1,64,0,puertorican,,,,,,,,,,,,,,,,,,,,,,,,,,,,,,,,,,,,,,,,,,,,,,,,,,,,,,,,
,,,,,,,,,6740e1e09ca406ab781318cb,Spanish,13 or older,"no, only English or Spanish",no,2025-08-13_17h53.24.238,empathy_intonation_perc_control,2024.2.4,MacIntel,131.5789474,6740e1e09ca406ab781318cb,68817205a84113384fffdfe3,689d0920f75a44d79e3997f4,,,,,,,,,,,,./stim/wavs/castilian_mismatch_declarative-broad-focus_La-maestra-vive-en-Paris.wav,0,,,81.7619,84.9369,0,1,2.663,,0,16,16,69,1,70,0,castilian,,,,,,,,,,,,,,,,,,,,,,,,,,,,,,,,,,,,,,,,,,,,,,,,,,,,,,,,
,,,,,,,,,6740e1e09ca406ab781318cb,Spanish,13 or older,"no, only English or Spanish",no,2025-08-13_17h53.24.238,empathy_intonation_perc_control,2024.2.4,MacIntel,131.5789474,6740e1e09ca406ab781318cb,68817205a84113384fffdfe3,689d0920f75a44d79e3997f4,,,,,,,,,,,,./stim/wavs/puertorican_match_declarative-broad-focus_David-leia-el-libro.wav,0,,,84.9371,87.4946,0,1,2.0427,,0,17,17,64,1,65,0,puertorican,,,,,,,,,,,,,,,,,,,,,,,,,,,,,,,,,,,,,,,,,,,,,,,,,,,,,,,,
,,,,,,,,,6740e1e09ca406ab781318cb,Spanish,13 or older,"no, only English or Spanish",no,2025-08-13_17h53.24.238,empathy_intonation_perc_control,2024.2.4,MacIntel,131.5789474,6740e1e09ca406ab781318cb,68817205a84113384fffdfe3,689d0920f75a44d79e3997f4,,,,,,,,,,,,./stim/wavs/castilian_match_declarative-broad-focus_David-leia-el-libro.wav,0,,,87.4952,89.9033,0,1,1.8909,,0,18,18,44,1,45,0,castilian,,,,,,,,,,,,,,,,,,,,,,,,,,,,,,,,,,,,,,,,,,,,,,,,,,,,,,,,
,,,,,,,,,6740e1e09ca406ab781318cb,Spanish,13 or older,"no, only English or Spanish",no,2025-08-13_17h53.24.238,empathy_intonation_perc_control,2024.2.4,MacIntel,131.5789474,6740e1e09ca406ab781318cb,68817205a84113384fffdfe3,689d0920f75a44d79e3997f4,,,,,,,,,,,,./stim/wavs/cuban_match_interrogative-total-yn_Daniel-iba-a-Bolivia.wav,1,,,89.9036,92.8283,0,0,2.4089,,0,19,19,7,1,8,1,cuban,,,,,,,,,,,,,,,,,,,,,,,,,,,,,,,,,,,,,,,,,,,,,,,,,,,,,,,,
,,,,,,,,,6740e1e09ca406ab781318cb,Spanish,13 or older,"no, only English or Spanish",no,2025-08-13_17h53.24.238,empathy_intonation_perc_control,2024.2.4,MacIntel,131.5789474,6740e1e09ca406ab781318cb,68817205a84113384fffdfe3,689d0920f75a44d79e3997f4,,,,,,,,,,,,./stim/wavs/puertorican_mismatch_declarative-broad-focus_El-nino-oye-el-rio.wav,0,,,92.8285,95.2858,0,1,1.9476,,0,20,20,85,1,86,0,puertorican,,,,,,,,,,,,,,,,,,,,,,,,,,,,,,,,,,,,,,,,,,,,,,,,,,,,,,,,
,,,,,,,,,6740e1e09ca406ab781318cb,Spanish,13 or older,"no, only English or Spanish",no,2025-08-13_17h53.24.238,empathy_intonation_perc_control,2024.2.4,MacIntel,131.5789474,6740e1e09ca406ab781318cb,68817205a84113384fffdfe3,689d0920f75a44d79e3997f4,,,,,,,,,,,,./stim/wavs/mexican_mismatch_declarative-broad-focus_El-hombre-mira-la-luna.wav,0,,,95.2863,98.9284,0,1,3.1338,,0,21,21,79,1,80,0,mexican,,,,,,,,,,,,,,,,,,,,,,,,,,,,,,,,,,,,,,,,,,,,,,,,,,,,,,,,
,,,,,,,,,6740e1e09ca406ab781318cb,Spanish,13 or older,"no, only English or Spanish",no,2025-08-13_17h53.24.238,empathy_intonation_perc_control,2024.2.4,MacIntel,131.5789474,6740e1e09ca406ab781318cb,68817205a84113384fffdfe3,689d0920f75a44d79e3997f4,,,,,,,,,,,,./stim/wavs/castilian_match_interrogative-total-yn_Marta-abre-el-regalo.wav,1,,,98.9288,101.4793,1,1,2.0389,,0,22,22,5,1,6,0,castilian,,,,,,,,,,,,,,,,,,,,,,,,,,,,,,,,,,,,,,,,,,,,,,,,,,,,,,,,
,,,,,,,,,6740e1e09ca406ab781318cb,Spanish,13 or older,"no, only English or Spanish",no,2025-08-13_17h53.24.238,empathy_intonation_perc_control,2024.2.4,MacIntel,131.5789474,6740e1e09ca406ab781318cb,68817205a84113384fffdfe3,689d0920f75a44d79e3997f4,,,,,,,,,,,,./stim/wavs/puertorican_match_declarative-broad-focus_Manuela-vende-el-carro.wav,0,,,101.4796,104.4608,0,1,2.4665,,0,23,23,66,1,67,0,puertorican,,,,,,,,,,,,,,,,,,,,,,,,,,,,,,,,,,,,,,,,,,,,,,,,,,,,,,,,
,,,,,,,,,6740e1e09ca406ab781318cb,Spanish,13 or older,"no, only English or Spanish",no,2025-08-13_17h53.24.238,empathy_intonation_perc_control,2024.2.4,MacIntel,131.5789474,6740e1e09ca406ab781318cb,68817205a84113384fffdfe3,689d0920f75a44d79e3997f4,,,,,,,,,,,,./stim/wavs/castilian_mismatch_declarative-broad-focus_Mi-novio-viene-del-lago.wav,0,,,104.4611,107.4362,0,1,2.4689,,0,24,24,71,1,72,0,castilian,,,,,,,,,,,,,,,,,,,,,,,,,,,,,,,,,,,,,,,,,,,,,,,,,,,,,,,,
,,,,,,,,,6740e1e09ca406ab781318cb,Spanish,13 or older,"no, only English or Spanish",no,2025-08-13_17h53.24.238,empathy_intonation_perc_control,2024.2.4,MacIntel,131.5789474,6740e1e09ca406ab781318cb,68817205a84113384fffdfe3,689d0920f75a44d79e3997f4,,,,,,,,,,,,./stim/wavs/castilian_match_interrogative-total-yn_Emilio-ama-la-marcha.wav,1,,,107.4365,109.97,1,1,2.0264,,0,25,25,1,1,2,0,castilian,,,,,,,,,,,,,,,,,,,,,,,,,,,,,,,,,,,,,,,,,,,,,,,,,,,,,,,,
,,,,,,,,,6740e1e09ca406ab781318cb,Spanish,13 or older,"no, only English or Spanish",no,2025-08-13_17h53.24.238,empathy_intonation_perc_control,2024.2.4,MacIntel,131.5789474,6740e1e09ca406ab781318cb,68817205a84113384fffdfe3,689d0920f75a44d79e3997f4,,,,,,,,,,,,./stim/wavs/castilian_match_interrogative-total-yn_David-leia-el-libro.wav,1,,,109.9705,112.5034,1,1,2.02,,0,26,26,0,1,1,0,castilian,,,,,,,,,,,,,,,,,,,,,,,,,,,,,,,,,,,,,,,,,,,,,,,,,,,,,,,,
,,,,,,,,,6740e1e09ca406ab781318cb,Spanish,13 or older,"no, only English or Spanish",no,2025-08-13_17h53.24.238,empathy_intonation_perc_control,2024.2.4,MacIntel,131.5789474,6740e1e09ca406ab781318cb,68817205a84113384fffdfe3,689d0920f75a44d79e3997f4,,,,,,,,,,,,./stim/wavs/castilian_mismatch_interrogative-total-yn_La-maestra-vive-en-Paris.wav,1,,,112.5037,115.1196,1,1,2.0984,,0,27,27,24,1,25,0,castilian,,,,,,,,,,,,,,,,,,,,,,,,,,,,,,,,,,,,,,,,,,,,,,,,,,,,,,,,
,,,,,,,,,6740e1e09ca406ab781318cb,Spanish,13 or older,"no, only English or Spanish",no,2025-08-13_17h53.24.238,empathy_intonation_perc_control,2024.2.4,MacIntel,131.5789474,6740e1e09ca406ab781318cb,68817205a84113384fffdfe3,689d0920f75a44d79e3997f4,,,,,,,,,,,,./stim/wavs/mexican_match_declarative-broad-focus_Ana-lleva-el-abrigo.wav,0,,,115.12,118.0364,0,1,2.4137,,0,28,28,56,1,57,0,mexican,,,,,,,,,,,,,,,,,,,,,,,,,,,,,,,,,,,,,,,,,,,,,,,,,,,,,,,,
,,,,,,,,,6740e1e09ca406ab781318cb,Spanish,13 or older,"no, only English or Spanish",no,2025-08-13_17h53.24.238,empathy_intonation_perc_control,2024.2.4,MacIntel,131.5789474,6740e1e09ca406ab781318cb,68817205a84113384fffdfe3,689d0920f75a44d79e3997f4,,,,,,,,,,,,./stim/wavs/puertorican_match_interrogative-total-yn_Ana-lleva-el-abrigo.wav,1,,,118.0366,120.5884,0,0,2.038,,0,29,29,18,1,19,1,puertorican,,,,,,,,,,,,,,,,,,,,,,,,,,,,,,,,,,,,,,,,,,,,,,,,,,,,,,,,
,,,,,,,,,6740e1e09ca406ab781318cb,Spanish,13 or older,"no, only English or Spanish",no,2025-08-13_17h53.24.238,empathy_intonation_perc_control,2024.2.4,MacIntel,131.5789474,6740e1e09ca406ab781318cb,68817205a84113384fffdfe3,689d0920f75a44d79e3997f4,,,,,,,,,,,,./stim/wavs/puertorican_mismatch_interrogative-total-yn_La-nina-lava-el-plato.wav,1,,,120.5887,123.8369,1,1,2.735,,0,30,30,42,1,43,1,puertorican,,,,,,,,,,,,,,,,,,,,,,,,,,,,,,,,,,,,,,,,,,,,,,,,,,,,,,,,
,,,,,,,,,6740e1e09ca406ab781318cb,Spanish,13 or older,"no, only English or Spanish",no,2025-08-13_17h53.24.238,empathy_intonation_perc_control,2024.2.4,MacIntel,131.5789474,6740e1e09ca406ab781318cb,68817205a84113384fffdfe3,689d0920f75a44d79e3997f4,,,,,,,,,,,,./stim/wavs/puertorican_match_declarative-broad-focus_Maria-bebe-el-vino.wav,0,,,123.8373,126.6112,0,1,2.2614,,0,31,31,67,1,68,0,puertorican,,,,,,,,,,,,,,,,,,,,,,,,,,,,,,,,,,,,,,,,,,,,,,,,,,,,,,,,
,,,,,,,,,6740e1e09ca406ab781318cb,Spanish,13 or older,"no, only English or Spanish",no,2025-08-13_17h53.24.238,empathy_intonation_perc_control,2024.2.4,MacIntel,131.5789474,6740e1e09ca406ab781318cb,68817205a84113384fffdfe3,689d0920f75a44d79e3997f4,,,,,,,,,,,,./stim/wavs/cuban_mismatch_interrogative-total-yn_El-hombre-mira-la-luna.wav,1,,,126.6114,129.4284,0,0,2.3097,,0,32,32,29,1,30,1,cuban,,,,,,,,,,,,,,,,,,,,,,,,,,,,,,,,,,,,,,,,,,,,,,,,,,,,,,,,
,,,,,,,,,6740e1e09ca406ab781318cb,Spanish,13 or older,"no, only English or Spanish",no,2025-08-13_17h53.24.238,empathy_intonation_perc_control,2024.2.4,MacIntel,131.5789474,6740e1e09ca406ab781318cb,68817205a84113384fffdfe3,689d0920f75a44d79e3997f4,,,,,,,,,,,,./stim/wavs/castilian_mismatch_interrogative-total-yn_La-nina-lava-el-plato.wav,1,,,129.429,131.9535,1,1,2.008,,0,33,33,25,1,26,0,castilian,,,,,,,,,,,,,,,,,,,,,,,,,,,,,,,,,,,,,,,,,,,,,,,,,,,,,,,,
,,,,,,,,,6740e1e09ca406ab781318cb,Spanish,13 or older,"no, only English or Spanish",no,2025-08-13_17h53.24.238,empathy_intonation_perc_control,2024.2.4,MacIntel,131.5789474,6740e1e09ca406ab781318cb,68817205a84113384fffdfe3,689d0920f75a44d79e3997f4,,,,,,,,,,,,./stim/wavs/castilian_match_interrogative-total-yn_Mariano-habla-del-tiempo.wav,1,,,131.9539,134.5036,1,1,2.0333,,0,34,34,4,1,5,0,castilian,,,,,,,,,,,,,,,,,,,,,,,,,,,,,,,,,,,,,,,,,,,,,,,,,,,,,,,,
,,,,,,,,,6740e1e09ca406ab781318cb,Spanish,13 or older,"no, only English or Spanish",no,2025-08-13_17h53.24.238,empathy_intonation_perc_control,2024.2.4,MacIntel,131.5789474,6740e1e09ca406ab781318cb,68817205a84113384fffdfe3,689d0920f75a44d79e3997f4,,,,,,,,,,,,./stim/wavs/cuban_mismatch_declarative-broad-focus_El-bebe-comia-muy-bien.wav,0,,,134.5039,137.0453,0,1,2.0259,,0,35,35,73,1,74,0,cuban,,,,,,,,,,,,,,,,,,,,,,,,,,,,,,,,,,,,,,,,,,,,,,,,,,,,,,,,
,,,,,,,,,6740e1e09ca406ab781318cb,Spanish,13 or older,"no, only English or Spanish",no,2025-08-13_17h53.24.238,empathy_intonation_perc_control,2024.2.4,MacIntel,131.5789474,6740e1e09ca406ab781318cb,68817205a84113384fffdfe3,689d0920f75a44d79e3997f4,,,,,,,,,,,,./stim/wavs/castilian_mismatch_interrogative-total-yn_Mi-tia-odia-la-lluvia.wav,1,,,137.0456,141.2111,1,1,3.6498,,0,36,36,28,1,29,0,castilian,,,,,,,,,,,,,,,,,,,,,,,,,,,,,,,,,,,,,,,,,,,,,,,,,,,,,,,,
,,,,,,,,,6740e1e09ca406ab781318cb,Spanish,13 or older,"no, only English or Spanish",no,2025-08-13_17h53.24.238,empathy_intonation_perc_control,2024.2.4,MacIntel,131.5789474,6740e1e09ca406ab781318cb,68817205a84113384fffdfe3,689d0920f75a44d79e3997f4,,,,,,,,,,,,./stim/wavs/puertorican_match_interrogative-total-yn_Emilio-ama-la-marcha.wav,1,,,141.2114,143.4536,0,0,1.7379,,0,37,37,21,1,22,1,puertorican,,,,,,,,,,,,,,,,,,,,,,,,,,,,,,,,,,,,,,,,,,,,,,,,,,,,,,,,
,,,,,,,,,6740e1e09ca406ab781318cb,Spanish,13 or older,"no, only English or Spanish",no,2025-08-13_17h53.24.238,empathy_intonation_perc_control,2024.2.4,MacIntel,131.5789474,6740e1e09ca406ab781318cb,68817205a84113384fffdfe3,689d0920f75a44d79e3997f4,,,,,,,,,,,,./stim/wavs/mexican_match_interrogative-total-yn_Mariano-habla-del-tiempo.wav,1,,,143.454,145.9452,1,1,1.9858,,0,38,38,16,1,17,0,mexican,,,,,,,,,,,,,,,,,,,,,,,,,,,,,,,,,,,,,,,,,,,,,,,,,,,,,,,,
,,,,,,,,,6740e1e09ca406ab781318cb,Spanish,13 or older,"no, only English or Spanish",no,2025-08-13_17h53.24.238,empathy_intonation_perc_control,2024.2.4,MacIntel,131.5789474,6740e1e09ca406ab781318cb,68817205a84113384fffdfe3,689d0920f75a44d79e3997f4,,,,,,,,,,,,./stim/wavs/cuban_match_interrogative-total-yn_Mariano-habla-del-tiempo.wav,1,,,145.9455,149.5373,1,1,3.078,,0,39,39,10,1,11,1,cuban,,,,,,,,,,,,,,,,,,,,,,,,,,,,,,,,,,,,,,,,,,,,,,,,,,,,,,,,
,,,,,,,,,6740e1e09ca406ab781318cb,Spanish,13 or older,"no, only English or Spanish",no,2025-08-13_17h53.24.238,empathy_intonation_perc_control,2024.2.4,MacIntel,131.5789474,6740e1e09ca406ab781318cb,68817205a84113384fffdfe3,689d0920f75a44d79e3997f4,,,,,,,,,,,,./stim/wavs/mexican_mismatch_declarative-broad-focus_La-maestra-vive-en-Paris.wav,0,,,149.5376,152.0954,0,1,2.04,,0,40,40,80,1,81,0,mexican,,,,,,,,,,,,,,,,,,,,,,,,,,,,,,,,,,,,,,,,,,,,,,,,,,,,,,,,
,,,,,,,,,6740e1e09ca406ab781318cb,Spanish,13 or older,"no, only English or Spanish",no,2025-08-13_17h53.24.238,empathy_intonation_perc_control,2024.2.4,MacIntel,131.5789474,6740e1e09ca406ab781318cb,68817205a84113384fffdfe3,689d0920f75a44d79e3997f4,,,,,,,,,,,,./stim/wavs/castilian_mismatch_declarative-broad-focus_La-nina-lava-el-plato.wav,0,,,152.0956,154.712,0,1,2.1034,,0,41,41,70,1,71,0,castilian,,,,,,,,,,,,,,,,,,,,,,,,,,,,,,,,,,,,,,,,,,,,,,,,,,,,,,,,
,,,,,,,,,6740e1e09ca406ab781318cb,Spanish,13 or older,"no, only English or Spanish",no,2025-08-13_17h53.24.238,empathy_intonation_perc_control,2024.2.4,MacIntel,131.5789474,6740e1e09ca406ab781318cb,68817205a84113384fffdfe3,689d0920f75a44d79e3997f4,,,,,,,,,,,,./stim/wavs/castilian_match_interrogative-total-yn_Maria-bebe-el-vino.wav,1,,,154.7124,156.9873,1,1,1.7621,,0,42,42,3,1,4,0,castilian,,,,,,,,,,,,,,,,,,,,,,,,,,,,,,,,,,,,,,,,,,,,,,,,,,,,,,,,
,,,,,,,,,6740e1e09ca406ab781318cb,Spanish,13 or older,"no, only English or Spanish",no,2025-08-13_17h53.24.238,empathy_intonation_perc_control,2024.2.4,MacIntel,131.5789474,6740e1e09ca406ab781318cb,68817205a84113384fffdfe3,689d0920f75a44d79e3997f4,,,,,,,,,,,,./stim/wavs/cuban_match_declarative-broad-focus_Maria-bebe-el-vino.wav,0,,,156.9875,159.3872,0,1,1.8891,,0,43,43,53,1,54,0,cuban,,,,,,,,,,,,,,,,,,,,,,,,,,,,,,,,,,,,,,,,,,,,,,,,,,,,,,,,
,,,,,,,,,6740e1e09ca406ab781318cb,Spanish,13 or older,"no, only English or Spanish",no,2025-08-13_17h53.24.238,empathy_intonation_perc_control,2024.2.4,MacIntel,131.5789474,6740e1e09ca406ab781318cb,68817205a84113384fffdfe3,689d0920f75a44d79e3997f4,,,,,,,,,,,,./stim/wavs/mexican_mismatch_declarative-broad-focus_El-bebe-comia-muy-bien.wav,0,,,159.3877,161.8954,0,1,1.9927,,0,44,44,78,1,79,0,mexican,,,,,,,,,,,,,,,,,,,,,,,,,,,,,,,,,,,,,,,,,,,,,,,,,,,,,,,,
,,,,,,,,,6740e1e09ca406ab781318cb,Spanish,13 or older,"no, only English or Spanish",no,2025-08-13_17h53.24.238,empathy_intonation_perc_control,2024.2.4,MacIntel,131.5789474,6740e1e09ca406ab781318cb,68817205a84113384fffdfe3,689d0920f75a44d79e3997f4,,,,,,,,,,,,./stim/wavs/castilian_match_interrogative-total-yn_Manuela-vende-el-carro.wav,1,,,161.8956,164.6951,1,1,2.2833,,0,45,45,2,1,3,0,castilian,,,,,,,,,,,,,,,,,,,,,,,,,,,,,,,,,,,,,,,,,,,,,,,,,,,,,,,,
,,,,,,,,,6740e1e09ca406ab781318cb,Spanish,13 or older,"no, only English or Spanish",no,2025-08-13_17h53.24.238,empathy_intonation_perc_control,2024.2.4,MacIntel,131.5789474,6740e1e09ca406ab781318cb,68817205a84113384fffdfe3,689d0920f75a44d79e3997f4,,,,,,,,,,,,./stim/wavs/mexican_match_interrogative-total-yn_David-leia-el-libro.wav,1,,,164.6954,167.379,1,1,2.1803,,0,46,46,14,1,15,0,mexican,,,,,,,,,,,,,,,,,,,,,,,,,,,,,,,,,,,,,,,,,,,,,,,,,,,,,,,,
,,,,,,,,,6740e1e09ca406ab781318cb,Spanish,13 or older,"no, only English or Spanish",no,2025-08-13_17h53.24.238,empathy_intonation_perc_control,2024.2.4,MacIntel,131.5789474,6740e1e09ca406ab781318cb,68817205a84113384fffdfe3,689d0920f75a44d79e3997f4,,,,,,,,,,,,./stim/wavs/castilian_mismatch_interrogative-total-yn_Mi-madre-come-la-fruta.wav,1,,,167.3793,169.9783,1,1,2.0875,,0,47,47,26,1,27,0,castilian,,,,,,,,,,,,,,,,,,,,,,,,,,,,,,,,,,,,,,,,,,,,,,,,,,,,,,,,
,,,,,,,,,6740e1e09ca406ab781318cb,Spanish,13 or older,"no, only English or Spanish",no,2025-08-13_17h53.24.238,empathy_intonation_perc_control,2024.2.4,MacIntel,131.5789474,6740e1e09ca406ab781318cb,68817205a84113384fffdfe3,689d0920f75a44d79e3997f4,,,,,,,,,,,,./stim/wavs/mexican_match_interrogative-total-yn_Daniel-iba-a-Bolivia.wav,1,,,169.9788,173.2873,1,1,2.8006,,0,48,48,13,1,14,0,mexican,,,,,,,,,,,,,,,,,,,,,,,,,,,,,,,,,,,,,,,,,,,,,,,,,,,,,,,,
,,,,,,,,,6740e1e09ca406ab781318cb,Spanish,13 or older,"no, only English or Spanish",no,2025-08-13_17h53.24.238,empathy_intonation_perc_control,2024.2.4,MacIntel,131.5789474,6740e1e09ca406ab781318cb,68817205a84113384fffdfe3,689d0920f75a44d79e3997f4,,,,,,,,,,,,./stim/wavs/puertorican_mismatch_declarative-broad-focus_La-nina-lava-el-plato.wav,0,,,173.2876,175.5983,0,1,1.7981,,0,49,49,87,1,88,0,puertorican,,,,,,,,,,,,,,,,,,,,,,,,,,,,,,,,,,,,,,,,,,,,,,,,,,,,,,,,
,,,,,,,,,6740e1e09ca406ab781318cb,Spanish,13 or older,"no, only English or Spanish",no,2025-08-13_17h53.24.238,empathy_intonation_perc_control,2024.2.4,MacIntel,131.5789474,6740e1e09ca406ab781318cb,68817205a84113384fffdfe3,689d0920f75a44d79e3997f4,,,,,,,,,,,,./stim/wavs/cuban_mismatch_declarative-broad-focus_El-hombre-mira-la-luna.wav,0,,,175.5987,178.7286,1,0,2.6259,,0,50,50,74,1,75,0,cuban,,,,,,,,,,,,,,,,,,,,,,,,,,,,,,,,,,,,,,,,,,,,,,,,,,,,,,,,
,,,,,,,,,6740e1e09ca406ab781318cb,Spanish,13 or older,"no, only English or Spanish",no,2025-08-13_17h53.24.238,empathy_intonation_perc_control,2024.2.4,MacIntel,131.5789474,6740e1e09ca406ab781318cb,68817205a84113384fffdfe3,689d0920f75a44d79e3997f4,,,,,,,,,,,,./stim/wavs/puertorican_match_declarative-broad-focus_Emilio-ama-la-marcha.wav,0,,,178.7289,181.9955,0,1,2.7554,,0,51,51,65,1,66,0,puertorican,,,,,,,,,,,,,,,,,,,,,,,,,,,,,,,,,,,,,,,,,,,,,,,,,,,,,,,,
,,,,,,,,,6740e1e09ca406ab781318cb,Spanish,13 or older,"no, only English or Spanish",no,2025-08-13_17h53.24.238,empathy_intonation_perc_control,2024.2.4,MacIntel,131.5789474,6740e1e09ca406ab781318cb,68817205a84113384fffdfe3,689d0920f75a44d79e3997f4,,,,,,,,,,,,./stim/wavs/mexican_match_declarative-broad-focus_Emilio-ama-la-marcha.wav,0,,,181.9958,184.5783,0,1,2.0691,,0,52,52,59,1,60,0,mexican,,,,,,,,,,,,,,,,,,,,,,,,,,,,,,,,,,,,,,,,,,,,,,,,,,,,,,,,
,,,,,,,,,6740e1e09ca406ab781318cb,Spanish,13 or older,"no, only English or Spanish",no,2025-08-13_17h53.24.238,empathy_intonation_perc_control,2024.2.4,MacIntel,131.5789474,6740e1e09ca406ab781318cb,68817205a84113384fffdfe3,689d0920f75a44d79e3997f4,,,,,,,,,,,,./stim/wavs/mexican_match_interrogative-total-yn_Emilio-ama-la-marcha.wav,1,,,184.5788,186.7968,1,1,1.703,,0,53,53,15,1,16,0,mexican,,,,,,,,,,,,,,,,,,,,,,,,,,,,,,,,,,,,,,,,,,,,,,,,,,,,,,,,
,,,,,,,,,6740e1e09ca406ab781318cb,Spanish,13 or older,"no, only English or Spanish",no,2025-08-13_17h53.24.238,empathy_intonation_perc_control,2024.2.4,MacIntel,131.5789474,6740e1e09ca406ab781318cb,68817205a84113384fffdfe3,689d0920f75a44d79e3997f4,,,,,,,,,,,,./stim/wavs/castilian_match_declarative-broad-focus_Maria-bebe-el-vino.wav,0,,,186.797,189.1336,0,1,1.8278,,0,54,54,47,1,48,0,castilian,,,,,,,,,,,,,,,,,,,,,,,,,,,,,,,,,,,,,,,,,,,,,,,,,,,,,,,,
,,,,,,,,,6740e1e09ca406ab781318cb,Spanish,13 or older,"no, only English or Spanish",no,2025-08-13_17h53.24.238,empathy_intonation_perc_control,2024.2.4,MacIntel,131.5789474,6740e1e09ca406ab781318cb,68817205a84113384fffdfe3,689d0920f75a44d79e3997f4,,,,,,,,,,,,./stim/wavs/puertorican_mismatch_declarative-broad-focus_El-hombre-mira-la-luna.wav,0,,,189.1339,191.4039,0,1,1.7585,,0,55,55,84,1,85,0,puertorican,,,,,,,,,,,,,,,,,,,,,,,,,,,,,,,,,,,,,,,,,,,,,,,,,,,,,,,,
,,,,,,,,,6740e1e09ca406ab781318cb,Spanish,13 or older,"no, only English or Spanish",no,2025-08-13_17h53.24.238,empathy_intonation_perc_control,2024.2.4,MacIntel,131.5789474,6740e1e09ca406ab781318cb,68817205a84113384fffdfe3,689d0920f75a44d79e3997f4,,,,,,,,,,,,./stim/wavs/mexican_mismatch_declarative-broad-focus_Mi-tia-odia-la-lluvia.wav,0,,,191.4042,193.5957,0,1,1.6754,,0,56,56,82,1,83,0,mexican,,,,,,,,,,,,,,,,,,,,,,,,,,,,,,,,,,,,,,,,,,,,,,,,,,,,,,,,
,,,,,,,,,6740e1e09ca406ab781318cb,Spanish,13 or older,"no, only English or Spanish",no,2025-08-13_17h53.24.238,empathy_intonation_perc_control,2024.2.4,MacIntel,131.5789474,6740e1e09ca406ab781318cb,68817205a84113384fffdfe3,689d0920f75a44d79e3997f4,,,,,,,,,,,,./stim/wavs/puertorican_match_interrogative-total-yn_David-leia-el-libro.wav,1,,,193.596,195.8541,0,0,1.7388,,0,57,57,20,1,21,1,puertorican,,,,,,,,,,,,,,,,,,,,,,,,,,,,,,,,,,,,,,,,,,,,,,,,,,,,,,,,
,,,,,,,,,6740e1e09ca406ab781318cb,Spanish,13 or older,"no, only English or Spanish",no,2025-08-13_17h53.24.238,empathy_intonation_perc_control,2024.2.4,MacIntel,131.5789474,6740e1e09ca406ab781318cb,68817205a84113384fffdfe3,689d0920f75a44d79e3997f4,,,,,,,,,,,,./stim/wavs/castilian_mismatch_interrogative-total-yn_Mi-novio-viene-del-lago.wav,1,,,195.8545,198.3616,1,1,1.9933,,0,58,58,27,1,28,0,castilian,,,,,,,,,,,,,,,,,,,,,,,,,,,,,,,,,,,,,,,,,,,,,,,,,,,,,,,,
,,,,,,,,,6740e1e09ca406ab781318cb,Spanish,13 or older,"no, only English or Spanish",no,2025-08-13_17h53.24.238,empathy_intonation_perc_control,2024.2.4,MacIntel,131.5789474,6740e1e09ca406ab781318cb,68817205a84113384fffdfe3,689d0920f75a44d79e3997f4,,,,,,,,,,,,./stim/wavs/castilian_match_declarative-broad-focus_Emilio-ama-la-marcha.wav,0,,,198.362,202.0126,0,1,3.1468,,0,59,59,45,1,46,0,castilian,,,,,,,,,,,,,,,,,,,,,,,,,,,,,,,,,,,,,,,,,,,,,,,,,,,,,,,,
,,,,,,,,,6740e1e09ca406ab781318cb,Spanish,13 or older,"no, only English or Spanish",no,2025-08-13_17h53.24.238,empathy_intonation_perc_control,2024.2.4,MacIntel,131.5789474,6740e1e09ca406ab781318cb,68817205a84113384fffdfe3,689d0920f75a44d79e3997f4,,,,,,,,,,,,./stim/wavs/puertorican_mismatch_interrogative-total-yn_La-maestra-vive-en-Paris.wav,1,,,202.0129,204.4149,0,0,1.8888,,0,60,60,41,1,42,1,puertorican,,,,,,,,,,,,,,,,,,,,,,,,,,,,,,,,,,,,,,,,,,,,,,,,,,,,,,,,
,,,,,,,,,6740e1e09ca406ab781318cb,Spanish,13 or older,"no, only English or Spanish",no,2025-08-13_17h53.24.238,empathy_intonation_perc_control,2024.2.4,MacIntel,131.5789474,6740e1e09ca406ab781318cb,68817205a84113384fffdfe3,689d0920f75a44d79e3997f4,,,,,,,,,,,,./stim/wavs/cuban_mismatch_declarative-broad-focus_Mi-novio-viene-del-lago.wav,0,,,204.4152,207.0209,0,1,2.0928,,0,61,61,76,1,77,0,cuban,,,,,,,,,,,,,,,,,,,,,,,,,,,,,,,,,,,,,,,,,,,,,,,,,,,,,,,,
,,,,,,,,,6740e1e09ca406ab781318cb,Spanish,13 or older,"no, only English or Spanish",no,2025-08-13_17h53.24.238,empathy_intonation_perc_control,2024.2.4,MacIntel,131.5789474,6740e1e09ca406ab781318cb,68817205a84113384fffdfe3,689d0920f75a44d79e3997f4,,,,,,,,,,,,./stim/wavs/cuban_mismatch_declarative-broad-focus_La-nina-lava-el-plato.wav,0,,,207.0212,209.3699,0,1,1.8335,,0,62,62,75,1,76,0,cuban,,,,,,,,,,,,,,,,,,,,,,,,,,,,,,,,,,,,,,,,,,,,,,,,,,,,,,,,
,,,,,,,,,6740e1e09ca406ab781318cb,Spanish,13 or older,"no, only English or Spanish",no,2025-08-13_17h53.24.238,empathy_intonation_perc_control,2024.2.4,MacIntel,131.5789474,6740e1e09ca406ab781318cb,68817205a84113384fffdfe3,689d0920f75a44d79e3997f4,,,,,,,,,,,,./stim/wavs/cuban_mismatch_interrogative-total-yn_Mi-tia-odia-la-lluvia.wav,1,,,209.3703,211.937,1,1,2.0613,,0,63,63,33,1,34,1,cuban,,,,,,,,,,,,,,,,,,,,,,,,,,,,,,,,,,,,,,,,,,,,,,,,,,,,,,,,
,,,,,,,,,6740e1e09ca406ab781318cb,Spanish,13 or older,"no, only English or Spanish",no,2025-08-13_17h53.24.238,empathy_intonation_perc_control,2024.2.4,MacIntel,131.5789474,6740e1e09ca406ab781318cb,68817205a84113384fffdfe3,689d0920f75a44d79e3997f4,,,,,,,,,,,,./stim/wavs/mexican_match_declarative-broad-focus_Daniel-iba-a-Bolivia.wav,0,,,211.9373,214.171,0,1,1.7165,,0,64,64,57,1,58,0,mexican,,,,,,,,,,,,,,,,,,,,,,,,,,,,,,,,,,,,,,,,,,,,,,,,,,,,,,,,
,,,,,,,,,6740e1e09ca406ab781318cb,Spanish,13 or older,"no, only English or Spanish",no,2025-08-13_17h53.24.238,empathy_intonation_perc_control,2024.2.4,MacIntel,131.5789474,6740e1e09ca406ab781318cb,68817205a84113384fffdfe3,689d0920f75a44d79e3997f4,,,,,,,,,,,,./stim/wavs/cuban_mismatch_interrogative-total-yn_Mi-novio-viene-del-lago.wav,1,,,214.1712,217.2953,1,1,2.609,,0,65,65,32,1,33,1,cuban,,,,,,,,,,,,,,,,,,,,,,,,,,,,,,,,,,,,,,,,,,,,,,,,,,,,,,,,
,,,,,,,,,6740e1e09ca406ab781318cb,Spanish,13 or older,"no, only English or Spanish",no,2025-08-13_17h53.24.238,empathy_intonation_perc_control,2024.2.4,MacIntel,131.5789474,6740e1e09ca406ab781318cb,68817205a84113384fffdfe3,689d0920f75a44d79e3997f4,,,,,,,,,,,,./stim/wavs/puertorican_mismatch_interrogative-total-yn_Mi-madre-come-la-fruta.wav,1,,,217.2955,219.6489,0,0,1.8412,,0,66,66,43,1,44,1,puertorican,,,,,,,,,,,,,,,,,,,,,,,,,,,,,,,,,,,,,,,,,,,,,,,,,,,,,,,,
,,,,,,,,,6740e1e09ca406ab781318cb,Spanish,13 or older,"no, only English or Spanish",no,2025-08-13_17h53.24.238,empathy_intonation_perc_control,2024.2.4,MacIntel,131.5789474,6740e1e09ca406ab781318cb,68817205a84113384fffdfe3,689d0920f75a44d79e3997f4,,,,,,,,,,,,./stim/wavs/puertorican_match_declarative-broad-focus_Ana-lleva-el-abrigo.wav,0,,,219.6491,221.6125,0,1,1.4495,,0,67,67,62,1,63,0,puertorican,,,,,,,,,,,,,,,,,,,,,,,,,,,,,,,,,,,,,,,,,,,,,,,,,,,,,,,,
,,,,,,,,,6740e1e09ca406ab781318cb,Spanish,13 or older,"no, only English or Spanish",no,2025-08-13_17h53.24.238,empathy_intonation_perc_control,2024.2.4,MacIntel,131.5789474,6740e1e09ca406ab781318cb,68817205a84113384fffdfe3,689d0920f75a44d79e3997f4,,,,,,,,,,,,./stim/wavs/puertorican_match_interrogative-total-yn_Maria-bebe-el-vino.wav,1,,,221.6129,224.054,1,1,1.92,,0,68,68,23,1,24,1,puertorican,,,,,,,,,,,,,,,,,,,,,,,,,,,,,,,,,,,,,,,,,,,,,,,,,,,,,,,,
,,,,,,,,,6740e1e09ca406ab781318cb,Spanish,13 or older,"no, only English or Spanish",no,2025-08-13_17h53.24.238,empathy_intonation_perc_control,2024.2.4,MacIntel,131.5789474,6740e1e09ca406ab781318cb,68817205a84113384fffdfe3,689d0920f75a44d79e3997f4,,,,,,,,,,,,./stim/wavs/cuban_match_interrogative-total-yn_Manuela-vende-el-carro.wav,1,,,224.0544,226.4668,0,0,1.9032,,0,69,69,8,1,9,1,cuban,,,,,,,,,,,,,,,,,,,,,,,,,,,,,,,,,,,,,,,,,,,,,,,,,,,,,,,,
,,,,,,,,,6740e1e09ca406ab781318cb,Spanish,13 or older,"no, only English or Spanish",no,2025-08-13_17h53.24.238,empathy_intonation_perc_control,2024.2.4,MacIntel,131.5789474,6740e1e09ca406ab781318cb,68817205a84113384fffdfe3,689d0920f75a44d79e3997f4,,,,,,,,,,,,./stim/wavs/cuban_match_declarative-broad-focus_Daniel-iba-a-Bolivia.wav,0,,,226.4672,229.2418,0,1,2.2596,,0,70,70,51,1,52,0,cuban,,,,,,,,,,,,,,,,,,,,,,,,,,,,,,,,,,,,,,,,,,,,,,,,,,,,,,,,
,,,,,,,,,6740e1e09ca406ab781318cb,Spanish,13 or older,"no, only English or Spanish",no,2025-08-13_17h53.24.238,empathy_intonation_perc_control,2024.2.4,MacIntel,131.5789474,6740e1e09ca406ab781318cb,68817205a84113384fffdfe3,689d0920f75a44d79e3997f4,,,,,,,,,,,,./stim/wavs/cuban_match_declarative-broad-focus_Marta-abre-el-regalo.wav,0,,,229.242,232.1669,0,1,2.4112,,0,71,71,55,1,56,0,cuban,,,,,,,,,,,,,,,,,,,,,,,,,,,,,,,,,,,,,,,,,,,,,,,,,,,,,,,,
,,,,,,,,,6740e1e09ca406ab781318cb,Spanish,13 or older,"no, only English or Spanish",no,2025-08-13_17h53.24.238,empathy_intonation_perc_control,2024.2.4,MacIntel,131.5789474,6740e1e09ca406ab781318cb,68817205a84113384fffdfe3,689d0920f75a44d79e3997f4,,,,,,,,,,,,./stim/wavs/cuban_match_declarative-broad-focus_Mariano-habla-del-tiempo.wav,0,,,232.1673,234.5831,0,1,1.9031,,0,72,72,54,1,55,0,cuban,,,,,,,,,,,,,,,,,,,,,,,,,,,,,,,,,,,,,,,,,,,,,,,,,,,,,,,,
,,,,,,,,,6740e1e09ca406ab781318cb,Spanish,13 or older,"no, only English or Spanish",no,2025-08-13_17h53.24.238,empathy_intonation_perc_control,2024.2.4,MacIntel,131.5789474,6740e1e09ca406ab781318cb,68817205a84113384fffdfe3,689d0920f75a44d79e3997f4,,,,,,,,,,,,./stim/wavs/cuban_match_interrogative-total-yn_Marta-abre-el-regalo.wav,1,,,234.5834,237.6001,0,0,2.5076,,0,73,73,11,1,12,1,cuban,,,,,,,,,,,,,,,,,,,,,,,,,,,,,,,,,,,,,,,,,,,,,,,,,,,,,,,,
,,,,,,,,,6740e1e09ca406ab781318cb,Spanish,13 or older,"no, only English or Spanish",no,2025-08-13_17h53.24.238,empathy_intonation_perc_control,2024.2.4,MacIntel,131.5789474,6740e1e09ca406ab781318cb,68817205a84113384fffdfe3,689d0920f75a44d79e3997f4,,,,,,,,,,,,./stim/wavs/mexican_match_declarative-broad-focus_Mariano-habla-del-tiempo.wav,0,,,237.6004,239.8919,0,1,1.7817,,0,74,74,60,1,61,0,mexican,,,,,,,,,,,,,,,,,,,,,,,,,,,,,,,,,,,,,,,,,,,,,,,,,,,,,,,,
,,,,,,,,,6740e1e09ca406ab781318cb,Spanish,13 or older,"no, only English or Spanish",no,2025-08-13_17h53.24.238,empathy_intonation_perc_control,2024.2.4,MacIntel,131.5789474,6740e1e09ca406ab781318cb,68817205a84113384fffdfe3,689d0920f75a44d79e3997f4,,,,,,,,,,,,./stim/wavs/castilian_mismatch_declarative-broad-focus_Mi-tia-odia-la-lluvia.wav,0,,,239.8923,242.3168,0,1,1.9088,,0,75,75,72,1,73,0,castilian,,,,,,,,,,,,,,,,,,,,,,,,,,,,,,,,,,,,,,,,,,,,,,,,,,,,,,,,
,,,,,,,,,6740e1e09ca406ab781318cb,Spanish,13 or older,"no, only English or Spanish",no,2025-08-13_17h53.24.238,empathy_intonation_perc_control,2024.2.4,MacIntel,131.5789474,6740e1e09ca406ab781318cb,68817205a84113384fffdfe3,689d0920f75a44d79e3997f4,,,,,,,,,,,,./stim/wavs/castilian_match_declarative-broad-focus_Marta-abre-el-regalo.wav,0,,,242.317,244.6481,0,1,1.8193,,0,76,76,49,1,50,0,castilian,,,,,,,,,,,,,,,,,,,,,,,,,,,,,,,,,,,,,,,,,,,,,,,,,,,,,,,,
,,,,,,,,,6740e1e09ca406ab781318cb,Spanish,13 or older,"no, only English or Spanish",no,2025-08-13_17h53.24.238,empathy_intonation_perc_control,2024.2.4,MacIntel,131.5789474,6740e1e09ca406ab781318cb,68817205a84113384fffdfe3,689d0920f75a44d79e3997f4,,,,,,,,,,,,./stim/wavs/puertorican_match_interrogative-total-yn_Manuela-vende-el-carro.wav,1,,,244.6483,246.7704,0,0,1.6114,,0,77,77,22,1,23,1,puertorican,,,,,,,,,,,,,,,,,,,,,,,,,,,,,,,,,,,,,,,,,,,,,,,,,,,,,,,,
,,,,,,,,,6740e1e09ca406ab781318cb,Spanish,13 or older,"no, only English or Spanish",no,2025-08-13_17h53.24.238,empathy_intonation_perc_control,2024.2.4,MacIntel,131.5789474,6740e1e09ca406ab781318cb,68817205a84113384fffdfe3,689d0920f75a44d79e3997f4,,,,,,,,,,,,./stim/wavs/mexican_match_declarative-broad-focus_David-leia-el-libro.wav,0,,,246.7708,248.8712,0,1,1.5879,,0,78,78,58,1,59,0,mexican,,,,,,,,,,,,,,,,,,,,,,,,,,,,,,,,,,,,,,,,,,,,,,,,,,,,,,,,
,,,,,,,,,6740e1e09ca406ab781318cb,Spanish,13 or older,"no, only English or Spanish",no,2025-08-13_17h53.24.238,empathy_intonation_perc_control,2024.2.4,MacIntel,131.5789474,6740e1e09ca406ab781318cb,68817205a84113384fffdfe3,689d0920f75a44d79e3997f4,,,,,,,,,,,,./stim/wavs/puertorican_mismatch_declarative-broad-focus_La-maestra-vive-en-Paris.wav,0,,,248.8715,251.0211,0,1,1.6432,,0,79,79,86,1,87,0,puertorican,,,,,,,,,,,,,,,,,,,,,,,,,,,,,,,,,,,,,,,,,,,,,,,,,,,,,,,,
,,,,,,,,,6740e1e09ca406ab781318cb,Spanish,13 or older,"no, only English or Spanish",no,2025-08-13_17h53.24.238,empathy_intonation_perc_control,2024.2.4,MacIntel,131.5789474,6740e1e09ca406ab781318cb,68817205a84113384fffdfe3,689d0920f75a44d79e3997f4,,,,,,,,,,,,./stim/wavs/mexican_mismatch_interrogative-total-yn_Mi-novio-viene-del-lago.wav,1,,,251.0214,253.3712,1,1,1.841,,0,80,80,37,1,38,0,mexican,,,,,,,,,,,,,,,,,,,,,,,,,,,,,,,,,,,,,,,,,,,,,,,,,,,,,,,,
,,,,,,,,,6740e1e09ca406ab781318cb,Spanish,13 or older,"no, only English or Spanish",no,2025-08-13_17h53.24.238,empathy_intonation_perc_control,2024.2.4,MacIntel,131.5789474,6740e1e09ca406ab781318cb,68817205a84113384fffdfe3,689d0920f75a44d79e3997f4,,,,,,,,,,,,./stim/wavs/cuban_mismatch_interrogative-total-yn_El-nino-oye-el-rio.wav,1,,,253.3716,255.5811,0,0,1.6986,,0,81,81,30,1,31,1,cuban,,,,,,,,,,,,,,,,,,,,,,,,,,,,,,,,,,,,,,,,,,,,,,,,,,,,,,,,
,,,,,,,,,6740e1e09ca406ab781318cb,Spanish,13 or older,"no, only English or Spanish",no,2025-08-13_17h53.24.238,empathy_intonation_perc_control,2024.2.4,MacIntel,131.5789474,6740e1e09ca406ab781318cb,68817205a84113384fffdfe3,689d0920f75a44d79e3997f4,,,,,,,,,,,,./stim/wavs/castilian_match_declarative-broad-focus_Manuela-vende-el-carro.wav,0,,,255.5814,258.1836,0,1,2.0928,,0,82,82,46,1,47,0,castilian,,,,,,,,,,,,,,,,,,,,,,,,,,,,,,,,,,,,,,,,,,,,,,,,,,,,,,,,
,,,,,,,,,6740e1e09ca406ab781318cb,Spanish,13 or older,"no, only English or Spanish",no,2025-08-13_17h53.24.238,empathy_intonation_perc_control,2024.2.4,MacIntel,131.5789474,6740e1e09ca406ab781318cb,68817205a84113384fffdfe3,689d0920f75a44d79e3997f4,,,,,,,,,,,,./stim/wavs/mexican_mismatch_interrogative-total-yn_El-nino-oye-el-rio.wav,1,,,258.1841,260.288,1,1,1.59,,0,83,83,35,1,36,0,mexican,,,,,,,,,,,,,,,,,,,,,,,,,,,,,,,,,,,,,,,,,,,,,,,,,,,,,,,,
,,,,,,,,,6740e1e09ca406ab781318cb,Spanish,13 or older,"no, only English or Spanish",no,2025-08-13_17h53.24.238,empathy_intonation_perc_control,2024.2.4,MacIntel,131.5789474,6740e1e09ca406ab781318cb,68817205a84113384fffdfe3,689d0920f75a44d79e3997f4,,,,,,,,,,,,./stim/wavs/cuban_match_interrogative-total-yn_Ana-lleva-el-abrigo.wav,1,,,260.2883,263.5051,1,1,2.702,,0,84,84,6,1,7,1,cuban,,,,,,,,,,,,,,,,,,,,,,,,,,,,,,,,,,,,,,,,,,,,,,,,,,,,,,,,
,,,,,,,,,6740e1e09ca406ab781318cb,Spanish,13 or older,"no, only English or Spanish",no,2025-08-13_17h53.24.238,empathy_intonation_perc_control,2024.2.4,MacIntel,131.5789474,6740e1e09ca406ab781318cb,68817205a84113384fffdfe3,689d0920f75a44d79e3997f4,,,,,,,,,,,,./stim/wavs/castilian_match_declarative-broad-focus_Mariano-habla-del-tiempo.wav,0,,,263.5054,266.5213,0,1,2.4955,,0,85,85,48,1,49,0,castilian,,,,,,,,,,,,,,,,,,,,,,,,,,,,,,,,,,,,,,,,,,,,,,,,,,,,,,,,
,,,,,,,,,6740e1e09ca406ab781318cb,Spanish,13 or older,"no, only English or Spanish",no,2025-08-13_17h53.24.238,empathy_intonation_perc_control,2024.2.4,MacIntel,131.5789474,6740e1e09ca406ab781318cb,68817205a84113384fffdfe3,689d0920f75a44d79e3997f4,,,,,,,,,,,,./stim/wavs/puertorican_mismatch_declarative-broad-focus_El-bebe-comia-muy-bien.wav,0,,,266.5216,268.9379,0,1,1.9067,,0,86,86,83,1,84,0,puertorican,,,,,,,,,,,,,,,,,,,,,,,,,,,,,,,,,,,,,,,,,,,,,,,,,,,,,,,,
,,,,,,,,,6740e1e09ca406ab781318cb,Spanish,13 or older,"no, only English or Spanish",no,2025-08-13_17h53.24.238,empathy_intonation_perc_control,2024.2.4,MacIntel,131.5789474,6740e1e09ca406ab781318cb,68817205a84113384fffdfe3,689d0920f75a44d79e3997f4,,,,,,,,,,,,./stim/wavs/cuban_mismatch_interrogative-total-yn_Mi-madre-come-la-fruta.wav,1,,,268.9381,271.6541,1,1,2.1999,,0,87,87,31,1,32,1,cuban,,,,,,,,,,,,,,,,,,,,,,,,,,,,,,,,,,,,,,,,,,,,,,,,,,,,,,,,
,,,,,,,"Great! Now we will move on. The next task consists of about 60 trials, in each of which you will see a string of letters. 
  
  Your task is to decide whether this is a real Spanish word or not.", (press the spacebar to continue),6740e1e09ca406ab781318cb,Spanish,13 or older,"no, only English or Spanish",no,2025-08-13_17h53.24.238,empathy_intonation_perc_control,2024.2.4,MacIntel,131.5789474,6740e1e09ca406ab781318cb,68817205a84113384fffdfe3,689d0920f75a44d79e3997f4,,,,,,,,,,,,,,,,,,,,,,,,,,,,,,271.658,280.1148,0,0,0,0,1,,,,,,,,,,,,,,,,,,,,,,,,,,,,,,,,,,,,,,,,,,,,,,,,,
,,,,,,,"If you think it is an existing Spanish word, you type '1' (for 'REAL'), and if you think it is not an existing Spanish word, you type '0' (for 'FAKE').", (press the spacebar to continue),6740e1e09ca406ab781318cb,Spanish,13 or older,"no, only English or Spanish",no,2025-08-13_17h53.24.238,empathy_intonation_perc_control,2024.2.4,MacIntel,131.5789474,6740e1e09ca406ab781318cb,68817205a84113384fffdfe3,689d0920f75a44d79e3997f4,,,,,,,,,,,,,,,,,,,,,,,,,,,,,,280.1156,283.5382,0,1,1,1,1,,,,,,,,,,,,,,,,,,,,,,,,,,,,,,,,,,,,,,,,,,,,,,,,,
,,,,,,,"If you are sure that the word exists, even though you don’t know its exact meaning, you may still respond '1' (REAL). 
  
  But if you are not sure if it is an existing word, you should respond '0' (FAKE).
  
  Let's do a practice round...", (press the spacebar to continue),6740e1e09ca406ab781318cb,Spanish,13 or older,"no, only English or Spanish",no,2025-08-13_17h53.24.238,empathy_intonation_perc_control,2024.2.4,MacIntel,131.5789474,6740e1e09ca406ab781318cb,68817205a84113384fffdfe3,689d0920f75a44d79e3997f4,,,,,,,,,,,,,,,,,,,,,,,,,,,,,,283.5394,286.2211,0,2,2,2,1,,,,,,,,,,,,,,,,,,,,,,,,,,,,,,,,,,,,,,,,,,,,,,,,,
,,,,,,,,,6740e1e09ca406ab781318cb,Spanish,13 or older,"no, only English or Spanish",no,2025-08-13_17h53.24.238,empathy_intonation_perc_control,2024.2.4,MacIntel,131.5789474,6740e1e09ca406ab781318cb,68817205a84113384fffdfe3,689d0920f75a44d79e3997f4,,,,,,,,,,,,,0,,,,,,,,,,,,,,,,,,,,,,,,286.2252,289.3633,0,1,2.621,,289.3635,290.3629,0,0,0,0,1,0,depiste,REAL,FAKE,,,,,,,,,,,,,,,,,,,,,,,,,,,,,,,,
,,,,,,,,,6740e1e09ca406ab781318cb,Spanish,13 or older,"no, only English or Spanish",no,2025-08-13_17h53.24.238,empathy_intonation_perc_control,2024.2.4,MacIntel,131.5789474,6740e1e09ca406ab781318cb,68817205a84113384fffdfe3,689d0920f75a44d79e3997f4,,,,,,,,,,,,,1,,,,,,,,,,,,,,,,,,,,,,,,290.3654,291.9881,1,1,1.1006,,291.9881,292.988,0,1,1,1,1,0,sí,REAL,FAKE,,,,,,,,,,,,,,,,,,,,,,,,,,,,,,,,
,,,,,,,,,6740e1e09ca406ab781318cb,Spanish,13 or older,"no, only English or Spanish",no,2025-08-13_17h53.24.238,empathy_intonation_perc_control,2024.2.4,MacIntel,131.5789474,6740e1e09ca406ab781318cb,68817205a84113384fffdfe3,689d0920f75a44d79e3997f4,,,,,,,,,,,,,0,,,,,,,,,,,,,,,,,,,,,,,,292.9888,295.1883,0,1,1.6732,,295.1883,296.1889,0,2,2,2,1,0,coné,REAL,FAKE,,,,,,,,,,,,,,,,,,,,,,,,,,,,,,,,
,,,,,,,,,6740e1e09ca406ab781318cb,Spanish,13 or older,"no, only English or Spanish",no,2025-08-13_17h53.24.238,empathy_intonation_perc_control,2024.2.4,MacIntel,131.5789474,6740e1e09ca406ab781318cb,68817205a84113384fffdfe3,689d0920f75a44d79e3997f4,,,,,,,,,,,,,0,,,,,,,,,,,,,,,,,,,,,,,,296.19,298.6215,1,0,1.9174,,298.622,299.6208,0,3,3,3,1,0,calpar,REAL,FAKE,,,,,,,,,,,,,,,,,,,,,,,,,,,,,,,,
,,,,,,,,,6740e1e09ca406ab781318cb,Spanish,13 or older,"no, only English or Spanish",no,2025-08-13_17h53.24.238,empathy_intonation_perc_control,2024.2.4,MacIntel,131.5789474,6740e1e09ca406ab781318cb,68817205a84113384fffdfe3,689d0920f75a44d79e3997f4,,,,,,,,,,,,,0,,,,,,,,,,,,,,,,,,,,,,,,299.6215,302.4215,0,1,2.2864,,302.422,303.4217,0,4,4,4,1,0,joten,REAL,FAKE,,,,,,,,,,,,,,,,,,,,,,,,,,,,,,,,
,,,,,,,,,6740e1e09ca406ab781318cb,Spanish,13 or older,"no, only English or Spanish",no,2025-08-13_17h53.24.238,empathy_intonation_perc_control,2024.2.4,MacIntel,131.5789474,6740e1e09ca406ab781318cb,68817205a84113384fffdfe3,689d0920f75a44d79e3997f4,,,,,,,,,,,,,1,,,,,,,,,,,,,,,,,,,,,,,,303.4226,305.1876,0,0,1.2425,,305.1882,306.188,0,5,5,5,1,0,sacapuntas,REAL,FAKE,,,,,,,,,,,,,,,,,,,,,,,,,,,,,,,,
,,,,,,,,,6740e1e09ca406ab781318cb,Spanish,13 or older,"no, only English or Spanish",no,2025-08-13_17h53.24.238,empathy_intonation_perc_control,2024.2.4,MacIntel,131.5789474,6740e1e09ca406ab781318cb,68817205a84113384fffdfe3,689d0920f75a44d79e3997f4,,,,,,,,,,,,,0,,,,,,,,,,,,,,,,,,,,,,,,306.1892,308.405,0,1,1.6938,,308.4056,309.4048,0,6,6,6,1,0,priba,REAL,FAKE,,,,,,,,,,,,,,,,,,,,,,,,,,,,,,,,
,,,,,,,,,6740e1e09ca406ab781318cb,Spanish,13 or older,"no, only English or Spanish",no,2025-08-13_17h53.24.238,empathy_intonation_perc_control,2024.2.4,MacIntel,131.5789474,6740e1e09ca406ab781318cb,68817205a84113384fffdfe3,689d0920f75a44d79e3997f4,,,,,,,,,,,,,0,,,,,,,,,,,,,,,,,,,,,,,,309.4064,312.3421,1,0,2.42,,312.3427,313.3377,0,7,7,7,1,0,pelasula,REAL,FAKE,,,,,,,,,,,,,,,,,,,,,,,,,,,,,,,,
,,,,,,,,,6740e1e09ca406ab781318cb,Spanish,13 or older,"no, only English or Spanish",no,2025-08-13_17h53.24.238,empathy_intonation_perc_control,2024.2.4,MacIntel,131.5789474,6740e1e09ca406ab781318cb,68817205a84113384fffdfe3,689d0920f75a44d79e3997f4,,,,,,,,,,,,,1,,,,,,,,,,,,,,,,,,,,,,,,313.3405,315.1467,1,1,1.2874,,315.1472,316.1469,0,8,8,8,1,0,bien,REAL,FAKE,,,,,,,,,,,,,,,,,,,,,,,,,,,,,,,,
,,,,,,,,,6740e1e09ca406ab781318cb,Spanish,13 or older,"no, only English or Spanish",no,2025-08-13_17h53.24.238,empathy_intonation_perc_control,2024.2.4,MacIntel,131.5789474,6740e1e09ca406ab781318cb,68817205a84113384fffdfe3,689d0920f75a44d79e3997f4,,,,,,,,,,,,,1,,,,,,,,,,,,,,,,,,,,,,,,316.1485,317.5007,1,1,0.8351,,317.5007,318.4962,0,9,9,9,1,0,casa,REAL,FAKE,,,,,,,,,,,,,,,,,,,,,,,,,,,,,,,,
,,,,,,,,,6740e1e09ca406ab781318cb,Spanish,13 or older,"no, only English or Spanish",no,2025-08-13_17h53.24.238,empathy_intonation_perc_control,2024.2.4,MacIntel,131.5789474,6740e1e09ca406ab781318cb,68817205a84113384fffdfe3,689d0920f75a44d79e3997f4,,,,,,,,,,,,,0,,,,,,,,,,,,,,,,,,,,,,,,318.4971,320.1708,1,0,1.147,,320.1714,321.1718,0,10,10,10,1,0,lejo,REAL,FAKE,,,,,,,,,,,,,,,,,,,,,,,,,,,,,,,,
,,,,,,,,,6740e1e09ca406ab781318cb,Spanish,13 or older,"no, only English or Spanish",no,2025-08-13_17h53.24.238,empathy_intonation_perc_control,2024.2.4,MacIntel,131.5789474,6740e1e09ca406ab781318cb,68817205a84113384fffdfe3,689d0920f75a44d79e3997f4,,,,,,,,,,,,,0,,,,,,,,,,,,,,,,,,,,,,,,321.1739,323.3469,1,0,1.6505,,323.3469,324.3465,0,11,11,11,1,0,pretantas,REAL,FAKE,,,,,,,,,,,,,,,,,,,,,,,,,,,,,,,,
,,,,,,,,,6740e1e09ca406ab781318cb,Spanish,13 or older,"no, only English or Spanish",no,2025-08-13_17h53.24.238,empathy_intonation_perc_control,2024.2.4,MacIntel,131.5789474,6740e1e09ca406ab781318cb,68817205a84113384fffdfe3,689d0920f75a44d79e3997f4,,,,,,,,,,,,,,,,,,,,,,,,,,,,,,,,,,,,,,,,,,,,,,,,,,,,,,324.3469,326.1719,,,,,,,,,,,,,,,,,,,,,,,,,,,,,,
,,,,,,,,,6740e1e09ca406ab781318cb,Spanish,13 or older,"no, only English or Spanish",no,2025-08-13_17h53.24.238,empathy_intonation_perc_control,2024.2.4,MacIntel,131.5789474,6740e1e09ca406ab781318cb,68817205a84113384fffdfe3,689d0920f75a44d79e3997f4,,,,,,,,,,,,,0,,,,,,,,,,,,,,,,,,,,,,,,,,,,,,,,,,,,,18,arsa,,,,,326.1774,328.0046,0,1,1.3132,,0,0,0,17,1,REAL,FAKE,,,,,,,,,,,,,,,,,
,,,,,,,,,6740e1e09ca406ab781318cb,Spanish,13 or older,"no, only English or Spanish",no,2025-08-13_17h53.24.238,empathy_intonation_perc_control,2024.2.4,MacIntel,131.5789474,6740e1e09ca406ab781318cb,68817205a84113384fffdfe3,689d0920f75a44d79e3997f4,,,,,,,,,,,,,1,,,,,,,,,,,,,,,,,,,,,,,,,,,,,,,,,,,,,86,barato,,,,,328.0052,330.1468,1,1,1.6276,,0,1,1,85,1,REAL,FAKE,,,,,,,,,,,,,,,,,
,,,,,,,,,6740e1e09ca406ab781318cb,Spanish,13 or older,"no, only English or Spanish",no,2025-08-13_17h53.24.238,empathy_intonation_perc_control,2024.2.4,MacIntel,131.5789474,6740e1e09ca406ab781318cb,68817205a84113384fffdfe3,689d0920f75a44d79e3997f4,,,,,,,,,,,,,1,,,,,,,,,,,,,,,,,,,,,,,,,,,,,,,,,,,,,60,matar,,,,,330.1478,332.0468,1,1,1.3846,,0,2,2,59,1,REAL,FAKE,,,,,,,,,,,,,,,,,
,,,,,,,,,6740e1e09ca406ab781318cb,Spanish,13 or older,"no, only English or Spanish",no,2025-08-13_17h53.24.238,empathy_intonation_perc_control,2024.2.4,MacIntel,131.5789474,6740e1e09ca406ab781318cb,68817205a84113384fffdfe3,689d0920f75a44d79e3997f4,,,,,,,,,,,,,1,,,,,,,,,,,,,,,,,,,,,,,,,,,,,,,,,,,,,9,hacha,,,,,332.0478,333.5888,1,1,1.0257,,0,3,3,8,1,REAL,FAKE,,,,,,,,,,,,,,,,,
,,,,,,,,,6740e1e09ca406ab781318cb,Spanish,13 or older,"no, only English or Spanish",no,2025-08-13_17h53.24.238,empathy_intonation_perc_control,2024.2.4,MacIntel,131.5789474,6740e1e09ca406ab781318cb,68817205a84113384fffdfe3,689d0920f75a44d79e3997f4,,,,,,,,,,,,,1,,,,,,,,,,,,,,,,,,,,,,,,,,,,,,,,,,,,,25,bisagra,,,,,333.5895,335.1719,0,0,1.0597,,0,4,4,24,1,REAL,FAKE,,,,,,,,,,,,,,,,,
,,,,,,,,,6740e1e09ca406ab781318cb,Spanish,13 or older,"no, only English or Spanish",no,2025-08-13_17h53.24.238,empathy_intonation_perc_control,2024.2.4,MacIntel,131.5789474,6740e1e09ca406ab781318cb,68817205a84113384fffdfe3,689d0920f75a44d79e3997f4,,,,,,,,,,,,,1,,,,,,,,,,,,,,,,,,,,,,,,,,,,,,,,,,,,,40,alfombra,,,,,335.1729,337.7135,0,0,2.0255,,0,5,5,39,1,REAL,FAKE,,,,,,,,,,,,,,,,,
,,,,,,,,,6740e1e09ca406ab781318cb,Spanish,13 or older,"no, only English or Spanish",no,2025-08-13_17h53.24.238,empathy_intonation_perc_control,2024.2.4,MacIntel,131.5789474,6740e1e09ca406ab781318cb,68817205a84113384fffdfe3,689d0920f75a44d79e3997f4,,,,,,,,,,,,,1,,,,,,,,,,,,,,,,,,,,,,,,,,,,,,,,,,,,,3,pulmones,,,,,337.7144,339.9134,0,0,1.69,,0,6,6,2,1,REAL,FAKE,,,,,,,,,,,,,,,,,
,,,,,,,,,6740e1e09ca406ab781318cb,Spanish,13 or older,"no, only English or Spanish",no,2025-08-13_17h53.24.238,empathy_intonation_perc_control,2024.2.4,MacIntel,131.5789474,6740e1e09ca406ab781318cb,68817205a84113384fffdfe3,689d0920f75a44d79e3997f4,,,,,,,,,,,,,0,,,,,,,,,,,,,,,,,,,,,,,,,,,,,,,,,,,,,27,acutación,,,,,339.914,341.3718,1,0,0.9297,,0,7,7,26,1,REAL,FAKE,,,,,,,,,,,,,,,,,
,,,,,,,,,6740e1e09ca406ab781318cb,Spanish,13 or older,"no, only English or Spanish",no,2025-08-13_17h53.24.238,empathy_intonation_perc_control,2024.2.4,MacIntel,131.5789474,6740e1e09ca406ab781318cb,68817205a84113384fffdfe3,689d0920f75a44d79e3997f4,,,,,,,,,,,,,1,,,,,,,,,,,,,,,,,,,,,,,,,,,,,,,,,,,,,22,lacayo,,,,,341.3726,342.8792,0,0,0.9848,,0,8,8,21,1,REAL,FAKE,,,,,,,,,,,,,,,,,
,,,,,,,,,6740e1e09ca406ab781318cb,Spanish,13 or older,"no, only English or Spanish",no,2025-08-13_17h53.24.238,empathy_intonation_perc_control,2024.2.4,MacIntel,131.5789474,6740e1e09ca406ab781318cb,68817205a84113384fffdfe3,689d0920f75a44d79e3997f4,,,,,,,,,,,,,1,,,,,,,,,,,,,,,,,,,,,,,,,,,,,,,,,,,,,88,acantilado,,,,,342.88,346.5626,1,1,3.1728,,0,9,9,87,1,REAL,FAKE,,,,,,,,,,,,,,,,,
,,,,,,,,,6740e1e09ca406ab781318cb,Spanish,13 or older,"no, only English or Spanish",no,2025-08-13_17h53.24.238,empathy_intonation_perc_control,2024.2.4,MacIntel,131.5789474,6740e1e09ca406ab781318cb,68817205a84113384fffdfe3,689d0920f75a44d79e3997f4,,,,,,,,,,,,,1,,,,,,,,,,,,,,,,,,,,,,,,,,,,,,,,,,,,,54,fomentar,,,,,346.5632,348.1342,0,0,1.0619,,0,10,10,53,1,REAL,FAKE,,,,,,,,,,,,,,,,,
,,,,,,,,,6740e1e09ca406ab781318cb,Spanish,13 or older,"no, only English or Spanish",no,2025-08-13_17h53.24.238,empathy_intonation_perc_control,2024.2.4,MacIntel,131.5789474,6740e1e09ca406ab781318cb,68817205a84113384fffdfe3,689d0920f75a44d79e3997f4,,,,,,,,,,,,,1,,,,,,,,,,,,,,,,,,,,,,,,,,,,,,,,,,,,,49,ganar,,,,,348.1352,349.7295,1,1,1.0795,,0,11,11,48,1,REAL,FAKE,,,,,,,,,,,,,,,,,
,,,,,,,,,6740e1e09ca406ab781318cb,Spanish,13 or older,"no, only English or Spanish",no,2025-08-13_17h53.24.238,empathy_intonation_perc_control,2024.2.4,MacIntel,131.5789474,6740e1e09ca406ab781318cb,68817205a84113384fffdfe3,689d0920f75a44d79e3997f4,,,,,,,,,,,,,1,,,,,,,,,,,,,,,,,,,,,,,,,,,,,,,,,,,,,76,atar,,,,,349.7303,351.3721,1,1,1.1282,,0,12,12,75,1,REAL,FAKE,,,,,,,,,,,,,,,,,
,,,,,,,,,6740e1e09ca406ab781318cb,Spanish,13 or older,"no, only English or Spanish",no,2025-08-13_17h53.24.238,empathy_intonation_perc_control,2024.2.4,MacIntel,131.5789474,6740e1e09ca406ab781318cb,68817205a84113384fffdfe3,689d0920f75a44d79e3997f4,,,,,,,,,,,,,0,,,,,,,,,,,,,,,,,,,,,,,,,,,,,,,,,,,,,29,decar,,,,,351.3728,353.1222,1,0,1.2295,,0,13,13,28,1,REAL,FAKE,,,,,,,,,,,,,,,,,
,,,,,,,,,6740e1e09ca406ab781318cb,Spanish,13 or older,"no, only English or Spanish",no,2025-08-13_17h53.24.238,empathy_intonation_perc_control,2024.2.4,MacIntel,131.5789474,6740e1e09ca406ab781318cb,68817205a84113384fffdfe3,689d0920f75a44d79e3997f4,,,,,,,,,,,,,0,,,,,,,,,,,,,,,,,,,,,,,,,,,,,,,,,,,,,82,empirador,,,,,353.1229,355.6585,1,0,2.0179,,0,14,14,81,1,REAL,FAKE,,,,,,,,,,,,,,,,,
,,,,,,,,,6740e1e09ca406ab781318cb,Spanish,13 or older,"no, only English or Spanish",no,2025-08-13_17h53.24.238,empathy_intonation_perc_control,2024.2.4,MacIntel,131.5789474,6740e1e09ca406ab781318cb,68817205a84113384fffdfe3,689d0920f75a44d79e3997f4,,,,,,,,,,,,,1,,,,,,,,,,,,,,,,,,,,,,,,,,,,,,,,,,,,,14,yunque,,,,,355.6593,356.997,0,0,0.8174,,0,15,15,13,1,REAL,FAKE,,,,,,,,,,,,,,,,,
,,,,,,,,,6740e1e09ca406ab781318cb,Spanish,13 or older,"no, only English or Spanish",no,2025-08-13_17h53.24.238,empathy_intonation_perc_control,2024.2.4,MacIntel,131.5789474,6740e1e09ca406ab781318cb,68817205a84113384fffdfe3,689d0920f75a44d79e3997f4,,,,,,,,,,,,,0,,,,,,,,,,,,,,,,,,,,,,,,,,,,,,,,,,,,,87,grodo,,,,,356.9977,358.6722,0,1,1.1594,,0,16,16,86,1,REAL,FAKE,,,,,,,,,,,,,,,,,
,,,,,,,,,6740e1e09ca406ab781318cb,Spanish,13 or older,"no, only English or Spanish",no,2025-08-13_17h53.24.238,empathy_intonation_perc_control,2024.2.4,MacIntel,131.5789474,6740e1e09ca406ab781318cb,68817205a84113384fffdfe3,689d0920f75a44d79e3997f4,,,,,,,,,,,,,0,,,,,,,,,,,,,,,,,,,,,,,,,,,,,,,,,,,,,79,tropaje,,,,,358.673,361.2546,1,0,2.0607,,0,17,17,78,1,REAL,FAKE,,,,,,,,,,,,,,,,,
,,,,,,,,,6740e1e09ca406ab781318cb,Spanish,13 or older,"no, only English or Spanish",no,2025-08-13_17h53.24.238,empathy_intonation_perc_control,2024.2.4,MacIntel,131.5789474,6740e1e09ca406ab781318cb,68817205a84113384fffdfe3,689d0920f75a44d79e3997f4,,,,,,,,,,,,,1,,,,,,,,,,,,,,,,,,,,,,,,,,,,,,,,,,,,,75,yacer,,,,,361.2552,363.1215,0,0,1.3428,,0,18,18,74,1,REAL,FAKE,,,,,,,,,,,,,,,,,
,,,,,,,,,6740e1e09ca406ab781318cb,Spanish,13 or older,"no, only English or Spanish",no,2025-08-13_17h53.24.238,empathy_intonation_perc_control,2024.2.4,MacIntel,131.5789474,6740e1e09ca406ab781318cb,68817205a84113384fffdfe3,689d0920f75a44d79e3997f4,,,,,,,,,,,,,0,,,,,,,,,,,,,,,,,,,,,,,,,,,,,,,,,,,,,84,escuto,,,,,363.1219,365.7637,0,1,2.1186,,0,19,19,83,1,REAL,FAKE,,,,,,,,,,,,,,,,,
,,,,,,,,,6740e1e09ca406ab781318cb,Spanish,13 or older,"no, only English or Spanish",no,2025-08-13_17h53.24.238,empathy_intonation_perc_control,2024.2.4,MacIntel,131.5789474,6740e1e09ca406ab781318cb,68817205a84113384fffdfe3,689d0920f75a44d79e3997f4,,,,,,,,,,,,,0,,,,,,,,,,,,,,,,,,,,,,,,,,,,,,,,,,,,,21,capillo,,,,,365.7641,367.1969,1,0,0.9125,,0,20,20,20,1,REAL,FAKE,,,,,,,,,,,,,,,,,
,,,,,,,,,6740e1e09ca406ab781318cb,Spanish,13 or older,"no, only English or Spanish",no,2025-08-13_17h53.24.238,empathy_intonation_perc_control,2024.2.4,MacIntel,131.5789474,6740e1e09ca406ab781318cb,68817205a84113384fffdfe3,689d0920f75a44d79e3997f4,,,,,,,,,,,,,1,,,,,,,,,,,,,,,,,,,,,,,,,,,,,,,,,,,,,73,hervidor,,,,,367.1974,369.9717,0,0,2.251,,0,21,21,72,1,REAL,FAKE,,,,,,,,,,,,,,,,,
,,,,,,,,,6740e1e09ca406ab781318cb,Spanish,13 or older,"no, only English or Spanish",no,2025-08-13_17h53.24.238,empathy_intonation_perc_control,2024.2.4,MacIntel,131.5789474,6740e1e09ca406ab781318cb,68817205a84113384fffdfe3,689d0920f75a44d79e3997f4,,,,,,,,,,,,,0,,,,,,,,,,,,,,,,,,,,,,,,,,,,,,,,,,,,,4,batillón,,,,,369.9722,371.6471,1,0,1.1501,,0,22,22,3,1,REAL,FAKE,,,,,,,,,,,,,,,,,
,,,,,,,,,6740e1e09ca406ab781318cb,Spanish,13 or older,"no, only English or Spanish",no,2025-08-13_17h53.24.238,empathy_intonation_perc_control,2024.2.4,MacIntel,131.5789474,6740e1e09ca406ab781318cb,68817205a84113384fffdfe3,689d0920f75a44d79e3997f4,,,,,,,,,,,,,0,,,,,,,,,,,,,,,,,,,,,,,,,,,,,,,,,,,,,53,vegada,,,,,371.6479,374.3974,0,1,2.232,,0,23,23,52,1,REAL,FAKE,,,,,,,,,,,,,,,,,
,,,,,,,,,6740e1e09ca406ab781318cb,Spanish,13 or older,"no, only English or Spanish",no,2025-08-13_17h53.24.238,empathy_intonation_perc_control,2024.2.4,MacIntel,131.5789474,6740e1e09ca406ab781318cb,68817205a84113384fffdfe3,689d0920f75a44d79e3997f4,,,,,,,,,,,,,1,,,,,,,,,,,,,,,,,,,,,,,,,,,,,,,,,,,,,57,tacaño,,,,,374.3987,376.0128,1,1,1.0913,,0,24,24,56,1,REAL,FAKE,,,,,,,,,,,,,,,,,
,,,,,,,,,6740e1e09ca406ab781318cb,Spanish,13 or older,"no, only English or Spanish",no,2025-08-13_17h53.24.238,empathy_intonation_perc_control,2024.2.4,MacIntel,131.5789474,6740e1e09ca406ab781318cb,68817205a84113384fffdfe3,689d0920f75a44d79e3997f4,,,,,,,,,,,,,1,,,,,,,,,,,,,,,,,,,,,,,,,,,,,,,,,,,,,56,musgo,,,,,376.0136,377.5471,0,0,1.0073,,0,25,25,55,1,REAL,FAKE,,,,,,,,,,,,,,,,,
,,,,,,,,,6740e1e09ca406ab781318cb,Spanish,13 or older,"no, only English or Spanish",no,2025-08-13_17h53.24.238,empathy_intonation_perc_control,2024.2.4,MacIntel,131.5789474,6740e1e09ca406ab781318cb,68817205a84113384fffdfe3,689d0920f75a44d79e3997f4,,,,,,,,,,,,,0,,,,,,,,,,,,,,,,,,,,,,,,,,,,,,,,,,,,,72,pemición,,,,,377.5478,380.9053,1,0,2.8335,,0,26,26,71,1,REAL,FAKE,,,,,,,,,,,,,,,,,
,,,,,,,,,6740e1e09ca406ab781318cb,Spanish,13 or older,"no, only English or Spanish",no,2025-08-13_17h53.24.238,empathy_intonation_perc_control,2024.2.4,MacIntel,131.5789474,6740e1e09ca406ab781318cb,68817205a84113384fffdfe3,689d0920f75a44d79e3997f4,,,,,,,,,,,,,1,,,,,,,,,,,,,,,,,,,,,,,,,,,,,,,,,,,,,71,polvoriento,,,,,380.9059,382.3216,0,0,0.8929,,0,27,27,70,1,REAL,FAKE,,,,,,,,,,,,,,,,,
,,,,,,,,,6740e1e09ca406ab781318cb,Spanish,13 or older,"no, only English or Spanish",no,2025-08-13_17h53.24.238,empathy_intonation_perc_control,2024.2.4,MacIntel,131.5789474,6740e1e09ca406ab781318cb,68817205a84113384fffdfe3,689d0920f75a44d79e3997f4,,,,,,,,,,,,,1,,,,,,,,,,,,,,,,,,,,,,,,,,,,,,,,,,,,,80,hormiga,,,,,382.322,383.6745,1,1,0.8343,,0,28,28,79,1,REAL,FAKE,,,,,,,,,,,,,,,,,
,,,,,,,,,6740e1e09ca406ab781318cb,Spanish,13 or older,"no, only English or Spanish",no,2025-08-13_17h53.24.238,empathy_intonation_perc_control,2024.2.4,MacIntel,131.5789474,6740e1e09ca406ab781318cb,68817205a84113384fffdfe3,689d0920f75a44d79e3997f4,,,,,,,,,,,,,1,,,,,,,,,,,,,,,,,,,,,,,,,,,,,,,,,,,,,5,zapato,,,,,383.6754,385.2722,1,1,1.0824,,0,29,29,4,1,REAL,FAKE,,,,,,,,,,,,,,,,,
,,,,,,,,,6740e1e09ca406ab781318cb,Spanish,13 or older,"no, only English or Spanish",no,2025-08-13_17h53.24.238,empathy_intonation_perc_control,2024.2.4,MacIntel,131.5789474,6740e1e09ca406ab781318cb,68817205a84113384fffdfe3,689d0920f75a44d79e3997f4,,,,,,,,,,,,,1,,,,,,,,,,,,,,,,,,,,,,,,,,,,,,,,,,,,,78,frondoso,,,,,385.2728,386.9894,0,0,1.1959,,0,30,30,77,1,REAL,FAKE,,,,,,,,,,,,,,,,,
,,,,,,,,,6740e1e09ca406ab781318cb,Spanish,13 or older,"no, only English or Spanish",no,2025-08-13_17h53.24.238,empathy_intonation_perc_control,2024.2.4,MacIntel,131.5789474,6740e1e09ca406ab781318cb,68817205a84113384fffdfe3,689d0920f75a44d79e3997f4,,,,,,,,,,,,,0,,,,,,,,,,,,,,,,,,,,,,,,,,,,,,,,,,,,,66,hacido,,,,,386.9901,388.3554,1,0,0.8457,,0,31,31,65,1,REAL,FAKE,,,,,,,,,,,,,,,,,
,,,,,,,,,6740e1e09ca406ab781318cb,Spanish,13 or older,"no, only English or Spanish",no,2025-08-13_17h53.24.238,empathy_intonation_perc_control,2024.2.4,MacIntel,131.5789474,6740e1e09ca406ab781318cb,68817205a84113384fffdfe3,689d0920f75a44d79e3997f4,,,,,,,,,,,,,0,,,,,,,,,,,,,,,,,,,,,,,,,,,,,,,,,,,,,23,lampera,,,,,388.3561,390.9058,1,0,2.0295,,0,32,32,22,1,REAL,FAKE,,,,,,,,,,,,,,,,,
,,,,,,,,,6740e1e09ca406ab781318cb,Spanish,13 or older,"no, only English or Spanish",no,2025-08-13_17h53.24.238,empathy_intonation_perc_control,2024.2.4,MacIntel,131.5789474,6740e1e09ca406ab781318cb,68817205a84113384fffdfe3,689d0920f75a44d79e3997f4,,,,,,,,,,,,,0,,,,,,,,,,,,,,,,,,,,,,,,,,,,,,,,,,,,,1,terzo,,,,,390.9062,393.3222,0,1,1.8925,,0,33,33,0,1,REAL,FAKE,,,,,,,,,,,,,,,,,
,,,,,,,,,6740e1e09ca406ab781318cb,Spanish,13 or older,"no, only English or Spanish",no,2025-08-13_17h53.24.238,empathy_intonation_perc_control,2024.2.4,MacIntel,131.5789474,6740e1e09ca406ab781318cb,68817205a84113384fffdfe3,689d0920f75a44d79e3997f4,,,,,,,,,,,,,1,,,,,,,,,,,,,,,,,,,,,,,,,,,,,,,,,,,,,83,guante,,,,,393.3227,395.0049,0,0,1.1681,,0,34,34,82,1,REAL,FAKE,,,,,,,,,,,,,,,,,
,,,,,,,,,6740e1e09ca406ab781318cb,Spanish,13 or older,"no, only English or Spanish",no,2025-08-13_17h53.24.238,empathy_intonation_perc_control,2024.2.4,MacIntel,131.5789474,6740e1e09ca406ab781318cb,68817205a84113384fffdfe3,689d0920f75a44d79e3997f4,,,,,,,,,,,,,1,,,,,,,,,,,,,,,,,,,,,,,,,,,,,,,,,,,,,6,tergiversar,,,,,395.0054,397.339,0,0,1.8177,,0,35,35,5,1,REAL,FAKE,,,,,,,,,,,,,,,,,
,,,,,,,,,6740e1e09ca406ab781318cb,Spanish,13 or older,"no, only English or Spanish",no,2025-08-13_17h53.24.238,empathy_intonation_perc_control,2024.2.4,MacIntel,131.5789474,6740e1e09ca406ab781318cb,68817205a84113384fffdfe3,689d0920f75a44d79e3997f4,,,,,,,,,,,,,1,,,,,,,,,,,,,,,,,,,,,,,,,,,,,,,,,,,,,52,camisa,,,,,397.3396,398.6638,1,1,0.8006,,0,36,36,51,1,REAL,FAKE,,,,,,,,,,,,,,,,,
,,,,,,,,,6740e1e09ca406ab781318cb,Spanish,13 or older,"no, only English or Spanish",no,2025-08-13_17h53.24.238,empathy_intonation_perc_control,2024.2.4,MacIntel,131.5789474,6740e1e09ca406ab781318cb,68817205a84113384fffdfe3,689d0920f75a44d79e3997f4,,,,,,,,,,,,,1,,,,,,,,,,,,,,,,,,,,,,,,,,,,,,,,,,,,,31,pandilla,,,,,398.6645,401.1224,1,1,1.9322,,0,37,37,30,1,REAL,FAKE,,,,,,,,,,,,,,,,,
,,,,,,,,,6740e1e09ca406ab781318cb,Spanish,13 or older,"no, only English or Spanish",no,2025-08-13_17h53.24.238,empathy_intonation_perc_control,2024.2.4,MacIntel,131.5789474,6740e1e09ca406ab781318cb,68817205a84113384fffdfe3,689d0920f75a44d79e3997f4,,,,,,,,,,,,,1,,,,,,,,,,,,,,,,,,,,,,,,,,,,,,,,,,,,,44,cuchara,,,,,401.1231,403.1982,0,0,1.5569,,0,38,38,43,1,REAL,FAKE,,,,,,,,,,,,,,,,,
,,,,,,,,,6740e1e09ca406ab781318cb,Spanish,13 or older,"no, only English or Spanish",no,2025-08-13_17h53.24.238,empathy_intonation_perc_control,2024.2.4,MacIntel,131.5789474,6740e1e09ca406ab781318cb,68817205a84113384fffdfe3,689d0920f75a44d79e3997f4,,,,,,,,,,,,,1,,,,,,,,,,,,,,,,,,,,,,,,,,,,,,,,,,,,,69,engatusar,,,,,403.1991,406.0631,0,0,2.3456,,0,39,39,68,1,REAL,FAKE,,,,,,,,,,,,,,,,,
,,,,,,,,,6740e1e09ca406ab781318cb,Spanish,13 or older,"no, only English or Spanish",no,2025-08-13_17h53.24.238,empathy_intonation_perc_control,2024.2.4,MacIntel,131.5789474,6740e1e09ca406ab781318cb,68817205a84113384fffdfe3,689d0920f75a44d79e3997f4,,,,,,,,,,,,,1,,,,,,,,,,,,,,,,,,,,,,,,,,,,,,,,,,,,,34,aviso,,,,,406.0637,408.1056,1,1,1.5268,,0,40,40,33,1,REAL,FAKE,,,,,,,,,,,,,,,,,
,,,,,,,,,6740e1e09ca406ab781318cb,Spanish,13 or older,"no, only English or Spanish",no,2025-08-13_17h53.24.238,empathy_intonation_perc_control,2024.2.4,MacIntel,131.5789474,6740e1e09ca406ab781318cb,68817205a84113384fffdfe3,689d0920f75a44d79e3997f4,,,,,,,,,,,,,1,,,,,,,,,,,,,,,,,,,,,,,,,,,,,,,,,,,,,51,candado,,,,,408.106,410.8885,1,1,2.2641,,0,41,41,50,1,REAL,FAKE,,,,,,,,,,,,,,,,,
,,,,,,,,,6740e1e09ca406ab781318cb,Spanish,13 or older,"no, only English or Spanish",no,2025-08-13_17h53.24.238,empathy_intonation_perc_control,2024.2.4,MacIntel,131.5789474,6740e1e09ca406ab781318cb,68817205a84113384fffdfe3,689d0920f75a44d79e3997f4,,,,,,,,,,,,,1,,,,,,,,,,,,,,,,,,,,,,,,,,,,,,,,,,,,,90,clavel,,,,,410.8893,412.3057,0,0,0.9055,,0,42,42,89,1,REAL,FAKE,,,,,,,,,,,,,,,,,
,,,,,,,,,6740e1e09ca406ab781318cb,Spanish,13 or older,"no, only English or Spanish",no,2025-08-13_17h53.24.238,empathy_intonation_perc_control,2024.2.4,MacIntel,131.5789474,6740e1e09ca406ab781318cb,68817205a84113384fffdfe3,689d0920f75a44d79e3997f4,,,,,,,,,,,,,0,,,,,,,,,,,,,,,,,,,,,,,,,,,,,,,,,,,,,19,brecedad,,,,,412.3067,413.6473,0,1,0.823,,0,43,43,18,1,REAL,FAKE,,,,,,,,,,,,,,,,,
,,,,,,,,,6740e1e09ca406ab781318cb,Spanish,13 or older,"no, only English or Spanish",no,2025-08-13_17h53.24.238,empathy_intonation_perc_control,2024.2.4,MacIntel,131.5789474,6740e1e09ca406ab781318cb,68817205a84113384fffdfe3,689d0920f75a44d79e3997f4,,,,,,,,,,,,,1,,,,,,,,,,,,,,,,,,,,,,,,,,,,,,,,,,,,,2,pellizcar,,,,,413.6482,416.4889,0,0,2.3177,,0,44,44,1,1,REAL,FAKE,,,,,,,,,,,,,,,,,
,,,,,,,,,6740e1e09ca406ab781318cb,Spanish,13 or older,"no, only English or Spanish",no,2025-08-13_17h53.24.238,empathy_intonation_perc_control,2024.2.4,MacIntel,131.5789474,6740e1e09ca406ab781318cb,68817205a84113384fffdfe3,689d0920f75a44d79e3997f4,,,,,,,,,,,,,0,,,,,,,,,,,,,,,,,,,,,,,,,,,,,,,,,,,,,50,flamida,,,,,416.4894,418.9216,0,1,1.9119,,0,45,45,49,1,REAL,FAKE,,,,,,,,,,,,,,,,,
,,,,,,,,,6740e1e09ca406ab781318cb,Spanish,13 or older,"no, only English or Spanish",no,2025-08-13_17h53.24.238,empathy_intonation_perc_control,2024.2.4,MacIntel,131.5789474,6740e1e09ca406ab781318cb,68817205a84113384fffdfe3,689d0920f75a44d79e3997f4,,,,,,,,,,,,,1,,,,,,,,,,,,,,,,,,,,,,,,,,,,,,,,,,,,,20,ávido,,,,,418.9227,420.2403,1,1,0.8052,,0,46,46,19,1,REAL,FAKE,,,,,,,,,,,,,,,,,
,,,,,,,,,6740e1e09ca406ab781318cb,Spanish,13 or older,"no, only English or Spanish",no,2025-08-13_17h53.24.238,empathy_intonation_perc_control,2024.2.4,MacIntel,131.5789474,6740e1e09ca406ab781318cb,68817205a84113384fffdfe3,689d0920f75a44d79e3997f4,,,,,,,,,,,,,1,,,,,,,,,,,,,,,,,,,,,,,,,,,,,,,,,,,,,11,cenefa,,,,,420.2407,422.3091,0,0,1.555,,0,47,47,10,1,REAL,FAKE,,,,,,,,,,,,,,,,,
,,,,,,,,,6740e1e09ca406ab781318cb,Spanish,13 or older,"no, only English or Spanish",no,2025-08-13_17h53.24.238,empathy_intonation_perc_control,2024.2.4,MacIntel,131.5789474,6740e1e09ca406ab781318cb,68817205a84113384fffdfe3,689d0920f75a44d79e3997f4,,,,,,,,,,,,,1,,,,,,,,,,,,,,,,,,,,,,,,,,,,,,,,,,,,,91,click the 1 key.,,,,,422.3098,424.4933,1,1,1.674,,0,48,48,90,1,REAL,FAKE,,,,,,,,,,,,,,,,,
,,,,,,,,,6740e1e09ca406ab781318cb,Spanish,13 or older,"no, only English or Spanish",no,2025-08-13_17h53.24.238,empathy_intonation_perc_control,2024.2.4,MacIntel,131.5789474,6740e1e09ca406ab781318cb,68817205a84113384fffdfe3,689d0920f75a44d79e3997f4,,,,,,,,,,,,,1,,,,,,,,,,,,,,,,,,,,,,,,,,,,,,,,,,,,,65,bizcocho,,,,,424.494,425.9349,0,0,0.9284,,0,49,49,64,1,REAL,FAKE,,,,,,,,,,,,,,,,,
,,,,,,,,,6740e1e09ca406ab781318cb,Spanish,13 or older,"no, only English or Spanish",no,2025-08-13_17h53.24.238,empathy_intonation_perc_control,2024.2.4,MacIntel,131.5789474,6740e1e09ca406ab781318cb,68817205a84113384fffdfe3,689d0920f75a44d79e3997f4,,,,,,,,,,,,,1,,,,,,,,,,,,,,,,,,,,,,,,,,,,,,,,,,,,,12,asesinato,,,,,425.9358,427.4516,0,0,0.9939,,0,50,50,11,1,REAL,FAKE,,,,,,,,,,,,,,,,,
,,,,,,,,,6740e1e09ca406ab781318cb,Spanish,13 or older,"no, only English or Spanish",no,2025-08-13_17h53.24.238,empathy_intonation_perc_control,2024.2.4,MacIntel,131.5789474,6740e1e09ca406ab781318cb,68817205a84113384fffdfe3,689d0920f75a44d79e3997f4,,,,,,,,,,,,,1,,,,,,,,,,,,,,,,,,,,,,,,,,,,,,,,,,,,,24,látigo,,,,,427.4522,428.8851,1,1,0.9075,,0,51,51,23,1,REAL,FAKE,,,,,,,,,,,,,,,,,
,,,,,,,,,6740e1e09ca406ab781318cb,Spanish,13 or older,"no, only English or Spanish",no,2025-08-13_17h53.24.238,empathy_intonation_perc_control,2024.2.4,MacIntel,131.5789474,6740e1e09ca406ab781318cb,68817205a84113384fffdfe3,689d0920f75a44d79e3997f4,,,,,,,,,,,,,1,,,,,,,,,,,,,,,,,,,,,,,,,,,,,,,,,,,,,15,regar,,,,,428.8858,430.9016,1,1,1.4964,,0,52,52,14,1,REAL,FAKE,,,,,,,,,,,,,,,,,
,,,,,,,,,6740e1e09ca406ab781318cb,Spanish,13 or older,"no, only English or Spanish",no,2025-08-13_17h53.24.238,empathy_intonation_perc_control,2024.2.4,MacIntel,131.5789474,6740e1e09ca406ab781318cb,68817205a84113384fffdfe3,689d0920f75a44d79e3997f4,,,,,,,,,,,,,1,,,,,,,,,,,,,,,,,,,,,,,,,,,,,,,,,,,,,67,cabello,,,,,430.9022,432.5561,1,1,1.1325,,0,53,53,66,1,REAL,FAKE,,,,,,,,,,,,,,,,,
,,,,,,,,,6740e1e09ca406ab781318cb,Spanish,13 or older,"no, only English or Spanish",no,2025-08-13_17h53.24.238,empathy_intonation_perc_control,2024.2.4,MacIntel,131.5789474,6740e1e09ca406ab781318cb,68817205a84113384fffdfe3,689d0920f75a44d79e3997f4,,,,,,,,,,,,,1,,,,,,,,,,,,,,,,,,,,,,,,,,,,,,,,,,,,,41,rebuscar,,,,,432.5571,435.9434,1,1,2.8688,,0,54,54,40,1,REAL,FAKE,,,,,,,,,,,,,,,,,
,,,,,,,,,6740e1e09ca406ab781318cb,Spanish,13 or older,"no, only English or Spanish",no,2025-08-13_17h53.24.238,empathy_intonation_perc_control,2024.2.4,MacIntel,131.5789474,6740e1e09ca406ab781318cb,68817205a84113384fffdfe3,689d0920f75a44d79e3997f4,,,,,,,,,,,,,0,,,,,,,,,,,,,,,,,,,,,,,,,,,,,,,,,,,,,92,click the 0 key.,,,,,435.9443,438.0011,0,1,1.5395,,0,55,55,91,1,REAL,FAKE,,,,,,,,,,,,,,,,,
,,,,,,,,,6740e1e09ca406ab781318cb,Spanish,13 or older,"no, only English or Spanish",no,2025-08-13_17h53.24.238,empathy_intonation_perc_control,2024.2.4,MacIntel,131.5789474,6740e1e09ca406ab781318cb,68817205a84113384fffdfe3,689d0920f75a44d79e3997f4,,,,,,,,,,,,,1,,,,,,,,,,,,,,,,,,,,,,,,,,,,,,,,,,,,,85,laúd,,,,,438.002,439.6347,0,0,1.1179,,0,56,56,84,1,REAL,FAKE,,,,,,,,,,,,,,,,,
,,,,,,,,,6740e1e09ca406ab781318cb,Spanish,13 or older,"no, only English or Spanish",no,2025-08-13_17h53.24.238,empathy_intonation_perc_control,2024.2.4,MacIntel,131.5789474,6740e1e09ca406ab781318cb,68817205a84113384fffdfe3,689d0920f75a44d79e3997f4,,,,,,,,,,,,,1,,,,,,,,,,,,,,,,,,,,,,,,,,,,,,,,,,,,,81,pozo,,,,,439.6354,441.1016,0,0,0.947,,0,57,57,80,1,REAL,FAKE,,,,,,,,,,,,,,,,,
,,,,,,,,,6740e1e09ca406ab781318cb,Spanish,13 or older,"no, only English or Spanish",no,2025-08-13_17h53.24.238,empathy_intonation_perc_control,2024.2.4,MacIntel,131.5789474,6740e1e09ca406ab781318cb,68817205a84113384fffdfe3,689d0920f75a44d79e3997f4,,,,,,,,,,,,,1,,,,,,,,,,,,,,,,,,,,,,,,,,,,,,,,,,,,,36,loro,,,,,441.1026,442.835,0,0,1.2091,,0,58,58,35,1,REAL,FAKE,,,,,,,,,,,,,,,,,
,,,,,,,,,6740e1e09ca406ab781318cb,Spanish,13 or older,"no, only English or Spanish",no,2025-08-13_17h53.24.238,empathy_intonation_perc_control,2024.2.4,MacIntel,131.5789474,6740e1e09ca406ab781318cb,68817205a84113384fffdfe3,689d0920f75a44d79e3997f4,,,,,,,,,,,,,1,,,,,,,,,,,,,,,,,,,,,,,,,,,,,,,,,,,,,89,prisa,,,,,442.8355,444.8433,0,0,1.4942,,0,59,59,88,1,REAL,FAKE,,,,,,,,,,,,,,,,,
,,,,,,,,,6740e1e09ca406ab781318cb,Spanish,13 or older,"no, only English or Spanish",no,2025-08-13_17h53.24.238,empathy_intonation_perc_control,2024.2.4,MacIntel,131.5789474,6740e1e09ca406ab781318cb,68817205a84113384fffdfe3,689d0920f75a44d79e3997f4,,,,,,,,,,,,,1,,,,,,,,,,,,,,,,,,,,,,,,,,,,,,,,,,,,,48,ladrón,,,,,444.8436,446.3684,1,1,1.0048,,0,60,60,47,1,REAL,FAKE,,,,,,,,,,,,,,,,,
,,,,,,,,,6740e1e09ca406ab781318cb,Spanish,13 or older,"no, only English or Spanish",no,2025-08-13_17h53.24.238,empathy_intonation_perc_control,2024.2.4,MacIntel,131.5789474,6740e1e09ca406ab781318cb,68817205a84113384fffdfe3,689d0920f75a44d79e3997f4,,,,,,,,,,,,,1,,,,,,,,,,,,,,,,,,,,,,,,,,,,,,,,,,,,,68,alegre,,,,,446.3695,447.8265,1,1,0.936,,0,61,61,67,1,REAL,FAKE,,,,,,,,,,,,,,,,,
,,,,,,,,,6740e1e09ca406ab781318cb,Spanish,13 or older,"no, only English or Spanish",no,2025-08-13_17h53.24.238,empathy_intonation_perc_control,2024.2.4,MacIntel,131.5789474,6740e1e09ca406ab781318cb,68817205a84113384fffdfe3,689d0920f75a44d79e3997f4,,,,,,,,,,,,,1,,,,,,,,,,,,,,,,,,,,,,,,,,,,,,,,,,,,,13,helar,,,,,447.827,449.9186,0,0,1.5737,,0,62,62,12,1,REAL,FAKE,,,,,,,,,,,,,,,,,
,,,,,,,,,6740e1e09ca406ab781318cb,Spanish,13 or older,"no, only English or Spanish",no,2025-08-13_17h53.24.238,empathy_intonation_perc_control,2024.2.4,MacIntel,131.5789474,6740e1e09ca406ab781318cb,68817205a84113384fffdfe3,689d0920f75a44d79e3997f4,,,,,,,,,,,,,1,,,,,,,,,,,,,,,,,,,,,,,,,,,,,,,,,,,,,7,pésimo,,,,,449.9195,451.4843,1,1,1.0401,,0,63,63,6,1,REAL,FAKE,,,,,,,,,,,,,,,,,
,,,,,,,,,6740e1e09ca406ab781318cb,Spanish,13 or older,"no, only English or Spanish",no,2025-08-13_17h53.24.238,empathy_intonation_perc_control,2024.2.4,MacIntel,131.5789474,6740e1e09ca406ab781318cb,68817205a84113384fffdfe3,689d0920f75a44d79e3997f4,,,,,,,,,,,,,1,,,,,,,,,,,,,,,,,,,,,,,,,,,,,,,,,,,,,55,nevar,,,,,451.4851,453.3016,0,0,1.2902,,0,64,64,54,1,REAL,FAKE,,,,,,,,,,,,,,,,,
,,,,,,,,,6740e1e09ca406ab781318cb,Spanish,13 or older,"no, only English or Spanish",no,2025-08-13_17h53.24.238,empathy_intonation_perc_control,2024.2.4,MacIntel,131.5789474,6740e1e09ca406ab781318cb,68817205a84113384fffdfe3,689d0920f75a44d79e3997f4,,,,,,,,,,,,,0,,,,,,,,,,,,,,,,,,,,,,,,,,,,,,,,,,,,,74,cintro,,,,,453.3025,456.6018,0,1,2.7752,,0,65,65,73,1,REAL,FAKE,,,,,,,,,,,,,,,,,
,,,,,,,,,6740e1e09ca406ab781318cb,Spanish,13 or older,"no, only English or Spanish",no,2025-08-13_17h53.24.238,empathy_intonation_perc_control,2024.2.4,MacIntel,131.5789474,6740e1e09ca406ab781318cb,68817205a84113384fffdfe3,689d0920f75a44d79e3997f4,,,,,,,,,,,,,0,,,,,,,,,,,,,,,,,,,,,,,,,,,,,,,,,,,,,63,esposante,,,,,456.6026,461.2436,0,1,4.1152,,0,66,66,62,1,REAL,FAKE,,,,,,,,,,,,,,,,,
,,,,,,,,,6740e1e09ca406ab781318cb,Spanish,13 or older,"no, only English or Spanish",no,2025-08-13_17h53.24.238,empathy_intonation_perc_control,2024.2.4,MacIntel,131.5789474,6740e1e09ca406ab781318cb,68817205a84113384fffdfe3,689d0920f75a44d79e3997f4,,,,,,,,,,,,,1,,,,,,,,,,,,,,,,,,,,,,,,,,,,,,,,,,,,,61,seda,,,,,461.2441,462.7842,0,0,1.0123,,0,67,67,60,1,REAL,FAKE,,,,,,,,,,,,,,,,,
,,,,,,,,,6740e1e09ca406ab781318cb,Spanish,13 or older,"no, only English or Spanish",no,2025-08-13_17h53.24.238,empathy_intonation_perc_control,2024.2.4,MacIntel,131.5789474,6740e1e09ca406ab781318cb,68817205a84113384fffdfe3,689d0920f75a44d79e3997f4,,,,,,,,,,,,,0,,,,,,,,,,,,,,,,,,,,,,,,,,,,,,,,,,,,,35,rompido,,,,,462.785,465.1353,0,1,1.832,,0,68,68,34,1,REAL,FAKE,,,,,,,,,,,,,,,,,
,,,,,,,,,6740e1e09ca406ab781318cb,Spanish,13 or older,"no, only English or Spanish",no,2025-08-13_17h53.24.238,empathy_intonation_perc_control,2024.2.4,MacIntel,131.5789474,6740e1e09ca406ab781318cb,68817205a84113384fffdfe3,689d0920f75a44d79e3997f4,,,,,,,,,,,,,1,,,,,,,,,,,,,,,,,,,,,,,,,,,,,,,,,,,,,46,martillo,,,,,465.1361,466.5601,1,1,0.9025,,0,69,69,45,1,REAL,FAKE,,,,,,,,,,,,,,,,,
,,,,,,,,,6740e1e09ca406ab781318cb,Spanish,13 or older,"no, only English or Spanish",no,2025-08-13_17h53.24.238,empathy_intonation_perc_control,2024.2.4,MacIntel,131.5789474,6740e1e09ca406ab781318cb,68817205a84113384fffdfe3,689d0920f75a44d79e3997f4,,,,,,,,,,,,,0,,,,,,,,,,,,,,,,,,,,,,,,,,,,,,,,,,,,,16,abracer,,,,,466.5611,469.9769,0,1,2.8969,,0,70,70,15,1,REAL,FAKE,,,,,,,,,,,,,,,,,
,,,,,,,,,6740e1e09ca406ab781318cb,Spanish,13 or older,"no, only English or Spanish",no,2025-08-13_17h53.24.238,empathy_intonation_perc_control,2024.2.4,MacIntel,131.5789474,6740e1e09ca406ab781318cb,68817205a84113384fffdfe3,689d0920f75a44d79e3997f4,,,,,,,,,,,,,0,,,,,,,,,,,,,,,,,,,,,,,,,,,,,,,,,,,,,70,temblo,,,,,469.9776,472.6275,0,1,2.1353,,0,71,71,69,1,REAL,FAKE,,,,,,,,,,,,,,,,,
,,,,,,,,,6740e1e09ca406ab781318cb,Spanish,13 or older,"no, only English or Spanish",no,2025-08-13_17h53.24.238,empathy_intonation_perc_control,2024.2.4,MacIntel,131.5789474,6740e1e09ca406ab781318cb,68817205a84113384fffdfe3,689d0920f75a44d79e3997f4,,,,,,,,,,,,,0,,,,,,,,,,,,,,,,,,,,,,,,,,,,,,,,,,,,,32,fatacidad,,,,,472.628,474.3602,0,1,1.2046,,0,72,72,31,1,REAL,FAKE,,,,,,,,,,,,,,,,,
,,,,,,,,,6740e1e09ca406ab781318cb,Spanish,13 or older,"no, only English or Spanish",no,2025-08-13_17h53.24.238,empathy_intonation_perc_control,2024.2.4,MacIntel,131.5789474,6740e1e09ca406ab781318cb,68817205a84113384fffdfe3,689d0920f75a44d79e3997f4,,,,,,,,,,,,,0,,,,,,,,,,,,,,,,,,,,,,,,,,,,,,,,,,,,,47,cartinar,,,,,474.3609,478.1687,1,0,3.2923,,0,73,73,46,1,REAL,FAKE,,,,,,,,,,,,,,,,,
,,,,,,,,,6740e1e09ca406ab781318cb,Spanish,13 or older,"no, only English or Spanish",no,2025-08-13_17h53.24.238,empathy_intonation_perc_control,2024.2.4,MacIntel,131.5789474,6740e1e09ca406ab781318cb,68817205a84113384fffdfe3,689d0920f75a44d79e3997f4,,,,,,,,,,,,,1,,,,,,,,,,,,,,,,,,,,,,,,,,,,,,,,,,,,,37,granuja,,,,,478.1695,479.6011,1,1,0.9122,,0,74,74,36,1,REAL,FAKE,,,,,,,,,,,,,,,,,
,,,,,,,,,6740e1e09ca406ab781318cb,Spanish,13 or older,"no, only English or Spanish",no,2025-08-13_17h53.24.238,empathy_intonation_perc_control,2024.2.4,MacIntel,131.5789474,6740e1e09ca406ab781318cb,68817205a84113384fffdfe3,689d0920f75a44d79e3997f4,,,,,,,,,,,,,1,,,,,,,,,,,,,,,,,,,,,,,,,,,,,,,,,,,,,28,merodear,,,,,479.6018,481.3557,0,0,1.2435,,0,75,75,27,1,REAL,FAKE,,,,,,,,,,,,,,,,,
,,,,,,,,,6740e1e09ca406ab781318cb,Spanish,13 or older,"no, only English or Spanish",no,2025-08-13_17h53.24.238,empathy_intonation_perc_control,2024.2.4,MacIntel,131.5789474,6740e1e09ca406ab781318cb,68817205a84113384fffdfe3,689d0920f75a44d79e3997f4,,,,,,,,,,,,,1,,,,,,,,,,,,,,,,,,,,,,,,,,,,,,,,,,,,,77,tiburón,,,,,481.3561,483.0436,1,1,1.1675,,0,76,76,76,1,REAL,FAKE,,,,,,,,,,,,,,,,,
,,,,,,,,,6740e1e09ca406ab781318cb,Spanish,13 or older,"no, only English or Spanish",no,2025-08-13_17h53.24.238,empathy_intonation_perc_control,2024.2.4,MacIntel,131.5789474,6740e1e09ca406ab781318cb,68817205a84113384fffdfe3,689d0920f75a44d79e3997f4,,,,,,,,,,,,,0,,,,,,,,,,,,,,,,,,,,,,,,,,,,,,,,,,,,,8,cadeña,,,,,483.0444,484.8605,1,0,1.2902,,0,77,77,7,1,REAL,FAKE,,,,,,,,,,,,,,,,,
,,,,,,,,,6740e1e09ca406ab781318cb,Spanish,13 or older,"no, only English or Spanish",no,2025-08-13_17h53.24.238,empathy_intonation_perc_control,2024.2.4,MacIntel,131.5789474,6740e1e09ca406ab781318cb,68817205a84113384fffdfe3,689d0920f75a44d79e3997f4,,,,,,,,,,,,,1,,,,,,,,,,,,,,,,,,,,,,,,,,,,,,,,,,,,,38,estornudar,,,,,484.8612,486.3853,0,0,1.0086,,0,78,78,37,1,REAL,FAKE,,,,,,,,,,,,,,,,,
,,,,,,,,,6740e1e09ca406ab781318cb,Spanish,13 or older,"no, only English or Spanish",no,2025-08-13_17h53.24.238,empathy_intonation_perc_control,2024.2.4,MacIntel,131.5789474,6740e1e09ca406ab781318cb,68817205a84113384fffdfe3,689d0920f75a44d79e3997f4,,,,,,,,,,,,,0,,,,,,,,,,,,,,,,,,,,,,,,,,,,,,,,,,,,,33,pauca,,,,,486.3862,487.8599,0,1,0.9486,,0,79,79,32,1,REAL,FAKE,,,,,,,,,,,,,,,,,
,,,,,,,,,6740e1e09ca406ab781318cb,Spanish,13 or older,"no, only English or Spanish",no,2025-08-13_17h53.24.238,empathy_intonation_perc_control,2024.2.4,MacIntel,131.5789474,6740e1e09ca406ab781318cb,68817205a84113384fffdfe3,689d0920f75a44d79e3997f4,,,,,,,,,,,,,0,,,,,,,,,,,,,,,,,,,,,,,,,,,,,,,,,,,,,17,floroso,,,,,487.8603,489.3473,0,1,0.9817,,0,80,80,16,1,REAL,FAKE,,,,,,,,,,,,,,,,,
,,,,,,,,,6740e1e09ca406ab781318cb,Spanish,13 or older,"no, only English or Spanish",no,2025-08-13_17h53.24.238,empathy_intonation_perc_control,2024.2.4,MacIntel,131.5789474,6740e1e09ca406ab781318cb,68817205a84113384fffdfe3,689d0920f75a44d79e3997f4,,,,,,,,,,,,,0,,,,,,,,,,,,,,,,,,,,,,,,,,,,,,,,,,,,,30,alardio,,,,,489.3476,491.669,0,1,1.7979,,0,81,81,29,1,REAL,FAKE,,,,,,,,,,,,,,,,,
,,,,,,,,,6740e1e09ca406ab781318cb,Spanish,13 or older,"no, only English or Spanish",no,2025-08-13_17h53.24.238,empathy_intonation_perc_control,2024.2.4,MacIntel,131.5789474,6740e1e09ca406ab781318cb,68817205a84113384fffdfe3,689d0920f75a44d79e3997f4,,,,,,,,,,,,,1,,,,,,,,,,,,,,,,,,,,,,,,,,,,,,,,,,,,,43,canela,,,,,491.6701,493.6605,1,1,1.4735,,0,82,82,42,1,REAL,FAKE,,,,,,,,,,,,,,,,,
,,,,,,,,,6740e1e09ca406ab781318cb,Spanish,13 or older,"no, only English or Spanish",no,2025-08-13_17h53.24.238,empathy_intonation_perc_control,2024.2.4,MacIntel,131.5789474,6740e1e09ca406ab781318cb,68817205a84113384fffdfe3,689d0920f75a44d79e3997f4,,,,,,,,,,,,,1,,,,,,,,,,,,,,,,,,,,,,,,,,,,,,,,,,,,,59,besar,,,,,493.6612,497.6854,0,0,3.5083,,0,83,83,58,1,REAL,FAKE,,,,,,,,,,,,,,,,,
,,,,,,,,,6740e1e09ca406ab781318cb,Spanish,13 or older,"no, only English or Spanish",no,2025-08-13_17h53.24.238,empathy_intonation_perc_control,2024.2.4,MacIntel,131.5789474,6740e1e09ca406ab781318cb,68817205a84113384fffdfe3,689d0920f75a44d79e3997f4,,,,,,,,,,,,,1,,,,,,,,,,,,,,,,,,,,,,,,,,,,,,,,,,,,,45,jilguero,,,,,497.686,499.0023,0,0,0.7974,,0,84,84,44,1,REAL,FAKE,,,,,,,,,,,,,,,,,
,,,,,,,,,6740e1e09ca406ab781318cb,Spanish,13 or older,"no, only English or Spanish",no,2025-08-13_17h53.24.238,empathy_intonation_perc_control,2024.2.4,MacIntel,131.5789474,6740e1e09ca406ab781318cb,68817205a84113384fffdfe3,689d0920f75a44d79e3997f4,,,,,,,,,,,,,0,,,,,,,,,,,,,,,,,,,,,,,,,,,,,,,,,,,,,10,antar,,,,,499.003,500.3857,1,0,0.8618,,0,85,85,9,1,REAL,FAKE,,,,,,,,,,,,,,,,,
,,,,,,,,,6740e1e09ca406ab781318cb,Spanish,13 or older,"no, only English or Spanish",no,2025-08-13_17h53.24.238,empathy_intonation_perc_control,2024.2.4,MacIntel,131.5789474,6740e1e09ca406ab781318cb,68817205a84113384fffdfe3,689d0920f75a44d79e3997f4,,,,,,,,,,,,,0,,,,,,,,,,,,,,,,,,,,,,,,,,,,,,,,,,,,,42,cadallo,,,,,500.3865,502.5606,0,1,1.6521,,0,86,86,41,1,REAL,FAKE,,,,,,,,,,,,,,,,,
,,,,,,,,,6740e1e09ca406ab781318cb,Spanish,13 or older,"no, only English or Spanish",no,2025-08-13_17h53.24.238,empathy_intonation_perc_control,2024.2.4,MacIntel,131.5789474,6740e1e09ca406ab781318cb,68817205a84113384fffdfe3,689d0920f75a44d79e3997f4,,,,,,,,,,,,,1,,,,,,,,,,,,,,,,,,,,,,,,,,,,,,,,,,,,,64,orgulloso,,,,,502.5613,503.8021,0,0,0.7258,,0,87,87,63,1,REAL,FAKE,,,,,,,,,,,,,,,,,
,,,,,,,,,6740e1e09ca406ab781318cb,Spanish,13 or older,"no, only English or Spanish",no,2025-08-13_17h53.24.238,empathy_intonation_perc_control,2024.2.4,MacIntel,131.5789474,6740e1e09ca406ab781318cb,68817205a84113384fffdfe3,689d0920f75a44d79e3997f4,,,,,,,,,,,,,1,,,,,,,,,,,,,,,,,,,,,,,,,,,,,,,,,,,,,62,flaco,,,,,503.8025,505.2107,1,1,0.8938,,0,88,88,61,1,REAL,FAKE,,,,,,,,,,,,,,,,,
,,,,,,,,,6740e1e09ca406ab781318cb,Spanish,13 or older,"no, only English or Spanish",no,2025-08-13_17h53.24.238,empathy_intonation_perc_control,2024.2.4,MacIntel,131.5789474,6740e1e09ca406ab781318cb,68817205a84113384fffdfe3,689d0920f75a44d79e3997f4,,,,,,,,,,,,,0,,,,,,,,,,,,,,,,,,,,,,,,,,,,,,,,,,,,,58,plaudir,,,,,505.2115,506.5772,0,1,0.8459,,0,89,89,57,1,REAL,FAKE,,,,,,,,,,,,,,,,,
,,,,,,,,,6740e1e09ca406ab781318cb,Spanish,13 or older,"no, only English or Spanish",no,2025-08-13_17h53.24.238,empathy_intonation_perc_control,2024.2.4,MacIntel,131.5789474,6740e1e09ca406ab781318cb,68817205a84113384fffdfe3,689d0920f75a44d79e3997f4,,,,,,,,,,,,,1,,,,,,,,,,,,,,,,,,,,,,,,,,,,,,,,,,,,,26,secuestro,,,,,506.578,507.9439,0,0,0.8453,,0,90,90,25,1,REAL,FAKE,,,,,,,,,,,,,,,,,
,,,,,,,,,6740e1e09ca406ab781318cb,Spanish,13 or older,"no, only English or Spanish",no,2025-08-13_17h53.24.238,empathy_intonation_perc_control,2024.2.4,MacIntel,131.5789474,6740e1e09ca406ab781318cb,68817205a84113384fffdfe3,689d0920f75a44d79e3997f4,,,,,,,,,,,,,1,,,,,,,,,,,,,,,,,,,,,,,,,,,,,,,,,,,,,39,torpe,,,,,507.9447,509.6272,0,0,1.157,,0,91,91,38,1,REAL,FAKE,,,,,,,,,,,,,,,,,
,,,,,,,,,6740e1e09ca406ab781318cb,Spanish,13 or older,"no, only English or Spanish",no,2025-08-13_17h53.24.238,empathy_intonation_perc_control,2024.2.4,MacIntel,131.5789474,6740e1e09ca406ab781318cb,68817205a84113384fffdfe3,689d0920f75a44d79e3997f4,,,,,,,,,,,,,,,,,,,,,,,,,,,,,,,,,,,,,,,,,,,,,,,,,,,,,,,,,,,,,,,,,,,,,509.6277,717.5003,,,,,,,,,,,,,,,
,,,,,,,,,6740e1e09ca406ab781318cb,Spanish,13 or older,"no, only English or Spanish",no,2025-08-13_17h53.24.238,empathy_intonation_perc_control,2024.2.4,MacIntel,131.5789474,6740e1e09ca406ab781318cb,68817205a84113384fffdfe3,689d0920f75a44d79e3997f4,,,,,,,,,,,,,,,,,,,,,,,,,,,1,,,,,,,,,,,,,,,,,,,,,,,,,,,,,,,,,,,,,,,,,,,,717.512,723.9591,slightly agree,0,0,0,0,1,I can easily tell if someone else wants to enter a conversation.,1,0,1,0,,
,,,,,,,,,6740e1e09ca406ab781318cb,Spanish,13 or older,"no, only English or Spanish",no,2025-08-13_17h53.24.238,empathy_intonation_perc_control,2024.2.4,MacIntel,131.5789474,6740e1e09ca406ab781318cb,68817205a84113384fffdfe3,689d0920f75a44d79e3997f4,,,,,,,,,,,,,,,,,,,,,,,,,,,2,,,,,,,,,,,,,,,,,,,,,,,,,,,,,,,,,,,,,,,,,,,,723.9601,727.983,strongly disagree,0,1,1,1,1,I prefer animals to humans.,0,1,0,0,,
,,,,,,,,,6740e1e09ca406ab781318cb,Spanish,13 or older,"no, only English or Spanish",no,2025-08-13_17h53.24.238,empathy_intonation_perc_control,2024.2.4,MacIntel,131.5789474,6740e1e09ca406ab781318cb,68817205a84113384fffdfe3,689d0920f75a44d79e3997f4,,,,,,,,,,,,,,,,,,,,,,,,,,,3,,,,,,,,,,,,,,,,,,,,,,,,,,,,,,,,,,,,,,,,,,,,727.9842,731.9664,strongly disagree,0,2,2,2,1,I try to keep up with the current trends and fashions.,0,1,0,0,,
,,,,,,,,,6740e1e09ca406ab781318cb,Spanish,13 or older,"no, only English or Spanish",no,2025-08-13_17h53.24.238,empathy_intonation_perc_control,2024.2.4,MacIntel,131.5789474,6740e1e09ca406ab781318cb,68817205a84113384fffdfe3,689d0920f75a44d79e3997f4,,,,,,,,,,,,,,,,,,,,,,,,,,,4,,,,,,,,,,,,,,,,,,,,,,,,,,,,,,,,,,,,,,,,,,,,731.9675,744.4685,strongly agree,0,3,3,3,1,"I find it difficult to explain to others things that I understand easily,   when they don't understand it first time.",1,0,0,1,,
,,,,,,,,,6740e1e09ca406ab781318cb,Spanish,13 or older,"no, only English or Spanish",no,2025-08-13_17h53.24.238,empathy_intonation_perc_control,2024.2.4,MacIntel,131.5789474,6740e1e09ca406ab781318cb,68817205a84113384fffdfe3,689d0920f75a44d79e3997f4,,,,,,,,,,,,,,,,,,,,,,,,,,,5,,,,,,,,,,,,,,,,,,,,,,,,,,,,,,,,,,,,,,,,,,,,744.4693,749.6837,strongly agree,0,4,4,4,1,I dream most nights.,0,1,0,0,,
,,,,,,,,,6740e1e09ca406ab781318cb,Spanish,13 or older,"no, only English or Spanish",no,2025-08-13_17h53.24.238,empathy_intonation_perc_control,2024.2.4,MacIntel,131.5789474,6740e1e09ca406ab781318cb,68817205a84113384fffdfe3,689d0920f75a44d79e3997f4,,,,,,,,,,,,,,,,,,,,,,,,,,,6,,,,,,,,,,,,,,,,,,,,,,,,,,,,,,,,,,,,,,,,,,,,749.6854,752.4501,strongly disagree,0,5,5,5,1,I really enjoy caring for other people.,1,0,1,0,,
,,,,,,,,,6740e1e09ca406ab781318cb,Spanish,13 or older,"no, only English or Spanish",no,2025-08-13_17h53.24.238,empathy_intonation_perc_control,2024.2.4,MacIntel,131.5789474,6740e1e09ca406ab781318cb,68817205a84113384fffdfe3,689d0920f75a44d79e3997f4,,,,,,,,,,,,,,,,,,,,,,,,,,,7,,,,,,,,,,,,,,,,,,,,,,,,,,,,,,,,,,,,,,,,,,,,752.4514,756.2279,strongly agree,0,6,6,6,1,I try to solve my own problems rather than discussing them with others.,0,1,0,0,,
,,,,,,,,,6740e1e09ca406ab781318cb,Spanish,13 or older,"no, only English or Spanish",no,2025-08-13_17h53.24.238,empathy_intonation_perc_control,2024.2.4,MacIntel,131.5789474,6740e1e09ca406ab781318cb,68817205a84113384fffdfe3,689d0920f75a44d79e3997f4,,,,,,,,,,,,,,,,,,,,,,,,,,,8,,,,,,,,,,,,,,,,,,,,,,,,,,,,,,,,,,,,,,,,,,,,756.2288,759.6582,slightly agree,0,7,7,7,1,I find it hard to know what to do in a social situation.,1,0,0,1,,
,,,,,,,,,6740e1e09ca406ab781318cb,Spanish,13 or older,"no, only English or Spanish",no,2025-08-13_17h53.24.238,empathy_intonation_perc_control,2024.2.4,MacIntel,131.5789474,6740e1e09ca406ab781318cb,68817205a84113384fffdfe3,689d0920f75a44d79e3997f4,,,,,,,,,,,,,,,,,,,,,,,,,,,9,,,,,,,,,,,,,,,,,,,,,,,,,,,,,,,,,,,,,,,,,,,,759.6594,764.2253,strongly disagree,0,8,8,8,1,I am at my best first thing in the morning.,0,1,0,0,,
,,,,,,,,,6740e1e09ca406ab781318cb,Spanish,13 or older,"no, only English or Spanish",no,2025-08-13_17h53.24.238,empathy_intonation_perc_control,2024.2.4,MacIntel,131.5789474,6740e1e09ca406ab781318cb,68817205a84113384fffdfe3,689d0920f75a44d79e3997f4,,,,,,,,,,,,,,,,,,,,,,,,,,,10,,,,,,,,,,,,,,,,,,,,,,,,,,,,,,,,,,,,,,,,,,,,764.2261,771.5918,strongly disagree,0,9,9,9,1,People often tell me that I went too far in driving my point home in a discussion.,1,0,0,1,,
,,,,,,,,,6740e1e09ca406ab781318cb,Spanish,13 or older,"no, only English or Spanish",no,2025-08-13_17h53.24.238,empathy_intonation_perc_control,2024.2.4,MacIntel,131.5789474,6740e1e09ca406ab781318cb,68817205a84113384fffdfe3,689d0920f75a44d79e3997f4,,,,,,,,,,,,,,,,,,,,,,,,,,,11,,,,,,,,,,,,,,,,,,,,,,,,,,,,,,,,,,,,,,,,,,,,771.5928,776.2585,slightly disagree,0,10,10,10,1,It doesn't bother me too much if I am late meeting a friend.,1,0,0,1,,
,,,,,,,,,6740e1e09ca406ab781318cb,Spanish,13 or older,"no, only English or Spanish",no,2025-08-13_17h53.24.238,empathy_intonation_perc_control,2024.2.4,MacIntel,131.5789474,6740e1e09ca406ab781318cb,68817205a84113384fffdfe3,689d0920f75a44d79e3997f4,,,,,,,,,,,,,,,,,,,,,,,,,,,12,,,,,,,,,,,,,,,,,,,,,,,,,,,,,,,,,,,,,,,,,,,,776.2597,801.5082,slightly agree,0,11,11,11,1,"Friendships and relationships are just too difficult, so I tend not to 
  bother with them.",1,0,0,1,,
,,,,,,,,,6740e1e09ca406ab781318cb,Spanish,13 or older,"no, only English or Spanish",no,2025-08-13_17h53.24.238,empathy_intonation_perc_control,2024.2.4,MacIntel,131.5789474,6740e1e09ca406ab781318cb,68817205a84113384fffdfe3,689d0920f75a44d79e3997f4,,,,,,,,,,,,,,,,,,,,,,,,,,,13,,,,,,,,,,,,,,,,,,,,,,,,,,,,,,,,,,,,,,,,,,,,801.5095,809.244,slightly agree,0,12,12,12,1,"I would never break a law, no matter how minor.",0,1,0,0,,
,,,,,,,,,6740e1e09ca406ab781318cb,Spanish,13 or older,"no, only English or Spanish",no,2025-08-13_17h53.24.238,empathy_intonation_perc_control,2024.2.4,MacIntel,131.5789474,6740e1e09ca406ab781318cb,68817205a84113384fffdfe3,689d0920f75a44d79e3997f4,,,,,,,,,,,,,,,,,,,,,,,,,,,14,,,,,,,,,,,,,,,,,,,,,,,,,,,,,,,,,,,,,,,,,,,,809.2449,809.6672,slightly agree,0,13,13,13,1,I often find it difficult to judge if something is rude or polite.,1,0,0,1,,
,,,,,,,,,6740e1e09ca406ab781318cb,Spanish,13 or older,"no, only English or Spanish",no,2025-08-13_17h53.24.238,empathy_intonation_perc_control,2024.2.4,MacIntel,131.5789474,6740e1e09ca406ab781318cb,68817205a84113384fffdfe3,689d0920f75a44d79e3997f4,,,,,,,,,,,,,,,,,,,,,,,,,,,15,,,,,,,,,,,,,,,,,,,,,,,,,,,,,,,,,,,,,,,,,,,,809.6683,821.1953,slightly agree,0,14,14,14,1,"In a conversation, I tend to focus on my own thoughts rather than on what 
  my listener might be thinking.",1,0,0,1,,
,,,,,,,,,6740e1e09ca406ab781318cb,Spanish,13 or older,"no, only English or Spanish",no,2025-08-13_17h53.24.238,empathy_intonation_perc_control,2024.2.4,MacIntel,131.5789474,6740e1e09ca406ab781318cb,68817205a84113384fffdfe3,689d0920f75a44d79e3997f4,,,,,,,,,,,,,,,,,,,,,,,,,,,16,,,,,,,,,,,,,,,,,,,,,,,,,,,,,,,,,,,,,,,,,,,,821.1961,831.5912,slightly disagree,0,15,15,15,1,I prefer practical jokes to verbal humor.,0,1,0,0,,
,,,,,,,,,6740e1e09ca406ab781318cb,Spanish,13 or older,"no, only English or Spanish",no,2025-08-13_17h53.24.238,empathy_intonation_perc_control,2024.2.4,MacIntel,131.5789474,6740e1e09ca406ab781318cb,68817205a84113384fffdfe3,689d0920f75a44d79e3997f4,,,,,,,,,,,,,,,,,,,,,,,,,,,17,,,,,,,,,,,,,,,,,,,,,,,,,,,,,,,,,,,,,,,,,,,,831.592,850.5965,slightly agree,0,16,16,16,1,I live life for today rather than the future.,0,1,0,0,,
,,,,,,,,,6740e1e09ca406ab781318cb,Spanish,13 or older,"no, only English or Spanish",no,2025-08-13_17h53.24.238,empathy_intonation_perc_control,2024.2.4,MacIntel,131.5789474,6740e1e09ca406ab781318cb,68817205a84113384fffdfe3,689d0920f75a44d79e3997f4,,,,,,,,,,,,,,,,,,,,,,,,,,,18,,,,,,,,,,,,,,,,,,,,,,,,,,,,,,,,,,,,,,,,,,,,850.5978,856.0376,strongly disagree,0,17,17,17,1,"When I was a child, I enjoyed cutting up worms to see what would happen.",1,0,0,1,,
,,,,,,,,,6740e1e09ca406ab781318cb,Spanish,13 or older,"no, only English or Spanish",no,2025-08-13_17h53.24.238,empathy_intonation_perc_control,2024.2.4,MacIntel,131.5789474,6740e1e09ca406ab781318cb,68817205a84113384fffdfe3,689d0920f75a44d79e3997f4,,,,,,,,,,,,,,,,,,,,,,,,,,,19,,,,,,,,,,,,,,,,,,,,,,,,,,,,,,,,,,,,,,,,,,,,856.0388,860.5126,slightly agree,0,18,18,18,1,I can pick up quickly if someone says one thing but means another.,1,0,1,0,,
,,,,,,,,,6740e1e09ca406ab781318cb,Spanish,13 or older,"no, only English or Spanish",no,2025-08-13_17h53.24.238,empathy_intonation_perc_control,2024.2.4,MacIntel,131.5789474,6740e1e09ca406ab781318cb,68817205a84113384fffdfe3,689d0920f75a44d79e3997f4,,,,,,,,,,,,,,,,,,,,,,,,,,,20,,,,,,,,,,,,,,,,,,,,,,,,,,,,,,,,,,,,,,,,,,,,860.5134,866.754,strongly disagree,0,19,19,19,1,I tend to have very strong opinions about morality.,0,1,0,0,,
,,,,,,,,,6740e1e09ca406ab781318cb,Spanish,13 or older,"no, only English or Spanish",no,2025-08-13_17h53.24.238,empathy_intonation_perc_control,2024.2.4,MacIntel,131.5789474,6740e1e09ca406ab781318cb,68817205a84113384fffdfe3,689d0920f75a44d79e3997f4,,,,,,,,,,,,,,,,,,,,,,,,,,,21,,,,,,,,,,,,,,,,,,,,,,,,,,,,,,,,,,,,,,,,,,,,866.7554,872.5007,slightly disagree,0,20,20,20,1,It is hard for me to see why some things upset people so much.,1,0,0,1,,
,,,,,,,,,6740e1e09ca406ab781318cb,Spanish,13 or older,"no, only English or Spanish",no,2025-08-13_17h53.24.238,empathy_intonation_perc_control,2024.2.4,MacIntel,131.5789474,6740e1e09ca406ab781318cb,68817205a84113384fffdfe3,689d0920f75a44d79e3997f4,,,,,,,,,,,,,,,,,,,,,,,,,,,22,,,,,,,,,,,,,,,,,,,,,,,,,,,,,,,,,,,,,,,,,,,,872.5019,875.7629,slightly disagree,0,21,21,21,1,I find it easy to put myself in somebody else's shoes.,1,0,1,0,,
,,,,,,,,,6740e1e09ca406ab781318cb,Spanish,13 or older,"no, only English or Spanish",no,2025-08-13_17h53.24.238,empathy_intonation_perc_control,2024.2.4,MacIntel,131.5789474,6740e1e09ca406ab781318cb,68817205a84113384fffdfe3,689d0920f75a44d79e3997f4,,,,,,,,,,,,,,,,,,,,,,,,,,,23,,,,,,,,,,,,,,,,,,,,,,,,,,,,,,,,,,,,,,,,,,,,875.7641,879.1757,slightly agree,0,22,22,22,1,I think that good manners are the most important thing a parent can teach their child.,0,1,0,0,,
