instructions_2afc.started,instructions_2afc.stopped,instructions_2afc_loop.thisRepN,instructions_2afc_loop.thisTrialN,instructions_2afc_loop.thisN,instructions_2afc_loop.thisIndex,instructions_2afc_loop.ran,instructions_text,continue_text,participant_id,"What variety of Spanish are you most familiar with? (e.g., Peruvian, Spanish, Mexican)",At what age did you begin learning Spanish?,Are you proficient in any languages other than English/Spanish?,"Are you familiar with Caribbean (e.g., Caribbean, Puerto Rican) or Galician Spanish?",date,expName,psychopyVersion,OS,frameRate,id,study_id,session,practice_2afc.started,practice_2afc.stopped,key_resp_2afc_practice.keys,key_resp_2afc_practice.corr,key_resp_2afc_practice.rt,key_resp_2afc_practice.duration,trials_2afc_practice_loop.thisRepN,trials_2afc_practice_loop.thisTrialN,trials_2afc_practice_loop.thisN,trials_2afc_practice_loop.thisIndex,trials_2afc_practice_loop.ran,path,correct_response,check_2afc.started,check_2afc.stopped,trial_2afc.started,trial_2afc.stopped,key_resp_2afc_trial.keys,key_resp_2afc_trial.corr,key_resp_2afc_trial.rt,key_resp_2afc_trial.duration,trials_2afc_loop.thisRepN,trials_2afc_loop.thisTrialN,trials_2afc_loop.thisN,trials_2afc_loop.thisIndex,trials_2afc_loop.ran,item_num,target,variety,instructions_lextale.started,instructions_lextale.stopped,instructions_lextale_loop.thisRepN,instructions_lextale_loop.thisTrialN,instructions_lextale_loop.thisN,instructions_lextale_loop.thisIndex,instructions_lextale_loop.ran,practice_lextale.started,practice_lextale.stopped,key_resp_lextale_practice.keys,key_resp_lextale_practice.corr,key_resp_lextale_practice.rt,key_resp_lextale_practice.duration,practice_feedback_lextale.started,practice_feedback_lextale.stopped,trials_lextale_practice_loop.thisRepN,trials_lextale_practice_loop.thisTrialN,trials_lextale_practice_loop.thisN,trials_lextale_practice_loop.thisIndex,trials_lextale_practice_loop.ran,stim,word,prac_button_real,prac_button_false,check_lextale.started,check_lextale.stopped,trial_lextale.started,trial_lextale.stopped,key_resp_lextale_trial.keys,key_resp_lextale_trial.corr,key_resp_lextale_trial.rt,key_resp_lextale_trial.duration,trials_lextale_loop.thisRepN,trials_lextale_loop.thisTrialN,trials_lextale_loop.thisN,trials_lextale_loop.thisIndex,trials_lextale_loop.ran,button_real,button_false,instructions_eq.started,instructions_eq.stopped,trial_eq.started,trial_eq.stopped,slider_eq_trial.response,trials_eq_loop.thisRepN,trials_eq_loop.thisTrialN,trials_eq_loop.thisN,trials_eq_loop.thisIndex,trials_eq_loop.ran,item,is_test_item,is_distractor,is_agree_score,is_disagree_score,end_exp.started,end_exp.stopped
0.0071,6.05,0,0,0,0,1,"In the following task you are going to hear a series of utterances. 

  You will decide if the utterances sound like questions or not using your keyboard.", (press the spacebar to continue),67435174b76a747138e8a47a,Spanish,13 or older,"no, only English or Spanish",no,2026-01-21_19h39.20.058,empathy_intonation_perc_control,2024.2.4,MacIntel,57.47126437,67435174b76a747138e8a47a,69712dc693a3960bdb483245,69717195bd1b4c6c598fb905,,,,,,,,,,,,,,,,,,,,,,,,,,,,,,,,,,,,,,,,,,,,,,,,,,,,,,,,,,,,,,,,,,,,,,,,,,,,,,,,,,,,,
6.0517,12.0498,0,1,1,1,1,"If you believe the utterance is a question, type '1' (for 'yes') and if you do not 
  believe it is a question type '0' (for 'no').

  Let's practice a bit...", (press the spacebar to continue),67435174b76a747138e8a47a,Spanish,13 or older,"no, only English or Spanish",no,2026-01-21_19h39.20.058,empathy_intonation_perc_control,2024.2.4,MacIntel,57.47126437,67435174b76a747138e8a47a,69712dc693a3960bdb483245,69717195bd1b4c6c598fb905,,,,,,,,,,,,,,,,,,,,,,,,,,,,,,,,,,,,,,,,,,,,,,,,,,,,,,,,,,,,,,,,,,,,,,,,,,,,,,,,,,,,,
,,,,,,,,,67435174b76a747138e8a47a,Spanish,13 or older,"no, only English or Spanish",no,2026-01-21_19h39.20.058,empathy_intonation_perc_control,2024.2.4,MacIntel,57.47126437,67435174b76a747138e8a47a,69712dc693a3960bdb483245,69717195bd1b4c6c598fb905,12.0606,14.6994,1,1,2.1145,,0,0,0,3,1,./stim/wavs/mexican_question_filler_Felipe-no-tiene-contrasena.wav,1,,,,,,,,,,,,,,,,,,,,,,,,,,,,,,,,,,,,,,,,,,,,,,,,,,,,,,,,,,,,,,,,,,,,,,,,
,,,,,,,,,67435174b76a747138e8a47a,Spanish,13 or older,"no, only English or Spanish",no,2026-01-21_19h39.20.058,empathy_intonation_perc_control,2024.2.4,MacIntel,57.47126437,67435174b76a747138e8a47a,69712dc693a3960bdb483245,69717195bd1b4c6c598fb905,14.6999,17.0331,1,0,1.8001,,0,1,1,7,1,./stim/wavs/puertorican_statement_filler_La-nina-pinta-con-su-amiga.wav,0,,,,,,,,,,,,,,,,,,,,,,,,,,,,,,,,,,,,,,,,,,,,,,,,,,,,,,,,,,,,,,,,,,,,,,,,
,,,,,,,,,67435174b76a747138e8a47a,Spanish,13 or older,"no, only English or Spanish",no,2026-01-21_19h39.20.058,empathy_intonation_perc_control,2024.2.4,MacIntel,57.47126437,67435174b76a747138e8a47a,69712dc693a3960bdb483245,69717195bd1b4c6c598fb905,17.0341,19.4829,1,0,1.9259,,0,2,2,4,1,./stim/wavs/cuban_statement_filler_Cocinabas-por-la-noche.wav,0,,,,,,,,,,,,,,,,,,,,,,,,,,,,,,,,,,,,,,,,,,,,,,,,,,,,,,,,,,,,,,,,,,,,,,,,
,,,,,,,,,67435174b76a747138e8a47a,Spanish,13 or older,"no, only English or Spanish",no,2026-01-21_19h39.20.058,empathy_intonation_perc_control,2024.2.4,MacIntel,57.47126437,67435174b76a747138e8a47a,69712dc693a3960bdb483245,69717195bd1b4c6c598fb905,19.4837,24.7333,1,0,4.7278,,0,3,3,6,1,./stim/wavs/peruvian_statement_filler_El-nino-habla-con-su-madre.wav,0,,,,,,,,,,,,,,,,,,,,,,,,,,,,,,,,,,,,,,,,,,,,,,,,,,,,,,,,,,,,,,,,,,,,,,,,
,,,,,,,,,67435174b76a747138e8a47a,Spanish,13 or older,"no, only English or Spanish",no,2026-01-21_19h39.20.058,empathy_intonation_perc_control,2024.2.4,MacIntel,57.47126437,67435174b76a747138e8a47a,69712dc693a3960bdb483245,69717195bd1b4c6c598fb905,24.734,26.9159,1,1,1.651,,0,4,4,1,1,./stim/wavs/argentine_question_filler_Mi-vecino-habla-mucho.wav,1,,,,,,,,,,,,,,,,,,,,,,,,,,,,,,,,,,,,,,,,,,,,,,,,,,,,,,,,,,,,,,,,,,,,,,,,
,,,,,,,,,67435174b76a747138e8a47a,Spanish,13 or older,"no, only English or Spanish",no,2026-01-21_19h39.20.058,empathy_intonation_perc_control,2024.2.4,MacIntel,57.47126437,67435174b76a747138e8a47a,69712dc693a3960bdb483245,69717195bd1b4c6c598fb905,26.9162,29.4486,1,1,2.0259,,0,5,5,2,1,./stim/wavs/chilean_question_filler_Mi-padre-cantaba-bien.wav,1,,,,,,,,,,,,,,,,,,,,,,,,,,,,,,,,,,,,,,,,,,,,,,,,,,,,,,,,,,,,,,,,,,,,,,,,
,,,,,,,,,67435174b76a747138e8a47a,Spanish,13 or older,"no, only English or Spanish",no,2026-01-21_19h39.20.058,empathy_intonation_perc_control,2024.2.4,MacIntel,57.47126437,67435174b76a747138e8a47a,69712dc693a3960bdb483245,69717195bd1b4c6c598fb905,29.4493,31.9664,0,1,1.9929,,0,6,6,5,1,./stim/wavs/andalusian_statement_filler_Alberto-nunca-se-afeita.wav,0,,,,,,,,,,,,,,,,,,,,,,,,,,,,,,,,,,,,,,,,,,,,,,,,,,,,,,,,,,,,,,,,,,,,,,,,
,,,,,,,,,67435174b76a747138e8a47a,Spanish,13 or older,"no, only English or Spanish",no,2026-01-21_19h39.20.058,empathy_intonation_perc_control,2024.2.4,MacIntel,57.47126437,67435174b76a747138e8a47a,69712dc693a3960bdb483245,69717195bd1b4c6c598fb905,31.9671,34.4165,1,1,1.9166,,0,7,7,0,1,./stim/wavs/castilian_question_filler_Mi-esposo-conoce-al-chico.wav,1,,,,,,,,,,,,,,,,,,,,,,,,,,,,,,,,,,,,,,,,,,,,,,,,,,,,,,,,,,,,,,,,,,,,,,,,
,,,,,,,,,67435174b76a747138e8a47a,Spanish,13 or older,"no, only English or Spanish",no,2026-01-21_19h39.20.058,empathy_intonation_perc_control,2024.2.4,MacIntel,57.47126437,67435174b76a747138e8a47a,69712dc693a3960bdb483245,69717195bd1b4c6c598fb905,,,,,,,,,,,,,,34.417,38.1327,,,,,,,,,,,,,,,,,,,,,,,,,,,,,,,,,,,,,,,,,,,,,,,,,,,,,,,,,,,,,,,,,,,,,,
,,,,,,,,,67435174b76a747138e8a47a,Spanish,13 or older,"no, only English or Spanish",no,2026-01-21_19h39.20.058,empathy_intonation_perc_control,2024.2.4,MacIntel,57.47126437,67435174b76a747138e8a47a,69712dc693a3960bdb483245,69717195bd1b4c6c598fb905,,,,,,,,,,,,./stim/wavs/mexican_match_declarative-broad-focus_Mariano-habla-del-tiempo.wav,0,,,38.1409,40.3835,1,0,1.7167,,0,0,0,60,1,61,0,mexican,,,,,,,,,,,,,,,,,,,,,,,,,,,,,,,,,,,,,,,,,,,,,,,,,,,,,,,,
,,,,,,,,,67435174b76a747138e8a47a,Spanish,13 or older,"no, only English or Spanish",no,2026-01-21_19h39.20.058,empathy_intonation_perc_control,2024.2.4,MacIntel,57.47126437,67435174b76a747138e8a47a,69712dc693a3960bdb483245,69717195bd1b4c6c598fb905,,,,,,,,,,,,./stim/wavs/mexican_mismatch_interrogative-total-yn_Mi-novio-viene-del-lago.wav,1,,,40.3844,42.8832,0,0,1.9699,,0,1,1,37,1,38,0,mexican,,,,,,,,,,,,,,,,,,,,,,,,,,,,,,,,,,,,,,,,,,,,,,,,,,,,,,,,
,,,,,,,,,67435174b76a747138e8a47a,Spanish,13 or older,"no, only English or Spanish",no,2026-01-21_19h39.20.058,empathy_intonation_perc_control,2024.2.4,MacIntel,57.47126437,67435174b76a747138e8a47a,69712dc693a3960bdb483245,69717195bd1b4c6c598fb905,,,,,,,,,,,,./stim/wavs/castilian_match_declarative-broad-focus_David-leia-el-libro.wav,0,,,42.884,45.0332,0,1,1.6174,,0,2,2,44,1,45,0,castilian,,,,,,,,,,,,,,,,,,,,,,,,,,,,,,,,,,,,,,,,,,,,,,,,,,,,,,,,
,,,,,,,,,67435174b76a747138e8a47a,Spanish,13 or older,"no, only English or Spanish",no,2026-01-21_19h39.20.058,empathy_intonation_perc_control,2024.2.4,MacIntel,57.47126437,67435174b76a747138e8a47a,69712dc693a3960bdb483245,69717195bd1b4c6c598fb905,,,,,,,,,,,,./stim/wavs/mexican_match_interrogative-total-yn_Mariano-habla-del-tiempo.wav,1,,,45.0339,47.4497,1,1,1.884,,0,3,3,16,1,17,0,mexican,,,,,,,,,,,,,,,,,,,,,,,,,,,,,,,,,,,,,,,,,,,,,,,,,,,,,,,,
,,,,,,,,,67435174b76a747138e8a47a,Spanish,13 or older,"no, only English or Spanish",no,2026-01-21_19h39.20.058,empathy_intonation_perc_control,2024.2.4,MacIntel,57.47126437,67435174b76a747138e8a47a,69712dc693a3960bdb483245,69717195bd1b4c6c598fb905,,,,,,,,,,,,./stim/wavs/mexican_match_interrogative-total-yn_Emilio-ama-la-marcha.wav,1,,,47.4504,50.1827,0,0,2.2021,,0,4,4,15,1,16,0,mexican,,,,,,,,,,,,,,,,,,,,,,,,,,,,,,,,,,,,,,,,,,,,,,,,,,,,,,,,
,,,,,,,,,67435174b76a747138e8a47a,Spanish,13 or older,"no, only English or Spanish",no,2026-01-21_19h39.20.058,empathy_intonation_perc_control,2024.2.4,MacIntel,57.47126437,67435174b76a747138e8a47a,69712dc693a3960bdb483245,69717195bd1b4c6c598fb905,,,,,,,,,,,,./stim/wavs/mexican_mismatch_interrogative-total-yn_La-maestra-vive-en-Paris.wav,1,,,50.1833,52.1999,1,1,1.4838,,0,5,5,36,1,37,0,mexican,,,,,,,,,,,,,,,,,,,,,,,,,,,,,,,,,,,,,,,,,,,,,,,,,,,,,,,,
,,,,,,,,,67435174b76a747138e8a47a,Spanish,13 or older,"no, only English or Spanish",no,2026-01-21_19h39.20.058,empathy_intonation_perc_control,2024.2.4,MacIntel,57.47126437,67435174b76a747138e8a47a,69712dc693a3960bdb483245,69717195bd1b4c6c598fb905,,,,,,,,,,,,./stim/wavs/castilian_mismatch_interrogative-total-yn_Mi-madre-come-la-fruta.wav,1,,,52.2007,54.7331,1,1,2.0092,,0,6,6,26,1,27,0,castilian,,,,,,,,,,,,,,,,,,,,,,,,,,,,,,,,,,,,,,,,,,,,,,,,,,,,,,,,
,,,,,,,,,67435174b76a747138e8a47a,Spanish,13 or older,"no, only English or Spanish",no,2026-01-21_19h39.20.058,empathy_intonation_perc_control,2024.2.4,MacIntel,57.47126437,67435174b76a747138e8a47a,69712dc693a3960bdb483245,69717195bd1b4c6c598fb905,,,,,,,,,,,,./stim/wavs/cuban_mismatch_declarative-broad-focus_El-bebe-comia-muy-bien.wav,0,,,54.7337,57.1998,0,1,1.9355,,0,7,7,73,1,74,0,cuban,,,,,,,,,,,,,,,,,,,,,,,,,,,,,,,,,,,,,,,,,,,,,,,,,,,,,,,,
,,,,,,,,,67435174b76a747138e8a47a,Spanish,13 or older,"no, only English or Spanish",no,2026-01-21_19h39.20.058,empathy_intonation_perc_control,2024.2.4,MacIntel,57.47126437,67435174b76a747138e8a47a,69712dc693a3960bdb483245,69717195bd1b4c6c598fb905,,,,,,,,,,,,./stim/wavs/mexican_match_declarative-broad-focus_Marta-abre-el-regalo.wav,0,,,57.2003,59.4998,0,1,1.7681,,0,8,8,61,1,62,0,mexican,,,,,,,,,,,,,,,,,,,,,,,,,,,,,,,,,,,,,,,,,,,,,,,,,,,,,,,,
,,,,,,,,,67435174b76a747138e8a47a,Spanish,13 or older,"no, only English or Spanish",no,2026-01-21_19h39.20.058,empathy_intonation_perc_control,2024.2.4,MacIntel,57.47126437,67435174b76a747138e8a47a,69712dc693a3960bdb483245,69717195bd1b4c6c598fb905,,,,,,,,,,,,./stim/wavs/cuban_mismatch_interrogative-total-yn_El-hombre-mira-la-luna.wav,1,,,59.5005,61.4333,0,0,1.4011,,0,9,9,29,1,30,1,cuban,,,,,,,,,,,,,,,,,,,,,,,,,,,,,,,,,,,,,,,,,,,,,,,,,,,,,,,,
,,,,,,,,,67435174b76a747138e8a47a,Spanish,13 or older,"no, only English or Spanish",no,2026-01-21_19h39.20.058,empathy_intonation_perc_control,2024.2.4,MacIntel,57.47126437,67435174b76a747138e8a47a,69712dc693a3960bdb483245,69717195bd1b4c6c598fb905,,,,,,,,,,,,./stim/wavs/castilian_mismatch_declarative-broad-focus_La-maestra-vive-en-Paris.wav,0,,,61.4339,64,1,0,2.0334,,0,10,10,69,1,70,0,castilian,,,,,,,,,,,,,,,,,,,,,,,,,,,,,,,,,,,,,,,,,,,,,,,,,,,,,,,,
,,,,,,,,,67435174b76a747138e8a47a,Spanish,13 or older,"no, only English or Spanish",no,2026-01-21_19h39.20.058,empathy_intonation_perc_control,2024.2.4,MacIntel,57.47126437,67435174b76a747138e8a47a,69712dc693a3960bdb483245,69717195bd1b4c6c598fb905,,,,,,,,,,,,./stim/wavs/puertorican_mismatch_interrogative-total-yn_Mi-madre-come-la-fruta.wav,1,,,64.0007,66.2498,0,0,1.7271,,0,11,11,43,1,44,1,puertorican,,,,,,,,,,,,,,,,,,,,,,,,,,,,,,,,,,,,,,,,,,,,,,,,,,,,,,,,
,,,,,,,,,67435174b76a747138e8a47a,Spanish,13 or older,"no, only English or Spanish",no,2026-01-21_19h39.20.058,empathy_intonation_perc_control,2024.2.4,MacIntel,57.47126437,67435174b76a747138e8a47a,69712dc693a3960bdb483245,69717195bd1b4c6c598fb905,,,,,,,,,,,,./stim/wavs/puertorican_match_interrogative-total-yn_Manuela-vende-el-carro.wav,1,,,66.2504,68.4657,0,0,1.6925,,0,12,12,22,1,23,1,puertorican,,,,,,,,,,,,,,,,,,,,,,,,,,,,,,,,,,,,,,,,,,,,,,,,,,,,,,,,
,,,,,,,,,67435174b76a747138e8a47a,Spanish,13 or older,"no, only English or Spanish",no,2026-01-21_19h39.20.058,empathy_intonation_perc_control,2024.2.4,MacIntel,57.47126437,67435174b76a747138e8a47a,69712dc693a3960bdb483245,69717195bd1b4c6c598fb905,,,,,,,,,,,,./stim/wavs/cuban_match_declarative-broad-focus_Mariano-habla-del-tiempo.wav,0,,,68.4663,70.8333,0,1,1.8507,,0,13,13,54,1,55,0,cuban,,,,,,,,,,,,,,,,,,,,,,,,,,,,,,,,,,,,,,,,,,,,,,,,,,,,,,,,
,,,,,,,,,67435174b76a747138e8a47a,Spanish,13 or older,"no, only English or Spanish",no,2026-01-21_19h39.20.058,empathy_intonation_perc_control,2024.2.4,MacIntel,57.47126437,67435174b76a747138e8a47a,69712dc693a3960bdb483245,69717195bd1b4c6c598fb905,,,,,,,,,,,,./stim/wavs/castilian_match_declarative-broad-focus_Maria-bebe-el-vino.wav,0,,,70.8341,72.7667,1,0,1.4001,,0,14,14,47,1,48,0,castilian,,,,,,,,,,,,,,,,,,,,,,,,,,,,,,,,,,,,,,,,,,,,,,,,,,,,,,,,
,,,,,,,,,67435174b76a747138e8a47a,Spanish,13 or older,"no, only English or Spanish",no,2026-01-21_19h39.20.058,empathy_intonation_perc_control,2024.2.4,MacIntel,57.47126437,67435174b76a747138e8a47a,69712dc693a3960bdb483245,69717195bd1b4c6c598fb905,,,,,,,,,,,,./stim/wavs/puertorican_match_declarative-broad-focus_David-leia-el-libro.wav,0,,,72.7676,75.0666,0,1,1.767,,0,15,15,64,1,65,0,puertorican,,,,,,,,,,,,,,,,,,,,,,,,,,,,,,,,,,,,,,,,,,,,,,,,,,,,,,,,
,,,,,,,,,67435174b76a747138e8a47a,Spanish,13 or older,"no, only English or Spanish",no,2026-01-21_19h39.20.058,empathy_intonation_perc_control,2024.2.4,MacIntel,57.47126437,67435174b76a747138e8a47a,69712dc693a3960bdb483245,69717195bd1b4c6c598fb905,,,,,,,,,,,,./stim/wavs/puertorican_mismatch_interrogative-total-yn_El-hombre-mira-la-luna.wav,1,,,75.0674,78.15,0,0,2.5505,,0,16,16,39,1,40,1,puertorican,,,,,,,,,,,,,,,,,,,,,,,,,,,,,,,,,,,,,,,,,,,,,,,,,,,,,,,,
,,,,,,,,,67435174b76a747138e8a47a,Spanish,13 or older,"no, only English or Spanish",no,2026-01-21_19h39.20.058,empathy_intonation_perc_control,2024.2.4,MacIntel,57.47126437,67435174b76a747138e8a47a,69712dc693a3960bdb483245,69717195bd1b4c6c598fb905,,,,,,,,,,,,./stim/wavs/cuban_match_interrogative-total-yn_Marta-abre-el-regalo.wav,1,,,78.1506,80.5837,1,1,1.9113,,0,17,17,11,1,12,1,cuban,,,,,,,,,,,,,,,,,,,,,,,,,,,,,,,,,,,,,,,,,,,,,,,,,,,,,,,,
,,,,,,,,,67435174b76a747138e8a47a,Spanish,13 or older,"no, only English or Spanish",no,2026-01-21_19h39.20.058,empathy_intonation_perc_control,2024.2.4,MacIntel,57.47126437,67435174b76a747138e8a47a,69712dc693a3960bdb483245,69717195bd1b4c6c598fb905,,,,,,,,,,,,./stim/wavs/mexican_match_interrogative-total-yn_Ana-lleva-el-abrigo.wav,1,,,80.5844,82.6499,0,0,1.5429,,0,18,18,12,1,13,0,mexican,,,,,,,,,,,,,,,,,,,,,,,,,,,,,,,,,,,,,,,,,,,,,,,,,,,,,,,,
,,,,,,,,,67435174b76a747138e8a47a,Spanish,13 or older,"no, only English or Spanish",no,2026-01-21_19h39.20.058,empathy_intonation_perc_control,2024.2.4,MacIntel,57.47126437,67435174b76a747138e8a47a,69712dc693a3960bdb483245,69717195bd1b4c6c598fb905,,,,,,,,,,,,./stim/wavs/castilian_mismatch_interrogative-total-yn_Mi-tia-odia-la-lluvia.wav,1,,,82.6505,85.1667,0,0,1.985,,0,19,19,28,1,29,0,castilian,,,,,,,,,,,,,,,,,,,,,,,,,,,,,,,,,,,,,,,,,,,,,,,,,,,,,,,,
,,,,,,,,,67435174b76a747138e8a47a,Spanish,13 or older,"no, only English or Spanish",no,2026-01-21_19h39.20.058,empathy_intonation_perc_control,2024.2.4,MacIntel,57.47126437,67435174b76a747138e8a47a,69712dc693a3960bdb483245,69717195bd1b4c6c598fb905,,,,,,,,,,,,./stim/wavs/puertorican_match_interrogative-total-yn_David-leia-el-libro.wav,1,,,85.1674,87.1001,1,1,1.3997,,0,20,20,20,1,21,1,puertorican,,,,,,,,,,,,,,,,,,,,,,,,,,,,,,,,,,,,,,,,,,,,,,,,,,,,,,,,
,,,,,,,,,67435174b76a747138e8a47a,Spanish,13 or older,"no, only English or Spanish",no,2026-01-21_19h39.20.058,empathy_intonation_perc_control,2024.2.4,MacIntel,57.47126437,67435174b76a747138e8a47a,69712dc693a3960bdb483245,69717195bd1b4c6c598fb905,,,,,,,,,,,,./stim/wavs/mexican_match_declarative-broad-focus_Daniel-iba-a-Bolivia.wav,0,,,87.1008,89.0834,1,0,1.4498,,0,21,21,57,1,58,0,mexican,,,,,,,,,,,,,,,,,,,,,,,,,,,,,,,,,,,,,,,,,,,,,,,,,,,,,,,,
,,,,,,,,,67435174b76a747138e8a47a,Spanish,13 or older,"no, only English or Spanish",no,2026-01-21_19h39.20.058,empathy_intonation_perc_control,2024.2.4,MacIntel,57.47126437,67435174b76a747138e8a47a,69712dc693a3960bdb483245,69717195bd1b4c6c598fb905,,,,,,,,,,,,./stim/wavs/cuban_match_interrogative-total-yn_Maria-bebe-el-vino.wav,1,,,89.0841,91.6334,0,0,2.018,,0,22,22,9,1,10,1,cuban,,,,,,,,,,,,,,,,,,,,,,,,,,,,,,,,,,,,,,,,,,,,,,,,,,,,,,,,
,,,,,,,,,67435174b76a747138e8a47a,Spanish,13 or older,"no, only English or Spanish",no,2026-01-21_19h39.20.058,empathy_intonation_perc_control,2024.2.4,MacIntel,57.47126437,67435174b76a747138e8a47a,69712dc693a3960bdb483245,69717195bd1b4c6c598fb905,,,,,,,,,,,,./stim/wavs/mexican_mismatch_interrogative-total-yn_Mi-tia-odia-la-lluvia.wav,1,,,91.6341,93.7833,1,1,1.6189,,0,23,23,38,1,39,0,mexican,,,,,,,,,,,,,,,,,,,,,,,,,,,,,,,,,,,,,,,,,,,,,,,,,,,,,,,,
,,,,,,,,,67435174b76a747138e8a47a,Spanish,13 or older,"no, only English or Spanish",no,2026-01-21_19h39.20.058,empathy_intonation_perc_control,2024.2.4,MacIntel,57.47126437,67435174b76a747138e8a47a,69712dc693a3960bdb483245,69717195bd1b4c6c598fb905,,,,,,,,,,,,./stim/wavs/puertorican_match_declarative-broad-focus_Manuela-vende-el-carro.wav,0,,,93.784,95.8168,1,0,1.5006,,0,24,24,66,1,67,0,puertorican,,,,,,,,,,,,,,,,,,,,,,,,,,,,,,,,,,,,,,,,,,,,,,,,,,,,,,,,
,,,,,,,,,67435174b76a747138e8a47a,Spanish,13 or older,"no, only English or Spanish",no,2026-01-21_19h39.20.058,empathy_intonation_perc_control,2024.2.4,MacIntel,57.47126437,67435174b76a747138e8a47a,69712dc693a3960bdb483245,69717195bd1b4c6c598fb905,,,,,,,,,,,,./stim/wavs/cuban_mismatch_interrogative-total-yn_Mi-novio-viene-del-lago.wav,1,,,95.8174,97.9832,0,0,1.6427,,0,25,25,32,1,33,1,cuban,,,,,,,,,,,,,,,,,,,,,,,,,,,,,,,,,,,,,,,,,,,,,,,,,,,,,,,,
,,,,,,,,,67435174b76a747138e8a47a,Spanish,13 or older,"no, only English or Spanish",no,2026-01-21_19h39.20.058,empathy_intonation_perc_control,2024.2.4,MacIntel,57.47126437,67435174b76a747138e8a47a,69712dc693a3960bdb483245,69717195bd1b4c6c598fb905,,,,,,,,,,,,./stim/wavs/puertorican_match_declarative-broad-focus_Maria-bebe-el-vino.wav,0,,,97.9837,100.1998,0,1,1.6871,,0,26,26,67,1,68,0,puertorican,,,,,,,,,,,,,,,,,,,,,,,,,,,,,,,,,,,,,,,,,,,,,,,,,,,,,,,,
,,,,,,,,,67435174b76a747138e8a47a,Spanish,13 or older,"no, only English or Spanish",no,2026-01-21_19h39.20.058,empathy_intonation_perc_control,2024.2.4,MacIntel,57.47126437,67435174b76a747138e8a47a,69712dc693a3960bdb483245,69717195bd1b4c6c598fb905,,,,,,,,,,,,./stim/wavs/cuban_mismatch_interrogative-total-yn_El-nino-oye-el-rio.wav,1,,,100.2001,102.7164,1,1,1.9885,,0,27,27,30,1,31,1,cuban,,,,,,,,,,,,,,,,,,,,,,,,,,,,,,,,,,,,,,,,,,,,,,,,,,,,,,,,
,,,,,,,,,67435174b76a747138e8a47a,Spanish,13 or older,"no, only English or Spanish",no,2026-01-21_19h39.20.058,empathy_intonation_perc_control,2024.2.4,MacIntel,57.47126437,67435174b76a747138e8a47a,69712dc693a3960bdb483245,69717195bd1b4c6c598fb905,,,,,,,,,,,,./stim/wavs/castilian_mismatch_interrogative-total-yn_La-maestra-vive-en-Paris.wav,1,,,102.717,105.5158,1,1,2.267,,0,28,28,24,1,25,0,castilian,,,,,,,,,,,,,,,,,,,,,,,,,,,,,,,,,,,,,,,,,,,,,,,,,,,,,,,,
,,,,,,,,,67435174b76a747138e8a47a,Spanish,13 or older,"no, only English or Spanish",no,2026-01-21_19h39.20.058,empathy_intonation_perc_control,2024.2.4,MacIntel,57.47126437,67435174b76a747138e8a47a,69712dc693a3960bdb483245,69717195bd1b4c6c598fb905,,,,,,,,,,,,./stim/wavs/puertorican_match_interrogative-total-yn_Emilio-ama-la-marcha.wav,1,,,105.5163,108.0837,0,0,2.0615,,0,29,29,21,1,22,1,puertorican,,,,,,,,,,,,,,,,,,,,,,,,,,,,,,,,,,,,,,,,,,,,,,,,,,,,,,,,
,,,,,,,,,67435174b76a747138e8a47a,Spanish,13 or older,"no, only English or Spanish",no,2026-01-21_19h39.20.058,empathy_intonation_perc_control,2024.2.4,MacIntel,57.47126437,67435174b76a747138e8a47a,69712dc693a3960bdb483245,69717195bd1b4c6c598fb905,,,,,,,,,,,,./stim/wavs/mexican_mismatch_declarative-broad-focus_Mi-novio-viene-del-lago.wav,0,,,108.0842,110.0825,0,1,1.4667,,0,30,30,81,1,82,0,mexican,,,,,,,,,,,,,,,,,,,,,,,,,,,,,,,,,,,,,,,,,,,,,,,,,,,,,,,,
,,,,,,,,,67435174b76a747138e8a47a,Spanish,13 or older,"no, only English or Spanish",no,2026-01-21_19h39.20.058,empathy_intonation_perc_control,2024.2.4,MacIntel,57.47126437,67435174b76a747138e8a47a,69712dc693a3960bdb483245,69717195bd1b4c6c598fb905,,,,,,,,,,,,./stim/wavs/puertorican_mismatch_interrogative-total-yn_El-nino-oye-el-rio.wav,1,,,110.0832,112.2334,0,0,1.6443,,0,31,31,40,1,41,1,puertorican,,,,,,,,,,,,,,,,,,,,,,,,,,,,,,,,,,,,,,,,,,,,,,,,,,,,,,,,
,,,,,,,,,67435174b76a747138e8a47a,Spanish,13 or older,"no, only English or Spanish",no,2026-01-21_19h39.20.058,empathy_intonation_perc_control,2024.2.4,MacIntel,57.47126437,67435174b76a747138e8a47a,69712dc693a3960bdb483245,69717195bd1b4c6c598fb905,,,,,,,,,,,,./stim/wavs/castilian_mismatch_interrogative-total-yn_Mi-novio-viene-del-lago.wav,1,,,112.2339,115.0503,0,0,2.2836,,0,32,32,27,1,28,0,castilian,,,,,,,,,,,,,,,,,,,,,,,,,,,,,,,,,,,,,,,,,,,,,,,,,,,,,,,,
,,,,,,,,,67435174b76a747138e8a47a,Spanish,13 or older,"no, only English or Spanish",no,2026-01-21_19h39.20.058,empathy_intonation_perc_control,2024.2.4,MacIntel,57.47126437,67435174b76a747138e8a47a,69712dc693a3960bdb483245,69717195bd1b4c6c598fb905,,,,,,,,,,,,./stim/wavs/cuban_mismatch_interrogative-total-yn_Mi-madre-come-la-fruta.wav,1,,,115.051,116.9502,1,1,1.3667,,0,33,33,31,1,32,1,cuban,,,,,,,,,,,,,,,,,,,,,,,,,,,,,,,,,,,,,,,,,,,,,,,,,,,,,,,,
,,,,,,,,,67435174b76a747138e8a47a,Spanish,13 or older,"no, only English or Spanish",no,2026-01-21_19h39.20.058,empathy_intonation_perc_control,2024.2.4,MacIntel,57.47126437,67435174b76a747138e8a47a,69712dc693a3960bdb483245,69717195bd1b4c6c598fb905,,,,,,,,,,,,./stim/wavs/puertorican_mismatch_declarative-broad-focus_La-maestra-vive-en-Paris.wav,0,,,116.9509,119.5667,1,0,2.0871,,0,34,34,86,1,87,0,puertorican,,,,,,,,,,,,,,,,,,,,,,,,,,,,,,,,,,,,,,,,,,,,,,,,,,,,,,,,
,,,,,,,,,67435174b76a747138e8a47a,Spanish,13 or older,"no, only English or Spanish",no,2026-01-21_19h39.20.058,empathy_intonation_perc_control,2024.2.4,MacIntel,57.47126437,67435174b76a747138e8a47a,69712dc693a3960bdb483245,69717195bd1b4c6c598fb905,,,,,,,,,,,,./stim/wavs/castilian_mismatch_declarative-broad-focus_La-nina-lava-el-plato.wav,0,,,119.5674,121.8833,0,1,1.7923,,0,35,35,70,1,71,0,castilian,,,,,,,,,,,,,,,,,,,,,,,,,,,,,,,,,,,,,,,,,,,,,,,,,,,,,,,,
,,,,,,,,,67435174b76a747138e8a47a,Spanish,13 or older,"no, only English or Spanish",no,2026-01-21_19h39.20.058,empathy_intonation_perc_control,2024.2.4,MacIntel,57.47126437,67435174b76a747138e8a47a,69712dc693a3960bdb483245,69717195bd1b4c6c598fb905,,,,,,,,,,,,./stim/wavs/mexican_match_declarative-broad-focus_Ana-lleva-el-abrigo.wav,0,,,121.884,123.9003,1,0,1.4835,,0,36,36,56,1,57,0,mexican,,,,,,,,,,,,,,,,,,,,,,,,,,,,,,,,,,,,,,,,,,,,,,,,,,,,,,,,
,,,,,,,,,67435174b76a747138e8a47a,Spanish,13 or older,"no, only English or Spanish",no,2026-01-21_19h39.20.058,empathy_intonation_perc_control,2024.2.4,MacIntel,57.47126437,67435174b76a747138e8a47a,69712dc693a3960bdb483245,69717195bd1b4c6c598fb905,,,,,,,,,,,,./stim/wavs/castilian_match_interrogative-total-yn_Mariano-habla-del-tiempo.wav,1,,,123.9011,126.4336,0,0,2.0004,,0,37,37,4,1,5,0,castilian,,,,,,,,,,,,,,,,,,,,,,,,,,,,,,,,,,,,,,,,,,,,,,,,,,,,,,,,
,,,,,,,,,67435174b76a747138e8a47a,Spanish,13 or older,"no, only English or Spanish",no,2026-01-21_19h39.20.058,empathy_intonation_perc_control,2024.2.4,MacIntel,57.47126437,67435174b76a747138e8a47a,69712dc693a3960bdb483245,69717195bd1b4c6c598fb905,,,,,,,,,,,,./stim/wavs/castilian_match_interrogative-total-yn_Emilio-ama-la-marcha.wav,1,,,126.4343,128.967,1,1,2.0003,,0,38,38,1,1,2,0,castilian,,,,,,,,,,,,,,,,,,,,,,,,,,,,,,,,,,,,,,,,,,,,,,,,,,,,,,,,
,,,,,,,,,67435174b76a747138e8a47a,Spanish,13 or older,"no, only English or Spanish",no,2026-01-21_19h39.20.058,empathy_intonation_perc_control,2024.2.4,MacIntel,57.47126437,67435174b76a747138e8a47a,69712dc693a3960bdb483245,69717195bd1b4c6c598fb905,,,,,,,,,,,,./stim/wavs/mexican_mismatch_interrogative-total-yn_El-nino-oye-el-rio.wav,1,,,128.9677,131.4002,0,0,1.9033,,0,39,39,35,1,36,0,mexican,,,,,,,,,,,,,,,,,,,,,,,,,,,,,,,,,,,,,,,,,,,,,,,,,,,,,,,,
,,,,,,,,,67435174b76a747138e8a47a,Spanish,13 or older,"no, only English or Spanish",no,2026-01-21_19h39.20.058,empathy_intonation_perc_control,2024.2.4,MacIntel,57.47126437,67435174b76a747138e8a47a,69712dc693a3960bdb483245,69717195bd1b4c6c598fb905,,,,,,,,,,,,./stim/wavs/castilian_match_interrogative-total-yn_Maria-bebe-el-vino.wav,1,,,131.4009,133.4335,0,0,1.4996,,0,40,40,3,1,4,0,castilian,,,,,,,,,,,,,,,,,,,,,,,,,,,,,,,,,,,,,,,,,,,,,,,,,,,,,,,,
,,,,,,,,,67435174b76a747138e8a47a,Spanish,13 or older,"no, only English or Spanish",no,2026-01-21_19h39.20.058,empathy_intonation_perc_control,2024.2.4,MacIntel,57.47126437,67435174b76a747138e8a47a,69712dc693a3960bdb483245,69717195bd1b4c6c598fb905,,,,,,,,,,,,./stim/wavs/cuban_mismatch_interrogative-total-yn_Mi-tia-odia-la-lluvia.wav,1,,,133.4341,135.967,0,0,2.0004,,0,41,41,33,1,34,1,cuban,,,,,,,,,,,,,,,,,,,,,,,,,,,,,,,,,,,,,,,,,,,,,,,,,,,,,,,,
,,,,,,,,,67435174b76a747138e8a47a,Spanish,13 or older,"no, only English or Spanish",no,2026-01-21_19h39.20.058,empathy_intonation_perc_control,2024.2.4,MacIntel,57.47126437,67435174b76a747138e8a47a,69712dc693a3960bdb483245,69717195bd1b4c6c598fb905,,,,,,,,,,,,./stim/wavs/puertorican_mismatch_declarative-broad-focus_El-hombre-mira-la-luna.wav,0,,,135.9677,138.0336,1,0,1.5331,,0,42,42,84,1,85,0,puertorican,,,,,,,,,,,,,,,,,,,,,,,,,,,,,,,,,,,,,,,,,,,,,,,,,,,,,,,,
,,,,,,,,,67435174b76a747138e8a47a,Spanish,13 or older,"no, only English or Spanish",no,2026-01-21_19h39.20.058,empathy_intonation_perc_control,2024.2.4,MacIntel,57.47126437,67435174b76a747138e8a47a,69712dc693a3960bdb483245,69717195bd1b4c6c598fb905,,,,,,,,,,,,./stim/wavs/cuban_match_interrogative-total-yn_Ana-lleva-el-abrigo.wav,1,,,138.0343,139.9835,1,1,1.4254,,0,43,43,6,1,7,1,cuban,,,,,,,,,,,,,,,,,,,,,,,,,,,,,,,,,,,,,,,,,,,,,,,,,,,,,,,,
,,,,,,,,,67435174b76a747138e8a47a,Spanish,13 or older,"no, only English or Spanish",no,2026-01-21_19h39.20.058,empathy_intonation_perc_control,2024.2.4,MacIntel,57.47126437,67435174b76a747138e8a47a,69712dc693a3960bdb483245,69717195bd1b4c6c598fb905,,,,,,,,,,,,./stim/wavs/castilian_mismatch_declarative-broad-focus_Mi-tia-odia-la-lluvia.wav,0,,,139.984,142.1503,0,1,1.6331,,0,44,44,72,1,73,0,castilian,,,,,,,,,,,,,,,,,,,,,,,,,,,,,,,,,,,,,,,,,,,,,,,,,,,,,,,,
,,,,,,,,,67435174b76a747138e8a47a,Spanish,13 or older,"no, only English or Spanish",no,2026-01-21_19h39.20.058,empathy_intonation_perc_control,2024.2.4,MacIntel,57.47126437,67435174b76a747138e8a47a,69712dc693a3960bdb483245,69717195bd1b4c6c598fb905,,,,,,,,,,,,./stim/wavs/mexican_match_interrogative-total-yn_Daniel-iba-a-Bolivia.wav,1,,,142.1511,144.5673,0,0,1.8948,,0,45,45,13,1,14,0,mexican,,,,,,,,,,,,,,,,,,,,,,,,,,,,,,,,,,,,,,,,,,,,,,,,,,,,,,,,
,,,,,,,,,67435174b76a747138e8a47a,Spanish,13 or older,"no, only English or Spanish",no,2026-01-21_19h39.20.058,empathy_intonation_perc_control,2024.2.4,MacIntel,57.47126437,67435174b76a747138e8a47a,69712dc693a3960bdb483245,69717195bd1b4c6c598fb905,,,,,,,,,,,,./stim/wavs/cuban_match_interrogative-total-yn_Daniel-iba-a-Bolivia.wav,1,,,144.568,146.9003,0,0,1.8004,,0,46,46,7,1,8,1,cuban,,,,,,,,,,,,,,,,,,,,,,,,,,,,,,,,,,,,,,,,,,,,,,,,,,,,,,,,
,,,,,,,,,67435174b76a747138e8a47a,Spanish,13 or older,"no, only English or Spanish",no,2026-01-21_19h39.20.058,empathy_intonation_perc_control,2024.2.4,MacIntel,57.47126437,67435174b76a747138e8a47a,69712dc693a3960bdb483245,69717195bd1b4c6c598fb905,,,,,,,,,,,,./stim/wavs/cuban_match_declarative-broad-focus_Maria-bebe-el-vino.wav,0,,,146.9012,148.9503,1,0,1.5279,,0,47,47,53,1,54,0,cuban,,,,,,,,,,,,,,,,,,,,,,,,,,,,,,,,,,,,,,,,,,,,,,,,,,,,,,,,
,,,,,,,,,67435174b76a747138e8a47a,Spanish,13 or older,"no, only English or Spanish",no,2026-01-21_19h39.20.058,empathy_intonation_perc_control,2024.2.4,MacIntel,57.47126437,67435174b76a747138e8a47a,69712dc693a3960bdb483245,69717195bd1b4c6c598fb905,,,,,,,,,,,,./stim/wavs/castilian_match_declarative-broad-focus_Emilio-ama-la-marcha.wav,0,,,148.9509,150.9337,1,0,1.4536,,0,48,48,45,1,46,0,castilian,,,,,,,,,,,,,,,,,,,,,,,,,,,,,,,,,,,,,,,,,,,,,,,,,,,,,,,,
,,,,,,,,,67435174b76a747138e8a47a,Spanish,13 or older,"no, only English or Spanish",no,2026-01-21_19h39.20.058,empathy_intonation_perc_control,2024.2.4,MacIntel,57.47126437,67435174b76a747138e8a47a,69712dc693a3960bdb483245,69717195bd1b4c6c598fb905,,,,,,,,,,,,./stim/wavs/puertorican_match_declarative-broad-focus_Emilio-ama-la-marcha.wav,0,,,150.9343,152.7837,1,0,1.3174,,0,49,49,65,1,66,0,puertorican,,,,,,,,,,,,,,,,,,,,,,,,,,,,,,,,,,,,,,,,,,,,,,,,,,,,,,,,
,,,,,,,,,67435174b76a747138e8a47a,Spanish,13 or older,"no, only English or Spanish",no,2026-01-21_19h39.20.058,empathy_intonation_perc_control,2024.2.4,MacIntel,57.47126437,67435174b76a747138e8a47a,69712dc693a3960bdb483245,69717195bd1b4c6c598fb905,,,,,,,,,,,,./stim/wavs/castilian_match_interrogative-total-yn_Marta-abre-el-regalo.wav,1,,,152.7844,155.0004,0,0,1.6862,,0,50,50,5,1,6,0,castilian,,,,,,,,,,,,,,,,,,,,,,,,,,,,,,,,,,,,,,,,,,,,,,,,,,,,,,,,
,,,,,,,,,67435174b76a747138e8a47a,Spanish,13 or older,"no, only English or Spanish",no,2026-01-21_19h39.20.058,empathy_intonation_perc_control,2024.2.4,MacIntel,57.47126437,67435174b76a747138e8a47a,69712dc693a3960bdb483245,69717195bd1b4c6c598fb905,,,,,,,,,,,,./stim/wavs/mexican_match_interrogative-total-yn_Marta-abre-el-regalo.wav,1,,,155.001,156.9839,0,0,1.4614,,0,51,51,17,1,18,0,mexican,,,,,,,,,,,,,,,,,,,,,,,,,,,,,,,,,,,,,,,,,,,,,,,,,,,,,,,,
,,,,,,,,,67435174b76a747138e8a47a,Spanish,13 or older,"no, only English or Spanish",no,2026-01-21_19h39.20.058,empathy_intonation_perc_control,2024.2.4,MacIntel,57.47126437,67435174b76a747138e8a47a,69712dc693a3960bdb483245,69717195bd1b4c6c598fb905,,,,,,,,,,,,./stim/wavs/puertorican_mismatch_declarative-broad-focus_El-bebe-comia-muy-bien.wav,0,,,156.9844,158.8161,1,0,1.3102,,0,52,52,83,1,84,0,puertorican,,,,,,,,,,,,,,,,,,,,,,,,,,,,,,,,,,,,,,,,,,,,,,,,,,,,,,,,
,,,,,,,,,67435174b76a747138e8a47a,Spanish,13 or older,"no, only English or Spanish",no,2026-01-21_19h39.20.058,empathy_intonation_perc_control,2024.2.4,MacIntel,57.47126437,67435174b76a747138e8a47a,69712dc693a3960bdb483245,69717195bd1b4c6c598fb905,,,,,,,,,,,,./stim/wavs/puertorican_match_interrogative-total-yn_Ana-lleva-el-abrigo.wav,1,,,158.8167,160.584,0,0,1.2613,,0,53,53,18,1,19,1,puertorican,,,,,,,,,,,,,,,,,,,,,,,,,,,,,,,,,,,,,,,,,,,,,,,,,,,,,,,,
,,,,,,,,,67435174b76a747138e8a47a,Spanish,13 or older,"no, only English or Spanish",no,2026-01-21_19h39.20.058,empathy_intonation_perc_control,2024.2.4,MacIntel,57.47126437,67435174b76a747138e8a47a,69712dc693a3960bdb483245,69717195bd1b4c6c598fb905,,,,,,,,,,,,./stim/wavs/cuban_match_declarative-broad-focus_Ana-lleva-el-abrigo.wav,0,,,160.5847,162.4161,0,1,1.3015,,0,54,54,50,1,51,0,cuban,,,,,,,,,,,,,,,,,,,,,,,,,,,,,,,,,,,,,,,,,,,,,,,,,,,,,,,,
,,,,,,,,,67435174b76a747138e8a47a,Spanish,13 or older,"no, only English or Spanish",no,2026-01-21_19h39.20.058,empathy_intonation_perc_control,2024.2.4,MacIntel,57.47126437,67435174b76a747138e8a47a,69712dc693a3960bdb483245,69717195bd1b4c6c598fb905,,,,,,,,,,,,./stim/wavs/cuban_match_interrogative-total-yn_Manuela-vende-el-carro.wav,1,,,162.4169,164.5002,0,0,1.5769,,0,55,55,8,1,9,1,cuban,,,,,,,,,,,,,,,,,,,,,,,,,,,,,,,,,,,,,,,,,,,,,,,,,,,,,,,,
,,,,,,,,,67435174b76a747138e8a47a,Spanish,13 or older,"no, only English or Spanish",no,2026-01-21_19h39.20.058,empathy_intonation_perc_control,2024.2.4,MacIntel,57.47126437,67435174b76a747138e8a47a,69712dc693a3960bdb483245,69717195bd1b4c6c598fb905,,,,,,,,,,,,./stim/wavs/puertorican_mismatch_declarative-broad-focus_El-nino-oye-el-rio.wav,0,,,164.5008,166.8172,0,1,1.7836,,0,56,56,85,1,86,0,puertorican,,,,,,,,,,,,,,,,,,,,,,,,,,,,,,,,,,,,,,,,,,,,,,,,,,,,,,,,
,,,,,,,,,67435174b76a747138e8a47a,Spanish,13 or older,"no, only English or Spanish",no,2026-01-21_19h39.20.058,empathy_intonation_perc_control,2024.2.4,MacIntel,57.47126437,67435174b76a747138e8a47a,69712dc693a3960bdb483245,69717195bd1b4c6c598fb905,,,,,,,,,,,,./stim/wavs/puertorican_match_declarative-broad-focus_Daniel-iba-a-Bolivia.wav,0,,,166.8178,170.217,1,0,2.8668,,0,57,57,63,1,64,0,puertorican,,,,,,,,,,,,,,,,,,,,,,,,,,,,,,,,,,,,,,,,,,,,,,,,,,,,,,,,
,,,,,,,,,67435174b76a747138e8a47a,Spanish,13 or older,"no, only English or Spanish",no,2026-01-21_19h39.20.058,empathy_intonation_perc_control,2024.2.4,MacIntel,57.47126437,67435174b76a747138e8a47a,69712dc693a3960bdb483245,69717195bd1b4c6c598fb905,,,,,,,,,,,,./stim/wavs/mexican_match_interrogative-total-yn_David-leia-el-libro.wav,1,,,170.2176,172.2506,1,1,1.5001,,0,58,58,14,1,15,0,mexican,,,,,,,,,,,,,,,,,,,,,,,,,,,,,,,,,,,,,,,,,,,,,,,,,,,,,,,,
,,,,,,,,,67435174b76a747138e8a47a,Spanish,13 or older,"no, only English or Spanish",no,2026-01-21_19h39.20.058,empathy_intonation_perc_control,2024.2.4,MacIntel,57.47126437,67435174b76a747138e8a47a,69712dc693a3960bdb483245,69717195bd1b4c6c598fb905,,,,,,,,,,,,./stim/wavs/castilian_mismatch_interrogative-total-yn_La-nina-lava-el-plato.wav,1,,,172.2513,174.0837,1,1,1.3025,,0,59,59,25,1,26,0,castilian,,,,,,,,,,,,,,,,,,,,,,,,,,,,,,,,,,,,,,,,,,,,,,,,,,,,,,,,
,,,,,,,,,67435174b76a747138e8a47a,Spanish,13 or older,"no, only English or Spanish",no,2026-01-21_19h39.20.058,empathy_intonation_perc_control,2024.2.4,MacIntel,57.47126437,67435174b76a747138e8a47a,69712dc693a3960bdb483245,69717195bd1b4c6c598fb905,,,,,,,,,,,,./stim/wavs/mexican_match_declarative-broad-focus_Emilio-ama-la-marcha.wav,0,,,174.0843,176.1172,1,0,1.504,,0,60,60,59,1,60,0,mexican,,,,,,,,,,,,,,,,,,,,,,,,,,,,,,,,,,,,,,,,,,,,,,,,,,,,,,,,
,,,,,,,,,67435174b76a747138e8a47a,Spanish,13 or older,"no, only English or Spanish",no,2026-01-21_19h39.20.058,empathy_intonation_perc_control,2024.2.4,MacIntel,57.47126437,67435174b76a747138e8a47a,69712dc693a3960bdb483245,69717195bd1b4c6c598fb905,,,,,,,,,,,,./stim/wavs/mexican_mismatch_declarative-broad-focus_El-bebe-comia-muy-bien.wav,0,,,176.1179,178.2005,1,0,1.5521,,0,61,61,78,1,79,0,mexican,,,,,,,,,,,,,,,,,,,,,,,,,,,,,,,,,,,,,,,,,,,,,,,,,,,,,,,,
,,,,,,,,,67435174b76a747138e8a47a,Spanish,13 or older,"no, only English or Spanish",no,2026-01-21_19h39.20.058,empathy_intonation_perc_control,2024.2.4,MacIntel,57.47126437,67435174b76a747138e8a47a,69712dc693a3960bdb483245,69717195bd1b4c6c598fb905,,,,,,,,,,,,./stim/wavs/castilian_match_interrogative-total-yn_Manuela-vende-el-carro.wav,1,,,178.2012,180.4339,1,1,1.7004,,0,62,62,2,1,3,0,castilian,,,,,,,,,,,,,,,,,,,,,,,,,,,,,,,,,,,,,,,,,,,,,,,,,,,,,,,,
,,,,,,,,,67435174b76a747138e8a47a,Spanish,13 or older,"no, only English or Spanish",no,2026-01-21_19h39.20.058,empathy_intonation_perc_control,2024.2.4,MacIntel,57.47126437,67435174b76a747138e8a47a,69712dc693a3960bdb483245,69717195bd1b4c6c598fb905,,,,,,,,,,,,./stim/wavs/castilian_mismatch_declarative-broad-focus_Mi-novio-viene-del-lago.wav,0,,,180.4346,182.933,1,0,1.9652,,0,63,63,71,1,72,0,castilian,,,,,,,,,,,,,,,,,,,,,,,,,,,,,,,,,,,,,,,,,,,,,,,,,,,,,,,,
,,,,,,,,,67435174b76a747138e8a47a,Spanish,13 or older,"no, only English or Spanish",no,2026-01-21_19h39.20.058,empathy_intonation_perc_control,2024.2.4,MacIntel,57.47126437,67435174b76a747138e8a47a,69712dc693a3960bdb483245,69717195bd1b4c6c598fb905,,,,,,,,,,,,./stim/wavs/puertorican_match_declarative-broad-focus_Ana-lleva-el-abrigo.wav,0,,,182.9338,184.6506,1,0,1.1836,,0,64,64,62,1,63,0,puertorican,,,,,,,,,,,,,,,,,,,,,,,,,,,,,,,,,,,,,,,,,,,,,,,,,,,,,,,,
,,,,,,,,,67435174b76a747138e8a47a,Spanish,13 or older,"no, only English or Spanish",no,2026-01-21_19h39.20.058,empathy_intonation_perc_control,2024.2.4,MacIntel,57.47126437,67435174b76a747138e8a47a,69712dc693a3960bdb483245,69717195bd1b4c6c598fb905,,,,,,,,,,,,./stim/wavs/castilian_mismatch_declarative-broad-focus_El-nino-oye-el-rio.wav,0,,,184.6512,186.8505,0,1,1.6671,,0,65,65,68,1,69,0,castilian,,,,,,,,,,,,,,,,,,,,,,,,,,,,,,,,,,,,,,,,,,,,,,,,,,,,,,,,
,,,,,,,,,67435174b76a747138e8a47a,Spanish,13 or older,"no, only English or Spanish",no,2026-01-21_19h39.20.058,empathy_intonation_perc_control,2024.2.4,MacIntel,57.47126437,67435174b76a747138e8a47a,69712dc693a3960bdb483245,69717195bd1b4c6c598fb905,,,,,,,,,,,,./stim/wavs/mexican_mismatch_declarative-broad-focus_La-maestra-vive-en-Paris.wav,0,,,186.8511,188.9337,1,0,1.5603,,0,66,66,80,1,81,0,mexican,,,,,,,,,,,,,,,,,,,,,,,,,,,,,,,,,,,,,,,,,,,,,,,,,,,,,,,,
,,,,,,,,,67435174b76a747138e8a47a,Spanish,13 or older,"no, only English or Spanish",no,2026-01-21_19h39.20.058,empathy_intonation_perc_control,2024.2.4,MacIntel,57.47126437,67435174b76a747138e8a47a,69712dc693a3960bdb483245,69717195bd1b4c6c598fb905,,,,,,,,,,,,./stim/wavs/castilian_match_interrogative-total-yn_David-leia-el-libro.wav,1,,,188.9343,191.4499,1,1,1.9847,,0,67,67,0,1,1,0,castilian,,,,,,,,,,,,,,,,,,,,,,,,,,,,,,,,,,,,,,,,,,,,,,,,,,,,,,,,
,,,,,,,,,67435174b76a747138e8a47a,Spanish,13 or older,"no, only English or Spanish",no,2026-01-21_19h39.20.058,empathy_intonation_perc_control,2024.2.4,MacIntel,57.47126437,67435174b76a747138e8a47a,69712dc693a3960bdb483245,69717195bd1b4c6c598fb905,,,,,,,,,,,,./stim/wavs/castilian_match_declarative-broad-focus_Mariano-habla-del-tiempo.wav,0,,,191.4506,193.8173,1,0,1.8448,,0,68,68,48,1,49,0,castilian,,,,,,,,,,,,,,,,,,,,,,,,,,,,,,,,,,,,,,,,,,,,,,,,,,,,,,,,
,,,,,,,,,67435174b76a747138e8a47a,Spanish,13 or older,"no, only English or Spanish",no,2026-01-21_19h39.20.058,empathy_intonation_perc_control,2024.2.4,MacIntel,57.47126437,67435174b76a747138e8a47a,69712dc693a3960bdb483245,69717195bd1b4c6c598fb905,,,,,,,,,,,,./stim/wavs/puertorican_match_interrogative-total-yn_Daniel-iba-a-Bolivia.wav,1,,,193.8178,196.7172,0,0,2.3666,,0,69,69,19,1,20,1,puertorican,,,,,,,,,,,,,,,,,,,,,,,,,,,,,,,,,,,,,,,,,,,,,,,,,,,,,,,,
,,,,,,,,,67435174b76a747138e8a47a,Spanish,13 or older,"no, only English or Spanish",no,2026-01-21_19h39.20.058,empathy_intonation_perc_control,2024.2.4,MacIntel,57.47126437,67435174b76a747138e8a47a,69712dc693a3960bdb483245,69717195bd1b4c6c598fb905,,,,,,,,,,,,./stim/wavs/cuban_mismatch_declarative-broad-focus_Mi-novio-viene-del-lago.wav,0,,,196.7179,198.8173,1,0,1.5672,,0,70,70,76,1,77,0,cuban,,,,,,,,,,,,,,,,,,,,,,,,,,,,,,,,,,,,,,,,,,,,,,,,,,,,,,,,
,,,,,,,,,67435174b76a747138e8a47a,Spanish,13 or older,"no, only English or Spanish",no,2026-01-21_19h39.20.058,empathy_intonation_perc_control,2024.2.4,MacIntel,57.47126437,67435174b76a747138e8a47a,69712dc693a3960bdb483245,69717195bd1b4c6c598fb905,,,,,,,,,,,,./stim/wavs/mexican_mismatch_declarative-broad-focus_El-hombre-mira-la-luna.wav,0,,,198.818,200.8675,1,0,1.5288,,0,71,71,79,1,80,0,mexican,,,,,,,,,,,,,,,,,,,,,,,,,,,,,,,,,,,,,,,,,,,,,,,,,,,,,,,,
,,,,,,,,,67435174b76a747138e8a47a,Spanish,13 or older,"no, only English or Spanish",no,2026-01-21_19h39.20.058,empathy_intonation_perc_control,2024.2.4,MacIntel,57.47126437,67435174b76a747138e8a47a,69712dc693a3960bdb483245,69717195bd1b4c6c598fb905,,,,,,,,,,,,./stim/wavs/puertorican_mismatch_declarative-broad-focus_La-nina-lava-el-plato.wav,0,,,200.8681,203.3838,1,0,1.9869,,0,72,72,87,1,88,0,puertorican,,,,,,,,,,,,,,,,,,,,,,,,,,,,,,,,,,,,,,,,,,,,,,,,,,,,,,,,
,,,,,,,,,67435174b76a747138e8a47a,Spanish,13 or older,"no, only English or Spanish",no,2026-01-21_19h39.20.058,empathy_intonation_perc_control,2024.2.4,MacIntel,57.47126437,67435174b76a747138e8a47a,69712dc693a3960bdb483245,69717195bd1b4c6c598fb905,,,,,,,,,,,,./stim/wavs/cuban_mismatch_declarative-broad-focus_Mi-tia-odia-la-lluvia.wav,0,,,203.3844,205.8005,1,0,1.8943,,0,73,73,77,1,78,0,cuban,,,,,,,,,,,,,,,,,,,,,,,,,,,,,,,,,,,,,,,,,,,,,,,,,,,,,,,,
,,,,,,,,,67435174b76a747138e8a47a,Spanish,13 or older,"no, only English or Spanish",no,2026-01-21_19h39.20.058,empathy_intonation_perc_control,2024.2.4,MacIntel,57.47126437,67435174b76a747138e8a47a,69712dc693a3960bdb483245,69717195bd1b4c6c598fb905,,,,,,,,,,,,./stim/wavs/puertorican_mismatch_interrogative-total-yn_La-nina-lava-el-plato.wav,1,,,205.8012,208.3507,1,1,2.0177,,0,74,74,42,1,43,1,puertorican,,,,,,,,,,,,,,,,,,,,,,,,,,,,,,,,,,,,,,,,,,,,,,,,,,,,,,,,
,,,,,,,,,67435174b76a747138e8a47a,Spanish,13 or older,"no, only English or Spanish",no,2026-01-21_19h39.20.058,empathy_intonation_perc_control,2024.2.4,MacIntel,57.47126437,67435174b76a747138e8a47a,69712dc693a3960bdb483245,69717195bd1b4c6c598fb905,,,,,,,,,,,,./stim/wavs/cuban_match_declarative-broad-focus_Manuela-vende-el-carro.wav,0,,,208.3514,210.434,1,0,1.5513,,0,75,75,52,1,53,0,cuban,,,,,,,,,,,,,,,,,,,,,,,,,,,,,,,,,,,,,,,,,,,,,,,,,,,,,,,,
,,,,,,,,,67435174b76a747138e8a47a,Spanish,13 or older,"no, only English or Spanish",no,2026-01-21_19h39.20.058,empathy_intonation_perc_control,2024.2.4,MacIntel,57.47126437,67435174b76a747138e8a47a,69712dc693a3960bdb483245,69717195bd1b4c6c598fb905,,,,,,,,,,,,./stim/wavs/castilian_match_declarative-broad-focus_Marta-abre-el-regalo.wav,0,,,210.4347,212.7667,1,0,1.8088,,0,76,76,49,1,50,0,castilian,,,,,,,,,,,,,,,,,,,,,,,,,,,,,,,,,,,,,,,,,,,,,,,,,,,,,,,,
,,,,,,,,,67435174b76a747138e8a47a,Spanish,13 or older,"no, only English or Spanish",no,2026-01-21_19h39.20.058,empathy_intonation_perc_control,2024.2.4,MacIntel,57.47126437,67435174b76a747138e8a47a,69712dc693a3960bdb483245,69717195bd1b4c6c598fb905,,,,,,,,,,,,./stim/wavs/castilian_match_declarative-broad-focus_Manuela-vende-el-carro.wav,0,,,212.7673,215.3843,1,0,2.0957,,0,77,77,46,1,47,0,castilian,,,,,,,,,,,,,,,,,,,,,,,,,,,,,,,,,,,,,,,,,,,,,,,,,,,,,,,,
,,,,,,,,,67435174b76a747138e8a47a,Spanish,13 or older,"no, only English or Spanish",no,2026-01-21_19h39.20.058,empathy_intonation_perc_control,2024.2.4,MacIntel,57.47126437,67435174b76a747138e8a47a,69712dc693a3960bdb483245,69717195bd1b4c6c598fb905,,,,,,,,,,,,./stim/wavs/puertorican_match_interrogative-total-yn_Maria-bebe-el-vino.wav,1,,,215.385,217.5507,1,1,1.6345,,0,78,78,23,1,24,1,puertorican,,,,,,,,,,,,,,,,,,,,,,,,,,,,,,,,,,,,,,,,,,,,,,,,,,,,,,,,
,,,,,,,,,67435174b76a747138e8a47a,Spanish,13 or older,"no, only English or Spanish",no,2026-01-21_19h39.20.058,empathy_intonation_perc_control,2024.2.4,MacIntel,57.47126437,67435174b76a747138e8a47a,69712dc693a3960bdb483245,69717195bd1b4c6c598fb905,,,,,,,,,,,,./stim/wavs/cuban_match_declarative-broad-focus_Marta-abre-el-regalo.wav,0,,,217.5514,219.9175,0,1,1.8336,,0,79,79,55,1,56,0,cuban,,,,,,,,,,,,,,,,,,,,,,,,,,,,,,,,,,,,,,,,,,,,,,,,,,,,,,,,
,,,,,,,,,67435174b76a747138e8a47a,Spanish,13 or older,"no, only English or Spanish",no,2026-01-21_19h39.20.058,empathy_intonation_perc_control,2024.2.4,MacIntel,57.47126437,67435174b76a747138e8a47a,69712dc693a3960bdb483245,69717195bd1b4c6c598fb905,,,,,,,,,,,,./stim/wavs/puertorican_mismatch_interrogative-total-yn_La-maestra-vive-en-Paris.wav,1,,,219.9183,222.2497,1,1,1.7999,,0,80,80,41,1,42,1,puertorican,,,,,,,,,,,,,,,,,,,,,,,,,,,,,,,,,,,,,,,,,,,,,,,,,,,,,,,,
,,,,,,,,,67435174b76a747138e8a47a,Spanish,13 or older,"no, only English or Spanish",no,2026-01-21_19h39.20.058,empathy_intonation_perc_control,2024.2.4,MacIntel,57.47126437,67435174b76a747138e8a47a,69712dc693a3960bdb483245,69717195bd1b4c6c598fb905,,,,,,,,,,,,./stim/wavs/cuban_match_declarative-broad-focus_Daniel-iba-a-Bolivia.wav,0,,,222.2504,224.5164,1,0,1.7495,,0,81,81,51,1,52,0,cuban,,,,,,,,,,,,,,,,,,,,,,,,,,,,,,,,,,,,,,,,,,,,,,,,,,,,,,,,
,,,,,,,,,67435174b76a747138e8a47a,Spanish,13 or older,"no, only English or Spanish",no,2026-01-21_19h39.20.058,empathy_intonation_perc_control,2024.2.4,MacIntel,57.47126437,67435174b76a747138e8a47a,69712dc693a3960bdb483245,69717195bd1b4c6c598fb905,,,,,,,,,,,,./stim/wavs/mexican_mismatch_interrogative-total-yn_El-hombre-mira-la-luna.wav,1,,,224.5171,226.6008,0,0,1.5666,,0,82,82,34,1,35,0,mexican,,,,,,,,,,,,,,,,,,,,,,,,,,,,,,,,,,,,,,,,,,,,,,,,,,,,,,,,
,,,,,,,,,67435174b76a747138e8a47a,Spanish,13 or older,"no, only English or Spanish",no,2026-01-21_19h39.20.058,empathy_intonation_perc_control,2024.2.4,MacIntel,57.47126437,67435174b76a747138e8a47a,69712dc693a3960bdb483245,69717195bd1b4c6c598fb905,,,,,,,,,,,,./stim/wavs/mexican_mismatch_declarative-broad-focus_Mi-tia-odia-la-lluvia.wav,0,,,226.6016,229.9675,1,0,2.8334,,0,83,83,82,1,83,0,mexican,,,,,,,,,,,,,,,,,,,,,,,,,,,,,,,,,,,,,,,,,,,,,,,,,,,,,,,,
,,,,,,,,,67435174b76a747138e8a47a,Spanish,13 or older,"no, only English or Spanish",no,2026-01-21_19h39.20.058,empathy_intonation_perc_control,2024.2.4,MacIntel,57.47126437,67435174b76a747138e8a47a,69712dc693a3960bdb483245,69717195bd1b4c6c598fb905,,,,,,,,,,,,./stim/wavs/cuban_mismatch_declarative-broad-focus_El-hombre-mira-la-luna.wav,0,,,229.9681,233.6841,0,1,3.1826,,0,84,84,74,1,75,0,cuban,,,,,,,,,,,,,,,,,,,,,,,,,,,,,,,,,,,,,,,,,,,,,,,,,,,,,,,,
,,,,,,,,,67435174b76a747138e8a47a,Spanish,13 or older,"no, only English or Spanish",no,2026-01-21_19h39.20.058,empathy_intonation_perc_control,2024.2.4,MacIntel,57.47126437,67435174b76a747138e8a47a,69712dc693a3960bdb483245,69717195bd1b4c6c598fb905,,,,,,,,,,,,./stim/wavs/cuban_mismatch_declarative-broad-focus_La-nina-lava-el-plato.wav,0,,,233.6848,236.7173,1,0,2.5099,,0,85,85,75,1,76,0,cuban,,,,,,,,,,,,,,,,,,,,,,,,,,,,,,,,,,,,,,,,,,,,,,,,,,,,,,,,
,,,,,,,,,67435174b76a747138e8a47a,Spanish,13 or older,"no, only English or Spanish",no,2026-01-21_19h39.20.058,empathy_intonation_perc_control,2024.2.4,MacIntel,57.47126437,67435174b76a747138e8a47a,69712dc693a3960bdb483245,69717195bd1b4c6c598fb905,,,,,,,,,,,,./stim/wavs/mexican_match_declarative-broad-focus_David-leia-el-libro.wav,0,,,236.7178,240.0498,1,0,2.8014,,0,86,86,58,1,59,0,mexican,,,,,,,,,,,,,,,,,,,,,,,,,,,,,,,,,,,,,,,,,,,,,,,,,,,,,,,,
,,,,,,,,,67435174b76a747138e8a47a,Spanish,13 or older,"no, only English or Spanish",no,2026-01-21_19h39.20.058,empathy_intonation_perc_control,2024.2.4,MacIntel,57.47126437,67435174b76a747138e8a47a,69712dc693a3960bdb483245,69717195bd1b4c6c598fb905,,,,,,,,,,,,./stim/wavs/cuban_match_interrogative-total-yn_Mariano-habla-del-tiempo.wav,1,,,240.0505,244.2342,1,1,3.6667,,0,87,87,10,1,11,1,cuban,,,,,,,,,,,,,,,,,,,,,,,,,,,,,,,,,,,,,,,,,,,,,,,,,,,,,,,,
,,,,,,,"Great! Now we will move on. The next task consists of about 60 trials, in each of which you will see a string of letters. 
  
  Your task is to decide whether this is a real Spanish word or not.", (press the spacebar to continue),67435174b76a747138e8a47a,Spanish,13 or older,"no, only English or Spanish",no,2026-01-21_19h39.20.058,empathy_intonation_perc_control,2024.2.4,MacIntel,57.47126437,67435174b76a747138e8a47a,69712dc693a3960bdb483245,69717195bd1b4c6c598fb905,,,,,,,,,,,,,,,,,,,,,,,,,,,,,,244.2406,253.568,0,0,0,0,1,,,,,,,,,,,,,,,,,,,,,,,,,,,,,,,,,,,,,,,,,,,,,,,,,
,,,,,,,"If you think it is an existing Spanish word, you type '1' (for 'REAL'), and if you think it is not an existing Spanish word, you type '0' (for 'FAKE').", (press the spacebar to continue),67435174b76a747138e8a47a,Spanish,13 or older,"no, only English or Spanish",no,2026-01-21_19h39.20.058,empathy_intonation_perc_control,2024.2.4,MacIntel,57.47126437,67435174b76a747138e8a47a,69712dc693a3960bdb483245,69717195bd1b4c6c598fb905,,,,,,,,,,,,,,,,,,,,,,,,,,,,,,253.5696,256.9177,0,1,1,1,1,,,,,,,,,,,,,,,,,,,,,,,,,,,,,,,,,,,,,,,,,,,,,,,,,
,,,,,,,"If you are sure that the word exists, even though you don’t know its exact meaning, you may still respond '1' (REAL). 
  
  But if you are not sure if it is an existing word, you should respond '0' (FAKE).
  
  Let's do a practice round...", (press the spacebar to continue),67435174b76a747138e8a47a,Spanish,13 or older,"no, only English or Spanish",no,2026-01-21_19h39.20.058,empathy_intonation_perc_control,2024.2.4,MacIntel,57.47126437,67435174b76a747138e8a47a,69712dc693a3960bdb483245,69717195bd1b4c6c598fb905,,,,,,,,,,,,,,,,,,,,,,,,,,,,,,256.9191,261.2676,0,2,2,2,1,,,,,,,,,,,,,,,,,,,,,,,,,,,,,,,,,,,,,,,,,,,,,,,,,
,,,,,,,,,67435174b76a747138e8a47a,Spanish,13 or older,"no, only English or Spanish",no,2026-01-21_19h39.20.058,empathy_intonation_perc_control,2024.2.4,MacIntel,57.47126437,67435174b76a747138e8a47a,69712dc693a3960bdb483245,69717195bd1b4c6c598fb905,,,,,,,,,,,,,0,,,,,,,,,,,,,,,,,,,,,,,,261.2723,263.8678,0,1,2.0678,,263.8681,264.8673,0,0,0,0,1,0,depiste,REAL,FAKE,,,,,,,,,,,,,,,,,,,,,,,,,,,,,,,,
,,,,,,,,,67435174b76a747138e8a47a,Spanish,13 or older,"no, only English or Spanish",no,2026-01-21_19h39.20.058,empathy_intonation_perc_control,2024.2.4,MacIntel,57.47126437,67435174b76a747138e8a47a,69712dc693a3960bdb483245,69717195bd1b4c6c598fb905,,,,,,,,,,,,,1,,,,,,,,,,,,,,,,,,,,,,,,264.8686,266.3176,1,1,0.9072,,266.3178,267.3177,0,1,1,1,1,0,sí,REAL,FAKE,,,,,,,,,,,,,,,,,,,,,,,,,,,,,,,,
,,,,,,,,,67435174b76a747138e8a47a,Spanish,13 or older,"no, only English or Spanish",no,2026-01-21_19h39.20.058,empathy_intonation_perc_control,2024.2.4,MacIntel,57.47126437,67435174b76a747138e8a47a,69712dc693a3960bdb483245,69717195bd1b4c6c598fb905,,,,,,,,,,,,,0,,,,,,,,,,,,,,,,,,,,,,,,267.3189,269.1677,0,1,1.3032,,269.1678,270.1677,0,2,2,2,1,0,coné,REAL,FAKE,,,,,,,,,,,,,,,,,,,,,,,,,,,,,,,,
,,,,,,,,,67435174b76a747138e8a47a,Spanish,13 or older,"no, only English or Spanish",no,2026-01-21_19h39.20.058,empathy_intonation_perc_control,2024.2.4,MacIntel,57.47126437,67435174b76a747138e8a47a,69712dc693a3960bdb483245,69717195bd1b4c6c598fb905,,,,,,,,,,,,,0,,,,,,,,,,,,,,,,,,,,,,,,270.1689,271.8511,1,0,1.1415,,271.8521,272.85,0,3,3,3,1,0,calpar,REAL,FAKE,,,,,,,,,,,,,,,,,,,,,,,,,,,,,,,,
,,,,,,,,,67435174b76a747138e8a47a,Spanish,13 or older,"no, only English or Spanish",no,2026-01-21_19h39.20.058,empathy_intonation_perc_control,2024.2.4,MacIntel,57.47126437,67435174b76a747138e8a47a,69712dc693a3960bdb483245,69717195bd1b4c6c598fb905,,,,,,,,,,,,,0,,,,,,,,,,,,,,,,,,,,,,,,272.8515,274.4509,0,1,1.081,,274.4515,275.45,0,4,4,4,1,0,joten,REAL,FAKE,,,,,,,,,,,,,,,,,,,,,,,,,,,,,,,,
,,,,,,,,,67435174b76a747138e8a47a,Spanish,13 or older,"no, only English or Spanish",no,2026-01-21_19h39.20.058,empathy_intonation_perc_control,2024.2.4,MacIntel,57.47126437,67435174b76a747138e8a47a,69712dc693a3960bdb483245,69717195bd1b4c6c598fb905,,,,,,,,,,,,,1,,,,,,,,,,,,,,,,,,,,,,,,275.4512,276.9842,1,1,0.9982,,276.9843,277.9834,0,5,5,5,1,0,sacapuntas,REAL,FAKE,,,,,,,,,,,,,,,,,,,,,,,,,,,,,,,,
,,,,,,,,,67435174b76a747138e8a47a,Spanish,13 or older,"no, only English or Spanish",no,2026-01-21_19h39.20.058,empathy_intonation_perc_control,2024.2.4,MacIntel,57.47126437,67435174b76a747138e8a47a,69712dc693a3960bdb483245,69717195bd1b4c6c598fb905,,,,,,,,,,,,,0,,,,,,,,,,,,,,,,,,,,,,,,277.9845,279.3844,1,0,0.8574,,279.3851,280.3833,0,6,6,6,1,0,priba,REAL,FAKE,,,,,,,,,,,,,,,,,,,,,,,,,,,,,,,,
,,,,,,,,,67435174b76a747138e8a47a,Spanish,13 or older,"no, only English or Spanish",no,2026-01-21_19h39.20.058,empathy_intonation_perc_control,2024.2.4,MacIntel,57.47126437,67435174b76a747138e8a47a,69712dc693a3960bdb483245,69717195bd1b4c6c598fb905,,,,,,,,,,,,,0,,,,,,,,,,,,,,,,,,,,,,,,280.3845,281.8008,0,1,0.8986,,281.8016,282.8011,0,7,7,7,1,0,pelasula,REAL,FAKE,,,,,,,,,,,,,,,,,,,,,,,,,,,,,,,,
,,,,,,,,,67435174b76a747138e8a47a,Spanish,13 or older,"no, only English or Spanish",no,2026-01-21_19h39.20.058,empathy_intonation_perc_control,2024.2.4,MacIntel,57.47126437,67435174b76a747138e8a47a,69712dc693a3960bdb483245,69717195bd1b4c6c598fb905,,,,,,,,,,,,,1,,,,,,,,,,,,,,,,,,,,,,,,282.8022,283.9842,1,1,0.64,,283.9844,284.9844,0,8,8,8,1,0,bien,REAL,FAKE,,,,,,,,,,,,,,,,,,,,,,,,,,,,,,,,
,,,,,,,,,67435174b76a747138e8a47a,Spanish,13 or older,"no, only English or Spanish",no,2026-01-21_19h39.20.058,empathy_intonation_perc_control,2024.2.4,MacIntel,57.47126437,67435174b76a747138e8a47a,69712dc693a3960bdb483245,69717195bd1b4c6c598fb905,,,,,,,,,,,,,1,,,,,,,,,,,,,,,,,,,,,,,,284.9855,286.0346,1,1,0.5176,,286.0347,287.0344,0,9,9,9,1,0,casa,REAL,FAKE,,,,,,,,,,,,,,,,,,,,,,,,,,,,,,,,
,,,,,,,,,67435174b76a747138e8a47a,Spanish,13 or older,"no, only English or Spanish",no,2026-01-21_19h39.20.058,empathy_intonation_perc_control,2024.2.4,MacIntel,57.47126437,67435174b76a747138e8a47a,69712dc693a3960bdb483245,69717195bd1b4c6c598fb905,,,,,,,,,,,,,0,,,,,,,,,,,,,,,,,,,,,,,,287.0355,288.401,1,0,0.8226,,288.4018,289.4011,0,10,10,10,1,0,lejo,REAL,FAKE,,,,,,,,,,,,,,,,,,,,,,,,,,,,,,,,
,,,,,,,,,67435174b76a747138e8a47a,Spanish,13 or older,"no, only English or Spanish",no,2026-01-21_19h39.20.058,empathy_intonation_perc_control,2024.2.4,MacIntel,57.47126437,67435174b76a747138e8a47a,69712dc693a3960bdb483245,69717195bd1b4c6c598fb905,,,,,,,,,,,,,0,,,,,,,,,,,,,,,,,,,,,,,,289.4022,291.3668,1,0,1.423,,291.3668,292.3669,0,11,11,11,1,0,pretantas,REAL,FAKE,,,,,,,,,,,,,,,,,,,,,,,,,,,,,,,,
,,,,,,,,,67435174b76a747138e8a47a,Spanish,13 or older,"no, only English or Spanish",no,2026-01-21_19h39.20.058,empathy_intonation_perc_control,2024.2.4,MacIntel,57.47126437,67435174b76a747138e8a47a,69712dc693a3960bdb483245,69717195bd1b4c6c598fb905,,,,,,,,,,,,,,,,,,,,,,,,,,,,,,,,,,,,,,,,,,,,,,,,,,,,,,292.3674,293.0682,,,,,,,,,,,,,,,,,,,,,,,,,,,,,,
,,,,,,,,,67435174b76a747138e8a47a,Spanish,13 or older,"no, only English or Spanish",no,2026-01-21_19h39.20.058,empathy_intonation_perc_control,2024.2.4,MacIntel,57.47126437,67435174b76a747138e8a47a,69712dc693a3960bdb483245,69717195bd1b4c6c598fb905,,,,,,,,,,,,,1,,,,,,,,,,,,,,,,,,,,,,,,,,,,,,,,,,,,,31,pandilla,,,,,293.0769,294.7511,1,1,1.1582,,0,0,0,30,1,REAL,FAKE,,,,,,,,,,,,,,,,,
,,,,,,,,,67435174b76a747138e8a47a,Spanish,13 or older,"no, only English or Spanish",no,2026-01-21_19h39.20.058,empathy_intonation_perc_control,2024.2.4,MacIntel,57.47126437,67435174b76a747138e8a47a,69712dc693a3960bdb483245,69717195bd1b4c6c598fb905,,,,,,,,,,,,,0,,,,,,,,,,,,,,,,,,,,,,,,,,,,,,,,,,,,,16,abracer,,,,,294.7522,296.151,1,0,0.8636,,0,1,1,15,1,REAL,FAKE,,,,,,,,,,,,,,,,,
,,,,,,,,,67435174b76a747138e8a47a,Spanish,13 or older,"no, only English or Spanish",no,2026-01-21_19h39.20.058,empathy_intonation_perc_control,2024.2.4,MacIntel,57.47126437,67435174b76a747138e8a47a,69712dc693a3960bdb483245,69717195bd1b4c6c598fb905,,,,,,,,,,,,,1,,,,,,,,,,,,,,,,,,,,,,,,,,,,,,,,,,,,,20,ávido,,,,,296.152,297.3845,1,1,0.6848,,0,2,2,19,1,REAL,FAKE,,,,,,,,,,,,,,,,,
,,,,,,,,,67435174b76a747138e8a47a,Spanish,13 or older,"no, only English or Spanish",no,2026-01-21_19h39.20.058,empathy_intonation_perc_control,2024.2.4,MacIntel,57.47126437,67435174b76a747138e8a47a,69712dc693a3960bdb483245,69717195bd1b4c6c598fb905,,,,,,,,,,,,,0,,,,,,,,,,,,,,,,,,,,,,,,,,,,,,,,,,,,,19,brecedad,,,,,297.3856,298.8013,1,0,0.8853,,0,3,3,18,1,REAL,FAKE,,,,,,,,,,,,,,,,,
,,,,,,,,,67435174b76a747138e8a47a,Spanish,13 or older,"no, only English or Spanish",no,2026-01-21_19h39.20.058,empathy_intonation_perc_control,2024.2.4,MacIntel,57.47126437,67435174b76a747138e8a47a,69712dc693a3960bdb483245,69717195bd1b4c6c598fb905,,,,,,,,,,,,,1,,,,,,,,,,,,,,,,,,,,,,,,,,,,,,,,,,,,,81,pozo,,,,,298.8025,300.0338,1,1,0.6897,,0,4,4,80,1,REAL,FAKE,,,,,,,,,,,,,,,,,
,,,,,,,,,67435174b76a747138e8a47a,Spanish,13 or older,"no, only English or Spanish",no,2026-01-21_19h39.20.058,empathy_intonation_perc_control,2024.2.4,MacIntel,57.47126437,67435174b76a747138e8a47a,69712dc693a3960bdb483245,69717195bd1b4c6c598fb905,,,,,,,,,,,,,1,,,,,,,,,,,,,,,,,,,,,,,,,,,,,,,,,,,,,25,bisagra,,,,,300.035,301.3502,1,1,0.7911,,0,5,5,24,1,REAL,FAKE,,,,,,,,,,,,,,,,,
,,,,,,,,,67435174b76a747138e8a47a,Spanish,13 or older,"no, only English or Spanish",no,2026-01-21_19h39.20.058,empathy_intonation_perc_control,2024.2.4,MacIntel,57.47126437,67435174b76a747138e8a47a,69712dc693a3960bdb483245,69717195bd1b4c6c598fb905,,,,,,,,,,,,,0,,,,,,,,,,,,,,,,,,,,,,,,,,,,,,,,,,,,,58,plaudir,,,,,301.3514,302.6178,1,0,0.7383,,0,6,6,57,1,REAL,FAKE,,,,,,,,,,,,,,,,,
,,,,,,,,,67435174b76a747138e8a47a,Spanish,13 or older,"no, only English or Spanish",no,2026-01-21_19h39.20.058,empathy_intonation_perc_control,2024.2.4,MacIntel,57.47126437,67435174b76a747138e8a47a,69712dc693a3960bdb483245,69717195bd1b4c6c598fb905,,,,,,,,,,,,,1,,,,,,,,,,,,,,,,,,,,,,,,,,,,,,,,,,,,,89,prisa,,,,,302.619,304.0178,0,0,0.8684,,0,7,7,88,1,REAL,FAKE,,,,,,,,,,,,,,,,,
,,,,,,,,,67435174b76a747138e8a47a,Spanish,13 or older,"no, only English or Spanish",no,2026-01-21_19h39.20.058,empathy_intonation_perc_control,2024.2.4,MacIntel,57.47126437,67435174b76a747138e8a47a,69712dc693a3960bdb483245,69717195bd1b4c6c598fb905,,,,,,,,,,,,,1,,,,,,,,,,,,,,,,,,,,,,,,,,,,,,,,,,,,,39,torpe,,,,,304.019,305.951,0,0,1.4002,,0,8,8,38,1,REAL,FAKE,,,,,,,,,,,,,,,,,
,,,,,,,,,67435174b76a747138e8a47a,Spanish,13 or older,"no, only English or Spanish",no,2026-01-21_19h39.20.058,empathy_intonation_perc_control,2024.2.4,MacIntel,57.47126437,67435174b76a747138e8a47a,69712dc693a3960bdb483245,69717195bd1b4c6c598fb905,,,,,,,,,,,,,1,,,,,,,,,,,,,,,,,,,,,,,,,,,,,,,,,,,,,55,nevar,,,,,305.9519,307.2845,1,1,0.7893,,0,9,9,54,1,REAL,FAKE,,,,,,,,,,,,,,,,,
,,,,,,,,,67435174b76a747138e8a47a,Spanish,13 or older,"no, only English or Spanish",no,2026-01-21_19h39.20.058,empathy_intonation_perc_control,2024.2.4,MacIntel,57.47126437,67435174b76a747138e8a47a,69712dc693a3960bdb483245,69717195bd1b4c6c598fb905,,,,,,,,,,,,,1,,,,,,,,,,,,,,,,,,,,,,,,,,,,,,,,,,,,,34,aviso,,,,,307.2855,308.9347,0,0,1.1174,,0,10,10,33,1,REAL,FAKE,,,,,,,,,,,,,,,,,
,,,,,,,,,67435174b76a747138e8a47a,Spanish,13 or older,"no, only English or Spanish",no,2026-01-21_19h39.20.058,empathy_intonation_perc_control,2024.2.4,MacIntel,57.47126437,67435174b76a747138e8a47a,69712dc693a3960bdb483245,69717195bd1b4c6c598fb905,,,,,,,,,,,,,1,,,,,,,,,,,,,,,,,,,,,,,,,,,,,,,,,,,,,54,fomentar,,,,,308.9357,310.7345,1,1,1.245,,0,11,11,53,1,REAL,FAKE,,,,,,,,,,,,,,,,,
,,,,,,,,,67435174b76a747138e8a47a,Spanish,13 or older,"no, only English or Spanish",no,2026-01-21_19h39.20.058,empathy_intonation_perc_control,2024.2.4,MacIntel,57.47126437,67435174b76a747138e8a47a,69712dc693a3960bdb483245,69717195bd1b4c6c598fb905,,,,,,,,,,,,,1,,,,,,,,,,,,,,,,,,,,,,,,,,,,,,,,,,,,,45,jilguero,,,,,310.7356,312.2345,0,0,0.9654,,0,12,12,44,1,REAL,FAKE,,,,,,,,,,,,,,,,,
,,,,,,,,,67435174b76a747138e8a47a,Spanish,13 or older,"no, only English or Spanish",no,2026-01-21_19h39.20.058,empathy_intonation_perc_control,2024.2.4,MacIntel,57.47126437,67435174b76a747138e8a47a,69712dc693a3960bdb483245,69717195bd1b4c6c598fb905,,,,,,,,,,,,,0,,,,,,,,,,,,,,,,,,,,,,,,,,,,,,,,,,,,,70,temblo,,,,,312.2356,313.6343,0,1,0.8629,,0,13,13,69,1,REAL,FAKE,,,,,,,,,,,,,,,,,
,,,,,,,,,67435174b76a747138e8a47a,Spanish,13 or older,"no, only English or Spanish",no,2026-01-21_19h39.20.058,empathy_intonation_perc_control,2024.2.4,MacIntel,57.47126437,67435174b76a747138e8a47a,69712dc693a3960bdb483245,69717195bd1b4c6c598fb905,,,,,,,,,,,,,1,,,,,,,,,,,,,,,,,,,,,,,,,,,,,,,,,,,,,49,ganar,,,,,313.6352,315.8511,1,1,1.6753,,0,14,14,48,1,REAL,FAKE,,,,,,,,,,,,,,,,,
,,,,,,,,,67435174b76a747138e8a47a,Spanish,13 or older,"no, only English or Spanish",no,2026-01-21_19h39.20.058,empathy_intonation_perc_control,2024.2.4,MacIntel,57.47126437,67435174b76a747138e8a47a,69712dc693a3960bdb483245,69717195bd1b4c6c598fb905,,,,,,,,,,,,,0,,,,,,,,,,,,,,,,,,,,,,,,,,,,,,,,,,,,,23,lampera,,,,,315.852,317.1846,1,0,0.789,,0,15,15,22,1,REAL,FAKE,,,,,,,,,,,,,,,,,
,,,,,,,,,67435174b76a747138e8a47a,Spanish,13 or older,"no, only English or Spanish",no,2026-01-21_19h39.20.058,empathy_intonation_perc_control,2024.2.4,MacIntel,57.47126437,67435174b76a747138e8a47a,69712dc693a3960bdb483245,69717195bd1b4c6c598fb905,,,,,,,,,,,,,1,,,,,,,,,,,,,,,,,,,,,,,,,,,,,,,,,,,,,77,tiburón,,,,,317.1859,318.6847,1,1,0.9648,,0,16,16,76,1,REAL,FAKE,,,,,,,,,,,,,,,,,
,,,,,,,,,67435174b76a747138e8a47a,Spanish,13 or older,"no, only English or Spanish",no,2026-01-21_19h39.20.058,empathy_intonation_perc_control,2024.2.4,MacIntel,57.47126437,67435174b76a747138e8a47a,69712dc693a3960bdb483245,69717195bd1b4c6c598fb905,,,,,,,,,,,,,1,,,,,,,,,,,,,,,,,,,,,,,,,,,,,,,,,,,,,13,helar,,,,,318.6856,320.1512,0,0,0.9228,,0,17,17,12,1,REAL,FAKE,,,,,,,,,,,,,,,,,
,,,,,,,,,67435174b76a747138e8a47a,Spanish,13 or older,"no, only English or Spanish",no,2026-01-21_19h39.20.058,empathy_intonation_perc_control,2024.2.4,MacIntel,57.47126437,67435174b76a747138e8a47a,69712dc693a3960bdb483245,69717195bd1b4c6c598fb905,,,,,,,,,,,,,1,,,,,,,,,,,,,,,,,,,,,,,,,,,,,,,,,,,,,52,camisa,,,,,320.1524,321.4012,0,0,0.7077,,0,18,18,51,1,REAL,FAKE,,,,,,,,,,,,,,,,,
,,,,,,,,,67435174b76a747138e8a47a,Spanish,13 or older,"no, only English or Spanish",no,2026-01-21_19h39.20.058,empathy_intonation_perc_control,2024.2.4,MacIntel,57.47126437,67435174b76a747138e8a47a,69712dc693a3960bdb483245,69717195bd1b4c6c598fb905,,,,,,,,,,,,,1,,,,,,,,,,,,,,,,,,,,,,,,,,,,,,,,,,,,,80,hormiga,,,,,321.4023,322.6503,0,0,0.7086,,0,19,19,79,1,REAL,FAKE,,,,,,,,,,,,,,,,,
,,,,,,,,,67435174b76a747138e8a47a,Spanish,13 or older,"no, only English or Spanish",no,2026-01-21_19h39.20.058,empathy_intonation_perc_control,2024.2.4,MacIntel,57.47126437,67435174b76a747138e8a47a,69712dc693a3960bdb483245,69717195bd1b4c6c598fb905,,,,,,,,,,,,,1,,,,,,,,,,,,,,,,,,,,,,,,,,,,,,,,,,,,,88,acantilado,,,,,322.6514,324.3677,1,1,1.1996,,0,20,20,87,1,REAL,FAKE,,,,,,,,,,,,,,,,,
,,,,,,,,,67435174b76a747138e8a47a,Spanish,13 or older,"no, only English or Spanish",no,2026-01-21_19h39.20.058,empathy_intonation_perc_control,2024.2.4,MacIntel,57.47126437,67435174b76a747138e8a47a,69712dc693a3960bdb483245,69717195bd1b4c6c598fb905,,,,,,,,,,,,,1,,,,,,,,,,,,,,,,,,,,,,,,,,,,,,,,,,,,,62,flaco,,,,,324.3687,325.5344,0,0,0.6309,,0,21,21,61,1,REAL,FAKE,,,,,,,,,,,,,,,,,
,,,,,,,,,67435174b76a747138e8a47a,Spanish,13 or older,"no, only English or Spanish",no,2026-01-21_19h39.20.058,empathy_intonation_perc_control,2024.2.4,MacIntel,57.47126437,67435174b76a747138e8a47a,69712dc693a3960bdb483245,69717195bd1b4c6c598fb905,,,,,,,,,,,,,1,,,,,,,,,,,,,,,,,,,,,,,,,,,,,,,,,,,,,2,pellizcar,,,,,325.5354,326.9014,0,0,0.8241,,0,22,22,1,1,REAL,FAKE,,,,,,,,,,,,,,,,,
,,,,,,,,,67435174b76a747138e8a47a,Spanish,13 or older,"no, only English or Spanish",no,2026-01-21_19h39.20.058,empathy_intonation_perc_control,2024.2.4,MacIntel,57.47126437,67435174b76a747138e8a47a,69712dc693a3960bdb483245,69717195bd1b4c6c598fb905,,,,,,,,,,,,,1,,,,,,,,,,,,,,,,,,,,,,,,,,,,,,,,,,,,,48,ladrón,,,,,326.9026,328.1846,0,0,0.74,,0,23,23,47,1,REAL,FAKE,,,,,,,,,,,,,,,,,
,,,,,,,,,67435174b76a747138e8a47a,Spanish,13 or older,"no, only English or Spanish",no,2026-01-21_19h39.20.058,empathy_intonation_perc_control,2024.2.4,MacIntel,57.47126437,67435174b76a747138e8a47a,69712dc693a3960bdb483245,69717195bd1b4c6c598fb905,,,,,,,,,,,,,0,,,,,,,,,,,,,,,,,,,,,,,,,,,,,,,,,,,,,18,arsa,,,,,328.1858,329.2677,0,1,0.5493,,0,24,24,17,1,REAL,FAKE,,,,,,,,,,,,,,,,,
,,,,,,,,,67435174b76a747138e8a47a,Spanish,13 or older,"no, only English or Spanish",no,2026-01-21_19h39.20.058,empathy_intonation_perc_control,2024.2.4,MacIntel,57.47126437,67435174b76a747138e8a47a,69712dc693a3960bdb483245,69717195bd1b4c6c598fb905,,,,,,,,,,,,,1,,,,,,,,,,,,,,,,,,,,,,,,,,,,,,,,,,,,,28,merodear,,,,,329.2687,330.3512,0,0,0.5579,,0,25,25,27,1,REAL,FAKE,,,,,,,,,,,,,,,,,
,,,,,,,,,67435174b76a747138e8a47a,Spanish,13 or older,"no, only English or Spanish",no,2026-01-21_19h39.20.058,empathy_intonation_perc_control,2024.2.4,MacIntel,57.47126437,67435174b76a747138e8a47a,69712dc693a3960bdb483245,69717195bd1b4c6c598fb905,,,,,,,,,,,,,1,,,,,,,,,,,,,,,,,,,,,,,,,,,,,,,,,,,,,12,asesinato,,,,,330.3521,331.5013,0,0,0.6109,,0,26,26,11,1,REAL,FAKE,,,,,,,,,,,,,,,,,
,,,,,,,,,67435174b76a747138e8a47a,Spanish,13 or older,"no, only English or Spanish",no,2026-01-21_19h39.20.058,empathy_intonation_perc_control,2024.2.4,MacIntel,57.47126437,67435174b76a747138e8a47a,69712dc693a3960bdb483245,69717195bd1b4c6c598fb905,,,,,,,,,,,,,1,,,,,,,,,,,,,,,,,,,,,,,,,,,,,,,,,,,,,86,barato,,,,,331.5024,332.5013,0,0,0.4617,,0,27,27,85,1,REAL,FAKE,,,,,,,,,,,,,,,,,
,,,,,,,,,67435174b76a747138e8a47a,Spanish,13 or older,"no, only English or Spanish",no,2026-01-21_19h39.20.058,empathy_intonation_perc_control,2024.2.4,MacIntel,57.47126437,67435174b76a747138e8a47a,69712dc693a3960bdb483245,69717195bd1b4c6c598fb905,,,,,,,,,,,,,0,,,,,,,,,,,,,,,,,,,,,,,,,,,,,,,,,,,,,27,acutación,,,,,332.5024,333.9999,1,0,0.9639,,0,28,28,26,1,REAL,FAKE,,,,,,,,,,,,,,,,,
,,,,,,,,,67435174b76a747138e8a47a,Spanish,13 or older,"no, only English or Spanish",no,2026-01-21_19h39.20.058,empathy_intonation_perc_control,2024.2.4,MacIntel,57.47126437,67435174b76a747138e8a47a,69712dc693a3960bdb483245,69717195bd1b4c6c598fb905,,,,,,,,,,,,,1,,,,,,,,,,,,,,,,,,,,,,,,,,,,,,,,,,,,,75,yacer,,,,,334.0005,335.2336,0,0,0.7049,,0,29,29,74,1,REAL,FAKE,,,,,,,,,,,,,,,,,
,,,,,,,,,67435174b76a747138e8a47a,Spanish,13 or older,"no, only English or Spanish",no,2026-01-21_19h39.20.058,empathy_intonation_perc_control,2024.2.4,MacIntel,57.47126437,67435174b76a747138e8a47a,69712dc693a3960bdb483245,69717195bd1b4c6c598fb905,,,,,,,,,,,,,1,,,,,,,,,,,,,,,,,,,,,,,,,,,,,,,,,,,,,90,clavel,,,,,335.2347,336.4512,0,0,0.6984,,0,30,30,89,1,REAL,FAKE,,,,,,,,,,,,,,,,,
,,,,,,,,,67435174b76a747138e8a47a,Spanish,13 or older,"no, only English or Spanish",no,2026-01-21_19h39.20.058,empathy_intonation_perc_control,2024.2.4,MacIntel,57.47126437,67435174b76a747138e8a47a,69712dc693a3960bdb483245,69717195bd1b4c6c598fb905,,,,,,,,,,,,,0,,,,,,,,,,,,,,,,,,,,,,,,,,,,,,,,,,,,,50,flamida,,,,,336.4524,337.7346,0,1,0.7406,,0,31,31,49,1,REAL,FAKE,,,,,,,,,,,,,,,,,
,,,,,,,,,67435174b76a747138e8a47a,Spanish,13 or older,"no, only English or Spanish",no,2026-01-21_19h39.20.058,empathy_intonation_perc_control,2024.2.4,MacIntel,57.47126437,67435174b76a747138e8a47a,69712dc693a3960bdb483245,69717195bd1b4c6c598fb905,,,,,,,,,,,,,1,,,,,,,,,,,,,,,,,,,,,,,,,,,,,,,,,,,,,64,orgulloso,,,,,337.7358,338.7849,0,0,0.5177,,0,32,32,63,1,REAL,FAKE,,,,,,,,,,,,,,,,,
,,,,,,,,,67435174b76a747138e8a47a,Spanish,13 or older,"no, only English or Spanish",no,2026-01-21_19h39.20.058,empathy_intonation_perc_control,2024.2.4,MacIntel,57.47126437,67435174b76a747138e8a47a,69712dc693a3960bdb483245,69717195bd1b4c6c598fb905,,,,,,,,,,,,,1,,,,,,,,,,,,,,,,,,,,,,,,,,,,,,,,,,,,,44,cuchara,,,,,338.7859,341.3179,1,1,1.9986,,0,33,33,43,1,REAL,FAKE,,,,,,,,,,,,,,,,,
,,,,,,,,,67435174b76a747138e8a47a,Spanish,13 or older,"no, only English or Spanish",no,2026-01-21_19h39.20.058,empathy_intonation_perc_control,2024.2.4,MacIntel,57.47126437,67435174b76a747138e8a47a,69712dc693a3960bdb483245,69717195bd1b4c6c598fb905,,,,,,,,,,,,,0,,,,,,,,,,,,,,,,,,,,,,,,,,,,,,,,,,,,,30,alardio,,,,,341.3191,342.8847,0,1,1.0228,,0,34,34,29,1,REAL,FAKE,,,,,,,,,,,,,,,,,
,,,,,,,,,67435174b76a747138e8a47a,Spanish,13 or older,"no, only English or Spanish",no,2026-01-21_19h39.20.058,empathy_intonation_perc_control,2024.2.4,MacIntel,57.47126437,67435174b76a747138e8a47a,69712dc693a3960bdb483245,69717195bd1b4c6c598fb905,,,,,,,,,,,,,1,,,,,,,,,,,,,,,,,,,,,,,,,,,,,,,,,,,,,37,granuja,,,,,342.8857,344.2337,1,1,0.8058,,0,35,35,36,1,REAL,FAKE,,,,,,,,,,,,,,,,,
,,,,,,,,,67435174b76a747138e8a47a,Spanish,13 or older,"no, only English or Spanish",no,2026-01-21_19h39.20.058,empathy_intonation_perc_control,2024.2.4,MacIntel,57.47126437,67435174b76a747138e8a47a,69712dc693a3960bdb483245,69717195bd1b4c6c598fb905,,,,,,,,,,,,,0,,,,,,,,,,,,,,,,,,,,,,,,,,,,,,,,,,,,,42,cadallo,,,,,344.2349,345.6174,0,1,0.8619,,0,36,36,41,1,REAL,FAKE,,,,,,,,,,,,,,,,,
,,,,,,,,,67435174b76a747138e8a47a,Spanish,13 or older,"no, only English or Spanish",no,2026-01-21_19h39.20.058,empathy_intonation_perc_control,2024.2.4,MacIntel,57.47126437,67435174b76a747138e8a47a,69712dc693a3960bdb483245,69717195bd1b4c6c598fb905,,,,,,,,,,,,,1,,,,,,,,,,,,,,,,,,,,,,,,,,,,,,,,,,,,,9,hacha,,,,,345.6184,347.1671,0,0,1.0244,,0,37,37,8,1,REAL,FAKE,,,,,,,,,,,,,,,,,
,,,,,,,,,67435174b76a747138e8a47a,Spanish,13 or older,"no, only English or Spanish",no,2026-01-21_19h39.20.058,empathy_intonation_perc_control,2024.2.4,MacIntel,57.47126437,67435174b76a747138e8a47a,69712dc693a3960bdb483245,69717195bd1b4c6c598fb905,,,,,,,,,,,,,1,,,,,,,,,,,,,,,,,,,,,,,,,,,,,,,,,,,,,67,cabello,,,,,347.1683,348.568,1,1,0.8723,,0,38,38,66,1,REAL,FAKE,,,,,,,,,,,,,,,,,
,,,,,,,,,67435174b76a747138e8a47a,Spanish,13 or older,"no, only English or Spanish",no,2026-01-21_19h39.20.058,empathy_intonation_perc_control,2024.2.4,MacIntel,57.47126437,67435174b76a747138e8a47a,69712dc693a3960bdb483245,69717195bd1b4c6c598fb905,,,,,,,,,,,,,1,,,,,,,,,,,,,,,,,,,,,,,,,,,,,,,,,,,,,73,hervidor,,,,,348.5692,349.9005,0,0,0.791,,0,39,39,72,1,REAL,FAKE,,,,,,,,,,,,,,,,,
,,,,,,,,,67435174b76a747138e8a47a,Spanish,13 or older,"no, only English or Spanish",no,2026-01-21_19h39.20.058,empathy_intonation_perc_control,2024.2.4,MacIntel,57.47126437,67435174b76a747138e8a47a,69712dc693a3960bdb483245,69717195bd1b4c6c598fb905,,,,,,,,,,,,,0,,,,,,,,,,,,,,,,,,,,,,,,,,,,,,,,,,,,,72,pemición,,,,,349.9017,351.3013,0,1,0.8733,,0,40,40,71,1,REAL,FAKE,,,,,,,,,,,,,,,,,
,,,,,,,,,67435174b76a747138e8a47a,Spanish,13 or older,"no, only English or Spanish",no,2026-01-21_19h39.20.058,empathy_intonation_perc_control,2024.2.4,MacIntel,57.47126437,67435174b76a747138e8a47a,69712dc693a3960bdb483245,69717195bd1b4c6c598fb905,,,,,,,,,,,,,0,,,,,,,,,,,,,,,,,,,,,,,,,,,,,,,,,,,,,1,terzo,,,,,351.3026,352.418,0,1,0.5754,,0,41,41,0,1,REAL,FAKE,,,,,,,,,,,,,,,,,
,,,,,,,,,67435174b76a747138e8a47a,Spanish,13 or older,"no, only English or Spanish",no,2026-01-21_19h39.20.058,empathy_intonation_perc_control,2024.2.4,MacIntel,57.47126437,67435174b76a747138e8a47a,69712dc693a3960bdb483245,69717195bd1b4c6c598fb905,,,,,,,,,,,,,1,,,,,,,,,,,,,,,,,,,,,,,,,,,,,,,,,,,,,78,frondoso,,,,,352.4191,353.8845,0,0,0.9337,,0,42,42,77,1,REAL,FAKE,,,,,,,,,,,,,,,,,
,,,,,,,,,67435174b76a747138e8a47a,Spanish,13 or older,"no, only English or Spanish",no,2026-01-21_19h39.20.058,empathy_intonation_perc_control,2024.2.4,MacIntel,57.47126437,67435174b76a747138e8a47a,69712dc693a3960bdb483245,69717195bd1b4c6c598fb905,,,,,,,,,,,,,1,,,,,,,,,,,,,,,,,,,,,,,,,,,,,,,,,,,,,26,secuestro,,,,,353.8854,355.018,0,0,0.6007,,0,43,43,25,1,REAL,FAKE,,,,,,,,,,,,,,,,,
,,,,,,,,,67435174b76a747138e8a47a,Spanish,13 or older,"no, only English or Spanish",no,2026-01-21_19h39.20.058,empathy_intonation_perc_control,2024.2.4,MacIntel,57.47126437,67435174b76a747138e8a47a,69712dc693a3960bdb483245,69717195bd1b4c6c598fb905,,,,,,,,,,,,,1,,,,,,,,,,,,,,,,,,,,,,,,,,,,,,,,,,,,,83,guante,,,,,355.019,356.3181,0,0,0.757,,0,44,44,82,1,REAL,FAKE,,,,,,,,,,,,,,,,,
,,,,,,,,,67435174b76a747138e8a47a,Spanish,13 or older,"no, only English or Spanish",no,2026-01-21_19h39.20.058,empathy_intonation_perc_control,2024.2.4,MacIntel,57.47126437,67435174b76a747138e8a47a,69712dc693a3960bdb483245,69717195bd1b4c6c598fb905,,,,,,,,,,,,,0,,,,,,,,,,,,,,,,,,,,,,,,,,,,,,,,,,,,,8,cadeña,,,,,356.3193,358.3346,1,0,1.4762,,0,45,45,7,1,REAL,FAKE,,,,,,,,,,,,,,,,,
,,,,,,,,,67435174b76a747138e8a47a,Spanish,13 or older,"no, only English or Spanish",no,2026-01-21_19h39.20.058,empathy_intonation_perc_control,2024.2.4,MacIntel,57.47126437,67435174b76a747138e8a47a,69712dc693a3960bdb483245,69717195bd1b4c6c598fb905,,,,,,,,,,,,,0,,,,,,,,,,,,,,,,,,,,,,,,,,,,,,,,,,,,,32,fatacidad,,,,,358.3357,359.4847,0,1,0.6075,,0,46,46,31,1,REAL,FAKE,,,,,,,,,,,,,,,,,
,,,,,,,,,67435174b76a747138e8a47a,Spanish,13 or older,"no, only English or Spanish",no,2026-01-21_19h39.20.058,empathy_intonation_perc_control,2024.2.4,MacIntel,57.47126437,67435174b76a747138e8a47a,69712dc693a3960bdb483245,69717195bd1b4c6c598fb905,,,,,,,,,,,,,0,,,,,,,,,,,,,,,,,,,,,,,,,,,,,,,,,,,,,53,vegada,,,,,359.4859,360.7179,0,1,0.6968,,0,47,47,52,1,REAL,FAKE,,,,,,,,,,,,,,,,,
,,,,,,,,,67435174b76a747138e8a47a,Spanish,13 or older,"no, only English or Spanish",no,2026-01-21_19h39.20.058,empathy_intonation_perc_control,2024.2.4,MacIntel,57.47126437,67435174b76a747138e8a47a,69712dc693a3960bdb483245,69717195bd1b4c6c598fb905,,,,,,,,,,,,,1,,,,,,,,,,,,,,,,,,,,,,,,,,,,,,,,,,,,,51,candado,,,,,360.7189,362.2514,0,0,0.9908,,0,48,48,50,1,REAL,FAKE,,,,,,,,,,,,,,,,,
,,,,,,,,,67435174b76a747138e8a47a,Spanish,13 or older,"no, only English or Spanish",no,2026-01-21_19h39.20.058,empathy_intonation_perc_control,2024.2.4,MacIntel,57.47126437,67435174b76a747138e8a47a,69712dc693a3960bdb483245,69717195bd1b4c6c598fb905,,,,,,,,,,,,,0,,,,,,,,,,,,,,,,,,,,,,,,,,,,,,,,,,,,,4,batillón,,,,,362.2527,363.4671,0,1,0.6741,,0,49,49,3,1,REAL,FAKE,,,,,,,,,,,,,,,,,
,,,,,,,,,67435174b76a747138e8a47a,Spanish,13 or older,"no, only English or Spanish",no,2026-01-21_19h39.20.058,empathy_intonation_perc_control,2024.2.4,MacIntel,57.47126437,67435174b76a747138e8a47a,69712dc693a3960bdb483245,69717195bd1b4c6c598fb905,,,,,,,,,,,,,1,,,,,,,,,,,,,,,,,,,,,,,,,,,,,,,,,,,,,91,click the 1 key.,,,,,363.4683,365.5012,1,1,1.4982,,0,50,50,90,1,REAL,FAKE,,,,,,,,,,,,,,,,,
,,,,,,,,,67435174b76a747138e8a47a,Spanish,13 or older,"no, only English or Spanish",no,2026-01-21_19h39.20.058,empathy_intonation_perc_control,2024.2.4,MacIntel,57.47126437,67435174b76a747138e8a47a,69712dc693a3960bdb483245,69717195bd1b4c6c598fb905,,,,,,,,,,,,,1,,,,,,,,,,,,,,,,,,,,,,,,,,,,,,,,,,,,,15,regar,,,,,365.5021,367.7182,1,1,1.6745,,0,51,51,14,1,REAL,FAKE,,,,,,,,,,,,,,,,,
,,,,,,,,,67435174b76a747138e8a47a,Spanish,13 or older,"no, only English or Spanish",no,2026-01-21_19h39.20.058,empathy_intonation_perc_control,2024.2.4,MacIntel,57.47126437,67435174b76a747138e8a47a,69712dc693a3960bdb483245,69717195bd1b4c6c598fb905,,,,,,,,,,,,,1,,,,,,,,,,,,,,,,,,,,,,,,,,,,,,,,,,,,,56,musgo,,,,,367.7192,368.8347,0,0,0.57,,0,52,52,55,1,REAL,FAKE,,,,,,,,,,,,,,,,,
,,,,,,,,,67435174b76a747138e8a47a,Spanish,13 or older,"no, only English or Spanish",no,2026-01-21_19h39.20.058,empathy_intonation_perc_control,2024.2.4,MacIntel,57.47126437,67435174b76a747138e8a47a,69712dc693a3960bdb483245,69717195bd1b4c6c598fb905,,,,,,,,,,,,,1,,,,,,,,,,,,,,,,,,,,,,,,,,,,,,,,,,,,,6,tergiversar,,,,,368.8359,370.4338,0,0,1.0564,,0,53,53,5,1,REAL,FAKE,,,,,,,,,,,,,,,,,
,,,,,,,,,67435174b76a747138e8a47a,Spanish,13 or older,"no, only English or Spanish",no,2026-01-21_19h39.20.058,empathy_intonation_perc_control,2024.2.4,MacIntel,57.47126437,67435174b76a747138e8a47a,69712dc693a3960bdb483245,69717195bd1b4c6c598fb905,,,,,,,,,,,,,1,,,,,,,,,,,,,,,,,,,,,,,,,,,,,,,,,,,,,68,alegre,,,,,370.435,372.0015,0,0,1.0387,,0,54,54,67,1,REAL,FAKE,,,,,,,,,,,,,,,,,
,,,,,,,,,67435174b76a747138e8a47a,Spanish,13 or older,"no, only English or Spanish",no,2026-01-21_19h39.20.058,empathy_intonation_perc_control,2024.2.4,MacIntel,57.47126437,67435174b76a747138e8a47a,69712dc693a3960bdb483245,69717195bd1b4c6c598fb905,,,,,,,,,,,,,0,,,,,,,,,,,,,,,,,,,,,,,,,,,,,,,,,,,,,35,rompido,,,,,372.0026,373.9504,1,0,1.414,,0,55,55,34,1,REAL,FAKE,,,,,,,,,,,,,,,,,
,,,,,,,,,67435174b76a747138e8a47a,Spanish,13 or older,"no, only English or Spanish",no,2026-01-21_19h39.20.058,empathy_intonation_perc_control,2024.2.4,MacIntel,57.47126437,67435174b76a747138e8a47a,69712dc693a3960bdb483245,69717195bd1b4c6c598fb905,,,,,,,,,,,,,1,,,,,,,,,,,,,,,,,,,,,,,,,,,,,,,,,,,,,3,pulmones,,,,,373.9514,375.3005,0,0,0.8214,,0,56,56,2,1,REAL,FAKE,,,,,,,,,,,,,,,,,
,,,,,,,,,67435174b76a747138e8a47a,Spanish,13 or older,"no, only English or Spanish",no,2026-01-21_19h39.20.058,empathy_intonation_perc_control,2024.2.4,MacIntel,57.47126437,67435174b76a747138e8a47a,69712dc693a3960bdb483245,69717195bd1b4c6c598fb905,,,,,,,,,,,,,0,,,,,,,,,,,,,,,,,,,,,,,,,,,,,,,,,,,,,29,decar,,,,,375.3016,376.6351,0,1,0.8158,,0,57,57,28,1,REAL,FAKE,,,,,,,,,,,,,,,,,
,,,,,,,,,67435174b76a747138e8a47a,Spanish,13 or older,"no, only English or Spanish",no,2026-01-21_19h39.20.058,empathy_intonation_perc_control,2024.2.4,MacIntel,57.47126437,67435174b76a747138e8a47a,69712dc693a3960bdb483245,69717195bd1b4c6c598fb905,,,,,,,,,,,,,0,,,,,,,,,,,,,,,,,,,,,,,,,,,,,,,,,,,,,10,antar,,,,,376.6362,377.8182,1,0,0.6401,,0,58,58,9,1,REAL,FAKE,,,,,,,,,,,,,,,,,
,,,,,,,,,67435174b76a747138e8a47a,Spanish,13 or older,"no, only English or Spanish",no,2026-01-21_19h39.20.058,empathy_intonation_perc_control,2024.2.4,MacIntel,57.47126437,67435174b76a747138e8a47a,69712dc693a3960bdb483245,69717195bd1b4c6c598fb905,,,,,,,,,,,,,0,,,,,,,,,,,,,,,,,,,,,,,,,,,,,,,,,,,,,79,tropaje,,,,,377.8194,378.9848,0,1,0.6243,,0,59,59,78,1,REAL,FAKE,,,,,,,,,,,,,,,,,
,,,,,,,,,67435174b76a747138e8a47a,Spanish,13 or older,"no, only English or Spanish",no,2026-01-21_19h39.20.058,empathy_intonation_perc_control,2024.2.4,MacIntel,57.47126437,67435174b76a747138e8a47a,69712dc693a3960bdb483245,69717195bd1b4c6c598fb905,,,,,,,,,,,,,1,,,,,,,,,,,,,,,,,,,,,,,,,,,,,,,,,,,,,59,besar,,,,,378.9859,379.9845,0,0,0.4737,,0,60,60,58,1,REAL,FAKE,,,,,,,,,,,,,,,,,
,,,,,,,,,67435174b76a747138e8a47a,Spanish,13 or older,"no, only English or Spanish",no,2026-01-21_19h39.20.058,empathy_intonation_perc_control,2024.2.4,MacIntel,57.47126437,67435174b76a747138e8a47a,69712dc693a3960bdb483245,69717195bd1b4c6c598fb905,,,,,,,,,,,,,1,,,,,,,,,,,,,,,,,,,,,,,,,,,,,,,,,,,,,5,zapato,,,,,379.9849,381.468,1,1,0.9717,,0,61,61,4,1,REAL,FAKE,,,,,,,,,,,,,,,,,
,,,,,,,,,67435174b76a747138e8a47a,Spanish,13 or older,"no, only English or Spanish",no,2026-01-21_19h39.20.058,empathy_intonation_perc_control,2024.2.4,MacIntel,57.47126437,67435174b76a747138e8a47a,69712dc693a3960bdb483245,69717195bd1b4c6c598fb905,,,,,,,,,,,,,0,,,,,,,,,,,,,,,,,,,,,,,,,,,,,,,,,,,,,63,esposante,,,,,381.4689,382.6682,0,1,0.655,,0,62,62,62,1,REAL,FAKE,,,,,,,,,,,,,,,,,
,,,,,,,,,67435174b76a747138e8a47a,Spanish,13 or older,"no, only English or Spanish",no,2026-01-21_19h39.20.058,empathy_intonation_perc_control,2024.2.4,MacIntel,57.47126437,67435174b76a747138e8a47a,69712dc693a3960bdb483245,69717195bd1b4c6c598fb905,,,,,,,,,,,,,1,,,,,,,,,,,,,,,,,,,,,,,,,,,,,,,,,,,,,14,yunque,,,,,382.6692,383.9016,0,0,0.6881,,0,63,63,13,1,REAL,FAKE,,,,,,,,,,,,,,,,,
,,,,,,,,,67435174b76a747138e8a47a,Spanish,13 or older,"no, only English or Spanish",no,2026-01-21_19h39.20.058,empathy_intonation_perc_control,2024.2.4,MacIntel,57.47126437,67435174b76a747138e8a47a,69712dc693a3960bdb483245,69717195bd1b4c6c598fb905,,,,,,,,,,,,,1,,,,,,,,,,,,,,,,,,,,,,,,,,,,,,,,,,,,,71,polvoriento,,,,,383.9027,385.0016,0,0,0.5563,,0,64,64,70,1,REAL,FAKE,,,,,,,,,,,,,,,,,
,,,,,,,,,67435174b76a747138e8a47a,Spanish,13 or older,"no, only English or Spanish",no,2026-01-21_19h39.20.058,empathy_intonation_perc_control,2024.2.4,MacIntel,57.47126437,67435174b76a747138e8a47a,69712dc693a3960bdb483245,69717195bd1b4c6c598fb905,,,,,,,,,,,,,0,,,,,,,,,,,,,,,,,,,,,,,,,,,,,,,,,,,,,92,click the 0 key.,,,,,385.0028,386.5349,0,1,0.9896,,0,65,65,91,1,REAL,FAKE,,,,,,,,,,,,,,,,,
,,,,,,,,,67435174b76a747138e8a47a,Spanish,13 or older,"no, only English or Spanish",no,2026-01-21_19h39.20.058,empathy_intonation_perc_control,2024.2.4,MacIntel,57.47126437,67435174b76a747138e8a47a,69712dc693a3960bdb483245,69717195bd1b4c6c598fb905,,,,,,,,,,,,,1,,,,,,,,,,,,,,,,,,,,,,,,,,,,,,,,,,,,,36,loro,,,,,386.5361,388.0682,0,0,0.9885,,0,66,66,35,1,REAL,FAKE,,,,,,,,,,,,,,,,,
,,,,,,,,,67435174b76a747138e8a47a,Spanish,13 or older,"no, only English or Spanish",no,2026-01-21_19h39.20.058,empathy_intonation_perc_control,2024.2.4,MacIntel,57.47126437,67435174b76a747138e8a47a,69712dc693a3960bdb483245,69717195bd1b4c6c598fb905,,,,,,,,,,,,,0,,,,,,,,,,,,,,,,,,,,,,,,,,,,,,,,,,,,,17,floroso,,,,,388.0693,389.3514,0,1,0.7489,,0,67,67,16,1,REAL,FAKE,,,,,,,,,,,,,,,,,
,,,,,,,,,67435174b76a747138e8a47a,Spanish,13 or older,"no, only English or Spanish",no,2026-01-21_19h39.20.058,empathy_intonation_perc_control,2024.2.4,MacIntel,57.47126437,67435174b76a747138e8a47a,69712dc693a3960bdb483245,69717195bd1b4c6c598fb905,,,,,,,,,,,,,0,,,,,,,,,,,,,,,,,,,,,,,,,,,,,,,,,,,,,84,escuto,,,,,389.3523,390.6172,0,1,0.7226,,0,68,68,83,1,REAL,FAKE,,,,,,,,,,,,,,,,,
,,,,,,,,,67435174b76a747138e8a47a,Spanish,13 or older,"no, only English or Spanish",no,2026-01-21_19h39.20.058,empathy_intonation_perc_control,2024.2.4,MacIntel,57.47126437,67435174b76a747138e8a47a,69712dc693a3960bdb483245,69717195bd1b4c6c598fb905,,,,,,,,,,,,,1,,,,,,,,,,,,,,,,,,,,,,,,,,,,,,,,,,,,,43,canela,,,,,390.6184,392.1682,0,0,1.0221,,0,69,69,42,1,REAL,FAKE,,,,,,,,,,,,,,,,,
,,,,,,,,,67435174b76a747138e8a47a,Spanish,13 or older,"no, only English or Spanish",no,2026-01-21_19h39.20.058,empathy_intonation_perc_control,2024.2.4,MacIntel,57.47126437,67435174b76a747138e8a47a,69712dc693a3960bdb483245,69717195bd1b4c6c598fb905,,,,,,,,,,,,,1,,,,,,,,,,,,,,,,,,,,,,,,,,,,,,,,,,,,,24,látigo,,,,,392.1693,393.885,0,0,1.1724,,0,70,70,23,1,REAL,FAKE,,,,,,,,,,,,,,,,,
,,,,,,,,,67435174b76a747138e8a47a,Spanish,13 or older,"no, only English or Spanish",no,2026-01-21_19h39.20.058,empathy_intonation_perc_control,2024.2.4,MacIntel,57.47126437,67435174b76a747138e8a47a,69712dc693a3960bdb483245,69717195bd1b4c6c598fb905,,,,,,,,,,,,,0,,,,,,,,,,,,,,,,,,,,,,,,,,,,,,,,,,,,,33,pauca,,,,,393.8861,396.0183,0,1,1.5893,,0,71,71,32,1,REAL,FAKE,,,,,,,,,,,,,,,,,
,,,,,,,,,67435174b76a747138e8a47a,Spanish,13 or older,"no, only English or Spanish",no,2026-01-21_19h39.20.058,empathy_intonation_perc_control,2024.2.4,MacIntel,57.47126437,67435174b76a747138e8a47a,69712dc693a3960bdb483245,69717195bd1b4c6c598fb905,,,,,,,,,,,,,0,,,,,,,,,,,,,,,,,,,,,,,,,,,,,,,,,,,,,66,hacido,,,,,396.0195,397.4003,0,1,0.8397,,0,72,72,65,1,REAL,FAKE,,,,,,,,,,,,,,,,,
,,,,,,,,,67435174b76a747138e8a47a,Spanish,13 or older,"no, only English or Spanish",no,2026-01-21_19h39.20.058,empathy_intonation_perc_control,2024.2.4,MacIntel,57.47126437,67435174b76a747138e8a47a,69712dc693a3960bdb483245,69717195bd1b4c6c598fb905,,,,,,,,,,,,,0,,,,,,,,,,,,,,,,,,,,,,,,,,,,,,,,,,,,,47,cartinar,,,,,397.4009,399.2513,1,0,1.3175,,0,73,73,46,1,REAL,FAKE,,,,,,,,,,,,,,,,,
,,,,,,,,,67435174b76a747138e8a47a,Spanish,13 or older,"no, only English or Spanish",no,2026-01-21_19h39.20.058,empathy_intonation_perc_control,2024.2.4,MacIntel,57.47126437,67435174b76a747138e8a47a,69712dc693a3960bdb483245,69717195bd1b4c6c598fb905,,,,,,,,,,,,,0,,,,,,,,,,,,,,,,,,,,,,,,,,,,,,,,,,,,,87,grodo,,,,,399.2521,400.4847,0,1,0.6964,,0,74,74,86,1,REAL,FAKE,,,,,,,,,,,,,,,,,
,,,,,,,,,67435174b76a747138e8a47a,Spanish,13 or older,"no, only English or Spanish",no,2026-01-21_19h39.20.058,empathy_intonation_perc_control,2024.2.4,MacIntel,57.47126437,67435174b76a747138e8a47a,69712dc693a3960bdb483245,69717195bd1b4c6c598fb905,,,,,,,,,,,,,1,,,,,,,,,,,,,,,,,,,,,,,,,,,,,,,,,,,,,7,pésimo,,,,,400.4855,402.285,1,1,1.2625,,0,75,75,6,1,REAL,FAKE,,,,,,,,,,,,,,,,,
,,,,,,,,,67435174b76a747138e8a47a,Spanish,13 or older,"no, only English or Spanish",no,2026-01-21_19h39.20.058,empathy_intonation_perc_control,2024.2.4,MacIntel,57.47126437,67435174b76a747138e8a47a,69712dc693a3960bdb483245,69717195bd1b4c6c598fb905,,,,,,,,,,,,,1,,,,,,,,,,,,,,,,,,,,,,,,,,,,,,,,,,,,,85,laúd,,,,,402.2863,403.9182,0,0,1.0853,,0,76,76,84,1,REAL,FAKE,,,,,,,,,,,,,,,,,
,,,,,,,,,67435174b76a747138e8a47a,Spanish,13 or older,"no, only English or Spanish",no,2026-01-21_19h39.20.058,empathy_intonation_perc_control,2024.2.4,MacIntel,57.47126437,67435174b76a747138e8a47a,69712dc693a3960bdb483245,69717195bd1b4c6c598fb905,,,,,,,,,,,,,1,,,,,,,,,,,,,,,,,,,,,,,,,,,,,,,,,,,,,57,tacaño,,,,,403.9192,405.0016,0,0,0.5361,,0,77,77,56,1,REAL,FAKE,,,,,,,,,,,,,,,,,
,,,,,,,,,67435174b76a747138e8a47a,Spanish,13 or older,"no, only English or Spanish",no,2026-01-21_19h39.20.058,empathy_intonation_perc_control,2024.2.4,MacIntel,57.47126437,67435174b76a747138e8a47a,69712dc693a3960bdb483245,69717195bd1b4c6c598fb905,,,,,,,,,,,,,1,,,,,,,,,,,,,,,,,,,,,,,,,,,,,,,,,,,,,41,rebuscar,,,,,405.0028,406.4016,1,1,0.865,,0,78,78,40,1,REAL,FAKE,,,,,,,,,,,,,,,,,
,,,,,,,,,67435174b76a747138e8a47a,Spanish,13 or older,"no, only English or Spanish",no,2026-01-21_19h39.20.058,empathy_intonation_perc_control,2024.2.4,MacIntel,57.47126437,67435174b76a747138e8a47a,69712dc693a3960bdb483245,69717195bd1b4c6c598fb905,,,,,,,,,,,,,1,,,,,,,,,,,,,,,,,,,,,,,,,,,,,,,,,,,,,11,cenefa,,,,,406.4027,407.7838,0,0,0.8422,,0,79,79,10,1,REAL,FAKE,,,,,,,,,,,,,,,,,
,,,,,,,,,67435174b76a747138e8a47a,Spanish,13 or older,"no, only English or Spanish",no,2026-01-21_19h39.20.058,empathy_intonation_perc_control,2024.2.4,MacIntel,57.47126437,67435174b76a747138e8a47a,69712dc693a3960bdb483245,69717195bd1b4c6c598fb905,,,,,,,,,,,,,0,,,,,,,,,,,,,,,,,,,,,,,,,,,,,,,,,,,,,21,capillo,,,,,407.7846,409.5349,0,1,1.2228,,0,80,80,20,1,REAL,FAKE,,,,,,,,,,,,,,,,,
,,,,,,,,,67435174b76a747138e8a47a,Spanish,13 or older,"no, only English or Spanish",no,2026-01-21_19h39.20.058,empathy_intonation_perc_control,2024.2.4,MacIntel,57.47126437,67435174b76a747138e8a47a,69712dc693a3960bdb483245,69717195bd1b4c6c598fb905,,,,,,,,,,,,,1,,,,,,,,,,,,,,,,,,,,,,,,,,,,,,,,,,,,,61,seda,,,,,409.5361,410.785,0,0,0.7155,,0,81,81,60,1,REAL,FAKE,,,,,,,,,,,,,,,,,
,,,,,,,,,67435174b76a747138e8a47a,Spanish,13 or older,"no, only English or Spanish",no,2026-01-21_19h39.20.058,empathy_intonation_perc_control,2024.2.4,MacIntel,57.47126437,67435174b76a747138e8a47a,69712dc693a3960bdb483245,69717195bd1b4c6c598fb905,,,,,,,,,,,,,1,,,,,,,,,,,,,,,,,,,,,,,,,,,,,,,,,,,,,65,bizcocho,,,,,410.786,411.7848,0,0,0.4603,,0,82,82,64,1,REAL,FAKE,,,,,,,,,,,,,,,,,
,,,,,,,,,67435174b76a747138e8a47a,Spanish,13 or older,"no, only English or Spanish",no,2026-01-21_19h39.20.058,empathy_intonation_perc_control,2024.2.4,MacIntel,57.47126437,67435174b76a747138e8a47a,69712dc693a3960bdb483245,69717195bd1b4c6c598fb905,,,,,,,,,,,,,0,,,,,,,,,,,,,,,,,,,,,,,,,,,,,,,,,,,,,82,empirador,,,,,411.7857,413.0672,0,1,0.7565,,0,83,83,81,1,REAL,FAKE,,,,,,,,,,,,,,,,,
,,,,,,,,,67435174b76a747138e8a47a,Spanish,13 or older,"no, only English or Spanish",no,2026-01-21_19h39.20.058,empathy_intonation_perc_control,2024.2.4,MacIntel,57.47126437,67435174b76a747138e8a47a,69712dc693a3960bdb483245,69717195bd1b4c6c598fb905,,,,,,,,,,,,,0,,,,,,,,,,,,,,,,,,,,,,,,,,,,,,,,,,,,,74,cintro,,,,,413.0682,414.2516,0,1,0.6566,,0,84,84,73,1,REAL,FAKE,,,,,,,,,,,,,,,,,
,,,,,,,,,67435174b76a747138e8a47a,Spanish,13 or older,"no, only English or Spanish",no,2026-01-21_19h39.20.058,empathy_intonation_perc_control,2024.2.4,MacIntel,57.47126437,67435174b76a747138e8a47a,69712dc693a3960bdb483245,69717195bd1b4c6c598fb905,,,,,,,,,,,,,1,,,,,,,,,,,,,,,,,,,,,,,,,,,,,,,,,,,,,22,lacayo,,,,,414.2528,415.1848,0,0,0.3979,,0,85,85,21,1,REAL,FAKE,,,,,,,,,,,,,,,,,
,,,,,,,,,67435174b76a747138e8a47a,Spanish,13 or older,"no, only English or Spanish",no,2026-01-21_19h39.20.058,empathy_intonation_perc_control,2024.2.4,MacIntel,57.47126437,67435174b76a747138e8a47a,69712dc693a3960bdb483245,69717195bd1b4c6c598fb905,,,,,,,,,,,,,1,,,,,,,,,,,,,,,,,,,,,,,,,,,,,,,,,,,,,40,alfombra,,,,,415.1857,416.7015,0,0,0.9896,,0,86,86,39,1,REAL,FAKE,,,,,,,,,,,,,,,,,
,,,,,,,,,67435174b76a747138e8a47a,Spanish,13 or older,"no, only English or Spanish",no,2026-01-21_19h39.20.058,empathy_intonation_perc_control,2024.2.4,MacIntel,57.47126437,67435174b76a747138e8a47a,69712dc693a3960bdb483245,69717195bd1b4c6c598fb905,,,,,,,,,,,,,1,,,,,,,,,,,,,,,,,,,,,,,,,,,,,,,,,,,,,76,atar,,,,,416.7024,417.8851,0,0,0.6399,,0,87,87,75,1,REAL,FAKE,,,,,,,,,,,,,,,,,
,,,,,,,,,67435174b76a747138e8a47a,Spanish,13 or older,"no, only English or Spanish",no,2026-01-21_19h39.20.058,empathy_intonation_perc_control,2024.2.4,MacIntel,57.47126437,67435174b76a747138e8a47a,69712dc693a3960bdb483245,69717195bd1b4c6c598fb905,,,,,,,,,,,,,1,,,,,,,,,,,,,,,,,,,,,,,,,,,,,,,,,,,,,60,matar,,,,,417.8861,419.1679,1,1,0.7457,,0,88,88,59,1,REAL,FAKE,,,,,,,,,,,,,,,,,
,,,,,,,,,67435174b76a747138e8a47a,Spanish,13 or older,"no, only English or Spanish",no,2026-01-21_19h39.20.058,empathy_intonation_perc_control,2024.2.4,MacIntel,57.47126437,67435174b76a747138e8a47a,69712dc693a3960bdb483245,69717195bd1b4c6c598fb905,,,,,,,,,,,,,1,,,,,,,,,,,,,,,,,,,,,,,,,,,,,,,,,,,,,46,martillo,,,,,419.169,420.4178,0,0,0.7173,,0,89,89,45,1,REAL,FAKE,,,,,,,,,,,,,,,,,
,,,,,,,,,67435174b76a747138e8a47a,Spanish,13 or older,"no, only English or Spanish",no,2026-01-21_19h39.20.058,empathy_intonation_perc_control,2024.2.4,MacIntel,57.47126437,67435174b76a747138e8a47a,69712dc693a3960bdb483245,69717195bd1b4c6c598fb905,,,,,,,,,,,,,1,,,,,,,,,,,,,,,,,,,,,,,,,,,,,,,,,,,,,69,engatusar,,,,,420.4187,422.5186,0,0,1.5843,,0,90,90,68,1,REAL,FAKE,,,,,,,,,,,,,,,,,
,,,,,,,,,67435174b76a747138e8a47a,Spanish,13 or older,"no, only English or Spanish",no,2026-01-21_19h39.20.058,empathy_intonation_perc_control,2024.2.4,MacIntel,57.47126437,67435174b76a747138e8a47a,69712dc693a3960bdb483245,69717195bd1b4c6c598fb905,,,,,,,,,,,,,1,,,,,,,,,,,,,,,,,,,,,,,,,,,,,,,,,,,,,38,estornudar,,,,,422.5195,423.9675,0,0,0.9074,,0,91,91,37,1,REAL,FAKE,,,,,,,,,,,,,,,,,
,,,,,,,,,67435174b76a747138e8a47a,Spanish,13 or older,"no, only English or Spanish",no,2026-01-21_19h39.20.058,empathy_intonation_perc_control,2024.2.4,MacIntel,57.47126437,67435174b76a747138e8a47a,69712dc693a3960bdb483245,69717195bd1b4c6c598fb905,,,,,,,,,,,,,,,,,,,,,,,,,,,,,,,,,,,,,,,,,,,,,,,,,,,,,,,,,,,,,,,,,,,,,423.9679,428.0353,,,,,,,,,,,,,,,
,,,,,,,,,67435174b76a747138e8a47a,Spanish,13 or older,"no, only English or Spanish",no,2026-01-21_19h39.20.058,empathy_intonation_perc_control,2024.2.4,MacIntel,57.47126437,67435174b76a747138e8a47a,69712dc693a3960bdb483245,69717195bd1b4c6c598fb905,,,,,,,,,,,,,,,,,,,,,,,,,,,1,,,,,,,,,,,,,,,,,,,,,,,,,,,,,,,,,,,,,,,,,,,,428.0439,431.435,strongly disagree,0,0,0,0,1,I can easily tell if someone else wants to enter a conversation.,1,0,1,0,,
,,,,,,,,,67435174b76a747138e8a47a,Spanish,13 or older,"no, only English or Spanish",no,2026-01-21_19h39.20.058,empathy_intonation_perc_control,2024.2.4,MacIntel,57.47126437,67435174b76a747138e8a47a,69712dc693a3960bdb483245,69717195bd1b4c6c598fb905,,,,,,,,,,,,,,,,,,,,,,,,,,,2,,,,,,,,,,,,,,,,,,,,,,,,,,,,,,,,,,,,,,,,,,,,431.4361,434.2016,slightly agree,0,1,1,1,1,I prefer animals to humans.,0,1,0,0,,
,,,,,,,,,67435174b76a747138e8a47a,Spanish,13 or older,"no, only English or Spanish",no,2026-01-21_19h39.20.058,empathy_intonation_perc_control,2024.2.4,MacIntel,57.47126437,67435174b76a747138e8a47a,69712dc693a3960bdb483245,69717195bd1b4c6c598fb905,,,,,,,,,,,,,,,,,,,,,,,,,,,3,,,,,,,,,,,,,,,,,,,,,,,,,,,,,,,,,,,,,,,,,,,,434.2027,439.5183,strongly disagree,0,2,2,2,1,I try to keep up with the current trends and fashions.,0,1,0,0,,
,,,,,,,,,67435174b76a747138e8a47a,Spanish,13 or older,"no, only English or Spanish",no,2026-01-21_19h39.20.058,empathy_intonation_perc_control,2024.2.4,MacIntel,57.47126437,67435174b76a747138e8a47a,69712dc693a3960bdb483245,69717195bd1b4c6c598fb905,,,,,,,,,,,,,,,,,,,,,,,,,,,4,,,,,,,,,,,,,,,,,,,,,,,,,,,,,,,,,,,,,,,,,,,,439.5196,445.2174,slightly agree,0,3,3,3,1,"I find it difficult to explain to others things that I understand easily,   when they don't understand it first time.",1,0,0,1,,
,,,,,,,,,67435174b76a747138e8a47a,Spanish,13 or older,"no, only English or Spanish",no,2026-01-21_19h39.20.058,empathy_intonation_perc_control,2024.2.4,MacIntel,57.47126437,67435174b76a747138e8a47a,69712dc693a3960bdb483245,69717195bd1b4c6c598fb905,,,,,,,,,,,,,,,,,,,,,,,,,,,5,,,,,,,,,,,,,,,,,,,,,,,,,,,,,,,,,,,,,,,,,,,,445.2186,447.4849,strongly disagree,0,4,4,4,1,I dream most nights.,0,1,0,0,,
,,,,,,,,,67435174b76a747138e8a47a,Spanish,13 or older,"no, only English or Spanish",no,2026-01-21_19h39.20.058,empathy_intonation_perc_control,2024.2.4,MacIntel,57.47126437,67435174b76a747138e8a47a,69712dc693a3960bdb483245,69717195bd1b4c6c598fb905,,,,,,,,,,,,,,,,,,,,,,,,,,,6,,,,,,,,,,,,,,,,,,,,,,,,,,,,,,,,,,,,,,,,,,,,447.4861,449.685,strongly agree,0,5,5,5,1,I really enjoy caring for other people.,1,0,1,0,,
,,,,,,,,,67435174b76a747138e8a47a,Spanish,13 or older,"no, only English or Spanish",no,2026-01-21_19h39.20.058,empathy_intonation_perc_control,2024.2.4,MacIntel,57.47126437,67435174b76a747138e8a47a,69712dc693a3960bdb483245,69717195bd1b4c6c598fb905,,,,,,,,,,,,,,,,,,,,,,,,,,,7,,,,,,,,,,,,,,,,,,,,,,,,,,,,,,,,,,,,,,,,,,,,449.6861,452.8007,slightly agree,0,6,6,6,1,I try to solve my own problems rather than discussing them with others.,0,1,0,0,,
,,,,,,,,,67435174b76a747138e8a47a,Spanish,13 or older,"no, only English or Spanish",no,2026-01-21_19h39.20.058,empathy_intonation_perc_control,2024.2.4,MacIntel,57.47126437,67435174b76a747138e8a47a,69712dc693a3960bdb483245,69717195bd1b4c6c598fb905,,,,,,,,,,,,,,,,,,,,,,,,,,,8,,,,,,,,,,,,,,,,,,,,,,,,,,,,,,,,,,,,,,,,,,,,452.8019,453.735,slightly agree,0,7,7,7,1,I find it hard to know what to do in a social situation.,1,0,0,1,,
,,,,,,,,,67435174b76a747138e8a47a,Spanish,13 or older,"no, only English or Spanish",no,2026-01-21_19h39.20.058,empathy_intonation_perc_control,2024.2.4,MacIntel,57.47126437,67435174b76a747138e8a47a,69712dc693a3960bdb483245,69717195bd1b4c6c598fb905,,,,,,,,,,,,,,,,,,,,,,,,,,,9,,,,,,,,,,,,,,,,,,,,,,,,,,,,,,,,,,,,,,,,,,,,453.7361,455.0344,slightly agree,0,8,8,8,1,I am at my best first thing in the morning.,0,1,0,0,,
,,,,,,,,,67435174b76a747138e8a47a,Spanish,13 or older,"no, only English or Spanish",no,2026-01-21_19h39.20.058,empathy_intonation_perc_control,2024.2.4,MacIntel,57.47126437,67435174b76a747138e8a47a,69712dc693a3960bdb483245,69717195bd1b4c6c598fb905,,,,,,,,,,,,,,,,,,,,,,,,,,,10,,,,,,,,,,,,,,,,,,,,,,,,,,,,,,,,,,,,,,,,,,,,455.0356,457.4183,slightly disagree,0,9,9,9,1,People often tell me that I went too far in driving my point home in a discussion.,1,0,0,1,,
,,,,,,,,,67435174b76a747138e8a47a,Spanish,13 or older,"no, only English or Spanish",no,2026-01-21_19h39.20.058,empathy_intonation_perc_control,2024.2.4,MacIntel,57.47126437,67435174b76a747138e8a47a,69712dc693a3960bdb483245,69717195bd1b4c6c598fb905,,,,,,,,,,,,,,,,,,,,,,,,,,,11,,,,,,,,,,,,,,,,,,,,,,,,,,,,,,,,,,,,,,,,,,,,457.4194,458.985,slightly disagree,0,10,10,10,1,It doesn't bother me too much if I am late meeting a friend.,1,0,0,1,,
,,,,,,,,,67435174b76a747138e8a47a,Spanish,13 or older,"no, only English or Spanish",no,2026-01-21_19h39.20.058,empathy_intonation_perc_control,2024.2.4,MacIntel,57.47126437,67435174b76a747138e8a47a,69712dc693a3960bdb483245,69717195bd1b4c6c598fb905,,,,,,,,,,,,,,,,,,,,,,,,,,,12,,,,,,,,,,,,,,,,,,,,,,,,,,,,,,,,,,,,,,,,,,,,458.9862,460.6351,slightly disagree,0,11,11,11,1,"Friendships and relationships are just too difficult, so I tend not to 
  bother with them.",1,0,0,1,,
,,,,,,,,,67435174b76a747138e8a47a,Spanish,13 or older,"no, only English or Spanish",no,2026-01-21_19h39.20.058,empathy_intonation_perc_control,2024.2.4,MacIntel,57.47126437,67435174b76a747138e8a47a,69712dc693a3960bdb483245,69717195bd1b4c6c598fb905,,,,,,,,,,,,,,,,,,,,,,,,,,,13,,,,,,,,,,,,,,,,,,,,,,,,,,,,,,,,,,,,,,,,,,,,460.6364,469.3352,slightly disagree,0,12,12,12,1,"I would never break a law, no matter how minor.",0,1,0,0,,
,,,,,,,,,67435174b76a747138e8a47a,Spanish,13 or older,"no, only English or Spanish",no,2026-01-21_19h39.20.058,empathy_intonation_perc_control,2024.2.4,MacIntel,57.47126437,67435174b76a747138e8a47a,69712dc693a3960bdb483245,69717195bd1b4c6c598fb905,,,,,,,,,,,,,,,,,,,,,,,,,,,14,,,,,,,,,,,,,,,,,,,,,,,,,,,,,,,,,,,,,,,,,,,,469.3362,472.1174,slightly agree,0,13,13,13,1,I often find it difficult to judge if something is rude or polite.,1,0,0,1,,
,,,,,,,,,67435174b76a747138e8a47a,Spanish,13 or older,"no, only English or Spanish",no,2026-01-21_19h39.20.058,empathy_intonation_perc_control,2024.2.4,MacIntel,57.47126437,67435174b76a747138e8a47a,69712dc693a3960bdb483245,69717195bd1b4c6c598fb905,,,,,,,,,,,,,,,,,,,,,,,,,,,15,,,,,,,,,,,,,,,,,,,,,,,,,,,,,,,,,,,,,,,,,,,,472.1185,474.4853,slightly agree,0,14,14,14,1,"In a conversation, I tend to focus on my own thoughts rather than on what 
  my listener might be thinking.",1,0,0,1,,
,,,,,,,,,67435174b76a747138e8a47a,Spanish,13 or older,"no, only English or Spanish",no,2026-01-21_19h39.20.058,empathy_intonation_perc_control,2024.2.4,MacIntel,57.47126437,67435174b76a747138e8a47a,69712dc693a3960bdb483245,69717195bd1b4c6c598fb905,,,,,,,,,,,,,,,,,,,,,,,,,,,16,,,,,,,,,,,,,,,,,,,,,,,,,,,,,,,,,,,,,,,,,,,,474.4863,476.5686,slightly agree,0,15,15,15,1,I prefer practical jokes to verbal humor.,0,1,0,0,,
,,,,,,,,,67435174b76a747138e8a47a,Spanish,13 or older,"no, only English or Spanish",no,2026-01-21_19h39.20.058,empathy_intonation_perc_control,2024.2.4,MacIntel,57.47126437,67435174b76a747138e8a47a,69712dc693a3960bdb483245,69717195bd1b4c6c598fb905,,,,,,,,,,,,,,,,,,,,,,,,,,,17,,,,,,,,,,,,,,,,,,,,,,,,,,,,,,,,,,,,,,,,,,,,476.5696,479.2019,slightly agree,0,16,16,16,1,I live life for today rather than the future.,0,1,0,0,,
,,,,,,,,,67435174b76a747138e8a47a,Spanish,13 or older,"no, only English or Spanish",no,2026-01-21_19h39.20.058,empathy_intonation_perc_control,2024.2.4,MacIntel,57.47126437,67435174b76a747138e8a47a,69712dc693a3960bdb483245,69717195bd1b4c6c598fb905,,,,,,,,,,,,,,,,,,,,,,,,,,,18,,,,,,,,,,,,,,,,,,,,,,,,,,,,,,,,,,,,,,,,,,,,479.2032,481.9852,slightly agree,0,17,17,17,1,"When I was a child, I enjoyed cutting up worms to see what would happen.",1,0,0,1,,
,,,,,,,,,67435174b76a747138e8a47a,Spanish,13 or older,"no, only English or Spanish",no,2026-01-21_19h39.20.058,empathy_intonation_perc_control,2024.2.4,MacIntel,57.47126437,67435174b76a747138e8a47a,69712dc693a3960bdb483245,69717195bd1b4c6c598fb905,,,,,,,,,,,,,,,,,,,,,,,,,,,19,,,,,,,,,,,,,,,,,,,,,,,,,,,,,,,,,,,,,,,,,,,,481.9861,489.0019,slightly agree,0,18,18,18,1,I can pick up quickly if someone says one thing but means another.,1,0,1,0,,
,,,,,,,,,67435174b76a747138e8a47a,Spanish,13 or older,"no, only English or Spanish",no,2026-01-21_19h39.20.058,empathy_intonation_perc_control,2024.2.4,MacIntel,57.47126437,67435174b76a747138e8a47a,69712dc693a3960bdb483245,69717195bd1b4c6c598fb905,,,,,,,,,,,,,,,,,,,,,,,,,,,20,,,,,,,,,,,,,,,,,,,,,,,,,,,,,,,,,,,,,,,,,,,,489.003,496.5019,strongly agree,0,19,19,19,1,I tend to have very strong opinions about morality.,0,1,0,0,,
,,,,,,,,,67435174b76a747138e8a47a,Spanish,13 or older,"no, only English or Spanish",no,2026-01-21_19h39.20.058,empathy_intonation_perc_control,2024.2.4,MacIntel,57.47126437,67435174b76a747138e8a47a,69712dc693a3960bdb483245,69717195bd1b4c6c598fb905,,,,,,,,,,,,,,,,,,,,,,,,,,,21,,,,,,,,,,,,,,,,,,,,,,,,,,,,,,,,,,,,,,,,,,,,496.5029,499.4849,strongly disagree,0,20,20,20,1,It is hard for me to see why some things upset people so much.,1,0,0,1,,
,,,,,,,,,67435174b76a747138e8a47a,Spanish,13 or older,"no, only English or Spanish",no,2026-01-21_19h39.20.058,empathy_intonation_perc_control,2024.2.4,MacIntel,57.47126437,67435174b76a747138e8a47a,69712dc693a3960bdb483245,69717195bd1b4c6c598fb905,,,,,,,,,,,,,,,,,,,,,,,,,,,22,,,,,,,,,,,,,,,,,,,,,,,,,,,,,,,,,,,,,,,,,,,,499.4859,503.9677,slightly agree,0,21,21,21,1,I find it easy to put myself in somebody else's shoes.,1,0,1,0,,
,,,,,,,,,67435174b76a747138e8a47a,Spanish,13 or older,"no, only English or Spanish",no,2026-01-21_19h39.20.058,empathy_intonation_perc_control,2024.2.4,MacIntel,57.47126437,67435174b76a747138e8a47a,69712dc693a3960bdb483245,69717195bd1b4c6c598fb905,,,,,,,,,,,,,,,,,,,,,,,,,,,23,,,,,,,,,,,,,,,,,,,,,,,,,,,,,,,,,,,,,,,,,,,,503.9689,505.5348,slightly agree,0,22,22,22,1,I think that good manners are the most important thing a parent can teach their child.,0,1,0,0,,
